"Time (s)","Acceleration x (m/s^2)","Acceleration y (m/s^2)","Acceleration z (m/s^2)"
1.309297000E-2,-1.752555609E0,2.968810081E0,9.481039047E0
2.319432500E-2,-1.771709204E0,2.916137695E0,9.567230225E0
3.331635800E-2,-1.795651317E0,2.901772499E0,9.490615845E0
4.346005600E-2,-1.795651317E0,2.892195702E0,9.399636269E0
5.368849500E-2,-1.776497602E0,2.916137695E0,9.308655739E0
6.369693400E-2,-1.771709204E0,2.853888512E0,9.337387085E0
7.402948700E-2,-1.651999116E0,2.863465309E0,9.251194954E0
8.419829000E-2,-1.565807939E0,2.925714493E0,9.155426979E0
9.495501000E-2,-1.522712231E0,2.949656487E0,9.145850182E0
1.044419900E-1,-1.374271750E0,2.906560898E0,9.188945770E0
1.143889180E-1,-1.379060149E0,2.916137695E0,9.141061783E0
1.245257420E-1,-1.417367458E0,2.887407303E0,9.131484985E0
1.346940240E-1,-1.517923832E0,2.892195702E0,9.179368973E0
1.448728790E-1,-1.613691926E0,2.858676910E0,9.447520256E0
1.548503280E-1,-1.604115129E0,2.700659513E0,9.619902611E0
1.650967870E-1,-1.584961534E0,2.652775526E0,9.667786598E0
1.752223090E-1,-1.594538331E0,2.724601507E0,9.701305389E0
1.853555910E-1,-1.556231141E0,2.806004286E0,9.447520256E0
1.956642900E-1,-1.618480325E0,2.873042107E0,9.370905876E0
2.056445000E-1,-1.599326730E0,2.954444885E0,9.361329079E0
2.155280420E-1,-1.628057122E0,2.987963676E0,9.404424667E0
2.259714290E-1,-1.757344007E0,2.916137695E0,9.370905876E0
2.360826800E-1,-1.747767210E0,2.849100113E0,9.452308655E0
2.462791910E-1,-1.714248419E0,2.849100113E0,9.380482674E0
2.564197650E-1,-1.666364431E0,2.801215887E0,9.289502144E0
2.664991410E-1,-1.776497602E0,2.762908697E0,9.342175484E0
2.767129960E-1,-1.584961534E0,2.753331900E0,9.346963882E0
2.867775290E-1,-1.489193439E0,2.810792685E0,9.188945770E0
2.969407070E-1,-1.517923832E0,2.844311714E0,9.064447403E0
3.070748220E-1,-1.604115129E0,2.873042107E0,9.093177795E0
3.172944590E-1,-1.613691926E0,2.906560898E0,9.208099365E0
3.276007620E-1,-1.661576033E0,2.825158119E0,9.323021889E0
3.376012840E-1,-1.728613615E0,2.796427488E0,9.246406555E0
3.476825350E-1,-1.661576033E0,2.786850691E0,9.188945770E0
3.578440980E-1,-1.695094824E0,2.810792685E0,9.279925346E0
3.680045680E-1,-1.738190413E0,2.834734917E0,9.323021889E0
3.781714960E-1,-1.570596337E0,2.743755102E0,9.217676163E0
3.882829550E-1,-1.532289028E0,2.758120298E0,9.232041359E0
3.984455090E-1,-1.503558636E0,2.633621931E0,9.241618156E0
4.086873850E-1,-1.589749932E0,2.705447912E0,9.284713745E0
4.190318650E-1,-1.541865945E0,2.624045134E0,9.418789864E0
4.288276990E-1,-1.690306425E0,2.667140722E0,9.399636269E0
4.389981690E-1,-1.757344007E0,2.691082716E0,9.414001465E0
4.491167110E-1,-1.766920805E0,2.753331900E0,9.390059471E0
4.592755670E-1,-1.991975784E0,2.786850691E0,8.973467827E0
4.695388490E-1,-1.824381709E0,2.834734917E0,9.054870605E0
4.795681730E-1,-1.738190413E0,2.796427488E0,9.217676163E0
4.896634860E-1,-1.848323703E0,2.533065319E0,9.208099365E0
4.998140080E-1,-1.881842494E0,2.657563925E0,8.944737434E0
5.099583840E-1,-2.145204782E0,2.844311714E0,9.179368973E0
5.200754160E-1,-2.384624958E0,2.767697096E0,9.361329079E0
5.307026570E-1,-2.303221941E0,2.724601507E0,9.399636269E0
5.404521370E-1,-2.312798738E0,2.528276920E0,9.380482674E0
5.505240650E-1,-2.308010340E0,2.422932148E0,9.495404243E0
5.606644830E-1,-2.523488522E0,2.633621931E0,9.562441826E0
5.709771920E-1,-2.777273893E0,3.016694069E0,9.524134636E0
5.809619330E-1,-2.657563925E0,2.968810081E0,9.394847870E0
5.910811530E-1,-2.068590164E0,2.557007313E0,8.738836288E0
6.012796430E-1,-2.303221941E0,3.145981073E0,9.184157372E0
6.114141760E-1,-2.255337954E0,3.179499865E0,9.437943459E0
6.215453220E-1,-2.059013367E0,2.657563925E0,9.998186111E0
6.321017820E-1,-2.240972757E0,2.384624958E0,8.882488251E0
6.419749600E-1,-2.145204782E0,2.782062292E0,9.481039047E0
6.520149610E-1,-2.331952572E0,2.801215887E0,9.533711433E0
6.622966290E-1,-2.370259762E0,2.906560898E0,9.380482674E0
6.722840770E-1,-2.370259762E0,2.901772499E0,9.255983353E0
6.826817350E-1,-2.279279947E0,2.887407303E0,9.279925346E0
6.927557460E-1,-2.030282974E0,2.863465309E0,9.323021889E0
7.026718930E-1,-1.771709204E0,2.829946518E0,9.184157372E0
7.128683520E-1,-1.872265697E0,3.021482468E0,8.757989883E0
7.229329370E-1,-1.709460020E0,3.059789658E0,8.662221909E0
7.329897610E-1,-1.675941229E0,3.040636063E0,9.059659004E0
7.432934600E-1,-2.015917778E0,2.930502892E0,9.160215378E0
7.534116900E-1,-1.838746905E0,2.868253708E0,9.016563416E0
7.636123160E-1,-1.786074519E0,2.772485495E0,9.064447403E0
7.736458060E-1,-1.800439715E0,2.681505919E0,9.227252960E0
7.853118490E-1,-1.833958507E0,2.647987127E0,9.346963882E0
7.941094540E-1,-1.690306425E0,2.533065319E0,9.423578262E0
8.042207570E-1,-1.642422318E0,2.643198729E0,9.361329079E0
8.142146120E-1,-1.714248419E0,2.566584110E0,9.332598686E0
8.244480510E-1,-1.680729628E0,2.638410330E0,9.313444138E0
8.344870100E-1,-1.881842494E0,2.748543501E0,9.112331390E0
8.446777930E-1,-2.121262789E0,2.863465309E0,8.997409821E0
8.548178460E-1,-1.996764183E0,2.815581083E0,9.097966194E0
8.649249820E-1,-1.939303398E0,2.734178305E0,9.212887764E0
8.751129520E-1,-1.910573006E0,2.561795712E0,9.327810287E0
8.851926920E-1,-1.905784607E0,2.614468336E0,9.275136948E0
8.954305580E-1,-2.049436569E0,2.743755102E0,9.203310966E0
9.055683720E-1,-2.121262789E0,2.767697096E0,9.251194954E0
9.157813930E-1,-2.226607561E0,2.801215887E0,8.858546257E0
9.261140510E-1,-2.552218914E0,3.136404276E0,8.825027466E0
9.359495200E-1,-2.858676910E0,3.299209833E0,8.667010307E0
9.461219690E-1,-3.471592426E0,3.624821424E0,8.116343498E0
9.562072310E-1,-3.600879431E0,4.003105164E0,7.771578789E0
9.662956170E-1,-3.711012602E0,4.122815132E0,6.775590897E0
9.767005140E-1,-3.648763418E0,4.007893562E0,6.445190907E0
9.866130150E-1,-3.969586372E0,3.931279182E0,6.636727333E0
9.968091620E-1,-5.377377033E0,4.280832767E0,7.015010834E0
1.007023121E0,-6.770802498E0,5.142745018E0,7.867346764E0
1.017141768E0,-7.532158375E0,5.698200226E0,7.637503624E0
1.027228696E0,-8.039729118E0,5.951985359E0,7.101202011E0
1.037511093E0,-7.805097580E0,6.335057735E0,6.196194172E0
1.047623334E0,-8.202534676E0,6.995857239E0,5.339069843E0
1.057665887E0,-7.240066051E0,7.283161640E0,3.557783842E0
1.067899273E0,-6.090848923E0,7.460332394E0,2.681505978E-1
1.077874326E0,-5.367800236E0,7.316680431E0,-2.863465309E0
1.088053286E0,-6.555324078E0,7.685387611E0,-5.291185856E0
1.098178807E0,-7.297526836E0,8.480262756E0,-4.084507942E0
1.108381048E0,-8.676587105E0,8.226476669E0,5.602431893E-1
1.118484695E0,-1.059673691E1,9.495404243E0,4.548983097E0
1.128730321E0,-1.082179165E1,1.044829655E1,7.996633530E0
1.138855114E0,-9.442731857E0,1.020408726E1,9.016563416E0
1.148963552E0,-7.762001991E0,9.093177795E0,8.470685959E0
1.159182668E0,-6.924031258E0,8.010998726E0,6.038176537E0
1.169176471E0,-6.325480938E0,8.245630264E0,3.849876404E0
1.179398555E0,-7.101202011E0,8.935160637E0,5.315127969E-1
1.189509598E0,-8.087613106E0,9.509769440E0,-8.523358107E-1
1.199879859E0,-8.628703117E0,9.595960617E0,-1.733402014E0
1.209810277E0,-7.627926826E0,9.284713745E0,-1.867477298E-1
1.219885226E0,-6.890512466E0,9.126696587E0,1.192312479E0
1.230054289E0,-5.765237808E0,9.299078941E0,2.681505978E-1
1.240381634E0,-3.768473387E0,8.250418663E0,-7.517793179E-1
1.250361323E0,-1.934514999E0,7.790732384E0,-1.733402014E0
1.260550282E0,-7.517793179E-1,7.086836815E0,-1.556231141E0
1.270608825E0,1.915361360E-2,6.694188118E0,-1.063025594E0
1.280930492E0,1.029506683E0,6.268020153E0,-2.303221941E0
1.290881222E0,2.877830505E0,5.995080948E0,-2.269703150E0
1.301130755E0,3.964797974E0,6.392518520E0,-3.227383852E0
1.311191277E0,4.410119534E0,6.689399719E0,-4.137180328E0
1.321312163E0,4.711789131E0,6.378153324E0,-4.577713490E0
1.331543831E0,4.975151062E0,5.966350555E0,-4.122815132E0
1.341619717E0,5.420472622E0,5.386953831E0,-3.380612850E0
1.351813051E0,5.880159378E0,5.046977043E0,-2.896984100E0
1.361976386E0,6.454767704E0,4.797980309E0,-2.475604534E0
1.372179876E0,6.526593685E0,4.438849926E0,-3.514688015E0
1.382384513E0,5.760449409E0,4.927267075E0,-3.969586372E0
1.392319566E0,6.009446144E0,5.391742229E0,-3.366247654E0
1.402451963E0,6.430825710E0,5.439626217E0,-2.595314741E0
1.412747849E0,7.010222435E0,5.267243862E0,-3.610456228E0
1.422717954E0,7.278373241E0,5.090072632E0,-4.960785866E0
1.433991289E0,7.819462776E0,4.788403511E0,-6.071695328E0
1.443015248E0,8.092401505E0,4.553771496E0,-5.750872612E0
1.453297280E0,7.747636795E0,4.520252705E0,-4.635174274E0
1.463582385E0,7.560888767E0,4.630385876E0,-3.979163170E0
1.473128949E0,7.637503624E0,4.683058739E0,-3.696647406E0
1.483714523E0,7.637503624E0,4.721365929E0,-3.548206806E0
1.493783899E0,7.460332394E0,4.726154327E0,-3.366247654E0
1.503891660E0,7.929595947E0,4.453215122E0,-3.280056238E0
1.514123015E0,8.183381081E0,3.845088005E0,-3.026270866E0
1.524129839E0,7.426813602E0,3.327940464E0,-2.877830505E0
1.534403486E0,7.934384346E0,3.950432777E0,-3.131615877E0
1.544456404E0,7.407660007E0,4.515464306E0,-3.308786631E0
1.554777863E0,6.617573261E0,4.860229492E0,-3.117250681E0
1.564859114E0,6.742072105E0,4.984727859E0,-2.758120298E0
1.574898386E0,6.761225700E0,4.989516258E0,-2.245761156E0
1.585056715E0,6.943184853E0,4.678270340E0,-2.494758129E0
1.595205576E0,7.642292023E0,5.061342239E0,-3.055001259E0
1.604938754E0,8.279149055E0,5.353435040E0,-4.548983097E0
1.615396046E0,8.374917984E0,5.971138954E0,-5.291185856E0
1.625557193E0,8.667010307E0,6.349422932E0,-5.592854977E0
1.635694226E0,8.245630264E0,6.248866558E0,-5.204994678E0
1.645983289E0,7.948749542E0,5.961562157E0,-3.945644379E0
1.655988030E0,7.886500359E0,5.032611847E0,-2.925714493E0
1.666135479E0,8.015787125E0,4.357447147E0,-2.700659513E0
1.676258396E0,8.882488251E0,3.730166197E0,-3.280056238E0
1.686516001E0,8.470685959E0,3.452438831E0,-3.462015629E0
1.696545117E0,8.365341187E0,3.495534420E0,-3.514688015E0
1.706861212E0,8.465897560E0,3.821146011E0,-3.778050184E0
1.716849963E0,8.106766701E0,4.232948780E0,-4.266467571E0
1.726978089E0,7.651868820E0,5.003881454E0,-4.501099110E0
1.737122673E0,6.919242859E0,5.343858242E0,-3.936067581E0
1.747415539E0,6.588842869E0,5.506663799E0,-3.203441858E0
1.757567623E0,6.694188118E0,4.932055473E0,-2.930502892E0
1.767623718E0,6.512228489E0,4.304774761E0,-2.806004286E0
1.777800646E0,6.148310184E0,3.969586372E0,-2.906560898E0
1.787838147E0,5.540182590E0,4.194641590E0,-2.418143749E0
1.798071377E0,5.209783077E0,4.683058739E0,-2.442085743E0
1.808186430E0,4.438849926E0,4.908113480E0,-3.241749048E0
1.818230181E0,6.904877663E0,3.763684988E0,-2.154781580E0
1.828488880E0,6.943184853E0,2.628833532E0,-1.465251446E0
1.838613829E0,8.781931877E0,2.049436569E0,-2.255337954E0
1.848693101E0,9.950302124E0,1.278503656E0,-2.614468336E0
1.858906487E0,1.063504410E1,6.943184733E-1,-3.031059265E0
1.869406957E0,1.034774017E1,-9.050082564E-1,-5.272032261E0
1.879303625E0,1.174116516E1,-1.206677675E0,-5.746084213E0
1.889218834E0,1.223437023E1,-1.470039845E0,-5.975927353E0
1.899451752E0,1.176510715E1,-1.403002143E0,-6.081272125E0
1.909531544E0,1.102290440E1,-1.240196466E0,-5.650316238E0
1.919629045E0,1.008916569E1,-8.810662031E-1,-5.295974255E0
1.929832119E0,9.854534149E0,-4.788403511E-1,-5.018246651E0
1.939981391E0,9.706093788E0,3.830722719E-2,-4.850652695E0
1.950261861E0,9.198522568E0,5.315127969E-1,-4.860229492E0
1.960309310E0,9.026140213E0,6.081272364E-1,-4.434061527E0
1.970496967E0,8.911218643E0,-3.830722719E-2,-4.788403511E0
1.980503947E0,8.796297073E0,-5.793967843E-1,-4.453215122E0
1.990690823E0,8.748413086E0,-8.762778044E-1,-5.214571476E0
2.000969783E0,8.710105896E0,-1.422155857E0,-6.028599739E0
2.011091034E0,8.714894295E0,-8.810662031E-1,-3.854664803E0
2.021082701E0,8.882488251E0,-5.937620401E-1,-3.567360640E0
2.031303484E0,8.786720276E0,-1.436520964E-1,-3.801992416E0
2.041396349E0,9.131484985E0,-1.192312479E0,-4.563348293E0
2.051651454E0,8.336610794E0,-1.541865945E0,-4.242525578E0
2.061791039E0,1.030464458E1,-2.968810201E-1,-4.639962673E0
2.071785831E0,8.949525833E0,5.841852427E-1,-4.410119534E0
2.081971197E0,8.212111473E0,6.177040339E-1,-4.764461517E0
2.092099688E0,6.478709698E0,2.106897533E-1,-5.659893036E0
2.102416095E0,4.323928356E0,-5.363011956E-1,-5.597643375E0
2.112487242E0,3.552995205E0,-5.027823448E-1,-6.114790916E0
2.122644274E0,4.405331135E0,5.267243832E-2,-6.138733387E0
2.132832296E0,6.248866558E0,1.039083481E0,-6.651092529E0
2.142905682E0,8.259995461E0,1.517923832E0,-6.751648903E0
2.153094590E0,9.524134636E0,1.695094824E0,-5.813121796E0
2.163122820E0,9.481039047E0,1.867477298E0,-4.280832767E0
2.173321623E0,9.141061783E0,1.982398987E0,-3.069366693E0
2.183545270E0,8.590395927E0,1.608903527E0,-2.576161146E0
2.193460271E0,8.370129585E0,8.714894056E-1,-2.973598480E0
2.203692251E0,8.585607529E0,8.619125932E-2,-4.505887508E0
2.213932981E0,8.719682693E0,9.576806799E-3,-6.382941723E0
2.223935065E0,8.872911453E0,2.250549644E-1,-7.000645638E0
2.234396212E0,8.686163902E0,7.038952708E-1,-6.761225700E0
2.244411942E0,8.576030731E0,1.666364431E0,-3.495534420E0
2.254314600E0,8.355764389E0,2.173935175E0,-1.173158884E0
2.264506059E0,8.954314232E0,1.963245392E0,-4.692635238E-1
2.274797675E0,9.935936928E0,1.259350061E0,-6.991068721E-1
2.284990071E0,1.062546730E1,7.182604820E-2,-1.800439715E0
2.295449187E0,1.140597725E1,-9.624691010E-1,-2.442085743E0
2.305168928E0,1.070687008E1,-1.077390790E0,-1.920149803E0
2.315269241E0,1.002212811E1,-4.213795066E-1,-1.345541358E0
2.325373461E0,1.002212811E1,-1.675941199E-1,2.873041928E-1
2.335723306E0,1.000776291E1,2.442085743E-1,8.331822157E-1
2.345643463E0,1.058237171E1,-7.996633649E-1,7.900865674E-1
2.355731901E0,1.159272480E1,-2.911349297E0,1.766920805E0
2.365935392E0,1.188481712E1,-4.180276394E0,1.881842494E0
2.376037112E0,1.211944866E1,-4.596867085E0,1.824381709E0
2.386289665E0,1.209550667E1,-4.568136692E0,1.824381709E0
2.396395760E0,1.158314800E1,-4.189853191E0,1.651999116E0
2.406529302E0,1.059673691E1,-3.758896589E0,5.683835030E0
2.416996960E0,8.044517517E0,-2.159569979E0,7.297526836E0
2.426974409E0,6.742072105E0,-1.201889277E0,7.005434036E0
2.436933732E0,5.928043365E0,-2.078166962E0,5.449203014E0
2.447133108E0,6.028599739E0,-3.524264812E0,3.145981073E0
2.457385766E0,6.675034523E0,-3.806780815E0,2.331952572E0
2.467558215E0,8.523358345E0,-4.769249916E0,8.140285611E-1
2.477544726E0,1.052491093E1,-5.377377033E0,-5.602431893E-1
2.487918321E0,1.144428444E1,-4.955997467E0,-7.948749661E-1
2.497773218E0,1.096544361E1,-4.707000732E0,-1.426944256E0
2.507883427E0,1.007001209E1,-4.108449936E0,2.106897593E0
2.518016865E0,8.820239067E0,-3.801992416E0,4.079719543E0
2.528311762E0,8.288725853E0,-3.567360640E0,3.768473387E0
2.538541815E0,7.920019150E0,-2.355894566E0,3.744531393E0
2.548475358E0,7.632715225E0,-1.733402014E0,3.701435804E0
2.558616140E0,8.130708694E0,-1.216254473E0,3.050212860E0
2.568858433E0,8.652645111E0,-1.053448766E-1,2.422932148E0
2.578999684E0,9.811438560E0,-4.261679053E-1,2.020706177E0
2.588660362E0,1.088404083E1,-1.417367458E0,1.393425345E0
2.599141457E0,1.101332760E1,-2.197877169E0,1.158793569E0
2.609567441E0,1.093671322E1,-3.447650433E0,1.742978811E0
2.619448438E0,1.013704967E1,-3.289633036E0,2.427720547E0
2.629591512E0,9.653421402E0,-3.270479441E0,1.584961534E0
2.639822294E0,9.409213066E0,-3.567360640E0,1.254561663E0
2.649955056E0,8.968679428E0,-4.213795185E0,2.130839586E0
2.660007505E0,1.005564690E1,-4.687847137E0,-5.458779931E-1
2.670214381E0,1.226788998E1,-5.971138954E0,-6.416460276E-1
2.680427923E0,1.252646351E1,-7.110779285E0,6.320692301E-1
2.690400633E0,1.227267838E1,-6.440402508E0,3.141192675E0
2.700633498E0,1.217212105E1,-5.267243862E0,4.774038315E0
2.710711624E0,1.200452709E1,-5.008669853E0,4.673481941E0
2.721012875E0,1.210508347E1,-5.319916248E0,4.185064793E0
2.731196522E0,1.226788998E1,-4.620809078E0,4.525041103E0
2.741152617E0,1.236365795E1,-2.964021683E0,4.505887508E0
2.751300691E0,1.187045193E1,-2.681505919E0,3.955221176E0
2.761448608E0,1.148738003E1,-2.293645144E0,2.006340981E0
2.771574182E0,1.060631371E1,-1.795651317E0,1.034295082E0
2.781681631E0,9.572018623E0,-1.685518026E0,1.335964561E0
2.791866528E0,9.050082207E0,-1.010353088E0,1.388636947E0
2.801995331E0,8.997409821E0,-4.453215301E-1,1.446097851E0
2.812144655E0,9.821015358E0,-1.484405100E-1,2.351106167E0
2.822589969E0,1.050096893E1,7.038952708E-1,3.715801001E0
2.832393928E0,1.077869606E1,1.589749932E0,4.132391930E0
2.842673356E0,1.026633644E1,2.111685991E0,3.265691042E0
2.852694868E0,9.715670586E0,2.140416384E0,1.867477298E0
2.862935442E0,9.035717010E0,1.211466074E0,1.570596337E0
2.873146380E0,8.058882713E0,1.675941199E-1,1.723825216E0
2.883209714E0,7.082048416E0,1.628057212E-1,1.719036818E0
2.893089559E0,6.282385349E0,6.991068721E-1,1.805228114E0
2.903364196E0,5.468356609E0,8.858546019E-1,1.513135433E0
2.913536072E0,4.644751072E0,7.996633649E-1,1.316810966E0
2.923667948E0,4.544194698E0,1.484405100E-1,1.742978811E0
2.933817532E0,5.468356609E0,-9.576807022E-1,2.801215887E0
2.944089773E0,7.364564419E0,-3.715801001E0,1.091755986E0
2.954129826E0,1.015620327E1,-5.683835030E0,3.327940464E0
2.964358577E0,1.121444035E1,-6.277596951E0,3.629609823E0
2.974423473E0,1.062067890E1,-5.382165432E0,2.738966703E0
2.984734881E0,9.720458984E0,-4.510675907E0,1.709460020E0
2.995100194E0,8.916007042E0,-3.179499865E0,1.551442742E0
3.005052070E0,8.887276649E0,-3.500322819E0,6.416460276E-1
3.015081863E0,9.859322548E0,-5.224148273E0,-7.709329724E-1
3.025134781E0,9.768342972E0,-5.482721806E0,-1.350329757E0
3.035304625E0,8.480262756E0,-4.041412354E0,-8.283938169E-1
3.045395147E0,7.924807549E0,-2.322375536E0,5.793967843E-1
3.055637857E0,7.862558365E0,-2.432508945E0,1.618480325E0
3.065658326E0,7.757213593E0,-2.643198729E0,2.877830505E0
3.075858067E0,8.044517517E0,-3.260902643E0,3.754108191E0
3.085859891E0,9.744400978E0,-3.581725836E0,3.591302633E0
3.096069215E0,1.112346077E1,-3.931279182E0,2.729389906E0
3.106539476E0,1.124795914E1,-4.644751072E0,2.667140722E0
3.116268904E0,1.161187840E1,-4.884171486E0,2.738966703E0
3.126454062E0,1.157357121E1,-4.592078686E0,2.715024710E0
3.136708698E0,1.140118885E1,-4.194641590E0,2.533065319E0
3.146780366E0,1.141555405E1,-3.730166197E0,2.255337954E0
3.156851252E0,1.170285797E1,-3.251325846E0,1.900996208E0
3.166957295E0,1.085052204E1,-3.385401249E0,1.776497602E0
3.177246827E0,1.003170490E1,-3.078943491E0,1.388636947E0
3.187286463E0,1.026154804E1,-2.762908697E0,8.044517636E-1
3.197452610E0,1.024239445E1,-2.700659513E0,4.309563041E-1
3.207568861E0,1.015141487E1,-2.513911724E0,3.447650373E-1
3.217696935E0,9.935936928E0,-2.212242365E0,3.687070608E-1
3.227869853E0,1.017535686E1,-1.958456993E0,6.751648784E-1
3.238004073E0,1.041477776E1,-2.087743998E0,1.302445769E0
3.248182615E0,1.027591324E1,-1.704671621E0,1.010353088E0
3.258325533E0,9.955090523E0,-1.216254473E0,5.267243981E-1
3.268385742E0,9.332598686E0,-6.081272364E-1,1.532289088E-1
3.278547775E0,1.014183807E1,-3.064578176E-1,2.633621991E-1
3.288673238E0,1.040998936E1,-3.351882473E-2,-8.140286058E-2
3.299060537E0,1.037647057E1,-1.867477298E-1,6.224924326E-2
3.309109913E0,1.018972206E1,-5.554547906E-1,3.830722719E-2
3.319302102E0,1.043871975E1,-1.249773264E0,3.447650373E-1
3.329349707E0,1.050575733E1,-1.757344007E0,3.591302633E-1
3.339576739E0,1.021845245E1,-1.690306425E0,-3.830722719E-2
3.349797990E0,1.004128170E1,-8.044517636E-1,1.312022567E0
3.359927887E0,1.026633644E1,-1.345541358E0,1.091755986E0
3.369872627E0,1.015141487E1,-1.067813993E0,1.867477298E-1
3.380093514E0,9.481039047E0,-4.979939461E-1,-6.895300746E-1
3.390353827E0,9.572018623E0,-1.082179189E0,-9.289502501E-1
3.400425183E0,1.007001209E1,-1.896207690E0,-1.235408068E0
3.410566954E0,9.782708168E0,-1.561019540E0,-2.164358377E0
3.420679768E0,9.768342972E0,-1.292868853E-1,-3.495534420E0
3.430899717E0,1.031900978E1,2.322375536E0,-3.347094059E0
3.440887322E0,8.614337921E0,3.993528366E0,5.137956619E0
3.451015240E0,9.409213066E0,-5.889736414E-1,6.584054470E0
3.461150449E0,1.143949604E1,4.548983276E-1,1.388636976E-1
3.471361335E0,8.916007042E0,2.159569979E0,-1.063025594E0
3.481507222E0,1.393425369E1,1.058237195E0,3.835511208E0
3.491661285E0,1.349850941E1,6.943184733E-1,2.643198729E0
3.501838266E0,7.010222435E0,2.940079689E0,9.145850539E-1
3.511920871E0,5.501875401E0,5.535394192E0,2.082955360E0
3.522273788E0,6.038176537E0,5.942408562E0,2.566584110E0
3.532210196E0,5.348646641E0,6.502651691E0,3.658340216E0
3.542263322E0,6.263231754E0,6.019022942E0,4.486733913E0
3.552479937E0,7.857769966E0,5.827486992E0,4.122815132E0
3.562378063E0,7.455543995E0,5.348646641E0,4.012681961E0
3.572783325E0,7.776367188E0,3.150769472E0,4.821922302E0
3.583051711E0,4.525041103E0,4.376600742E0,5.664681435E0
3.593075202E0,9.203310966E0,4.022258759E0,5.042188644E0
3.603244786E0,8.125920296E0,3.227383852E0,5.252878666E0
3.613441818E0,8.753201485E0,3.749319792E0,5.386953831E0
3.623523746E0,9.562441826E0,4.299986362E0,6.014234543E0
3.633608852E0,9.141061783E0,4.338293552E0,6.004657745E0
3.643851144E0,8.916007042E0,4.290409565E0,5.468356609E0
3.654053958E0,8.427590370E0,4.084507942E0,5.817910194E0
3.664020521E0,8.714894295E0,3.318363667E0,6.421248913E0
3.674178231E0,9.940725327E0,2.600103140E0,6.229712963E0
3.684720367E0,8.959102631E0,2.557007313E0,6.627150536E0
3.694442608E0,8.935160637E0,3.572149038E0,9.509769440E0
3.704842036E0,8.293514252E0,3.821146011E0,1.196621990E1
3.714929849E0,8.121131897E0,2.643198729E0,8.082824707E0
3.724873704E0,8.154650688E0,3.021482468E0,3.576937437E0
3.734956258E0,9.600749016E0,2.853888512E0,3.198653460E0
3.745305894E0,1.099417400E1,2.255337954E0,3.471592426E0
3.755699176E0,1.176510715E1,3.050212860E0,3.734954596E0
3.765667354E0,1.074996567E1,2.801215887E0,7.723694801E0
3.775580376E0,9.734824181E0,2.873042107E0,9.758766174E0
3.785994700E0,9.768342972E0,2.715024710E0,7.096413612E0
3.795853607E0,7.948749542E0,2.336740971E0,6.928819656E0
3.806116629E0,5.348646641E0,2.255337954E0,9.169792175E0
3.816039443E0,3.002328873E0,2.164358377E0,9.466673851E0
3.826185017E0,2.624045134E0,9.528923035E-1,6.555324078E0
3.836321841E0,2.810792685E0,7.517793179E-1,6.248866558E0
3.846603248E0,4.525041103E0,5.315127969E-1,5.918466568E0
3.856679447E0,5.477933407E0,1.034295082E0,5.018246651E0
3.866874448E0,6.411672115E0,2.298433542E0,3.663128614E0
3.877175230E0,7.388506413E0,2.983175278E0,4.730942726E0
3.887140856E0,7.565677166E0,3.687070608E0,5.305551052E0
3.897303982E0,7.513004780E0,5.171475887E0,5.171475887E0
3.907538514E0,6.004657745E0,6.507440090E0,5.310339451E0
3.917585755E0,3.835511208E0,6.574477673E0,7.019799232E0
3.927670548E0,2.940079689E0,6.526593685E0,6.296750546E0
3.938126538E0,2.403778553E0,7.450755596E0,3.801992416E0
3.947974716E0,3.964797974E0,7.053318024E0,3.730166197E0
3.958361540E0,5.487510204E0,6.971915245E0,4.424484730E0
3.968258208E0,6.191405773E0,7.704541206E0,3.629609823E0
3.978384980E0,6.272808552E0,7.752425194E0,3.605667830E0
3.988734616E0,6.454767704E0,6.861782074E0,4.031835556E0
3.998715763E0,5.602431774E0,6.114790916E0,4.031835556E0
4.008944306E0,4.496310711E0,5.468356609E0,4.285621166E0
4.019001338E0,3.691859007E0,4.601655483E0,4.659116745E0
4.029070714E0,3.256114244E0,3.763684988E0,6.641515732E0
4.039249517E0,3.423708439E0,4.007893562E0,7.747636795E0
4.049355403E0,3.730166197E0,4.156333923E0,8.552088737E0
4.059558425E0,4.371812344E0,4.544194698E0,8.508993149E0
4.069706447E0,4.084507942E0,5.664681435E0,7.388506413E0
4.079578792E0,4.180276394E0,6.421248913E0,7.034164429E0
4.089945772E0,4.003105164E0,6.220136166E0,7.307103634E0
4.100071034E0,3.586514235E0,6.598419666E0,6.679822922E0
4.110292649E0,3.112462282E0,7.220912457E0,6.837840080E0
4.120415983E0,2.236184359E0,5.741295815E0,8.470685959E0
4.130576714E0,2.557007313E0,2.973598480E0,1.031900978E1
4.140722704E0,9.433154464E-1,3.643975019E0,6.655880928E0
4.150848851E0,3.303998411E-1,3.715801001E0,1.723825216E0
4.160979060E0,-4.309563041E-1,5.339069843E0,-1.905784607E0
4.171124634E0,3.117250681E0,9.112331390E0,-2.140416384E0
4.181290625E0,4.774038315E0,1.250730991E1,7.661445439E-2
4.191365209E0,5.319916248E0,1.196143150E1,2.858676910E0
4.201471096E0,7.072471619E0,1.038604736E1,4.161122322E0
4.211902920E0,6.402095318E0,8.532935143E0,4.659116745E0
4.221986514E0,4.831499100E0,7.225700855E0,4.750096321E0
4.232235109E0,4.065354347E0,5.937620163E0,4.783615112E0
4.242124641E0,4.127603531E0,4.879383087E0,4.098873138E0
4.252203392E0,4.429273129E0,4.965574265E0,4.012681961E0
4.262502352E0,4.103661537E0,6.617573261E0,4.620809078E0
4.272519697E0,4.697423935E0,7.091625214E0,4.055777550E0
4.282636000E0,6.028599739E0,7.718906403E0,3.739742994E0
4.292809126E0,6.191405773E0,9.998186111E0,1.958456993E0
4.303373398E0,6.722918510E0,1.100853920E1,1.896207690E0
4.313078451E0,6.761225700E0,9.586383820E0,3.706224203E0
4.323250795E0,5.157110691E0,1.018972206E1,4.266467571E0
4.333407515E0,4.036623955E0,9.236829758E0,6.009446144E0
4.343539860E0,3.936067581E0,4.127603531E0,6.995857239E0
4.353743246E0,3.691859007E0,6.933608055E0,4.161122322E0
4.363932779E0,6.756437302E0,9.054870605E0,3.462015629E0
4.374100175E0,8.063671112E0,1.072602367E1,2.973598480E0
4.384122416E0,3.816357613E0,1.413536644E1,-1.403002143E0
4.394210802E0,1.034295082E0,1.337401104E1,7.661445439E-2
4.404391533E0,8.188169599E-1,1.110909557E1,2.035071373E0
4.414477940E0,2.466027737E0,8.700529099E0,2.020706177E0
4.424697472E0,3.466804028E0,8.465897560E0,1.465251446E0
4.434765390E0,3.552995205E0,8.757989883E0,1.225831270E0
4.444953047E0,3.955221176E0,8.494627953E0,5.458779931E-1
4.455352215E0,4.414907932E0,8.657433510E0,-1.771709323E-1
4.465417268E0,5.099649429E0,8.240841866E0,2.585737705E-1
4.475427529E0,4.745307922E0,8.599972725E0,8.379706144E-1
4.485703832E0,4.534617901E0,8.786720276E0,1.628057122E0
4.495637427E0,4.151545525E0,9.212887764E0,1.225831270E0
4.505784147E0,5.626373768E0,9.074024200E0,1.651999116E0
4.515941283E0,6.473921299E0,8.303091049E0,2.245761156E0
4.526309513E0,5.305551052E0,8.298302650E0,2.370259762E0
4.536460608E0,5.061342239E0,7.996633530E0,2.255337954E0
4.546325557E0,5.626373768E0,7.996633530E0,2.092532396E0
4.556475506E0,5.875370979E0,7.939172745E0,1.872265697E0
4.566611497E0,5.650316238E0,8.130708694E0,1.575384736E0
4.576770404E0,5.142745018E0,8.298302650E0,2.116474390E0
4.586970822E0,4.932055473E0,8.695740700E0,2.705447912E0
4.597078739E0,4.745307922E0,9.078812599E0,2.571372509E0
4.608132855E0,4.323928356E0,8.954314232E0,2.647987127E0
4.617410148E0,4.467580318E0,8.427590370E0,2.475604534E0
4.627534836E0,4.702212334E0,7.905653954E0,1.733402014E0
4.637626504E0,4.141968727E0,8.757989883E0,1.005564690E0
4.647755984E0,5.463568211E0,8.121131897E0,1.584961534E0
4.657932443E0,7.388506413E0,6.636727333E0,2.408566952E0
4.668141298E0,9.969455719E0,4.271255970E0,3.323152065E0
4.678148018E0,7.651868820E0,7.105990410E0,3.356670856E0
4.688351717E0,5.305551052E0,9.155426979E0,3.706224203E0
4.698557135E0,4.280832767E0,9.648633003E0,4.156333923E0
4.708557240E0,3.873818398E0,9.495404243E0,4.697423935E0
4.718720262E0,4.199429989E0,8.987833023E0,4.189853191E0
4.728883961E0,4.232948780E0,7.790732384E0,3.337517262E0
4.739041201E0,3.888183594E0,7.283161640E0,2.437297344E0
4.749174119E0,4.371812344E0,7.120356083E0,1.359906554E0
4.759469380E0,5.181052685E0,7.929595947E0,-7.326257229E-1
4.769384844E0,5.099649429E0,8.963891029E0,-2.279279947E0
4.779600424E0,4.271255970E0,8.973467827E0,-4.778826714E0
4.789709748E0,2.762908697E0,9.011775017E0,-8.700529099E0
4.799868655E0,1.695094824E0,8.130708694E0,-8.288725853E0
4.810076521E0,2.734178305E0,7.436390400E0,-4.180276394E0
4.820304595E0,4.170699596E0,7.556100368E0,-1.924938202E0
4.830430013E0,5.272032261E0,7.723694801E0,-3.447650373E-1
4.840404597E0,5.573701382E0,7.829039574E0,4.596867263E-1
4.850649806E0,5.434837818E0,7.757213593E0,9.720458984E-1
4.860747932E0,5.243301868E0,7.738059998E0,1.580173135E0
4.870897412E0,4.778826714E0,7.987056732E0,1.934514999E0
4.881176945E0,3.179499865E0,8.935160637E0,2.911349297E0
4.891177883E0,1.350329757E0,9.988609314E0,3.184288263E0
4.901266947E0,9.433154464E-1,1.035252857E1,2.159569979E0
4.911407156E0,1.235408068E0,1.078348446E1,1.120486379E0
4.921627626E0,1.829170108E0,1.080263805E1,-2.298433632E-1
4.931682731E0,3.830722809E0,9.629479408E0,-1.154005170E0
4.942102211E0,6.086060524E0,8.963891029E0,-1.235408068E0
4.952147837E0,5.334281445E0,8.882488251E0,-1.197100878E0
4.962160911E0,4.122815132E0,8.753201485E0,-1.321599364E0
4.972499923E0,3.490746021E0,8.322244644E0,-1.407790542E0
4.982620913E0,4.084507942E0,7.862558365E0,-1.125274777E0
4.992779352E0,4.266467571E0,7.785943985E0,-5.985504389E-1
5.002885238E0,3.701435804E0,7.987056732E0,1.101332754E-1
5.012927999E0,3.552995205E0,8.422801971E0,7.565677166E-1
5.023113469E0,3.208230257E0,8.901641846E0,9.672574997E-1
5.033165606E0,2.978386879E0,9.342175484E0,7.422025204E-1
5.043616492E0,3.543418407E0,1.003170490E1,1.915361360E-2
5.053582483E0,2.892195702E0,1.035731697E1,5.746084079E-2
5.063679411E0,3.260902643E0,9.193734169E0,4.788403399E-3
5.073657901E0,4.141968727E0,8.336610794E0,-9.624691010E-1
5.084024413E0,4.692635536E0,7.331045628E0,-5.027823448E-1
5.094127122E0,5.046977043E0,6.416460514E0,-3.926490843E-1
5.104150977E0,4.793191910E0,6.569689274E0,-5.554547906E-1
5.114253947E0,4.673481941E0,7.809885979E0,-1.910573006E0
5.124405354E0,3.730166197E0,8.949525833E0,-1.091755986E0
5.134717022E0,3.270479441E0,9.624691010E0,-7.182604820E-2
5.144687127E0,2.863465309E0,1.004128170E1,1.819593310E-1
5.154874889E0,2.437297344E0,1.026154804E1,3.591302633E-1
5.165387338E0,2.020706177E0,9.849745750E0,5.554547906E-1
5.175071245E0,2.188300371E0,9.481039047E0,4.979939461E-1
5.185272600E0,2.523488522E0,9.246406555E0,2.202665508E-1
5.195546195E0,2.676717520E0,8.839392662E0,9.576806426E-2
5.205912237E0,1.666364431E0,9.471462250E0,8.427590132E-1
5.215659009E0,1.781286120E0,9.265560150E0,7.278373241E-1
5.225976146E0,1.465251446E0,9.787496567E0,-4.788403399E-3
5.236065522E0,4.089296341E0,9.988609314E0,-1.110909581E0
5.246084429E0,4.414907932E0,1.010831928E1,-6.751648784E-1
5.256400420E0,4.108449936E0,1.053448772E1,-9.576807022E-1
5.266446462E0,4.295197964E0,1.062067890E1,-7.086837292E-1
5.276595682E0,3.433285236E0,1.005564690E1,2.873041928E-1
5.286643287E0,2.815581083E0,9.188945770E0,5.746084079E-2
5.296904121E0,2.671929121E0,9.006986618E0,2.442085743E-1
5.306964487E0,2.130839586E0,8.556877136E0,4.836287498E-1
5.317395894E0,1.283292055E0,8.552088737E0,3.639186621E-1
5.327274020E0,4.213795066E-1,8.317456245E0,-3.543418646E-1
5.337604803E0,6.320692301E-1,7.661445618E0,1.628057212E-1
5.347562356E0,1.374271750E0,8.034940720E0,-3.734954596E-1
5.357676628E0,9.097966552E-1,8.101978302E0,-6.943184733E-1
5.367825743E0,2.489969730E0,8.001421928E0,2.154781520E-1
5.377917046E0,7.326257229E-1,7.876923561E0,1.656787634E0
5.388332933E0,2.509123325E0,7.536946774E0,-4.788403511E-1
5.398192830E0,5.837063789E0,7.474697590E0,3.208230138E-1
5.408510799E0,6.062118530E0,7.517793179E0,5.171475410E-1
5.418656009E0,6.919242859E0,7.776367188E0,-9.576806426E-2
5.428799499E0,7.527369976E0,8.264783859E0,9.528923035E-1
5.438972990E0,7.666234016E0,8.346187592E0,4.836287498E-1
5.449051845E0,8.848969460E0,8.111555099E0,5.315127969E-1
5.459182315E0,8.695740700E0,8.192957878E0,8.571242094E-1
5.469209972E0,9.768342972E0,7.517793179E0,-1.675941199E-1
5.479351536E0,1.033816338E1,7.560888767E0,1.857900500E0
5.489504870E0,9.112331390E0,7.508216381E0,6.991068721E-1
5.499679194E0,7.671022415E0,7.685387611E0,9.241618514E-1
5.509834455E0,6.148310184E0,7.283161640E0,-2.346317619E-1
5.520051748E0,5.841852188E0,7.125144482E0,2.202665508E-1
5.530059093E0,6.124367714E0,7.455543995E0,4.309562966E-2
5.540251489E0,7.043741226E0,8.025363922E0,2.633621991E-1
5.550512688E0,7.757213593E0,7.838616371E0,5.171475410E-1
5.560817273E0,8.250418663E0,7.479485989E0,3.160346150E-1
5.570791076E0,7.354987621E0,7.101202011E0,6.703764945E-2
5.580875764E0,6.833051682E0,6.813898087E0,6.512228847E-1
5.590950453E0,7.584830761E0,5.468356609E0,6.847416759E-1
5.600822693E0,6.670246124E0,6.311115742E0,5.841852427E-1
5.611214361E0,8.020575523E0,6.852205276E0,7.757213712E-1
5.621613008E0,8.054094315E0,7.388506413E0,7.661445141E-1
5.631500874E0,7.843404770E0,7.091625214E0,4.548983276E-1
5.641861760E0,7.833827972E0,6.856993675E0,7.422025204E-1
5.651900824E0,7.230489254E0,6.191405773E0,7.230489254E-1
5.662288272E0,8.734047890E0,5.765237808E0,1.115697980E0
5.672093482E0,7.240066051E0,6.809109688E0,9.959878922E-1
5.682268483E0,7.206547260E0,6.612784863E0,6.655880809E-1
5.692321036E0,7.211335659E0,6.775590897E0,6.512228847E-1
5.702743277E0,7.240066051E0,6.205770969E0,9.959878922E-1
5.712736142E0,7.647080421E0,5.846640587E0,1.024718285E0
5.722924841E0,7.929595947E0,6.464344501E0,9.672574997E-1
5.732904269E0,7.302315235E0,5.971138954E0,1.359906554E0
5.743088489E0,7.374141216E0,6.129156113E0,6.655880809E-1
5.753321927E0,8.020575523E0,6.177040577E0,6.943184733E-1
5.763487085E0,7.479485989E0,6.253654957E0,6.847416759E-1
5.773504898E0,7.134721279E0,6.818686485E0,9.768342972E-1
5.783646618E0,6.521805286E0,5.612008572E0,1.163581967E0
5.793969744E0,7.273584843E0,6.143521786E0,1.934514999E0
5.804167922E0,7.656657219E0,6.354211330E0,1.790862918E0
5.814102923E0,7.943961143E0,5.554547787E0,9.050082564E-1
5.824271101E0,8.001421928E0,5.272032261E0,1.340752989E-1
5.834322613E0,7.560888767E0,5.755661011E0,3.256114423E-1
5.844478395E0,7.541735172E0,5.851428986E0,7.278373241E-1
5.854731312E0,8.121131897E0,5.693411827E0,9.241618514E-1
5.864752355E0,6.473921299E0,5.784391403E0,8.954314590E-1
5.874875689E0,4.558559895E0,5.904101372E0,1.766920805E0
5.885219128E0,9.050082207E0,4.371812344E0,1.489193439E0
5.895157983E0,8.336610794E0,4.060565948E0,9.337386489E-1
5.905519911E0,1.080263805E1,2.901772499E0,4.548983276E-1
5.915584964E0,1.055364132E1,3.950432777E0,-2.346317619E-1
5.925585851E0,9.519346237E0,4.486733913E0,3.016694188E-1
5.935766581E0,1.024239445E1,4.261679173E0,-7.900865674E-1
5.946066530E0,7.311892033E0,6.081272125E0,-1.666364431E0
5.956087625E0,7.881711960E0,5.655104637E0,-1.005564705E-1
5.966208928E0,9.414001465E0,5.583278179E0,3.447650373E-1
5.976862106E0,8.829815865E0,4.927267075E0,4.357447028E-1
5.986713721E0,7.848193169E0,4.343081951E0,5.602431893E-1
5.996641952E0,8.848969460E0,4.319139957E0,1.101332784E0
6.006870546E0,1.171722317E1,3.533841610E0,1.556231141E0
6.016863047E0,1.063025570E1,2.935291290E0,7.661445141E-1
6.027086225E0,7.694964409E0,4.185064793E0,-2.844311714E0
6.037169768E0,7.963114738E0,4.410119534E0,-1.106121182E0
6.047276957E0,7.613561630E0,3.782838583E0,-5.267243981E-1
6.057441958E0,6.110002518E0,4.304774761E0,-4.261679053E-1
6.067819146E0,6.186617374E0,3.845088005E0,6.703764796E-1
6.077921387E0,6.306327343E0,4.055777550E0,7.326257229E-1
6.087891804E0,1.052491093E1,3.912125587E0,-4.788403213E-2
6.098324097E0,1.133893967E1,4.156333923E0,3.208230138E-1
6.108128161E0,1.021366405E1,5.128379822E0,-8.619125932E-2
6.118296130E0,1.010831928E1,4.630385876E0,-2.729389966E-1
6.128507850E0,9.945513725E0,4.237737179E0,-4.788403511E-1
6.138820924E0,9.260771751E0,4.683058739E0,-1.264138460E0
6.148959519E0,9.246406555E0,4.218583584E0,-9.433154464E-1
6.159207853E0,8.781931877E0,3.845088005E0,-5.123591423E-1
6.169208948E0,7.929595947E0,4.635174274E0,-1.929726601E0
6.179028584E0,9.504981041E0,3.825934410E0,-1.015141487E0
6.185834721E0,9.739612579E0,3.825934410E0,-7.517793179E-1
6.194389575E0,1.010353088E1,3.687070608E0,-7.182605267E-1
6.204521243E0,1.039083576E1,4.046200752E0,-5.075707436E-1
6.214712703E0,9.380482674E0,3.825934410E0,-6.033388376E-1
6.224775412E0,8.446743965E0,4.060565948E0,-3.878606856E-1
6.234969892E0,8.317456245E0,4.323928356E0,-4.357447028E-1
6.245151091E0,8.643068314E0,4.180276394E0,-5.985504389E-1
6.255219165E0,8.485051155E0,4.141968727E0,-1.058237195E0
6.264995520E0,8.628703117E0,3.998316765E0,-1.139639974E0
6.275604792E0,9.026140213E0,3.849876404E0,-1.230619669E0
6.285619637E0,8.561665535E0,4.448426723E0,-1.805228114E0
6.295798492E0,8.355764389E0,5.018246651E0,-1.125274777E0
6.305958493E0,8.939949036E0,4.237737179E0,-9.481038451E-1
6.316035056E0,9.351752281E0,4.362235546E0,-4.644751251E-1
6.326263026E0,1.235408115E1,4.362235546E0,-1.149216816E-1
6.336315944E0,9.514557838E0,4.194641590E0,1.340752989E-1
6.346487299E0,7.398083210E0,3.260902643E0,-4.003105164E0
6.356666467E0,1.019451046E1,3.462015629E0,1.608903527E0
6.366730322E0,8.207323074E0,2.317587137E0,-9.433154464E-1
6.376928396E0,8.159439087E0,4.520252705E0,-1.786074519E0
6.387006522E0,9.155426979E0,5.075707436E0,-1.115697980E0
6.397183450E0,5.597643375E0,6.895300865E0,-1.436521053E0
6.407388711E0,6.306327343E0,6.081272125E0,-1.460463047E0
6.417547410E0,8.825027466E0,3.371036053E0,-1.503558636E0
6.427784807E0,1.238281155E1,2.820369720E0,-2.705447912E0
6.437763610E0,1.684560394E1,1.096544385E0,-6.995857239E0
6.447972934E0,1.556231117E1,3.873818398E0,-1.680250740E1
6.458158612E0,-4.165911078E-1,7.939172745E0,1.428380775E1
6.468309863E0,8.609549522E0,1.225831270E0,1.623268723E0
6.478291948E0,9.078812599E0,3.213018656E0,8.236053586E-1
6.488492209E0,1.010353088E1,3.313575268E0,0.000000000E0
6.498922470E0,9.749189377E0,3.658340216E0,-1.273715258E0
6.508778617E0,8.370129585E0,5.415684223E0,-2.250549555E0
6.518907681E0,7.580042362E0,4.984727859E0,-2.212242365E0
6.528994088E0,8.164227486E0,4.668693542E0,-1.972822189E0
6.539144506E0,8.590395927E0,4.817133904E0,-1.699883223E0
6.549391382E0,8.911218643E0,5.003881454E0,-2.207453966E0
6.559519716E0,1.017535686E1,4.865017891E0,-1.455674648E0
6.569596227E0,1.238759995E1,4.639962673E0,-8.810662031E-1
6.579810499E0,1.043871975E1,3.725377798E0,-2.106897593E0
6.589927323E0,5.726930618E0,5.884947777E0,6.416460276E-1
6.600049147E0,6.684611320E0,5.238513470E0,-7.182604820E-2
6.610214356E0,8.015787125E0,4.855441093E0,9.576806799E-3
6.619942743E0,8.331821442E0,5.080495834E0,2.920926213E-1
6.630778265E0,8.355764389E0,4.960785866E0,4.213795066E-1
6.640594672E0,8.939949036E0,4.529829502E0,4.501099288E-1
6.650807329E0,9.064447403E0,4.481945515E0,4.118026793E-1
6.660868268E0,8.872911453E0,4.419696331E0,2.873041928E-1
6.671186498E0,8.834604263E0,4.170699596E0,-8.619125932E-2
6.681263114E0,9.021351814E0,3.969586372E0,-3.399766386E-1
6.691443792E0,8.149862289E0,4.223371983E0,-4.692635238E-1
6.701471866E0,7.809885979E0,4.419696331E0,-3.303998411E-1
6.711879158E0,8.149862289E0,4.534617901E0,-1.244984865E-1
6.721744628E0,8.403648376E0,4.616020679E0,-3.830722719E-2
6.732002025E0,8.829815865E0,4.687847137E0,9.097966552E-2
6.743307443E0,8.643068314E0,4.563348293E0,8.571242094E-1
6.752380881E0,8.868123055E0,4.601655483E0,7.900865674E-1
6.762339528E0,6.186617374E0,4.352658749E0,1.005564705E-1
6.772704529E0,9.088389397E0,4.797980309E0,-8.379706144E-1
6.782674009E0,8.829815865E0,4.620809078E0,-9.481038451E-1
6.792770260E0,8.944737434E0,4.759673119E0,-9.097966552E-1
6.802867761E0,9.188945770E0,4.620809078E0,-6.320692301E-1
6.813173752E0,9.078812599E0,4.137180328E0,-7.038952708E-1
6.823080107E0,8.528146744E0,3.916913986E0,-9.768342972E-1
6.833356670E0,8.202534676E0,3.988739967E0,-1.039083481E0
6.843462713E0,8.619126320E0,3.792415380E0,-9.145850539E-1
6.853533079E0,8.513781548E0,4.999093056E0,-6.895300746E-1
6.863682871E0,8.173804283E0,4.932055473E0,-9.241618514E-1
6.873853602E0,8.327033043E0,4.448426723E0,-7.805097699E-1
6.884017561E0,8.312667847E0,3.749319792E0,-5.985504389E-1
6.894139801E0,8.082824707E0,3.256114244E0,-6.033388376E-1
6.904273552E0,8.465897560E0,2.724601507E0,-1.259350061E0
6.914406991E0,9.318233490E0,3.993528366E0,-1.910573006E0
6.924564961E0,9.595960617E0,4.898536682E0,-1.551442742E0
6.934694597E0,8.973467827E0,5.386953831E0,-1.383848548E0
6.944830223E0,9.121908188E0,5.252878666E0,-1.484405041E0
6.954975433E0,8.997409821E0,4.965574265E0,-1.316810966E0
6.965079809E0,8.154650688E0,4.343081951E0,-1.422155857E0
6.975319341E0,8.010998726E0,3.869029999E0,-1.570596337E0
6.985437727E0,7.326257229E0,3.557783842E0,-1.953668594E0
6.995533874E0,7.958326340E0,3.380612850E0,-1.939303398E0
7.005757417E0,8.518569946E0,3.485957623E0,-1.666364431E0
7.015859709E0,9.083600998E0,3.543418407E0,-1.326387763E0
7.025947887E0,9.289502144E0,3.715801001E0,-1.005564690E0
7.036083618E0,1.004128170E1,3.605667830E0,-4.884171486E-1
7.046392942E0,9.543288231E0,4.180276394E0,-8.858546019E-1
7.056623099E0,9.385271072E0,3.873818398E0,-1.302445769E0
7.066542214E0,9.265560150E0,3.610456228E0,-1.618480325E0
7.076702788E0,8.690952301E0,3.538630009E0,-1.690306425E0
7.086894300E0,9.188945770E0,3.687070608E0,-1.824381709E0
7.097377634E0,9.265560150E0,3.950432777E0,-1.781286120E0
7.107135864E0,9.232041359E0,3.303998232E0,-2.226607561E0
7.117205657E0,7.747636795E0,3.596091032E0,-2.102109194E0
7.127439981E0,7.699752808E0,3.059789658E0,-2.226607561E0
7.137538680E0,8.772355080E0,2.633621931E0,-1.987187386E0
7.147864202E0,8.647856712E0,2.279279947E0,-1.154005170E0
7.158004099E0,9.299078941E0,2.901772499E0,-5.889736414E-1
7.168080089E0,9.844957352E0,2.389413357E0,-2.968810201E-1
7.178183580E0,9.950302124E0,2.935291290E0,-3.830722570E-1
7.188308008E0,1.034774017E1,3.390189648E0,-4.070142806E-1
7.198487801E0,1.001733971E1,3.332728863E0,-3.830722570E-1
7.208504572E0,9.911994934E0,3.347094059E0,-4.022258818E-1
7.218649521E0,9.787496567E0,3.275267839E0,-9.241618514E-1
7.228804366E0,9.466673851E0,2.715024710E0,-1.173158884E0
7.239012544E0,9.543288231E0,2.552218914E0,-1.288080573E0
7.249200983E0,9.528923035E0,2.240972757E0,-1.340752959E0
7.259235515E0,9.854534149E0,2.609679937E0,-1.230619669E0
7.269371558E0,9.586383820E0,2.935291290E0,-1.077390790E0
7.279509163E0,9.998186111E0,2.719813108E0,-1.187524080E0
7.289604737E0,1.010353088E1,3.045424461E0,-1.517923832E0
7.299881300E0,9.069235802E0,3.332728863E0,-1.422155857E0
7.310129478E0,9.447520256E0,2.403778553E0,-1.221042871E0
7.320101406E0,1.004128170E1,2.097320795E0,-8.667010069E-1
7.330211199E0,1.003170490E1,2.063801765E0,1.340752989E-1
7.340363752E0,1.040998936E1,1.824381709E0,1.963245422E-1
7.350579691E0,1.041956615E1,2.126051188E0,-2.250549644E-1
7.361018181E0,1.027591324E1,1.905784607E0,9.097966552E-2
7.370729589E0,9.935936928E0,2.193088770E0,-2.537853718E-1
7.380966881E0,9.763554573E0,2.154781580E0,-6.895300746E-1
7.391065841E0,9.576807022E0,1.561019540E0,-9.911994934E-1
7.401207769E0,1.026154804E1,9.720458984E-1,-1.355118155E0
7.411581155E0,1.040520096E1,1.235408068E0,-1.680729628E0
7.421495583E0,1.038604736E1,1.422155857E0,-1.628057122E0
7.431909595E0,1.008916569E1,1.738190413E0,-1.465251446E0
7.442064700E0,9.514557838E0,2.240972757E0,-1.393425345E0
7.452065013E0,8.757989883E0,2.102109194E0,-1.651999116E0
7.462125014E0,8.657433510E0,1.958456993E0,-1.766920805E0
7.472210015E0,9.021351814E0,1.628057122E0,-1.699883223E0
7.482433350E0,9.634267807E0,1.019929886E0,-1.752555609E0
7.492683559E0,1.005085850E1,7.469909191E-1,-1.307234168E0
7.502593039E0,1.045308495E1,9.050082564E-1,-1.163581967E0
7.513018301E0,1.004128170E1,8.810662031E-1,-1.149216771E0
7.523021218E0,9.888052940E0,9.528923035E-1,-9.720458984E-1
7.533114501E0,9.964667320E0,8.810662031E-1,-6.129156351E-1
7.543272470E0,1.051054573E1,1.249773264E0,-8.523358107E-1
7.553306638E0,1.049139214E1,1.426944256E0,-1.254561663E0
7.563537629E0,1.022802925E1,1.810016513E0,-1.503558636E0
7.573671848E0,9.964667320E0,1.776497602E0,-1.833958507E0
7.583844349E0,9.710882187E0,1.570596337E0,-1.905784607E0
7.593864975E0,9.452308655E0,1.714248419E0,-1.996764183E0
7.604106903E0,9.351752281E0,1.618480325E0,-1.963245392E0
7.614321957E0,9.945513725E0,1.470039845E0,-1.891419291E0
7.624321072E0,1.023760605E1,1.197100878E0,-2.059013367E0
7.634241959E0,1.030943298E1,1.182735682E0,-1.996764183E0
7.644860553E0,1.055842972E1,1.086967587E0,-1.862688899E0
7.654750763E0,1.082658005E1,1.168370485E0,-2.011129379E0
7.664799774E0,1.104684639E1,1.379060149E0,-2.044648170E0
7.675014567E0,1.133415127E1,1.632845521E0,-2.154781580E0
7.685201651E0,1.152568722E1,1.977610588E0,-2.188300371E0
7.695638892E0,1.161187840E1,2.178723574E0,-2.226607561E0
7.705367018E0,1.149695683E1,2.298433542E0,-2.312798738E0
7.715626758E0,1.187524033E1,2.475604534E0,-1.441309452E0
7.725927020E0,1.174116516E1,2.384624958E0,-9.768342972E-1
7.736067125E0,1.096065521E1,2.106897593E0,-2.767697096E0
7.746040199E0,1.091277122E1,2.073378563E0,-2.499546528E0
7.756130044E0,1.009395409E1,3.318363667E0,-2.442085743E0
7.766420357E0,1.017056847E1,3.098097086E0,-2.595314741E0
7.776520671E0,1.005564690E1,3.318363667E0,-3.208230138E-1
7.786614474E0,7.369352818E0,4.209006786E0,6.416460276E-1
7.796778641E0,5.061342239E0,3.069366693E0,-1.197100878E-1
7.807056611E0,7.168240070E0,1.254561663E0,6.512228847E-1
7.817122862E0,6.789956093E0,1.695094824E0,-5.650315881E-1
7.827251821E0,6.378153324E0,1.881842494E0,-4.218583584E0
7.837314062E0,6.933608055E0,1.211466074E0,-4.865017891E0
7.847499896E0,6.679822922E0,1.747767210E0,-6.335057735E0
7.857582606E0,1.429817295E1,-1.575384736E0,-7.661445141E-1
7.867825263E0,1.029985619E1,2.025494576E0,-5.746084079E-2
7.877875681E0,1.087446404E1,2.796427488E0,3.849876404E0
7.888191203E0,1.179862595E1,1.704671621E0,2.082955360E0
7.898202506E0,1.056321812E1,1.680729628E0,2.308010340E0
7.908327090E0,9.921571732E0,1.738190413E0,1.441309452E0
7.918153133E0,9.749189377E0,2.322375536E0,1.388636947E0
7.928658029E0,9.418789864E0,2.705447912E0,-1.513135433E0
7.938683551E0,8.973467827E0,2.868253708E0,-3.916913986E0
7.948902302E0,9.160215378E0,2.973598480E0,-2.624045134E0
7.958986783E0,9.088389397E0,2.911349297E0,-2.154781580E0
7.969156627E0,8.882488251E0,2.791639090E0,-1.379060149E0
7.979327670E0,8.034940720E0,3.447650433E0,-7.805097699E-1
7.989484338E0,9.586383820E0,2.992752075E0,-5.602431893E-1
7.999820745E0,8.825027466E0,3.088520288E0,2.394201607E-2
8.009744913E0,9.289502144E0,2.839523315E0,2.202665508E-1
8.019990018E0,9.481039047E0,2.992752075E0,-1.915361285E-1
8.030084602E0,9.500192642E0,2.839523315E0,3.639186621E-1
8.040166322E0,9.749189377E0,2.145204782E0,4.309562966E-2
8.050382469E0,9.988609314E0,2.006340981E0,-8.427590132E-1
8.060386480E0,9.045293808E0,2.667140722E0,-2.097320795E0
8.070570439E0,6.521805286E0,3.394978046E0,-4.740519226E-1
8.080806586E0,6.976703644E0,3.112462282E0,1.292868853E-1
8.090832837E0,7.661445618E0,3.337517262E0,-1.340752989E-1
8.100991640E0,8.552088737E0,3.452438831E0,-5.267243981E-1
8.111124141E0,8.906430244E0,4.702212334E0,-1.939303398E0
8.121217372E0,1.096065521E1,3.514688015E0,-7.469909191E-1
8.131539091E0,1.005564690E1,3.404554844E0,5.841852427E-1
8.141584509E0,9.102754593E0,2.604891539E0,-6.560112834E-1
8.151658833E0,9.279925346E0,2.298433542E0,-1.096544385E0
8.161873782E0,9.519346237E0,2.389413357E0,-8.140285611E-1
8.171948991E0,9.318233490E0,2.351106167E0,-1.091755986E0
8.182160034E0,9.107542992E0,1.742978811E0,-1.312022567E0
8.192247431E0,8.623914719E0,7.613561153E-1,-1.537077546E0
8.202490765E0,8.039729118E0,7.278373241E-1,-1.350329757E0
8.212548266E0,7.891288757E0,1.704671621E0,-2.097320795E0
8.222725298E0,8.259995461E0,2.537853718E0,-2.667140722E0
8.234498477E0,8.121131897E0,3.102885485E0,-3.208230257E0
8.242948061E0,9.351752281E0,3.318363667E0,-1.618480325E0
8.252744416E0,1.041477776E1,2.825158119E0,-9.816226959E-1
8.263386396E0,9.964667320E0,2.183511972E0,-1.426944256E0
8.273491449E0,9.121908188E0,1.671152830E0,-2.049436569E0
8.283514679E0,8.710105896E0,1.115697980E0,-2.791639090E0
8.293685410E0,8.312667847E0,9.768342972E-1,-3.509899616E0
8.303914942E0,8.389283180E0,1.173158884E0,-3.294421434E0
8.313948797E0,9.548076630E0,1.321599364E0,-2.729389906E0
8.324086923E0,1.068292809E1,1.886630893E0,-1.637633920E0
8.334483278E0,1.105642319E1,1.742978811E0,-1.024718285E0
8.344593071E0,1.105163479E1,1.379060149E0,-1.230619669E0
8.354689739E0,1.145864964E1,1.470039845E0,-9.864110947E-1
8.364812708E0,1.057758331E1,1.359906554E0,-1.503558636E0
8.374805782E0,1.805706978E1,-3.950432777E0,-8.269572258E0
8.385041929E0,1.532289124E1,1.005564690E0,2.274491549E0
8.395431982E0,1.269405746E1,2.154781580E0,-1.561019540E0
8.405213129E0,1.083615685E1,1.613691926E0,-3.940855980E0
8.415458078E0,1.027591324E1,5.554547906E-1,-4.151545525E0
8.425689121E0,1.072602367E1,7.134721279E-1,-2.681505919E0
8.435336726E0,1.062546730E1,1.039083481E0,-1.982398987E0
8.445758914E0,1.045308495E1,1.086967587E0,-2.011129379E0
8.455925426E0,1.044829655E1,1.149216771E0,-1.924938202E0
8.466059906E0,1.039083576E1,1.197100878E0,-1.905784607E0
8.476262094E0,9.749189377E0,1.197100878E0,-2.327163935E0
8.486505429E0,9.232041359E0,7.469909191E-1,-2.695871115E0
8.496641992E0,8.944737434E0,4.309563041E-1,-2.676717520E0
8.506670379E0,9.217676163E0,6.416460276E-1,-2.312798738E0
8.516882463E0,9.471462250E0,8.714894056E-1,-2.585737944E0
8.526949495E0,9.720458984E0,1.053448796E0,-2.303221941E0
8.533025225E0,9.725247383E0,1.072602391E0,-2.370259762E0
8.542171372E0,9.725247383E0,1.077390790E0,-2.322375536E0
8.552267987E0,9.040505409E0,1.043871999E0,-2.188300371E0
8.562468197E0,8.633491516E0,1.096544385E0,-2.303221941E0
8.572658302E0,8.858546257E0,1.221042871E0,-2.461239338E0
8.582743824E0,9.059659004E0,1.417367458E0,-2.461239338E0
8.593237419E0,9.461885452E0,1.570596337E0,-2.288856745E0
8.602960128E0,9.706093788E0,1.379060149E0,-2.308010340E0
8.613125181E0,9.725247383E0,9.576807022E-1,-2.298433542E0
8.623353672E0,9.758766174E0,7.469909191E-1,-2.035071373E0
8.633462996E0,9.758766174E0,7.038952708E-1,-2.188300371E0
8.643551226E0,9.758766174E0,8.331822157E-1,-2.394201756E0
8.653725914E0,9.763554573E0,1.211466074E0,-2.590526342E0
8.663900759E0,9.615114212E0,1.259350061E0,-2.782062292E0
8.674138625E0,9.495404243E0,1.307234168E0,-2.681505919E0
8.684120188E0,9.260771751E0,1.211466074E0,-2.686294317E0
8.694243314E0,9.093177795E0,9.145850539E-1,-2.480392933E0
8.704452742E0,9.461885452E0,8.188169599E-1,-1.987187386E0
8.714618420E0,9.581595421E0,9.337386489E-1,-1.939303398E0
8.724681963E0,9.461885452E0,9.050082564E-1,-1.987187386E0
8.734929881E0,9.356540680E0,9.002198577E-1,-2.499546528E0
8.744979725E0,9.658209801E0,1.125274777E0,-2.810792685E0
8.755135456E0,9.222464561E0,1.383848548E0,-3.059789658E0
8.765218061E0,8.638279915E0,1.101332784E0,-3.993528366E0
8.775387853E0,8.916007042E0,1.484405041E0,-3.758896589E0
8.785698115E0,9.734824181E0,1.939303398E0,-3.102885485E0
8.795711814E0,1.043871975E1,1.848323703E0,-2.743755102E0
8.805987961E0,1.059194851E1,1.422155857E0,-2.351106167E0
8.816018274E0,1.071644688E1,1.101332784E0,-2.312798738E0
8.826230775E0,1.066856289E1,1.043871999E0,-2.379836559E0
8.836422026E0,1.031900978E1,8.092401624E-1,-2.758120298E0
8.846405777E0,1.014662647E1,8.858546019E-1,-3.055001259E0
8.856774372E0,1.007480049E1,1.201889277E0,-3.442862034E0
8.866794894E0,9.854534149E0,1.446097851E0,-3.538630009E0
8.876498801E0,9.974244118E0,1.508347034E0,-3.213018656E0
8.886999896E0,1.000776291E1,1.134851575E0,-2.997540474E0
8.897108751E0,1.010831928E1,7.086837292E-1,-2.604891539E0
8.907305471E0,1.005085850E1,4.213795066E-1,-2.317587137E0
8.917402138E0,9.739612579E0,2.346317619E-1,-2.231395960E0
8.927582660E0,9.437943459E0,2.106897533E-1,-2.384624958E0
8.937626463E0,9.404424667E0,2.633621991E-1,-2.030282974E0
8.947928756E0,9.677363396E0,7.757213712E-1,-1.589749932E0
8.957941622E0,9.873687744E0,1.316810966E0,-1.302445769E0
8.968286883E0,9.959878922E0,1.331176162E0,-9.864110947E-1
8.978212717E0,9.888052940E0,1.216254473E0,-9.624691010E-1
8.988362770E0,9.840168953E0,1.240196466E0,-9.768342972E-1
8.998558969E0,9.974244118E0,1.283292055E0,-7.996633649E-1
9.008716210E0,9.931148529E0,1.110909581E0,-6.464344859E-1
9.018958451E0,9.538499832E0,8.475474119E-1,-1.278503656E0
9.028966889E0,9.361329079E0,6.943184733E-1,-1.369483352E0
9.039216994E0,9.332598686E0,8.188169599E-1,-1.230619669E0
9.049329652E0,9.160215378E0,1.144428372E0,-1.599326730E0
9.059372673E0,9.241618156E0,1.498770237E0,-1.632845521E0
9.069571320E0,9.121908188E0,1.924938202E0,-1.733402014E0
9.079678457E0,9.241618156E0,2.231395960E0,-1.972822189E0
9.089874395E0,9.504981041E0,2.346317768E0,-2.015917778E0
9.099944969E0,9.854534149E0,2.159569979E0,-2.183511972E0
9.110153251E0,9.964667320E0,1.814804912E0,-2.087743998E0
9.120444346E0,9.801861763E0,1.455674648E0,-2.164358377E0
9.130418305E0,9.988609314E0,1.259350061E0,-2.197877169E0
9.140542994E0,8.906430244E0,2.068590164E0,-3.591302633E0
9.150668203E0,9.179368973E0,2.437297344E0,-5.147533417E0
9.161011062E0,1.032379818E1,3.098097086E0,-6.775590897E0
9.170954351E0,1.067335129E1,2.049436569E0,-3.342305660E0
9.181097835E0,8.815450668E0,7.709329724E-1,3.447650433E0
9.191200864E0,8.216899872E0,7.661445141E-1,6.454767704E0
9.201328417E0,8.049305916E0,1.067813993E0,3.083731890E0
9.211496647E0,9.222464561E0,1.259350061E0,-2.968810201E-1
9.221700033E0,9.581595421E0,1.565807939E0,-4.309563041E-1
9.232021232E0,9.414001465E0,2.039859772E0,-2.681505978E-1
9.241959410E0,9.495404243E0,2.226607561E0,-7.565677166E-1
9.252201599E0,9.619902611E0,1.910573006E0,-1.206677675E0
9.262320298E0,9.749189377E0,1.814804912E0,-1.556231141E0
9.272378528E0,9.672574997E0,1.733402014E0,-1.814804912E0
9.282539206E0,9.447520256E0,1.896207690E0,-2.274491549E0
9.292664832E0,9.629479408E0,2.030282974E0,-1.699883223E0
9.302860823E0,1.047702694E1,2.221819162E0,-2.025494576E0
9.313105615E0,9.691728592E0,2.442085743E0,-2.078166962E0
9.323038168E0,9.907206535E0,2.188300371E0,-1.685518026E0
9.333190774E0,9.797073364E0,1.939303398E0,-1.019929886E0
9.343326868E0,9.677363396E0,2.006340981E0,-1.546654344E0
9.353610099E0,1.036210537E1,2.920926094E0,-2.571372509E0
9.363613016E0,1.039083576E1,2.758120298E0,-2.489969730E0
9.373877548E0,9.945513725E0,2.504334927E0,-2.437297344E0
9.384141091E0,9.792284966E0,2.772485495E0,-2.140416384E0
9.394081925E0,9.284713745E0,1.915361404E0,-1.690306425E0
9.404473020E0,8.671798706E0,1.714248419E0,-1.120486379E0
9.414365730E0,9.634267807E0,1.647210717E0,-1.312022567E0
9.424617345E0,9.327810287E0,1.144428372E0,-1.302445769E0
9.435457711E0,1.011310768E1,1.632845521E0,-8.427590132E-1
9.444756618E0,9.265560150E0,9.911994934E-1,-1.810016513E0
9.454880994E0,9.303867340E0,8.954314590E-1,-2.073378563E0
9.465085266E0,9.643844604E0,1.063025594E0,-1.723825216E0
9.475193340E0,9.457097054E0,1.168370485E0,-1.379060149E0
9.485407039E0,9.399636269E0,1.470039845E0,-1.388636947E0
9.495507352E0,9.825803757E0,1.805228114E0,-9.481038451E-1
9.505618239E0,9.907206535E0,1.896207690E0,-6.129156351E-1
9.515762146E0,9.792284966E0,2.001552582E0,-4.788403511E-1
9.525955428E0,1.002212811E1,1.982398987E0,-6.655880809E-1
9.536134388E0,9.725247383E0,2.097320795E0,-1.335964561E0
9.546256889E0,9.801861763E0,1.924938202E0,-1.987187386E0
9.556412931E0,9.988609314E0,1.977610588E0,-1.771709204E0
9.566445536E0,9.797073364E0,1.977610588E0,-1.403002143E0
9.576710433E0,9.854534149E0,2.097320795E0,-1.168370485E0
9.586737257E0,1.002691650E1,1.996764183E0,-9.241618514E-1
9.597004289E0,9.203310966E0,2.341529369E0,-1.158793569E0
9.607088353E0,9.255983353E0,2.427720547E0,-1.283292055E0
9.617212000E0,9.265560150E0,2.475604534E0,-1.374271750E0
9.627305699E0,9.155426979E0,2.710236311E0,-1.551442742E0
9.637454606E0,9.212887764E0,2.877830505E0,-1.565807939E0
9.647626794E0,9.074024200E0,3.026270866E0,-1.403002143E0
9.657756170E0,9.059659004E0,3.088520288E0,-1.268926859E0
9.668151588E0,8.935160637E0,3.155557871E0,-1.211466074E0
9.678006850E0,8.935160637E0,3.236960649E0,-1.134851575E0
9.688131590E0,8.959102631E0,3.222595453E0,-1.201889277E0
9.698381591E0,9.074024200E0,3.179499865E0,-1.134851575E0
9.708421853E0,9.174580574E0,3.131615877E0,-1.211466074E0
9.718630343E0,9.222464561E0,3.102885485E0,-1.225831270E0
9.728996959E0,9.327810287E0,3.040636063E0,-1.249773264E0
9.738840658E0,9.394847870E0,2.964021683E0,-1.316810966E0
9.748967846E0,9.399636269E0,2.825158119E0,-1.302445769E0
9.759142951E0,9.500192642E0,2.719813108E0,-1.350329757E0
9.769321130E0,9.634267807E0,2.724601507E0,-1.527500629E0
9.779413683E0,9.710882187E0,2.729389906E0,-1.465251446E0
9.789745767E0,9.763554573E0,2.695871115E0,-1.565807939E0
9.799760976E0,9.830592155E0,2.561795712E0,-1.517923832E0
9.809900509E0,9.787496567E0,2.384624958E0,-1.680729628E0
9.819997593E0,9.696516991E0,2.408566952E0,-1.383848548E0
9.830141969E0,9.739612579E0,2.466027737E0,-1.522712231E0
9.840315720E0,9.720458984E0,2.456450939E0,-1.666364431E0
9.850439419E0,9.624691010E0,2.604891539E0,-1.781286120E0
9.860630097E0,9.447520256E0,2.681505919E0,-1.762132406E0
9.870825983E0,9.342175484E0,2.619256735E0,-1.757344007E0
9.880926870E0,9.222464561E0,2.566584110E0,-1.709460020E0
9.890943902E0,9.208099365E0,2.552218914E0,-1.637633920E0
9.901321351E0,9.318233490E0,2.523488522E0,-1.584961534E0
9.911392185E0,9.380482674E0,2.466027737E0,-1.393425345E0
9.921559478E0,9.361329079E0,2.489969730E0,-1.359906554E0
9.931613385E0,9.567230225E0,2.537853718E0,-1.268926859E0
9.941876095E0,9.442731857E0,2.566584110E0,-1.297657371E0
9.951871564E0,9.548076630E0,2.758120298E0,-1.268926859E0
9.962048388E0,9.619902611E0,2.887407303E0,-1.149216771E0
9.972157712E0,9.691728592E0,3.203441858E0,-1.134851575E0
9.982260161E0,9.433155060E0,3.203441858E0,-1.446097851E0
9.992406412E0,9.275136948E0,3.069366693E0,-1.302445769E0
1.000256407E1,9.409213066E0,3.280056238E0,-1.561019540E0
1.001290891E1,9.260771751E0,3.495534420E0,-1.460463047E0
1.002283756E1,9.327810287E0,3.485957623E0,-1.359906554E0
1.003299756E1,9.260771751E0,3.414131641E0,-1.307234168E0
1.004309022E1,9.126696587E0,3.270479441E0,-1.163581967E0
1.005320694E1,8.959102631E0,3.141192675E0,-1.173158884E0
1.006341178E1,8.987833023E0,3.107673883E0,-1.149216771E0
1.007358048E1,9.227252960E0,3.227383852E0,-1.273715258E0
1.008367262E1,9.346963882E0,3.303998232E0,-1.393425345E0
1.009380205E1,9.145850182E0,3.303998232E0,-1.379060149E0
1.010405887E1,9.179368973E0,3.055001259E0,-1.331176162E0
1.011417840E1,9.361329079E0,2.590526342E0,-1.350329757E0
1.012427174E1,9.160215378E0,2.930502892E0,-1.412579060E0
1.013449429E1,9.433155060E0,3.256114244E0,-1.197100878E0
1.014460356E1,9.935936928E0,3.260902643E0,-7.757213712E-1
1.015467539E1,9.179368973E0,3.854664803E0,-1.211466074E0
1.016496747E1,1.011789608E1,2.896984100E0,-1.125274777E0
1.017492325E1,9.246406555E0,2.379836559E0,-1.479616642E0
1.018514612E1,9.624691010E0,1.972822189E0,-1.010353088E0
1.019533206E1,9.777919769E0,2.317587137E0,-1.221042871E0
1.020563940E1,9.701305389E0,2.245761156E0,-1.383848548E0
1.021553685E1,9.777919769E0,2.226607561E0,-1.019929886E0
1.022565607E1,9.878476143E0,2.269703150E0,-9.816226959E-1
1.023578623E1,9.911994934E0,2.317587137E0,-1.206677675E0
1.024596076E1,9.806650162E0,2.279279947E0,-1.345541358E0
1.025612878E1,9.672574997E0,2.461239338E0,-1.312022567E0
1.026629535E1,9.658209801E0,2.657563925E0,-1.273715258E0
1.027639488E1,9.548076630E0,2.628833532E0,-1.197100878E0
1.028652170E1,9.414001465E0,2.442085743E0,-1.144428372E0
1.029662561E1,9.380482674E0,2.346317768E0,-1.096544385E0
1.030685233E1,9.370905876E0,2.279279947E0,-1.091755986E0
1.031688072E1,9.409213066E0,2.217030764E0,-9.816226959E-1
1.032712202E1,9.428366661E0,2.240972757E0,-9.433154464E-1
1.033723113E1,9.442731857E0,2.365471363E0,-9.864110947E-1
1.034737838E1,9.088389397E0,2.796427488E0,-1.556231141E0
1.035755838E1,9.390059471E0,2.552218914E0,-1.374271750E0
1.036762010E1,9.897629738E0,2.509123325E0,-7.422025204E-1
1.037783806E1,9.921571732E0,2.600103140E0,-6.368576288E-1
1.038841973E1,9.648633003E0,2.715024710E0,-8.906430602E-1
1.039810817E1,9.481039047E0,2.686294317E0,-1.082179189E0
1.040810427E1,9.366117477E0,2.944868088E0,-1.015141487E0
1.041846578E1,9.318233490E0,3.380612850E0,-9.576807022E-1
1.042850448E1,9.318233490E0,3.442862034E0,-9.528923035E-1
1.043869708E1,9.212887764E0,3.524264812E0,-9.050082564E-1
1.044901364E1,9.078812599E0,3.696647406E0,-8.810662031E-1
1.045902474E1,9.011775017E0,3.821146011E0,-8.954314590E-1
1.046913714E1,9.040505409E0,3.711012602E0,-8.475474119E-1
1.047919834E1,8.987833023E0,3.744531393E0,-8.331822157E-1
1.048958125E1,8.935160637E0,3.825934410E0,-8.236053586E-1
1.049954714E1,8.959102631E0,3.921702385E0,-8.619126081E-1
1.050969667E1,8.963891029E0,4.031835556E0,-9.768342972E-1
1.051980464E1,9.088389397E0,3.993528366E0,-9.864110947E-1
1.052991923E1,9.064447403E0,4.031835556E0,-1.039083481E0
1.054008381E1,9.069235802E0,4.031835556E0,-1.019929886E0
1.055028845E1,9.155426979E0,4.012681961E0,-1.096544385E0
1.056032829E1,9.227252960E0,4.003105164E0,-1.149216771E0
1.057060657E1,9.284713745E0,3.979163170E0,-1.154005170E0
1.058069090E1,9.251194954E0,3.945644379E0,-1.154005170E0
1.059076434E1,9.232041359E0,3.825934410E0,-1.158793569E0
1.060094996E1,9.188945770E0,3.725377798E0,-1.139639974E0
1.061106528E1,9.141061783E0,3.667917013E0,-1.139639974E0
1.062131663E1,9.117119789E0,3.581725836E0,-1.158793569E0
1.063130491E1,9.198522568E0,3.615244627E0,-1.177947283E0
1.064226533E1,9.184157372E0,3.591302633E0,-1.235408068E0
1.065170288E1,9.251194954E0,3.548206806E0,-1.211466074E0
1.066173731E1,9.299078941E0,3.476380825E0,-1.283292055E0
1.067201997E1,9.385271072E0,3.409343243E0,-1.326387763E0
1.068203674E1,9.404424667E0,3.399766445E0,-1.307234168E0
1.069231409E1,9.394847870E0,3.280056238E0,-1.292868972E0
1.070236648E1,9.418789864E0,3.270479441E0,-1.288080573E0
1.071270680E1,9.342175484E0,3.208230257E0,-1.431732655E0
1.072261961E1,9.361329079E0,3.150769472E0,-1.297657371E0
1.073313612E1,9.342175484E0,3.126827478E0,-1.254561663E0
1.074318034E1,9.279925346E0,3.083731890E0,-1.192312479E0
1.075306623E1,9.246406555E0,3.083731890E0,-1.139639974E0
1.076327274E1,9.308655739E0,3.083731890E0,-1.110909581E0
1.077349696E1,9.303867340E0,3.131615877E0,-1.187524080E0
1.078353982E1,9.289502144E0,3.241749048E0,-1.221042871E0
1.079356816E1,9.346963882E0,3.289633036E0,-1.278503656E0
1.080385316E1,9.303867340E0,3.433285236E0,-1.240196466E0
1.081395347E1,9.303867340E0,3.485957623E0,-1.225831270E0
1.082408030E1,9.270348549E0,3.543418407E0,-1.173158884E0
1.083432202E1,9.212887764E0,3.562572241E0,-1.125274777E0
1.084442556E1,9.260771751E0,3.576937437E0,-1.067813993E0
1.085463994E1,9.169792175E0,3.552995205E0,-1.039083481E0
1.086457514E1,9.222464561E0,3.567360640E0,-8.906430602E-1
1.087495791E1,9.107542992E0,3.586514235E0,-9.385270476E-1
1.088488468E1,9.112331390E0,3.715801001E0,-9.624691010E-1
1.089510682E1,9.078812599E0,3.730166197E0,-1.096544385E0
1.090523182E1,9.050082207E0,3.730166197E0,-1.019929886E0
1.091497624E1,9.054870605E0,3.749319792E0,-1.015141487E0
1.092545661E1,9.093177795E0,3.773261786E0,-1.139639974E0
1.093567713E1,9.093177795E0,3.778050184E0,-1.096544385E0
1.094578630E1,9.102754593E0,3.778050184E0,-1.077390790E0
1.095585864E1,9.165003777E0,3.730166197E0,-1.149216771E0
1.096600859E1,9.093177795E0,3.715801001E0,-1.029506683E0
1.097581005E1,9.117119789E0,3.677493811E0,-1.082179189E0
1.098637651E1,9.169792175E0,3.730166197E0,-9.576807022E-1
1.099638146E1,9.160215378E0,3.754108191E0,-1.034295082E0
1.100660573E1,9.188945770E0,3.701435804E0,-9.720458984E-1
1.101677839E1,9.246406555E0,3.615244627E0,-1.048660398E0
1.102691282E1,9.275136948E0,3.596091032E0,-1.034295082E0
1.103722782E1,9.418789864E0,3.605667830E0,-1.034295082E0
1.104714355E1,9.433155060E0,3.505111217E0,-1.000776291E0
1.105734131E1,9.437943459E0,3.409343243E0,-1.082179189E0
1.106767397E1,9.414001465E0,3.275267839E0,-1.053448796E0
1.107755048E1,9.370905876E0,3.227383852E0,-9.337386489E-1
1.108778001E1,9.308655739E0,3.074155092E0,-9.959878922E-1
1.109790876E1,9.184157372E0,3.021482468E0,-1.039083481E0
1.110825319E1,9.212887764E0,3.069366693E0,-9.624691010E-1
1.111831876E1,9.275136948E0,3.021482468E0,-1.024718285E0
1.112827496E1,9.227252960E0,3.074155092E0,-1.024718285E0
1.113840262E1,9.284713745E0,2.944868088E0,-9.385270476E-1
1.114865247E1,9.385271072E0,2.877830505E0,-9.576807022E-1
1.115878294E1,9.414001465E0,2.901772499E0,-9.433154464E-1
1.116880392E1,9.457097054E0,2.820369720E0,-9.720458984E-1
1.117902814E1,9.423578262E0,2.806004286E0,-9.911994934E-1
1.118936591E1,9.500192642E0,2.700659513E0,-1.039083481E0
1.119947049E1,9.485827446E0,2.782062292E0,-1.005564690E0
1.120968242E1,9.519346237E0,2.753331900E0,-1.015141487E0
1.121960716E1,9.457097054E0,2.829946518E0,-9.193734527E-1
1.122970195E1,9.423578262E0,2.815581083E0,-9.337386489E-1
1.123987044E1,9.375694275E0,2.806004286E0,-8.140285611E-1
1.125007820E1,9.409213066E0,2.820369720E0,-7.948749661E-1
1.126013768E1,9.270348549E0,2.839523315E0,-8.762778044E-1
1.127021810E1,9.279925346E0,2.858676910E0,-8.858546019E-1
1.128043545E1,9.284713745E0,2.887407303E0,-9.193734527E-1
1.129061998E1,9.370905876E0,3.074155092E0,-8.667010069E-1
1.130089264E1,9.255983353E0,3.160346270E0,-8.810662031E-1
1.131078295E1,9.351752281E0,3.165134668E0,-8.427590132E-1
1.132091044E1,9.212887764E0,3.213018656E0,-7.422025204E-1
1.133108483E1,9.150638580E0,3.198653460E0,-7.661445141E-1
1.134123050E1,9.236829758E0,3.083731890E0,-6.991068721E-1
1.135139598E1,9.236829758E0,3.098097086E0,-7.374141216E-1
1.136154540E1,9.284713745E0,3.189076662E0,-7.613561153E-1
1.137174030E1,9.356540680E0,3.026270866E0,-7.517793179E-1
1.138179858E1,9.418789864E0,3.145981073E0,-7.565677166E-1
1.139212843E1,9.390059471E0,3.131615877E0,-7.230489254E-1
1.140233416E1,9.519346237E0,3.251325846E0,-6.703764796E-1
1.141235812E1,9.495404243E0,3.078943491E0,-5.410895944E-1
1.142279119E1,9.461885452E0,2.916137695E0,-5.698199868E-1
1.143266718E1,9.466673851E0,2.920926094E0,-4.692635238E-1
1.144282380E1,9.399636269E0,2.834734917E0,-3.974374831E-1
1.145275796E1,9.418789864E0,2.825158119E0,-3.734954596E-1
1.146318557E1,9.370905876E0,2.882618904E0,-4.405331016E-1
1.147325323E1,9.303867340E0,2.887407303E0,-4.979939461E-1
1.148325651E1,9.294290543E0,2.887407303E0,-5.171475410E-1
1.149338021E1,9.241618156E0,2.758120298E0,-6.081272364E-1
1.150357328E1,9.222464561E0,2.700659513E0,-5.506663918E-1
1.151364370E1,9.265560150E0,2.844311714E0,-4.022258818E-1
1.152391964E1,9.375694275E0,2.681505919E0,-3.591302633E-1
1.153395604E1,9.428366661E0,2.719813108E0,-4.309563041E-1
1.154408240E1,9.586383820E0,2.647987127E0,-5.219359994E-1
1.155422922E1,9.706093788E0,2.533065319E0,-4.596867263E-1
1.156454443E1,9.710882187E0,2.528276920E0,-6.033388376E-1
1.157451871E1,9.686940193E0,2.480392933E0,-5.793967843E-1
1.158476865E1,9.595960617E0,2.561795712E0,-5.027823448E-1
1.159483824E1,9.548076630E0,2.614468336E0,-4.596867263E-1
1.160514152E1,9.466673851E0,2.662352324E0,-2.681505978E-1
1.161519663E1,9.691728592E0,2.647987127E0,-3.112462163E-1
1.162525694E1,9.639056206E0,2.571372509E0,-1.292868853E-1
1.163540897E1,9.758766174E0,2.537853718E0,-1.292868853E-1
1.164548100E1,9.806650162E0,2.523488522E0,-1.436521020E-2
1.165571757E1,9.768342972E0,2.533065319E0,1.197100878E-1
1.166581533E1,9.907206535E0,2.533065319E0,3.734954596E-1
1.167606017E1,9.854534149E0,2.614468336E0,2.537853718E-1
1.168630705E1,9.710882187E0,2.557007313E0,2.489969730E-1
1.169623059E1,9.677363396E0,2.547430515E0,3.016694188E-1
1.170632585E1,9.686940193E0,2.537853718E0,2.489969730E-1
1.171656221E1,9.686940193E0,2.466027737E0,2.298433632E-1
1.172684997E1,9.682151794E0,2.355894566E0,1.484405100E-1
1.173681325E1,9.773131371E0,2.250549555E0,2.873042040E-2
1.174698372E1,9.763554573E0,2.207453966E0,7.661445439E-2
1.175725445E1,9.801861763E0,2.087743998E0,7.182604820E-2
1.176724320E1,1.025197124E1,1.958456993E0,3.208230138E-1
1.177737685E1,1.031900978E1,1.934514999E0,2.729389966E-1
1.178748524E1,1.041956615E1,1.991975784E0,4.309563041E-1
1.179792972E1,1.040998936E1,2.063801765E0,3.591302633E-1
1.180777441E1,1.027112484E1,2.197877169E0,1.197100878E-1
1.181800946E1,1.005085850E1,2.183511972E0,-4.788403399E-3
1.182809706E1,9.959878922E0,2.135627985E0,-1.963245422E-1
1.183838295E1,9.916783333E0,2.154781580E0,-2.729389966E-1
1.184831602E1,9.792284966E0,2.269703150E0,-2.489969730E-1
1.185845139E1,9.715670586E0,2.317587137E0,-3.351882473E-2
1.186862769E1,9.634267807E0,2.394201756E0,1.771709323E-1
1.187875936E1,9.629479408E0,2.446874142E0,2.968810201E-1
1.188894374E1,9.586383820E0,2.504334927E0,3.591302633E-1
1.189905566E1,9.528923035E0,2.590526342E0,2.777273953E-1
1.190919259E1,9.639056206E0,2.691082716E0,2.059013397E-1
1.191942332E1,9.615114212E0,2.777273893E0,2.011129409E-1
1.193022661E1,9.586383820E0,2.825158119E0,2.537853718E-1
1.193960650E1,9.552865028E0,2.810792685E0,3.016694188E-1
1.194974067E1,9.591172218E0,2.719813108E0,3.208230138E-1
1.195999098E1,9.557653427E0,2.647987127E0,3.495534360E-1
1.197013083E1,9.710882187E0,2.566584110E0,4.548983276E-1
1.198017463E1,9.758766174E0,2.480392933E0,3.878606856E-1
1.199037948E1,9.825803757E0,2.480392933E0,4.309563041E-1
1.200053453E1,9.821015358E0,2.470816135E0,3.495534360E-1
1.201057958E1,9.773131371E0,2.466027737E0,3.160346150E-1
1.202094036E1,9.782708168E0,2.456450939E0,2.968810201E-1
1.203095151E1,9.749189377E0,2.341529369E0,1.771709323E-1
1.204100115E1,9.667786598E0,2.193088770E0,1.484405100E-1
1.205115828E1,9.643844604E0,2.126051188E0,1.197100878E-1
1.206120334E1,9.572018623E0,2.130839586E0,9.576806426E-2
1.207147360E1,9.600749016E0,2.178723574E0,1.580173075E-1
1.208161204E1,9.615114212E0,2.217030764E0,1.723825186E-1
1.209188850E1,9.662998199E0,2.245761156E0,1.915361285E-1
1.210197537E1,9.710882187E0,2.284068346E0,3.064578176E-1
1.211212662E1,9.873687744E0,2.331952572E0,3.495534360E-1
1.212247475E1,9.916783333E0,2.303221941E0,2.825157940E-1
1.213227376E1,9.830592155E0,2.336740971E0,2.011129409E-1
1.214261006E1,9.801861763E0,2.437297344E0,9.097966552E-2
1.215277991E1,9.605537415E0,2.475604534E0,1.580173075E-1
1.216276434E1,9.562441826E0,2.580949545E0,1.388636976E-1
1.217287725E1,9.481039047E0,2.695871115E0,2.250549644E-1
1.218301585E1,9.447520256E0,2.777273893E0,1.819593310E-1
1.219330845E1,9.437943459E0,2.839523315E0,3.591302633E-1
1.220334767E1,9.490615845E0,2.873042107E0,3.447650373E-1
1.221335492E1,9.509769440E0,2.873042107E0,3.208230138E-1
1.222347070E1,9.461885452E0,2.858676910E0,2.346317619E-1
1.223361289E1,9.466673851E0,2.753331900E0,9.097966552E-2
1.224377060E1,9.557653427E0,2.700659513E0,6.224924326E-2
1.225400127E1,9.696516991E0,2.638410330E0,1.005564705E-1
1.226409586E1,9.677363396E0,2.638410330E0,1.101332754E-1
1.227423060E1,9.744400978E0,2.580949545E0,4.788403399E-3
1.228459076E1,9.725247383E0,2.518700123E0,0.000000000E0
1.229467961E1,9.653421402E0,2.466027737E0,-6.224924326E-2
1.230472518E1,9.653421402E0,2.499546528E0,2.394201607E-2
1.231488045E1,9.667786598E0,2.432508945E0,-2.873042040E-2
1.232501013E1,9.734824181E0,2.341529369E0,-4.788403399E-3
1.233529826E1,9.720458984E0,2.164358377E0,9.576806799E-3
1.234569524E1,9.749189377E0,2.149993181E0,-6.224924326E-2
1.235565904E1,9.816226959E0,2.087743998E0,-2.298433632E-1
1.236564618E1,9.849745750E0,2.121262789E0,-2.585737705E-1
1.237570123E1,9.897629738E0,2.173935175E0,-2.106897533E-1
1.238591743E1,9.878476143E0,2.360682964E0,-1.101332754E-1
1.239608426E1,9.840168953E0,2.331952572E0,-6.224924326E-2
1.240623269E1,9.797073364E0,2.413355350E0,1.436521020E-2
1.241647426E1,9.782708168E0,2.418143749E0,9.576806426E-2
1.242641666E1,9.658209801E0,2.422932148E0,1.436520964E-1
1.243665134E1,9.562441826E0,2.470816135E0,2.873042040E-2
1.244666343E1,9.399636269E0,2.461239338E0,-1.915361360E-2
1.245685150E1,9.299078941E0,2.442085743E0,-2.873042040E-2
1.246702046E1,9.227252960E0,2.461239338E0,-9.576806799E-3
1.247713051E1,9.284713745E0,2.432508945E0,-5.267243832E-2
1.248736979E1,9.246406555E0,2.499546528E0,-3.351882473E-2
1.249744234E1,9.375694275E0,2.652775526E0,1.053448766E-1
1.250760984E1,9.514557838E0,2.782062292E0,9.576806799E-3
1.251771901E1,9.677363396E0,2.954444885E0,6.224924326E-2
1.252800484E1,9.730035782E0,3.007117271E0,-1.915361360E-2
1.253797016E1,9.811438560E0,3.007117271E0,-2.106897533E-1
1.254817312E1,9.710882187E0,2.815581083E0,-2.202665508E-1
1.255825958E1,9.653421402E0,2.729389906E0,-2.059013397E-1
1.256838495E1,9.586383820E0,2.662352324E0,-2.202665508E-1
1.257860235E1,9.548076630E0,2.624045134E0,-3.160346150E-1
1.258885516E1,9.361329079E0,2.614468336E0,-2.059013397E-1
1.259880204E1,9.251194954E0,2.662352324E0,-1.053448766E-1
1.260898980E1,9.270348549E0,2.705447912E0,-1.532289088E-1
1.261909626E1,9.323021889E0,2.791639090E0,-3.256114423E-1
1.262938954E1,9.289502144E0,2.877830505E0,-1.388636976E-1
1.263939157E1,9.399636269E0,2.882618904E0,-2.681505978E-1
1.264975673E1,9.567230225E0,2.858676910E0,-2.777273953E-1
1.265970939E1,9.739612579E0,2.628833532E0,-1.963245422E-1
1.266978991E1,9.773131371E0,2.422932148E0,-1.532289088E-1
1.267998272E1,9.715670586E0,2.284068346E0,-1.580173075E-1
1.269054658E1,9.753977776E0,2.269703150E0,-1.197100878E-1
1.270023387E1,9.816226959E0,2.264914751E0,1.915361360E-2
1.271040887E1,9.806650162E0,2.351106167E0,-1.436521020E-2
1.272058346E1,9.916783333E0,2.250549555E0,-1.532289088E-1
1.273064002E1,9.859322548E0,2.207453966E0,-2.106897533E-1
1.274090856E1,9.911994934E0,2.183511972E0,-1.340752989E-1
1.275093841E1,9.806650162E0,2.173935175E0,-1.197100878E-1
1.276129278E1,9.696516991E0,2.188300371E0,-9.576806426E-2
1.277128919E1,9.605537415E0,2.183511972E0,-1.580173075E-1
1.278135950E1,9.562441826E0,2.331952572E0,-1.484405100E-1
1.279151627E1,9.504981041E0,2.379836559E0,-1.149216816E-1
1.280163331E1,9.557653427E0,2.547430515E0,-3.351882473E-2
1.281198159E1,9.653421402E0,2.624045134E0,-4.788403399E-3
1.282191352E1,9.682151794E0,2.676717520E0,9.576806799E-3
1.283213675E1,9.710882187E0,2.686294317E0,5.267243832E-2
1.284231592E1,9.615114212E0,2.710236311E0,-5.267243832E-2
1.285241045E1,9.586383820E0,2.748543501E0,-1.340752989E-1
1.286267831E1,9.600749016E0,2.772485495E0,-2.346317619E-1
1.287258524E1,9.414001465E0,2.705447912E0,-3.782838583E-1
1.288285847E1,9.538499832E0,2.633621931E0,-4.548983276E-1
1.289310774E1,9.552865028E0,2.557007313E0,-4.213795066E-1
1.290304368E1,9.643844604E0,2.475604534E0,-3.399766386E-1
1.291319123E1,9.648633003E0,2.427720547E0,-3.447650373E-1
1.292338894E1,9.720458984E0,2.212242365E0,-4.692635238E-1
1.293362686E1,9.773131371E0,2.030282974E0,-5.602431893E-1
1.294362561E1,9.911994934E0,1.929726601E0,-7.038952708E-1
1.295385061E1,9.859322548E0,1.920149803E0,-6.224924326E-1
1.296401478E1,9.868899345E0,1.963245392E0,-5.363011956E-1
1.297414702E1,9.792284966E0,2.006340981E0,-5.219359994E-1
1.298423796E1,9.787496567E0,2.173935175E0,-4.213795066E-1
1.299460307E1,9.811438560E0,2.284068346E0,-4.070142806E-1
1.300458546E1,9.792284966E0,2.303221941E0,-3.878606856E-1
1.301462541E1,9.677363396E0,2.284068346E0,-3.687070608E-1
1.302484989E1,9.605537415E0,2.274491549E0,-4.692635238E-1
1.303495911E1,9.447520256E0,2.197877169E0,-5.075707436E-1
1.304508047E1,9.538499832E0,2.063801765E0,-8.714894056E-1
1.305538745E1,9.332598686E0,2.001552582E0,-7.948749661E-1
1.306534516E1,9.806650162E0,2.346317768E0,-1.484405100E-1
1.307718146E1,9.998186111E0,2.269703150E0,-2.106897533E-1
1.308569646E1,1.007001209E1,2.149993181E0,-4.405331016E-1
1.309577604E1,9.950302124E0,2.126051188E0,-5.075707436E-1
1.310592099E1,9.811438560E0,2.202665567E0,-3.591302633E-1
1.311606865E1,9.782708168E0,2.255337954E0,-4.788403511E-1
1.312633141E1,9.495404243E0,2.322375536E0,-4.213795066E-1
1.313633100E1,9.414001465E0,2.327163935E0,-4.213795066E-1
1.314664652E1,9.366117477E0,2.375048161E0,-4.596867263E-1
1.315668407E1,9.495404243E0,2.331952572E0,-3.782838583E-1
1.316674157E1,9.634267807E0,2.341529369E0,-3.591302633E-1
1.317703470E1,9.768342972E0,2.217030764E0,-3.303998411E-1
1.318704866E1,9.921571732E0,2.159569979E0,-4.261679053E-1
1.319728710E1,9.883264542E0,2.197877169E0,-3.878606856E-1
1.320733580E1,9.777919769E0,2.183511972E0,-2.585737705E-1
1.321753522E1,9.806650162E0,2.183511972E0,-4.022258818E-1
1.322772653E1,9.821015358E0,2.197877169E0,-5.506663918E-1
1.323780356E1,9.763554573E0,2.207453966E0,-5.075707436E-1
1.324806231E1,9.811438560E0,2.255337954E0,-4.740519226E-1
1.325800596E1,9.758766174E0,2.279279947E0,-4.453215301E-1
1.326818413E1,9.821015358E0,2.197877169E0,-5.267243981E-1
1.327833038E1,9.825803757E0,2.240972757E0,-5.171475410E-1
1.328856945E1,9.686940193E0,2.212242365E0,-6.033388376E-1
1.329858060E1,9.615114212E0,2.264914751E0,-7.086837292E-1
1.330874669E1,9.648633003E0,2.312798738E0,-6.751648784E-1
1.331889539E1,9.461885452E0,2.264914751E0,-7.134721279E-1
1.332901372E1,9.500192642E0,2.240972757E0,-6.177040339E-1
1.333924992E1,9.639056206E0,2.188300371E0,-5.841852427E-1
1.334929774E1,9.710882187E0,2.188300371E0,-5.985504389E-1
1.335951878E1,9.897629738E0,2.140416384E0,-6.799532771E-1
1.336964133E1,9.979032516E0,2.164358377E0,-7.422025204E-1
1.337975404E1,9.993397713E0,2.207453966E0,-7.038952708E-1
1.338999227E1,1.003170490E1,2.269703150E0,-7.134721279E-1
1.340001972E1,9.935936928E0,2.288856745E0,-6.464344859E-1
1.341037222E1,9.758766174E0,2.341529369E0,-5.889736414E-1
1.342030639E1,9.643844604E0,2.475604534E0,-5.554547906E-1
1.343041123E1,9.548076630E0,2.542642117E0,-5.410895944E-1
1.344070608E1,9.500192642E0,2.604891539E0,-5.554547906E-1
1.345088238E1,9.504981041E0,2.547430515E0,-5.410895944E-1
1.346088921E1,9.581595421E0,2.528276920E0,-6.033388376E-1
1.347096541E1,9.600749016E0,2.518700123E0,-5.841852427E-1
1.348120103E1,9.734824181E0,2.451662540E0,-6.368576288E-1
1.349143660E1,9.768342972E0,2.379836559E0,-7.613561153E-1
1.350125942E1,9.744400978E0,2.255337954E0,-8.427590132E-1
1.351159124E1,9.667786598E0,2.193088770E0,-8.858546019E-1
1.352192202E1,9.610325813E0,2.169146776E0,-9.481038451E-1
1.353188197E1,9.619902611E0,2.193088770E0,-9.911994934E-1
1.354214177E1,9.543288231E0,2.245761156E0,-9.624691010E-1
1.355215317E1,9.533711433E0,2.331952572E0,-9.193734527E-1
1.356244599E1,9.457097054E0,2.370259762E0,-8.523358107E-1
1.357261406E1,9.442731857E0,2.418143749E0,-7.709329724E-1
1.358261245E1,9.500192642E0,2.360682964E0,-7.613561153E-1
1.359289401E1,9.557653427E0,2.245761156E0,-7.900865674E-1
1.360291208E1,9.648633003E0,2.178723574E0,-7.278373241E-1
1.361306313E1,9.686940193E0,2.178723574E0,-7.182605267E-1
1.362317443E1,9.677363396E0,2.173935175E0,-7.422025204E-1
1.363337136E1,9.696516991E0,2.111685991E0,-8.619126081E-1
1.364343933E1,9.744400978E0,2.188300371E0,-9.720458984E-1
1.365363131E1,9.806650162E0,2.207453966E0,-9.385270476E-1
1.366375766E1,9.835380554E0,2.279279947E0,-9.050082564E-1
1.367387178E1,9.844957352E0,2.269703150E0,-8.236053586E-1
1.368398621E1,9.782708168E0,2.288856745E0,-7.613561153E-1
1.369421449E1,9.763554573E0,2.293645144E0,-6.847416759E-1
1.370431105E1,9.811438560E0,2.322375536E0,-6.033388376E-1
1.371473855E1,9.734824181E0,2.427720547E0,-5.889736414E-1
1.372462012E1,9.739612579E0,2.480392933E0,-7.565677166E-1
1.373467866E1,9.797073364E0,2.542642117E0,-9.002198577E-1
1.374483543E1,9.682151794E0,2.600103140E0,-1.015141487E0
1.375494095E1,9.619902611E0,2.561795712E0,-9.864110947E-1
1.376511366E1,9.524134636E0,2.489969730E0,-9.145850539E-1
1.377526257E1,9.476250648E0,2.331952572E0,-8.140285611E-1
1.378538403E1,9.495404243E0,2.221819162E0,-8.714894056E-1
1.379551247E1,9.572018623E0,2.173935175E0,-9.002198577E-1
1.380567559E1,9.504981041E0,2.207453966E0,-9.768342972E-1
1.381619414E1,9.457097054E0,2.284068346E0,-8.810662031E-1
1.382606122E1,9.409213066E0,2.360682964E0,-7.613561153E-1
1.383610945E1,9.423578262E0,2.442085743E0,-7.996633649E-1
1.384652581E1,9.346963882E0,2.595314741E0,-8.188169599E-1
1.385688596E1,9.466673851E0,2.710236311E0,-7.230489254E-1
1.386654253E1,9.433155060E0,2.724601507E0,-7.374141216E-1
1.387665909E1,9.610325813E0,2.710236311E0,-7.948749661E-1
1.388688513E1,9.610325813E0,2.671929121E0,-8.475474119E-1
1.389704753E1,9.710882187E0,2.719813108E0,-8.667010069E-1
1.390717967E1,9.677363396E0,2.719813108E0,-9.720458984E-1
1.391725248E1,9.686940193E0,2.691082716E0,-1.072602391E0
1.392748660E1,9.730035782E0,2.681505919E0,-1.130063176E0
1.393753649E1,9.787496567E0,2.585737944E0,-1.063025594E0
1.394780306E1,9.734824181E0,2.523488522E0,-1.163581967E0
1.395786280E1,9.696516991E0,2.542642117E0,-1.072602391E0
1.396796655E1,9.615114212E0,2.557007313E0,-9.624691010E-1
1.397836910E1,9.605537415E0,2.600103140E0,-9.050082564E-1
1.398831337E1,9.514557838E0,2.638410330E0,-8.236053586E-1
1.399845744E1,9.457097054E0,2.700659513E0,-8.858546019E-1
1.400850655E1,9.418789864E0,2.743755102E0,-8.475474119E-1
1.401867374E1,9.318233490E0,2.777273893E0,-9.433154464E-1
1.402914312E1,9.260771751E0,2.772485495E0,-1.010353088E0
1.403897624E1,9.198522568E0,2.681505919E0,-1.053448796E0
1.404925926E1,9.323021889E0,2.710236311E0,-9.624691010E-1
1.405922583E1,9.366117477E0,2.667140722E0,-9.864110947E-1
1.406942046E1,9.490615845E0,2.638410330E0,-9.864110947E-1
1.407955099E1,9.581595421E0,2.619256735E0,-1.072602391E0
1.408980739E1,9.753977776E0,2.533065319E0,-1.201889277E0
1.409989364E1,9.643844604E0,2.566584110E0,-1.187524080E0
1.411001432E1,9.595960617E0,2.580949545E0,-1.201889277E0
1.412009578E1,9.548076630E0,2.494758129E0,-1.120486379E0
1.413038589E1,9.557653427E0,2.657563925E0,-1.077390790E0
1.414049771E1,9.528923035E0,2.695871115E0,-1.082179189E0
1.415053042E1,9.605537415E0,2.777273893E0,-1.043871999E0
1.416077511E1,9.624691010E0,2.868253708E0,-9.816226959E-1
1.417088480E1,9.710882187E0,2.935291290E0,-9.768342972E-1
1.418107032E1,9.730035782E0,3.117250681E0,-8.858546019E-1
1.419103511E1,9.715670586E0,3.184288263E0,-9.481038451E-1
1.420121043E1,9.720458984E0,3.236960649E0,-1.158793569E0
1.421169303E1,9.734824181E0,3.265691042E0,-1.225831270E0
1.422163199E1,9.562441826E0,3.289633036E0,-1.316810966E0
1.423198923E1,9.514557838E0,3.208230257E0,-1.345541358E0
1.424180033E1,9.327810287E0,3.112462282E0,-1.321599364E0
1.425198923E1,9.284713745E0,3.069366693E0,-1.292868972E0
1.426210752E1,9.246406555E0,3.031059265E0,-1.345541358E0
1.427218762E1,9.299078941E0,2.964021683E0,-1.369483352E0
1.428244106E1,9.275136948E0,3.035847664E0,-1.493981838E0
1.429252340E1,9.217676163E0,3.093308687E0,-1.565807939E0
1.430268096E1,9.217676163E0,3.117250681E0,-1.642422318E0
1.431283163E1,9.198522568E0,3.165134668E0,-1.613691926E0
1.432288882E1,9.208099365E0,3.203441858E0,-1.623268723E0
1.433315513E1,9.160215378E0,3.203441858E0,-1.570596337E0
1.434339310E1,9.155426979E0,3.112462282E0,-1.546654344E0
1.435333206E1,9.174580574E0,3.074155092E0,-1.493981838E0
1.436345742E1,9.150638580E0,3.045424461E0,-1.335964561E0
1.437365909E1,9.198522568E0,2.954444885E0,-1.326387763E0
1.438379294E1,9.174580574E0,2.920926094E0,-1.364694953E0
1.439423524E1,9.222464561E0,2.916137695E0,-1.407790542E0
1.440409451E1,9.284713745E0,2.791639090E0,-1.426944256E0
1.441417769E1,9.342175484E0,2.810792685E0,-1.441309452E0
1.442434347E1,9.428366661E0,2.801215887E0,-1.503558636E0
1.443448597E1,9.370905876E0,2.820369720E0,-1.532289028E0
1.444464378E1,9.375694275E0,2.858676910E0,-1.556231141E0
1.445487181E1,9.366117477E0,2.959233284E0,-1.417367458E0
1.446497660E1,9.380482674E0,3.050212860E0,-1.355118155E0
1.447504212E1,9.289502144E0,3.217807055E0,-1.345541358E0
1.448524952E1,9.289502144E0,3.313575268E0,-1.355118155E0
1.449556249E1,9.270348549E0,3.385401249E0,-1.431732655E0
1.450554212E1,9.193734169E0,3.533841610E0,-1.484405041E0
1.451563322E1,9.208099365E0,3.600879431E0,-1.561019540E0
1.452580197E1,9.145850182E0,3.696647406E0,-1.551442742E0
1.453589713E1,9.145850182E0,3.663128614E0,-1.517923832E0
1.454613603E1,9.112331390E0,3.581725836E0,-1.599326730E0
1.455623942E1,9.179368973E0,3.485957623E0,-1.556231141E0
1.456630213E1,9.246406555E0,3.342305660E0,-1.695094824E0
1.457652640E1,9.260771751E0,3.289633036E0,-1.738190413E0
1.458665927E1,9.275136948E0,3.308786631E0,-1.805228114E0
1.459683937E1,9.318233490E0,3.351882458E0,-1.766920805E0
1.460693656E1,9.265560150E0,3.366247654E0,-1.747767210E0
1.461708661E1,9.179368973E0,3.452438831E0,-1.800439715E0
1.462727583E1,9.136273384E0,3.423708439E0,-1.752555609E0
1.463736552E1,9.088389397E0,3.476380825E0,-1.666364431E0
1.464743807E1,9.102754593E0,3.323152065E0,-1.704671621E0
1.465775292E1,9.136273384E0,3.284844637E0,-1.594538331E0
1.466794016E1,9.131484985E0,3.232172251E0,-1.589749932E0
1.467791120E1,9.131484985E0,3.222595453E0,-1.570596337E0
1.468806469E1,9.193734169E0,3.193865061E0,-1.594538331E0
1.469829652E1,9.208099365E0,3.160346270E0,-1.613691926E0
1.470853928E1,9.203310966E0,3.213018656E0,-1.546654344E0
1.471846704E1,9.150638580E0,3.241749048E0,-1.546654344E0
1.472859022E1,9.270348549E0,3.203441858E0,-1.589749932E0
1.473868480E1,9.409213066E0,3.136404276E0,-1.651999116E0
1.474903689E1,9.356540680E0,3.174711466E0,-1.584961534E0
1.475906605E1,9.380482674E0,3.160346270E0,-1.690306425E0
1.476919048E1,9.404424667E0,3.155557871E0,-1.762132406E0
1.477927981E1,9.394847870E0,3.074155092E0,-1.728613615E0
1.478969064E1,9.356540680E0,2.920926094E0,-1.685518026E0
1.479957085E1,9.318233490E0,2.920926094E0,-1.680729628E0
1.481012481E1,9.265560150E0,2.858676910E0,-1.618480325E0
1.481983820E1,9.299078941E0,2.853888512E0,-1.608903527E0
1.483014132E1,9.327810287E0,2.906560898E0,-1.604115129E0
1.484030497E1,9.356540680E0,2.954444885E0,-1.632845521E0
1.485031320E1,9.390059471E0,2.997540474E0,-1.541865945E0
1.486062127E1,9.504981041E0,3.045424461E0,-1.647210717E0
1.487062289E1,9.437943459E0,3.102885485E0,-1.656787634E0
1.488074497E1,9.394847870E0,3.078943491E0,-1.618480325E0
1.489086737E1,9.246406555E0,3.064578056E0,-1.584961534E0
1.490109550E1,9.232041359E0,3.126827478E0,-1.508347034E0
1.491118872E1,9.217676163E0,2.944868088E0,-1.450886250E0
1.492146055E1,9.169792175E0,2.949656487E0,-1.441309452E0
1.493144690E1,9.165003777E0,2.906560898E0,-1.431732655E0
1.494160623E1,9.318233490E0,2.911349297E0,-1.470039845E0
1.495179290E1,9.370905876E0,2.901772499E0,-1.474828243E0
1.496188779E1,9.294290543E0,2.978386879E0,-1.470039845E0
1.497200738E1,9.275136948E0,3.141192675E0,-1.470039845E0
1.498213837E1,9.284713745E0,3.241749048E0,-1.412579060E0
1.499228957E1,9.265560150E0,3.404554844E0,-1.422155857E0
1.500276941E1,9.270348549E0,3.438073635E0,-1.379060149E0
1.501253400E1,9.332598686E0,3.428496838E0,-1.350329757E0
1.502273973E1,9.308655739E0,3.318363667E0,-1.321599364E0
1.503298499E1,9.332598686E0,3.193865061E0,-1.326387763E0
1.504296681E1,9.409213066E0,3.112462282E0,-1.249773264E0
1.505370676E1,9.380482674E0,3.050212860E0,-1.283292055E0
1.506326411E1,9.428366661E0,2.997540474E0,-1.264138460E0
1.507345958E1,9.418789864E0,2.973598480E0,-1.278503656E0
1.508365145E1,9.414001465E0,3.016694069E0,-1.388636947E0
1.509367395E1,9.461885452E0,2.901772499E0,-1.407790542E0
1.510390713E1,9.476250648E0,2.925714493E0,-1.417367458E0
1.511395349E1,9.490615845E0,2.892195702E0,-1.312022567E0
1.512417276E1,9.399636269E0,2.796427488E0,-1.292868972E0
1.513444458E1,9.418789864E0,2.700659513E0,-1.254561663E0
1.514448864E1,9.361329079E0,2.676717520E0,-1.259350061E0
1.515459734E1,9.409213066E0,2.667140722E0,-1.201889277E0
1.516488609E1,9.323021889E0,2.695871115E0,-1.297657371E0
1.517494479E1,9.346963882E0,2.686294317E0,-1.288080573E0
1.518508787E1,9.414001465E0,2.758120298E0,-1.398213744E0
1.519510308E1,9.404424667E0,2.839523315E0,-1.431732655E0
1.520523771E1,9.442731857E0,2.834734917E0,-1.465251446E0
1.521543563E1,9.452308655E0,2.839523315E0,-1.383848548E0
1.522555678E1,9.394847870E0,2.868253708E0,-1.431732655E0
1.523586334E1,9.423578262E0,2.887407303E0,-1.470039845E0
1.524616298E1,9.385271072E0,2.877830505E0,-1.403002143E0
1.525595678E1,9.356540680E0,2.873042107E0,-1.436521053E0
1.526624438E1,9.370905876E0,2.887407303E0,-1.441309452E0
1.527637793E1,9.361329079E0,2.983175278E0,-1.431732655E0
1.528642246E1,9.375694275E0,3.055001259E0,-1.489193439E0
1.529670559E1,9.394847870E0,3.102885485E0,-1.551442742E0
1.530672830E1,9.337387085E0,3.126827478E0,-1.517923832E0
1.531713595E1,9.366117477E0,3.198653460E0,-1.460463047E0
1.532695476E1,9.332598686E0,3.184288263E0,-1.474828243E0
1.533730715E1,9.284713745E0,3.193865061E0,-1.393425345E0
1.534736028E1,9.313444138E0,3.160346270E0,-1.403002143E0
1.535735210E1,9.308655739E0,3.136404276E0,-1.364694953E0
1.536776330E1,9.308655739E0,3.184288263E0,-1.407790542E0
1.537807185E1,9.299078941E0,3.227383852E0,-1.383848548E0
1.538780200E1,9.418789864E0,3.289633036E0,-1.393425345E0
1.539809331E1,9.342175484E0,3.351882458E0,-1.388636947E0
1.540775237E1,9.356540680E0,3.399766445E0,-1.493981838E0
1.541862690E1,9.337387085E0,3.323152065E0,-1.412579060E0
1.542836190E1,9.346963882E0,3.251325846E0,-1.383848548E0
1.543857029E1,9.303867340E0,3.145981073E0,-1.268926859E0
1.544865852E1,9.323021889E0,3.169923067E0,-1.268926859E0
1.545892060E1,9.275136948E0,3.126827478E0,-1.312022567E0
1.546893060E1,9.294290543E0,3.112462282E0,-1.359906554E0
1.547907040E1,9.208099365E0,3.088520288E0,-1.359906554E0
1.548936055E1,9.342175484E0,3.098097086E0,-1.307234168E0
1.549932570E1,9.299078941E0,3.055001259E0,-1.403002143E0
1.550954832E1,9.366117477E0,2.906560898E0,-1.484405041E0
1.551963290E1,9.366117477E0,2.791639090E0,-1.594538331E0
1.552973910E1,9.485827446E0,2.671929121E0,-1.632845521E0
1.553994999E1,9.509769440E0,2.566584110E0,-1.647210717E0
1.555004920E1,9.567230225E0,2.475604534E0,-1.642422318E0
1.556048478E1,9.600749016E0,2.427720547E0,-1.589749932E0
1.557031405E1,9.514557838E0,2.355894566E0,-1.575384736E0
1.558046369E1,9.557653427E0,2.317587137E0,-1.517923832E0
1.559075223E1,9.495404243E0,2.331952572E0,-1.546654344E0
1.560099557E1,9.552865028E0,2.384624958E0,-1.455674648E0
1.561089010E1,9.433155060E0,2.466027737E0,-1.465251446E0
1.562106911E1,9.490615845E0,2.485181332E0,-1.436521053E0
1.563116421E1,9.351752281E0,2.566584110E0,-1.441309452E0
1.564132895E1,9.366117477E0,2.542642117E0,-1.493981838E0
1.565150906E1,9.332598686E0,2.595314741E0,-1.537077546E0
1.566182245E1,9.342175484E0,2.671929121E0,-1.546654344E0
1.567178151E1,9.351752281E0,2.715024710E0,-1.613691926E0
1.568188578E1,9.356540680E0,2.896984100E0,-1.628057122E0
1.569204360E1,9.337387085E0,2.853888512E0,-1.565807939E0
1.570217422E1,9.308655739E0,2.964021683E0,-1.589749932E0
1.571259521E1,9.294290543E0,2.992752075E0,-1.556231141E0
1.572258412E1,9.303867340E0,3.107673883E0,-1.551442742E0
1.573263756E1,9.270348549E0,3.122039080E0,-1.498770237E0
1.574272923E1,9.284713745E0,3.165134668E0,-1.575384736E0
1.575292355E1,9.361329079E0,3.232172251E0,-1.570596337E0
1.576307813E1,9.351752281E0,3.289633036E0,-1.584961534E0
1.577318392E1,9.332598686E0,3.356670856E0,-1.628057122E0
1.578352074E1,9.260771751E0,3.409343243E0,-1.647210717E0
1.579349996E1,9.246406555E0,3.481169224E0,-1.613691926E0
1.580362074E1,9.265560150E0,3.462015629E0,-1.594538331E0
1.581421423E1,9.255983353E0,3.452438831E0,-1.513135433E0
1.582388788E1,9.308655739E0,3.447650433E0,-1.556231141E0
1.583403986E1,9.260771751E0,3.476380825E0,-1.561019540E0
1.584421194E1,9.246406555E0,3.418920040E0,-1.513135433E0
1.585429278E1,9.236829758E0,3.327940464E0,-1.513135433E0
1.586453991E1,9.126696587E0,3.299209833E0,-1.517923832E0
1.587488283E1,9.141061783E0,3.275267839E0,-1.508347034E0
1.588474664E1,9.155426979E0,3.308786631E0,-1.503558636E0
1.589506658E1,9.193734169E0,3.265691042E0,-1.546654344E0
1.590504476E1,9.222464561E0,3.294421434E0,-1.570596337E0
1.591552935E1,9.265560150E0,3.323152065E0,-1.632845521E0
1.592533028E1,9.337387085E0,3.303998232E0,-1.618480325E0
1.593562883E1,9.399636269E0,3.208230257E0,-1.651999116E0
1.594559898E1,9.404424667E0,3.107673883E0,-1.632845521E0
1.595576815E1,9.404424667E0,3.016694069E0,-1.594538331E0
1.596612227E1,9.447520256E0,2.911349297E0,-1.589749932E0
1.597599972E1,9.380482674E0,2.868253708E0,-1.584961534E0
1.598625206E1,9.390059471E0,2.825158119E0,-1.561019540E0
1.599646862E1,9.414001465E0,2.829946518E0,-1.556231141E0
1.600645139E1,9.519346237E0,2.925714493E0,-1.570596337E0
1.601662008E1,9.481039047E0,3.011905670E0,-1.508347034E0
1.602678587E1,9.476250648E0,3.040636063E0,-1.493981838E0
1.603699920E1,9.418789864E0,3.083731890E0,-1.474828243E0
1.604704655E1,9.452308655E0,3.083731890E0,-1.403002143E0
1.605713165E1,9.466673851E0,3.102885485E0,-1.417367458E0
1.606729072E1,9.461885452E0,3.184288263E0,-1.388636947E0
1.607745280E1,9.524134636E0,3.198653460E0,-1.278503656E0
1.608766666E1,9.361329079E0,3.169923067E0,-1.350329757E0
1.609779764E1,9.308655739E0,3.150769472E0,-1.364694953E0
1.610795879E1,9.246406555E0,3.198653460E0,-1.388636947E0
1.611801634E1,9.289502144E0,3.222595453E0,-1.393425345E0
1.612815754E1,9.351752281E0,3.294421434E0,-1.331176162E0
1.613833452E1,9.337387085E0,3.270479441E0,-1.259350061E0
1.614874963E1,9.294290543E0,3.198653460E0,-1.163581967E0
1.615860687E1,9.198522568E0,3.093308687E0,-1.110909581E0
1.616875406E1,9.117119789E0,3.040636063E0,-1.048660398E0
1.617892359E1,9.203310966E0,3.021482468E0,-1.091755986E0
1.618941417E1,9.217676163E0,2.964021683E0,-1.120486379E0
1.619915401E1,9.289502144E0,2.901772499E0,-1.192312479E0
1.620929339E1,9.346963882E0,2.930502892E0,-1.134851575E0
1.621942292E1,9.466673851E0,2.873042107E0,-1.173158884E0
1.622974245E1,9.595960617E0,2.868253708E0,-1.216254473E0
1.623974594E1,9.691728592E0,2.882618904E0,-1.187524080E0
1.624993652E1,9.677363396E0,2.930502892E0,-1.216254473E0
1.626000438E1,9.696516991E0,2.944868088E0,-1.259350061E0
1.627009813E1,9.643844604E0,2.892195702E0,-1.302445769E0
1.628038272E1,9.567230225E0,2.873042107E0,-1.335964561E0
1.629040235E1,9.514557838E0,2.825158119E0,-1.383848548E0
1.630076652E1,9.457097054E0,2.825158119E0,-1.398213744E0
1.631068079E1,9.404424667E0,2.829946518E0,-1.312022567E0
1.632106876E1,9.294290543E0,2.806004286E0,-1.345541358E0
1.633110835E1,9.380482674E0,2.815581083E0,-1.235408068E0
1.634115522E1,9.356540680E0,2.758120298E0,-1.249773264E0
1.635128278E1,9.337387085E0,2.777273893E0,-1.182735682E0
1.636157772E1,9.313444138E0,2.710236311E0,-1.110909581E0
1.637207486E1,9.346963882E0,2.806004286E0,-1.139639974E0
1.638172116E1,9.385271072E0,2.734178305E0,-1.139639974E0
1.639184080E1,9.346963882E0,2.772485495E0,-1.110909581E0
1.640247252E1,9.342175484E0,2.786850691E0,-1.225831270E0
1.641215658E1,9.394847870E0,2.810792685E0,-1.407790542E0
1.642304507E1,9.370905876E0,2.983175278E0,-1.489193439E0
1.643239560E1,9.552865028E0,3.098097086E0,-1.503558636E0
1.644293747E1,9.504981041E0,3.184288263E0,-1.465251446E0
1.645294180E1,9.461885452E0,3.165134668E0,-1.431732655E0
1.646298284E1,9.433155060E0,2.968810081E0,-1.307234168E0
1.647303211E1,9.385271072E0,2.762908697E0,-1.130063176E0
1.648335847E1,9.356540680E0,2.681505919E0,-9.720458984E-1
1.649325888E1,9.423578262E0,2.580949545E0,-9.576807022E-1
1.650342248E1,9.433155060E0,2.552218914E0,-1.005564690E0
1.651355368E1,9.490615845E0,2.671929121E0,-1.043871999E0
1.652390144E1,9.495404243E0,2.719813108E0,-1.091755986E0
1.653381170E1,9.509769440E0,2.719813108E0,-1.139639974E0
1.654396894E1,9.500192642E0,2.681505919E0,-1.249773264E0
1.655416295E1,9.639056206E0,2.743755102E0,-1.297657371E0
1.656426259E1,9.658209801E0,2.729389906E0,-1.388636947E0
1.657439832E1,9.672574997E0,2.710236311E0,-1.431732655E0
1.658450488E1,9.706093788E0,2.691082716E0,-1.312022567E0
1.659472811E1,9.538499832E0,2.485181332E0,-1.197100878E0
1.660504816E1,9.481039047E0,2.207453966E0,-1.082179189E0
1.661503207E1,9.557653427E0,2.001552582E0,-9.481038451E-1
1.662518806E1,9.557653427E0,1.867477298E0,-9.385270476E-1
1.663527374E1,9.504981041E0,1.843535304E0,-9.528923035E-1
1.664548614E1,9.533711433E0,1.944091797E0,-1.091755986E0
1.665587682E1,9.528923035E0,2.068590164E0,-1.120486379E0
1.666567478E1,9.543288231E0,2.164358377E0,-1.211466074E0
1.667602046E1,9.519346237E0,2.221819162E0,-1.158793569E0
1.668590031E1,9.595960617E0,2.217030764E0,-1.173158884E0
1.669613380E1,9.586383820E0,2.346317768E0,-1.197100878E0
1.670659078E1,9.595960617E0,2.437297344E0,-1.125274777E0
1.671641557E1,9.600749016E0,2.528276920E0,-1.086967587E0
1.672666750E1,9.572018623E0,2.638410330E0,-1.134851575E0
1.673669396E1,9.509769440E0,2.729389906E0,-1.063025594E0
1.674681229E1,9.509769440E0,2.896984100E0,-9.864110947E-1
1.675694860E1,9.447520256E0,2.944868088E0,-1.000776291E0
1.676711933E1,9.423578262E0,2.997540474E0,-1.005564690E0
1.677737422E1,9.452308655E0,3.055001259E0,-1.015141487E0
1.678737068E1,9.500192642E0,3.064578056E0,-9.624691010E-1
1.679772589E1,9.452308655E0,3.078943491E0,-1.000776291E0
1.680761938E1,9.452308655E0,3.102885485E0,-1.063025594E0
1.681796220E1,9.600749016E0,3.107673883E0,-1.130063176E0
1.682804428E1,9.619902611E0,3.141192675E0,-1.106121182E0
1.683805157E1,9.605537415E0,3.112462282E0,-1.101332784E0
1.684817881E1,9.528923035E0,3.117250681E0,-1.067813993E0
1.685852012E1,9.557653427E0,3.040636063E0,-1.019929886E0
1.686856772E1,9.495404243E0,2.959233284E0,-1.015141487E0
1.687874929E1,9.519346237E0,2.887407303E0,-1.077390790E0
1.688896569E1,9.442731857E0,2.791639090E0,-1.039083481E0
1.689904580E1,9.524134636E0,2.734178305E0,-1.115697980E0
1.690932330E1,9.514557838E0,2.624045134E0,-1.163581967E0
1.691918132E1,9.490615845E0,2.566584110E0,-1.158793569E0
1.692931226E1,9.514557838E0,2.571372509E0,-1.144428372E0
1.693950929E1,9.595960617E0,2.542642117E0,-1.115697980E0
1.694965138E1,9.629479408E0,2.470816135E0,-1.101332784E0
1.695999377E1,9.734824181E0,2.461239338E0,-1.019929886E0
1.696993581E1,9.653421402E0,2.384624958E0,-1.067813993E0
1.698019226E1,9.677363396E0,2.360682964E0,-9.241618514E-1
1.699062076E1,9.710882187E0,2.284068346E0,-9.911994934E-1
1.700031706E1,9.744400978E0,2.327163935E0,-1.029506683E0
1.701053784E1,9.643844604E0,2.317587137E0,-1.010353088E0
1.702058935E1,9.605537415E0,2.355894566E0,-1.048660398E0
1.703083993E1,9.619902611E0,2.384624958E0,-1.043871999E0
1.704114201E1,9.610325813E0,2.379836559E0,-1.029506683E0
1.705144894E1,9.576807022E0,2.308010340E0,-1.019929886E0
1.706121805E1,9.595960617E0,2.317587137E0,-9.768342972E-1
1.707134144E1,9.548076630E0,2.322375536E0,-9.289502501E-1
1.708162196E1,9.605537415E0,2.327163935E0,-8.810662031E-1
1.709187103E1,9.572018623E0,2.384624958E0,-9.289502501E-1
1.710189790E1,9.667786598E0,2.331952572E0,-9.337386489E-1
1.711189780E1,9.629479408E0,2.384624958E0,-1.000776291E0
1.712258624E1,9.634267807E0,2.279279947E0,-1.063025594E0
1.713219040E1,9.557653427E0,2.255337954E0,-1.115697980E0
1.714234702E1,9.725247383E0,2.049436569E0,-1.019929886E0
1.715258759E1,9.586383820E0,2.106897593E0,-8.858546019E-1
1.716261687E1,9.825803757E0,1.905784607E0,-8.954314590E-1
1.717277978E1,9.706093788E0,2.035071373E0,-8.619126081E-1
1.718307520E1,9.797073364E0,2.020706177E0,-8.427590132E-1
1.719307921E1,9.720458984E0,2.073378563E0,-1.005564690E0
1.720320843E1,9.720458984E0,2.126051188E0,-9.433154464E-1
1.721337406E1,9.677363396E0,2.207453966E0,-9.816226959E-1
1.722361083E1,9.528923035E0,2.250549555E0,-1.015141487E0
1.723371625E1,9.466673851E0,2.317587137E0,-9.816226959E-1
1.724376630E1,9.404424667E0,2.494758129E0,-8.619126081E-1
1.725395776E1,9.294290543E0,2.705447912E0,-8.810662031E-1
1.726404875E1,9.346963882E0,2.882618904E0,-9.768342972E-1
1.727433714E1,9.433155060E0,3.021482468E0,-1.000776291E0
1.728433532E1,9.414001465E0,3.136404276E0,-8.810662031E-1
1.729449365E1,9.351752281E0,3.251325846E0,-8.188169599E-1
1.730461855E1,9.318233490E0,3.404554844E0,-9.193734527E-1
1.731479251E1,9.409213066E0,3.351882458E0,-7.613561153E-1
1.732486147E1,9.399636269E0,3.414131641E0,-7.996633649E-1
1.733501360E1,9.490615845E0,3.332728863E0,-7.805097699E-1
1.734517584E1,9.466673851E0,3.409343243E0,-8.475474119E-1
1.735566470E1,9.442731857E0,3.414131641E0,-9.528923035E-1
1.736569584E1,9.519346237E0,3.380612850E0,-8.427590132E-1
1.737559871E1,9.437943459E0,3.351882458E0,-7.517793179E-1
1.738570434E1,9.409213066E0,3.198653460E0,-8.044517636E-1
1.739596423E1,9.457097054E0,3.342305660E0,-8.044517636E-1
1.740633460E1,9.643844604E0,3.303998232E0,-8.954314590E-1
1.741628580E1,9.691728592E0,3.246537447E0,-8.906430602E-1
1.742635299E1,9.533711433E0,3.347094059E0,-9.959878922E-1
1.743668960E1,9.629479408E0,3.203441858E0,-8.858546019E-1
1.744659742E1,9.481039047E0,3.112462282E0,-7.900865674E-1
1.745674132E1,9.471462250E0,2.916137695E0,-7.422025204E-1
1.746696450E1,9.380482674E0,2.944868088E0,-6.751648784E-1
1.747701836E1,9.370905876E0,2.806004286E0,-7.565677166E-1
1.748723336E1,9.447520256E0,2.834734917E0,-8.714894056E-1
1.749737049E1,9.428366661E0,2.844311714E0,-9.097966552E-1
1.750744898E1,9.452308655E0,2.940079689E0,-1.005564690E0
1.751786930E1,9.437943459E0,2.997540474E0,-1.029506683E0
1.752770388E1,9.433155060E0,2.968810081E0,-9.768342972E-1
1.753783248E1,9.399636269E0,2.925714493E0,-9.528923035E-1
1.754790586E1,9.414001465E0,2.906560898E0,-9.624691010E-1
1.755827243E1,9.409213066E0,3.016694069E0,-1.053448796E0
1.756826784E1,9.390059471E0,2.978386879E0,-9.672574997E-1
1.757846607E1,9.519346237E0,2.662352324E0,-9.864110947E-1
1.758856514E1,9.447520256E0,2.537853718E0,-1.034295082E0
1.759886550E1,9.615114212E0,2.518700123E0,-1.029506683E0
1.760890425E1,9.662998199E0,2.561795712E0,-9.768342972E-1
1.761902670E1,9.662998199E0,2.604891539E0,-9.720458984E-1
1.762934264E1,9.720458984E0,2.676717520E0,-1.086967587E0
1.763939733E1,9.758766174E0,2.786850691E0,-1.120486379E0
1.764948238E1,9.763554573E0,2.710236311E0,-1.182735682E0
1.765962337E1,9.600749016E0,2.767697096E0,-1.110909581E0
1.766968197E1,9.457097054E0,2.983175278E0,-1.024718285E0
1.767981468E1,9.428366661E0,2.983175278E0,-1.053448796E0
1.769006760E1,9.418789864E0,2.992752075E0,-1.120486379E0
1.770022260E1,9.423578262E0,2.973598480E0,-8.667010069E-1
1.771058739E1,9.351752281E0,2.801215887E0,-7.086837292E-1
1.772046348E1,9.399636269E0,2.691082716E0,-6.560112834E-1
1.773057348E1,9.370905876E0,2.647987127E0,-6.847416759E-1
1.774073052E1,9.423578262E0,2.466027737E0,-8.283938169E-1
1.775089000E1,9.504981041E0,2.303221941E0,-8.044517636E-1
1.776094578E1,9.481039047E0,2.264914751E0,-6.464344859E-1
1.777127266E1,9.351752281E0,2.446874142E0,-7.613561153E-1
1.778137870E1,9.677363396E0,2.312798738E0,-1.048660398E0
1.779143740E1,9.801861763E0,2.068590164E0,-9.528923035E-1
1.780165141E1,9.725247383E0,2.197877169E0,-8.714894056E-1
1.781181875E1,9.907206535E0,2.217030764E0,-7.374141216E-1
1.782199730E1,9.983820915E0,2.140416384E0,-6.703764796E-1
1.783197745E1,1.002691650E1,2.188300371E0,-6.033388376E-1
1.784219402E1,9.974244118E0,2.154781580E0,-6.895300746E-1
1.785237272E1,9.916783333E0,2.106897593E0,-8.283938169E-1
1.786243808E1,9.854534149E0,2.063801765E0,-6.224924326E-1
1.787262142E1,9.753977776E0,2.068590164E0,-7.900865674E-1
1.788266386E1,9.739612579E0,2.126051188E0,-6.129156351E-1
1.789284319E1,9.595960617E0,2.140416384E0,-7.038952708E-1
1.790294569E1,9.514557838E0,2.226607561E0,-6.751648784E-1
1.791329048E1,9.447520256E0,2.226607561E0,-6.272808313E-1
1.792329944E1,9.495404243E0,2.370259762E0,-5.985504389E-1
1.793344173E1,9.595960617E0,2.485181332E0,-6.320692301E-1
1.794355439E1,9.701305389E0,2.154781580E0,-1.043871999E0
1.795371523E1,9.581595421E0,2.197877169E0,-8.619126081E-1
1.796393054E1,9.749189377E0,2.169146776E0,-8.283938169E-1
1.797395065E1,9.753977776E0,2.130839586E0,-7.757213712E-1
1.798425158E1,9.758766174E0,2.226607561E0,-7.661445141E-1
1.799426450E1,9.840168953E0,2.303221941E0,-8.044517636E-1
1.800448528E1,9.768342972E0,2.499546528E0,-8.954314590E-1
1.801467596E1,9.873687744E0,2.600103140E0,-9.097966552E-1
1.802473195E1,9.782708168E0,2.566584110E0,-1.048660398E0
1.803477930E1,9.629479408E0,2.676717520E0,-1.077390790E0
1.804494971E1,9.528923035E0,2.628833532E0,-1.010353088E0
1.805536873E1,9.557653427E0,2.533065319E0,-9.289502501E-1
1.806523190E1,9.528923035E0,2.513911724E0,-8.188169599E-1
1.807549284E1,9.557653427E0,2.442085743E0,-7.517793179E-1
1.808563925E1,9.552865028E0,2.427720547E0,-7.422025204E-1
1.809572196E1,9.548076630E0,2.365471363E0,-7.948749661E-1
1.810594482E1,9.567230225E0,2.489969730E0,-7.805097699E-1
1.811595910E1,9.548076630E0,2.518700123E0,-7.948749661E-1
1.812608405E1,9.586383820E0,2.590526342E0,-7.996633649E-1
1.813644170E1,9.528923035E0,2.542642117E0,-8.475474119E-1
1.814634129E1,9.581595421E0,2.671929121E0,-8.331822157E-1
1.815659113E1,9.519346237E0,2.686294317E0,-8.762778044E-1
1.816678150E1,9.524134636E0,2.743755102E0,-9.816226959E-1
1.817690478E1,9.476250648E0,2.806004286E0,-1.082179189E0
1.818696916E1,9.485827446E0,2.882618904E0,-1.086967587E0
1.819736124E1,9.490615845E0,2.892195702E0,-1.082179189E0
1.820742181E1,9.528923035E0,2.853888512E0,-9.816226959E-1
1.821744504E1,9.667786598E0,2.671929121E0,-8.858546019E-1
1.822768645E1,9.686940193E0,2.557007313E0,-6.943184733E-1
1.823764885E1,9.370905876E0,2.628833532E0,-9.097966552E-1
1.824795510E1,9.375694275E0,2.686294317E0,-1.187524080E0
1.825788875E1,9.519346237E0,2.600103140E0,-1.570596337E0
1.826809151E1,9.787496567E0,2.753331900E0,-1.503558636E0
1.827818385E1,9.835380554E0,2.839523315E0,-1.465251446E0
1.828855677E1,1.005564690E1,2.633621931E0,-1.225831270E0
1.829851203E1,9.979032516E0,2.379836559E0,-9.720458984E-1
1.830862823E1,9.792284966E0,2.255337954E0,-7.182605267E-1
1.831881526E1,9.792284966E0,2.102109194E0,-6.799532771E-1
1.832899839E1,9.682151794E0,2.121262789E0,-6.799532771E-1
1.833929532E1,9.595960617E0,2.140416384E0,-8.427590132E-1
1.834928115E1,9.715670586E0,2.202665567E0,-7.422025204E-1
1.835949610E1,9.471462250E0,2.379836559E0,-8.044517636E-1
1.836951162E1,9.730035782E0,2.432508945E0,-8.092401624E-1
1.837962350E1,9.610325813E0,2.432508945E0,-1.082179189E0
1.838990590E1,9.605537415E0,2.456450939E0,-1.110909581E0
1.839987392E1,9.471462250E0,2.494758129E0,-1.154005170E0
1.841004881E1,9.447520256E0,2.389413357E0,-1.197100878E0
1.842024189E1,9.543288231E0,2.317587137E0,-1.077390790E0
1.843041230E1,9.610325813E0,2.255337954E0,-1.053448796E0
1.844080095E1,9.581595421E0,2.221819162E0,-9.337386489E-1
1.845074361E1,9.710882187E0,2.097320795E0,-9.481038451E-1
1.846078476E1,9.763554573E0,2.078166962E0,-9.145850539E-1
1.847095314E1,9.730035782E0,2.130839586E0,-9.145850539E-1
1.848105887E1,9.782708168E0,2.116474390E0,-1.039083481E0
1.849117971E1,9.701305389E0,2.240972757E0,-1.091755986E0
1.850132080E1,9.639056206E0,2.336740971E0,-1.091755986E0
1.851150580E1,9.624691010E0,2.432508945E0,-1.082179189E0
1.852187101E1,9.600749016E0,2.513911724E0,-1.120486379E0
1.853174226E1,9.481039047E0,2.624045134E0,-1.115697980E0
1.854191289E1,9.327810287E0,2.715024710E0,-1.240196466E0
1.855202820E1,9.342175484E0,2.777273893E0,-1.259350061E0
1.856188148E1,9.461885452E0,2.738966703E0,-1.158793569E0
1.857253550E1,9.423578262E0,2.743755102E0,-1.249773264E0
1.858243274E1,9.797073364E0,2.331952572E0,-1.221042871E0
1.859268769E1,9.974244118E0,1.877054095E0,-8.714894056E-1
1.860302206E1,9.686940193E0,1.934514999E0,-5.554547906E-1
1.861292534E1,9.572018623E0,1.972822189E0,-6.943184733E-1
1.862313316E1,9.519346237E0,1.991975784E0,-8.044517636E-1
1.863326019E1,9.548076630E0,2.169146776E0,-9.911994934E-1
1.864488691E1,9.528923035E0,2.164358377E0,-1.010353088E0
1.865347535E1,9.576807022E0,2.236184359E0,-1.110909581E0
1.866360045E1,9.682151794E0,2.240972757E0,-1.158793569E0
1.867382978E1,9.667786598E0,2.317587137E0,-1.211466074E0
1.868393264E1,9.763554573E0,2.336740971E0,-1.201889277E0
1.869404608E1,9.725247383E0,2.470816135E0,-1.211466074E0
1.870429082E1,9.787496567E0,2.571372509E0,-1.053448796E0
1.871453291E1,9.624691010E0,2.662352324E0,-1.063025594E0
1.872462379E1,9.615114212E0,2.762908697E0,-1.019929886E0
1.873464780E1,9.519346237E0,2.748543501E0,-1.029506683E0
1.874488728E1,9.428366661E0,2.738966703E0,-1.024718285E0
1.875490645E1,9.500192642E0,2.643198729E0,-1.010353088E0
1.876502067E1,9.481039047E0,2.528276920E0,-1.034295082E0
1.877521057E1,9.519346237E0,2.533065319E0,-1.053448796E0
1.878535927E1,9.428366661E0,2.547430515E0,-1.192312479E0
1.879556594E1,9.495404243E0,2.470816135E0,-1.168370485E0
1.880562713E1,9.586383820E0,2.437297344E0,-1.197100878E0
1.881574214E1,9.572018623E0,2.499546528E0,-1.235408068E0
1.882604443E1,9.634267807E0,2.499546528E0,-1.101332784E0
1.883597339E1,9.691728592E0,2.557007313E0,-1.010353088E0
1.884617339E1,9.662998199E0,2.528276920E0,-9.720458984E-1
1.885638802E1,9.643844604E0,2.489969730E0,-9.433154464E-1
1.886648714E1,9.696516991E0,2.331952572E0,-9.002198577E-1
1.887660339E1,9.653421402E0,2.236184359E0,-8.667010069E-1
1.888677745E1,9.615114212E0,2.231395960E0,-8.571242094E-1
1.889706022E1,9.643844604E0,2.154781580E0,-8.714894056E-1
1.890710772E1,9.677363396E0,2.102109194E0,-9.481038451E-1
1.891715855E1,9.763554573E0,2.035071373E0,-9.385270476E-1
1.892757735E1,9.825803757E0,1.944091797E0,-9.672574997E-1
1.893744923E1,9.916783333E0,1.872265697E0,-9.433154464E-1
1.894774970E1,9.916783333E0,1.982398987E0,-1.019929886E0
1.895795616E1,9.911994934E0,1.896207690E0,-9.768342972E-1
1.896792793E1,9.830592155E0,1.877054095E0,-9.624691010E-1
1.897801085E1,9.777919769E0,1.934514999E0,-9.433154464E-1
1.898844752E1,9.730035782E0,1.896207690E0,-1.010353088E0
1.899833601E1,9.682151794E0,1.972822189E0,-9.816226959E-1
1.900844403E1,9.758766174E0,1.944091797E0,-1.082179189E0
1.901863450E1,9.586383820E0,2.020706177E0,-1.029506683E0
1.902877283E1,9.615114212E0,2.006340981E0,-1.120486379E0
1.903903606E1,9.557653427E0,2.250549555E0,-1.091755986E0
1.904911841E1,9.509769440E0,2.303221941E0,-1.216254473E0
1.905952643E1,9.509769440E0,2.456450939E0,-1.110909581E0
1.906939971E1,9.509769440E0,2.533065319E0,-9.959878922E-1
1.907943388E1,9.576807022E0,2.408566952E0,-1.015141487E0
1.908954326E1,9.715670586E0,2.346317768E0,-9.672574997E-1
1.909974732E1,9.821015358E0,2.264914751E0,-9.145850539E-1
1.910983633E1,9.897629738E0,2.231395960E0,-9.097966552E-1
1.911999690E1,9.864110947E0,2.183511972E0,-8.714894056E-1
1.913015644E1,9.797073364E0,2.145204782E0,-8.523358107E-1
1.914031071E1,9.677363396E0,2.106897593E0,-9.768342972E-1
1.915040446E1,9.667786598E0,2.063801765E0,-9.959878922E-1
1.916061264E1,9.615114212E0,2.054224968E0,-1.077390790E0
1.917103649E1,9.567230225E0,2.169146776E0,-1.082179189E0
1.918078452E1,9.461885452E0,2.250549555E0,-1.115697980E0
1.919097879E1,9.414001465E0,2.298433542E0,-1.139639974E0
1.920178587E1,9.495404243E0,2.327163935E0,-1.091755986E0
1.921125973E1,9.562441826E0,2.389413357E0,-1.067813993E0
1.922135124E1,9.538499832E0,2.432508945E0,-9.911994934E-1
1.923152692E1,9.643844604E0,2.351106167E0,-1.000776291E0
1.924166733E1,9.610325813E0,2.389413357E0,-1.019929886E0
1.925185739E1,9.682151794E0,2.408566952E0,-1.034295082E0
1.926204739E1,9.648633003E0,2.475604534E0,-1.082179189E0
1.927211640E1,9.610325813E0,2.485181332E0,-1.077390790E0
1.928225416E1,9.586383820E0,2.542642117E0,-1.077390790E0
1.929236781E1,9.528923035E0,2.671929121E0,-1.230619669E0
1.930259567E1,9.433155060E0,2.834734917E0,-1.120486379E0
1.931289416E1,8.963891029E0,3.394978046E0,-1.106121182E0
1.932274338E1,9.605537415E0,2.873042107E0,-1.503558636E0
1.933300292E1,9.773131371E0,2.485181332E0,-1.077390790E0
1.934310703E1,9.600749016E0,2.758120298E0,-7.661445141E-1
1.935333620E1,9.519346237E0,2.901772499E0,-8.667010069E-1
1.936345646E1,9.461885452E0,2.930502892E0,-1.000776291E0
1.937348568E1,9.346963882E0,2.916137695E0,-1.264138460E0
1.938371240E1,9.351752281E0,3.016694069E0,-1.273715258E0
1.939382818E1,9.299078941E0,3.069366693E0,-1.297657371E0
1.940400480E1,9.227252960E0,2.839523315E0,-1.254561663E0
1.941406365E1,9.260771751E0,2.825158119E0,-1.249773264E0
1.942424287E1,9.275136948E0,2.719813108E0,-1.331176162E0
1.943436782E1,9.452308655E0,2.667140722E0,-1.417367458E0
1.944469798E1,9.600749016E0,2.638410330E0,-1.431732655E0
1.945474246E1,9.701305389E0,2.710236311E0,-1.268926859E0
1.946490017E1,9.696516991E0,2.743755102E0,-1.288080573E0
1.947497048E1,9.749189377E0,2.686294317E0,-1.139639974E0
1.948510121E1,9.686940193E0,2.667140722E0,-1.187524080E0
1.949548715E1,9.667786598E0,2.695871115E0,-1.163581967E0
1.950567460E1,9.576807022E0,2.686294317E0,-1.197100878E0
1.951549622E1,9.605537415E0,2.719813108E0,-1.216254473E0
1.952570080E1,9.677363396E0,2.681505919E0,-1.187524080E0
1.953579392E1,9.639056206E0,2.633621931E0,-1.259350061E0
1.954602075E1,9.629479408E0,2.667140722E0,-1.350329757E0
1.955616059E1,9.490615845E0,2.657563925E0,-1.340752959E0
1.956623299E1,9.433155060E0,2.748543501E0,-1.450886250E0
1.957654789E1,9.366117477E0,2.753331900E0,-1.493981838E0
1.958653940E1,9.346963882E0,2.715024710E0,-1.527500629E0
1.959666294E1,9.327810287E0,2.738966703E0,-1.517923832E0
1.960699659E1,9.351752281E0,2.600103140E0,-1.446097851E0
1.961704607E1,9.370905876E0,2.518700123E0,-1.417367458E0
1.962719133E1,9.351752281E0,2.461239338E0,-1.460463047E0
1.963732425E1,9.437943459E0,2.336740971E0,-1.503558636E0
1.964757347E1,9.576807022E0,2.245761156E0,-1.446097851E0
1.965757310E1,9.864110947E0,2.197877169E0,-1.426944256E0
1.966766050E1,9.859322548E0,2.197877169E0,-1.316810966E0
1.967794560E1,9.753977776E0,2.293645144E0,-1.398213744E0
1.968810873E1,9.610325813E0,2.442085743E0,-1.470039845E0
1.969806399E1,9.452308655E0,2.724601507E0,-1.661576033E0
1.970842827E1,9.409213066E0,3.002328873E0,-1.699883223E0
1.971843868E1,9.284713745E0,3.131615877E0,-1.651999116E0
1.972853035E1,9.318233490E0,3.160346270E0,-1.561019540E0
1.973891400E1,9.179368973E0,3.236960649E0,-1.541865945E0
1.974881442E1,9.112331390E0,3.270479441E0,-1.537077546E0
1.975931171E1,9.193734169E0,3.227383852E0,-1.508347034E0
1.976904364E1,9.323021889E0,3.160346270E0,-1.436521053E0
1.977945520E1,9.323021889E0,3.189076662E0,-1.355118155E0
1.978946114E1,9.318233490E0,3.203441858E0,-1.364694953E0
1.979951223E1,9.351752281E0,3.256114244E0,-1.268926859E0
1.980967322E1,9.366117477E0,3.174711466E0,-1.417367458E0
1.981987302E1,9.476250648E0,3.160346270E0,-1.489193439E0
1.983001213E1,9.552865028E0,3.088520288E0,-1.446097851E0
1.984000515E1,9.653421402E0,2.959233284E0,-1.465251446E0
1.985016021E1,9.758766174E0,2.877830505E0,-1.403002143E0
1.986032599E1,9.773131371E0,2.901772499E0,-1.340752959E0
1.987048964E1,9.696516991E0,2.863465309E0,-1.474828243E0
1.988059000E1,9.562441826E0,2.954444885E0,-1.537077546E0
1.989080880E1,9.414001465E0,2.964021683E0,-1.604115129E0
1.990095422E1,9.399636269E0,2.882618904E0,-1.608903527E0
1.991104719E1,9.356540680E0,2.743755102E0,-1.575384736E0
1.992124719E1,9.303867340E0,2.715024710E0,-1.489193439E0
1.993155068E1,9.121908188E0,2.710236311E0,-1.436521053E0
1.994163063E1,9.145850182E0,2.791639090E0,-1.292868972E0
1.995159912E1,9.131484985E0,2.987963676E0,-1.321599364E0
1.996171147E1,9.145850182E0,3.011905670E0,-1.412579060E0
1.997191241E1,9.275136948E0,3.002328873E0,-1.417367458E0
1.998202105E1,9.260771751E0,2.920926094E0,-1.537077546E0
1.999230730E1,9.342175484E0,2.839523315E0,-1.489193439E0
2.000231486E1,9.380482674E0,2.748543501E0,-1.561019540E0
2.001262882E1,9.610325813E0,2.571372509E0,-1.570596337E0
2.002275668E1,9.600749016E0,2.513911724E0,-1.594538331E0
2.003289554E1,9.653421402E0,2.379836559E0,-1.661576033E0
2.004295017E1,9.739612579E0,2.355894566E0,-1.604115129E0
2.005305606E1,9.701305389E0,2.389413357E0,-1.675941229E0
2.006364346E1,9.629479408E0,2.446874142E0,-1.613691926E0
2.007334867E1,9.543288231E0,2.585737944E0,-1.556231141E0
2.008347127E1,9.279925346E0,2.782062292E0,-1.613691926E0
2.009361737E1,9.107542992E0,3.050212860E0,-1.575384736E0
2.010387325E1,9.002198219E0,3.227383852E0,-1.628057122E0
2.011392862E1,9.002198219E0,3.361459255E0,-1.608903527E0
2.012406773E1,8.963891029E0,3.529053211E0,-1.599326730E0
2.013421388E1,8.963891029E0,3.648763418E0,-1.728613615E0
2.014439029E1,9.078812599E0,3.629609823E0,-1.709460020E0
2.015442112E1,9.174580574E0,3.562572241E0,-1.675941229E0
2.016459258E1,9.246406555E0,3.476380825E0,-1.642422318E0
2.017475159E1,9.327810287E0,3.347094059E0,-1.604115129E0
2.018495722E1,9.471462250E0,3.232172251E0,-1.498770237E0
2.019501462E1,9.481039047E0,3.193865061E0,-1.551442742E0
2.020527128E1,9.476250648E0,3.141192675E0,-1.412579060E0
2.021562243E1,9.423578262E0,3.040636063E0,-1.508347034E0
2.022541144E1,9.519346237E0,2.987963676E0,-1.565807939E0
2.023559738E1,9.557653427E0,2.839523315E0,-1.608903527E0
2.024572473E1,9.696516991E0,2.638410330E0,-1.532289028E0
2.025584087E1,9.959878922E0,2.250549555E0,-1.412579060E0
2.026579499E1,9.998186111E0,2.044648170E0,-1.249773264E0
2.027617806E1,9.701305389E0,2.049436569E0,-1.316810966E0
2.028627952E1,9.275136948E0,2.130839586E0,-1.613691926E0
2.029677822E1,9.409213066E0,1.996764183E0,-1.642422318E0
2.030668338E1,9.615114212E0,1.824381709E0,-1.699883223E0
2.031673286E1,9.399636269E0,1.881842494E0,-1.584961534E0
2.032703614E1,9.169792175E0,2.059013367E0,-1.604115129E0
2.033700864E1,8.987833023E0,2.111685991E0,-1.704671621E0
2.034711307E1,9.026140213E0,2.260126352E0,-1.771709204E0
2.035725463E1,9.074024200E0,2.518700123E0,-1.680729628E0
2.036753562E1,9.136273384E0,2.710236311E0,-1.647210717E0
2.037766187E1,9.097966194E0,2.911349297E0,-1.570596337E0
2.038777552E1,9.117119789E0,3.050212860E0,-1.632845521E0
2.039788120E1,9.222464561E0,3.107673883E0,-1.671152830E0
2.040807703E1,9.275136948E0,3.074155092E0,-1.747767210E0
2.041815052E1,9.188945770E0,2.916137695E0,-1.857900500E0
2.042826167E1,9.169792175E0,2.734178305E0,-1.814804912E0
2.043842876E1,9.102754593E0,2.533065319E0,-1.699883223E0
2.044869626E1,9.088389397E0,2.566584110E0,-1.594538331E0
2.045866449E1,9.050082207E0,2.729389906E0,-1.417367458E0
2.046883996E1,9.035717010E0,3.184288263E0,-1.403002143E0
2.047919209E1,9.169792175E0,3.610456228E0,-1.350329757E0
2.048923538E1,9.117119789E0,3.902548790E0,-1.355118155E0
2.049926543E1,9.136273384E0,4.237737179E0,-1.393425345E0
2.050947480E1,8.992621422E0,4.515464306E0,-1.345541358E0
2.051955137E1,9.026140213E0,4.692635536E0,-1.498770237E0
2.052976574E1,9.011775017E0,4.821922302E0,-1.561019540E0
2.053979960E1,9.083600998E0,4.802768707E0,-1.546654344E0
2.054967991E1,9.006986618E0,4.740519524E0,-1.613691926E0
2.056039825E1,8.954314232E0,4.558559895E0,-1.608903527E0
2.057022752E1,9.002198219E0,4.424484730E0,-1.608903527E0
2.058046090E1,9.155426979E0,4.108449936E0,-1.637633920E0
2.059053169E1,9.145850182E0,4.022258759E0,-1.699883223E0
2.060080455E1,9.394847870E0,3.801992416E0,-1.618480325E0
2.061081117E1,9.423578262E0,3.639186621E0,-1.723825216E0
2.062113627E1,9.490615845E0,3.438073635E0,-1.628057122E0
2.063109857E1,9.414001465E0,3.332728863E0,-1.517923832E0
2.064126341E1,9.595960617E0,2.944868088E0,-1.714248419E0
2.065144846E1,9.734824181E0,2.446874142E0,-1.824381709E0
2.066156815E1,9.696516991E0,2.308010340E0,-1.742978811E0
2.067172341E1,9.533711433E0,2.068590164E0,-1.517923832E0
2.068183862E1,9.524134636E0,1.948880196E0,-1.345541358E0
2.069291362E1,9.538499832E0,1.800439715E0,-1.355118155E0
2.070207503E1,9.342175484E0,1.872265697E0,-1.340752959E0
2.071257555E1,9.323021889E0,2.063801765E0,-1.192312479E0
2.072254722E1,9.351752281E0,2.145204782E0,-1.039083481E0
2.073279420E1,9.332598686E0,2.212242365E0,-1.053448796E0
2.074285030E1,9.313444138E0,2.461239338E0,-1.005564690E0
2.075278972E1,9.217676163E0,2.801215887E0,-1.115697980E0
2.076319337E1,9.701305389E0,2.566584110E0,-1.335964561E0
2.077326025E1,9.907206535E0,2.303221941E0,-1.244984865E0
2.078341665E1,1.014183807E1,2.087743998E0,-1.216254473E0
2.079345509E1,1.012268448E1,1.972822189E0,-1.168370485E0
2.080359384E1,9.964667320E0,1.958456993E0,-1.067813993E0
2.081369265E1,9.816226959E0,2.097320795E0,-1.010353088E0
2.082381567E1,9.691728592E0,2.274491549E0,-1.154005170E0
2.083405437E1,9.715670586E0,2.485181332E0,-1.206677675E0
2.084409067E1,9.672574997E0,2.604891539E0,-1.158793569E0
2.085442046E1,9.667786598E0,2.667140722E0,-1.168370485E0
2.086444958E1,9.725247383E0,2.700659513E0,-1.177947283E0
2.087459614E1,9.686940193E0,2.576161146E0,-1.154005170E0
2.088460437E1,9.576807022E0,2.590526342E0,-1.230619669E0
2.089475807E1,9.648633003E0,2.523488522E0,-1.254561663E0
2.090498937E1,9.806650162E0,2.394201756E0,-1.359906554E0
2.091521891E1,9.811438560E0,2.341529369E0,-1.331176162E0
2.092530010E1,9.844957352E0,2.341529369E0,-1.244984865E0
2.093552349E1,9.758766174E0,2.260126352E0,-1.225831270E0
2.094557099E1,9.720458984E0,2.197877169E0,-1.221042871E0
2.095562662E1,9.662998199E0,2.135627985E0,-1.206677675E0
2.096582579E1,9.677363396E0,2.154781580E0,-1.254561663E0
2.097607594E1,9.619902611E0,2.188300371E0,-1.206677675E0
2.098611761E1,9.715670586E0,2.193088770E0,-1.264138460E0
2.099625246E1,9.686940193E0,2.240972757E0,-1.350329757E0
2.100681287E1,9.749189377E0,2.303221941E0,-1.355118155E0
2.101651626E1,9.816226959E0,2.183511972E0,-1.379060149E0
2.102668454E1,9.782708168E0,2.159569979E0,-1.268926859E0
2.103680855E1,9.763554573E0,2.149993181E0,-1.288080573E0
2.104700720E1,9.758766174E0,2.130839586E0,-1.359906554E0
2.105710267E1,9.801861763E0,2.145204782E0,-1.379060149E0
2.106753616E1,9.720458984E0,2.025494576E0,-1.426944256E0
2.107731929E1,9.859322548E0,1.920149803E0,-1.364694953E0
2.108757002E1,9.940725327E0,1.829170108E0,-1.307234168E0
2.109777658E1,9.998186111E0,1.771709204E0,-1.268926859E0
2.110786643E1,9.964667320E0,1.766920805E0,-1.206677675E0
2.111787507E1,9.864110947E0,1.886630893E0,-1.177947283E0
2.112802862E1,9.797073364E0,1.857900500E0,-1.154005170E0
2.113822648E1,9.744400978E0,1.838746905E0,-1.058237195E0
2.114845377E1,9.672574997E0,1.838746905E0,-1.144428372E0
2.115854023E1,9.605537415E0,1.905784607E0,-1.125274777E0
2.116864393E1,9.739612579E0,1.762132406E0,-1.144428372E0
2.117890154E1,9.773131371E0,1.757344007E0,-1.110909581E0
2.118888904E1,9.854534149E0,1.843535304E0,-1.082179189E0
2.119905498E1,9.801861763E0,1.872265697E0,-1.134851575E0
2.120919763E1,9.840168953E0,1.905784607E0,-1.144428372E0
