"Time (s)","Gyroscope x (rad/s)","Gyroscope y (rad/s)","Gyroscope z (rad/s)"
1.121375500E-2,7.290399820E-2,1.730840057E-1,7.238950133E-1
1.375366000E-2,7.290399820E-2,1.730840057E-1,7.238950133E-1
1.629352900E-2,7.290399820E-2,1.730840057E-1,7.238950133E-1
1.883259900E-2,7.290399820E-2,1.730840057E-1,7.238950133E-1
2.137168200E-2,7.290399820E-2,1.730840057E-1,7.238950133E-1
2.391056700E-2,7.290399820E-2,1.730840057E-1,7.238950133E-1
2.644945200E-2,7.290399820E-2,1.730840057E-1,7.238950133E-1
2.898837500E-2,7.290399820E-2,1.730840057E-1,7.238950133E-1
3.152729800E-2,7.290399820E-2,1.730840057E-1,7.238950133E-1
3.406667600E-2,7.290399820E-2,1.730840057E-1,7.238950133E-1
3.660606100E-2,7.290399820E-2,1.730840057E-1,7.238950133E-1
3.914563800E-2,7.290399820E-2,1.730840057E-1,7.238950133E-1
4.168521500E-2,7.290399820E-2,1.730840057E-1,7.238950133E-1
4.422486800E-2,7.290399820E-2,1.730840057E-1,7.238950133E-1
4.676452300E-2,7.290399820E-2,1.730840057E-1,7.238950133E-1
4.930456000E-2,7.290399820E-2,1.730840057E-1,7.238950133E-1
5.184459900E-2,7.290399820E-2,1.730840057E-1,7.238950133E-1
5.438394400E-2,7.290399820E-2,1.730840057E-1,7.238950133E-1
5.692329100E-2,7.290399820E-2,1.730840057E-1,7.238950133E-1
5.946221500E-2,7.290399820E-2,1.730840057E-1,7.238950133E-1
6.200113800E-2,7.290399820E-2,1.730840057E-1,7.238950133E-1
6.454006000E-2,2.647919953E-1,5.383380055E-1,3.104349971E-1
6.707898300E-2,2.647919953E-1,5.383380055E-1,3.104349971E-1
6.961821300E-2,2.647919953E-1,5.383380055E-1,3.104349971E-1
7.215744400E-2,2.647919953E-1,5.383380055E-1,3.104349971E-1
7.469696700E-2,2.647919953E-1,5.383380055E-1,3.104349971E-1
7.723650600E-2,2.647919953E-1,5.383380055E-1,3.104349971E-1
7.977654500E-2,2.647919953E-1,5.383380055E-1,3.104349971E-1
8.231658400E-2,2.647919953E-1,5.383380055E-1,3.104349971E-1
8.485638500E-2,1.519059986E-1,2.162699997E-1,-3.409039974E-1
8.739619400E-2,1.519059986E-1,2.162699997E-1,-3.409039974E-1
8.993542400E-2,1.519059986E-1,2.162699997E-1,-3.409039974E-1
9.247465500E-2,1.519059986E-1,2.162699997E-1,-3.409039974E-1
9.501419800E-2,1.519059986E-1,2.162699997E-1,-3.409039974E-1
9.755373700E-2,1.519059986E-1,2.162699997E-1,-3.409039974E-1
1.000931590E-1,1.519059986E-1,2.162699997E-1,-3.409039974E-1
1.026325840E-1,1.519059986E-1,2.162699997E-1,-3.409039974E-1
1.051733480E-1,1.525129974E-1,2.611419857E-1,-3.086580038E-1
1.077141170E-1,1.525129974E-1,2.611419857E-1,-3.086580038E-1
1.102536150E-1,1.525129974E-1,2.611419857E-1,-3.086580038E-1
1.127931160E-1,1.525129974E-1,2.611419857E-1,-3.086580038E-1
1.153319040E-1,1.525129974E-1,2.611419857E-1,-3.086580038E-1
1.178707110E-1,1.525129974E-1,2.611419857E-1,-3.086580038E-1
1.204100970E-1,1.525129974E-1,2.611419857E-1,-3.086580038E-1
1.229494820E-1,1.525129974E-1,2.611419857E-1,-3.086580038E-1
1.254890190E-1,1.349260062E-1,2.642939985E-1,-3.055599928E-1
1.280285580E-1,1.349260062E-1,2.642939985E-1,-3.055599928E-1
1.305684040E-1,1.349260062E-1,2.642939985E-1,-3.055599928E-1
1.331082510E-1,1.349260062E-1,2.642939985E-1,-3.055599928E-1
1.356479370E-1,1.349260062E-1,2.642939985E-1,-3.055599928E-1
1.381876300E-1,1.349260062E-1,2.642939985E-1,-3.055599928E-1
1.407275920E-1,1.349260062E-1,2.642939985E-1,-3.055599928E-1
1.432675530E-1,1.349260062E-1,2.642939985E-1,-3.055599928E-1
1.458072450E-1,1.242230013E-1,2.787829936E-1,-3.062790036E-1
1.483469380E-1,1.242230013E-1,2.787829936E-1,-3.062790036E-1
1.508869760E-1,1.242230013E-1,2.787829936E-1,-3.062790036E-1
1.534270150E-1,1.242230013E-1,2.787829936E-1,-3.062790036E-1
1.559669600E-1,1.242230013E-1,2.787829936E-1,-3.062790036E-1
1.585069230E-1,1.242230013E-1,2.787829936E-1,-3.062790036E-1
1.610475770E-1,1.242230013E-1,2.787829936E-1,-3.062790036E-1
1.635882300E-1,1.242230013E-1,2.787829936E-1,-3.062790036E-1
1.661284950E-1,3.059569895E-1,8.131499887E-1,4.030030072E-1
1.686687660E-1,3.059569895E-1,8.131499887E-1,4.030030072E-1
1.712086110E-1,3.059569895E-1,8.131499887E-1,4.030030072E-1
1.737484580E-1,3.059569895E-1,8.131499887E-1,4.030030072E-1
1.762881930E-1,3.059569895E-1,8.131499887E-1,4.030030072E-1
1.788279240E-1,3.059569895E-1,8.131499887E-1,4.030030072E-1
1.813676160E-1,3.059569895E-1,8.131499887E-1,4.030030072E-1
1.839073090E-1,3.059569895E-1,8.131499887E-1,4.030030072E-1
1.864472570E-1,3.241429925E-1,7.305120230E-1,-3.173999861E-2
1.889872180E-1,3.241429925E-1,7.305120230E-1,-3.173999861E-2
1.915267550E-1,3.241429925E-1,7.305120230E-1,-3.173999861E-2
1.940662940E-1,3.241429925E-1,7.305120230E-1,-3.173999861E-2
1.966061260E-1,3.241429925E-1,7.305120230E-1,-3.173999861E-2
1.991459710E-1,3.241429925E-1,7.305120230E-1,-3.173999861E-2
2.016864710E-1,3.241429925E-1,7.305120230E-1,-3.173999861E-2
2.042269720E-1,3.241429925E-1,7.305120230E-1,-3.173999861E-2
2.067660090E-1,3.494710028E-1,6.202750206E-1,-6.641449928E-1
2.093050480E-1,3.494710028E-1,6.202750206E-1,-6.641449928E-1
2.118445880E-1,3.494710028E-1,6.202750206E-1,-6.641449928E-1
2.143841250E-1,3.494710028E-1,6.202750206E-1,-6.641449928E-1
2.169239660E-1,3.494710028E-1,6.202750206E-1,-6.641449928E-1
2.194638130E-1,3.494710028E-1,6.202750206E-1,-6.641449928E-1
2.220033890E-1,3.494710028E-1,6.202750206E-1,-6.641449928E-1
2.245429660E-1,3.494710028E-1,6.202750206E-1,-6.641449928E-1
2.270827560E-1,3.015570045E-1,4.027090073E-1,-1.157668948E0
2.296225630E-1,3.015570045E-1,4.027090073E-1,-1.157668948E0
2.321621390E-1,3.015570045E-1,4.027090073E-1,-1.157668948E0
2.347017180E-1,3.015570045E-1,4.027090073E-1,-1.157668948E0
2.372410930E-1,3.015570045E-1,4.027090073E-1,-1.157668948E0
2.397804380E-1,3.015570045E-1,4.027090073E-1,-1.157668948E0
2.423198620E-1,3.015570045E-1,4.027090073E-1,-1.157668948E0
2.448592850E-1,3.015570045E-1,4.027090073E-1,-1.157668948E0
2.473989430E-1,4.469369948E-1,8.073819876E-1,-8.218610287E-1
2.499385980E-1,4.469369948E-1,8.073819876E-1,-8.218610287E-1
2.524778650E-1,4.469369948E-1,8.073819876E-1,-8.218610287E-1
2.550171360E-1,4.469369948E-1,8.073819876E-1,-8.218610287E-1
2.575567660E-1,4.469369948E-1,8.073819876E-1,-8.218610287E-1
2.600964190E-1,4.469369948E-1,8.073819876E-1,-8.218610287E-1
2.626363030E-1,4.469369948E-1,8.073819876E-1,-8.218610287E-1
2.651761880E-1,4.469369948E-1,8.073819876E-1,-8.218610287E-1
2.677160340E-1,5.543209910E-1,1.279896975E0,-8.263900131E-2
2.702558810E-1,5.543209910E-1,1.279896975E0,-8.263900131E-2
2.727952660E-1,5.543209910E-1,1.279896975E0,-8.263900131E-2
2.753346510E-1,5.543209910E-1,1.279896975E0,-8.263900131E-2
2.778738900E-1,5.543209910E-1,1.279896975E0,-8.263900131E-2
2.804131210E-1,5.543209910E-1,1.279896975E0,-8.263900131E-2
2.829528140E-1,6.150940061E-1,1.834689021E0,9.576259851E-1
2.854925050E-1,6.150940061E-1,1.834689021E0,9.576259851E-1
2.880323220E-1,6.150940061E-1,1.834689021E0,9.576259851E-1
2.905721310E-1,6.150940061E-1,1.834689021E0,9.576259851E-1
2.931116680E-1,6.150940061E-1,1.834689021E0,9.576259851E-1
2.956512070E-1,6.150940061E-1,1.834689021E0,9.576259851E-1
2.981902890E-1,6.150940061E-1,1.834689021E0,9.576259851E-1
3.007293660E-1,6.150940061E-1,1.834689021E0,9.576259851E-1
3.032695600E-1,2.794809937E-1,1.608400941E0,1.152528048E0
3.058097510E-1,2.794809937E-1,1.608400941E0,1.152528048E0
3.083491350E-1,2.794809937E-1,1.608400941E0,1.152528048E0
3.108885200E-1,2.794809937E-1,1.608400941E0,1.152528048E0
3.134280210E-1,2.794809937E-1,1.608400941E0,1.152528048E0
3.159675200E-1,2.794809937E-1,1.608400941E0,1.152528048E0
3.185077270E-1,2.794809937E-1,1.608400941E0,1.152528048E0
3.210479200E-1,2.794809937E-1,1.608400941E0,1.152528048E0
3.235883420E-1,3.519810140E-1,1.178679943E0,2.238540053E-1
3.261287650E-1,3.519810140E-1,1.178679943E0,2.238540053E-1
3.286687730E-1,3.519810140E-1,1.178679943E0,2.238540053E-1
3.312087740E-1,3.519810140E-1,1.178679943E0,2.238540053E-1
3.337486590E-1,3.519810140E-1,1.178679943E0,2.238540053E-1
3.362885440E-1,3.519810140E-1,1.178679943E0,2.238540053E-1
3.388282130E-1,3.519810140E-1,1.178679943E0,2.238540053E-1
3.413678660E-1,3.519810140E-1,1.178679943E0,2.238540053E-1
3.439074440E-1,4.711129963E-1,1.583140016E0,5.163040161E-1
3.464470210E-1,4.711129963E-1,1.583140016E0,5.163040161E-1
3.489869820E-1,4.711129963E-1,1.583140016E0,5.163040161E-1
3.515269430E-1,4.711129963E-1,1.583140016E0,5.163040161E-1
3.540666730E-1,4.711129963E-1,1.583140016E0,5.163040161E-1
3.566064040E-1,4.711129963E-1,1.583140016E0,5.163040161E-1
3.591462660E-1,4.711129963E-1,1.583140016E0,5.163040161E-1
3.616861130E-1,4.711129963E-1,1.583140016E0,5.163040161E-1
3.642260730E-1,2.470909953E-1,2.744421959E0,2.505737066E0
3.667660360E-1,2.470909953E-1,2.744421959E0,2.505737066E0
3.693063380E-1,2.470909953E-1,2.744421959E0,2.505737066E0
3.718466450E-1,2.470909953E-1,2.744421959E0,2.505737066E0
3.743866830E-1,2.470909953E-1,2.744421959E0,2.505737066E0
3.769267220E-1,2.470909953E-1,2.744421959E0,2.505737066E0
3.794662130E-1,2.470909953E-1,2.744421959E0,2.505737066E0
3.820057120E-1,2.470909953E-1,2.744421959E0,2.505737066E0
3.845450970E-1,1.001700014E-1,2.895967960E0,2.703577042E0
3.870844820E-1,1.001700014E-1,2.895967960E0,2.703577042E0
3.896245010E-1,1.001700014E-1,2.895967960E0,2.703577042E0
3.921645000E-1,1.001700014E-1,2.895967960E0,2.703577042E0
3.947041920E-1,1.001700014E-1,2.895967960E0,2.703577042E0
3.972438850E-1,1.001700014E-1,2.895967960E0,2.703577042E0
3.997852380E-1,1.001700014E-1,2.895967960E0,2.703577042E0
4.023266210E-1,1.001700014E-1,2.895967960E0,2.703577042E0
4.048672360E-1,3.544839919E-1,2.268219948E0,1.338600993E0
4.074078530E-1,3.544839919E-1,2.268219948E0,1.338600993E0
4.099483380E-1,3.544839919E-1,2.268219948E0,1.338600993E0
4.124888370E-1,3.544839919E-1,2.268219948E0,1.338600993E0
4.150288370E-1,3.544839919E-1,2.268219948E0,1.338600993E0
4.175688380E-1,3.544839919E-1,2.268219948E0,1.338600993E0
4.201091130E-1,3.544839919E-1,2.268219948E0,1.338600993E0
4.226493820E-1,3.544839919E-1,2.268219948E0,1.338600993E0
4.251896880E-1,1.084921002E0,8.142020106E-1,-1.244110942E0
4.277299970E-1,1.084921002E0,8.142020106E-1,-1.244110942E0
4.302700000E-1,1.084921002E0,8.142020106E-1,-1.244110942E0
4.328100010E-1,1.084921002E0,8.142020106E-1,-1.244110942E0
4.353496940E-1,1.084921002E0,8.142020106E-1,-1.244110942E0
4.378893870E-1,1.084921002E0,8.142020106E-1,-1.244110942E0
4.404293920E-1,1.084921002E0,8.142020106E-1,-1.244110942E0
4.429693910E-1,1.084921002E0,8.142020106E-1,-1.244110942E0
4.455092750E-1,1.375588059E0,2.300669998E-1,-2.050735950E0
4.480491600E-1,1.375588059E0,2.300669998E-1,-2.050735950E0
4.505889580E-1,1.375588059E0,2.300669998E-1,-2.050735950E0
4.531287650E-1,1.375588059E0,2.300669998E-1,-2.050735950E0
4.556689200E-1,1.375588059E0,2.300669998E-1,-2.050735950E0
4.582090730E-1,1.375588059E0,2.300669998E-1,-2.050735950E0
4.607487880E-1,1.375588059E0,2.300669998E-1,-2.050735950E0
4.632885190E-1,1.375588059E0,2.300669998E-1,-2.050735950E0
4.658286740E-1,2.422579050E0,5.892999843E-2,-3.677221060E0
4.683688270E-1,2.422579050E0,5.892999843E-2,-3.677221060E0
4.709092410E-1,2.422579050E0,5.892999843E-2,-3.677221060E0
4.734496640E-1,2.422579050E0,5.892999843E-2,-3.677221060E0
4.759902790E-1,2.422579050E0,5.892999843E-2,-3.677221060E0
4.785308960E-1,2.422579050E0,5.892999843E-2,-3.677221060E0
4.810712020E-1,2.422579050E0,5.892999843E-2,-3.677221060E0
4.836115110E-1,2.422579050E0,5.892999843E-2,-3.677221060E0
4.861515490E-1,1.361279011E0,1.852435946E0,-6.823149920E-1
4.886915880E-1,1.361279011E0,1.852435946E0,-6.823149920E-1
4.912315830E-1,1.361279011E0,1.852435946E0,-6.823149920E-1
4.937715820E-1,1.361279011E0,1.852435946E0,-6.823149920E-1
4.963117370E-1,1.361279011E0,1.852435946E0,-6.823149920E-1
4.988518900E-1,1.361279011E0,1.852435946E0,-6.823149920E-1
5.013932410E-1,1.361279011E0,1.852435946E0,-6.823149920E-1
5.039345880E-1,1.361279011E0,1.852435946E0,-6.823149920E-1
5.064753950E-1,5.096780062E-1,1.792356014E0,2.202800065E-1
5.090162040E-1,5.096780062E-1,1.792356014E0,2.202800065E-1
5.115563660E-1,5.096780062E-1,1.792356014E0,2.202800065E-1
5.140965210E-1,5.096780062E-1,1.792356014E0,2.202800065E-1
5.166366360E-1,5.096780062E-1,1.792356014E0,2.202800065E-1
5.191767510E-1,5.096780062E-1,1.792356014E0,2.202800065E-1
5.217167840E-1,5.096780062E-1,1.792356014E0,2.202800065E-1
5.242568230E-1,5.096780062E-1,1.792356014E0,2.202800065E-1
5.267975930E-1,5.952230096E-1,9.081069827E-1,-3.253310025E-1
5.293383620E-1,5.952230096E-1,9.081069827E-1,-3.253310025E-1
5.318792840E-1,5.952230096E-1,9.081069827E-1,-3.253310025E-1
5.344202070E-1,5.952230096E-1,9.081069827E-1,-3.253310025E-1
5.369603220E-1,5.952230096E-1,9.081069827E-1,-3.253310025E-1
5.395004390E-1,5.952230096E-1,9.081069827E-1,-3.253310025E-1
5.420409390E-1,5.952230096E-1,9.081069827E-1,-3.253310025E-1
5.445814380E-1,5.952230096E-1,9.081069827E-1,-3.253310025E-1
5.471218610E-1,4.534550011E-1,5.636829734E-1,-2.819389999E-1
5.496622840E-1,4.534550011E-1,5.636829734E-1,-2.819389999E-1
5.522024340E-1,4.534550011E-1,5.636829734E-1,-2.819389999E-1
5.547425870E-1,4.534550011E-1,5.636829734E-1,-2.819389999E-1
5.572830880E-1,4.534550011E-1,5.636829734E-1,-2.819389999E-1
5.598235870E-1,4.534550011E-1,5.636829734E-1,-2.819389999E-1
5.623638850E-1,4.534550011E-1,5.636829734E-1,-2.819389999E-1
5.649041540E-1,4.534550011E-1,5.636829734E-1,-2.819389999E-1
5.674441540E-1,4.483770132E-1,5.799490213E-1,-1.618220061E-1
5.699841550E-1,4.483770132E-1,5.799490213E-1,-1.618220061E-1
5.725243380E-1,4.483770132E-1,5.799490213E-1,-1.618220061E-1
5.750644910E-1,4.483770132E-1,5.799490213E-1,-1.618220061E-1
5.776041820E-1,4.483770132E-1,5.799490213E-1,-1.618220061E-1
5.801438750E-1,4.483770132E-1,5.799490213E-1,-1.618220061E-1
5.826840920E-1,4.483770132E-1,5.799490213E-1,-1.618220061E-1
5.852242850E-1,4.483770132E-1,5.799490213E-1,-1.618220061E-1
5.877645540E-1,-1.039490029E-1,1.533869982E0,7.280049920E-1
5.903048230E-1,-1.039490029E-1,1.533869982E0,7.280049920E-1
5.928446630E-1,-1.039490029E-1,1.533869982E0,7.280049920E-1
5.953845100E-1,-1.039490029E-1,1.533869982E0,7.280049920E-1
5.979247030E-1,-1.039490029E-1,1.533869982E0,7.280049920E-1
6.004648940E-1,-1.039490029E-1,1.533869982E0,7.280049920E-1
6.030053320E-1,-4.527910054E-1,2.050339937E0,1.246222973E0
6.055457570E-1,-4.527910054E-1,2.050339937E0,1.246222973E0
6.080856010E-1,-4.527910054E-1,2.050339937E0,1.246222973E0
6.106254480E-1,-4.527910054E-1,2.050339937E0,1.246222973E0
6.131652990E-1,-4.527910054E-1,2.050339937E0,1.246222973E0
6.157051440E-1,-4.527910054E-1,2.050339937E0,1.246222973E0
6.182445680E-1,-4.527910054E-1,2.050339937E0,1.246222973E0
6.207839910E-1,-4.527910054E-1,2.050339937E0,1.246222973E0
6.233244490E-1,-2.998569906E-1,1.795956016E0,1.105558038E0
6.258649100E-1,-2.998569906E-1,1.795956016E0,1.105558038E0
6.284050250E-1,-2.998569906E-1,1.795956016E0,1.105558038E0
6.309451400E-1,-2.998569906E-1,1.795956016E0,1.105558038E0
6.334853280E-1,-2.998569906E-1,1.795956016E0,1.105558038E0
6.360255210E-1,-2.998569906E-1,1.795956016E0,1.105558038E0
6.385654810E-1,-2.998569906E-1,1.795956016E0,1.105558038E0
6.411054440E-1,-2.998569906E-1,1.795956016E0,1.105558038E0
6.436452900E-1,4.127959907E-1,1.143507004E0,5.956649780E-1
6.461851350E-1,4.127959907E-1,1.143507004E0,5.956649780E-1
6.487248280E-1,4.127959907E-1,1.143507004E0,5.956649780E-1
6.512645210E-1,4.127959907E-1,1.143507004E0,5.956649780E-1
6.538040980E-1,4.127959907E-1,1.143507004E0,5.956649780E-1
6.563436750E-1,4.127959907E-1,1.143507004E0,5.956649780E-1
6.588842910E-1,4.127959907E-1,1.143507004E0,5.956649780E-1
6.614249060E-1,4.127959907E-1,1.143507004E0,5.956649780E-1
6.639648360E-1,1.603611946E0,-2.412260026E-1,-3.142369986E-1
6.665047990E-1,1.603611946E0,-2.412260026E-1,-3.142369986E-1
6.690446450E-1,1.603611946E0,-2.412260026E-1,-3.142369986E-1
6.715844900E-1,1.603611946E0,-2.412260026E-1,-3.142369986E-1
6.741241680E-1,1.603611946E0,-2.412260026E-1,-3.142369986E-1
6.766638610E-1,1.603611946E0,-2.412260026E-1,-3.142369986E-1
6.792040150E-1,1.603611946E0,-2.412260026E-1,-3.142369986E-1
6.817441680E-1,1.603611946E0,-2.412260026E-1,-3.142369986E-1
6.842843640E-1,2.521714926E0,-1.437322974E0,-8.642780185E-1
6.868245570E-1,2.521714926E0,-1.437322974E0,-8.642780185E-1
6.893651720E-1,2.521714926E0,-1.437322974E0,-8.642780185E-1
6.919057890E-1,2.521714926E0,-1.437322974E0,-8.642780185E-1
6.944462490E-1,2.521714926E0,-1.437322974E0,-8.642780185E-1
6.969867120E-1,2.521714926E0,-1.437322974E0,-8.642780185E-1
6.995279040E-1,2.521714926E0,-1.437322974E0,-8.642780185E-1
7.020690950E-1,2.521714926E0,-1.437322974E0,-8.642780185E-1
7.046098640E-1,3.668204069E0,-2.734822035E0,-1.485929966E0
7.071506350E-1,3.668204069E0,-2.734822035E0,-1.485929966E0
7.096912890E-1,3.668204069E0,-2.734822035E0,-1.485929966E0
7.122319420E-1,3.668204069E0,-2.734822035E0,-1.485929966E0
7.147723380E-1,3.668204069E0,-2.734822035E0,-1.485929966E0
7.173127610E-1,3.668204069E0,-2.734822035E0,-1.485929966E0
7.198529520E-1,3.668204069E0,-2.734822035E0,-1.485929966E0
7.223931450E-1,3.668204069E0,-2.734822035E0,-1.485929966E0
7.249340490E-1,3.961710930E0,-3.194197893E0,-1.242032051E0
7.274749720E-1,3.961710930E0,-3.194197893E0,-1.242032051E0
7.300153940E-1,3.961710930E0,-3.194197893E0,-1.242032051E0
7.325558170E-1,3.961710930E0,-3.194197893E0,-1.242032051E0
7.350956880E-1,3.961710930E0,-3.194197893E0,-1.242032051E0
7.376355730E-1,3.961710930E0,-3.194197893E0,-1.242032051E0
7.401756880E-1,3.961710930E0,-3.194197893E0,-1.242032051E0
7.427158030E-1,3.961710930E0,-3.194197893E0,-1.242032051E0
7.452565960E-1,3.890007019E0,-3.830796957E0,-5.495970249E-1
7.477974030E-1,3.890007019E0,-3.830796957E0,-5.495970249E-1
7.503380180E-1,3.890007019E0,-3.830796957E0,-5.495970249E-1
7.528786350E-1,3.890007019E0,-3.830796957E0,-5.495970249E-1
7.554187550E-1,3.890007019E0,-3.830796957E0,-5.495970249E-1
7.579588700E-1,3.890007019E0,-3.830796957E0,-5.495970249E-1
7.604990240E-1,3.890007019E0,-3.830796957E0,-5.495970249E-1
7.630391770E-1,3.890007019E0,-3.830796957E0,-5.495970249E-1
7.655798220E-1,3.549735069E0,-4.034090996E0,3.906059861E-1
7.681204770E-1,3.549735069E0,-4.034090996E0,3.906059861E-1
7.706616680E-1,3.549735069E0,-4.034090996E0,3.906059861E-1
7.732028610E-1,3.549735069E0,-4.034090996E0,3.906059861E-1
7.757433170E-1,3.549735069E0,-4.034090996E0,3.906059861E-1
7.782837800E-1,3.549735069E0,-4.034090996E0,3.906059861E-1
7.808245490E-1,3.549735069E0,-4.034090996E0,3.906059861E-1
7.833653180E-1,3.549735069E0,-4.034090996E0,3.906059861E-1
7.859052200E-1,3.487174988E0,-4.062416077E0,8.882139921E-1
7.884451070E-1,3.487174988E0,-4.062416077E0,8.882139921E-1
7.909849530E-1,3.487174988E0,-4.062416077E0,8.882139921E-1
7.935247980E-1,3.487174988E0,-4.062416077E0,8.882139921E-1
7.960647600E-1,3.487174988E0,-4.062416077E0,8.882139921E-1
7.986047210E-1,3.487174988E0,-4.062416077E0,8.882139921E-1
8.011464520E-1,3.487174988E0,-4.062416077E0,8.882139921E-1
8.036881830E-1,3.487174988E0,-4.062416077E0,8.882139921E-1
8.062288980E-1,3.490305901E0,-3.901232004E0,1.210793972E0
8.087696290E-1,3.490305901E0,-3.901232004E0,1.210793972E0
8.113101300E-1,3.490305901E0,-3.901232004E0,1.210793972E0
8.138506290E-1,3.490305901E0,-3.901232004E0,1.210793972E0
8.163908990E-1,3.490305901E0,-3.901232004E0,1.210793972E0
8.189311680E-1,3.490305901E0,-3.901232004E0,1.210793972E0
8.214710150E-1,3.490305901E0,-3.901232004E0,1.210793972E0
8.240108600E-1,3.490305901E0,-3.901232004E0,1.210793972E0
8.265507230E-1,3.372138023E0,-3.598953009E0,1.564975023E0
8.290905680E-1,3.372138023E0,-3.598953009E0,1.564975023E0
8.316304150E-1,3.372138023E0,-3.598953009E0,1.564975023E0
8.341702620E-1,3.372138023E0,-3.598953009E0,1.564975023E0
8.367103180E-1,3.372138023E0,-3.598953009E0,1.564975023E0
8.392503570E-1,3.372138023E0,-3.598953009E0,1.564975023E0
8.417906250E-1,3.372138023E0,-3.598953009E0,1.564975023E0
8.443308960E-1,3.372138023E0,-3.598953009E0,1.564975023E0
8.468708810E-1,3.230813026E0,-3.292637110E0,1.765331984E0
8.494108820E-1,3.230813026E0,-3.292637110E0,1.765331984E0
8.519511890E-1,3.230813026E0,-3.292637110E0,1.765331984E0
8.544914960E-1,3.230813026E0,-3.292637110E0,1.765331984E0
8.570319960E-1,3.230813026E0,-3.292637110E0,1.765331984E0
8.595724970E-1,3.230813026E0,-3.292637110E0,1.765331984E0
8.621129190E-1,3.230813026E0,-3.292637110E0,1.765331984E0
8.646533440E-1,3.230813026E0,-3.292637110E0,1.765331984E0
8.671933770E-1,3.119287014E0,-2.906493902E0,1.837867022E0
8.697334140E-1,3.119287014E0,-2.906493902E0,1.837867022E0
8.722733760E-1,3.119287014E0,-2.906493902E0,1.837867022E0
8.748133390E-1,3.119287014E0,-2.906493902E0,1.837867022E0
8.773532370E-1,3.119287014E0,-2.906493902E0,1.837867022E0
8.798931220E-1,3.119287014E0,-2.906493902E0,1.837867022E0
8.824335450E-1,3.119287014E0,-2.906493902E0,1.837867022E0
8.849739680E-1,3.119287014E0,-2.906493902E0,1.837867022E0
8.875149430E-1,3.035742044E0,-2.632083893E0,1.830860019E0
8.900559060E-1,3.035742044E0,-2.632083893E0,1.830860019E0
8.925961740E-1,3.035742044E0,-2.632083893E0,1.830860019E0
8.951364450E-1,3.035742044E0,-2.632083893E0,1.830860019E0
8.976773870E-1,3.035742044E0,-2.632083893E0,1.830860019E0
9.002183480E-1,3.035742044E0,-2.632083893E0,1.830860019E0
9.027587700E-1,3.035742044E0,-2.632083893E0,1.830860019E0
9.052991930E-1,3.035742044E0,-2.632083893E0,1.830860019E0
9.078389290E-1,2.895713091E0,-2.101011992E0,1.689074993E0
9.103786600E-1,2.895713091E0,-2.101011992E0,1.689074993E0
9.129178900E-1,2.895713091E0,-2.101011992E0,1.689074993E0
9.154571210E-1,2.895713091E0,-2.101011992E0,1.689074993E0
9.179969680E-1,2.895713091E0,-2.101011992E0,1.689074993E0
9.205368130E-1,2.895713091E0,-2.101011992E0,1.689074993E0
9.230763510E-1,2.759963036E0,-1.557767987E0,1.441483021E0
9.256158900E-1,2.759963036E0,-1.557767987E0,1.441483021E0
9.281552650E-1,2.759963036E0,-1.557767987E0,1.441483021E0
9.306946500E-1,2.759963036E0,-1.557767987E0,1.441483021E0
9.332352270E-1,2.759963036E0,-1.557767987E0,1.441483021E0
9.357758040E-1,2.759963036E0,-1.557767987E0,1.441483021E0
9.383158070E-1,2.759963036E0,-1.557767987E0,1.441483021E0
9.408558080E-1,2.759963036E0,-1.557767987E0,1.441483021E0
9.433955400E-1,2.593473911E0,-6.210799813E-1,1.135682940E0
9.459352710E-1,2.593473911E0,-6.210799813E-1,1.135682940E0
9.484750780E-1,2.593473911E0,-6.210799813E-1,1.135682940E0
9.510148850E-1,2.593473911E0,-6.210799813E-1,1.135682940E0
9.535550390E-1,2.593473911E0,-6.210799813E-1,1.135682940E0
9.560951940E-1,2.593473911E0,-6.210799813E-1,1.135682940E0
9.586345960E-1,2.593473911E0,-6.210799813E-1,1.135682940E0
9.611739810E-1,2.593473911E0,-6.210799813E-1,1.135682940E0
9.637133660E-1,2.418040037E0,2.369289994E-1,9.705939889E-1
9.662527510E-1,2.418040037E0,2.369289994E-1,9.705939889E-1
9.687922860E-1,2.418040037E0,2.369289994E-1,9.705939889E-1
9.713318230E-1,2.418040037E0,2.369289994E-1,9.705939889E-1
9.738715150E-1,2.418040037E0,2.369289994E-1,9.705939889E-1
9.764112080E-1,2.418040037E0,2.369289994E-1,9.705939889E-1
9.789515390E-1,2.418040037E0,2.369289994E-1,9.705939889E-1
9.814918860E-1,2.418040037E0,2.369289994E-1,9.705939889E-1
9.840323080E-1,2.336920023E0,6.976230145E-1,6.695640087E-1
9.865727310E-1,2.336920023E0,6.976230145E-1,6.695640087E-1
9.891128790E-1,2.336920023E0,6.976230145E-1,6.695640087E-1
9.916530340E-1,2.336920023E0,6.976230145E-1,6.695640087E-1
9.941936890E-1,2.336920023E0,6.976230145E-1,6.695640087E-1
9.967343420E-1,2.336920023E0,6.976230145E-1,6.695640087E-1
9.992753660E-1,2.336920023E0,6.976230145E-1,6.695640087E-1
1.001816405E0,2.336920023E0,6.976230145E-1,6.695640087E-1
1.004356597E0,2.199763060E0,1.322355032E0,4.507170022E-1
1.006896790E0,2.199763060E0,1.322355032E0,4.507170022E-1
1.009436501E0,2.199763060E0,1.322355032E0,4.507170022E-1
1.011976194E0,2.199763060E0,1.322355032E0,4.507170022E-1
1.014516309E0,2.199763060E0,1.322355032E0,4.507170022E-1
1.017056424E0,2.199763060E0,1.322355032E0,4.507170022E-1
1.019596583E0,2.199763060E0,1.322355032E0,4.507170022E-1
1.022136738E0,2.199763060E0,1.322355032E0,4.507170022E-1
1.024676737E0,1.692015052E0,2.544528961E0,5.931159854E-1
1.027216738E0,1.692015052E0,2.544528961E0,5.931159854E-1
1.029757545E0,1.692015052E0,2.544528961E0,5.931159854E-1
1.032298352E0,1.692015052E0,2.544528961E0,5.931159854E-1
1.034838813E0,1.692015052E0,2.544528961E0,5.931159854E-1
1.037379276E0,1.692015052E0,2.544528961E0,5.931159854E-1
1.039918992E0,1.692015052E0,2.544528961E0,5.931159854E-1
1.042458685E0,1.692015052E0,2.544528961E0,5.931159854E-1
1.044998377E0,1.568832994E0,2.423130989E0,5.774840117E-1
1.047538068E0,1.568832994E0,2.423130989E0,5.774840117E-1
1.050078386E0,1.568832994E0,2.423130989E0,5.774840117E-1
1.052618693E0,1.568832994E0,2.423130989E0,5.774840117E-1
1.055158384E0,1.568832994E0,2.423130989E0,5.774840117E-1
1.057698077E0,1.568832994E0,2.423130989E0,5.774840117E-1
1.060237487E0,1.568832994E0,2.423130989E0,5.774840117E-1
1.062776872E0,1.568832994E0,2.423130989E0,5.774840117E-1
1.065317641E0,1.746973991E0,1.593667984E0,4.184519947E-1
1.067858410E0,1.746973991E0,1.593667984E0,4.184519947E-1
1.070398682E0,1.746973991E0,1.593667984E0,4.184519947E-1
1.072938953E0,1.746973991E0,1.593667984E0,4.184519947E-1
1.075478375E0,1.746973991E0,1.593667984E0,4.184519947E-1
1.078017798E0,1.746973991E0,1.593667984E0,4.184519947E-1
1.080557631E0,1.746973991E0,1.593667984E0,4.184519947E-1
1.083097476E0,1.746973991E0,1.593667984E0,4.184519947E-1
1.085637322E0,1.506665945E0,1.381870985E0,6.518290043E-1
1.088177169E0,1.506665945E0,1.381870985E0,6.518290043E-1
1.090717119E0,1.506665945E0,1.381870985E0,6.518290043E-1
1.093257082E0,1.506665945E0,1.381870985E0,6.518290043E-1
1.095798043E0,1.506665945E0,1.381870985E0,6.518290043E-1
1.098339006E0,1.506665945E0,1.381870985E0,6.518290043E-1
1.100879158E0,1.506665945E0,1.381870985E0,6.518290043E-1
1.103419313E0,1.506665945E0,1.381870985E0,6.518290043E-1
1.105959121E0,1.173308969E0,1.680075049E0,7.962509990E-1
1.108498928E0,1.173308969E0,1.680075049E0,7.962509990E-1
1.111039698E0,1.173308969E0,1.680075049E0,7.962509990E-1
1.113580467E0,1.173308969E0,1.680075049E0,7.962509990E-1
1.116120769E0,1.173308969E0,1.680075049E0,7.962509990E-1
1.118661078E0,1.173308969E0,1.680075049E0,7.962509990E-1
1.121201232E0,1.173308969E0,1.680075049E0,7.962509990E-1
1.123741385E0,1.173308969E0,1.680075049E0,7.962509990E-1
1.126281284E0,1.111492038E0,1.812518954E0,6.046320200E-1
1.128821169E0,1.111492038E0,1.812518954E0,6.046320200E-1
1.131360823E0,1.111492038E0,1.812518954E0,6.046320200E-1
1.133900476E0,1.111492038E0,1.812518954E0,6.046320200E-1
1.136440213E0,1.111492038E0,1.812518954E0,6.046320200E-1
1.138979944E0,1.111492038E0,1.812518954E0,6.046320200E-1
1.141518865E0,1.111492038E0,1.812518954E0,6.046320200E-1
1.144057790E0,1.111492038E0,1.812518954E0,6.046320200E-1
1.146596996E0,1.094797015E0,1.864974022E0,4.361810088E-1
1.149136187E0,1.094797015E0,1.864974022E0,4.361810088E-1
1.151676187E0,1.094797015E0,1.864974022E0,4.361810088E-1
1.154216188E0,1.094797015E0,1.864974022E0,4.361810088E-1
1.156755865E0,1.094797015E0,1.864974022E0,4.361810088E-1
1.159295558E0,1.094797015E0,1.864974022E0,4.361810088E-1
1.161835598E0,1.094797015E0,1.864974022E0,4.361810088E-1
1.164375635E0,1.094797015E0,1.864974022E0,4.361810088E-1
1.166915437E0,1.086061001E0,1.947260022E0,2.873820066E-1
1.169455246E0,1.086061001E0,1.947260022E0,2.873820066E-1
1.171994630E0,1.086061001E0,1.947260022E0,2.873820066E-1
1.174534015E0,1.086061001E0,1.947260022E0,2.873820066E-1
1.177074160E0,1.086061001E0,1.947260022E0,2.873820066E-1
1.179614313E0,1.086061001E0,1.947260022E0,2.873820066E-1
1.182154466E0,1.086061001E0,1.947260022E0,2.873820066E-1
1.184694621E0,1.086061001E0,1.947260022E0,2.873820066E-1
1.187234317E0,1.160776019E0,1.604859948E0,2.763740122E-1
1.189774010E0,1.160776019E0,1.604859948E0,2.763740122E-1
1.192313857E0,1.160776019E0,1.604859948E0,2.763740122E-1
1.194853702E0,1.160776019E0,1.604859948E0,2.763740122E-1
1.197394351E0,1.160776019E0,1.604859948E0,2.763740122E-1
1.199934968E0,1.160776019E0,1.604859948E0,2.763740122E-1
1.202474543E0,1.160776019E0,1.604859948E0,2.763740122E-1
1.205014122E0,1.160776019E0,1.604859948E0,2.763740122E-1
1.207553651E0,7.477989793E-1,1.744649053E0,6.566519737E-1
1.210093188E0,7.477989793E-1,1.744649053E0,6.566519737E-1
1.212632842E0,7.477989793E-1,1.744649053E0,6.566519737E-1
1.215172495E0,7.477989793E-1,1.744649053E0,6.566519737E-1
1.217712177E0,7.477989793E-1,1.744649053E0,6.566519737E-1
1.220251870E0,7.477989793E-1,1.744649053E0,6.566519737E-1
1.222791446E0,7.477989793E-1,1.744649053E0,6.566519737E-1
1.225331025E0,7.477989793E-1,1.744649053E0,6.566519737E-1
1.227870520E0,3.210470080E-1,1.957713962E0,1.029036999E0
1.230410019E0,3.210470080E-1,1.957713962E0,1.029036999E0
1.232949443E0,3.210470080E-1,1.957713962E0,1.029036999E0
1.235488866E0,3.210470080E-1,1.957713962E0,1.029036999E0
1.238029165E0,3.210470080E-1,1.957713962E0,1.029036999E0
1.240569472E0,3.210470080E-1,1.957713962E0,1.029036999E0
1.243110048E0,2.361029983E-1,1.791720033E0,1.215757012E0
1.245650625E0,2.361029983E-1,1.791720033E0,1.215757012E0
1.248191293E0,2.361029983E-1,1.791720033E0,1.215757012E0
1.250731948E0,2.361029983E-1,1.791720033E0,1.215757012E0
1.253273293E0,2.361029983E-1,1.791720033E0,1.215757012E0
1.255814640E0,2.361029983E-1,1.791720033E0,1.215757012E0
1.258355562E0,2.361029983E-1,1.791720033E0,1.215757012E0
1.260896485E0,2.361029983E-1,1.791720033E0,1.215757012E0
1.263437101E0,3.470039964E-1,1.151286006E0,1.387992024E0
1.265977716E0,3.470039964E-1,1.151286006E0,1.387992024E0
1.268518203E0,3.470039964E-1,1.151286006E0,1.387992024E0
1.271058702E0,3.470039964E-1,1.151286006E0,1.387992024E0
1.273598818E0,3.470039964E-1,1.151286006E0,1.387992024E0
1.276138933E0,3.470039964E-1,1.151286006E0,1.387992024E0
1.278678813E0,3.470039964E-1,1.151286006E0,1.387992024E0
1.281218698E0,3.470039964E-1,1.151286006E0,1.387992024E0
1.283758967E0,2.470369935E-1,7.692739964E-1,1.642024040E0
1.286299236E0,2.470369935E-1,7.692739964E-1,1.642024040E0
1.288838932E0,2.470369935E-1,7.692739964E-1,1.642024040E0
1.291378663E0,2.470369935E-1,7.692739964E-1,1.642024040E0
1.293919087E0,2.470369935E-1,7.692739964E-1,1.642024040E0
1.296459510E0,2.470369935E-1,7.692739964E-1,1.642024040E0
1.298999999E0,2.470369935E-1,7.692739964E-1,1.642024040E0
1.301540462E0,2.470369935E-1,7.692739964E-1,1.642024040E0
1.304081231E0,5.745999888E-2,6.155449748E-1,1.892510056E0
1.306622000E0,5.745999888E-2,6.155449748E-1,1.892510056E0
1.309162047E0,5.745999888E-2,6.155449748E-1,1.892510056E0
1.311702086E0,5.745999888E-2,6.155449748E-1,1.892510056E0
1.314241779E0,5.745999888E-2,6.155449748E-1,1.892510056E0
1.316781472E0,5.745999888E-2,6.155449748E-1,1.892510056E0
1.319321318E0,5.745999888E-2,6.155449748E-1,1.892510056E0
1.321861163E0,5.745999888E-2,6.155449748E-1,1.892510056E0
1.324401317E0,-3.468099982E-2,4.746049941E-1,1.990865946E0
1.326941472E0,-3.468099982E-2,4.746049941E-1,1.990865946E0
1.329482067E0,-3.468099982E-2,4.746049941E-1,1.990865946E0
1.332022644E0,-3.468099982E-2,4.746049941E-1,1.990865946E0
1.334562990E0,-3.468099982E-2,4.746049941E-1,1.990865946E0
1.337103337E0,-3.468099982E-2,4.746049941E-1,1.990865946E0
1.339643486E0,-3.468099982E-2,4.746049941E-1,1.990865946E0
1.342183639E0,-3.468099982E-2,4.746049941E-1,1.990865946E0
1.344723639E0,-6.340499967E-2,2.814359963E-1,1.991451025E0
1.347263640E0,-6.340499967E-2,2.814359963E-1,1.991451025E0
1.349804366E0,-6.340499967E-2,2.814359963E-1,1.991451025E0
1.352345097E0,-6.340499967E-2,2.814359963E-1,1.991451025E0
1.354885134E0,-6.340499967E-2,2.814359963E-1,1.991451025E0
1.357425173E0,-6.340499967E-2,2.814359963E-1,1.991451025E0
1.359965005E0,-6.340499967E-2,2.814359963E-1,1.991451025E0
1.362504850E0,-6.340499967E-2,2.814359963E-1,1.991451025E0
1.365045274E0,-3.149399906E-2,1.795029938E-1,1.895200014E0
1.367585697E0,-3.149399906E-2,1.795029938E-1,1.895200014E0
1.370126350E0,-3.149399906E-2,1.795029938E-1,1.895200014E0
1.372667005E0,-3.149399906E-2,1.795029938E-1,1.895200014E0
1.375207003E0,-3.149399906E-2,1.795029938E-1,1.895200014E0
1.377747004E0,-3.149399906E-2,1.795029938E-1,1.895200014E0
1.380287159E0,-3.149399906E-2,1.795029938E-1,1.895200014E0
1.382827312E0,-3.149399906E-2,1.795029938E-1,1.895200014E0
1.385367311E0,5.688200146E-2,6.919500232E-2,1.738525987E0
1.387907312E0,5.688200146E-2,6.919500232E-2,1.738525987E0
1.390447462E0,5.688200146E-2,6.919500232E-2,1.738525987E0
1.392987615E0,5.688200146E-2,6.919500232E-2,1.738525987E0
1.395528038E0,5.688200146E-2,6.919500232E-2,1.738525987E0
1.398068461E0,5.688200146E-2,6.919500232E-2,1.738525987E0
1.400608191E0,5.688200146E-2,6.919500232E-2,1.738525987E0
1.403147922E0,5.688200146E-2,6.919500232E-2,1.738525987E0
1.405688193E0,1.616539955E-1,-1.629790068E-1,1.552137017E0
1.408228462E0,1.616539955E-1,-1.629790068E-1,1.552137017E0
1.410768495E0,1.616539955E-1,-1.629790068E-1,1.552137017E0
1.413308534E0,1.616539955E-1,-1.629790068E-1,1.552137017E0
1.415848342E0,1.616539955E-1,-1.629790068E-1,1.552137017E0
1.418388149E0,1.616539955E-1,-1.629790068E-1,1.552137017E0
1.420928664E0,1.616539955E-1,-1.629790068E-1,1.552137017E0
1.423469163E0,1.616539955E-1,-1.629790068E-1,1.552137017E0
1.426009317E0,4.630109966E-1,-8.114500344E-2,1.267066002E0
1.428549472E0,4.630109966E-1,-8.114500344E-2,1.267066002E0
1.431089303E0,4.630109966E-1,-8.114500344E-2,1.267066002E0
1.433629110E0,4.630109966E-1,-8.114500344E-2,1.267066002E0
1.436169111E0,4.630109966E-1,-8.114500344E-2,1.267066002E0
1.438709110E0,4.630109966E-1,-8.114500344E-2,1.267066002E0
1.441248850E0,4.630109966E-1,-8.114500344E-2,1.267066002E0
1.443788583E0,4.630109966E-1,-8.114500344E-2,1.267066002E0
1.446328236E0,9.614170194E-1,1.246569976E-1,9.139580131E-1
1.448867889E0,9.614170194E-1,1.246569976E-1,9.139580131E-1
1.451407943E0,9.614170194E-1,1.246569976E-1,9.139580131E-1
1.453947980E0,9.614170194E-1,1.246569976E-1,9.139580131E-1
1.456488711E0,9.614170194E-1,1.246569976E-1,9.139580131E-1
1.459029442E0,9.614170194E-1,1.246569976E-1,9.139580131E-1
1.461569605E0,9.614170194E-1,1.246569976E-1,9.139580131E-1
1.464109798E0,9.614170194E-1,1.246569976E-1,9.139580131E-1
1.466649799E0,1.625010967E0,4.231449962E-1,5.576180220E-1
1.469189798E0,1.625010967E0,4.231449962E-1,5.576180220E-1
1.471729751E0,1.625010967E0,4.231449962E-1,5.576180220E-1
1.474269712E0,1.625010967E0,4.231449962E-1,5.576180220E-1
1.476808981E0,1.625010967E0,4.231449962E-1,5.576180220E-1
1.479348250E0,1.625010967E0,4.231449962E-1,5.576180220E-1
1.481888559E0,1.625010967E0,4.231449962E-1,5.576180220E-1
1.484428866E0,1.625010967E0,4.231449962E-1,5.576180220E-1
1.486969289E0,1.996757030E0,9.916489720E-1,4.465230107E-1
1.489509712E0,1.996757030E0,9.916489720E-1,4.465230107E-1
1.492049999E0,1.996757030E0,9.916489720E-1,4.465230107E-1
1.494590308E0,1.996757030E0,9.916489720E-1,4.465230107E-1
1.497131424E0,1.996757030E0,9.916489720E-1,4.465230107E-1
1.499672539E0,1.996757030E0,9.916489720E-1,4.465230107E-1
1.502212840E0,1.996757030E0,9.916489720E-1,4.465230107E-1
1.504753149E0,1.996757030E0,9.916489720E-1,4.465230107E-1
1.507293610E0,2.233113050E0,1.192957044E0,3.307220042E-1
1.509834071E0,2.233113050E0,1.192957044E0,3.307220042E-1
1.512374240E0,2.233113050E0,1.192957044E0,3.307220042E-1
1.514914395E0,2.233113050E0,1.192957044E0,3.307220042E-1
1.517454510E0,2.233113050E0,1.192957044E0,3.307220042E-1
1.519994625E0,2.233113050E0,1.192957044E0,3.307220042E-1
1.522534149E0,2.233113050E0,1.192957044E0,3.307220042E-1
1.525073688E0,2.233113050E0,1.192957044E0,3.307220042E-1
1.527613226E0,2.437844038E0,1.252632976E0,2.035059929E-1
1.530152765E0,2.437844038E0,1.252632976E0,2.035059929E-1
1.532692308E0,2.437844038E0,1.252632976E0,2.035059929E-1
1.535231847E0,2.437844038E0,1.252632976E0,2.035059929E-1
1.537771384E0,2.437844038E0,1.252632976E0,2.035059929E-1
1.540310923E0,2.437844038E0,1.252632976E0,2.035059929E-1
1.542850346E0,2.437844038E0,1.252632976E0,2.035059929E-1
1.545389769E0,2.437844038E0,1.252632976E0,2.035059929E-1
1.547928808E0,2.773423910E0,1.303042054E0,2.863099985E-2
1.550467847E0,2.773423910E0,1.303042054E0,2.863099985E-2
1.553007597E0,2.773423910E0,1.303042054E0,2.863099985E-2
1.555547326E0,2.773423910E0,1.303042054E0,2.863099985E-2
1.558086248E0,2.773423910E0,1.303042054E0,2.863099985E-2
1.560625173E0,2.773423910E0,1.303042054E0,2.863099985E-2
1.563164216E0,2.813585997E0,1.344910026E0,-5.486200005E-2
1.565703255E0,2.813585997E0,1.344910026E0,-5.486200005E-2
1.568242639E0,2.813585997E0,1.344910026E0,-5.486200005E-2
1.570782024E0,2.813585997E0,1.344910026E0,-5.486200005E-2
1.573321595E0,2.813585997E0,1.344910026E0,-5.486200005E-2
1.575861172E0,2.813585997E0,1.344910026E0,-5.486200005E-2
1.578401442E0,2.813585997E0,1.344910026E0,-5.486200005E-2
1.580941711E0,2.813585997E0,1.344910026E0,-5.486200005E-2
1.583481384E0,2.697837114E0,1.333974004E0,-1.035899967E-1
1.586021077E0,2.697837114E0,1.333974004E0,-1.035899967E-1
1.588560962E0,2.697837114E0,1.333974004E0,-1.035899967E-1
1.591100847E0,2.697837114E0,1.333974004E0,-1.035899967E-1
1.593641307E0,2.697837114E0,1.333974004E0,-1.035899967E-1
1.596181770E0,2.697837114E0,1.333974004E0,-1.035899967E-1
1.598722038E0,2.697837114E0,1.333974004E0,-1.035899967E-1
1.601262307E0,2.697837114E0,1.333974004E0,-1.035899967E-1
1.603802755E0,2.541270018E0,1.351349950E0,-1.446470022E-1
1.606343216E0,2.541270018E0,1.351349950E0,-1.446470022E-1
1.608883101E0,2.541270018E0,1.351349950E0,-1.446470022E-1
1.611422986E0,2.541270018E0,1.351349950E0,-1.446470022E-1
1.613962525E0,2.541270018E0,1.351349950E0,-1.446470022E-1
1.616502064E0,2.541270018E0,1.351349950E0,-1.446470022E-1
1.619041409E0,2.541270018E0,1.351349950E0,-1.446470022E-1
1.621580756E0,2.541270018E0,1.351349950E0,-1.446470022E-1
1.624121064E0,2.248506069E0,1.296434999E0,-1.401679963E-1
1.626661371E0,2.248506069E0,1.296434999E0,-1.401679963E-1
1.629201269E0,2.248506069E0,1.296434999E0,-1.401679963E-1
1.631741154E0,2.248506069E0,1.296434999E0,-1.401679963E-1
1.634280847E0,2.248506069E0,1.296434999E0,-1.401679963E-1
1.636820538E0,2.248506069E0,1.296434999E0,-1.401679963E-1
1.639360245E0,2.248506069E0,1.296434999E0,-1.401679963E-1
1.641899938E0,2.248506069E0,1.296434999E0,-1.401679963E-1
1.644439898E0,2.255217075E0,1.243782997E0,-1.969970018E-1
1.646979861E0,2.255217075E0,1.243782997E0,-1.969970018E-1
1.649520168E0,2.255217075E0,1.243782997E0,-1.969970018E-1
1.652060475E0,2.255217075E0,1.243782997E0,-1.969970018E-1
1.654600205E0,2.255217075E0,1.243782997E0,-1.969970018E-1
1.657139938E0,2.255217075E0,1.243782997E0,-1.969970018E-1
1.659679635E0,2.255217075E0,1.243782997E0,-1.969970018E-1
1.662219328E0,2.255217075E0,1.243782997E0,-1.969970018E-1
1.664759328E0,2.949846983E0,1.472535014E0,-4.413020015E-1
1.667299327E0,2.949846983E0,1.472535014E0,-4.413020015E-1
1.669839183E0,2.949846983E0,1.472535014E0,-4.413020015E-1
1.672379030E0,2.949846983E0,1.472535014E0,-4.413020015E-1
1.674918722E0,2.949846983E0,1.472535014E0,-4.413020015E-1
1.677458413E0,2.949846983E0,1.472535014E0,-4.413020015E-1
1.679998534E0,2.949846983E0,1.472535014E0,-4.413020015E-1
1.682538687E0,2.949846983E0,1.472535014E0,-4.413020015E-1
1.685078225E0,2.720583916E0,1.332962036E0,-4.643569887E-1
1.687617764E0,2.720583916E0,1.332962036E0,-4.643569887E-1
1.690157611E0,2.720583916E0,1.332962036E0,-4.643569887E-1
1.692697456E0,2.720583916E0,1.332962036E0,-4.643569887E-1
1.695237572E0,2.720583916E0,1.332962036E0,-4.643569887E-1
1.697777687E0,2.720583916E0,1.332962036E0,-4.643569887E-1
1.700317533E0,2.720583916E0,1.332962036E0,-4.643569887E-1
1.702857380E0,2.720583916E0,1.332962036E0,-4.643569887E-1
1.705397573E0,2.180078983E0,9.777129889E-1,-3.658429980E-1
1.707937764E0,2.180078983E0,9.777129889E-1,-3.658429980E-1
1.710478192E0,2.180078983E0,9.777129889E-1,-3.658429980E-1
1.713018615E0,2.180078983E0,9.777129889E-1,-3.658429980E-1
1.715558961E0,2.180078983E0,9.777129889E-1,-3.658429980E-1
1.718099308E0,2.180078983E0,9.777129889E-1,-3.658429980E-1
1.720639727E0,2.180078983E0,9.777129889E-1,-3.658429980E-1
1.723180150E0,2.180078983E0,9.777129889E-1,-3.658429980E-1
1.725720610E0,5.565230250E-1,-1.320299972E-2,1.780110002E-1
1.728261073E0,5.565230250E-1,-1.320299972E-2,1.780110002E-1
1.730801052E0,5.565230250E-1,-1.320299972E-2,1.780110002E-1
1.733341053E0,5.565230250E-1,-1.320299972E-2,1.780110002E-1
1.735881054E0,5.565230250E-1,-1.320299972E-2,1.780110002E-1
1.738421053E0,5.565230250E-1,-1.320299972E-2,1.780110002E-1
1.740961096E0,5.565230250E-1,-1.320299972E-2,1.780110002E-1
1.743501135E0,5.565230250E-1,-1.320299972E-2,1.780110002E-1
1.746041134E0,-2.279279977E-1,-5.156319737E-1,4.605579972E-1
1.748581135E0,-2.279279977E-1,-5.156319737E-1,4.605579972E-1
1.751121096E0,-2.279279977E-1,-5.156319737E-1,4.605579972E-1
1.753661057E0,-2.279279977E-1,-5.156319737E-1,4.605579972E-1
1.756200750E0,-2.279279977E-1,-5.156319737E-1,4.605579972E-1
1.758740443E0,-2.279279977E-1,-5.156319737E-1,4.605579972E-1
1.761280891E0,-2.279279977E-1,-5.156319737E-1,4.605579972E-1
1.763821352E0,-2.279279977E-1,-5.156319737E-1,4.605579972E-1
1.766361697E0,-5.393549800E-1,-7.709770203E-1,5.688940287E-1
1.768902044E0,-5.393549800E-1,-7.709770203E-1,5.688940287E-1
1.771442164E0,-5.393549800E-1,-7.709770203E-1,5.688940287E-1
1.773982279E0,-5.393549800E-1,-7.709770203E-1,5.688940287E-1
1.776522741E0,-5.393549800E-1,-7.709770203E-1,5.688940287E-1
1.779063202E0,-5.393549800E-1,-7.709770203E-1,5.688940287E-1
1.781603032E0,-5.393549800E-1,-7.709770203E-1,5.688940287E-1
1.784142879E0,-5.393549800E-1,-7.709770203E-1,5.688940287E-1
1.786682880E0,-5.658620000E-1,-7.383689880E-1,5.251830220E-1
1.789222879E0,-5.658620000E-1,-7.383689880E-1,5.251830220E-1
1.791763951E0,-5.658620000E-1,-7.383689880E-1,5.251830220E-1
1.794305028E0,-5.658620000E-1,-7.383689880E-1,5.251830220E-1
1.796844912E0,-5.658620000E-1,-7.383689880E-1,5.251830220E-1
1.799384797E0,-5.658620000E-1,-7.383689880E-1,5.251830220E-1
1.801923976E0,-5.658620000E-1,-7.383689880E-1,5.251830220E-1
1.804463169E0,-5.658620000E-1,-7.383689880E-1,5.251830220E-1
1.807002592E0,-2.446179986E-1,-7.737699896E-2,2.097509950E-1
1.809542015E0,-2.446179986E-1,-7.737699896E-2,2.097509950E-1
1.812081860E0,-2.446179986E-1,-7.737699896E-2,2.097509950E-1
1.814621707E0,-2.446179986E-1,-7.737699896E-2,2.097509950E-1
1.817161860E0,-2.446179986E-1,-7.737699896E-2,2.097509950E-1
1.819702015E0,-2.446179986E-1,-7.737699896E-2,2.097509950E-1
1.822242129E0,-2.446179986E-1,-7.737699896E-2,2.097509950E-1
1.824782246E0,-2.446179986E-1,-7.737699896E-2,2.097509950E-1
1.827322091E0,6.046730280E-1,7.664039731E-1,-4.184089899E-1
1.829861938E0,6.046730280E-1,7.664039731E-1,-4.184089899E-1
1.832401923E0,6.046730280E-1,7.664039731E-1,-4.184089899E-1
1.834941922E0,6.046730280E-1,7.664039731E-1,-4.184089899E-1
1.837481960E0,6.046730280E-1,7.664039731E-1,-4.184089899E-1
1.840021999E0,6.046730280E-1,7.664039731E-1,-4.184089899E-1
1.842561812E0,6.046730280E-1,7.664039731E-1,-4.184089899E-1
1.845101621E0,6.046730280E-1,7.664039731E-1,-4.184089899E-1
1.847640889E0,1.407910943E0,1.629094005E0,-1.134946942E0
1.850180158E0,1.407910943E0,1.629094005E0,-1.134946942E0
1.852719976E0,1.407910943E0,1.629094005E0,-1.134946942E0
1.855259783E0,1.407910943E0,1.629094005E0,-1.134946942E0
1.857799014E0,1.407910943E0,1.629094005E0,-1.134946942E0
1.860338245E0,1.407910943E0,1.629094005E0,-1.134946942E0
1.862877784E0,1.407910943E0,1.629094005E0,-1.134946942E0
1.865417323E0,1.407910943E0,1.629094005E0,-1.134946942E0
1.867957476E0,2.301227093E0,2.226581097E0,-1.750381947E0
1.870497631E0,2.301227093E0,2.226581097E0,-1.750381947E0
1.873037033E0,2.301227093E0,2.226581097E0,-1.750381947E0
1.875576458E0,2.301227093E0,2.226581097E0,-1.750381947E0
1.878116265E0,2.301227093E0,2.226581097E0,-1.750381947E0
1.880656072E0,2.301227093E0,2.226581097E0,-1.750381947E0
1.883195908E0,2.440922022E0,2.778537989E0,-2.316698074E0
1.885735755E0,2.440922022E0,2.778537989E0,-2.316698074E0
1.888276063E0,2.440922022E0,2.778537989E0,-2.316698074E0
1.890816370E0,2.440922022E0,2.778537989E0,-2.316698074E0
1.893357476E0,2.440922022E0,2.778537989E0,-2.316698074E0
1.895898553E0,2.440922022E0,2.778537989E0,-2.316698074E0
1.898438398E0,2.440922022E0,2.778537989E0,-2.316698074E0
1.900978245E0,2.440922022E0,2.778537989E0,-2.316698074E0
1.903518741E0,2.064973116E0,3.023144960E0,-2.741198063E0
1.906059240E0,2.064973116E0,3.023144960E0,-2.741198063E0
1.908599701E0,2.064973116E0,3.023144960E0,-2.741198063E0
1.911140164E0,2.064973116E0,3.023144960E0,-2.741198063E0
1.913680780E0,2.064973116E0,3.023144960E0,-2.741198063E0
1.916221395E0,2.064973116E0,3.023144960E0,-2.741198063E0
1.918761547E0,2.064973116E0,3.023144960E0,-2.741198063E0
1.921301702E0,2.064973116E0,3.023144960E0,-2.741198063E0
1.923841828E0,1.596580982E0,3.042432070E0,-3.012341022E0
1.926381943E0,1.596580982E0,3.042432070E0,-3.012341022E0
1.928921520E0,1.596580982E0,3.042432070E0,-3.012341022E0
1.931461097E0,1.596580982E0,3.042432070E0,-3.012341022E0
1.934000938E0,1.596580982E0,3.042432070E0,-3.012341022E0
1.936540785E0,1.596580982E0,3.042432070E0,-3.012341022E0
1.939081092E0,1.596580982E0,3.042432070E0,-3.012341022E0
1.941621399E0,1.596580982E0,3.042432070E0,-3.012341022E0
1.944161860E0,1.128404021E0,2.760138988E0,-2.987137079E0
1.946702323E0,1.128404021E0,2.760138988E0,-2.987137079E0
1.949242451E0,1.128404021E0,2.760138988E0,-2.987137079E0
1.951782568E0,1.128404021E0,2.760138988E0,-2.987137079E0
1.954322452E0,1.128404021E0,2.760138988E0,-2.987137079E0
1.956862337E0,1.128404021E0,2.760138988E0,-2.987137079E0
1.959402303E0,1.128404021E0,2.760138988E0,-2.987137079E0
1.961942264E0,1.128404021E0,2.760138988E0,-2.987137079E0
1.964482572E0,9.596369863E-1,2.384685993E0,-2.782558918E0
1.967022881E0,9.596369863E-1,2.384685993E0,-2.782558918E0
1.969562711E0,9.596369863E-1,2.384685993E0,-2.782558918E0
1.972102558E0,9.596369863E-1,2.384685993E0,-2.782558918E0
1.974642405E0,9.596369863E-1,2.384685993E0,-2.782558918E0
1.977182250E0,9.596369863E-1,2.384685993E0,-2.782558918E0
1.979722151E0,9.596369863E-1,2.384685993E0,-2.782558918E0
1.982262036E0,9.596369863E-1,2.384685993E0,-2.782558918E0
1.984802035E0,7.862809896E-1,1.727226973E0,-2.303709030E0
1.987342036E0,7.862809896E-1,1.727226973E0,-2.303709030E0
1.989883347E0,7.862809896E-1,1.727226973E0,-2.303709030E0
1.992424694E0,7.862809896E-1,1.727226973E0,-2.303709030E0
1.994964731E0,7.862809896E-1,1.727226973E0,-2.303709030E0
1.997504770E0,7.862809896E-1,1.727226973E0,-2.303709030E0
2.000044593E0,7.862809896E-1,1.727226973E0,-2.303709030E0
2.002584400E0,7.862809896E-1,1.727226973E0,-2.303709030E0
2.005124593E0,7.985290289E-1,9.991049767E-1,-1.759163022E0
2.007664786E0,7.985290289E-1,9.991049767E-1,-1.759163022E0
2.010204332E0,7.985290289E-1,9.991049767E-1,-1.759163022E0
2.012743871E0,7.985290289E-1,9.991049767E-1,-1.759163022E0
2.015284333E0,7.985290289E-1,9.991049767E-1,-1.759163022E0
2.017824794E0,7.985290289E-1,9.991049767E-1,-1.759163022E0
2.020365414E0,7.985290289E-1,9.991049767E-1,-1.759163022E0
2.022906031E0,7.985290289E-1,9.991049767E-1,-1.759163022E0
2.025446799E0,-3.985640109E-1,1.932020038E-1,-1.733695984E0
2.027987568E0,-3.985640109E-1,1.932020038E-1,-1.733695984E0
2.030527986E0,-3.985640109E-1,1.932020038E-1,-1.733695984E0
2.033068409E0,-3.985640109E-1,1.932020038E-1,-1.733695984E0
2.035609179E0,-3.985640109E-1,1.932020038E-1,-1.733695984E0
2.038149948E0,-3.985640109E-1,1.932020038E-1,-1.733695984E0
2.040691035E0,-3.985640109E-1,1.932020038E-1,-1.733695984E0
2.043232112E0,-3.985640109E-1,1.932020038E-1,-1.733695984E0
2.045772765E0,-5.437710285E-1,2.519649863E-1,-1.916192055E0
2.048313420E0,-5.437710285E-1,2.519649863E-1,-1.916192055E0
2.050853400E0,-5.437710285E-1,2.519649863E-1,-1.916192055E0
2.053393401E0,-5.437710285E-1,2.519649863E-1,-1.916192055E0
2.055934171E0,-5.437710285E-1,2.519649863E-1,-1.916192055E0
2.058474940E0,-5.437710285E-1,2.519649863E-1,-1.916192055E0
2.061016131E0,-5.437710285E-1,2.519649863E-1,-1.916192055E0
2.063557324E0,-5.437710285E-1,2.519649863E-1,-1.916192055E0
2.066097977E0,-4.957300127E-1,-6.992299855E-2,-1.747607946E0
2.068638632E0,-4.957300127E-1,-6.992299855E-2,-1.747607946E0
2.071179045E0,-4.957300127E-1,-6.992299855E-2,-1.747607946E0
2.073719468E0,-4.957300127E-1,-6.992299855E-2,-1.747607946E0
2.076260083E0,-4.957300127E-1,-6.992299855E-2,-1.747607946E0
2.078800698E0,-4.957300127E-1,-6.992299855E-2,-1.747607946E0
2.081341044E0,-4.957300127E-1,-6.992299855E-2,-1.747607946E0
2.083881391E0,-4.957300127E-1,-6.992299855E-2,-1.747607946E0
2.086422160E0,-2.342990041E-1,8.444499969E-2,-1.769984961E0
2.088962929E0,-2.342990041E-1,8.444499969E-2,-1.769984961E0
2.091504001E0,-2.342990041E-1,8.444499969E-2,-1.769984961E0
2.094045078E0,-2.342990041E-1,8.444499969E-2,-1.769984961E0
2.096585539E0,-2.342990041E-1,8.444499969E-2,-1.769984961E0
2.099126002E0,-2.342990041E-1,8.444499969E-2,-1.769984961E0
2.101666742E0,-2.342990041E-1,8.444499969E-2,-1.769984961E0
2.104207473E0,-2.342990041E-1,8.444499969E-2,-1.769984961E0
2.106748280E0,-8.862899989E-2,3.230789900E-1,-1.849725008E0
2.109289089E0,-8.862899989E-2,3.230789900E-1,-1.849725008E0
2.111829395E0,-8.862899989E-2,3.230789900E-1,-1.849725008E0
2.114369704E0,-8.862899989E-2,3.230789900E-1,-1.849725008E0
2.116910474E0,-8.862899989E-2,3.230789900E-1,-1.849725008E0
2.119451243E0,-8.862899989E-2,3.230789900E-1,-1.849725008E0
2.121991818E0,-8.862899989E-2,3.230789900E-1,-1.849725008E0
2.124532395E0,-8.862899989E-2,3.230789900E-1,-1.849725008E0
2.127073473E0,-1.553409994E-1,1.174670011E-1,-1.759768009E0
2.129614550E0,-1.553409994E-1,1.174670011E-1,-1.759768009E0
2.132155072E0,-1.553409994E-1,1.174670011E-1,-1.759768009E0
2.134695573E0,-1.553409994E-1,1.174670011E-1,-1.759768009E0
2.137235689E0,-1.553409994E-1,1.174670011E-1,-1.759768009E0
2.139775804E0,-1.553409994E-1,1.174670011E-1,-1.759768009E0
2.142316289E0,-1.553409994E-1,1.174670011E-1,-1.759768009E0
2.144856788E0,-1.553409994E-1,1.174670011E-1,-1.759768009E0
2.147397249E0,-1.984360069E-1,-1.981669962E-1,-1.609254956E0
2.149937712E0,-1.984360069E-1,-1.981669962E-1,-1.609254956E0
2.152477861E0,-1.984360069E-1,-1.981669962E-1,-1.609254956E0
2.155017976E0,-1.984360069E-1,-1.981669962E-1,-1.609254956E0
2.157558323E0,-1.984360069E-1,-1.981669962E-1,-1.609254956E0
2.160098668E0,-1.984360069E-1,-1.981669962E-1,-1.609254956E0
2.162638355E0,-1.984360069E-1,-1.981669962E-1,-1.609254956E0
2.165178048E0,-1.984360069E-1,-1.981669962E-1,-1.609254956E0
2.167718318E0,-8.986340165E-1,-5.351470113E-1,-1.721775055E0
2.170258587E0,-8.986340165E-1,-5.351470113E-1,-1.721775055E0
2.172799053E0,-8.986340165E-1,-5.351470113E-1,-1.721775055E0
2.175339516E0,-8.986340165E-1,-5.351470113E-1,-1.721775055E0
2.177879861E0,-8.986340165E-1,-5.351470113E-1,-1.721775055E0
2.180420208E0,-8.986340165E-1,-5.351470113E-1,-1.721775055E0
2.182960977E0,-4.858779907E-1,-8.348529935E-1,-1.399350047E0
2.185501746E0,-4.858779907E-1,-8.348529935E-1,-1.399350047E0
2.188042014E0,-4.858779907E-1,-8.348529935E-1,-1.399350047E0
2.190582285E0,-4.858779907E-1,-8.348529935E-1,-1.399350047E0
2.193122948E0,-4.858779907E-1,-8.348529935E-1,-1.399350047E0
2.195663601E0,-4.858779907E-1,-8.348529935E-1,-1.399350047E0
2.198203869E0,-4.858779907E-1,-8.348529935E-1,-1.399350047E0
2.200744140E0,-4.858779907E-1,-8.348529935E-1,-1.399350047E0
2.203284756E0,-1.897709966E-1,-1.525917053E0,-1.012972951E0
2.205825371E0,-1.897709966E-1,-1.525917053E0,-1.012972951E0
2.208366139E0,-1.897709966E-1,-1.525917053E0,-1.012972951E0
2.210906908E0,-1.897709966E-1,-1.525917053E0,-1.012972951E0
2.213447869E0,-1.897709966E-1,-1.525917053E0,-1.012972951E0
2.215988832E0,-1.897709966E-1,-1.525917053E0,-1.012972951E0
2.218529754E0,-1.897709966E-1,-1.525917053E0,-1.012972951E0
2.221070677E0,-1.897709966E-1,-1.525917053E0,-1.012972951E0
2.223611288E0,-1.823879927E-1,-9.550179839E-1,-1.148296952E0
2.226151903E0,-1.823879927E-1,-9.550179839E-1,-1.148296952E0
2.228692057E0,-1.823879927E-1,-9.550179839E-1,-1.148296952E0
2.231232212E0,-1.823879927E-1,-9.550179839E-1,-1.148296952E0
2.233772702E0,-1.823879927E-1,-9.550179839E-1,-1.148296952E0
2.236313163E0,-1.823879927E-1,-9.550179839E-1,-1.148296952E0
2.238853586E0,-1.823879927E-1,-9.550179839E-1,-1.148296952E0
2.241394009E0,-1.823879927E-1,-9.550179839E-1,-1.148296952E0
2.243934361E0,-3.778679967E-1,-1.164098024E0,-1.079707980E0
2.246474708E0,-3.778679967E-1,-1.164098024E0,-1.079707980E0
2.249015131E0,-3.778679967E-1,-1.164098024E0,-1.079707980E0
2.251555554E0,-3.778679967E-1,-1.164098024E0,-1.079707980E0
2.254095912E0,-3.778679967E-1,-1.164098024E0,-1.079707980E0
2.256636259E0,-3.778679967E-1,-1.164098024E0,-1.079707980E0
2.259176529E0,-3.778679967E-1,-1.164098024E0,-1.079707980E0
2.261716798E0,-3.778679967E-1,-1.164098024E0,-1.079707980E0
2.264257265E0,-3.737280071E-1,-1.204795957E0,-9.853940010E-1
2.266797726E0,-3.737280071E-1,-1.204795957E0,-9.853940010E-1
2.269338033E0,-3.737280071E-1,-1.204795957E0,-9.853940010E-1
2.271878342E0,-3.737280071E-1,-1.204795957E0,-9.853940010E-1
2.274418385E0,-3.737280071E-1,-1.204795957E0,-9.853940010E-1
2.276958424E0,-3.737280071E-1,-1.204795957E0,-9.853940010E-1
2.279498539E0,-3.737280071E-1,-1.204795957E0,-9.853940010E-1
2.282038654E0,-3.737280071E-1,-1.204795957E0,-9.853940010E-1
2.284578692E0,-3.384459913E-1,-1.627133965E0,-7.680040002E-1
2.287118731E0,-3.384459913E-1,-1.627133965E0,-7.680040002E-1
2.289659155E0,-3.384459913E-1,-1.627133965E0,-7.680040002E-1
2.292199578E0,-3.384459913E-1,-1.627133965E0,-7.680040002E-1
2.294739451E0,-3.384459913E-1,-1.627133965E0,-7.680040002E-1
2.297279336E0,-3.384459913E-1,-1.627133965E0,-7.680040002E-1
2.299819183E0,-3.384459913E-1,-1.627133965E0,-7.680040002E-1
2.302359028E0,-3.384459913E-1,-1.627133965E0,-7.680040002E-1
2.304898572E0,-2.656509876E-1,-1.629331946E0,-6.658310294E-1
2.307438111E0,-2.656509876E-1,-1.629331946E0,-6.658310294E-1
2.309977919E0,-2.656509876E-1,-1.629331946E0,-6.658310294E-1
2.312517726E0,-2.656509876E-1,-1.629331946E0,-6.658310294E-1
2.315057721E0,-2.656509876E-1,-1.629331946E0,-6.658310294E-1
2.317597722E0,-2.656509876E-1,-1.629331946E0,-6.658310294E-1
2.320136835E0,-2.656509876E-1,-1.629331946E0,-6.658310294E-1
2.322675952E0,-2.656509876E-1,-1.629331946E0,-6.658310294E-1
2.325215356E0,-1.927849948E-1,-1.789397955E0,-5.237740278E-1
2.327754741E0,-1.927849948E-1,-1.789397955E0,-5.237740278E-1
2.330294393E0,-1.927849948E-1,-1.789397955E0,-5.237740278E-1
2.332834048E0,-1.927849948E-1,-1.789397955E0,-5.237740278E-1
2.335373634E0,-1.927849948E-1,-1.789397955E0,-5.237740278E-1
2.337913211E0,-1.927849948E-1,-1.789397955E0,-5.237740278E-1
2.340453327E0,-1.927849948E-1,-1.789397955E0,-5.237740278E-1
2.342993442E0,-1.927849948E-1,-1.789397955E0,-5.237740278E-1
2.345532667E0,-2.780300081E-1,-1.981140971E0,-3.957979977E-1
2.348071900E0,-2.780300081E-1,-1.981140971E0,-3.957979977E-1
2.350611323E0,-2.780300081E-1,-1.981140971E0,-3.957979977E-1
2.353150746E0,-2.780300081E-1,-1.981140971E0,-3.957979977E-1
2.355690855E0,-2.780300081E-1,-1.981140971E0,-3.957979977E-1
2.358230972E0,-2.780300081E-1,-1.981140971E0,-3.957979977E-1
2.360771279E0,-2.780300081E-1,-1.981140971E0,-3.957979977E-1
2.363311586E0,-2.780300081E-1,-1.981140971E0,-3.957979977E-1
2.365851744E0,-6.871039867E-1,-2.010726929E0,-3.051030040E-1
2.368391899E0,-6.871039867E-1,-2.010726929E0,-3.051030040E-1
2.370931592E0,-6.871039867E-1,-2.010726929E0,-3.051030040E-1
2.373471283E0,-6.871039867E-1,-2.010726929E0,-3.051030040E-1
2.376011467E0,-6.871039867E-1,-2.010726929E0,-3.051030040E-1
2.378551620E0,-6.871039867E-1,-2.010726929E0,-3.051030040E-1
2.381091619E0,-6.871039867E-1,-2.010726929E0,-3.051030040E-1
2.383631620E0,-6.871039867E-1,-2.010726929E0,-3.051030040E-1
2.386170986E0,-6.929939985E-1,-1.645164967E0,-3.243379891E-1
2.388710371E0,-6.929939985E-1,-1.645164967E0,-3.243379891E-1
2.391251448E0,-6.929939985E-1,-1.645164967E0,-3.243379891E-1
2.393792525E0,-6.929939985E-1,-1.645164967E0,-3.243379891E-1
2.396332552E0,-6.929939985E-1,-1.645164967E0,-3.243379891E-1
2.398872591E0,-6.929939985E-1,-1.645164967E0,-3.243379891E-1
2.401412399E0,-6.929939985E-1,-1.645164967E0,-3.243379891E-1
2.403952206E0,-6.929939985E-1,-1.645164967E0,-3.243379891E-1
2.406492861E0,-5.716789961E-1,-1.204947948E0,-3.745039999E-1
2.409033514E0,-5.716789961E-1,-1.204947948E0,-3.745039999E-1
2.411573336E0,-5.716789961E-1,-1.204947948E0,-3.745039999E-1
2.414113145E0,-5.716789961E-1,-1.204947948E0,-3.745039999E-1
2.416652991E0,-5.716789961E-1,-1.204947948E0,-3.745039999E-1
2.419192836E0,-5.716789961E-1,-1.204947948E0,-3.745039999E-1
2.421733163E0,-5.716789961E-1,-1.204947948E0,-3.745039999E-1
2.424273510E0,-5.716789961E-1,-1.204947948E0,-3.745039999E-1
2.426813932E0,-5.035660267E-1,-1.101587057E0,-3.428280056E-1
2.429354355E0,-5.035660267E-1,-1.101587057E0,-3.428280056E-1
2.431894489E0,-5.035660267E-1,-1.101587057E0,-3.428280056E-1
2.434434644E0,-5.035660267E-1,-1.101587057E0,-3.428280056E-1
2.436974221E0,-5.035660267E-1,-1.101587057E0,-3.428280056E-1
2.439513798E0,-5.035660267E-1,-1.101587057E0,-3.428280056E-1
2.442053785E0,-5.035660267E-1,-1.101587057E0,-3.428280056E-1
2.444593784E0,-5.035660267E-1,-1.101587057E0,-3.428280056E-1
2.447133784E0,-5.199509859E-1,-1.256927013E0,-2.495580018E-1
2.449673785E0,-5.199509859E-1,-1.256927013E0,-2.495580018E-1
2.452213730E0,-5.199509859E-1,-1.256927013E0,-2.495580018E-1
2.454753693E0,-5.199509859E-1,-1.256927013E0,-2.495580018E-1
2.457294309E0,-5.199509859E-1,-1.256927013E0,-2.495580018E-1
2.459834924E0,-5.199509859E-1,-1.256927013E0,-2.495580018E-1
2.462375268E0,-5.199509859E-1,-1.256927013E0,-2.495580018E-1
2.464915615E0,-5.199509859E-1,-1.256927013E0,-2.495580018E-1
2.467455924E0,-8.116189837E-1,-1.810413957E0,-2.264400013E-2
2.469996231E0,-8.116189837E-1,-1.810413957E0,-2.264400013E-2
2.472535890E0,-8.116189837E-1,-1.810413957E0,-2.264400013E-2
2.475075543E0,-8.116189837E-1,-1.810413957E0,-2.264400013E-2
2.477615236E0,-8.116189837E-1,-1.810413957E0,-2.264400013E-2
2.480154929E0,-8.116189837E-1,-1.810413957E0,-2.264400013E-2
2.482694779E0,-8.116189837E-1,-1.810413957E0,-2.264400013E-2
2.485234626E0,-8.116189837E-1,-1.810413957E0,-2.264400013E-2
2.487775548E0,-7.539740205E-1,-1.775987983E0,1.271000016E-3
2.490316471E0,-7.539740205E-1,-1.775987983E0,1.271000016E-3
2.492856643E0,-7.539740205E-1,-1.775987983E0,1.271000016E-3
2.495396836E0,-7.539740205E-1,-1.775987983E0,1.271000016E-3
2.497936991E0,-7.539740205E-1,-1.775987983E0,1.271000016E-3
2.500477144E0,-7.539740205E-1,-1.775987983E0,1.271000016E-3
2.503016943E0,-6.739990115E-1,-1.661417007E0,-1.401100028E-2
2.505556750E0,-6.739990115E-1,-1.661417007E0,-1.401100028E-2
2.508096135E0,-6.739990115E-1,-1.661417007E0,-1.401100028E-2
2.510635520E0,-6.739990115E-1,-1.661417007E0,-1.401100028E-2
2.513175659E0,-6.739990115E-1,-1.661417007E0,-1.401100028E-2
2.515715812E0,-6.739990115E-1,-1.661417007E0,-1.401100028E-2
2.518256004E0,-6.739990115E-1,-1.661417007E0,-1.401100028E-2
2.520796197E0,-6.739990115E-1,-1.661417007E0,-1.401100028E-2
2.523336476E0,-3.064669967E-1,-8.484690189E-1,-2.700650096E-1
2.525876745E0,-3.064669967E-1,-8.484690189E-1,-2.700650096E-1
2.528416899E0,-3.064669967E-1,-8.484690189E-1,-2.700650096E-1
2.530957054E0,-3.064669967E-1,-8.484690189E-1,-2.700650096E-1
2.533496458E0,-3.064669967E-1,-8.484690189E-1,-2.700650096E-1
2.536035881E0,-3.064669967E-1,-8.484690189E-1,-2.700650096E-1
2.538575996E0,-3.064669967E-1,-8.484690189E-1,-2.700650096E-1
2.541116111E0,-3.064669967E-1,-8.484690189E-1,-2.700650096E-1
2.543656283E0,-2.786340117E-1,-9.206579924E-1,-2.497140020E-1
2.546196476E0,-2.786340117E-1,-9.206579924E-1,-2.497140020E-1
2.548736899E0,-2.786340117E-1,-9.206579924E-1,-2.497140020E-1
2.551277322E0,-2.786340117E-1,-9.206579924E-1,-2.497140020E-1
2.553817529E0,-2.786340117E-1,-9.206579924E-1,-2.497140020E-1
2.556357722E0,-2.786340117E-1,-9.206579924E-1,-2.497140020E-1
2.558897529E0,-2.786340117E-1,-9.206579924E-1,-2.497140020E-1
2.561437338E0,-2.786340117E-1,-9.206579924E-1,-2.497140020E-1
2.563977539E0,-4.214369953E-1,-1.384812951E0,-9.914600104E-2
2.566517730E0,-4.214369953E-1,-1.384812951E0,-9.914600104E-2
2.569058038E0,-4.214369953E-1,-1.384812951E0,-9.914600104E-2
2.571598347E0,-4.214369953E-1,-1.384812951E0,-9.914600104E-2
2.574138172E0,-4.214369953E-1,-1.384812951E0,-9.914600104E-2
2.576678019E0,-4.214369953E-1,-1.384812951E0,-9.914600104E-2
2.579218174E0,-4.214369953E-1,-1.384812951E0,-9.914600104E-2
2.581758327E0,-4.214369953E-1,-1.384812951E0,-9.914600104E-2
2.584298634E0,-4.320909977E-1,-1.480973959E0,-5.458499864E-2
2.586838943E0,-4.320909977E-1,-1.480973959E0,-5.458499864E-2
2.589379673E0,-4.320909977E-1,-1.480973959E0,-5.458499864E-2
2.591920404E0,-4.320909977E-1,-1.480973959E0,-5.458499864E-2
2.594460884E0,-4.320909977E-1,-1.480973959E0,-5.458499864E-2
2.597001347E0,-4.320909977E-1,-1.480973959E0,-5.458499864E-2
2.599541808E0,-4.320909977E-1,-1.480973959E0,-5.458499864E-2
2.602082269E0,-4.320909977E-1,-1.480973959E0,-5.458499864E-2
2.604622298E0,-2.987070084E-1,-1.165204048E0,-1.639550030E-1
2.607162299E0,-2.987070084E-1,-1.165204048E0,-1.639550030E-1
2.609702145E0,-2.987070084E-1,-1.165204048E0,-1.639550030E-1
2.612241990E0,-2.987070084E-1,-1.165204048E0,-1.639550030E-1
2.614782155E0,-2.987070084E-1,-1.165204048E0,-1.639550030E-1
2.617322308E0,-2.987070084E-1,-1.165204048E0,-1.639550030E-1
2.619862462E0,-2.987070084E-1,-1.165204048E0,-1.639550030E-1
2.622402617E0,-2.987070084E-1,-1.165204048E0,-1.639550030E-1
2.624942341E0,-1.210800000E-2,-8.498319983E-1,-3.124989867E-1
2.627482072E0,-1.210800000E-2,-8.498319983E-1,-3.124989867E-1
2.630021880E0,-1.210800000E-2,-8.498319983E-1,-3.124989867E-1
2.632561687E0,-1.210800000E-2,-8.498319983E-1,-3.124989867E-1
2.635101583E0,-1.210800000E-2,-8.498319983E-1,-3.124989867E-1
2.637641468E0,-1.210800000E-2,-8.498319983E-1,-3.124989867E-1
2.640181621E0,-1.210800000E-2,-8.498319983E-1,-3.124989867E-1
2.642721776E0,-1.210800000E-2,-8.498319983E-1,-3.124989867E-1
2.645261438E0,5.933399871E-2,-7.664579749E-1,-3.527820110E-1
2.647801093E0,5.933399871E-2,-7.664579749E-1,-3.527820110E-1
2.650340785E0,5.933399871E-2,-7.664579749E-1,-3.527820110E-1
2.652880478E0,5.933399871E-2,-7.664579749E-1,-3.527820110E-1
2.655420501E0,5.933399871E-2,-7.664579749E-1,-3.527820110E-1
2.657960502E0,5.933399871E-2,-7.664579749E-1,-3.527820110E-1
2.660500808E0,5.933399871E-2,-7.664579749E-1,-3.527820110E-1
2.663041117E0,5.933399871E-2,-7.664579749E-1,-3.527820110E-1
2.665580803E0,3.520900011E-2,-8.185639977E-1,-3.370000124E-1
2.668120496E0,3.520900011E-2,-8.185639977E-1,-3.370000124E-1
2.670659765E0,3.520900011E-2,-8.185639977E-1,-3.370000124E-1
2.673199034E0,3.520900011E-2,-8.185639977E-1,-3.370000124E-1
2.675738872E0,3.520900011E-2,-8.185639977E-1,-3.370000124E-1
2.678278679E0,3.520900011E-2,-8.185639977E-1,-3.370000124E-1
2.680818717E0,3.520900011E-2,-8.185639977E-1,-3.370000124E-1
2.683358756E0,3.520900011E-2,-8.185639977E-1,-3.370000124E-1
2.685899342E0,3.043900058E-2,-1.591001987E0,-1.454109997E-1
2.688439957E0,3.043900058E-2,-1.591001987E0,-1.454109997E-1
2.690980072E0,3.043900058E-2,-1.591001987E0,-1.454109997E-1
2.693520189E0,3.043900058E-2,-1.591001987E0,-1.454109997E-1
2.696059611E0,3.043900058E-2,-1.591001987E0,-1.454109997E-1
2.698599034E0,3.043900058E-2,-1.591001987E0,-1.454109997E-1
2.701138420E0,3.043900058E-2,-1.591001987E0,-1.454109997E-1
2.703677805E0,3.043900058E-2,-1.591001987E0,-1.454109997E-1
2.706216876E0,1.696940064E-1,-1.850150943E0,-1.278569996E-1
2.708755953E0,1.696940064E-1,-1.850150943E0,-1.278569996E-1
2.711295800E0,1.696940064E-1,-1.850150943E0,-1.278569996E-1
2.713835645E0,1.696940064E-1,-1.850150943E0,-1.278569996E-1
2.716375337E0,1.696940064E-1,-1.850150943E0,-1.278569996E-1
2.718915030E0,1.696940064E-1,-1.850150943E0,-1.278569996E-1
2.721455800E0,1.696940064E-1,-1.850150943E0,-1.278569996E-1
2.723996569E0,1.696940064E-1,-1.850150943E0,-1.278569996E-1
2.726537298E0,2.697669864E-1,-1.932898045E0,-1.414819956E-1
2.729078029E0,2.697669864E-1,-1.932898045E0,-1.414819956E-1
2.731617876E0,2.697669864E-1,-1.932898045E0,-1.414819956E-1
2.734157723E0,2.697669864E-1,-1.932898045E0,-1.414819956E-1
2.736697266E0,2.697669864E-1,-1.932898045E0,-1.414819956E-1
2.739236805E0,2.697669864E-1,-1.932898045E0,-1.414819956E-1
2.741776651E0,2.697669864E-1,-1.932898045E0,-1.414819956E-1
2.744316496E0,2.697669864E-1,-1.932898045E0,-1.414819956E-1
2.746857141E0,2.741419971E-1,-2.172030926E0,-6.873299927E-2
2.749397796E0,2.741419971E-1,-2.172030926E0,-6.873299927E-2
2.751937640E0,2.741419971E-1,-2.172030926E0,-6.873299927E-2
2.754477487E0,2.741419971E-1,-2.172030926E0,-6.873299927E-2
2.757016988E0,2.741419971E-1,-2.172030926E0,-6.873299927E-2
2.759556487E0,2.741419971E-1,-2.172030926E0,-6.873299927E-2
2.762095410E0,2.741419971E-1,-2.172030926E0,-6.873299927E-2
2.764634333E0,2.741419971E-1,-2.172030926E0,-6.873299927E-2
2.767173074E0,2.282769978E-1,-2.272615910E0,1.369800046E-2
2.769711843E0,2.282769978E-1,-2.272615910E0,1.369800046E-2
2.772250497E0,2.282769978E-1,-2.272615910E0,1.369800046E-2
2.774789150E0,2.282769978E-1,-2.272615910E0,1.369800046E-2
2.777328641E0,2.282769978E-1,-2.272615910E0,1.369800046E-2
2.779868140E0,2.282769978E-1,-2.272615910E0,1.369800046E-2
2.782408025E0,2.282769978E-1,-2.272615910E0,1.369800046E-2
2.784947910E0,2.282769978E-1,-2.272615910E0,1.369800046E-2
2.787488184E0,1.353989989E-1,-2.763231993E0,2.797540128E-1
2.790028453E0,1.353989989E-1,-2.763231993E0,2.797540128E-1
2.792567876E0,1.353989989E-1,-2.763231993E0,2.797540128E-1
2.795107299E0,1.353989989E-1,-2.763231993E0,2.797540128E-1
2.797646987E0,1.353989989E-1,-2.763231993E0,2.797540128E-1
2.800186680E0,1.353989989E-1,-2.763231993E0,2.797540128E-1
2.802726025E0,1.353989989E-1,-2.763231993E0,2.797540128E-1
2.805265372E0,1.353989989E-1,-2.763231993E0,2.797540128E-1
2.807804809E0,-5.804200098E-2,-2.548782110E0,4.486660063E-1
2.810344232E0,-5.804200098E-2,-2.548782110E0,4.486660063E-1
2.812883269E0,-5.804200098E-2,-2.548782110E0,4.486660063E-1
2.815422308E0,-5.804200098E-2,-2.548782110E0,4.486660063E-1
2.817961732E0,-5.804200098E-2,-2.548782110E0,4.486660063E-1
2.820501155E0,-5.804200098E-2,-2.548782110E0,4.486660063E-1
2.823041116E0,-1.147099957E-2,-2.306371927E0,3.995299935E-1
2.825581079E0,-1.147099957E-2,-2.306371927E0,3.995299935E-1
2.828120808E0,-1.147099957E-2,-2.306371927E0,3.995299935E-1
2.830660539E0,-1.147099957E-2,-2.306371927E0,3.995299935E-1
2.833200810E0,-1.147099957E-2,-2.306371927E0,3.995299935E-1
2.835741079E0,-1.147099957E-2,-2.306371927E0,3.995299935E-1
2.838280808E0,-1.147099957E-2,-2.306371927E0,3.995299935E-1
2.840820539E0,-1.147099957E-2,-2.306371927E0,3.995299935E-1
2.843360810E0,4.948199913E-2,-2.011322021E0,3.085879982E-1
2.845901079E0,4.948199913E-2,-2.011322021E0,3.085879982E-1
2.848440941E0,4.948199913E-2,-2.011322021E0,3.085879982E-1
2.850980788E0,4.948199913E-2,-2.011322021E0,3.085879982E-1
2.853520173E0,4.948199913E-2,-2.011322021E0,3.085879982E-1
2.856059558E0,4.948199913E-2,-2.011322021E0,3.085879982E-1
2.858599886E0,4.948199913E-2,-2.011322021E0,3.085879982E-1
2.861140193E0,4.948199913E-2,-2.011322021E0,3.085879982E-1
2.863680808E0,4.266899824E-2,-1.583691955E0,2.173690051E-1
2.866221423E0,4.266899824E-2,-1.583691955E0,2.173690051E-1
2.868761317E0,4.266899824E-2,-1.583691955E0,2.173690051E-1
2.871301202E0,4.266899824E-2,-1.583691955E0,2.173690051E-1
2.873840548E0,4.266899824E-2,-1.583691955E0,2.173690051E-1
2.876379895E0,4.266899824E-2,-1.583691955E0,2.173690051E-1
2.878919587E0,4.266899824E-2,-1.583691955E0,2.173690051E-1
2.881459280E0,4.266899824E-2,-1.583691955E0,2.173690051E-1
2.883999894E0,3.293899819E-2,-1.126242995E0,1.045010015E-1
2.886540509E0,3.293899819E-2,-1.126242995E0,1.045010015E-1
2.889080523E0,3.293899819E-2,-1.126242995E0,1.045010015E-1
2.891620562E0,3.293899819E-2,-1.126242995E0,1.045010015E-1
2.894160563E0,3.293899819E-2,-1.126242995E0,1.045010015E-1
2.896700562E0,3.293899819E-2,-1.126242995E0,1.045010015E-1
2.899240832E0,3.293899819E-2,-1.126242995E0,1.045010015E-1
2.901781101E0,3.293899819E-2,-1.126242995E0,1.045010015E-1
2.904321254E0,6.111099944E-2,-3.856849968E-1,-1.647859961E-1
2.906861409E0,6.111099944E-2,-3.856849968E-1,-1.647859961E-1
2.909401563E0,6.111099944E-2,-3.856849968E-1,-1.647859961E-1
2.911941716E0,6.111099944E-2,-3.856849968E-1,-1.647859961E-1
2.914482178E0,6.111099944E-2,-3.856849968E-1,-1.647859961E-1
2.917022639E0,6.111099944E-2,-3.856849968E-1,-1.647859961E-1
2.919562485E0,6.111099944E-2,-3.856849968E-1,-1.647859961E-1
2.922102332E0,6.111099944E-2,-3.856849968E-1,-1.647859961E-1
2.924641601E0,-9.085600078E-2,2.887569964E-1,-2.846730053E-1
2.927180870E0,-9.085600078E-2,2.887569964E-1,-2.846730053E-1
2.929720678E0,-9.085600078E-2,2.887569964E-1,-2.846730053E-1
2.932260485E0,-9.085600078E-2,2.887569964E-1,-2.846730053E-1
2.934800832E0,-9.085600078E-2,2.887569964E-1,-2.846730053E-1
2.937341179E0,-9.085600078E-2,2.887569964E-1,-2.846730053E-1
2.939881457E0,-9.085600078E-2,2.887569964E-1,-2.846730053E-1
2.942421726E0,-9.085600078E-2,2.887569964E-1,-2.846730053E-1
2.944961726E0,-1.222840026E-1,8.035259843E-1,-4.640280008E-1
2.947501727E0,-1.222840026E-1,8.035259843E-1,-4.640280008E-1
2.950041712E0,-1.222840026E-1,8.035259843E-1,-4.640280008E-1
2.952581711E0,-1.222840026E-1,8.035259843E-1,-4.640280008E-1
2.955121712E0,-1.222840026E-1,8.035259843E-1,-4.640280008E-1
2.957661711E0,-1.222840026E-1,8.035259843E-1,-4.640280008E-1
2.960201428E0,-1.222840026E-1,8.035259843E-1,-4.640280008E-1
2.962741159E0,-1.222840026E-1,8.035259843E-1,-4.640280008E-1
2.965280698E0,8.493100107E-2,1.032618999E0,-6.866700053E-1
2.967820237E0,8.493100107E-2,1.032618999E0,-6.866700053E-1
2.970360650E0,8.493100107E-2,1.032618999E0,-6.866700053E-1
2.972901073E0,8.493100107E-2,1.032618999E0,-6.866700053E-1
2.975440956E0,8.493100107E-2,1.032618999E0,-6.866700053E-1
2.977980841E0,8.493100107E-2,1.032618999E0,-6.866700053E-1
2.980521444E0,8.493100107E-2,1.032618999E0,-6.866700053E-1
2.983062059E0,8.493100107E-2,1.032618999E0,-6.866700053E-1
2.985602981E0,1.895779967E-1,1.186596990E0,-8.211899996E-1
2.988143904E0,1.895779967E-1,1.186596990E0,-8.211899996E-1
2.990683734E0,1.895779967E-1,1.186596990E0,-8.211899996E-1
2.993223581E0,1.895779967E-1,1.186596990E0,-8.211899996E-1
2.995763890E0,1.895779967E-1,1.186596990E0,-8.211899996E-1
2.998304197E0,1.895779967E-1,1.186596990E0,-8.211899996E-1
3.000844898E0,1.895779967E-1,1.186596990E0,-8.211899996E-1
3.003385629E0,1.895779967E-1,1.186596990E0,-8.211899996E-1
3.005926090E0,1.572660059E-1,1.179105043E0,-8.311780095E-1
3.008466553E0,1.572660059E-1,1.179105043E0,-8.311780095E-1
3.011006688E0,1.572660059E-1,1.179105043E0,-8.311780095E-1
3.013546841E0,1.572660059E-1,1.179105043E0,-8.311780095E-1
3.016086688E0,1.572660059E-1,1.179105043E0,-8.311780095E-1
3.018626533E0,1.572660059E-1,1.179105043E0,-8.311780095E-1
3.021166361E0,1.572660059E-1,1.179105043E0,-8.311780095E-1
3.023706208E0,1.572660059E-1,1.179105043E0,-8.311780095E-1
3.026246091E0,2.066599950E-2,1.341905951E0,-8.752809763E-1
3.028785976E0,2.066599950E-2,1.341905951E0,-8.752809763E-1
3.031325981E0,2.066599950E-2,1.341905951E0,-8.752809763E-1
3.033865982E0,2.066599950E-2,1.341905951E0,-8.752809763E-1
3.036405635E0,2.066599950E-2,1.341905951E0,-8.752809763E-1
3.038945290E0,2.066599950E-2,1.341905951E0,-8.752809763E-1
3.041485736E0,2.066599950E-2,1.341905951E0,-8.752809763E-1
3.044026197E0,2.066599950E-2,1.341905951E0,-8.752809763E-1
3.046567005E0,-2.166659981E-1,1.582820058E0,-9.436529875E-1
3.049107812E0,-2.166659981E-1,1.582820058E0,-9.436529875E-1
3.051648134E0,-2.166659981E-1,1.582820058E0,-9.436529875E-1
3.054188443E0,-2.166659981E-1,1.582820058E0,-9.436529875E-1
3.056728867E0,-2.166659981E-1,1.582820058E0,-9.436529875E-1
3.059269290E0,-2.166659981E-1,1.582820058E0,-9.436529875E-1
3.061809187E0,-2.166659981E-1,1.582820058E0,-9.436529875E-1
3.064349072E0,-2.166659981E-1,1.582820058E0,-9.436529875E-1
3.066889073E0,-4.942600057E-2,1.043321013E0,-8.421390057E-1
3.069429072E0,-4.942600057E-2,1.043321013E0,-8.421390057E-1
3.071969182E0,-4.942600057E-2,1.043321013E0,-8.421390057E-1
3.074509299E0,-4.942600057E-2,1.043321013E0,-8.421390057E-1
3.077049798E0,-4.942600057E-2,1.043321013E0,-8.421390057E-1
3.079590299E0,-4.942600057E-2,1.043321013E0,-8.421390057E-1
3.082130600E0,-4.942600057E-2,1.043321013E0,-8.421390057E-1
3.084670909E0,-4.942600057E-2,1.043321013E0,-8.421390057E-1
3.087211486E0,4.955640137E-1,-1.565299928E-2,-6.948199868E-1
3.089752063E0,4.955640137E-1,-1.565299928E-2,-6.948199868E-1
3.092291446E0,4.955640137E-1,-1.565299928E-2,-6.948199868E-1
3.094830831E0,4.955640137E-1,-1.565299928E-2,-6.948199868E-1
3.097370409E0,4.955640137E-1,-1.565299928E-2,-6.948199868E-1
3.099909986E0,4.955640137E-1,-1.565299928E-2,-6.948199868E-1
3.102449664E0,4.955640137E-1,-1.565299928E-2,-6.948199868E-1
3.104989357E0,4.955640137E-1,-1.565299928E-2,-6.948199868E-1
3.107529510E0,4.414840043E-1,-1.956499964E-1,-6.424540281E-1
3.110069665E0,4.414840043E-1,-1.956499964E-1,-6.424540281E-1
3.112609659E0,4.414840043E-1,-1.956499964E-1,-6.424540281E-1
3.115149660E0,4.414840043E-1,-1.956499964E-1,-6.424540281E-1
3.117690083E0,4.414840043E-1,-1.956499964E-1,-6.424540281E-1
3.120230506E0,4.414840043E-1,-1.956499964E-1,-6.424540281E-1
3.122770717E0,4.414840043E-1,-1.956499964E-1,-6.424540281E-1
3.125310910E0,4.414840043E-1,-1.956499964E-1,-6.424540281E-1
3.127850756E0,3.925609887E-1,-3.761340082E-1,-5.737590194E-1
3.130390603E0,3.925609887E-1,-3.761340082E-1,-5.737590194E-1
3.132930747E0,3.925609887E-1,-3.761340082E-1,-5.737590194E-1
3.135470900E0,3.925609887E-1,-3.761340082E-1,-5.737590194E-1
3.138010708E0,3.925609887E-1,-3.761340082E-1,-5.737590194E-1
3.140550517E0,3.925609887E-1,-3.761340082E-1,-5.737590194E-1
3.143090828E0,1.691669971E-1,-9.875760078E-1,-1.473149955E-1
3.145631135E0,1.691669971E-1,-9.875760078E-1,-1.473149955E-1
3.148171596E0,1.691669971E-1,-9.875760078E-1,-1.473149955E-1
3.150712059E0,1.691669971E-1,-9.875760078E-1,-1.473149955E-1
3.153252424E0,1.691669971E-1,-9.875760078E-1,-1.473149955E-1
3.155792771E0,1.691669971E-1,-9.875760078E-1,-1.473149955E-1
3.158333041E0,1.691669971E-1,-9.875760078E-1,-1.473149955E-1
3.160873310E0,1.691669971E-1,-9.875760078E-1,-1.473149955E-1
3.163413645E0,1.811369956E-1,-1.022078991E0,-1.292849928E-1
3.165953952E0,1.811369956E-1,-1.022078991E0,-1.292849928E-1
3.168494105E0,1.811369956E-1,-1.022078991E0,-1.292849928E-1
3.171034260E0,1.811369956E-1,-1.022078991E0,-1.292849928E-1
3.173573487E0,1.811369956E-1,-1.022078991E0,-1.292849928E-1
3.176112718E0,1.811369956E-1,-1.022078991E0,-1.292849928E-1
3.178652604E0,1.811369956E-1,-1.022078991E0,-1.292849928E-1
3.181192487E0,1.811369956E-1,-1.022078991E0,-1.292849928E-1
3.183733386E0,2.735840082E-1,-1.121721029E0,-1.178480014E-1
3.186274271E0,2.735840082E-1,-1.121721029E0,-1.178480014E-1
3.188814115E0,2.735840082E-1,-1.121721029E0,-1.178480014E-1
3.191353962E0,2.735840082E-1,-1.121721029E0,-1.178480014E-1
3.193894151E0,2.735840082E-1,-1.121721029E0,-1.178480014E-1
3.196434342E0,2.735840082E-1,-1.121721029E0,-1.178480014E-1
3.198975112E0,2.735840082E-1,-1.121721029E0,-1.178480014E-1
3.201515881E0,2.735840082E-1,-1.121721029E0,-1.178480014E-1
3.204055434E0,4.216710031E-1,-1.555711031E0,5.917299911E-2
3.206594973E0,4.216710031E-1,-1.555711031E0,5.917299911E-2
3.209134011E0,4.216710031E-1,-1.555711031E0,5.917299911E-2
3.211673050E0,4.216710031E-1,-1.555711031E0,5.917299911E-2
3.214213055E0,4.216710031E-1,-1.555711031E0,5.917299911E-2
3.216753092E0,4.216710031E-1,-1.555711031E0,5.917299911E-2
3.219293553E0,4.216710031E-1,-1.555711031E0,5.917299911E-2
3.221834016E0,4.216710031E-1,-1.555711031E0,5.917299911E-2
3.224374308E0,3.049179912E-1,-1.256597996E0,3.033000045E-3
3.226914617E0,3.049179912E-1,-1.256597996E0,3.033000045E-3
3.229454309E0,3.049179912E-1,-1.256597996E0,3.033000045E-3
3.231994002E0,3.049179912E-1,-1.256597996E0,3.033000045E-3
3.234534036E0,3.049179912E-1,-1.256597996E0,3.033000045E-3
3.237074035E0,3.049179912E-1,-1.256597996E0,3.033000045E-3
3.239614342E0,3.049179912E-1,-1.256597996E0,3.033000045E-3
3.242154651E0,3.049179912E-1,-1.256597996E0,3.033000045E-3
3.244694452E0,1.019959971E-1,-3.712300062E-1,-3.371919990E-1
3.247234261E0,1.019959971E-1,-3.712300062E-1,-3.371919990E-1
3.249773337E0,1.019959971E-1,-3.712300062E-1,-3.371919990E-1
3.252312414E0,1.019959971E-1,-3.712300062E-1,-3.371919990E-1
3.254851689E0,1.019959971E-1,-3.712300062E-1,-3.371919990E-1
3.257390958E0,1.019959971E-1,-3.712300062E-1,-3.371919990E-1
3.259930804E0,1.019959971E-1,-3.712300062E-1,-3.371919990E-1
3.262470651E0,1.019959971E-1,-3.712300062E-1,-3.371919990E-1
3.265011424E0,1.878039986E-1,-3.008989990E-1,-3.906289935E-1
3.267552193E0,1.878039986E-1,-3.008989990E-1,-3.906289935E-1
3.270092924E0,1.878039986E-1,-3.008989990E-1,-3.906289935E-1
3.272633655E0,1.878039986E-1,-3.008989990E-1,-3.906289935E-1
3.275174170E0,1.878039986E-1,-3.008989990E-1,-3.906289935E-1
3.277714669E0,1.878039986E-1,-3.008989990E-1,-3.906289935E-1
3.280254477E0,1.878039986E-1,-3.008989990E-1,-3.906289935E-1
3.282794284E0,1.878039986E-1,-3.008989990E-1,-3.906289935E-1
3.285334611E0,2.389599979E-1,-4.961600155E-2,-5.217339993E-1
3.287874958E0,2.389599979E-1,-4.961600155E-2,-5.217339993E-1
3.290414918E0,2.389599979E-1,-4.961600155E-2,-5.217339993E-1
3.292954881E0,2.389599979E-1,-4.961600155E-2,-5.217339993E-1
3.295494727E0,2.389599979E-1,-4.961600155E-2,-5.217339993E-1
3.298034572E0,2.389599979E-1,-4.961600155E-2,-5.217339993E-1
3.300574611E0,2.389599979E-1,-4.961600155E-2,-5.217339993E-1
3.303114650E0,2.389599979E-1,-4.961600155E-2,-5.217339993E-1
3.305653975E0,2.978950143E-1,2.101739943E-1,-6.603389978E-1
3.308193322E0,2.978950143E-1,2.101739943E-1,-6.603389978E-1
3.310732092E0,2.978950143E-1,2.101739943E-1,-6.603389978E-1
3.313270861E0,2.978950143E-1,2.101739943E-1,-6.603389978E-1
3.315810386E0,2.978950143E-1,2.101739943E-1,-6.603389978E-1
3.318349923E0,2.978950143E-1,2.101739943E-1,-6.603389978E-1
3.320889615E0,2.978950143E-1,2.101739943E-1,-6.603389978E-1
3.323429308E0,2.978950143E-1,2.101739943E-1,-6.603389978E-1
3.325969139E0,2.647610009E-1,1.823270023E-1,-5.828120112E-1
3.328508986E0,2.647610009E-1,1.823270023E-1,-5.828120112E-1
3.331049294E0,2.647610009E-1,1.823270023E-1,-5.828120112E-1
3.333589601E0,2.647610009E-1,1.823270023E-1,-5.828120112E-1
3.336129812E0,2.647610009E-1,1.823270023E-1,-5.828120112E-1
3.338670005E0,2.647610009E-1,1.823270023E-1,-5.828120112E-1
3.341210159E0,2.647610009E-1,1.823270023E-1,-5.828120112E-1
3.343750312E0,2.647610009E-1,1.823270023E-1,-5.828120112E-1
3.346290621E0,1.650920063E-1,2.365989983E-1,-5.088739991E-1
3.348830928E0,1.650920063E-1,2.365989983E-1,-5.088739991E-1
3.351371351E0,1.650920063E-1,2.365989983E-1,-5.088739991E-1
3.353911774E0,1.650920063E-1,2.365989983E-1,-5.088739991E-1
3.356452702E0,1.650920063E-1,2.365989983E-1,-5.088739991E-1
3.358993625E0,1.650920063E-1,2.365989983E-1,-5.088739991E-1
3.361533932E0,1.650920063E-1,2.365989983E-1,-5.088739991E-1
3.364074241E0,1.650920063E-1,2.365989983E-1,-5.088739991E-1
3.366614583E0,1.235869974E-1,2.985259891E-1,-4.799109995E-1
3.369154928E0,1.235869974E-1,2.985259891E-1,-4.799109995E-1
3.371695236E0,1.235869974E-1,2.985259891E-1,-4.799109995E-1
3.374235543E0,1.235869974E-1,2.985259891E-1,-4.799109995E-1
3.376776015E0,1.235869974E-1,2.985259891E-1,-4.799109995E-1
3.379316438E0,1.235869974E-1,2.985259891E-1,-4.799109995E-1
3.381858014E0,1.235869974E-1,2.985259891E-1,-4.799109995E-1
3.384399591E0,1.235869974E-1,2.985259891E-1,-4.799109995E-1
3.386940186E0,9.368900210E-2,-1.576029956E-1,-1.903370023E-1
3.389480765E0,9.368900210E-2,-1.576029956E-1,-1.903370023E-1
3.392020765E0,9.368900210E-2,-1.576029956E-1,-1.903370023E-1
3.394560764E0,9.368900210E-2,-1.576029956E-1,-1.903370023E-1
3.397100577E0,9.368900210E-2,-1.576029956E-1,-1.903370023E-1
3.399640424E0,9.368900210E-2,-1.576029956E-1,-1.903370023E-1
3.402180886E0,9.368900210E-2,-1.576029956E-1,-1.903370023E-1
3.404721347E0,9.368900210E-2,-1.576029956E-1,-1.903370023E-1
3.407261961E0,8.142299950E-2,-1.969510019E-1,-1.654559970E-1
3.409802576E0,8.142299950E-2,-1.969510019E-1,-1.654559970E-1
3.412342884E0,8.142299950E-2,-1.969510019E-1,-1.654559970E-1
3.414883193E0,8.142299950E-2,-1.969510019E-1,-1.654559970E-1
3.417423351E0,8.142299950E-2,-1.969510019E-1,-1.654559970E-1
3.419963504E0,8.142299950E-2,-1.969510019E-1,-1.654559970E-1
3.422504005E0,8.142299950E-2,-1.969510019E-1,-1.654559970E-1
3.425044506E0,8.142299950E-2,-1.969510019E-1,-1.654559970E-1
3.427585135E0,1.316699982E-1,-3.786120117E-1,-1.150190011E-1
3.430125750E0,1.316699982E-1,-3.786120117E-1,-1.150190011E-1
3.432666058E0,1.316699982E-1,-3.786120117E-1,-1.150190011E-1
3.435206367E0,1.316699982E-1,-3.786120117E-1,-1.150190011E-1
3.437746217E0,1.316699982E-1,-3.786120117E-1,-1.150190011E-1
3.440286064E0,1.316699982E-1,-3.786120117E-1,-1.150190011E-1
3.442826641E0,1.316699982E-1,-3.786120117E-1,-1.150190011E-1
3.445367218E0,1.316699982E-1,-3.786120117E-1,-1.150190011E-1
3.447907990E0,2.117580026E-1,-7.171509862E-1,-8.851000108E-3
3.450448759E0,2.117580026E-1,-7.171509862E-1,-8.851000108E-3
3.452989067E0,2.117580026E-1,-7.171509862E-1,-8.851000108E-3
3.455529376E0,2.117580026E-1,-7.171509862E-1,-8.851000108E-3
3.458069410E0,2.117580026E-1,-7.171509862E-1,-8.851000108E-3
3.460609449E0,2.117580026E-1,-7.171509862E-1,-8.851000108E-3
3.463150064E0,2.037390023E-1,-8.348969817E-1,3.479800001E-2
3.465690679E0,2.037390023E-1,-8.348969817E-1,3.479800001E-2
3.468230956E0,2.037390023E-1,-8.348969817E-1,3.479800001E-2
3.470771227E0,2.037390023E-1,-8.348969817E-1,3.479800001E-2
3.473312304E0,2.037390023E-1,-8.348969817E-1,3.479800001E-2
3.475853381E0,2.037390023E-1,-8.348969817E-1,3.479800001E-2
3.478394462E0,2.037390023E-1,-8.348969817E-1,3.479800001E-2
3.480935539E0,2.037390023E-1,-8.348969817E-1,3.479800001E-2
3.483477847E0,2.259629965E-1,-1.005813956E0,8.212900162E-2
3.486020154E0,2.259629965E-1,-1.005813956E0,8.212900162E-2
3.488561105E0,2.259629965E-1,-1.005813956E0,8.212900162E-2
3.491102068E0,2.259629965E-1,-1.005813956E0,8.212900162E-2
3.493643299E0,2.259629965E-1,-1.005813956E0,8.212900162E-2
3.496184530E0,2.259629965E-1,-1.005813956E0,8.212900162E-2
3.498725457E0,2.259629965E-1,-1.005813956E0,8.212900162E-2
3.501266380E0,2.259629965E-1,-1.005813956E0,8.212900162E-2
3.503807150E0,1.976699978E-1,-1.532184005E0,4.243209958E-1
3.506347919E0,1.976699978E-1,-1.532184005E0,4.243209958E-1
3.508888242E0,1.976699978E-1,-1.532184005E0,4.243209958E-1
3.511428549E0,1.976699978E-1,-1.532184005E0,4.243209958E-1
3.513968819E0,1.976699978E-1,-1.532184005E0,4.243209958E-1
3.516509088E0,1.976699978E-1,-1.532184005E0,4.243209958E-1
3.519049717E0,1.976699978E-1,-1.532184005E0,4.243209958E-1
3.521590332E0,1.976699978E-1,-1.532184005E0,4.243209958E-1
3.524130524E0,4.143000022E-2,-1.564455032E0,6.079249978E-1
3.526670717E0,4.143000022E-2,-1.564455032E0,6.079249978E-1
3.529210857E0,4.143000022E-2,-1.564455032E0,6.079249978E-1
3.531751010E0,4.143000022E-2,-1.564455032E0,6.079249978E-1
3.534290857E0,4.143000022E-2,-1.564455032E0,6.079249978E-1
3.536830704E0,4.143000022E-2,-1.564455032E0,6.079249978E-1
3.539370645E0,4.143000022E-2,-1.564455032E0,6.079249978E-1
3.541910606E0,4.143000022E-2,-1.564455032E0,6.079249978E-1
3.544450798E0,-4.259999841E-2,-1.243520975E0,4.651170075E-1
3.546990991E0,-4.259999841E-2,-1.243520975E0,4.651170075E-1
3.549530663E0,-4.259999841E-2,-1.243520975E0,4.651170075E-1
3.552070356E0,-4.259999841E-2,-1.243520975E0,4.651170075E-1
3.554610472E0,-4.259999841E-2,-1.243520975E0,4.651170075E-1
3.557150587E0,-4.259999841E-2,-1.243520975E0,4.651170075E-1
3.559690592E0,-4.259999841E-2,-1.243520975E0,4.651170075E-1
3.562230593E0,-4.259999841E-2,-1.243520975E0,4.651170075E-1
3.564770285E0,-2.675170004E-1,-1.155989051E0,6.932100058E-1
3.567309976E0,-2.675170004E-1,-1.155989051E0,6.932100058E-1
3.569849862E0,-2.675170004E-1,-1.155989051E0,6.932100058E-1
3.572389747E0,-2.675170004E-1,-1.155989051E0,6.932100058E-1
3.574929861E0,-2.675170004E-1,-1.155989051E0,6.932100058E-1
3.577469976E0,-2.675170004E-1,-1.155989051E0,6.932100058E-1
3.580010736E0,-2.675170004E-1,-1.155989051E0,6.932100058E-1
3.582551505E0,-2.675170004E-1,-1.155989051E0,6.932100058E-1
3.585091504E0,-4.842239916E-1,-8.300579786E-1,7.352489829E-1
3.587631505E0,-4.842239916E-1,-8.300579786E-1,7.352489829E-1
3.590171972E0,-4.842239916E-1,-8.300579786E-1,7.352489829E-1
3.592712433E0,-4.842239916E-1,-8.300579786E-1,7.352489829E-1
3.595253241E0,-4.842239916E-1,-8.300579786E-1,7.352489829E-1
3.597794048E0,-4.842239916E-1,-8.300579786E-1,7.352489829E-1
3.600335220E0,-4.842239916E-1,-8.300579786E-1,7.352489829E-1
3.602876413E0,-4.842239916E-1,-8.300579786E-1,7.352489829E-1
3.605417644E0,-7.128180265E-1,-4.760780036E-1,7.742909789E-1
3.607958875E0,-7.128180265E-1,-4.760780036E-1,7.742909789E-1
3.610499374E0,-7.128180265E-1,-4.760780036E-1,7.742909789E-1
3.613039875E0,-7.128180265E-1,-4.760780036E-1,7.742909789E-1
3.615580183E0,-7.128180265E-1,-4.760780036E-1,7.742909789E-1
3.618120490E0,-7.128180265E-1,-4.760780036E-1,7.742909789E-1
3.620660827E0,-7.128180265E-1,-4.760780036E-1,7.742909789E-1
3.623201134E0,-7.128180265E-1,-4.760780036E-1,7.742909789E-1
3.625741865E0,-8.925639987E-1,-2.130009979E-1,8.265200257E-1
3.628282596E0,-8.925639987E-1,-2.130009979E-1,8.265200257E-1
3.630823211E0,-8.925639987E-1,-2.130009979E-1,8.265200257E-1
3.633363828E0,-8.925639987E-1,-2.130009979E-1,8.265200257E-1
3.635904135E0,-8.925639987E-1,-2.130009979E-1,8.265200257E-1
3.638444442E0,-8.925639987E-1,-2.130009979E-1,8.265200257E-1
3.640984943E0,-8.925639987E-1,-2.130009979E-1,8.265200257E-1
3.643525442E0,-8.925639987E-1,-2.130009979E-1,8.265200257E-1
3.646065596E0,-1.046911001E0,2.246900089E-2,8.667299747E-1
3.648605751E0,-1.046911001E0,2.246900089E-2,8.667299747E-1
3.651145876E0,-1.046911001E0,2.246900089E-2,8.667299747E-1
3.653685991E0,-1.046911001E0,2.246900089E-2,8.667299747E-1
3.656225992E0,-1.046911001E0,2.246900089E-2,8.667299747E-1
3.658765991E0,-1.046911001E0,2.246900089E-2,8.667299747E-1
3.661306179E0,-1.046911001E0,2.246900089E-2,8.667299747E-1
3.663846370E0,-1.046911001E0,2.246900089E-2,8.667299747E-1
3.666386678E0,-1.202689052E0,2.284899950E-1,9.052289724E-1
3.668926987E0,-1.202689052E0,2.284899950E-1,9.052289724E-1
3.671467231E0,-1.202689052E0,2.284899950E-1,9.052289724E-1
3.674007500E0,-1.202689052E0,2.284899950E-1,9.052289724E-1
3.676547232E0,-1.202689052E0,2.284899950E-1,9.052289724E-1
3.679086963E0,-1.202689052E0,2.284899950E-1,9.052289724E-1
3.681627997E0,-1.202689052E0,2.284899950E-1,9.052289724E-1
3.684169034E0,-1.202689052E0,2.284899950E-1,9.052289724E-1
3.686709033E0,-1.377406955E0,4.801790118E-1,8.977090120E-1
3.689249034E0,-1.377406955E0,4.801790118E-1,8.977090120E-1
3.691788881E0,-1.377406955E0,4.801790118E-1,8.977090120E-1
3.694328726E0,-1.377406955E0,4.801790118E-1,8.977090120E-1
3.696868881E0,-1.377406955E0,4.801790118E-1,8.977090120E-1
3.699409034E0,-1.377406955E0,4.801790118E-1,8.977090120E-1
3.701949639E0,-1.377406955E0,4.801790118E-1,8.977090120E-1
3.704490254E0,-1.377406955E0,4.801790118E-1,8.977090120E-1
3.707030292E0,-1.516985059E0,7.484170198E-1,8.296260238E-1
3.709570331E0,-1.516985059E0,7.484170198E-1,8.296260238E-1
3.712110501E0,-1.516985059E0,7.484170198E-1,8.296260238E-1
3.714650654E0,-1.516985059E0,7.484170198E-1,8.296260238E-1
3.717190808E0,-1.516985059E0,7.484170198E-1,8.296260238E-1
3.719730963E0,-1.516985059E0,7.484170198E-1,8.296260238E-1
3.722270932E0,-1.516985059E0,7.484170198E-1,8.296260238E-1
3.724810895E0,-1.516985059E0,7.484170198E-1,8.296260238E-1
3.727351049E0,-1.488005996E0,6.945180297E-1,8.406339884E-1
3.729891202E0,-1.488005996E0,6.945180297E-1,8.406339884E-1
3.732431976E0,-1.488005996E0,6.945180297E-1,8.406339884E-1
3.734972745E0,-1.488005996E0,6.945180297E-1,8.406339884E-1
3.737512783E0,-1.488005996E0,6.945180297E-1,8.406339884E-1
3.740052822E0,-1.488005996E0,6.945180297E-1,8.406339884E-1
3.742592808E0,-1.488005996E0,6.945180297E-1,8.406339884E-1
3.745132769E0,-1.488005996E0,6.945180297E-1,8.406339884E-1
3.747673116E0,-1.316594958E0,6.004300117E-1,7.593920231E-1
3.750213461E0,-1.316594958E0,6.004300117E-1,7.593920231E-1
3.752753437E0,-1.316594958E0,6.004300117E-1,7.593920231E-1
3.755293438E0,-1.316594958E0,6.004300117E-1,7.593920231E-1
3.757833592E0,-1.316594958E0,6.004300117E-1,7.593920231E-1
3.760373745E0,-1.316594958E0,6.004300117E-1,7.593920231E-1
3.762914327E0,-1.316594958E0,6.004300117E-1,7.593920231E-1
3.765454904E0,-1.316594958E0,6.004300117E-1,7.593920231E-1
3.767995365E0,-1.099671960E0,4.195069969E-1,6.834260225E-1
3.770535828E0,-1.099671960E0,4.195069969E-1,6.834260225E-1
3.773076304E0,-1.099671960E0,4.195069969E-1,6.834260225E-1
3.775616765E0,-1.099671960E0,4.195069969E-1,6.834260225E-1
3.778158189E0,-1.099671960E0,4.195069969E-1,6.834260225E-1
3.780699612E0,-1.099671960E0,4.195069969E-1,6.834260225E-1
3.783240771E0,-8.586090207E-1,2.430730015E-1,5.743979812E-1
3.785781964E0,-8.586090207E-1,2.430730015E-1,5.743979812E-1
3.788322271E0,-8.586090207E-1,2.430730015E-1,5.743979812E-1
3.790862578E0,-8.586090207E-1,2.430730015E-1,5.743979812E-1
3.793403223E0,-8.586090207E-1,2.430730015E-1,5.743979812E-1
3.795943876E0,-8.586090207E-1,2.430730015E-1,5.743979812E-1
3.798484337E0,-8.586090207E-1,2.430730015E-1,5.743979812E-1
3.801024800E0,-8.586090207E-1,2.430730015E-1,5.743979812E-1
3.803565426E0,-6.923300028E-1,2.156790048E-1,4.359349906E-1
3.806106041E0,-6.923300028E-1,2.156790048E-1,4.359349906E-1
3.808646616E0,-6.923300028E-1,2.156790048E-1,4.359349906E-1
3.811187195E0,-6.923300028E-1,2.156790048E-1,4.359349906E-1
3.813727801E0,-6.923300028E-1,2.156790048E-1,4.359349906E-1
3.816268416E0,-6.923300028E-1,2.156790048E-1,4.359349906E-1
3.818808760E0,-6.923300028E-1,2.156790048E-1,4.359349906E-1
3.821349107E0,-6.923300028E-1,2.156790048E-1,4.359349906E-1
3.823889983E0,-3.433920145E-1,2.973499894E-1,1.023529992E-1
3.826430866E0,-3.433920145E-1,2.973499894E-1,1.023529992E-1
3.828971673E0,-3.433920145E-1,2.973499894E-1,1.023529992E-1
3.831512482E0,-3.433920145E-1,2.973499894E-1,1.023529992E-1
3.834052934E0,-3.433920145E-1,2.973499894E-1,1.023529992E-1
3.836593357E0,-3.433920145E-1,2.973499894E-1,1.023529992E-1
3.839133704E0,-3.433920145E-1,2.973499894E-1,1.023529992E-1
3.841674049E0,-3.433920145E-1,2.973499894E-1,1.023529992E-1
3.844215127E0,6.724999845E-2,8.725900203E-2,-1.449449956E-1
3.846756204E0,6.724999845E-2,8.725900203E-2,-1.449449956E-1
3.849296963E0,6.724999845E-2,8.725900203E-2,-1.449449956E-1
3.851837732E0,6.724999845E-2,8.725900203E-2,-1.449449956E-1
3.854378618E0,6.724999845E-2,8.725900203E-2,-1.449449956E-1
3.856919503E0,6.724999845E-2,8.725900203E-2,-1.449449956E-1
3.859460477E0,6.724999845E-2,8.725900203E-2,-1.449449956E-1
3.862001440E0,6.724999845E-2,8.725900203E-2,-1.449449956E-1
3.864542978E0,2.550100088E-1,-1.301299930E-1,-2.234639972E-1
3.867084517E0,2.550100088E-1,-1.301299930E-1,-2.234639972E-1
3.869625549E0,2.550100088E-1,-1.301299930E-1,-2.234639972E-1
3.872166588E0,2.550100088E-1,-1.301299930E-1,-2.234639972E-1
3.874706780E0,2.550100088E-1,-1.301299930E-1,-2.234639972E-1
3.877246973E0,2.550100088E-1,-1.301299930E-1,-2.234639972E-1
3.879788161E0,2.550100088E-1,-1.301299930E-1,-2.234639972E-1
3.882329352E0,2.550100088E-1,-1.301299930E-1,-2.234639972E-1
3.884869813E0,2.367070019E-1,-7.826399803E-2,-2.306549996E-1
3.887410276E0,2.367070019E-1,-7.826399803E-2,-2.306549996E-1
3.889951204E0,2.367070019E-1,-7.826399803E-2,-2.306549996E-1
3.892492127E0,2.367070019E-1,-7.826399803E-2,-2.306549996E-1
3.895032626E0,2.367070019E-1,-7.826399803E-2,-2.306549996E-1
3.897573127E0,2.367070019E-1,-7.826399803E-2,-2.306549996E-1
3.900113704E0,2.367070019E-1,-7.826399803E-2,-2.306549996E-1
3.902654281E0,2.367070019E-1,-7.826399803E-2,-2.306549996E-1
3.905195395E0,1.988659948E-1,5.710599944E-2,-2.531549931E-1
3.907736512E0,1.988659948E-1,5.710599944E-2,-2.531549931E-1
3.910277549E0,1.988659948E-1,5.710599944E-2,-2.531549931E-1
3.912818588E0,1.988659948E-1,5.710599944E-2,-2.531549931E-1
3.915359060E0,1.988659948E-1,5.710599944E-2,-2.531549931E-1
3.917899559E0,1.988659948E-1,5.710599944E-2,-2.531549931E-1
3.920440444E0,1.988659948E-1,5.710599944E-2,-2.531549931E-1
3.922981329E0,1.988659948E-1,5.710599944E-2,-2.531549931E-1
3.925522006E0,1.720950007E-1,4.364660084E-1,-3.958269954E-1
3.928062661E0,1.720950007E-1,4.364660084E-1,-3.958269954E-1
3.930604046E0,1.720950007E-1,4.364660084E-1,-3.958269954E-1
3.933145429E0,1.720950007E-1,4.364660084E-1,-3.958269954E-1
3.935686351E0,1.720950007E-1,4.364660084E-1,-3.958269954E-1
3.938227276E0,1.720950007E-1,4.364660084E-1,-3.958269954E-1
3.940768160E0,1.720950007E-1,4.364660084E-1,-3.958269954E-1
3.943309045E0,1.720950007E-1,4.364660084E-1,-3.958269954E-1
3.945849829E0,2.334689945E-1,4.254229963E-1,-4.709219933E-1
3.948390598E0,2.334689945E-1,4.254229963E-1,-4.709219933E-1
3.950930290E0,2.334689945E-1,4.254229963E-1,-4.709219933E-1
3.953469983E0,2.334689945E-1,4.254229963E-1,-4.709219933E-1
3.956010208E0,2.334689945E-1,4.254229963E-1,-4.709219933E-1
3.958550401E0,2.334689945E-1,4.254229963E-1,-4.709219933E-1
3.961091285E0,2.334689945E-1,4.254229963E-1,-4.709219933E-1
3.963632170E0,2.334689945E-1,4.254229963E-1,-4.709219933E-1
3.966172472E0,2.992259860E-1,1.434430033E-1,-4.527719915E-1
3.968712781E0,2.992259860E-1,1.434430033E-1,-4.527719915E-1
3.971253242E0,2.992259860E-1,1.434430033E-1,-4.527719915E-1
3.973793703E0,2.992259860E-1,1.434430033E-1,-4.527719915E-1
3.976334968E0,2.992259860E-1,1.434430033E-1,-4.527719915E-1
3.978876237E0,2.992259860E-1,1.434430033E-1,-4.527719915E-1
3.981416967E0,2.992259860E-1,1.434430033E-1,-4.527719915E-1
3.983957700E0,2.992259860E-1,1.434430033E-1,-4.527719915E-1
3.986497285E0,4.330970049E-1,-4.481169879E-1,-3.073030114E-1
3.989036862E0,4.330970049E-1,-4.481169879E-1,-3.073030114E-1
3.991577017E0,4.330970049E-1,-4.481169879E-1,-3.073030114E-1
3.994117170E0,4.330970049E-1,-4.481169879E-1,-3.073030114E-1
3.996657924E0,4.330970049E-1,-4.481169879E-1,-3.073030114E-1
3.999198655E0,4.330970049E-1,-4.481169879E-1,-3.073030114E-1
4.001739116E0,4.330970049E-1,-4.481169879E-1,-3.073030114E-1
4.004279579E0,4.330970049E-1,-4.481169879E-1,-3.073030114E-1
4.006820329E0,3.647359908E-1,-4.415180087E-1,-1.910749972E-1
4.009361098E0,3.647359908E-1,-4.415180087E-1,-1.910749972E-1
4.011901866E0,3.647359908E-1,-4.415180087E-1,-1.910749972E-1
4.014442637E0,3.647359908E-1,-4.415180087E-1,-1.910749972E-1
4.016982962E0,3.647359908E-1,-4.415180087E-1,-1.910749972E-1
4.019523309E0,3.647359908E-1,-4.415180087E-1,-1.910749972E-1
4.022063156E0,3.647359908E-1,-4.415180087E-1,-1.910749972E-1
4.024603001E0,3.647359908E-1,-4.415180087E-1,-1.910749972E-1
4.027142795E0,3.617469966E-1,-3.217850029E-1,-1.535660028E-1
4.029682602E0,3.617469966E-1,-3.217850029E-1,-1.535660028E-1
4.032222757E0,3.617469966E-1,-3.217850029E-1,-1.535660028E-1
4.034762910E0,3.617469966E-1,-3.217850029E-1,-1.535660028E-1
4.037302929E0,3.617469966E-1,-3.217850029E-1,-1.535660028E-1
4.039842930E0,3.617469966E-1,-3.217850029E-1,-1.535660028E-1
4.042382968E0,3.617469966E-1,-3.217850029E-1,-1.535660028E-1
4.044923007E0,3.617469966E-1,-3.217850029E-1,-1.535660028E-1
4.047463449E0,4.510590136E-1,-2.118259966E-1,-1.771969944E-1
4.050003872E0,4.510590136E-1,-2.118259966E-1,-1.771969944E-1
4.052544333E0,4.510590136E-1,-2.118259966E-1,-1.771969944E-1
4.055084796E0,4.510590136E-1,-2.118259966E-1,-1.771969944E-1
4.057624833E0,4.510590136E-1,-2.118259966E-1,-1.771969944E-1
4.060164872E0,4.510590136E-1,-2.118259966E-1,-1.771969944E-1
4.062704680E0,4.510590136E-1,-2.118259966E-1,-1.771969944E-1
4.065244487E0,4.510590136E-1,-2.118259966E-1,-1.771969944E-1
4.067784689E0,6.271709800E-1,1.380700022E-1,-4.223330021E-1
4.070324882E0,6.271709800E-1,1.380700022E-1,-4.223330021E-1
4.072865034E0,6.271709800E-1,1.380700022E-1,-4.223330021E-1
4.075405189E0,6.271709800E-1,1.380700022E-1,-4.223330021E-1
4.077946247E0,6.271709800E-1,1.380700022E-1,-4.223330021E-1
4.080487284E0,6.271709800E-1,1.380700022E-1,-4.223330021E-1
4.083027630E0,5.372350216E-1,8.273100257E-1,-6.453530192E-1
4.085567977E0,5.372350216E-1,8.273100257E-1,-6.453530192E-1
4.088108141E0,5.372350216E-1,8.273100257E-1,-6.453530192E-1
4.090648294E0,5.372350216E-1,8.273100257E-1,-6.453530192E-1
4.093188872E0,5.372350216E-1,8.273100257E-1,-6.453530192E-1
4.095729449E0,5.372350216E-1,8.273100257E-1,-6.453530192E-1
4.098270072E0,5.372350216E-1,8.273100257E-1,-6.453530192E-1
4.100810689E0,5.372350216E-1,8.273100257E-1,-6.453530192E-1
4.103351649E0,6.016229987E-1,1.313704014E0,-8.787860274E-1
4.105892612E0,6.016229987E-1,1.313704014E0,-8.787860274E-1
4.108433621E0,6.016229987E-1,1.313704014E0,-8.787860274E-1
4.110974660E0,6.016229987E-1,1.313704014E0,-8.787860274E-1
4.113515466E0,6.016229987E-1,1.313704014E0,-8.787860274E-1
4.116056275E0,6.016229987E-1,1.313704014E0,-8.787860274E-1
4.118597289E0,6.016229987E-1,1.313704014E0,-8.787860274E-1
4.121138328E0,6.016229987E-1,1.313704014E0,-8.787860274E-1
4.123679403E0,5.700060129E-1,1.685075045E0,-9.965699911E-1
4.126220482E0,5.700060129E-1,1.685075045E0,-9.965699911E-1
4.128761755E0,5.700060129E-1,1.685075045E0,-9.965699911E-1
4.131303024E0,5.700060129E-1,1.685075045E0,-9.965699911E-1
4.133843792E0,5.700060129E-1,1.685075045E0,-9.965699911E-1
4.136384563E0,5.700060129E-1,1.685075045E0,-9.965699911E-1
4.138925612E0,5.700060129E-1,1.685075045E0,-9.965699911E-1
4.141466649E0,5.700060129E-1,1.685075045E0,-9.965699911E-1
4.144006687E0,4.906010032E-1,1.932839036E0,-1.045537949E0
4.146546726E0,4.906010032E-1,1.932839036E0,-1.045537949E0
4.149086847E0,4.906010032E-1,1.932839036E0,-1.045537949E0
4.151626962E0,4.906010032E-1,1.932839036E0,-1.045537949E0
4.154167000E0,4.906010032E-1,1.932839036E0,-1.045537949E0
4.156707039E0,4.906010032E-1,1.932839036E0,-1.045537949E0
4.159247188E0,4.906010032E-1,1.932839036E0,-1.045537949E0
4.161787341E0,4.906010032E-1,1.932839036E0,-1.045537949E0
4.164327495E0,4.812990129E-1,1.831060052E0,-9.678080082E-1
4.166867650E0,4.812990129E-1,1.831060052E0,-9.678080082E-1
4.169408273E0,4.812990129E-1,1.831060052E0,-9.678080082E-1
4.171948890E0,4.812990129E-1,1.831060052E0,-9.678080082E-1
4.174489504E0,4.812990129E-1,1.831060052E0,-9.678080082E-1
4.177030121E0,4.812990129E-1,1.831060052E0,-9.678080082E-1
4.179571510E0,4.812990129E-1,1.831060052E0,-9.678080082E-1
4.182112895E0,4.812990129E-1,1.831060052E0,-9.678080082E-1
4.184653817E0,4.341380000E-1,1.704342961E0,-8.520789742E-1
4.187194740E0,4.341380000E-1,1.704342961E0,-8.520789742E-1
4.189735317E0,4.341380000E-1,1.704342961E0,-8.520789742E-1
4.192275894E0,4.341380000E-1,1.704342961E0,-8.520789742E-1
4.194815587E0,4.341380000E-1,1.704342961E0,-8.520789742E-1
4.197355280E0,4.341380000E-1,1.704342961E0,-8.520789742E-1
4.199895607E0,4.341380000E-1,1.704342961E0,-8.520789742E-1
4.202435952E0,4.341380000E-1,1.704342961E0,-8.520789742E-1
4.204975759E0,3.853630126E-1,1.587815046E0,-7.301570177E-1
4.207515568E0,3.853630126E-1,1.587815046E0,-7.301570177E-1
4.210055434E0,3.853630126E-1,1.587815046E0,-7.301570177E-1
4.212595319E0,3.853630126E-1,1.587815046E0,-7.301570177E-1
4.215136049E0,3.853630126E-1,1.587815046E0,-7.301570177E-1
4.217676780E0,3.853630126E-1,1.587815046E0,-7.301570177E-1
4.220216946E0,3.853630126E-1,1.587815046E0,-7.301570177E-1
4.222757101E0,3.853630126E-1,1.587815046E0,-7.301570177E-1
4.225296986E0,5.597990155E-1,9.242720008E-1,-4.189589918E-1
4.227836871E0,5.597990155E-1,9.242720008E-1,-4.189589918E-1
4.230377314E0,5.597990155E-1,9.242720008E-1,-4.189589918E-1
4.232917775E0,5.597990155E-1,9.242720008E-1,-4.189589918E-1
4.235458235E0,5.597990155E-1,9.242720008E-1,-4.189589918E-1
4.237998698E0,5.597990155E-1,9.242720008E-1,-4.189589918E-1
4.240538951E0,5.597990155E-1,9.242720008E-1,-4.189589918E-1
4.243079222E0,5.597990155E-1,9.242720008E-1,-4.189589918E-1
4.245618798E0,7.346019745E-1,1.433580071E-1,-4.288300127E-2
4.248158375E0,7.346019745E-1,1.433580071E-1,-4.288300127E-2
4.250698208E0,7.346019745E-1,1.433580071E-1,-4.288300127E-2
4.253238053E0,7.346019745E-1,1.433580071E-1,-4.288300127E-2
4.255778476E0,7.346019745E-1,1.433580071E-1,-4.288300127E-2
4.258318899E0,7.346019745E-1,1.433580071E-1,-4.288300127E-2
4.260858937E0,7.346019745E-1,1.433580071E-1,-4.288300127E-2
4.263398976E0,7.346019745E-1,1.433580071E-1,-4.288300127E-2
4.265938977E0,8.163949847E-1,-9.480680227E-1,5.694590211E-1
4.268478976E0,8.163949847E-1,-9.480680227E-1,5.694590211E-1
4.271018992E0,8.163949847E-1,-9.480680227E-1,5.694590211E-1
4.273558991E0,8.163949847E-1,-9.480680227E-1,5.694590211E-1
4.276099453E0,8.163949847E-1,-9.480680227E-1,5.694590211E-1
4.278639914E0,8.163949847E-1,-9.480680227E-1,5.694590211E-1
4.281179611E0,8.163949847E-1,-9.480680227E-1,5.694590211E-1
4.283719304E0,8.163949847E-1,-9.480680227E-1,5.694590211E-1
4.286259112E0,5.794879794E-1,-1.005851030E0,7.791889906E-1
4.288798919E0,5.794879794E-1,-1.005851030E0,7.791889906E-1
4.291338644E0,5.794879794E-1,-1.005851030E0,7.791889906E-1
4.293878377E0,5.794879794E-1,-1.005851030E0,7.791889906E-1
4.296418839E0,5.794879794E-1,-1.005851030E0,7.791889906E-1
4.298959300E0,5.794879794E-1,-1.005851030E0,7.791889906E-1
4.301499596E0,5.794879794E-1,-1.005851030E0,7.791889906E-1
4.304039905E0,5.794879794E-1,-1.005851030E0,7.791889906E-1
4.306580636E0,5.411580205E-1,-1.012413979E0,8.131700158E-1
4.309121367E0,5.411580205E-1,-1.012413979E0,8.131700158E-1
4.311661404E0,5.411580205E-1,-1.012413979E0,8.131700158E-1
4.314201443E0,5.411580205E-1,-1.012413979E0,8.131700158E-1
4.316741713E0,5.411580205E-1,-1.012413979E0,8.131700158E-1
4.319281982E0,5.411580205E-1,-1.012413979E0,8.131700158E-1
4.321821991E0,5.411580205E-1,-1.012413979E0,8.131700158E-1
4.324361992E0,5.411580205E-1,-1.012413979E0,8.131700158E-1
4.326902453E0,4.906780124E-1,-8.553839922E-1,7.308390141E-1
4.329442914E0,4.906780124E-1,-8.553839922E-1,7.308390141E-1
4.331983198E0,4.906780124E-1,-8.553839922E-1,7.308390141E-1
4.334523507E0,4.906780124E-1,-8.553839922E-1,7.308390141E-1
4.337063660E0,4.906780124E-1,-8.553839922E-1,7.308390141E-1
4.339603813E0,4.906780124E-1,-8.553839922E-1,7.308390141E-1
4.342144006E0,4.906780124E-1,-8.553839922E-1,7.308390141E-1
4.344684199E0,4.906780124E-1,-8.553839922E-1,7.308390141E-1
4.347224352E0,4.488050044E-1,-6.998770237E-1,6.386889815E-1
4.349764507E0,4.488050044E-1,-6.998770237E-1,6.386889815E-1
4.352305598E0,4.488050044E-1,-6.998770237E-1,6.386889815E-1
4.354846675E0,4.488050044E-1,-6.998770237E-1,6.386889815E-1
4.357387135E0,4.488050044E-1,-6.998770237E-1,6.386889815E-1
4.359927598E0,4.488050044E-1,-6.998770237E-1,6.386889815E-1
4.362467266E0,4.488050044E-1,-6.998770237E-1,6.386889815E-1
4.365006919E0,4.488050044E-1,-6.998770237E-1,6.386889815E-1
4.367546920E0,4.111930132E-1,-6.057620049E-1,5.853149891E-1
4.370086919E0,4.111930132E-1,-6.057620049E-1,5.853149891E-1
4.372626765E0,4.111930132E-1,-6.057620049E-1,5.853149891E-1
4.375166612E0,4.111930132E-1,-6.057620049E-1,5.853149891E-1
4.377707075E0,4.111930132E-1,-6.057620049E-1,5.853149891E-1
4.380247536E0,4.111930132E-1,-6.057620049E-1,5.853149891E-1
4.382787197E0,4.111930132E-1,-6.057620049E-1,5.853149891E-1
4.385326890E0,4.111930132E-1,-6.057620049E-1,5.853149891E-1
4.387866468E0,3.796339929E-1,-5.013980269E-1,5.253019929E-1
4.390406045E0,3.796339929E-1,-5.013980269E-1,5.253019929E-1
4.392945290E0,3.796339929E-1,-5.013980269E-1,5.253019929E-1
4.395484521E0,3.796339929E-1,-5.013980269E-1,5.253019929E-1
4.398024328E0,3.796339929E-1,-5.013980269E-1,5.253019929E-1
4.400564135E0,3.796339929E-1,-5.013980269E-1,5.253019929E-1
4.403104150E0,3.505899906E-1,-4.042940140E-1,4.800089896E-1
4.405644151E0,3.505899906E-1,-4.042940140E-1,4.800089896E-1
4.408184611E0,3.505899906E-1,-4.042940140E-1,4.800089896E-1
4.410725074E0,3.505899906E-1,-4.042940140E-1,4.800089896E-1
4.413265376E0,3.505899906E-1,-4.042940140E-1,4.800089896E-1
4.415805685E0,3.505899906E-1,-4.042940140E-1,4.800089896E-1
4.418346454E0,3.505899906E-1,-4.042940140E-1,4.800089896E-1
4.420887223E0,3.505899906E-1,-4.042940140E-1,4.800089896E-1
4.423427976E0,2.022780031E-1,1.965600066E-2,3.214490116E-1
4.425968747E0,2.022780031E-1,1.965600066E-2,3.214490116E-1
4.428509207E0,2.022780031E-1,1.965600066E-2,3.214490116E-1
4.431049670E0,2.022780031E-1,1.965600066E-2,3.214490116E-1
4.433590478E0,2.022780031E-1,1.965600066E-2,3.214490116E-1
4.436131285E0,2.022780031E-1,1.965600066E-2,3.214490116E-1
4.438672015E0,2.022780031E-1,1.965600066E-2,3.214490116E-1
4.441212746E0,2.022780031E-1,1.965600066E-2,3.214490116E-1
4.443753516E0,1.801580042E-1,1.364129931E-1,2.707949877E-1
4.446294285E0,1.801580042E-1,1.364129931E-1,2.707949877E-1
4.448834938E0,1.801580042E-1,1.364129931E-1,2.707949877E-1
4.451375593E0,1.801580042E-1,1.364129931E-1,2.707949877E-1
4.453916026E0,1.801580042E-1,1.364129931E-1,2.707949877E-1
4.456456449E0,1.801580042E-1,1.364129931E-1,2.707949877E-1
4.458996795E0,1.801580042E-1,1.364129931E-1,2.707949877E-1
4.461537140E0,1.801580042E-1,1.364129931E-1,2.707949877E-1
4.464078026E0,1.634249985E-1,2.170190066E-1,2.259390056E-1
4.466618911E0,1.634249985E-1,2.170190066E-1,2.259390056E-1
4.469160506E0,1.634249985E-1,2.170190066E-1,2.259390056E-1
4.471702083E0,1.634249985E-1,2.170190066E-1,2.259390056E-1
4.474243774E0,1.634249985E-1,2.170190066E-1,2.259390056E-1
4.476785467E0,1.634249985E-1,2.170190066E-1,2.259390056E-1
4.479325760E0,1.634249985E-1,2.170190066E-1,2.259390056E-1
4.481866069E0,1.634249985E-1,2.170190066E-1,2.259390056E-1
4.484406377E0,1.341730058E-1,3.085409999E-1,1.827380061E-1
4.486946684E0,1.341730058E-1,3.085409999E-1,1.827380061E-1
4.489487271E0,1.341730058E-1,3.085409999E-1,1.827380061E-1
4.492027886E0,1.341730058E-1,3.085409999E-1,1.827380061E-1
4.494568963E0,1.341730058E-1,3.085409999E-1,1.827380061E-1
4.497110040E0,1.341730058E-1,3.085409999E-1,1.827380061E-1
4.499650654E0,1.341730058E-1,3.085409999E-1,1.827380061E-1
4.502191271E0,1.341730058E-1,3.085409999E-1,1.827380061E-1
4.504731540E0,9.775199741E-2,4.049890041E-1,1.388110071E-1
4.507271809E0,9.775199741E-2,4.049890041E-1,1.388110071E-1
4.509812021E0,9.775199741E-2,4.049890041E-1,1.388110071E-1
4.512352212E0,9.775199741E-2,4.049890041E-1,1.388110071E-1
4.514893252E0,9.775199741E-2,4.049890041E-1,1.388110071E-1
4.517434289E0,9.775199741E-2,4.049890041E-1,1.388110071E-1
4.519975102E0,9.775199741E-2,4.049890041E-1,1.388110071E-1
4.522515911E0,9.775199741E-2,4.049890041E-1,1.388110071E-1
4.525056834E0,8.294799924E-2,4.982939959E-1,7.280600071E-2
4.527597757E0,8.294799924E-2,4.982939959E-1,7.280600071E-2
4.530138063E0,8.294799924E-2,4.982939959E-1,7.280600071E-2
4.532678372E0,8.294799924E-2,4.982939959E-1,7.280600071E-2
4.535219103E0,8.294799924E-2,4.982939959E-1,7.280600071E-2
4.537759834E0,8.294799924E-2,4.982939959E-1,7.280600071E-2
4.540300631E0,8.294799924E-2,4.982939959E-1,7.280600071E-2
4.542841438E0,8.294799924E-2,4.982939959E-1,7.280600071E-2
4.545382361E0,9.649900347E-2,5.872979760E-1,-1.290499978E-2
4.547923284E0,9.649900347E-2,5.872979760E-1,-1.290499978E-2
4.550464645E0,9.649900347E-2,5.872979760E-1,-1.290499978E-2
4.553005992E0,9.649900347E-2,5.872979760E-1,-1.290499978E-2
4.555547222E0,9.649900347E-2,5.872979760E-1,-1.290499978E-2
4.558088453E0,9.649900347E-2,5.872979760E-1,-1.290499978E-2
4.560629419E0,9.649900347E-2,5.872979760E-1,-1.290499978E-2
4.563170380E0,9.649900347E-2,5.872979760E-1,-1.290499978E-2
4.565711920E0,1.219710037E-1,6.683589816E-1,-1.087009981E-1
4.568253457E0,1.219710037E-1,6.683589816E-1,-1.087009981E-1
4.570794953E0,1.219710037E-1,6.683589816E-1,-1.087009981E-1
4.573336454E0,1.219710037E-1,6.683589816E-1,-1.087009981E-1
4.575879070E0,1.219710037E-1,6.683589816E-1,-1.087009981E-1
4.578421685E0,1.219710037E-1,6.683589816E-1,-1.087009981E-1
4.580963058E0,1.219710037E-1,6.683589816E-1,-1.087009981E-1
4.583504443E0,1.219710037E-1,6.683589816E-1,-1.087009981E-1
4.586045559E0,1.514759958E-1,7.343109846E-1,-1.961400062E-1
4.588586674E0,1.514759958E-1,7.343109846E-1,-1.961400062E-1
4.591127458E0,1.514759958E-1,7.343109846E-1,-1.961400062E-1
4.593668227E0,1.514759958E-1,7.343109846E-1,-1.961400062E-1
4.596209304E0,1.514759958E-1,7.343109846E-1,-1.961400062E-1
4.598750381E0,1.514759958E-1,7.343109846E-1,-1.961400062E-1
4.601290389E0,1.514759958E-1,7.343109846E-1,-1.961400062E-1
4.603830390E0,1.514759958E-1,7.343109846E-1,-1.961400062E-1
4.606371276E0,1.625220031E-1,7.891860008E-1,-2.607930005E-1
4.608912161E0,1.625220031E-1,7.891860008E-1,-2.607930005E-1
4.611453588E0,1.625220031E-1,7.891860008E-1,-2.607930005E-1
4.613995011E0,1.625220031E-1,7.891860008E-1,-2.607930005E-1
4.616535626E0,1.625220031E-1,7.891860008E-1,-2.607930005E-1
4.619076243E0,1.625220031E-1,7.891860008E-1,-2.607930005E-1
4.621617487E0,1.625220031E-1,7.891860008E-1,-2.607930005E-1
4.624158718E0,1.625220031E-1,7.891860008E-1,-2.607930005E-1
4.626700371E0,1.561850011E-1,8.356890082E-1,-3.061249852E-1
4.629242026E0,1.561850011E-1,8.356890082E-1,-3.061249852E-1
4.631782745E0,1.561850011E-1,8.356890082E-1,-3.061249852E-1
4.634323516E0,1.561850011E-1,8.356890082E-1,-3.061249852E-1
4.636864015E0,1.561850011E-1,8.356890082E-1,-3.061249852E-1
4.639404516E0,1.561850011E-1,8.356890082E-1,-3.061249852E-1
4.641945411E0,1.561850011E-1,8.356890082E-1,-3.061249852E-1
4.644486296E0,1.561850011E-1,8.356890082E-1,-3.061249852E-1
4.647027064E0,1.743859947E-1,7.785639763E-1,-3.026010096E-1
4.649567833E0,1.743859947E-1,7.785639763E-1,-3.026010096E-1
4.652108150E0,1.743859947E-1,7.785639763E-1,-3.026010096E-1
4.654648459E0,1.743859947E-1,7.785639763E-1,-3.026010096E-1
4.657188805E0,1.743859947E-1,7.785639763E-1,-3.026010096E-1
4.659729150E0,1.743859947E-1,7.785639763E-1,-3.026010096E-1
4.662269616E0,1.743859947E-1,7.785639763E-1,-3.026010096E-1
4.664810079E0,1.743859947E-1,7.785639763E-1,-3.026010096E-1
4.667350655E0,2.137179971E-1,6.388090253E-1,-2.596600056E-1
4.669891232E0,2.137179971E-1,6.388090253E-1,-2.596600056E-1
4.672432342E0,2.137179971E-1,6.388090253E-1,-2.596600056E-1
4.674973459E0,2.137179971E-1,6.388090253E-1,-2.596600056E-1
4.677513572E0,2.137179971E-1,6.388090253E-1,-2.596600056E-1
4.680053689E0,2.137179971E-1,6.388090253E-1,-2.596600056E-1
4.682594180E0,2.137179971E-1,6.388090253E-1,-2.596600056E-1
4.685134679E0,2.137179971E-1,6.388090253E-1,-2.596600056E-1
4.687675294E0,2.182019949E-1,4.982790053E-1,-1.971359998E-1
4.690215911E0,2.182019949E-1,4.982790053E-1,-1.971359998E-1
4.692756641E0,2.182019949E-1,4.982790053E-1,-1.971359998E-1
4.695297372E0,2.182019949E-1,4.982790053E-1,-1.971359998E-1
4.697838641E0,2.182019949E-1,4.982790053E-1,-1.971359998E-1
4.700379910E0,2.182019949E-1,4.982790053E-1,-1.971359998E-1
4.702921116E0,2.182019949E-1,4.982790053E-1,-1.971359998E-1
4.705462309E0,2.182019949E-1,4.982790053E-1,-1.971359998E-1
4.708002809E0,1.848369986E-1,4.256969988E-1,-1.545400023E-1
4.710543310E0,1.848369986E-1,4.256969988E-1,-1.545400023E-1
4.713084637E0,1.848369986E-1,4.256969988E-1,-1.545400023E-1
4.715625982E0,1.848369986E-1,4.256969988E-1,-1.545400023E-1
4.718167366E0,1.848369986E-1,4.256969988E-1,-1.545400023E-1
4.720708751E0,1.848369986E-1,4.256969988E-1,-1.545400023E-1
4.723249664E0,1.470769942E-1,3.101609945E-1,-8.715999871E-2
4.725790589E0,1.470769942E-1,3.101609945E-1,-8.715999871E-2
4.728331704E0,1.470769942E-1,3.101609945E-1,-8.715999871E-2
4.730872819E0,1.470769942E-1,3.101609945E-1,-8.715999871E-2
4.733413732E0,1.470769942E-1,3.101609945E-1,-8.715999871E-2
4.735954655E0,1.470769942E-1,3.101609945E-1,-8.715999871E-2
4.738495425E0,1.470769942E-1,3.101609945E-1,-8.715999871E-2
4.741036194E0,1.470769942E-1,3.101609945E-1,-8.715999871E-2
4.743576926E0,1.093610004E-1,2.151329964E-1,-3.457999974E-2
4.746117657E0,1.093610004E-1,2.151329964E-1,-3.457999974E-2
4.748658157E0,1.093610004E-1,2.151329964E-1,-3.457999974E-2
4.751198656E0,1.093610004E-1,2.151329964E-1,-3.457999974E-2
4.753738954E0,1.093610004E-1,2.151329964E-1,-3.457999974E-2
4.756279261E0,1.093610004E-1,2.151329964E-1,-3.457999974E-2
4.758819569E0,1.093610004E-1,2.151329964E-1,-3.457999974E-2
4.761359876E0,1.093610004E-1,2.151329964E-1,-3.457999974E-2
4.763900428E0,8.030600101E-2,7.077199966E-2,4.293400049E-2
4.766441005E0,8.030600101E-2,7.077199966E-2,4.293400049E-2
4.768981775E0,8.030600101E-2,7.077199966E-2,4.293400049E-2
4.771522544E0,8.030600101E-2,7.077199966E-2,4.293400049E-2
4.774063937E0,8.030600101E-2,7.077199966E-2,4.293400049E-2
4.776605322E0,8.030600101E-2,7.077199966E-2,4.293400049E-2
4.779145976E0,8.030600101E-2,7.077199966E-2,4.293400049E-2
4.781686631E0,8.030600101E-2,7.077199966E-2,4.293400049E-2
4.784227554E0,6.092499942E-2,-7.166700065E-2,1.178390011E-1
4.786768477E0,6.092499942E-2,-7.166700065E-2,1.178390011E-1
4.789309390E0,6.092499942E-2,-7.166700065E-2,1.178390011E-1
4.791850313E0,6.092499942E-2,-7.166700065E-2,1.178390011E-1
4.794391543E0,6.092499942E-2,-7.166700065E-2,1.178390011E-1
4.796932774E0,6.092499942E-2,-7.166700065E-2,1.178390011E-1
4.799473249E0,6.092499942E-2,-7.166700065E-2,1.178390011E-1
4.802013712E0,6.092499942E-2,-7.166700065E-2,1.178390011E-1
4.804554136E0,4.315700009E-2,-1.455760002E-1,1.579950005E-1
4.807094559E0,4.315700009E-2,-1.455760002E-1,1.579950005E-1
4.809635193E0,4.315700009E-2,-1.455760002E-1,1.579950005E-1
4.812175808E0,4.315700009E-2,-1.455760002E-1,1.579950005E-1
4.814716731E0,4.315700009E-2,-1.455760002E-1,1.579950005E-1
4.817257654E0,4.315700009E-2,-1.455760002E-1,1.579950005E-1
4.819798769E0,4.315700009E-2,-1.455760002E-1,1.579950005E-1
4.822339884E0,4.315700009E-2,-1.455760002E-1,1.579950005E-1
4.824881077E0,9.177999571E-3,-1.705629975E-1,1.687410027E-1
4.827422270E0,9.177999571E-3,-1.705629975E-1,1.687410027E-1
4.829964015E0,9.177999571E-3,-1.705629975E-1,1.687410027E-1
4.832505746E0,9.177999571E-3,-1.705629975E-1,1.687410027E-1
4.835046822E0,9.177999571E-3,-1.705629975E-1,1.687410027E-1
4.837587899E0,9.177999571E-3,-1.705629975E-1,1.687410027E-1
4.840128924E0,9.177999571E-3,-1.705629975E-1,1.687410027E-1
4.842669961E0,9.177999571E-3,-1.705629975E-1,1.687410027E-1
4.845210923E0,-1.928699948E-2,-1.611800045E-1,1.467249990E-1
4.847751886E0,-1.928699948E-2,-1.611800045E-1,1.467249990E-1
4.850292929E0,-1.928699948E-2,-1.611800045E-1,1.467249990E-1
4.852833966E0,-1.928699948E-2,-1.611800045E-1,1.467249990E-1
4.855374619E0,-1.928699948E-2,-1.611800045E-1,1.467249990E-1
4.857915274E0,-1.928699948E-2,-1.611800045E-1,1.467249990E-1
4.860456300E0,-1.928699948E-2,-1.611800045E-1,1.467249990E-1
4.862997337E0,-1.928699948E-2,-1.611800045E-1,1.467249990E-1
4.865537798E0,-2.374799922E-2,-1.582850069E-1,1.209160015E-1
4.868078261E0,-2.374799922E-2,-1.582850069E-1,1.209160015E-1
4.870619684E0,-2.374799922E-2,-1.582850069E-1,1.209160015E-1
4.873161107E0,-2.374799922E-2,-1.582850069E-1,1.209160015E-1
4.875702452E0,-2.374799922E-2,-1.582850069E-1,1.209160015E-1
4.878243799E0,-2.374799922E-2,-1.582850069E-1,1.209160015E-1
4.880784582E0,-2.374799922E-2,-1.582850069E-1,1.209160015E-1
4.883325351E0,-2.374799922E-2,-1.582850069E-1,1.209160015E-1
4.885865197E0,-1.613800041E-2,-1.477909982E-1,1.046969965E-1
4.888405044E0,-1.613800041E-2,-1.477909982E-1,1.046969965E-1
4.890945401E0,-1.613800041E-2,-1.477909982E-1,1.046969965E-1
4.893485746E0,-1.613800041E-2,-1.477909982E-1,1.046969965E-1
4.896026361E0,-1.613800041E-2,-1.477909982E-1,1.046969965E-1
4.898566978E0,-1.613800041E-2,-1.477909982E-1,1.046969965E-1
4.901108015E0,-1.613800041E-2,-1.477909982E-1,1.046969965E-1
4.903649054E0,-1.613800041E-2,-1.477909982E-1,1.046969965E-1
4.906189976E0,-7.505999878E-3,-1.325220019E-1,9.895499796E-2
4.908730901E0,-7.505999878E-3,-1.325220019E-1,9.895499796E-2
4.911271376E0,-7.505999878E-3,-1.325220019E-1,9.895499796E-2
4.913811837E0,-7.505999878E-3,-1.325220019E-1,9.895499796E-2
4.916352492E0,-7.505999878E-3,-1.325220019E-1,9.895499796E-2
4.918893145E0,-7.505999878E-3,-1.325220019E-1,9.895499796E-2
4.921434067E0,-7.505999878E-3,-1.325220019E-1,9.895499796E-2
4.923974992E0,-7.505999878E-3,-1.325220019E-1,9.895499796E-2
4.926515875E0,-2.593999961E-3,-1.219109967E-1,9.953600168E-2
4.929056760E0,-2.593999961E-3,-1.219109967E-1,9.953600168E-2
4.931597540E0,-2.593999961E-3,-1.219109967E-1,9.953600168E-2
4.934138309E0,-2.593999961E-3,-1.219109967E-1,9.953600168E-2
4.936678770E0,-2.593999961E-3,-1.219109967E-1,9.953600168E-2
4.939219231E0,-2.593999961E-3,-1.219109967E-1,9.953600168E-2
4.941759834E0,-2.593999961E-3,-1.219109967E-1,9.953600168E-2
4.944300449E0,-2.593999961E-3,-1.219109967E-1,9.953600168E-2
4.946840909E0,-5.840000231E-4,-1.133200005E-1,1.039289981E-1
4.949381372E0,-5.840000231E-4,-1.133200005E-1,1.039289981E-1
4.951921218E0,-5.840000231E-4,-1.133200005E-1,1.039289981E-1
4.954461065E0,-5.840000231E-4,-1.133200005E-1,1.039289981E-1
4.957000911E0,-5.840000231E-4,-1.133200005E-1,1.039289981E-1
4.959540756E0,-5.840000231E-4,-1.133200005E-1,1.039289981E-1
4.962081852E0,-5.840000231E-4,-1.133200005E-1,1.039289981E-1
4.964622929E0,-5.840000231E-4,-1.133200005E-1,1.039289981E-1
4.967163543E0,-1.392000006E-3,-1.174649969E-1,1.109590009E-1
4.969704160E0,-1.392000006E-3,-1.174649969E-1,1.109590009E-1
4.972245070E0,-1.392000006E-3,-1.174649969E-1,1.109590009E-1
4.974785993E0,-1.392000006E-3,-1.174649969E-1,1.109590009E-1
4.977326915E0,-1.392000006E-3,-1.174649969E-1,1.109590009E-1
4.979867838E0,-1.392000006E-3,-1.174649969E-1,1.109590009E-1
4.982408173E0,-1.392000006E-3,-1.174649969E-1,1.109590009E-1
4.984948520E0,-1.392000006E-3,-1.174649969E-1,1.109590009E-1
4.987489136E0,2.202000003E-3,-1.281580031E-1,1.151250005E-1
4.990029751E0,2.202000003E-3,-1.281580031E-1,1.151250005E-1
4.992570356E0,2.202000003E-3,-1.281580031E-1,1.151250005E-1
4.995110973E0,2.202000003E-3,-1.281580031E-1,1.151250005E-1
4.997651741E0,2.202000003E-3,-1.281580031E-1,1.151250005E-1
5.000192510E0,2.202000003E-3,-1.281580031E-1,1.151250005E-1
5.002733587E0,2.202000003E-3,-1.281580031E-1,1.151250005E-1
5.005274664E0,2.202000003E-3,-1.281580031E-1,1.151250005E-1
5.007815548E0,1.412400045E-2,-1.429129988E-1,1.203280017E-1
5.010356433E0,1.412400045E-2,-1.429129988E-1,1.203280017E-1
5.012897497E0,1.412400045E-2,-1.429129988E-1,1.203280017E-1
5.015438574E0,1.412400045E-2,-1.429129988E-1,1.203280017E-1
5.017979072E0,1.412400045E-2,-1.429129988E-1,1.203280017E-1
5.020519573E0,1.412400045E-2,-1.429129988E-1,1.203280017E-1
5.023060516E0,3.255100176E-2,-1.619070023E-1,1.221280023E-1
5.025601439E0,3.255100176E-2,-1.619070023E-1,1.221280023E-1
5.028142014E0,3.255100176E-2,-1.619070023E-1,1.221280023E-1
5.030682593E0,3.255100176E-2,-1.619070023E-1,1.221280023E-1
5.033222882E0,3.255100176E-2,-1.619070023E-1,1.221280023E-1
5.035763189E0,3.255100176E-2,-1.619070023E-1,1.221280023E-1
5.038303074E0,3.255100176E-2,-1.619070023E-1,1.221280023E-1
5.040842959E0,3.255100176E-2,-1.619070023E-1,1.221280023E-1
5.043384026E0,4.893599823E-2,-1.720110029E-1,1.141960025E-1
5.045925103E0,4.893599823E-2,-1.720110029E-1,1.141960025E-1
5.048465832E0,4.893599823E-2,-1.720110029E-1,1.141960025E-1
5.051006563E0,4.893599823E-2,-1.720110029E-1,1.141960025E-1
5.053547520E0,4.893599823E-2,-1.720110029E-1,1.141960025E-1
5.056088481E0,4.893599823E-2,-1.720110029E-1,1.141960025E-1
5.058628904E0,4.893599823E-2,-1.720110029E-1,1.141960025E-1
5.061169329E0,4.893599823E-2,-1.720110029E-1,1.141960025E-1
5.063709824E0,5.862699822E-2,-1.788920015E-1,1.032219976E-1
5.066250323E0,5.862699822E-2,-1.788920015E-1,1.032219976E-1
5.068791553E0,5.862699822E-2,-1.788920015E-1,1.032219976E-1
5.071332784E0,5.862699822E-2,-1.788920015E-1,1.032219976E-1
5.073873861E0,5.862699822E-2,-1.788920015E-1,1.032219976E-1
5.076414938E0,5.862699822E-2,-1.788920015E-1,1.032219976E-1
5.078956137E0,5.862699822E-2,-1.788920015E-1,1.032219976E-1
5.081497368E0,5.862699822E-2,-1.788920015E-1,1.032219976E-1
5.084038097E0,5.832500011E-2,-1.691119969E-1,9.079699963E-2
5.086578828E0,5.832500011E-2,-1.691119969E-1,9.079699963E-2
5.089119324E0,5.832500011E-2,-1.691119969E-1,9.079699963E-2
5.091659823E0,5.832500011E-2,-1.691119969E-1,9.079699963E-2
5.094200439E0,5.832500011E-2,-1.691119969E-1,9.079699963E-2
5.096741054E0,5.832500011E-2,-1.691119969E-1,9.079699963E-2
5.099281515E0,5.832500011E-2,-1.691119969E-1,9.079699963E-2
5.101821978E0,5.832500011E-2,-1.691119969E-1,9.079699963E-2
5.104362709E0,6.214600056E-2,-1.579599977E-1,7.988899946E-2
5.106903440E0,6.214600056E-2,-1.579599977E-1,7.988899946E-2
5.109444828E0,6.214600056E-2,-1.579599977E-1,7.988899946E-2
5.111986213E0,6.214600056E-2,-1.579599977E-1,7.988899946E-2
5.114527443E0,6.214600056E-2,-1.579599977E-1,7.988899946E-2
5.117068674E0,6.214600056E-2,-1.579599977E-1,7.988899946E-2
5.119609603E0,6.214600056E-2,-1.579599977E-1,7.988899946E-2
