Time (s),Gyroscope x (rad/s),Gyroscope y (rad/s),Gyroscope z (rad/s)
61.93056624,-0.0037283157,0.001331541222,-0.002929390874
61.93304051,-0.002663082443,0.003462007269,0.002396774245
61.93551478,-0.0037283157,0.001331541222,0.002396774245
61.93798905,-0.002663082443,0.002396774245,0.000266308256
61.94046332,-0.0005326165119,0.005592473317,0.002396774245
61.94293759,0.0005326165119,0.009853405878,0.002396774245
61.94541186,-0.002663082443,0.009853405878,0.001331541222
61.94788618,-0.001597849536,0.006657706574,0.002396774245
61.95036045,-0.001597849536,0.006657706574,0.002396774245
61.95283472,-0.002663082443,0.005592473317,-0.00186415785
61.95531243,-0.002663082443,0.002396774245,-0.002929390874
61.9577867,-0.004793548491,0.003462007269,-0.002929390874
61.96026103,-0.002663082443,0.003462007269,-0.00186415785
61.9627353,-0.0037283157,0.001331541222,-0.003994623665
61.96520957,-0.0037283157,0.000266308256,0.000266308256
61.96768384,0.0005326165119,0.000266308256,-0.002929390874
61.97015811,-0.002663082443,-0.0007989247679,-0.005059856921
61.97263238,-0.001597849536,-0.003994623665,-0.007190322969
61.97510665,0.002663082443,-0.009320789017,-0.005059856921
61.97758098,0.0037283157,-0.01038602181,-0.007190322969
61.98005525,0.002663082443,-0.01251648832,-0.0114512546
61.98252952,0.005858781748,-0.01251648832,-0.0114512546
61.98500212,0.00798924733,-0.01358172111,-0.01038602181
61.98747639,0.01011971384,-0.01251648832,-0.01358172111
61.98995071,0.01118494663,-0.01358172111,-0.0146469539
61.99242499,0.01438064594,-0.01251648832,-0.0114512546
61.99489926,0.01331541315,-0.01251648832,-0.01571218669
61.99737353,0.01544587873,-0.009320789017,-0.018907886
61.9998478,0.01757634431,-0.007190322969,-0.01677742042
62.00232207,0.01651111245,-0.008255556226,-0.01677742042
62.00479634,0.01651111245,-0.00186415785,-0.01784265228
62.00727066,0.01651111245,-0.003994623665,-0.0146469539
62.00974493,0.01651111245,-0.005059856921,-0.0146469539
62.0122192,0.01757634431,-0.006125089712,-0.01571218669
62.01469394,0.01544587873,-0.00186415785,-0.02103835158
62.01716821,0.01544587873,-0.0007989247679,-0.01784265228
62.01964254,0.01331541315,-0.005059856921,-0.01571218669
62.02211681,0.01438064594,-0.005059856921,-0.01677742042
62.02459108,0.01225017942,-0.002929390874,-0.0146469539
62.02706535,0.01331541315,-0.005059856921,-0.0146469539
62.02953962,0.01757634431,-0.002929390874,-0.01677742042
62.03201389,0.01757634431,-0.005059856921,-0.0146469539
62.03448816,0.01651111245,-0.003994623665,-0.01358172111
62.03696249,0.01331541315,-0.003994623665,-0.01571218669
62.03943676,0.01544587873,-0.005059856921,-0.01251648832
62.04191103,0.01757634431,-0.007190322969,-0.0146469539
62.04438311,0.01864157803,-0.007190322969,-0.01571218669
62.04685738,0.01438064594,-0.007190322969,-0.01571218669
62.0493317,0.01438064594,-0.006125089712,-0.0114512546
62.05180598,0.01438064594,-0.007190322969,-0.01038602181
62.05428025,0.01438064594,-0.0146469539,-0.01571218669
62.05675452,0.01331541315,-0.0146469539,-0.0114512546
62.05922879,0.01438064594,-0.009320789017,-0.01038602181
62.06170306,0.01225017942,-0.01251648832,-0.0114512546
62.06417733,0.009054481052,-0.01251648832,-0.01251648832
62.06665165,0.006924014539,-0.01784265228,-0.0146469539
62.06912592,0.00798924733,-0.01677742042,-0.01784265228
62.07160019,0.00798924733,-0.01677742042,-0.018907886
62.07407592,0.006924014539,-0.018907886,-0.01677742042
62.07655019,0.006924014539,-0.01784265228,-0.01784265228
62.07902452,0.006924014539,-0.01358172111,-0.01677742042
62.08149879,0.005858781748,-0.01784265228,-0.0221035853
62.08397306,0.001597849536,-0.01784265228,-0.01997311972
62.08644733,0.001597849536,-0.01571218669,-0.01997311972
62.0889216,0.001597849536,-0.01251648832,-0.01997311972
62.09139587,0.0037283157,-0.0114512546,-0.01997311972
62.09387019,0.0005326165119,-0.009320789017,-0.02103835158
62.09634446,0.004793548491,-0.008255556226,-0.01997311972
62.09881874,0.001597849536,-0.009320789017,-0.01571218669
62.10129301,0.002663082443,-0.007190322969,-0.01677742042
62.10376723,0.004793548491,-0.005059856921,-0.01677742042
62.1062415,0.002663082443,-0.002929390874,-0.01997311972
62.10871582,0.005858781748,-0.003994623665,-0.01571218669
62.11119009,0.005858781748,-0.002929390874,-0.01571218669
62.11366436,0.0037283157,-0.003994623665,-0.01784265228
62.11613863,0.009054481052,-0.0007989247679,-0.01251648832
62.1186129,0.005858781748,-0.005059856921,-0.0114512546
62.12108717,0.00798924733,-0.0114512546,-0.01571218669
62.1235615,0.004793548491,-0.008255556226,-0.01677742042
62.12603577,0.009054481052,-0.005059856921,-0.0146469539
62.12851004,0.01118494663,-0.01038602181,-0.009320789017
62.13098431,0.01011971384,-0.008255556226,-0.01251648832
62.13346092,0.01118494663,-0.01038602181,-0.01251648832
62.13593519,0.01011971384,-0.01251648832,-0.01358172111
62.13840952,0.01011971384,-0.009320789017,-0.01358172111
62.14088379,0.01118494663,-0.005059856921,-0.009320789017
62.14335806,0.01011971384,-0.007190322969,-0.008255556226
62.14583233,0.01118494663,-0.008255556226,-0.0114512546
62.1483066,0.009054481052,-0.007190322969,-0.0114512546
62.15078087,0.01118494663,-0.00186415785,-0.01251648832
62.15325519,0.01225017942,-0.003994623665,-0.005059856921
62.15572946,0.009054481052,-0.005059856921,-0.003994623665
62.15820374,0.009054481052,-0.002929390874,-0.009320789017
62.16067801,0.00798924733,-0.006125089712,-0.008255556226
62.16314967,0.006924014539,-0.008255556226,-0.01038602181
62.16562394,0.004793548491,-0.008255556226,-0.01358172111
62.16809827,0.002663082443,-0.008255556226,-0.008255556226
62.17057254,0.0037283157,-0.006125089712,-0.01038602181
62.17304681,0.0037283157,-0.002929390874,-0.0114512546
62.17552108,0.0037283157,-0.003994623665,-0.008255556226
62.17799535,0.0037283157,-0.006125089712,-0.007190322969
62.18046962,0.004793548491,-0.005059856921,-0.007190322969
62.18294394,0.004793548491,-0.003994623665,-0.0114512546
62.18541821,0.002663082443,-0.00186415785,-0.008255556226
62.18789249,0.001597849536,-0.003994623665,-0.009320789017
62.19036676,0.001597849536,-0.002929390874,-0.007190322969
62.19283993,-0.0005326165119,-0.005059856921,-0.007190322969
62.1953142,0.0005326165119,-0.005059856921,-0.009320789017
62.19778853,0.005858781748,-0.005059856921,-0.008255556226
62.2002628,0.0037283157,-0.006125089712,-0.009320789017
62.20273707,0.0037283157,-0.003994623665,-0.008255556226
62.20521134,0.004793548491,-0.002929390874,-0.009320789017
62.20768561,0.006924014539,-0.00186415785,-0.008255556226
62.21015988,0.00798924733,-0.002929390874,-0.009320789017
62.2126342,0.009054481052,-0.00186415785,-0.006125089712
62.21510848,0.006924014539,-0.00186415785,-0.007190322969
62.21758275,0.004793548491,0.000266308256,-0.006125089712
62.22005702,0.005858781748,-0.00186415785,-0.008255556226
62.22253374,0.004793548491,-0.0007989247679,-0.009320789017
62.22500801,0.006924014539,0.001331541222,-0.01038602181
62.22748233,0.005858781748,-0.00186415785,-0.009320789017
62.2299566,0.0037283157,0.002396774245,-0.007190322969
62.23243087,0.001597849536,0.001331541222,-0.008255556226
62.23490514,0.001597849536,-0.002929390874,-0.009320789017
62.23737941,0.0005326165119,-0.00186415785,-0.01038602181
62.23985368,0.0005326165119,-0.002929390874,-0.009320789017
62.24232801,0.002663082443,-0.005059856921,-0.007190322969
62.24480228,0.0005326165119,-0.002929390874,-0.009320789017
62.24727655,0.0005326165119,-0.005059856921,-0.0114512546
62.24975082,0.002663082443,-0.008255556226,-0.01251648832
62.25222212,0.001597849536,-0.008255556226,-0.01358172111
62.25469639,-0.0005326165119,-0.01038602181,-0.01358172111
62.25717071,-0.0037283157,-0.01251648832,-0.0146469539
62.25964498,-0.001597849536,-0.0114512546,-0.0146469539
62.26211926,0.0005326165119,-0.01251648832,-0.01038602181
62.26459353,0.0005326165119,-0.01038602181,-0.01038602181
62.2670678,-0.0005326165119,-0.01038602181,-0.01358172111
62.26954207,0.002663082443,-0.01038602181,-0.008255556226
62.27201639,-0.001597849536,-0.007190322969,-0.009320789017
62.27449066,0.0005326165119,-0.005059856921,-0.009320789017
62.27696493,0.001597849536,-0.008255556226,-0.007190322969
62.2794392,0.004793548491,-0.007190322969,-0.006125089712
62.28191587,0.00798924733,-0.005059856921,-0.007190322969
62.28439014,0.00798924733,-0.005059856921,-0.007190322969
62.28686446,0.005858781748,-0.006125089712,-0.007190322969
62.28933874,0.0037283157,-0.00186415785,-0.006125089712
62.29181301,0.005858781748,0.001331541222,-0.005059856921
62.29428728,0.006924014539,0.002396774245,-0.006125089712
62.29676155,0.005858781748,0.004527240526,-0.00186415785
62.29923582,0.0037283157,0.004527240526,-0.002929390874
62.30171014,0.00798924733,0.008788172156,-0.005059856921
62.30418441,0.00798924733,0.01304910425,-0.005059856921
62.30665868,0.006924014539,0.01091863867,-0.005059856921
62.30913295,0.006924014539,0.01517957076,-0.005059856921
62.31160509,0.005858781748,0.01624480449,-0.003994623665
62.31407936,0.005858781748,0.01517957076,-0.002929390874
62.31655368,0.001597849536,0.01304910425,-0.0007989247679
62.31902795,0.005858781748,0.009853405878,-0.003994623665
62.32150222,0.005858781748,0.01198387146,-0.003994623665
62.3239765,0.002663082443,0.009853405878,-0.00186415785
62.32645077,0.002663082443,0.009853405878,-0.002929390874
62.32892504,0.0037283157,0.007722939365,-0.006125089712
62.33139936,0.0037283157,0.005592473317,-0.003994623665
62.33387363,0.004793548491,0.004527240526,-0.007190322969
62.3363479,0.002663082443,0.002396774245,-0.007190322969
62.33882217,0.002663082443,0.000266308256,-0.008255556226
62.34129613,0.0037283157,0.000266308256,-0.008255556226
62.3437704,0.002663082443,0.001331541222,-0.006125089712
62.34624473,0.001597849536,-0.00186415785,-0.007190322969
62.348719,0.0037283157,-0.003994623665,-0.008255556226
62.35119327,0.005858781748,-0.005059856921,-0.008255556226
62.35366754,0.004793548491,-0.006125089712,-0.009320789017
62.35614181,0.0037283157,-0.005059856921,-0.006125089712
62.35861608,0.004793548491,-0.007190322969,-0.007190322969
62.3610904,0.005858781748,-0.008255556226,-0.0146469539
62.36356467,0.005858781748,-0.0114512546,-0.01251648832
62.36603894,0.005858781748,-0.0114512546,-0.01358172111
62.36851321,0.009054481052,-0.008255556226,-0.01251648832
62.37098905,0.01225017942,-0.01038602181,-0.0114512546
62.37346332,0.01011971384,-0.0114512546,-0.01251648832
62.37593764,0.01011971384,-0.0114512546,-0.0114512546
62.37841191,0.01331541315,-0.008255556226,-0.01038602181
62.38088618,0.01225017942,-0.007190322969,-0.01038602181
62.38336045,0.009054481052,-0.006125089712,-0.01358172111
62.38583472,0.01011971384,-0.006125089712,-0.01571218669
62.388309,0.01225017942,-0.002929390874,-0.01251648832
62.39078332,0.009054481052,-0.0007989247679,-0.01038602181
62.39325759,0.00798924733,-0.00186415785,-0.0114512546
62.39573186,0.01011971384,-0.00186415785,-0.0146469539
62.39820613,0.00798924733,-0.003994623665,-0.01358172111
62.40068139,0.009054481052,-0.0007989247679,-0.0114512546
62.40315566,0.01011971384,0.002396774245,-0.01038602181
62.40562999,0.004793548491,-0.002929390874,-0.01038602181
62.40810426,0.00798924733,-0.003994623665,-0.0114512546
62.41057853,0.005858781748,-0.002929390874,-0.01358172111
62.4130528,0.004793548491,-0.002929390874,-0.009320789017
62.41552707,0.004793548491,-0.002929390874,-0.007190322969
62.41800134,0.0005326165119,-0.0007989247679,-0.007190322969
62.42047566,0.001597849536,-0.00186415785,-0.008255556226
62.42294993,0.004793548491,-0.00186415785,-0.009320789017
62.4254242,0.001597849536,-0.00186415785,-0.01358172111
62.42789848,0.002663082443,-0.0007989247679,-0.0146469539
62.43037259,0.005858781748,-0.003994623665,-0.01571218669
62.43284686,0.001597849536,-0.006125089712,-0.01251648832
62.43532118,0.0005326165119,-0.006125089712,-0.0146469539
62.43779545,0.0037283157,-0.00186415785,-0.01251648832
62.44026973,0.004793548491,-0.003994623665,-0.01251648832
62.442744,0.002663082443,-0.002929390874,-0.0114512546
62.44521827,0.004793548491,0.000266308256,-0.009320789017
62.44769254,0.005858781748,-0.0007989247679,-0.007190322969
62.45016686,0.004793548491,-0.0007989247679,-0.009320789017
62.45264113,0.00798924733,-0.0007989247679,-0.01038602181
62.4551154,0.009054481052,0.002396774245,-0.007190322969
62.45758967,0.009054481052,0.003462007269,-0.005059856921
62.46006348,0.01011971384,0.004527240526,-0.006125089712
62.46253775,0.01118494663,0.006657706574,-0.006125089712
62.46501207,0.01011971384,0.007722939365,-0.006125089712
62.46748634,0.00798924733,0.007722939365,-0.003994623665
62.46996061,0.009054481052,0.01091863867,0.000266308256
62.47243488,0.01331541315,0.01517957076,-0.00186415785
62.47490915,0.01438064594,0.01517957076,-0.0007989247679
62.47738342,0.01011971384,0.01411433797,-0.002929390874
62.47985775,0.00798924733,0.009853405878,-0.00186415785
62.48233202,0.006924014539,0.005592473317,-0.0007989247679
62.48480629,0.0037283157,0.007722939365,-0.00186415785
62.48728056,0.0037283157,0.004527240526,-0.002929390874
62.48975363,0.004793548491,0.001331541222,-0.00186415785
62.4922279,0.005858781748,0.000266308256,-0.002929390874
62.49470223,0.005858781748,-0.0007989247679,-0.002929390874
62.4971765,0.004793548491,-0.003994623665,-0.003994623665
62.49965077,0.005858781748,-0.007190322969,-0.006125089712
62.50212504,0.004793548491,-0.007190322969,-0.007190322969
62.50459931,0.005858781748,-0.008255556226,-0.008255556226
62.50707358,0.0037283157,-0.008255556226,-0.008255556226
62.5095479,0.004793548491,-0.007190322969,-0.007190322969
62.51202217,0.004793548491,-0.009320789017,-0.006125089712
62.51449644,0.00798924733,-0.01038602181,-0.0114512546
62.51697071,0.005858781748,-0.009320789017,-0.01038602181
62.51944493,0.0037283157,-0.01038602181,-0.0146469539
62.5219192,0.006924014539,-0.01038602181,-0.0146469539
62.52439353,0.006924014539,-0.008255556226,-0.0114512546
62.5268678,0.00798924733,-0.005059856921,-0.01358172111
62.52934207,0.00798924733,-0.008255556226,-0.01251648832
62.53181634,0.009054481052,-0.008255556226,-0.01571218669
62.53429061,0.00798924733,-0.006125089712,-0.01784265228
62.53676488,0.006924014539,-0.002929390874,-0.01677742042
62.5392392,0.0037283157,-0.002929390874,-0.01677742042
62.54171348,0.01011971384,0.002396774245,-0.01677742042
62.54418775,0.006924014539,-0.0007989247679,-0.01784265228
62.54666202,0.004793548491,0.000266308256,-0.01571218669
62.54913707,0.004793548491,0.001331541222,-0.018907886
62.55161134,0.0037283157,0.003462007269,-0.01571218669
62.55408566,0.0005326165119,0.000266308256,-0.01677742042
62.55655993,0.002663082443,-0.0007989247679,-0.01784265228
62.5590342,0.002663082443,-0.00186415785,-0.01677742042
62.56150848,0.002663082443,0.005592473317,-0.0114512546
62.56398275,0.005858781748,0.002396774245,-0.01251648832
62.56645702,0.009054481052,0.004527240526,-0.01251648832
62.56893134,0.01011971384,0.005592473317,-0.0146469539
62.57140561,0.01011971384,0.005592473317,-0.01038602181
62.57387988,0.009054481052,0.006657706574,-0.009320789017
62.57635415,0.009054481052,0.009853405878,-0.007190322969
62.57882806,0.01438064594,0.009853405878,-0.003994623665
62.58130233,0.01225017942,0.007722939365,-0.007190322969
62.58377665,0.01438064594,0.008788172156,-0.006125089712
62.58625092,0.01544587873,0.006657706574,-0.002929390874
62.58872519,0.01544587873,0.005592473317,-0.003994623665
62.59119946,0.01544587873,0.005592473317,-0.005059856921
62.59367374,0.01544587873,0.006657706574,-0.003994623665
62.59614801,0.01331541315,0.006657706574,-0.002929390874
62.59862228,0.01225017942,0.005592473317,-0.006125089712
62.6010966,0.01225017942,0.001331541222,-0.005059856921
62.60357087,0.01011971384,0.001331541222,-0.00186415785
62.60604514,0.009054481052,0.001331541222,-0.006125089712
62.6085065,0.01118494663,0.001331541222,-0.007190322969
62.61098077,0.009054481052,0.001331541222,-0.008255556226
62.61345509,0.00798924733,0.000266308256,-0.007190322969
62.61592936,0.006924014539,-0.005059856921,-0.006125089712
62.61840363,0.00798924733,-0.00186415785,-0.009320789017
62.6208779,0.006924014539,-0.002929390874,-0.01251648832
62.62335217,0.0037283157,-0.006125089712,-0.01251648832
62.62582644,0.0037283157,-0.008255556226,-0.009320789017
62.62830071,0.002663082443,-0.005059856921,-0.01358172111
62.63077504,0.001597849536,-0.002929390874,-0.01251648832
62.63324931,0.004793548491,-0.002929390874,-0.01038602181
62.63572358,0.002663082443,-0.002929390874,-0.0114512546
62.63821259,0.0005326165119,-0.0007989247679,-0.006125089712
62.64068686,0.001597849536,0.001331541222,-0.003994623665
62.64316118,0.001597849536,0.003462007269,-0.008255556226
62.64563545,0.0005326165119,-0.0007989247679,-0.008255556226
62.64810973,0.002663082443,0.002396774245,-0.006125089712
62.650584,0.001597849536,0.004527240526,-0.007190322969
62.65305827,0.0037283157,0.003462007269,-0.007190322969
62.65553254,0.001597849536,0.005592473317,-0.005059856921
62.65800681,0.0005326165119,0.008788172156,-0.0007989247679
62.66048113,0.0005326165119,0.007722939365,-0.00186415785
62.6629554,0.002663082443,0.004527240526,0.000266308256
62.66542967,0.001597849536,0.004527240526,0.000266308256
62.66790327,-0.0005326165119,0.005592473317,-0.0007989247679
62.67037754,0.0005326165119,0.002396774245,-0.0007989247679
62.67285186,0.0005326165119,0.004527240526,-0.003994623665
62.67532613,0.002663082443,0.005592473317,-0.006125089712
62.6778004,-0.0005326165119,0.004527240526,-0.0007989247679
62.68027467,-0.0005326165119,0.003462007269,0.001331541222
62.68274894,0.0005326165119,0.001331541222,0.000266308256
62.68522321,-0.0005326165119,0.000266308256,-0.0007989247679
62.68769748,-0.0005326165119,-0.0007989247679,0.001331541222
62.69017181,-0.002663082443,0.000266308256,0.000266308256
62.69264608,-0.0005326165119,-0.0007989247679,0.002396774245
62.69512035,-0.004793548491,0.000266308256,0.000266308256
62.69759436,-0.004793548491,0.002396774245,0.000266308256
62.70006863,-0.002663082443,-0.0007989247679,-0.00186415785
62.70254295,-0.0037283157,0.001331541222,0.000266308256
62.70501723,-0.0037283157,0.002396774245,0.004527240526
62.7074915,-0.002663082443,0.002396774245,0.001331541222
62.70996577,-0.002663082443,0.002396774245,0.000266308256
62.71244004,-0.0005326165119,0.000266308256,-0.002929390874
62.71491431,0.001597849536,0.004527240526,-0.00186415785
62.71738858,-0.0005326165119,0.002396774245,0.000266308256
62.7198629,0.0005326165119,0.000266308256,0.000266308256
62.72233712,0.001597849536,-0.0007989247679,-0.002929390874
62.72481144,0.001597849536,-0.0007989247679,-0.003994623665
62.72728394,0.002663082443,0.001331541222,-0.002929390874
62.72975821,0.002663082443,-0.00186415785,-0.005059856921
62.73223254,0.0037283157,-0.002929390874,-0.005059856921
62.73470681,0.004793548491,-0.0007989247679,-0.0007989247679
62.73718108,0.001597849536,-0.00186415785,-0.003994623665
62.73965535,0.002663082443,0.000266308256,-0.005059856921
62.74212962,0.0037283157,-0.0007989247679,-0.005059856921
62.74460389,0.0037283157,0.001331541222,-0.002929390874
62.74707816,0.002663082443,0.001331541222,-0.005059856921
62.74955248,0.0037283157,0.003462007269,-0.005059856921
62.75202676,0.002663082443,0.003462007269,-0.003994623665
62.75450103,0.0005326165119,0.001331541222,-0.005059856921
62.75697696,0.002663082443,0.005592473317,0.000266308256
62.75945124,-0.0005326165119,0.002396774245,-0.005059856921
62.76192556,-0.0005326165119,0.003462007269,-0.006125089712
62.76439983,0.001597849536,0.003462007269,-0.005059856921
62.7668741,-0.001597849536,0.003462007269,-0.002929390874
62.76934837,-0.001597849536,0.004527240526,-0.003994623665
62.77182264,-0.0005326165119,0.006657706574,0.001331541222
62.77429691,-0.002663082443,0.003462007269,-0.002929390874
62.77677118,-0.002663082443,0.001331541222,-0.00186415785
62.77924551,-0.004793548491,0.004527240526,0.001331541222
62.78171978,-0.004793548491,0.001331541222,-0.00186415785
62.78419405,-0.0037283157,-0.00186415785,-0.002929390874
62.78666827,0.001597849536,-0.002929390874,-0.00186415785
62.78914254,-0.001597849536,-0.0007989247679,-0.00186415785
62.79161686,-0.004793548491,0.001331541222,0.000266308256
62.79409113,-0.001597849536,0.001331541222,0.001331541222
62.7965654,-0.0005326165119,-0.003994623665,-0.0007989247679
62.79903967,-0.001597849536,-0.0007989247679,0.001331541222
62.80151394,0.0005326165119,-0.002929390874,-0.00186415785
62.80398821,-0.001597849536,-0.006125089712,-0.0007989247679
62.80646249,-0.001597849536,-0.003994623665,0.002396774245
62.80893681,-0.002663082443,-0.002929390874,0.004527240526
62.81141108,-0.001597849536,-0.002929390874,0.002396774245
62.81388535,-0.0005326165119,-0.0007989247679,0.000266308256
62.81635967,-0.001597849536,-0.0007989247679,0.004527240526
62.81883394,-0.001597849536,0.000266308256,0.000266308256
62.82130827,-0.0037283157,0.001331541222,0.003462007269
62.82378254,-0.002663082443,0.004527240526,0.006657706574
62.82625681,-0.001597849536,0.003462007269,0.004527240526
62.82873108,-0.0037283157,0.008788172156,0.001331541222
62.83120535,-0.004793548491,0.008788172156,0.002396774245
62.83367962,-0.002663082443,0.01198387146,0.003462007269
62.83615389,-0.0005326165119,0.01198387146,0.004527240526
62.83862821,-0.001597849536,0.01198387146,0.002396774245
62.84110248,-0.004793548491,0.01198387146,0.004527240526
62.84357676,-0.0037283157,0.008788172156,0.004527240526
62.84605134,-0.002663082443,0.008788172156,0.004527240526
62.84852561,-0.002663082443,0.009853405878,0.003462007269
62.85099993,-0.005858781748,0.01091863867,0.000266308256
62.8534742,-0.005858781748,0.006657706574,-0.002929390874
62.85594848,-0.004793548491,0.004527240526,0.002396774245
62.85842275,-0.005858781748,0.003462007269,0.003462007269
62.86089702,-0.01011971384,0.001331541222,-0.00186415785
62.86337129,-0.004793548491,-0.002929390874,0.000266308256
62.86584556,-0.004793548491,0.000266308256,-0.00186415785
62.86831988,-0.001597849536,0.002396774245,-0.00186415785
62.87079415,-0.0005326165119,0.000266308256,-0.002929390874
62.87326842,-0.002663082443,-0.005059856921,-0.00186415785
62.8757217,-0.002663082443,-0.003994623665,-0.00186415785
62.87819598,0.0005326165119,-0.0007989247679,0.001331541222
62.88067025,0.002663082443,-0.002929390874,-0.00186415785
62.88314452,0.0037283157,-0.002929390874,-0.00186415785
62.88561884,0.004793548491,-0.00186415785,0.002396774245
62.88809311,0.0005326165119,-0.00186415785,-0.002929390874
62.89056738,0.0037283157,-0.002929390874,-0.003994623665
62.89304165,0.006924014539,-0.00186415785,-0.00186415785
62.89551592,0.0037283157,-0.0007989247679,-0.0007989247679
62.89799019,0.0037283157,-0.0007989247679,-0.0007989247679
62.90046446,0.0037283157,-0.005059856921,-0.005059856921
62.90293879,0.001597849536,-0.002929390874,-0.002929390874
62.90544525,0.002663082443,-0.002929390874,-0.00186415785
62.90791952,0.0005326165119,-0.003994623665,-0.006125089712
62.91039384,-0.0005326165119,-0.002929390874,-0.003994623665
62.91286811,-0.0005326165119,-0.00186415785,-0.002929390874
62.91534238,0.0005326165119,-0.005059856921,-0.003994623665
62.91781665,0.001597849536,-0.002929390874,0.000266308256
62.92029092,-0.002663082443,-0.002929390874,-0.00186415785
62.92276519,-0.002663082443,-0.00186415785,-0.0007989247679
62.92523946,-0.001597849536,-0.0007989247679,0.000266308256
62.92771379,-0.005858781748,-0.002929390874,-0.002929390874
62.93018806,-0.004793548491,-0.0007989247679,0.000266308256
62.93266233,-0.005858781748,-0.0007989247679,0.001331541222
62.93514384,-0.00798924733,-0.00186415785,0.000266308256
62.93761811,-0.005858781748,-0.00186415785,-0.0007989247679
62.94009243,-0.006924014539,0.001331541222,-0.0007989247679
62.94256665,-0.006924014539,0.000266308256,0.000266308256
62.94504098,-0.005858781748,-0.0007989247679,-0.0007989247679
62.94751525,-0.009054481052,-0.00186415785,0.001331541222
62.94998952,-0.01011971384,-0.0007989247679,0.002396774245
62.95246379,-0.004793548491,-0.00186415785,0.003462007269
62.95493806,-0.005858781748,-0.00186415785,0.001331541222
62.95741238,-0.00798924733,0.000266308256,0.004527240526
62.95988665,-0.00798924733,0.000266308256,0.006657706574
62.96236092,-0.002663082443,0.002396774245,0.004527240526
62.96483113,-0.0037283157,0.003462007269,0.006657706574
62.9673054,-0.002663082443,0.000266308256,0.004527240526
62.96977972,-0.002663082443,-0.0007989247679,0.002396774245
62.972254,-0.002663082443,-0.003994623665,0.005592473317
62.97472827,-0.005858781748,-0.005059856921,0.004527240526
62.97720254,-0.004793548491,-0.005059856921,0.001331541222
62.97967681,-0.004793548491,-0.002929390874,0.002396774245
62.98215108,-0.0037283157,-0.003994623665,0.003462007269
62.98462535,-0.004793548491,-0.003994623665,0.003462007269
62.98709962,-0.004793548491,-0.002929390874,0.006657706574
62.98957394,-0.005858781748,-0.005059856921,0.001331541222
62.99204821,-0.002663082443,-0.003994623665,0.000266308256
62.99452223,-0.005858781748,-0.005059856921,0.004527240526
62.9969965,-0.004793548491,-0.007190322969,0.001331541222
62.99947082,-0.004793548491,-0.007190322969,-0.0007989247679
63.00194509,-0.006924014539,-0.002929390874,-0.00186415785
63.00441936,-0.005858781748,0.000266308256,0.001331541222
63.00689363,-0.0005326165119,0.000266308256,0.005592473317
63.0093679,-0.0037283157,-0.003994623665,0.002396774245
63.01184217,-0.006924014539,-0.005059856921,0.000266308256
63.01431644,-0.004793548491,-0.002929390874,0.004527240526
63.01679077,-0.002663082443,0.000266308256,0.004527240526
63.01926504,-0.002663082443,-0.003994623665,0.001331541222
63.02173931,-0.004793548491,-0.0007989247679,0.005592473317
63.02421368,-0.005858781748,0.000266308256,0.002396774245
63.02668795,-0.004793548491,-0.00186415785,0.007722939365
63.02916228,-0.004793548491,-0.003994623665,0.004527240526
63.03163655,-0.004793548491,-0.005059856921,0.004527240526
63.03411082,-0.001597849536,-0.005059856921,0.004527240526
63.03658509,-0.002663082443,-0.00186415785,0.006657706574
63.03905936,-0.002663082443,-0.003994623665,0.005592473317
63.04153363,-0.004793548491,-0.005059856921,0.005592473317
63.0440079,-0.0037283157,-0.006125089712,0.007722939365
63.04648223,-0.004793548491,-0.006125089712,0.006657706574
63.0489565,-0.002663082443,-0.008255556226,0.008788172156
63.05143077,-0.001597849536,-0.006125089712,0.009853405878
63.05388207,0.0005326165119,-0.003994623665,0.01091863867
63.05635634,-0.004793548491,-0.005059856921,0.009853405878
63.05883066,-0.0037283157,-0.005059856921,0.008788172156
63.06130493,0.0005326165119,-0.003994623665,0.007722939365
63.0637792,-0.002663082443,-0.005059856921,0.006657706574
63.06625348,-0.002663082443,-0.002929390874,0.008788172156
63.06872775,-0.0037283157,-0.002929390874,0.007722939365
63.07120202,-0.0037283157,-0.002929390874,0.004527240526
63.07367629,-0.0037283157,-0.0007989247679,0.006657706574
63.07615061,-0.002663082443,-0.0007989247679,0.005592473317
63.07862488,-0.00798924733,0.000266308256,0.005592473317
63.08109915,-0.01011971384,-0.00186415785,0.002396774245
63.08358228,-0.01011971384,-0.002929390874,0.001331541222
63.08605655,-0.01438064594,-0.006125089712,0.001331541222
63.08853087,-0.01225017942,-0.003994623665,0.001331541222
63.09100514,-0.01118494663,-0.006125089712,-0.0007989247679
63.09347941,-0.01118494663,-0.008255556226,-0.003994623665
63.09595368,-0.01118494663,-0.007190322969,-0.0007989247679
63.09842795,-0.01544587873,-0.007190322969,0.001331541222
63.10090223,-0.01118494663,-0.005059856921,0.002396774245
63.10337655,-0.006924014539,-0.006125089712,0.003462007269
63.10585082,-0.01011971384,-0.009320789017,0.003462007269
63.10832509,-0.01011971384,-0.009320789017,0.001331541222
63.11079936,-0.006924014539,-0.01038602181,-0.00186415785
63.11327337,-0.0037283157,-0.008255556226,0.003462007269
63.11574764,-0.006924014539,-0.008255556226,0.003462007269
63.11822196,-0.0037283157,-0.01038602181,0.002396774245
63.12069624,-0.002663082443,-0.01038602181,0.001331541222
63.12317051,-0.001597849536,-0.005059856921,-0.0007989247679
63.12564478,0.0005326165119,-0.009320789017,0.003462007269
63.12811905,-0.0005326165119,-0.0114512546,0.003462007269
63.13059332,-0.0005326165119,-0.005059856921,0.004527240526
63.13306764,0.0005326165119,-0.007190322969,0.005592473317
63.13554191,0.001597849536,-0.005059856921,0.004527240526
63.13801618,-0.001597849536,-0.003994623665,0.007722939365
63.14049045,-0.0037283157,-0.003994623665,0.002396774245
63.14296488,0.0005326165119,-0.008255556226,0.006657706574
63.14543915,-0.0005326165119,-0.005059856921,0.006657706574
63.14791342,-0.002663082443,-0.006125089712,0.006657706574
63.15038775,-0.002663082443,-0.007190322969,0.005592473317
63.15286202,-0.001597849536,-0.005059856921,0.006657706574
63.15533629,-0.004793548491,-0.006125089712,0.006657706574
63.15781056,-0.005858781748,-0.005059856921,0.006657706574
63.16028483,-0.006924014539,-0.003994623665,0.007722939365
63.16275915,-0.009054481052,-0.003994623665,0.004527240526
63.16523337,-0.006924014539,-0.005059856921,0.005592473317
63.16770769,-0.0037283157,-0.00186415785,0.007722939365
63.17018196,-0.005858781748,-0.002929390874,0.005592473317
63.17265931,-0.009054481052,-0.00186415785,0.008788172156
63.17513358,-0.005858781748,-0.00186415785,0.007722939365
63.1776079,-0.00798924733,-0.003994623665,0.007722939365
63.18008217,-0.006924014539,-0.006125089712,0.007722939365
63.18255644,-0.00798924733,-0.002929390874,0.005592473317
63.18503071,-0.006924014539,-0.002929390874,0.007722939365
63.18750499,-0.0037283157,-0.008255556226,0.004527240526
63.18997926,-0.006924014539,-0.007190322969,0.005592473317
63.19245358,-0.01011971384,-0.008255556226,0.005592473317
63.19492785,-0.01225017942,-0.009320789017,0.003462007269
63.19740212,-0.01225017942,-0.008255556226,0.003462007269
63.19987639,-0.01225017942,-0.01038602181,0.004527240526
63.20234811,-0.009054481052,-0.008255556226,0.006657706574
63.20482238,-0.01331541315,-0.01038602181,0.007722939365
63.2072967,-0.01118494663,-0.01038602181,0.005592473317
63.20977098,-0.01011971384,-0.009320789017,0.004527240526
63.21224525,-0.01225017942,-0.01038602181,0.004527240526
63.21471952,-0.01011971384,-0.008255556226,0.009853405878
63.21719379,-0.01011971384,-0.008255556226,0.01091863867
63.21966806,-0.01225017942,-0.005059856921,0.009853405878
63.22214238,-0.01118494663,-0.006125089712,0.005592473317
63.22461665,-0.00798924733,-0.003994623665,0.01304910425
63.22709092,-0.009054481052,-0.003994623665,0.01304910425
63.22956519,-0.01011971384,-0.00186415785,0.01198387146
63.23203983,-0.009054481052,-0.003994623665,0.007722939365
63.2345141,-0.006924014539,-0.002929390874,0.008788172156
63.23698842,-0.006924014539,0.000266308256,0.01198387146
63.23946269,-0.009054481052,-0.0007989247679,0.004527240526
63.24193696,-0.009054481052,-0.003994623665,0.008788172156
63.24441124,-0.009054481052,-0.0007989247679,0.009853405878
63.24688551,-0.00798924733,-0.002929390874,0.005592473317
63.24935978,-0.01118494663,-0.002929390874,0.002396774245
63.2518341,-0.01011971384,-0.003994623665,0.003462007269
63.25430837,-0.01225017942,-0.003994623665,0.002396774245
63.25678264,-0.01757634431,-0.003994623665,0.000266308256
63.25925691,-0.01438064594,-0.007190322969,0.003462007269
63.2617304,-0.01438064594,-0.003994623665,0.003462007269
63.26420467,-0.01438064594,-0.008255556226,0.004527240526
63.266679,-0.01331541315,-0.005059856921,0.003462007269
63.26915327,-0.01011971384,-0.002929390874,0.002396774245
63.27162754,-0.01118494663,-0.0007989247679,0.001331541222
63.27410181,-0.01118494663,-0.0007989247679,0.003462007269
63.27657608,-0.009054481052,-0.00186415785,0.003462007269
63.27905035,-0.01011971384,-0.003994623665,0.003462007269
63.28152467,-0.00798924733,-0.00186415785,0.006657706574
63.28399894,-0.006924014539,-0.003994623665,0.002396774245
63.28647321,-0.005858781748,-0.005059856921,0.005592473317
63.28894748,-0.0005326165119,-0.002929390874,0.006657706574
63.29142212,0.002663082443,0.000266308256,0.005592473317
63.29389639,0.001597849536,0.001331541222,0.005592473317
63.29637071,0.0005326165119,-0.00186415785,0.005592473317
63.29884498,0.005858781748,0.002396774245,0.005592473317
63.30131926,0.006924014539,0.003462007269,0.006657706574
63.30379353,0.001597849536,0.003462007269,0.006657706574
63.3062678,0.006924014539,0.007722939365,0.008788172156
63.30874207,0.004793548491,0.008788172156,0.01091863867
63.31121639,0.001597849536,0.009853405878,0.006657706574
63.31369066,0.004793548491,0.009853405878,0.004527240526
63.31616493,0.005858781748,0.01304910425,0.009853405878
63.3186392,0.0005326165119,0.01411433797,0.01198387146
63.32111374,0.002663082443,0.01517957076,0.008788172156
63.32358801,-0.0005326165119,0.01517957076,0.006657706574
63.32606233,0.0005326165119,0.01624480449,0.006657706574
63.3285366,-0.0005326165119,0.01411433797,0.003462007269
63.33101087,0.001597849536,0.01198387146,0.003462007269
63.33348514,-0.001597849536,0.01517957076,0.004527240526
63.33595941,-0.0037283157,0.009853405878,0.002396774245
63.33843368,-0.002663082443,0.006657706574,0.000266308256
63.34090801,-0.0037283157,0.01198387146,-0.00186415785
63.34338228,-0.006924014539,0.006657706574,-0.002929390874
63.34585655,-0.009054481052,0.003462007269,-0.00186415785
63.34833082,-0.00798924733,0.000266308256,-0.002929390874
63.35080321,-0.01011971384,0.000266308256,-0.0007989247679
63.35327749,-0.01118494663,-0.00186415785,-0.006125089712
63.35575181,-0.01011971384,-0.009320789017,-0.005059856921
63.35822608,-0.01011971384,-0.008255556226,-0.00186415785
63.36070035,-0.01118494663,-0.006125089712,-0.003994623665
63.36317462,-0.009054481052,-0.008255556226,-0.002929390874
63.36564889,-0.006924014539,-0.007190322969,-0.003994623665
63.36812316,-0.005858781748,-0.009320789017,-0.0007989247679
63.37059749,-0.006924014539,-0.006125089712,-0.00186415785
63.37307176,-0.0037283157,-0.006125089712,-0.005059856921
63.37554603,-0.0005326165119,-0.005059856921,0.002396774245
63.3780203,0.0005326165119,-0.0007989247679,0.002396774245
63.3804954,-0.0005326165119,0.000266308256,0.004527240526
63.38296967,-0.0005326165119,-0.0007989247679,-0.0007989247679
63.385444,-0.001597849536,0.003462007269,0.002396774245
63.38791821,-0.0005326165119,0.003462007269,0.002396774245
63.39039254,-0.0005326165119,0.005592473317,0.004527240526
63.39286681,-0.0005326165119,0.004527240526,0.007722939365
63.39534108,-0.0005326165119,0.006657706574,0.008788172156
63.39781535,0.001597849536,0.01198387146,0.009853405878
63.40028967,-0.0037283157,0.01304910425,0.01411433797
63.40276394,0.0005326165119,0.01731003635,0.01304910425
63.40523821,-0.002663082443,0.01411433797,0.008788172156
63.40771249,-0.004793548491,0.01837527007,0.01198387146
63.41018827,-0.00798924733,0.01731003635,0.008788172156
63.41266254,-0.005858781748,0.01624480449,0.01091863867
63.41513686,-0.009054481052,0.01624480449,0.01304910425
63.41761113,-0.01011971384,0.01624480449,0.01198387146
63.4200854,-0.00798924733,0.01731003635,0.01198387146
63.42255967,-0.01011971384,0.01944050193,0.01624480449
63.42503394,-0.01118494663,0.01731003635,0.01624480449
63.42750821,-0.01225017942,0.01411433797,0.01304910425
63.42998254,-0.01331541315,0.01304910425,0.01091863867
63.43245681,-0.01011971384,0.01304910425,0.01091863867
63.43493108,-0.01225017942,0.009853405878,0.008788172156
63.43740535,-0.01544587873,0.008788172156,0.007722939365
63.43987795,-0.01118494663,0.006657706574,0.01091863867
63.44235222,-0.01118494663,0.003462007269,0.01198387146
63.44482655,-0.01011971384,0.001331541222,0.006657706574
63.44730082,-0.01118494663,0.000266308256,0.01198387146
63.44977509,-0.01011971384,-0.0007989247679,0.007722939365
63.45224936,-0.00798924733,0.000266308256,0.006657706574
63.45472363,-0.00798924733,-0.003994623665,0.007722939365
63.4571979,-0.006924014539,-0.00186415785,0.006657706574
63.45967223,-0.0037283157,-0.002929390874,0.007722939365
63.4621465,-0.006924014539,-0.005059856921,0.005592473317
63.46462077,-0.004793548491,0.000266308256,0.005592473317
63.46709504,-0.0037283157,-0.0007989247679,0.005592473317
63.46957051,-0.002663082443,0.000266308256,0.008788172156
63.47204478,0.0005326165119,0.000266308256,0.006657706574
63.4745191,-0.006924014539,-0.0007989247679,0.006657706574
63.47699337,-0.00798924733,0.002396774245,0.005592473317
63.47946764,-0.006924014539,0.002396774245,0.003462007269
63.48194191,-0.006924014539,0.000266308256,0.005592473317
63.48441618,-0.006924014539,0.000266308256,0.003462007269
63.48689045,-0.01011971384,0.002396774245,0.002396774245
63.48936478,-0.01011971384,0.001331541222,0.002396774245
63.49183905,-0.01225017942,-0.003994623665,0.003462007269
63.49431332,-0.009054481052,0.001331541222,0.002396774245
63.49678759,-0.01225017942,0.002396774245,0.003462007269
63.49925368,-0.01651111245,-0.002929390874,0.004527240526
63.50172795,-0.01225017942,0.000266308256,0.003462007269
63.50420228,-0.01118494663,0.000266308256,0.006657706574
63.50667655,-0.01651111245,0.000266308256,0.006657706574
63.50915082,-0.01331541315,0.003462007269,0.006657706574
63.51162509,-0.01011971384,0.003462007269,0.009853405878
63.51409936,-0.009054481052,0.003462007269,0.005592473317
63.51657363,-0.009054481052,0.005592473317,0.006657706574
63.51904795,-0.009054481052,0.005592473317,0.006657706574
63.52152223,-0.01118494663,0.007722939365,0.01091863867
63.5239965,-0.009054481052,0.007722939365,0.008788172156
63.52647077,-0.00798924733,0.007722939365,0.007722939365
63.52895358,-0.005858781748,0.008788172156,0.01091863867
63.53142785,-0.005858781748,0.008788172156,0.01091863867
63.53390217,-0.006924014539,0.008788172156,0.01304910425
63.53637644,-0.005858781748,0.01091863867,0.01304910425
63.53885071,-0.006924014539,0.009853405878,0.01517957076
63.54132498,-0.005858781748,0.009853405878,0.01517957076
63.54379926,-0.00798924733,0.005592473317,0.01198387146
63.54627353,-0.01331541315,0.007722939365,0.01624480449
63.54874785,-0.01331541315,0.007722939365,0.01517957076
63.55122212,-0.01331541315,0.005592473317,0.01304910425
63.55369639,-0.01118494663,0.003462007269,0.01198387146
63.55617066,-0.01225017942,0.003462007269,0.01198387146
63.55864348,-0.01331541315,0.004527240526,0.01624480449
63.56111775,-0.01438064594,0.001331541222,0.01517957076
63.56359207,-0.01118494663,0.000266308256,0.01517957076
63.56606634,-0.01118494663,0.002396774245,0.01837527007
63.56854061,-0.01118494663,0.000266308256,0.01411433797
63.57101488,-0.009054481052,-0.0007989247679,0.01198387146
63.57348915,-0.009054481052,0.001331541222,0.01304910425
63.57596342,-0.01011971384,0.001331541222,0.01517957076
63.57843775,-0.01118494663,0.003462007269,0.01624480449
63.58091202,-0.006924014539,0.003462007269,0.01731003635
63.58338629,-0.005858781748,0.003462007269,0.01517957076
63.58586056,-0.01011971384,0.004527240526,0.01198387146
63.58833551,-0.009054481052,0.004527240526,0.01731003635
63.59080978,-0.006924014539,0.004527240526,0.01411433797
63.5932841,-0.01118494663,0.006657706574,0.009853405878
63.59575837,-0.01118494663,0.005592473317,0.008788172156
63.59823264,-0.00798924733,0.007722939365,0.01091863867
63.60070691,-0.009054481052,0.008788172156,0.01304910425
63.60318118,-0.01011971384,0.009853405878,0.01411433797
63.60565545,-0.01011971384,0.01091863867,0.01091863867
63.60812978,-0.01118494663,0.009853405878,0.01091863867
63.61060405,-0.01118494663,0.008788172156,0.01091863867
63.61307832,-0.01011971384,0.007722939365,0.009853405878
63.61555259,-0.009054481052,0.007722939365,0.009853405878
63.61802973,-0.01225017942,0.002396774245,0.005592473317
63.620504,-0.01118494663,0.000266308256,0.007722939365
63.62297832,-0.009054481052,-0.00186415785,0.006657706574
63.62545259,-0.01011971384,-0.003994623665,0.002396774245
63.62792686,-0.01118494663,-0.005059856921,0.003462007269
63.63040113,-0.01011971384,-0.006125089712,0.006657706574
63.6328754,-0.009054481052,-0.005059856921,0.008788172156
63.63534967,-0.01011971384,-0.002929390874,0.005592473317
63.637824,-0.009054481052,-0.0007989247679,0.005592473317
63.64029827,-0.01011971384,-0.0007989247679,0.006657706574
63.64277254,-0.005858781748,-0.002929390874,0.009853405878
63.64524681,-0.005858781748,-0.00186415785,0.005592473317
63.64767941,-0.006924014539,-0.002929390874,0.009853405878
63.65015368,-0.004793548491,0.001331541222,0.008788172156
63.65262801,-0.00798924733,0.004527240526,0.01091863867
63.65510228,-0.004793548491,0.002396774245,0.01091863867
63.65757655,-0.0037283157,0.003462007269,0.008788172156
63.66005082,-0.01331541315,0.001331541222,0.01091863867
63.66252509,-0.01118494663,0.005592473317,0.009853405878
63.66499936,-0.009054481052,0.005592473317,0.01091863867
63.66747368,-0.01118494663,0.004527240526,0.01304910425
63.66994795,-0.01225017942,0.003462007269,0.01091863867
63.67242223,-0.01118494663,0.004527240526,0.01304910425
63.6748965,-0.01331541315,0.005592473317,0.01304910425
63.67741051,-0.01544587873,0.005592473317,0.01411433797
63.67988478,-0.01864157803,0.004527240526,0.01198387146
63.6823591,-0.01651111245,0.005592473317,0.01304910425
63.68483337,-0.01438064594,0.008788172156,0.01304910425
63.68730764,-0.01757634431,0.008788172156,0.01517957076
63.68978191,-0.01544587873,0.007722939365,0.01624480449
63.69225618,-0.01544587873,0.009853405878,0.01198387146
63.69473045,-0.01331541315,0.008788172156,0.01411433797
63.69720478,-0.01544587873,0.009853405878,0.01198387146
63.69967905,-0.01331541315,0.007722939365,0.01624480449
63.70215332,-0.01331541315,0.004527240526,0.01944050193
63.70462759,-0.01438064594,0.008788172156,0.01624480449
63.70711228,-0.01757634431,0.008788172156,0.01837527007
63.70958655,-0.01544587873,0.005592473317,0.01411433797
63.71206087,-0.01331541315,0.003462007269,0.01304910425
63.71453514,-0.01438064594,0.003462007269,0.01304910425
63.71700941,-0.01438064594,0.000266308256,0.01198387146
63.71948368,-0.01225017942,-0.0007989247679,0.009853405878
63.72195795,-0.01118494663,-0.005059856921,0.01304910425
63.72443222,-0.01225017942,-0.005059856921,0.01091863867
63.72690655,-0.01225017942,-0.006125089712,0.006657706574
63.72938082,-0.01225017942,-0.008255556226,0.01091863867
63.73185509,-0.01225017942,-0.006125089712,0.01198387146
63.73432936,-0.009054481052,-0.005059856921,0.008788172156
63.73679353,-0.01225017942,-0.008255556226,0.005592473317
63.7392678,-0.01331541315,-0.008255556226,0.008788172156
63.74174212,-0.01225017942,-0.009320789017,0.005592473317
63.74421639,-0.01438064594,-0.009320789017,0.003462007269
63.74669066,-0.01544587873,-0.01038602181,0.007722939365
63.74916493,-0.01757634431,-0.01038602181,0.006657706574
63.7516392,-0.01544587873,-0.009320789017,0.004527240526
63.75411348,-0.01331541315,-0.01358172111,0.005592473317
63.7565878,-0.01331541315,-0.0114512546,0.002396774245
63.75906207,-0.01438064594,-0.01358172111,0.001331541222
63.76153634,-0.01118494663,-0.0114512546,0.006657706574
63.76401061,-0.01438064594,-0.01038602181,0.002396774245
63.76648374,-0.01438064594,-0.008255556226,0.003462007269
63.76895801,-0.01118494663,-0.007190322969,0.006657706574
63.77143233,-0.01331541315,-0.008255556226,0.006657706574
63.7739066,-0.01225017942,-0.003994623665,0.01091863867
63.77638087,-0.009054481052,-0.002929390874,0.005592473317
63.77885514,-0.009054481052,-0.002929390874,0.007722939365
63.78132941,-0.01011971384,-0.0007989247679,0.009853405878
63.78380368,-0.009054481052,-0.00186415785,0.005592473317
63.78627801,-0.01011971384,-0.00186415785,0.008788172156
63.78875228,-0.01225017942,-0.0007989247679,0.006657706574
63.79122655,-0.01331541315,-0.0007989247679,0.005592473317
63.79370082,-0.01011971384,-0.00186415785,0.008788172156
63.79617514,-0.00798924733,-0.00186415785,0.008788172156
63.79864941,-0.009054481052,-0.00186415785,0.008788172156
63.80112374,-0.01011971384,-0.002929390874,0.008788172156
63.80359801,-0.00798924733,0.000266308256,0.008788172156
63.80607228,-0.005858781748,0.000266308256,0.01091863867
63.80854655,-0.005858781748,-0.005059856921,0.01091863867
63.81102082,-0.009054481052,-0.006125089712,0.008788172156
63.81349509,-0.01011971384,-0.00186415785,0.009853405878
63.81596941,-0.01011971384,-0.003994623665,0.007722939365
63.81844368,-0.01118494663,-0.008255556226,0.006657706574
63.82091795,-0.009054481052,-0.009320789017,0.006657706574
63.82339223,-0.009054481052,-0.005059856921,0.007722939365
63.82586702,-0.01225017942,-0.009320789017,0.007722939365
63.82834129,-0.01118494663,-0.0114512546,0.006657706574
63.83081556,-0.01225017942,-0.01358172111,0.008788172156
63.83328983,-0.01757634431,-0.01251648832,0.008788172156
63.83576415,-0.01651111245,-0.01251648832,0.005592473317
63.83823842,-0.01331541315,-0.01358172111,0.003462007269
63.84071269,-0.01544587873,-0.0114512546,0.006657706574
63.84318696,-0.01331541315,-0.01038602181,0.007722939365
63.84566129,-0.01331541315,-0.01038602181,0.006657706574
63.84813556,-0.01757634431,-0.0114512546,0.005592473317
63.85060983,-0.01651111245,-0.01038602181,0.007722939365
63.8530841,-0.01331541315,-0.009320789017,0.007722939365
63.8555603,-0.01757634431,-0.01251648832,0.006657706574
63.85803457,-0.01651111245,-0.01251648832,0.002396774245
63.86050889,-0.01544587873,-0.0114512546,0.003462007269
63.86298316,-0.01544587873,-0.01358172111,0.005592473317
63.86545743,-0.01225017942,-0.0114512546,0.005592473317
63.8679317,-0.01331541315,-0.01038602181,0.002396774245
63.87040598,-0.01544587873,-0.006125089712,0.003462007269
63.87288025,-0.01331541315,-0.005059856921,0.006657706574
63.87535457,-0.01011971384,-0.007190322969,0.006657706574
63.87782884,-0.01118494663,-0.00186415785,0.006657706574
63.88030311,-0.01011971384,0.000266308256,0.007722939365
63.88277738,-0.006924014539,-0.00186415785,0.005592473317
63.88525082,-0.006924014539,-0.0007989247679,0.006657706574
63.88772509,-0.01011971384,0.001331541222,0.006657706574
63.89019941,-0.00798924733,-0.0007989247679,0.006657706574
63.89267368,-0.00798924733,0.001331541222,0.009853405878
63.89514795,-0.006924014539,0.000266308256,0.007722939365
63.89762223,-0.0037283157,0.004527240526,0.006657706574
63.9000965,-0.006924014539,0.004527240526,0.008788172156
63.90257077,-0.006924014539,0.002396774245,0.006657706574
63.90504509,-0.006924014539,0.001331541222,0.006657706574
63.90751936,-0.00798924733,0.001331541222,0.006657706574
63.90999363,-0.00798924733,0.004527240526,0.007722939365
63.9124679,-0.009054481052,0.004527240526,0.007722939365
63.91494321,-0.01118494663,0.004527240526,0.008788172156
63.91741748,-0.01011971384,0.005592473317,0.009853405878
63.91989181,-0.01118494663,0.000266308256,0.007722939365
63.92236608,-0.00798924733,0.001331541222,0.005592473317
63.92484035,-0.00798924733,0.006657706574,0.007722939365
63.92731462,-0.00798924733,0.005592473317,0.009853405878
63.92978889,-0.006924014539,0.005592473317,0.007722939365
63.93226316,-0.005858781748,0.006657706574,0.01091863867
63.93473749,-0.005858781748,0.005592473317,0.008788172156
63.93721176,-0.009054481052,0.003462007269,0.009853405878
63.93968603,-0.009054481052,0.002396774245,0.008788172156
63.9421603,-0.005858781748,0.003462007269,0.007722939365
63.944624,-0.00798924733,0.002396774245,0.007722939365
63.94709827,-0.00798924733,0.000266308256,0.007722939365
63.94957259,-0.006924014539,0.000266308256,0.006657706574
63.95204686,-0.005858781748,-0.00186415785,0.004527240526
63.95452113,-0.00798924733,0.001331541222,0.006657706574
63.9569954,-0.01011971384,-0.002929390874,0.005592473317
63.95946967,-0.009054481052,-0.006125089712,0.003462007269
63.96194394,-0.01011971384,-0.006125089712,0.002396774245
63.96441827,-0.006924014539,-0.008255556226,0.001331541222
63.96689254,-0.01118494663,-0.01571218669,0.000266308256
63.96936681,-0.01438064594,-0.01677742042,0.001331541222
63.97184108,-0.00798924733,-0.018907886,0.000266308256
63.97432519,-0.01225017942,-0.02103835158,-0.00186415785
63.97679946,-0.009054481052,-0.0221035853,-0.002929390874
63.97927379,-0.01118494663,-0.02103835158,-0.0007989247679
63.98174806,-0.01225017942,-0.02742975019,-0.0007989247679
63.98422233,-0.004793548491,-0.02636451647,-0.0007989247679
63.9866966,-0.004793548491,-0.02529928461,0.000266308256
63.98917087,-0.005858781748,-0.02423405088,-0.002929390874
63.99164514,-0.004793548491,-0.0221035853,-0.00186415785
63.99411946,-0.006924014539,-0.01997311972,0.000266308256
63.99659374,-0.001597849536,-0.018907886,0.002396774245
63.99906801,0.001597849536,-0.0146469539,0.000266308256
64.00154228,-0.002663082443,-0.0146469539,-0.0007989247679
64.00401603,-0.0037283157,-0.01571218669,-0.00186415785
64.0064903,-0.002663082443,-0.0146469539,0.001331541222
64.00896462,-0.0037283157,-0.01784265228,-0.005059856921
64.01143889,-0.0037283157,-0.01358172111,-0.00186415785
64.01391316,-0.002663082443,-0.008255556226,-0.002929390874
64.01638743,-0.002663082443,-0.007190322969,-0.0007989247679
64.0188617,-0.002663082443,-0.007190322969,0.000266308256
64.02133598,-0.005858781748,-0.0007989247679,0.001331541222
64.0238103,-0.004793548491,-0.0007989247679,0.004527240526
64.02628457,-0.00798924733,-0.0007989247679,0.006657706574
64.02875884,-0.006924014539,0.001331541222,0.005592473317
64.03123311,-0.004793548491,0.001331541222,0.005592473317
64.03370728,-0.006924014539,0.003462007269,0.007722939365
64.03618155,-0.005858781748,0.003462007269,0.004527240526
64.03865587,-0.004793548491,0.004527240526,0.004527240526
64.04113014,-0.005858781748,0.006657706574,0.004527240526
64.04360441,-0.004793548491,0.004527240526,0.005592473317
64.04607868,-0.00798924733,0.002396774245,0.003462007269
64.04855295,-0.009054481052,0.002396774245,0.005592473317
64.05102722,-0.006924014539,0.003462007269,0.005592473317
64.0535015,-0.009054481052,0.002396774245,0.006657706574
64.05597582,-0.009054481052,0.000266308256,0.007722939365
64.05845009,-0.006924014539,0.000266308256,0.007722939365
64.06092436,-0.004793548491,-0.0007989247679,0.004527240526
64.06341196,-0.006924014539,-0.00186415785,0.007722939365
64.06588624,-0.006924014539,-0.006125089712,0.007722939365
64.06836056,-0.009054481052,-0.007190322969,0.008788172156
64.07083483,-0.005858781748,-0.007190322969,0.009853405878
64.0733091,-0.006924014539,-0.006125089712,0.008788172156
64.07578337,-0.009054481052,-0.003994623665,0.006657706574
64.07825764,-0.005858781748,-0.002929390874,0.007722939365
64.08073191,-0.01118494663,-0.005059856921,0.007722939365
64.08320624,-0.01225017942,-0.006125089712,0.01091863867
64.08568051,-0.005858781748,-0.002929390874,0.01198387146
64.08815478,-0.005858781748,-0.006125089712,0.007722939365
64.09062905,-0.009054481052,-0.003994623665,0.01091863867
64.09310358,-0.01011971384,-0.002929390874,0.008788172156
64.0955779,-0.01225017942,-0.003994623665,0.007722939365
64.09805217,-0.01225017942,-0.006125089712,0.01091863867
64.1005265,-0.01118494663,-0.005059856921,0.007722939365
64.10300077,-0.01331541315,-0.006125089712,0.003462007269
64.10547509,-0.01331541315,-0.005059856921,0.004527240526
64.10794936,-0.01118494663,-0.003994623665,0.005592473317
64.11042363,-0.01118494663,-0.002929390874,0.006657706574
64.11289795,-0.01438064594,-0.002929390874,0.003462007269
64.11537222,-0.01331541315,-0.0007989247679,0.004527240526
64.11784655,-0.01225017942,-0.00186415785,0.006657706574
64.12032082,-0.01118494663,-0.0007989247679,0.005592473317
64.12279311,-0.01011971384,0.001331541222,0.006657706574
64.12526743,-0.01118494663,-0.00186415785,0.005592473317
64.1277417,-0.009054481052,-0.003994623665,0.004527240526
64.13021603,-0.00798924733,-0.0007989247679,0.001331541222
64.1326903,-0.00798924733,-0.002929390874,-0.0007989247679
64.13516462,-0.005858781748,-0.003994623665,-0.002929390874
64.13763889,-0.004793548491,0.000266308256,0.001331541222
64.14011316,-0.0037283157,0.003462007269,0.001331541222
64.14258748,-0.002663082443,0.001331541222,0.000266308256
64.14506176,-0.002663082443,0.001331541222,-0.0007989247679
64.14753608,-0.001597849536,0.003462007269,0.002396774245
64.15001035,-0.001597849536,0.003462007269,-0.00186415785
64.15248613,-0.0005326165119,0.002396774245,-0.002929390874
64.15496045,0.0005326165119,0.002396774245,0.000266308256
64.15743472,0.004793548491,0.002396774245,0.000266308256
64.15990905,0.002663082443,0.003462007269,-0.0007989247679
64.16238332,0.002663082443,0.001331541222,0.002396774245
64.16485764,0.0037283157,0.003462007269,-0.00186415785
64.16733191,0.002663082443,0.009853405878,-0.0007989247679
64.16980618,0.0005326165119,0.007722939365,0.001331541222
64.17228051,0.0037283157,0.005592473317,0.002396774245
64.17475478,0.002663082443,0.005592473317,0.003462007269
64.1772291,0.0037283157,0.007722939365,0.002396774245
64.17970337,0.001597849536,0.003462007269,0.004527240526
64.18217217,0.001597849536,0.003462007269,0.002396774245
64.1846465,0.004793548491,0.001331541222,0.006657706574
64.18712077,0.0037283157,0.002396774245,0.006657706574
64.18959509,-0.0005326165119,0.004527240526,0.003462007269
64.19206936,-0.0005326165119,0.000266308256,0.005592473317
64.19454368,0.001597849536,0.000266308256,0.006657706574
64.19701795,0.001597849536,-0.002929390874,0.007722939365
64.19949222,-0.002663082443,-0.00186415785,0.006657706574
64.20196655,-0.001597849536,-0.00186415785,0.004527240526
64.20444082,-0.002663082443,-0.006125089712,0.005592473317
64.20691514,-0.001597849536,-0.003994623665,0.008788172156
64.20938941,-0.0037283157,-0.002929390874,0.006657706574
64.2118553,-0.004793548491,-0.007190322969,0.003462007269
64.21432962,-0.004793548491,-0.006125089712,0.005592473317
64.21680389,-0.009054481052,-0.009320789017,0.002396774245
64.21927821,-0.006924014539,-0.008255556226,0.002396774245
64.22175249,-0.01011971384,-0.008255556226,0.003462007269
64.22422681,-0.009054481052,-0.0114512546,0.002396774245
64.22670108,-0.01118494663,-0.01038602181,0.003462007269
64.22917535,-0.01225017942,-0.008255556226,-0.00186415785
64.23164967,-0.01331541315,-0.008255556226,0.000266308256
64.23412394,-0.009054481052,-0.01038602181,0.002396774245
64.23659827,-0.009054481052,-0.008255556226,0.003462007269
64.23907254,-0.01011971384,-0.006125089712,0.000266308256
64.24154655,-0.009054481052,-0.007190322969,-0.002929390874
64.24402087,-0.004793548491,-0.006125089712,0.000266308256
64.24649514,-0.0037283157,-0.005059856921,0.002396774245
64.24896946,0.001597849536,-0.0007989247679,0.001331541222
64.25144374,-0.0005326165119,-0.0007989247679,-0.003994623665
64.25391806,-0.002663082443,-0.00186415785,-0.006125089712
64.25639233,-0.001597849536,0.000266308256,-0.005059856921
64.2588666,-0.0005326165119,-0.0007989247679,-0.00186415785
64.26134092,0.0037283157,-0.00186415785,-0.00186415785
64.26381519,0.0037283157,-0.00186415785,-0.00186415785
64.26628952,-0.0005326165119,0.000266308256,-0.005059856921
64.26876379,0.0005326165119,0.002396774245,-0.002929390874
64.27123863,0.001597849536,-0.002929390874,-0.00186415785
64.27371295,0.0005326165119,0.000266308256,-0.002929390874
64.27618722,0.0005326165119,-0.0007989247679,0.000266308256
64.27866155,0.002663082443,-0.0007989247679,0.002396774245
64.28113582,0.001597849536,0.003462007269,0.001331541222
64.28361014,0.001597849536,0.001331541222,-0.0007989247679
64.28608441,0.001597849536,-0.0007989247679,-0.005059856921
64.28855868,0.002663082443,0.001331541222,0.002396774245
64.29103301,0.001597849536,0.002396774245,-0.0007989247679
64.29350728,0.002663082443,-0.0007989247679,-0.002929390874
64.2959816,-0.001597849536,-0.003994623665,-0.00186415785
64.29845587,0.001597849536,-0.005059856921,-0.00186415785
64.30092889,0.001597849536,-0.008255556226,-0.00186415785
64.30340321,0.0005326165119,-0.005059856921,-0.00186415785
64.30587749,-0.002663082443,-0.009320789017,-0.00186415785
64.30835181,-0.005858781748,-0.01358172111,-0.003994623665
64.31082608,-0.0005326165119,-0.009320789017,-0.0007989247679
64.3133004,-0.001597849536,-0.008255556226,0.000266308256
64.31577467,-0.0037283157,-0.006125089712,-0.0007989247679
64.31824894,-0.0037283157,-0.005059856921,-0.0007989247679
64.32072327,-0.005858781748,-0.005059856921,0.000266308256
64.32319754,-0.002663082443,-0.0007989247679,0.004527240526
64.32567186,-0.001597849536,0.000266308256,0.005592473317
64.32814613,0.001597849536,0.000266308256,0.003462007269
64.33061931,-0.0005326165119,0.001331541222,0.006657706574
64.33309363,0.002663082443,0.005592473317,0.007722939365
64.3355679,0.001597849536,0.007722939365,0.005592473317
64.33804223,0.002663082443,0.007722939365,0.008788172156
64.3405165,-0.0005326165119,0.009853405878,0.007722939365
64.34299082,0.001597849536,0.01091863867,0.009853405878
64.34546509,0.001597849536,0.01624480449,0.01304910425
64.34793936,-0.001597849536,0.01731003635,0.01091863867
64.35041368,0.0005326165119,0.01944050193,0.01304910425
64.35288795,-0.001597849536,0.02050573565,0.01091863867
64.35536228,-0.006924014539,0.01944050193,0.009853405878
64.35783655,-0.0037283157,0.01944050193,0.01304910425
64.36031238,-0.0037283157,0.02263620123,0.01198387146
64.3627867,-0.00798924733,0.02263620123,0.01198387146
64.36526098,-0.009054481052,0.01944050193,0.01198387146
64.3677353,-0.009054481052,0.01731003635,0.009853405878
64.37020957,-0.006924014539,0.01624480449,0.009853405878
64.37268389,-0.00798924733,0.01411433797,0.008788172156
64.37515816,-0.00798924733,0.01304910425,0.006657706574
64.37763243,-0.00798924733,0.008788172156,0.004527240526
64.38010676,-0.006924014539,0.007722939365,0.006657706574
64.38258103,-0.00798924733,0.004527240526,0.004527240526
64.38505535,-0.009054481052,0.002396774245,0.004527240526
64.38752962,-0.00798924733,0.001331541222,0.005592473317
64.39000363,-0.006924014539,0.000266308256,0.001331541222
64.39247795,-0.005858781748,0.000266308256,0.001331541222
64.39495222,-0.004793548491,-0.00186415785,0.002396774245
64.39742655,-0.0037283157,-0.00186415785,-0.00186415785
64.39990082,-0.0005326165119,-0.0007989247679,-0.002929390874
64.40237514,-0.001597849536,-0.003994623665,-0.00186415785
64.40484941,0.001597849536,-0.006125089712,-0.003994623665
64.40732368,-0.0005326165119,-0.008255556226,-0.006125089712
64.40979801,0.001597849536,-0.003994623665,-0.003994623665
64.41227228,0.005858781748,-0.005059856921,-0.006125089712
64.4147466,0.006924014539,-0.005059856921,-0.007190322969
64.41722087,0.00798924733,-0.00186415785,-0.005059856921
64.41969493,0.009054481052,0.000266308256,-0.006125089712
64.42216926,0.00798924733,-0.002929390874,-0.006125089712
64.42464353,0.00798924733,0.000266308256,-0.007190322969
64.42711785,0.009054481052,-0.0007989247679,-0.008255556226
64.42959212,0.01118494663,0.001331541222,-0.005059856921
64.43206644,0.01225017942,0.002396774245,-0.006125089712
64.43454071,0.01011971384,0.003462007269,-0.005059856921
64.43701498,0.006924014539,0.004527240526,-0.003994623665
64.43948931,0.01011971384,0.002396774245,-0.0007989247679
64.44196358,0.01118494663,0.004527240526,-0.003994623665
64.4444379,0.00798924733,0.003462007269,-0.003994623665
64.44691217,0.01011971384,0.000266308256,-0.006125089712
64.44938535,0.01011971384,0.000266308256,-0.008255556226
64.45185967,0.009054481052,0.002396774245,-0.00186415785
64.45433394,0.01011971384,0.000266308256,-0.003994623665
64.45680827,0.01011971384,-0.0007989247679,-0.002929390874
64.45928254,0.009054481052,0.003462007269,-0.00186415785
64.46175686,0.01118494663,0.004527240526,-0.002929390874
64.46423113,0.01438064594,0.004527240526,-0.003994623665
64.4667054,0.01331541315,0.004527240526,-0.0007989247679
64.46917972,0.01118494663,0.002396774245,0.000266308256
64.471654,0.009054481052,0.001331541222,0.003462007269
64.47412832,0.00798924733,-0.00186415785,0.001331541222
64.47660259,0.009054481052,0.002396774245,0.000266308256
64.47907764,0.01225017942,0.000266308256,0.000266308256
64.48155196,0.01225017942,-0.0007989247679,-0.0007989247679
64.48402624,0.00798924733,0.000266308256,-0.00186415785
64.48650056,0.00798924733,0.000266308256,-0.003994623665
64.48897483,0.005858781748,0.000266308256,-0.003994623665
64.49144915,0.01011971384,0.002396774245,-0.002929390874
64.49392342,0.009054481052,0.001331541222,-0.003994623665
64.49639769,0.00798924733,0.000266308256,-0.003994623665
64.49887202,0.0037283157,-0.00186415785,-0.002929390874
64.50134629,0.001597849536,-0.0007989247679,-0.005059856921
64.50382061,0.002663082443,-0.005059856921,-0.01038602181
64.50629488,0.006924014539,-0.003994623665,-0.01038602181
64.50876827,0.0037283157,-0.005059856921,-0.009320789017
64.51124259,-0.0005326165119,-0.007190322969,-0.01251648832
64.51371686,0.001597849536,-0.006125089712,-0.006125089712
64.51619118,0.001597849536,-0.008255556226,-0.005059856921
64.51866545,0.001597849536,-0.006125089712,-0.006125089712
64.52113978,-0.001597849536,-0.007190322969,-0.007190322969
64.52361405,0.0005326165119,-0.01038602181,-0.007190322969
64.52608832,0.001597849536,-0.01251648832,-0.007190322969
64.52856264,0.001597849536,-0.01251648832,-0.01038602181
64.53103691,0.004793548491,-0.01251648832,-0.008255556226
64.53351124,0.004793548491,-0.01038602181,-0.009320789017
64.53598551,0.004793548491,-0.008255556226,-0.009320789017
64.53844514,0.00798924733,-0.008255556226,-0.009320789017
64.54091941,0.004793548491,-0.009320789017,-0.009320789017
64.54339374,0.005858781748,-0.009320789017,-0.008255556226
64.54586801,0.00798924733,-0.009320789017,-0.008255556226
64.54834233,0.00798924733,-0.01038602181,-0.007190322969
64.5508166,0.00798924733,-0.005059856921,-0.006125089712
64.55329092,0.009054481052,-0.006125089712,-0.006125089712
64.55576519,0.006924014539,-0.005059856921,-0.006125089712
64.55823952,0.004793548491,-0.00186415785,-0.005059856921
64.56071379,0.006924014539,-0.002929390874,-0.005059856921
64.56318811,0.01118494663,-0.00186415785,-0.002929390874
64.56566238,0.01118494663,0.000266308256,-0.003994623665
64.56815483,0.01011971384,0.001331541222,-0.0007989247679
64.57062915,0.01118494663,0.003462007269,-0.0007989247679
64.57310342,0.01118494663,0.002396774245,-0.00186415785
64.57557775,0.01011971384,0.004527240526,0.002396774245
64.57805202,0.009054481052,0.005592473317,0.000266308256
64.58052634,0.01331541315,0.006657706574,-0.0007989247679
64.58300061,0.01225017942,0.009853405878,0.000266308256
64.58547488,0.01011971384,0.009853405878,-0.0007989247679
64.5879492,0.01118494663,0.009853405878,0.003462007269
64.59042348,0.01118494663,0.006657706574,0.001331541222
64.5928978,0.009054481052,0.006657706574,0.000266308256
64.59537207,0.009054481052,0.008788172156,-0.002929390874
64.59784348,0.01118494663,0.007722939365,-0.00186415785
64.60031775,0.01331541315,0.006657706574,-0.00186415785
64.60279202,0.00798924733,0.001331541222,-0.002929390874
64.60526634,0.0037283157,-0.0007989247679,-0.006125089712
64.60774061,0.005858781748,0.000266308256,-0.00186415785
64.61021488,0.0037283157,-0.00186415785,-0.00186415785
64.61268915,0.0037283157,-0.002929390874,-0.003994623665
64.61516342,0.0037283157,-0.0007989247679,-0.002929390874
64.61763769,0.002663082443,-0.00186415785,-0.005059856921
64.62011202,0.004793548491,-0.005059856921,-0.005059856921
64.62258629,0.0037283157,-0.006125089712,-0.005059856921
64.62506056,0.002663082443,-0.005059856921,-0.006125089712
64.62753592,0.0037283157,-0.006125089712,-0.009320789017
64.63001019,0.002663082443,-0.009320789017,-0.007190322969
64.63248452,0.005858781748,-0.007190322969,-0.005059856921
64.63495879,0.004793548491,-0.006125089712,-0.005059856921
64.63743306,0.0037283157,-0.003994623665,-0.006125089712
64.63990733,0.0037283157,-0.002929390874,-0.007190322969
64.6423816,0.001597849536,-0.00186415785,-0.007190322969
64.64485587,0.0037283157,-0.008255556226,-0.008255556226
64.64733019,0.004793548491,-0.006125089712,-0.008255556226
64.64980446,0.0037283157,-0.00186415785,-0.008255556226
64.65227874,0.004793548491,-0.005059856921,-0.008255556226
64.65475301,0.002663082443,-0.006125089712,-0.006125089712
64.65722603,0.001597849536,-0.003994623665,-0.006125089712
64.6597003,0.002663082443,-0.01038602181,-0.01038602181
64.66217462,0.001597849536,-0.01038602181,-0.009320789017
64.66464889,0.001597849536,-0.01038602181,-0.005059856921
64.66712316,0.002663082443,-0.007190322969,-0.006125089712
64.66959743,0.005858781748,-0.008255556226,-0.003994623665
64.6720717,0.0037283157,-0.01358172111,-0.003994623665
64.67454598,0.005858781748,-0.01358172111,-0.003994623665
64.67702025,0.00798924733,-0.0114512546,-0.003994623665
64.67949457,0.00798924733,-0.009320789017,-0.002929390874
64.68196884,0.01011971384,-0.007190322969,-0.003994623665
64.68444311,0.01011971384,-0.006125089712,-0.003994623665
64.68691941,0.01011971384,-0.002929390874,-0.002929390874
64.68939368,0.01118494663,-0.003994623665,-0.005059856921
64.69186801,0.01118494663,-0.005059856921,-0.0007989247679
64.69434228,0.01331541315,-0.00186415785,-0.002929390874
64.69681655,0.01544587873,0.000266308256,-0.007190322969
64.69929082,0.01331541315,-0.0007989247679,-0.007190322969
64.70176509,0.01331541315,-0.0007989247679,-0.006125089712
64.70423936,0.01331541315,-0.0007989247679,-0.006125089712
64.70671363,0.01544587873,-0.002929390874,-0.003994623665
64.70918795,0.01331541315,-0.0007989247679,-0.0007989247679
64.71166222,0.01225017942,0.000266308256,-0.00186415785
64.7141365,0.01011971384,-0.00186415785,-0.003994623665
64.71660962,0.01118494663,-0.005059856921,-0.003994623665
64.71908389,0.009054481052,-0.003994623665,-0.002929390874
64.72155821,0.006924014539,-0.002929390874,-0.0007989247679
64.72403249,0.006924014539,-0.00186415785,-0.005059856921
64.72650676,0.01011971384,-0.0007989247679,-0.003994623665
64.72898103,0.00798924733,-0.0007989247679,-0.002929390874
64.7314553,0.006924014539,-0.0007989247679,-0.003994623665
64.73392957,0.006924014539,0.001331541222,-0.005059856921
64.73640384,0.004793548491,0.004527240526,-0.005059856921
64.73887816,0.00798924733,0.003462007269,-0.003994623665
64.74135243,0.006924014539,0.003462007269,-0.0007989247679
64.7438267,0.0037283157,0.003462007269,0.000266308256
64.74630009,0.0037283157,0.002396774245,-0.007190322969
64.74877436,0.006924014539,0.002396774245,-0.005059856921
64.75124868,0.001597849536,-0.00186415785,-0.006125089712
64.75372295,0.0005326165119,-0.00186415785,-0.007190322969
64.75619723,0.001597849536,-0.003994623665,-0.005059856921
64.7586715,-0.001597849536,-0.003994623665,-0.006125089712
64.76114577,0.001597849536,-0.005059856921,-0.008255556226
64.76362004,0.002663082443,-0.008255556226,-0.007190322969
64.76609431,0.0005326165119,-0.0114512546,-0.007190322969
64.76856863,-0.0005326165119,-0.009320789017,-0.01251648832
64.7710429,0.0005326165119,-0.006125089712,-0.0114512546
64.77351717,0.0037283157,-0.007190322969,-0.0114512546
64.77599259,0.002663082443,-0.008255556226,-0.009320789017
64.77846686,0.004793548491,-0.003994623665,-0.0114512546
64.78094118,0.006924014539,-0.006125089712,-0.01251648832
64.78341545,0.009054481052,-0.006125089712,-0.0114512546
64.78588972,0.005858781748,-0.006125089712,-0.009320789017
64.788364,0.009054481052,-0.002929390874,-0.009320789017
64.79083827,0.01118494663,-0.003994623665,-0.009320789017
64.79331254,0.01225017942,-0.002929390874,-0.01038602181
64.79578681,0.01331541315,-0.002929390874,-0.007190322969
64.79826113,0.01225017942,-0.0007989247679,-0.008255556226
64.8007354,0.01544587873,0.000266308256,-0.003994623665
64.80320967,0.01544587873,0.002396774245,-0.008255556226
64.80568348,0.01757634431,0.005592473317,-0.008255556226
64.80815775,0.01970681176,0.007722939365,-0.005059856921
64.81063207,0.01970681176,0.003462007269,-0.006125089712
64.81310634,0.02183727734,0.006657706574,-0.003994623665
64.81558061,0.01757634431,0.005592473317,-0.002929390874
64.81805488,0.01970681176,0.004527240526,-0.006125089712
64.82052915,0.01864157803,0.006657706574,-0.006125089712
64.82300342,0.01864157803,0.006657706574,-0.005059856921
64.82547769,0.01864157803,0.008788172156,-0.006125089712
64.82795202,0.01651111245,0.007722939365,-0.006125089712
64.83042629,0.01331541315,0.007722939365,-0.007190322969
64.83290056,0.01651111245,0.006657706574,-0.006125089712
64.83537488,0.01438064594,0.003462007269,-0.006125089712
64.83784915,0.01011971384,0.003462007269,-0.007190322969
64.84032348,0.00798924733,0.000266308256,-0.007190322969
64.84279775,0.009054481052,-0.0007989247679,-0.008255556226
64.84527202,0.01011971384,-0.00186415785,-0.009320789017
64.84774629,0.006924014539,0.000266308256,-0.009320789017
64.85022056,0.009054481052,-0.002929390874,-0.01038602181
64.85269483,0.009054481052,-0.003994623665,-0.009320789017
64.8551691,0.009054481052,-0.0007989247679,-0.008255556226
64.85764342,0.01011971384,-0.002929390874,-0.01038602181
64.86011769,0.006924014539,-0.003994623665,-0.009320789017
64.86259196,0.01011971384,-0.005059856921,-0.009320789017
64.86506707,0.01118494663,-0.00186415785,-0.007190322969
64.86754134,0.005858781748,-0.002929390874,-0.008255556226
64.87001566,0.01225017942,-0.005059856921,-0.0114512546
64.87248993,0.01011971384,-0.003994623665,-0.01038602181
64.8749642,0.01011971384,-0.00186415785,-0.008255556226
64.87743848,0.01225017942,-0.002929390874,-0.009320789017
64.87991275,0.01118494663,-0.002929390874,-0.01038602181
64.88238702,0.01118494663,-0.00186415785,-0.0114512546
64.88486129,0.01544587873,-0.0007989247679,-0.006125089712
64.88733561,0.01225017942,-0.003994623665,-0.007190322969
64.88980988,0.01225017942,-0.00186415785,-0.009320789017
64.89228415,0.01225017942,-0.0007989247679,-0.009320789017
64.89475707,0.01544587873,-0.002929390874,-0.01038602181
64.89723134,0.01544587873,-0.0007989247679,-0.005059856921
64.89970566,0.01118494663,-0.002929390874,-0.01038602181
64.90217993,0.01011971384,-0.0007989247679,-0.01251648832
64.9046542,0.01225017942,-0.0007989247679,-0.01038602181
64.90712848,0.01118494663,0.003462007269,-0.009320789017
64.90960275,0.01011971384,0.001331541222,-0.0114512546
64.91207702,0.01011971384,0.000266308256,-0.0114512546
64.91455129,0.009054481052,0.001331541222,-0.01038602181
64.91702561,0.00798924733,-0.0007989247679,-0.01251648832
64.91949988,0.00798924733,0.000266308256,-0.01038602181
64.92197415,0.01118494663,-0.0007989247679,-0.01251648832
64.92445098,0.01011971384,0.000266308256,-0.008255556226
64.92692525,0.01011971384,0.002396774245,-0.009320789017
64.92939957,0.006924014539,0.001331541222,-0.009320789017
64.93187384,0.006924014539,0.001331541222,-0.0114512546
64.93434811,0.009054481052,0.004527240526,-0.008255556226
64.93682238,0.00798924733,0.003462007269,-0.007190322969
64.93929665,0.009054481052,0.003462007269,-0.008255556226
64.94177092,0.01225017942,0.006657706574,-0.008255556226
64.94424519,0.00798924733,0.001331541222,-0.008255556226
64.94671952,0.009054481052,-0.0007989247679,-0.01038602181
64.94919379,0.01225017942,0.000266308256,-0.01038602181
64.95166806,0.01118494663,0.001331541222,-0.01038602181
64.95414129,0.01011971384,-0.0007989247679,-0.01038602181
64.95661556,0.01438064594,-0.0007989247679,-0.01038602181
64.95908988,0.01438064594,-0.003994623665,-0.01038602181
64.96156415,0.01225017942,-0.008255556226,-0.01358172111
64.96403842,0.01544587873,-0.006125089712,-0.01571218669
64.96651269,0.01651111245,-0.008255556226,-0.01251648832
64.96898696,0.01544587873,-0.005059856921,-0.0114512546
64.97146124,0.01331541315,-0.009320789017,-0.01358172111
64.97393551,0.01757634431,-0.01038602181,-0.0146469539
64.97640983,0.01757634431,-0.007190322969,-0.01571218669
64.9788841,0.01970681176,-0.008255556226,-0.01358172111
64.98135837,0.01970681176,-0.008255556226,-0.01358172111
64.98383348,0.01757634431,-0.007190322969,-0.01784265228
64.98630775,0.01864157803,-0.01038602181,-0.01784265228
64.98878207,0.0260982085,-0.008255556226,-0.01358172111
64.99125634,0.02396774292,-0.009320789017,-0.0146469539
64.99373061,0.02077204362,-0.007190322969,-0.01571218669
64.99620488,0.02077204362,-0.007190322969,-0.018907886
64.99867915,0.02077204362,-0.009320789017,-0.018907886
65.00115342,0.01970681176,-0.01038602181,-0.018907886
65.00362769,0.01864157803,-0.01038602181,-0.018907886
65.00610202,0.01757634431,-0.007190322969,-0.01784265228
65.00857629,0.01757634431,-0.007190322969,-0.0146469539
65.01105056,0.01651111245,-0.007190322969,-0.018907886
65.01352348,0.01544587873,-0.009320789017,-0.0146469539
65.01599775,0.01331541315,-0.008255556226,-0.0146469539
65.01847207,0.01225017942,-0.007190322969,-0.01784265228
65.02094634,0.01118494663,-0.007190322969,-0.01677742042
65.02342061,0.01331541315,-0.006125089712,-0.01571218669
65.02589488,0.01118494663,-0.006125089712,-0.01997311972
65.02836915,0.01011971384,-0.006125089712,-0.01677742042
65.03084342,0.009054481052,-0.002929390874,-0.01677742042
65.03331769,0.009054481052,-0.002929390874,-0.0146469539
65.03579202,0.01118494663,-0.003994623665,-0.01251648832
65.03826629,0.01118494663,-0.007190322969,-0.0114512546
65.04074056,0.00798924733,-0.006125089712,-0.0146469539
65.04321514,0.00798924733,-0.007190322969,-0.01251648832
65.04568941,0.009054481052,-0.0114512546,-0.01358172111
65.04816368,0.01118494663,-0.01038602181,-0.01784265228
65.05063801,0.01118494663,-0.006125089712,-0.01571218669
65.05311228,0.009054481052,-0.007190322969,-0.01251648832
65.05558655,0.009054481052,-0.01038602181,-0.01358172111
65.05806082,0.00798924733,-0.005059856921,-0.01358172111
65.06053509,0.009054481052,-0.008255556226,-0.01038602181
65.06300936,0.01011971384,-0.008255556226,-0.01251648832
65.06548368,0.01225017942,-0.008255556226,-0.0114512546
65.06795795,0.01118494663,-0.009320789017,-0.008255556226
65.07043222,0.009054481052,-0.007190322969,-0.008255556226
65.07290582,0.01011971384,-0.009320789017,-0.01038602181
65.07538009,0.01331541315,-0.0114512546,-0.01251648832
65.07785441,0.01225017942,-0.009320789017,-0.01251648832
65.08032868,0.01331541315,-0.007190322969,-0.009320789017
65.08280295,0.01757634431,-0.01358172111,-0.01038602181
65.08527722,0.01864157803,-0.0114512546,-0.01038602181
65.0877515,0.01651111245,-0.0114512546,-0.01251648832
65.09022577,0.01651111245,-0.01358172111,-0.01038602181
65.09270004,0.01331541315,-0.0146469539,-0.01251648832
65.09517436,0.01651111245,-0.01677742042,-0.01358172111
65.09764863,0.01757634431,-0.01677742042,-0.0114512546
65.1001229,0.01757634431,-0.01358172111,-0.0114512546
65.10259946,0.01544587873,-0.01358172111,-0.0146469539
65.10507374,0.01651111245,-0.01358172111,-0.01571218669
65.10754806,0.01331541315,-0.01251648832,-0.01358172111
65.11002233,0.01011971384,-0.01251648832,-0.0146469539
65.1124966,0.01225017942,-0.01251648832,-0.01571218669
65.11497087,0.01331541315,-0.0114512546,-0.01251648832
65.11744514,0.01225017942,-0.01251648832,-0.01358172111
65.11991946,0.01225017942,-0.01251648832,-0.01038602181
65.12239374,0.01438064594,-0.01251648832,-0.0114512546
65.12486801,0.01651111245,-0.01251648832,-0.01038602181
65.12734228,0.01864157803,-0.01251648832,-0.01358172111
65.1298166,0.01864157803,-0.01038602181,-0.01251648832
65.13228957,0.01331541315,-0.009320789017,-0.01358172111
65.13476384,0.01757634431,-0.007190322969,-0.01571218669
65.13723816,0.01970681176,-0.005059856921,-0.01571218669
65.13971243,0.01757634431,-0.005059856921,-0.0114512546
65.1421867,0.01864157803,-0.007190322969,-0.0114512546
65.14466098,0.01864157803,-0.003994623665,-0.0114512546
65.14713525,0.01864157803,-0.005059856921,-0.01358172111
65.14960957,0.01757634431,-0.007190322969,-0.0146469539
65.15208384,0.01757634431,-0.006125089712,-0.01251648832
65.15455811,0.01438064594,-0.008255556226,-0.01358172111
65.15703238,0.01544587873,-0.008255556226,-0.0146469539
65.1595067,0.01757634431,-0.008255556226,-0.01251648832
65.16198222,0.01225017942,-0.0114512546,-0.01677742042
65.1644565,0.009054481052,-0.0146469539,-0.01784265228
65.16693082,0.009054481052,-0.01358172111,-0.01571218669
65.16940509,0.01011971384,-0.0114512546,-0.01677742042
65.17187936,0.009054481052,-0.01251648832,-0.01784265228
65.17435363,0.009054481052,-0.0114512546,-0.01677742042
65.1768279,0.006924014539,-0.0114512546,-0.018907886
65.17930222,0.009054481052,-0.0114512546,-0.02103835158
65.1817765,0.01118494663,-0.01038602181,-0.01571218669
65.18425077,0.009054481052,-0.01038602181,-0.01784265228
65.18672504,0.01118494663,-0.007190322969,-0.01784265228
65.18919936,0.01544587873,-0.005059856921,-0.01251648832
65.19167176,0.01438064594,-0.006125089712,-0.01677742042
65.19414603,0.01544587873,-0.002929390874,-0.01571218669
65.19662035,0.01651111245,-0.00186415785,-0.01571218669
65.19909462,0.01651111245,0.001331541222,-0.01251648832
65.20156889,0.02077204362,0.002396774245,-0.01358172111
65.20404316,0.01864157803,0.004527240526,-0.0146469539
65.20651743,0.01864157803,0.004527240526,-0.0146469539
65.20899176,0.01757634431,0.003462007269,-0.01251648832
65.21146603,0.02077204362,0.004527240526,-0.01251648832
65.2139403,0.01864157803,0.007722939365,-0.0114512546
65.21641457,0.02077204362,0.007722939365,-0.0114512546
65.21888889,0.0229025092,0.008788172156,-0.01038602181
65.22137181,0.01970681176,0.005592473317,-0.0114512546
65.22384608,0.02077204362,0.006657706574,-0.01251648832
65.2263204,0.01864157803,0.003462007269,-0.01358172111
65.22879467,0.02077204362,0.002396774245,-0.0146469539
65.23126894,0.01864157803,0.002396774245,-0.01251648832
65.23374321,0.01970681176,0.000266308256,-0.01358172111
65.23621748,0.01970681176,0.001331541222,-0.0114512546
65.23869181,0.01757634431,0.001331541222,-0.0114512546
65.24116608,0.01757634431,0.000266308256,-0.0114512546
65.24364035,0.01864157803,0.000266308256,-0.01571218669
65.24611462,0.01970681176,-0.0007989247679,-0.01038602181
65.24858894,0.01757634431,-0.00186415785,-0.01251648832
65.25106926,0.01544587873,-0.003994623665,-0.01571218669
65.25354353,0.01757634431,-0.006125089712,-0.0146469539
65.25601785,0.01438064594,-0.005059856921,-0.0146469539
65.25849212,0.01544587873,-0.006125089712,-0.01571218669
65.26096639,0.01757634431,-0.006125089712,-0.01571218669
65.26344066,0.01651111245,-0.01251648832,-0.0146469539
65.26591493,0.01757634431,-0.01251648832,-0.01677742042
65.26838926,0.01757634431,-0.0146469539,-0.01677742042
65.27086353,0.01864157803,-0.01358172111,-0.01784265228
65.2733378,0.01544587873,-0.0114512546,-0.01784265228
65.27581207,0.01331541315,-0.0114512546,-0.01571218669
65.27828639,0.01225017942,-0.0114512546,-0.01571218669
65.28076332,0.01118494663,-0.0114512546,-0.01784265228
65.28323759,0.01438064594,-0.0114512546,-0.01571218669
65.28571191,0.01331541315,-0.006125089712,-0.0146469539
65.28818618,0.01118494663,-0.006125089712,-0.01358172111
65.29066045,0.01011971384,-0.002929390874,-0.01038602181
65.29313472,0.009054481052,-0.003994623665,-0.0146469539
65.295609,0.005858781748,-0.00186415785,-0.01251648832
65.29808332,0.006924014539,-0.00186415785,-0.0114512546
65.30055759,0.00798924733,-0.003994623665,-0.01358172111
65.30303186,0.009054481052,-0.002929390874,-0.01251648832
65.30550613,0.005858781748,-0.00186415785,-0.01038602181
65.30798045,0.004793548491,0.000266308256,-0.008255556226
65.31045113,0.006924014539,-0.00186415785,-0.009320789017
65.3129254,0.0037283157,-0.002929390874,-0.009320789017
65.31539972,0.001597849536,-0.00186415785,-0.0114512546
65.317874,0.0037283157,-0.006125089712,-0.008255556226
65.32034827,0.005858781748,-0.007190322969,-0.005059856921
65.32282254,0.004793548491,-0.005059856921,-0.005059856921
65.32529681,0.00798924733,-0.003994623665,-0.006125089712
65.32777113,0.00798924733,-0.006125089712,-0.005059856921
65.3302454,0.00798924733,-0.008255556226,-0.005059856921
65.33271967,0.005858781748,-0.009320789017,-0.006125089712
65.33519394,0.00798924733,-0.002929390874,-0.007190322969
65.33766827,0.006924014539,-0.002929390874,-0.002929390874
65.34011186,0.01011971384,-0.005059856921,-0.003994623665
65.34258613,0.00798924733,-0.002929390874,-0.006125089712
65.3450604,0.01118494663,-0.007190322969,-0.006125089712
65.34753472,0.01011971384,-0.007190322969,-0.009320789017
65.350009,0.009054481052,-0.005059856921,-0.007190322969
65.35248327,0.01118494663,-0.005059856921,-0.005059856921
65.35495754,0.01118494663,-0.002929390874,-0.007190322969
65.35743181,0.00798924733,-0.003994623665,-0.009320789017
65.35990613,0.00798924733,-0.005059856921,-0.01358172111
65.3623804,0.01225017942,-0.006125089712,-0.01038602181
65.36485467,0.01011971384,-0.006125089712,-0.01038602181
65.36732894,0.006924014539,-0.006125089712,-0.0114512546
65.3698242,0.009054481052,-0.007190322969,-0.0146469539
65.37229848,0.009054481052,-0.007190322969,-0.0146469539
65.3747728,0.009054481052,-0.009320789017,-0.01251648832
65.37724707,0.004793548491,-0.009320789017,-0.01571218669
65.37972134,0.0037283157,-0.007190322969,-0.01571218669
65.38219561,0.005858781748,-0.009320789017,-0.01358172111
65.38466988,0.0037283157,-0.01251648832,-0.009320789017
65.38714415,0.0005326165119,-0.0114512546,-0.01038602181
65.38961848,0.0037283157,-0.01038602181,-0.01358172111
65.39209275,0.004793548491,-0.01251648832,-0.01358172111
65.39456702,0.002663082443,-0.0146469539,-0.0114512546
65.39704134,-0.0005326165119,-0.01571218669,-0.0114512546
65.39951248,0.0005326165119,-0.008255556226,-0.01038602181
65.40198676,0.004793548491,-0.0114512546,-0.009320789017
65.40446108,0.005858781748,-0.01358172111,-0.003994623665
65.40693535,0.005858781748,-0.01251648832,-0.009320789017
65.40940962,0.004793548491,-0.01358172111,-0.006125089712
65.41188389,0.004793548491,-0.0146469539,-0.007190322969
65.41435816,0.006924014539,-0.0146469539,-0.007190322969
65.41683248,0.002663082443,-0.01358172111,-0.007190322969
65.41930676,0.005858781748,-0.0114512546,-0.006125089712
65.42178103,0.005858781748,-0.01038602181,-0.006125089712
65.4242553,0.0037283157,-0.007190322969,-0.003994623665
65.42672962,0.004793548491,-0.007190322969,-0.00186415785
65.42920488,0.009054481052,-0.007190322969,-0.0007989247679
65.43167915,0.009054481052,-0.003994623665,-0.002929390874
65.43415348,0.006924014539,-0.006125089712,-0.005059856921
65.43662775,0.01118494663,-0.0007989247679,-0.005059856921
65.43910202,0.01011971384,-0.002929390874,-0.006125089712
65.44157629,0.009054481052,-0.005059856921,-0.005059856921
65.44405056,0.009054481052,-0.002929390874,-0.0007989247679
65.44652488,0.009054481052,-0.006125089712,-0.006125089712
65.44899915,0.009054481052,-0.009320789017,-0.005059856921
65.45147342,0.009054481052,-0.007190322969,-0.003994623665
65.45394769,0.009054481052,-0.008255556226,-0.003994623665
65.45642202,0.006924014539,-0.006125089712,-0.006125089712
65.45889441,0.004793548491,-0.003994623665,-0.005059856921
65.46136868,0.005858781748,-0.00186415785,-0.005059856921
65.46384301,0.004793548491,-0.005059856921,-0.00186415785
65.46631728,0.006924014539,-0.002929390874,0.000266308256
65.46879155,0.005858781748,-0.00186415785,-0.0007989247679
65.47126582,-0.0005326165119,-0.00186415785,-0.002929390874
65.47374009,-0.0005326165119,-0.005059856921,-0.006125089712
65.47621441,0.0005326165119,-0.003994623665,-0.003994623665
65.47868868,-0.002663082443,-0.002929390874,-0.00186415785
65.48116295,-0.006924014539,0.000266308256,-0.00186415785
65.48363723,-0.002663082443,0.002396774245,-0.005059856921
65.48611155,-0.001597849536,0.002396774245,-0.003994623665
65.48858998,-0.004793548491,0.003462007269,-0.003994623665
65.49106426,-0.006924014539,0.002396774245,-0.003994623665
65.49353858,-0.005858781748,0.001331541222,-0.002929390874
65.49601285,-0.005858781748,0.002396774245,-0.002929390874
65.49848712,-0.004793548491,-0.0007989247679,-0.003994623665
65.50096139,-0.004793548491,-0.002929390874,-0.007190322969
65.50343566,-0.00798924733,-0.002929390874,-0.007190322969
65.50590998,-0.002663082443,0.002396774245,-0.003994623665
65.50838426,0.0005326165119,0.001331541222,-0.005059856921
65.51085853,-0.001597849536,-0.00186415785,-0.002929390874
65.5133328,0.001597849536,0.001331541222,-0.003994623665
65.51580712,0.0037283157,0.000266308256,-0.00186415785
65.51829207,0.002663082443,-0.0007989247679,-0.003994623665
65.52076634,0.004793548491,-0.002929390874,-0.006125089712
65.52324066,0.0037283157,-0.0007989247679,-0.008255556226
65.52571493,0.005858781748,0.001331541222,-0.005059856921
65.5281892,0.005858781748,-0.0007989247679,-0.006125089712
65.53066348,0.005858781748,0.000266308256,-0.005059856921
65.53313775,0.01011971384,0.000266308256,-0.005059856921
65.53561207,0.01225017942,-0.00186415785,-0.007190322969
65.53808634,0.01011971384,0.001331541222,-0.002929390874
65.54056061,0.01225017942,0.003462007269,-0.002929390874
65.54303488,0.01118494663,0.004527240526,-0.005059856921
65.5455092,0.01225017942,0.003462007269,-0.006125089712
65.54797014,0.01225017942,0.004527240526,-0.003994623665
65.55044441,0.01225017942,0.001331541222,-0.0007989247679
65.55291874,0.01011971384,0.001331541222,-0.00186415785
65.55539301,0.01225017942,0.001331541222,-0.003994623665
65.55786728,0.01331541315,0.001331541222,-0.003994623665
65.56034155,0.01118494663,0.003462007269,-0.003994623665
65.56281582,0.006924014539,0.002396774245,-0.003994623665
65.56529014,0.00798924733,0.001331541222,-0.002929390874
65.56776441,0.004793548491,0.001331541222,-0.006125089712
65.57023868,0.004793548491,0.000266308256,-0.008255556226
65.57271295,0.004793548491,0.000266308256,-0.007190322969
65.57518728,0.001597849536,-0.00186415785,-0.009320789017
65.57766098,0.001597849536,-0.00186415785,-0.0114512546
65.58013525,-0.0005326165119,-0.002929390874,-0.008255556226
65.58260957,0.001597849536,0.000266308256,-0.006125089712
65.58508384,0.0037283157,-0.0007989247679,-0.003994623665
65.58755811,0.004793548491,-0.003994623665,-0.009320789017
65.59003238,0.0005326165119,-0.002929390874,-0.01038602181
65.59250665,0.0005326165119,-0.002929390874,-0.007190322969
65.59498098,0.002663082443,-0.005059856921,-0.007190322969
65.59745525,0.002663082443,-0.0007989247679,-0.01251648832
65.59992952,0.002663082443,0.000266308256,-0.008255556226
65.60240379,0.0037283157,-0.0007989247679,-0.008255556226
65.60487811,0.004793548491,0.003462007269,-0.007190322969
65.60735295,0.005858781748,0.002396774245,-0.002929390874
65.60982722,0.004793548491,0.003462007269,-0.008255556226
65.61230155,0.004793548491,0.003462007269,-0.008255556226
65.61477582,0.005858781748,0.001331541222,-0.007190322969
65.61725009,0.006924014539,0.002396774245,-0.006125089712
65.61972436,0.006924014539,0.002396774245,-0.005059856921
65.62219863,0.005858781748,0.001331541222,-0.006125089712
65.62467295,0.001597849536,-0.0007989247679,-0.005059856921
65.62714722,-0.0005326165119,0.001331541222,-0.003994623665
65.6296215,0.004793548491,-0.00186415785,-0.006125089712
65.63209577,0.005858781748,0.006657706574,-0.00186415785
65.63457009,0.005858781748,0.005592473317,-0.002929390874
65.63704306,0.0037283157,0.004527240526,-0.002929390874
65.63951733,0.001597849536,0.002396774245,0.000266308256
65.64199165,-0.0005326165119,0.001331541222,-0.0007989247679
65.64446592,0.001597849536,0.002396774245,-0.00186415785
65.64694019,0.001597849536,0.002396774245,0.000266308256
65.64941446,-0.001597849536,0.002396774245,0.000266308256
65.65188874,-0.0037283157,0.003462007269,0.001331541222
65.65436306,-0.0037283157,0.002396774245,0.005592473317
65.65683733,-0.004793548491,-0.0007989247679,0.004527240526
65.6593116,-0.004793548491,0.000266308256,0.003462007269
65.66178587,-0.00798924733,0.001331541222,0.007722939365
65.66426019,-0.00798924733,0.000266308256,0.007722939365
65.66673525,-0.00798924733,0.000266308256,0.007722939365
65.66920952,-0.00798924733,0.001331541222,0.005592473317
65.67168384,-0.005858781748,-0.002929390874,0.006657706574
65.67415811,-0.01011971384,0.000266308256,0.004527240526
65.67663238,-0.01011971384,0.000266308256,0.006657706574
65.67910665,-0.009054481052,0.001331541222,0.006657706574
65.68158092,-0.004793548491,0.000266308256,0.005592473317
65.68405525,-0.009054481052,0.000266308256,0.003462007269
65.68652952,-0.01011971384,0.000266308256,0.002396774245
65.68900379,-0.009054481052,-0.002929390874,0.000266308256
65.69147806,-0.00798924733,-0.003994623665,0.001331541222
65.69395238,-0.006924014539,-0.006125089712,0.001331541222
65.69642676,-0.00798924733,-0.009320789017,-0.002929390874
65.69890103,-0.004793548491,-0.009320789017,-0.002929390874
65.70137535,-0.002663082443,-0.01038602181,-0.00186415785
65.70384962,-0.0037283157,-0.0114512546,-0.002929390874
65.70632389,-0.002663082443,-0.01038602181,-0.006125089712
65.70879816,-0.001597849536,-0.009320789017,-0.005059856921
65.71127243,-0.0005326165119,-0.008255556226,-0.002929390874
65.71374676,-0.0005326165119,-0.006125089712,-0.007190322969
65.71622103,0.001597849536,-0.006125089712,-0.005059856921
65.7186953,0.002663082443,-0.008255556226,-0.003994623665
65.72116957,0.0037283157,-0.008255556226,-0.003994623665
65.72364389,0.001597849536,-0.008255556226,-0.005059856921
65.7261192,0.002663082443,-0.005059856921,-0.003994623665
65.72859348,0.002663082443,-0.00186415785,-0.008255556226
65.7310678,0.0005326165119,-0.005059856921,-0.005059856921
65.73354207,0.0037283157,-0.003994623665,-0.00186415785
65.73601634,0.002663082443,-0.0007989247679,-0.009320789017
65.73849061,0.002663082443,0.002396774245,-0.003994623665
65.74096488,0.0037283157,0.001331541222,-0.002929390874
65.7434392,-0.0005326165119,0.002396774245,-0.003994623665
65.74591348,0.0005326165119,0.005592473317,-0.003994623665
65.74838775,0.0037283157,0.005592473317,-0.002929390874
65.75086202,0.0005326165119,0.004527240526,-0.006125089712
65.75333634,0.0037283157,0.007722939365,-0.005059856921
65.75581098,-0.0005326165119,0.003462007269,-0.002929390874
65.75828525,-0.0005326165119,0.003462007269,-0.00186415785
65.76075957,-0.004793548491,0.002396774245,-0.002929390874
65.76323384,-0.002663082443,0.001331541222,-0.002929390874
65.76570811,-0.004793548491,-0.0007989247679,-0.003994623665
65.76818238,-0.006924014539,-0.0007989247679,-0.005059856921
65.77065665,-0.005858781748,-0.00186415785,-0.003994623665
65.77313098,-0.006924014539,-0.005059856921,-0.005059856921
65.77560525,-0.006924014539,-0.003994623665,-0.005059856921
65.77807952,-0.004793548491,-0.003994623665,0.000266308256
65.78055379,-0.004793548491,-0.005059856921,0.001331541222
65.78302811,-0.006924014539,-0.007190322969,-0.00186415785
65.78550087,-0.004793548491,-0.007190322969,-0.00186415785
65.78797514,-0.0037283157,-0.009320789017,-0.0007989247679
65.79044946,-0.001597849536,-0.007190322969,-0.003994623665
65.79292374,-0.002663082443,-0.008255556226,-0.0007989247679
65.79539801,0.0005326165119,-0.00186415785,0.005592473317
65.79787228,0.001597849536,-0.0007989247679,0.001331541222
65.80034655,0.0005326165119,-0.00186415785,0.000266308256
65.80282087,-0.0005326165119,0.001331541222,0.002396774245
65.80529514,0.001597849536,0.000266308256,0.000266308256
65.80776941,0.002663082443,0.000266308256,0.002396774245
65.81024368,-0.0005326165119,0.003462007269,0.002396774245
65.81271801,-0.0005326165119,0.002396774245,0.004527240526
65.8152029,-0.0005326165119,0.002396774245,0.001331541222
65.81767717,-0.0005326165119,0.003462007269,0.001331541222
65.8201515,-0.002663082443,0.004527240526,-0.0007989247679
65.82262577,-0.002663082443,0.006657706574,0.000266308256
65.82510004,-0.001597849536,0.003462007269,0.002396774245
65.82757431,-0.0037283157,0.004527240526,0.002396774245
65.83004858,-0.001597849536,0.009853405878,0.000266308256
65.83252285,-0.004793548491,0.007722939365,0.002396774245
65.83499717,-0.0037283157,0.006657706574,0.001331541222
65.83747144,-0.001597849536,0.006657706574,0.001331541222
65.83994571,-0.002663082443,0.007722939365,0.004527240526
65.84242004,-0.001597849536,0.009853405878,0.004527240526
65.84488217,0.0005326165119,0.01198387146,0.003462007269
65.8473565,-0.002663082443,0.01411433797,0.003462007269
65.84983077,-0.002663082443,0.01517957076,0.002396774245
65.85230504,0.001597849536,0.01517957076,0.004527240526
65.85477931,0.002663082443,0.01517957076,0.006657706574
65.85725358,-0.001597849536,0.007722939365,0.006657706574
65.85972785,-0.004793548491,0.008788172156,0.007722939365
65.86220217,-0.002663082443,0.01304910425,0.003462007269
65.86467644,-0.0005326165119,0.01091863867,0.006657706574
65.86715071,-0.001597849536,0.007722939365,0.003462007269
65.86962498,-0.001597849536,0.007722939365,0.003462007269
65.87209931,-0.005858781748,0.008788172156,0.002396774245
65.87457556,-0.0037283157,0.007722939365,0.003462007269
65.87704983,-0.005858781748,0.003462007269,0.005592473317
65.87952415,-0.009054481052,0.002396774245,0.003462007269
65.88199842,-0.0037283157,0.001331541222,0.004527240526
65.88447269,-0.005858781748,-0.0007989247679,0.000266308256
65.88694696,-0.00798924733,-0.00186415785,0.001331541222
65.88942124,-0.009054481052,-0.00186415785,0.000266308256
65.89189556,-0.00798924733,-0.005059856921,-0.0007989247679
65.89436983,-0.01011971384,-0.002929390874,-0.00186415785
65.8968441,-0.005858781748,-0.003994623665,-0.00186415785
65.89931837,-0.006924014539,-0.006125089712,0.002396774245
65.90179269,-0.006924014539,-0.006125089712,0.001331541222
65.9042666,-0.006924014539,-0.007190322969,-0.002929390874
65.90674087,-0.006924014539,-0.002929390874,-0.005059856921
65.90921519,-0.005858781748,-0.005059856921,0.000266308256
65.91168946,-0.004793548491,-0.006125089712,-0.002929390874
65.91416374,-0.005858781748,-0.002929390874,0.001331541222
65.91663801,-0.006924014539,-0.002929390874,0.002396774245
65.91911228,-0.00798924733,-0.005059856921,-0.00186415785
65.9215866,-0.005858781748,-0.002929390874,-0.0007989247679
65.92406087,-0.006924014539,-0.0007989247679,0.002396774245
65.92653514,-0.009054481052,0.000266308256,0.002396774245
65.92900941,-0.006924014539,0.004527240526,0.001331541222
65.93148374,-0.006924014539,0.002396774245,0.002396774245
65.93395795,-0.00798924733,0.003462007269,0.005592473317
65.93643222,-0.009054481052,0.006657706574,0.006657706574
65.93890655,-0.005858781748,0.007722939365,0.003462007269
65.94138082,-0.004793548491,0.006657706574,0.004527240526
65.94385509,-0.004793548491,0.003462007269,0.006657706574
65.94632936,-0.00798924733,0.004527240526,0.006657706574
65.94880363,-0.009054481052,0.002396774245,0.003462007269
65.95127795,-0.00798924733,0.000266308256,0.005592473317
65.95375222,-0.009054481052,0.001331541222,0.005592473317
65.9562265,-0.00798924733,0.001331541222,0.005592473317
65.95870077,-0.00798924733,-0.0007989247679,0.005592473317
65.96117509,-0.01011971384,-0.0007989247679,0.002396774245
65.96364988,-0.01011971384,-0.0007989247679,0.001331541222
65.96612415,-0.01011971384,0.003462007269,0.007722939365
65.96859848,-0.01011971384,0.001331541222,0.004527240526
65.97107275,-0.01011971384,-0.0007989247679,0.004527240526
65.97354702,-0.00798924733,-0.002929390874,0.005592473317
65.97602129,-0.00798924733,-0.003994623665,0.005592473317
65.97849556,-0.01011971384,-0.002929390874,0.008788172156
65.98096988,-0.01118494663,-0.003994623665,0.006657706574
65.98344415,-0.01118494663,-0.008255556226,0.001331541222
65.98591842,-0.00798924733,-0.007190322969,0.001331541222
65.98839269,-0.01118494663,-0.007190322969,0.001331541222
65.99086702,-0.004793548491,-0.003994623665,0.002396774245
65.99334082,-0.005858781748,-0.006125089712,0.003462007269
65.99581509,-0.00798924733,-0.005059856921,0.000266308256
65.99828941,-0.00798924733,-0.006125089712,0.000266308256
66.00076368,-0.009054481052,-0.006125089712,-0.0007989247679
66.00323795,-0.01011971384,-0.006125089712,-0.0007989247679
66.00571223,-0.01118494663,-0.006125089712,-0.00186415785
66.0081865,-0.01118494663,-0.00186415785,-0.002929390874
66.01066082,-0.01011971384,-0.006125089712,-0.002929390874
66.01313509,-0.009054481052,-0.006125089712,0.002396774245
66.01560936,-0.005858781748,-0.003994623665,0.000266308256
66.01808363,-0.01225017942,-0.003994623665,-0.002929390874
66.02055795,-0.01011971384,-0.003994623665,-0.00186415785
66.02303332,-0.01011971384,-0.002929390874,-0.0007989247679
66.02550759,-0.01651111245,-0.005059856921,-0.002929390874
66.02798186,-0.01011971384,-0.003994623665,-0.00186415785
66.03045618,-0.005858781748,-0.0007989247679,0.000266308256
66.03293045,-0.006924014539,-0.00186415785,0.002396774245
66.03540472,-0.009054481052,-0.0007989247679,0.003462007269
66.037879,-0.01011971384,-0.002929390874,0.003462007269
66.04035332,-0.01011971384,-0.002929390874,0.004527240526
66.04282759,-0.00798924733,-0.005059856921,0.006657706574
66.04530186,-0.006924014539,-0.003994623665,0.004527240526
66.04777613,-0.006924014539,-0.003994623665,0.004527240526
66.05025045,-0.005858781748,-0.007190322969,0.004527240526
66.05271025,-0.006924014539,-0.005059856921,0.006657706574
66.05518452,-0.005858781748,-0.007190322969,0.004527240526
66.05765879,-0.01011971384,-0.005059856921,0.005592473317
66.06013311,-0.01118494663,-0.005059856921,0.004527240526
66.06260738,-0.009054481052,-0.01038602181,0.004527240526
66.06508165,-0.01118494663,-0.0114512546,0.003462007269
66.06755592,-0.01225017942,-0.01038602181,0.001331541222
66.07003019,-0.01225017942,-0.009320789017,0.006657706574
66.07250452,-0.01331541315,-0.007190322969,0.006657706574
66.07497879,-0.01438064594,-0.01038602181,0.003462007269
66.07745306,-0.01438064594,-0.008255556226,-0.0007989247679
66.07992733,-0.01438064594,-0.01038602181,0.001331541222
66.08241608,-0.01544587873,-0.01038602181,0.004527240526
66.08489035,-0.01757634431,-0.01251648832,0.005592473317
66.08736467,-0.02183727734,-0.0114512546,0.002396774245
66.08983894,-0.0229025092,-0.009320789017,0.001331541222
66.09231321,-0.0229025092,-0.0114512546,0.000266308256
66.09478748,-0.0229025092,-0.0114512546,0.004527240526
66.09726176,-0.02503297664,-0.01038602181,0.007722939365
66.09973608,-0.02503297664,-0.01038602181,0.004527240526
66.10221035,-0.02716344222,-0.01251648832,0.002396774245
66.10468462,-0.02396774292,-0.0114512546,0.001331541222
66.10715889,-0.02822867595,-0.01038602181,0.004527240526
66.10963321,-0.02929390781,-0.008255556226,0.006657706574
66.11210368,-0.0260982085,-0.006125089712,0.003462007269
66.11457795,-0.0260982085,-0.007190322969,0.008788172156
66.11705228,-0.02822867595,-0.008255556226,0.007722939365
66.11952655,-0.02396774292,-0.002929390874,0.005592473317
66.12200082,-0.0229025092,-0.002929390874,0.008788172156
66.12447509,-0.02503297664,-0.005059856921,0.01304910425
66.12694936,-0.0229025092,0.001331541222,0.01411433797
66.12942363,-0.02077204362,0.003462007269,0.01517957076
66.1318979,-0.0229025092,-0.0007989247679,0.01198387146
66.13437222,-0.01970681176,0.002396774245,0.01198387146
66.1368465,-0.01864157803,0.001331541222,0.01091863867
66.13932077,-0.01651111245,0.001331541222,0.01624480449
66.14179686,-0.01757634431,-0.002929390874,0.01304910425
66.14427113,-0.01651111245,-0.005059856921,0.01411433797
66.14674545,-0.01757634431,-0.003994623665,0.01624480449
66.14921973,-0.01651111245,-0.007190322969,0.01517957076
66.151694,-0.01438064594,-0.008255556226,0.01731003635
66.15416827,-0.01331541315,-0.005059856921,0.01411433797
66.15664254,-0.01544587873,-0.006125089712,0.007722939365
66.15911681,-0.01544587873,-0.007190322969,0.01091863867
66.16159108,-0.01438064594,-0.007190322969,0.01198387146
66.16406535,-0.01438064594,-0.007190322969,0.009853405878
66.16653962,-0.01331541315,-0.007190322969,0.01198387146
66.16901394,-0.01438064594,-0.008255556226,0.009853405878
66.17149056,-0.01331541315,-0.008255556226,0.007722939365
66.17396483,-0.01438064594,-0.01038602181,0.006657706574
66.17643915,-0.01225017942,-0.01038602181,0.005592473317
66.17891342,-0.01118494663,-0.01358172111,0.004527240526
66.18138769,-0.01118494663,-0.01571218669,0.001331541222
66.18386196,-0.01011971384,-0.0146469539,0.003462007269
66.18633624,-0.009054481052,-0.01784265228,0.002396774245
66.18881051,-0.01011971384,-0.02103835158,-0.002929390874
66.19128478,-0.01118494663,-0.018907886,0.004527240526
66.1937591,-0.00798924733,-0.0221035853,0.003462007269
66.19623337,-0.006924014539,-0.02423405088,0.001331541222
66.19870764,-0.0037283157,-0.02316881903,0.002396774245
66.20117962,-0.002663082443,-0.02316881903,0.000266308256
66.20365389,-0.001597849536,-0.02316881903,0.002396774245
66.20612821,-0.001597849536,-0.01677742042,0.003462007269
66.20860248,-0.0037283157,-0.01358172111,0.001331541222
66.21107676,0.001597849536,-0.0114512546,0.002396774245
66.21355103,0.001597849536,-0.01358172111,0.002396774245
66.2160253,-0.0005326165119,-0.0114512546,0.001331541222
66.21849957,-0.001597849536,-0.009320789017,0.000266308256
66.22097384,0.0005326165119,-0.0114512546,-0.003994623665
66.22344816,0.0005326165119,-0.01251648832,-0.0007989247679
66.22592243,-0.001597849536,-0.01251648832,-0.002929390874
66.2283967,-0.0037283157,-0.0114512546,-0.002929390874
66.23087316,-0.002663082443,-0.01571218669,-0.005059856921
66.23334743,-0.0037283157,-0.01358172111,-0.005059856921
66.23582176,-0.01011971384,-0.01358172111,-0.006125089712
66.23829603,-0.01118494663,-0.01784265228,-0.005059856921
66.2407703,-0.01225017942,-0.01571218669,-0.007190322969
66.24324457,-0.01438064594,-0.01677742042,-0.007190322969
66.24571884,-0.01438064594,-0.01571218669,-0.009320789017
66.24819311,-0.01331541315,-0.01784265228,-0.008255556226
66.25066738,-0.01331541315,-0.018907886,-0.008255556226
66.2531417,-0.01544587873,-0.01571218669,-0.002929390874
66.25561598,-0.01118494663,-0.01358172111,-0.003994623665
66.25809025,-0.01225017942,-0.01358172111,-0.003994623665
66.26056457,-0.01011971384,-0.01251648832,-0.002929390874
66.26303884,-0.01118494663,-0.01251648832,-0.00186415785
66.26551316,-0.01011971384,-0.01251648832,0.000266308256
66.26798743,-0.00798924733,-0.01038602181,0.000266308256
66.2704617,-0.01118494663,-0.008255556226,0.000266308256
66.27293598,-0.01118494663,-0.009320789017,0.003462007269
66.27541025,-0.009054481052,-0.007190322969,0.001331541222
66.27788452,-0.006924014539,-0.003994623665,0.003462007269
66.28035879,-0.006924014539,-0.003994623665,0.004527240526
66.28283311,-0.01225017942,0.000266308256,0.006657706574
66.28530738,-0.01331541315,0.001331541222,0.007722939365
66.28778165,-0.00798924733,0.002396774245,0.009853405878
66.29025603,-0.00798924733,0.003462007269,0.009853405878
66.2927303,-0.01118494663,0.003462007269,0.008788172156
66.29520462,-0.01118494663,0.003462007269,0.009853405878
66.29767889,-0.01011971384,0.003462007269,0.009853405878
66.30015316,-0.01225017942,0.003462007269,0.008788172156
66.30262743,-0.01011971384,0.003462007269,0.009853405878
66.3051017,-0.01118494663,0.001331541222,0.006657706574
66.30757598,-0.01011971384,-0.002929390874,0.006657706574
66.31005025,-0.01118494663,-0.0007989247679,0.007722939365
66.31252457,-0.01011971384,-0.0007989247679,0.01091863867
66.31499884,-0.005858781748,-0.0007989247679,0.008788172156
66.31747311,-0.005858781748,-0.00186415785,0.007722939365
66.31994858,-0.006924014539,-0.00186415785,0.007722939365
66.32242285,-0.006924014539,-0.003994623665,0.004527240526
66.32489717,-0.005858781748,-0.0007989247679,0.004527240526
66.32737144,-0.004793548491,0.000266308256,0.004527240526
66.32984571,-0.0037283157,-0.00186415785,0.007722939365
66.33231998,-0.0005326165119,0.000266308256,0.006657706574
66.33479426,-0.0005326165119,0.002396774245,0.004527240526
66.33726853,-0.001597849536,0.001331541222,0.007722939365
66.3397428,-0.005858781748,0.003462007269,0.004527240526
66.34221712,-0.004793548491,0.004527240526,0.005592473317
66.34469139,-0.002663082443,0.000266308256,0.003462007269
66.34716566,-0.0037283157,0.002396774245,0.004527240526
66.34965259,-0.0037283157,0.004527240526,0.004527240526
66.35212686,-0.004793548491,0.004527240526,0.005592473317
66.35460118,-0.0037283157,0.002396774245,0.006657706574
66.35707545,-0.002663082443,0.006657706574,0.006657706574
66.35954973,-0.002663082443,0.009853405878,0.007722939365
66.362024,-0.0037283157,0.005592473317,0.01091863867
66.36449827,-0.0037283157,0.003462007269,0.01198387146
66.36697254,-0.0037283157,0.007722939365,0.01304910425
66.36944681,-0.005858781748,0.005592473317,0.008788172156
66.37192113,-0.01011971384,0.004527240526,0.007722939365
66.3743954,-0.01118494663,0.005592473317,0.005592473317
66.37686967,-0.01011971384,0.008788172156,0.01091863867
66.37934254,-0.01118494663,0.01091863867,0.01091863867
66.38181681,-0.01118494663,0.008788172156,0.008788172156
66.38429113,-0.01118494663,0.008788172156,0.008788172156
66.3867654,-0.01225017942,0.007722939365,0.01091863867
66.38923967,-0.01225017942,0.009853405878,0.01198387146
66.39171394,-0.01225017942,0.009853405878,0.01198387146
66.39418821,-0.01438064594,0.009853405878,0.007722939365
66.39666249,-0.01544587873,0.01091863867,0.007722939365
66.39913676,-0.01651111245,0.007722939365,0.01304910425
66.40161108,-0.01438064594,0.008788172156,0.01091863867
66.40408535,-0.01438064594,0.005592473317,0.01198387146
66.40655962,-0.01331541315,0.004527240526,0.01304910425
66.40903405,-0.01438064594,0.003462007269,0.01304910425
66.41150832,-0.01331541315,0.003462007269,0.009853405878
66.41398264,-0.01331541315,0.004527240526,0.007722939365
66.41645691,-0.01225017942,0.001331541222,0.007722939365
66.41893118,-0.01438064594,0.002396774245,0.01091863867
66.42140545,-0.01864157803,0.001331541222,0.009853405878
66.42387972,-0.01651111245,0.003462007269,0.009853405878
66.426354,-0.01438064594,0.000266308256,0.005592473317
66.42882827,-0.01331541315,0.002396774245,0.007722939365
66.43130259,-0.01544587873,0.002396774245,0.01198387146
66.43377686,-0.01757634431,0.003462007269,0.009853405878
66.43625113,-0.01757634431,0.001331541222,0.008788172156
66.43872748,-0.01651111245,0.002396774245,0.008788172156
66.44120176,-0.01970681176,0.003462007269,0.004527240526
66.44367608,-0.01757634431,0.004527240526,0.006657706574
66.44615035,-0.01864157803,0.006657706574,0.007722939365
66.44862462,-0.01651111245,0.005592473317,0.005592473317
66.45109889,-0.01757634431,0.004527240526,0.005592473317
66.45357316,-0.01864157803,0.002396774245,0.005592473317
66.45604743,-0.01438064594,0.007722939365,0.007722939365
66.4585217,-0.01651111245,0.009853405878,0.009853405878
66.46099603,-0.01757634431,0.008788172156,0.004527240526
66.4634703,-0.01757634431,0.008788172156,0.003462007269
66.46594457,-0.01757634431,0.008788172156,0.004527240526
66.46840426,-0.01438064594,0.007722939365,0.003462007269
66.47087853,-0.01544587873,0.007722939365,0.005592473317
66.47335285,-0.01331541315,0.006657706574,0.005592473317
66.47582712,-0.01438064594,0.004527240526,0.004527240526
66.47830139,-0.01544587873,0.007722939365,0.006657706574
66.48077566,-0.01438064594,0.009853405878,0.004527240526
66.48324993,-0.01331541315,0.006657706574,0.008788172156
66.4857242,-0.01118494663,0.005592473317,0.006657706574
66.48819848,-0.01118494663,0.005592473317,0.005592473317
66.4906728,-0.01331541315,0.003462007269,0.005592473317
66.49314707,-0.01118494663,0.004527240526,0.008788172156
66.49562134,-0.01118494663,0.003462007269,0.006657706574
66.49805811,-0.01118494663,0.004527240526,0.007722939365
66.50053238,-0.01118494663,0.001331541222,0.009853405878
66.5030067,-0.01011971384,-0.0007989247679,0.008788172156
66.50548092,-0.01331541315,-0.00186415785,0.008788172156
66.50795525,-0.01118494663,-0.003994623665,0.008788172156
66.51042952,-0.01225017942,-0.003994623665,0.007722939365
66.51290379,-0.01011971384,-0.005059856921,0.007722939365
66.51537806,-0.009054481052,-0.008255556226,0.006657706574
66.51785233,-0.009054481052,-0.007190322969,0.005592473317
66.52032665,-0.00798924733,-0.006125089712,0.006657706574
66.52280092,-0.005858781748,-0.007190322969,0.004527240526
66.52527519,-0.004793548491,-0.008255556226,0.003462007269
66.52778598,-0.006924014539,-0.006125089712,0.004527240526
66.53026025,-0.009054481052,-0.007190322969,0.000266308256
66.53273457,-0.009054481052,-0.005059856921,0.000266308256
66.53520884,-0.009054481052,-0.005059856921,0.003462007269
66.53768311,-0.006924014539,-0.003994623665,0.003462007269
66.54015738,-0.006924014539,-0.002929390874,0.001331541222
66.54263165,-0.01011971384,-0.00186415785,0.000266308256
66.54510592,-0.00798924733,0.000266308256,-0.0007989247679
66.54758019,-0.006924014539,-0.00186415785,-0.002929390874
66.55005452,-0.009054481052,0.000266308256,-0.0007989247679
66.55252879,-0.01225017942,0.002396774245,0.000266308256
66.55500306,-0.01331541315,0.001331541222,-0.003994623665
66.55747946,-0.01438064594,0.000266308256,-0.002929390874
66.55995374,-0.01651111245,0.006657706574,-0.0007989247679
66.56242806,-0.01651111245,0.004527240526,-0.00186415785
66.56490233,-0.01651111245,0.001331541222,-0.0007989247679
66.5673766,-0.01970681176,0.001331541222,-0.002929390874
66.56985087,-0.01864157803,0.004527240526,-0.00186415785
66.57232514,-0.02077204362,0.004527240526,0.001331541222
66.57479941,-0.01864157803,0.006657706574,-0.00186415785
66.57727368,-0.02077204362,0.002396774245,-0.006125089712
66.57974801,-0.01757634431,0.006657706574,-0.002929390874
66.58222228,-0.01757634431,0.005592473317,-0.0007989247679
66.58469655,-0.01970681176,-0.0007989247679,0.003462007269
66.58717238,-0.01757634431,-0.00186415785,0.000266308256
66.58964665,-0.01544587873,-0.00186415785,0.000266308256
66.59212098,-0.01757634431,-0.002929390874,0.002396774245
66.59459525,-0.01970681176,-0.003994623665,0.004527240526
66.59706952,-0.01651111245,-0.007190322969,-0.0007989247679
66.59954379,-0.01651111245,-0.0114512546,0.000266308256
66.60201806,-0.01544587873,-0.01038602181,0.001331541222
66.60449233,-0.01757634431,-0.009320789017,0.004527240526
66.6069666,-0.01970681176,-0.01251648832,0.003462007269
66.60944087,-0.01438064594,-0.0146469539,0.002396774245
66.61191519,-0.01331541315,-0.009320789017,0.003462007269
66.61438946,-0.01331541315,-0.0114512546,0.002396774245
66.61686103,-0.01225017942,-0.01038602181,0.003462007269
66.6193353,-0.01438064594,-0.008255556226,0.000266308256
66.62180962,-0.01544587873,-0.009320789017,0.003462007269
66.62428389,-0.01118494663,-0.005059856921,0.006657706574
66.62675816,-0.01331541315,-0.002929390874,0.007722939365
66.62923243,-0.01438064594,0.000266308256,0.005592473317
66.63170676,-0.01544587873,0.000266308256,0.004527240526
66.63418103,-0.01331541315,0.000266308256,0.005592473317
66.6366553,-0.01225017942,0.001331541222,0.008788172156
66.63912957,-0.01225017942,0.004527240526,0.006657706574
66.64160389,-0.01544587873,0.005592473317,0.008788172156
66.64407816,-0.01651111245,0.008788172156,0.01304910425
66.64655436,-0.01651111245,0.009853405878,0.01198387146
66.64902863,-0.01438064594,0.01198387146,0.01198387146
66.65150295,-0.01544587873,0.008788172156,0.01304910425
66.65397722,-0.01331541315,0.01198387146,0.01091863867
66.6564515,-0.01438064594,0.01517957076,0.01091863867
66.65892577,-0.01331541315,0.01198387146,0.01091863867
66.66140009,-0.01651111245,0.01517957076,0.01517957076
66.66387436,-0.01544587873,0.01517957076,0.01517957076
66.66634863,-0.01757634431,0.01304910425,0.01198387146
66.6688229,-0.01864157803,0.01091863867,0.01304910425
66.67129722,-0.01970681176,0.01091863867,0.01624480449
66.6737715,-0.01757634431,0.01198387146,0.01411433797
66.67624363,-0.01651111245,0.01198387146,0.01411433797
66.6787179,-0.01864157803,0.01304910425,0.01624480449
66.68119222,-0.02183727734,0.01304910425,0.01411433797
66.6836665,-0.01970681176,0.007722939365,0.01411433797
66.68614077,-0.01970681176,0.007722939365,0.01304910425
66.68861504,-0.02183727734,0.006657706574,0.01198387146
66.69108936,-0.02183727734,0.01091863867,0.01517957076
66.69356363,-0.0229025092,0.01198387146,0.01517957076
66.6960379,-0.02183727734,0.01304910425,0.01624480449
66.69851217,-0.0229025092,0.01091863867,0.01624480449
66.7009865,-0.02396774292,0.01304910425,0.01411433797
66.70346077,-0.02183727734,0.01411433797,0.01198387146
66.70594478,-0.0229025092,0.01198387146,0.01624480449
66.70841905,-0.02183727734,0.01411433797,0.01731003635
66.71089337,-0.01864157803,0.008788172156,0.01304910425
66.71336764,-0.01970681176,0.008788172156,0.01304910425
66.71584191,-0.02077204362,0.01091863867,0.01091863867
66.71831618,-0.01970681176,0.01304910425,0.01198387146
66.72079045,-0.02077204362,0.01411433797,0.01411433797
66.72326478,-0.01757634431,0.01411433797,0.01198387146
66.72573905,-0.01864157803,0.01411433797,0.007722939365
66.72821332,-0.01544587873,0.01517957076,0.008788172156
66.73068764,-0.01438064594,0.009853405878,0.006657706574
66.73316191,-0.01544587873,0.009853405878,0.005592473317
66.73563014,-0.01651111245,0.01198387146,0.003462007269
66.73810441,-0.01331541315,0.01304910425,0.003462007269
66.74057874,-0.01438064594,0.01091863867,0.007722939365
66.74305301,-0.01225017942,0.008788172156,0.003462007269
66.74552728,-0.01118494663,0.008788172156,0.003462007269
66.74800155,-0.01225017942,0.009853405878,0.006657706574
66.75047587,-0.01331541315,0.006657706574,0.006657706574
66.75295014,-0.01331541315,0.004527240526,0.003462007269
66.75542441,-0.01118494663,0.003462007269,0.004527240526
66.75789868,-0.01225017942,0.002396774245,0.007722939365
66.76037301,-0.00798924733,0.003462007269,0.006657706574
66.76284728,-0.006924014539,-0.0007989247679,0.005592473317
66.76531998,-0.009054481052,-0.00186415785,0.007722939365
66.76779426,-0.0037283157,-0.002929390874,0.007722939365
66.77026858,-0.002663082443,-0.006125089712,0.005592473317
66.77274285,-0.001597849536,-0.006125089712,0.003462007269
66.77521712,-0.002663082443,-0.007190322969,0.005592473317
66.77769139,0.001597849536,-0.008255556226,0.008788172156
66.78016571,0.001597849536,-0.006125089712,0.004527240526
66.78263998,-0.002663082443,-0.006125089712,0.006657706574
66.78511426,-0.004793548491,-0.006125089712,0.005592473317
66.78758853,-0.0037283157,-0.005059856921,0.005592473317
66.79006285,-0.004793548491,-0.006125089712,0.004527240526
66.79253712,-0.002663082443,-0.005059856921,0.000266308256
66.79500983,-0.002663082443,-0.003994623665,0.006657706574
66.7974841,-0.0037283157,-0.006125089712,0.005592473317
66.79995842,-0.004793548491,-0.003994623665,0.004527240526
66.80243269,-0.005858781748,-0.006125089712,0.000266308256
66.80490696,-0.01118494663,-0.005059856921,0.001331541222
66.80738124,-0.00798924733,-0.007190322969,0.002396774245
66.80985556,-0.006924014539,-0.005059856921,0.000266308256
66.81232983,-0.01331541315,-0.009320789017,-0.00186415785
66.8148041,-0.01544587873,-0.0114512546,-0.0007989247679
66.81727837,-0.01544587873,-0.01038602181,0.001331541222
66.81975269,-0.01438064594,-0.008255556226,-0.00186415785
66.82222696,-0.01651111245,-0.0114512546,-0.0007989247679
66.82470196,-0.01864157803,-0.01358172111,-0.0007989247679
66.82717624,-0.01438064594,-0.0114512546,0.001331541222
66.82965056,-0.01651111245,-0.01038602181,0.003462007269
66.83212483,-0.01651111245,-0.007190322969,0.003462007269
66.8345991,-0.01757634431,-0.006125089712,0.004527240526
66.83707337,-0.01544587873,-0.005059856921,0.003462007269
66.83954769,-0.01544587873,-0.002929390874,0.002396774245
66.84202196,-0.01651111245,-0.0007989247679,0.004527240526
66.84449624,-0.01225017942,-0.002929390874,0.004527240526
66.84697051,-0.01331541315,-0.006125089712,0.004527240526
66.84944483,-0.01118494663,-0.002929390874,0.005592473317
66.8519191,-0.01011971384,-0.0007989247679,0.001331541222
66.85439353,-0.01118494663,-0.0007989247679,0.004527240526
66.8568678,-0.01118494663,0.002396774245,0.004527240526
66.85934212,-0.009054481052,-0.002929390874,0.004527240526
66.86181639,-0.009054481052,-0.005059856921,0.006657706574
66.86429066,-0.01118494663,-0.003994623665,0.002396774245
66.86676493,-0.01225017942,-0.006125089712,0.000266308256
66.86923926,-0.01118494663,-0.007190322969,0.003462007269
66.87171353,-0.01011971384,-0.006125089712,0.004527240526
66.8741878,-0.01118494663,-0.007190322969,0.003462007269
66.87666207,-0.01118494663,-0.0114512546,0.003462007269
66.87913639,-0.01011971384,-0.01358172111,0.002396774245
66.88161066,-0.01011971384,-0.01358172111,0.002396774245
66.88408358,-0.009054481052,-0.018907886,0.002396774245
66.88655785,-0.00798924733,-0.01784265228,0.006657706574
66.88903217,-0.004793548491,-0.01677742042,0.003462007269
66.89150644,-0.004793548491,-0.02103835158,0.002396774245
66.89398071,-0.006924014539,-0.018907886,0.004527240526
66.89645498,-0.00798924733,-0.01784265228,0.001331541222
66.89892931,-0.006924014539,-0.018907886,-0.0007989247679
66.90140358,-0.005858781748,-0.01784265228,0.004527240526
66.90387785,-0.0037283157,-0.01997311972,0.007722939365
66.90635212,-0.004793548491,-0.01997311972,0.003462007269
66.90882644,-0.005858781748,-0.01571218669,0.005592473317
66.91130071,-0.006924014539,-0.01571218669,0.005592473317
66.91377556,-0.0037283157,-0.01571218669,0.006657706574
66.91624983,-0.0037283157,-0.0146469539,0.003462007269
66.91872415,-0.002663082443,-0.01571218669,-0.00186415785
66.92119842,-0.004793548491,-0.01677742042,-0.00186415785
66.92367269,-0.0037283157,-0.018907886,-0.0007989247679
66.92614696,-0.0037283157,-0.01571218669,0.001331541222
66.92862129,-0.006924014539,-0.01677742042,0.004527240526
66.93109556,-0.005858781748,-0.01677742042,0.000266308256
66.93356983,-0.00798924733,-0.0146469539,0.000266308256
66.9360441,-0.01011971384,-0.01784265228,-0.00186415785
66.93851842,-0.005858781748,-0.018907886,-0.002929390874
66.94099269,-0.00798924733,-0.01571218669,-0.0007989247679
66.94345858,-0.01011971384,-0.01358172111,-0.00186415785
66.94593285,-0.01118494663,-0.01571218669,-0.00186415785
66.94840717,-0.01118494663,-0.01677742042,-0.005059856921
66.95088144,-0.009054481052,-0.01677742042,-0.006125089712
66.95335571,-0.009054481052,-0.01997311972,-0.005059856921
66.95582999,-0.01225017942,-0.01784265228,-0.007190322969
66.95830431,-0.01118494663,-0.01358172111,-0.006125089712
66.96077858,-0.01011971384,-0.01358172111,-0.008255556226
66.96325285,-0.01011971384,-0.0146469539,-0.008255556226
66.96572712,-0.01225017942,-0.01571218669,-0.006125089712
66.96820144,-0.01011971384,-0.01571218669,-0.006125089712
66.97067571,-0.01011971384,-0.01571218669,-0.008255556226
66.97315853,-0.01011971384,-0.01677742042,-0.007190322969
66.9756328,-0.009054481052,-0.018907886,-0.007190322969
66.97810712,-0.004793548491,-0.01571218669,-0.006125089712
66.98058139,-0.002663082443,-0.01358172111,-0.005059856921
66.98305566,-0.002663082443,-0.0146469539,-0.003994623665
66.98552993,-0.002663082443,-0.01251648832,-0.008255556226
66.98800426,-0.0005326165119,-0.01251648832,-0.003994623665
66.99047853,0.0005326165119,-0.0114512546,-0.003994623665
66.9929528,0.002663082443,-0.009320789017,-0.002929390874
66.99542707,0.002663082443,-0.01038602181,-0.005059856921
66.99790139,0.0037283157,-0.01358172111,-0.002929390874
67.00037566,0.004793548491,-0.009320789017,-0.00186415785
67.00285269,0.004793548491,-0.009320789017,-0.00186415785
67.00532696,0.005858781748,-0.0114512546,0.001331541222
67.00780129,0.0037283157,-0.01251648832,-0.00186415785
67.01027556,0.0037283157,-0.01251648832,-0.0007989247679
67.01274983,0.006924014539,-0.0114512546,0.002396774245
67.0152241,0.006924014539,-0.007190322969,0.002396774245
67.01769842,0.0037283157,-0.006125089712,0.001331541222
67.02017269,0.002663082443,-0.008255556226,0.002396774245
67.02264696,0.0037283157,-0.006125089712,0.004527240526
67.02512124,0.004793548491,-0.006125089712,0.002396774245
67.02759556,0.0005326165119,-0.01038602181,0.003462007269
67.03006983,-0.002663082443,-0.009320789017,0.003462007269
67.03253988,-0.002663082443,-0.005059856921,0.005592473317
67.03501415,0.0005326165119,-0.007190322969,0.002396774245
67.03748848,0.001597849536,-0.01038602181,0.004527240526
67.03996275,-0.0037283157,-0.008255556226,0.003462007269
67.04243702,-0.004793548491,-0.01038602181,0.003462007269
67.04491129,-0.0037283157,-0.01038602181,0.003462007269
67.04738561,-0.0037283157,-0.01358172111,0.005592473317
67.04985988,-0.0037283157,-0.0146469539,0.003462007269
67.05233415,-0.0037283157,-0.0146469539,0.001331541222
67.05480842,-0.005858781748,-0.01997311972,0.002396774245
67.05728275,-0.004793548491,-0.02316881903,0.000266308256
67.05975702,-0.0037283157,-0.0221035853,-0.0007989247679
67.06223426,-0.002663082443,-0.02529928461,-0.003994623665
67.06470853,-0.0037283157,-0.02423405088,0.000266308256
67.06718285,-0.004793548491,-0.02423405088,0.001331541222
67.06965712,-0.004793548491,-0.02103835158,-0.0007989247679
67.07213139,-0.004793548491,-0.01997311972,-0.00186415785
67.07460566,0.0005326165119,-0.02103835158,-0.00186415785
67.07707998,-0.001597849536,-0.01997311972,-0.00186415785
67.07955426,-0.0037283157,-0.0146469539,-0.00186415785
67.08202853,-0.0005326165119,-0.01251648832,-0.002929390874
67.0845028,-0.001597849536,-0.01251648832,-0.0007989247679
67.08697712,-0.0037283157,-0.0114512546,-0.00186415785
