"Time (s)","Gyroscope x (rad/s)","Gyroscope y (rad/s)","Gyroscope z (rad/s)"
8.010372000E-3,-5.060006306E-2,-1.097222418E-1,-5.326322466E-2
1.002453300E-2,-5.060006306E-2,-1.097222418E-1,-5.326322466E-2
1.200817500E-2,-5.060006306E-2,-1.097222418E-1,-5.326322466E-2
1.399181800E-2,-5.060006306E-2,-1.097222418E-1,-5.326322466E-2
1.597546000E-2,-5.060006306E-2,-1.097222418E-1,-5.326322466E-2
1.795910300E-2,-5.060006306E-2,-1.097222418E-1,-5.326322466E-2
1.997326300E-2,-5.060006306E-2,-1.097222418E-1,-5.326322466E-2
2.195690600E-2,-5.060006306E-2,-1.097222418E-1,-5.326322466E-2
2.394054800E-2,-5.060006306E-2,-1.097222418E-1,-5.326322466E-2
2.595470800E-2,-5.060006306E-2,-1.097222418E-1,-5.326322466E-2
2.796886800E-2,-5.060006306E-2,-1.097222418E-1,-5.326322466E-2
2.995251100E-2,-5.060006306E-2,-1.097222418E-1,-5.326322466E-2
3.193615400E-2,-5.060006306E-2,-1.097222418E-1,-5.326322466E-2
3.395031400E-2,-5.060006306E-2,-1.097222418E-1,-5.326322466E-2
3.593395600E-2,-5.060006306E-2,-1.097222418E-1,-5.326322466E-2
3.791759900E-2,-5.060006306E-2,-1.097222418E-1,-5.326322466E-2
3.990124200E-2,-5.326322280E-3,-6.444849819E-2,1.118527725E-2
4.191540200E-2,-3.728425596E-3,-6.338323653E-2,1.544633508E-2
4.389904400E-2,-1.597896684E-3,-5.805691332E-2,1.597896591E-2
4.588268700E-2,0.000000000E0,-5.113269389E-2,2.130528912E-3
4.786632900E-2,1.065264456E-3,-5.113269389E-2,1.544633508E-2
4.988049000E-2,4.261057824E-3,-4.846953228E-2,1.810949668E-2
5.186413200E-2,1.597896684E-3,-4.420847446E-2,1.917476021E-2
5.384777500E-2,5.326322280E-3,-4.207794741E-2,1.544633508E-2
5.583141700E-2,2.130528912E-3,-4.207794741E-2,1.757686399E-2
5.781506000E-2,6.924218964E-3,-3.834952042E-2,1.757686399E-2
5.982922000E-2,7.989482954E-3,-3.994741663E-2,1.704423130E-2
6.181286300E-2,6.391586736E-3,-3.568635881E-2,1.597896591E-2
6.379650500E-2,2.663161140E-3,-3.195793182E-2,1.491370238E-2
6.581066500E-2,3.195793368E-3,-3.408846259E-2,1.544633508E-2
6.782482600E-2,2.663161140E-3,-3.462109342E-2,1.757686399E-2
6.980846800E-2,-5.326322280E-4,-3.142530099E-2,1.757686399E-2
7.179211100E-2,-2.663161140E-3,-3.302319720E-2,1.278317347E-2
7.380627100E-2,0.000000000E0,-2.982740477E-2,1.491370238E-2
7.578991300E-2,-2.130528912E-3,-2.876213938E-2,1.438106969E-2
7.777355600E-2,-4.261057824E-3,-2.822950855E-2,1.491370238E-2
7.975719900E-2,-6.924218964E-3,-2.929477207E-2,1.544633508E-2
8.177135900E-2,-7.456851192E-3,-3.195793182E-2,1.597896591E-2
8.375500100E-2,-8.522115648E-3,-2.822950855E-2,1.438106969E-2
8.573864400E-2,-1.171790902E-2,-2.609897964E-2,1.225054078E-2
8.772228600E-2,-1.118527725E-2,-2.077265643E-2,1.384843793E-2
8.973644700E-2,-1.012001187E-2,-1.597896591E-2,1.171790902E-2
9.172008900E-2,-1.012001187E-2,-1.278317347E-2,1.225054078E-2
9.370373200E-2,-1.012001187E-2,-1.118527725E-2,1.171790902E-2
9.571789200E-2,-1.118527725E-2,-1.065264456E-2,1.012001187E-2
9.770153400E-2,-8.522115648E-3,-6.391586736E-3,1.012001187E-2
9.968517700E-2,-1.384843793E-2,-1.597896684E-3,9.054748341E-3
1.016993370E-1,-1.278317347E-2,-2.130528912E-3,7.456851192E-3
1.036829800E-1,-1.597896591E-2,-3.195793368E-3,7.989482954E-3
1.056971400E-1,-1.384843793E-2,-6.924218964E-3,7.989482954E-3
1.076502650E-1,-1.278317347E-2,-6.924218964E-3,2.663161140E-3
1.096644250E-1,-1.491370238E-2,-9.054748341E-3,3.728425596E-3
1.116785850E-1,-1.331580617E-2,-1.171790902E-2,5.326322280E-4
1.136622280E-1,-1.331580617E-2,-1.384843793E-2,3.728425596E-3
1.156458700E-1,-1.331580617E-2,-1.438106969E-2,1.597896684E-3
1.176600310E-1,-1.118527725E-2,-1.171790902E-2,5.326322280E-4
1.196741910E-1,-1.331580617E-2,-1.118527725E-2,4.261057824E-3
1.216578330E-1,-1.331580617E-2,-1.384843793E-2,3.728425596E-3
1.236719930E-1,-1.331580617E-2,-8.522115648E-3,3.728425596E-3
1.256861540E-1,-1.225054078E-2,-4.261057824E-3,1.597896684E-3
1.276697960E-1,-1.118527725E-2,-1.597896684E-3,4.261057824E-3
1.296839560E-1,-1.384843793E-2,5.326322280E-4,4.261057824E-3
1.316675990E-1,-1.012001187E-2,5.326322280E-3,4.793690052E-3
1.336817590E-1,-1.065264456E-2,5.858954508E-3,3.195793368E-3
1.356654020E-1,-9.054748341E-3,1.331580617E-2,2.663161140E-3
1.376490440E-1,-6.391586736E-3,1.651159860E-2,9.054748341E-3
1.396632040E-1,-6.391586736E-3,2.024002373E-2,6.924218964E-3
1.416468470E-1,-4.793690052E-3,2.183792181E-2,1.118527725E-2
1.436304900E-1,-5.858954508E-3,2.609897964E-2,1.171790902E-2
1.456446500E-1,-2.663161140E-3,2.982740477E-2,1.225054078E-2
1.476282920E-1,-3.728425596E-3,3.355583176E-2,1.118527725E-2
1.496424520E-1,-5.326322280E-4,3.302319720E-2,1.491370238E-2
1.516260950E-1,5.326322280E-4,3.621899337E-2,9.587380104E-3
1.536097380E-1,1.597896684E-3,3.462109342E-2,1.278317347E-2
1.555933800E-1,2.130528912E-3,3.249056637E-2,1.331580617E-2
1.576075400E-1,4.261057824E-3,3.408846259E-2,1.384843793E-2
1.595911830E-1,4.261057824E-3,3.302319720E-2,1.278317347E-2
1.615748260E-1,6.924218964E-3,3.089267015E-2,1.331580617E-2
1.635584680E-1,8.522115648E-3,2.663161233E-2,1.118527725E-2
1.655726280E-1,9.054748341E-3,2.450108156E-2,1.331580617E-2
1.675562710E-1,8.522115648E-3,2.077265643E-2,1.757686399E-2
1.695399130E-1,7.989482954E-3,1.757686399E-2,1.384843793E-2
1.715540740E-1,9.054748341E-3,1.704423130E-2,1.544633508E-2
1.735377160E-1,9.054748341E-3,1.065264456E-2,1.544633508E-2
1.755213590E-1,1.065264456E-2,7.456851192E-3,1.491370238E-2
1.775355190E-1,1.065264456E-2,1.012001187E-2,1.704423130E-2
1.795191610E-1,1.118527725E-2,7.989482954E-3,1.544633508E-2
1.815333220E-1,9.054748341E-3,4.793690052E-3,1.597896591E-2
1.835169640E-1,1.171790902E-2,3.728425596E-3,1.810949668E-2
1.855311240E-1,1.012001187E-2,2.130528912E-3,1.704423130E-2
1.874842490E-1,1.012001187E-2,1.597896684E-3,1.810949668E-2
1.894678920E-1,8.522115648E-3,1.597896684E-3,2.130528912E-2
1.914820520E-1,6.924218964E-3,-1.065264456E-3,2.077265643E-2
1.934656950E-1,9.054748341E-3,-2.130528912E-3,2.077265643E-2
1.954798550E-1,6.924218964E-3,-6.391586736E-3,2.077265643E-2
1.974634970E-1,4.261057824E-3,-7.456851192E-3,2.077265643E-2
1.994471400E-1,3.195793368E-3,-9.587380104E-3,1.970739290E-2
2.014613000E-1,5.326322280E-4,-1.012001187E-2,2.024002373E-2
2.034449430E-1,1.065264456E-3,-1.438106969E-2,1.491370238E-2
2.054896200E-1,-1.065264456E-3,-1.651159860E-2,1.491370238E-2
2.074427450E-1,-5.326322280E-4,-1.704423130E-2,1.384843793E-2
2.094263880E-1,-2.130528912E-3,-1.704423130E-2,1.065264456E-2
2.114405480E-1,-2.663161140E-3,-1.864212751E-2,9.054748341E-3
2.134547080E-1,-1.065264456E-3,-2.024002373E-2,7.989482954E-3
2.154078330E-1,-5.326322280E-4,-2.024002373E-2,9.054748341E-3
2.173914760E-1,-2.130528912E-3,-2.237055451E-2,5.858954508E-3
2.193751180E-1,-1.597896684E-3,-1.970739290E-2,4.261057824E-3
2.213892790E-1,-1.065264456E-3,-1.970739290E-2,2.130528912E-3
2.233729210E-1,2.130528912E-3,-1.438106969E-2,0.000000000E0
2.253870810E-1,2.130528912E-3,-1.171790902E-2,5.326322280E-3
2.273402060E-1,4.261057824E-3,-1.171790902E-2,4.261057824E-3
2.293238490E-1,3.728425596E-3,-1.012001187E-2,5.858954508E-3
2.313380090E-1,6.391586736E-3,-5.858954508E-3,8.522115648E-3
2.333216520E-1,6.391586736E-3,-4.261057824E-3,7.989482954E-3
2.353052940E-1,6.924218964E-3,-3.195793368E-3,8.522115648E-3
2.372889370E-1,7.989482954E-3,-2.130528912E-3,9.054748341E-3
2.393030970E-1,8.522115648E-3,-3.728425596E-3,1.012001187E-2
2.412867400E-1,9.054748341E-3,-1.597896684E-3,1.171790902E-2
2.433009000E-1,1.065264456E-2,2.663161140E-3,1.384843793E-2
2.453150600E-1,1.491370238E-2,3.195793368E-3,1.651159860E-2
2.472681850E-1,1.544633508E-2,3.728425596E-3,1.491370238E-2
2.492823450E-1,1.438106969E-2,7.456851192E-3,1.864212751E-2
2.512659880E-1,1.810949668E-2,1.225054078E-2,1.917476021E-2
2.532801480E-1,1.757686399E-2,1.384843793E-2,1.970739290E-2
2.552637900E-1,1.970739290E-2,1.704423130E-2,1.864212751E-2
2.572474330E-1,2.237055451E-2,2.130528912E-2,2.130528912E-2
2.592615930E-1,2.183792181E-2,2.609897964E-2,2.237055451E-2
2.612452360E-1,2.290318534E-2,2.663161233E-2,2.183792181E-2
2.632593960E-1,2.503371425E-2,3.195793182E-2,2.290318534E-2
2.652735560E-1,2.663161233E-2,3.302319720E-2,2.130528912E-2
2.672266810E-1,2.609897964E-2,3.408846259E-2,2.183792181E-2
2.692103240E-1,2.663161233E-2,3.728425503E-2,2.130528912E-2
2.711939660E-1,2.716424316E-2,3.728425503E-2,1.917476021E-2
2.732081260E-1,2.929477207E-2,4.101268202E-2,1.704423130E-2
2.751917690E-1,3.249056637E-2,4.207794741E-2,1.757686399E-2
2.771754110E-1,2.609897964E-2,4.261057824E-2,1.491370238E-2
2.791590540E-1,2.769687586E-2,4.367584363E-2,1.384843793E-2
2.811732140E-1,3.089267015E-2,4.474110901E-2,1.491370238E-2
2.831568570E-1,2.822950855E-2,4.048004746E-2,1.065264456E-2
2.852015340E-1,2.876213938E-2,4.314320907E-2,1.597896591E-2
2.871546590E-1,2.929477207E-2,3.994741663E-2,1.171790902E-2
2.891383020E-1,2.929477207E-2,3.994741663E-2,1.171790902E-2
2.911524620E-1,2.663161233E-2,3.408846259E-2,1.438106969E-2
2.931361050E-1,2.929477207E-2,3.515372798E-2,1.757686399E-2
2.951197470E-1,2.876213938E-2,3.036003746E-2,1.864212751E-2
2.971339080E-1,2.982740477E-2,2.290318534E-2,2.024002373E-2
2.991175500E-1,2.716424316E-2,2.183792181E-2,1.810949668E-2
3.011317100E-1,3.089267015E-2,1.810949668E-2,2.024002373E-2
3.031153530E-1,3.089267015E-2,1.384843793E-2,2.183792181E-2
3.051295130E-1,2.929477207E-2,7.456851192E-3,2.450108156E-2
3.071131560E-1,2.822950855E-2,1.065264456E-3,2.663161233E-2
3.090662810E-1,2.876213938E-2,-4.793690052E-3,2.982740477E-2
3.110804410E-1,2.769687586E-2,-1.065264456E-2,3.355583176E-2
3.130640830E-1,3.142530099E-2,-1.544633508E-2,3.462109342E-2
3.150782430E-1,2.822950855E-2,-2.077265643E-2,4.101268202E-2
3.170313680E-1,2.929477207E-2,-2.822950855E-2,4.740426689E-2
3.190455290E-1,3.249056637E-2,-3.675162420E-2,5.060006306E-2
3.210291710E-1,2.822950855E-2,-4.048004746E-2,5.486112088E-2
3.230128140E-1,3.249056637E-2,-5.060006306E-2,6.125270575E-2
3.250574920E-1,3.249056637E-2,-5.699164793E-2,6.657902896E-2
3.270106170E-1,3.462109342E-2,-6.018744037E-2,7.243798673E-2
3.290247770E-1,3.408846259E-2,-6.817692518E-2,7.829693705E-2
3.310084190E-1,3.834952042E-2,-7.243798673E-2,8.628641814E-2
3.329920620E-1,3.888215125E-2,-7.616640627E-2,9.214537591E-2
3.350062220E-1,4.101268202E-2,-8.042746782E-2,1.001348570E-1
3.369898650E-1,4.367584363E-2,-8.309062570E-2,1.027980223E-1
3.390040250E-1,4.900216311E-2,-8.522115648E-2,1.113201380E-1
3.410181850E-1,5.379585549E-2,-8.468852192E-2,1.139832959E-1
3.430018270E-1,5.645901710E-2,-8.575379103E-2,1.161138266E-1
3.450465050E-1,6.018744037E-2,-8.575379103E-2,1.193096191E-1
3.469996300E-1,6.604639441E-2,-8.628641814E-2,1.198422536E-1
3.490137900E-1,6.764429063E-2,-8.575379103E-2,1.214401498E-1
3.510279510E-1,7.137271762E-2,-7.989483327E-2,1.267664731E-1
3.530115930E-1,7.510114461E-2,-7.137271762E-2,1.283643693E-1
3.549952360E-1,8.096009493E-2,-6.018744037E-2,1.347559541E-1
3.569788780E-1,8.894958347E-2,-4.154531285E-2,1.416801661E-1
3.589930380E-1,9.747169912E-2,-1.757686399E-2,1.555286050E-1
3.609766810E-1,1.033306494E-1,0.000000000E0,1.677791476E-1
3.629908410E-1,1.102548689E-1,1.970739290E-2,1.832254827E-1
3.650050010E-1,1.155811921E-1,3.355583176E-2,1.981391907E-1
3.669886440E-1,1.203748807E-1,4.474110901E-2,2.157160491E-1
3.690028040E-1,1.267664731E-1,5.432848632E-2,2.316950262E-1
3.709864470E-1,1.283643693E-1,5.805691332E-2,2.471413612E-1
3.729700890E-1,1.294296384E-1,5.965480953E-2,2.593919039E-1
3.749537320E-1,1.315601617E-1,5.486112088E-2,2.695119083E-1
3.769373740E-1,1.331580579E-1,4.687163606E-2,2.822950780E-1
3.789515340E-1,1.331580579E-1,3.355583176E-2,2.892192900E-1
3.809351770E-1,1.320927888E-1,1.970739290E-2,2.972087860E-1
3.829188200E-1,1.336906850E-1,8.522115648E-3,2.993393242E-1
3.849329800E-1,1.379517466E-1,5.326322280E-4,3.121224940E-1
3.869166220E-1,1.400822699E-1,-2.130528912E-3,3.169161677E-1
3.889307830E-1,1.459412277E-1,0.000000000E0,3.233077526E-1
3.909144250E-1,1.518001854E-1,3.195793368E-3,3.302319944E-1
3.928980680E-1,1.581917703E-1,1.331580617E-2,3.382214606E-1
3.948817100E-1,1.656486243E-1,2.343581803E-2,3.435477912E-1
3.968958700E-1,1.784317940E-1,3.888215125E-2,3.478088379E-1
3.988795130E-1,1.874865443E-1,5.432848632E-2,3.526025414E-1
4.008631560E-1,2.002697140E-1,6.977482140E-2,3.605920076E-1
4.028773160E-1,2.082591951E-1,8.362326026E-2,3.728425503E-1
4.048914760E-1,2.173139453E-1,1.017327532E-1,3.829625845E-1
4.068751180E-1,2.237055302E-1,1.097222418E-1,4.005394280E-1
4.088587610E-1,2.269013226E-1,1.182443574E-1,4.101268053E-1
4.108424040E-1,2.332929224E-1,1.230380461E-1,4.271710515E-1
4.128565640E-1,2.364887148E-1,1.235706806E-1,4.479437172E-1
4.148402060E-1,2.354234457E-1,1.251685768E-1,4.660531878E-1
4.168543670E-1,2.354234457E-1,1.246359423E-1,4.862932265E-1
4.188380090E-1,2.380866110E-1,1.230380461E-1,5.107942820E-1
4.208216520E-1,2.380866110E-1,1.225054115E-1,5.342301130E-1
4.228358120E-1,2.412824035E-1,1.182443574E-1,5.592638254E-1
4.248499720E-1,2.423476577E-1,1.225054115E-1,5.816344023E-1
4.268336150E-1,2.498045117E-1,1.294296384E-1,6.050702333E-1
4.288172570E-1,2.492718846E-1,1.315601617E-1,6.125270724E-1
4.308009000E-1,2.572613657E-1,1.432780623E-1,6.380934119E-1
4.328150600E-1,2.663161159E-1,1.555286050E-1,6.620618701E-1
4.348292200E-1,2.732403278E-1,1.720402092E-1,6.860303283E-1
4.368128630E-1,2.828277051E-1,1.869539171E-1,7.105314136E-1
4.387965050E-1,2.945456207E-1,2.061286718E-1,7.376956344E-1
4.408106650E-1,3.057309091E-1,2.284992188E-1,7.605988383E-1
4.427943080E-1,3.174487948E-1,2.551308274E-1,7.893609405E-1
4.448389860E-1,3.328951299E-1,2.817624509E-1,8.165252209E-1
4.467921110E-1,3.462109566E-1,3.110572100E-1,8.399610519E-1
4.487757530E-1,3.659183383E-1,3.376888335E-1,8.639294505E-1
4.507899130E-1,3.808320463E-1,3.675162494E-1,8.889631629E-1
4.527735560E-1,3.962783813E-1,3.978762627E-1,9.123989940E-1
4.547571990E-1,4.133225977E-1,4.250405133E-1,9.331716895E-1
4.567408410E-1,4.319647253E-1,4.585963488E-1,9.566074610E-1
4.587244840E-1,4.538026452E-1,4.820321798E-1,9.816411734E-1
4.607386440E-1,4.671184719E-1,5.102616549E-1,1.004544377E0
4.627222860E-1,4.900216460E-1,5.422195792E-1,1.025849700E0
4.647669640E-1,5.102616549E-1,5.667206645E-1,1.050350785E0
4.667200890E-1,5.299690962E-1,5.933523178E-1,1.071655989E0
4.687037320E-1,5.496764779E-1,6.167881489E-1,1.090298176E0
4.707178920E-1,5.725796223E-1,6.370281577E-1,1.107342362E0
4.727015340E-1,5.885586143E-1,6.556702852E-1,1.119592905E0
4.746851770E-1,6.061354876E-1,6.684534550E-1,1.130778193E0
4.766688200E-1,6.231797338E-1,6.823018789E-1,1.137702465E0
4.786829800E-1,6.375607848E-1,6.913566589E-1,1.140898228E0
4.806666220E-1,6.487460732E-1,6.993461251E-1,1.133973956E0
4.826807830E-1,6.599313021E-1,7.036072016E-1,1.119592905E0
4.846949430E-1,6.673882008E-1,7.025418878E-1,1.098287702E0
4.866785850E-1,6.753776670E-1,6.902913451E-1,1.073786616E0
4.886927450E-1,6.780408025E-1,6.823018789E-1,1.037567616E0
4.906763880E-1,6.812366247E-1,6.673882008E-1,9.965549111E-1
4.926600310E-1,6.801713705E-1,6.514092088E-1,9.502158761E-1
4.946741910E-1,6.817692518E-1,6.338323355E-1,8.974853158E-1
4.966578330E-1,6.807039976E-1,6.135923266E-1,8.420915604E-1
4.986414760E-1,6.801713705E-1,5.970807076E-1,7.792409658E-1
5.006556360E-1,6.748450398E-1,5.747101903E-1,7.137271762E-1
5.026392790E-1,6.727145314E-1,5.475459099E-1,6.386260390E-1
5.046839560E-1,6.673882008E-1,5.161206126E-1,5.560680628E-1
5.066370810E-1,6.588660479E-1,4.783037305E-1,4.633900523E-1
5.086512420E-1,6.487460732E-1,4.378236830E-1,3.584614992E-1
5.106654020E-1,6.380934119E-1,3.872236311E-1,2.450108230E-1
5.126490440E-1,6.231797338E-1,3.291667104E-1,1.262338310E-1
5.146326870E-1,6.082659960E-1,2.695119083E-1,5.326322280E-4
5.166163290E-1,5.858954787E-1,2.114549875E-1,-1.219727769E-1
5.186304900E-1,5.661880374E-1,1.486043930E-1,-2.418150306E-1
5.206141320E-1,5.400890708E-1,9.001484513E-2,-3.568635881E-1
5.226282920E-1,5.145227313E-1,3.675162420E-2,-4.538026452E-1
5.246424520E-1,4.905542731E-1,-8.522115648E-3,-5.400890708E-1
5.265955770E-1,4.644553065E-1,-4.900216311E-2,-6.135923266E-1
5.286097380E-1,4.383563101E-1,-8.309062570E-2,-6.668555737E-1
5.305628630E-1,4.181163013E-1,-1.001348570E-1,-7.004113793E-1
5.325770230E-1,3.968110085E-1,-1.107875034E-1,-7.195861340E-1
5.345606650E-1,3.787015080E-1,-1.070590764E-1,-7.254450917E-1
5.365748260E-1,3.632551730E-1,-8.841694891E-2,-7.179882526E-1
5.385889860E-1,3.573962152E-1,-5.592638254E-2,-6.956176758E-1
5.405726280E-1,3.499393761E-1,-1.970739290E-2,-6.652576327E-1
5.425867880E-1,3.456783295E-1,2.929477207E-2,-6.274407506E-1
5.446009490E-1,3.424825370E-1,7.989483327E-2,-5.832322836E-1
5.465845910E-1,3.392867148E-1,1.374191195E-1,-5.352953672E-1
5.485987510E-1,3.334277868E-1,2.045307755E-1,-4.804342687E-1
5.505823940E-1,3.312972486E-1,2.759034932E-1,-4.287689328E-1
5.525660360E-1,3.201119602E-1,3.456783295E-1,-3.776362538E-1
5.545496790E-1,3.206445873E-1,4.085289240E-1,-3.254382908E-1
5.565638390E-1,3.078614175E-1,4.724447727E-1,-2.812298238E-1
5.585474820E-1,2.977414131E-1,5.358279943E-1,-2.370213419E-1
5.605311240E-1,2.838929892E-1,5.901564956E-1,-1.928128600E-1
5.625452840E-1,2.679139972E-1,6.423544884E-1,-1.608549356E-1
5.645594450E-1,2.455434501E-1,6.838997602E-1,-1.241033077E-1
5.665430870E-1,2.253034264E-1,7.142598033E-1,-9.321063757E-2
5.685267300E-1,1.954760253E-1,7.403587699E-1,-6.338323653E-2
5.705103720E-1,1.715075821E-1,7.536746264E-1,-4.048004746E-2
5.725245330E-1,1.448759735E-1,7.579356432E-1,-2.290318534E-2
5.745081750E-1,1.134506613E-1,7.510114312E-1,-3.728425596E-3
5.765223350E-1,8.522115648E-2,7.398261428E-1,6.391586736E-3
5.785059780E-1,5.699164793E-2,7.206513882E-1,1.757686399E-2
5.804896200E-1,3.195793182E-2,6.993461251E-1,2.290318534E-2
5.825037810E-1,6.391586736E-3,6.769755483E-1,2.929477207E-2
5.845179410E-1,-1.917476021E-2,6.524744630E-1,3.089267015E-2
5.865015830E-1,-2.982740477E-2,6.370281577E-1,2.929477207E-2
5.884852260E-1,-5.379585549E-2,6.135923266E-1,3.249056637E-2
5.904688680E-1,-7.137271762E-2,5.837649107E-1,3.462109342E-2
5.924830290E-1,-8.628641814E-2,5.528722405E-1,3.355583176E-2
5.944666710E-1,-1.001348570E-1,5.241101384E-1,3.728425503E-2
5.964503140E-1,-1.107875034E-1,4.948153496E-1,3.568635881E-2
5.984339560E-1,-1.241033077E-1,4.655205607E-1,3.728425503E-2
6.004481170E-1,-1.331580579E-1,4.319647253E-1,3.249056637E-2
6.024317590E-1,-1.390170157E-1,4.000068009E-1,3.568635881E-2
6.044459190E-1,-1.422128081E-1,3.685815036E-1,3.408846259E-2
6.063990440E-1,-1.443433315E-1,3.366235793E-1,3.675162420E-2
6.083826870E-1,-1.454086006E-1,3.030677438E-1,3.515372798E-2
6.103968470E-1,-1.438107044E-1,2.663161159E-1,3.888215125E-2
6.124110070E-1,-1.443433315E-1,2.316950262E-1,3.834952042E-2
6.143641320E-1,-1.390170157E-1,1.949433982E-1,3.941478580E-2
6.163782920E-1,-1.358212233E-1,1.560612470E-1,4.474110901E-2
6.183619350E-1,-1.342233270E-1,1.219727769E-1,4.687163606E-2
6.203760950E-1,-1.272991002E-1,9.001484513E-2,4.740426689E-2
6.223597380E-1,-1.225054115E-1,5.326322466E-2,5.113269389E-2
6.243738980E-1,-1.177117229E-1,1.810949668E-2,5.326322466E-2
6.263575400E-1,-1.129180342E-1,-1.331580617E-2,5.805691332E-2
6.283411830E-1,-1.123853996E-1,-4.207794741E-2,5.858954415E-2
6.303553430E-1,-1.086569726E-1,-7.084008306E-2,5.805691332E-2
6.323389860E-1,-1.017327532E-1,-1.022653878E-1,6.125270575E-2
6.343226280E-1,-9.906959534E-2,-1.257012039E-1,5.965480953E-2
6.363062710E-1,-9.747169912E-2,-1.448759735E-1,5.752427876E-2
6.383204310E-1,-9.374327213E-2,-1.661812514E-1,5.486112088E-2
6.403345910E-1,-8.735168725E-2,-1.853560209E-1,5.113269389E-2
6.423182340E-1,-8.468852192E-2,-1.976065636E-1,4.793690145E-2
6.443629110E-1,-7.616640627E-2,-2.146507949E-1,4.474110901E-2
6.463160360E-1,-7.350324839E-2,-2.290318608E-1,4.207794741E-2
6.482996790E-1,-6.444849819E-2,-2.343581766E-1,3.249056637E-2
6.503138390E-1,-6.125270575E-2,-2.423476577E-1,2.876213938E-2
6.522974820E-1,-5.432848632E-2,-2.466087192E-1,2.716424316E-2
6.542811240E-1,-4.900216311E-2,-2.514024079E-1,2.130528912E-2
6.562647670E-1,-4.101268202E-2,-2.535329461E-1,1.757686399E-2
6.582484090E-1,-3.515372798E-2,-2.508697808E-1,1.225054078E-2
6.602625700E-1,-3.302319720E-2,-2.476739883E-1,1.065264456E-2
6.622462120E-1,-2.929477207E-2,-2.460760921E-1,4.261057824E-3
6.642908900E-1,-2.716424316E-2,-2.444781959E-1,3.728425596E-3
6.662440150E-1,-2.130528912E-2,-2.402171344E-1,0.000000000E0
6.682276580E-1,-2.024002373E-2,-2.354234457E-1,-2.130528912E-3
6.702418180E-1,-1.970739290E-2,-2.290318608E-1,-4.793690052E-3
6.721949430E-1,-1.704423130E-2,-2.189118415E-1,-3.195793368E-3
6.741785850E-1,-1.651159860E-2,-2.146507949E-1,-5.858954508E-3
6.761927450E-1,-1.651159860E-2,-2.093244642E-1,-7.989482954E-3
6.781763880E-1,-1.491370238E-2,-2.008023560E-1,-7.456851192E-3
6.801600310E-1,-1.544633508E-2,-1.922802329E-1,-5.326322280E-3
6.821741910E-1,-1.544633508E-2,-1.874865443E-1,-3.728425596E-3
6.841883510E-1,-1.864212751E-2,-1.800296903E-1,-5.326322280E-3
6.861719930E-1,-1.544633508E-2,-1.709749401E-1,-3.728425596E-3
6.881556360E-1,-1.757686399E-2,-1.613875628E-1,-5.858954508E-3
6.901392790E-1,-1.651159860E-2,-1.518001854E-1,-3.195793368E-3
6.921534390E-1,-1.917476021E-2,-1.422128081E-1,-4.261057824E-3
6.941675990E-1,-1.651159860E-2,-1.310275346E-1,-4.261057824E-3
6.961512420E-1,-1.757686399E-2,-1.209075153E-1,-5.858954508E-3
6.981654020E-1,-1.438106969E-2,-1.107875034E-1,-3.728425596E-3
7.001490440E-1,-1.438106969E-2,-1.022653878E-1,-3.195793368E-3
7.021326870E-1,-1.118527725E-2,-9.267801046E-2,-5.326322280E-3
7.041773650E-1,-1.118527725E-2,-7.829693705E-2,-5.858954508E-3
7.061304900E-1,-1.225054078E-2,-7.403588295E-2,-6.391586736E-3
7.081446500E-1,-8.522115648E-3,-6.444849819E-2,0.000000000E0
7.101282920E-1,-1.171790902E-2,-6.018744037E-2,-1.597896684E-3
7.121119350E-1,-1.118527725E-2,-5.592638254E-2,2.130528912E-3
7.140955770E-1,-1.118527725E-2,-5.060006306E-2,4.793690052E-3
7.161097380E-1,-1.012001187E-2,-4.687163606E-2,7.989482954E-3
7.180933800E-1,-1.225054078E-2,-4.633900523E-2,1.225054078E-2
7.200770230E-1,-7.989482954E-3,-4.580637068E-2,1.225054078E-2
7.220911830E-1,-5.326322280E-3,-4.420847446E-2,9.054748341E-3
7.241053430E-1,-5.326322280E-3,-4.474110901E-2,1.118527725E-2
7.260889860E-1,-2.663161140E-3,-4.420847446E-2,1.278317347E-2
7.280726280E-1,-3.728425596E-3,-3.834952042E-2,1.278317347E-2
7.300562710E-1,-6.391586736E-3,-3.888215125E-2,1.012001187E-2
7.320704310E-1,-5.326322280E-3,-4.101268202E-2,1.491370238E-2
7.340540740E-1,-9.054748341E-3,-4.261057824E-2,1.118527725E-2
7.360682340E-1,-1.118527725E-2,-4.154531285E-2,1.065264456E-2
7.380823940E-1,-1.225054078E-2,-4.740426689E-2,9.587380104E-3
7.400355190E-1,-1.384843793E-2,-5.219795927E-2,1.065264456E-2
7.420496790E-1,-1.597896591E-2,-6.125270575E-2,1.012001187E-2
7.440638390E-1,-1.491370238E-2,-6.711166352E-2,7.456851192E-3
7.460474820E-1,-1.012001187E-2,-7.510114461E-2,1.118527725E-2
7.480311240E-1,-1.171790902E-2,-8.362326026E-2,6.924218964E-3
7.500147670E-1,-3.728425596E-3,-9.214537591E-2,5.326322280E-3
7.520289270E-1,-2.663161140E-3,-9.800432622E-2,2.130528912E-3
7.540125700E-1,1.597896684E-3,-1.086569726E-1,5.326322280E-4
7.559962120E-1,6.924218964E-3,-1.161138266E-1,-1.597896684E-3
7.579798550E-1,4.261057824E-3,-1.235706806E-1,-1.065264456E-3
7.599940150E-1,7.989482954E-3,-1.283643693E-1,-4.261057824E-3
7.619776580E-1,1.065264456E-2,-1.304948926E-1,-1.065264456E-3
7.640223350E-1,1.225054078E-2,-1.358212233E-1,-2.130528912E-3
7.659754600E-1,1.384843793E-2,-1.400822699E-1,-3.728425596E-3
7.679591030E-1,1.171790902E-2,-1.454086006E-1,-1.065264456E-3
7.699732630E-1,1.065264456E-2,-1.507349163E-1,-1.597896684E-3
7.719569060E-1,1.225054078E-2,-1.512675583E-1,-3.195793368E-3
7.739405480E-1,1.171790902E-2,-1.565938741E-1,-5.326322280E-4
7.759241910E-1,9.587380104E-3,-1.560612470E-1,-1.597896684E-3
7.779078330E-1,1.118527725E-2,-1.597896665E-1,-5.326322280E-4
7.799219930E-1,1.331580617E-2,-1.613875628E-1,0.000000000E0
7.819056360E-1,1.225054078E-2,-1.619201899E-1,-5.326322280E-4
7.839503140E-1,1.225054078E-2,-1.613875628E-1,-2.663161140E-3
7.859034390E-1,1.438106969E-2,-1.619201899E-1,-1.597896684E-3
7.878870810E-1,1.651159860E-2,-1.608549356E-1,-5.326322280E-4
7.899012420E-1,1.491370238E-2,-1.613875628E-1,-5.326322280E-4
7.918848840E-1,1.651159860E-2,-1.539307088E-1,-2.663161140E-3
7.938685270E-1,1.491370238E-2,-1.539307088E-1,-3.728425596E-3
7.958521690E-1,1.544633508E-2,-1.502022892E-1,-2.663161140E-3
7.978663290E-1,1.704423130E-2,-1.491370201E-1,-6.391586736E-3
7.998499720E-1,1.544633508E-2,-1.422128081E-1,-6.924218964E-3
8.018641320E-1,1.438106969E-2,-1.395496428E-1,-6.924218964E-3
8.038782920E-1,1.278317347E-2,-1.342233270E-1,-8.522115648E-3
8.058314170E-1,1.597896591E-2,-1.304948926E-1,-8.522115648E-3
8.078455770E-1,1.171790902E-2,-1.230380461E-1,-1.171790902E-2
8.098292200E-1,1.438106969E-2,-1.193096191E-1,-1.225054078E-2
8.118433800E-1,1.384843793E-2,-1.134506613E-1,-9.054748341E-3
8.138270230E-1,1.278317347E-2,-1.081243455E-1,-1.065264456E-2
8.158106650E-1,1.118527725E-2,-1.027980223E-1,-1.065264456E-2
8.178248260E-1,1.171790902E-2,-1.017327532E-1,-1.331580617E-2
8.198084680E-1,1.012001187E-2,-9.747169912E-2,-1.065264456E-2
8.217921110E-1,1.225054078E-2,-9.054747969E-2,-1.331580617E-2
8.238062710E-1,6.391586736E-3,-8.735168725E-2,-1.331580617E-2
8.257899130E-1,5.858954508E-3,-8.042746782E-2,-1.544633508E-2
8.278040740E-1,6.391586736E-3,-7.882957160E-2,-1.331580617E-2
8.297571990E-1,7.989482954E-3,-7.669904083E-2,-1.225054078E-2
8.317713590E-1,3.195793368E-3,-7.403588295E-2,-1.384843793E-2
8.337550010E-1,4.793690052E-3,-7.403588295E-2,-1.225054078E-2
8.357386440E-1,2.130528912E-3,-7.350324839E-2,-1.225054078E-2
8.377222860E-1,2.130528912E-3,-7.456851006E-2,-7.456851192E-3
8.397364470E-1,1.597896684E-3,-7.297061384E-2,-9.054748341E-3
8.417200890E-1,1.597896684E-3,-7.350324839E-2,-1.065264456E-2
8.437342490E-1,-3.195793368E-3,-7.456851006E-2,-7.989482954E-3
8.456873740E-1,5.326322280E-4,-7.297061384E-2,-6.391586736E-3
8.476710170E-1,-1.597896684E-3,-7.510114461E-2,-4.261057824E-3
8.496851770E-1,-4.793690052E-3,-7.829693705E-2,-3.728425596E-3
8.516688200E-1,-4.793690052E-3,-7.776430249E-2,-6.391586736E-3
8.536524620E-1,-5.326322280E-3,-7.882957160E-2,-5.858954508E-3
8.556361050E-1,-4.793690052E-3,-8.415589482E-2,-5.326322280E-4
8.576197470E-1,-5.858954508E-3,-8.202536404E-2,2.130528912E-3
8.596339080E-1,-7.989482954E-3,-8.575379103E-2,0.000000000E0
8.616175500E-1,-8.522115648E-3,-9.001484513E-2,-3.728425596E-3
8.636317100E-1,-6.391586736E-3,-9.374327213E-2,3.728425596E-3
8.655848350E-1,-8.522115648E-3,-9.321063757E-2,4.793690052E-3
8.675684780E-1,-9.054748341E-3,-9.480853379E-2,5.858954508E-3
8.695826380E-1,-1.012001187E-2,-9.534116834E-2,3.195793368E-3
8.715662810E-1,-1.065264456E-2,-9.693906456E-2,7.456851192E-3
8.735499230E-1,-9.054748341E-3,-1.017327532E-1,6.924218964E-3
8.755335660E-1,-9.587380104E-3,-9.960222989E-2,1.012001187E-2
8.775477260E-1,-9.587380104E-3,-9.747169912E-2,9.054748341E-3
8.795313680E-1,-9.054748341E-3,-1.006674916E-1,9.587380104E-3
8.815455290E-1,-7.989482954E-3,-1.022653878E-1,1.012001187E-2
8.835596890E-1,-1.012001187E-2,-9.853696078E-2,7.989482954E-3
8.855433310E-1,-7.456851192E-3,-9.960222989E-2,7.989482954E-3
8.875574920E-1,-5.326322280E-3,-9.906959534E-2,1.065264456E-2
8.895411340E-1,-4.793690052E-3,-9.587380290E-2,7.456851192E-3
8.915247770E-1,-1.597896684E-3,-9.480853379E-2,9.054748341E-3
8.935389370E-1,-2.130528912E-3,-9.267801046E-2,6.391586736E-3
8.955225790E-1,2.130528912E-3,-9.054747969E-2,5.326322280E-3
8.975062220E-1,1.065264456E-3,-9.001484513E-2,4.793690052E-3
8.995203820E-1,2.130528912E-3,-8.788431436E-2,6.391586736E-3
9.015040250E-1,2.663161140E-3,-8.468852192E-2,4.793690052E-3
9.035487020E-1,3.195793368E-3,-8.628641814E-2,1.597896684E-3
9.055018270E-1,6.924218964E-3,-7.936219871E-2,4.261057824E-3
9.075159880E-1,7.456851192E-3,-7.776430249E-2,5.326322280E-3
9.095301480E-1,9.054748341E-3,-7.456851006E-2,5.326322280E-3
9.115137900E-1,1.012001187E-2,-7.456851006E-2,3.195793368E-3
9.134974330E-1,1.065264456E-2,-7.243798673E-2,5.326322280E-3
9.154810760E-1,1.171790902E-2,-7.137271762E-2,2.663161140E-3
9.174952360E-1,1.171790902E-2,-6.764429063E-2,4.793690052E-3
9.194788780E-1,1.384843793E-2,-6.870955974E-2,3.728425596E-3
9.214930380E-1,1.225054078E-2,-6.870955974E-2,4.793690052E-3
9.235071990E-1,1.278317347E-2,-6.657902896E-2,3.728425596E-3
9.254908410E-1,1.118527725E-2,-6.551376730E-2,5.326322280E-3
9.275050010E-1,1.118527725E-2,-6.604639441E-2,3.728425596E-3
9.294886440E-1,1.118527725E-2,-6.870955974E-2,2.130528912E-3
9.315028040E-1,1.331580617E-2,-6.657902896E-2,3.195793368E-3
9.334864470E-1,1.225054078E-2,-6.977482140E-2,3.728425596E-3
9.354700890E-1,1.171790902E-2,-7.084008306E-2,1.065264456E-3
9.374842490E-1,1.225054078E-2,-6.817692518E-2,2.130528912E-3
9.394678920E-1,1.065264456E-2,-7.084008306E-2,1.597896684E-3
9.414515340E-1,9.587380104E-3,-6.764429063E-2,-5.326322280E-4
9.434656950E-1,9.054748341E-3,-6.817692518E-2,1.597896684E-3
9.454493370E-1,8.522115648E-3,-7.137271762E-2,-1.065264456E-3
9.474634970E-1,5.858954508E-3,-7.190535218E-2,-1.065264456E-3
9.494471400E-1,6.924218964E-3,-7.510114461E-2,0.000000000E0
9.514307830E-1,4.261057824E-3,-7.829693705E-2,1.065264456E-3
9.534144250E-1,5.326322280E-3,-8.202536404E-2,-5.326322280E-4
9.554285850E-1,4.261057824E-3,-8.735168725E-2,5.326322280E-4
9.574122280E-1,5.858954508E-3,-9.214537591E-2,1.597896684E-3
9.593958700E-1,3.195793368E-3,-9.960222989E-2,5.326322280E-4
9.614100310E-1,4.261057824E-3,-1.022653878E-1,3.195793368E-3
9.634241910E-1,4.793690052E-3,-1.091896072E-1,1.065264456E-3
9.654078330E-1,2.130528912E-3,-1.113201380E-1,0.000000000E0
9.673914760E-1,6.924218964E-3,-1.166464612E-1,3.195793368E-3
9.693751180E-1,2.663161140E-3,-1.203748807E-1,2.130528912E-3
9.713892790E-1,5.326322280E-3,-1.251685768E-1,2.130528912E-3
9.733729210E-1,5.326322280E-3,-1.299622655E-1,5.858954508E-3
9.753870810E-1,2.663161140E-3,-1.320927888E-1,5.326322280E-3
9.773707240E-1,3.195793368E-3,-1.358212233E-1,3.728425596E-3
9.793543670E-1,2.663161140E-3,-1.379517466E-1,2.663161140E-3
9.813685270E-1,2.130528912E-3,-1.427454352E-1,5.326322280E-3
9.833826870E-1,0.000000000E0,-1.454086006E-1,6.924218964E-3
9.853663290E-1,-5.326322280E-4,-1.470064968E-1,6.924218964E-3
9.873499720E-1,-1.065264456E-3,-1.475391239E-1,2.663161140E-3
9.893336150E-1,-3.195793368E-3,-1.475391239E-1,6.391586736E-3
9.913477750E-1,-5.858954508E-3,-1.507349163E-1,4.793690052E-3
9.933619350E-1,-9.054748341E-3,-1.533980817E-1,5.326322280E-3
9.953455770E-1,-1.225054078E-2,-1.560612470E-1,2.130528912E-3
9.973292200E-1,-1.278317347E-2,-1.565938741E-1,3.728425596E-3
9.993433800E-1,-1.651159860E-2,-1.576591432E-1,6.391586736E-3
1.001327023E0,-1.597896591E-2,-1.624528319E-1,3.728425596E-3
1.003371701E0,-2.024002373E-2,-1.613875628E-1,2.130528912E-3
1.005324826E0,-2.237055451E-2,-1.645833552E-1,1.597896684E-3
1.007308468E0,-2.237055451E-2,-1.624528319E-1,2.130528912E-3
1.009322628E0,-2.609897964E-2,-1.645833552E-1,2.663161140E-3
1.011336788E0,-2.503371425E-2,-1.667138934E-1,3.195793368E-3
1.013289913E0,-2.396845073E-2,-1.683117896E-1,3.195793368E-3
1.015273556E0,-2.716424316E-2,-1.731054783E-1,2.130528912E-3
1.017257199E0,-2.822950855E-2,-1.778991669E-1,3.195793368E-3
1.019271359E0,-2.876213938E-2,-1.794970632E-1,3.728425596E-3
1.021255001E0,-2.982740477E-2,-1.848233789E-1,2.130528912E-3
1.023299679E0,-2.716424316E-2,-1.928128600E-1,1.597896684E-3
1.025252804E0,-3.142530099E-2,-1.970739216E-1,2.130528912E-3
1.027236447E0,-2.876213938E-2,-2.045307755E-1,3.728425596E-3
1.029250607E0,-3.142530099E-2,-2.103897333E-1,3.195793368E-3
1.031234249E0,-2.982740477E-2,-2.210423797E-1,3.728425596E-3
1.033217892E0,-2.769687586E-2,-2.247707993E-1,1.065264456E-3
1.035201534E0,-2.663161233E-2,-2.311623842E-1,3.195793368E-3
1.037185177E0,-2.876213938E-2,-2.364887148E-1,5.858954508E-3
1.039168820E0,-2.769687586E-2,-2.460760921E-1,7.456851192E-3
1.041182980E0,-2.769687586E-2,-2.519350350E-1,8.522115648E-3
1.043197140E0,-2.982740477E-2,-2.583266199E-1,1.438106969E-2
1.045180783E0,-2.876213938E-2,-2.647182047E-1,1.384843793E-2
1.047164425E0,-2.609897964E-2,-2.711097896E-1,1.704423130E-2
1.049148068E0,-2.769687586E-2,-2.743056118E-1,1.970739290E-2
1.051162228E0,-2.609897964E-2,-2.822950780E-1,1.970739290E-2
1.053145870E0,-2.556634694E-2,-2.865561247E-1,1.810949668E-2
1.055160031E0,-2.343581803E-2,-2.913498282E-1,1.810949668E-2
1.057174191E0,-2.343581803E-2,-2.956108749E-1,1.651159860E-2
1.059157833E0,-1.917476021E-2,-2.998719513E-1,1.704423130E-2
1.061171993E0,-1.651159860E-2,-3.046656251E-1,1.917476021E-2
1.063186154E0,-1.278317347E-2,-3.099919558E-1,1.438106969E-2
1.065169796E0,-1.012001187E-2,-3.131877482E-1,1.331580617E-2
1.067183956E0,-1.118527725E-2,-3.163835406E-1,1.278317347E-2
1.069167599E0,-8.522115648E-3,-3.195793331E-1,1.171790902E-2
1.071181759E0,-8.522115648E-3,-3.211772442E-1,7.989482954E-3
1.073165402E0,-7.989482954E-3,-3.238403797E-1,5.858954508E-3
1.075179562E0,-6.924218964E-3,-3.259709179E-1,4.261057824E-3
1.077163204E0,-3.195793368E-3,-3.323625028E-1,4.793690052E-3
1.079177365E0,-4.261057824E-3,-3.360909224E-1,2.130528912E-3
1.081191525E0,-4.261057824E-3,-3.382214606E-1,0.000000000E0
1.083205685E0,-5.326322280E-3,-3.408846259E-1,1.597896684E-3
1.085189327E0,-4.793690052E-3,-3.456783295E-1,-5.326322280E-4
1.087172970E0,-6.924218964E-3,-3.499393761E-1,5.326322280E-4
1.089156613E0,-6.391586736E-3,-3.568635881E-1,-1.065264456E-3
1.091170773E0,-4.261057824E-3,-3.584614992E-1,-1.065264456E-3
1.093154415E0,-6.924218964E-3,-3.595267534E-1,-1.065264456E-3
1.095138058E0,-6.391586736E-3,-3.643204570E-1,-1.065264456E-3
1.097152218E0,-7.989482954E-3,-3.685815036E-1,-4.261057824E-3
1.099135861E0,-1.012001187E-2,-3.707120419E-1,-6.924218964E-3
1.101150021E0,-1.171790902E-2,-3.755057156E-1,-3.728425596E-3
1.103164181E0,-9.054748341E-3,-3.787015080E-1,-7.989482954E-3
1.105147824E0,-1.065264456E-2,-3.818973005E-1,-8.522115648E-3
1.107161984E0,-1.384843793E-2,-3.861583769E-1,-1.012001187E-2
1.109145626E0,-1.704423130E-2,-3.920173049E-1,-1.278317347E-2
1.111129269E0,-1.704423130E-2,-3.957457542E-1,-1.544633508E-2
1.113112911E0,-1.704423130E-2,-3.989415467E-1,-1.491370238E-2
1.115127072E0,-2.024002373E-2,-4.021373391E-1,-1.651159860E-2
1.117110714E0,-1.970739290E-2,-4.095941782E-1,-1.757686399E-2
1.119124874E0,-2.183792181E-2,-4.111920893E-1,-1.970739290E-2
1.121139034E0,-2.503371425E-2,-4.143878818E-1,-2.077265643E-2
1.123153195E0,-2.556634694E-2,-4.218447208E-1,-2.130528912E-2
1.125136837E0,-2.716424316E-2,-4.245078862E-1,-2.396845073E-2
1.127120480E0,-2.609897964E-2,-4.287689328E-1,-2.450108156E-2
1.129104122E0,-2.982740477E-2,-4.346278906E-1,-2.556634694E-2
1.131118283E0,-3.195793182E-2,-4.383563101E-1,-2.556634694E-2
1.133101925E0,-3.355583176E-2,-4.442152679E-1,-2.556634694E-2
1.135116085E0,-3.568635881E-2,-4.495415986E-1,-2.396845073E-2
1.137099728E0,-3.302319720E-2,-4.559331834E-1,-2.503371425E-2
1.139083370E0,-3.728425503E-2,-4.623247683E-1,-2.450108156E-2
1.141097531E0,-3.941478580E-2,-4.681837261E-1,-2.822950855E-2
1.143111691E0,-4.101268202E-2,-4.751079381E-1,-2.822950855E-2
1.145095333E0,-4.420847446E-2,-4.852279723E-1,-2.822950855E-2
1.147078976E0,-4.261057824E-2,-4.910869002E-1,-2.876213938E-2
1.149062618E0,-4.527373984E-2,-4.990763962E-1,-2.982740477E-2
1.151046261E0,-4.527373984E-2,-5.038700700E-1,-3.089267015E-2
1.153060421E0,-4.633900523E-2,-5.134574771E-1,-3.249056637E-2
1.155044064E0,-4.633900523E-2,-5.177185535E-1,-3.195793182E-2
1.157058224E0,-4.900216311E-2,-5.235774517E-1,-3.089267015E-2
1.159072384E0,-4.740426689E-2,-5.310343504E-1,-3.142530099E-2
1.161025509E0,-4.793690145E-2,-5.374259353E-1,-3.462109342E-2
1.163070187E0,-4.580637068E-2,-5.427522659E-1,-3.142530099E-2
1.165023312E0,-4.953479767E-2,-5.480785370E-1,-3.142530099E-2
1.167037472E0,-5.006742850E-2,-5.550028086E-1,-3.195793182E-2
1.169021115E0,-5.006742850E-2,-5.613943934E-1,-3.249056637E-2
1.171004757E0,-4.900216311E-2,-5.699164867E-1,-2.876213938E-2
1.173018917E0,-5.006742850E-2,-5.736449361E-1,-3.142530099E-2
1.175002560E0,-4.900216311E-2,-5.795038939E-1,-2.876213938E-2
1.177016720E0,-4.740426689E-2,-5.816344023E-1,-3.142530099E-2
1.179030880E0,-4.687163606E-2,-5.890912414E-1,-3.036003746E-2
1.181014523E0,-4.900216311E-2,-5.896238685E-1,-3.142530099E-2
1.183059201E0,-4.687163606E-2,-5.938849449E-1,-3.249056637E-2
1.185012326E0,-4.420847446E-2,-5.949501991E-1,-2.929477207E-2
1.186995968E0,-4.527373984E-2,-5.986786485E-1,-3.089267015E-2
1.189010128E0,-4.580637068E-2,-5.986786485E-1,-2.876213938E-2
1.190993771E0,-4.261057824E-2,-6.024070382E-1,-2.663161233E-2
1.193007931E0,-4.261057824E-2,-6.029396653E-1,-2.769687586E-2
1.194991574E0,-3.834952042E-2,-5.992112756E-1,-2.982740477E-2
1.197005734E0,-3.621899337E-2,-5.992112756E-1,-2.396845073E-2
1.199019894E0,-3.728425503E-2,-5.976133347E-1,-2.663161233E-2
1.201003536E0,-3.462109342E-2,-5.965480804E-1,-2.663161233E-2
1.203048214E0,-3.302319720E-2,-5.944175720E-1,-2.503371425E-2
1.205001339E0,-3.249056637E-2,-5.944175720E-1,-2.609897964E-2
1.206984982E0,-3.142530099E-2,-5.944175720E-1,-2.450108156E-2
1.208999142E0,-2.929477207E-2,-5.901564956E-1,-2.503371425E-2
1.210982784E0,-2.876213938E-2,-5.890912414E-1,-2.663161233E-2
1.212996945E0,-2.876213938E-2,-5.869607329E-1,-2.609897964E-2
1.214980587E0,-2.929477207E-2,-5.880259871E-1,-2.290318534E-2
1.216964230E0,-2.876213938E-2,-5.832322836E-1,-2.290318534E-2
1.218978390E0,-2.929477207E-2,-5.805691481E-1,-2.077265643E-2
1.220962033E0,-2.876213938E-2,-5.779059529E-1,-2.130528912E-2
1.223006710E0,-2.663161233E-2,-5.768406987E-1,-1.757686399E-2
1.224959835E0,-2.876213938E-2,-5.725796223E-1,-1.864212751E-2
1.226943478E0,-2.663161233E-2,-5.699164867E-1,-1.491370238E-2
1.228957638E0,-2.556634694E-2,-5.651227832E-1,-1.597896591E-2
1.230941281E0,-2.769687586E-2,-5.624596477E-1,-1.278317347E-2
1.232924923E0,-2.503371425E-2,-5.603290796E-1,-1.171790902E-2
1.234939083E0,-2.450108156E-2,-5.576659441E-1,-1.118527725E-2
1.236953243E0,-2.556634694E-2,-5.523396134E-1,-1.278317347E-2
1.238906368E0,-2.556634694E-2,-5.512743592E-1,-7.456851192E-3
1.240920529E0,-2.396845073E-2,-5.480785370E-1,-7.456851192E-3
1.242934689E0,-2.396845073E-2,-5.438175201E-1,-1.065264456E-2
1.244887814E0,-2.077265643E-2,-5.395564437E-1,-9.587380104E-3
1.246871456E0,-2.183792181E-2,-5.374259353E-1,-1.118527725E-2
1.248855099E0,-1.864212751E-2,-5.336974859E-1,-1.118527725E-2
1.250869259E0,-1.970739290E-2,-5.262406468E-1,-1.278317347E-2
1.252852902E0,-1.864212751E-2,-5.273059011E-1,-1.225054078E-2
1.254867062E0,-1.917476021E-2,-5.193164349E-1,-1.384843793E-2
1.256881222E0,-1.757686399E-2,-5.155879855E-1,-1.491370238E-2
1.258864865E0,-1.810949668E-2,-5.123922229E-1,-1.331580617E-2
1.260879025E0,-1.757686399E-2,-5.086637735E-1,-1.917476021E-2
1.262893185E0,-1.651159860E-2,-5.022721887E-1,-1.757686399E-2
1.264876827E0,-1.597896591E-2,-5.022721887E-1,-1.864212751E-2
1.266890988E0,-1.970739290E-2,-4.985437691E-1,-2.130528912E-2
1.268874630E0,-1.864212751E-2,-4.948153496E-1,-2.077265643E-2
1.270858273E0,-1.864212751E-2,-4.900216460E-1,-2.024002373E-2
1.272841915E0,-1.757686399E-2,-4.820321798E-1,-2.130528912E-2
1.274856076E0,-1.544633508E-2,-4.772384763E-1,-1.970739290E-2
1.276839718E0,-1.597896591E-2,-4.697816372E-1,-2.024002373E-2
1.278853878E0,-1.651159860E-2,-4.623247683E-1,-1.864212751E-2
1.280868038E0,-1.704423130E-2,-4.548679292E-1,-1.864212751E-2
1.282882199E0,-1.597896591E-2,-4.511395097E-1,-2.024002373E-2
1.284865841E0,-1.810949668E-2,-4.458131790E-1,-1.704423130E-2
1.286849484E0,-1.810949668E-2,-4.420847595E-1,-1.864212751E-2
1.288833126E0,-1.544633508E-2,-4.378236830E-1,-1.917476021E-2
1.290847286E0,-1.384843793E-2,-4.335626364E-1,-2.237055451E-2
1.292830929E0,-1.065264456E-2,-4.308994710E-1,-1.810949668E-2
1.294814572E0,-1.278317347E-2,-4.282363057E-1,-1.917476021E-2
1.296828732E0,-1.065264456E-2,-4.213120937E-1,-2.024002373E-2
1.298812374E0,-7.989482954E-3,-4.186489284E-1,-2.183792181E-2
1.300826534E0,-6.924218964E-3,-4.170510471E-1,-2.024002373E-2
1.302840695E0,-4.793690052E-3,-4.154531360E-1,-2.077265643E-2
1.304824337E0,-1.065264456E-3,-4.111920893E-1,-2.077265643E-2
1.306838497E0,-1.065264456E-3,-4.090615511E-1,-2.130528912E-2
1.308822140E0,5.326322280E-4,-4.095941782E-1,-1.704423130E-2
1.310836300E0,-1.065264456E-3,-4.085289240E-1,-2.024002373E-2
1.312819943E0,1.065264456E-3,-4.042678475E-1,-1.651159860E-2
1.314834103E0,1.597896684E-3,-3.989415467E-1,-2.024002373E-2
1.316817745E0,5.326322280E-4,-3.957457542E-1,-1.704423130E-2
1.318831906E0,1.065264456E-3,-3.925499618E-1,-1.704423130E-2
1.320846066E0,-5.326322280E-4,-3.882888854E-1,-1.917476021E-2
1.322860226E0,-1.065264456E-3,-3.882888854E-1,-1.651159860E-2
1.324843868E0,1.065264456E-3,-3.834952116E-1,-1.651159860E-2
1.326827511E0,-3.195793368E-3,-3.760383427E-1,-1.384843793E-2
1.328811154E0,-2.130528912E-3,-3.733751774E-1,-1.171790902E-2
1.330825314E0,-2.130528912E-3,-3.723099232E-1,-8.522115648E-3
1.332808956E0,-3.728425596E-3,-3.653857112E-1,-7.456851192E-3
1.334823117E0,-2.130528912E-3,-3.675162494E-1,-4.793690052E-3
1.336806759E0,-3.728425596E-3,-3.675162494E-1,-5.326322280E-3
1.338790402E0,5.326322280E-4,-3.669835925E-1,0.000000000E0
1.340804562E0,3.195793368E-3,-3.701793849E-1,-5.326322280E-4
1.342818722E0,3.728425596E-3,-3.723099232E-1,-3.728425596E-3
1.344802365E0,4.793690052E-3,-3.739078343E-1,3.728425596E-3
1.346786007E0,6.924218964E-3,-3.755057156E-1,8.522115648E-3
1.348769650E0,4.793690052E-3,-3.739078343E-1,8.522115648E-3
1.350783810E0,5.326322280E-3,-3.744404614E-1,1.171790902E-2
1.352767452E0,3.195793368E-3,-3.723099232E-1,1.118527725E-2
1.354751095E0,4.793690052E-3,-3.675162494E-1,1.597896591E-2
1.356734738E0,0.000000000E0,-3.600593805E-1,1.810949668E-2
1.358748898E0,-1.597896684E-3,-3.557983339E-1,2.290318534E-2
1.360732540E0,-2.663161140E-3,-3.526025414E-1,2.450108156E-2
1.362777218E0,-5.326322280E-3,-3.483414650E-1,2.556634694E-2
1.364730343E0,-4.793690052E-3,-3.478088379E-1,2.769687586E-2
1.366713986E0,-4.261057824E-3,-3.419498801E-1,2.982740477E-2
1.368728146E0,-5.858954508E-3,-3.424825370E-1,3.302319720E-2
1.370711788E0,-2.130528912E-3,-3.392867148E-1,3.036003746E-2
1.372695431E0,0.000000000E0,-3.350256681E-1,3.302319720E-2
1.374679074E0,3.728425596E-3,-3.312972486E-1,3.302319720E-2
1.376662716E0,8.522115648E-3,-3.323625028E-1,3.515372798E-2
1.378676876E0,8.522115648E-3,-3.233077526E-1,3.568635881E-2
1.380660519E0,1.171790902E-2,-3.174487948E-1,3.781688958E-2
1.382674679E0,1.544633508E-2,-3.131877482E-1,3.834952042E-2
1.384627804E0,1.491370238E-2,-3.073287904E-1,3.994741663E-2
1.386641964E0,2.130528912E-2,-3.020024598E-1,4.048004746E-2
1.388656124E0,2.450108156E-2,-2.956108749E-1,4.207794741E-2
1.390639767E0,2.716424316E-2,-2.881540358E-1,3.834952042E-2
1.392623409E0,2.769687586E-2,-2.812298238E-1,4.101268202E-2
1.394607052E0,3.142530099E-2,-2.737729549E-1,4.048004746E-2
1.396621212E0,3.142530099E-2,-2.684466541E-1,3.941478580E-2
1.398604855E0,3.142530099E-2,-2.609897852E-1,3.941478580E-2
1.400619015E0,3.195793182E-2,-2.572613657E-1,3.834952042E-2
1.402633175E0,3.568635881E-2,-2.524676621E-1,4.314320907E-2
1.404616818E0,3.249056637E-2,-2.428802997E-1,3.994741663E-2
1.406630978E0,3.621899337E-2,-2.386192381E-1,3.941478580E-2
1.408614620E0,3.249056637E-2,-2.327602804E-1,3.941478580E-2
1.410628781E0,3.408846259E-2,-2.279665917E-1,3.888215125E-2
1.412612423E0,3.408846259E-2,-2.231729031E-1,4.154531285E-2
1.414565548E0,3.302319720E-2,-2.183792144E-1,3.675162420E-2
1.416579708E0,3.462109342E-2,-2.146507949E-1,4.207794741E-2
1.418563351E0,3.036003746E-2,-2.093244642E-1,3.994741663E-2
1.420546993E0,3.089267015E-2,-2.039981484E-1,4.207794741E-2
1.422561154E0,2.822950855E-2,-2.013349831E-1,3.728425503E-2
1.424544796E0,3.036003746E-2,-1.965412945E-1,3.621899337E-2
1.426558956E0,2.663161233E-2,-1.922802329E-1,4.048004746E-2
1.428542599E0,2.716424316E-2,-1.869539171E-1,3.728425503E-2
1.430526242E0,2.716424316E-2,-1.853560209E-1,3.675162420E-2
1.432509884E0,2.769687586E-2,-1.837581247E-1,3.621899337E-2
1.434524044E0,2.343581803E-2,-1.784317940E-1,3.249056637E-2
1.436507687E0,2.237055451E-2,-1.794970632E-1,3.408846259E-2
1.438491329E0,2.290318534E-2,-1.794970632E-1,3.515372798E-2
1.440505490E0,2.450108156E-2,-1.784317940E-1,3.249056637E-2
1.442519650E0,2.237055451E-2,-1.715075821E-1,2.982740477E-2
1.444503292E0,2.024002373E-2,-1.725728363E-1,2.929477207E-2
1.446486935E0,1.970739290E-2,-1.693770438E-1,3.036003746E-2
1.448501095E0,1.757686399E-2,-1.677791476E-1,3.036003746E-2
1.450515255E0,1.917476021E-2,-1.613875628E-1,3.142530099E-2
1.452498898E0,2.077265643E-2,-1.624528319E-1,2.982740477E-2
1.454513058E0,1.704423130E-2,-1.587243974E-1,3.568635881E-2
1.456496701E0,1.757686399E-2,-1.581917703E-1,3.568635881E-2
1.458480343E0,1.438106969E-2,-1.565938741E-1,2.982740477E-2
1.460494503E0,1.651159860E-2,-1.576591432E-1,3.408846259E-2
1.462508663E0,1.704423130E-2,-1.592570394E-1,3.302319720E-2
1.464492306E0,1.651159860E-2,-1.592570394E-1,3.249056637E-2
1.466475949E0,1.757686399E-2,-1.651159972E-1,3.036003746E-2
1.468459591E0,1.810949668E-2,-1.661812514E-1,3.142530099E-2
1.470473751E0,1.810949668E-2,-1.699096859E-1,3.355583176E-2
1.472457394E0,2.237055451E-2,-1.693770438E-1,3.781688958E-2
1.474441036E0,2.290318534E-2,-1.725728363E-1,3.355583176E-2
1.476455197E0,2.716424316E-2,-1.763012707E-1,3.568635881E-2
1.478469357E0,2.663161233E-2,-1.789644361E-1,3.568635881E-2
1.480422482E0,3.036003746E-2,-1.816275865E-1,3.515372798E-2
1.482467159E0,3.089267015E-2,-1.800296903E-1,3.408846259E-2
1.484420284E0,3.195793182E-2,-1.842907518E-1,3.408846259E-2
1.486434445E0,3.462109342E-2,-1.896170676E-1,3.355583176E-2
1.488448605E0,3.515372798E-2,-1.885518134E-1,3.462109342E-2
1.490432247E0,3.834952042E-2,-1.912149638E-1,3.355583176E-2
1.492415890E0,3.728425503E-2,-1.896170676E-1,3.355583176E-2
1.494430050E0,4.154531285E-2,-1.869539171E-1,3.621899337E-2
1.496413693E0,3.994741663E-2,-1.858886480E-1,3.568635881E-2
1.498427853E0,4.048004746E-2,-1.853560209E-1,3.941478580E-2
1.500442013E0,4.101268202E-2,-1.821602285E-1,3.728425503E-2
1.502456173E0,3.994741663E-2,-1.768338978E-1,3.941478580E-2
1.504439816E0,3.728425503E-2,-1.704423130E-1,3.675162420E-2
1.506423458E0,3.515372798E-2,-1.677791476E-1,3.888215125E-2
1.508407101E0,3.355583176E-2,-1.624528319E-1,3.728425503E-2
1.510421261E0,3.142530099E-2,-1.565938741E-1,3.941478580E-2
1.512404904E0,2.982740477E-2,-1.491370201E-1,3.994741663E-2
1.514388546E0,2.556634694E-2,-1.438107044E-1,3.994741663E-2
1.516402706E0,2.450108156E-2,-1.347559541E-1,3.888215125E-2
1.518416867E0,2.237055451E-2,-1.315601617E-1,4.101268202E-2
1.520400509E0,1.757686399E-2,-1.198422536E-1,3.941478580E-2
1.522445187E0,1.544633508E-2,-1.161138266E-1,3.994741663E-2
1.524398312E0,1.225054078E-2,-1.070590764E-1,4.048004746E-2
1.526381954E0,9.054748341E-3,-1.059938148E-1,4.048004746E-2
1.528396115E0,5.326322280E-4,-9.534116834E-2,3.728425503E-2
1.530379757E0,0.000000000E0,-8.735168725E-2,3.675162420E-2
1.532363400E0,-1.065264456E-3,-8.042746782E-2,3.728425503E-2
1.534347042E0,-4.793690052E-3,-7.936219871E-2,3.834952042E-2
1.536330685E0,-1.012001187E-2,-7.297061384E-2,3.408846259E-2
1.538344845E0,-1.225054078E-2,-7.084008306E-2,3.515372798E-2
1.540328488E0,-1.384843793E-2,-6.498113275E-2,3.675162420E-2
1.542373165E0,-1.544633508E-2,-6.072007492E-2,3.195793182E-2
1.544326290E0,-2.130528912E-2,-5.858954415E-2,3.036003746E-2
1.546340451E0,-2.183792181E-2,-5.858954415E-2,2.769687586E-2
1.548354611E0,-2.290318534E-2,-5.645901710E-2,2.982740477E-2
1.550338253E0,-2.503371425E-2,-5.805691332E-2,2.769687586E-2
1.552321896E0,-2.556634694E-2,-5.486112088E-2,2.609897964E-2
1.554336056E0,-2.876213938E-2,-5.592638254E-2,2.556634694E-2
1.556350216E0,-2.663161233E-2,-5.326322466E-2,2.290318534E-2
1.558333859E0,-3.036003746E-2,-5.592638254E-2,2.237055451E-2
1.560348019E0,-2.769687586E-2,-5.805691332E-2,2.183792181E-2
1.562362179E0,-2.876213938E-2,-5.912217870E-2,1.970739290E-2
1.564315304E0,-2.822950855E-2,-6.178534031E-2,1.864212751E-2
1.566298947E0,-2.876213938E-2,-6.498113275E-2,1.970739290E-2
1.568282589E0,-2.503371425E-2,-6.604639441E-2,1.704423130E-2
1.570296749E0,-2.503371425E-2,-7.030745596E-2,1.278317347E-2
1.572280392E0,-2.503371425E-2,-7.190535218E-2,1.384843793E-2
1.574294552E0,-2.237055451E-2,-7.829693705E-2,1.012001187E-2
1.576308712E0,-2.077265643E-2,-7.776430249E-2,1.012001187E-2
1.578292355E0,-1.917476021E-2,-8.628641814E-2,1.012001187E-2
1.580306515E0,-1.651159860E-2,-8.202536404E-2,7.989482954E-3
1.582320675E0,-1.438106969E-2,-8.468852192E-2,8.522115648E-3
1.584273800E0,-1.278317347E-2,-8.415589482E-2,9.054748341E-3
1.586287960E0,-9.054748341E-3,-8.415589482E-2,7.989482954E-3
1.588271603E0,-7.989482954E-3,-8.202536404E-2,1.012001187E-2
1.590285763E0,-5.858954508E-3,-7.882957160E-2,7.989482954E-3
1.592269406E0,-3.728425596E-3,-8.042746782E-2,7.989482954E-3
1.594283566E0,-2.130528912E-3,-7.882957160E-2,8.522115648E-3
1.596267208E0,-1.065264456E-3,-7.403588295E-2,8.522115648E-3
1.598281368E0,2.130528912E-3,-7.297061384E-2,1.118527725E-2
1.600295529E0,-2.130528912E-3,-7.403588295E-2,9.587380104E-3
1.602309689E0,-1.597896684E-3,-6.977482140E-2,1.065264456E-2
1.604293331E0,-1.065264456E-3,-6.604639441E-2,1.491370238E-2
1.606276974E0,-1.597896684E-3,-6.764429063E-2,1.331580617E-2
1.608260617E0,-1.597896684E-3,-6.338323653E-2,1.331580617E-2
1.610274777E0,1.597896684E-3,-6.018744037E-2,1.491370238E-2
1.612258419E0,2.663161140E-3,-5.858954415E-2,1.384843793E-2
1.614272579E0,2.130528912E-3,-5.379585549E-2,1.810949668E-2
1.616256222E0,3.195793368E-3,-5.273059011E-2,1.810949668E-2
1.618239865E0,0.000000000E0,-5.166532472E-2,2.077265643E-2
1.620254025E0,2.130528912E-3,-4.900216311E-2,2.130528912E-2
1.622268185E0,1.065264456E-3,-4.846953228E-2,2.130528912E-2
1.624251827E0,3.728425596E-3,-4.953479767E-2,2.290318534E-2
1.626235470E0,2.663161140E-3,-4.846953228E-2,2.503371425E-2
1.628219113E0,2.130528912E-3,-4.953479767E-2,2.130528912E-2
1.630233273E0,3.728425596E-3,-5.006742850E-2,2.450108156E-2
1.632247433E0,1.597896684E-3,-5.060006306E-2,2.290318534E-2
1.634231076E0,3.728425596E-3,-5.166532472E-2,2.556634694E-2
1.636214718E0,2.663161140E-3,-5.539375171E-2,2.396845073E-2
1.638228878E0,1.065264456E-3,-5.432848632E-2,2.609897964E-2
1.640212521E0,1.065264456E-3,-5.326322466E-2,2.982740477E-2
1.642257199E0,2.130528912E-3,-5.699164793E-2,2.769687586E-2
1.644210324E0,1.065264456E-3,-6.338323653E-2,2.769687586E-2
1.646193966E0,1.597896684E-3,-6.285060197E-2,2.769687586E-2
1.648208126E0,1.065264456E-3,-6.764429063E-2,2.716424316E-2
1.650191769E0,2.130528912E-3,-7.084008306E-2,2.876213938E-2
1.652175411E0,0.000000000E0,-7.456851006E-2,3.142530099E-2
1.654159054E0,2.663161140E-3,-7.936219871E-2,3.302319720E-2
1.656142697E0,0.000000000E0,-8.468852192E-2,3.142530099E-2
1.658156857E0,1.597896684E-3,-9.001484513E-2,3.249056637E-2
1.660140499E0,1.065264456E-3,-9.853696078E-2,3.462109342E-2
1.662185177E0,-1.597896684E-3,-1.038632840E-1,3.355583176E-2
1.664138302E0,1.065264456E-3,-1.097222418E-1,3.462109342E-2
1.666121945E0,5.326322280E-4,-1.139832959E-1,3.621899337E-2
1.668136105E0,0.000000000E0,-1.214401498E-1,3.781688958E-2
1.670119747E0,-1.065264456E-3,-1.241033077E-1,3.941478580E-2
1.672103390E0,2.130528912E-3,-1.283643693E-1,3.834952042E-2
1.674087033E0,0.000000000E0,-1.320927888E-1,4.048004746E-2
1.676101193E0,3.195793368E-3,-1.374191195E-1,4.048004746E-2
1.678084835E0,4.261057824E-3,-1.406149119E-1,4.154531285E-2
1.680068478E0,4.261057824E-3,-1.422128081E-1,4.154531285E-2
1.682082638E0,4.261057824E-3,-1.443433315E-1,4.207794741E-2
1.684035763E0,5.326322280E-3,-1.475391239E-1,4.101268202E-2
1.686049923E0,4.793690052E-3,-1.470064968E-1,4.101268202E-2
1.688033566E0,5.858954508E-3,-1.448759735E-1,3.941478580E-2
1.690047726E0,4.793690052E-3,-1.422128081E-1,3.994741663E-2
1.692061886E0,5.326322280E-3,-1.352885813E-1,3.675162420E-2
1.694045529E0,7.456851192E-3,-1.331580579E-1,3.941478580E-2
1.696029171E0,4.793690052E-3,-1.326254308E-1,3.781688958E-2
1.698043331E0,7.456851192E-3,-1.262338310E-1,3.462109342E-2
1.700026974E0,5.858954508E-3,-1.203748807E-1,3.568635881E-2
1.702071652E0,7.456851192E-3,-1.155811921E-1,3.302319720E-2
1.704024777E0,8.522115648E-3,-1.086569726E-1,2.769687586E-2
1.706038937E0,7.456851192E-3,-1.033306494E-1,2.929477207E-2
1.708053097E0,9.587380104E-3,-9.960222989E-2,2.503371425E-2
1.710036740E0,9.587380104E-3,-8.735168725E-2,2.716424316E-2
1.712020382E0,8.522115648E-3,-8.202536404E-2,2.663161233E-2
1.714034542E0,9.587380104E-3,-7.616640627E-2,2.663161233E-2
1.716048702E0,7.989482954E-3,-6.870955974E-2,2.556634694E-2
1.718032345E0,7.989482954E-3,-6.178534031E-2,2.450108156E-2
1.720046505E0,9.054748341E-3,-5.592638254E-2,2.290318534E-2
1.722060665E0,7.989482954E-3,-4.953479767E-2,2.343581803E-2
1.724013790E0,6.924218964E-3,-4.261057824E-2,2.237055451E-2
1.725997433E0,6.924218964E-3,-3.834952042E-2,1.917476021E-2
1.727981076E0,5.326322280E-3,-3.355583176E-2,2.024002373E-2
1.729995236E0,2.663161140E-3,-2.769687586E-2,1.597896591E-2
1.731978878E0,1.597896684E-3,-2.237055451E-2,1.438106969E-2
1.733962521E0,0.000000000E0,-1.491370238E-2,1.384843793E-2
1.735976681E0,-2.663161140E-3,-1.597896591E-2,1.331580617E-2
1.737929806E0,5.326322280E-4,-7.989482954E-3,1.118527725E-2
1.739943966E0,0.000000000E0,-6.391586736E-3,9.587380104E-3
1.741958126E0,-2.130528912E-3,-4.261057824E-3,9.587380104E-3
1.743911251E0,-3.195793368E-3,-5.326322280E-3,4.261057824E-3
1.745894894E0,-5.858954508E-3,-5.326322280E-4,5.858954508E-3
1.747878536E0,-4.261057824E-3,1.597896684E-3,6.391586736E-3
1.749892697E0,-4.793690052E-3,2.130528912E-3,4.793690052E-3
1.751876339E0,-4.261057824E-3,-5.326322280E-4,3.195793368E-3
1.753859982E0,-3.195793368E-3,-1.065264456E-3,4.793690052E-3
1.755843624E0,-7.456851192E-3,0.000000000E0,3.728425596E-3
1.757857784E0,-5.858954508E-3,-3.728425596E-3,2.663161140E-3
1.759841427E0,-7.456851192E-3,-5.326322280E-3,1.597896684E-3
1.761886105E0,-5.326322280E-3,-6.924218964E-3,1.597896684E-3
1.763839230E0,-8.522115648E-3,-8.522115648E-3,1.065264456E-3
1.765822872E0,-7.456851192E-3,-1.331580617E-2,4.261057824E-3
1.767837033E0,-8.522115648E-3,-1.704423130E-2,2.663161140E-3
1.769820675E0,-7.989482954E-3,-2.077265643E-2,4.793690052E-3
1.771804318E0,-7.456851192E-3,-1.970739290E-2,5.326322280E-3
1.773787960E0,-9.054748341E-3,-2.237055451E-2,5.858954508E-3
1.775771603E0,-7.456851192E-3,-2.396845073E-2,8.522115648E-3
1.777785763E0,-6.924218964E-3,-2.556634694E-2,7.456851192E-3
1.779769406E0,-9.587380104E-3,-3.036003746E-2,1.118527725E-2
1.781783566E0,-9.587380104E-3,-3.462109342E-2,1.491370238E-2
1.783736691E0,-7.456851192E-3,-3.515372798E-2,1.225054078E-2
1.785750851E0,-9.054748341E-3,-3.834952042E-2,1.491370238E-2
1.787765011E0,-7.989482954E-3,-3.515372798E-2,1.757686399E-2
1.789748654E0,-7.456851192E-3,-3.036003746E-2,1.651159860E-2
1.791732296E0,-9.054748341E-3,-3.195793182E-2,1.917476021E-2
1.793715939E0,-8.522115648E-3,-2.982740477E-2,1.970739290E-2
1.795730099E0,-6.924218964E-3,-2.929477207E-2,1.810949668E-2
1.797713742E0,-5.858954508E-3,-3.036003746E-2,1.757686399E-2
1.799727902E0,-7.989482954E-3,-3.408846259E-2,1.597896591E-2
1.801742062E0,-6.391586736E-3,-3.621899337E-2,1.384843793E-2
1.803695187E0,-6.391586736E-3,-3.675162420E-2,1.757686399E-2
1.805709347E0,-2.663161140E-3,-4.101268202E-2,1.970739290E-2
1.807692990E0,-4.261057824E-3,-4.367584363E-2,1.810949668E-2
1.809737667E0,-5.326322280E-4,-4.580637068E-2,1.970739290E-2
1.811690792E0,5.326322280E-4,-4.953479767E-2,1.970739290E-2
1.813674435E0,1.065264456E-3,-5.326322466E-2,2.024002373E-2
1.815688595E0,4.793690052E-3,-5.539375171E-2,2.343581803E-2
1.817672238E0,3.195793368E-3,-5.432848632E-2,2.396845073E-2
1.819655880E0,6.391586736E-3,-5.699164793E-2,2.503371425E-2
1.821670040E0,5.858954508E-3,-5.805691332E-2,2.556634694E-2
1.823653683E0,4.261057824E-3,-5.539375171E-2,2.822950855E-2
1.825667843E0,5.326322280E-3,-5.752427876E-2,2.663161233E-2
1.827651486E0,8.522115648E-3,-5.326322466E-2,2.929477207E-2
1.829635128E0,9.587380104E-3,-5.113269389E-2,3.142530099E-2
1.831618771E0,6.391586736E-3,-5.113269389E-2,3.195793182E-2
1.833632931E0,4.793690052E-3,-4.314320907E-2,2.876213938E-2
1.835616574E0,6.391586736E-3,-4.048004746E-2,2.716424316E-2
1.837630734E0,4.261057824E-3,-3.195793182E-2,2.822950855E-2
1.839644894E0,3.728425596E-3,-2.982740477E-2,2.769687586E-2
1.841659054E0,3.728425596E-3,-2.183792181E-2,2.503371425E-2
1.843642697E0,4.261057824E-3,-1.597896591E-2,2.343581803E-2
1.845626339E0,3.728425596E-3,-1.384843793E-2,2.556634694E-2
1.847609982E0,1.065264456E-3,-3.728425596E-3,2.183792181E-2
1.849624142E0,2.663161140E-3,1.065264456E-3,1.757686399E-2
1.851607784E0,0.000000000E0,3.728425596E-3,1.917476021E-2
1.853621945E0,1.065264456E-3,1.065264456E-2,1.597896591E-2
1.855605587E0,3.195793368E-3,1.704423130E-2,1.704423130E-2
1.857589230E0,2.130528912E-3,1.917476021E-2,1.544633508E-2
1.859603390E0,2.130528912E-3,2.237055451E-2,1.491370238E-2
1.861617550E0,1.065264456E-3,2.130528912E-2,1.118527725E-2
1.863601193E0,2.130528912E-3,2.609897964E-2,1.225054078E-2
1.865584835E0,1.065264456E-3,2.822950855E-2,1.118527725E-2
1.867568478E0,2.663161140E-3,2.769687586E-2,9.054748341E-3
1.869582638E0,1.065264456E-3,2.876213938E-2,6.391586736E-3
1.871566281E0,-5.326322280E-4,3.036003746E-2,6.391586736E-3
1.873549923E0,5.326322280E-4,3.249056637E-2,4.261057824E-3
1.875533566E0,2.130528912E-3,3.142530099E-2,4.261057824E-3
1.877547726E0,2.130528912E-3,3.036003746E-2,3.728425596E-3
1.879531368E0,2.663161140E-3,3.195793182E-2,5.326322280E-4
1.881576046E0,2.130528912E-3,3.089267015E-2,-1.597896684E-3
1.883529171E0,1.597896684E-3,2.609897964E-2,-2.663161140E-3
1.885512814E0,0.000000000E0,2.450108156E-2,-3.195793368E-3
1.887526974E0,5.326322280E-4,2.450108156E-2,-3.728425596E-3
1.889510617E0,1.597896684E-3,2.077265643E-2,-2.130528912E-3
1.891494259E0,5.326322280E-4,1.970739290E-2,-5.326322280E-4
1.893508419E0,1.597896684E-3,1.278317347E-2,5.326322280E-4
1.895492062E0,5.326322280E-4,1.065264456E-2,-1.597896684E-3
1.897475704E0,-3.195793368E-3,5.858954508E-3,-5.326322280E-4
1.899489865E0,0.000000000E0,2.130528912E-3,2.130528912E-3
1.901504025E0,-2.130528912E-3,-2.130528912E-3,1.065264456E-3
1.903487667E0,-2.663161140E-3,-9.587380104E-3,5.326322280E-4
1.905471310E0,-1.065264456E-3,-1.065264456E-2,-5.326322280E-4
1.907454952E0,1.597896684E-3,-1.544633508E-2,-1.597896684E-3
1.909469113E0,1.597896684E-3,-1.810949668E-2,1.065264456E-3
1.911483273E0,1.065264456E-3,-2.290318534E-2,1.597896684E-3
1.913466915E0,4.261057824E-3,-2.503371425E-2,1.065264456E-3
1.915450558E0,5.858954508E-3,-3.036003746E-2,2.663161140E-3
1.917464718E0,7.456851192E-3,-2.929477207E-2,1.597896684E-3
1.919448361E0,7.456851192E-3,-3.302319720E-2,3.728425596E-3
1.921493038E0,6.924218964E-3,-3.515372798E-2,4.261057824E-3
1.923446163E0,9.054748341E-3,-3.355583176E-2,3.728425596E-3
1.925429806E0,1.118527725E-2,-3.249056637E-2,5.326322280E-3
1.927443966E0,1.225054078E-2,-2.929477207E-2,4.793690052E-3
1.929427609E0,1.012001187E-2,-2.609897964E-2,3.195793368E-3
1.931411251E0,1.171790902E-2,-2.343581803E-2,4.793690052E-3
1.933394894E0,1.118527725E-2,-2.077265643E-2,3.195793368E-3
1.935378536E0,5.858954508E-3,-1.278317347E-2,4.793690052E-3
1.937392697E0,6.391586736E-3,-9.587380104E-3,4.793690052E-3
1.939376339E0,4.793690052E-3,-2.663161140E-3,2.130528912E-3
1.941421017E0,2.663161140E-3,1.597896684E-3,3.728425596E-3
1.943374142E0,1.065264456E-3,4.261057824E-3,2.663161140E-3
1.945388302E0,-1.065264456E-3,1.225054078E-2,1.065264456E-3
1.947371945E0,-2.663161140E-3,1.810949668E-2,3.195793368E-3
1.949355587E0,-4.261057824E-3,2.396845073E-2,1.597896684E-3
1.951339230E0,-6.924218964E-3,2.556634694E-2,2.663161140E-3
1.953353390E0,-7.456851192E-3,3.142530099E-2,0.000000000E0
1.955337033E0,-1.012001187E-2,3.515372798E-2,0.000000000E0
1.957320675E0,-9.587380104E-3,3.515372798E-2,1.065264456E-3
1.959334835E0,-1.012001187E-2,3.888215125E-2,3.195793368E-3
1.961348995E0,-1.384843793E-2,4.154531285E-2,0.000000000E0
1.963332638E0,-1.597896591E-2,4.207794741E-2,-5.326322280E-4
1.965316281E0,-1.544633508E-2,4.261057824E-2,3.728425596E-3
1.967299923E0,-1.757686399E-2,4.474110901E-2,5.326322280E-4
1.969314083E0,-1.970739290E-2,4.527373984E-2,1.597896684E-3
1.971297726E0,-2.024002373E-2,4.633900523E-2,1.597896684E-3
1.973311886E0,-2.130528912E-2,4.420847446E-2,-5.326322280E-4
1.975295529E0,-1.917476021E-2,4.580637068E-2,1.597896684E-3
1.977279171E0,-1.864212751E-2,4.261057824E-2,-1.597896684E-3
1.979293331E0,-1.864212751E-2,4.633900523E-2,1.597896684E-3
1.981307492E0,-1.704423130E-2,4.261057824E-2,5.326322280E-4
1.983291134E0,-1.970739290E-2,4.367584363E-2,-5.326322280E-4
1.985305294E0,-1.970739290E-2,3.941478580E-2,5.326322280E-4
1.987288937E0,-1.491370238E-2,4.207794741E-2,2.130528912E-3
1.989303097E0,-1.757686399E-2,3.834952042E-2,-1.597896684E-3
1.991286740E0,-1.491370238E-2,3.888215125E-2,-2.130528912E-3
1.993300900E0,-1.704423130E-2,3.888215125E-2,-5.326322280E-4
1.995284542E0,-1.597896591E-2,4.154531285E-2,-4.261057824E-3
1.997298702E0,-1.438106969E-2,4.048004746E-2,-3.728425596E-3
1.999282345E0,-1.118527725E-2,3.834952042E-2,-4.261057824E-3
2.001296505E0,-1.225054078E-2,3.994741663E-2,-4.261057824E-3
2.003280148E0,-1.118527725E-2,4.420847446E-2,-3.728425596E-3
2.005263790E0,-1.118527725E-2,4.580637068E-2,-5.326322280E-3
2.007277951E0,-1.278317347E-2,5.113269389E-2,-3.195793368E-3
2.009292111E0,-1.065264456E-2,4.740426689E-2,-2.663161140E-3
2.011275753E0,-1.225054078E-2,5.166532472E-2,-3.195793368E-3
2.013289913E0,-9.054748341E-3,5.432848632E-2,-3.195793368E-3
2.015273556E0,-1.065264456E-2,5.965480953E-2,-3.728425596E-3
2.017257199E0,-1.225054078E-2,5.592638254E-2,-4.261057824E-3
2.019271359E0,-1.331580617E-2,6.072007492E-2,-4.261057824E-3
2.021285519E0,-1.331580617E-2,6.125270575E-2,-2.663161140E-3
2.023269161E0,-1.171790902E-2,6.018744037E-2,-5.326322280E-3
2.025252804E0,-1.438106969E-2,6.338323653E-2,-3.728425596E-3
2.027266964E0,-1.384843793E-2,6.178534031E-2,-3.728425596E-3
2.029281124E0,-1.438106969E-2,6.125270575E-2,-2.130528912E-3
2.031295284E0,-1.438106969E-2,6.338323653E-2,0.000000000E0
2.033278927E0,-1.491370238E-2,6.125270575E-2,-1.065264456E-3
2.035262570E0,-1.491370238E-2,5.805691332E-2,-5.326322280E-4
2.037276730E0,-1.491370238E-2,5.645901710E-2,5.326322280E-4
2.039260372E0,-1.704423130E-2,5.912217870E-2,5.326322280E-4
2.041305050E0,-1.757686399E-2,5.699164793E-2,2.130528912E-3
2.043258175E0,-1.757686399E-2,5.219795927E-2,1.597896684E-3
2.045241818E0,-1.544633508E-2,5.166532472E-2,2.130528912E-3
2.047255978E0,-1.704423130E-2,5.060006306E-2,7.456851192E-3
2.049239620E0,-1.810949668E-2,4.953479767E-2,4.793690052E-3
2.051223263E0,-1.651159860E-2,4.953479767E-2,6.391586736E-3
2.053206906E0,-1.491370238E-2,4.633900523E-2,8.522115648E-3
2.055190548E0,-1.704423130E-2,4.367584363E-2,9.587380104E-3
2.057204708E0,-1.384843793E-2,4.314320907E-2,1.012001187E-2
2.059188351E0,-1.597896591E-2,4.314320907E-2,9.054748341E-3
2.061202511E0,-1.384843793E-2,4.101268202E-2,1.171790902E-2
2.063155636E0,-1.331580617E-2,3.888215125E-2,1.384843793E-2
2.065139279E0,-1.012001187E-2,3.515372798E-2,1.438106969E-2
2.067153439E0,-1.118527725E-2,3.462109342E-2,1.438106969E-2
2.069137081E0,-7.989482954E-3,3.089267015E-2,1.864212751E-2
2.071120724E0,-7.456851192E-3,3.089267015E-2,1.864212751E-2
2.073104367E0,-6.924218964E-3,3.089267015E-2,1.864212751E-2
2.075118527E0,-5.326322280E-3,3.036003746E-2,1.864212751E-2
2.077102169E0,-6.391586736E-3,2.929477207E-2,2.077265643E-2
2.079116329E0,-4.793690052E-3,2.982740477E-2,2.130528912E-2
2.081130490E0,-4.793690052E-3,3.142530099E-2,1.757686399E-2
2.083083615E0,-1.597896684E-3,3.302319720E-2,1.970739290E-2
2.085097775E0,-3.195793368E-3,3.195793182E-2,1.970739290E-2
2.087081417E0,-4.261057824E-3,3.621899337E-2,2.077265643E-2
2.089095577E0,-2.130528912E-3,3.462109342E-2,2.024002373E-2
2.091109738E0,-2.130528912E-3,3.302319720E-2,2.130528912E-2
2.093093380E0,-3.728425596E-3,3.781688958E-2,1.917476021E-2
2.095077023E0,-3.728425596E-3,3.994741663E-2,2.130528912E-2
2.097091183E0,-2.663161140E-3,3.675162420E-2,1.810949668E-2
2.099074826E0,-5.326322280E-4,3.781688958E-2,1.810949668E-2
2.101119503E0,-4.261057824E-3,4.048004746E-2,1.544633508E-2
2.103072628E0,-3.195793368E-3,3.941478580E-2,1.651159860E-2
2.105086788E0,-3.728425596E-3,4.314320907E-2,1.225054078E-2
2.107100949E0,-4.793690052E-3,4.101268202E-2,1.331580617E-2
2.109084591E0,-7.456851192E-3,4.261057824E-2,1.225054078E-2
2.111068234E0,-9.587380104E-3,4.261057824E-2,1.331580617E-2
2.113082394E0,-8.522115648E-3,4.474110901E-2,9.054748341E-3
2.115096554E0,-9.054748341E-3,4.580637068E-2,1.278317347E-2
2.117080197E0,-9.054748341E-3,4.740426689E-2,5.326322280E-3
2.119094357E0,-1.171790902E-2,4.633900523E-2,5.858954508E-3
2.121108517E0,-1.331580617E-2,4.846953228E-2,5.326322280E-3
2.123061642E0,-9.054748341E-3,4.633900523E-2,3.195793368E-3
2.125075802E0,-1.065264456E-2,4.900216311E-2,5.326322280E-3
2.127059445E0,-9.054748341E-3,4.740426689E-2,3.195793368E-3
2.129073605E0,-1.012001187E-2,4.740426689E-2,5.326322280E-4
2.131057247E0,-9.054748341E-3,4.633900523E-2,-1.065264456E-3
2.133040890E0,-1.331580617E-2,4.580637068E-2,-1.065264456E-3
2.135055050E0,-8.522115648E-3,4.474110901E-2,-2.130528912E-3
2.137038693E0,-1.171790902E-2,4.314320907E-2,-4.261057824E-3
2.139022335E0,-1.278317347E-2,4.207794741E-2,-3.195793368E-3
2.141036495E0,-1.065264456E-2,4.048004746E-2,-4.261057824E-3
2.142989620E0,-9.054748341E-3,3.728425503E-2,-4.261057824E-3
2.145003781E0,-9.587380104E-3,3.249056637E-2,-4.793690052E-3
2.146987423E0,-8.522115648E-3,3.302319720E-2,-5.326322280E-3
2.149001583E0,-7.989482954E-3,3.195793182E-2,-2.663161140E-3
2.150985226E0,-6.924218964E-3,2.716424316E-2,-3.195793368E-3
2.152999386E0,-2.663161140E-3,2.503371425E-2,-5.858954508E-3
2.154983029E0,-4.793690052E-3,2.290318534E-2,-5.326322280E-4
2.156997189E0,-2.130528912E-3,2.183792181E-2,5.326322280E-4
2.159011349E0,-2.663161140E-3,1.651159860E-2,-5.326322280E-4
2.161025509E0,-3.728425596E-3,1.544633508E-2,3.728425596E-3
2.163009152E0,-4.261057824E-3,1.278317347E-2,1.597896684E-3
2.164992794E0,-3.728425596E-3,1.384843793E-2,3.728425596E-3
2.167006954E0,-4.261057824E-3,7.456851192E-3,5.326322280E-3
2.169021115E0,-2.663161140E-3,9.054748341E-3,5.858954508E-3
2.171004757E0,-5.326322280E-3,5.858954508E-3,9.054748341E-3
2.173018917E0,-4.261057824E-3,3.728425596E-3,1.065264456E-2
2.175002560E0,-4.261057824E-3,3.728425596E-3,1.065264456E-2
2.176986202E0,-7.456851192E-3,1.597896684E-3,9.054748341E-3
2.179000363E0,-4.261057824E-3,-5.326322280E-4,9.054748341E-3
2.181014523E0,-2.663161140E-3,-5.326322280E-4,1.384843793E-2
2.182998165E0,0.000000000E0,-5.326322280E-4,1.118527725E-2
2.184981808E0,5.326322280E-4,-5.326322280E-4,1.384843793E-2
2.186965451E0,1.065264456E-3,-2.130528912E-3,1.438106969E-2
2.188979611E0,1.065264456E-3,4.261057824E-3,1.491370238E-2
2.190963253E0,2.130528912E-3,2.130528912E-3,1.491370238E-2
2.192946896E0,4.261057824E-3,3.728425596E-3,1.651159860E-2
2.194961056E0,3.728425596E-3,7.456851192E-3,1.810949668E-2
2.196944699E0,4.793690052E-3,1.171790902E-2,1.491370238E-2
2.198928341E0,2.663161140E-3,1.225054078E-2,1.704423130E-2
2.200942501E0,2.130528912E-3,1.491370238E-2,1.597896591E-2
2.202926144E0,2.663161140E-3,2.183792181E-2,1.651159860E-2
2.204940304E0,3.195793368E-3,2.343581803E-2,1.544633508E-2
2.206923947E0,-1.065264456E-3,2.343581803E-2,1.331580617E-2
2.208938107E0,-2.663161140E-3,2.982740477E-2,1.065264456E-2
2.210891232E0,-3.195793368E-3,2.982740477E-2,9.587380104E-3
2.212905392E0,-4.793690052E-3,3.302319720E-2,9.054748341E-3
2.214919552E0,-2.663161140E-3,3.675162420E-2,9.587380104E-3
2.216903195E0,-4.261057824E-3,3.781688958E-2,8.522115648E-3
2.218917355E0,-6.924218964E-3,3.568635881E-2,5.326322280E-3
2.220931515E0,-9.587380104E-3,3.728425503E-2,2.663161140E-3
2.222884640E0,-1.065264456E-2,3.675162420E-2,1.065264456E-3
2.224898800E0,-1.225054078E-2,3.941478580E-2,0.000000000E0
2.226882443E0,-1.544633508E-2,3.888215125E-2,-3.728425596E-3
2.228896603E0,-1.544633508E-2,4.101268202E-2,-2.130528912E-3
2.230880245E0,-1.810949668E-2,4.261057824E-2,-3.728425596E-3
2.232894406E0,-1.544633508E-2,4.207794741E-2,-5.858954508E-3
2.234878048E0,-1.704423130E-2,3.888215125E-2,-5.326322280E-3
2.236861691E0,-1.597896591E-2,3.994741663E-2,-7.989482954E-3
2.238875851E0,-1.810949668E-2,3.994741663E-2,-7.989482954E-3
2.240890011E0,-1.544633508E-2,3.941478580E-2,-9.587380104E-3
2.242873654E0,-1.544633508E-2,3.568635881E-2,-8.522115648E-3
2.244857296E0,-1.810949668E-2,3.621899337E-2,-9.587380104E-3
2.246840939E0,-1.651159860E-2,3.355583176E-2,-1.012001187E-2
2.248855099E0,-1.651159860E-2,3.621899337E-2,-8.522115648E-3
2.250838742E0,-1.384843793E-2,3.142530099E-2,-9.587380104E-3
2.252852902E0,-1.278317347E-2,3.249056637E-2,-8.522115648E-3
2.254836544E0,-1.331580617E-2,3.089267015E-2,-7.989482954E-3
2.256820187E0,-1.171790902E-2,3.302319720E-2,-1.012001187E-2
2.258834347E0,-1.225054078E-2,3.249056637E-2,-6.924218964E-3
2.260848507E0,-1.171790902E-2,3.249056637E-2,-6.924218964E-3
2.262832150E0,-1.012001187E-2,3.036003746E-2,-5.326322280E-3
2.264815792E0,-7.989482954E-3,3.036003746E-2,-2.663161140E-3
2.266799435E0,-9.054748341E-3,2.982740477E-2,-1.597896684E-3
2.268813595E0,-7.989482954E-3,2.982740477E-2,-5.326322280E-4
2.270797238E0,-1.278317347E-2,3.089267015E-2,-1.065264456E-3
2.272780880E0,-9.587380104E-3,3.089267015E-2,-1.065264456E-3
2.274764523E0,-1.065264456E-2,3.568635881E-2,1.597896684E-3
2.276778683E0,-1.118527725E-2,3.408846259E-2,1.597896684E-3
2.278762326E0,-1.065264456E-2,3.728425503E-2,5.326322280E-4
2.280807003E0,-1.331580617E-2,3.462109342E-2,3.728425596E-3
2.282760128E0,-1.065264456E-2,3.621899337E-2,5.858954508E-3
2.284743771E0,-1.331580617E-2,3.834952042E-2,2.663161140E-3
2.286757931E0,-1.065264456E-2,3.834952042E-2,3.728425596E-3
2.288741574E0,-1.118527725E-2,4.314320907E-2,6.391586736E-3
2.290725216E0,-1.331580617E-2,4.101268202E-2,4.793690052E-3
2.292739376E0,-1.331580617E-2,4.527373984E-2,4.261057824E-3
2.294723019E0,-1.225054078E-2,4.527373984E-2,8.522115648E-3
2.296737179E0,-1.171790902E-2,4.154531285E-2,6.391586736E-3
2.298751339E0,-1.171790902E-2,4.420847446E-2,7.989482954E-3
2.300765499E0,-1.491370238E-2,4.527373984E-2,4.793690052E-3
2.302749142E0,-1.384843793E-2,4.527373984E-2,5.858954508E-3
2.304732784E0,-1.331580617E-2,4.687163606E-2,6.391586736E-3
2.306746945E0,-1.438106969E-2,4.740426689E-2,6.924218964E-3
2.308761105E0,-1.544633508E-2,4.527373984E-2,3.728425596E-3
2.310775265E0,-1.438106969E-2,4.740426689E-2,6.924218964E-3
2.312758908E0,-1.651159860E-2,4.367584363E-2,4.261057824E-3
2.314742550E0,-1.544633508E-2,4.580637068E-2,5.858954508E-3
2.316756710E0,-1.544633508E-2,4.580637068E-2,5.326322280E-3
2.318740353E0,-1.651159860E-2,4.580637068E-2,4.261057824E-3
2.320785031E0,-1.864212751E-2,4.687163606E-2,1.065264456E-3
2.322738156E0,-1.917476021E-2,4.740426689E-2,4.793690052E-3
2.324721798E0,-1.651159860E-2,4.793690145E-2,-5.326322280E-4
2.326735958E0,-1.757686399E-2,4.687163606E-2,-2.130528912E-3
2.328719601E0,-1.864212751E-2,4.740426689E-2,-1.597896684E-3
2.330703243E0,-1.864212751E-2,4.740426689E-2,-4.261057824E-3
2.332686886E0,-1.757686399E-2,4.793690145E-2,-3.195793368E-3
2.334670529E0,-1.864212751E-2,4.740426689E-2,-1.065264456E-3
2.336684689E0,-1.864212751E-2,4.900216311E-2,-4.793690052E-3
2.338668331E0,-1.597896591E-2,5.273059011E-2,-4.793690052E-3
2.340713009E0,-1.597896591E-2,5.113269389E-2,-2.663161140E-3
2.342666134E0,-1.704423130E-2,5.432848632E-2,-4.261057824E-3
2.344680294E0,-1.810949668E-2,5.326322466E-2,-3.728425596E-3
2.346663937E0,-1.864212751E-2,5.539375171E-2,-4.793690052E-3
2.348647579E0,-2.130528912E-2,5.486112088E-2,-6.391586736E-3
2.350631222E0,-2.077265643E-2,5.486112088E-2,-5.326322280E-3
2.352645382E0,-1.810949668E-2,5.379585549E-2,-5.326322280E-3
2.354629025E0,-2.077265643E-2,5.166532472E-2,-3.195793368E-3
2.356612667E0,-1.970739290E-2,4.953479767E-2,-3.195793368E-3
2.358626827E0,-2.077265643E-2,4.900216311E-2,-3.728425596E-3
2.360640988E0,-2.024002373E-2,4.367584363E-2,-2.663161140E-3
2.362624630E0,-1.864212751E-2,4.314320907E-2,-2.663161140E-3
2.364608273E0,-1.864212751E-2,4.207794741E-2,-3.195793368E-3
2.366591915E0,-1.651159860E-2,3.994741663E-2,-4.793690052E-3
2.368606076E0,-1.651159860E-2,3.888215125E-2,-3.195793368E-3
2.370589718E0,-1.491370238E-2,3.834952042E-2,-4.261057824E-3
2.372603878E0,-1.544633508E-2,3.621899337E-2,-3.195793368E-3
2.374587521E0,-1.597896591E-2,3.249056637E-2,-4.261057824E-3
2.376571163E0,-1.491370238E-2,3.408846259E-2,-1.597896684E-3
2.378585324E0,-1.491370238E-2,3.515372798E-2,-4.261057824E-3
2.380599484E0,-1.278317347E-2,3.195793182E-2,-5.858954508E-3
2.382583126E0,-1.544633508E-2,3.515372798E-2,-5.326322280E-3
2.384566769E0,-1.491370238E-2,3.355583176E-2,-4.793690052E-3
2.386550411E0,-1.704423130E-2,3.408846259E-2,-4.793690052E-3
2.388564572E0,-1.651159860E-2,3.195793182E-2,-1.597896684E-3
2.390548214E0,-1.704423130E-2,3.142530099E-2,-1.597896684E-3
2.392531857E0,-1.757686399E-2,3.355583176E-2,-2.663161140E-3
2.394515499E0,-1.384843793E-2,2.982740477E-2,-2.663161140E-3
2.396529659E0,-1.278317347E-2,2.929477207E-2,-4.261057824E-3
2.398513302E0,-1.278317347E-2,2.769687586E-2,-2.663161140E-3
2.400527462E0,-1.065264456E-2,2.716424316E-2,-1.065264456E-3
2.402480587E0,-1.438106969E-2,2.929477207E-2,0.000000000E0
2.404464230E0,-1.171790902E-2,2.876213938E-2,-1.597896684E-3
2.406478390E0,-1.012001187E-2,2.769687586E-2,-1.597896684E-3
2.408462033E0,-9.587380104E-3,2.556634694E-2,-5.326322280E-4
2.410445675E0,-1.012001187E-2,2.716424316E-2,1.065264456E-3
2.412429318E0,-9.587380104E-3,2.876213938E-2,-5.326322280E-4
2.414412960E0,-9.054748341E-3,2.982740477E-2,-1.065264456E-3
2.416427120E0,-7.989482954E-3,3.142530099E-2,-5.326322280E-4
2.418410763E0,-8.522115648E-3,3.142530099E-2,-5.326322280E-4
2.420455441E0,-6.391586736E-3,2.982740477E-2,5.326322280E-4
2.422408566E0,-6.924218964E-3,3.355583176E-2,-5.326322280E-4
2.424392208E0,-6.391586736E-3,3.621899337E-2,0.000000000E0
2.426406368E0,-7.456851192E-3,3.728425503E-2,-5.326322280E-4
2.428390011E0,-7.989482954E-3,3.568635881E-2,-5.326322280E-4
2.430373654E0,-5.326322280E-3,3.781688958E-2,-2.663161140E-3
2.432357296E0,-5.326322280E-3,3.515372798E-2,5.326322280E-4
2.434340939E0,-7.456851192E-3,3.781688958E-2,-2.130528912E-3
2.436324581E0,-5.326322280E-3,3.888215125E-2,-2.663161140E-3
2.438338742E0,-5.326322280E-3,3.462109342E-2,1.065264456E-3
2.440352902E0,-6.391586736E-3,3.195793182E-2,-5.326322280E-4
2.442336544E0,-5.858954508E-3,3.515372798E-2,-1.597896684E-3
2.444350704E0,-7.456851192E-3,3.462109342E-2,-1.065264456E-3
2.446334347E0,-4.793690052E-3,3.089267015E-2,-2.130528912E-3
2.448348507E0,-4.793690052E-3,2.876213938E-2,-4.261057824E-3
2.450332150E0,-8.522115648E-3,2.822950855E-2,-5.326322280E-3
2.452315792E0,-5.858954508E-3,2.822950855E-2,-1.597896684E-3
2.454329952E0,-8.522115648E-3,2.343581803E-2,0.000000000E0
2.456313595E0,-6.391586736E-3,2.077265643E-2,-2.663161140E-3
2.458327755E0,-8.522115648E-3,2.343581803E-2,-2.130528912E-3
2.460341915E0,-6.391586736E-3,2.237055451E-2,-3.195793368E-3
2.462325558E0,-6.391586736E-3,2.077265643E-2,-2.663161140E-3
2.464339718E0,-3.728425596E-3,1.704423130E-2,-3.728425596E-3
2.466323361E0,-4.261057824E-3,1.544633508E-2,-4.261057824E-3
2.468307003E0,-4.261057824E-3,9.587380104E-3,-1.065264456E-3
2.470290646E0,-4.261057824E-3,1.065264456E-2,-3.728425596E-3
2.472304806E0,5.326322280E-4,5.858954508E-3,-4.793690052E-3
2.474288449E0,1.065264456E-3,3.195793368E-3,-1.597896684E-3
2.476272091E0,1.065264456E-3,5.326322280E-4,-4.793690052E-3
2.478286251E0,-1.065264456E-3,1.065264456E-3,-5.326322280E-3
2.480300411E0,1.597896684E-3,-3.728425596E-3,-6.924218964E-3
2.482284054E0,2.130528912E-3,-7.989482954E-3,-2.663161140E-3
2.484267697E0,1.065264456E-3,-5.326322280E-3,-2.130528912E-3
2.486251339E0,5.326322280E-4,-5.326322280E-3,-7.456851192E-3
2.488265499E0,1.597896684E-3,-1.118527725E-2,-3.195793368E-3
2.490249142E0,3.195793368E-3,-9.054748341E-3,-3.728425596E-3
2.492232784E0,6.391586736E-3,-1.065264456E-2,0.000000000E0
2.494246945E0,2.663161140E-3,-1.171790902E-2,-3.195793368E-3
2.496230587E0,2.130528912E-3,-1.012001187E-2,-1.065264456E-3
2.498244747E0,1.065264456E-3,-1.118527725E-2,5.326322280E-4
2.500258908E0,3.728425596E-3,-1.118527725E-2,-5.326322280E-4
2.502242550E0,5.326322280E-3,-1.012001187E-2,-1.065264456E-3
2.504256710E0,3.728425596E-3,-1.118527725E-2,2.130528912E-3
2.506240353E0,4.261057824E-3,-9.587380104E-3,2.130528912E-3
2.508254513E0,3.728425596E-3,-4.793690052E-3,2.663161140E-3
2.510238156E0,3.728425596E-3,-4.793690052E-3,3.728425596E-3
2.512252316E0,3.195793368E-3,-1.065264456E-3,3.195793368E-3
2.514235958E0,4.261057824E-3,-1.597896684E-3,2.130528912E-3
2.516250118E0,4.793690052E-3,-5.326322280E-4,6.391586736E-3
2.518233761E0,2.130528912E-3,2.130528912E-3,2.130528912E-3
2.520247921E0,5.326322280E-4,3.195793368E-3,3.728425596E-3
2.522231564E0,1.597896684E-3,4.793690052E-3,2.130528912E-3
2.524215206E0,2.663161140E-3,7.989482954E-3,4.793690052E-3
2.526229367E0,1.065264456E-3,7.456851192E-3,4.261057824E-3
2.528213009E0,1.065264456E-3,9.054748341E-3,4.261057824E-3
2.530196652E0,-1.065264456E-3,8.522115648E-3,5.326322280E-4
2.532210812E0,-5.326322280E-4,9.587380104E-3,3.728425596E-3
2.534194454E0,-1.597896684E-3,1.171790902E-2,-5.326322280E-4
2.536208615E0,-5.326322280E-4,1.225054078E-2,3.728425596E-3
2.538222775E0,-3.195793368E-3,1.331580617E-2,2.130528912E-3
2.540236935E0,-2.663161140E-3,1.278317347E-2,0.000000000E0
2.542220577E0,-6.391586736E-3,1.225054078E-2,-1.597896684E-3
2.544204220E0,-5.326322280E-3,1.651159860E-2,-1.065264456E-3
2.546187863E0,-7.989482954E-3,1.491370238E-2,-2.130528912E-3
2.548202023E0,-9.054748341E-3,1.597896591E-2,-2.130528912E-3
2.550185665E0,-1.225054078E-2,1.597896591E-2,-2.130528912E-3
2.552169308E0,-1.012001187E-2,1.704423130E-2,-4.261057824E-3
2.554152951E0,-1.171790902E-2,1.544633508E-2,-4.261057824E-3
2.556167111E0,-9.054748341E-3,1.438106969E-2,-4.261057824E-3
2.558150753E0,-1.225054078E-2,1.704423130E-2,-4.793690052E-3
2.560195431E0,-1.331580617E-2,1.491370238E-2,-1.065264456E-3
2.562148556E0,-1.225054078E-2,1.810949668E-2,-3.728425596E-3
2.564132199E0,-9.587380104E-3,1.278317347E-2,-1.597896684E-3
2.566146359E0,-1.278317347E-2,1.278317347E-2,-1.065264456E-3
2.568130001E0,-1.438106969E-2,9.054748341E-3,-1.065264456E-3
2.570113644E0,-1.331580617E-2,9.054748341E-3,-1.065264456E-3
2.572097286E0,-9.587380104E-3,5.858954508E-3,-2.130528912E-3
2.574080929E0,-1.278317347E-2,7.456851192E-3,3.195793368E-3
2.576095089E0,-1.331580617E-2,6.924218964E-3,4.261057824E-3
2.578078732E0,-1.118527725E-2,7.456851192E-3,1.065264456E-3
2.580123409E0,-9.054748341E-3,7.456851192E-3,1.597896684E-3
2.582076534E0,-1.065264456E-2,6.391586736E-3,2.663161140E-3
2.584090695E0,-7.989482954E-3,1.065264456E-2,3.728425596E-3
2.586104855E0,-8.522115648E-3,1.118527725E-2,3.728425596E-3
2.588057980E0,-9.587380104E-3,1.065264456E-2,3.728425596E-3
2.590041622E0,-1.065264456E-2,1.278317347E-2,4.793690052E-3
2.592055783E0,-9.054748341E-3,1.171790902E-2,1.597896684E-3
2.594039425E0,-8.522115648E-3,1.384843793E-2,1.065264456E-3
2.596023068E0,-5.858954508E-3,1.651159860E-2,3.728425596E-3
2.598037228E0,-6.924218964E-3,1.491370238E-2,3.728425596E-3
2.600051388E0,-9.587380104E-3,1.597896591E-2,2.663161140E-3
2.602035031E0,-8.522115648E-3,1.864212751E-2,2.663161140E-3
2.604018673E0,-6.924218964E-3,1.651159860E-2,2.130528912E-3
2.606002316E0,-9.054748341E-3,1.970739290E-2,5.326322280E-4
2.608046993E0,-9.587380104E-3,2.024002373E-2,1.065264456E-3
2.610000118E0,-8.522115648E-3,2.237055451E-2,0.000000000E0
2.611983761E0,-1.171790902E-2,2.077265643E-2,0.000000000E0
2.613967404E0,-1.012001187E-2,1.970739290E-2,0.000000000E0
2.615951046E0,-1.438106969E-2,1.970739290E-2,-2.130528912E-3
2.617965206E0,-1.384843793E-2,1.757686399E-2,-1.065264456E-3
2.619979367E0,-1.438106969E-2,2.183792181E-2,-1.065264456E-3
2.621963009E0,-1.544633508E-2,1.970739290E-2,-1.597896684E-3
2.623946652E0,-1.331580617E-2,1.864212751E-2,-3.728425596E-3
2.625930294E0,-1.491370238E-2,1.810949668E-2,-3.728425596E-3
2.627944454E0,-1.544633508E-2,1.544633508E-2,-4.793690052E-3
2.629928097E0,-1.810949668E-2,1.651159860E-2,-2.130528912E-3
2.631911740E0,-1.491370238E-2,1.491370238E-2,-3.195793368E-3
2.633895382E0,-1.651159860E-2,1.651159860E-2,-2.130528912E-3
2.635909542E0,-1.491370238E-2,1.171790902E-2,-5.858954508E-3
2.637893185E0,-1.757686399E-2,1.118527725E-2,-3.728425596E-3
2.639907345E0,-1.704423130E-2,1.331580617E-2,-2.130528912E-3
2.641860470E0,-1.810949668E-2,1.438106969E-2,-4.261057824E-3
2.643844113E0,-1.864212751E-2,9.054748341E-3,-4.793690052E-3
2.645858273E0,-1.864212751E-2,1.278317347E-2,-5.326322280E-3
2.647841915E0,-1.810949668E-2,1.171790902E-2,-5.326322280E-3
2.649825558E0,-1.917476021E-2,1.118527725E-2,-3.728425596E-3
2.651809201E0,-1.651159860E-2,1.065264456E-2,-4.261057824E-3
2.653792843E0,-1.757686399E-2,1.278317347E-2,-2.130528912E-3
2.655807003E0,-1.917476021E-2,7.989482954E-3,-5.858954508E-3
2.657790646E0,-1.704423130E-2,1.012001187E-2,-3.728425596E-3
2.659804806E0,-1.917476021E-2,7.989482954E-3,-1.597896684E-3
2.661757931E0,-1.704423130E-2,8.522115648E-3,-3.195793368E-3
2.663772091E0,-1.864212751E-2,6.924218964E-3,-3.728425596E-3
2.665786251E0,-1.704423130E-2,5.858954508E-3,-5.858954508E-3
2.667769894E0,-1.597896591E-2,5.326322280E-3,-4.793690052E-3
2.669753536E0,-1.491370238E-2,6.924218964E-3,-2.663161140E-3
2.671737179E0,-1.704423130E-2,4.793690052E-3,-3.728425596E-3
2.673751339E0,-1.757686399E-2,9.054748341E-3,-6.391586736E-3
2.675734982E0,-1.651159860E-2,6.924218964E-3,-5.326322280E-3
2.677749142E0,-1.438106969E-2,6.391586736E-3,-4.261057824E-3
2.679763302E0,-1.544633508E-2,6.391586736E-3,-4.261057824E-3
2.681746945E0,-1.757686399E-2,8.522115648E-3,-5.858954508E-3
2.683761105E0,-1.704423130E-2,2.663161140E-3,-3.728425596E-3
2.685744747E0,-1.864212751E-2,7.989482954E-3,-7.989482954E-3
2.687728390E0,-1.704423130E-2,7.989482954E-3,-6.391586736E-3
2.689742550E0,-1.970739290E-2,4.793690052E-3,-7.989482954E-3
2.691726193E0,-2.077265643E-2,3.195793368E-3,-6.391586736E-3
2.693709835E0,-1.810949668E-2,2.663161140E-3,-6.924218964E-3
2.695723995E0,-1.970739290E-2,4.261057824E-3,-7.456851192E-3
2.697707638E0,-2.024002373E-2,-5.326322280E-4,-5.326322280E-3
2.699752316E0,-2.237055451E-2,-1.597896684E-3,-5.858954508E-3
2.701705441E0,-2.077265643E-2,1.065264456E-3,-1.065264456E-3
2.703689083E0,-1.970739290E-2,-1.065264456E-3,-3.728425596E-3
2.705703243E0,-2.237055451E-2,-3.195793368E-3,-4.261057824E-3
2.707686886E0,-2.130528912E-2,-2.130528912E-3,-3.195793368E-3
2.709670529E0,-1.970739290E-2,-5.858954508E-3,-2.663161140E-3
2.711654171E0,-2.130528912E-2,-1.597896684E-3,-2.130528912E-3
2.713668331E0,-1.864212751E-2,-5.326322280E-4,-1.065264456E-3
2.715651974E0,-1.651159860E-2,-3.728425596E-3,-1.065264456E-3
2.717666134E0,-1.970739290E-2,-1.065264456E-3,-2.663161140E-3
2.719680294E0,-1.864212751E-2,-2.130528912E-3,-2.663161140E-3
2.721633419E0,-1.757686399E-2,2.130528912E-3,-1.597896684E-3
2.723647579E0,-1.544633508E-2,1.065264456E-3,-1.065264456E-3
2.725631222E0,-1.384843793E-2,1.065264456E-3,0.000000000E0
2.727645382E0,-1.438106969E-2,1.597896684E-3,-3.195793368E-3
2.729629025E0,-1.278317347E-2,5.326322280E-3,5.326322280E-4
2.731612667E0,-1.491370238E-2,4.261057824E-3,-5.326322280E-4
2.733626827E0,-1.171790902E-2,3.195793368E-3,5.326322280E-4
2.735610470E0,-1.012001187E-2,7.456851192E-3,5.326322280E-4
2.737594113E0,-9.587380104E-3,6.391586736E-3,-5.326322280E-4
2.739608273E0,-1.171790902E-2,7.456851192E-3,1.597896684E-3
2.741591915E0,-8.522115648E-3,1.012001187E-2,-2.130528912E-3
2.743606076E0,-9.054748341E-3,1.065264456E-2,1.597896684E-3
2.745589718E0,-1.065264456E-2,9.587380104E-3,1.065264456E-3
2.747573361E0,-9.587380104E-3,1.278317347E-2,5.326322280E-4
2.749557003E0,-9.054748341E-3,1.331580617E-2,1.597896684E-3
2.751571163E0,-7.989482954E-3,1.810949668E-2,3.195793368E-3
2.753554806E0,-9.054748341E-3,1.651159860E-2,1.065264456E-3
2.755538449E0,-6.924218964E-3,1.544633508E-2,2.130528912E-3
2.757552609E0,-6.924218964E-3,1.331580617E-2,0.000000000E0
2.759536251E0,-8.522115648E-3,1.438106969E-2,-3.195793368E-3
2.761519894E0,-6.391586736E-3,1.331580617E-2,2.130528912E-3
2.763503536E0,-5.326322280E-3,1.065264456E-2,1.597896684E-3
2.765517697E0,-4.793690052E-3,1.012001187E-2,-1.065264456E-3
2.767531857E0,-3.195793368E-3,5.858954508E-3,-2.130528912E-3
2.769515499E0,-2.663161140E-3,6.391586736E-3,2.130528912E-3
2.771529659E0,-2.663161140E-3,5.326322280E-4,3.195793368E-3
2.773513302E0,-2.130528912E-3,-3.728425596E-3,1.065264456E-3
2.775496945E0,-5.326322280E-4,-4.793690052E-3,-5.326322280E-4
2.777511105E0,-2.130528912E-3,-1.171790902E-2,1.597896684E-3
2.779525265E0,-2.663161140E-3,-1.225054078E-2,1.065264456E-3
2.781508908E0,0.000000000E0,-1.597896591E-2,5.326322280E-4
2.783492550E0,-1.597896684E-3,-1.757686399E-2,2.663161140E-3
2.785476193E0,-5.326322280E-4,-2.024002373E-2,2.663161140E-3
2.787490353E0,-3.195793368E-3,-2.343581803E-2,2.130528912E-3
2.789473995E0,1.597896684E-3,-2.822950855E-2,4.261057824E-3
2.791457638E0,-2.130528912E-3,-2.982740477E-2,3.195793368E-3
2.793441281E0,1.065264456E-3,-2.769687586E-2,1.065264456E-3
2.795455441E0,5.326322280E-4,-3.249056637E-2,3.728425596E-3
2.797439083E0,1.597896684E-3,-3.462109342E-2,3.728425596E-3
2.799483761E0,1.597896684E-3,-3.568635881E-2,5.326322280E-3
2.801436886E0,1.597896684E-3,-3.568635881E-2,5.858954508E-3
2.803420529E0,-5.326322280E-4,-3.302319720E-2,5.326322280E-3
2.805434689E0,5.326322280E-4,-2.982740477E-2,6.924218964E-3
2.807418331E0,1.597896684E-3,-3.408846259E-2,4.793690052E-3
2.809401974E0,1.065264456E-3,-3.089267015E-2,2.663161140E-3
2.811385617E0,3.195793368E-3,-2.929477207E-2,6.391586736E-3
2.813369259E0,0.000000000E0,-2.609897964E-2,5.858954508E-3
2.815383419E0,2.130528912E-3,-2.290318534E-2,6.924218964E-3
2.817367062E0,2.663161140E-3,-2.290318534E-2,7.456851192E-3
2.819411740E0,3.195793368E-3,-1.704423130E-2,5.858954508E-3
2.821364865E0,5.326322280E-4,-1.917476021E-2,5.858954508E-3
2.823379025E0,2.663161140E-3,-1.331580617E-2,7.456851192E-3
2.825393185E0,-1.065264456E-3,-9.587380104E-3,5.858954508E-3
2.827376827E0,5.326322280E-4,-9.587380104E-3,6.924218964E-3
2.829360470E0,-1.065264456E-3,-7.456851192E-3,5.326322280E-3
2.831374630E0,0.000000000E0,-3.195793368E-3,6.391586736E-3
2.833388790E0,-4.261057824E-3,-1.065264456E-3,5.326322280E-3
2.835341915E0,-2.130528912E-3,3.195793368E-3,5.858954508E-3
2.837356076E0,-1.065264456E-3,7.989482954E-3,1.065264456E-3
2.839370236E0,-3.728425596E-3,1.065264456E-2,2.663161140E-3
2.841323361E0,-5.858954508E-3,1.597896591E-2,0.000000000E0
2.843307003E0,-5.326322280E-3,1.864212751E-2,4.261057824E-3
2.845290646E0,-4.261057824E-3,2.130528912E-2,5.326322280E-4
2.847304806E0,-3.728425596E-3,2.556634694E-2,-5.326322280E-4
2.849288449E0,-5.858954508E-3,2.822950855E-2,-3.195793368E-3
2.851302609E0,-5.326322280E-3,3.142530099E-2,-6.391586736E-3
2.853316769E0,-4.793690052E-3,3.355583176E-2,-1.065264456E-3
2.855300411E0,-7.456851192E-3,3.462109342E-2,-4.793690052E-3
2.857314572E0,-6.391586736E-3,3.675162420E-2,-4.793690052E-3
2.859328732E0,-7.456851192E-3,3.941478580E-2,-7.989482954E-3
2.861281857E0,-6.924218964E-3,3.888215125E-2,-9.587380104E-3
2.863296017E0,-9.054748341E-3,4.154531285E-2,-7.989482954E-3
2.865279659E0,-1.331580617E-2,4.154531285E-2,-1.012001187E-2
2.867293820E0,-1.118527725E-2,4.048004746E-2,-9.587380104E-3
2.869277462E0,-1.171790902E-2,4.154531285E-2,-1.012001187E-2
2.871291622E0,-1.438106969E-2,4.101268202E-2,-1.012001187E-2
2.873275265E0,-1.597896591E-2,3.994741663E-2,-1.012001187E-2
2.875258908E0,-1.651159860E-2,3.888215125E-2,-1.012001187E-2
2.877273068E0,-1.970739290E-2,3.568635881E-2,-1.118527725E-2
2.879287228E0,-1.810949668E-2,3.888215125E-2,-1.012001187E-2
2.881270870E0,-2.130528912E-2,3.568635881E-2,-1.225054078E-2
2.883254513E0,-2.077265643E-2,3.408846259E-2,-7.456851192E-3
2.885238156E0,-2.077265643E-2,3.036003746E-2,-1.065264456E-2
2.887252316E0,-2.290318534E-2,2.982740477E-2,-9.054748341E-3
2.889235958E0,-2.130528912E-2,2.503371425E-2,-6.924218964E-3
2.891219601E0,-2.503371425E-2,2.503371425E-2,-4.261057824E-3
2.893233761E0,-2.237055451E-2,1.917476021E-2,-5.326322280E-3
2.895217404E0,-2.237055451E-2,1.757686399E-2,-3.728425596E-3
2.897231564E0,-2.130528912E-2,1.704423130E-2,-5.326322280E-4
2.899245724E0,-2.130528912E-2,1.438106969E-2,-5.326322280E-4
2.901198849E0,-1.810949668E-2,9.587380104E-3,3.195793368E-3
2.903182492E0,-1.917476021E-2,1.012001187E-2,2.663161140E-3
2.905166134E0,-2.077265643E-2,6.924218964E-3,3.728425596E-3
2.907180294E0,-1.704423130E-2,2.130528912E-3,3.728425596E-3
2.909163937E0,-1.384843793E-2,2.663161140E-3,5.326322280E-3
2.911147579E0,-1.597896591E-2,-2.663161140E-3,4.793690052E-3
2.913131222E0,-1.171790902E-2,-4.261057824E-3,7.456851192E-3
2.915145382E0,-1.118527725E-2,-3.728425596E-3,6.391586736E-3
2.917129025E0,-1.065264456E-2,-3.728425596E-3,8.522115648E-3
2.919143185E0,-1.118527725E-2,-6.391586736E-3,1.278317347E-2
2.921096310E0,-1.012001187E-2,-4.793690052E-3,9.054748341E-3
2.923079952E0,-8.522115648E-3,-6.391586736E-3,9.587380104E-3
2.925094113E0,-1.171790902E-2,-6.391586736E-3,1.171790902E-2
2.927077755E0,-6.391586736E-3,-6.391586736E-3,1.278317347E-2
2.929061398E0,-6.391586736E-3,-5.326322280E-3,1.118527725E-2
2.931045040E0,-8.522115648E-3,-6.391586736E-3,1.225054078E-2
2.933028683E0,-5.326322280E-3,-6.391586736E-3,1.438106969E-2
2.935042843E0,-6.924218964E-3,-5.326322280E-4,1.225054078E-2
2.937026486E0,-4.261057824E-3,-1.597896684E-3,1.225054078E-2
2.939040646E0,-4.793690052E-3,0.000000000E0,1.331580617E-2
2.940993771E0,-5.326322280E-4,6.391586736E-3,1.171790902E-2
2.942977413E0,-1.065264456E-3,9.587380104E-3,1.118527725E-2
2.944991574E0,-2.663161140E-3,1.278317347E-2,1.278317347E-2
2.946975216E0,-1.065264456E-3,1.544633508E-2,1.384843793E-2
2.948958859E0,-2.130528912E-3,2.237055451E-2,1.012001187E-2
2.950942501E0,-1.597896684E-3,2.290318534E-2,9.054748341E-3
2.952956661E0,-2.130528912E-3,2.609897964E-2,9.587380104E-3
2.954940304E0,-3.728425596E-3,2.982740477E-2,9.054748341E-3
2.956954464E0,-3.728425596E-3,3.036003746E-2,7.456851192E-3
2.958968624E0,-1.065264456E-3,3.355583176E-2,7.989482954E-3
2.960921749E0,-5.858954508E-3,3.781688958E-2,2.130528912E-3
2.962905392E0,-7.989482954E-3,3.621899337E-2,5.858954508E-3
2.964889034E0,-6.391586736E-3,3.834952042E-2,4.793690052E-3
2.966903195E0,-9.054748341E-3,3.888215125E-2,3.195793368E-3
2.968886837E0,-1.278317347E-2,4.101268202E-2,-1.065264456E-3
2.970900997E0,-1.065264456E-2,4.048004746E-2,5.326322280E-4
2.972915158E0,-1.384843793E-2,3.994741663E-2,-1.065264456E-3
2.974898800E0,-1.757686399E-2,3.994741663E-2,-3.195793368E-3
2.976912960E0,-1.597896591E-2,3.675162420E-2,-4.793690052E-3
2.978927120E0,-1.704423130E-2,3.621899337E-2,-8.522115648E-3
2.980910763E0,-1.864212751E-2,3.195793182E-2,-9.054748341E-3
2.982924923E0,-2.024002373E-2,3.142530099E-2,-1.012001187E-2
2.984908566E0,-2.024002373E-2,2.929477207E-2,-1.065264456E-2
2.986922726E0,-1.810949668E-2,2.609897964E-2,-1.118527725E-2
2.988906368E0,-2.077265643E-2,2.290318534E-2,-9.587380104E-3
2.990920529E0,-1.970739290E-2,2.396845073E-2,-1.171790902E-2
2.992904171E0,-1.757686399E-2,1.970739290E-2,-1.331580617E-2
2.994887814E0,-1.544633508E-2,1.704423130E-2,-1.384843793E-2
2.996871456E0,-1.864212751E-2,1.331580617E-2,-1.331580617E-2
2.998885617E0,-1.917476021E-2,6.924218964E-3,-1.438106969E-2
3.000869259E0,-1.810949668E-2,5.858954508E-3,-1.171790902E-2
3.002852902E0,-1.810949668E-2,-5.326322280E-4,-1.225054078E-2
3.004867062E0,-1.597896591E-2,-4.261057824E-3,-1.171790902E-2
3.006911740E0,-1.225054078E-2,-9.054748341E-3,-8.522115648E-3
3.008834347E0,-1.491370238E-2,-1.225054078E-2,-1.118527725E-2
3.010848507E0,-1.278317347E-2,-1.491370238E-2,-1.012001187E-2
3.012832150E0,-1.065264456E-2,-2.077265643E-2,-6.391586736E-3
3.014815792E0,-8.522115648E-3,-2.290318534E-2,-2.130528912E-3
3.016829952E0,-1.012001187E-2,-2.876213938E-2,-2.130528912E-3
3.018844113E0,-1.065264456E-2,-3.249056637E-2,-5.326322280E-4
3.020827755E0,-1.012001187E-2,-3.888215125E-2,1.065264456E-3
3.022811398E0,-7.989482954E-3,-4.101268202E-2,3.195793368E-3
3.024795040E0,-5.858954508E-3,-4.314320907E-2,5.326322280E-3
3.026809201E0,-6.924218964E-3,-4.953479767E-2,5.326322280E-3
3.028792843E0,-4.793690052E-3,-4.900216311E-2,8.522115648E-3
3.030776486E0,-4.793690052E-3,-5.166532472E-2,1.012001187E-2
3.032760128E0,-3.195793368E-3,-4.900216311E-2,1.384843793E-2
3.034774288E0,1.065264456E-3,-4.740426689E-2,1.225054078E-2
3.036757931E0,-1.597896684E-3,-4.687163606E-2,1.438106969E-2
3.038772091E0,1.597896684E-3,-4.314320907E-2,1.384843793E-2
3.040725216E0,2.130528912E-3,-3.834952042E-2,1.438106969E-2
3.042708859E0,1.065264456E-3,-3.195793182E-2,1.704423130E-2
3.044723019E0,1.597896684E-3,-2.876213938E-2,1.651159860E-2
3.046706661E0,2.663161140E-3,-2.077265643E-2,1.917476021E-2
3.048690304E0,0.000000000E0,-1.384843793E-2,1.384843793E-2
3.050673947E0,2.130528912E-3,-7.989482954E-3,1.438106969E-2
3.052657589E0,2.130528912E-3,5.326322280E-4,1.384843793E-2
3.054671749E0,-5.326322280E-4,4.793690052E-3,1.065264456E-2
3.056655392E0,-3.195793368E-3,1.278317347E-2,1.065264456E-2
3.058700070E0,-4.793690052E-3,1.597896591E-2,1.065264456E-2
3.060653195E0,-5.858954508E-3,2.077265643E-2,8.522115648E-3
3.062667355E0,-7.989482954E-3,2.450108156E-2,6.924218964E-3
3.064681515E0,-1.065264456E-2,2.769687586E-2,6.924218964E-3
3.066665158E0,-1.171790902E-2,2.876213938E-2,0.000000000E0
3.068648800E0,-1.544633508E-2,3.249056637E-2,3.195793368E-3
3.070662960E0,-1.597896591E-2,3.302319720E-2,-2.130528912E-3
3.072677120E0,-2.077265643E-2,3.355583176E-2,0.000000000E0
3.074660763E0,-2.130528912E-2,3.408846259E-2,-4.261057824E-3
3.076674923E0,-2.290318534E-2,3.355583176E-2,-4.793690052E-3
3.078689083E0,-2.343581803E-2,3.142530099E-2,-3.195793368E-3
3.080672726E0,-2.556634694E-2,3.036003746E-2,-3.728425596E-3
3.082686886E0,-2.450108156E-2,2.982740477E-2,-4.793690052E-3
3.084670529E0,-2.609897964E-2,2.609897964E-2,-5.326322280E-3
3.086654171E0,-2.450108156E-2,2.663161233E-2,-5.858954508E-3
3.088668331E0,-2.237055451E-2,2.556634694E-2,-5.326322280E-3
3.090651974E0,-2.609897964E-2,2.290318534E-2,-7.989482954E-3
3.092666134E0,-2.237055451E-2,1.651159860E-2,-9.054748341E-3
3.094680294E0,-2.237055451E-2,1.651159860E-2,-6.924218964E-3
3.096663937E0,-2.237055451E-2,1.171790902E-2,-6.391586736E-3
3.098708615E0,-1.970739290E-2,8.522115648E-3,-6.924218964E-3
3.100661740E0,-1.864212751E-2,5.326322280E-4,-6.391586736E-3
3.102645382E0,-1.970739290E-2,0.000000000E0,-9.054748341E-3
3.104659542E0,-2.077265643E-2,-7.456851192E-3,-7.989482954E-3
3.106643185E0,-2.077265643E-2,-1.065264456E-2,-6.924218964E-3
3.108626827E0,-1.651159860E-2,-1.384843793E-2,-4.793690052E-3
3.110640988E0,-1.491370238E-2,-1.917476021E-2,-1.065264456E-3
3.112655148E0,-1.438106969E-2,-2.237055451E-2,-5.326322280E-4
3.114638790E0,-1.118527725E-2,-2.503371425E-2,4.261057824E-3
3.116652951E0,-1.171790902E-2,-3.195793182E-2,4.793690052E-3
3.118667111E0,-9.587380104E-3,-3.249056637E-2,4.261057824E-3
3.120650753E0,-9.054748341E-3,-3.142530099E-2,5.326322280E-3
3.122664913E0,-9.054748341E-3,-3.195793182E-2,6.391586736E-3
3.124648556E0,-5.858954508E-3,-3.408846259E-2,9.054748341E-3
3.126632199E0,-9.054748341E-3,-3.675162420E-2,6.391586736E-3
3.128615841E0,-4.793690052E-3,-3.089267015E-2,7.989482954E-3
3.130599484E0,-6.391586736E-3,-3.249056637E-2,1.225054078E-2
3.132613644E0,-3.728425596E-3,-3.515372798E-2,1.065264456E-2
3.134597286E0,-4.793690052E-3,-3.089267015E-2,1.171790902E-2
3.136580929E0,0.000000000E0,-3.089267015E-2,1.118527725E-2
3.138595089E0,5.326322280E-4,-2.663161233E-2,1.012001187E-2
3.140578732E0,4.261057824E-3,-2.450108156E-2,7.456851192E-3
3.142592892E0,3.728425596E-3,-2.290318534E-2,1.278317347E-2
3.144576534E0,2.130528912E-3,-1.970739290E-2,1.225054078E-2
3.146590695E0,3.728425596E-3,-1.544633508E-2,1.118527725E-2
3.148574337E0,5.858954508E-3,-1.331580617E-2,8.522115648E-3
3.150588497E0,4.793690052E-3,-9.054748341E-3,9.587380104E-3
3.152572140E0,6.924218964E-3,-4.261057824E-3,6.924218964E-3
3.154586300E0,6.391586736E-3,1.065264456E-3,6.924218964E-3
3.156569943E0,3.195793368E-3,5.326322280E-3,5.326322280E-3
3.158584103E0,3.195793368E-3,6.924218964E-3,2.663161140E-3
3.160567745E0,3.195793368E-3,1.331580617E-2,4.793690052E-3
3.162551388E0,1.065264456E-3,1.651159860E-2,0.000000000E0
3.164565548E0,2.130528912E-3,2.024002373E-2,-4.261057824E-3
3.166579708E0,3.195793368E-3,2.503371425E-2,-4.793690052E-3
3.168563351E0,-1.597896684E-3,2.876213938E-2,-3.195793368E-3
3.170577511E0,-2.663161140E-3,3.195793182E-2,-4.261057824E-3
3.172561154E0,-1.065264456E-3,3.408846259E-2,-6.924218964E-3
3.174544796E0,-4.261057824E-3,3.515372798E-2,-6.391586736E-3
3.176558956E0,-4.261057824E-3,3.834952042E-2,-7.989482954E-3
3.178573117E0,-5.326322280E-3,3.941478580E-2,-1.065264456E-2
3.180556759E0,-9.054748341E-3,3.941478580E-2,-8.522115648E-3
3.182540402E0,-7.989482954E-3,3.728425503E-2,-9.587380104E-3
3.184524044E0,-1.012001187E-2,3.781688958E-2,-1.331580617E-2
3.186538204E0,-9.054748341E-3,3.675162420E-2,-1.331580617E-2
3.188521847E0,-9.054748341E-3,3.355583176E-2,-1.012001187E-2
3.190536007E0,-9.054748341E-3,3.568635881E-2,-1.012001187E-2
3.192519650E0,-1.012001187E-2,3.355583176E-2,-1.225054078E-2
3.194533810E0,-6.924218964E-3,3.089267015E-2,-9.587380104E-3
3.196547970E0,-1.012001187E-2,2.822950855E-2,-1.118527725E-2
3.198562130E0,-8.522115648E-3,2.663161233E-2,-8.522115648E-3
3.200545773E0,-7.456851192E-3,2.343581803E-2,-6.924218964E-3
3.202529415E0,-7.456851192E-3,2.077265643E-2,-8.522115648E-3
3.204513058E0,-7.989482954E-3,1.597896591E-2,-6.924218964E-3
3.206527218E0,-7.989482954E-3,1.438106969E-2,-6.924218964E-3
3.208510861E0,-3.728425596E-3,1.065264456E-2,-3.728425596E-3
3.210525021E0,-5.858954508E-3,4.793690052E-3,-2.130528912E-3
3.212508663E0,-5.326322280E-3,1.597896684E-3,-1.065264456E-3
3.214492306E0,-2.663161140E-3,-1.065264456E-3,4.261057824E-3
3.216506466E0,-3.728425596E-3,-6.391586736E-3,3.728425596E-3
3.218520626E0,-2.663161140E-3,-7.456851192E-3,9.054748341E-3
3.220504269E0,0.000000000E0,-1.331580617E-2,1.331580617E-2
3.222487911E0,2.663161140E-3,-1.384843793E-2,1.118527725E-2
3.224471554E0,5.326322280E-3,-1.438106969E-2,1.278317347E-2
3.226455197E0,1.597896684E-3,-1.704423130E-2,1.491370238E-2
3.228469357E0,6.391586736E-3,-2.024002373E-2,1.810949668E-2
3.230452999E0,5.326322280E-3,-2.130528912E-2,2.130528912E-2
3.232467159E0,6.391586736E-3,-2.396845073E-2,2.130528912E-2
3.234450802E0,7.456851192E-3,-2.183792181E-2,2.450108156E-2
3.236434445E0,1.012001187E-2,-2.237055451E-2,2.609897964E-2
3.238479122E0,7.989482954E-3,-2.290318534E-2,2.556634694E-2
3.240432247E0,1.171790902E-2,-2.343581803E-2,2.822950855E-2
3.242446408E0,1.012001187E-2,-2.024002373E-2,2.876213938E-2
3.244460568E0,1.171790902E-2,-1.864212751E-2,3.142530099E-2
3.246444210E0,1.118527725E-2,-1.597896591E-2,3.036003746E-2
3.248427853E0,1.225054078E-2,-1.384843793E-2,3.036003746E-2
3.250411495E0,1.012001187E-2,-7.456851192E-3,2.663161233E-2
3.252395138E0,9.587380104E-3,-1.065264456E-3,2.822950855E-2
3.254409298E0,9.587380104E-3,-1.597896684E-3,2.822950855E-2
3.256392941E0,7.989482954E-3,3.728425596E-3,2.556634694E-2
3.258437618E0,1.012001187E-2,9.587380104E-3,2.609897964E-2
3.260390743E0,6.391586736E-3,1.704423130E-2,2.396845073E-2
3.262374386E0,4.793690052E-3,2.077265643E-2,2.237055451E-2
3.264388546E0,6.924218964E-3,2.876213938E-2,2.130528912E-2
3.266372189E0,2.663161140E-3,3.089267015E-2,1.384843793E-2
3.268355831E0,5.326322280E-4,3.568635881E-2,1.278317347E-2
3.270339474E0,-1.065264456E-3,3.941478580E-2,1.331580617E-2
3.272353634E0,5.326322280E-4,4.687163606E-2,1.012001187E-2
3.274337277E0,-3.195793368E-3,4.474110901E-2,8.522115648E-3
3.276351437E0,-3.728425596E-3,4.953479767E-2,5.326322280E-3
3.278365597E0,-4.261057824E-3,4.687163606E-2,5.858954508E-3
3.280318722E0,-7.456851192E-3,4.793690145E-2,5.326322280E-4
3.282332882E0,-7.456851192E-3,4.953479767E-2,-1.065264456E-3
3.284316525E0,-9.587380104E-3,4.900216311E-2,-1.065264456E-3
3.286330685E0,-9.587380104E-3,4.633900523E-2,-1.065264456E-3
3.288344845E0,-1.225054078E-2,4.420847446E-2,-1.597896684E-3
3.290328488E0,-1.331580617E-2,4.154531285E-2,-4.793690052E-3
3.292312130E0,-1.384843793E-2,3.621899337E-2,-6.924218964E-3
3.294326290E0,-1.225054078E-2,3.036003746E-2,-3.195793368E-3
3.296309933E0,-1.278317347E-2,2.929477207E-2,-3.728425596E-3
3.298354611E0,-1.225054078E-2,2.077265643E-2,-4.261057824E-3
3.300307736E0,-1.278317347E-2,1.917476021E-2,-4.261057824E-3
3.302321896E0,-1.331580617E-2,1.438106969E-2,-4.793690052E-3
3.304336056E0,-1.278317347E-2,9.587380104E-3,-2.663161140E-3
3.306319699E0,-1.118527725E-2,7.989482954E-3,-2.130528912E-3
3.308303341E0,-1.012001187E-2,6.391586736E-3,-1.065264456E-3
3.310286984E0,-7.989482954E-3,2.130528912E-3,-1.597896684E-3
3.312301144E0,-7.989482954E-3,-2.130528912E-3,5.326322280E-4
3.314284786E0,-7.456851192E-3,0.000000000E0,5.326322280E-4
3.316298947E0,-4.261057824E-3,-5.326322280E-4,2.663161140E-3
3.318313107E0,-2.130528912E-3,-4.261057824E-3,3.728425596E-3
3.320266232E0,-1.065264456E-3,-3.728425596E-3,5.326322280E-3
3.322280392E0,-1.065264456E-3,-1.597896684E-3,3.728425596E-3
3.324264034E0,2.130528912E-3,-4.261057824E-3,4.793690052E-3
3.326278195E0,3.195793368E-3,-4.793690052E-3,4.793690052E-3
3.328261837E0,5.858954508E-3,-3.195793368E-3,5.858954508E-3
3.330245480E0,6.924218964E-3,-2.663161140E-3,3.728425596E-3
3.332259640E0,9.054748341E-3,-1.597896684E-3,5.858954508E-3
3.334243283E0,5.858954508E-3,-1.597896684E-3,5.326322280E-3
3.336257443E0,7.456851192E-3,1.065264456E-3,5.858954508E-3
3.338271603E0,1.012001187E-2,3.728425596E-3,8.522115648E-3
3.340255245E0,1.171790902E-2,3.195793368E-3,6.391586736E-3
3.342269406E0,1.331580617E-2,1.065264456E-3,7.989482954E-3
3.344253048E0,9.587380104E-3,2.130528912E-3,6.391586736E-3
3.346236691E0,1.171790902E-2,4.261057824E-3,8.522115648E-3
3.348220333E0,1.171790902E-2,2.130528912E-3,7.456851192E-3
3.350234493E0,1.012001187E-2,5.326322280E-4,5.858954508E-3
3.352218136E0,9.054748341E-3,5.326322280E-3,6.924218964E-3
3.354201779E0,9.054748341E-3,3.728425596E-3,5.858954508E-3
3.356185421E0,8.522115648E-3,6.924218964E-3,4.793690052E-3
3.358199581E0,8.522115648E-3,5.326322280E-3,7.456851192E-3
3.360183224E0,6.924218964E-3,4.261057824E-3,6.391586736E-3
3.362166867E0,9.054748341E-3,9.587380104E-3,7.989482954E-3
3.364181027E0,8.522115648E-3,7.989482954E-3,5.858954508E-3
3.366195187E0,1.012001187E-2,1.012001187E-2,5.858954508E-3
3.368178829E0,9.054748341E-3,1.278317347E-2,8.522115648E-3
3.370192990E0,8.522115648E-3,1.278317347E-2,5.858954508E-3
3.372176632E0,6.924218964E-3,1.171790902E-2,3.728425596E-3
3.374160275E0,1.118527725E-2,1.065264456E-2,4.261057824E-3
3.376174435E0,9.587380104E-3,8.522115648E-3,3.195793368E-3
3.378188595E0,1.065264456E-2,4.793690052E-3,1.597896684E-3
3.380172238E0,1.065264456E-2,5.858954508E-3,4.261057824E-3
3.382155880E0,9.054748341E-3,3.728425596E-3,2.130528912E-3
3.384139523E0,9.054748341E-3,3.195793368E-3,4.261057824E-3
3.386153683E0,1.065264456E-2,2.663161140E-3,2.663161140E-3
3.388167843E0,1.012001187E-2,1.065264456E-3,3.195793368E-3
3.390151486E0,7.989482954E-3,-1.597896684E-3,0.000000000E0
3.392135128E0,5.858954508E-3,2.130528912E-3,3.728425596E-3
3.394149288E0,6.924218964E-3,0.000000000E0,2.130528912E-3
3.396132931E0,3.728425596E-3,5.326322280E-4,2.130528912E-3
3.398147091E0,4.793690052E-3,2.130528912E-3,3.728425596E-3
3.400100216E0,3.728425596E-3,5.858954508E-3,5.326322280E-4
3.402083859E0,3.728425596E-3,3.728425596E-3,5.326322280E-3
3.404098019E0,2.663161140E-3,4.261057824E-3,5.858954508E-3
3.406112179E0,3.195793368E-3,7.456851192E-3,7.456851192E-3
3.408065304E0,3.728425596E-3,9.054748341E-3,6.924218964E-3
3.410048947E0,4.261057824E-3,9.054748341E-3,5.858954508E-3
3.412032589E0,5.326322280E-3,1.012001187E-2,9.587380104E-3
3.414046749E0,2.663161140E-3,7.456851192E-3,9.587380104E-3
3.416030392E0,4.261057824E-3,9.054748341E-3,6.924218964E-3
3.418044552E0,2.130528912E-3,9.587380104E-3,9.587380104E-3
3.419997677E0,4.261057824E-3,5.858954508E-3,1.171790902E-2
3.421981320E0,2.130528912E-3,9.054748341E-3,1.065264456E-2
3.423995480E0,4.261057824E-3,4.261057824E-3,1.171790902E-2
3.425979122E0,3.728425596E-3,4.793690052E-3,1.118527725E-2
3.427962765E0,1.065264456E-3,0.000000000E0,1.171790902E-2
3.429946408E0,5.858954508E-3,1.597896684E-3,1.438106969E-2
3.431960568E0,2.130528912E-3,-1.597896684E-3,1.544633508E-2
3.433944210E0,1.065264456E-3,-1.597896684E-3,1.491370238E-2
3.435958370E0,4.793690052E-3,-1.597896684E-3,1.384843793E-2
3.437972531E0,7.456851192E-3,-2.663161140E-3,1.384843793E-2
3.439956173E0,3.195793368E-3,-5.326322280E-4,1.331580617E-2
3.441970333E0,6.924218964E-3,-2.130528912E-3,1.491370238E-2
3.443953976E0,6.391586736E-3,5.326322280E-4,1.384843793E-2
3.445937618E0,6.924218964E-3,1.597896684E-3,1.384843793E-2
3.447921261E0,6.391586736E-3,2.663161140E-3,1.118527725E-2
3.449904904E0,9.587380104E-3,2.130528912E-3,1.225054078E-2
3.451919064E0,7.989482954E-3,3.195793368E-3,1.384843793E-2
3.453902706E0,4.793690052E-3,5.858954508E-3,1.118527725E-2
3.455886349E0,5.326322280E-3,6.924218964E-3,7.989482954E-3
3.457900509E0,6.391586736E-3,8.522115648E-3,7.989482954E-3
3.459884152E0,2.663161140E-3,9.587380104E-3,7.989482954E-3
3.461898312E0,1.065264456E-3,9.054748341E-3,7.456851192E-3
3.463881954E0,1.597896684E-3,1.491370238E-2,5.858954508E-3
3.465896115E0,5.326322280E-4,1.597896591E-2,5.858954508E-3
3.467879757E0,0.000000000E0,1.810949668E-2,2.130528912E-3
3.469893917E0,-1.065264456E-3,1.917476021E-2,2.130528912E-3
3.471877560E0,5.326322280E-4,2.343581803E-2,1.597896684E-3
3.473861202E0,-1.597896684E-3,2.183792181E-2,-1.065264456E-3
3.475875363E0,-2.663161140E-3,2.130528912E-2,-2.130528912E-3
3.477889523E0,-3.728425596E-3,2.450108156E-2,-3.728425596E-3
3.479873165E0,-1.065264456E-3,2.609897964E-2,-3.195793368E-3
3.481856808E0,-2.130528912E-3,2.396845073E-2,-7.989482954E-3
3.483840451E0,-3.728425596E-3,2.343581803E-2,-5.326322280E-3
3.485854611E0,-2.663161140E-3,2.769687586E-2,-3.728425596E-3
3.487838253E0,-2.130528912E-3,2.822950855E-2,-3.728425596E-3
3.489821896E0,-3.195793368E-3,2.343581803E-2,-3.195793368E-3
3.491836056E0,-7.989482954E-3,2.663161233E-2,-5.858954508E-3
3.493819699E0,-4.261057824E-3,2.290318534E-2,-3.195793368E-3
3.495833859E0,-6.924218964E-3,2.237055451E-2,-8.522115648E-3
3.497848019E0,-6.391586736E-3,1.917476021E-2,-4.261057824E-3
3.499831661E0,-6.924218964E-3,1.704423130E-2,-5.858954508E-3
3.501845822E0,-6.391586736E-3,1.438106969E-2,-2.663161140E-3
3.503829464E0,-9.054748341E-3,1.331580617E-2,-4.793690052E-3
3.505813107E0,-1.012001187E-2,8.522115648E-3,-6.924218964E-3
3.507796749E0,-7.456851192E-3,5.326322280E-3,-7.456851192E-3
3.509810909E0,-9.054748341E-3,5.326322280E-3,-4.793690052E-3
3.511794552E0,-4.793690052E-3,1.065264456E-3,-5.326322280E-3
3.513808712E0,-2.663161140E-3,-5.326322280E-4,-7.456851192E-3
3.515822872E0,-2.130528912E-3,-2.663161140E-3,-3.728425596E-3
3.517837033E0,5.326322280E-4,-5.858954508E-3,-3.728425596E-3
3.519820675E0,2.663161140E-3,-8.522115648E-3,-2.663161140E-3
3.521804318E0,1.065264456E-3,-1.331580617E-2,-1.597896684E-3
3.523787960E0,1.597896684E-3,-1.278317347E-2,-5.326322280E-3
3.525802120E0,2.130528912E-3,-1.331580617E-2,-3.728425596E-3
3.527785763E0,5.326322280E-4,-1.917476021E-2,-1.597896684E-3
3.529799923E0,2.663161140E-3,-2.130528912E-2,-1.065264456E-3
3.531783566E0,1.065264456E-3,-2.237055451E-2,1.065264456E-3
3.533767208E0,3.728425596E-3,-2.396845073E-2,-5.326322280E-4
3.535781368E0,3.728425596E-3,-2.663161233E-2,1.065264456E-3
3.537795529E0,0.000000000E0,-2.343581803E-2,-1.065264456E-3
3.539779171E0,2.663161140E-3,-2.556634694E-2,0.000000000E0
3.541762814E0,2.663161140E-3,-2.396845073E-2,-1.597896684E-3
3.543746456E0,3.728425596E-3,-2.609897964E-2,-1.065264456E-3
3.545760617E0,5.326322280E-4,-2.343581803E-2,1.065264456E-3
3.547744259E0,5.858954508E-3,-2.343581803E-2,-5.326322280E-4
3.549727902E0,5.858954508E-3,-1.970739290E-2,-5.326322280E-4
3.551711544E0,3.195793368E-3,-1.810949668E-2,-2.663161140E-3
3.553725704E0,8.522115648E-3,-1.544633508E-2,-5.326322280E-4
3.555709347E0,7.989482954E-3,-1.384843793E-2,-2.130528912E-3
3.557723507E0,5.326322280E-3,-1.171790902E-2,-2.130528912E-3
3.559676632E0,6.391586736E-3,-1.384843793E-2,-1.065264456E-3
3.561660275E0,7.989482954E-3,-1.012001187E-2,-3.195793368E-3
3.563674435E0,4.261057824E-3,-6.391586736E-3,-3.728425596E-3
3.565658077E0,5.858954508E-3,-6.391586736E-3,-4.793690052E-3
3.567641720E0,5.326322280E-3,-5.326322280E-3,-5.326322280E-3
3.569625363E0,6.924218964E-3,-4.793690052E-3,-3.195793368E-3
3.571609005E0,5.858954508E-3,-3.195793368E-3,-4.261057824E-3
3.573623165E0,7.456851192E-3,-1.065264456E-3,-7.989482954E-3
3.575606808E0,3.195793368E-3,-4.261057824E-3,-6.924218964E-3
3.577651486E0,5.326322280E-3,-4.793690052E-3,-4.261057824E-3
3.579604611E0,3.195793368E-3,-1.065264456E-3,-8.522115648E-3
3.581588253E0,4.793690052E-3,-3.728425596E-3,-7.456851192E-3
3.583602413E0,3.195793368E-3,-2.130528912E-3,-7.456851192E-3
3.585586056E0,4.261057824E-3,-1.597896684E-3,-7.456851192E-3
3.587569699E0,2.663161140E-3,-1.597896684E-3,-7.989482954E-3
3.589553341E0,3.195793368E-3,-3.195793368E-3,-7.989482954E-3
3.591567501E0,3.195793368E-3,-5.326322280E-4,-8.522115648E-3
3.593551144E0,3.728425596E-3,-2.130528912E-3,-5.858954508E-3
3.595565304E0,3.195793368E-3,5.326322280E-4,-6.924218964E-3
3.597579464E0,4.261057824E-3,0.000000000E0,-7.989482954E-3
3.599532589E0,2.663161140E-3,5.326322280E-4,-5.858954508E-3
3.601546749E0,1.597896684E-3,1.597896684E-3,-6.391586736E-3
3.603530392E0,2.130528912E-3,-2.663161140E-3,-6.924218964E-3
3.605544552E0,3.195793368E-3,0.000000000E0,-6.924218964E-3
3.607528195E0,6.924218964E-3,-5.858954508E-3,-5.858954508E-3
3.609511837E0,5.858954508E-3,-5.858954508E-3,-1.597896684E-3
3.611525997E0,3.195793368E-3,-9.054748341E-3,-4.261057824E-3
3.613509640E0,5.326322280E-3,-1.278317347E-2,-4.793690052E-3
3.615493283E0,3.728425596E-3,-1.544633508E-2,-2.663161140E-3
3.617507443E0,5.326322280E-3,-1.864212751E-2,-2.663161140E-3
3.619491085E0,2.130528912E-3,-2.130528912E-2,-2.130528912E-3
3.621505245E0,4.261057824E-3,-2.343581803E-2,-1.597896684E-3
3.623488888E0,4.261057824E-3,-2.396845073E-2,1.065264456E-3
3.625503048E0,6.391586736E-3,-2.556634694E-2,1.065264456E-3
3.627486691E0,7.456851192E-3,-2.769687586E-2,1.065264456E-3
3.629500851E0,9.054748341E-3,-2.609897964E-2,3.195793368E-3
3.631484493E0,7.989482954E-3,-2.769687586E-2,5.326322280E-3
3.633498654E0,9.587380104E-3,-2.663161233E-2,3.195793368E-3
3.635512814E0,8.522115648E-3,-2.450108156E-2,4.793690052E-3
3.637526974E0,7.989482954E-3,-1.917476021E-2,4.261057824E-3
3.639510617E0,9.054748341E-3,-1.651159860E-2,4.793690052E-3
3.641494259E0,1.012001187E-2,-1.438106969E-2,4.793690052E-3
3.643477902E0,9.587380104E-3,-1.438106969E-2,7.456851192E-3
3.645492062E0,6.924218964E-3,-9.054748341E-3,7.989482954E-3
3.647475704E0,9.054748341E-3,-7.989482954E-3,7.989482954E-3
3.649489865E0,6.924218964E-3,-5.858954508E-3,9.054748341E-3
3.651473507E0,9.054748341E-3,-5.326322280E-4,6.924218964E-3
3.653457150E0,4.793690052E-3,3.195793368E-3,7.989482954E-3
3.655471310E0,6.391586736E-3,6.924218964E-3,6.391586736E-3
3.657485470E0,5.858954508E-3,1.171790902E-2,4.793690052E-3
3.659469113E0,6.391586736E-3,1.225054078E-2,4.261057824E-3
3.661452755E0,6.924218964E-3,1.597896591E-2,6.391586736E-3
3.663436398E0,6.391586736E-3,1.651159860E-2,2.663161140E-3
3.665450558E0,4.793690052E-3,1.544633508E-2,4.793690052E-3
3.667434201E0,5.326322280E-3,1.970739290E-2,1.597896684E-3
3.669417843E0,8.522115648E-3,1.810949668E-2,0.000000000E0
3.671401486E0,1.012001187E-2,1.864212751E-2,1.065264456E-3
3.673415646E0,6.924218964E-3,1.917476021E-2,-2.663161140E-3
3.675399288E0,1.118527725E-2,2.077265643E-2,-3.195793368E-3
3.677413449E0,1.278317347E-2,1.544633508E-2,-4.261057824E-3
3.679366574E0,1.278317347E-2,1.438106969E-2,-6.391586736E-3
3.681350216E0,1.438106969E-2,1.438106969E-2,-6.391586736E-3
3.683364376E0,1.171790902E-2,9.587380104E-3,-9.054748341E-3
3.685348019E0,1.384843793E-2,4.261057824E-3,-7.989482954E-3
3.687331661E0,1.225054078E-2,-3.195793368E-3,-6.924218964E-3
3.689345822E0,1.171790902E-2,-6.391586736E-3,-6.924218964E-3
3.691329464E0,6.924218964E-3,-1.278317347E-2,-6.924218964E-3
3.693313107E0,8.522115648E-3,-2.237055451E-2,-7.456851192E-3
3.695327267E0,5.858954508E-3,-2.876213938E-2,-6.391586736E-3
3.697341427E0,7.989482954E-3,-3.462109342E-2,-4.793690052E-3
3.699325070E0,5.858954508E-3,-3.941478580E-2,-5.858954508E-3
3.701308712E0,6.924218964E-3,-4.048004746E-2,-6.924218964E-3
3.703322872E0,7.456851192E-3,-4.580637068E-2,-7.456851192E-3
3.705337033E0,7.989482954E-3,-4.687163606E-2,-7.989482954E-3
3.707351193E0,6.391586736E-3,-5.060006306E-2,-7.989482954E-3
3.709334835E0,5.858954508E-3,-5.060006306E-2,-9.054748341E-3
3.711318478E0,7.989482954E-3,-4.846953228E-2,-6.924218964E-3
3.713332638E0,4.793690052E-3,-5.113269389E-2,-5.326322280E-4
3.715316281E0,4.793690052E-3,-5.006742850E-2,-5.326322280E-3
3.717360958E0,4.261057824E-3,-5.113269389E-2,-5.326322280E-4
3.719314083E0,2.663161140E-3,-4.953479767E-2,-1.065264456E-3
3.721297726E0,5.326322280E-3,-4.420847446E-2,1.065264456E-3
3.723311886E0,5.326322280E-3,-4.687163606E-2,1.065264456E-3
3.725295529E0,1.597896684E-3,-4.633900523E-2,0.000000000E0
3.727279171E0,3.728425596E-3,-4.314320907E-2,3.728425596E-3
3.729262814E0,3.195793368E-3,-4.048004746E-2,3.728425596E-3
3.731246456E0,2.663161140E-3,-4.048004746E-2,3.728425596E-3
3.733260617E0,3.728425596E-3,-3.515372798E-2,3.195793368E-3
3.735244259E0,2.663161140E-3,-3.621899337E-2,4.261057824E-3
3.737258419E0,4.261057824E-3,-3.089267015E-2,2.663161140E-3
3.739211544E0,1.597896684E-3,-2.822950855E-2,3.728425596E-3
3.741195187E0,6.391586736E-3,-2.556634694E-2,3.195793368E-3
3.743209347E0,5.326322280E-3,-2.130528912E-2,2.130528912E-3
3.745192990E0,6.391586736E-3,-1.917476021E-2,4.261057824E-3
3.747176632E0,1.012001187E-2,-1.704423130E-2,4.261057824E-3
3.749190792E0,7.989482954E-3,-1.171790902E-2,4.261057824E-3
3.751204952E0,1.065264456E-2,-3.728425596E-3,2.130528912E-3
3.753188595E0,1.118527725E-2,-1.597896684E-3,4.793690052E-3
3.755202755E0,8.522115648E-3,3.728425596E-3,3.728425596E-3
3.757216915E0,1.225054078E-2,1.118527725E-2,2.130528912E-3
3.759200558E0,1.278317347E-2,1.544633508E-2,5.326322280E-4
3.761214718E0,1.012001187E-2,2.396845073E-2,-3.728425596E-3
3.763198361E0,1.012001187E-2,2.663161233E-2,-3.728425596E-3
3.765182003E0,7.989482954E-3,2.929477207E-2,-6.391586736E-3
3.767165646E0,7.456851192E-3,3.621899337E-2,-5.858954508E-3
3.769149288E0,6.391586736E-3,3.249056637E-2,-7.989482954E-3
3.771163449E0,4.793690052E-3,3.675162420E-2,-9.587380104E-3
3.773147091E0,3.728425596E-3,3.728425503E-2,-1.012001187E-2
3.775130734E0,2.130528912E-3,3.941478580E-2,-7.456851192E-3
3.777144894E0,1.065264456E-3,3.941478580E-2,-1.491370238E-2
3.779128536E0,5.326322280E-4,4.261057824E-2,-1.278317347E-2
3.781142697E0,-3.195793368E-3,3.781688958E-2,-1.651159860E-2
3.783126339E0,-3.728425596E-3,3.621899337E-2,-1.331580617E-2
3.785109982E0,-5.326322280E-4,3.462109342E-2,-1.225054078E-2
3.787093624E0,-3.195793368E-3,3.089267015E-2,-1.544633508E-2
3.789107784E0,-3.728425596E-3,2.822950855E-2,-1.225054078E-2
3.791091427E0,-4.261057824E-3,2.609897964E-2,-1.384843793E-2
3.793105587E0,-6.391586736E-3,2.343581803E-2,-1.278317347E-2
3.795119747E0,-4.793690052E-3,1.917476021E-2,-1.491370238E-2
3.797133908E0,-3.728425596E-3,1.597896591E-2,-1.278317347E-2
3.799117550E0,-1.597896684E-3,8.522115648E-3,-9.587380104E-3
3.801101193E0,-2.663161140E-3,7.989482954E-3,-1.012001187E-2
3.803084835E0,-1.597896684E-3,3.728425596E-3,-1.012001187E-2
3.805129513E0,-5.326322280E-4,-1.597896684E-3,-4.793690052E-3
3.807082638E0,5.326322280E-4,-1.065264456E-3,-7.989482954E-3
3.809096798E0,4.793690052E-3,-4.793690052E-3,-2.663161140E-3
3.811080441E0,5.326322280E-3,-9.587380104E-3,-3.728425596E-3
3.813064083E0,7.989482954E-3,-1.544633508E-2,-3.728425596E-3
3.815078243E0,9.054748341E-3,-1.810949668E-2,-1.065264456E-3
3.817092404E0,1.384843793E-2,-2.290318534E-2,-1.065264456E-3
3.819076046E0,1.118527725E-2,-2.556634694E-2,-5.326322280E-4
3.821059689E0,1.704423130E-2,-2.822950855E-2,1.065264456E-3
3.823043331E0,1.970739290E-2,-3.036003746E-2,2.130528912E-3
3.825057492E0,2.024002373E-2,-3.249056637E-2,3.728425596E-3
3.827041134E0,2.343581803E-2,-3.728425503E-2,4.793690052E-3
3.829024777E0,2.929477207E-2,-4.207794741E-2,4.261057824E-3
3.831008419E0,2.876213938E-2,-4.101268202E-2,4.793690052E-3
3.833022579E0,3.302319720E-2,-4.740426689E-2,9.587380104E-3
3.835006222E0,3.142530099E-2,-5.166532472E-2,8.522115648E-3
3.837020382E0,3.408846259E-2,-5.166532472E-2,7.989482954E-3
3.838973507E0,3.834952042E-2,-5.486112088E-2,1.118527725E-2
3.840957150E0,3.888215125E-2,-5.805691332E-2,1.065264456E-2
3.842971310E0,4.154531285E-2,-6.178534031E-2,1.331580617E-2
3.844954952E0,4.261057824E-2,-6.338323653E-2,1.438106969E-2
3.846938595E0,4.261057824E-2,-6.178534031E-2,1.597896591E-2
3.848922238E0,4.261057824E-2,-6.444849819E-2,1.651159860E-2
3.850905880E0,4.420847446E-2,-6.231797114E-2,1.704423130E-2
3.852920040E0,4.261057824E-2,-6.498113275E-2,1.917476021E-2
3.854903683E0,4.154531285E-2,-6.178534031E-2,1.917476021E-2
3.856948361E0,4.314320907E-2,-5.752427876E-2,1.757686399E-2
3.858901486E0,4.207794741E-2,-6.072007492E-2,2.130528912E-2
3.860915646E0,3.888215125E-2,-5.539375171E-2,2.024002373E-2
3.862929806E0,3.941478580E-2,-5.060006306E-2,1.970739290E-2
3.864913449E0,3.888215125E-2,-4.900216311E-2,1.651159860E-2
3.866897091E0,3.941478580E-2,-4.367584363E-2,1.864212751E-2
3.868880734E0,4.207794741E-2,-4.101268202E-2,1.704423130E-2
3.870894894E0,3.888215125E-2,-3.408846259E-2,1.438106969E-2
3.872878536E0,3.675162420E-2,-2.822950855E-2,1.491370238E-2
3.874892697E0,3.781688958E-2,-2.290318534E-2,1.278317347E-2
3.876906857E0,3.195793182E-2,-1.757686399E-2,1.065264456E-2
3.878890499E0,3.249056637E-2,-1.065264456E-2,7.456851192E-3
3.880904659E0,2.982740477E-2,-6.924218964E-3,6.924218964E-3
3.882888302E0,2.876213938E-2,1.597896684E-3,6.924218964E-3
3.884871945E0,2.716424316E-2,3.728425596E-3,7.456851192E-3
3.886886105E0,2.503371425E-2,7.989482954E-3,3.728425596E-3
3.888869747E0,2.663161233E-2,1.065264456E-2,4.261057824E-3
3.890853390E0,2.503371425E-2,1.118527725E-2,2.130528912E-3
3.892867550E0,2.343581803E-2,1.438106969E-2,1.065264456E-3
3.894851193E0,2.450108156E-2,1.491370238E-2,2.130528912E-3
3.896895870E0,2.237055451E-2,1.225054078E-2,-1.065264456E-3
3.898848995E0,2.450108156E-2,1.171790902E-2,-5.326322280E-4
3.900832638E0,2.450108156E-2,6.391586736E-3,1.065264456E-3
3.902846798E0,2.237055451E-2,3.728425596E-3,-4.793690052E-3
3.904830441E0,2.556634694E-2,-1.597896684E-3,-1.597896684E-3
3.906814083E0,2.716424316E-2,-9.054748341E-3,-1.597896684E-3
3.908797726E0,3.036003746E-2,-2.130528912E-2,1.065264456E-3
3.910811886E0,3.195793182E-2,-2.876213938E-2,-1.597896684E-3
3.912765011E0,2.982740477E-2,-3.834952042E-2,5.326322280E-4
3.914779171E0,3.195793182E-2,-4.900216311E-2,1.597896684E-3
3.916793331E0,3.142530099E-2,-5.645901710E-2,2.130528912E-3
3.918746456E0,3.515372798E-2,-6.604639441E-2,2.663161140E-3
3.920730099E0,3.675162420E-2,-7.403588295E-2,1.597896684E-3
3.922713742E0,3.888215125E-2,-8.096009493E-2,2.663161140E-3
3.924727902E0,3.408846259E-2,-8.788431436E-2,5.326322280E-3
3.926711544E0,3.515372798E-2,-9.427590668E-2,4.261057824E-3
3.928725704E0,3.781688958E-2,-9.427590668E-2,5.326322280E-3
3.930739865E0,3.302319720E-2,-9.747169912E-2,5.326322280E-3
3.932692990E0,3.994741663E-2,-1.012001261E-1,3.728425596E-3
3.934707150E0,3.888215125E-2,-1.033306494E-1,5.326322280E-3
3.936721310E0,4.207794741E-2,-1.012001261E-1,4.793690052E-3
3.938704952E0,4.261057824E-2,-9.960222989E-2,6.391586736E-3
3.940688595E0,4.527373984E-2,-9.534116834E-2,3.195793368E-3
3.942672238E0,4.527373984E-2,-9.054747969E-2,3.728425596E-3
3.944686398E0,4.687163606E-2,-8.735168725E-2,5.326322280E-3
3.946670040E0,4.633900523E-2,-8.468852192E-2,4.261057824E-3
3.948653683E0,4.580637068E-2,-8.042746782E-2,5.326322280E-3
