"Time (s)","Gyroscope x (rad/s)","Gyroscope y (rad/s)","Gyroscope z (rad/s)"
6.719354600E-2,-3.223661482E-1,-1.784265228E-2,2.730991244E-1
6.968370200E-2,-3.266270757E-1,-1.997311972E-2,2.752295732E-1
7.217380600E-2,-3.383446336E-1,-1.358172111E-2,2.805557549E-1
7.466396200E-2,-3.521926701E-1,-7.989247679E-4,2.912080884E-1
7.715406600E-2,-3.596493006E-1,1.091863867E-2,2.997299433E-1
7.964422300E-2,-3.628450036E-1,2.157096937E-2,3.050560951E-1
8.213432700E-2,-3.639102280E-1,3.222329915E-2,3.093170524E-1
8.462448300E-2,-3.628450036E-1,5.033225939E-2,3.157084286E-1
8.711458700E-2,-3.585840762E-1,6.631075591E-2,3.210346103E-1
8.960474400E-2,-3.500621915E-1,8.441971987E-2,3.220998347E-1
9.185807700E-2,-3.404751122E-1,1.025286764E-1,3.242303133E-1
9.434812900E-2,-3.308880031E-1,1.174419373E-1,3.274259865E-1
9.683828500E-2,-3.149095178E-1,1.270290315E-1,3.338173926E-1
9.932838900E-2,-3.010614812E-1,1.376813650E-1,3.402087986E-1
1.018185460E-1,-2.861482203E-1,1.440727711E-1,3.434045017E-1
1.043086500E-1,-2.691044807E-1,1.462032348E-1,3.540568352E-1
1.067988060E-1,-2.520607710E-1,1.525946259E-1,3.636439145E-1
1.092889620E-1,-2.371474952E-1,1.525946259E-1,3.711005449E-1
1.117790660E-1,-2.264951766E-1,1.493989378E-1,3.796224296E-1
1.142692230E-1,-2.147776037E-1,1.493989378E-1,3.892095089E-1
1.167593270E-1,-2.062557489E-1,1.462032348E-1,4.009270668E-1
1.192494830E-1,-2.009295821E-1,1.398118287E-1,4.115794003E-1
1.217395870E-1,-1.966686398E-1,1.344856620E-1,4.201012850E-1
1.239824520E-1,-1.956034154E-1,1.291595101E-1,4.339492917E-1
1.264725040E-1,-1.945381761E-1,1.227681041E-1,4.456668794E-1
1.289626600E-1,-1.934729517E-1,1.121157780E-1,4.573844373E-1
1.314527640E-1,-1.977338791E-1,9.613727778E-2,4.712324440E-1
1.339429210E-1,-1.945381761E-1,7.909355313E-2,4.904066622E-1
1.364330250E-1,-1.956034154E-1,5.672365800E-2,5.021241903E-1
1.389231810E-1,-2.009295821E-1,3.222329915E-2,5.170374513E-1
1.414133370E-1,-2.030600458E-1,8.788172156E-3,5.340812206E-1
1.439034410E-1,-2.030600458E-1,-1.571218669E-2,5.521901846E-1
1.463935980E-1,-2.105166763E-1,-4.340824485E-2,5.607120395E-1
1.488837020E-1,-2.147776037E-1,-6.790860742E-2,5.745600462E-1
1.513738580E-1,-2.211690098E-1,-8.921326697E-2,5.894733071E-1
1.538639620E-1,-2.286256403E-1,-1.126483902E-1,5.979951620E-1
1.559659940E-1,-2.339518070E-1,-1.275616586E-1,6.065170765E-1
1.584560460E-1,-2.392779738E-1,-1.360835135E-1,6.139736772E-1
1.609462020E-1,-2.456693649E-1,-1.467358470E-1,6.246260405E-1
1.634363060E-1,-2.531259954E-1,-1.563229412E-1,6.267564893E-1
1.659264620E-1,-2.595174015E-1,-1.637795717E-1,6.299521923E-1
1.684165660E-1,-2.637783289E-1,-1.712362021E-1,6.331478953E-1
1.709067230E-1,-2.669740319E-1,-1.797580719E-1,6.363435984E-1
1.733968270E-1,-2.701697350E-1,-1.872147024E-1,6.406044960E-1
1.758869830E-1,-2.733654380E-1,-1.946713328E-1,6.406044960E-1
1.783771390E-1,-2.723001838E-1,-2.010627389E-1,6.416697502E-1
1.808672440E-1,-2.701697350E-1,-2.053236663E-1,6.438001990E-1
1.833574000E-1,-2.691044807E-1,-2.095845938E-1,6.491263509E-1
1.858475040E-1,-2.669740319E-1,-2.191716880E-1,6.533873081E-1
1.882128690E-1,-2.637783289E-1,-2.298240215E-1,6.597787142E-1
1.907029210E-1,-2.595174015E-1,-2.436720580E-1,6.661701202E-1
1.931930770E-1,-2.552564740E-1,-2.553896308E-1,6.725615263E-1
1.956831810E-1,-2.520607710E-1,-2.692376375E-1,6.757571697E-1
1.981733370E-1,-2.488650680E-1,-2.852161527E-1,6.800181270E-1
2.006634410E-1,-2.467346042E-1,-2.979989350E-1,6.853442788E-1
2.031535980E-1,-2.456693649E-1,-3.161078990E-1,6.906704903E-1
2.056437020E-1,-2.446041405E-1,-3.299559355E-1,6.938661337E-1
2.081338580E-1,-2.456693649E-1,-3.406082690E-1,7.013227940E-1
2.106240140E-1,-2.435389012E-1,-3.480648994E-1,7.087793946E-1
2.131141190E-1,-2.456693649E-1,-3.501953483E-1,7.162360549E-1
2.156042750E-1,-2.446041405E-1,-3.544562757E-1,7.236927152E-1
2.180943790E-1,-2.456693649E-1,-3.544562757E-1,7.354102731E-1
2.203678160E-1,-2.446041405E-1,-3.565867543E-1,7.439321280E-1
2.228578690E-1,-2.435389012E-1,-3.608476818E-1,7.503235340E-1
2.253480250E-1,-2.424736619E-1,-3.661738634E-1,7.577801347E-1
2.278381290E-1,-2.382127345E-1,-3.789566457E-1,7.641715407E-1
2.303282850E-1,-2.339518070E-1,-3.917394578E-1,7.737586498E-1
2.328183890E-1,-2.360822707E-1,-4.077179432E-1,7.748238444E-1
2.353085460E-1,-2.371474952E-1,-4.268921316E-1,7.769543529E-1
2.377986500E-1,-2.392779738E-1,-4.481967986E-1,7.758890986E-1
2.402888060E-1,-2.456693649E-1,-4.663057625E-1,7.780195475E-1
2.427789620E-1,-2.552564740E-1,-4.897408783E-1,7.716282010E-1
2.452690660E-1,-2.659088075E-1,-5.099803209E-1,7.663019896E-1
2.477592230E-1,-2.765611112E-1,-5.291544795E-1,7.588453889E-1
2.502493270E-1,-2.914743721E-1,-5.430025458E-1,7.471278310E-1
2.524926600E-1,-3.053224087E-1,-5.568505526E-1,7.386059761E-1
2.549827120E-1,-3.191704452E-1,-5.643072128E-1,7.290188670E-1
2.574728690E-1,-3.340837061E-1,-5.696333647E-1,7.173013091E-1
2.599629730E-1,-3.479317427E-1,-5.717638135E-1,7.098446488E-1
2.624531290E-1,-3.585840762E-1,-5.696333647E-1,6.981270909E-1
2.649432330E-1,-3.724320829E-1,-5.621767044E-1,6.874747872E-1
2.674333890E-1,-3.788234890E-1,-5.525896549E-1,6.768224239E-1
2.699235460E-1,-3.884105980E-1,-5.398068428E-1,6.608439088E-1
2.724136500E-1,-3.969324529E-1,-5.206326246E-1,6.501916051E-1
2.749038060E-1,-4.022586346E-1,-4.982627332E-1,6.384740472E-1
2.773939100E-1,-4.097152650E-1,-4.737623930E-1,6.246260405E-1
2.798840660E-1,-4.129109383E-1,-4.471315742E-1,6.139736772E-1
2.823741710E-1,-4.150414169E-1,-4.162397981E-1,6.043865681E-1
2.846229210E-1,-4.171718955E-1,-3.832175732E-1,5.969299674E-1
2.871129730E-1,-4.161066413E-1,-3.512606025E-1,5.894733071E-1
2.896031290E-1,-4.107804894E-1,-3.193036020E-1,5.830819011E-1
2.920932330E-1,-4.065195620E-1,-2.905423045E-1,5.820167065E-1
2.945833890E-1,-3.990629315E-1,-2.607157826E-1,5.798861980E-1
2.970734940E-1,-3.862801194E-1,-2.308892608E-1,5.798861980E-1
2.995636500E-1,-3.756277859E-1,-1.999974996E-1,5.788210034E-1
3.020538060E-1,-3.639102280E-1,-1.723014414E-1,5.809514523E-1
3.045439100E-1,-3.468665183E-1,-1.403444558E-1,5.841471553E-1
3.070340140E-1,-3.287575543E-1,-1.062569916E-1,5.862776041E-1
3.095241710E-1,-3.138442934E-1,-8.282186836E-2,5.905385613E-1
3.120143270E-1,-2.968005538E-1,-6.258244067E-2,5.905385613E-1
3.145044310E-1,-2.765611112E-1,-4.127778113E-2,5.937342644E-1
3.167237540E-1,-2.595174015E-1,-3.062544949E-2,5.884081125E-1
3.192138060E-1,-2.382127345E-1,-1.784265228E-2,5.884081125E-1
3.217039620E-1,-2.222342342E-1,-8.255556226E-3,5.873428583E-1
3.241940660E-1,-2.041252851E-1,-7.989247679E-4,5.852124095E-1
3.266842230E-1,-1.860163212E-1,4.527240526E-3,5.820167065E-1
3.291743790E-1,-1.732335240E-1,5.592473317E-3,5.809514523E-1
3.316644830E-1,-1.604507267E-1,4.527240526E-3,5.777557492E-1
3.341546390E-1,-1.497983932E-1,-7.989247679E-4,5.756253004E-1
3.366447440E-1,-1.391460598E-1,-3.994623665E-3,5.724295974E-1
3.391349000E-1,-1.338198930E-1,-1.145125460E-2,5.671034455E-1
3.416250040E-1,-1.327546686E-1,-2.103835158E-2,5.607120395E-1
3.441151600E-1,-1.370155960E-1,-2.742975019E-2,5.543206334E-1
3.466052640E-1,-1.434070021E-1,-3.488638252E-2,5.457987785E-1
3.488772440E-1,-1.508636326E-1,-4.447348043E-2,5.404726267E-1
3.513672960E-1,-1.604507267E-1,-5.193011090E-2,5.372769237E-1
3.538574520E-1,-1.700378209E-1,-6.364767253E-2,5.340812206E-1
3.563475560E-1,-1.796249151E-1,-7.962616533E-2,5.255593657E-1
3.588377120E-1,-1.913424879E-1,-1.041265279E-1,5.234288573E-1
3.613278160E-1,-2.030600458E-1,-1.243659556E-1,5.170374513E-1
3.638179730E-1,-2.126471400E-1,-1.499315500E-1,5.138418078E-1
3.663081290E-1,-2.190385461E-1,-1.733666807E-1,5.053198934E-1
3.687982330E-1,-2.307561040E-1,-1.936061084E-1,4.999937415E-1
3.712883890E-1,-2.382127345E-1,-2.074541301E-1,4.914718866E-1
3.737784940E-1,-2.446041405E-1,-2.191716880E-1,4.850804806E-1
3.762686500E-1,-2.520607710E-1,-2.223673910E-1,4.776238501E-1
3.787587540E-1,-2.573869228E-1,-2.202369273E-1,4.669715166E-1
3.810058890E-1,-2.605826259E-1,-2.117150575E-1,4.595148861E-1
3.834959410E-1,-2.595174015E-1,-1.957365721E-1,4.467321038E-1
3.859860980E-1,-2.541912198E-1,-1.744319052E-1,4.360797703E-1
3.884762020E-1,-2.456693649E-1,-1.446053833E-1,4.222317338E-1
3.909663580E-1,-2.318213433E-1,-1.126483902E-1,4.126446545E-1
3.934564620E-1,-2.201037705E-1,-7.749570161E-2,4.019923210E-1
3.959466190E-1,-2.019948065E-1,-3.701684624E-2,3.934704363E-1
3.984367750E-1,-1.785596907E-1,6.657706574E-3,3.881442845E-1
4.009268790E-1,-1.583202630E-1,5.139749497E-2,3.796224296E-1
4.034170350E-1,-1.327546686E-1,1.003982127E-1,3.689700961E-1
4.059071390E-1,-1.050586104E-1,1.515294015E-1,3.604482114E-1
4.083972440E-1,-7.736254483E-2,2.005301118E-1,3.529915810E-1
4.108874000E-1,-4.540555924E-2,2.516613007E-1,3.455349505E-1
4.131209940E-1,-1.344856713E-2,3.070534170E-1,3.348826170E-1
4.156110460E-1,1.850842312E-2,3.560541272E-1,3.220998347E-1
4.181012020E-1,5.046541616E-2,3.986634612E-1,3.103822768E-1
4.205913060E-1,8.135717362E-2,4.391423166E-1,3.029256463E-1
4.230814620E-1,1.143793985E-1,4.732297659E-1,2.954690158E-1
4.255715660E-1,1.442059278E-1,4.998605847E-1,2.869471312E-1
4.280617230E-1,1.740324497E-1,5.200999975E-1,2.816209793E-1
4.305518790E-1,2.006632686E-1,5.371437669E-1,2.784252763E-1
4.330419830E-1,2.251636237E-1,5.467308760E-1,2.752295732E-1
4.355321390E-1,2.475335300E-1,5.541874766E-1,2.720338702E-1
4.380222440E-1,2.635120153E-1,5.541874766E-1,2.709686458E-1
4.405124000E-1,2.762948275E-1,5.456656218E-1,2.709686458E-1
4.430025040E-1,2.880123854E-1,5.350132585E-1,2.741643488E-1
4.452320870E-1,2.944037914E-1,5.158390999E-1,2.762948275E-1
4.477221390E-1,2.944037914E-1,4.924039543E-1,2.816209793E-1
4.502122960E-1,2.901428342E-1,4.668383598E-1,2.880123854E-1
4.527024000E-1,2.816209793E-1,4.402075410E-1,2.933385372E-1
4.551925560E-1,2.720338702E-1,4.114462435E-1,3.007951677E-1
4.576826600E-1,2.539249361E-1,3.773587942E-1,3.071865737E-1
4.601728160E-1,2.326202542E-1,3.539236784E-1,3.178389072E-1
4.626629210E-1,2.059894353E-1,3.283580840E-1,3.306216896E-1
4.651530770E-1,1.761629134E-1,3.017272651E-1,3.402087986E-1
4.676432330E-1,1.516625583E-1,2.793573737E-1,3.540568352E-1
4.701333370E-1,1.197055578E-1,2.569874525E-1,3.636439145E-1
4.726234940E-1,8.987903595E-2,2.399437428E-1,3.764267266E-1
4.751135980E-1,6.431344151E-2,2.229000032E-1,3.913399875E-1
4.772575560E-1,3.342168778E-2,2.047910541E-1,4.041227698E-1
4.797477120E-1,8.921326138E-3,1.941387206E-1,4.147751033E-1
4.822378160E-1,-1.131810062E-2,1.813559234E-1,4.264926612E-1
4.847279730E-1,-3.368799388E-2,1.792254597E-1,4.371449947E-1
4.872180770E-1,-4.860125855E-2,1.813559234E-1,4.467321038E-1
4.897082330E-1,-6.457975507E-2,1.813559234E-1,4.573844373E-1
4.921983370E-1,-7.097115368E-2,1.898777932E-1,4.637758136E-1
4.946884940E-1,-7.842778414E-2,1.994648874E-1,4.701672196E-1
4.971785980E-1,-7.949301600E-2,2.101172209E-1,4.786891043E-1
4.996687540E-1,-7.523208112E-2,2.218347788E-1,4.861457348E-1
5.021588580E-1,-7.203638554E-2,2.314218730E-1,4.904066622E-1
5.046490140E-1,-6.457975507E-2,2.474003732E-1,4.989285171E-1
5.070474000E-1,-5.818835273E-2,2.633788586E-1,5.021241903E-1
5.095375040E-1,-4.753602296E-2,2.782921195E-1,5.021241903E-1
5.120276080E-1,-3.688369319E-2,2.910749316E-1,5.031894445E-1
5.145177640E-1,-2.410089783E-2,3.070534170E-1,5.063851476E-1
5.170078690E-1,-1.025286783E-2,3.230319023E-1,5.031894445E-1
5.194980250E-1,1.464695437E-3,3.368799388E-1,5.031894445E-1
5.219881290E-1,1.424749196E-2,3.507279754E-1,5.042546988E-1
5.244782850E-1,2.703028731E-2,3.635107577E-1,5.074504018E-1
5.269683890E-1,4.194355011E-2,3.677717149E-1,5.095808506E-1
5.294585460E-1,5.792204663E-2,3.667064607E-1,5.181027055E-1
5.319486500E-1,7.390054315E-2,3.571193814E-1,5.244941115E-1
5.344388060E-1,8.561810106E-2,3.454017937E-1,5.308855176E-1
5.369289100E-1,9.946613014E-2,3.347494900E-1,5.372769237E-1
5.391436500E-1,1.079879999E-1,3.230319023E-1,5.479292274E-1
5.416300040E-1,1.133141592E-1,3.145100474E-1,5.564510822E-1
5.441164620E-1,1.122489274E-1,3.049229383E-1,5.628424883E-1
5.466029210E-1,1.090532318E-1,2.921401560E-1,5.713643432E-1
5.490893790E-1,1.015966013E-1,2.846835256E-1,5.798861980E-1
5.515758370E-1,9.200949967E-2,2.793573737E-1,5.852124095E-1
5.540622440E-1,7.709623873E-2,2.772268951E-1,5.926690102E-1
5.565487020E-1,5.898727849E-2,2.729659677E-1,5.926690102E-1
5.590351600E-1,3.342168778E-2,2.740311921E-1,5.937342644E-1
5.615216190E-1,1.424749196E-2,2.804225981E-1,5.979951620E-1
5.640080770E-1,-7.057168987E-3,2.889444530E-1,6.011908650E-1
5.664944830E-1,-3.049229458E-2,2.995967865E-1,6.033213735E-1
5.689809410E-1,-5.712312087E-2,3.123795986E-1,6.022561193E-1
5.713035460E-1,-8.162347972E-2,3.262276053E-1,6.054518223E-1
5.737899000E-1,-1.050586104E-1,3.411408663E-1,6.054518223E-1
5.762763580E-1,-1.295589656E-1,3.613803089E-1,6.001256704E-1
5.787628160E-1,-1.540593207E-1,3.816197217E-1,5.958647132E-1
5.812492750E-1,-1.753639877E-1,4.050548673E-1,5.937342644E-1
5.837357330E-1,-1.945381761E-1,4.274247587E-1,5.958647132E-1
5.862221390E-1,-2.137123793E-1,4.487294257E-1,5.905385613E-1
5.887085980E-1,-2.264951766E-1,4.721645415E-1,5.894733071E-1
5.911950560E-1,-2.360822707E-1,4.934692085E-1,5.916038156E-1
5.936815140E-1,-2.435389012E-1,5.126433969E-1,5.958647132E-1
5.961679730E-1,-2.456693649E-1,5.296871066E-1,5.969299674E-1
5.986543790E-1,-2.488650680E-1,5.456656218E-1,5.958647132E-1
6.011408370E-1,-2.488650680E-1,5.520570278E-1,6.022561193E-1
6.034341190E-1,-2.424736619E-1,5.605788827E-1,6.054518223E-1
6.059204730E-1,-2.382127345E-1,5.648398399E-1,6.065170765E-1
6.084068790E-1,-2.328865677E-1,5.669702888E-1,6.086475253E-1
6.108933890E-1,-2.211690098E-1,5.637745857E-1,6.086475253E-1
6.133798480E-1,-2.083862126E-1,5.520570278E-1,6.118432283E-1
6.158663060E-1,-1.987991184E-1,5.382089615E-1,6.086475253E-1
6.183527120E-1,-1.870815456E-1,5.222305059E-1,6.065170765E-1
6.208391710E-1,-1.806901544E-1,5.083824396E-1,6.022561193E-1
6.233256290E-1,-1.711030602E-1,4.881430268E-1,5.979951620E-1
6.258120870E-1,-1.583202630E-1,4.689688385E-1,5.979951620E-1
6.282985460E-1,-1.529940963E-1,4.572512805E-1,5.958647132E-1
6.307849520E-1,-1.455374658E-1,4.434032440E-1,5.916038156E-1
6.332714100E-1,-1.359503716E-1,4.242290556E-1,5.873428583E-1
6.355608890E-1,-1.242327988E-1,4.082505703E-1,5.873428583E-1
6.380472440E-1,-1.157109365E-1,3.890763521E-1,5.862776041E-1
6.405337020E-1,-1.050586104E-1,3.720326424E-1,5.873428583E-1
6.430201600E-1,-9.547150880E-2,3.581846058E-1,5.916038156E-1
6.455066190E-1,-8.588441461E-2,3.411408663E-1,5.969299674E-1
6.479930770E-1,-7.949301600E-2,3.230319023E-1,6.054518223E-1
6.504794830E-1,-7.523208112E-2,3.070534170E-1,6.161041260E-1
6.529659410E-1,-6.990591437E-2,2.921401560E-1,6.246260405E-1
6.554524000E-1,-6.990591437E-2,2.782921195E-1,6.352783442E-1
6.579388580E-1,-6.884068251E-2,2.612484097E-1,6.459306479E-1
6.604253160E-1,-7.203638554E-2,2.495308369E-1,6.533873081E-1
6.629117230E-1,-7.629731297E-2,2.388785034E-1,6.576482654E-1
6.653981810E-1,-8.162347972E-2,2.260957062E-1,6.640396118E-1
6.676884410E-1,-9.334104508E-2,2.111824453E-1,6.661701202E-1
6.701747960E-1,-1.061238423E-1,2.015953511E-1,6.672353148E-1
6.726612540E-1,-1.199718714E-1,1.952039450E-1,6.704310179E-1
6.751477120E-1,-1.359503716E-1,1.877473146E-1,6.714962721E-1
6.776341190E-1,-1.529940963E-1,1.792254597E-1,6.736267209E-1
6.801206290E-1,-1.679073572E-1,1.760297567E-1,6.736267209E-1
6.826070350E-1,-1.849510819E-1,1.770949960E-1,6.672353148E-1
6.850934940E-1,-1.998643428E-1,1.792254597E-1,6.683005691E-1
6.875799520E-1,-2.169080675E-1,1.813559234E-1,6.683005691E-1
6.900664100E-1,-2.307561040E-1,1.856168509E-1,6.640396118E-1
6.925528690E-1,-2.424736619E-1,1.941387206E-1,6.640396118E-1
6.950392750E-1,-2.595174015E-1,2.058562785E-1,6.640396118E-1
6.975257330E-1,-2.691044807E-1,2.175738513E-1,6.619091630E-1
6.997844830E-1,-2.818872929E-1,2.324871123E-1,6.587134600E-1
7.022708370E-1,-2.904091477E-1,2.484655976E-1,6.587134600E-1
7.047572960E-1,-2.999962568E-1,2.655093372E-1,6.587134600E-1
7.072437540E-1,-3.085181117E-1,2.814878225E-1,6.576482654E-1
7.097302120E-1,-3.159747422E-1,3.006620109E-1,6.555177569E-1
7.122166710E-1,-3.287575543E-1,3.187709749E-1,6.533873081E-1
7.147030770E-1,-3.404751122E-1,3.358147144E-1,6.523220539E-1
7.171894830E-1,-3.511274457E-1,3.528584540E-1,6.501916051E-1
7.196759940E-1,-3.596493006E-1,3.720326424E-1,6.491263509E-1
7.221624520E-1,-3.703016341E-1,3.922720551E-1,6.469959021E-1
7.246489100E-1,-3.830844164E-1,4.071853161E-1,6.448654532E-1
7.271353160E-1,-3.990629315E-1,4.231638312E-1,6.416697502E-1
7.296217750E-1,-4.097152650E-1,4.306204617E-1,6.331478953E-1
7.319449520E-1,-4.224980474E-1,4.380770922E-1,6.278216839E-1
7.344313060E-1,-4.384765327E-1,4.465989470E-1,6.214303374E-1
7.369177640E-1,-4.587159753E-1,4.529903531E-1,6.118432283E-1
7.394042230E-1,-4.778901637E-1,4.615122080E-1,6.075822711E-1
7.418906810E-1,-4.917382002E-1,4.785559475E-1,6.001256704E-1
7.443771390E-1,-5.119776130E-1,4.955996573E-1,5.937342644E-1
7.468635460E-1,-5.322170258E-1,5.169043541E-1,5.916038156E-1
7.493500040E-1,-5.481955409E-1,5.446003675E-1,5.873428583E-1
7.518364620E-1,-5.620435476E-1,5.701659918E-1,5.862776041E-1
7.543229210E-1,-5.748263597E-1,5.989272594E-1,5.841471553E-1
7.568093790E-1,-5.865439177E-1,6.362104416E-1,5.809514523E-1
7.592957850E-1,-5.950657725E-1,6.745588183E-1,5.798861980E-1
7.617822440E-1,-6.014571786E-1,7.161028981E-1,5.788210034E-1
7.640724520E-1,-6.078485847E-1,7.608426809E-1,5.734948516E-1
7.665588060E-1,-6.121095419E-1,8.066477180E-1,5.649729371E-1
7.690452640E-1,-6.174356937E-1,8.567136526E-1,5.585815907E-1
7.715317230E-1,-6.195661426E-1,9.078448415E-1,5.468640327E-1
7.740181810E-1,-6.195661426E-1,9.632369876E-1,5.319507122E-1
7.765046390E-1,-6.174356937E-1,1.021824837E0,5.202331543E-1
7.789910460E-1,-6.185009480E-1,1.079347372E0,5.053198934E-1
7.814775040E-1,-6.206313968E-1,1.143261313E0,4.872109592E-1
7.839639620E-1,-6.174356937E-1,1.208240509E0,4.701672196E-1
7.864504210E-1,-6.099790335E-1,1.272154570E0,4.520582557E-1
7.889368790E-1,-6.057181358E-1,1.340329409E0,4.339492917E-1
7.914232850E-1,-6.003919840E-1,1.409569621E0,4.190360308E-1
7.939097440E-1,-5.929353237E-1,1.482005477E0,4.009270668E-1
7.960872960E-1,-5.822830200E-1,1.549115181E0,3.785571754E-1
7.985737020E-1,-5.695002079E-1,1.619420528E0,3.593829870E-1
8.010601600E-1,-5.599130988E-1,1.692921638E0,3.370130956E-1
8.035466190E-1,-5.492607951E-1,1.765357375E0,3.157084286E-1
8.060330770E-1,-5.290213227E-1,1.838858485E0,2.944037914E-1
8.085194830E-1,-5.130428672E-1,1.913424850E0,2.720338702E-1
8.110059410E-1,-4.991948307E-1,1.987991095E0,2.475335300E-1
8.134924000E-1,-4.842815697E-1,2.064687967E0,2.187722325E-1
8.159788580E-1,-4.672378302E-1,2.141384602E0,1.900109351E-1
8.184653160E-1,-4.523245692E-1,2.208494425E0,1.601844132E-1
8.209517230E-1,-4.438027143E-1,2.271343231E0,1.260969639E-1
8.234381810E-1,-4.374113083E-1,2.328865767E0,9.200949967E-2
8.259246390E-1,-4.342156053E-1,2.379996777E0,5.366111174E-2
8.282943790E-1,-4.374113083E-1,2.431128025E0,2.063889056E-2
8.307807330E-1,-4.448679388E-1,2.476933002E0,-1.344856713E-2
8.332671910E-1,-4.565854967E-1,2.518477201E0,-5.712312087E-2
8.357536500E-1,-4.757596850E-1,2.564282179E0,-1.018629074E-1
8.382401080E-1,-4.981296062E-1,2.610087156E0,-1.434070021E-1
8.407265660E-1,-5.236951709E-1,2.651631355E0,-1.956034154E-1
8.432129730E-1,-5.513912439E-1,2.696371078E0,-2.552564740E-1
8.456994310E-1,-5.780220628E-1,2.745371819E0,-3.170399666E-1
8.481858890E-1,-6.089138389E-1,2.793307304E0,-3.788234890E-1
8.506723480E-1,-6.408708096E-1,2.836981773E0,-4.459331632E-1
8.531588060E-1,-6.728277802E-1,2.884917259E0,-5.173037648E-1
8.556452120E-1,-6.994586587E-1,2.932852745E0,-5.897396207E-1
8.581316710E-1,-7.239589691E-1,2.982918739E0,-6.653711796E-1
8.604503160E-1,-7.463288903E-1,3.039376020E0,-7.399374843E-1
8.629366710E-1,-7.676335573E-1,3.097964048E0,-8.187647462E-1
8.654231290E-1,-7.878729701E-1,3.162943125E0,-8.975919485E-1
8.679095870E-1,-8.081123829E-1,3.234313726E0,-9.796149135E-1
8.703960460E-1,-8.251561522E-1,3.311010599E0,-1.070159674E0
8.728825040E-1,-8.475260139E-1,3.395164013E0,-1.162835002E0
8.753689100E-1,-8.603088260E-1,3.481447935E0,-1.258705974E0
8.778553160E-1,-8.752220869E-1,3.571992636E0,-1.357772589E0
8.803418270E-1,-8.933310509E-1,3.665733099E0,-1.460034966E0
8.828282850E-1,-9.146357179E-1,3.766930342E0,-1.560166955E0
8.853147440E-1,-9.370055795E-1,3.865996838E0,-1.664559722E0
8.878011500E-1,-9.678973556E-1,3.967327356E0,-1.770017862E0
8.902876080E-1,-1.005180478E0,4.069589615E0,-1.871214986E0
8.925847960E-1,-1.050985575E0,4.168656349E0,-1.973477364E0
8.950711500E-1,-1.097855806E0,4.262396812E0,-2.072544098E0
8.975576080E-1,-1.141530395E0,4.349745750E0,-2.168548107E0
9.000440660E-1,-1.189465880E0,4.426442623E0,-2.261223316E0
9.025305250E-1,-1.240597010E0,4.486095905E0,-2.356029034E0
9.050169830E-1,-1.292793393E0,4.529770374E0,-2.445508718E0
9.075033890E-1,-1.342859387E0,4.551074982E0,-2.540314436E0
9.099898480E-1,-1.387599111E0,4.557466507E0,-2.628728867E0
9.124763060E-1,-1.433404207E0,4.546813965E0,-2.712882280E0
9.149627640E-1,-1.474948287E0,4.522313595E0,-2.797035694E0
9.174491710E-1,-1.510100961E0,4.487161160E0,-2.882254362E0
9.199356290E-1,-1.540992737E0,4.440290928E0,-2.968538046E0
9.224220870E-1,-1.564427853E0,4.394485474E0,-3.049495935E0
9.247129210E-1,-1.579341054E0,4.348680496E0,-3.129388332E0
9.271992750E-1,-1.582536817E0,4.294353962E0,-3.209280729E0
9.296857330E-1,-1.582536817E0,4.238961697E0,-3.289173365E0
9.321721910E-1,-1.570819259E0,4.188895702E0,-3.368000507E0
9.346586500E-1,-1.547384143E0,4.135633945E0,-3.451088667E0
9.371450560E-1,-1.513296723E0,4.078111649E0,-3.533111572E0
9.396315140E-1,-1.469622135E0,4.022719383E0,-3.619395494E0
9.421179730E-1,-1.419556141E0,3.973718643E0,-3.703548908E0
9.446044310E-1,-1.363098860E0,3.935237169E0,-3.790898085E0
9.470908890E-1,-1.302380562E0,3.907541037E0,-3.878247023E0
9.495773480E-1,-1.236336112E0,3.892627716E0,-3.965596199E0
9.520637540E-1,-1.157508850E0,3.889432192E0,-4.052945137E0
9.545502120E-1,-1.071224928E0,3.902214766E0,-4.141359806E0
9.568187020E-1,-9.753540158E-1,3.924584866E0,-4.226578236E0
9.593051080E-1,-8.709611297E-1,3.957607031E0,-4.307536125E0
9.617915660E-1,-7.665683031E-1,4.000349522E0,-4.389558792E0
9.642780250E-1,-6.600450277E-1,4.052546024E0,-4.477973461E0
9.667644830E-1,-5.663045049E-1,4.111133575E0,-4.568518162E0
9.692508890E-1,-4.800206423E-1,4.172917366E0,-4.663323879E0
9.717373480E-1,-4.097152650E-1,4.236831188E0,-4.760260105E0
9.742238060E-1,-3.564535975E-1,4.293288708E0,-4.856131077E0
9.767102640E-1,-3.170399666E-1,4.340158939E0,-4.955197811E0
9.791967230E-1,-2.978657782E-1,4.369985104E0,-5.053199291E0
9.816831290E-1,-2.946700752E-1,4.389159679E0,-5.149070263E0
9.841695870E-1,-3.042571843E-1,4.392355442E0,-5.249202251E0
9.866560460E-1,-3.308880031E-1,4.368920326E0,-5.351464272E0
9.889694310E-1,-3.649754524E-1,4.320984840E0,-5.457987785E0
9.914557850E-1,-4.011933804E-1,4.249613762E0,-5.568771839E0
9.939422440E-1,-4.501941204E-1,4.156938553E0,-5.688077927E0
9.964287020E-1,-5.066514611E-1,4.049350262E0,-5.813775539E0
9.989151600E-1,-5.641740561E-1,3.929910898E0,-5.939473152E0
1.001401619E0,-6.206313968E-1,3.810604811E0,-6.074757576E0
1.003888025E0,-6.738930345E-1,3.708342552E0,-6.215368271E0
1.006374483E0,-7.260894775E-1,3.617797613E0,-6.360239983E0
1.008860941E0,-7.655031085E-1,3.544296503E0,-6.505111694E0
1.011347400E0,-7.963948250E-1,3.493165493E0,-6.653179169E0
1.013833858E0,-8.134385943E-1,3.456947565E0,-6.795920372E0
1.016320264E0,-8.134385943E-1,3.451621294E0,-6.931204796E0
1.018806723E0,-7.921339273E-1,3.470795393E0,-7.049445629E0
1.021096723E0,-7.388722301E-1,3.522991896E0,-7.159164906E0
1.023583077E0,-6.536536217E-1,3.617797613E0,-7.252905369E0
1.026069535E0,-5.418041348E-1,3.739234209E0,-7.328536987E0
1.028555994E0,-4.065195620E-1,3.883040667E0,-7.387124538E0
1.031042452E0,-2.360822707E-1,4.046154499E0,-7.425606251E0
1.033528910E0,-4.114462435E-2,4.225113869E0,-7.435193539E0
1.036015316E0,1.750976741E-1,4.410464287E0,-7.420279980E0
1.038501775E0,4.094489515E-1,4.601140976E0,-7.371146202E0
1.040988233E0,6.565830112E-1,4.804600239E0,-7.292318821E0
1.043474691E0,9.164998531E-1,5.009125233E0,-7.177273750E0
1.045961150E0,1.180810809E0,5.199801922E0,-7.037728310E0
1.048447556E0,1.442858100E0,5.367043495E0,-6.877943516E0
1.050934014E0,1.699579239E0,5.507654190E0,-6.701114655E0
1.053224639E0,1.948843837E0,5.608851433E0,-6.516829491E0
1.055708025E0,2.178934097E0,5.671700001E0,-6.332543850E0
1.058191514E0,2.390915632E0,5.680222034E0,-6.151454449E0
1.060674952E0,2.575200796E0,5.633351803E0,-5.973560333E0
1.063158441E0,2.724333525E0,5.535350323E0,-5.800992966E0
1.065641879E0,2.845770121E0,5.384087086E0,-5.630555630E0
1.068125369E0,2.928858280E0,5.190214634E0,-5.468639851E0
1.070608858E0,2.974663258E0,4.957993984E0,-5.307789803E0
1.073092296E0,2.991706848E0,4.694881439E0,-5.150135517E0
1.075575785E0,2.973598003E0,4.394485474E0,-5.002068043E0
1.078059223E0,2.929923534E0,4.069589615E0,-4.861457348E0
1.080542712E0,2.870270491E0,3.725386143E0,-4.731498718E0
1.083026150E0,2.789312601E0,3.363206863E0,-4.611127377E0
1.085354952E0,2.701963663E0,2.995701551E0,-4.498212814E0
1.087838337E0,2.610353470E0,2.628196239E0,-4.399146080E0
1.090321827E0,2.524069548E0,2.283060789E0,-4.304340363E0
1.092805264E0,2.447372913E0,1.970947385E0,-4.210599899E0
1.095288754E0,2.379198074E0,1.698247790E0,-4.116859436E0
1.097772191E0,2.334458113E0,1.496918678E0,-4.038032055E0
1.100255681E0,2.313153505E0,1.347786069E0,-3.963465691E0
1.102739171E0,2.300370693E0,1.201849103E0,-3.880377531E0
1.105222608E0,2.308892488E0,1.089999676E0,-3.800485134E0
1.107706046E0,2.338719130E0,1.018629074E0,-3.720592737E0
1.110189535E0,2.391980648E0,9.941287041E-1,-3.635374069E0
1.112673025E0,2.465481758E0,1.029281378E0,-3.539503098E0
1.115156462E0,2.563483238E0,1.119826198E0,-3.425523043E0
1.117343650E0,2.685985088E0,1.251915097E0,-3.293434143E0
1.119827139E0,2.810617447E0,1.381873488E0,-3.138975382E0
1.122310577E0,2.924597263E0,1.502244830E0,-2.971733809E0
1.124794066E0,3.019402981E0,1.644986153E0,-2.803426981E0
1.127277504E0,3.055620909E0,1.875076413E0,-2.609554529E0
1.129760994E0,2.913944960E0,2.416214705E0,-2.303832769E0
1.132244431E0,2.459090471E0,3.369598389E0,-1.784931064E0
1.134727921E0,1.846581459E0,4.362528801E0,-1.157508850E0
1.137211358E0,1.306508303E0,5.073039055E0,-5.993267298E-1
1.139694848E0,9.314131141E-1,5.409652710E0,-1.785596907E-1
1.142178285E0,7.407364249E-1,5.362782478E0,6.644391268E-2
1.144661775E0,6.917356849E-1,5.047473431E0,1.580539495E-1
1.147128702E0,7.109099030E-1,4.585162163E0,1.399449855E-1
1.149612087E0,7.439321280E-1,4.055741787E0,4.940018058E-2
1.152095577E0,7.247579098E-1,3.556014061E0,-1.135804728E-1
1.154579014E0,6.587134600E-1,3.064941645E0,-2.872134447E-1
1.157062504E0,5.820167065E-1,2.455628395E0,-3.852148950E-1
1.159545941E0,4.701672196E-1,1.772814035E0,-4.459331632E-1
1.162029431E0,3.007951677E-1,1.107043386E0,-5.013253093E-1
1.164512921E0,7.390054315E-2,4.742949903E-1,-5.364779830E-1
1.166996358E0,-1.956034154E-1,-1.296921223E-1,-5.929353237E-1
1.169479848E0,-4.832163453E-1,-6.942656040E-1,-7.005238533E-1
1.171963285E0,-7.356765866E-1,-1.153381109E0,-7.793511152E-1
1.174446775E0,-9.071790576E-1,-1.489062667E0,-7.910686731E-1
1.176930212E0,-9.945281744E-1,-1.750044703E0,-7.623074055E-1
1.179266983E0,-1.024354696E0,-1.968417525E0,-7.196980715E-1
1.181750369E0,-9.945281744E-1,-2.122876167E0,-6.621754766E-1
1.184233858E0,-8.890700936E-1,-2.163355112E0,-5.833482146E-1
1.186717296E0,-7.186328173E-1,-2.105832577E0,-5.098471642E-1
1.189200785E0,-5.162385702E-1,-2.004635334E0,-4.555202723E-1
1.191684223E0,-2.872134447E-1,-1.854437590E0,-4.193023443E-1
1.194167712E0,-2.836182900E-2,-1.676543593E0,-3.958672285E-1
1.196651202E0,2.422073632E-1,-1.506106377E0,-3.788234890E-1
1.199134639E0,5.095808506E-1,-1.350582361E0,-3.692364097E-1
1.201618129E0,7.513887286E-1,-1.233273506E0,-3.671059310E-1
1.204101566E0,9.718919992E-1,-1.151250601E0,-3.607145250E-1
1.206585004E0,1.174419403E0,-1.085206151E0,-3.415403366E-1
1.209068494E0,1.353378534E0,-1.042596817E0,-3.223661482E-1
1.211393910E0,1.496119738E0,-1.024487853E0,-3.085181117E-1
1.213877296E0,1.604773521E0,-1.015965939E0,-2.957353294E-1
1.216360785E0,1.684666038E0,-1.022357345E0,-2.914743721E-1
1.218844223E0,1.758167148E0,-1.033009768E0,-2.850829959E-1
1.221327712E0,1.835929155E0,-1.043662071E0,-2.861482203E-1
1.223811150E0,1.901973605E0,-1.033009768E0,-3.053224087E-1
1.226294639E0,1.958430886E0,-1.009574652E0,-3.276923001E-1
1.228778129E0,2.021279573E0,-1.002117991E0,-3.479317427E-1
1.231261566E0,2.093715429E0,-9.904004335E-1,-3.830844164E-1
1.233745056E0,2.112889767E0,-8.923989534E-1,-4.310199022E-1
1.236228494E0,2.073476076E0,-7.379401922E-1,-4.789553881E-1
1.238711983E0,2.058562756E0,-6.921351552E-1,-5.013253093E-1
1.241195421E0,2.126737833E0,-7.794842720E-1,-5.045210123E-1
1.243486150E0,2.250304699E0,-9.179645777E-1,-5.119776130E-1
1.245969535E0,2.365350008E0,-1.018096447E0,-5.268908739E-1
1.248453025E0,2.442046642E0,-1.048988223E0,-5.481955409E-1
1.250936462E0,2.463351250E0,-9.978570342E-1,-5.716306567E-1
1.253419952E0,2.429263830E0,-9.009208083E-1,-5.918700695E-1
1.255903389E0,2.366415262E0,-7.635057569E-1,-5.737611651E-1
1.258386879E0,2.314218760E0,-6.090469956E-1,-5.503259897E-1
1.260870316E0,2.290783644E0,-5.451329947E-1,-5.631088018E-1
1.263353806E0,2.265218019E0,-4.833494723E-1,-5.961310267E-1
1.265837296E0,2.193847418E0,-3.320863843E-1,-6.366099119E-1
1.268320733E0,2.093715429E0,-1.946713328E-1,-6.824148893E-1
1.270804223E0,2.040453911E0,-1.999974996E-1,-7.207632661E-1
1.273287660E0,2.044714689E0,-2.798899710E-1,-7.591117024E-1
1.275649275E0,2.024475336E0,-2.894770801E-1,-8.059819341E-1
1.278132660E0,1.948843837E0,-2.159759998E-1,-8.613740802E-1
1.280616150E0,1.828472495E0,-1.169093251E-1,-9.210271239E-1
1.283099587E0,1.764558554E0,-1.296921223E-1,-9.615059495E-1
1.285583077E0,1.848711967E0,-3.363473415E-1,-9.945281744E-1
1.288066514E0,2.084128380E0,-6.740261912E-1,-1.031811357E0
1.290550004E0,2.303566456E0,-8.284850121E-1,-1.094660044E0
1.293033494E0,2.357893229E0,-6.772218943E-1,-1.166030645E0
1.295516931E0,2.264152765E0,-3.821523488E-1,-1.218227148E0
1.298000421E0,2.096911192E0,-1.147788614E-1,-1.248053670E0
1.300483858E0,1.933930516E0,3.462007269E-3,-1.269358277E0
1.302967348E0,1.807167768E0,-3.595161438E-2,-1.301315308E0
1.305450785E0,1.694253087E0,-1.222354919E-1,-1.357772589E0
1.307651046E0,1.557903290E0,-2.010627389E-1,-1.427012801E0
1.310134535E0,1.351248145E0,-2.085193694E-1,-1.504774809E0
1.312617973E0,1.142462373E0,-2.159759998E-1,-1.581471562E0
1.315101462E0,1.039001703E0,-4.322183132E-1,-1.617689490E0
1.317584900E0,9.143694043E-1,-5.589810014E-1,-1.626211405E0
1.320068389E0,6.768224239E-1,-4.716319144E-1,-1.667755485E0
1.322551827E0,5.873428583E-1,-6.207645535E-1,-1.715690970E0
1.325035316E0,7.513887286E-1,-1.019161701E0,-1.700777650E0
1.327518754E0,9.921314120E-1,-1.293991804E0,-1.670951128E0
1.330002244E0,1.175484657E0,-1.385735035E0,-1.684799194E0
1.332485681E0,1.299051642E0,-1.370821714E0,-1.719951868E0
1.334969171E0,1.398118377E0,-1.317426920E0,-1.780670166E0
1.337295212E0,1.602643132E0,-1.527410984E0,-1.797713876E0
1.339778702E0,1.915821552E0,-1.820350051E0,-1.745517492E0
1.342262139E0,2.140585661E0,-1.858698487E0,-1.708234310E0
1.344745629E0,2.108628750E0,-1.391061187E0,-1.652842164E0
1.347229066E0,1.857233763E0,-6.612433791E-1,-1.549514532E0
1.349712556E0,1.571751356E0,-1.861494780E-1,-1.436599851E0
1.352195994E0,1.381074667E0,-1.158440933E-1,-1.342859387E0
1.354679483E0,1.300116897E0,-3.086512685E-1,-1.283206344E0
1.357162921E0,1.263898969E0,-6.133078933E-1,-1.271488786E0
1.359646410E0,1.214898229E0,-9.168993235E-1,-1.307706714E0
1.362129848E0,1.130744815E0,-1.137402534E0,-1.367359757E0
1.364613337E0,1.004914165E0,-1.255643368E0,-1.424882293E0
1.367089848E0,8.451292515E-1,-1.339929938E0,-1.473883033E0
1.369573233E0,6.736267209E-1,-1.405974388E0,-1.501579046E0
1.372056723E0,5.308855176E-1,-1.408104897E0,-1.498383403E0
1.374540160E0,4.105141759E-1,-1.350582361E0,-1.482404947E0
1.377023650E0,3.220998347E-1,-1.265230536E0,-1.481339693E0
1.379507087E0,2.784252763E-1,-1.173620462E0,-1.483470082E0
1.381990577E0,2.581858635E-1,-1.052183867E0,-1.472817779E0
1.384474066E0,2.656424940E-1,-9.115731716E-1,-1.465361238E0
1.386957504E0,2.901428342E-1,-7.794842720E-1,-1.461100221E0
1.389440994E0,3.284912407E-1,-6.708304882E-1,-1.464295983E0
1.391924431E0,3.732310236E-1,-5.675029159E-1,-1.462165475E0
1.394407921E0,4.201012850E-1,-4.620448351E-1,-1.461100221E0
1.396891358E0,4.584496617E-1,-3.757609427E-1,-1.462165475E0
1.399218129E0,4.882761836E-1,-3.129121959E-1,-1.453643560E0
1.401701514E0,5.085155964E-1,-2.543243766E-1,-1.447252274E0
1.404185004E0,5.181027055E-1,-2.053236663E-1,-1.440860868E0
1.406668441E0,5.170374513E-1,-1.733666807E-1,-1.430208445E0
1.409151931E0,4.978632927E-1,-1.584534049E-1,-1.421686649E0
1.411635369E0,4.722976983E-1,-1.573881805E-1,-1.415295243E0
1.414118858E0,4.446016252E-1,-1.669752747E-1,-1.411034346E0
1.416602348E0,4.073184729E-1,-1.850842386E-1,-1.406773329E0
1.419085785E0,3.657743931E-1,-2.138455361E-1,-1.393990517E0
1.421569275E0,3.231650591E-1,-2.372806519E-1,-1.378012061E0
1.424052712E0,2.901428342E-1,-2.479329854E-1,-1.369490266E0
1.426536202E0,2.677729428E-1,-2.575200796E-1,-1.365229249E0
1.429019639E0,2.528596818E-1,-2.617810071E-1,-1.363098860E0
1.431346462E0,2.411421239E-1,-2.575200796E-1,-1.359903097E0
1.433829848E0,2.304897904E-1,-2.468677461E-1,-1.350316048E0
1.436313337E0,2.251636237E-1,-2.287587970E-1,-1.350316048E0
1.438796775E0,2.177069932E-1,-2.074541301E-1,-1.350316048E0
1.441280264E0,2.059894353E-1,-1.861494780E-1,-1.356707454E0
1.443763702E0,1.921414137E-1,-1.584534049E-1,-1.373751163E0
1.446247191E0,1.740324497E-1,-1.318225861E-1,-1.392925382E0
1.448730681E0,1.474016160E-1,-1.030612960E-1,-1.414229989E0
1.451214119E0,1.154446304E-1,-8.175663650E-2,-1.440860868E0
1.453697608E0,8.455286920E-2,-6.790860742E-2,-1.467491627E0
1.456181046E0,5.153064802E-2,-5.938674137E-2,-1.489861488E0
1.458664535E0,1.211702544E-2,-5.086487532E-2,-1.514361858E0
1.461147973E0,-2.836182900E-2,-3.808208182E-2,-1.535666585E0
1.463476983E0,-6.671021879E-2,-2.103835158E-2,-1.561232209E0
1.465960369E0,-1.093195379E-1,6.657706574E-3,-1.591058731E0
1.468443858E0,-1.561897993E-1,3.967992961E-2,-1.623015642E0
1.470927296E0,-2.137123793E-1,7.270215452E-2,-1.664559722E0
1.473410785E0,-2.786915898E-1,8.441971987E-2,-1.700777650E0
1.475894223E0,-3.788234890E-1,6.098458916E-2,-1.711429954E0
1.478377712E0,-5.268908739E-1,1.600512564E-1,-1.668820739E0
1.480861202E0,-6.621754766E-1,3.837502003E-1,-1.614493847E0
1.483344639E0,-7.303503752E-1,5.435351729E-1,-1.621950388E0
1.485828129E0,-7.388722301E-1,6.085143685E-1,-1.672016382E0
1.488311566E0,-7.111762166E-1,6.639064550E-1,-1.752974153E0
1.490795056E0,-6.781539917E-1,7.384728193E-1,-1.856301665E0
1.493278494E0,-6.738930345E-1,8.364742398E-1,-1.951107383E0
1.495601879E0,-6.824148893E-1,9.472584724E-1,-2.036326170E0
1.498085264E0,-7.026543617E-1,1.065499306E0,-2.093848705E0
1.500568754E0,-7.378070354E-1,1.166696429E0,-2.126870871E0
1.503052191E0,-7.974600792E-1,1.252980351E0,-2.151504517E0
1.505535681E0,-8.720263839E-1,1.326481462E0,-2.178135157E0
1.508019119E0,-9.668321013E-1,1.387199759E0,-2.191983223E0
1.510502608E0,-1.097855806E0,1.438330889E0,-2.140851974E0
1.512986098E0,-1.270423532E0,1.488396883E0,-2.051239252E0
1.515469535E0,-1.408903837E0,1.537397504E0,-2.041652203E0
1.517953025E0,-1.501579046E0,1.562963128E0,-2.089587688E0
1.520436462E0,-1.551645041E0,1.512897253E0,-2.187722206E0
1.522919952E0,-1.570819259E0,1.421287179E0,-2.320876360E0
1.525403389E0,-1.582536817E0,1.366960287E0,-2.448704481E0
1.527733025E0,-1.584667325E0,1.353112221E0,-2.562684298E0
1.530216410E0,-1.574014902E0,1.365895033E0,-2.667077065E0
1.532699900E0,-1.569754004E0,1.401047707E0,-2.739512920E0
1.535183337E0,-1.551645041E0,1.447917938E0,-2.774665833E0
1.537666827E0,-1.521818519E0,1.495853424E0,-2.775730848E0
1.540150264E0,-1.485600591E0,1.540593266E0,-2.732056379E0
1.542633754E0,-1.474948287E0,1.627942324E0,-2.642576933E0
1.545117244E0,-1.537796974E0,1.735530853E0,-2.525401115E0
1.547600681E0,-1.594254375E0,1.834597588E0,-2.483857155E0
1.550084171E0,-1.632602811E0,1.915555239E0,-2.508357525E0
1.552567608E0,-1.650711775E0,1.946447015E0,-2.569075823E0
1.555051098E0,-1.638994217E0,1.900642037E0,-2.647902966E0
1.557534535E0,-1.615558982E0,1.802640557E0,-2.725665092E0
1.559862869E0,-1.591058731E0,1.686530232E0,-2.781057119E0
1.562343858E0,-1.583602071E0,1.573615432E0,-2.806622744E0
1.564824952E0,-1.581471562E0,1.475614071E0,-2.815144539E0
1.567305994E0,-1.579341054E0,1.423417687E0,-2.806622744E0
1.569787035E0,-1.565493107E0,1.426613331E0,-2.766143799E0
1.572268077E0,-1.538862228E0,1.430874228E0,-2.650033474E0
1.574749119E0,-1.523949027E0,1.445787549E0,-2.480661392E0
1.577230160E0,-1.487731099E0,1.483070731E0,-2.352833509E0
1.579711254E0,-1.435534596E0,1.512897253E0,-2.248440504E0
1.582192296E0,-1.364163995E0,1.508636236E0,-2.176004648E0
1.584673337E0,-1.272554040E0,1.452178955E0,-2.123675108E0
1.587154379E0,-1.187335372E0,1.352046967E0,-2.065087318E0
1.589635473E0,-1.112769008E0,1.206110120E0,-2.002238512E0
1.591978598E0,-1.055246472E0,1.028216124E0,-1.937259436E0
1.594459587E0,-1.022224188E0,8.524527550E-1,-1.858432174E0
1.596940681E0,-1.015832901E0,7.011896372E-1,-1.776409268E0
1.599421723E0,-1.028615594E0,5.786878467E-1,-1.684799194E0
1.601902764E0,-1.053115964E0,4.615122080E-1,-1.592123866E0
1.604383806E0,-1.074420691E0,3.507279754E-1,-1.510100961E0
1.606864848E0,-1.097855806E0,2.612484097E-1,-1.418490887E0
1.609345941E0,-1.118095160E0,2.069215178E-1,-1.300250053E0
1.611826983E0,-1.139399886E0,1.792254597E-1,-1.204379082E0
1.614308025E0,-1.171356916E0,2.026605755E-1,-1.125551820E0
1.616789066E0,-1.215031385E0,2.250304818E-1,-1.068029284E0
1.619270108E0,-1.267227888E0,2.527265251E-1,-1.045659423E0
1.621751202E0,-1.299184799E0,2.825530469E-1,-1.042463660E0
1.624113285E0,-1.302380562E0,2.846835256E-1,-1.023289442E0
1.626594275E0,-1.287467241E0,2.750964165E-1,-9.828106165E-1
1.629075369E0,-1.274684429E0,2.591179311E-1,-9.252880216E-1
1.631556410E0,-1.264032125E0,2.356828004E-1,-8.698959351E-1
1.634037452E0,-1.255510330E0,2.101172209E-1,-8.272866011E-1
1.636518494E0,-1.254445076E0,2.111824453E-1,-7.953296304E-1
1.638999535E0,-1.274684429E0,2.516613007E-1,-7.708292603E-1
1.641480629E0,-1.308771968E0,2.910749316E-1,-7.484593391E-1
1.643961671E0,-1.336467981E0,3.027924895E-1,-7.335460782E-1
1.646442712E0,-1.349250793E0,2.857487500E-1,-7.282199264E-1
1.648923754E0,-1.358837843E0,2.463351339E-1,-7.271546721E-1
1.651404796E0,-1.379077315E0,2.058562785E-1,-7.441984415E-1
1.653885889E0,-1.397186279E0,1.717688292E-1,-7.708292603E-1
1.656099066E0,-1.397186279E0,1.291595101E-1,-7.900034189E-1
1.658580056E0,-1.382272959E0,1.003982127E-1,-8.038514853E-1
1.661061098E0,-1.362033606E0,1.046591476E-1,-8.123733401E-1
1.663542139E0,-1.317293763E0,8.655018359E-2,-8.123733401E-1
1.666023233E0,-1.258705974E0,7.802832127E-2,-7.900034189E-1
1.668504275E0,-1.208639979E0,1.174419373E-1,-7.527202964E-1
1.670985316E0,-1.172422051E0,1.717688292E-1,-7.250242233E-1
1.673466358E0,-1.144726038E0,2.271609455E-1,-7.111762166E-1
1.675947400E0,-1.133008480E0,2.761616707E-1,-6.983934045E-1
1.678428494E0,-1.128747582E0,3.113143444E-1,-6.866758466E-1
1.680909535E0,-1.144726038E0,3.006620109E-1,-6.962629557E-1
1.683390577E0,-1.179878712E0,2.793573737E-1,-7.271546721E-1
1.685871619E0,-1.215031385E0,2.559222281E-1,-7.431331873E-1
1.688371150E0,-1.252314568E0,2.090519816E-1,-7.697640061E-1
1.690852139E0,-1.281075835E0,1.493989378E-1,-8.059819341E-1
1.693333233E0,-1.291728139E0,9.187635034E-2,-8.219604492E-1
1.695814275E0,-1.314098120E0,9.081111848E-2,-8.336780071E-1
1.698295316E0,-1.295989156E0,4.926702753E-2,-8.123733401E-1
1.700776358E0,-1.234205604E0,-2.636451647E-2,-7.804163694E-1
1.703257400E0,-1.192661524E0,-5.832150951E-2,-7.676335573E-1
1.705738494E0,-1.174552560E0,-6.790860742E-2,-7.473941445E-1
1.708219535E0,-1.183074474E0,-3.914731368E-2,-7.154371142E-1
1.710700577E0,-1.216096640E0,3.115806542E-2,-6.770887375E-1
1.713181619E0,-1.202248573E0,1.624480449E-2,-6.227618456E-1
1.715662660E0,-1.173487306E0,-4.021254554E-2,-5.940005779E-1
1.718143754E0,-1.162835002E0,-8.175663650E-2,-5.940005779E-1
1.720501098E0,-1.157508850E0,-1.275616586E-1,-5.908048749E-1
1.722982087E0,-1.184139609E0,-1.083874628E-1,-5.993267298E-1
1.725463181E0,-1.180943966E0,-1.275616586E-1,-5.876091719E-1
1.727944223E0,-1.108508110E0,-2.479329854E-1,-5.822830200E-1
1.730425264E0,-1.045659423E0,-3.097164929E-1,-6.206313968E-1
1.732906306E0,-1.026485205E0,-3.043903410E-1,-6.589797735E-1
1.735387348E0,-1.081877232E0,-1.968017966E-1,-6.866758466E-1
1.737868441E0,-1.123421431E0,-8.282186836E-2,-6.611102223E-1
1.740349483E0,-1.069094539E0,-9.347419441E-2,-6.174356937E-1
1.742830525E0,-9.465926886E-1,-1.723014414E-1,-5.833482146E-1
1.745311566E0,-7.889382243E-1,-2.564548552E-1,-5.407389402E-1
1.747792608E0,-7.207632661E-1,-1.605838835E-1,-5.226299763E-1
1.750273702E0,-7.367417812E-1,-4.979964346E-2,-5.279561281E-1
1.752625994E0,-6.824148893E-1,-1.392792165E-1,-5.716306567E-1
1.755106983E0,-6.035876870E-1,-2.095845938E-1,-5.993267298E-1
1.757588077E0,-5.162385702E-1,-2.734985650E-1,-6.302185059E-1
1.760069119E0,-4.757596850E-1,-2.766942680E-1,-7.069152594E-1
1.762550160E0,-5.130428672E-1,9.853405878E-3,-7.058500051E-1
1.765031202E0,-6.387403607E-1,2.932053804E-1,-6.579145193E-1
1.767512244E0,-6.664364338E-1,4.167724252E-1,-6.536536217E-1
1.769993337E0,-3.415403366E-1,5.371437669E-1,-6.557840705E-1
1.772474379E0,-7.097115368E-2,4.742949903E-1,-6.270228028E-1
1.774955421E0,-1.945381761E-1,3.464670479E-1,-5.705654621E-1
1.777436462E0,-4.193023443E-1,2.921401560E-1,-5.034557581E-1
1.779917504E0,-5.151733160E-1,2.719007432E-1,-4.310199022E-1
1.782398598E0,-5.780220628E-1,2.505960763E-1,-3.596493006E-1
1.784754119E0,-6.248922944E-1,1.749645174E-1,-2.808220685E-1
1.787235108E0,-6.419360638E-1,1.344856620E-1,-1.870815456E-1
1.789716202E0,-6.557840705E-1,1.792254597E-1,-1.018629074E-1
1.792197244E0,-6.589797735E-1,2.655093372E-1,-4.007939249E-2
1.794678285E0,-6.387403607E-1,3.805544972E-1,-7.057168987E-3
1.797159327E0,-5.982614756E-1,4.242290556E-1,1.957365684E-2
1.799640369E0,-5.854787230E-1,3.805544972E-1,3.022598661E-2
1.802121462E0,-6.067833900E-1,3.677717149E-1,2.276935615E-2
1.804602504E0,-6.323489547E-1,4.157072008E-1,-1.131810062E-2
1.807083546E0,-6.451317668E-1,3.517931998E-1,3.342168778E-2
1.809564587E0,-6.302185059E-1,2.101172209E-1,1.186403260E-1
1.812045629E0,-6.121095419E-1,6.737598777E-2,1.729672104E-1
1.814526723E0,-6.121095419E-1,-5.725627393E-2,2.027937323E-1
1.816860785E0,-6.163704395E-1,-1.509967744E-1,2.209026963E-1
1.819341775E0,-6.174356937E-1,-2.042584270E-1,2.145113051E-1
1.821822816E0,-6.238270998E-1,-2.202369273E-1,1.964023411E-1
1.824303858E0,-6.025224328E-1,-2.862813771E-1,2.283593267E-1
1.826784952E0,-5.673697591E-1,-3.970656097E-1,2.667077184E-1
1.829265994E0,-5.492607951E-1,-4.854799509E-1,2.730991244E-1
1.831747035E0,-5.609783530E-1,-5.046541691E-1,2.475335300E-1
1.834228077E0,-5.705654621E-1,-5.142412186E-1,2.443378270E-1
1.836709119E0,-5.726959109E-1,-5.270240307E-1,2.667077184E-1
1.839190212E0,-5.695002079E-1,-5.248935819E-1,2.677729428E-1
1.841671254E0,-5.673697591E-1,-5.408720970E-1,2.677729428E-1
1.844152296E0,-5.737611651E-1,-6.804175973E-1,2.816209793E-1
1.846633337E0,-5.769568086E-1,-8.018541336E-1,3.039908707E-1
1.849001254E0,-5.876091719E-1,-8.007889390E-1,3.231650591E-1
1.851482244E0,-6.003919840E-1,-7.698971629E-1,3.540568352E-1
1.853963337E0,-6.131747365E-1,-7.400706410E-1,3.924052119E-1
1.856444379E0,-6.280879974E-1,-7.059831619E-1,4.392754734E-1
1.858925421E0,-6.472622156E-1,-6.601781845E-1,4.978632927E-1
1.861406462E0,-6.653711796E-1,-5.813509226E-1,5.543206334E-1
1.863887504E0,-6.781539917E-1,-4.524577260E-1,5.841471553E-1
1.866368598E0,-6.920019984E-1,-3.065207899E-1,5.692338943E-1
1.868849639E0,-7.143719196E-1,-1.797580719E-1,5.319507122E-1
1.871330681E0,-7.463288903E-1,-1.041265279E-1,4.403406978E-1
1.873811723E0,-7.772206664E-1,5.592473317E-3,3.071865737E-1
1.876292764E0,-8.102428913E-1,1.717688292E-1,1.569887102E-1
1.878773858E0,-8.315475583E-1,3.198362291E-1,-3.861469682E-3
1.881135316E0,-8.507217169E-1,4.870778024E-1,-1.221023351E-1
1.883616306E0,-9.007876515E-1,6.404713392E-1,-2.296908647E-1
1.886097400E0,-9.849410653E-1,7.693645358E-1,-3.724320829E-1
1.888578441E0,-1.076551080E0,9.270190597E-1,-5.258256793E-1
1.891059483E0,-1.146856546E0,1.113434792E0,-6.461969614E-1
1.893540525E0,-1.207574844E0,1.331807613E0,-7.559159994E-1
1.896021566E0,-1.286401987E0,1.615159631E0,-9.082443118E-1
1.898502660E0,-1.402512431E0,1.945381761E0,-1.117030025E0
1.900983702E0,-1.551645041E0,2.268147469E0,-1.363098860E0
1.903464744E0,-1.700777650E0,2.496107340E0,-1.607037187E0
1.905945785E0,-1.844584107E0,2.605826378E0,-1.808366179E0
1.908426827E0,-1.992651582E0,2.731523752E0,-1.939389825E0
1.910907921E0,-2.132197142E0,2.879591227E0,-2.012891054E0
1.913268025E0,-2.261090279E0,3.144834280E0,-2.089587688E0
1.915749014E0,-2.384657383E0,3.508078575E0,-2.204766035E0
1.918230108E0,-2.510354757E0,3.774386883E0,-2.342181206E0
1.920711150E0,-2.573203564E0,3.864931822E0,-2.457226276E0
1.923192191E0,-2.540181398E0,3.774386883E0,-2.523270607E0
1.925673233E0,-2.453897476E0,3.505948305E0,-2.552031994E0
1.928154275E0,-2.328199863E0,3.035115242E0,-2.539249182E0
1.930635369E0,-2.117283821E0,2.326735258E0,-2.470009089E0
1.933116410E0,-1.796648622E0,1.438330889E0,-2.335789680E0
1.935597452E0,-1.383338213E0,5.286219120E-1,-2.140851974E0
1.938078494E0,-9.295489788E-1,-2.607157826E-1,-1.917019963E0
1.940559535E0,-4.906729758E-1,-8.455287218E-1,-1.683733940E0
1.943040629E0,-1.167761683E-1,-1.192794681E0,-1.454708815E0
1.945395004E0,1.569887102E-1,-1.285470009E0,-1.234205604E0
1.947875994E0,3.210346103E-1,-1.186403275E0,-1.035007000E0
1.950357087E0,3.977313936E-1,-1.003183246E0,-8.752220869E-1
1.952838129E0,4.264926612E-1,-8.029193878E-1,-7.559159994E-1
1.955319171E0,4.190360308E-1,-6.058512926E-1,-6.728277802E-1
1.957800212E0,3.870790601E-1,-4.162397981E-1,-6.291532516E-1
1.960281254E0,3.423392773E-1,-2.181064636E-1,-6.142399907E-1
1.962762348E0,2.773600519E-1,-9.320789017E-3,-6.195661426E-1
1.965243389E0,2.027937323E-1,1.930734813E-1,-6.291532516E-1
1.967724431E0,1.271621883E-1,3.773587942E-1,-6.312837005E-1
1.970205473E0,4.726971686E-2,5.435351729E-1,-6.238270998E-1
1.972686514E0,-3.049229458E-2,6.756240726E-1,-6.142399907E-1
1.975167608E0,-8.588441461E-2,7.619079351E-1,-5.971962810E-1
1.977377921E0,-1.114500016E-1,8.002563119E-1,-5.748263597E-1
1.979858962E0,-1.146457046E-1,8.055824637E-1,-5.471302867E-1
1.982340004E0,-9.334104508E-2,8.045172691E-1,-5.215647221E-1
1.984821098E0,-6.244928762E-2,7.864083052E-1,-4.981296062E-1
1.987302139E0,-2.303566411E-2,7.640383840E-1,-4.746944606E-1
1.989783181E0,2.276935615E-2,7.363423109E-1,-4.565854967E-1
1.992264223E0,7.177007198E-2,7.150376439E-1,-4.331503808E-1
1.994745264E0,1.260969639E-1,7.192986012E-1,-4.107804894E-1
1.997226306E0,1.846847683E-1,7.789516449E-1,-3.873453438E-1
1.999707400E0,2.358159572E-1,8.439308405E-1,-3.543231487E-1
2.002188441E0,2.677729428E-1,8.726921678E-1,-3.202356696E-1
2.004669483E0,2.816209793E-1,8.769530654E-1,-2.936048508E-1
2.007171879E0,2.890776098E-1,8.556483984E-1,-2.616478503E-1
2.009652869E0,2.890776098E-1,8.077129126E-1,-2.286256403E-1
2.012133910E0,2.837514579E-1,7.544512749E-1,-2.030600458E-1
2.014615004E0,2.677729428E-1,7.033200860E-1,-1.806901544E-1
2.017096046E0,2.390116602E-1,6.468627453E-1,-1.561897993E-1
2.019577087E0,2.049241960E-1,6.010577083E-1,-1.370155960E-1
2.022058129E0,1.623148769E-1,5.648398399E-1,-1.135804728E-1
2.024539171E0,1.197055578E-1,5.169043541E-1,-9.547150880E-2
2.027020264E0,7.390054315E-2,4.593817294E-1,-8.694964647E-2
2.029501306E0,2.703028731E-2,3.880111277E-1,-7.203638554E-2
2.031982348E0,-2.090519853E-2,3.102491200E-1,-5.818835273E-2
2.034463389E0,-6.884068251E-2,2.229000032E-1,-4.434032366E-2
2.036944483E0,-1.093195379E-1,1.291595101E-1,-3.475322574E-2
2.039310264E0,-1.508636326E-1,4.074516147E-2,-2.197043039E-2
2.041791254E0,-1.849510819E-1,-3.488638252E-2,-7.057168987E-3
2.044272348E0,-2.147776037E-1,-1.243659556E-1,2.529928461E-3
2.046753389E0,-2.414084375E-1,-2.191716880E-1,1.318225823E-2
2.049234431E0,-2.659088075E-1,-3.001294136E-1,2.596505545E-2
2.051715473E0,-2.914743721E-1,-3.736304939E-1,3.768261895E-2
2.054196514E0,-3.202356696E-1,-4.354139864E-1,4.833494872E-2
2.056677608E0,-3.543231487E-1,-4.748276174E-1,6.537867337E-2
2.059158650E0,-3.852148950E-1,-5.025236607E-1,8.668334037E-2
2.061639691E0,-4.118457139E-1,-5.280892849E-1,1.037270650E-1
2.064120733E0,-4.320851564E-1,-5.472634435E-1,1.197055578E-1
2.066601775E0,-4.352808297E-1,-5.664376616E-1,1.367492825E-1
2.069082869E0,-4.331503808E-1,-5.802856684E-1,1.495320797E-1
2.071416462E0,-4.161066413E-1,-5.834813714E-1,1.740324497E-1
2.073895525E0,-3.894758224E-1,-5.717638135E-1,1.995980442E-1
2.076374587E0,-3.564535975E-1,-5.451329947E-1,2.294245660E-1
2.078853702E0,-3.106485903E-1,-5.206326246E-1,2.592510879E-1
2.081332816E0,-2.648435533E-1,-4.812190235E-1,2.848166823E-1
2.083811879E0,-2.126471400E-1,-4.311530590E-1,2.997299433E-1
2.086290994E0,-1.615159512E-1,-3.715000153E-1,3.061213493E-1
2.088770108E0,-1.242327988E-1,-3.065207899E-1,3.050560951E-1
2.091249171E0,-1.711030602E-1,-2.489982247E-1,3.061213493E-1
2.093728285E0,-4.438027143E-1,-2.170412242E-1,3.167736828E-1
2.096207348E0,-7.026543617E-1,-2.298240215E-1,3.295564651E-1
2.098686462E0,-8.038514853E-1,-2.862813771E-1,3.274259865E-1
2.101165577E0,-8.912006021E-1,-3.821523488E-1,3.252955377E-1
2.103546358E0,-9.774844646E-1,-5.131760240E-1,3.167736828E-1
2.106025421E0,-1.042463660E0,-6.495258212E-1,3.103822768E-1
2.108504483E0,-1.089333892E0,-7.954627872E-1,2.975994647E-1
2.110983598E0,-1.123421431E0,-9.477910995E-1,2.794905007E-1
2.113462712E0,-1.137269378E0,-1.090532303E0,2.560553849E-1
2.115941775E0,-1.130877972E0,-1.188533783E0,2.304897904E-1
2.118420889E0,-1.119160414E0,-1.246056318E0,1.921414137E-1
2.120900004E0,-1.114899516E0,-1.270556688E0,1.537930220E-1
2.123379066E0,-1.109573364E0,-1.274817586E0,1.122489274E-1
2.125858181E0,-1.110638618E0,-1.264165282E0,7.496577501E-2
2.128337244E0,-1.112769008E0,-1.226882100E0,3.235645220E-2
2.130816358E0,-1.109573364E0,-1.154446244E0,-1.131810062E-2
2.133295473E0,-1.095725298E0,-1.045792580E0,-6.777545065E-2
2.135670994E0,-1.070159674E0,-9.190297723E-1,-1.348851323E-1
2.138150056E0,-1.036072254E0,-7.986584306E-1,-2.105166763E-1
2.140629119E0,-9.923977256E-1,-6.761566401E-1,-2.872134447E-1
2.143108233E0,-9.636363983E-1,-6.111774445E-1,-3.671059310E-1
2.145587348E0,-9.657669067E-1,-8.252893090E-1,-4.597811997E-1
2.148066410E0,-9.636363983E-1,-1.120358825E0,-5.535216928E-1
2.150545525E0,-9.199618697E-1,-9.712262154E-1,-6.185009480E-1
2.153024639E0,-8.485912681E-1,-7.272878289E-1,-6.717625856E-1
2.155503702E0,-7.772206664E-1,-6.228950024E-1,-7.196980715E-1
2.157982816E0,-7.069152594E-1,-5.461982489E-1,-7.473941445E-1
2.160461879E0,-6.259575486E-1,-4.407401681E-1,-7.559159994E-1
2.162940994E0,-5.609783530E-1,-3.235645294E-1,-7.452636361E-1
2.165420108E0,-5.311518312E-1,-1.509967744E-1,-7.133066654E-1
2.167802348E0,-5.087819099E-1,6.844121963E-2,-6.749582887E-1
2.170281410E0,-4.959991276E-1,2.900096774E-1,-6.451317668E-1
2.172760473E0,-4.853467941E-1,4.913387299E-1,-6.131747365E-1
2.175239587E0,-4.853467941E-1,6.820154190E-1,-5.812177658E-1
2.177718702E0,-4.906729758E-1,8.758878708E-1,-5.503259897E-1
2.180197764E0,-4.981296062E-1,1.055912256E0,-5.119776130E-1
2.182676879E0,-5.034557581E-1,1.224219084E0,-4.704335332E-1
2.185155994E0,-5.141080618E-1,1.379743099E0,-4.224980474E-1
2.187635056E0,-5.364779830E-1,1.496918678E0,-3.692364097E-1
2.190114171E0,-5.758916140E-1,1.577876449E0,-3.074528873E-1
2.192593233E0,-6.216966510E-1,1.571485043E0,-2.584521770E-1
2.195072348E0,-6.568493247E-1,1.451113701E0,-2.201037705E-1
2.197551462E0,-6.920019984E-1,1.267893553E0,-1.860163212E-1
2.199927139E0,-7.101109624E-1,1.058042645E0,-1.561897993E-1
2.202406202E0,-7.133066654E-1,8.471265435E-1,-1.210371032E-1
2.204885264E0,-7.047848105E-1,6.745588183E-1,-7.203638554E-2
2.207364431E0,-6.696321368E-1,5.115781426E-1,-2.516612969E-2
2.209843494E0,-6.067833900E-1,3.784240186E-1,2.276935615E-2
2.212322556E0,-5.481955409E-1,2.921401560E-1,8.774857223E-2
2.214801671E0,-4.704335332E-1,2.527265251E-1,1.601844132E-1
2.217280785E0,-3.532578945E-1,2.740311921E-1,2.145113051E-1
2.219759848E0,-2.147776037E-1,3.283580840E-1,2.454030514E-1
2.222238962E0,-7.629731297E-2,3.667064607E-1,2.443378270E-1
2.224718025E0,4.087831825E-2,3.965329826E-1,2.155765295E-1
2.227197139E0,1.495320797E-1,4.689688385E-1,1.772281379E-1
2.229676254E0,2.262288630E-1,5.094476938E-1,1.314231306E-1
2.232059744E0,3.327521682E-1,5.563179255E-1,8.668334037E-2
2.234538806E0,4.861457348E-1,6.447322965E-1,3.235645220E-2
2.237017921E0,6.043865681E-1,7.161028981E-1,-4.220985994E-2
2.239496983E0,6.512568593E-1,7.363423109E-1,-1.295589656E-1
2.241976098E0,6.342130899E-1,7.203638554E-1,-2.232994735E-1
2.244455160E0,5.873428583E-1,7.011896372E-1,-3.021267056E-1
2.246934275E0,5.553858876E-1,6.777545214E-1,-3.788234890E-1
2.249413389E0,5.617772937E-1,6.745588183E-1,-4.629769027E-1
2.251892452E0,5.426030755E-1,6.841459274E-1,-5.481955409E-1
2.254371566E0,4.552539587E-1,6.479279995E-1,-6.035876870E-1
2.256850681E0,3.071865737E-1,5.403394699E-1,-6.419360638E-1
2.259329744E0,1.346188188E-1,4.125114977E-1,-6.696321368E-1
2.261808858E0,-4.007939249E-2,3.113143444E-1,-6.856105924E-1
2.264204275E0,-1.977338791E-1,2.516613007E-1,-6.792191863E-1
2.266683337E0,-3.202356696E-1,2.431394309E-1,-6.451317668E-1
2.269162400E0,-4.075847864E-1,2.655093372E-1,-5.993267298E-1
2.271641514E0,-4.693683088E-1,2.857487500E-1,-5.503259897E-1
2.274120629E0,-5.119776130E-1,2.836183012E-1,-5.109124184E-1
2.276599691E0,-5.396736860E-1,2.537917793E-1,-4.864120185E-1
2.279078806E0,-5.567173958E-1,2.026605755E-1,-4.853467941E-1
2.281557921E0,-5.716306567E-1,1.046591476E-1,-5.023905039E-1
2.284036983E0,-5.876091719E-1,-6.471290439E-2,-5.236951709E-1
2.286516098E0,-5.993267298E-1,-2.394111156E-1,-5.471302867E-1
2.288995160E0,-5.865439177E-1,-3.416734934E-1,-5.620435476E-1
2.291474275E0,-5.386084318E-1,-3.576519787E-1,-5.705654621E-1
2.293953389E0,-4.874772727E-1,-3.448691964E-1,-5.737611651E-1
2.296199171E0,-4.544550478E-1,-3.459344208E-1,-5.801525116E-1
2.298678181E0,-4.224980474E-1,-3.693695366E-1,-5.854787230E-1
2.301157296E0,-3.777582645E-1,-4.109136462E-1,-5.982614756E-1
2.303636358E0,-3.255618513E-1,-4.311530590E-1,-6.110442877E-1
2.306115473E0,-2.382127345E-1,-4.524577260E-1,-6.067833900E-1
2.308594587E0,-1.316894293E-1,-5.089150667E-1,-5.961310267E-1
2.311073650E0,-3.049229458E-2,-5.845466256E-1,-5.737611651E-1
2.313552764E0,5.259587988E-2,-6.420692205E-1,-5.428693891E-1
2.316031879E0,4.407401755E-2,-6.314168572E-1,-5.077167153E-1
2.318510941E0,-4.434032366E-2,-5.291544795E-1,-4.619116783E-1
2.320990056E0,-6.351451576E-2,-4.279573560E-1,-4.107804894E-1
2.323469171E0,-1.664426550E-2,-3.746957183E-1,-3.564535975E-1
2.325948233E0,2.489982173E-2,-3.544562757E-1,-3.053224087E-1
2.328458025E0,6.111774594E-2,-3.278254569E-1,-2.584521770E-1
2.330937087E0,8.774857223E-2,-2.979989350E-1,-2.190385461E-1
2.333416150E0,1.101184636E-1,-2.521939278E-1,-1.774944514E-1
2.335895264E0,1.175750941E-1,-1.808233112E-1,-1.402112991E-1
2.338374379E0,1.165098622E-1,-9.773512930E-2,-1.103847697E-1
2.340853441E0,1.079879999E-1,-7.190322969E-3,-8.481918275E-2
2.343332556E0,8.774857223E-2,8.122401685E-2,-6.457975507E-2
2.345811671E0,6.005251035E-2,1.664426625E-1,-4.114462435E-2
2.348290733E0,3.448691964E-2,2.452699095E-1,-2.303566411E-2
2.350769848E0,1.744319126E-2,3.326190114E-1,-8.122402243E-3
2.353248910E0,7.856093347E-3,4.306204617E-1,5.725627299E-3
2.355728025E0,1.464695437E-3,5.360785127E-1,1.424749196E-2
2.358207139E0,1.464695437E-3,6.500584483E-1,1.637795754E-2
2.360586827E0,7.856093347E-3,7.661688328E-1,1.850842312E-2
2.363065889E0,7.856093347E-3,8.620398045E-1,1.637795754E-2
2.365544952E0,6.790860556E-3,9.280842543E-1,8.921326138E-3
2.368024066E0,-6.657706108E-4,9.621717334E-1,2.529928461E-3
2.370503181E0,-1.344856713E-2,9.643021822E-1,-5.991935730E-3
2.372982244E0,-2.410089783E-2,9.429975152E-1,-1.983996481E-2
2.375461358E0,-3.475322574E-2,9.153015018E-1,-3.049229458E-2
2.377940473E0,-3.475322574E-2,8.769530654E-1,-3.368799388E-2
2.380419535E0,-3.368799388E-2,8.300828338E-1,-4.220985994E-2
2.382898650E0,-3.901416063E-2,7.736254930E-1,-4.647079110E-2
2.385377712E0,-4.220985994E-2,7.011896372E-1,-4.966649041E-2
2.387856827E0,-4.007939249E-2,6.394061446E-1,-5.286218971E-2
2.390335941E0,-3.049229458E-2,5.882749557E-1,-5.179695413E-2
2.392715994E0,-2.197043039E-2,5.350132585E-1,-4.540555924E-2
2.395195056E0,-2.729659714E-2,4.710993171E-1,-3.901416063E-2
2.397674171E0,-2.410089783E-2,4.093157947E-1,-2.942706272E-2
2.400153233E0,-4.926702939E-3,3.858806491E-1,-1.451379992E-2
2.402632348E0,1.105179265E-2,3.677717149E-1,3.994623839E-4
2.405111410E0,1.531272475E-2,3.091838956E-1,7.856093347E-3
2.407590525E0,1.531272475E-2,2.410089672E-1,1.531272475E-2
2.410069639E0,2.170412242E-2,2.197043151E-1,3.235645220E-2
2.412548702E0,3.661738336E-2,2.165086120E-1,5.153064802E-2
2.415027816E0,4.620448127E-2,1.845516264E-1,6.218297780E-2
2.417506931E0,5.472634733E-2,1.536598653E-1,6.324820966E-2
2.419985994E0,6.750914454E-2,1.302247345E-1,6.005251035E-2
2.422465108E0,7.496577501E-2,1.089200750E-1,5.472634733E-2
2.424840994E0,7.709623873E-2,8.441971987E-2,4.407401755E-2
2.427320056E0,7.070484012E-2,5.352795869E-2,3.129122034E-2
2.429799119E0,6.111774594E-2,1.837527007E-2,1.957365684E-2
2.432278233E0,4.194355011E-2,-1.890788600E-2,3.595161485E-3
2.434757348E0,2.916075476E-2,-5.193011090E-2,-1.131810062E-2
2.437236462E0,1.211702544E-2,-8.175663650E-2,-2.303566411E-2
2.439715525E0,-9.187635034E-3,-1.254311949E-1,-6.657706108E-4
2.442194639E0,-1.178414002E-1,-2.979989350E-1,1.559234858E-1
2.444673702E0,-4.256937504E-1,-7.645710111E-1,3.455349505E-1
2.447152816E0,-7.761554122E-1,-1.336734295E0,4.211665094E-1
2.449631879E0,-1.012637138E0,-1.799045444E0,4.382102489E-1
2.452110994E0,-1.127682328E0,-2.117550135E0,4.488625526E-1
2.454590108E0,-1.130877972E0,-2.270943642E0,4.446016252E-1
2.456830681E0,-1.023289442E0,-2.252834797E0,4.232969582E-1
2.459309744E0,-8.326127529E-1,-2.099441051E0,3.870790601E-1
2.461788858E0,-6.035876870E-1,-1.851241827E0,3.412740231E-1
2.464267921E0,-3.489969671E-1,-1.552976608E0,2.901428342E-1
2.466747035E0,-9.440627694E-2,-1.244991064E0,2.304897904E-1
2.469226150E0,1.410102248E-1,-9.477910995E-1,1.697715074E-1
2.471705212E0,3.711005449E-1,-6.729609370E-1,1.069227681E-1
2.474184327E0,5.916038156E-1,-4.194355011E-1,4.087831825E-2
2.476663441E0,7.876066566E-1,-1.882799417E-1,-3.049229458E-2
2.479142504E0,9.324783683E-1,4.181039706E-2,-1.071890742E-1
2.481621619E0,1.020892739E0,2.516613007E-1,-1.785596907E-1
2.484100733E0,1.054980159E0,3.848154247E-1,-2.573869228E-1
2.486630316E0,1.052982807E0,4.902735054E-1,-3.500621915E-1
2.489109431E0,1.019827485E0,5.967968106E-1,-4.597811997E-1
2.491588441E0,9.484568238E-1,7.065157890E-1,-6.121095419E-1
2.494067556E0,8.451292515E-1,8.620398045E-1,-8.358084559E-1
2.496546671E0,7.258231640E-1,1.052716494E0,-1.112769008E0
2.499025733E0,6.022561193E-1,1.249784589E0,-1.414229989E0
2.501504848E0,4.882761836E-1,1.425548077E0,-1.723147511E0
2.503983962E0,4.051880240E-1,1.570419788E0,-2.038456440E0
2.506463025E0,3.497959077E-1,1.679073572E0,-2.354964018E0
2.508942139E0,2.997299433E-1,1.738726616E0,-2.645772457E0
2.511421202E0,2.336854935E-1,1.752574682E0,-2.901428461E0
2.513900316E0,1.719019860E-1,1.739791870E0,-3.135779619E0
2.516379431E0,1.218360290E-1,1.741922259E0,-3.349891663E0
2.518758702E0,8.668334037E-2,1.786662102E0,-3.545894384E0
2.521237764E0,6.324820966E-2,1.867619753E0,-3.728049278E0
2.523716827E0,6.857437640E-2,1.993317246E0,-3.872920990E0
2.526195941E0,1.133141592E-1,2.168015480E0,-3.958139658E0
2.528675056E0,2.070546746E-1,2.422606230E0,-3.974117994E0
2.531154119E0,3.455349505E-1,2.752828360E0,-3.913399935E0
2.533633233E0,5.021241903E-1,3.110746622E0,-3.806876421E0
2.536112348E0,6.587134600E-1,3.445230007E0,-3.673722506E0
2.538591410E0,8.089113235E-1,3.756278038E0,-3.534176826E0
2.541070525E0,9.527177811E-1,4.050415516E0,-3.379718065E0
2.543549587E0,1.073222280E0,4.292223454E0,-3.218867779E0
2.546028702E0,1.162701845E0,4.479704380E0,-3.055887222E0
2.548507816E0,1.229811549E0,4.616054058E0,-2.900363207E0
2.550882973E0,1.272420883E0,4.691685677E0,-2.739512920E0
2.553362035E0,1.284138441E0,4.697011948E0,-2.573336601E0
2.555841098E0,1.261768460E0,4.637358665E0,-2.392246962E0
2.558320212E0,1.201050282E0,4.516987324E0,-2.215418339E0
2.560799327E0,1.106244445E0,4.330571651E0,-2.045913219E0
2.563278389E0,9.921314120E-1,4.096220493E0,-1.891454339E0
2.565757504E0,8.643034697E-1,3.810604811E0,-1.755104542E0
2.568236619E0,7.332797647E-1,3.492100239E0,-1.634733200E0
2.570715681E0,6.097127795E-1,3.150160313E0,-1.533536077E0
2.573194796E0,4.904066622E-1,2.797568321E0,-1.448317409E0
2.575673858E0,3.913399875E-1,2.448171854E0,-1.376946807E0
2.578152973E0,3.061213493E-1,2.107297182E0,-1.316228509E0
2.580632087E0,2.400768995E-1,1.787727356E0,-1.261901617E0
2.583007921E0,1.910761744E-1,1.494788289E0,-1.210770488E0
2.585485421E0,1.580539495E-1,1.230610490E0,-1.159639359E0
2.587962973E0,1.378145218E-1,9.994548559E-1,-1.098921061E0
2.590440577E0,1.250317246E-1,8.055824637E-1,-1.024354696E0
2.592918129E0,1.186403260E-1,6.244928837E-1,-9.455274343E-1
2.595395681E0,1.111836955E-1,4.583165050E-1,-8.645697236E-1
2.597873285E0,9.946613014E-2,3.113143444E-1,-7.761554122E-1
2.600350837E0,7.922670245E-2,1.824211627E-1,-6.834801435E-1
2.602828389E0,4.726971686E-2,6.737598777E-2,-5.865439177E-1
2.605305941E0,2.529928461E-3,-4.127778113E-2,-4.821510911E-1
2.607783494E0,-5.392742157E-2,-1.392792165E-1,-3.756277859E-1
2.610261098E0,-1.189066395E-1,-2.351501882E-1,-2.733654380E-1
2.612738650E0,-1.796249151E-1,-3.299559355E-1,-1.838858575E-1
2.615141671E0,-2.307561040E-1,-4.247616827E-1,-1.082543060E-1
2.617619119E0,-2.627131045E-1,-5.046541691E-1,-4.540555924E-2
2.620096723E0,-2.861482203E-1,-5.515244007E-1,-8.122402243E-3
2.622574327E0,-2.978657782E-1,-5.589810014E-1,1.850842312E-2
2.625051879E0,-3.074528873E-1,-5.259587765E-1,3.022598661E-2
2.627529431E0,-3.191704452E-1,-4.588491321E-1,3.342168778E-2
2.630007035E0,-3.340837061E-1,-3.842828274E-1,2.383458801E-2
2.632484587E0,-3.575188220E-1,-2.990641594E-1,6.790860556E-3
2.634962139E0,-3.884105980E-1,-1.904104054E-1,-1.557903271E-2
2.637439691E0,-4.406070113E-1,-1.105179265E-1,-4.434032366E-2
2.639917296E0,-5.162385702E-1,-8.175663650E-2,-7.310161740E-2
2.642394848E0,-5.886744261E-1,-7.749570161E-2,-9.440627694E-2
2.644872400E0,-6.366099119E-1,-6.577813625E-2,-1.103847697E-1
2.647267400E0,-6.536536217E-1,-4.766917601E-2,-1.210371032E-1
2.649744900E0,-6.398055553E-1,-2.316881903E-2,-1.327546686E-1
2.652222452E0,-6.046528816E-1,2.050573565E-2,-1.434070021E-1
2.654700056E0,-5.503259897E-1,7.909355313E-2,-1.519288570E-1
2.657177608E0,-4.874772727E-1,1.387466043E-1,-1.540593207E-1
2.659655160E0,-4.182371199E-1,1.983996481E-1,-1.519288570E-1
2.662132764E0,-3.489969671E-1,2.569874525E-1,-1.487331539E-1
2.664610316E0,-2.818872929E-1,3.102491200E-1,-1.423417628E-1
2.667087869E0,-2.147776037E-1,3.400756419E-1,-1.295589656E-1
2.669565421E0,-1.615159512E-1,3.400756419E-1,-1.210371032E-1
2.672043025E0,-1.178414002E-1,3.017272651E-1,-1.071890742E-1
2.674520577E0,-8.801487833E-2,2.282261699E-1,-9.653674066E-2
2.676998129E0,-6.777545065E-2,1.355509013E-1,-8.481918275E-2
2.679362921E0,-6.244928762E-2,3.009283356E-2,-7.736254483E-2
2.681840421E0,-6.351451576E-2,-7.856093347E-2,-6.671021879E-2
2.684317973E0,-7.097115368E-2,-1.797580719E-1,-5.712312087E-2
2.686795525E0,-8.162347972E-2,-2.703028917E-1,-4.966649041E-2
2.689273129E0,-9.653674066E-2,-3.459344208E-1,-4.540555924E-2
2.691750681E0,-1.039933711E-1,-4.077179432E-1,-5.073172227E-2
2.694228233E0,-1.135804728E-1,-4.599143565E-1,-5.712312087E-2
2.696705837E0,-1.178414002E-1,-5.142412186E-1,-5.818835273E-2
2.699183389E0,-1.284937263E-1,-5.547201037E-1,-5.605788901E-2
2.701660941E0,-1.391460598E-1,-5.856118798E-1,-5.712312087E-2
2.704138494E0,-1.455374658E-1,-6.143731475E-1,-5.818835273E-2
2.706616046E0,-1.572550237E-1,-6.463301182E-1,-6.031882018E-2
2.709093650E0,-1.913424879E-1,-7.091788650E-1,-7.310161740E-2
2.711499639E0,-2.520607710E-1,-8.199630976E-1,-8.801487833E-2
2.713977139E0,-2.893439233E-1,-9.296821356E-1,-8.694964647E-2
2.716454691E0,-2.999962568E-1,-9.882699251E-1,-6.138405204E-2
2.718932244E0,-2.818872929E-1,-9.786828160E-1,-2.516612969E-2
2.721409848E0,-2.360822707E-1,-9.222254753E-1,6.790860556E-3
2.723887400E0,-1.849510819E-1,-8.391373158E-1,1.424749196E-2
2.726364952E0,-1.466026902E-1,-7.379401922E-1,7.856093347E-3
2.728842556E0,-1.167761683E-1,-6.154384017E-1,-6.657706108E-4
2.731320108E0,-1.029281393E-1,-4.822842479E-1,-8.122402243E-3
2.733797660E0,-9.227581322E-2,-3.555215299E-1,-1.664426550E-2
2.736275212E0,-8.162347972E-2,-2.436720580E-1,-2.516612969E-2
2.738752816E0,-7.416684926E-2,-1.531272531E-1,-3.368799388E-2
2.741230369E0,-6.777545065E-2,-8.282186836E-2,-3.901416063E-2
2.743653858E0,-6.244928762E-2,-2.742975019E-2,-4.647079110E-2
2.746131358E0,-6.244928762E-2,5.592473317E-3,-4.966649041E-2
2.748608910E0,-6.138405204E-2,2.476666868E-2,-5.712312087E-2
2.751086514E0,-6.138405204E-2,2.263620123E-2,-5.925358832E-2
2.753564066E0,-6.138405204E-2,1.837527007E-2,-6.564498693E-2
2.756041619E0,-5.818835273E-2,1.304910425E-2,-7.203638554E-2
2.758519223E0,-5.179695413E-2,1.091863867E-2,-7.842778414E-2
2.760996775E0,-4.540555924E-2,7.722939365E-3,-7.949301600E-2
2.763474327E0,-3.368799388E-2,8.788172156E-3,-7.736254483E-2
2.765951879E0,-2.303566411E-2,5.592473317E-3,-7.842778414E-2
2.768429483E0,-7.057168987E-3,8.788172156E-3,-7.629731297E-2
2.770907035E0,6.790860556E-3,1.517957076E-2,-7.842778414E-2
2.773384587E0,2.383458801E-2,2.157096937E-2,-8.055824786E-2
2.775765681E0,3.874785081E-2,2.370143496E-2,-7.949301600E-2
2.778243181E0,5.046541616E-2,2.157096937E-2,-7.949301600E-2
2.780720733E0,5.472634733E-2,9.853405878E-3,-7.310161740E-2
2.783198337E0,5.898727849E-2,-9.320789017E-3,-6.671021879E-2
2.785675889E0,6.111774594E-2,-1.358172111E-2,-6.138405204E-2
2.788153441E0,6.324820966E-2,-3.994623665E-3,-4.966649041E-2
2.790631046E0,6.431344151E-2,4.527240526E-3,-3.581846133E-2
2.793108598E0,6.750914454E-2,2.396774245E-3,-3.049229458E-2
2.795586150E0,6.324820966E-2,2.370143496E-2,-1.983996481E-2
2.798063702E0,5.685681105E-2,9.720251709E-2,5.725627299E-3
2.800541306E0,3.448691964E-2,1.334204376E-1,4.194355011E-2
2.803018858E0,2.383458801E-2,9.294158220E-2,3.981308267E-2
2.805496410E0,2.063889056E-2,2.263620123E-2,4.660394508E-3
2.807880160E0,2.170412242E-2,-5.406057462E-2,-2.836182900E-2
2.810357660E0,1.957365684E-2,-1.296921223E-1,-4.327509180E-2
2.812835212E0,1.105179265E-2,-1.957365721E-1,-4.434032366E-2
2.815312764E0,3.595161485E-3,-2.585853040E-1,-3.794892505E-2
2.817790369E0,3.595161485E-3,-3.001294136E-1,-2.729659714E-2
2.820267921E0,6.790860556E-3,-3.086512685E-1,-1.451379992E-2
2.822745473E0,1.637795754E-2,-3.054555655E-1,-4.926702939E-3
2.825223077E0,3.342168778E-2,-3.278254569E-1,-8.122402243E-3
2.827700629E0,5.366111174E-2,-4.013265371E-1,-3.901416063E-2
2.830178181E0,6.963960826E-2,-4.631100595E-1,-5.925358832E-2
2.832655733E0,7.177007198E-2,-5.067846179E-1,-6.564498693E-2
2.835133337E0,7.283531129E-2,-5.483286977E-1,-6.031882018E-2
2.837610837E0,7.177007198E-2,-5.813509226E-1,-5.073172227E-2
2.840040681E0,7.177007198E-2,-6.079817414E-1,-4.220985994E-2
2.842518181E0,6.644391268E-2,-6.250254512E-1,-3.049229458E-2
2.844995733E0,5.898727849E-2,-6.378082633E-1,-2.303566411E-2
2.847473337E0,5.472634733E-2,-6.399387121E-1,-1.770949923E-2
2.849950889E0,4.620448127E-2,-6.388735175E-1,-1.344856713E-2
2.852428441E0,3.342168778E-2,-6.356778145E-1,-9.187635034E-3
2.854906046E0,2.489982173E-2,-6.239602566E-1,-1.131810062E-2
2.857383598E0,1.637795754E-2,-5.994598866E-1,-1.344856713E-2
2.859861150E0,7.856093347E-3,-5.547201037E-1,-2.090519853E-2
2.862338702E0,7.856093347E-3,-4.620448351E-1,-4.220985994E-2
2.864816306E0,1.531272475E-2,-2.958684862E-1,-5.179695413E-2
2.867293858E0,6.790860556E-3,-1.019960642E-1,-1.238333434E-2
2.869771410E0,-1.344856713E-2,5.592473317E-3,6.218297780E-2
2.872137400E0,-2.623136342E-2,1.198387146E-2,8.348763734E-2
2.874614900E0,-3.475322574E-2,-1.890788600E-2,6.750914454E-2
2.877092452E0,-4.434032366E-2,-6.684337556E-2,4.407401755E-2
2.879570056E0,-4.860125855E-2,-1.158440933E-1,2.276935615E-2
2.882047608E0,-4.114462435E-2,-1.563229412E-1,1.211702544E-2
2.884525160E0,-2.942706272E-2,-1.882799417E-1,5.725627299E-3
2.887002712E0,-9.187635034E-3,-2.106498331E-1,3.595161485E-3
2.889480316E0,1.850842312E-2,-2.170412242E-1,2.529928461E-3
2.891957869E0,4.833494872E-2,-2.010627389E-1,3.994623839E-4
2.894435421E0,6.537867337E-2,-1.680405140E-1,6.790860556E-3
2.896913025E0,6.750914454E-2,-1.328878254E-1,8.921326138E-3
2.899390577E0,6.750914454E-2,-9.453943372E-2,3.595161485E-3
2.901868129E0,6.111774594E-2,-6.045197323E-2,5.725627299E-3
2.904291202E0,4.726971686E-2,-4.127778113E-2,5.725627299E-3
2.906768702E0,3.342168778E-2,-2.529928461E-2,4.660394508E-3
2.909246254E0,2.170412242E-2,-2.103835158E-2,-6.657706108E-4
2.911723858E0,8.921326138E-3,-2.103835158E-2,-6.657706108E-4
2.914201410E0,-6.657706108E-4,-2.316881903E-2,-4.926702939E-3
2.916678962E0,-4.926702939E-3,-2.316881903E-2,-5.991935730E-3
2.919156566E0,-4.926702939E-3,-2.849498391E-2,-3.861469682E-3
2.921634119E0,-3.861469682E-3,-2.956021577E-2,-2.796236658E-3
2.924111671E0,-6.657706108E-4,-2.742975019E-2,2.529928461E-3
2.926589223E0,4.660394508E-3,-2.316881903E-2,4.660394508E-3
2.929066827E0,8.921326138E-3,-1.571218669E-2,4.660394508E-3
2.931544379E0,1.105179265E-2,-8.255556226E-3,8.921326138E-3
2.934021931E0,1.531272475E-2,2.663082560E-4,1.105179265E-2
2.936275316E0,1.744319126E-2,1.304910425E-2,1.531272475E-2
2.938752869E0,2.383458801E-2,2.689713426E-2,2.489982173E-2
2.941230421E0,2.916075476E-2,4.713656008E-2,3.555215150E-2
2.943707973E0,3.661738336E-2,7.057169080E-2,4.300878197E-2
2.946185577E0,4.407401755E-2,9.507204592E-2,4.620448127E-2
2.948663129E0,4.726971686E-2,1.206376404E-1,5.153064802E-2
2.951140681E0,5.366111174E-2,1.525946259E-1,5.472634733E-2
2.953618233E0,5.685681105E-2,1.802906841E-1,5.153064802E-2
2.956095837E0,5.898727849E-2,2.026605755E-1,5.046541616E-2
2.958573389E0,5.898727849E-2,2.324871123E-1,4.940018058E-2
2.961050941E0,5.898727849E-2,2.644441128E-1,4.300878197E-2
2.963528546E0,6.431344151E-2,2.910749316E-1,3.448691964E-2
2.966006098E0,7.177007198E-2,3.187709749E-1,2.703028731E-2
2.968547608E0,8.029194176E-2,3.475322723E-1,1.850842312E-2
2.971025108E0,9.520520270E-2,3.720326424E-1,8.921326138E-3
2.973502660E0,1.090532318E-1,3.858806491E-1,8.921326138E-3
2.975980264E0,1.207707971E-1,3.975982368E-1,1.211702544E-2
2.978457816E0,1.335535944E-1,4.050548673E-1,1.424749196E-2
2.980935369E0,1.388797611E-1,3.986634612E-1,1.744319126E-2
2.983412973E0,1.388797611E-1,3.848154247E-1,1.957365684E-2
2.985890525E0,1.356840581E-1,3.592498302E-1,1.531272475E-2
2.988368077E0,1.271621883E-1,3.368799388E-1,1.211702544E-2
2.990845629E0,1.154446304E-1,3.113143444E-1,7.856093347E-3
2.993323233E0,1.058575287E-1,2.900096774E-1,4.660394508E-3
2.995800785E0,9.520520270E-2,2.708354890E-1,-1.731003635E-3
2.998278337E0,8.348763734E-2,2.537917793E-1,-5.991935730E-3
3.000644952E0,6.644391268E-2,2.378132790E-1,-9.187635034E-3
3.003122452E0,5.366111174E-2,2.186390758E-1,-1.025286783E-2
3.005600004E0,3.129122034E-2,2.047910541E-1,-7.057168987E-3
3.008077556E0,9.986559860E-3,1.941387206E-1,-5.991935730E-3
3.010555160E0,-1.131810062E-2,1.824211627E-1,-4.926702939E-3
3.013032712E0,-2.836182900E-2,1.749645174E-1,-3.861469682E-3
3.015510264E0,-4.753602296E-2,1.728340536E-1,-3.861469682E-3
3.017987869E0,-6.671021879E-2,1.653774232E-1,-1.731003635E-3
3.020465421E0,-8.801487833E-2,1.547250897E-1,-5.991935730E-3
3.022942973E0,-1.146457046E-1,1.472684592E-1,-1.131810062E-2
3.025420525E0,-1.327546686E-1,1.408770680E-1,-1.131810062E-2
3.027898129E0,-1.487331539E-1,1.270290315E-1,-1.238333434E-2
3.030375681E0,-1.721682847E-1,1.121157780E-1,-1.664426550E-2
3.032792608E0,-1.924077123E-1,9.187635034E-2,-2.090519853E-2
3.035270108E0,-2.094514370E-1,6.844121963E-2,-2.410089783E-2
3.037747660E0,-2.190385461E-1,4.287562892E-2,-2.197043039E-2
3.040225264E0,-2.286256403E-1,1.837527007E-2,-2.303566411E-2
3.042702816E0,-2.360822707E-1,-7.989247679E-4,-1.983996481E-2
3.045180369E0,-2.350170314E-1,-1.464695390E-2,-1.557903271E-2
3.047657973E0,-2.339518070E-1,-2.742975019E-2,-1.238333434E-2
3.050135525E0,-2.275604010E-1,-3.808208182E-2,-9.187635034E-3
3.052613077E0,-2.232994735E-1,-4.660394415E-2,-2.796236658E-3
3.055090629E0,-2.179733068E-1,-5.832150951E-2,2.529928461E-3
3.057568181E0,-2.094514370E-1,-6.577813625E-2,8.921326138E-3
3.060045785E0,-2.009295821E-1,-6.577813625E-2,1.531272475E-2
3.062523337E0,-1.892120093E-1,-6.790860742E-2,2.596505545E-2
3.064897400E0,-1.817553788E-1,-5.938674137E-2,3.661738336E-2
3.067374900E0,-1.742987484E-1,-3.488638252E-2,5.153064802E-2
3.069852452E0,-1.764292270E-1,-2.742975019E-2,6.111774594E-2
3.072330004E0,-1.764292270E-1,-3.595161438E-2,7.603100687E-2
3.074807608E0,-1.849510819E-1,-4.766917601E-2,9.094426781E-2
3.077285160E0,-1.828206182E-1,-4.660394415E-2,1.015966013E-1
3.079762712E0,-1.796249151E-1,-5.406057462E-2,1.037270650E-1
3.082240316E0,-1.849510819E-1,-7.962616533E-2,9.840089828E-2
3.084717869E0,-1.892120093E-1,-9.240896255E-2,9.733566642E-2
3.087195421E0,-2.041252851E-1,-9.560466558E-2,1.015966013E-1
3.089672973E0,-2.243647128E-1,-8.495233208E-2,1.090532318E-1
3.092150577E0,-2.456693649E-1,-6.364767253E-2,1.101184636E-1
3.094628129E0,-2.627131045E-1,-3.595161438E-2,1.026618332E-1
3.096924431E0,-2.776263654E-1,3.462007269E-3,8.029194176E-2
3.099400629E0,-2.957353294E-1,3.861469775E-2,5.153064802E-2
3.101876827E0,-3.159747422E-1,6.524552405E-2,2.276935615E-2
3.104353025E0,-3.308880031E-1,8.228924870E-2,-6.657706108E-4
3.106829275E0,-3.479317427E-1,8.015878499E-2,-1.344856713E-2
3.109305421E0,-3.660407066E-1,6.418029219E-2,-1.877473295E-2
3.111781619E0,-3.798887134E-1,5.246272683E-2,-1.770949923E-2
3.114257816E0,-3.820191920E-1,3.435376659E-2,-8.122402243E-3
3.116734014E0,-3.798887134E-1,2.583190054E-2,1.464695437E-3
3.119210264E0,-3.788234890E-1,2.370143496E-2,1.850842312E-2
3.121686462E0,-3.756277859E-1,4.713656008E-2,2.809552103E-2
3.124162660E0,-3.649754524E-1,8.761541545E-2,2.063889056E-2
3.126718650E0,-3.564535975E-1,1.195724085E-1,1.957365684E-2
3.129194796E0,-3.404751122E-1,1.440727711E-1,2.063889056E-2
3.131670994E0,-3.255618513E-1,1.643121988E-1,2.276935615E-2
3.134147191E0,-3.117138147E-1,1.888125539E-1,2.383458801E-2
3.136623389E0,-3.117138147E-1,1.909430176E-1,1.744319126E-2
3.139099587E0,-3.436708152E-1,1.845516264E-1,1.318225823E-2
3.141575785E0,-3.937367499E-1,2.005301118E-1,-4.926702939E-3
3.144051983E0,-4.374113083E-1,2.367480397E-1,-2.836182900E-2
3.146528181E0,-4.991948307E-1,2.932053804E-1,-5.605788901E-2
3.149004379E0,-5.790873170E-1,3.645760119E-1,-1.061238423E-1
3.151480577E0,-6.749582887E-1,4.679036140E-1,-1.764292270E-1
3.153956827E0,-8.038514853E-1,6.553846002E-1,-2.371474952E-1
3.156433025E0,-8.975919485E-1,8.290175796E-1,-2.541912198E-1
3.158843285E0,-9.125052094E-1,9.376713634E-1,-2.318213433E-1
3.161319431E0,-8.858743906E-1,1.060173154E0,-1.934729517E-1
3.163795629E0,-8.379389048E-1,1.162435532E0,-1.497983932E-1
3.166271827E0,-7.484593391E-1,1.190131545E0,-1.114500016E-1
3.168748025E0,-6.355446577E-1,1.156044126E0,-8.268871158E-2
3.171224223E0,-5.215647221E-1,1.068695068E0,-4.966649041E-2
3.173700421E0,-4.129109383E-1,9.376713634E-1,-2.410089783E-2
3.176176619E0,-3.138442934E-1,7.682993412E-1,-2.796236658E-3
3.178652816E0,-2.179733068E-1,5.627093315E-1,1.211702544E-2
3.181129014E0,-1.338198930E-1,3.411408663E-1,2.276935615E-2
3.183605212E0,-5.392742157E-2,1.206376404E-1,2.703028731E-2
3.186081462E0,1.850842312E-2,-9.347419441E-2,3.235645220E-2
3.188557660E0,8.135717362E-2,-2.905423045E-1,3.555215150E-2
3.190939952E0,1.388797611E-1,-4.545882046E-1,3.235645220E-2
3.193416098E0,1.846847683E-1,-5.717638135E-1,2.916075476E-2
3.195892296E0,2.177069932E-1,-6.452649236E-1,2.489982173E-2
3.198368494E0,2.368811965E-1,-6.740261912E-1,1.424749196E-2
3.200844691E0,2.400768995E-1,-6.569824815E-1,6.790860556E-3
3.203320889E0,2.326202542E-1,-6.037208438E-1,1.464695437E-3
3.205797087E0,2.166417688E-1,-5.408720970E-1,-2.796236658E-3
3.208273285E0,1.974675655E-1,-4.822842479E-1,3.994623839E-4
3.210749483E0,1.868152469E-1,-4.492620230E-1,5.725627299E-3
3.213225733E0,1.814890802E-1,-4.471315742E-1,8.921326138E-3
3.215701931E0,1.804238409E-1,-4.705666900E-1,8.921326138E-3
3.218178129E0,1.793586165E-1,-5.163717270E-1,1.211702544E-2
3.220654327E0,1.836195439E-1,-5.845466256E-1,9.986559860E-3
3.223099535E0,1.921414137E-1,-6.633738875E-1,9.986559860E-3
3.225575681E0,2.059894353E-1,-7.485924959E-1,1.211702544E-2
3.228051879E0,2.166417688E-1,-8.263545036E-1,1.531272475E-2
3.230528077E0,2.304897904E-1,-8.785509467E-1,2.170412242E-2
3.233004275E0,2.400768995E-1,-9.105079174E-1,2.809552103E-2
3.235480473E0,2.475335300E-1,-9.371387362E-1,3.661738336E-2
3.237956671E0,2.507292330E-1,-9.595086575E-1,4.087831825E-2
3.240432869E0,2.581858635E-1,-9.776176214E-1,5.046541616E-2
3.242909066E0,2.592510879E-1,-9.829437733E-1,5.898727849E-2
3.245385264E0,2.539249361E-1,-9.744219184E-1,6.750914454E-2
3.247861462E0,2.507292330E-1,-9.445953965E-1,8.135717362E-2
3.250337712E0,2.422073632E-1,-9.051817656E-1,9.094426781E-2
3.252813910E0,2.347507328E-1,-8.636376858E-1,9.413997084E-2
3.255226150E0,2.209026963E-1,-8.157021999E-1,9.307473898E-2
3.257702296E0,2.113156021E-1,-7.496577501E-1,8.774857223E-2
3.260178494E0,2.017285079E-1,-6.740261912E-1,8.029194176E-2
3.262654691E0,1.921414137E-1,-5.962641835E-1,6.963960826E-2
3.265130889E0,1.804238409E-1,-5.195674300E-1,6.005251035E-2
3.267607087E0,1.750976741E-1,-4.450010955E-1,5.153064802E-2
3.270083285E0,1.708367467E-1,-3.587172329E-1,4.194355011E-2
3.272559483E0,1.676410437E-1,-2.734985650E-1,3.235645220E-2
3.275035681E0,1.655105799E-1,-1.872147024E-1,2.489982173E-2
3.277511879E0,1.623148769E-1,-1.137136221E-1,1.744319126E-2
3.279988077E0,1.644453406E-1,-4.447348043E-2,1.211702544E-2
3.282464327E0,1.687062830E-1,1.731003635E-2,5.725627299E-3
3.284940525E0,1.750976741E-1,6.737598777E-2,-3.861469682E-3
3.287359483E0,1.836195439E-1,1.121157780E-1,-1.025286783E-2
3.289835629E0,1.910761744E-1,1.408770680E-1,-1.664426550E-2
3.292311827E0,2.038589716E-1,1.600512564E-1,-2.197043039E-2
3.294788025E0,2.145113051E-1,1.685731262E-1,-3.262276202E-2
3.297264275E0,2.240983993E-1,1.717688292E-1,-4.114462435E-2
3.299740421E0,2.390116602E-1,1.664426625E-1,-5.179695413E-2
3.302216619E0,2.528596818E-1,1.557903290E-1,-6.031882018E-2
3.304692816E0,2.667077184E-1,1.419423074E-1,-6.351451576E-2
3.307169066E0,2.741643488E-1,1.195724085E-1,-6.564498693E-2
3.309645212E0,2.848166823E-1,8.655018359E-2,-6.990591437E-2
3.312121410E0,2.933385372E-1,4.820179567E-2,-7.203638554E-2
3.314597660E0,3.007951677E-1,3.328853101E-2,-6.457975507E-2
3.317073858E0,3.018604219E-1,4.287562892E-2,-5.605788901E-2
3.319466046E0,3.007951677E-1,6.737598777E-2,-4.434032366E-2
3.321942191E0,3.029256463E-1,9.613727778E-2,-3.688369319E-2
3.324418389E0,3.039908707E-1,1.238333359E-1,-3.155753016E-2
3.326894587E0,3.039908707E-1,1.568555683E-1,-3.794892505E-2
3.329370785E0,3.103822768E-1,1.845516264E-1,-4.860125855E-2
3.331846983E0,3.146432042E-1,2.058562785E-1,-6.884068251E-2
3.334323181E0,3.178389072E-1,2.133129090E-1,-9.014534205E-2
3.336799379E0,3.210346103E-1,1.930734813E-1,-1.103847697E-1
3.339275577E0,3.231650591E-1,1.611164957E-1,-1.263632625E-1
3.341751775E0,3.220998347E-1,1.408770680E-1,-1.380808353E-1
3.344227973E0,3.199693561E-1,1.291595101E-1,-1.402112991E-1
3.346704223E0,3.135779798E-1,1.291595101E-1,-1.295589656E-1
3.349180421E0,3.125127256E-1,1.206376404E-1,-1.189066395E-1
3.351592712E0,3.189041317E-1,1.046591476E-1,-1.071890742E-1
3.354068858E0,3.274259865E-1,1.046591476E-1,-9.440627694E-2
3.356545056E0,3.380783200E-1,1.121157780E-1,-8.055824786E-2
3.359021254E0,3.455349505E-1,1.206376404E-1,-6.777545065E-2
3.361497452E0,3.551220596E-1,1.248985752E-1,-5.925358832E-2
3.363973650E0,3.647091687E-1,1.248985752E-1,-5.712312087E-2
3.366449848E0,3.679048419E-1,1.227681041E-1,-5.712312087E-2
3.368926046E0,3.711005449E-1,1.153114736E-1,-5.818835273E-2
3.371402244E0,3.721657991E-1,1.099853069E-1,-6.031882018E-2
3.373878441E0,3.689700961E-1,1.174419373E-1,-6.138405204E-2
3.376354639E0,3.625786901E-1,1.302247345E-1,-5.712312087E-2
3.378830889E0,3.540568352E-1,1.408770680E-1,-5.605788901E-2
3.381307087E0,3.466002047E-1,1.568555683E-1,-5.073172227E-2
3.383726931E0,3.359478712E-1,1.675078869E-1,-5.179695413E-2
3.386203077E0,3.274259865E-1,1.664426625E-1,-5.499265343E-2
3.388679275E0,3.210346103E-1,1.600512564E-1,-5.605788901E-2
3.391155473E0,3.167736828E-1,1.462032348E-1,-5.818835273E-2
3.393631671E0,3.135779798E-1,1.206376404E-1,-5.818835273E-2
3.396107869E0,3.146432042E-1,9.613727778E-2,-5.925358832E-2
3.398584066E0,3.114475012E-1,8.228924870E-2,-6.031882018E-2
3.401060264E0,3.103822768E-1,9.826774895E-2,-6.138405204E-2
3.403536462E0,2.965342402E-1,1.366161406E-1,-6.138405204E-2
3.406012712E0,2.794905007E-1,1.696383655E-1,-5.286218971E-2
3.408488858E0,2.656424940E-1,1.781602204E-1,-4.753602296E-2
3.410965108E0,2.560553849E-1,1.920082569E-1,-4.220985994E-2
3.413441306E0,2.496639937E-1,2.197043151E-1,-2.729659714E-2
3.415856410E0,2.411421239E-1,2.399437428E-1,-2.090519853E-2
3.418332556E0,2.358159572E-1,2.410089672E-1,-1.451379992E-2
3.420808754E0,2.326202542E-1,2.271609455E-1,-7.057168987E-3
3.423284952E0,2.379464209E-1,1.973344237E-1,-1.731003635E-3
3.425761150E0,2.400768995E-1,1.696383655E-1,-6.657706108E-4
3.428237348E0,2.464682907E-1,1.547250897E-1,2.529928461E-3
3.430713546E0,2.443378270E-1,1.259638071E-1,7.856093347E-3
3.433189744E0,2.454030514E-1,9.400681406E-2,1.531272475E-2
3.435665941E0,2.517944574E-1,4.820179567E-2,1.424749196E-2
3.438142139E0,2.517944574E-1,2.663082560E-4,1.637795754E-2
3.440618337E0,2.485987544E-1,-4.234301299E-2,1.744319126E-2
3.443094587E0,2.454030514E-1,-8.069140464E-2,1.744319126E-2
3.445570785E0,2.422073632E-1,-1.211702600E-1,2.063889056E-2
3.447980056E0,2.304897904E-1,-1.648448110E-1,1.637795754E-2
3.450456202E0,2.155765295E-1,-2.021279633E-1,1.211702544E-2
3.452932400E0,2.027937323E-1,-2.340849638E-1,7.856093347E-3
3.455408598E0,1.878804713E-1,-2.489982247E-1,4.660394508E-3
3.457884796E0,1.655105799E-1,-2.372806519E-1,6.790860556E-3
3.460360994E0,1.399449855E-1,-2.095845938E-1,7.856093347E-3
3.462837191E0,1.143793985E-1,-1.637795717E-1,9.986559860E-3
3.465313389E0,8.881380409E-2,-1.158440933E-1,1.318225823E-2
3.467789587E0,6.218297780E-2,-7.110430300E-2,1.211702544E-2
3.470265785E0,3.981308267E-2,-3.382114694E-2,1.531272475E-2
3.472741983E0,1.850842312E-2,-2.929390874E-3,1.531272475E-2
3.475218233E0,3.994623839E-4,3.009283356E-2,1.105179265E-2
3.477694431E0,-1.344856713E-2,5.778888986E-2,9.986559860E-3
3.480115056E0,-2.516612969E-2,7.696308941E-2,1.318225823E-2
3.482591202E0,-3.688369319E-2,8.761541545E-2,1.744319126E-2
3.485067400E0,-4.540555924E-2,9.294158220E-2,1.637795754E-2
3.487543598E0,-5.286218971E-2,9.933298081E-2,1.850842312E-2
3.490019796E0,-6.457975507E-2,1.121157780E-1,1.744319126E-2
3.492495994E0,-7.416684926E-2,1.302247345E-1,1.744319126E-2
3.494972191E0,-8.801487833E-2,1.462032348E-1,2.170412242E-2
3.497448389E0,-1.018629074E-1,1.707035899E-1,2.916075476E-2
3.499924587E0,-1.135804728E-1,2.026605755E-1,3.235645220E-2
3.502400785E0,-1.284937263E-1,2.463351339E-1,4.087831825E-2
3.504876983E0,-1.455374658E-1,2.825530469E-1,4.513924941E-2
3.507353233E0,-1.593854874E-1,3.177057505E-1,4.513924941E-2
3.509829431E0,-1.721682847E-1,3.581846058E-1,4.513924941E-2
3.512229379E0,-1.838858575E-1,4.071853161E-1,4.194355011E-2
3.514705525E0,-1.860163212E-1,4.540555775E-1,3.768261895E-2
3.517181775E0,-1.870815456E-1,4.892082810E-1,3.022598661E-2
3.519657921E0,-1.860163212E-1,5.094476938E-1,2.276935615E-2
3.522134119E0,-1.796249151E-1,5.254262090E-1,1.531272475E-2
3.524610316E0,-1.679073572E-1,5.318176150E-1,2.529928461E-3
3.527086514E0,-1.572550237E-1,5.222305059E-1,-1.025286783E-2
3.529562712E0,-1.380808353E-1,4.998605847E-1,-2.516612969E-2
3.532038910E0,-1.157109365E-1,4.668383598E-1,-3.688369319E-2
3.534515160E0,-9.227581322E-2,4.220985770E-1,-5.073172227E-2
3.536991358E0,-6.990591437E-2,3.688369393E-1,-6.457975507E-2
3.539467556E0,-4.966649041E-2,3.113143444E-1,-7.416684926E-2
3.541943754E0,-2.410089783E-2,2.505960763E-1,-8.268871158E-2
3.544381410E0,-2.796236658E-3,1.845516264E-1,-8.055824786E-2
3.546857556E0,2.383458801E-2,1.142462417E-1,-7.523208112E-2
3.549333754E0,5.579157919E-2,3.861469775E-2,-6.564498693E-2
3.551809952E0,8.668334037E-2,-3.382114694E-2,-6.457975507E-2
3.554286150E0,1.111836955E-1,-1.062569916E-1,-5.818835273E-2
3.556762348E0,1.335535944E-1,-1.776276082E-1,-5.073172227E-2
3.559238546E0,1.537930220E-1,-2.468677461E-1,-5.179695413E-2
3.561714744E0,1.729672104E-1,-3.086512685E-1,-4.860125855E-2
3.564190941E0,1.857500076E-1,-3.544562757E-1,-4.434032366E-2
3.566667139E0,1.889457107E-1,-3.821523488E-1,-4.327509180E-2
3.569143337E0,1.857500076E-1,-3.896089792E-1,-4.647079110E-2
3.571619587E0,1.761629134E-1,-3.832175732E-1,-4.753602296E-2
3.574095785E0,1.644453406E-1,-3.736304939E-1,-4.860125855E-2
3.576387296E0,1.495320797E-1,-3.587172329E-1,-5.179695413E-2
3.578863441E0,1.335535944E-1,-3.416734934E-1,-5.712312087E-2
3.581339639E0,1.133141592E-1,-3.161078990E-1,-6.457975507E-2
3.583815837E0,9.520520270E-2,-2.809551954E-1,-7.310161740E-2
3.586292035E0,7.177007198E-2,-2.383458912E-1,-8.481918275E-2
3.588768233E0,5.579157919E-2,-1.925408691E-1,-9.760197252E-2
3.591244431E0,3.661738336E-2,-1.478010863E-1,-1.082543060E-1
3.593720629E0,2.063889056E-2,-1.041265279E-1,-1.178414002E-1
3.596196879E0,3.595161485E-3,-6.897383928E-2,-1.263632625E-1
3.598673077E0,-5.991935730E-3,-4.234301299E-2,-1.274285018E-1
3.601149275E0,-1.344856713E-2,-2.316881903E-2,-1.231675670E-1
3.603625473E0,-1.451379992E-2,-1.038602181E-2,-1.167761683E-1
3.606101671E0,-1.451379992E-2,-5.059856921E-3,-1.082543060E-1
3.608625421E0,-1.664426550E-2,-7.989247679E-4,-9.760197252E-2
3.611100733E0,-1.238333434E-2,-1.864157850E-3,-8.268871158E-2
3.613576098E0,-8.122402243E-3,-1.038602181E-2,-7.310161740E-2
3.616051462E0,-2.796236658E-3,-1.358172111E-2,-5.925358832E-2
3.618526827E0,4.660394508E-3,-1.784265228E-2,-4.540555924E-2
3.621002191E0,1.424749196E-2,-2.210358530E-2,-3.581846133E-2
3.623477556E0,2.703028731E-2,-2.956021577E-2,-3.049229458E-2
3.625952869E0,3.342168778E-2,-3.914731368E-2,-1.983996481E-2
3.628428233E0,3.874785081E-2,-4.979964346E-2,-1.131810062E-2
3.630903598E0,4.833494872E-2,-5.193011090E-2,3.994623839E-4
3.633378962E0,5.472634733E-2,-5.406057462E-2,9.986559860E-3
3.635854327E0,5.685681105E-2,-4.979964346E-2,1.424749196E-2
3.638329691E0,6.111774594E-2,-4.234301299E-2,1.637795754E-2
3.640731150E0,6.218297780E-2,-3.382114694E-2,1.850842312E-2
3.643206410E0,6.111774594E-2,-2.636451647E-2,2.170412242E-2
3.645681775E0,5.685681105E-2,-1.784265228E-2,2.383458801E-2
3.648157139E0,5.472634733E-2,-7.190322969E-3,2.489982173E-2
3.650632504E0,5.366111174E-2,9.853405878E-3,2.703028731E-2
3.653107869E0,4.940018058E-2,2.902759984E-2,2.809552103E-2
3.655583233E0,5.153064802E-2,5.352795869E-2,2.383458801E-2
3.658058598E0,5.366111174E-2,7.909355313E-2,2.276935615E-2
3.660533962E0,6.218297780E-2,1.046591476E-1,2.276935615E-2
3.663009327E0,6.750914454E-2,1.280942708E-1,2.276935615E-2
3.665484691E0,7.177007198E-2,1.419423074E-1,2.916075476E-2
3.667960004E0,7.709623873E-2,1.419423074E-1,3.555215150E-2
3.670435369E0,7.922670245E-2,1.334204376E-1,5.259587988E-2
3.672894014E0,7.283531129E-2,1.131810099E-1,6.431344151E-2
3.675369327E0,6.005251035E-2,7.270215452E-2,7.496577501E-2
3.677844691E0,4.300878197E-2,2.157096937E-2,7.922670245E-2
3.680320056E0,2.809552103E-2,-2.423405088E-2,7.709623873E-2
3.682795421E0,1.105179265E-2,-5.832150951E-2,7.283531129E-2
3.685270785E0,-2.796236658E-3,-8.282186836E-2,7.070484012E-2
3.687746150E0,-1.344856713E-2,-9.347419441E-2,6.644391268E-2
3.690221462E0,-2.410089783E-2,-9.134373069E-2,6.218297780E-2
3.692696827E0,-2.410089783E-2,-8.175663650E-2,5.366111174E-2
3.695172191E0,-2.303566411E-2,-5.938674137E-2,4.726971686E-2
3.697647556E0,-2.410089783E-2,-3.275591508E-2,4.194355011E-2
3.700122921E0,-2.516612969E-2,-1.038602181E-2,4.407401755E-2
3.702598285E0,-2.836182900E-2,5.592473317E-3,4.726971686E-2
3.704916931E0,-2.729659714E-2,1.517957076E-2,4.726971686E-2
3.707392244E0,-3.475322574E-2,1.198387146E-2,4.087831825E-2
3.709867608E0,-3.688369319E-2,9.853405878E-3,3.661738336E-2
3.712342973E0,-3.475322574E-2,2.663082560E-4,3.661738336E-2
3.714818337E0,-3.368799388E-2,-6.125089712E-3,3.448691964E-2
3.717293650E0,-3.049229458E-2,-1.038602181E-2,2.809552103E-2
3.719769066E0,-2.942706272E-2,-1.464695390E-2,2.489982173E-2
3.722244379E0,-2.942706272E-2,-1.784265228E-2,1.744319126E-2
3.724719744E0,-2.623136342E-2,-1.890788600E-2,1.424749196E-2
3.727195108E0,-3.049229458E-2,-2.316881903E-2,9.986559860E-3
3.729670473E0,-3.475322574E-2,-2.529928461E-2,8.921326138E-3
3.732145837E0,-3.581846133E-2,-3.382114694E-2,7.856093347E-3
3.734621202E0,-4.007939249E-2,-4.340824485E-2,5.725627299E-3
3.737007400E0,-4.007939249E-2,-5.406057462E-2,5.725627299E-3
3.739482816E0,-4.434032366E-2,-6.577813625E-2,4.660394508E-3
3.741958181E0,-4.540555924E-2,-7.749570161E-2,3.595161485E-3
3.744433546E0,-4.647079110E-2,-9.240896255E-2,1.464695437E-3
3.746908910E0,-4.327509180E-2,-1.030612960E-1,3.595161485E-3
3.749384275E0,-4.327509180E-2,-1.158440933E-1,3.595161485E-3
3.751859639E0,-3.794892505E-2,-1.275616586E-1,3.595161485E-3
3.754334952E0,-3.475322574E-2,-1.382139921E-1,4.660394508E-3
3.756810316E0,-3.368799388E-2,-1.456706226E-1,4.660394508E-3
3.759285681E0,-3.155753016E-2,-1.541924775E-1,5.725627299E-3
3.761761046E0,-3.262276202E-2,-1.616491079E-1,6.790860556E-3
3.764236410E0,-3.155753016E-2,-1.669752747E-1,7.856093347E-3
3.766784379E0,-3.155753016E-2,-1.701709777E-1,7.856093347E-3
3.769259691E0,-3.155753016E-2,-1.744319052E-1,7.856093347E-3
3.771735056E0,-3.155753016E-2,-1.733666807E-1,9.986559860E-3
3.774210421E0,-3.155753016E-2,-1.744319052E-1,1.318225823E-2
3.776685785E0,-3.049229458E-2,-1.733666807E-1,1.531272475E-2
3.779161150E0,-3.155753016E-2,-1.712362021E-1,1.531272475E-2
3.781636514E0,-2.942706272E-2,-1.744319052E-1,1.637795754E-2
3.784111827E0,-2.729659714E-2,-1.754971445E-1,1.957365684E-2
3.786587191E0,-2.623136342E-2,-1.744319052E-1,1.957365684E-2
3.789062556E0,-2.516612969E-2,-1.754971445E-1,1.637795754E-2
3.791537921E0,-2.303566411E-2,-1.723014414E-1,2.489982173E-2
3.794013285E0,-2.197043039E-2,-1.723014414E-1,2.809552103E-2
3.796488650E0,-1.983996481E-2,-1.744319052E-1,2.809552103E-2
3.798914900E0,-1.664426550E-2,-1.786928326E-1,3.235645220E-2
3.801390212E0,-1.557903271E-2,-1.797580719E-1,3.235645220E-2
3.803865577E0,-1.770949923E-2,-1.840189993E-1,3.555215150E-2
3.806340889E0,-1.344856713E-2,-1.861494780E-1,3.768261895E-2
3.808816306E0,-1.238333434E-2,-1.882799417E-1,3.661738336E-2
3.811291671E0,-1.451379992E-2,-1.904104054E-1,3.874785081E-2
3.813767035E0,-1.025286783E-2,-1.936061084E-1,4.087831825E-2
3.816242348E0,-5.991935730E-3,-1.968017966E-1,4.300878197E-2
3.818717712E0,-3.861469682E-3,-1.946713328E-1,4.300878197E-2
3.821193077E0,-3.861469682E-3,-1.946713328E-1,4.300878197E-2
3.823668441E0,-1.731003635E-3,-1.957365721E-1,4.194355011E-2
3.826143806E0,-1.731003635E-3,-1.978670359E-1,4.407401755E-2
3.828619171E0,3.994623839E-4,-1.957365721E-1,4.407401755E-2
3.831045994E0,3.994623839E-4,-1.946713328E-1,4.620448127E-2
3.833521306E0,3.595161485E-3,-1.957365721E-1,4.620448127E-2
3.835996671E0,5.725627299E-3,-1.946713328E-1,4.620448127E-2
3.838472035E0,4.660394508E-3,-1.936061084E-1,4.726971686E-2
3.840947400E0,4.660394508E-3,-1.904104054E-1,4.300878197E-2
3.843422764E0,5.725627299E-3,-1.893451661E-1,4.194355011E-2
3.845898129E0,7.856093347E-3,-1.850842386E-1,4.194355011E-2
3.848373441E0,6.790860556E-3,-1.861494780E-1,4.300878197E-2
3.850848806E0,5.725627299E-3,-1.840189993E-1,3.874785081E-2
3.853324171E0,8.921326138E-3,-1.829537749E-1,3.981308267E-2
3.855799535E0,8.921326138E-3,-1.818885356E-1,3.981308267E-2
3.858274900E0,6.790860556E-3,-1.808233112E-1,3.768261895E-2
3.860750264E0,1.105179265E-2,-1.744319052E-1,3.448691964E-2
3.863186619E0,9.986559860E-3,-1.723014414E-1,3.342168778E-2
3.865661931E0,5.725627299E-3,-1.701709777E-1,3.235645220E-2
3.868137296E0,7.856093347E-3,-1.669752747E-1,3.235645220E-2
3.870612660E0,5.725627299E-3,-1.616491079E-1,3.129122034E-2
3.873088025E0,5.725627299E-3,-1.616491079E-1,2.703028731E-2
3.875563389E0,7.856093347E-3,-1.627143472E-1,2.703028731E-2
3.878038754E0,5.725627299E-3,-1.627143472E-1,2.596505545E-2
3.880514066E0,5.725627299E-3,-1.584534049E-1,2.276935615E-2
3.882989431E0,2.529928461E-3,-1.573881805E-1,2.170412242E-2
3.885464796E0,8.921326138E-3,-1.541924775E-1,2.063889056E-2
3.887940160E0,9.986559860E-3,-1.531272531E-1,1.850842312E-2
3.890415525E0,9.986559860E-3,-1.499315500E-1,1.531272475E-2
3.892890889E0,1.211702544E-2,-1.499315500E-1,1.424749196E-2
3.895318025E0,1.105179265E-2,-1.520620137E-1,1.318225823E-2
3.897793337E0,1.318225823E-2,-1.499315500E-1,1.424749196E-2
3.900268702E0,1.105179265E-2,-1.478010863E-1,1.211702544E-2
3.902744066E0,9.986559860E-3,-1.509967744E-1,8.921326138E-3
3.905219431E0,1.531272475E-2,-1.509967744E-1,7.856093347E-3
3.907694744E0,1.424749196E-2,-1.520620137E-1,8.921326138E-3
3.910170160E0,1.531272475E-2,-1.499315500E-1,7.856093347E-3
3.912645473E0,1.957365684E-2,-1.531272531E-1,6.790860556E-3
3.915120837E0,1.957365684E-2,-1.552577168E-1,4.660394508E-3
3.917596202E0,2.276935615E-2,-1.541924775E-1,2.529928461E-3
3.920071566E0,2.596505545E-2,-1.563229412E-1,4.660394508E-3
3.922546931E0,2.703028731E-2,-1.595186442E-1,4.660394508E-3
3.925022296E0,2.916075476E-2,-1.595186442E-1,6.790860556E-3
3.927447191E0,3.555215150E-2,-1.595186442E-1,6.790860556E-3
3.929922504E0,3.981308267E-2,-1.627143472E-1,8.921326138E-3
3.932397869E0,4.194355011E-2,-1.627143472E-1,8.921326138E-3
3.934873233E0,4.513924941E-2,-1.605838835E-1,9.986559860E-3
3.937348598E0,4.833494872E-2,-1.595186442E-1,1.105179265E-2
3.939823962E0,5.472634733E-2,-1.552577168E-1,1.318225823E-2
3.942299327E0,5.579157919E-2,-1.520620137E-1,1.318225823E-2
3.944774639E0,5.792204663E-2,-1.520620137E-1,1.318225823E-2
3.947250004E0,6.324820966E-2,-1.499315500E-1,1.744319126E-2
3.949725369E0,6.324820966E-2,-1.478010863E-1,1.744319126E-2
3.952200733E0,6.537867337E-2,-1.446053833E-1,1.957365684E-2
3.954676098E0,6.750914454E-2,-1.392792165E-1,2.063889056E-2
3.957151462E0,6.644391268E-2,-1.371487528E-1,1.850842312E-2
3.959574535E0,6.537867337E-2,-1.328878254E-1,2.063889056E-2
3.962049848E0,6.750914454E-2,-1.296921223E-1,2.170412242E-2
3.964525212E0,6.750914454E-2,-1.211702600E-1,1.850842312E-2
3.967000577E0,6.537867337E-2,-1.137136221E-1,1.850842312E-2
3.969475941E0,6.750914454E-2,-9.986559302E-2,1.531272475E-2
3.971951306E0,6.857437640E-2,-9.347419441E-2,1.531272475E-2
3.974426671E0,6.644391268E-2,-9.027849883E-2,1.318225823E-2
3.976901983E0,6.537867337E-2,-8.601756394E-2,1.531272475E-2
3.979377348E0,6.431344151E-2,-8.814803511E-2,1.531272475E-2
3.981852712E0,6.111774594E-2,-8.282186836E-2,1.211702544E-2
3.984328077E0,6.111774594E-2,-7.749570161E-2,7.856093347E-3
3.986803441E0,5.792204663E-2,-7.430000603E-2,7.856093347E-3
3.989278806E0,5.579157919E-2,-7.110430300E-2,5.725627299E-3
3.991702921E0,5.259587988E-2,-6.577813625E-2,2.529928461E-3
3.994178233E0,4.620448127E-2,-5.725627393E-2,1.464695437E-3
3.996653598E0,4.513924941E-2,-5.406057462E-2,-2.796236658E-3
3.999128962E0,4.513924941E-2,-4.553871229E-2,-2.796236658E-3
4.001604327E0,4.300878197E-2,-3.808208182E-2,-3.861469682E-3
4.004079691E0,4.300878197E-2,-3.275591508E-2,-5.991935730E-3
4.006555004E0,4.087831825E-2,-2.742975019E-2,-7.057168987E-3
4.009030369E0,3.768261895E-2,-1.890788600E-2,-1.451379992E-2
4.011505733E0,3.448691964E-2,-1.251648832E-2,-1.664426550E-2
4.013981098E0,3.342168778E-2,-2.929390874E-3,-1.451379992E-2
4.016456462E0,2.916075476E-2,2.396774245E-3,-1.557903271E-2
4.018931827E0,2.596505545E-2,7.722939365E-3,-1.344856713E-2
4.021407191E0,2.489982173E-2,1.731003635E-2,-1.238333434E-2
4.023825577E0,2.383458801E-2,2.583190054E-2,-1.451379992E-2
4.026300889E0,1.957365684E-2,3.328853101E-2,-1.344856713E-2
4.028776254E0,1.850842312E-2,4.181039706E-2,-1.557903271E-2
4.031251566E0,1.637795754E-2,5.033225939E-2,-1.770949923E-2
4.033726983E0,1.424749196E-2,5.991935730E-2,-2.090519853E-2
4.036202348E0,1.211702544E-2,6.631075591E-2,-2.303566411E-2
4.038677712E0,1.318225823E-2,7.483261824E-2,-2.197043039E-2
4.041153025E0,1.318225823E-2,8.015878499E-2,-1.877473295E-2
4.043628389E0,8.921326138E-3,8.868064731E-2,-1.451379992E-2
4.046103754E0,7.856093347E-3,9.613727778E-2,-1.451379992E-2
4.048579119E0,1.464695437E-3,1.046591476E-1,-1.451379992E-2
4.051054483E0,-3.861469682E-3,1.099853069E-1,-1.131810062E-2
4.053529848E0,-7.057168987E-3,1.153114736E-1,-1.131810062E-2
4.055807816E0,-9.187635034E-3,1.185071766E-1,-1.238333434E-2
4.058283077E0,-1.025286783E-2,1.206376404E-1,-1.344856713E-2
4.060758441E0,-7.057168987E-3,1.174419373E-1,-1.451379992E-2
4.063233806E0,-8.122402243E-3,1.153114736E-1,-1.238333434E-2
4.065709171E0,-9.187635034E-3,1.131810099E-1,-7.057168987E-3
4.068184535E0,-1.025286783E-2,1.099853069E-1,-5.991935730E-3
4.070659900E0,-1.238333434E-2,1.078548431E-1,-2.796236658E-3
4.073135264E0,-1.238333434E-2,1.089200750E-1,-2.796236658E-3
4.075610629E0,-1.451379992E-2,1.089200750E-1,1.464695437E-3
4.078085994E0,-1.344856713E-2,1.099853069E-1,4.660394508E-3
4.080561358E0,-1.451379992E-2,1.089200750E-1,3.994623839E-4
4.083036671E0,-1.877473295E-2,1.089200750E-1,-6.657706108E-4
4.085512035E0,-1.983996481E-2,1.089200750E-1,1.464695437E-3
4.088082504E0,-2.090519853E-2,1.067896113E-1,3.994623839E-4
4.090557816E0,-2.197043039E-2,1.046591476E-1,1.464695437E-3
4.093033181E0,-2.516612969E-2,1.014634445E-1,2.529928461E-3
4.095508546E0,-2.729659714E-2,9.933298081E-2,4.660394508E-3
4.097983910E0,-3.155753016E-2,9.826774895E-2,5.725627299E-3
4.100459275E0,-3.049229458E-2,9.933298081E-2,8.921326138E-3
4.102934639E0,-2.729659714E-2,9.933298081E-2,1.211702544E-2
4.105409952E0,-3.155753016E-2,9.933298081E-2,9.986559860E-3
4.107885316E0,-3.794892505E-2,9.613727778E-2,7.856093347E-3
4.110360681E0,-3.581846133E-2,9.826774895E-2,8.921326138E-3
4.112836046E0,-3.794892505E-2,9.720251709E-2,1.105179265E-2
4.115311410E0,-4.434032366E-2,9.613727778E-2,8.921326138E-3
4.117786723E0,-4.434032366E-2,9.613727778E-2,9.986559860E-3
4.120204379E0,-4.540555924E-2,9.187635034E-2,8.921326138E-3
4.122678910E0,-4.753602296E-2,9.294158220E-2,1.105179265E-2
4.125153494E0,-5.073172227E-2,8.441971987E-2,1.318225823E-2
4.127628025E0,-5.392742157E-2,8.228924870E-2,1.211702544E-2
4.130102608E0,-5.712312087E-2,8.122401685E-2,1.637795754E-2
4.132577191E0,-6.031882018E-2,7.696308941E-2,1.850842312E-2
4.135051723E0,-6.138405204E-2,7.163692266E-2,1.850842312E-2
4.137526306E0,-6.244928762E-2,6.950645149E-2,1.637795754E-2
4.140000889E0,-6.457975507E-2,6.737598777E-2,1.850842312E-2
4.142475421E0,-6.457975507E-2,6.524552405E-2,2.063889056E-2
4.144950004E0,-6.351451576E-2,6.418029219E-2,1.850842312E-2
4.147424587E0,-6.244928762E-2,5.991935730E-2,1.744319126E-2
4.149899119E0,-6.244928762E-2,5.778888986E-2,1.744319126E-2
4.152339796E0,-6.244928762E-2,5.672365800E-2,1.637795754E-2
4.154814327E0,-6.138405204E-2,5.139749497E-2,1.531272475E-2
4.157288858E0,-6.138405204E-2,5.139749497E-2,1.211702544E-2
4.159763441E0,-6.031882018E-2,5.139749497E-2,9.986559860E-3
4.162238025E0,-6.031882018E-2,5.139749497E-2,8.921326138E-3
4.164712608E0,-5.925358832E-2,5.139749497E-2,3.595161485E-3
4.167187139E0,-5.392742157E-2,5.459319428E-2,1.464695437E-3
4.169661723E0,-5.286218971E-2,5.246272683E-2,-6.657706108E-4
4.172136306E0,-5.286218971E-2,5.139749497E-2,-4.926702939E-3
4.174610837E0,-5.392742157E-2,5.139749497E-2,-7.057168987E-3
4.177085421E0,-4.966649041E-2,5.033225939E-2,-9.187635034E-3
4.179560004E0,-4.753602296E-2,4.820179567E-2,-1.131810062E-2
4.182034535E0,-4.434032366E-2,4.713656008E-2,-1.451379992E-2
4.184471098E0,-4.434032366E-2,4.500609636E-2,-1.770949923E-2
4.186945629E0,-4.327509180E-2,4.287562892E-2,-1.877473295E-2
4.189420212E0,-4.007939249E-2,4.181039706E-2,-2.303566411E-2
4.191894744E0,-3.794892505E-2,4.074516147E-2,-2.516612969E-2
4.194369327E0,-3.794892505E-2,3.861469775E-2,-2.623136342E-2
4.196843910E0,-3.581846133E-2,3.648423031E-2,-2.623136342E-2
4.199318441E0,-2.942706272E-2,3.861469775E-2,-2.410089783E-2
4.201793025E0,-2.729659714E-2,3.967992961E-2,-2.410089783E-2
4.204267608E0,-2.410089783E-2,3.861469775E-2,-2.516612969E-2
4.206742139E0,-2.303566411E-2,3.754946589E-2,-2.516612969E-2
4.209216723E0,-1.770949923E-2,3.648423031E-2,-2.729659714E-2
4.211691306E0,-1.238333434E-2,3.648423031E-2,-2.836182900E-2
4.214165837E0,-1.131810062E-2,3.541899845E-2,-3.049229458E-2
4.216446306E0,-7.057168987E-3,3.222329915E-2,-3.155753016E-2
4.218920837E0,-3.861469682E-3,3.009283356E-2,-3.155753016E-2
4.221395369E0,-2.796236658E-3,3.115806542E-2,-2.836182900E-2
4.223869952E0,-6.657706108E-4,3.222329915E-2,-2.516612969E-2
4.226344535E0,2.529928461E-3,3.754946589E-2,-2.623136342E-2
4.228819066E0,4.660394508E-3,3.967992961E-2,-2.410089783E-2
4.231293650E0,7.856093347E-3,4.394086078E-2,-2.303566411E-2
4.233768233E0,8.921326138E-3,4.394086078E-2,-2.090519853E-2
4.236242764E0,1.105179265E-2,4.713656008E-2,-1.983996481E-2
4.238717348E0,1.424749196E-2,5.139749497E-2,-1.770949923E-2
4.241191931E0,1.318225823E-2,5.033225939E-2,-1.983996481E-2
4.243666462E0,1.744319126E-2,5.033225939E-2,-2.303566411E-2
4.246141046E0,1.850842312E-2,5.246272683E-2,-2.516612969E-2
4.248715941E0,1.850842312E-2,5.352795869E-2,-2.303566411E-2
4.251190473E0,1.850842312E-2,5.565842614E-2,-2.090519853E-2
4.253665056E0,1.850842312E-2,5.459319428E-2,-1.877473295E-2
4.256139587E0,1.637795754E-2,5.672365800E-2,-1.664426550E-2
4.258614171E0,1.744319126E-2,5.778888986E-2,-1.344856713E-2
4.261088754E0,1.957365684E-2,5.672365800E-2,-1.664426550E-2
4.263563285E0,2.170412242E-2,5.565842614E-2,-1.344856713E-2
4.266037869E0,2.170412242E-2,5.139749497E-2,-1.344856713E-2
4.268512452E0,2.063889056E-2,4.820179567E-2,-1.238333434E-2
4.270986983E0,2.276935615E-2,4.926702753E-2,-1.131810062E-2
4.273461566E0,1.957365684E-2,4.607132822E-2,-1.025286783E-2
4.275936150E0,1.850842312E-2,4.287562892E-2,-1.025286783E-2
4.278410681E0,1.637795754E-2,4.181039706E-2,-8.122402243E-3
4.280853806E0,1.637795754E-2,4.287562892E-2,-9.187635034E-3
4.283328337E0,1.531272475E-2,3.967992961E-2,-3.861469682E-3
4.285802921E0,1.744319126E-2,3.967992961E-2,-3.861469682E-3
4.288277452E0,1.850842312E-2,4.074516147E-2,-2.796236658E-3
4.290752035E0,1.531272475E-2,4.074516147E-2,-6.657706108E-4
4.293226619E0,1.637795754E-2,4.287562892E-2,-6.657706108E-4
4.295701150E0,1.531272475E-2,4.500609636E-2,-2.796236658E-3
4.298175733E0,1.531272475E-2,4.394086078E-2,-1.731003635E-3
4.300650316E0,1.211702544E-2,4.820179567E-2,-6.657706108E-4
4.303124848E0,1.105179265E-2,5.139749497E-2,-6.657706108E-4
4.305599431E0,8.921326138E-3,5.459319428E-2,3.994623839E-4
4.308074014E0,5.725627299E-3,5.565842614E-2,3.994623839E-4
4.310548546E0,5.725627299E-3,5.352795869E-2,-2.796236658E-3
4.312958181E0,4.660394508E-3,5.565842614E-2,-5.991935730E-3
4.315432712E0,3.595161485E-3,5.672365800E-2,-4.926702939E-3
4.317907244E0,2.529928461E-3,5.565842614E-2,-2.796236658E-3
4.320381827E0,-1.731003635E-3,5.778888986E-2,-4.926702939E-3
4.322856410E0,-2.796236658E-3,5.459319428E-2,-3.861469682E-3
4.325330941E0,-4.926702939E-3,5.565842614E-2,-3.861469682E-3
4.327805525E0,-7.057168987E-3,5.459319428E-2,-5.991935730E-3
4.330280108E0,-7.057168987E-3,5.352795869E-2,-8.122402243E-3
4.332754639E0,-7.057168987E-3,5.033225939E-2,-8.122402243E-3
4.335229223E0,-1.131810062E-2,4.500609636E-2,-4.926702939E-3
4.337703754E0,-1.344856713E-2,4.500609636E-2,-4.926702939E-3
4.340178337E0,-1.664426550E-2,4.074516147E-2,-9.187635034E-3
4.342652921E0,-1.664426550E-2,3.541899845E-2,-9.187635034E-3
4.345109275E0,-1.451379992E-2,3.328853101E-2,-7.057168987E-3
4.347583806E0,-1.983996481E-2,3.115806542E-2,-8.122402243E-3
4.350058389E0,-1.983996481E-2,2.583190054E-2,-9.187635034E-3
4.352532921E0,-2.197043039E-2,2.370143496E-2,-8.122402243E-3
4.355007504E0,-2.410089783E-2,1.944050193E-2,-7.057168987E-3
4.357482035E0,-2.516612969E-2,1.837527007E-2,-3.861469682E-3
4.359956619E0,-2.729659714E-2,1.624480449E-2,-5.991935730E-3
4.362431202E0,-2.942706272E-2,1.091863867E-2,-1.025286783E-2
4.364905785E0,-3.155753016E-2,1.198387146E-2,-1.025286783E-2
4.367380316E0,-3.155753016E-2,1.091863867E-2,-8.122402243E-3
4.369854900E0,-3.049229458E-2,8.788172156E-3,-1.238333434E-2
4.372329483E0,-3.155753016E-2,1.091863867E-2,-8.122402243E-3
4.374804014E0,-3.581846133E-2,1.198387146E-2,-8.122402243E-3
4.377088077E0,-3.475322574E-2,1.411433797E-2,-7.057168987E-3
4.379562660E0,-3.581846133E-2,1.517957076E-2,-5.991935730E-3
4.382037244E0,-3.475322574E-2,1.624480449E-2,-5.991935730E-3
4.384511827E0,-3.475322574E-2,1.517957076E-2,-9.187635034E-3
4.386986358E0,-3.581846133E-2,1.731003635E-2,-8.122402243E-3
4.389460941E0,-3.794892505E-2,2.050573565E-2,-8.122402243E-3
4.391935525E0,-3.581846133E-2,2.476666868E-2,-7.057168987E-3
4.394410056E0,-3.368799388E-2,2.796236612E-2,-8.122402243E-3
4.396884639E0,-3.262276202E-2,3.115806542E-2,-1.025286783E-2
4.399359223E0,-3.262276202E-2,3.222329915E-2,-8.122402243E-3
4.401833754E0,-3.475322574E-2,3.009283356E-2,-4.926702939E-3
4.404308337E0,-3.368799388E-2,3.222329915E-2,-5.991935730E-3
4.406738598E0,-3.368799388E-2,3.541899845E-2,-2.796236658E-3
4.409213181E0,-3.581846133E-2,4.074516147E-2,-2.796236658E-3
4.411687764E0,-3.794892505E-2,4.287562892E-2,-2.796236658E-3
4.414162348E0,-3.688369319E-2,4.500609636E-2,-2.796236658E-3
4.416636879E0,-3.901416063E-2,4.394086078E-2,-2.796236658E-3
4.419111462E0,-4.114462435E-2,4.713656008E-2,-6.657706108E-4
4.421586046E0,-4.007939249E-2,4.926702753E-2,3.994623839E-4
4.424060577E0,-3.901416063E-2,4.820179567E-2,1.464695437E-3
4.426535160E0,-3.794892505E-2,4.713656008E-2,2.529928461E-3
4.429009744E0,-4.007939249E-2,4.713656008E-2,3.994623839E-4
4.431484275E0,-4.007939249E-2,4.713656008E-2,2.529928461E-3
4.433958858E0,-3.901416063E-2,4.820179567E-2,1.464695437E-3
4.436421254E0,-3.581846133E-2,4.500609636E-2,-6.657706108E-4
4.438895785E0,-3.688369319E-2,4.074516147E-2,-2.796236658E-3
4.441370369E0,-3.794892505E-2,4.074516147E-2,3.994623839E-4
4.443844900E0,-4.007939249E-2,4.287562892E-2,4.660394508E-3
4.446319483E0,-3.901416063E-2,4.500609636E-2,6.790860556E-3
4.448794066E0,-3.901416063E-2,4.926702753E-2,7.856093347E-3
4.451268598E0,-3.688369319E-2,5.246272683E-2,6.790860556E-3
4.453743181E0,-3.901416063E-2,5.352795869E-2,9.986559860E-3
4.456217764E0,-3.794892505E-2,5.778888986E-2,1.105179265E-2
4.458692296E0,-3.794892505E-2,5.565842614E-2,8.921326138E-3
4.461166879E0,-3.688369319E-2,5.459319428E-2,9.986559860E-3
4.463641462E0,-3.688369319E-2,5.885412544E-2,8.921326138E-3
4.466116046E0,-3.368799388E-2,5.991935730E-2,1.211702544E-2
4.468661827E0,-3.581846133E-2,5.672365800E-2,1.211702544E-2
4.471136358E0,-3.475322574E-2,5.565842614E-2,1.105179265E-2
4.473610941E0,-3.368799388E-2,5.778888986E-2,1.105179265E-2
4.476085473E0,-3.581846133E-2,5.352795869E-2,1.211702544E-2
4.478560056E0,-3.581846133E-2,5.139749497E-2,9.986559860E-3
4.481034639E0,-3.475322574E-2,4.926702753E-2,1.105179265E-2
4.483509171E0,-3.475322574E-2,5.139749497E-2,1.105179265E-2
4.485983754E0,-3.368799388E-2,4.926702753E-2,8.921326138E-3
4.488458337E0,-3.475322574E-2,4.926702753E-2,9.986559860E-3
4.490932869E0,-3.475322574E-2,4.607132822E-2,1.105179265E-2
4.493407452E0,-3.368799388E-2,4.394086078E-2,1.318225823E-2
4.495882035E0,-3.475322574E-2,4.074516147E-2,1.318225823E-2
4.498356566E0,-3.262276202E-2,3.967992961E-2,1.211702544E-2
4.500789066E0,-3.155753016E-2,3.328853101E-2,9.986559860E-3
4.503263598E0,-3.262276202E-2,3.115806542E-2,1.105179265E-2
4.505738181E0,-3.049229458E-2,2.370143496E-2,1.318225823E-2
4.508212712E0,-2.836182900E-2,2.050573565E-2,1.424749196E-2
4.510687296E0,-2.942706272E-2,1.837527007E-2,9.986559860E-3
4.513161879E0,-2.516612969E-2,1.198387146E-2,2.529928461E-3
4.515636410E0,-2.197043039E-2,5.592473317E-3,-1.731003635E-3
4.518110994E0,-2.090519853E-2,2.396774245E-3,1.464695437E-3
4.520585577E0,-2.090519853E-2,-7.989247679E-4,5.725627299E-3
4.523060108E0,-2.197043039E-2,-1.864157850E-3,5.725627299E-3
4.525534691E0,-1.770949923E-2,-7.989247679E-4,5.725627299E-3
4.528009275E0,-1.664426550E-2,4.527240526E-3,3.994623839E-4
4.530483806E0,-1.451379992E-2,4.527240526E-3,3.994623839E-4
4.532919327E0,-1.238333434E-2,6.657706574E-3,3.994623839E-4
4.535393858E0,-9.187635034E-3,6.657706574E-3,3.994623839E-4
4.537868441E0,-5.991935730E-3,1.091863867E-2,-6.657706108E-4
4.540342973E0,-3.861469682E-3,1.517957076E-2,2.529928461E-3
4.542817556E0,-2.796236658E-3,1.411433797E-2,-6.657706108E-4
4.545292139E0,-6.657706108E-4,1.944050193E-2,-1.731003635E-3
4.547766671E0,-6.657706108E-4,2.263620123E-2,-6.657706108E-4
4.550241254E0,3.994623839E-4,2.370143496E-2,-1.731003635E-3
4.552715837E0,3.595161485E-3,2.689713426E-2,-3.861469682E-3
4.555190369E0,5.725627299E-3,3.009283356E-2,-3.861469682E-3
4.557664952E0,5.725627299E-3,3.648423031E-2,-3.861469682E-3
4.560139535E0,4.660394508E-3,3.648423031E-2,-3.861469682E-3
4.562614066E0,6.790860556E-3,3.754946589E-2,-2.796236658E-3
4.565042035E0,5.725627299E-3,3.967992961E-2,-2.796236658E-3
4.567516566E0,5.725627299E-3,3.861469775E-2,-3.861469682E-3
4.569991098E0,6.790860556E-3,4.074516147E-2,-8.122402243E-3
4.572465681E0,9.986559860E-3,4.394086078E-2,-8.122402243E-3
4.574940264E0,9.986559860E-3,4.394086078E-2,-3.861469682E-3
4.577414796E0,1.318225823E-2,3.967992961E-2,-7.057168987E-3
4.579889379E0,1.424749196E-2,3.861469775E-2,-7.057168987E-3
4.582363962E0,1.744319126E-2,4.074516147E-2,-7.057168987E-3
4.584838546E0,2.063889056E-2,4.074516147E-2,-8.122402243E-3
4.587313077E0,2.170412242E-2,3.861469775E-2,-7.057168987E-3
4.589787660E0,2.276935615E-2,4.181039706E-2,-4.926702939E-3
4.592262244E0,2.489982173E-2,4.394086078E-2,-4.926702939E-3
4.594736775E0,2.383458801E-2,4.394086078E-2,-4.926702939E-3
4.597045473E0,2.596505545E-2,4.607132822E-2,-4.926702939E-3
4.599520056E0,3.129122034E-2,4.820179567E-2,-3.861469682E-3
4.601994639E0,3.235645220E-2,5.139749497E-2,-3.861469682E-3
4.604469223E0,3.022598661E-2,5.459319428E-2,-3.861469682E-3
4.606943754E0,3.448691964E-2,5.459319428E-2,-1.731003635E-3
4.609418337E0,3.874785081E-2,5.352795869E-2,-6.657706108E-4
4.611892921E0,3.981308267E-2,5.778888986E-2,-6.657706108E-4
4.614367452E0,3.874785081E-2,5.885412544E-2,-6.657706108E-4
4.616842035E0,4.087831825E-2,5.885412544E-2,3.994623839E-4
4.619316619E0,3.874785081E-2,6.204982474E-2,3.994623839E-4
4.621791150E0,4.087831825E-2,6.418029219E-2,3.994623839E-4
4.624265733E0,4.194355011E-2,6.737598777E-2,3.994623839E-4
4.626830316E0,4.194355011E-2,6.311506033E-2,-6.657706108E-4
4.629304223E0,4.194355011E-2,6.631075591E-2,3.994623839E-4
4.631778129E0,3.874785081E-2,6.737598777E-2,3.994623839E-4
4.634252035E0,4.194355011E-2,6.418029219E-2,-1.731003635E-3
4.636725994E0,3.768261895E-2,6.631075591E-2,-1.731003635E-3
4.639199900E0,3.555215150E-2,6.844121963E-2,-1.731003635E-3
4.641673806E0,3.342168778E-2,6.950645149E-2,-2.796236658E-3
4.644147764E0,3.555215150E-2,6.950645149E-2,-3.861469682E-3
4.646621671E0,3.235645220E-2,6.737598777E-2,-1.731003635E-3
4.649095577E0,3.129122034E-2,6.737598777E-2,-6.657706108E-4
4.651569535E0,3.129122034E-2,6.737598777E-2,-2.796236658E-3
4.654043441E0,2.596505545E-2,6.418029219E-2,-4.926702939E-3
4.656517348E0,2.703028731E-2,6.737598777E-2,-4.926702939E-3
4.658957504E0,2.703028731E-2,6.737598777E-2,-4.926702939E-3
4.661431410E0,2.596505545E-2,6.524552405E-2,-2.796236658E-3
4.663905316E0,2.276935615E-2,6.418029219E-2,-7.057168987E-3
4.666379223E0,2.276935615E-2,6.418029219E-2,-7.057168987E-3
4.668853181E0,2.276935615E-2,6.311506033E-2,-5.991935730E-3
4.671327087E0,1.850842312E-2,5.991935730E-2,-8.122402243E-3
4.673800994E0,1.744319126E-2,5.459319428E-2,-7.057168987E-3
4.676274952E0,1.957365684E-2,5.352795869E-2,-9.187635034E-3
4.678748858E0,2.170412242E-2,5.139749497E-2,-7.057168987E-3
4.681222764E0,1.957365684E-2,4.713656008E-2,-8.122402243E-3
4.683696723E0,1.744319126E-2,4.607132822E-2,-8.122402243E-3
4.686170629E0,1.850842312E-2,4.181039706E-2,-7.057168987E-3
4.688644535E0,1.744319126E-2,3.754946589E-2,-8.122402243E-3
4.691082087E0,1.637795754E-2,3.435376659E-2,-5.991935730E-3
4.693555994E0,1.531272475E-2,3.328853101E-2,-7.057168987E-3
4.696029900E0,1.424749196E-2,3.222329915E-2,-3.861469682E-3
4.698503806E0,1.211702544E-2,3.115806542E-2,-7.057168987E-3
4.700977764E0,1.211702544E-2,2.902759984E-2,-7.057168987E-3
4.703451671E0,8.921326138E-3,3.115806542E-2,-8.122402243E-3
4.705925629E0,6.790860556E-3,2.796236612E-2,-1.025286783E-2
4.708399535E0,5.725627299E-3,2.689713426E-2,-9.187635034E-3
4.710873441E0,1.464695437E-3,2.689713426E-2,-9.187635034E-3
4.713347348E0,3.994623839E-4,2.689713426E-2,-1.025286783E-2
4.715821306E0,-2.796236658E-3,2.902759984E-2,-1.025286783E-2
4.718295212E0,-4.926702939E-3,3.541899845E-2,-1.025286783E-2
4.720769119E0,-3.861469682E-3,3.648423031E-2,-1.238333434E-2
4.723213025E0,-9.187635034E-3,3.754946589E-2,-9.187635034E-3
4.725686931E0,-9.187635034E-3,3.648423031E-2,-9.187635034E-3
4.728160837E0,-8.122402243E-3,3.541899845E-2,-1.025286783E-2
4.730634744E0,-8.122402243E-3,3.754946589E-2,-1.238333434E-2
4.733108702E0,-1.238333434E-2,3.967992961E-2,-1.025286783E-2
4.735582608E0,-1.344856713E-2,4.074516147E-2,-8.122402243E-3
4.738056514E0,-1.344856713E-2,3.967992961E-2,-5.991935730E-3
4.740530473E0,-1.451379992E-2,3.648423031E-2,-5.991935730E-3
4.743004379E0,-1.664426550E-2,3.861469775E-2,-7.057168987E-3
4.745478285E0,-1.770949923E-2,3.967992961E-2,-7.057168987E-3
4.747952244E0,-1.664426550E-2,3.967992961E-2,-5.991935730E-3
4.750426150E0,-1.770949923E-2,3.861469775E-2,-8.122402243E-3
4.752900056E0,-1.983996481E-2,4.074516147E-2,-5.991935730E-3
4.755337816E0,-1.877473295E-2,4.287562892E-2,-3.861469682E-3
4.757811723E0,-1.770949923E-2,4.713656008E-2,-3.861469682E-3
4.760285629E0,-2.197043039E-2,4.500609636E-2,-4.926702939E-3
4.762759535E0,-2.090519853E-2,4.500609636E-2,-4.926702939E-3
4.765233494E0,-1.983996481E-2,4.607132822E-2,-2.796236658E-3
4.767707400E0,-2.197043039E-2,4.607132822E-2,-3.861469682E-3
4.770181306E0,-2.410089783E-2,4.820179567E-2,-2.796236658E-3
4.772655264E0,-2.516612969E-2,5.033225939E-2,-6.657706108E-4
4.775129171E0,-1.983996481E-2,4.926702753E-2,-1.731003635E-3
4.777603077E0,-2.090519853E-2,4.713656008E-2,-6.657706108E-4
4.780077035E0,-2.410089783E-2,4.713656008E-2,-1.731003635E-3
4.782550941E0,-2.197043039E-2,4.820179567E-2,-1.731003635E-3
4.785024848E0,-2.303566411E-2,4.926702753E-2,-5.991935730E-3
4.787476306E0,-2.197043039E-2,5.139749497E-2,-3.861469682E-3
4.789950212E0,-2.410089783E-2,5.246272683E-2,-2.796236658E-3
4.792424119E0,-2.623136342E-2,5.033225939E-2,-4.926702939E-3
4.794898025E0,-2.516612969E-2,5.033225939E-2,-4.926702939E-3
4.797371983E0,-2.303566411E-2,5.352795869E-2,-5.991935730E-3
4.799845889E0,-2.410089783E-2,5.459319428E-2,-7.057168987E-3
4.802319796E0,-2.516612969E-2,5.885412544E-2,-2.796236658E-3
4.804793754E0,-2.410089783E-2,6.098458916E-2,-4.926702939E-3
4.807267712E0,-2.410089783E-2,5.885412544E-2,-5.991935730E-3
4.809741566E0,-2.303566411E-2,6.204982474E-2,-5.991935730E-3
4.812215525E0,-2.410089783E-2,6.418029219E-2,-9.187635034E-3
4.814689431E0,-2.090519853E-2,6.418029219E-2,-8.122402243E-3
4.817163389E0,-2.090519853E-2,6.844121963E-2,-9.187635034E-3
4.819600681E0,-2.623136342E-2,7.057169080E-2,-8.122402243E-3
4.822074587E0,-2.623136342E-2,7.163692266E-2,-8.122402243E-3
4.824548494E0,-2.516612969E-2,7.376738638E-2,-9.187635034E-3
4.827022400E0,-2.516612969E-2,7.589785010E-2,-1.131810062E-2
4.829496358E0,-2.410089783E-2,7.696308941E-2,-1.131810062E-2
4.831970264E0,-2.197043039E-2,7.909355313E-2,-1.238333434E-2
4.834444171E0,-2.303566411E-2,8.335448056E-2,-1.451379992E-2
4.836918129E0,-2.197043039E-2,8.868064731E-2,-1.344856713E-2
4.839392035E0,-2.197043039E-2,8.974587917E-2,-1.451379992E-2
4.841865941E0,-2.303566411E-2,8.974587917E-2,-1.664426550E-2
4.844339900E0,-1.983996481E-2,9.294158220E-2,-1.557903271E-2
4.846813806E0,-1.877473295E-2,9.613727778E-2,-1.664426550E-2
4.849287712E0,-1.877473295E-2,9.933298081E-2,-1.344856713E-2
4.851723806E0,-1.770949923E-2,9.933298081E-2,-1.238333434E-2
4.854197712E0,-1.344856713E-2,9.720251709E-2,-1.238333434E-2
4.856671619E0,-1.238333434E-2,9.826774895E-2,-1.238333434E-2
4.859145525E0,-8.122402243E-3,9.720251709E-2,-1.557903271E-2
4.861619483E0,-8.122402243E-3,1.003982127E-1,-1.451379992E-2
4.864093389E0,-7.057168987E-3,1.035939083E-1,-1.238333434E-2
4.866567296E0,-2.796236658E-3,1.089200750E-1,-1.131810062E-2
4.869041254E0,-4.926702939E-3,1.078548431E-1,-1.238333434E-2
4.871515160E0,-3.861469682E-3,1.089200750E-1,-1.131810062E-2
4.873989066E0,3.994623839E-4,1.110505462E-1,-1.238333434E-2
4.876463025E0,4.660394508E-3,1.078548431E-1,-1.025286783E-2
4.878936931E0,6.790860556E-3,1.078548431E-1,-1.238333434E-2
4.881410837E0,1.211702544E-2,1.089200750E-1,-1.344856713E-2
4.883852504E0,1.211702544E-2,1.142462417E-1,-1.451379992E-2
4.886326410E0,1.424749196E-2,1.195724085E-1,-1.238333434E-2
4.888800316E0,1.850842312E-2,1.227681041E-1,-1.344856713E-2
4.891274223E0,2.170412242E-2,1.227681041E-1,-1.344856713E-2
4.893748181E0,2.383458801E-2,1.248985752E-1,-1.451379992E-2
4.896222087E0,3.022598661E-2,1.259638071E-1,-1.557903271E-2
4.898695994E0,3.342168778E-2,1.355509013E-1,-1.664426550E-2
4.901169952E0,3.661738336E-2,1.398118287E-1,-1.770949923E-2
4.903643858E0,4.194355011E-2,1.483336985E-1,-1.877473295E-2
4.906117816E0,4.407401755E-2,1.568555683E-1,-1.983996481E-2
4.908591723E0,4.833494872E-2,1.664426625E-1,-2.090519853E-2
4.911065629E0,5.579157919E-2,1.781602204E-1,-2.197043039E-2
4.913539535E0,5.579157919E-2,1.877473146E-1,-2.303566411E-2
4.915867921E0,5.898727849E-2,2.015953511E-1,-2.197043039E-2
4.918341827E0,6.111774594E-2,2.186390758E-1,-2.303566411E-2
4.920815733E0,6.324820966E-2,2.335523367E-1,-2.729659714E-2
4.923289639E0,6.750914454E-2,2.484655976E-1,-2.836182900E-2
4.925763598E0,6.857437640E-2,2.655093372E-1,-3.368799388E-2
4.928237504E0,6.750914454E-2,2.804225981E-1,-3.794892505E-2
4.930711410E0,6.537867337E-2,2.910749316E-1,-4.220985994E-2
4.933185369E0,6.324820966E-2,3.006620109E-1,-4.966649041E-2
4.935659275E0,5.792204663E-2,3.059881926E-1,-5.925358832E-2
4.938133181E0,5.579157919E-2,3.123795986E-1,-6.457975507E-2
4.940607139E0,4.833494872E-2,3.155752718E-1,-7.097115368E-2
4.943081046E0,4.087831825E-2,3.155752718E-1,-7.629731297E-2
4.945554952E0,3.022598661E-2,3.155752718E-1,-8.375394344E-2
4.948104848E0,2.276935615E-2,3.166405261E-1,-8.801487833E-2
4.950578754E0,1.531272475E-2,3.240971565E-1,-8.801487833E-2
4.953052660E0,2.529928461E-3,3.304885328E-1,-8.908011019E-2
4.955526566E0,-1.131810062E-2,3.379451632E-1,-8.908011019E-2
4.958000525E0,-2.516612969E-2,3.475322723E-1,-9.014534205E-2
4.960474431E0,-3.794892505E-2,3.571193814E-1,-8.588441461E-2
4.962948337E0,-5.179695413E-2,3.677717149E-1,-8.801487833E-2
4.965422296E0,-6.671021879E-2,3.752283454E-1,-9.014534205E-2
4.967896202E0,-8.055824786E-2,3.752283454E-1,-8.694964647E-2
4.970370108E0,-9.760197252E-2,3.709673882E-1,-8.801487833E-2
4.972844066E0,-1.071890742E-1,3.635107577E-1,-8.481918275E-2
4.975317973E0,-1.157109365E-1,3.464670479E-1,-8.375394344E-2
4.977791879E0,-1.231675670E-1,3.283580840E-1,-8.162347972E-2
4.980235264E0,-1.295589656E-1,3.070534170E-1,-7.949301600E-2
