"Time (s)","Acceleration x (m/s^2)","Acceleration y (m/s^2)","Acceleration z (m/s^2)"
4.042568000E-3,-5.444714069E0,3.122039080E0,7.103895664E0
6.048568000E-3,-5.473444462E0,2.935291290E0,7.156568050E0
8.042568000E-3,-5.473444462E0,2.935291290E0,7.156568050E0
1.003956800E-2,-5.473444462E0,2.935291290E0,7.156568050E0
1.203756800E-2,-5.473444462E0,2.935291290E0,7.156568050E0
1.403931800E-2,-5.473444462E0,2.935291290E0,7.156568050E0
1.603831800E-2,-5.866093636E0,2.975992680E0,7.503727436E0
1.803748400E-2,-5.899612427E0,3.014299870E0,7.589918613E0
2.003676900E-2,-5.949890614E0,3.122039080E0,7.783848763E0
2.203614400E-2,-5.966650009E0,3.179499865E0,7.901165009E0
2.403558800E-2,-5.839757442E0,3.390189648E0,8.391976357E0
2.603248800E-2,-5.839757442E0,3.390189648E0,8.391976357E0
2.803176000E-2,-5.839757442E0,3.390189648E0,8.391976357E0
3.003126000E-2,-5.729623795E0,3.476380825E0,8.600272179E0
3.203079800E-2,-5.674557209E0,3.512293816E0,8.705616951E0
3.403036900E-2,-5.528511047E0,3.608062029E0,8.889969826E0
3.602996900E-2,-5.356128693E0,3.696647406E0,9.043199539E0
3.802959400E-2,-5.260360241E0,3.713406801E0,9.112630844E0
4.002924100E-2,-5.018546104E0,3.727771997E0,9.263465881E0
4.202890700E-2,-4.901230335E0,3.718195200E0,9.332897186E0
4.402859100E-2,-4.649539471E0,3.706224203E0,9.447818756E0
4.602829100E-2,-4.417302132E0,3.670311213E0,9.522039413E0
4.802800500E-2,-4.319139957E0,3.651157618E0,9.560346603E0
5.002773200E-2,-4.086902142E0,3.634398222E0,9.605836868E0
5.202747100E-2,-3.983951569E0,3.629609823E0,9.615413666E0
5.402722100E-2,-3.775655985E0,3.629609823E0,9.601048470E0
5.602698100E-2,-3.579331636E0,3.627215624E0,9.591471672E0
5.802675000E-2,-3.505111217E0,3.648763418E0,9.569923401E0
6.002652700E-2,-3.383007050E0,3.660734415E0,9.514857292E0
6.202634800E-2,-3.315969467E0,3.677493811E0,9.481337547E0
6.402617500E-2,-3.174711466E0,3.739742994E0,9.359233856E0
6.602567500E-2,-3.141192675E0,3.739742994E0,9.306561470E0
6.802570800E-2,-3.114856482E0,3.799597979E0,9.249100685E0
7.002574100E-2,-3.078943491E0,3.837905407E0,9.138967514E0
7.202577400E-2,-3.074155092E0,3.857059002E0,9.071929932E0
7.402537400E-2,-3.066972494E0,3.876212597E0,8.947430611E0
7.602534000E-2,-3.069366693E0,3.885789394E0,8.877999306E0
7.802530600E-2,-3.098097086E0,3.895366192E0,8.724770546E0
8.002527200E-2,-3.167528868E0,3.919308186E0,8.573935509E0
8.202523800E-2,-3.205836058E0,3.931279182E0,8.490138054E0
8.402520400E-2,-3.294421434E0,3.928884983E0,8.303390503E0
8.602603700E-2,-3.332728863E0,3.921702385E0,8.221987724E0
8.802610300E-2,-3.387795448E0,3.871424198E0,8.085518837E0
9.002610300E-2,-3.402160645E0,3.720589399E0,7.975385189E0
9.202610300E-2,-3.394978046E0,3.675099611E0,7.927501202E0
9.402610300E-2,-3.442862034E0,3.684676409E0,7.838915825E0
9.602610300E-2,-3.500322819E0,3.744531393E0,7.798214436E0
9.802610300E-2,-3.639186621E0,3.857059002E0,7.738358974E0
1.000261030E-1,-3.770867586E0,3.928884983E0,7.680898190E0
1.020261030E-1,-3.823540211E0,3.945644379E0,7.656956196E0
1.040261030E-1,-3.945644379E0,3.995922565E0,7.568370819E0
1.060252360E-1,-3.976768970E0,4.015076160E0,7.537246227E0
1.080252690E-1,-4.003105164E0,4.019864559E0,7.515698433E0
1.100253020E-1,-4.034229755E0,4.029441357E0,7.503727436E0
1.120253350E-1,-4.039018154E0,4.024652958E0,7.465420246E0
1.140253680E-1,-4.048594952E0,4.000710964E0,7.458237648E0
1.160254010E-1,-4.062960148E0,3.995922565E0,7.467814445E0
1.180254340E-1,-4.096478939E0,3.950432777E0,7.513304234E0
1.200254670E-1,-4.096478939E0,3.936067581E0,7.534852028E0
1.220254670E-1,-4.060565948E0,3.892971992E0,7.573159218E0
1.240254330E-1,-3.998316765E0,3.873818398E0,7.647379398E0
1.260257330E-1,-3.971980572E0,3.869029999E0,7.692869186E0
1.280256990E-1,-3.931279182E0,3.837905407E0,7.798214436E0
1.300256650E-1,-3.912125587E0,3.821146011E0,7.862857819E0
1.320256310E-1,-3.852270603E0,3.782838583E0,7.977779388E0
1.340255970E-1,-3.833117008E0,3.744531393E0,8.095095634E0
1.360255970E-1,-3.828328609E0,3.715801001E0,8.150161743E0
1.380255970E-1,-3.821146011E0,3.679888010E0,8.250718117E0
1.400256300E-1,-3.801992416E0,3.667917013E0,8.279448509E0
1.420256630E-1,-3.739742994E0,3.643975019E0,8.315361977E0
1.440256960E-1,-3.648763418E0,3.651157618E0,8.363245964E0
1.460248620E-1,-3.648763418E0,3.651157618E0,8.363245964E0
1.480248950E-1,-3.632004023E0,3.677493811E0,8.399158478E0
1.500249280E-1,-3.610456228E0,3.711012602E0,8.444648743E0
1.520249610E-1,-3.569754839E0,3.749319792E0,8.557176590E0
1.540249610E-1,-3.521870613E0,3.809175014E0,8.660126686E0
1.560249610E-1,-3.485957623E0,3.833117008E0,8.703222275E0
1.580249610E-1,-3.471592426E0,3.837905407E0,8.818143845E0
1.600249610E-1,-3.483563423E0,3.845088005E0,8.887576103E0
1.620249610E-1,-3.476380825E0,3.828328609E0,9.002497673E0
1.640249610E-1,-3.454833031E0,3.811569214E0,9.036016464E0
1.660258270E-1,-3.394978046E0,3.780444384E0,9.057564735E0
1.680257930E-1,-3.315969467E0,3.727771997E0,9.040804863E0
1.700257590E-1,-3.284844637E0,3.689464808E0,9.038411140E0
1.720257250E-1,-3.251325846E0,3.617638826E0,9.040804863E0
1.740256910E-1,-3.236960649E0,3.586514235E0,9.038411140E0
1.760256570E-1,-3.215412855E0,3.526659012E0,9.004891396E0
1.780256230E-1,-3.229778051E0,3.488351822E0,8.971372604E0
1.800255890E-1,-3.229778051E0,3.462015629E0,8.961795807E0
1.820255550E-1,-3.248931646E0,3.423708439E0,8.930671692E0
1.840255550E-1,-3.251325846E0,3.394978046E0,8.880393028E0
1.860247210E-1,-3.256114244E0,3.394978046E0,8.863634109E0
1.880247540E-1,-3.256114244E0,3.397372246E0,8.844480515E0
1.900247870E-1,-3.258508444E0,3.409343243E0,8.825326920E0
1.920248200E-1,-3.277662039E0,3.409343243E0,8.801384926E0
1.940248530E-1,-3.296815634E0,3.418920040E0,8.775048256E0
1.960248860E-1,-3.289633036E0,3.433285236E0,8.729558945E0
1.980249190E-1,-3.303998232E0,3.447650433E0,8.688857079E0
2.000249190E-1,-3.306392431E0,3.445256233E0,8.662521362E0
2.020248850E-1,-3.315969467E0,3.442862034E0,8.612242699E0
2.040248510E-1,-3.313575268E0,3.469198227E0,8.561964989E0
2.060256840E-1,-3.315969467E0,3.464409828E0,8.552388191E0
2.080256500E-1,-3.315969467E0,3.459621429E0,8.533234596E0
2.100256160E-1,-3.337517262E0,3.471592426E0,8.523657799E0
2.120255820E-1,-3.332728863E0,3.476380825E0,8.492532730E0
2.140255820E-1,-3.335123062E0,3.481169224E0,8.482955933E0
2.160255820E-1,-3.337517262E0,3.483563423E0,8.456619263E0
2.180256150E-1,-3.330334663E0,3.488351822E0,8.459013939E0
2.200256480E-1,-3.318363667E0,3.517082214E0,8.466196060E0
2.220256810E-1,-3.306392431E0,3.541024208E0,8.475772858E0
2.240257140E-1,-3.174711466E0,3.624821424E0,8.528446198E0
2.260248800E-1,-3.174711466E0,3.624821424E0,8.528446198E0
2.280255460E-1,-3.174711466E0,3.624821424E0,8.528446198E0
2.300255790E-1,-3.098097086E0,3.653551817E0,8.576330185E0
2.320256120E-1,-2.995146275E0,3.665522814E0,8.605060577E0
2.340256120E-1,-2.925714493E0,3.672705412E0,8.619425774E0
2.360256120E-1,-2.813186884E0,3.670311213E0,8.655338287E0
2.380256120E-1,-2.753331900E0,3.663128614E0,8.672098160E0
2.400256120E-1,-2.659958124E0,3.651157618E0,8.691251755E0
2.420256120E-1,-2.576161146E0,3.632004023E0,8.722375870E0
2.440256120E-1,-2.535459518E0,3.615244627E0,8.731952667E0
2.460264450E-1,-2.485181332E0,3.593696833E0,8.741529465E0
2.480264110E-1,-2.454056740E0,3.588908434E0,8.758289337E0
2.500263770E-1,-2.427720547E0,3.569754839E0,8.796596527E0
2.520263430E-1,-2.422932148E0,3.557783842E0,8.820538521E0
2.540263090E-1,-2.418143749E0,3.560178041E0,8.839692116E0
2.560262750E-1,-2.456450939E0,3.536235809E0,8.877999306E0
2.580262410E-1,-2.463633537E0,3.536235809E0,8.897152901E0
2.600262070E-1,-2.492363930E0,3.545812607E0,8.923488617E0
2.620262070E-1,-2.509123325E0,3.531447411E0,8.935460091E0
2.640262400E-1,-2.552218914E0,3.488351822E0,8.976161003E0
2.660253730E-1,-2.578555346E0,3.481169224E0,8.983344078E0
2.680254060E-1,-2.595314741E0,3.459621429E0,8.988132477E0
2.700254390E-1,-2.619256735E0,3.423708439E0,8.995314598E0
2.720254720E-1,-2.626439333E0,3.397372246E0,8.990526199E0
2.740255050E-1,-2.640804529E0,3.363853455E0,9.012074471E0
2.760255380E-1,-2.655169725E0,3.330334663E0,9.043199539E0
2.780258040E-1,-2.647987127E0,3.301604033E0,9.047987938E0
2.800257700E-1,-2.633621931E0,3.268085241E0,9.057564735E0
2.820257360E-1,-2.631227732E0,3.241749048E0,9.067141533E0
2.840257020E-1,-2.604891539E0,3.220201254E0,9.086295128E0
2.860265350E-1,-2.578555346E0,3.189076662E0,9.086295128E0
2.880258680E-1,-2.568978310E0,3.172317266E0,9.088688850E0
2.900258340E-1,-2.535459518E0,3.148375273E0,9.076718330E0
2.920258000E-1,-2.513911724E0,3.138798475E0,9.071929932E0
2.940258000E-1,-2.446874142E0,3.122039080E0,9.057564735E0
2.960258330E-1,-2.365471363E0,3.107673883E0,9.028834343E0
2.980258660E-1,-2.336740971E0,3.105279684E0,9.009679794E0
3.000258990E-1,-2.281674147E0,3.090914488E0,8.973767281E0
3.020259320E-1,-2.245761156E0,3.076549292E0,8.952219009E0
3.040259650E-1,-2.181117773E0,3.083731890E0,8.880393028E0
3.060251310E-1,-2.159569979E0,3.088520288E0,8.858845711E0
3.080251640E-1,-2.140416384E0,3.093308687E0,8.834903717E0
3.100251970E-1,-2.092532396E0,3.112462282E0,8.772654533E0
3.120251970E-1,-2.073378563E0,3.124433279E0,8.729558945E0
3.140251970E-1,-2.025494576E0,3.177105665E0,8.669703484E0
3.160251970E-1,-2.011129379E0,3.191470861E0,8.640973091E0
3.180251970E-1,-1.994369984E0,3.201047659E0,8.578723907E0
3.200251970E-1,-2.078166962E0,3.150769472E0,8.506897926E0
3.220251970E-1,-2.183511972E0,3.066972494E0,8.499714851E0
3.240251630E-1,-2.327163935E0,3.009511471E0,8.454225540E0
3.260260290E-1,-2.329558372E0,3.007117271E0,8.377611160E0
3.280259950E-1,-2.317587137E0,3.074155092E0,8.231564522E0
3.300259610E-1,-2.308010340E0,3.169923067E0,8.107066154E0
3.320259270E-1,-2.274491549E0,3.213018656E0,8.056788445E0
3.340258930E-1,-2.224213362E0,3.287238836E0,7.980173588E0
3.360258590E-1,-2.195482969E0,3.327940464E0,7.963414192E0
3.380255590E-1,-2.116474390E0,3.402160645E0,7.949048996E0
3.400255590E-1,-2.078166962E0,3.476380825E0,7.953837395E0
3.420255920E-1,-2.044648170E0,3.509899616E0,7.961019993E0
3.440256250E-1,-1.951274395E0,3.632004023E0,8.052000046E0
3.460247910E-1,-1.951274395E0,3.632004023E0,8.052000046E0
3.480248240E-1,-1.924938202E0,3.651157618E0,8.073547363E0
3.500248570E-1,-1.869871497E0,3.696647406E0,8.095095634E0
3.520248900E-1,-1.862688899E0,3.691859007E0,8.107066154E0
3.540249230E-1,-1.932120800E0,3.636792421E0,8.176498413E0
3.560249230E-1,-1.963245392E0,3.615244627E0,8.229170799E0
3.580248890E-1,-1.996764183E0,3.605667830E0,8.250718117E0
3.600248550E-1,-1.965639591E0,3.608062029E0,8.241141319E0
3.620248210E-1,-1.941697598E0,3.574543238E0,8.202834129E0
3.640247870E-1,-1.936909199E0,3.560178041E0,8.154950142E0
3.660256200E-1,-1.941697598E0,3.543418407E0,8.152556419E0
3.680255860E-1,-1.987187386E0,3.495534420E0,8.159738541E0
3.700255520E-1,-2.006340981E0,3.476380825E0,8.162133217E0
3.720255520E-1,-2.042253971E0,3.438073635E0,8.181286812E0
3.740255850E-1,-2.075772762E0,3.426102638E0,8.183680534E0
3.760256180E-1,-2.094926596E0,3.421314240E0,8.171710014E0
3.780256510E-1,-2.152387381E0,3.387795448E0,8.145373344E0
3.800256840E-1,-2.159569979E0,3.378218651E0,8.142979622E0
3.820253170E-1,-2.152387381E0,3.390189648E0,8.140584946E0
3.840253500E-1,-2.128445387E0,3.378218651E0,8.140584946E0
3.860245160E-1,-2.128445387E0,3.378218651E0,8.140584946E0
3.880245490E-1,-2.142810583E0,3.366247654E0,8.145373344E0
3.900245490E-1,-2.164358377E0,3.354276657E0,8.157344818E0
3.920245490E-1,-2.200271368E0,3.347094059E0,8.178892136E0
3.940245490E-1,-2.219424963E0,3.356670856E0,8.212410927E0
3.960245490E-1,-2.231395960E0,3.368641853E0,8.236352921E0
3.980245490E-1,-2.243366957E0,3.366247654E0,8.305785179E0
4.000245490E-1,-2.240972757E0,3.380612850E0,8.339303970E0
4.020245150E-1,-2.229001760E0,3.385401249E0,8.403946877E0
4.040244810E-1,-2.238578558E0,3.402160645E0,8.451830864E0
4.060251140E-1,-2.233790159E0,3.418920040E0,8.482955933E0
4.080250800E-1,-2.207453966E0,3.445256233E0,8.545205116E0
4.100250460E-1,-2.197877169E0,3.459621429E0,8.583512306E0
4.120250120E-1,-2.142810583E0,3.464409828E0,8.643367767E0
4.140249780E-1,-2.111685991E0,3.466804028E0,8.674491882E0
4.160249440E-1,-2.049436569E0,3.473986626E0,8.722375870E0
4.180249440E-1,-1.965639591E0,3.478775024E0,8.777442932E0
4.200249770E-1,-1.929726601E0,3.483563423E0,8.798990250E0
4.220250100E-1,-1.886630893E0,3.459621429E0,8.827720642E0
4.240250430E-1,-1.800439715E0,3.464409828E0,8.880393028E0
4.260242090E-1,-1.790862918E0,3.473986626E0,8.889969826E0
4.280233420E-1,-1.790862918E0,3.473986626E0,8.889969826E0
4.300233750E-1,-1.788468719E0,3.464409828E0,8.906729698E0
4.320234080E-1,-1.776497602E0,3.473986626E0,8.930671692E0
4.340234080E-1,-1.771709204E0,3.473986626E0,8.935460091E0
4.360233740E-1,-1.783680320E0,3.483563423E0,8.945036888E0
4.380233400E-1,-1.793257117E0,3.517082214E0,8.949825287E0
4.400233060E-1,-1.807622313E0,3.529053211E0,8.945036888E0
4.420236720E-1,-1.812410712E0,3.545812607E0,8.921094894E0
4.440236380E-1,-1.819593310E0,3.550601006E0,8.899546623E0
4.460244710E-1,-1.817199111E0,3.555389643E0,8.889969826E0
4.480244370E-1,-1.810016513E0,3.543418407E0,8.866027832E0
4.500244370E-1,-1.798045516E0,3.543418407E0,8.849268913E0
4.520244700E-1,-1.810016513E0,3.524264812E0,8.798990250E0
4.540245030E-1,-1.824381709E0,3.521870613E0,8.782231331E0
4.560245360E-1,-1.853112102E0,3.488351822E0,8.734347343E0
4.580245690E-1,-1.881842494E0,3.483563423E0,8.708010674E0
4.600246020E-1,-1.898601890E0,3.483563423E0,8.700828552E0
4.620246350E-1,-1.956062794E0,3.469198227E0,8.667309761E0
4.640246680E-1,-2.001552582E0,3.450044632E0,8.633790970E0
4.660245340E-1,-2.020706177E0,3.445256233E0,8.629002571E0
4.680245340E-1,-2.044648170E0,3.447650433E0,8.624214172E0
4.700245340E-1,-2.102109194E0,3.440467834E0,8.621819496E0
4.720245340E-1,-2.133233786E0,3.418920040E0,8.614637375E0
4.740245340E-1,-2.152387381E0,3.411737442E0,8.602665901E0
4.760245340E-1,-2.185906172E0,3.399766445E0,8.595483780E0
4.780245340E-1,-2.205059767E0,3.387795448E0,8.588300705E0
4.800245000E-1,-2.243366957E0,3.380612850E0,8.578723907E0
4.820244660E-1,-2.255337954E0,3.368641853E0,8.585906982E0
4.840244320E-1,-2.260126352E0,3.349488258E0,8.588300705E0
4.860252650E-1,-2.276885748E0,3.301604033E0,8.602665901E0
4.880261310E-1,-2.303221941E0,3.289633036E0,8.609848976E0
4.900260640E-1,-2.339135170E0,3.268085241E0,8.643367767E0
4.920260300E-1,-2.401384354E0,3.248931646E0,8.672098160E0
4.940259960E-1,-2.439691544E0,3.224989653E0,8.684068680E0
4.960259960E-1,-2.494758129E0,3.165134668E0,8.696040154E0
4.980260290E-1,-2.518700123E0,3.136404276E0,8.705616951E0
5.000260620E-1,-2.535459518E0,3.050212860E0,8.712799072E0
5.020260950E-1,-2.549824715E0,2.856282711E0,8.700828552E0
5.040261280E-1,-2.636016130E0,2.406172752E0,8.679280281E0
5.060252940E-1,-2.636016130E0,2.406172752E0,8.679280281E0
5.080250600E-1,-2.683900118E0,2.379836559E0,8.715193748E0
5.100250930E-1,-2.806004286E0,2.341529369E0,8.753500938E0
5.120250930E-1,-2.947262287E0,2.329558372E0,8.743924141E0
5.140250590E-1,-2.992752075E0,2.288856745E0,8.712799072E0
5.160250250E-1,-3.021482468E0,2.272097349E0,8.708010674E0
5.180249910E-1,-3.014299870E0,2.257732153E0,8.724770546E0
5.200249570E-1,-2.975992680E0,2.238578558E0,8.763077736E0
5.220249230E-1,-2.959233284E0,2.231395960E0,8.794201851E0
5.240248890E-1,-2.932897091E0,2.221819162E0,8.849268913E0
5.260252220E-1,-2.923320293E0,2.195482969E0,8.923488617E0
5.280252220E-1,-2.918531895E0,2.185906172E0,8.968978882E0
5.300252550E-1,-2.918531895E0,2.176329374E0,9.055170059E0
5.320252880E-1,-2.911349297E0,2.145204782E0,9.107842445E0
5.340253210E-1,-2.887407303E0,2.070984364E0,9.201216698E0
5.360253540E-1,-2.894589901E0,2.032677174E0,9.280224800E0
5.380253870E-1,-2.873042107E0,2.006340981E0,9.320926666E0
5.400254200E-1,-2.839523315E0,1.944091797E0,9.411906242E0
5.420254530E-1,-2.832340717E0,1.896207690E0,9.471760750E0
5.440254860E-1,-2.774879694E0,1.764526606E0,9.689633369E0
5.460246190E-1,-2.774879694E0,1.764526606E0,9.689633369E0
5.480246190E-1,-2.762908697E0,1.745373011E0,9.739912033E0
5.500246520E-1,-2.731784105E0,1.697489023E0,9.859622002E0
5.520246520E-1,-2.693476915E0,1.671152830E0,9.921871185E0
5.540246520E-1,-2.662352324E0,1.625662923E0,1.003918743E1
5.560246520E-1,-2.590526342E0,1.613691926E0,1.013256073E1
5.580246180E-1,-2.545036316E0,1.606509328E0,1.017326260E1
5.600245840E-1,-2.461239338E0,1.594538331E0,1.023790550E1
5.620245500E-1,-2.403778553E0,1.606509328E0,1.026184750E1
5.640245160E-1,-2.284068346E0,1.604115129E0,1.030733776E1
5.660253490E-1,-2.236184359E0,1.608903527E0,1.031451988E1
5.680255820E-1,-2.149993181E0,1.611297727E0,1.033367348E1
5.700255480E-1,-2.102109194E0,1.625662923E0,1.033606815E1
5.720255140E-1,-2.078166962E0,1.632845521E0,1.031930828E1
5.740255140E-1,-2.037465572E0,1.649604917E0,1.027621269E1
5.760255470E-1,-2.030282974E0,1.661576033E0,1.025466537E1
5.780255800E-1,-2.013523579E0,1.692700624E0,1.020199299E1
5.800256130E-1,-1.994369984E0,1.692700624E0,1.013974380E1
5.820256460E-1,-1.977610588E0,1.697489023E0,1.009904194E1
5.840256790E-1,-1.853112102E0,1.764526606E0,9.919476509E0
5.860248450E-1,-1.853112102E0,1.764526606E0,9.919476509E0
5.880245780E-1,-1.821987510E0,1.774103403E0,9.871592522E0
5.900245780E-1,-1.752555609E0,1.807622313E0,9.766247749E0
5.920245440E-1,-1.709460020E0,1.836352706E0,9.711181641E0
5.940250100E-1,-1.618480325E0,1.893813491E0,9.589076996E0
5.960249760E-1,-1.532289028E0,1.869871497E0,9.510068893E0
5.980249420E-1,-1.321599364E0,1.726219416E0,9.308955193E0
6.000249080E-1,-1.302445769E0,1.692700624E0,9.177274704E0
6.020248740E-1,-1.307234168E0,1.692700624E0,9.117419243E0
6.040248400E-1,-1.302445769E0,1.683123827E0,8.980949402E0
6.060257060E-1,-1.295263171E0,1.671152830E0,8.899546623E0
6.080257390E-1,-1.333570361E0,1.649604917E0,8.688857079E0
6.100257720E-1,-1.391031146E0,1.644816518E0,8.561964989E0
6.120266050E-1,-1.395819545E0,1.678335428E0,8.310573578E0
6.140266380E-1,-1.376665950E0,1.807622313E0,8.207622528E0
6.160266710E-1,-1.388636947E0,1.867477298E0,8.212410927E0
6.180267040E-1,-1.455674648E0,1.982398987E0,8.274660110E0
6.200267370E-1,-1.503558636E0,2.044648170E0,8.324938774E0
6.220267700E-1,-1.601720929E0,2.145204782E0,8.387187958E0
6.240267700E-1,-1.805228114E0,2.171540976E0,8.463802338E0
6.260259030E-1,-1.862688899E0,2.169146776E0,8.494926453E0
6.280256360E-1,-1.862688899E0,2.169146776E0,8.494926453E0
6.300256360E-1,-1.929726601E0,2.171540976E0,8.545205116E0
6.320256360E-1,-2.066195965E0,2.116474390E0,8.676886559E0
6.340256360E-1,-2.229001760E0,2.073378563E0,8.815750122E0
6.360256020E-1,-2.310404539E0,2.039859772E0,8.894758224E0
6.380255680E-1,-2.427720547E0,1.989581585E0,9.071929932E0
6.400255340E-1,-2.473210335E0,1.941697598E0,9.160514832E0
6.420255000E-1,-2.557007313E0,1.831564307E0,9.308955193E0
6.440254660E-1,-2.568978310E0,1.699883223E0,9.431059837E0
6.460262990E-1,-2.557007313E0,1.616086125E0,9.490914345E0
6.480265650E-1,-2.492363930E0,1.465251446E0,9.591471672E0
6.500265310E-1,-2.425326347E0,1.391031146E0,9.636960983E0
6.520265310E-1,-2.303221941E0,1.247379065E0,9.703998566E0
6.540260640E-1,-2.145204782E0,1.125274777E0,9.730335236E0
6.560260970E-1,-2.080561161E0,1.070208192E0,9.739912033E0
6.580261300E-1,-1.968033791E0,9.959878922E-1,9.792584419E0
6.600261630E-1,-1.884236693E0,9.385270476E-1,9.804554939E0
6.620261960E-1,-1.695094824E0,7.972691655E-1,9.814131737E0
6.640262290E-1,-1.630451322E0,7.733271718E-1,9.866804123E0
6.660266950E-1,-1.623268723E0,7.852981687E-1,9.897929192E0
6.680266950E-1,-1.618480325E0,8.236053586E-1,9.967360497E0
6.700266610E-1,-1.630451322E0,8.355764151E-1,9.998485565E0
6.720258270E-1,-1.628057122E0,8.786720037E-1,1.005355263E1
6.740257930E-1,-1.625662923E0,8.954314590E-1,1.007988834E1
6.760257590E-1,-1.644816518E0,9.193734527E-1,1.014213753E1
6.780257250E-1,-1.654393315E0,9.792284966E-1,1.022354031E1
6.800256910E-1,-1.678335428E0,9.983820915E-1,1.024508858E1
6.820256910E-1,-1.709460020E0,1.060631394E0,1.025945377E1
6.840256910E-1,-1.711854219E0,1.120486379E0,1.027860737E1
6.860265910E-1,-1.719036818E0,1.146822572E0,1.026663589E1
6.880268910E-1,-1.683123827E0,1.187524080E0,1.023072338E1
6.900269240E-1,-1.656787634E0,1.213860273E0,1.019959831E1
6.920269570E-1,-1.608903527E0,1.256955862E0,1.011819553E1
6.940269900E-1,-1.584961534E0,1.283292055E0,1.005355263E1
6.960270230E-1,-1.520318031E0,1.312022567E0,9.917082787E0
6.980270560E-1,-1.429338455E0,1.345541358E0,9.838073730E0
7.000270890E-1,-1.371877551E0,1.371877551E0,9.809343338E0
7.020272220E-1,-1.268926859E0,1.412579060E0,9.763854027E0
7.040272220E-1,-1.094150186E0,1.460463047E0,9.658509254E0
7.060263550E-1,-1.094150186E0,1.460463047E0,9.658509254E0
7.080263550E-1,-9.935936928E-1,1.484405041E0,9.593865395E0
7.100263550E-1,-9.457096457E-1,1.534683347E0,9.567529678E0
7.120263550E-1,-8.547300100E-1,1.563413739E0,9.502885818E0
7.140263210E-1,-8.259995580E-1,1.553836942E0,9.495702744E0
7.160262870E-1,-9.169792533E-1,1.321599364E0,9.703998566E0
7.180262530E-1,-1.031900883E0,1.165976286E0,1.000806236E1
7.200262190E-1,-1.082179189E0,1.053448796E0,1.070477486E1
7.220261850E-1,-8.212111592E-1,1.122880578E0,1.073350525E1
7.240261510E-1,-6.440402865E-1,1.177947283E0,1.058506489E1
7.260256840E-1,-3.303998411E-1,1.247379065E0,1.038634586E1
7.280256500E-1,-2.681505978E-1,1.240196466E0,1.036958694E1
7.300256500E-1,-1.939303428E-1,1.027112484E0,1.035522175E1
7.320256500E-1,-1.651999205E-1,7.781155705E-1,1.024987698E1
7.340256830E-1,-2.442085743E-1,7.158663273E-1,1.016607952E1
7.360257160E-1,-4.812345505E-1,6.631938815E-1,9.960178375E0
7.380257490E-1,-6.153098345E-1,6.464344859E-1,9.864410400E0
7.400257820E-1,-8.523358107E-1,6.177040339E-1,9.684844971E0
7.420257820E-1,-1.039083481E0,6.320692301E-1,9.555558205E0
7.440258150E-1,-1.340752959E0,6.847416759E-1,9.507674217E0
7.460249480E-1,-1.429338455E0,7.158663273E-1,9.517251015E0
7.480249140E-1,-1.429338455E0,7.158663273E-1,9.517251015E0
7.500248800E-1,-1.565807939E0,7.517793179E-1,9.517251015E0
7.520248460E-1,-1.647210717E0,8.331822157E-1,9.526827812E0
7.540248120E-1,-1.687912226E0,8.667010069E-1,9.524434090E0
7.560247780E-1,-1.766920805E0,9.457096457E-1,9.512462616E0
7.580243440E-1,-1.786074519E0,9.816226959E-1,9.505280495E0
7.600243100E-1,-1.805228114E0,1.051054597E0,9.486125946E0
7.620241760E-1,-1.805228114E0,1.084573388E0,9.481337547E0
7.640242090E-1,-1.781286120E0,1.120486379E0,9.447818756E0
7.660247090E-1,-1.697489023E0,1.185129881E0,9.407117844E0
7.680247420E-1,-1.647210717E0,1.211466074E0,9.387964249E0
7.700247750E-1,-1.558625340E0,1.235408068E0,9.356839180E0
7.720248080E-1,-1.515529633E0,1.228225470E0,9.330503464E0
7.740248410E-1,-1.403002143E0,1.218648672E0,9.294589996E0
7.760248740E-1,-1.247379065E0,1.230619669E0,9.292196274E0
7.780249070E-1,-1.154005170E0,1.228225470E0,9.296984673E0
7.800249070E-1,-9.816226959E-1,1.197100878E0,9.335291862E0
7.820249070E-1,-9.026140571E-1,1.175553083E0,9.354445457E0
7.840249070E-1,-9.840168953E-1,5.865794420E-1,9.421483040E0
7.860240400E-1,-9.074024558E-1,4.812345505E-1,9.428665161E0
7.880244400E-1,-9.074024558E-1,4.812345505E-1,9.428665161E0
7.900244400E-1,-6.488286853E-1,3.399766386E-1,9.419088364E0
7.920244400E-1,-5.147533417E-1,2.873041928E-1,9.387964249E0
7.940244060E-1,-2.418143749E-1,2.298433632E-1,9.337685585E0
7.960243720E-1,4.788403399E-3,1.915361285E-1,9.332897186E0
7.980243380E-1,1.125274822E-1,2.178723514E-1,9.419088364E0
8.000243040E-1,3.327940404E-1,3.280056417E-1,9.845256805E0
8.020242700E-1,4.070142806E-1,3.902548850E-1,1.008467674E1
8.040242360E-1,4.884171486E-1,4.860229492E-1,1.040071106E1
8.060250690E-1,5.650315881E-1,5.195417404E-1,1.041747093E1
8.080250690E-1,5.793967843E-1,5.889736414E-1,1.037916374E1
8.100250690E-1,5.219359994E-1,6.560112834E-1,1.030254936E1
8.120251020E-1,4.644751251E-1,6.823474765E-1,1.028578949E1
8.140249680E-1,2.992752194E-1,7.493851185E-1,1.034564495E1
8.184168850E-1,1.723825186E-1,7.829039693E-1,1.041747093E1
8.204175510E-1,-5.267243832E-2,8.236053586E-1,1.060661316E1
8.224175840E-1,-2.537853718E-1,8.738836050E-1,1.080293751E1
8.244176170E-1,-3.184288144E-1,9.074024558E-1,1.089391708E1
8.264176170E-1,-5.291185975E-1,9.888052940E-1,1.106629944E1
8.284171170E-1,-5.602431893E-1,1.031900883E0,1.110460663E1
8.304162170E-1,-5.602431893E-1,1.031900883E0,1.110460663E1
8.324161830E-1,-5.770025849E-1,1.053448796E0,1.113333702E1
8.344161490E-1,-5.985504389E-1,1.048660398E0,1.112136650E1
8.364161150E-1,-6.416460276E-1,1.029506683E0,1.110700130E1
8.384160810E-1,-6.631938815E-1,1.010353088E0,1.110221291E1
8.404160470E-1,-6.919242740E-1,9.744400978E-1,1.113333702E1
8.424160470E-1,-6.727706790E-1,9.504981041E-1,1.115727901E1
8.444160470E-1,-6.727706790E-1,9.289502501E-1,1.115488529E1
8.464160470E-1,-6.296750307E-1,8.379706144E-1,1.109263611E1
8.484169130E-1,-6.009446383E-1,7.924807668E-1,1.104475212E1
8.504165130E-1,-4.764461517E-1,8.068459630E-1,1.100883865E1
8.524165130E-1,-3.040636182E-1,8.140285611E-1,1.100405025E1
8.544165130E-1,-2.322375625E-1,7.709329724E-1,1.098489666E1
8.564165130E-1,-1.556231081E-1,6.703764796E-1,1.090109921E1
8.584165130E-1,-1.149216816E-1,6.296750307E-1,1.089152241E1
8.604157460E-1,-4.309562966E-2,5.817909837E-1,1.092264748E1
8.624157790E-1,7.661445439E-2,5.626373887E-1,1.092025280E1
8.644158120E-1,1.125274822E-1,4.333505034E-1,1.086039829E1
8.664158450E-1,1.532289088E-1,2.130839527E-1,1.065449715E1
8.684149780E-1,1.532289088E-1,2.130839527E-1,1.065449715E1
8.704150110E-1,2.537853718E-1,1.101332754E-1,1.063055515E1
8.724150440E-1,2.896983922E-1,3.591302410E-2,1.061618996E1
8.744150440E-1,3.399766386E-1,-1.580173075E-1,1.056351757E1
8.764151770E-1,3.758896589E-1,-3.399766386E-1,1.051323891E1
8.784151430E-1,4.237737060E-1,-4.189853072E-1,1.056591129E1
8.804148760E-1,5.554547906E-1,-5.482721925E-1,1.066407394E1
8.824148420E-1,6.153098345E-1,-6.177040339E-1,1.069759274E1
8.844148080E-1,7.422025204E-1,-7.876923680E-1,1.070956326E1
8.864147740E-1,8.403648138E-1,-8.786720037E-1,1.069998646E1
8.884156400E-1,8.978256583E-1,-9.097966552E-1,1.071195793E1
8.904165060E-1,9.840168953E-1,-9.864110947E-1,1.069519806E1
8.924165390E-1,1.027112484E0,-1.039083481E0,1.065210247E1
8.944165720E-1,1.094150186E0,-1.120486379E0,1.055154610E1
8.964166050E-1,1.132457376E0,-1.122880578E0,1.043422985E1
8.984166380E-1,1.142034173E0,-1.115697980E0,1.034803867E1
9.004166710E-1,1.139639974E0,-1.113303781E0,1.014692593E1
9.024167040E-1,1.149216771E0,-1.125274777E0,1.007270622E1
9.044167370E-1,1.165976286E0,-1.120486379E0,9.917082787E0
9.064167370E-1,1.051054597E0,-1.134851575E0,9.651326180E0
9.084158700E-1,1.051054597E0,-1.134851575E0,9.651326180E0
9.104158700E-1,9.864110947E-1,-1.101332784E0,9.529222488E0
9.124158700E-1,9.576807022E-1,-1.101332784E0,9.457395554E0
9.144158700E-1,8.954314590E-1,-1.043871999E0,9.340080261E0
9.164158700E-1,8.571242094E-1,-9.983820915E-1,9.313743591E0
9.184158700E-1,8.116343617E-1,-9.624691010E-1,9.227552414E0
9.204166700E-1,7.469909191E-1,-9.265560508E-1,9.160514832E0
9.224166360E-1,7.398083210E-1,-8.834604025E-1,9.138967514E0
9.244166020E-1,7.445967197E-1,-8.236053586E-1,9.103054047E0
9.264165680E-1,7.637503147E-1,-7.876923680E-1,9.067141533E0
9.284174340E-1,7.781155705E-1,-7.493851185E-1,9.069535255E0
9.304174000E-1,8.331822157E-1,-6.536170840E-1,9.062353134E0
9.324173660E-1,8.619126081E-1,-6.200982332E-1,9.047987938E0
9.344173320E-1,8.834604025E-1,-6.081272364E-1,9.028834343E0
9.364173320E-1,8.954314590E-1,-5.889736414E-1,9.024045944E0
9.384173650E-1,9.193734527E-1,-5.554547906E-1,9.059958458E0
9.404173980E-1,9.792284966E-1,-5.243301988E-1,9.098265648E0
9.424174310E-1,1.012747288E0,-4.979939461E-1,9.126996040E0
9.444174640E-1,1.086967587E0,-4.525041282E-1,9.196428299E0
9.464174970E-1,1.221042871E0,-3.854664862E-1,9.356839180E0
9.484166630E-1,1.278503656E0,-3.854664862E-1,9.409511566E0
9.504166960E-1,1.328781962E0,-3.232172430E-1,9.443030357E0
9.524166960E-1,1.379060149E0,-2.968810201E-1,9.466972351E0
9.544166620E-1,1.501164436E0,-2.561795712E-1,9.526827812E0
9.564166280E-1,1.575384736E0,-2.298433632E-1,9.550769806E0
9.584165940E-1,1.733402014E0,-1.963245422E-1,9.581894875E0
9.604165600E-1,1.893813491E0,-1.771709323E-1,9.574711800E0
9.624165260E-1,1.989581585E0,-1.747767180E-1,9.577106476E0
9.644164920E-1,2.183511972E0,-1.771709323E-1,9.574711800E0
9.664164920E-1,2.394201756E0,-1.699883193E-1,9.565135002E0
9.684173580E-1,2.501940727E0,-1.532289088E-1,9.548376083E0
9.704173910E-1,2.590526342E0,-1.651999205E-1,9.519645691E0
9.724174240E-1,2.779668093E0,-1.580173075E-1,9.478943825E0
9.744174570E-1,2.959233284E0,-1.077390760E-1,9.419088364E0
9.764174900E-1,3.043030262E0,-8.858546615E-2,9.375992775E0
9.784175230E-1,3.224989653E0,-6.224924326E-2,9.273042679E0
9.804175230E-1,3.308786631E0,-5.746084079E-2,9.217975616E0
9.824175560E-1,3.394978046E0,-5.746084079E-2,9.088688850E0
9.844175890E-1,3.473986626E0,-4.309562966E-2,8.973767281E0
9.864175890E-1,3.308786631E0,-2.035071403E-1,8.504503250E0
9.884167220E-1,3.308786631E0,-2.035071403E-1,8.504503250E0
9.904167220E-1,3.308786631E0,-2.035071403E-1,8.504503250E0
9.924167220E-1,3.110068083E0,-3.974374831E-1,8.212410927E0
9.944167220E-1,2.928108692E0,-5.123591423E-1,7.992144585E0
9.964167220E-1,2.834734917E0,-5.554547906E-1,7.917924404E0
9.984166880E-1,2.688688517E0,-7.326257229E-1,7.779060364E0
1.000416654E0,2.604891539E0,-8.499416113E-1,7.676109791E0
1.002416620E0,2.382230759E0,-9.289502501E-1,7.491756439E0
1.004416586E0,2.260126352E0,-9.433154464E-1,7.309797287E0
1.006416552E0,2.231395960E0,-1.017535686E0,7.178115845E0
1.008417385E0,2.118868589E0,-1.192312479E0,6.902782917E0
1.010417351E0,2.027888775E0,-1.156399369E0,6.840533733E0
1.012417317E0,1.723825216E0,-7.589619160E-1,6.914753914E0
1.014417317E0,1.549048543E0,-5.267243981E-1,6.972214699E0
1.016417350E0,1.561019540E0,-2.753331959E-1,7.010521889E0
1.018416483E0,1.649604917E0,-1.604115069E-1,7.077559471E0
1.020416516E0,1.692700624E0,-1.077390760E-1,7.146991253E0
1.022416549E0,1.702277422E0,5.027823523E-2,7.297826290E0
1.024416582E0,1.673547029E0,1.412578970E-1,7.369652271E0
1.026416615E0,1.915361404E0,1.963245422E-1,7.673715591E0
1.028415781E0,1.915361404E0,1.963245422E-1,7.673715591E0
1.030414914E0,1.915361404E0,1.963245422E-1,7.673715591E0
1.032414880E0,2.252943754E0,-5.746084079E-2,7.688080788E0
1.034414846E0,2.363077164E0,-1.077390760E-1,7.735964775E0
1.036414812E0,2.312798738E0,3.830722719E-2,7.848492622E0
1.038414778E0,2.209848166E0,1.628057212E-1,7.934683800E0
1.040414744E0,2.212242365E0,1.436520964E-1,7.968202591E0
1.042414710E0,2.406172752E0,-4.788403399E-3,7.999327183E0
1.044414676E0,2.533065319E0,-7.661445439E-2,8.008903503E0
1.046414676E0,2.719813108E0,-2.059013397E-1,8.068758965E0
1.048415576E0,2.779668093E0,-3.232172430E-1,8.142979622E0
1.050415609E0,2.777273893E0,-3.303998411E-1,8.193257332E0
1.052415642E0,2.741360903E0,-2.298433632E-1,8.348880768E0
1.054415675E0,2.719813108E0,-1.364694983E-1,8.425495148E0
1.056415708E0,2.710236311E0,3.112462163E-2,8.585906982E0
1.058415741E0,2.765302896E0,1.101332754E-1,8.712799072E0
1.060415774E0,2.844311714E0,2.274491638E-1,8.760683060E0
1.062415807E0,2.959233284E0,3.256114423E-1,8.818143845E0
1.064415807E0,3.052607059E0,3.280056417E-1,8.849268913E0
1.066415807E0,3.301604033E0,3.136404157E-1,8.957007408E0
1.068415673E0,3.301604033E0,3.136404157E-1,8.957007408E0
1.070415673E0,3.414131641E0,2.322375625E-1,8.887576103E0
1.072415673E0,3.473986626E0,1.747767180E-1,8.777442932E0
1.074415673E0,3.502717018E0,1.532289088E-1,8.710405350E0
1.076415639E0,3.550601006E0,1.077390760E-1,8.552388191E0
1.078416505E0,3.557783842E0,1.005564705E-1,8.478167534E0
1.080416471E0,3.541024208E0,1.268926859E-1,8.310573578E0
1.082416437E0,3.497928619E0,2.226607651E-1,8.176498413E0
1.084416403E0,3.466804028E0,2.777273953E-1,8.099884033E0
1.086416369E0,3.404554844E0,3.663128614E-1,7.908347607E0
1.088417202E0,3.380612850E0,3.950432837E-1,7.807791233E0
1.090418035E0,3.320757866E0,3.806780577E-1,7.587524414E0
1.092418035E0,3.239354849E0,3.567360640E-1,7.379229069E0
1.094418068E0,3.191470861E0,3.112462163E-1,7.283460617E0
1.096418101E0,3.100491285E0,1.723825186E-1,7.096713066E0
1.098418134E0,3.057395458E0,1.029506698E-1,7.015310287E0
1.100417767E0,2.935291290E0,2.154781483E-2,6.912359715E0
1.102417800E0,2.841917515E0,-2.633621916E-2,6.804620743E0
1.104417833E0,2.801215887E0,-4.309562966E-2,6.739976883E0
1.106417866E0,2.588132143E0,2.154781483E-2,6.569988728E0
1.108416999E0,2.588132143E0,5.746084079E-2,6.569988728E0
1.110416899E0,2.542642117E0,5.985504389E-2,6.524498940E0
1.112416865E0,2.504334927E0,6.703764945E-2,6.498162746E0
1.114416831E0,2.504334927E0,1.173158810E-1,6.495768547E0
1.116416797E0,2.518700123E0,2.633621916E-2,6.469432354E0
1.118416763E0,2.444479942E0,-1.580173075E-1,6.467038155E0
1.120416729E0,2.348711967E0,-6.344634295E-1,6.476614952E0
1.122416695E0,2.427720547E0,-7.206547260E-1,6.471826553E0
1.124416695E0,2.624045134E0,-6.703764796E-1,6.479009151E0
1.126416728E0,2.624045134E0,-4.668693244E-1,6.536469936E0
1.128416894E0,2.573766708E0,-2.968810201E-1,6.584353924E0
1.130416927E0,2.602497339E0,-6.703764945E-2,6.711246490E0
1.132416960E0,2.676717520E0,-3.591302410E-2,6.792649269E0
1.134416993E0,2.937685490E0,-3.112462163E-2,6.986579895E0
1.136417026E0,3.210624456E0,-1.053448766E-1,7.185298443E0
1.138417059E0,3.280056238E0,-1.963245422E-1,7.305008888E0
1.140417092E0,3.263296843E0,-4.860229492E-1,7.565976620E0
1.142417092E0,3.198653460E0,-6.344634295E-1,7.714416981E0
1.144417092E0,2.928108692E0,-9.097966552E-1,8.042423248E0
1.146417092E0,2.257732153E0,-1.067813993E0,8.736741066E0
1.148416225E0,2.257732153E0,-1.067813993E0,8.736741066E0
1.150416225E0,2.149993181E0,-1.063025594E0,8.882787704E0
1.152416225E0,2.073378563E0,-9.911994934E-1,9.047987938E0
1.154416191E0,1.956062794E0,-9.911994934E-1,9.378387451E0
1.156416157E0,1.970427990E0,-1.180341482E0,9.644144058E0
1.158416123E0,2.042253971E0,-1.300051570E0,9.737517357E0
1.160416489E0,2.183511972E0,-1.508347034E0,9.859622002E0
1.162416455E0,2.224213362E0,-1.582567334E0,9.921871185E0
1.164416421E0,2.255337954E0,-1.661576033E0,1.005355263E1
1.166416387E0,2.305616140E0,-1.735796213E0,1.015171432E1
1.168417220E0,2.353500366E0,-1.757344007E0,1.017565632E1
1.170417286E0,2.461239338E0,-1.805228114E0,1.019241619E1
1.172417319E0,2.497152328E0,-1.817199111E0,1.020199299E1
1.174417352E0,2.535459518E0,-1.802833915E0,1.019241619E1
1.176417385E0,2.561795712E0,-1.781286120E0,1.018523312E1
1.178417418E0,2.619256735E0,-1.754949808E0,1.017326260E1
1.180417451E0,2.681505919E0,-1.714248419E0,1.011819553E1
1.182417084E0,2.679111719E0,-1.685518026E0,1.006791782E1
1.184417117E0,2.652775526E0,-1.625662923E0,9.955389977E0
1.186417117E0,2.626439333E0,-1.584961534E0,9.718363762E0
1.188416217E0,2.647987127E0,-1.561019540E0,9.641749382E0
1.190417150E0,2.691082716E0,-1.522712231E0,9.577106476E0
1.192417116E0,2.748543501E0,-1.474828243E0,9.510068893E0
1.194417082E0,2.870647907E0,-1.340752959E0,9.361627579E0
1.196417048E0,2.940079689E0,-1.264138460E0,9.289801598E0
1.198417014E0,3.179499865E0,-1.101332784E0,9.150938034E0
1.200416980E0,3.473986626E0,-1.017535686E0,8.992920876E0
1.202416980E0,3.615244627E0,-9.720458984E-1,8.928277016E0
1.204417013E0,3.785232782E0,-8.523358107E-1,8.803778648E0
1.206417046E0,3.859453201E0,-7.924807668E-1,8.741529465E0
1.208417946E0,4.010287762E0,-7.086837292E-1,8.631396294E0
1.210417979E0,4.182670593E0,-6.991068721E-1,8.576330185E0
1.212418012E0,4.273650169E0,-6.440402865E-1,8.559570312E0
1.214418045E0,4.486733913E0,-7.110779285E-1,8.506897926E0
1.216418078E0,4.611232281E0,-7.972691655E-1,8.449437141E0
1.218418111E0,4.874594688E0,-9.864110947E-1,8.324938774E0
1.220418111E0,4.937143326E0,-1.043871999E0,8.312967300E0
1.222418277E0,4.994604111E0,-1.149216771E0,8.353669167E0
1.224418277E0,5.037699699E0,-1.266532660E0,8.382399559E0
1.226418277E0,5.013757706E0,-1.355118155E0,8.573935509E0
1.228417410E0,5.013757706E0,-1.355118155E0,8.573935509E0
1.230417176E0,5.006575108E0,-1.376665950E0,8.602665901E0
1.232417142E0,4.996998310E0,-1.407790542E0,8.643367767E0
1.234417108E0,4.946720123E0,-1.426944256E0,8.712799072E0
1.236417074E0,4.901230335E0,-1.438915253E0,8.743924141E0
1.238417040E0,4.788403511E0,-1.434126854E0,8.839692116E0
1.240417006E0,4.721365929E0,-1.424550056E0,8.882787704E0
1.242417372E0,4.575319290E0,-1.426944256E0,8.954613686E0
1.244417338E0,4.448426723E0,-1.503558636E0,9.024045944E0
1.246417304E0,4.390965939E0,-1.549048543E0,9.076718330E0
1.248418170E0,4.252102375E0,-1.616086125E0,9.203610420E0
1.250417236E0,4.197035789E0,-1.637633920E0,9.270648003E0
1.252417269E0,4.122815132E0,-1.702277422E0,9.395146370E0
1.254417302E0,4.082113743E0,-1.810016513E0,9.524434090E0
1.256417335E0,4.062960148E0,-1.877054095E0,9.572318077E0
1.258417368E0,4.036623955E0,-1.984793186E0,9.658509254E0
1.260417401E0,4.015076160E0,-2.027888775E0,9.684844971E0
1.262417434E0,3.983951569E0,-2.114080191E0,9.732728958E0
1.264417434E0,3.945644379E0,-2.152387381E0,9.737517357E0
1.266417400E0,3.919308186E0,-2.219424963E0,9.715970039E0
1.268417366E0,3.928884983E0,-2.231395960E0,9.689633369E0
1.270417332E0,3.948038578E0,-2.238578558E0,9.668086052E0
1.272417298E0,3.979163170E0,-2.276885748E0,9.605836868E0
1.274417264E0,4.007893562E0,-2.303221941E0,9.569923401E0
1.276417230E0,4.048594952E0,-2.327163935E0,9.514857292E0
1.278417196E0,4.082113743E0,-2.341529369E0,9.493309021E0
1.280417196E0,4.079719543E0,-2.343923569E0,9.493309021E0
1.282417029E0,4.086902142E0,-2.360682964E0,9.459790230E0
1.284417029E0,4.084507942E0,-2.353500366E0,9.443030357E0
1.286417029E0,4.096478939E0,-2.327163935E0,9.438241959E0
1.288417229E0,4.132391930E0,-2.319981337E0,9.493309021E0
1.290417462E0,4.132391930E0,-2.128445387E0,9.586683273E0
1.292417462E0,4.050989151E0,-1.829170108E0,9.830891609E0
1.294417462E0,4.062960148E0,-1.817199111E0,9.933841705E0
1.296417462E0,4.158728123E0,-1.826775908E0,1.010143661E1
1.298417495E0,4.264073372E0,-1.898601890E0,1.023311710E1
1.300417528E0,4.350264549E0,-1.980004787E0,1.028100109E1
1.302417561E0,4.520252705E0,-2.176329374E0,1.035522175E1
1.304417594E0,4.601655483E0,-2.260126352E0,1.040549946E1
1.306417627E0,4.797980309E0,-2.396595955E0,1.058267117E1
1.308416793E0,4.841075897E0,-2.398990154E0,1.062576675E1
1.310416793E0,4.876988888E0,-2.387019157E0,1.066646767E1
1.312416793E0,4.949114323E0,-2.286462545E0,1.070477486E1
1.314416759E0,4.963479519E0,-2.193088770E0,1.070238113E1
1.316416725E0,4.699818134E0,-1.766920805E0,1.076702404E1
1.318416691E0,4.565742493E0,-1.515529633E0,1.083166790E1
1.320416657E0,4.424484730E0,-1.067813993E0,1.085321522E1
1.322416623E0,4.297592163E0,-6.703764796E-1,1.080054283E1
1.324416589E0,4.244919777E0,-4.788403511E-1,1.076702404E1
1.326416589E0,4.182670593E0,-1.556231081E-1,1.067604446E1
1.328416622E0,4.156333923E0,-2.154781483E-2,1.062337208E1
1.330416655E0,4.098873138E0,1.915361285E-1,1.052999878E1
1.332416688E0,4.036623955E0,3.687070608E-1,1.043662453E1
1.334416721E0,4.012681961E0,4.381389022E-1,1.037676907E1
1.336416754E0,3.993528366E0,5.339069963E-1,1.023790550E1
1.338416787E0,3.983951569E0,5.363011956E-1,1.016129112E1
1.340416820E0,3.919308186E0,5.602431893E-1,9.981725693E0
1.342416853E0,3.861847401E0,5.315127969E-1,9.794978142E0
1.344416853E0,3.816357613E0,5.003881454E-1,9.684844971E0
1.346416853E0,3.670311213E0,1.915361285E-1,9.206005096E0
1.348416653E0,3.670311213E0,1.915361285E-1,9.206005096E0
1.350416353E0,3.643975019E0,9.576806426E-2,9.079112053E0
1.352416353E0,3.682282209E0,-1.580173075E-1,8.789413452E0
1.354416353E0,3.730166197E0,-2.992752194E-1,8.629002571E0
1.356416353E0,3.883395195E0,-5.698199868E-1,8.317755699E0
1.358416319E0,3.955221176E0,-7.086837292E-1,8.198045731E0
1.360416285E0,4.074931145E0,-1.000776291E0,8.023268700E0
1.362416251E0,4.168305397E0,-1.142034173E0,7.944260597E0
1.364416217E0,4.189853191E0,-1.383848548E0,7.946654797E0
1.366416183E0,4.194641590E0,-1.572990537E0,7.970596790E0
1.368417016E0,4.199429989E0,-1.644816518E0,7.965808392E0
1.370416982E0,4.192247391E0,-1.752555609E0,7.963414192E0
1.372416948E0,4.213795185E0,-1.783680320E0,7.956231594E0
1.374416948E0,4.276044369E0,-1.826775908E0,7.901165009E0
1.376416981E0,4.285621166E0,-1.824381709E0,7.860463619E0
1.378417014E0,4.309563160E0,-1.819593310E0,7.843704224E0
1.380417047E0,4.414907932E0,-1.843535304E0,7.779060364E0
1.382417080E0,4.498704910E0,-1.900996208E0,7.745541573E0
1.384417113E0,4.721365929E0,-2.027888775E0,7.661744595E0
1.386417146E0,5.289090633E0,-2.293645144E0,7.403171062E0
1.388416279E0,5.289090633E0,-2.293645144E0,7.403171062E0
1.390416279E0,5.418377876E0,-2.339135170E0,7.321768284E0
1.392416245E0,5.516540051E0,-2.370259762E0,7.245153427E0
1.394416211E0,5.542876244E0,-2.600103140E0,7.003339291E0
1.396416077E0,5.767930984E0,-2.547430515E0,6.883629322E0
1.398416043E0,5.808632374E0,-2.461239338E0,6.876446724E0
1.400416009E0,5.765536785E0,-2.322375536E0,6.888417721E0
1.402415975E0,5.727229595E0,-2.202665567E0,6.909965515E0
1.404415975E0,5.636250019E0,-1.857900500E0,6.974608898E0
1.406416008E0,5.547664642E0,-1.482010841E0,7.065588474E0
1.408416908E0,5.516540051E0,-1.307234168E0,7.137414455E0
1.410417241E0,5.418377876E0,-9.385270476E-1,7.360075474E0
1.412417274E0,5.353734493E0,-7.709329724E-1,7.491756439E0
1.414417307E0,5.274725437E0,-5.075707436E-1,7.762300968E0
1.416417340E0,5.253177643E0,-3.926490843E-1,7.870040417E0
1.418417373E0,5.257966042E0,-1.987187415E-1,8.059182167E0
1.420417406E0,5.313032627E0,-7.182604820E-2,8.217199326E0
1.422417406E0,5.360917091E0,-4.070143029E-2,8.286631584E0
1.424417406E0,5.523722649E0,-2.873042040E-2,8.399158478E0
1.426417006E0,5.937919617E0,-1.125274822E-1,8.470984459E0
1.428416139E0,5.937919617E0,-1.125274822E-1,8.470984459E0
1.430417305E0,6.019322395E0,-1.771709323E-1,8.466196060E0
1.432417305E0,6.021716595E0,-3.375824392E-1,8.423100471E0
1.434417305E0,6.162974358E0,-5.937620401E-1,8.370428085E0
1.436417271E0,6.258742332E0,-6.416460276E-1,8.384793282E0
1.438417237E0,6.318597794E0,-7.589619160E-1,8.375216484E0
1.440417203E0,6.349722385E0,-8.499416113E-1,8.365639687E0
1.442417169E0,6.361693382E0,-8.738836050E-1,8.344092369E0
1.444417135E0,6.364087582E0,-8.643068075E-1,8.298602104E0
1.446417101E0,6.368875980E0,-8.619126081E-1,8.277054787E0
1.448417934E0,6.330568790E0,-8.331822157E-1,8.210017204E0
1.450417900E0,6.234800339E0,-8.092401624E-1,8.198045731E0
1.452417900E0,6.167762756E0,-8.140285611E-1,8.212410927E0
1.454417933E0,6.031293392E0,-8.092401624E-1,8.245929718E0
1.456418066E0,5.949890614E0,-8.164227605E-1,8.255506516E0
1.458418099E0,5.796661377E0,-8.523358107E-1,8.281843185E0
1.460418132E0,5.643432617E0,-8.690952063E-1,8.353669167E0
1.462418165E0,5.578789234E0,-9.385270476E-1,8.375216484E0
1.464418198E0,5.490203857E0,-1.005564690E0,8.418312073E0
1.466418198E0,5.384859085E0,-1.103726983E0,8.415918350E0
1.468417298E0,5.353734493E0,-1.151610970E0,8.415918350E0
1.470417264E0,5.332186222E0,-1.209071875E0,8.415918350E0
1.472417230E0,5.375282288E0,-1.410184860E0,8.401553154E0
1.474417196E0,5.195716858E0,-1.491587639E0,8.430283546E0
1.476417162E0,5.092766285E0,-1.541865945E0,8.442254066E0
1.478417128E0,4.958691120E0,-1.690306425E0,8.418312073E0
1.480417094E0,4.906018734E0,-1.786074519E0,8.399158478E0
1.482417094E0,4.786009312E0,-1.951274395E0,8.391976357E0
1.484417094E0,4.673481941E0,-2.094926596E0,8.406341553E0
1.486417527E0,4.611232281E0,-2.157175779E0,8.415918350E0
1.488418427E0,4.546588898E0,-2.346317768E0,8.437465668E0
1.490417293E0,4.575319290E0,-2.463633537E0,8.423100471E0
1.492417326E0,4.302380562E0,-2.470816135E0,8.504503250E0
1.494417359E0,4.103661537E0,-2.485181332E0,8.645761490E0
1.496417392E0,4.070142746E0,-2.521094322E0,8.696040154E0
1.498417425E0,4.005499363E0,-2.614468336E0,8.822932243E0
1.500418291E0,3.986345768E0,-2.669534922E0,8.921094894E0
1.502418291E0,3.993528366E0,-2.810792685E0,9.115025520E0
1.504418291E0,4.024652958E0,-2.966415882E0,9.308955193E0
1.506418291E0,4.192247391E0,-3.260902643E0,9.615413666E0
1.508417424E0,4.192247391E0,-3.260902643E0,9.615413666E0
1.510417357E0,4.256890774E0,-3.378218651E0,9.713575363E0
1.512417357E0,4.419696331E0,-3.581725836E0,9.902717590E0
1.514417323E0,4.560954094E0,-3.677493811E0,9.991303444E0
1.516417289E0,4.635174274E0,-3.890577793E0,1.015889740E1
1.518417255E0,4.774038315E0,-4.110844135E0,1.027621269E1
1.520417221E0,4.838681698E0,-4.199429989E0,1.030733776E1
1.522417187E0,5.001786709E0,-4.359841347E0,1.036479855E1
1.524417153E0,5.076006889E0,-4.410119534E0,1.038395214E1
1.526417119E0,5.202899456E0,-4.498704910E0,1.045577812E1
1.528417985E0,5.332186222E0,-4.584896088E0,1.047972012E1
1.530417985E0,5.370493889E0,-4.608838081E0,1.046774864E1
1.532418018E0,5.449502468E0,-4.649539471E0,1.042465305E1
1.534418051E0,5.490203857E0,-4.654327869E0,1.044620132E1
1.536418084E0,5.468656063E0,-4.589684486E0,1.053478718E1
1.538418117E0,5.341763496E0,-4.458003521E0,1.063055515E1
1.540418150E0,5.293879032E0,-4.388571739E0,1.067365074E1
1.542418183E0,5.262754440E0,-4.220977783E0,1.075026512E1
1.544418216E0,5.260360241E0,-4.129997730E0,1.075505352E1
1.546418216E0,5.210082054E0,-3.885789394E0,1.070716953E1
1.548417316E0,5.210082054E0,-3.885789394E0,1.070716953E1
1.550417282E0,5.178957462E0,-3.845088005E0,1.066886234E1
1.552417248E0,5.107131481E0,-3.825934410E0,1.058745956E1
1.554417214E0,5.090372086E0,-3.835511208E0,1.054675770E1
1.556417180E0,5.097554684E0,-3.897760391E0,1.043662453E1
1.558417146E0,5.152621269E0,-3.928884983E0,1.029536629E1
1.560416279E0,5.174169064E0,-3.991134167E0,1.021635818E1
1.562416279E0,5.037699699E0,-3.888183594E0,1.016847420E1
1.564416312E0,4.778826714E0,-3.639186621E0,1.032409668E1
1.566416345E0,4.752490520E0,-3.536235809E0,1.043422985E1
1.568417245E0,4.817133904E0,-3.555389643E0,1.031212616E1
1.570417345E0,4.932354927E0,-3.536235809E0,1.023790550E1
1.572417378E0,5.095160484E0,-3.639186621E0,1.014932060E1
1.574417411E0,5.157409668E0,-3.713406801E0,1.010622501E1
1.576417444E0,5.272331238E0,-3.919308186E0,1.002961063E1
1.578417444E0,5.372888088E0,-4.072536945E0,9.986514091E0
1.580417444E0,5.365705490E0,-4.242525578E0,9.960178375E0
1.582417444E0,5.250783443E0,-4.338293552E0,1.000806236E1
1.584417444E0,5.238812447E0,-4.412513733E0,1.002003384E1
1.586417444E0,5.404012680E0,-4.601655483E0,1.011819553E1
1.588416577E0,5.404012680E0,-4.601655483E0,1.011819553E1
1.590416577E0,5.437531471E0,-4.637568474E0,1.013734913E1
1.592416543E0,5.478232861E0,-4.695029736E0,1.012537861E1
1.594416509E0,5.490203857E0,-4.714183331E0,1.011580181E1
1.596416475E0,5.449502468E0,-4.766855717E0,1.005594635E1
1.598416441E0,5.430348873E0,-4.793191910E0,1.000088024E1
1.600416407E0,5.315426826E0,-4.788403511E0,9.895534515E0
1.602416373E0,5.193322659E0,-4.812345505E0,9.785401344E0
1.604416339E0,5.116708279E0,-4.836287498E0,9.725546837E0
1.606416305E0,4.968267918E0,-4.893748283E0,9.634567261E0
1.608417171E0,5.131073475E0,-5.083189487E0,9.526827812E0
1.610417204E0,5.480627060E0,-5.415983677E0,9.342473984E0
1.612417237E0,5.054459095E0,-5.346551895E0,9.414299965E0
1.614417270E0,4.836287498E0,-5.068824291E0,9.440636635E0
1.616417303E0,4.534617901E0,-4.879383087E0,9.419088364E0
1.618417336E0,4.424484730E0,-4.800374508E0,9.392752647E0
1.620417369E0,4.288015366E0,-4.673481941E0,9.344868660E0
1.622417402E0,4.235342979E0,-4.606443882E0,9.325715065E0
1.624417402E0,4.175487995E0,-4.529829502E0,9.273042679E0
1.626417368E0,3.852270603E0,-4.295197964E0,9.057564735E0
1.628416468E0,3.852270603E0,-4.295197964E0,9.057564735E0
1.630415534E0,3.744531393E0,-4.197035789E0,8.978555679E0
1.632415500E0,3.632004023E0,-4.110844135E0,8.892364502E0
1.634415466E0,3.500322819E0,-4.007893562E0,8.698433876E0
1.636415432E0,3.581725836E0,-4.089296341E0,8.439860344E0
1.638415432E0,3.667917013E0,-4.158728123E0,8.317755699E0
1.640415432E0,3.806780815E0,-4.302380562E0,8.083124161E0
1.642415465E0,3.869029999E0,-4.362235546E0,7.972990990E0
1.644415498E0,3.955221176E0,-4.474762917E0,7.735964775E0
1.646415531E0,4.017470360E0,-4.546588898E0,7.527669430E0
1.648416431E0,4.053383350E0,-4.568136692E0,7.429507256E0
1.650416464E0,4.101267338E0,-4.592078686E0,7.259518623E0
1.652416497E0,4.125209332E0,-4.594472885E0,7.187692642E0
1.654416530E0,4.177882195E0,-4.551377296E0,7.094318867E0
1.656416530E0,4.240131378E0,-4.505887508E0,7.024887085E0
1.658416530E0,4.283226967E0,-4.472368717E0,6.986579895E0
1.660416530E0,4.386177540E0,-4.378994942E0,6.926724911E0
1.662416530E0,4.434061527E0,-4.323928356E0,6.902782917E0
1.664416530E0,4.525041103E0,-4.213795185E0,6.914753914E0
1.666416530E0,4.920383930E0,-4.388571739E0,6.876446724E0
1.668416530E0,5.461473465E0,-4.716577530E0,6.790255070E0
1.670416496E0,5.844545841E0,-4.793191910E0,6.821380138E0
1.672416462E0,5.720046997E0,-4.620809078E0,6.941090107E0
1.674416428E0,5.238812447E0,-4.146757126E0,7.197269440E0
1.676416394E0,5.028122902E0,-3.916913986E0,7.293037415E0
1.678416360E0,4.730942726E0,-3.509899616E0,7.415142059E0
1.680416326E0,4.596867085E0,-3.177105665E0,7.570765018E0
1.682416292E0,4.560954094E0,-3.045424461E0,7.668927193E0
1.684416258E0,4.532223701E0,-2.846705914E0,7.927501202E0
1.686416258E0,4.635174274E0,-2.794033289E0,8.147768021E0
1.688417158E0,4.728548527E0,-2.810792685E0,8.233959198E0
1.690418091E0,4.872200489E0,-2.906560898E0,8.411129951E0
1.692418124E0,4.929960728E0,-2.968810081E0,8.502109528E0
1.694418157E0,4.973056316E0,-3.122039080E0,8.684068680E0
1.696418190E0,4.987421513E0,-3.203441858E0,8.775048256E0
1.698417823E0,4.975450516E0,-3.361459255E0,8.959402084E0
1.700417856E0,4.920383930E0,-3.524264812E0,9.124602318E0
1.702417856E0,4.910807133E0,-3.581725836E0,9.215581894E0
1.704417822E0,4.824316502E0,-3.641580820E0,9.411906242E0
1.706417788E0,4.675876141E0,-3.624821424E0,9.701604843E0
1.708416888E0,4.675876141E0,-3.624821424E0,9.701604843E0
1.710416854E0,4.532223701E0,-3.581725836E0,9.890746117E0
1.712416820E0,4.436455727E0,-3.502717018E0,9.976937294E0
1.714416786E0,4.261679173E0,-3.409343243E0,1.013016701E1
1.716416786E0,4.163516521E0,-3.385401249E0,1.019002151E1
1.718416786E0,4.019864559E0,-3.270479441E0,1.025227070E1
1.720416819E0,3.991134167E0,-3.193865061E0,1.026424217E1
1.722416852E0,3.895366192E0,-3.150769472E0,1.024269390E1
1.724416885E0,3.785232782E0,-3.162740469E0,1.020438671E1
1.726416918E0,3.730166197E0,-3.177105665E0,1.017565632E1
1.728416951E0,3.605667830E0,-3.215412855E0,1.011101341E1
1.730416984E0,3.541024208E0,-3.246537447E0,1.006312943E1
1.732417017E0,3.402160645E0,-3.318363667E0,9.945813179E0
1.734417050E0,3.277662039E0,-3.383007050E0,9.806949615E0
1.736417050E0,3.208230257E0,-3.404554844E0,9.735123634E0
1.738417050E0,3.050212860E0,-3.423708439E0,9.560346603E0
1.740417050E0,2.985569477E0,-3.433285236E0,9.459790230E0
1.742417050E0,2.858676910E0,-3.426102638E0,9.244312286E0
1.744417050E0,2.738966703E0,-3.411737442E0,9.028834343E0
1.746417050E0,2.597708941E0,-3.359065056E0,8.657732964E0
1.748416150E0,2.597708941E0,-3.359065056E0,8.657732964E0
1.750415716E0,2.545036316E0,-3.330334663E0,8.530839920E0
1.752415682E0,2.461239338E0,-3.270479441E0,8.303390503E0
1.754415648E0,2.394201756E0,-3.217807055E0,8.073547363E0
1.756415614E0,2.358288765E0,-3.198653460E0,7.968202591E0
1.758415980E0,2.305616140E0,-3.167528868E0,7.762300968E0
1.760415946E0,2.281674147E0,-3.167528868E0,7.676109791E0
1.762415912E0,2.248155355E0,-3.157952070E0,7.508515835E0
1.764415912E0,2.219424963E0,-3.150769472E0,7.422324657E0
1.766415945E0,2.212242365E0,-3.136404276E0,7.288249016E0
1.768416311E0,2.202665567E0,-3.119644880E0,7.190086842E0
1.770416344E0,2.197877169E0,-3.107673883E0,7.158962250E0
1.772416377E0,2.229001760E0,-3.021482468E0,7.034463882E0
1.774416410E0,2.250549555E0,-2.987963676E0,6.993762493E0
1.776416443E0,2.300827742E0,-2.975992680E0,7.029675484E0
1.778416476E0,2.351106167E0,-2.985569477E0,7.022492886E0
1.780416476E0,2.372653961E0,-2.980781078E0,7.032069683E0
1.782416442E0,2.437297344E0,-2.935291290E0,7.070376873E0
1.784416408E0,2.475604534E0,-2.906560898E0,7.091924667E0
1.786416374E0,2.607285738E0,-2.808398485E0,7.199663639E0
1.788415474E0,2.607285738E0,-2.808398485E0,7.199663639E0
1.790415440E0,2.612074137E0,-2.784456491E0,7.245153427E0
1.792415406E0,2.650381327E0,-2.758120298E0,7.340921879E0
1.794415372E0,2.683900118E0,-2.731784105E0,7.388805866E0
1.796415372E0,2.681505919E0,-2.652775526E0,7.484573841E0
1.798415405E0,2.636016130E0,-2.624045134E0,7.604283810E0
1.800415438E0,2.619256735E0,-2.621650934E0,7.661744595E0
1.802415471E0,2.621650934E0,-2.664746523E0,7.805397034E0
1.804415504E0,2.636016130E0,-2.693476915E0,7.872434616E0
1.806415537E0,2.688688517E0,-2.717418909E0,7.987356186E0
1.808416437E0,2.770091295E0,-2.712630510E0,8.080730438E0
1.810416870E0,2.808398485E0,-2.698265314E0,8.128614426E0
1.812416903E0,2.873042107E0,-2.650381327E0,8.214805603E0
1.814416903E0,2.908955097E0,-2.633621931E0,8.257901192E0
1.816416903E0,2.949656487E0,-2.619256735E0,8.334515572E0
1.818416903E0,2.973598480E0,-2.597708941E0,8.363245964E0
1.820416903E0,3.033453465E0,-2.547430515E0,8.420706749E0
1.822416903E0,3.074155092E0,-2.487575531E0,8.461407661E0
1.824416903E0,3.095702887E0,-2.446874142E0,8.473379135E0
1.826416869E0,3.251325846E0,-2.300827742E0,8.447042465E0
1.828416502E0,3.251325846E0,-2.300827742E0,8.447042465E0
1.830416268E0,3.251325846E0,-2.300827742E0,8.447042465E0
1.832416234E0,3.318363667E0,-2.257732153E0,8.439860344E0
1.834416200E0,3.342305660E0,-2.226607561E0,8.435071945E0
1.836416166E0,3.414131641E0,-2.205059767E0,8.425495148E0
1.838416132E0,3.450044632E0,-2.195482969E0,8.427888870E0
1.840416098E0,3.538630009E0,-2.178723574E0,8.439860344E0
1.842416098E0,3.615244627E0,-2.157175779E0,8.430283546E0
1.844416131E0,3.643975019E0,-2.133233786E0,8.432677269E0
1.846416164E0,3.689464808E0,-2.085349798E0,8.432677269E0
1.848417064E0,3.684676409E0,-2.066195965E0,8.432677269E0
1.850417097E0,3.679888010E0,-2.015917778E0,8.399158478E0
1.852417130E0,3.670311213E0,-1.963245392E0,8.391976357E0
1.854417163E0,3.670311213E0,-1.958456993E0,8.387187958E0
1.856417196E0,3.667917013E0,-1.946485996E0,8.363245964E0
1.858417196E0,3.653551817E0,-1.946485996E0,8.346486092E0
1.860417162E0,3.600879431E0,-1.953668594E0,8.300996780E0
1.862417128E0,3.576937437E0,-1.946485996E0,8.267477989E0
1.864417094E0,3.548206806E0,-1.941697598E0,8.255506516E0
1.866417060E0,3.454833031E0,-1.915361404E0,8.233959198E0
1.868417026E0,3.454833031E0,-1.915361404E0,8.233959198E0
1.870416992E0,3.390189648E0,-1.944091797E0,8.198045731E0
1.872416958E0,3.371036053E0,-1.960851192E0,8.178892136E0
1.874416958E0,3.327940464E0,-1.972822189E0,8.150161743E0
1.876416991E0,3.280056238E0,-1.994369984E0,8.145373344E0
1.878417024E0,3.260902643E0,-1.999158382E0,8.140584946E0
1.880417057E0,3.217807055E0,-2.027888775E0,8.140584946E0
1.882417090E0,3.201047659E0,-2.039859772E0,8.138191223E0
1.884417123E0,3.160346270E0,-2.063801765E0,8.145373344E0
1.886417156E0,3.117250681E0,-2.094926596E0,8.162133217E0
1.888418056E0,3.102885485E0,-2.094926596E0,8.178892136E0
1.890418289E0,3.083731890E0,-2.106897593E0,8.210017204E0
1.892418289E0,3.078943491E0,-2.109291792E0,8.219594002E0
1.894418289E0,3.066972494E0,-2.111685991E0,8.250718117E0
1.896418289E0,3.031059265E0,-2.116474390E0,8.281843185E0
1.898418289E0,2.997540474E0,-2.099714994E0,8.298602104E0
1.900418289E0,2.959233284E0,-2.078166962E0,8.327332497E0
1.902418289E0,2.954444885E0,-2.066195965E0,8.327332497E0
1.904418255E0,2.995146275E0,-2.025494576E0,8.368034363E0
1.906418221E0,3.114856482E0,-2.042253971E0,8.506897926E0
1.908417321E0,3.114856482E0,-2.042253971E0,8.506897926E0
1.910417287E0,3.198653460E0,-2.080561161E0,8.617031097E0
1.912417253E0,3.234566450E0,-2.082955360E0,8.674491882E0
1.914417219E0,3.344699860E0,-2.078166962E0,8.801384926E0
1.916417185E0,3.402160645E0,-2.070984364E0,8.861239433E0
1.918417151E0,3.421314240E0,-2.063801765E0,8.980949402E0
1.920417151E0,3.452438831E0,-2.030282974E0,9.074323654E0
1.922417184E0,3.459621429E0,-1.994369984E0,9.115025520E0
1.924417217E0,3.464409828E0,-1.948880196E0,9.210793495E0
1.926417250E0,3.457227230E0,-1.924938202E0,9.249100685E0
1.928417283E0,3.438073635E0,-1.905784607E0,9.308955193E0
1.930417316E0,3.433285236E0,-1.900996208E0,9.352050781E0
1.932417349E0,3.411737442E0,-1.879448295E0,9.373599052E0
1.934417382E0,3.375824451E0,-1.843535304E0,9.431059837E0
1.936417382E0,3.373430252E0,-1.826775908E0,9.469367027E0
1.938417348E0,3.282450438E0,-1.697489023E0,9.567529678E0
1.940417314E0,2.992752075E0,-1.367089152E0,9.850045204E0
1.942417280E0,2.947262287E0,-1.338358760E0,9.931447983E0
1.944417246E0,3.016694069E0,-1.350329757E0,9.854833603E0
1.946417212E0,3.196259260E0,-1.529894829E0,9.732728958E0
1.948416312E0,3.258508444E0,-1.616086125E0,9.668086052E0
1.950416278E0,3.306392431E0,-1.692700624E0,9.598653793E0
1.952416278E0,3.344699860E0,-1.778891921E0,9.522039413E0
1.954416311E0,3.387795448E0,-1.922544003E0,9.344868660E0
1.956416344E0,3.387795448E0,-1.996764183E0,9.277831078E0
1.958416377E0,3.356670856E0,-2.109291792E0,9.131784439E0
1.960416410E0,3.280056238E0,-2.154781580E0,8.997709274E0
1.962416443E0,3.232172251E0,-2.195482969E0,8.935460091E0
1.964416476E0,3.105279684E0,-2.209848166E0,8.810961723E0
1.966416509E0,3.045424461E0,-2.202665567E0,8.763077736E0
1.968417409E0,2.952050686E0,-2.178723574E0,8.676886559E0
1.970417409E0,2.904166698E0,-2.164358377E0,8.633790970E0
1.972417409E0,2.794033289E0,-2.109291792E0,8.576330185E0
1.974417409E0,2.691082716E0,-2.063801765E0,8.506897926E0
1.976417409E0,2.643198729E0,-2.037465572E0,8.461407661E0
1.978417409E0,2.583343744E0,-1.960851192E0,8.389581680E0
1.980417409E0,2.552218914E0,-1.936909199E0,8.368034363E0
1.982417375E0,2.487575531E0,-1.860294700E0,8.327332497E0
1.984417341E0,2.451662540E0,-1.805228114E0,8.291419983E0
1.986417307E0,2.458845139E0,-1.810016513E0,8.195652008E0
1.988416407E0,2.456450939E0,-1.800439715E0,8.183680534E0
1.990416373E0,2.456450939E0,-1.800439715E0,8.183680534E0
1.992416339E0,2.451662540E0,-1.771709204E0,8.171710014E0
1.994416305E0,2.442085743E0,-1.742978811E0,8.183680534E0
1.996416438E0,2.442085743E0,-1.740584612E0,8.195652008E0
1.998416438E0,2.461239338E0,-1.738190413E0,8.202834129E0
2.000416471E0,2.463633537E0,-1.733402014E0,8.210017204E0
2.002416504E0,2.466027737E0,-1.733402014E0,8.217199326E0
2.004416537E0,2.506729126E0,-1.740584612E0,8.217199326E0
2.006416570E0,2.521094322E0,-1.735796213E0,8.219594002E0
2.008417470E0,2.580949545E0,-1.735796213E0,8.233959198E0
2.010417503E0,2.604891539E0,-1.721431017E0,8.236352921E0
2.012417536E0,2.671929121E0,-1.707065821E0,8.265083313E0
2.014417536E0,2.743755102E0,-1.709460020E0,8.286631584E0
2.016417502E0,2.765302896E0,-1.659181833E0,8.341697693E0
2.018417468E0,2.837129116E0,-1.644816518E0,8.456619263E0
2.020417434E0,2.863465309E0,-1.647210717E0,8.523657799E0
2.022417400E0,2.920926094E0,-1.628057122E0,8.645761490E0
2.024417366E0,2.932897091E0,-1.625662923E0,8.712799072E0
2.026417332E0,2.997540474E0,-1.683123827E0,8.985737801E0
2.028416432E0,2.997540474E0,-1.683123827E0,8.985737801E0
2.030415565E0,2.997540474E0,-1.683123827E0,8.985737801E0
2.032415565E0,3.016694069E0,-1.723825216E0,9.081506729E0
2.034415565E0,3.038241863E0,-1.745373011E0,9.131784439E0
2.036415565E0,3.074155092E0,-1.802833915E0,9.220370293E0
2.038415565E0,3.102885485E0,-1.841141105E0,9.285013199E0
2.040415565E0,3.114856482E0,-1.855506301E0,9.308955193E0
2.042415565E0,3.134010077E0,-1.874659896E0,9.354445457E0
2.044415565E0,3.141192675E0,-1.891419291E0,9.373599052E0
2.046415565E0,3.157952070E0,-1.889025092E0,9.426271439E0
2.048416465E0,3.136404276E0,-1.886630893E0,9.486125946E0
2.050416498E0,3.134010077E0,-1.879448295E0,9.514857292E0
2.052416531E0,3.145981073E0,-1.850717902E0,9.581894875E0
2.054416564E0,3.150769472E0,-1.845929503E0,9.605836868E0
2.056416430E0,3.153163671E0,-1.862688899E0,9.644144058E0
2.058416463E0,3.129221678E0,-1.881842494E0,9.670479774E0
2.060416463E0,3.126827478E0,-1.884236693E0,9.675268173E0
2.062416463E0,3.122039080E0,-1.872265697E0,9.682451248E0
2.064416429E0,3.119644880E0,-1.877054095E0,9.677662849E0
2.066416395E0,3.112462282E0,-1.853112102E0,9.660902977E0
2.068415461E0,3.112462282E0,-1.853112102E0,9.660902977E0
2.070415427E0,3.119644880E0,-1.826775908E0,9.660902977E0
2.072415393E0,3.138798475E0,-1.802833915E0,9.646537781E0
2.074415359E0,3.138798475E0,-1.793257117E0,9.639355659E0
2.076415359E0,3.145981073E0,-1.790862918E0,9.605836868E0
2.078415392E0,3.165134668E0,-1.781286120E0,9.589076996E0
2.080415425E0,3.217807055E0,-1.757344007E0,9.545981407E0
2.082415458E0,3.246537447E0,-1.745373011E0,9.486125946E0
2.084415491E0,3.260902643E0,-1.733402014E0,9.452607155E0
2.086415524E0,3.284844637E0,-1.695094824E0,9.373599052E0
2.088416424E0,3.303998232E0,-1.671152830E0,9.337685585E0
2.090417324E0,3.366247654E0,-1.625662923E0,9.249100685E0
2.092417357E0,3.406949043E0,-1.570596337E0,9.174880028E0
2.094417357E0,3.435679436E0,-1.544260144E0,9.141361237E0
2.096417357E0,3.478775024E0,-1.486799240E0,9.067141533E0
2.098417357E0,3.495534420E0,-1.462857246E0,9.026439667E0
2.100417357E0,3.536235809E0,-1.403002143E0,8.949825287E0
2.102417357E0,3.531447411E0,-1.319205165E0,8.875604630E0
2.104417357E0,3.507505417E0,-1.268926859E0,8.846874237E0
2.106418523E0,3.014299870E0,-6.512228847E-1,9.117419243E0
2.108417923E0,2.801215887E0,-4.548983276E-1,9.356839180E0
2.110417889E0,2.822763920E0,-4.213795066E-1,9.366415977E0
2.112417855E0,3.047818661E0,-4.285621047E-1,9.074323654E0
2.114417821E0,3.179499865E0,-5.363011956E-1,8.952219009E0
2.116417787E0,3.459621429E0,-7.541735172E-1,8.703222275E0
2.118417753E0,3.591302633E0,-8.858546019E-1,8.564358711E0
2.120417719E0,3.813963413E0,-1.106121182E0,8.320150375E0
2.122417685E0,3.900154591E0,-1.201889277E0,8.207622528E0
2.124417685E0,3.995922565E0,-1.379060149E0,8.030451775E0
2.126417718E0,4.050989151E0,-1.539471745E0,7.886799812E0
2.128418651E0,4.070142746E0,-1.594538331E0,7.826944828E0
2.130418684E0,4.065354347E0,-1.656787634E0,7.757512569E0
2.132418717E0,4.055777550E0,-1.656787634E0,7.750329971E0
2.134418750E0,4.017470360E0,-1.640028119E0,7.769483566E0
2.136418783E0,3.974374771E0,-1.630451322E0,7.795820236E0
2.138418783E0,3.924096584E0,-1.589749932E0,7.817368031E0
2.140418783E0,3.766079187E0,-1.448492050E0,7.932289600E0
2.142418583E0,3.663128614E0,-1.357512355E0,8.030451775E0
2.144418549E0,3.495534420E0,-1.173158884E0,8.221987724E0
2.146418515E0,3.327940464E0,-9.792284966E-1,8.468590736E0
2.148417615E0,3.289633036E0,-9.457096457E-1,8.530839920E0
2.150417581E0,3.253720045E0,-9.385270476E-1,8.583512306E0
2.152417547E0,3.227383852E0,-9.457096457E-1,8.631396294E0
2.154417547E0,3.203441858E0,-9.792284966E-1,8.717587471E0
2.156417580E0,3.191470861E0,-1.051054597E0,8.820538521E0
2.158417613E0,3.169923067E0,-1.082179189E0,8.866027832E0
2.160417646E0,3.129221678E0,-1.165976286E0,8.937853813E0
2.162417679E0,3.110068083E0,-1.194706678E0,8.983344078E0
2.164417712E0,3.064578056E0,-1.240196466E0,9.098265648E0
2.166416578E0,3.019088268E0,-1.268926859E0,9.160514832E0
2.168417178E0,2.990357876E0,-1.307234168E0,9.280224800E0
2.170417211E0,2.918531895E0,-1.340752959E0,9.385569572E0
2.172417211E0,2.889801502E0,-1.352723956E0,9.450213432E0
2.174417211E0,2.839523315E0,-1.333570361E0,9.579500198E0
2.176417211E0,2.755726099E0,-1.235408068E0,9.680056572E0
2.178417211E0,2.449268341E0,-9.720458984E-1,1.005355263E1
2.180417211E0,2.408566952E0,-9.313444495E-1,1.013495541E1
2.182417211E0,2.430114746E0,-9.337386489E-1,1.011101341E1
2.184417211E0,2.489969730E0,-9.457096457E-1,1.007509995E1
2.186417177E0,2.614468336E0,-1.089361787E0,9.952995300E0
2.188416277E0,2.614468336E0,-1.089361787E0,9.952995300E0
2.190416243E0,2.636016130E0,-1.120486379E0,9.914688110E0
2.192416209E0,2.679111719E0,-1.161187768E0,9.866804123E0
2.194416175E0,2.746149302E0,-1.252167463E0,9.751882553E0
2.196415241E0,2.762908697E0,-1.285686255E0,9.694421768E0
2.198415207E0,2.798821688E0,-1.314416766E0,9.596260071E0
2.200415173E0,2.806004286E0,-1.333570361E0,9.522039413E0
2.202415339E0,2.806004286E0,-1.326387763E0,9.486125946E0
2.204415372E0,2.791639090E0,-1.304839969E0,9.387964249E0
2.206415405E0,2.777273893E0,-1.283292055E0,9.352050781E0
2.208416305E0,2.746149302E0,-1.240196466E0,9.277831078E0
2.210416338E0,2.738966703E0,-1.206677675E0,9.196428299E0
2.212416371E0,2.741360903E0,-1.115697980E0,9.160514832E0
2.214416404E0,2.760514498E0,-1.063025594E0,9.079112053E0
2.216416404E0,2.779668093E0,-1.024718285E0,9.036016464E0
2.218416404E0,2.786850691E0,-9.624691010E-1,8.947430611E0
2.220416370E0,2.810792685E0,-9.289502501E-1,8.909123421E0
2.222416336E0,2.846705914E0,-8.834604025E-1,8.832509041E0
2.224416302E0,2.877830505E0,-8.451532125E-1,8.791808128E0
2.226416268E0,2.901772499E0,-8.858546019E-1,8.710405350E0
2.228415368E0,2.901772499E0,-8.858546019E-1,8.710405350E0
2.230415201E0,2.899378300E0,-8.858546019E-1,8.679280281E0
2.232415201E0,2.892195702E0,-9.385270476E-1,8.648156166E0
2.234415201E0,2.877830505E0,-9.720458984E-1,8.621819496E0
2.236415234E0,2.858676910E0,-1.000776291E0,8.597877502E0
2.238415267E0,2.817975283E0,-1.029506683E0,8.561964989E0
2.240415300E0,2.798821688E0,-1.046266198E0,8.545205116E0
2.242415333E0,2.786850691E0,-1.053448796E0,8.533234596E0
2.244415366E0,2.719813108E0,-1.053448796E0,8.585906982E0
2.246415399E0,2.695871115E0,-1.051054597E0,8.607454300E0
2.248416299E0,2.647987127E0,-1.048660398E0,8.674491882E0
2.250417499E0,2.619256735E0,-1.039083481E0,8.712799072E0
2.252417499E0,2.568978310E0,-1.034295082E0,8.808567047E0
2.254417499E0,2.523488522E0,-1.034295082E0,8.861239433E0
2.256418399E0,2.497152328E0,-1.034295082E0,8.899546623E0
2.258418399E0,2.442085743E0,-1.048660398E0,8.976161003E0
2.260418399E0,2.425326347E0,-1.072602391E0,8.988132477E0
2.262418399E0,2.389413357E0,-1.108515382E0,9.007286072E0
2.264418365E0,2.351106167E0,-1.120486379E0,9.031228065E0
2.266418331E0,2.339135170E0,-1.187524080E0,9.134179115E0
2.268418297E0,2.324769735E0,-1.206677675E0,9.177274704E0
2.270418263E0,2.317587137E0,-1.223437071E0,9.210793495E0
2.272418229E0,2.296039343E0,-1.264138460E0,9.265859604E0
2.274418195E0,2.276885748E0,-1.268926859E0,9.292196274E0
2.276418161E0,2.264914751E0,-1.302445769E0,9.296984673E0
2.278418127E0,2.276885748E0,-1.323993564E0,9.289801598E0
2.280418127E0,2.298433542E0,-1.323993564E0,9.308955193E0
2.282418160E0,2.315192938E0,-1.333570361E0,9.323320389E0
2.284418193E0,2.312798738E0,-1.328781962E0,9.330503464E0
2.286418226E0,2.310404539E0,-1.314416766E0,9.359233856E0
2.288419126E0,2.312798738E0,-1.307234168E0,9.414299965E0
2.290419292E0,2.293645144E0,-1.326387763E0,9.431059837E0
2.292419325E0,2.319981337E0,-1.312022567E0,9.471760750E0
2.294419358E0,2.329558372E0,-1.290474772E0,9.507674217E0
2.296419358E0,2.343923569E0,-1.278503656E0,9.545981407E0
2.298419324E0,2.372653961E0,-1.259350061E0,9.596260071E0
2.300419290E0,2.394201756E0,-1.252167463E0,9.608230591E0
2.302419256E0,2.451662540E0,-1.261744261E0,9.613018990E0
2.304419222E0,2.466027737E0,-1.261744261E0,9.617807388E0
2.306419188E0,2.533065319E0,-1.283292055E0,9.639355659E0
2.308418288E0,2.533065319E0,-1.283292055E0,9.639355659E0
2.310417088E0,2.568978310E0,-1.276109457E0,9.641749382E0
2.312417088E0,2.602497339E0,-1.261744261E0,9.644144058E0
2.314417121E0,2.604891539E0,-1.266532660E0,9.641749382E0
2.316417154E0,2.647987127E0,-1.276109457E0,9.639355659E0
2.318417187E0,2.662352324E0,-1.271321058E0,9.646537781E0
2.320417220E0,2.659958124E0,-1.264138460E0,9.656114578E0
2.322417953E0,2.681505919E0,-1.254561663E0,9.672874451E0
2.324417986E0,2.695871115E0,-1.242590666E0,9.680056572E0
2.326418019E0,2.712630510E0,-1.247379065E0,9.713575363E0
2.328417685E0,2.741360903E0,-1.249773264E0,9.735123634E0
2.330417685E0,2.774879694E0,-1.249773264E0,9.783007622E0
2.332417685E0,2.808398485E0,-1.283292055E0,9.806949615E0
2.334417685E0,2.829946518E0,-1.295263171E0,9.816526413E0
2.336417685E0,2.856282711E0,-1.333570361E0,9.852438927E0
2.338417685E0,2.863465309E0,-1.345541358E0,9.864410400E0
2.340417685E0,2.844311714E0,-1.379060149E0,9.902717590E0
2.342417651E0,2.798821688E0,-1.405396342E0,9.907505989E0
2.344417617E0,2.784456491E0,-1.412579060E0,9.919476509E0
2.346417083E0,2.662352324E0,-1.381454349E0,1.003439903E1
2.348416183E0,2.662352324E0,-1.381454349E0,1.003439903E1
2.350416149E0,2.619256735E0,-1.362300754E0,1.004158115E1
2.352416115E0,2.537853718E0,-1.323993564E0,1.001285076E1
2.354416081E0,2.497152328E0,-1.304839969E0,1.001524544E1
2.356416047E0,2.391807556E0,-1.271321058E0,1.004636955E1
2.358416047E0,2.351106167E0,-1.261744261E0,1.003679276E1
2.360416080E0,2.310404539E0,-1.276109457E0,9.974543571E0
2.362416113E0,2.279279947E0,-1.283292055E0,9.900322914E0
2.364416146E0,2.264914751E0,-1.314416766E0,9.852438927E0
2.366416179E0,2.255337954E0,-1.340752959E0,9.759065628E0
2.368417079E0,2.240972757E0,-1.355118155E0,9.711181641E0
2.370417112E0,2.248155355E0,-1.386242747E0,9.624990463E0
2.372417145E0,2.238578558E0,-1.403002143E0,9.598653793E0
2.374417145E0,2.209848166E0,-1.436521053E0,9.555558205E0
2.376417111E0,2.142810583E0,-1.436521053E0,9.526827812E0
2.378417077E0,2.128445387E0,-1.436521053E0,9.498097420E0
2.380417043E0,2.147598982E0,-1.386242747E0,9.380781174E0
2.382416309E0,2.147598982E0,-1.367089152E0,9.342473984E0
2.384416275E0,2.121262789E0,-1.355118155E0,9.282619476E0
2.386416241E0,2.094926596E0,-1.357512355E0,9.203610420E0
2.388415707E0,2.094926596E0,-1.357512355E0,9.203610420E0
2.390415707E0,2.087743998E0,-1.355118155E0,9.196428299E0
2.392415707E0,2.102109194E0,-1.359906554E0,9.182063103E0
2.394415707E0,2.133233786E0,-1.400607944E0,9.162909508E0
2.396415707E0,2.178723574E0,-1.443703651E0,9.162909508E0
2.398415707E0,2.202665567E0,-1.467645645E0,9.174880028E0
2.400415707E0,2.250549555E0,-1.503558636E0,9.237129211E0
2.402415707E0,2.276885748E0,-1.532289028E0,9.270648003E0
2.404415707E0,2.360682964E0,-1.594538331E0,9.340080261E0
2.406416240E0,2.437297344E0,-1.620874524E0,9.459790230E0
2.408417140E0,2.477998734E0,-1.640028119E0,9.510068893E0
2.410417173E0,2.537853718E0,-1.649604917E0,9.648932457E0
2.412417206E0,2.561795712E0,-1.642422318E0,9.737517357E0
2.414417239E0,2.643198729E0,-1.647210717E0,9.878775597E0
2.416417272E0,2.691082716E0,-1.659181833E0,9.921871185E0
2.418417305E0,2.698265314E0,-1.644816518E0,1.000566864E1
2.420417305E0,2.703053713E0,-1.620874524E0,1.007749462E1
2.422417271E0,2.691082716E0,-1.623268723E0,1.010861874E1
2.424417237E0,2.657563925E0,-1.592144132E0,1.015889740E1
2.426417203E0,2.571372509E0,-1.551442742E0,1.022114658E1
2.428416303E0,2.564189911E0,-1.539471745E0,1.021635818E1
2.430415369E0,2.564189911E0,-1.539471745E0,1.021635818E1
2.432414935E0,2.552218914E0,-1.529894829E0,1.020678139E1
2.434414901E0,2.528276920E0,-1.534683347E0,1.022114658E1
2.436414901E0,2.523488522E0,-1.544260144E0,1.021875191E1
2.438414934E0,2.530671120E0,-1.577778935E0,1.015410900E1
2.440414967E0,2.473210335E0,-1.620874524E0,1.005355263E1
2.442415000E0,2.432508945E0,-1.635239720E0,1.000806236E1
2.444415033E0,2.348711967E0,-1.625662923E0,9.914688110E0
2.446415066E0,2.312798738E0,-1.623268723E0,9.876380920E0
2.448415966E0,2.269703150E0,-1.647210717E0,9.775824547E0
2.450415999E0,2.209848166E0,-1.656787634E0,9.677662849E0
2.452416032E0,2.176329374E0,-1.683123827E0,9.591471672E0
2.454416032E0,2.109291792E0,-1.742978811E0,9.423876762E0
2.456416032E0,2.063801765E0,-1.754949808E0,9.361627579E0
2.458416398E0,1.968033791E0,-1.766920805E0,9.265859604E0
2.460416398E0,1.896207690E0,-1.769315004E0,9.182063103E0
2.462416398E0,1.872265697E0,-1.790862918E0,9.155726433E0
2.464416398E0,1.829170108E0,-1.795651317E0,9.105448723E0
2.466416364E0,1.764526606E0,-1.774103403E0,9.047987938E0
2.468416330E0,1.723825216E0,-1.759738207E0,9.014469147E0
2.470416296E0,1.678335428E0,-1.754949808E0,8.966584206E0
2.472416262E0,1.587355733E0,-1.721431017E0,8.877999306E0
2.474416228E0,1.505952835E0,-1.692700624E0,8.846874237E0
2.476416194E0,1.458068848E0,-1.666364431E0,8.846874237E0
2.478416160E0,1.379060149E0,-1.630451322E0,8.842085838E0
2.480416126E0,1.345541358E0,-1.611297727E0,8.822932243E0
2.482416126E0,1.319205165E0,-1.604115129E0,8.846874237E0
2.484416126E0,1.331176162E0,-1.625662923E0,8.873210907E0
2.486416159E0,1.355118155E0,-1.632845521E0,8.868422508E0
2.488417059E0,1.417367458E0,-1.647210717E0,8.887576103E0
2.490417992E0,1.436521053E0,-1.647210717E0,8.882787704E0
2.492418425E0,1.448492050E0,-1.637633920E0,8.858845711E0
2.494418458E0,1.493981838E0,-1.666364431E0,8.844480515E0
2.496418491E0,1.510741234E0,-1.675941229E0,8.846874237E0
2.498418491E0,1.537077546E0,-1.668758631E0,8.873210907E0
2.500418457E0,1.558625340E0,-1.675941229E0,8.887576103E0
2.502418423E0,1.640028119E0,-1.678335428E0,8.928277016E0
2.504418389E0,1.721431017E0,-1.683123827E0,9.000102997E0
2.506418355E0,1.843535304E0,-1.659181833E0,9.141361237E0
2.508417455E0,1.843535304E0,-1.659181833E0,9.141361237E0
2.510417421E0,1.877054095E0,-1.651999116E0,9.215581894E0
2.512416987E0,1.958456993E0,-1.620874524E0,9.299378395E0
2.514416987E0,2.013523579E0,-1.594538331E0,9.335291862E0
2.516417020E0,2.044648170E0,-1.553836942E0,9.366415977E0
2.518416686E0,2.090138197E0,-1.484405041E0,9.426271439E0
2.520416719E0,2.106897593E0,-1.458068848E0,9.450213432E0
2.522416752E0,2.135627985E0,-1.419761658E0,9.524434090E0
2.524416785E0,2.138022184E0,-1.403002143E0,9.579500198E0
2.526416818E0,2.159569979E0,-1.405396342E0,9.684844971E0
2.528416851E0,2.161964178E0,-1.405396342E0,9.794978142E0
2.530416884E0,2.169146776E0,-1.414973259E0,9.854833603E0
2.532416884E0,2.185906172E0,-1.479616642E0,9.988908768E0
2.534416884E0,2.178723574E0,-1.508347034E0,1.003200436E1
2.536416884E0,2.149993181E0,-1.520318031E0,1.007988834E1
2.538416884E0,2.082955360E0,-1.510741234E0,1.008228302E1
2.540416884E0,2.051830769E0,-1.491587639E0,1.007509995E1
2.542416884E0,2.001552582E0,-1.484405041E0,1.007270622E1
2.544416884E0,1.980004787E0,-1.493981838E0,1.007270622E1
2.546416850E0,1.982398987E0,-1.565807939E0,1.007988834E1
2.548415950E0,1.982398987E0,-1.565807939E0,1.007988834E1
2.550415916E0,1.984793186E0,-1.582567334E0,1.007270622E1
2.552415882E0,1.970427990E0,-1.606509328E0,1.003200436E1
2.554415848E0,1.968033791E0,-1.616086125E0,1.000327396E1
2.556415814E0,1.965639591E0,-1.640028119E0,9.969755173E0
2.558415780E0,1.970427990E0,-1.630451322E0,9.919476509E0
2.560415780E0,1.980004787E0,-1.628057122E0,9.902717590E0
2.562415780E0,1.968033791E0,-1.616086125E0,9.864410400E0
2.564415813E0,1.960851192E0,-1.608903527E0,9.830891609E0
2.566415846E0,1.946485996E0,-1.611297727E0,9.766247749E0
2.568416746E0,1.977610588E0,-1.604115129E0,9.737517357E0
2.570416779E0,1.996764183E0,-1.601720929E0,9.727940559E0
2.572417212E0,2.056619167E0,-1.577778935E0,9.727940559E0
2.574417245E0,2.078166962E0,-1.563413739E0,9.742305756E0
2.576417245E0,2.126051188E0,-1.541865945E0,9.768642426E0
2.578417211E0,2.159569979E0,-1.525106430E0,9.775824547E0
2.580417177E0,2.207453966E0,-1.479616642E0,9.818920135E0
2.582417143E0,2.226607561E0,-1.436521053E0,9.864410400E0
2.584417109E0,2.243366957E0,-1.419761658E0,9.873987198E0
2.586417075E0,2.293645144E0,-1.328781962E0,9.936236382E0
2.588416175E0,2.293645144E0,-1.328781962E0,9.936236382E0
2.590416275E0,2.296039343E0,-1.326387763E0,9.936236382E0
2.592416275E0,2.336740971E0,-1.304839969E0,9.936236382E0
2.594416275E0,2.339135170E0,-1.290474772E0,9.943418503E0
2.596416275E0,2.329558372E0,-1.278503656E0,9.957783699E0
2.598416275E0,2.331952572E0,-1.271321058E0,9.972148895E0
2.600416275E0,2.341529369E0,-1.247379065E0,9.976937294E0
2.602416275E0,2.348711967E0,-1.254561663E0,9.948206902E0
2.604416275E0,2.358288765E0,-1.256955862E0,9.912294388E0
2.606416275E0,2.360682964E0,-1.252167463E0,9.852438927E0
2.608417141E0,2.346317768E0,-1.264138460E0,9.838073730E0
2.610417174E0,2.336740971E0,-1.288080573E0,9.794978142E0
2.612417207E0,2.305616140E0,-1.292868972E0,9.754277229E0
2.614417240E0,2.279279947E0,-1.295263171E0,9.732728958E0
2.616417273E0,2.236184359E0,-1.300051570E0,9.701604843E0
2.618417306E0,2.224213362E0,-1.304839969E0,9.672874451E0
2.620417339E0,2.200271368E0,-1.285686255E0,9.636960983E0
2.622417372E0,2.185906172E0,-1.278503656E0,9.610625267E0
2.624417605E0,2.200271368E0,-1.242590666E0,9.562741280E0
2.626417571E0,2.281674147E0,-1.223437071E0,9.459790230E0
2.628416671E0,2.281674147E0,-1.223437071E0,9.459790230E0
2.630415737E0,2.286462545E0,-1.211466074E0,9.459790230E0
2.632415703E0,2.279279947E0,-1.192312479E0,9.455001831E0
2.634415669E0,2.276885748E0,-1.197100878E0,9.435848236E0
2.636415635E0,2.262520552E0,-1.204283476E0,9.399934769E0
2.638415768E0,2.245761156E0,-1.197100878E0,9.385569572E0
2.640415768E0,2.221819162E0,-1.180341482E0,9.359233856E0
2.642415801E0,2.212242365E0,-1.173158884E0,9.354445457E0
2.644415834E0,2.185906172E0,-1.156399369E0,9.328108788E0
2.646415867E0,2.185906172E0,-1.139639974E0,9.287407875E0
2.648416767E0,2.171540976E0,-1.134851575E0,9.273042679E0
2.650416667E0,2.161964178E0,-1.106121182E0,9.251494408E0
2.652416700E0,2.142810583E0,-1.089361787E0,9.239523888E0
2.654416733E0,2.130839586E0,-1.082179189E0,9.208398819E0
2.656416733E0,2.121262789E0,-1.060631394E0,9.177274704E0
2.658416733E0,2.126051188E0,-1.051054597E0,9.177274704E0
2.660416733E0,2.178723574E0,-1.053448796E0,9.134179115E0
2.662416733E0,2.190694571E0,-1.051054597E0,9.112630844E0
2.664416733E0,2.195482969E0,-1.072602391E0,9.115025520E0
2.666416733E0,2.159569979E0,-1.122880578E0,9.095871925E0
2.668415866E0,2.159569979E0,-1.122880578E0,9.095871925E0
2.670415832E0,2.116474390E0,-1.139639974E0,9.059958458E0
2.672415798E0,2.102109194E0,-1.154005170E0,9.033622742E0
2.674415798E0,2.066195965E0,-1.165976286E0,9.012074471E0
2.676415764E0,2.049436569E0,-1.180341482E0,9.021651268E0
2.678415730E0,2.035071373E0,-1.185129881E0,9.007286072E0
2.680415696E0,2.037465572E0,-1.189918280E0,8.997709274E0
2.682415662E0,2.044648170E0,-1.194706678E0,8.995314598E0
2.684415395E0,2.063801765E0,-1.189918280E0,8.995314598E0
2.686415395E0,2.068590164E0,-1.187524080E0,9.002497673E0
2.688416295E0,2.092532396E0,-1.201889277E0,9.004891396E0
2.690417228E0,2.164358377E0,-1.249773264E0,9.007286072E0
2.692417261E0,2.188300371E0,-1.280897856E0,8.990526199E0
2.694417294E0,2.212242365E0,-1.297657371E0,9.002497673E0
2.696417327E0,2.209848166E0,-1.297657371E0,9.043199539E0
2.698417227E0,2.173935175E0,-1.278503656E0,9.110237122E0
2.700417260E0,2.166752577E0,-1.261744261E0,9.136572838E0
2.702417260E0,2.157175779E0,-1.254561663E0,9.153332710E0
2.704417226E0,2.154781580E0,-1.235408068E0,9.201216698E0
2.706417192E0,2.147598982E0,-1.228225470E0,9.265859604E0
2.708416292E0,2.147598982E0,-1.228225470E0,9.265859604E0
2.710416258E0,2.161964178E0,-1.225831270E0,9.308955193E0
2.712416224E0,2.173935175E0,-1.228225470E0,9.332897186E0
2.714416190E0,2.173935175E0,-1.221042871E0,9.371204376E0
2.716416190E0,2.178723574E0,-1.230619669E0,9.385569572E0
2.718416190E0,2.176329374E0,-1.230619669E0,9.407117844E0
2.720416223E0,2.183511972E0,-1.225831270E0,9.419088364E0
2.722416256E0,2.193088770E0,-1.230619669E0,9.455001831E0
2.724416289E0,2.207453966E0,-1.264138460E0,9.493309021E0
2.726416322E0,2.217030764E0,-1.271321058E0,9.555558205E0
2.728417222E0,2.217030764E0,-1.288080573E0,9.596260071E0
2.730417255E0,2.212242365E0,-1.278503656E0,9.634567261E0
2.732417288E0,2.229001760E0,-1.271321058E0,9.727940559E0
2.734417288E0,2.250549555E0,-1.278503656E0,9.809343338E0
2.736417288E0,2.252943754E0,-1.276109457E0,9.850045204E0
2.738417288E0,2.245761156E0,-1.273715258E0,9.943418503E0
2.740417288E0,2.226607561E0,-1.268926859E0,9.984120369E0
2.742417288E0,2.197877169E0,-1.266532660E0,1.002961063E1
2.744417288E0,2.147598982E0,-1.307234168E0,1.005115795E1
2.746417288E0,2.063801765E0,-1.347935557E0,9.988908768E0
2.748416388E0,2.063801765E0,-1.347935557E0,9.988908768E0
2.750415954E0,2.047042370E0,-1.345541358E0,9.952995300E0
2.752415920E0,2.011129379E0,-1.359906554E0,9.890746117E0
2.754415886E0,1.958456993E0,-1.376665950E0,9.823708534E0
2.756415852E0,1.934514999E0,-1.383848548E0,9.787796021E0
2.758415818E0,1.865083098E0,-1.376665950E0,9.735123634E0
2.760415784E0,1.845929503E0,-1.374271750E0,9.715970039E0
2.762415750E0,1.812410712E0,-1.367089152E0,9.675268173E0
2.764415750E0,1.762132406E0,-1.359906554E0,9.622595787E0
2.766415783E0,1.735796213E0,-1.347935557E0,9.608230591E0
2.768416683E0,1.680729628E0,-1.338358760E0,9.593865395E0
2.770416716E0,1.651999116E0,-1.331176162E0,9.591471672E0
2.772416749E0,1.584961534E0,-1.312022567E0,9.574711800E0
2.774416782E0,1.565807939E0,-1.304839969E0,9.553164482E0
2.776416815E0,1.549048543E0,-1.292868972E0,9.519645691E0
2.778416848E0,1.544260144E0,-1.292868972E0,9.483732224E0
2.780416848E0,1.553836942E0,-1.290474772E0,9.464578629E0
2.782416814E0,1.575384736E0,-1.261744261E0,9.462183952E0
2.784416780E0,1.582567334E0,-1.237802267E0,9.471760750E0
2.786416746E0,1.606509328E0,-1.235408068E0,9.553164482E0
2.788415846E0,1.618480325E0,-1.223437071E0,9.601048470E0
2.790415812E0,1.618480325E0,-1.223437071E0,9.601048470E0
2.792415778E0,1.611297727E0,-1.211466074E0,9.687239647E0
2.794415744E0,1.611297727E0,-1.206677675E0,9.725546837E0
2.796415744E0,1.620874524E0,-1.194706678E0,9.816526413E0
2.798415777E0,1.613691926E0,-1.163581967E0,9.900322914E0
2.800415810E0,1.601720929E0,-1.149216771E0,9.917082787E0
2.802415843E0,1.599326730E0,-1.146822572E0,9.936236382E0
2.804415876E0,1.599326730E0,-1.146822572E0,9.941024780E0
2.806415909E0,1.596932530E0,-1.142034173E0,9.936236382E0
2.808416809E0,1.582567334E0,-1.108515382E0,9.912294388E0
2.810417242E0,1.570596337E0,-1.098938584E0,9.885957718E0
2.812417275E0,1.539471745E0,-1.094150186E0,9.804554939E0
2.814417275E0,1.541865945E0,-1.091755986E0,9.754277229E0
2.816417275E0,1.556231141E0,-1.089361787E0,9.672874451E0
2.818417275E0,1.558625340E0,-1.074996591E0,9.636960983E0
2.820417275E0,1.570596337E0,-1.036689281E0,9.550769806E0
2.822417275E0,1.618480325E0,-1.022324085E0,9.476549149E0
2.824416375E0,1.637633920E0,-1.022324085E0,9.435848236E0
2.826416341E0,1.659181833E0,-9.600749016E-1,9.299378395E0
2.828415441E0,1.654393315E0,-9.385270476E-1,9.263465881E0
2.830415541E0,1.654393315E0,-9.385270476E-1,9.263465881E0
2.832415507E0,1.642422318E0,-8.882488012E-1,9.184456825E0
2.834415473E0,1.642422318E0,-8.714894056E-1,9.136572838E0
2.836415439E0,1.642422318E0,-8.475474119E-1,9.057564735E0
2.838415405E0,1.649604917E0,-8.283938169E-1,9.024045944E0
2.840415371E0,1.651999116E0,-8.116343617E-1,8.942642212E0
2.842415371E0,1.647210717E0,-7.805097699E-1,8.882787704E0
2.844415404E0,1.644816518E0,-7.661445141E-1,8.846874237E0
2.846415437E0,1.632845521E0,-7.637503147E-1,8.794201851E0
2.848416337E0,1.628057122E0,-7.589619160E-1,8.765471458E0
2.850416370E0,1.611297727E0,-7.350199223E-1,8.731952667E0
2.852416403E0,1.616086125E0,-7.230489254E-1,8.698433876E0
2.854416436E0,1.618480325E0,-7.278373241E-1,8.691251755E0
2.856416469E0,1.596932530E0,-7.230489254E-1,8.669703484E0
2.858416469E0,1.580173135E0,-7.254431248E-1,8.676886559E0
2.860416435E0,1.580173135E0,-7.278373241E-1,8.691251755E0
2.862416401E0,1.575384736E0,-7.326257229E-1,8.691251755E0
2.864416367E0,1.570596337E0,-7.302315235E-1,8.698433876E0
2.866416333E0,1.565807939E0,-7.350199223E-1,8.722375870E0
2.868416299E0,1.565807939E0,-7.350199223E-1,8.722375870E0
2.870416265E0,1.553836942E0,-7.541735172E-1,8.727164268E0
2.872416231E0,1.546654344E0,-7.493851185E-1,8.743924141E0
2.874416231E0,1.517923832E0,-7.493851185E-1,8.787019730E0
2.876415864E0,1.515529633E0,-7.517793179E-1,8.822932243E0
2.878415897E0,1.517923832E0,-7.493851185E-1,8.834903717E0
2.880415930E0,1.510741234E0,-7.589619160E-1,8.863634109E0
2.882415963E0,1.527500629E0,-7.637503147E-1,8.880393028E0
2.884416896E0,1.549048543E0,-7.661445141E-1,8.909123421E0
2.886416929E0,1.563413739E0,-7.733271718E-1,8.942642212E0
2.888417829E0,1.568202138E0,-7.781155705E-1,8.961795807E0
2.890417729E0,1.601720929E0,-7.900865674E-1,8.992920876E0
2.892417729E0,1.623268723E0,-7.900865674E-1,9.007286072E0
2.894417729E0,1.678335428E0,-8.164227605E-1,9.043199539E0
2.896417729E0,1.726219416E0,-8.331822157E-1,9.086295128E0
2.898417729E0,1.750161409E0,-8.523358107E-1,9.112630844E0
2.900417729E0,1.795651317E0,-8.858546019E-1,9.158121109E0
2.902417729E0,1.812410712E0,-8.906430602E-1,9.184456825E0
2.904417695E0,1.845929503E0,-9.074024558E-1,9.256282806E0
2.906417661E0,1.850717902E0,-9.552865028E-1,9.395146370E0
2.908416761E0,1.860294700E0,-9.600749016E-1,9.438241959E0
2.910416727E0,1.857900500E0,-9.624691010E-1,9.478943825E0
2.912416693E0,1.853112102E0,-9.768342972E-1,9.519645691E0
2.914416659E0,1.845929503E0,-1.005564690E0,9.598653793E0
2.916416625E0,1.855506301E0,-1.022324085E0,9.653720856E0
2.918416591E0,1.848323703E0,-1.051054597E0,9.754277229E0
2.920416357E0,1.843535304E0,-1.067813993E0,9.830891609E0
2.922416390E0,1.845929503E0,-1.094150186E0,9.869198799E0
2.924416423E0,1.865083098E0,-1.139639974E0,9.941024780E0
2.926416056E0,1.862688899E0,-1.154005170E0,9.981725693E0
2.928416089E0,1.848323703E0,-1.154005170E0,1.006312943E1
2.930416122E0,1.841141105E0,-1.221042871E0,1.011340714E1
2.932416155E0,1.850717902E0,-1.235408068E0,1.013974380E1
2.934416188E0,1.843535304E0,-1.271321058E0,1.019002151E1
2.936416588E0,1.841141105E0,-1.295263171E0,1.021635818E1
2.938416554E0,1.826775908E0,-1.335964561E0,1.024987698E1
2.940416520E0,1.798045516E0,-1.374271750E0,1.029776096E1
2.942416486E0,1.783680320E0,-1.383848548E0,1.032170296E1
2.944416452E0,1.714248419E0,-1.395819545E0,1.034085655E1
2.946416418E0,1.606509328E0,-1.424550056E0,1.037916374E1
2.948415518E0,1.572990537E0,-1.414973259E0,1.038874054E1
2.950415284E0,1.539471745E0,-1.414973259E0,1.039592266E1
2.952415284E0,1.508347034E0,-1.419761658E0,1.040310574E1
2.954415317E0,1.489193439E0,-1.431732655E0,1.040071106E1
2.956415350E0,1.472434044E0,-1.434126854E0,1.039592266E1
2.958415383E0,1.443703651E0,-1.434126854E0,1.039113426E1
2.960415416E0,1.436521053E0,-1.443703651E0,1.037198067E1
2.962415449E0,1.436521053E0,-1.455674648E0,1.036240387E1
2.964415482E0,1.434126854E0,-1.441309452E0,1.036001015E1
2.966415515E0,1.414973259E0,-1.450886250E0,1.035522175E1
2.968416415E0,1.414973259E0,-1.448492050E0,1.034564495E1
2.970416415E0,1.407790542E0,-1.453280449E0,1.032888508E1
2.972416415E0,1.410184860E0,-1.455674648E0,1.031691456E1
2.974416415E0,1.446097851E0,-1.477222443E0,1.030494308E1
2.976416415E0,1.455674648E0,-1.472434044E0,1.030015469E1
2.978416415E0,1.493981838E0,-1.441309452E0,1.026663589E1
2.980416648E0,1.517923832E0,-1.424550056E0,1.023790550E1
2.982416614E0,1.556231141E0,-1.407790542E0,1.020438671E1
2.984416580E0,1.565807939E0,-1.407790542E0,1.021156979E1
2.986416946E0,1.503558636E0,-1.426944256E0,1.020917511E1
2.988416046E0,1.491587639E0,-1.414973259E0,1.021156979E1
2.990416012E0,1.491587639E0,-1.414973259E0,1.021156979E1
2.992415978E0,1.482010841E0,-1.405396342E0,1.021875191E1
2.994415944E0,1.465251446E0,-1.398213744E0,1.022354031E1
2.996415910E0,1.450886250E0,-1.403002143E0,1.022593498E1
2.998415910E0,1.441309452E0,-1.398213744E0,1.024748230E1
3.000415943E0,1.436521053E0,-1.388636947E0,1.025705910E1
3.002415976E0,1.438915253E0,-1.388636947E0,1.026184750E1
3.004416009E0,1.441309452E0,-1.393425345E0,1.027860737E1
3.006416042E0,1.462857246E0,-1.391031146E0,1.029057789E1
3.008416942E0,1.501164436E0,-1.403002143E0,1.028578949E1
3.010417175E0,1.513135433E0,-1.419761658E0,1.028818417E1
3.012417208E0,1.529894829E0,-1.434126854E0,1.027860737E1
3.014417208E0,1.561019540E0,-1.443703651E0,1.029776096E1
3.016417174E0,1.568202138E0,-1.484405041E0,1.030973148E1
3.018417140E0,1.570596337E0,-1.517923832E0,1.033367348E1
3.020417106E0,1.570596337E0,-1.539471745E0,1.034564495E1
3.022417072E0,1.565807939E0,-1.582567334E0,1.037676907E1
3.024417038E0,1.558625340E0,-1.601720929E0,1.038874054E1
3.026417004E0,1.434126854E0,-1.683123827E0,1.042944145E1
3.028416104E0,1.434126854E0,-1.683123827E0,1.042944145E1
3.030415804E0,1.434126854E0,-1.683123827E0,1.042944145E1
3.032415837E0,1.393425345E0,-1.704671621E0,1.047972012E1
3.034415870E0,1.374271750E0,-1.709460020E0,1.050126839E1
3.036415903E0,1.335964561E0,-1.726219416E0,1.051323891E1
3.038415936E0,1.312022567E0,-1.711854219E0,1.051084518E1
3.040415969E0,1.309628367E0,-1.716642618E0,1.050605679E1
3.042416002E0,1.292868972E0,-1.726219416E0,1.047972012E1
3.044416035E0,1.290474772E0,-1.723825216E0,1.046535492E1
3.046416068E0,1.276109457E0,-1.714248419E0,1.044620132E1
3.048416934E0,1.268926859E0,-1.719036818E0,1.041028786E1
3.050416934E0,1.264138460E0,-1.707065821E0,1.038634586E1
3.052416934E0,1.276109457E0,-1.678335428E0,1.032409668E1
3.054416934E0,1.288080573E0,-1.675941229E0,1.029297256E1
3.056416934E0,1.319205165E0,-1.647210717E0,1.022832870E1
3.058416934E0,1.362300754E0,-1.616086125E0,1.017086792E1
3.060416900E0,1.395819545E0,-1.596932530E0,1.014932060E1
3.062416866E0,1.448492050E0,-1.561019540E0,1.009664822E1
3.064416832E0,1.479616642E0,-1.544260144E0,1.006312943E1
3.066416798E0,1.556231141E0,-1.491587639E0,9.988908768E0
3.068416764E0,1.575384736E0,-1.491587639E0,9.988908768E0
3.070416730E0,1.592144132E0,-1.431732655E0,9.929053307E0
3.072416696E0,1.649604917E0,-1.400607944E0,9.881169319E0
3.074416662E0,1.678335428E0,-1.381454349E0,9.850045204E0
3.076416662E0,1.719036818E0,-1.335964561E0,9.780612946E0
3.078416695E0,1.747767210E0,-1.309628367E0,9.754277229E0
3.080416728E0,1.790862918E0,-1.266532660E0,9.680056572E0
3.082416761E0,1.836352706E0,-1.240196466E0,9.608230591E0
3.084416794E0,1.848323703E0,-1.223437071E0,9.565135002E0
3.086416827E0,1.853112102E0,-1.168370485E0,9.505280495E0
3.088417727E0,1.874659896E0,-1.158793569E0,9.483732224E0
3.090418060E0,1.929726601E0,-1.154005170E0,9.419088364E0
3.092418060E0,1.965639591E0,-1.134851575E0,9.368810654E0
3.094418026E0,1.980004787E0,-1.122880578E0,9.344868660E0
3.096417992E0,2.023100376E0,-1.084573388E0,9.313743591E0
3.098417958E0,2.044648170E0,-1.067813993E0,9.294589996E0
3.100417924E0,2.063801765E0,-1.063025594E0,9.273042679E0
3.102417890E0,2.097320795E0,-1.039083481E0,9.253889084E0
3.104417856E0,2.114080191E0,-1.031900883E0,9.244312286E0
3.106417822E0,2.140416384E0,-1.024718285E0,9.285013199E0
3.108416955E0,2.147598982E0,-1.024718285E0,9.296984673E0
3.110416988E0,2.145204782E0,-1.019929886E0,9.296984673E0
3.112417021E0,2.147598982E0,-1.022324085E0,9.301773071E0
3.114417054E0,2.145204782E0,-1.027112484E0,9.301773071E0
3.116417087E0,2.142810583E0,-1.060631394E0,9.323320389E0
3.118417120E0,2.138022184E0,-1.084573388E0,9.337685585E0
3.120417153E0,2.123656988E0,-1.118092179E0,9.368810654E0
3.122417186E0,2.097320795E0,-1.144428372E0,9.390357971E0
3.124417219E0,2.066195965E0,-1.170764685E0,9.407117844E0
3.126417219E0,2.018311977E0,-1.194706678E0,9.414299965E0
3.128417219E0,1.991975784E0,-1.209071875E0,9.416694641E0
3.130417219E0,1.951274395E0,-1.249773264E0,9.443030357E0
3.132417219E0,1.936909199E0,-1.259350061E0,9.447818756E0
3.134417219E0,1.896207690E0,-1.278503656E0,9.466972351E0
3.136417219E0,1.889025092E0,-1.304839969E0,9.478943825E0
3.138417185E0,1.865083098E0,-1.302445769E0,9.495702744E0
3.140417151E0,1.821987510E0,-1.300051570E0,9.502885818E0
3.142417117E0,1.807622313E0,-1.300051570E0,9.502885818E0
3.144417083E0,1.762132406E0,-1.292868972E0,9.524434090E0
3.146417049E0,1.714248419E0,-1.290474772E0,9.550769806E0
3.148416149E0,1.714248419E0,-1.290474772E0,9.550769806E0
3.150416115E0,1.707065821E0,-1.276109457E0,9.557952881E0
3.152416081E0,1.707065821E0,-1.261744261E0,9.565135002E0
3.154416081E0,1.707065821E0,-1.237802267E0,9.581894875E0
3.156416114E0,1.735796213E0,-1.216254473E0,9.598653793E0
3.158416147E0,1.757344007E0,-1.216254473E0,9.603442192E0
3.160416180E0,1.764526606E0,-1.218648672E0,9.620202065E0
3.162416213E0,1.766920805E0,-1.223437071E0,9.627384186E0
3.164416246E0,1.790862918E0,-1.209071875E0,9.639355659E0
3.166416279E0,1.814804912E0,-1.206677675E0,9.641749382E0
3.168417179E0,1.824381709E0,-1.211466074E0,9.639355659E0
3.170417079E0,1.845929503E0,-1.199495077E0,9.639355659E0
3.172417045E0,1.843535304E0,-1.199495077E0,9.644144058E0
3.174417011E0,1.829170108E0,-1.194706678E0,9.636960983E0
3.176416977E0,1.824381709E0,-1.194706678E0,9.627384186E0
3.178416943E0,1.836352706E0,-1.199495077E0,9.620202065E0
3.180416909E0,1.836352706E0,-1.187524080E0,9.574711800E0
3.182416875E0,1.831564307E0,-1.175553083E0,9.557952881E0
3.184416841E0,1.831564307E0,-1.156399369E0,9.526827812E0
3.186416841E0,1.807622313E0,-1.134851575E0,9.471760750E0
3.188416007E0,1.807622313E0,-1.134851575E0,9.445425034E0
3.190416040E0,1.805228114E0,-1.120486379E0,9.421483040E0
3.192416073E0,1.790862918E0,-1.110909581E0,9.397541046E0
3.194416106E0,1.762132406E0,-1.127668977E0,9.342473984E0
3.196416139E0,1.738190413E0,-1.122880578E0,9.325715065E0
3.198416172E0,1.723825216E0,-1.130063176E0,9.270648003E0
3.200416205E0,1.702277422E0,-1.118092179E0,9.215581894E0
3.202416238E0,1.692700624E0,-1.110909581E0,9.194033623E0
3.204416238E0,1.680729628E0,-1.122880578E0,9.141361237E0
3.206416238E0,1.680729628E0,-1.132457376E0,9.081506729E0
3.208417104E0,1.680729628E0,-1.132457376E0,9.045593262E0
3.210417104E0,1.673547029E0,-1.125274777E0,8.978555679E0
3.212417104E0,1.659181833E0,-1.108515382E0,8.954613686E0
3.214417104E0,1.649604917E0,-1.106121182E0,8.906729698E0
3.216417070E0,1.642422318E0,-1.108515382E0,8.880393028E0
3.218417036E0,1.647210717E0,-1.106121182E0,8.837297440E0
3.220417002E0,1.649604917E0,-1.106121182E0,8.813355446E0
3.222416968E0,1.659181833E0,-1.098938584E0,8.765471458E0
3.224416934E0,1.695094824E0,-1.070208192E0,8.729558945E0
3.226416900E0,1.752555609E0,-1.058237195E0,8.686463356E0
3.228416000E0,1.752555609E0,-1.058237195E0,8.686463356E0
3.230417300E0,1.752555609E0,-1.058237195E0,8.686463356E0
3.232417300E0,1.759738207E0,-1.039083481E0,8.696040154E0
3.234417300E0,1.800439715E0,-1.024718285E0,8.698433876E0
3.236417333E0,1.812410712E0,-1.022324085E0,8.696040154E0
3.238417366E0,1.843535304E0,-1.000776291E0,8.708010674E0
3.240417399E0,1.869871497E0,-9.888052940E-1,8.729558945E0
3.242417432E0,1.905784607E0,-9.768342972E-1,8.753500938E0
3.244417465E0,1.929726601E0,-9.888052940E-1,8.796596527E0
3.246417498E0,1.953668594E0,-9.959878922E-1,8.808567047E0
3.248418364E0,1.970427990E0,-1.005564690E0,8.856451035E0
3.250418330E0,1.982398987E0,-1.012747288E0,8.882787704E0
3.252418296E0,1.970427990E0,-1.029506683E0,8.894758224E0
3.254418262E0,1.982398987E0,-1.060631394E0,8.930671692E0
3.256418228E0,1.970427990E0,-1.072602391E0,8.945036888E0
3.258418194E0,1.944091797E0,-1.115697980E0,8.971372604E0
3.260418160E0,1.936909199E0,-1.125274777E0,8.988132477E0
3.262418126E0,1.900996208E0,-1.146822572E0,9.014469147E0
3.264418126E0,1.874659896E0,-1.158793569E0,9.016862869E0
3.266418159E0,1.836352706E0,-1.175553083E0,9.040804863E0
3.268417292E0,1.824381709E0,-1.173158884E0,9.055170059E0
3.270417325E0,1.814804912E0,-1.180341482E0,9.064746857E0
3.272417358E0,1.771709204E0,-1.213860273E0,9.069535255E0
3.274416991E0,1.750161409E0,-1.230619669E0,9.069535255E0
3.276417024E0,1.742978811E0,-1.242590666E0,9.064746857E0
3.278417057E0,1.704671621E0,-1.276109457E0,9.067141533E0
3.280417090E0,1.685518026E0,-1.273715258E0,9.062353134E0
3.282417090E0,1.640028119E0,-1.280897856E0,9.057564735E0
3.284417090E0,1.620874524E0,-1.290474772E0,9.055170059E0
3.286417090E0,1.618480325E0,-1.292868972E0,9.045593262E0
3.288417956E0,1.580173135E0,-1.283292055E0,9.050381660E0
3.290416722E0,1.565807939E0,-1.285686255E0,9.047987938E0
3.292416722E0,1.537077546E0,-1.278503656E0,9.043199539E0
3.294416722E0,1.520318031E0,-1.273715258E0,9.045593262E0
3.296416688E0,1.486799240E0,-1.271321058E0,9.045593262E0
3.298416654E0,1.484405041E0,-1.261744261E0,9.036016464E0
3.300416620E0,1.484405041E0,-1.256955862E0,9.038411140E0
3.302416586E0,1.479616642E0,-1.261744261E0,9.028834343E0
3.304416552E0,1.489193439E0,-1.256955862E0,9.026439667E0
3.306416518E0,1.529894829E0,-1.259350061E0,8.995314598E0
3.308415618E0,1.529894829E0,-1.259350061E0,8.995314598E0
3.310415618E0,1.534683347E0,-1.252167463E0,8.990526199E0
3.312415618E0,1.584961534E0,-1.256955862E0,8.995314598E0
3.314415651E0,1.604115129E0,-1.254561663E0,8.997709274E0
3.316415684E0,1.620874524E0,-1.244984865E0,9.019257545E0
3.318415717E0,1.606509328E0,-1.237802267E0,9.026439667E0
3.320415750E0,1.620874524E0,-1.252167463E0,9.074323654E0
3.322415783E0,1.640028119E0,-1.240196466E0,9.117419243E0
3.324415816E0,1.656787634E0,-1.244984865E0,9.134179115E0
3.326415816E0,1.678335428E0,-1.252167463E0,9.148544312E0
3.328416682E0,1.675941229E0,-1.254561663E0,9.167697906E0
3.330416648E0,1.640028119E0,-1.276109457E0,9.184456825E0
3.332416614E0,1.616086125E0,-1.295263171E0,9.203610420E0
3.334416980E0,1.616086125E0,-1.321599364E0,9.206005096E0
3.336416946E0,1.582567334E0,-1.362300754E0,9.220370293E0
3.338416912E0,1.572990537E0,-1.374271750E0,9.227552414E0
3.340416878E0,1.546654344E0,-1.395819545E0,9.241917610E0
3.342416878E0,1.505952835E0,-1.419761658E0,9.253889084E0
3.344416911E0,1.486799240E0,-1.424550056E0,9.253889084E0
3.346416944E0,1.438915253E0,-1.453280449E0,9.253889084E0
3.348416110E0,1.438915253E0,-1.453280449E0,9.253889084E0
3.350416143E0,1.422155857E0,-1.446097851E0,9.263465881E0
3.352416176E0,1.398213744E0,-1.443703651E0,9.294589996E0
3.354416209E0,1.403002143E0,-1.446097851E0,9.325715065E0
3.356416242E0,1.386242747E0,-1.465251446E0,9.361627579E0
3.358416275E0,1.388636947E0,-1.460463047E0,9.385569572E0
3.360416275E0,1.407790542E0,-1.458068848E0,9.443030357E0
3.362416275E0,1.393425345E0,-1.460463047E0,9.502885818E0
3.364416275E0,1.407790542E0,-1.448492050E0,9.538799286E0
3.366416275E0,1.446097851E0,-1.434126854E0,9.603442192E0
3.368417141E0,1.450886250E0,-1.431732655E0,9.636960983E0
3.370417141E0,1.460463047E0,-1.424550056E0,9.689633369E0
3.372417141E0,1.474828243E0,-1.426944256E0,9.713575363E0
3.374417107E0,1.510741234E0,-1.434126854E0,9.759065628E0
3.376417073E0,1.529894829E0,-1.436521053E0,9.799766541E0
3.378417039E0,1.527500629E0,-1.436521053E0,9.816526413E0
3.380417005E0,1.549048543E0,-1.429338455E0,9.854833603E0
3.382416971E0,1.549048543E0,-1.424550056E0,9.857227325E0
3.384416937E0,1.561019540E0,-1.436521053E0,9.876380920E0
3.386416903E0,1.522712231E0,-1.426944256E0,9.924264908E0
3.388416036E0,1.522712231E0,-1.426944256E0,9.924264908E0
3.390416036E0,1.515529633E0,-1.429338455E0,9.919476509E0
3.392416069E0,1.520318031E0,-1.429338455E0,9.909899712E0
3.394416102E0,1.508347034E0,-1.436521053E0,9.895534515E0
3.396416135E0,1.527500629E0,-1.434126854E0,9.876380920E0
3.398416168E0,1.532289028E0,-1.443703651E0,9.854833603E0
3.400416201E0,1.529894829E0,-1.436521053E0,9.828496933E0
3.402416234E0,1.525106430E0,-1.431732655E0,9.809343338E0
3.404416234E0,1.529894829E0,-1.405396342E0,9.771036148E0
3.406416200E0,1.529894829E0,-1.405396342E0,9.739912033E0
3.408417033E0,1.529894829E0,-1.403002143E0,9.730335236E0
3.410416999E0,1.532289028E0,-1.405396342E0,9.701604843E0
3.412416965E0,1.525106430E0,-1.391031146E0,9.694421768E0
3.414416931E0,1.537077546E0,-1.379060149E0,9.684844971E0
3.416416897E0,1.541865945E0,-1.374271750E0,9.682451248E0
3.418416863E0,1.553836942E0,-1.417367458E0,9.703998566E0
3.420416863E0,1.568202138E0,-1.477222443E0,9.747094154E0
3.422416863E0,1.568202138E0,-1.486799240E0,9.759065628E0
3.424416863E0,1.551442742E0,-1.474828243E0,9.749488831E0
3.426416863E0,1.501164436E0,-1.381454349E0,9.701604843E0
3.428415996E0,1.501164436E0,-1.381454349E0,9.701604843E0
3.430415096E0,1.489193439E0,-1.362300754E0,9.696816444E0
3.432415096E0,1.484405041E0,-1.338358760E0,9.680056572E0
3.434415096E0,1.486799240E0,-1.321599364E0,9.651326180E0
3.436415096E0,1.489193439E0,-1.319205165E0,9.639355659E0
3.438414862E0,1.508347034E0,-1.316810966E0,9.577106476E0
3.440414895E0,1.517923832E0,-1.292868972E0,9.534010887E0
3.442414928E0,1.510741234E0,-1.295263171E0,9.505280495E0
3.444414961E0,1.510741234E0,-1.285686255E0,9.445425034E0
3.446414994E0,1.532289028E0,-1.316810966E0,9.402329445E0
3.448415894E0,1.534683347E0,-1.338358760E0,9.385569572E0
3.450415927E0,1.537077546E0,-1.338358760E0,9.352050781E0
3.452415927E0,1.541865945E0,-1.338358760E0,9.328108788E0
3.454415893E0,1.549048543E0,-1.319205165E0,9.301773071E0
3.456415859E0,1.541865945E0,-1.304839969E0,9.287407875E0
3.458415825E0,1.532289028E0,-1.285686255E0,9.299378395E0
3.460415791E0,1.515529633E0,-1.280897856E0,9.292196274E0
3.462415757E0,1.510741234E0,-1.264138460E0,9.282619476E0
3.464415723E0,1.503558636E0,-1.254561663E0,9.285013199E0
3.466415723E0,1.529894829E0,-1.259350061E0,9.282619476E0
3.468415389E0,1.544260144E0,-1.244984865E0,9.277831078E0
3.470415422E0,1.572990537E0,-1.242590666E0,9.287407875E0
3.472415455E0,1.592144132E0,-1.242590666E0,9.311349869E0
3.474415488E0,1.628057122E0,-1.221042871E0,9.313743591E0
3.476415521E0,1.651999116E0,-1.209071875E0,9.308955193E0
3.478415554E0,1.702277422E0,-1.194706678E0,9.320926666E0
3.480415587E0,1.721431017E0,-1.177947283E0,9.323320389E0
3.482415620E0,1.754949808E0,-1.125274777E0,9.330503464E0
3.484415653E0,1.788468719E0,-1.106121182E0,9.330503464E0
3.486415653E0,1.798045516E0,-1.098938584E0,9.332897186E0
3.488416519E0,1.831564307E0,-1.089361787E0,9.342473984E0
3.490417419E0,1.838746905E0,-1.086967587E0,9.332897186E0
3.492417419E0,1.857900500E0,-1.070208192E0,9.328108788E0
3.494417419E0,1.848323703E0,-1.070208192E0,9.337685585E0
3.496417419E0,1.850717902E0,-1.077390790E0,9.342473984E0
3.498417652E0,1.857900500E0,-1.103726983E0,9.354445457E0
3.500417618E0,1.841141105E0,-1.113303781E0,9.354445457E0
3.502417584E0,1.819593310E0,-1.113303781E0,9.352050781E0
3.504417950E0,1.810016513E0,-1.154005170E0,9.375992775E0
3.506417916E0,1.790862918E0,-1.182735682E0,9.399934769E0
3.508417016E0,1.790862918E0,-1.182735682E0,9.399934769E0
3.510416982E0,1.783680320E0,-1.180341482E0,9.414299965E0
3.512416948E0,1.759738207E0,-1.189918280E0,9.447818756E0
3.514416948E0,1.759738207E0,-1.189918280E0,9.464578629E0
3.516416981E0,1.754949808E0,-1.197100878E0,9.483732224E0
3.518417014E0,1.757344007E0,-1.201889277E0,9.524434090E0
3.520417047E0,1.750161409E0,-1.216254473E0,9.543587685E0
3.522417080E0,1.704671621E0,-1.225831270E0,9.565135002E0
3.524417113E0,1.690306425E0,-1.237802267E0,9.562741280E0
3.526417146E0,1.675941229E0,-1.264138460E0,9.572318077E0
3.528417512E0,1.649604917E0,-1.268926859E0,9.553164482E0
3.530417512E0,1.630451322E0,-1.261744261E0,9.548376083E0
3.532417478E0,1.608903527E0,-1.271321058E0,9.553164482E0
3.534417444E0,1.613691926E0,-1.283292055E0,9.541193008E0
3.536417410E0,1.618480325E0,-1.312022567E0,9.519645691E0
3.538417376E0,1.596932530E0,-1.314416766E0,9.524434090E0
3.540417342E0,1.570596337E0,-1.323993564E0,9.514857292E0
3.542417308E0,1.556231141E0,-1.333570361E0,9.505280495E0
3.544417274E0,1.546654344E0,-1.326387763E0,9.493309021E0
3.546417274E0,1.529894829E0,-1.297657371E0,9.488520622E0
3.548416440E0,1.529894829E0,-1.297657371E0,9.488520622E0
3.550416473E0,1.532289028E0,-1.297657371E0,9.486125946E0
3.552416506E0,1.529894829E0,-1.285686255E0,9.478943825E0
3.554416539E0,1.527500629E0,-1.280897856E0,9.481337547E0
3.556416572E0,1.513135433E0,-1.268926859E0,9.478943825E0
3.558416605E0,1.503558636E0,-1.261744261E0,9.474155426E0
3.560416638E0,1.498770237E0,-1.249773264E0,9.469367027E0
3.562416671E0,1.489193439E0,-1.237802267E0,9.478943825E0
3.564416271E0,1.501164436E0,-1.230619669E0,9.478943825E0
3.566416271E0,1.479616642E0,-1.225831270E0,9.469367027E0
3.568417137E0,1.479616642E0,-1.228225470E0,9.474155426E0
3.570417137E0,1.479616642E0,-1.254561663E0,9.481337547E0
3.572417137E0,1.479616642E0,-1.276109457E0,9.483732224E0
3.574417137E0,1.484405041E0,-1.280897856E0,9.490914345E0
3.576417103E0,1.482010841E0,-1.278503656E0,9.505280495E0
3.578417069E0,1.467645645E0,-1.288080573E0,9.517251015E0
3.580417035E0,1.446097851E0,-1.304839969E0,9.514857292E0
3.582417001E0,1.431732655E0,-1.307234168E0,9.522039413E0
3.584416967E0,1.426944256E0,-1.307234168E0,9.526827812E0
3.586416933E0,1.405396342E0,-1.328781962E0,9.514857292E0
3.588416033E0,1.405396342E0,-1.328781962E0,9.514857292E0
3.590415999E0,1.405396342E0,-1.331176162E0,9.514857292E0
3.592415999E0,1.395819545E0,-1.343147159E0,9.505280495E0
3.594416032E0,1.391031146E0,-1.355118155E0,9.498097420E0
3.596416065E0,1.393425345E0,-1.362300754E0,9.481337547E0
3.598416098E0,1.391031146E0,-1.362300754E0,9.481337547E0
3.600416131E0,1.403002143E0,-1.362300754E0,9.486125946E0
3.602416164E0,1.431732655E0,-1.338358760E0,9.462183952E0
3.604416197E0,1.446097851E0,-1.333570361E0,9.435848236E0
3.606416230E0,1.467645645E0,-1.335964561E0,9.414299965E0
3.608417096E0,1.477222443E0,-1.335964561E0,9.392752647E0
3.610417062E0,1.501164436E0,-1.333570361E0,9.364022255E0
3.612417028E0,1.544260144E0,-1.347935557E0,9.352050781E0
3.614416994E0,1.556231141E0,-1.338358760E0,9.349657059E0
3.616416960E0,1.582567334E0,-1.331176162E0,9.349657059E0
3.618416926E0,1.587355733E0,-1.331176162E0,9.349657059E0
3.620416892E0,1.611297727E0,-1.288080573E0,9.349657059E0
3.622416858E0,1.616086125E0,-1.280897856E0,9.337685585E0
3.624416858E0,1.644816518E0,-1.290474772E0,9.340080261E0
3.626416891E0,1.649604917E0,-1.271321058E0,9.407117844E0
3.628416057E0,1.661576033E0,-1.273715258E0,9.428665161E0
3.630415823E0,1.661576033E0,-1.273715258E0,9.428665161E0
3.632415856E0,1.663970232E0,-1.266532660E0,9.447818756E0
3.634415889E0,1.659181833E0,-1.271321058E0,9.481337547E0
3.636415922E0,1.651999116E0,-1.280897856E0,9.517251015E0
3.638415955E0,1.654393315E0,-1.276109457E0,9.541193008E0
3.640415988E0,1.663970232E0,-1.266532660E0,9.593865395E0
3.642415988E0,1.671152830E0,-1.271321058E0,9.598653793E0
3.644415988E0,1.671152830E0,-1.283292055E0,9.610625267E0
3.646415988E0,1.668758631E0,-1.295263171E0,9.627384186E0
3.648416854E0,1.661576033E0,-1.304839969E0,9.636960983E0
3.650416854E0,1.654393315E0,-1.285686255E0,9.675268173E0
3.652416854E0,1.656787634E0,-1.276109457E0,9.689633369E0
3.654416820E0,1.647210717E0,-1.288080573E0,9.708786964E0
3.656416786E0,1.637633920E0,-1.273715258E0,9.727940559E0
3.658416752E0,1.635239720E0,-1.280897856E0,9.727940559E0
3.660416718E0,1.640028119E0,-1.283292055E0,9.730335236E0
3.662416684E0,1.632845521E0,-1.283292055E0,9.725546837E0
3.664416650E0,1.613691926E0,-1.295263171E0,9.727940559E0
3.666416616E0,1.587355733E0,-1.302445769E0,9.706393242E0
3.668416582E0,1.587355733E0,-1.302445769E0,9.706393242E0
3.670416582E0,1.577778935E0,-1.290474772E0,9.692028046E0
3.672416615E0,1.570596337E0,-1.295263171E0,9.680056572E0
3.674416648E0,1.563413739E0,-1.285686255E0,9.646537781E0
3.676416681E0,1.563413739E0,-1.278503656E0,9.644144058E0
3.678416714E0,1.577778935E0,-1.276109457E0,9.629778862E0
3.680416747E0,1.582567334E0,-1.292868972E0,9.574711800E0
3.682416780E0,1.592144132E0,-1.285686255E0,9.557952881E0
3.684416813E0,1.601720929E0,-1.288080573E0,9.529222488E0
3.686416813E0,1.572990537E0,-1.273715258E0,9.498097420E0
3.688417646E0,1.565807939E0,-1.266532660E0,9.488520622E0
3.690417879E0,1.537077546E0,-1.247379065E0,9.471760750E0
3.692417845E0,1.525106430E0,-1.242590666E0,9.469367027E0
3.694417811E0,1.501164436E0,-1.252167463E0,9.462183952E0
3.696417777E0,1.501164436E0,-1.259350061E0,9.457395554E0
3.698417743E0,1.498770237E0,-1.244984865E0,9.440636635E0
3.700417709E0,1.491587639E0,-1.240196466E0,9.414299965E0
3.702417709E0,1.496376038E0,-1.244984865E0,9.404723167E0
3.704417742E0,1.517923832E0,-1.242590666E0,9.392752647E0
3.706417375E0,1.522712231E0,-1.249773264E0,9.380781174E0
3.708416541E0,1.522712231E0,-1.249773264E0,9.380781174E0
3.710416574E0,1.532289028E0,-1.261744261E0,9.375992775E0
3.712416607E0,1.541865945E0,-1.276109457E0,9.380781174E0
3.714416640E0,1.556231141E0,-1.271321058E0,9.385569572E0
3.716416673E0,1.563413739E0,-1.268926859E0,9.387964249E0
3.718416706E0,1.584961534E0,-1.288080573E0,9.411906242E0
3.720416706E0,1.594538331E0,-1.295263171E0,9.423876762E0
3.722416706E0,1.596932530E0,-1.312022567E0,9.443030357E0
3.724416706E0,1.611297727E0,-1.309628367E0,9.450213432E0
3.726416706E0,1.611297727E0,-1.312022567E0,9.455001831E0
3.728416706E0,1.635239720E0,-1.307234168E0,9.474155426E0
3.730416706E0,1.654393315E0,-1.302445769E0,9.488520622E0
3.732416672E0,1.685518026E0,-1.290474772E0,9.507674217E0
3.734416638E0,1.726219416E0,-1.283292055E0,9.543587685E0
3.736416604E0,1.750161409E0,-1.285686255E0,9.555558205E0
3.738416570E0,1.788468719E0,-1.288080573E0,9.586683273E0
3.740416536E0,1.802833915E0,-1.283292055E0,9.605836868E0
3.742416502E0,1.821987510E0,-1.290474772E0,9.622595787E0
3.744416468E0,1.824381709E0,-1.278503656E0,9.660902977E0
3.746416434E0,1.850717902E0,-1.264138460E0,9.692028046E0
3.748415567E0,1.869871497E0,-1.264138460E0,9.703998566E0
3.750415600E0,1.869871497E0,-1.264138460E0,9.703998566E0
3.752415633E0,1.891419291E0,-1.242590666E0,9.715970039E0
3.754415666E0,1.905784607E0,-1.228225470E0,9.723152161E0
3.756415699E0,1.917755604E0,-1.233013868E0,9.727940559E0
3.758415332E0,1.927332401E0,-1.233013868E0,9.742305756E0
3.760415365E0,1.939303398E0,-1.223437071E0,9.744700432E0
3.762415398E0,1.939303398E0,-1.209071875E0,9.739912033E0
3.764415398E0,1.939303398E0,-1.206677675E0,9.737517357E0
3.766415764E0,1.934514999E0,-1.192312479E0,9.737517357E0
3.768416597E0,1.941697598E0,-1.201889277E0,9.730335236E0
3.770415763E0,1.941697598E0,-1.204283476E0,9.732728958E0
3.772415729E0,1.946485996E0,-1.213860273E0,9.713575363E0
3.774415695E0,1.960851192E0,-1.211466074E0,9.706393242E0
3.776415661E0,1.953668594E0,-1.201889277E0,9.687239647E0
3.778415627E0,1.941697598E0,-1.201889277E0,9.668086052E0
3.780415627E0,1.927332401E0,-1.206677675E0,9.660902977E0
3.782415660E0,1.903390408E0,-1.189918280E0,9.646537781E0
3.784415693E0,1.893813491E0,-1.204283476E0,9.648932457E0
3.786415726E0,1.862688899E0,-1.206677675E0,9.639355659E0
3.788414892E0,1.862688899E0,-1.206677675E0,9.639355659E0
3.790415158E0,1.860294700E0,-1.206677675E0,9.639355659E0
3.792415191E0,1.838746905E0,-1.225831270E0,9.634567261E0
3.794415224E0,1.841141105E0,-1.237802267E0,9.641749382E0
3.796415257E0,1.821987510E0,-1.268926859E0,9.634567261E0
3.798415257E0,1.805228114E0,-1.292868972E0,9.639355659E0
3.800415257E0,1.802833915E0,-1.292868972E0,9.646537781E0
3.802415257E0,1.793257117E0,-1.300051570E0,9.648932457E0
3.804415257E0,1.798045516E0,-1.300051570E0,9.646537781E0
3.806415257E0,1.771709204E0,-1.304839969E0,9.653720856E0
3.808416123E0,1.752555609E0,-1.321599364E0,9.653720856E0
3.810416089E0,1.747767210E0,-1.338358760E0,9.653720856E0
3.812416055E0,1.731007814E0,-1.350329757E0,9.648932457E0
3.814416021E0,1.719036818E0,-1.343147159E0,9.646537781E0
3.816415987E0,1.699883223E0,-1.357512355E0,9.632172585E0
3.818416353E0,1.680729628E0,-1.359906554E0,9.629778862E0
3.820416319E0,1.673547029E0,-1.367089152E0,9.617807388E0
3.822416285E0,1.673547029E0,-1.357512355E0,9.598653793E0
3.824416251E0,1.675941229E0,-1.355118155E0,9.596260071E0
3.826416251E0,1.719036818E0,-1.347935557E0,9.534010887E0
3.828415417E0,1.735796213E0,-1.343147159E0,9.519645691E0
3.830415350E0,1.735796213E0,-1.343147159E0,9.519645691E0
3.832415383E0,1.752555609E0,-1.347935557E0,9.481337547E0
3.834415416E0,1.764526606E0,-1.347935557E0,9.469367027E0
3.836415449E0,1.781286120E0,-1.345541358E0,9.452607155E0
3.838415482E0,1.788468719E0,-1.347935557E0,9.443030357E0
3.840415215E0,1.807622313E0,-1.326387763E0,9.431059837E0
3.842415215E0,1.810016513E0,-1.304839969E0,9.452607155E0
3.844415181E0,1.826775908E0,-1.295263171E0,9.462183952E0
3.846415147E0,1.850717902E0,-1.280897856E0,9.469367027E0
3.848415980E0,1.848323703E0,-1.280897856E0,9.471760750E0
3.850415713E0,1.860294700E0,-1.278503656E0,9.478943825E0
3.852415679E0,1.884236693E0,-1.292868972E0,9.488520622E0
3.854415812E0,1.891419291E0,-1.295263171E0,9.498097420E0
3.856415778E0,1.879448295E0,-1.307234168E0,9.512462616E0
3.858415778E0,1.869871497E0,-1.319205165E0,9.510068893E0
3.860415811E0,1.850717902E0,-1.312022567E0,9.510068893E0
3.862415844E0,1.836352706E0,-1.319205165E0,9.498097420E0
3.864415877E0,1.841141105E0,-1.312022567E0,9.505280495E0
3.866415910E0,1.829170108E0,-1.316810966E0,9.512462616E0
3.868415043E0,1.829170108E0,-1.316810966E0,9.512462616E0
3.870415076E0,1.798045516E0,-1.319205165E0,9.495702744E0
3.872415109E0,1.786074519E0,-1.319205165E0,9.493309021E0
3.874415142E0,1.745373011E0,-1.309628367E0,9.476549149E0
3.876415142E0,1.714248419E0,-1.300051570E0,9.471760750E0
3.878415142E0,1.709460020E0,-1.307234168E0,9.466972351E0
3.880415142E0,1.690306425E0,-1.304839969E0,9.462183952E0
3.882415142E0,1.675941229E0,-1.309628367E0,9.457395554E0
3.884415142E0,1.654393315E0,-1.297657371E0,9.426271439E0
3.886415142E0,1.644816518E0,-1.295263171E0,9.409511566E0
3.888415975E0,1.644816518E0,-1.292868972E0,9.402329445E0
3.890416841E0,1.635239720E0,-1.290474772E0,9.368810654E0
3.892416807E0,1.647210717E0,-1.300051570E0,9.364022255E0
3.894416773E0,1.668758631E0,-1.288080573E0,9.344868660E0
3.896416739E0,1.675941229E0,-1.254561663E0,9.316138268E0
3.898416705E0,1.692700624E0,-1.247379065E0,9.301773071E0
3.900416971E0,1.714248419E0,-1.237802267E0,9.299378395E0
3.902416937E0,1.735796213E0,-1.223437071E0,9.289801598E0
3.904416937E0,1.786074519E0,-1.218648672E0,9.244312286E0
3.906416970E0,1.838746905E0,-1.218648672E0,9.215581894E0
3.908416136E0,1.838746905E0,-1.218648672E0,9.215581894E0
3.910416169E0,1.836352706E0,-1.199495077E0,9.256282806E0
3.912416202E0,1.824381709E0,-1.187524080E0,9.287407875E0
3.914416068E0,1.798045516E0,-1.165976286E0,9.323320389E0
3.916416101E0,1.788468719E0,-1.165976286E0,9.323320389E0
3.918416067E0,1.793257117E0,-1.185129881E0,9.323320389E0
3.920416067E0,1.819593310E0,-1.242590666E0,9.313743591E0
3.922416033E0,1.831564307E0,-1.264138460E0,9.301773071E0
3.924415999E0,1.860294700E0,-1.345541358E0,9.280224800E0
3.926415965E0,1.903390408E0,-1.422155857E0,9.249100685E0
3.928416831E0,1.910573006E0,-1.443703651E0,9.239523888E0
3.930416797E0,1.872265697E0,-1.479616642E0,9.258677483E0
3.932416763E0,1.833958507E0,-1.479616642E0,9.273042679E0
3.934416729E0,1.747767210E0,-1.489193439E0,9.299378395E0
3.936416729E0,1.719036818E0,-1.496376038E0,9.296984673E0
3.938416762E0,1.654393315E0,-1.498770237E0,9.294589996E0
3.940416795E0,1.592144132E0,-1.515529633E0,9.285013199E0
3.942416828E0,1.580173135E0,-1.510741234E0,9.287407875E0
3.944416861E0,1.556231141E0,-1.501164436E0,9.296984673E0
3.946416894E0,1.505952835E0,-1.467645645E0,9.325715065E0
3.948416060E0,1.493981838E0,-1.455674648E0,9.342473984E0
3.950416093E0,1.479616642E0,-1.448492050E0,9.354445457E0
3.952416126E0,1.458068848E0,-1.446097851E0,9.364022255E0
3.954416126E0,1.424550056E0,-1.441309452E0,9.378387451E0
3.956416126E0,1.417367458E0,-1.436521053E0,9.380781174E0
3.958416126E0,1.412579060E0,-1.470039845E0,9.373599052E0
3.960416126E0,1.405396342E0,-1.486799240E0,9.368810654E0
3.962416126E0,1.395819545E0,-1.508347034E0,9.359233856E0
3.964416126E0,1.391031146E0,-1.505952835E0,9.385569572E0
3.966416092E0,1.400607944E0,-1.508347034E0,9.385569572E0
3.968416925E0,1.417367458E0,-1.549048543E0,9.380781174E0
3.970416891E0,1.419761658E0,-1.563413739E0,9.371204376E0
3.972416857E0,1.395819545E0,-1.556231141E0,9.364022255E0
3.974416823E0,1.410184860E0,-1.556231141E0,9.347262383E0
3.976416789E0,1.424550056E0,-1.563413739E0,9.344868660E0
3.978416822E0,1.441309452E0,-1.544260144E0,9.340080261E0
3.980416788E0,1.441309452E0,-1.527500629E0,9.337685585E0
3.982416788E0,1.477222443E0,-1.525106430E0,9.323320389E0
3.984416788E0,1.498770237E0,-1.529894829E0,9.318531990E0
3.986416821E0,1.584961534E0,-1.517923832E0,9.323320389E0
3.988415987E0,1.584961534E0,-1.517923832E0,9.323320389E0
3.990416020E0,1.584961534E0,-1.517923832E0,9.323320389E0
3.992416053E0,1.628057122E0,-1.517923832E0,9.325715065E0
3.994416086E0,1.668758631E0,-1.508347034E0,9.335291862E0
3.996416119E0,1.697489023E0,-1.515529633E0,9.347262383E0
3.998416119E0,1.742978811E0,-1.532289028E0,9.371204376E0
4.000416085E0,1.752555609E0,-1.534683347E0,9.380781174E0
4.002416051E0,1.754949808E0,-1.546654344E0,9.385569572E0
4.004416017E0,1.788468719E0,-1.563413739E0,9.404723167E0
4.006415983E0,1.790862918E0,-1.572990537E0,9.414299965E0
4.008417016E0,1.790862918E0,-1.604115129E0,9.431059837E0
4.010416982E0,1.795651317E0,-1.601720929E0,9.433453560E0
4.012416948E0,1.793257117E0,-1.599326730E0,9.447818756E0
4.014416948E0,1.774103403E0,-1.611297727E0,9.471760750E0
4.016416981E0,1.769315004E0,-1.628057122E0,9.493309021E0
4.018417014E0,1.757344007E0,-1.613691926E0,9.529222488E0
4.020417447E0,1.747767210E0,-1.616086125E0,9.543587685E0
4.022417480E0,1.726219416E0,-1.625662923E0,9.591471672E0
4.024417513E0,1.714248419E0,-1.628057122E0,9.601048470E0
4.026417546E0,1.671152830E0,-1.673547029E0,9.682451248E0
4.028416712E0,1.671152830E0,-1.673547029E0,9.682451248E0
4.030415845E0,1.671152830E0,-1.673547029E0,9.682451248E0
4.032415845E0,1.656787634E0,-1.695094824E0,9.706393242E0
4.034415845E0,1.642422318E0,-1.711854219E0,9.718363762E0
4.036415845E0,1.620874524E0,-1.740584612E0,9.720758438E0
4.038415845E0,1.596932530E0,-1.740584612E0,9.718363762E0
4.040415845E0,1.582567334E0,-1.745373011E0,9.730335236E0
4.042415845E0,1.544260144E0,-1.764526606E0,9.759065628E0
4.044415845E0,1.522712231E0,-1.769315004E0,9.768642426E0
4.046415811E0,1.498770237E0,-1.788468719E0,9.806949615E0
4.048416644E0,1.479616642E0,-1.800439715E0,9.847650528E0
4.050416610E0,1.460463047E0,-1.802833915E0,9.873987198E0
4.052416576E0,1.438915253E0,-1.786074519E0,9.905111313E0
4.054416542E0,1.426944256E0,-1.783680320E0,9.926659584E0
4.056416508E0,1.414973259E0,-1.793257117E0,9.976937294E0
4.058416474E0,1.388636947E0,-1.819593310E0,1.000088024E1
4.060416474E0,1.376665950E0,-1.826775908E0,1.001524544E1
4.062416474E0,1.369483352E0,-1.821987510E0,1.004397583E1
4.064416507E0,1.374271750E0,-1.821987510E0,1.004158115E1
4.066416540E0,1.335964561E0,-1.814804912E0,1.003439903E1
4.068416373E0,1.340752959E0,-1.814804912E0,1.003439903E1
4.070416406E0,1.355118155E0,-1.821987510E0,1.001285076E1
4.072416439E0,1.386242747E0,-1.810016513E0,1.000566864E1
4.074416472E0,1.400607944E0,-1.798045516E0,9.988908768E0
4.076416472E0,1.400607944E0,-1.793257117E0,9.957783699E0
4.078416438E0,1.393425345E0,-1.786074519E0,9.941024780E0
4.080416004E0,1.400607944E0,-1.774103403E0,9.895534515E0
4.082415970E0,1.386242747E0,-1.747767210E0,9.852438927E0
4.084415436E0,1.381454349E0,-1.733402014E0,9.838073730E0
4.086415402E0,1.266532660E0,-1.618480325E0,9.864410400E0
4.088416235E0,1.077390790E0,-1.446097851E0,1.003200436E1
4.090417101E0,9.576807022E-1,-1.319205165E0,1.016847420E1
4.092417101E0,1.005564690E0,-1.335964561E0,1.001763916E1
4.094417134E0,1.055842996E0,-1.369483352E0,9.907505989E0
4.096417167E0,1.254561663E0,-1.522712231E0,9.668086052E0
4.098417200E0,1.355118155E0,-1.594538331E0,9.543587685E0
4.100417233E0,1.534683347E0,-1.714248419E0,9.335291862E0
4.102417266E0,1.692700624E0,-1.810016513E0,9.196428299E0
4.104417299E0,1.740584612E0,-1.850717902E0,9.153332710E0
4.106417332E0,1.793257117E0,-1.910573006E0,9.103054047E0
4.108416498E0,1.747767210E0,-1.896207690E0,9.141361237E0
4.110416498E0,1.678335428E0,-1.869871497E0,9.206005096E0
4.112416498E0,1.534683347E0,-1.826775908E0,9.332897186E0
4.114416498E0,1.489193439E0,-1.721431017E0,9.366415977E0
4.116416498E0,1.429338455E0,-1.651999116E0,9.383175850E0
4.118416498E0,1.422155857E0,-1.620874524E0,9.375992775E0
4.120416498E0,1.422155857E0,-1.587355733E0,9.354445457E0
4.122416498E0,1.431732655E0,-1.551442742E0,9.347262383E0
4.124416464E0,1.434126854E0,-1.477222443E0,9.354445457E0
4.126416430E0,1.450886250E0,-1.410184860E0,9.366415977E0
4.128416396E0,1.462857246E0,-1.388636947E0,9.378387451E0
4.130416362E0,1.482010841E0,-1.362300754E0,9.392752647E0
4.132416328E0,1.496376038E0,-1.357512355E0,9.395146370E0
4.134416294E0,1.532289028E0,-1.364694953E0,9.421483040E0
4.136416260E0,1.551442742E0,-1.398213744E0,9.399934769E0
4.138416260E0,1.587355733E0,-1.417367458E0,9.385569572E0
4.140416260E0,1.635239720E0,-1.446097851E0,9.359233856E0
4.142416293E0,1.649604917E0,-1.470039845E0,9.354445457E0
4.144416826E0,1.680729628E0,-1.498770237E0,9.352050781E0
4.146416859E0,1.719036818E0,-1.498770237E0,9.359233856E0
4.148416025E0,1.733402014E0,-1.503558636E0,9.356839180E0
4.150416091E0,1.745373011E0,-1.496376038E0,9.361627579E0
4.152416124E0,1.762132406E0,-1.479616642E0,9.375992775E0
4.154416124E0,1.819593310E0,-1.462857246E0,9.402329445E0
4.156416090E0,1.862688899E0,-1.465251446E0,9.440636635E0
4.158416056E0,1.877054095E0,-1.448492050E0,9.459790230E0
4.160416022E0,1.905784607E0,-1.426944256E0,9.495702744E0
4.162415988E0,1.912967205E0,-1.422155857E0,9.510068893E0
4.164415954E0,1.960851192E0,-1.422155857E0,9.538799286E0
4.166415920E0,2.011129379E0,-1.414973259E0,9.545981407E0
4.168416753E0,2.032677174E0,-1.424550056E0,9.536404610E0
4.170416753E0,2.090138197E0,-1.450886250E0,9.464578629E0
4.172416786E0,2.114080191E0,-1.465251446E0,9.426271439E0
4.174416819E0,2.149993181E0,-1.491587639E0,9.361627579E0
4.176416852E0,2.178723574E0,-1.501164436E0,9.328108788E0
4.178416885E0,2.214636564E0,-1.501164436E0,9.263465881E0
4.180416918E0,2.229001760E0,-1.513135433E0,9.203610420E0
4.182416951E0,2.229001760E0,-1.515529633E0,9.172486305E0
