"Time (s)","Acceleration x (m/s^2)","Acceleration y (m/s^2)","Acceleration z (m/s^2)"
3.371589500E-2,2.197807550E0,7.816753387E0,5.307579517E0
3.616782200E-2,2.145165443E0,7.764111042E0,5.317151070E0
3.861183200E-2,2.142772675E0,7.780860901E0,5.290830135E0
4.105152000E-2,2.149951220E0,7.826324463E0,5.264508724E0
4.348849900E-2,2.161915302E0,7.845467091E0,5.271687508E0
4.592386300E-2,2.104487419E0,7.833503246E0,5.278865814E0
4.835792600E-2,2.111665964E0,7.816753387E0,5.293222904E0
5.079099900E-2,2.142772675E0,7.953144073E0,5.221437931E0
5.322318600E-2,2.238485575E0,8.003393173E0,5.187938690E0
5.565485300E-2,2.351247311E0,8.032107353E0,5.118546963E0
5.808599900E-2,2.513959408E0,8.001000404E0,5.065904617E0
6.051672800E-2,2.834597588E0,7.639684677E0,5.269294739E0
6.294709300E-2,3.040679455E0,7.392924786E0,5.973083496E0
6.537714500E-2,3.124428272E0,7.483851910E0,4.587040901E0
6.780693600E-2,2.846561670E0,7.471887589E0,5.049154758E0
7.023652000E-2,2.765205622E0,7.459923744E0,5.494219780E0
7.266584300E-2,2.848954439E0,7.404888630E0,5.748157978E0
7.509500900E-2,2.549851656E0,6.782455921E0,5.350650311E0
7.752402000E-2,2.588136673E0,6.528816700E0,5.039583683E0
7.995292600E-2,2.978466034E0,6.701099873E0,4.945964336E0
8.238162400E-2,3.334996462E0,7.019644260E0,5.321936607E0
8.481021800E-2,3.605684519E0,7.402495861E0,5.870192051E0
8.721495700E-2,3.732504129E0,7.546364307E0,6.136094570E0
8.959589500E-2,3.632005692E0,7.455138206E0,5.803193092E0
9.197683200E-2,3.531507015E0,7.395317554E0,5.714658737E0
9.435777000E-2,3.490829229E0,7.488637447E0,5.681159019E0
9.673870700E-2,3.289532900E0,7.426424026E0,5.630909920E0
9.911964500E-2,3.200998545E0,7.462316513E0,5.781657696E0
1.015005820E-1,3.055036306E0,7.479066372E0,5.671587944E0
1.038815200E-1,2.913859844E0,7.404888630E0,5.520540714E0
1.062624570E-1,2.882753134E0,7.450352192E0,5.424828053E0
1.086433950E-1,2.841775894E0,7.519744396E0,5.319543839E0
1.110243320E-1,2.925823927E0,7.646862984E0,5.235795021E0
1.134052700E-1,2.961716175E0,7.749754429E0,5.070690155E0
1.157862070E-1,2.909074068E0,7.890930653E0,5.211866856E0
1.181671450E-1,2.901895761E0,7.888537884E0,5.242973328E0
1.205480820E-1,2.813062191E0,7.852645874E0,5.302793980E0
1.229290200E-1,2.702992201E0,7.680362701E0,5.403292656E0
1.253099570E-1,2.736491680E0,7.733004570E0,5.585446358E0
1.276908950E-1,2.743670225E0,7.850253105E0,5.578267574E0
1.300718320E-1,2.755634308E0,7.888537884E0,5.489434242E0
1.324527700E-1,2.846561670E0,7.941180229E0,5.427220821E0
1.348337070E-1,2.909074068E0,7.977072716E0,5.398507118E0
1.372384470E-1,2.921038151E0,7.984251022E0,5.321936607E0
1.396669360E-1,2.906681299E0,8.017750740E0,5.324329376E0
1.420953740E-1,2.928216696E0,8.036892891E0,5.355436325E0
1.445237070E-1,2.992822886E0,8.046463966E0,5.338686466E0
1.469518840E-1,2.992822886E0,8.048856735E0,5.259723186E0
1.493799570E-1,3.071786165E0,8.060821533E0,5.262115955E0
1.518079780E-1,3.114856958E0,8.077570915E0,5.269294739E0
1.542358950E-1,3.067000389E0,8.051250458E0,5.341079235E0
1.566636550E-1,3.002394199E0,8.010572433E0,5.381757259E0
1.590913110E-1,2.966501951E0,8.001000404E0,5.412863731E0
1.615189150E-1,2.923431158E0,7.986643791E0,5.424828053E0
1.639464150E-1,2.909074068E0,7.967501163E0,5.427220821E0
1.663738630E-1,2.846561670E0,7.981858253E0,5.369792938E0
1.688012590E-1,2.856132984E0,7.974679470E0,5.326722145E0
1.712286030E-1,2.822633505E0,7.943572998E0,5.290830135E0
1.736558950E-1,2.746062994E0,7.905287743E0,5.192724228E0
1.760831340E-1,2.710170746E0,7.852645874E0,5.321936607E0
1.785103220E-1,2.600100994E0,7.744968891E0,5.487041473E0
1.809374570E-1,2.561815739E0,7.675576687E0,5.556732178E0
1.833645400E-1,2.523530483E0,7.606184959E0,5.614160061E0
1.857759990E-1,2.597707987E0,7.560721397E0,5.599802971E0
1.881629780E-1,2.592922449E0,7.553543091E0,5.743372440E0
1.905414150E-1,2.533101797E0,7.491030216E0,5.829514027E0
1.929199050E-1,2.619243383E0,7.483851910E0,5.894120216E0
1.952975610E-1,2.647957325E0,7.452745438E0,5.910870075E0
1.976752700E-1,2.667099953E0,7.440781116E0,5.839085579E0
2.000537070E-1,2.731706142E0,7.414460182E0,5.812764645E0
2.024321970E-1,2.767598391E0,7.383353233E0,5.877370834E0
2.048098530E-1,2.676671267E0,7.357032299E0,6.013761520E0
2.071875610E-1,2.647957325E0,7.333104134E0,6.143272877E0
2.095659990E-1,2.566601276E0,7.309175968E0,6.253343105E0
2.119444880E-1,2.600100994E0,7.275676250E0,6.217450619E0
2.143221970E-1,2.590529680E0,7.232605457E0,6.114559174E0
2.166999050E-1,2.592922449E0,7.148856640E0,6.095117569E0
2.190783430E-1,2.542673111E0,7.050751209E0,6.136094570E0
2.214567800E-1,2.451745987E0,6.937989235E0,6.107081413E0
2.238344880E-1,2.442174673E0,6.820741177E0,6.047261238E0
2.262121970E-1,2.356033087E0,6.770491600E0,5.958726406E0
2.285906340E-1,2.252842426E0,6.715456963E0,5.949155331E0
2.309691240E-1,2.195414782E0,6.691528320E0,5.987440586E0
2.333467800E-1,2.212164640E0,6.674778938E0,5.932405472E0
2.357244880E-1,2.238485575E0,6.624529362E0,5.920441628E0
2.381029260E-1,2.224128723E0,6.581458569E0,5.999404430E0
2.404814150E-1,2.238485575E0,6.555137634E0,6.064010620E0
2.428590720E-1,2.209771633E0,6.504888535E0,6.073582172E0
2.452367800E-1,2.212164640E0,6.449853420E0,6.162415504E0
2.476152700E-1,2.212164640E0,6.392126560E0,6.253343105E0
2.499937070E-1,2.183450699E0,6.296413898E0,6.322734833E0
2.523714150E-1,2.233700037E0,6.219843388E0,6.358626842E0
2.547491240E-1,2.322533369E0,6.150451660E0,6.435197353E0
2.571275610E-1,2.379961252E0,6.047560215E0,6.478268147E0
2.595060510E-1,2.411067963E0,5.956633091E0,6.526124477E0
2.618837070E-1,2.456531525E0,5.896812439E0,6.526124477E0
2.642614150E-1,2.540280342E0,5.824728489E0,6.588337898E0
2.666398530E-1,2.640778780E0,5.781657696E0,6.617052078E0
2.690183430E-1,2.736491680E0,5.760122299E0,6.727420807E0
2.713959990E-1,2.801098108E0,5.693123341E0,6.787241459E0
2.737737070E-1,2.836990356E0,5.650052547E0,6.868597507E0
2.761521450E-1,2.856132984E0,5.614160061E0,6.911668301E0
2.785306340E-1,2.877967358E0,5.561518192E0,6.993024349E0
2.809082900E-1,2.894717216E0,5.523232937E0,7.093522549E0
2.832859990E-1,2.841775894E0,5.489733219E0,7.229913712E0
2.856644880E-1,2.834597588E0,5.501697540E0,7.282855034E0
2.880429260E-1,2.836990356E0,5.475376606E0,7.294818878E0
2.904206340E-1,2.786741018E0,5.437091351E0,7.278069019E0
2.927983430E-1,2.827419043E0,5.417948723E0,7.232605457E0
2.951767800E-1,2.784348249E0,5.370092392E0,7.162914753E0
2.975552700E-1,2.736491680E0,5.338985443E0,7.105486870E0
2.999329260E-1,2.674278498E0,5.300700188E0,7.081558704E0
3.023106340E-1,2.595315218E0,5.262115955E0,7.016952515E0
3.046890720E-1,2.540280342E0,5.238187790E0,7.014559746E0
3.070675610E-1,2.545065880E0,5.259723186E0,6.995417118E0
3.094452180E-1,2.509173632E0,5.231009483E0,6.942774773E0
3.118229260E-1,2.444567442E0,5.226223946E0,6.966702938E0
3.142013630E-1,2.358425856E0,5.238187790E0,6.969096184E0
3.165798530E-1,2.344068766E0,5.259723186E0,6.997809887E0
3.189575610E-1,2.336890459E0,5.315057278E0,6.995417118E0
3.213352700E-1,2.329711914E0,5.362913609E0,6.997809887E0
3.237137070E-1,2.382354021E0,5.379663467E0,7.031309128E0
3.260921970E-1,2.415853500E0,5.417948723E0,7.095915318E0
3.284698530E-1,2.521137714E0,5.472983360E0,7.040880680E0
3.308475610E-1,2.590529680E0,5.528018475E0,7.045666218E0
3.332259990E-1,2.626421928E0,5.630909920E0,7.165307522E0
3.356044880E-1,2.671885490E0,5.688337803E0,7.086344242E0
3.379821450E-1,2.753241539E0,5.764907837E0,7.004988194E0
3.403598530E-1,2.810669184E0,5.824728489E0,7.026523590E0
3.427382900E-1,2.772384167E0,5.853741646E0,7.129415035E0
3.451167800E-1,2.767598391E0,5.930311680E0,7.083951473E0
3.474944360E-1,2.801098108E0,5.942276001E0,7.036095142E0
3.498721450E-1,2.820240498E0,5.999703884E0,6.988238335E0
3.522506340E-1,2.846561670E0,5.982954025E0,6.928418159E0
3.546291240E-1,2.848954439E0,6.047560215E0,6.873383045E0
3.570067800E-1,2.848954439E0,6.073881149E0,6.842276573E0
3.593844880E-1,2.856132984E0,6.112166405E0,6.681957245E0
3.617629260E-1,2.875574589E0,6.176772594E0,6.538088799E0
3.641414150E-1,2.894717216E0,6.224628925E0,6.308377743E0
3.665190720E-1,2.866003275E0,6.279664040E0,6.248557091E0
3.688967800E-1,2.820240498E0,6.394519329E0,6.102295876E0
3.712752180E-1,2.741277456E0,6.485745907E0,6.040082455E0
3.736537070E-1,2.597707987E0,6.598208427E0,6.004190445E0
3.760313630E-1,2.389532566E0,6.655636311E0,5.740979671E0
3.784090720E-1,1.651944876E0,6.181558132E0,3.593421459E0
3.807875610E-1,1.802991867E0,6.100202084E0,2.499303341E0
3.831659990E-1,2.389532566E0,6.504888535E0,4.007678986E0
3.855437070E-1,2.631207705E0,6.835097790E0,5.152046204E0
3.879214150E-1,2.829811811E0,7.153642178E0,5.858228207E0
3.902998530E-1,2.848954439E0,7.397710323E0,6.020939827E0
3.926783430E-1,3.064607620E0,7.699504852E0,6.554838657E0
3.950559990E-1,2.949752092E0,7.816753387E0,6.617052078E0
3.974337070E-1,2.978466034E0,7.957930088E0,6.916453838E0
3.998121450E-1,2.873181820E0,7.922037601E0,6.696314335E0
4.021906340E-1,2.988037348E0,7.989036560E0,6.689135551E0
4.045682900E-1,2.978466034E0,8.024929047E0,6.071189404E0
4.069459990E-1,2.971287489E0,7.998608112E0,5.391328335E0
4.093244360E-1,3.117249727E0,8.029714584E0,4.955535889E0
4.117029260E-1,3.100499868E0,7.859824181E0,3.988536358E0
4.140806340E-1,3.394817114E0,7.862216949E0,2.470589399E0
4.164583430E-1,3.215355396E0,7.800003529E0,2.523231506E0
4.188367800E-1,3.110071182E0,7.656434059E0,4.230211258E0
4.212152700E-1,3.009572744E0,7.215855598E0,6.495018005E0
4.235929260E-1,2.561815739E0,6.638886452E0,8.063214302E0
4.259706340E-1,1.889133453E0,6.188736439E0,8.309675217E0
4.283490720E-1,1.316949725E0,6.047560215E0,8.206783295E0
4.307275610E-1,7.351947427E-1,5.932704449E0,7.706384659E0
4.331052180E-1,6.562315822E-1,6.004489422E0,6.576374054E0
4.354829260E-1,1.063011408E0,6.425925255E0,5.630909920E0
4.378613630E-1,1.740778446E0,7.060322285E0,5.209474087E0
4.402398530E-1,2.602493763E0,7.914859295E0,5.262115955E0
4.426175610E-1,3.440579891E0,8.657232285E0,5.496612549E0
4.449952700E-1,4.213760853E0,9.090332985E0,5.738586903E0
4.473737070E-1,4.843372345E0,9.236594200E0,5.930012703E0
4.497521970E-1,5.343770981E0,9.140582085E0,5.886941910E0
4.521298530E-1,5.750850201E0,8.819944382E0,5.671587944E0
4.545075610E-1,6.033203125E0,8.662017822E0,5.434399128E0
4.568859990E-1,6.253642082E0,8.635397911E0,5.233402252E0
4.592644880E-1,6.425925255E0,8.640183449E0,5.156831741E0
4.616421450E-1,6.524031162E0,8.683553696E0,5.274080276E0
4.640198530E-1,6.557530403E0,8.659625053E0,5.522933960E0
4.663982900E-1,6.555137634E0,8.570791245E0,5.800800323E0
4.687767800E-1,6.490531445E0,8.415258408E0,6.016154289E0
4.711544880E-1,6.421139717E0,8.221439362E0,6.133701801E0
4.735321970E-1,6.303891182E0,8.087141991E0,6.215057850E0
4.759106340E-1,6.150451660E0,7.998608112E0,6.384948254E0
4.782891240E-1,5.970989704E0,7.929215908E0,6.681957245E0
4.806667800E-1,5.798706532E0,7.929215908E0,6.976274490E0
4.830444880E-1,5.523232937E0,7.941180229E0,7.239784241E0
4.854229260E-1,5.219344616E0,7.910073280E0,7.378567696E0
4.878014150E-1,4.936692238E0,7.867002487E0,7.421638489E0
4.901790720E-1,4.577768803E0,7.766504288E0,7.290033340E0
4.925567800E-1,4.182653904E0,7.606184959E0,7.119843960E0
4.949352180E-1,3.909573078E0,7.447959423E0,6.945167542E0
4.973137070E-1,3.852145433E0,7.361817837E0,6.772884369E0
4.996914150E-1,3.833002806E0,7.273283482E0,6.593123913E0
5.020691240E-1,3.699004650E0,7.139285564E0,6.557231426E0
5.044475610E-1,3.629612923E0,7.045965195E0,6.552445889E0
5.068260510E-1,3.567399502E0,7.019644260E0,6.466304302E0
5.092037070E-1,3.567399502E0,7.022037029E0,6.344270229E0
5.115814150E-1,3.543471336E0,7.029215813E0,6.215057850E0
5.139598530E-1,3.581756353E0,7.007680416E0,6.087938786E0
5.163383430E-1,3.610470295E0,7.038786888E0,5.951548100E0
5.187159990E-1,3.658326626E0,7.007680416E0,5.831906796E0
5.210937070E-1,3.694219112E0,7.005287170E0,5.726622581E0
5.234721970E-1,3.742075443E0,6.983751774E0,5.642873764E0
5.258506340E-1,3.761218071E0,6.959524632E0,5.595017433E0
5.282283430E-1,3.766003847E0,6.911668301E0,5.595017433E0
5.306060510E-1,3.806681633E0,6.906882763E0,5.597410202E0
5.329844880E-1,3.823431492E0,6.909275532E0,5.621338367E0
5.353629780E-1,3.833002806E0,6.933203697E0,5.657230854E0
5.377406340E-1,3.842574120E0,6.966702938E0,5.678766251E0
5.401183430E-1,3.856930971E0,7.045965195E0,5.690730572E0
5.424967800E-1,3.883252144E0,7.115357399E0,5.705087185E0
5.448752700E-1,3.876073599E0,7.179963589E0,5.721837044E0
5.472529780E-1,3.859323740E0,7.263712406E0,5.776872158E0
5.496306860E-1,3.821038723E0,7.347461224E0,5.807978630E0
5.520091240E-1,3.789932013E0,7.400103092E0,5.788836002E0
5.543876130E-1,3.811467409E0,7.500601768E0,5.743372440E0
5.567652700E-1,3.806681633E0,7.570292473E0,5.685945034E0
5.591429780E-1,3.837788343E0,7.627720356E0,5.626124382E0
5.615214150E-1,3.821038723E0,7.699504852E0,5.534897804E0
5.638999050E-1,3.825824261E0,7.804789066E0,5.455934525E0
5.662775610E-1,3.801896095E0,7.881359577E0,5.355436325E0
5.686552700E-1,3.816252947E0,7.984251022E0,5.276473045E0
5.710337070E-1,3.799503326E0,7.996214867E0,5.223830700E0
5.734121970E-1,3.794717550E0,8.046463966E0,5.178367138E0
5.757899050E-1,3.766003847E0,8.053643227E0,5.164010525E0
5.781676130E-1,3.766003847E0,8.077570915E0,5.130510807E0
5.805460510E-1,3.751646757E0,8.075178146E0,5.087440014E0
5.829245400E-1,3.715754509E0,8.048856735E0,5.080261707E0
5.853021970E-1,3.653541088E0,8.036892891E0,5.051547527E0
5.876799050E-1,3.663112402E0,8.024929047E0,5.030012131E0
5.900583430E-1,3.675076485E0,8.036892891E0,5.030012131E0
5.924368320E-1,3.660719633E0,8.015357971E0,5.015655518E0
5.948144880E-1,3.665505171E0,7.984251022E0,5.022833824E0
5.971921970E-1,3.713361740E0,7.981858253E0,5.022833824E0
5.995706860E-1,3.725325823E0,8.024929047E0,5.022833824E0
6.019491240E-1,3.792324781E0,8.032107353E0,5.018048286E0
6.043268320E-1,3.835395575E0,8.053643227E0,4.989334106E0
6.067045400E-1,3.892823458E0,8.094619751E0,4.984249592E0
6.090829780E-1,3.935894251E0,8.142476082E0,4.996512890E0
6.114614680E-1,3.955036640E0,8.171190262E0,5.008476734E0
6.138391240E-1,4.005585194E0,8.178368568E0,5.010869503E0
6.162168320E-1,4.029513359E0,8.190332413E0,5.037190914E0
6.185952700E-1,4.055834293E0,8.187939644E0,5.070690155E0
6.209737590E-1,4.079762459E0,8.185546875E0,5.125725269E0
6.233514680E-1,4.091726780E0,8.161619186E0,5.161617756E0
6.257291760E-1,4.089334011E0,8.130512238E0,5.171188831E0
6.281076130E-1,4.086941242E0,8.087141991E0,5.199902534E0
6.304861030E-1,4.082155228E0,8.032107353E0,5.286044121E0
6.328637590E-1,4.079762459E0,7.974679470E0,5.298008442E0
6.352414680E-1,4.074976921E0,7.924430370E0,5.333900928E0
6.376199050E-1,4.041477680E0,7.869395256E0,5.336293697E0
6.399983950E-1,4.029513359E0,7.831110477E0,5.362614632E0
6.423760510E-1,3.993621111E0,7.807182312E0,5.331508160E0
6.447537590E-1,3.996013880E0,7.735397339E0,5.312365532E0
6.471321970E-1,3.959822416E0,7.733004570E0,5.281258583E0
6.495106860E-1,3.955036640E0,7.697112083E0,5.257330418E0
6.518883950E-1,3.928715706E0,7.689933777E0,5.231009483E0
6.542661030E-1,3.902394533E0,7.658827305E0,5.209474087E0
6.566445400E-1,3.871287823E0,7.637291908E0,5.168796062E0
6.590230300E-1,3.828217030E0,7.615756035E0,5.195116997E0
6.614006860E-1,3.780360699E0,7.603792191E0,5.185545921E0
6.637783950E-1,3.828217030E0,7.450352192E0,5.240580559E0
6.661568320E-1,3.986442566E0,6.897311211E0,5.628517151E0
6.685353220E-1,4.364508629E0,6.241378784E0,6.207879066E0
6.709129780E-1,4.508078098E0,6.088238239E0,6.542874336E0
6.732906860E-1,4.055834293E0,6.782455921E0,6.133701801E0
6.756691760E-1,3.471686602E0,7.627720356E0,5.702694416E0
6.780476130E-1,3.122035265E0,8.077570915E0,5.510969639E0
6.804253220E-1,2.968894720E0,8.135297775E0,5.420042515E0
6.828030300E-1,3.026322365E0,7.934001446E0,5.400899887E0
6.851814680E-1,3.220141172E0,7.606184959E0,5.372185707E0
6.875599570E-1,3.445365429E0,7.275676250E0,5.439185143E0
6.899376130E-1,3.572185040E0,7.005287170E0,5.510969639E0
6.923153220E-1,3.586542130E0,6.882954121E0,5.530112267E0
6.946937590E-1,3.447758436E0,6.923632145E0,5.472684383E0
6.970722490E-1,3.277568817E0,7.002894402E0,5.420042515E0
6.994499570E-1,3.102892876E0,7.117750168E0,5.420042515E0
7.018276650E-1,2.947359324E0,7.163213730E0,5.477469921E0
7.042061030E-1,2.870789051E0,7.153642178E0,5.534897804E0
7.065845930E-1,2.853740215E0,7.081857681E0,5.626124382E0
7.089622490E-1,2.873181820E0,6.998108864E0,5.688337803E0
7.113399570E-1,2.880360365E0,6.911668301E0,5.740979671E0
7.137183950E-1,2.889931440E0,6.873383045E0,5.769693375E0
7.160968840E-1,2.916252613E0,6.856633186E0,5.839085579E0
7.184745930E-1,2.889931440E0,6.859025955E0,5.965905190E0
7.208523010E-1,2.820240498E0,6.780063152E0,6.198307991E0
7.232307380E-1,2.743670225E0,6.665207386E0,6.454339981E0
7.256092280E-1,2.731706142E0,6.524031162E0,6.612266064E0
7.279868840E-1,2.700599432E0,6.445067883E0,6.657730103E0
7.303645930E-1,2.722134829E0,6.396912098E0,6.573981285E0
7.327430300E-1,2.695813894E0,6.399304867E0,6.480660915E0
7.351215200E-1,2.726920605E0,6.430710793E0,6.370591164E0
7.374991760E-1,2.731706142E0,6.507281303E0,6.270092487E0
7.398768840E-1,2.714956284E0,6.576673031E0,6.112166405E0
7.422553220E-1,2.676671267E0,6.629314899E0,6.032904148E0
7.446338110E-1,2.604886532E0,6.686742783E0,5.977869034E0
7.470115200E-1,2.504388094E0,6.739385128E0,5.997011662E0
7.493892280E-1,2.413460732E0,6.782455921E0,5.949155331E0
7.517676650E-1,2.322533369E0,6.794419765E0,5.930012703E0
7.541461550E-1,2.274377823E0,6.792026997E0,5.906084538E0
7.565238110E-1,2.219342947E0,6.746563435E0,5.874977589E0
7.589015200E-1,2.190629244E0,6.710670948E0,5.882156372E0
7.612799570E-1,2.118844509E0,6.648457527E0,5.841478348E0
7.636584470E-1,2.087737799E0,6.605386734E0,5.815157413E0
7.660361550E-1,2.070987940E0,6.600601196E0,5.805585861E0
7.684138630E-1,2.075773716E0,6.593422890E0,5.791228771E0
7.707923010E-1,2.025524378E0,6.576673031E0,5.611767292E0
7.731707900E-1,1.805384636E0,6.569494724E0,4.821537495E0
7.755484470E-1,1.798206210E0,6.720242500E0,4.251746655E0
7.779261550E-1,2.257628202E0,6.923632145E0,4.385744572E0
7.803045930E-1,2.540280342E0,7.062715054E0,4.823930264E0
7.826830820E-1,2.542673111E0,7.225427151E0,5.164010525E0
7.850607380E-1,2.415853500E0,7.275676250E0,5.300401211E0
7.874384470E-1,2.300698996E0,7.292426109E0,5.391328335E0
7.898168840E-1,2.236092806E0,7.313961506E0,5.491827011E0
7.921953740E-1,2.300698996E0,7.309175968E0,5.628517151E0
7.945730820E-1,2.449352980E0,7.306783199E0,5.774479389E0
7.969507900E-1,2.564208508E0,7.290033340E0,5.937191010E0
7.993292280E-1,2.619243383E0,7.263712406E0,6.083153248E0
8.017077180E-1,2.643171787E0,7.184749126E0,6.152844429E0
8.040853740E-1,2.592922449E0,7.134500027E0,6.203093529E0
8.064630820E-1,2.487638235E0,7.089035988E0,6.296413898E0
8.088415200E-1,2.403889418E0,7.029215813E0,6.272485256E0
8.112200090E-1,2.339283228E0,6.993323326E0,6.124130249E0
8.135977180E-1,2.274377823E0,6.990930557E0,5.992226124E0
8.159754260E-1,2.166700840E0,7.017251492E0,5.937191010E0
8.183538630E-1,2.111665964E0,7.012465954E0,5.956333637E0
8.207323530E-1,2.039881229E0,7.067500591E0,6.114559174E0
8.231100090E-1,1.972882271E0,7.163213730E0,6.136094570E0
8.254877180E-1,1.901097536E0,7.290033340E0,6.030511379E0
8.278661550E-1,1.874776483E0,7.342675209E0,5.848656654E0
8.302446450E-1,1.836491346E0,7.443173885E0,5.654838085E0
8.326223530E-1,1.822134495E0,7.534400463E0,5.518147945E0
8.350000610E-1,1.795813441E0,7.625327587E0,5.405685425E0
8.373784990E-1,1.683051586E0,7.869395256E0,5.640480995E0
8.397569880E-1,1.541875124E0,7.998608112E0,5.772086620E0
8.421346450E-1,1.613659739E0,7.845467091E0,5.307579517E0
8.445123530E-1,1.817348838E0,7.685148239E0,4.845465660E0
8.468907900E-1,1.956132531E0,7.706683636E0,4.543970108E0
8.492692800E-1,2.020738840E0,7.840681553E0,4.151247978E0
8.516469360E-1,2.013560295E0,7.974679470E0,4.122534275E0
8.540246450E-1,1.960918188E0,8.070392609E0,4.323531628E0
8.564030820E-1,1.874776483E0,8.183154106E0,4.522434711E0
8.587815720E-1,1.826920033E0,8.130512238E0,4.673182487E0
8.611592800E-1,1.795813441E0,8.132905006E0,4.800002098E0
8.635369880E-1,1.747956991E0,8.094619751E0,4.807180882E0
8.659154260E-1,1.716551185E0,7.996214867E0,4.831109047E0
8.682939150E-1,1.702194214E0,7.910073280E0,4.816751957E0
8.706715720E-1,1.728515267E0,7.831110477E0,4.835894585E0
8.730492800E-1,1.721336842E0,7.783253670E0,4.771288395E0
8.754277180E-1,1.755135417E0,7.704290867E0,4.728217602E0
8.778062070E-1,1.733300924E0,7.634898663E0,4.685146809E0
8.801839150E-1,1.716551185E0,7.553543091E0,4.606183529E0
8.825616240E-1,1.690230131E0,7.606184959E0,4.608576298E0
8.849400610E-1,1.570588946E0,7.634898663E0,4.476971149E0
8.873185510E-1,1.441376567E0,7.558328629E0,4.460221291E0
8.896962070E-1,1.314556956E0,7.452745438E0,4.484149456E0
8.920739150E-1,1.245165110E0,7.354639530E0,4.448257446E0
8.944523530E-1,1.190130115E0,7.309175968E0,4.340281010E0
8.968308430E-1,1.156331539E0,7.292426109E0,4.242175579E0
8.992085510E-1,1.101296663E0,7.278069019E0,4.167997837E0
9.015862590E-1,1.063011408E0,7.244569778E0,4.089034557E0
9.039646970E-1,1.046261668E0,7.206284523E0,4.005286217E0
9.063431860E-1,9.960124493E-1,7.120142937E0,3.933501244E0
9.087208430E-1,9.361918569E-1,7.184749126E0,3.978965044E0
9.110985510E-1,8.811569214E-1,7.244569778E0,3.938287020E0
9.134769880E-1,8.500502706E-1,7.256533623E0,3.971786499E0
9.158554780E-1,8.333004713E-1,7.199106216E0,4.053142548E0
9.182331340E-1,8.524430394E-1,7.196712971E0,4.100998878E0
9.206108430E-1,9.409775138E-1,7.416852951E0,4.124927044E0
9.229893320E-1,6.729813814E-1,7.601399422E0,4.318745613E0
9.253677700E-1,3.448655605E-1,7.955537319E0,4.505684853E0
9.277454780E-1,3.041875660E-1,7.895716667E0,4.723432064E0
9.301231860E-1,6.008976102E-1,7.713861942E0,4.445864677E0
9.325016240E-1,7.758727670E-1,7.644470215E0,4.191926003E0
9.348801130E-1,9.912267923E-1,7.656434059E0,3.945465326E0
9.372577700E-1,1.077368379E0,7.730611801E0,3.722633839E0
9.396354780E-1,1.022333503E0,7.814360619E0,3.567100286E0
9.420139150E-1,9.266205430E-1,7.869395256E0,3.461816072E0
9.443924050E-1,8.237292171E-1,7.792825222E0,3.303590775E0
9.467701130E-1,7.328019142E-1,7.697112083E0,3.224627733E0
9.491478220E-1,6.658028960E-1,7.790432453E0,3.049951553E0
9.515262590E-1,6.227321029E-1,7.869395256E0,2.961417198E0
9.539047490E-1,6.346961856E-1,7.888537884E0,2.832204819E0
9.562824050E-1,7.375875711E-1,7.883752346E0,2.784348249E0
9.586601130E-1,8.285148144E-1,7.907680511E0,2.721835852E0
9.610385510E-1,8.931210637E-1,7.974679470E0,2.678765059E0
9.634170400E-1,8.979067206E-1,8.142476082E0,2.642872572E0
9.657947490E-1,9.194421172E-1,8.410472870E0,2.592623234E0
9.681724570E-1,1.082154036E0,8.549256325E0,2.618944407E0
9.705508950E-1,1.293021560E0,8.714659691E0,2.427518606E0
9.729293840E-1,1.340878010E0,8.762516975E0,2.640479803E0
9.753070400E-1,1.343270779E0,8.810373306E0,2.939881802E0
9.776847490E-1,1.333699465E0,8.860622406E0,3.301198006E0
9.800631860E-1,1.245165110E0,8.910871506E0,3.571886063E0
9.824416760E-1,1.151545882E0,8.961120605E0,3.796811342E0
9.848193840E-1,1.055832982E0,8.992227554E0,4.065106392E0
9.871970930E-1,9.146564603E-1,9.066405296E0,4.304389000E0
9.895755300E-1,7.902296782E-1,9.064012527E0,4.493721008E0
9.919540200E-1,7.160521746E-1,9.056833267E0,4.618147850E0
9.943316760E-1,6.729813814E-1,9.020941734E0,4.713860512E0
9.967093840E-1,5.769693851E-1,9.018548965E0,4.692325115E0
9.990878220E-1,5.530411601E-1,8.965906143E0,4.761716843E0
1.001466311E0,5.434698462E-1,8.977870941E0,4.771288395E0
1.003843968E0,5.075774789E-1,9.059226990E0,4.680361271E0
1.006221676E0,4.357928336E-1,9.229415894E0,4.620540619E0
1.008600165E0,3.376871049E-1,9.511769295E0,4.716253281E0
1.010978655E0,3.975076675E-1,9.796813965E0,4.721039295E0
1.013356311E0,5.482555032E-1,1.005523872E1,4.728217602E0
1.015734020E0,6.945167780E-1,1.022752190E1,4.666004181E0
1.018112457E0,8.979067206E-1,1.032323551E1,4.486542225E0
1.020490947E0,9.816554785E-1,1.032802105E1,4.318745613E0
1.022868603E0,1.074975610E0,1.026580715E1,4.158426762E0
1.025246311E0,1.072582722E0,1.018445110E1,4.007678986E0
1.027624801E0,9.888339639E-1,1.010788059E1,3.854238987E0
1.030003238E0,8.333004713E-1,9.966704369E0,3.600599766E0
1.032380947E0,6.346961856E-1,9.813564301E0,3.332603693E0
1.034758655E0,4.597210586E-1,9.707980156E0,3.085843801E0
1.037137093E0,3.400799036E-1,9.585947037E0,2.911167860E0
1.039515582E0,2.706880569E-1,9.533304214E0,2.774776936E0
1.041893238E0,2.371885478E-1,9.483055115E0,2.736192703E0
1.044270947E0,2.611167729E-1,9.435198784E0,2.707478762E0
1.046649384E0,3.065803945E-1,9.404091835E0,2.714657307E0
1.049027874E0,3.855435550E-1,9.334700584E0,2.740978241E0
1.051405582E0,4.788636267E-1,9.327521324E0,2.758027315E0
1.053783290E0,5.243272781E-1,9.313164711E0,2.789133787E0
1.056161728E0,5.482555032E-1,9.294022560E0,2.801098108E0
1.058540218E0,5.626124144E-1,9.305986404E0,2.779562712E0
1.060917874E0,5.817549825E-1,9.327521324E0,2.772384167E0
1.063295582E0,5.889334679E-1,9.310771942E0,2.822633505E0
1.065674020E0,5.937191248E-1,9.339486122E0,2.875275612E0
1.068052509E0,6.080760360E-1,9.368199348E0,3.006880760E0
1.070430218E0,6.442674994E-1,9.428020477E0,3.121736288E0
1.072807926E0,7.591229677E-1,9.444769859E0,3.306282759E0
1.075186363E0,8.955138922E-1,9.502198219E0,3.559921980E0
1.077564853E0,9.936196208E-1,9.518947601E0,3.715455294E0
1.079942509E0,1.094118118E0,9.538089752E0,3.775275946E0
1.082320218E0,1.127617717E0,9.530911446E0,3.832703590E0
1.084698655E0,1.182951689E0,9.526125908E0,3.801596880E0
1.087077145E0,1.221236825E0,9.502198219E0,3.758526087E0
1.089454853E0,1.254736423E0,9.475876808E0,3.698705673E0
1.091832561E0,1.324128270E0,9.437591553E0,3.626920938E0
1.094210999E0,1.314556956E0,9.372985840E0,3.605385542E0
1.096589488E0,1.312164068E0,9.377771378E0,3.569493294E0
1.098967145E0,1.331306696E0,9.305986404E0,3.471387386E0
1.101344853E0,1.283450246E0,9.229415894E0,3.413959742E0
1.103723290E0,1.295414329E0,9.166903496E0,3.351746321E0
1.106101780E0,1.333699465E0,9.097511292E0,3.306282759E0
1.108479488E0,1.362413406E0,9.028120041E0,3.272484064E0
1.110857197E0,1.369591832E0,8.963513374E0,3.236591816E0
1.113235634E0,1.393520117E0,8.920442581E0,3.224627733E0
1.115614124E0,1.350449324E0,8.829515457E0,3.236591816E0
1.117991780E0,1.367199063E0,8.803194046E0,3.298804998E0
1.120369488E0,1.369591832E0,8.743373871E0,3.330210924E0
1.122747926E0,1.367199063E0,8.693124771E0,3.406781197E0
1.125126415E0,1.350449324E0,8.666803360E0,3.497708559E0
1.127504124E0,1.362413406E0,8.628219604E0,3.576671600E0
1.129881832E0,1.395912886E0,8.599505424E0,3.641277790E0
1.132260270E0,1.415055513E0,8.582756042E0,3.715455294E0
1.134638759E0,1.448554993E0,8.594719887E0,3.775275946E0
1.137016415E0,1.472483277E0,8.573184013E0,3.849453449E0
1.139394124E0,1.503589988E0,8.597112656E0,3.943072557E0
1.141772561E0,1.544267893E0,8.589934349E0,4.012464523E0
1.144151051E0,1.570588946E0,8.613862038E0,4.053142548E0
1.146528707E0,1.642373681E0,8.662017822E0,4.108177185E0
1.148906415E0,1.675873160E0,8.652147293E0,4.187140465E0
1.151284905E0,1.735693693E0,8.662017822E0,4.196712017E0
1.153663395E0,1.786242127E0,8.717052460E0,4.144069672E0
1.156041051E0,1.771885157E0,8.779266357E0,4.043570995E0
1.158418759E0,1.771885157E0,8.819944382E0,3.993321896E0
1.160797197E0,1.786242127E0,8.855836868E0,3.945465326E0
1.163175686E0,1.783849239E0,8.867800713E0,3.892823458E0
1.165553343E0,1.814955950E0,8.882157326E0,3.851846218E0
1.167931051E0,1.853241086E0,8.889336586E0,3.818346739E0
1.170309540E0,1.846062660E0,8.891729355E0,3.748954773E0
1.172687978E0,1.817348838E0,8.908478737E0,3.696312666E0
1.175065686E0,1.805384636E0,8.925228119E0,3.614956856E0
1.177443395E0,1.791027784E0,8.934800148E0,3.538386583E0
1.179821832E0,1.788634896E0,8.963513374E0,3.461816072E0
1.182200322E0,1.834098577E0,8.968298912E0,3.397209883E0
1.184577978E0,1.802991867E0,9.011369705E0,3.375674486E0
1.186955686E0,1.786242127E0,9.090332985E0,3.332603693E0
1.189334176E0,1.759921074E0,9.133403778E0,3.282055378E0
1.191712665E0,1.747956991E0,9.178867340E0,3.241377354E0
1.194090322E0,1.745564103E0,9.193224907E0,3.231806040E0
1.196468030E0,1.738086581E0,9.227023125E0,3.186342478E0
1.198846468E0,1.695015788E0,9.238986969E0,3.167199850E0
1.201224957E0,1.680658817E0,9.207581520E0,3.183949709E0
1.203602613E0,1.625623941E0,9.178867340E0,3.176771164E0
1.205980322E0,1.599302888E0,9.162117958E0,3.227020502E0
1.208358811E0,1.561017632E0,9.154939651E0,3.277269602E0
1.210737249E0,1.606481314E0,9.188439369E0,3.339782238E0
1.213114957E0,1.608874083E0,9.202795982E0,3.406781197E0
1.215492665E0,1.651944876E0,9.186046600E0,3.471387386E0
1.217871103E0,1.683051586E0,9.174081802E0,3.555136204E0
1.220249593E0,1.723729610E0,9.169296265E0,3.619742393E0
1.222627249E0,1.711765528E0,9.150154114E0,3.710669756E0
1.225004957E0,1.716551185E0,9.123832703E0,3.763311863E0
1.227383447E0,1.699801445E0,9.099904060E0,3.792025566E0
1.229761936E0,1.714158297E0,9.078369141E0,3.868895054E0
1.232139593E0,1.683051586E0,9.040083885E0,3.895216227E0
1.234517301E0,1.675873160E0,9.011369705E0,3.931108475E0
1.236895738E0,1.671087503E0,8.970691681E0,3.947858334E0
1.239274228E0,1.692622900E0,8.953942299E0,3.947858334E0
1.241651884E0,1.695015788E0,8.932407379E0,3.938287020E0
1.244029593E0,1.671087503E0,8.908478737E0,3.928715706E0
1.246408082E0,1.663909078E0,8.915657043E0,3.900001764E0
1.248786572E0,1.666301847E0,8.913264275E0,3.839882135E0
1.251164228E0,1.644766450E0,8.920442581E0,3.811168194E0
1.253541936E0,1.623231053E0,8.941978455E0,3.720241070E0
1.255920374E0,1.616052628E0,8.968298912E0,3.629313707E0
1.258298863E0,1.606481314E0,8.992227554E0,3.538386583E0
1.260676520E0,1.592124343E0,9.028120041E0,3.433102369E0
1.263054228E0,1.575374603E0,9.102297783E0,3.337389469E0
1.265432665E0,1.575374603E0,9.147761345E0,3.265305519E0
1.267811155E0,1.570588946E0,9.238986969E0,3.198306561E0
1.270188863E0,1.558624864E0,9.317950249E0,3.162414312E0
1.272566572E0,1.577767372E0,9.392127991E0,3.140878916E0
1.274945009E0,1.565803289E0,9.466305733E0,3.126521826E0
1.277323499E0,1.582553029E0,9.559625626E0,3.128914595E0
1.279701155E0,1.589731574E0,9.636196136E0,3.138485909E0
1.282078863E0,1.647159338E0,9.688838005E0,3.155235767E0
1.284457353E0,1.659123421E0,9.796813965E0,3.171985626E0
1.286835790E0,1.683051586E0,9.868598938E0,3.171985626E0
1.289213499E0,1.695015788E0,9.909276962E0,3.179163933E0
1.291591207E0,1.747956991E0,9.976275444E0,3.174378395E0
1.293969645E0,1.755135417E0,1.002891827E1,3.193521023E0
1.296348134E0,1.747956991E0,9.993025780E0,3.212663412E0
1.298725790E0,1.745564103E0,9.997811317E0,3.260519981E0
1.301103499E0,1.762313843E0,9.990633011E0,3.272484064E0
1.303481936E0,1.764706731E0,9.937990189E0,3.279662609E0
1.305860426E0,1.759921074E0,9.928419113E0,3.291626692E0
1.308238134E0,1.740778446E0,9.866206169E0,3.313461065E0
1.310615843E0,1.697408557E0,9.837491989E0,3.327818155E0
1.312994280E0,1.654337764E0,9.792028427E0,3.320639610E0
1.315372770E0,1.647159338E0,9.741479874E0,3.291626692E0
1.317750426E0,1.628016710E0,9.724730492E0,3.330210924E0
1.320128134E0,1.642373681E0,9.684052467E0,3.313461065E0
1.322506624E0,1.654337764E0,9.688838005E0,3.327818155E0
1.324885061E0,1.671087503E0,9.700801849E0,3.366103172E0
1.327262770E0,1.702194214E0,9.729516029E0,3.334996462E0
1.329640478E0,1.730908036E0,9.743872643E0,3.327818155E0
1.332018915E0,1.762313843E0,9.758230209E0,3.323032379E0
1.334397405E0,1.802991867E0,9.770194054E0,3.279662609E0
1.336775061E0,1.824527264E0,9.796813965E0,3.217449188E0
1.339152770E0,1.886740685E0,9.827920914E0,3.160021305E0
1.341531207E0,1.896311998E0,9.847063065E0,3.116950512E0
1.343909697E0,1.893919110E0,9.863813400E0,3.052344322E0
1.346287405E0,1.901097536E0,9.873384476E0,2.982952595E0
1.348665113E0,1.908276081E0,9.859027863E0,2.966202736E0
1.351043551E0,1.910668850E0,9.854242325E0,2.932703257E0
1.353422040E0,1.908276081E0,9.866206169E0,2.937488794E0
1.355799697E0,1.925025821E0,9.890133858E0,2.930310488E0
1.358177405E0,1.939382792E0,9.875777245E0,2.961417198E0
1.360555843E0,1.956132531E0,9.892526627E0,2.961417198E0
1.362934332E0,1.968096614E0,9.904491425E0,2.954238653E0
1.365312040E0,1.989632010E0,9.923633575E0,2.951845884E0
1.367689749E0,2.006381750E0,9.935597420E0,2.913560629E0
1.370068186E0,2.013560295E0,9.947562218E0,2.853740215E0
1.372446676E0,2.030309916E0,9.969097137E0,2.789133787E0
1.374824332E0,2.042274237E0,9.959526062E0,2.738585472E0
1.377202040E0,2.059023857E0,9.952347755E0,2.707478762E0
1.379580478E0,2.049452543E0,9.937990189E0,2.673979282E0
1.381958968E0,2.066202402E0,9.904491425E0,2.609373093E0
1.384336676E0,2.047059774E0,9.902098656E0,2.592623234E0
1.386714384E0,2.047059774E0,9.887741089E0,2.556730986E0
1.389092822E0,2.063809633E0,9.851848602E0,2.544766903E0
1.391471311E0,2.059023857E0,9.815957069E0,2.482553482E0
1.393848968E0,2.049452543E0,9.787242889E0,2.453839540E0
1.396226676E0,2.047059774E0,9.729516029E0,2.468196630E0
1.398605113E0,2.047059774E0,9.691230774E0,2.477767944E0
1.400983603E0,2.030309916E0,9.648159981E0,2.518445730E0
1.403361311E0,2.032702923E0,9.619445801E0,2.537588358E0
1.405739020E0,2.051845312E0,9.569196701E0,2.590230465E0
1.408117457E0,2.023131609E0,9.566803932E0,2.623729944E0
1.410495947E0,2.013560295E0,9.506983757E0,2.642872572E0
1.412873603E0,2.030309916E0,9.480662346E0,2.690729141E0
1.415251311E0,2.032702923E0,9.437591553E0,2.702693224E0
1.417629749E0,1.975275040E0,9.377771378E0,2.731407166E0
1.420008238E0,1.975275040E0,9.322735786E0,2.774776936E0
1.422385947E0,1.939382792E0,9.270093918E0,2.796312332E0
1.424763655E0,1.920240164E0,9.209974289E0,2.801098108E0
1.427142093E0,1.877169371E0,9.195617676E0,2.836990356E0
1.429520582E0,1.877169371E0,9.166903496E0,2.877668381E0
1.431898238E0,1.848455548E0,9.166903496E0,2.894418001E0
1.434275947E0,1.881955028E0,9.193224907E0,2.915953398E0
1.436654384E0,1.879562140E0,9.202795982E0,2.935096025E0
1.439032874E0,1.903490424E0,9.289237022E0,2.892025232E0
1.441410582E0,1.927418590E0,9.346664429E0,2.846561670E0
1.443788290E0,1.963310957E0,9.384949684E0,2.827419043E0
1.446166728E0,2.013560295E0,9.444769859E0,2.808276415E0
1.448545218E0,2.039881229E0,9.514162064E0,2.813062191E0
1.450922874E0,2.027917147E0,9.552447319E0,2.765205622E0
1.453300582E0,2.056631088E0,9.595518112E0,2.748456001E0
1.455679072E0,2.044667006E0,9.633803368E0,2.758027315E0
1.458057509E0,2.023131609E0,9.655338287E0,2.753241539E0
1.460435218E0,2.049452543E0,9.669695854E0,2.748456001E0
1.462812926E0,2.049452543E0,9.662516594E0,2.760420084E0
1.465191363E0,2.042274237E0,9.667302132E0,2.769991398E0
1.467569853E0,2.020738840E0,9.655338287E0,2.769991398E0
1.469947509E0,1.996810555E0,9.640981674E0,2.729014158E0
1.472325218E0,1.972882271E0,9.640981674E0,2.753241539E0
1.474703707E0,1.975275040E0,9.617053032E0,2.738585472E0
1.477082145E0,1.968096614E0,9.602696419E0,2.731407166E0
1.479459853E0,1.956132531E0,9.583553314E0,2.740978241E0
1.481837561E0,1.929811478E0,9.562018394E0,2.740978241E0
1.484215999E0,1.920240164E0,9.557232857E0,2.738585472E0
1.486594488E0,1.874776483E0,9.526125908E0,2.743670225E0
1.488972145E0,1.858026743E0,9.506983757E0,2.750848770E0
1.491349853E0,1.841277003E0,9.502198219E0,2.793919563E0
1.493728343E0,1.834098577E0,9.516554832E0,2.865704298E0
1.496106832E0,1.829312921E0,9.499805450E0,2.918346405E0
1.498484488E0,1.855633974E0,9.506983757E0,2.959024191E0
1.500862197E0,1.862812400E0,9.518947601E0,2.975774050E0
1.503240634E0,1.891526341E0,9.514162064E0,2.994916677E0
1.505619124E0,1.913061738E0,9.528518677E0,3.028416157E0
1.507996780E0,1.905883193E0,9.521340370E0,3.054737091E0
1.510374488E0,1.908276081E0,9.554840088E0,3.054737091E0
1.512752978E0,1.898704767E0,9.545269012E0,3.054737091E0
1.515131468E0,1.936989903E0,9.564411163E0,3.004487991E0
1.517509124E0,1.946561217E0,9.564411163E0,3.009273529E0
1.519886832E0,1.948953986E0,9.566803932E0,2.966202736E0
1.522265270E0,1.960918188E0,9.552447319E0,2.954238653E0
1.524643759E0,1.963310957E0,9.550054550E0,2.887239695E0
1.527021415E0,1.992024899E0,9.526125908E0,2.853740215E0
1.529399124E0,1.989632010E0,9.516554832E0,2.832204819E0
1.531777613E0,1.972882271E0,9.492626190E0,2.803490877E0
1.534156103E0,1.948953986E0,9.437591553E0,2.769991398E0
1.536533759E0,1.936989903E0,9.401699066E0,2.736192703E0
1.538911468E0,1.920240164E0,9.380164146E0,2.702693224E0
1.541289905E0,1.910668850E0,9.377771378E0,2.700300455E0
1.543668395E0,1.898704767E0,9.365806580E0,2.666800737E0
1.546046103E0,1.922633052E0,9.349057198E0,2.642872572E0
1.548423811E0,1.913061738E0,9.349057198E0,2.628515720E0
1.550802249E0,1.908276081E0,9.344271660E0,2.640479803E0
1.553180738E0,1.903490424E0,9.329915047E0,2.568695068E0
1.555558395E0,1.913061738E0,9.332307816E0,2.580659151E0
1.557936103E0,1.891526341E0,9.329915047E0,2.556730986E0
1.560314540E0,1.872383714E0,9.315557480E0,2.590230465E0
1.562693030E0,1.872383714E0,9.296415329E0,2.595016241E0
1.565070738E0,1.850848317E0,9.282057762E0,2.587837696E0
1.567448447E0,1.850848317E0,9.274879456E0,2.573480844E0
1.569826884E0,1.881955028E0,9.279664993E0,2.561516523E0
1.572205374E0,1.881955028E0,9.255737305E0,2.575873613E0
1.574583030E0,1.862812400E0,9.246166229E0,2.587837696E0
1.576960738E0,1.855633974E0,9.243772507E0,2.573480844E0
1.579339176E0,1.834098577E0,9.231808662E0,2.554338217E0
1.581717665E0,1.838884234E0,9.193224907E0,2.571087837E0
1.584095374E0,1.819741607E0,9.147761345E0,2.580659151E0
1.586473082E0,1.802991867E0,9.145368576E0,2.585444927E0
1.588851520E0,1.802991867E0,9.128618240E0,2.592623234E0
1.591230009E0,1.767099500E0,9.075976372E0,2.575873613E0
1.593607665E0,1.762313843E0,9.032905579E0,2.621337175E0
1.595985374E0,1.747956991E0,9.025727272E0,2.654836655E0
1.598363811E0,1.718943954E0,8.973084450E0,2.645265341E0
1.600742301E0,1.714158297E0,8.956335068E0,2.654836655E0
1.603120009E0,1.668694735E0,8.941978455E0,2.669193745E0
1.605497718E0,1.639980793E0,8.925228119E0,2.702693224E0
1.607876155E0,1.642373681E0,8.932407379E0,2.724228621E0
1.610254645E0,1.618445396E0,8.932407379E0,2.736192703E0
1.612632301E0,1.630409479E0,8.934800148E0,2.736192703E0
1.615010009E0,1.637588024E0,8.941978455E0,2.714657307E0
1.617388447E0,1.642373681E0,8.973084450E0,2.750848770E0
1.619766936E0,1.642373681E0,8.982656479E0,2.758027315E0
1.622144645E0,1.649552107E0,9.023334503E0,2.765205622E0
1.624522353E0,1.635195136E0,9.037691116E0,2.760420084E0
1.626900790E0,1.635195136E0,9.047262192E0,2.748456001E0
1.629279280E0,1.623231053E0,9.080761909E0,2.753241539E0
1.631656936E0,1.606481314E0,9.080761909E0,2.733799934E0
1.634034645E0,1.558624864E0,9.090332985E0,2.676372051E0
1.636413082E0,1.546660781E0,9.114261627E0,2.642872572E0
1.638791572E0,1.539482236E0,9.145368576E0,2.626122952E0
1.641169280E0,1.532303810E0,9.140582085E0,2.626122952E0
1.643546988E0,1.508375525E0,9.147761345E0,2.635694027E0
1.645925426E0,1.501197100E0,9.195617676E0,2.657229662E0
1.648303915E0,1.520339727E0,9.231808662E0,2.669193745E0
1.650681572E0,1.551446438E0,9.270093918E0,2.666800737E0
1.653059280E0,1.553839207E0,9.294022560E0,2.673979282E0
1.655437718E0,1.575374603E0,9.313164711E0,2.676372051E0
1.657816207E0,1.582553029E0,9.325128555E0,2.664407969E0
1.660193915E0,1.570588946E0,9.344271660E0,2.662015200E0
1.662571624E0,1.589731574E0,9.356235504E0,2.683550596E0
1.664950061E0,1.575374603E0,9.377771378E0,2.738585472E0
1.667328551E0,1.565803289E0,9.384949684E0,2.777169704E0
1.669706207E0,1.575374603E0,9.365806580E0,2.810669184E0
1.672083915E0,1.580160260E0,9.377771378E0,2.832204819E0
1.674462405E0,1.596910000E0,9.337093353E0,2.846561670E0
1.676840843E0,1.599302888E0,9.332307816E0,2.880061150E0
1.679218551E0,1.596910000E0,9.317950249E0,2.889632463E0
1.681596259E0,1.584945917E0,9.320343018E0,2.899203777E0
1.683974697E0,1.575374603E0,9.303593636E0,2.858525753E0
1.686353186E0,1.572981834E0,9.291629791E0,2.825026274E0
1.688730895E0,1.575374603E0,9.286844254E0,2.793919563E0
1.691108603E0,1.568196177E0,9.284450531E0,2.772384167E0
1.693487040E0,1.570588946E0,9.279664993E0,2.777169704E0
1.695865530E0,1.587338686E0,9.286844254E0,2.719442844E0
1.698243186E0,1.594517231E0,9.322735786E0,2.729014158E0
1.700620895E0,1.608874083E0,9.341878891E0,2.707478762E0
1.702999332E0,1.604088426E0,9.375378609E0,2.671586514E0
1.705377822E0,1.618445396E0,9.411270142E0,2.664407969E0
1.707755478E0,1.632802367E0,9.449555397E0,2.647658348E0
1.710133186E0,1.623231053E0,9.487840652E0,2.633301258E0
1.712511676E0,1.656730533E0,9.538089752E0,2.616551638E0
1.714890165E0,1.683051586E0,9.550054550E0,2.587837696E0
1.717267822E0,1.659123421E0,9.583553314E0,2.568695068E0
1.719645530E0,1.675873160E0,9.605089188E0,2.539981127E0
1.722023968E0,1.673480392E0,9.612267494E0,2.551945448E0
1.724402457E0,1.642373681E0,9.612267494E0,2.511267424E0
1.726780165E0,1.647159338E0,9.624231339E0,2.501696110E0
1.729157874E0,1.644766450E0,9.660123825E0,2.487339020E0
1.731536311E0,1.654337764E0,9.645767212E0,2.482553482E0
1.733914801E0,1.649552107E0,9.681659698E0,2.465803623E0
1.736292457E0,1.642373681E0,9.681659698E0,2.451446772E0
1.738670165E0,1.596910000E0,9.684052467E0,2.444268227E0
1.741048603E0,1.589731574E0,9.707980156E0,2.441875458E0
1.743427093E0,1.561017632E0,9.684052467E0,2.405983210E0
1.745804801E0,1.558624864E0,9.700801849E0,2.403590441E0
1.748182509E0,1.544267893E0,9.676874161E0,2.384447813E0
1.750560947E0,1.522732496E0,9.652945518E0,2.360519648E0
1.752939436E0,1.517946839E0,9.652945518E0,2.370090723E0
1.755317093E0,1.520339727E0,9.691230774E0,2.372483730E0
1.757694801E0,1.501197100E0,9.712766647E0,2.353341103E0
1.760073238E0,1.486840129E0,9.719944954E0,2.346162558E0
1.762451728E0,1.482054472E0,9.698409081E0,2.295913219E0
1.764829436E0,1.477268934E0,9.688838005E0,2.264806747E0
1.767207145E0,1.467697620E0,9.739087105E0,2.178365946E0
1.769585582E0,1.455733418E0,9.758230209E0,2.161616087E0
1.771964072E0,1.410269856E0,9.743872643E0,2.149652004E0
1.774341728E0,1.438983679E0,9.736694336E0,2.104188442E0
1.776719436E0,1.434198022E0,9.727123260E0,2.080260277E0
1.779097874E0,1.424626827E0,9.758230209E0,2.051546335E0
1.781476363E0,1.422233939E0,9.729516029E0,2.037189484E0
1.783854072E0,1.415055513E0,9.739087105E0,2.008475542E0
1.786231780E0,1.393520117E0,9.696016312E0,2.013261080E0
1.788610218E0,1.352842093E0,9.696016312E0,2.018046856E0
1.790988707E0,1.350449324E0,9.667302132E0,2.027618170E0
1.793366363E0,1.324128270E0,9.648159981E0,2.032403708E0
1.795744072E0,1.331306696E0,9.640981674E0,2.041975021E0
1.798122561E0,1.321735382E0,9.588339806E0,2.041975021E0
1.800501051E0,1.297807217E0,9.530911446E0,2.025225163E0
1.802878707E0,1.288235903E0,9.511769295E0,2.025225163E0
1.805256415E0,1.264307618E0,9.487840652E0,2.032403708E0
1.807634853E0,1.278664589E0,9.444769859E0,2.015654087E0
1.810013343E0,1.269093275E0,9.406484604E0,2.041975021E0
1.812391051E0,1.259521961E0,9.380164146E0,2.051546335E0
1.814768759E0,1.242772222E0,9.351449966E0,2.032403708E0
1.817147197E0,1.242772222E0,9.322735786E0,2.025225163E0
1.819525634E0,1.235593796E0,9.303593636E0,2.039582253E0
1.821903343E0,1.249950767E0,9.267701149E0,1.986940145E0
1.824281051E0,1.228415370E0,9.243772507E0,1.946262121E0
1.826659488E0,1.249950767E0,9.241379738E0,1.924726725E0
1.829037978E0,1.252343535E0,9.260522842E0,1.881655931E0
1.831415686E0,1.237986565E0,9.258130074E0,1.852941990E0
1.833793395E0,1.237986565E0,9.248558998E0,1.793121457E0
1.836171832E0,1.237986565E0,9.224630356E0,1.785943031E0
1.838550322E0,1.245165110E0,9.193224907E0,1.769193292E0
1.840927978E0,1.252343535E0,9.190832138E0,1.762014747E0
1.843305686E0,1.252343535E0,9.176474571E0,1.762014747E0
1.845684124E0,1.245165110E0,9.157332420E0,1.759621978E0
1.848062613E0,1.233201027E0,9.150154114E0,1.757229090E0
1.850440322E0,1.192523003E0,9.109476089E0,1.759621978E0
1.852818030E0,1.168295622E0,9.085547447E0,1.771586061E0
1.855196468E0,1.132403374E0,9.056833267E0,1.776371717E0
1.857574957E0,1.108475089E0,9.049654961E0,1.829013824E0
1.859952613E0,1.084546804E0,9.018548965E0,1.891227245E0
1.862330322E0,1.034297585E0,9.001798630E0,1.948654890E0
1.864708759E0,1.005583763E0,8.997013092E0,2.039582253E0
1.867087249E0,9.601200819E-1,8.994620323E0,2.132902384E0
1.869464957E0,9.146564603E-1,9.001798630E0,2.240878344E0
1.871842665E0,8.548358679E-1,9.020941734E0,2.358126640E0
1.874221103E0,8.261220455E-1,9.028120041E0,2.477767944E0
1.876599593E0,8.285148144E-1,9.061619759E0,2.583052158E0
1.878977249E0,8.213363886E-1,9.092725754E0,2.616551638E0
1.881354957E0,8.691928387E-1,9.147761345E0,2.683550596E0
1.883733447E0,8.835497499E-1,9.171689034E0,2.729014158E0
1.886111884E0,8.715856671E-1,9.198010445E0,2.721835852E0
1.888489593E0,8.763712645E-1,9.243772507E0,2.712264538E0
1.890867301E0,8.572286963E-1,9.272486687E0,2.705085993E0
1.893245738E0,8.309076428E-1,9.277272224E0,2.650051117E0
1.895624228E0,7.974081635E-1,9.289237022E0,2.599801779E0
1.898001884E0,7.806583643E-1,9.291629791E0,2.551945448E0
1.900379593E0,7.806583643E-1,9.303593636E0,2.482553482E0
1.902758082E0,7.471588850E-1,9.325128555E0,2.427518606E0
1.905136572E0,7.423732281E-1,9.361021042E0,2.329412937E0
1.907514228E0,7.782655358E-1,9.389735222E0,2.298306227E0
1.909891936E0,7.447660565E-1,9.416056633E0,2.262413740E0
1.912270374E0,7.375875711E-1,9.428020477E0,2.238485575E0
1.914648863E0,7.543373108E-1,9.435198784E0,2.231307030E0
1.917026520E0,7.567301393E-1,9.449555397E0,2.228914261E0
1.919404228E0,7.591229677E-1,9.483055115E0,2.188236237E0
1.921782718E0,7.639086246E-1,9.514162064E0,2.173580170E0
1.924161207E0,7.663014531E-1,9.526125908E0,2.116152525E0
1.926538863E0,7.663014531E-1,9.547661781E0,2.097009897E0
1.928916572E0,7.782655358E-1,9.552447319E0,2.063510418E0
1.931295009E0,7.615157962E-1,9.566803932E0,2.053939104E0
1.933673499E0,7.543373108E-1,9.562018394E0,2.032403708E0
1.936051207E0,7.567301393E-1,9.547661781E0,2.006082773E0
1.938428915E0,7.567301393E-1,9.526125908E0,1.970190287E0
1.940807353E0,7.304090858E-1,9.514162064E0,1.960619092E0
1.943185843E0,7.136593461E-1,9.492626190E0,1.967797518E0
1.945563499E0,7.351947427E-1,9.492626190E0,1.946262121E0
1.947941207E0,7.399803996E-1,9.485447884E0,1.951047778E0
1.950319645E0,7.304090858E-1,9.473484039E0,1.936690807E0
1.952698134E0,7.375875711E-1,9.459127426E0,1.960619092E0
1.955075843E0,7.423732281E-1,9.468698502E0,1.953440547E0
1.957453551E0,7.280163169E-1,9.428020477E0,1.927119493E0
1.959831988E0,7.447660565E-1,9.425627708E0,1.905584097E0
1.962210478E0,7.351947427E-1,9.396913528E0,1.900798440E0
1.964588134E0,7.423732281E-1,9.361021042E0,1.898405671E0
1.966965843E0,7.639086246E-1,9.353842735E0,1.857727647E0
1.969344280E0,7.567301393E-1,9.308379173E0,1.845763564E0
1.971722770E0,7.447660565E-1,9.291629791E0,1.805085540E0
1.974100478E0,7.256234884E-1,9.286844254E0,1.733300924E0
1.976478186E0,7.328019142E-1,9.253344536E0,1.733300924E0
1.978856624E0,7.304090858E-1,9.274879456E0,1.714158297E0
1.981235113E0,7.232306600E-1,9.279664993E0,1.702194214E0
1.983612770E0,7.782655358E-1,9.282057762E0,1.663909078E0
1.985990478E0,7.926225066E-1,9.279664993E0,1.668694735E0
1.988368968E0,8.476574421E-1,9.274879456E0,1.651944876E0
1.990747405E0,8.644071817E-1,9.291629791E0,1.663909078E0
1.993125113E0,8.500502706E-1,9.262915611E0,1.642373681E0
1.995502822E0,8.644071817E-1,9.255737305E0,1.601396561E0
1.997881259E0,8.668000102E-1,9.250951767E0,1.582253933E0
2.000259749E0,8.787640929E-1,9.246166229E0,1.570289850E0
2.002637405E0,8.787640929E-1,9.241379738E0,1.565504193E0
2.005015113E0,8.596215248E-1,9.241379738E0,1.512862086E0
2.007393603E0,8.668000102E-1,9.241379738E0,1.486541033E0
2.009772093E0,8.763712645E-1,9.265308380E0,1.498505235E0
2.012149749E0,8.596215248E-1,9.262915611E0,1.469791293E0
2.014527457E0,8.763712645E-1,9.308379173E0,1.460219979E0
2.016905895E0,9.002995491E-1,9.365806580E0,1.445863128E0
2.019284384E0,9.002995491E-1,9.430413246E0,1.429113269E0
2.021662093E0,9.361918569E-1,9.466305733E0,1.390828133E0
2.024039801E0,9.409775138E-1,9.521340370E0,1.374078393E0
2.026418238E0,9.314061999E-1,9.597910881E0,1.350150228E0
2.028796728E0,9.385846853E-1,9.643374443E0,1.335793257E0
2.031174384E0,9.337990284E-1,9.707980156E0,1.326221943E0
2.033552093E0,9.577272534E-1,9.782457352E0,1.307079315E0
2.035930530E0,9.672985673E-1,9.801599503E0,1.304686546E0
2.038309020E0,9.601200819E-1,9.842277527E0,1.292722464E0
2.040686728E0,9.481559992E-1,9.870991707E0,1.309472203E0
2.043064436E0,9.433703423E-1,9.933204651E0,1.323829174E0
2.045442874E0,8.859425783E-1,9.928419113E0,1.316650629E0
2.047821363E0,8.955138922E-1,9.952347755E0,1.352542996E0
2.050199020E0,8.715856671E-1,1.003370380E1,1.328614831E0
2.052576728E0,8.883354068E-1,1.008634567E1,1.345364571E0
2.054955165E0,9.146564603E-1,1.011027431E1,1.338186026E0
2.057333655E0,9.098708034E-1,1.014855862E1,1.357328653E0
2.059711363E0,9.409775138E-1,1.017009449E1,1.354935765E0
2.062089072E0,9.361918569E-1,1.021555805E1,1.371685624E0
2.064467509E0,9.433703423E-1,1.023948669E1,1.366899967E0
2.066845999E0,9.481559992E-1,1.027537823E1,1.376471281E0
2.069223655E0,9.720842242E-1,1.031366348E1,1.417149186E0
2.071601363E0,9.864411354E-1,1.033789158E1,1.417149186E0
2.073979853E0,1.017547846E0,1.035942650E1,1.419542074E0
2.076358343E0,1.039083242E0,1.036899757E1,1.417149186E0
2.078735999E0,1.055832982E0,1.035224819E1,1.402792215E0
2.081113707E0,1.070189953E0,1.034746265E1,1.402792215E0
2.083492145E0,1.070189953E0,1.036421204E1,1.381256819E0
2.085870634E0,1.074975610E0,1.035224819E1,1.376471281E0
2.088248290E0,1.072582722E0,1.030887794E1,1.398006678E0
2.090625999E0,1.086939692E0,1.031605625E1,1.371685624E0
2.093004488E0,1.101296663E0,1.034267712E1,1.357328653E0
2.095382978E0,1.137188911E0,1.035464096E1,1.354935765E0
2.097760634E0,1.161117196E0,1.031605625E1,1.331007600E0
2.100138343E0,1.206879973E0,1.030648518E1,1.338186026E0
2.102516780E0,1.226022482E0,1.025623608E1,1.314257860E0
2.104895270E0,1.228415370E0,1.023470020E1,1.326221943E0
2.107272978E0,1.235593796E0,1.021795082E1,1.338186026E0
2.109650686E0,1.254736423E0,1.019162941E1,1.371685624E0
2.112029124E0,1.242772222E0,1.013898754E1,1.393221021E0
2.114407613E0,1.252343535E0,1.010788059E1,1.417149186E0
2.116785270E0,1.271486163E0,1.007438183E1,1.484148264E0
2.119162978E0,1.285843015E0,1.006480980E1,1.503290772E0
2.121541415E0,1.285843015E0,1.007438183E1,1.510469317E0
2.123919905E0,1.312164068E0,1.007677460E1,1.532004714E0
2.126297613E0,1.360020518E0,1.009830952E1,1.527219057E0
2.128675322E0,1.376770377E0,1.011027431E1,1.508076429E0
2.131053759E0,1.410269856E0,1.011505985E1,1.441077471E0
2.133432249E0,1.410269856E0,1.014855862E1,1.390828133E0
2.135809905E0,1.415055513E0,1.012702370E1,1.331007600E0
2.138187613E0,1.412662625E0,1.014855862E1,1.266401410E0
2.140566051E0,1.395912886E0,1.014138031E1,1.206580877E0
2.142944540E0,1.391127229E0,1.014377308E1,1.149153113E0
2.145322249E0,1.398305774E0,1.014616585E1,1.118046403E0
2.147699957E0,1.410269856E0,1.012702370E1,1.060618639E0
2.150078395E0,1.405484200E0,1.011266708E1,1.033998489E0
2.152456884E0,1.424626827E0,1.010309505E1,1.029212832E0
2.154834540E0,1.388734460E0,1.006241703E1,1.007677436E0
2.157212249E0,1.360020518E0,1.003609657E1,1.022034407E0
2.159590738E0,1.324128270E0,9.993025780E0,1.014855862E0
2.161969228E0,1.309771299E0,9.937990189E0,1.033998489E0
2.164346884E0,1.273878932E0,9.906884193E0,1.036391258E0
2.166724593E0,1.264307618E0,9.837491989E0,1.057926655E0
2.169103030E0,1.230808139E0,9.799206734E0,1.055533886E0
2.171481520E0,1.235593796E0,9.782457352E0,1.070189953E0
2.173859228E0,1.202094316E0,9.724730492E0,1.106082320E0
2.176236936E0,1.180558920E0,9.703194618E0,1.130010486E0
2.178615374E0,1.165902853E0,9.696016312E0,1.182652593E0
2.180993863E0,1.156331539E0,9.638588905E0,1.187438250E0
2.183371520E0,1.134796143E0,9.605089188E0,1.216152072E0
2.185749228E0,1.120439172E0,9.581160545E0,1.254437327E0
2.188127665E0,1.108475089E0,9.562018394E0,1.264008522E0
2.190506155E0,1.110867858E0,9.578767776E0,1.283151150E0
2.192883863E0,1.096511006E0,9.559625626E0,1.268794179E0
2.195261572E0,1.110867858E0,9.576375008E0,1.247258782E0
2.197640009E0,1.120439172E0,9.602696419E0,1.240080357E0
2.200018499E0,1.113260746E0,9.578767776E0,1.201795220E0
2.202396155E0,1.106082320E0,9.607481956E0,1.141974568E0
2.204773863E0,1.072582722E0,9.597910881E0,1.067797065E0
2.207152301E0,1.036690354E0,9.609874725E0,9.646066427E-1
2.209530790E0,1.015154958E0,9.590732574E0,9.191430211E-1
2.211908499E0,9.672985673E-1,9.554840088E0,8.976075649E-1
2.214286207E0,9.529415965E-1,9.566803932E0,8.401798606E-1
2.216664645E0,9.457631707E-1,9.576375008E0,8.138588071E-1
2.219043134E0,9.337990284E-1,9.578767776E0,8.042874932E-1
2.221420790E0,9.314061999E-1,9.590732574E0,7.827520967E-1
2.223798499E0,9.337990284E-1,9.600303650E0,7.827520967E-1
2.226176936E0,9.361918569E-1,9.607481956E0,8.066803217E-1
2.228555426E0,9.122636318E-1,9.602696419E0,8.377870321E-1
2.230933134E0,9.290133715E-1,9.612267494E0,8.353942037E-1
2.233310843E0,9.050851464E-1,9.607481956E0,8.784649968E-1
2.235689280E0,9.002995491E-1,9.600303650E0,8.952147961E-1
2.238067770E0,8.811569214E-1,9.614660263E0,9.167501926E-1
2.240445426E0,8.715856671E-1,9.605089188E0,9.430712461E-1
2.242823134E0,8.739784956E-1,9.624231339E0,9.717850685E-1
2.245201624E0,8.931210637E-1,9.621838570E0,9.693922997E-1
2.247580113E0,9.361918569E-1,9.629017830E0,9.406784177E-1
2.249957770E0,9.529415965E-1,9.612267494E0,9.167501926E-1
2.252335478E0,9.385846853E-1,9.636196136E0,8.545367718E-1
2.254713915E0,9.649057388E-1,9.607481956E0,8.330013752E-1
2.257092405E0,9.744769931E-1,9.585947037E0,7.803592682E-1
2.259470113E0,9.720842242E-1,9.576375008E0,7.612167001E-1
2.261847822E0,9.577272534E-1,9.550054550E0,7.277171612E-1
2.264226259E0,9.577272534E-1,9.456734657E0,6.750751138E-1
2.266604749E0,9.577272534E-1,9.499805450E0,6.726822853E-1
2.268982405E0,9.672985673E-1,9.523733139E0,6.655037999E-1
2.271360113E0,9.936196208E-1,9.547661781E0,7.277171612E-1
2.273738551E0,1.055832982E0,9.502198219E0,7.588238716E-1
2.276117040E0,1.089332461E0,9.504590988E0,8.066803217E-1
2.278494749E0,1.120439172E0,9.506983757E0,7.875377536E-1
2.280872457E0,1.122832060E0,9.528518677E0,8.353942037E-1
2.283250895E0,1.125224829E0,9.538089752E0,8.258228898E-1
2.285629384E0,1.146760225E0,9.564411163E0,8.018946648E-1
2.288007040E0,1.165902853E0,9.552447319E0,5.985047817E-1
2.290384749E0,1.165902853E0,9.674481392E0,1.196411345E-2
2.292763186E0,1.170688510E0,9.741479874E0,-1.342971772E-1
2.295141676E0,1.245165110E0,9.851848602E0,2.392822644E-3
2.297519384E0,1.407876968E0,9.918848038E0,2.488535494E-1
2.299897093E0,1.546660781E0,9.961918831E0,6.631109715E-1
2.302275530E0,1.644766450E0,1.000020409E1,1.094118118E0
2.304654020E0,1.697408557E0,1.003609657E1,1.405185103E0
2.307031676E0,1.740778446E0,1.007198906E1,1.709372640E0
2.309409384E0,1.743171334E0,1.008395290E1,2.001296997E0
2.311787874E0,1.747956991E0,1.008156013E1,2.248056889E0
2.314166363E0,1.728515267E0,1.009830952E1,2.439482689E0
2.316544020E0,1.697408557E0,1.005284595E1,2.590230465E0
2.318921728E0,1.659123421E0,9.959526062E0,2.736192703E0
2.321300165E0,1.582553029E0,9.899705887E0,2.777169704E0
2.323678655E0,1.496411443E0,9.777671814E0,2.784348249E0
2.326056311E0,1.388734460E0,9.660123825E0,2.784348249E0
2.328434020E0,1.290628672E0,9.571589470E0,2.774776936E0
2.330812509E0,1.240379453E0,9.518947601E0,2.688336134E0
2.333190999E0,1.161117196E0,9.492626190E0,2.673979282E0
2.335568655E0,1.153938770E0,9.435198784E0,2.621337175E0
2.337946363E0,1.146760225E0,9.454340935E0,2.547159672E0
2.340324801E0,1.165902853E0,9.451948166E0,2.413161755E0
2.342703290E0,1.199701428E0,9.447162628E0,2.257628202E0
2.345080999E0,1.230808139E0,9.511769295E0,2.104188442E0
2.347458707E0,1.259521961E0,9.597910881E0,1.812264085E0
2.349837145E0,1.276271820E0,9.674481392E0,1.656730533E0
2.352215634E0,1.338485122E0,9.746265411E0,7.588238716E-1
2.354593290E0,1.125224829E0,9.652945518E0,4.713860750E-1
2.356970999E0,1.084546804E0,9.533304214E0,7.444669604E-1
2.359349436E0,1.259521961E0,9.518947601E0,9.598209858E-1
2.361727926E0,1.364806175E0,9.607481956E0,1.014855862E0
2.364105634E0,1.403091431E0,9.691230774E0,1.199402332E0
2.366483343E0,1.477268934E0,9.492626190E0,1.872084618E0
2.368861780E0,1.738086581E0,9.224630356E0,1.692622900E0
2.371240270E0,1.618445396E0,9.234201431E0,1.333400369E0
2.373617926E0,1.312164068E0,9.475876808E0,8.521439433E-1
2.375995634E0,1.110867858E0,9.511769295E0,7.277171612E-1
2.378374072E0,1.237986565E0,9.530911446E0,8.138588071E-1
2.380752561E0,1.398305774E0,9.547661781E0,8.904291391E-1
2.383130270E0,1.517946839E0,9.528518677E0,1.065404296E0
2.385507978E0,1.726122379E0,9.456734657E0,1.378864050E0
2.387886415E0,1.968096614E0,9.435198784E0,1.316650629E0
2.390264905E0,1.984846354E0,9.384949684E0,1.098903775E0
2.392642561E0,1.913061738E0,9.418449402E0,6.463612318E-1
2.395020270E0,1.728515267E0,9.475876808E0,3.086741269E-1
2.397398759E0,1.628016710E0,9.456734657E0,7.896314561E-2
2.399777249E0,1.642373681E0,9.375378609E0,3.828516230E-2
2.402154905E0,1.692622900E0,9.227023125E0,-4.785645287E-3
2.404532613E0,1.733300924E0,9.406484604E0,1.579262912E-1
2.406911051E0,1.678265929E0,9.521340370E0,6.460621208E-2
2.409289540E0,1.704586983E0,9.490233421E0,1.244267747E-1
2.411667249E0,1.733300924E0,9.466305733E0,1.698904037E-1
2.414044957E0,1.767099500E0,9.480662346E0,2.991028428E-1
2.416423395E0,1.764706731E0,9.518947601E0,4.259224236E-1
2.418801884E0,1.762313843E0,9.461520195E0,4.809573591E-1
2.421179540E0,1.723729610E0,9.382556915E0,4.713860750E-1
2.423557249E0,1.654337764E0,9.492626190E0,5.051847100E-1
2.425935686E0,1.589731574E0,9.530911446E0,4.498506486E-1
2.428314176E0,1.561017632E0,9.495018959E0,4.235295951E-1
2.430691884E0,1.501197100E0,9.372985840E0,3.326023519E-1
2.433069593E0,1.403091431E0,9.277272224E0,2.392822653E-1
2.435448030E0,1.257129192E0,9.277272224E0,1.603191197E-1
2.437826520E0,1.134796143E0,9.308379173E0,1.100698411E-1
2.440204176E0,1.079761267E0,9.305986404E0,1.196411327E-1
2.442581884E0,1.077368379E0,9.320343018E0,1.435693651E-1
2.444960322E0,1.084546804E0,9.260522842E0,1.722832322E-1
2.447338811E0,1.039083242E0,9.554840088E0,1.698904037E-1
2.449716520E0,1.067797065E0,9.727123260E0,1.986042857E-1
2.452094228E0,1.182951689E0,9.662516594E0,1.698904037E-1
2.454472665E0,1.269093275E0,9.612267494E0,1.627119333E-1
2.456851155E0,1.206879973E0,9.686445236E0,1.674975902E-1
2.459228811E0,1.122832060E0,9.669695854E0,1.746760458E-1
2.461606520E0,1.019940615E0,9.763015747E0,1.483550072E-1
2.463985009E0,1.065404296E0,9.722337723E0,4.546362907E-2
2.466363499E0,1.161117196E0,9.724730492E0,-4.785645381E-2
2.468741155E0,1.209272742E0,9.662516594E0,-1.175474152E-1
2.471118863E0,1.202094316E0,9.569196701E0,-1.725823283E-1
2.473497301E0,1.158724308E0,9.456734657E0,-2.635096014E-1
2.475875790E0,1.165902853E0,9.351449966E0,-3.664009571E-1
2.478253499E0,1.130010486E0,9.200403214E0,-4.908277392E-1
2.480631207E0,1.015154958E0,8.896514893E0,-8.500502706E-1
2.483009645E0,9.672985673E-1,9.054440498E0,-6.969096065E-1
2.485388134E0,9.218349457E-1,9.246166229E0,-9.433703423E-1
2.487765790E0,1.003190875E0,9.365806580E0,-8.452646136E-1
2.490143499E0,1.098903775E0,9.377771378E0,-8.596215248E-1
2.492521936E0,1.108475089E0,9.282057762E0,-7.734799385E-1
2.494900426E0,1.089332461E0,9.236594200E0,-6.104688644E-1
2.497278134E0,9.266205430E-1,9.262915611E0,-5.003990531E-1
2.499655843E0,8.668000102E-1,9.301200867E0,-3.209373355E-1
2.502034280E0,8.069794178E-1,9.341878891E0,-3.017947674E-1
2.504412770E0,6.969096065E-1,9.334700584E0,-2.611167729E-1
2.506790426E0,6.370890141E-1,9.284450531E0,-1.677966863E-1
2.509168134E0,5.769693851E-1,9.346664429E0,-2.036890239E-1
2.511546572E0,5.769693851E-1,9.420842171E0,-3.137588799E-1
2.513925061E0,7.423732281E-1,9.294022560E0,-4.692923427E-1
2.516302770E0,7.902296782E-1,9.231808662E0,-5.291129351E-1
2.518680478E0,6.538388133E-1,9.349057198E0,-5.458626747E-1
2.521058915E0,4.573282301E-1,9.490233421E0,-6.897311211E-1
2.523437405E0,4.381856322E-1,9.454340935E0,-8.668000102E-1
2.525815113E0,4.932205677E-1,9.461520195E0,-9.074779749E-1
2.528192822E0,5.506483316E-1,9.392127991E0,-1.031904817E0
2.530571259E0,5.602195859E-1,9.430413246E0,-1.132403374E0
2.532949749E0,5.338985324E-1,9.528518677E0,-1.211665511E0
2.535327405E0,5.195416212E-1,9.523733139E0,-1.276271820E0
2.537705113E0,5.195416212E-1,9.416056633E0,-1.316949725E0
2.540083551E0,4.932205677E-1,9.439984322E0,-1.314556956E0
2.542462040E0,4.740779996E-1,9.475876808E0,-1.314556956E0
2.544839749E0,5.027918816E-1,9.483055115E0,-1.261914849E0
2.547217457E0,5.171487927E-1,9.384949684E0,-1.209272742E0
2.549595895E0,5.171487927E-1,9.349057198E0,-1.127617717E0
2.551974384E0,4.788636267E-1,9.279664993E0,-1.125224829E0
2.554352040E0,4.190430641E-1,9.181260109E0,-1.149153113E0
2.556729749E0,3.759722710E-1,9.095118523E0,-1.132403374E0
2.559108186E0,3.209373355E-1,9.049654961E0,-1.010369420E0
2.561486676E0,2.300100774E-1,9.032905579E0,-9.433703423E-1
2.563864384E0,1.223330572E-1,9.078369141E0,-1.015154958E0
2.566242093E0,1.390828192E-1,9.001798630E0,-1.144367456E0
2.568620530E0,1.845464408E-1,8.829515457E0,-1.108475089E0
2.570999020E0,1.247258782E-1,8.757730484E0,-8.572286963E-1
2.573376676E0,-9.332008660E-2,8.678768158E0,-1.003190875E0
2.575754384E0,-1.866401732E-1,8.642576218E0,-8.691928387E-1
2.578132874E0,-7.896314561E-2,9.047262192E0,-9.194421172E-1
2.580511363E0,9.361918271E-2,9.159725189E0,-8.165507317E-1
2.582889020E0,2.611167729E-1,9.339486122E0,-5.769693851E-1
2.585266728E0,3.592225015E-1,9.662516594E0,-4.860421121E-1
2.587645165E0,3.879363835E-1,9.847063065E0,-4.286143482E-1
2.590023655E0,3.999004960E-1,9.947562218E0,-4.549354017E-1
2.592401311E0,4.286143482E-1,1.006002426E1,-5.123631358E-1
2.594779020E0,4.645066857E-1,1.014616585E1,-6.275177598E-1
2.597157509E0,4.573282301E-1,1.015095139E1,-7.806583643E-1
2.599535999E0,3.759722710E-1,1.016770172E1,-9.266205430E-1
2.601913655E0,3.424727321E-1,1.015334511E1,-1.070189953E0
2.604291363E0,3.065803945E-1,1.010548782E1,-1.235593796E0
2.606669801E0,2.587239444E-1,1.009352398E1,-1.257129192E0
2.609048290E0,1.582254022E-1,1.014377308E1,-1.226022482E0
2.611425999E0,1.749751568E-1,1.010070229E1,-1.170688510E0
2.613803707E0,2.180459648E-1,1.010788059E1,-1.063011408E0
2.616182145E0,2.754737139E-1,1.009591675E1,-9.218349457E-1
2.618560634E0,2.682952285E-1,1.012941647E1,-7.591229677E-1
2.620938290E0,2.587239444E-1,1.011505985E1,-7.471588850E-1
2.623315999E0,2.036890239E-1,1.009113121E1,-7.447660565E-1
2.625694436E0,1.247258782E-1,1.008634567E1,-7.830511928E-1
2.628072926E0,5.772684515E-2,1.007916737E1,-8.572286963E-1
2.630450634E0,1.914258115E-2,1.002413273E1,-9.744769931E-1
2.632828343E0,-5.503492057E-2,9.940383911E0,-1.096511006E0
2.635206780E0,-1.220339537E-1,9.899705887E0,-1.185344458E0
2.637585270E0,-1.698904037E-1,1.003848934E1,-1.261914849E0
2.639962926E0,-1.890329868E-1,1.008873844E1,-1.281057477E0
2.642340634E0,-1.244267747E-1,1.007198906E1,-1.288235903E0
2.644719124E0,-8.853443712E-2,1.006959629E1,-1.297807217E0
2.647097613E0,-8.135596663E-2,1.012463093E1,-1.319342613E0
2.649475270E0,-8.135596663E-2,1.011984539E1,-1.343270779E0
2.651852978E0,-8.853443712E-2,1.013420200E1,-1.395912886E0
2.654231415E0,-1.124626622E-1,1.011505985E1,-1.522732496E0
2.656609905E0,-1.603191197E-1,1.012463093E1,-1.671087503E0
2.658987613E0,-1.914258152E-1,1.011027431E1,-1.805384636E0
2.661365322E0,-2.081755698E-1,1.013180923E1,-1.872383714E0
2.663743759E0,-2.033899277E-1,1.008395290E1,-1.910668850E0
2.666122249E0,-1.555334777E-1,1.022034359E1,-1.860419631E0
2.668499905E0,-1.196411327E-1,1.034985542E1,-1.793420553E0
2.670877613E0,-1.196411327E-1,1.025145054E1,-1.812563181E0
2.673256051E0,-1.292124242E-1,9.650552750E0,-2.025524378E0
2.675634540E0,-8.374879509E-2,1.040489006E1,-1.781456470E0
2.678012249E0,-4.307080805E-2,1.066092205E1,-1.716551185E0
2.680389957E0,1.893320978E-1,1.059392357E1,-1.374377489E0
2.682768395E0,4.286143482E-1,1.057478046E1,-1.269093275E0
2.685146884E0,5.171487927E-1,1.056999493E1,-1.151545882E0
2.687524540E0,5.075774789E-1,1.054606628E1,-1.091725349E0
2.689902249E0,4.453641176E-1,1.060588741E1,-1.055832982E0
2.692280686E0,3.831507266E-1,1.067767239E1,-1.060618639E0
2.694659176E0,3.735794425E-1,1.065613651E1,-1.108475089E0
2.697036884E0,3.376871049E-1,1.056999493E1,-1.228415370E0
2.699414593E0,3.305086195E-1,1.054367352E1,-1.290628672E0
2.701793030E0,2.946162820E-1,1.050299549E1,-1.288235903E0
2.704171520E0,1.821536273E-1,1.049581718E1,-1.252343535E0
2.706549176E0,1.127617657E-1,1.045513916E1,-1.254736423E0
2.708926884E0,6.011966988E-2,1.043599701E1,-1.247557878E0
2.711305374E0,9.571290575E-3,1.041685390E1,-1.288235903E0
2.713683863E0,7.178467698E-3,1.045274639E1,-1.362413406E0
2.716061520E0,3.110669367E-2,1.045513916E1,-1.367199063E0
2.718439228E0,9.571290575E-3,1.033789158E1,-1.431805253E0
2.720817665E0,-8.614161611E-2,1.028016472E1,-1.383948803E0
2.723196155E0,-1.914258152E-1,1.029212856E1,-1.278664589E0
2.725573863E0,-2.679961324E-1,1.033041382E1,-1.247557878E0
2.727951572E0,-2.201396823E-1,1.028973579E1,-1.326521039E0
2.730330009E0,-1.555334777E-1,1.035703373E1,-1.316949725E0
2.732708499E0,-7.657032460E-2,1.042164040E1,-1.312164068E0
2.735086155E0,-6.460621208E-2,1.040728283E1,-1.297807217E0
2.737463863E0,-4.785645381E-2,1.040489006E1,-1.266700506E0
2.739842301E0,-2.153540403E-2,1.044796085E1,-1.355234981E0
2.742220790E0,8.644071966E-2,1.043838978E1,-1.355234981E0
2.744598499E0,1.725823283E-1,1.034267712E1,-1.458126307E0
2.746976207E0,2.347957194E-1,1.041685390E1,-1.453340650E0
2.749354645E0,2.659024298E-1,1.053410244E1,-1.513161182E0
2.751733134E0,2.898306549E-1,1.042881870E1,-1.580160260E0
2.754110790E0,3.209373355E-1,1.032802105E1,-1.529910922E0
2.756488499E0,3.305086195E-1,1.019880867E1,-1.455733418E0
2.758866936E0,3.089732230E-1,1.010309505E1,-1.357627749E0
2.761245426E0,2.898306549E-1,1.008634567E1,-1.300199986E0
2.763623134E0,1.917249113E-1,1.006241703E1,-1.398305774E0
2.766000843E0,9.361918271E-2,1.003848934E1,-1.496411443E0
2.768379280E0,2.392822690E-2,9.952347755E0,-1.343270779E0
2.770757770E0,-1.172483116E-1,9.856635094E0,-1.391127229E0
2.773135478E0,-1.411765367E-1,1.004806042E1,-1.362413406E0
2.775513186E0,-9.092725813E-2,1.006959629E1,-1.395912886E0
2.777891624E0,-4.067798331E-2,1.009113121E1,-1.371984720E0
2.780270113E0,-5.024927482E-2,1.005284595E1,-1.431805253E0
2.782647770E0,-3.828516230E-2,9.890133858E0,-1.328913927E0
2.785025478E0,4.067798331E-2,9.854242325E0,-1.336092353E0
2.787403915E0,3.828516230E-2,9.921240807E0,-1.407876968E0
2.789782405E0,-3.349951655E-2,9.894919395E0,-1.434198022E0
2.792160113E0,-9.810572863E-2,9.684052467E0,-1.572981834E0
2.794537822E0,-3.110669367E-2,9.748658180E0,-1.563410521E0
2.796916259E0,6.490531564E-2,9.894919395E0,-1.580160260E0
2.799294749E0,-6.460621208E-2,9.310771942E0,-1.910668850E0
2.801672405E0,2.392822644E-3,8.769695282E0,-2.147558212E0
2.804050218E0,7.178467698E-3,9.782457352E0,-2.142772675E0
2.806428499E0,2.871387079E-2,1.018684387E1,-1.711765528E0
2.808806884E0,2.108674943E-1,1.029691410E1,-1.663909078E0
2.811184749E0,1.486541033E-1,9.928419113E0,-1.589731574E0
2.813562457E0,4.785645381E-2,9.573982239E0,-1.297807217E0
2.815940895E0,-3.110669367E-2,9.564411163E0,-9.601200819E-1
2.818319384E0,-6.221338734E-2,9.763015747E0,-9.768698215E-1
2.820697040E0,-1.363908947E-1,9.792028427E0,-1.072582722E0
2.823074749E0,-1.890329868E-1,9.743872643E0,-1.223629713E0
2.825453238E0,-1.124626622E-1,9.715159416E0,-1.352842093E0
2.827831728E0,-5.742774159E-2,9.727123260E0,-1.467697620E0
2.830209384E0,-5.503492057E-2,9.755837440E0,-1.508375525E0
2.832587093E0,-8.374879509E-2,9.741479874E0,-1.613659739E0
2.834965530E0,-1.244267747E-1,9.638588905E0,-1.699801445E0
2.837344020E0,-1.196411327E-1,9.562018394E0,-1.706979871E0
2.839721728E0,-1.268195957E-1,9.495018959E0,-1.728515267E0
2.842099436E0,-1.746760458E-1,9.344271660E0,-1.680658817E0
2.844477874E0,-1.938186288E-1,9.260522842E0,-1.599302888E0
2.846856363E0,-2.440679073E-1,9.356235504E0,-1.759921074E0
2.849234020E0,-3.589234054E-1,9.246166229E0,-1.613659739E0
2.851611728E0,-2.608176768E-1,9.152546883E0,-1.352842093E0
2.853990165E0,-2.153540403E-2,9.389735222E0,-9.936196208E-1
2.856368655E0,2.204387933E-1,9.456734657E0,-9.672985673E-1
2.858746363E0,3.400799036E-1,9.447162628E0,-1.024726272E0
2.861124072E0,3.233301640E-1,9.449555397E0,-1.096511006E0
2.863502509E0,3.281157911E-1,9.533304214E0,-1.194915771E0
2.865880999E0,2.276172489E-1,9.645767212E0,-1.455733418E0
2.868258655E0,1.319043487E-1,9.657731056E0,-1.541875124E0
2.870636363E0,1.247258782E-1,9.617053032E0,-1.522732496E0
2.873014801E0,1.414756328E-1,9.583553314E0,-1.496411443E0
2.875393290E0,4.546362907E-2,9.406484604E0,-1.532303810E0
2.877770999E0,9.571290575E-3,9.392127991E0,-1.436590910E0
2.880148707E0,-1.076770201E-1,9.502198219E0,-1.575374603E0
2.882527145E0,-4.929214716E-1,8.355437279E0,-2.204986095E0
2.884905634E0,-4.091726840E-1,8.551649094E0,-2.090130568E0
2.887283290E0,-5.554339290E-1,9.294022560E0,-1.791027784E0
2.889660999E0,-4.785645306E-1,9.487840652E0,-9.409775138E-1
2.892039488E0,-3.541377485E-1,9.166903496E0,-8.572286963E-1
2.894417978E0,-1.722832322E-1,9.078369141E0,-4.022932947E-1
2.896795634E0,6.969095767E-2,9.406484604E0,-2.922234535E-1
2.899173343E0,2.395813614E-1,9.669695854E0,-1.893320978E-1
2.901551780E0,2.419741899E-1,9.715159416E0,-2.730808854E-1
2.903930270E0,1.917249113E-1,9.684052467E0,-6.705885530E-1
2.906307978E0,1.175474152E-1,9.617053032E0,-8.476574421E-1
2.908685686E0,5.024927482E-2,9.595518112E0,-1.146760225E0
2.911064124E0,-1.674975827E-2,9.521340370E0,-1.407876968E0
2.913442613E0,-8.374879509E-2,9.368199348E0,-1.611266971E0
2.915820270E0,-1.411765367E-1,9.358628273E0,-1.666301847E0
2.918197978E0,-2.847459018E-1,9.485447884E0,-1.611266971E0
2.920576415E0,-3.397808075E-1,9.485447884E0,-1.362413406E0
2.922954905E0,-3.493520916E-1,9.178867340E0,-1.254736423E0
2.925332613E0,-2.943171859E-1,9.234201431E0,-1.247557878E0
2.927710322E0,-2.440679073E-1,9.317950249E0,-1.309771299E0
2.930088759E0,-1.866401732E-1,9.198010445E0,-1.264307618E0
2.932467249E0,-1.459621787E-1,9.028120041E0,-1.281057477E0
2.934844905E0,-2.368894368E-1,8.922835350E0,-1.192523003E0
2.937222613E0,-3.278166950E-1,8.941978455E0,-1.273878932E0
2.939601103E0,-3.421736360E-1,8.884550095E0,-1.249950767E0
2.941979593E0,-3.732803464E-1,8.908478737E0,-1.271486163E0
2.944357249E0,-4.354937077E-1,8.939585686E0,-1.230808139E0
2.946734957E0,-4.570291340E-1,8.970691681E0,-1.214058399E0
2.949113395E0,-5.243272781E-1,9.028120041E0,-1.125224829E0
2.951491884E0,-5.506483316E-1,8.999405861E0,-1.194915771E0
2.953869593E0,-4.833501875E-1,9.066405296E0,-1.237986565E0
2.956247301E0,-4.115654826E-1,9.162117958E0,-1.271486163E0
2.958625738E0,-4.570291340E-1,9.260522842E0,-1.235593796E0
2.961004228E0,-5.291129351E-1,9.437591553E0,-1.321735382E0
2.963381884E0,-5.410770178E-1,9.533304214E0,-1.405484200E0
2.965759593E0,-5.195416212E-1,9.621838570E0,-1.074975610E0
2.968138030E0,-4.546363056E-1,9.696016312E0,-9.960124493E-1
2.970516520E0,-2.584248483E-1,9.746265411E0,-9.266205430E-1
2.972894228E0,-2.249253243E-1,9.696016312E0,-1.055832982E0
2.975271936E0,-2.799602449E-1,9.530911446E0,-9.768698215E-1
2.977650374E0,-3.637090325E-1,9.516554832E0,-1.084546804E0
2.980028863E0,-4.570291340E-1,9.609874725E0,-1.297807217E0
2.982406520E0,-4.929214716E-1,9.640981674E0,-1.391127229E0
2.984784228E0,-5.051847100E-1,9.657731056E0,-1.496411443E0
2.987162665E0,-5.817549825E-1,9.571589470E0,-1.465304732E0
2.989541155E0,-6.296114326E-1,9.597910881E0,-1.254736423E0
2.991918863E0,-6.367899179E-1,9.648159981E0,-1.343270779E0
2.994296572E0,-6.463612318E-1,9.724730492E0,-1.297807217E0
2.996675009E0,-6.583253145E-1,9.792028427E0,-1.326521039E0
2.999053499E0,-7.133602500E-1,9.859027863E0,-1.422233939E0
3.001431155E0,-7.301099896E-1,9.904491425E0,-1.491625786E0
3.003808863E0,-7.540382147E-1,9.990633011E0,-1.513161182E0
3.006187353E0,-8.665009141E-1,1.007677460E1,-1.525125384E0
3.008565843E0,-9.430712461E-1,1.007198906E1,-1.529910922E0
3.010943499E0,-9.358927608E-1,1.003848934E1,-1.494018674E0
3.013321207E0,-9.047860503E-1,1.006241703E1,-1.484447360E0
3.015699645E0,-9.071788788E-1,1.012223816E1,-1.474876046E0
3.018078134E0,-1.031605721E0,1.007916737E1,-1.458126307E0
3.020455843E0,-1.146760225E0,1.003370380E1,-1.338485122E0
3.022833551E0,-1.175474167E0,1.000020409E1,-1.295414329E0
3.025211988E0,-1.187438250E0,9.916455269E0,-1.202094316E0
3.027590478E0,-1.120439172E0,9.861420631E0,-1.065404296E0
3.029968134E0,-1.072582722E0,9.794421196E0,-1.007976532E0
3.032345843E0,-1.053141117E0,9.710372925E0,-1.094118118E0
3.034724280E0,-1.012463093E0,9.741479874E0,-1.218844056E0
3.037102770E0,-1.012463093E0,9.724730492E0,-1.448554993E0
3.039480478E0,-1.041176915E0,9.696016312E0,-1.510768414E0
3.041858186E0,-1.115653515E0,9.667302132E0,-1.632802367E0
3.044236624E0,-1.170688510E0,9.643374443E0,-1.730908036E0
3.046615113E0,-1.271187067E0,9.576375008E0,-1.704586983E0
3.048992770E0,-1.374078393E0,9.473484039E0,-1.601695657E0
3.051370478E0,-1.448255897E0,9.447162628E0,-1.477268934E0
3.053748968E0,-1.472184181E0,9.502198219E0,-1.395912886E0
3.056127405E0,-1.445863128E0,9.514162064E0,-1.345663667E0
3.058505113E0,-1.457827210E0,9.583553314E0,-1.242772222E0
3.060882822E0,-1.524826288E0,9.717552185E0,-1.202094316E0
3.063261259E0,-1.584646821E0,9.552447319E0,-1.326521039E0
3.065639749E0,-1.718943954E0,9.387342453E0,-1.508375525E0
3.068017457E0,-1.826620936E0,9.322735786E0,-1.541875124E0
3.070395165E0,-1.508076429E0,1.011745262E1,-1.470090389E0
3.072773603E0,-1.287936807E0,1.031844902E1,-1.101296663E0
3.075152093E0,-1.067797065E0,1.028973579E1,-9.361918569E-1
3.077529749E0,-1.033998489E0,1.016052341E1,-9.170492887E-1
3.079907457E0,-1.118046403E0,1.014855862E1,-9.625129104E-1
3.082285895E0,-1.242473125E0,1.019641590E1,-1.029511929E0
3.084664384E0,-1.275972724E0,1.022512913E1,-1.125224829E0
3.087042093E0,-1.280758262E0,1.023709393E1,-1.242772222E0
3.089419801E0,-1.285543919E0,1.011027431E1,-1.381555915E0
3.091798238E0,-1.321436286E0,1.007438183E1,-1.484447360E0
3.094176728E0,-1.395613790E0,1.006959629E1,-1.527518153E0
3.096554384E0,-1.429113269E0,9.947562218E0,-1.484447360E0
3.098932093E0,-1.476969719E0,9.890133858E0,-1.434198022E0
3.101310530E0,-1.493719578E0,9.780064583E0,-1.443769336E0
3.103689020E0,-1.721336842E0,9.236594200E0,-1.613659739E0
3.106066728E0,-2.063510418E0,8.977870941E0,-1.505982757E0
3.108444436E0,-1.843370795E0,9.734301567E0,-1.443769336E0
3.110822874E0,-1.704586983E0,9.911669731E0,-1.101296663E0
3.113201363E0,-1.553540111E0,9.866206169E0,-8.309076428E-1
3.115579020E0,-1.436291814E0,9.700801849E0,-7.806583643E-1
3.117956728E0,-1.500898004E0,9.492626190E0,-7.567301393E-1
3.120335218E0,-1.579861164E0,9.456734657E0,-6.705885530E-1
3.122713707E0,-1.668694735E0,9.516554832E0,-6.586244106E-1
3.125091363E0,-1.666301847E0,9.707980156E0,-7.112665176E-1
3.127469072E0,-1.690230131E0,9.935597420E0,-7.328019142E-1
3.129847509E0,-1.704586983E0,9.902098656E0,-8.739784956E-1
3.132225999E0,-1.738086581E0,9.866206169E0,-9.002995491E-1
3.134603707E0,-1.776371717E0,9.890133858E0,-9.457631707E-1
3.136981415E0,-1.814656854E0,9.705587387E0,-1.022333503E0
3.139359853E0,-1.891227245E0,9.571589470E0,-1.046261668E0
3.141738343E0,-1.927119493E0,9.588339806E0,-1.115653515E0
3.144115999E0,-1.960619092E0,9.724730492E0,-1.156331539E0
3.146493707E0,-1.974975944E0,9.820742607E0,-1.168295622E0
3.148872145E0,-1.955833435E0,9.859027863E0,-1.173081279E0
3.151250634E0,-1.991725802E0,9.751050949E0,-1.204487085E0
3.153628343E0,-1.974975944E0,9.693623543E0,-1.149153113E0
3.156006051E0,-2.001296997E0,9.674481392E0,-1.091725349E0
3.158384488E0,-1.965404749E0,9.693623543E0,-1.019940615E0
3.160762978E0,-1.905584097E0,9.707980156E0,-9.337990284E-1
3.163140634E0,-1.879263043E0,9.731908798E0,-9.146564603E-1
3.165518343E0,-1.900798440E0,9.734301567E0,-8.787640929E-1
3.167896780E0,-1.874477386E0,9.715159416E0,-8.620143533E-1
3.170275270E0,-1.893620014E0,9.734301567E0,-7.686942816E-1
3.172652978E0,-1.936690807E0,9.662516594E0,-7.591229677E-1
3.175030686E0,-2.001296997E0,9.564411163E0,-7.758727670E-1
3.177409124E0,-2.070688963E0,9.528518677E0,-7.926225066E-1
3.179787613E0,-2.073081732E0,9.509376526E0,-7.758727670E-1
3.182165270E0,-2.065903187E0,9.396913528E0,-8.117650747E-1
3.184542978E0,-2.030010939E0,9.375378609E0,-7.447660565E-1
3.186921468E0,-1.955833435E0,9.435198784E0,-6.394818425E-1
3.189299957E0,-1.900798440E0,9.535696983E0,-6.128616929E-1
3.191677613E0,-1.896012783E0,9.643374443E0,-5.721837282E-1
3.194055322E0,-1.874477386E0,9.617053032E0,-5.721837282E-1
3.196433759E0,-1.845763564E0,9.650552750E0,-5.482555032E-1
3.198812249E0,-1.735693693E0,9.921240807E0,-6.251249462E-2
3.201189957E0,-1.433898926E0,1.027059269E1,4.666004181E-1
3.203567665E0,-1.144367456E0,1.054845905E1,3.014956415E-1
3.205946103E0,-1.057926655E0,1.078056335E1,6.699903309E-2
3.208324593E0,-9.909276962E-1,1.100578785E1,-1.941177398E-1
3.210702249E0,-9.502496719E-1,1.118046379E1,-3.161516786E-1
3.213079957E0,-9.765707254E-1,1.117567825E1,-2.611167729E-1
3.215458395E0,-9.885348678E-1,1.110389328E1,-2.994019389E-1
3.217836884E0,-9.263214469E-1,1.111107159E1,-3.879363835E-1
3.220214593E0,-8.928219676E-1,1.111346436E1,-1.486541033E-1
3.222592301E0,-8.306085467E-1,1.086191940E1,8.374879509E-2
3.224970738E0,-8.210372925E-1,1.045035362E1,-5.982056633E-2
3.227349228E0,-9.478568435E-1,1.017488003E1,-3.496512175E-1
3.229726884E0,-1.194616675E0,1.016530895E1,-3.975076675E-1
3.232104593E0,-1.374078393E0,1.023709393E1,-2.012962103E-1
3.234483082E0,-1.424327731E0,1.023470020E1,-1.127617657E-1
3.236861572E0,-1.472184181E0,1.034267712E1,-2.108674943E-1
3.239239228E0,-1.570289850E0,1.044796085E1,-3.089732230E-1
3.241616936E0,-1.620539188E0,1.031127071E1,-2.611167729E-1
3.243995374E0,-1.575075507E0,1.017009449E1,-3.448655605E-1
3.246373863E0,-1.618146300E0,1.014138031E1,-6.801598072E-1
3.248751572E0,-1.826620936E0,1.016770172E1,-9.314061999E-1
3.251129280E0,-1.922333837E0,1.034028435E1,-7.830511928E-1
3.253507718E0,-2.018046856E0,1.042642593E1,-8.189435601E-1
3.255886207E0,-2.034796476E0,1.055085278E1,-7.734799385E-1
3.258263863E0,-1.951047778E0,1.063699436E1,-6.705885530E-1
3.260641572E0,-1.936690807E0,1.052692413E1,-5.123631358E-1
3.263020009E0,-1.874477386E0,1.046710396E1,-3.855435550E-1
3.265398499E0,-1.829013824E0,1.044078255E1,-2.874378264E-1
3.267776207E0,-1.946262121E0,1.030648518E1,-3.352942765E-1
3.270153915E0,-2.113759756E0,1.024187946E1,-3.687937856E-1
3.272532353E0,-2.142473459E0,1.039292622E1,-2.539383173E-1
3.274910843E0,-1.919941068E0,1.061785126E1,-1.797607988E-1
3.277288499E0,-1.457827210E0,1.089302635E1,-1.606182158E-1
3.279666207E0,-1.048355460E0,1.104168034E1,-2.012962103E-1
3.282044697E0,-8.258228898E-1,1.113500023E1,-2.395813614E-1
3.284423186E0,-8.593224287E-1,1.114457130E1,-2.682952285E-1
3.286800843E0,-1.038784146E0,1.081167030E1,-5.673980713E-1
3.289178551E0,-1.235294700E0,1.036660480E1,-7.184450030E-1
3.291556988E0,-1.800299883E0,1.040728283E1,-1.342971772E-1
3.293935478E0,-1.960619092E0,1.060110188E1,-1.079761237E-1
3.296313186E0,-1.939083695E0,1.051256752E1,-6.969095767E-2
3.298690895E0,-1.807478428E0,9.887741089E0,3.517449200E-1
3.301069332E0,-1.618146300E0,8.764909744E0,1.024427176E0
3.303447822E0,-1.666301847E0,8.067999840E0,1.770688742E-1
3.305825478E0,-1.963011861E0,8.530113220E0,-1.340878010E0
3.308203186E0,-2.195414782E0,8.946763992E0,-1.125224829E0
3.310581624E0,-2.264806747E0,8.879764557E0,-6.056832075E-1
3.312960113E0,-2.257628202E0,8.405686378E0,-5.171487927E-1
3.315337822E0,-2.216950178E0,8.010572433E0,-1.271187067E-1
3.317715530E0,-2.245664120E0,7.816753387E0,3.254238665E-1
3.320093968E0,-2.255235434E0,7.646862984E0,3.326023519E-1
3.322472457E0,-2.281556368E0,7.440781116E0,2.871387303E-1
3.324850113E0,-2.257628202E0,7.450352192E0,3.110669367E-2
3.327227822E0,-2.260020971E0,7.761718273E0,-1.079761237E-1
3.329606259E0,-2.243271112E0,8.144868851E0,-2.300100774E-1
3.331984749E0,-2.226521492E0,8.341080666E0,-4.310071766E-1
3.334362457E0,-2.207378864E0,8.365009308E0,-4.573282301E-1
3.336740165E0,-2.154437780E0,8.479864120E0,-3.017947674E-1
3.339118603E0,-2.082653046E0,8.625826836E0,-1.749751568E-1
3.341497093E0,-2.003689766E0,8.736195564E0,-1.247258782E-1
3.343874749E0,-1.948654890E0,8.781659126E0,-1.893320978E-1
3.346252457E0,-1.857727647E0,8.901300430E0,-3.400799036E-1
3.348630947E0,-1.840977907E0,9.001798630E0,-4.286143482E-1
3.351009436E0,-1.919941068E0,9.128618240E0,-4.453641176E-1
3.353387093E0,-1.965404749E0,9.215059280E0,-5.291129351E-1
3.355764801E0,-1.965404749E0,9.339486122E0,-6.080760360E-1
3.358143238E0,-1.876870275E0,9.461520195E0,-7.064808607E-1
3.360521728E0,-1.776371717E0,9.499805450E0,-8.069794178E-1
3.362899436E0,-1.675873160E0,9.607481956E0,-6.681957245E-1
3.365277145E0,-1.536790371E0,9.743872643E0,-6.586244106E-1
3.367655582E0,-1.347757339E0,9.961918831E0,-6.897311211E-1
3.370034072E0,-1.256830096E0,1.007438183E1,-6.681957245E-1
3.372411728E0,-1.041176915E0,1.026819992E1,-7.806583643E-1
3.374789436E0,-9.478568435E-1,1.032802105E1,-7.399803996E-1
3.377167874E0,-7.851449251E-1,1.051496029E1,-9.505487680E-1
3.379546363E0,-7.851449251E-1,1.073031425E1,-7.950153351E-1
3.381924072E0,-8.258228898E-1,1.071834946E1,-4.118646085E-1
3.384301780E0,-7.205387354E-1,1.053170967E1,-4.046861231E-1
3.386680218E0,-6.272186637E-1,1.036660480E1,-6.251249313E-1
3.389058707E0,-6.320042610E-1,1.025623608E1,-8.141579032E-1
3.391436363E0,-7.707880139E-1,1.023470020E1,-9.122636318E-1
3.393814072E0,-8.784649968E-1,1.025862885E1,-1.218844056E0
3.396192561E0,-9.933205247E-1,1.028973579E1,-1.398305774E0
3.398571051E0,-1.163509965E0,1.032084274E1,-1.371984720E0
3.400948707E0,-1.240080357E0,1.031844902E1,-1.623231053E0
3.403326415E0,-1.299900889E0,1.037378311E1,-1.637588024E0
3.405704853E0,-1.424327731E0,1.032323551E1,-1.403091431E0
3.408083343E0,-1.491326690E0,1.018923664E1,-1.374377489E0
3.410461051E0,-1.555932879E0,1.006002426E1,-1.537089467E0
3.412838759E0,-1.630409479E0,1.008156013E1,-1.549053550E0
3.415217197E0,-1.723729610E0,1.006002426E1,-1.606481314E0
3.417595686E0,-1.783550143E0,1.009830952E1,-1.596910000E0
3.419973343E0,-1.850549221E0,1.012223816E1,-1.472483277E0
3.422351051E0,-1.819442511E0,1.013659477E1,-1.307378531E0
3.424729488E0,-1.678265929E0,1.021316528E1,-1.343270779E0
3.427107978E0,-1.603789330E0,1.033549786E1,-1.130010486E0
3.429485686E0,-1.728515267E0,1.026102161E1,-6.538388133E-1
3.431863395E0,-1.730908036E0,9.995418549E0,-3.137588799E-1
3.434241832E0,-1.654337764E0,9.736694336E0,-2.826521695E-1
3.436620322E0,-1.553540111E0,9.542876244E0,-3.329014480E-1
3.438997978E0,-1.424327731E0,9.466305733E0,-4.477569461E-1
3.441375686E0,-1.357328653E0,9.506983757E0,-7.184450030E-1
3.443754176E0,-1.232901812E0,9.715159416E0,-9.768698215E-1
3.446132613E0,-1.211366415E0,9.983454704E0,-1.034297585E0
3.448510322E0,-1.412363529E0,9.880562782E0,-8.285148144E-1
3.450888030E0,-1.656730533E0,9.447162628E0,-6.370890141E-1
3.453266468E0,-1.644766450E0,9.224630356E0,-7.926225066E-1
3.455644957E0,-1.479362607E0,9.298808098E0,-1.060618639E0
3.458022665E0,-1.462612867E0,9.411270142E0,-7.926225066E-1
3.460400374E0,-1.302293777E0,9.396913528E0,-7.495517135E-1
3.462778811E0,-1.146760225E0,9.499805450E0,-7.758727670E-1
3.465157301E0,-1.127617717E0,9.643374443E0,-6.681957245E-1
3.467534957E0,-1.110867858E0,9.760622978E0,-7.375875711E-1
3.469912665E0,-1.084546804E0,9.878170013E0,-8.524430394E-1
3.472291103E0,-1.038784146E0,9.918848038E0,-7.208378315E-1
3.474669593E0,-1.118046403E0,9.808777809E0,-4.357928336E-1
3.477047301E0,-1.089332461E0,9.521340370E0,-1.893320978E-1
3.479425009E0,-9.622138143E-1,9.001798630E0,-2.347957194E-1
3.481803447E0,-7.564310431E-1,9.375378609E0,-1.194915771E0
3.484181936E0,-8.593224287E-1,9.643374443E0,-7.495517135E-1
3.486559593E0,-8.832506537E-1,9.495018959E0,-9.337990284E-1
3.488937301E0,-8.042874932E-1,9.480662346E0,-9.720842242E-1
3.491315738E0,-1.890329868E-1,8.293224335E0,-2.698206663E0
3.493694228E0,-1.024427176E0,8.290831566E0,-9.433703423E-1
3.496071936E0,-1.067797065E0,8.973084450E0,-2.946162820E-1
3.498449645E0,-9.957132936E-1,9.518947601E0,-3.544368446E-1
3.500828082E0,-8.353942037E-1,1.006959629E1,-6.921239495E-1
3.503206572E0,-8.569296002E-1,1.058435154E1,-8.979067206E-1
3.505584228E0,-7.971090674E-1,1.086909771E1,-1.108475089E0
3.507961936E0,-6.511468887E-1,1.088106155E1,-1.165902853E0
3.510340426E0,-5.769693851E-1,1.084516907E1,-1.177866936E0
3.512718915E0,-5.024927258E-1,1.092203903E1,-1.106082320E0
3.515096572E0,-4.977070987E-1,1.081167030E1,-8.907282352E-1
3.517474280E0,-4.211367965E-1,1.057956600E1,-5.506483316E-1
3.519852718E0,-3.469592929E-1,1.020598698E1,-7.519445419E-1
3.522231207E0,-4.666004181E-1,9.942776680E0,-9.553344250E-1
3.524608915E0,-7.325028181E-1,9.648159981E0,-1.331306696E0
3.526986624E0,-9.981061220E-1,9.325128555E0,-1.190130115E0
3.529365061E0,-1.149153113E0,9.109476089E0,-1.125224829E0
3.531743551E0,-1.213759303E0,8.946763992E0,-1.395912886E0
3.534121207E0,-1.254437327E0,8.913264275E0,-1.795813441E0
3.536498915E0,-1.350150228E0,8.886942863E0,-2.140379906E0
3.538877353E0,-1.541576028E0,9.020941734E0,-2.066202402E0
3.541255843E0,-1.635195136E0,9.227023125E0,-1.850848317E0
3.543633551E0,-1.656730533E0,9.317950249E0,-1.592124343E0
3.546011259E0,-1.628016710E0,9.416056633E0,-1.177866936E0
3.548389697E0,-1.603789330E0,9.461520195E0,-1.328913927E0
3.550768186E0,-1.666301847E0,9.411270142E0,-1.661516190E0
3.553145843E0,-1.783550143E0,9.202795982E0,-1.869990945E0
3.555523551E0,-1.867298961E0,9.083154678E0,-1.908276081E0
3.557902040E0,-2.070688963E0,8.819944382E0,-2.195414782E0
3.560280530E0,-2.250449657E0,8.714659691E0,-2.221735716E0
3.562658186E0,-2.391626120E0,8.776873589E0,-2.312962294E0
3.565035895E0,-2.437089920E0,8.975478172E0,-2.207378864E0
3.567414332E0,-2.396411896E0,9.301200867E0,-1.805384636E0
3.569792822E0,-2.281556368E0,9.600303650E0,-1.415055513E0
3.572170530E0,-2.111366987E0,9.789635658E0,-1.122832060E0
3.574548238E0,-1.931905150E0,1.009352398E1,-9.672985673E-1
3.576926676E0,-1.656730533E0,1.026819992E1,-1.170688510E0
3.579305165E0,-1.386042476E0,1.055324554E1,-1.259521961E0
3.581682822E0,-1.153938770E0,1.086909771E1,-9.146564603E-1
3.584060530E0,-9.789635539E-1,1.120678520E1,-5.937191248E-1
3.586438968E0,-7.707880139E-1,1.132403278E1,-4.836492836E-1
3.588817457E0,-5.482555032E-1,1.121874905E1,-5.171487927E-1
3.591195165E0,-4.163511395E-1,1.126660538E1,-5.913262963E-1
3.593572874E0,-3.493520916E-1,1.129771233E1,-7.232306600E-1
3.595951311E0,-3.948157430E-1,1.128335476E1,-7.639086246E-1
3.598329801E0,-4.785645306E-1,1.129053402E1,-7.998009920E-1
3.600707457E0,-5.147559643E-1,1.127617645E1,-7.758727670E-1
3.603085165E0,-5.243272781E-1,1.134796143E1,-6.490531564E-1
3.605463655E0,-5.243272781E-1,1.131924725E1,-5.650052428E-1
3.607842093E0,-4.187439680E-1,1.112303638E1,-4.046861231E-1
3.610219801E0,-3.613162339E-1,1.092203903E1,-2.898306549E-1
3.612597509E0,-3.397808075E-1,1.072552872E1,-8.165507019E-2
3.614975947E0,-2.536391914E-1,1.061067295E1,2.081755698E-1
3.617354436E0,-2.057827413E-1,1.035942650E1,2.895315289E-1
3.619732145E0,-2.488535494E-1,1.002652550E1,2.153540403E-1
3.622109853E0,-3.828516304E-1,9.707980156E0,4.546362907E-2
3.624488290E0,-5.626124144E-1,9.320343018E0,-1.701895148E-1
3.626866780E0,-6.678966284E-1,9.054440498E0,-2.563311160E-1
3.629244436E0,-8.042874932E-1,8.906085968E0,-2.084746659E-1
3.631622145E0,-8.617152572E-1,8.863015175E0,-1.582254022E-1
3.634000582E0,-8.928219676E-1,8.853444099E0,-8.165507019E-2
3.636379072E0,-8.760721684E-1,8.908478737E0,-7.447660714E-2
3.638756780E0,-8.377870321E-1,8.930013657E0,9.092725813E-2
3.641134488E0,-7.540382147E-1,8.980263710E0,1.483550072E-1
3.643512926E0,-7.037889361E-1,8.922835350E0,6.699903309E-2
3.645891415E0,-6.918248534E-1,8.836693764E0,-1.435693540E-2
3.648269072E0,-6.894320250E-1,8.913264275E0,-3.110669367E-2
3.650646780E0,-7.420741320E-1,8.941978455E0,-2.635096014E-1
3.653025218E0,-8.928219676E-1,8.922835350E0,-4.310071766E-1
3.655403707E0,-9.693922997E-1,8.975478172E0,-5.291129351E-1
3.657781415E0,-1.000499010E0,9.047262192E0,-6.224330068E-1
3.660159124E0,-9.981061220E-1,8.934800148E0,-6.825526357E-1
3.662537561E0,-1.115653515E0,8.843872070E0,-6.514459848E-1
3.664916051E0,-1.173081279E0,8.958727837E0,-4.549354017E-1
3.667293759E0,-1.177866936E0,9.231808662E0,-3.017947674E-1
3.669671468E0,-1.208973646E0,9.451948166E0,-2.778665423E-1
3.672049905E0,-1.156331539E0,9.655338287E0,-2.012962103E-1
3.674428395E0,-1.055533886E0,9.868598938E0,-1.893320978E-1
3.676806051E0,-9.741778970E-1,9.978668213E0,-2.563311160E-1
3.679183759E0,-8.880363107E-1,1.002891827E1,-4.214358926E-1
3.681562197E0,-8.617152572E-1,1.004806042E1,-5.793621540E-1
3.683940686E0,-8.162516356E-1,1.008634567E1,-6.514459848E-1
3.686318395E0,-8.258228898E-1,1.017009449E1,-7.447660565E-1
3.688696103E0,-9.167501926E-1,1.018684387E1,-7.375875711E-1
3.691074540E0,-9.263214469E-1,1.019162941E1,-7.639086246E-1
3.693453030E0,-9.478568435E-1,1.016770172E1,-8.309076428E-1
3.695830686E0,-1.022034407E0,1.012223816E1,-8.117650747E-1
3.698208395E0,-1.024427176E0,1.006959629E1,-7.495517135E-1
3.700586832E0,-9.909276962E-1,9.933204651E0,-7.734799385E-1
3.702965322E0,-1.019641519E0,9.851848602E0,-8.045865893E-1
3.705343030E0,-9.550353289E-1,9.928419113E0,-8.285148144E-1
3.707720738E0,-8.976075649E-1,1.002173901E1,-7.854440212E-1
3.710099176E0,-8.210372925E-1,1.013898754E1,-7.088736892E-1
3.712477665E0,-7.851449251E-1,1.007438183E1,-7.663014531E-1
3.714855322E0,-8.234301209E-1,9.959526062E0,-7.782655358E-1
3.717233030E0,-8.760721684E-1,9.892526627E0,-7.782655358E-1
3.719611520E0,-8.617152572E-1,9.892526627E0,-8.045865893E-1
3.721990009E0,-9.000003934E-1,9.739087105E0,-7.806583643E-1
3.724367665E0,-8.784649968E-1,9.593125343E0,-8.045865893E-1
3.726745374E0,-8.258228898E-1,9.463912964E0,-7.902296782E-1
3.729123811E0,-8.282157183E-1,9.492626190E0,-7.974081635E-1
3.731502301E0,-8.282157183E-1,9.523733139E0,-8.572286963E-1
3.733880009E0,-7.923234105E-1,9.516554832E0,-8.811569214E-1
3.736257718E0,-7.707880139E-1,9.523733139E0,-8.021938205E-1
3.738636155E0,-7.779664397E-1,9.542876244E0,-7.615157962E-1
3.741014645E0,-7.779664397E-1,9.487840652E0,-6.849454641E-1
3.743392301E0,-7.133602500E-1,9.480662346E0,-6.729813814E-1
3.745770009E0,-6.774678826E-1,9.475876808E0,-6.777670383E-1
3.748148447E0,-6.631109715E-1,9.451948166E0,-6.777670383E-1
3.750526936E0,-6.678966284E-1,9.432806015E0,-6.921239495E-1
3.752904645E0,-6.559324861E-1,9.473484039E0,-7.639086246E-1
3.755282353E0,-6.272186637E-1,9.609874725E0,-8.165507317E-1
3.757660790E0,-5.530411601E-1,9.672088623E0,-9.074779749E-1
3.760039280E0,-4.809573591E-1,9.739087105E0,-1.048654556E0
3.762416936E0,-4.809573591E-1,9.789635658E0,-1.130010486E0
3.764794645E0,-4.666004181E-1,9.914062500E0,-1.240379453E0
3.767173134E0,-3.780659735E-1,1.002413273E1,-1.218844056E0
3.769551624E0,-3.014956415E-1,1.018205833E1,-1.233201027E0
3.771929280E0,-2.201396823E-1,1.036421204E1,-1.202094316E0
3.774306988E0,-1.196411327E-1,1.050060272E1,-1.173081279E0
3.776685426E0,-9.092725813E-2,1.048146057E1,-1.141974568E0
3.779063915E0,-6.221338734E-2,1.040489006E1,-1.096511006E0
3.781441624E0,-8.853443712E-2,1.038335514E1,-9.960124493E-1
3.783819332E0,-6.460621208E-2,1.034267712E1,-9.840483069E-1
3.786197770E0,1.196411345E-2,1.037139034E1,-9.529415965E-1
3.788576259E0,-2.392822644E-3,1.037139034E1,-8.668000102E-1
3.790953915E0,-8.374879509E-2,1.024427223E1,-8.476574421E-1
3.793331624E0,-1.651047617E-1,1.005523872E1,-8.333004713E-1
3.795710061E0,-1.339980662E-1,9.964311600E0,-7.830511928E-1
3.798088551E0,-9.571290761E-2,1.000020409E1,-7.734799385E-1
3.800466259E0,-5.024927482E-2,9.971489906E0,-8.835497499E-1
3.802843968E0,-7.178468257E-2,1.000259686E1,-9.696913958E-1
3.805222405E0,-8.135596663E-2,1.013659477E1,-9.481559992E-1
3.807600895E0,-7.896314561E-2,1.030648518E1,-9.529415965E-1
3.809978551E0,-6.460621208E-2,1.038574791E1,-9.720842242E-1
3.812356259E0,-6.699903309E-2,1.036899757E1,-9.912267923E-1
3.814734749E0,-1.196411345E-2,1.044078255E1,-1.024726272E0
3.817113238E0,4.307080805E-2,1.048863888E1,-1.010369420E0
3.819490895E0,1.674975827E-2,1.046471119E1,-1.000798106E0
3.821868603E0,-2.392822644E-3,1.047428226E1,-9.170492887E-1
3.824247040E0,-3.589234129E-2,1.038574791E1,-8.811569214E-1
3.826625530E0,-6.939185411E-2,1.027777100E1,-8.261220455E-1
3.829003238E0,-8.614161611E-2,1.012463093E1,-7.591229677E-1
3.831380947E0,-9.571290761E-2,1.008395290E1,-7.710871100E-1
3.833759384E0,-9.571290761E-2,1.006720352E1,-7.567301393E-1
3.836137874E0,-1.196411327E-1,1.001456070E1,-7.615157962E-1
3.838515530E0,-1.555334777E-1,9.978668213E0,-7.519445419E-1
3.840893238E0,-2.129612118E-1,9.803992271E0,-7.686942816E-1
3.843271676E0,-2.488535494E-1,9.688838005E0,-7.639086246E-1
3.845650165E0,-2.536391914E-1,9.631410599E0,-7.351947427E-1
3.848027874E0,-2.321037948E-1,9.573982239E0,-7.208378315E-1
3.850405582E0,-2.536391914E-1,9.506983757E0,-6.873382926E-1
3.852784020E0,-2.847459018E-1,9.475876808E0,-6.945167780E-1
3.855162509E0,-2.321037948E-1,9.463912964E0,-6.921239495E-1
3.857540165E0,-2.249253243E-1,9.413662910E0,-7.088736892E-1
3.859917874E0,-2.344966233E-1,9.368199348E0,-6.825526357E-1
3.862296363E0,-2.392822653E-1,9.303593636E0,-7.016952634E-1
3.864674853E0,-2.297109663E-1,9.236594200E0,-6.490531564E-1
3.867052509E0,-2.392822653E-1,9.279664993E0,-5.697908998E-1
3.869430218E0,-2.201396823E-1,9.255737305E0,-5.841478109E-1
3.871808655E0,-1.770688742E-1,9.274879456E0,-5.673980713E-1
3.874187145E0,-1.435693651E-1,9.380164146E0,-5.937191248E-1
3.876564853E0,-1.196411327E-1,9.497411728E0,-7.112665176E-1
3.878942561E0,-1.244267747E-1,9.607481956E0,-8.356932998E-1
3.881320999E0,-9.092725813E-2,9.679266930E0,-7.663014531E-1
3.883699488E0,-5.982056633E-2,9.686445236E0,-6.176473498E-1
3.886077145E0,-5.742774159E-2,9.741479874E0,-6.705885530E-1
3.888454853E0,-6.460621208E-2,9.772586823E0,-8.572286963E-1
3.890833290E0,-9.571290761E-2,9.707980156E0,-9.218349457E-1
3.893211780E0,-1.435693651E-1,9.657731056E0,-9.625129104E-1
3.895589488E0,-2.033899277E-1,9.734301567E0,-9.720842242E-1
3.897967197E0,-2.656033039E-1,9.803992271E0,-9.936196208E-1
3.900345634E0,-2.344966233E-1,9.830313683E0,-9.792626500E-1
3.902724124E0,-2.225325108E-1,9.777671814E0,-9.649057388E-1
3.905101780E0,-2.536391914E-1,9.722337723E0,-9.146564603E-1
3.907479488E0,-2.823530734E-1,9.703194618E0,-8.668000102E-1
3.909857978E0,-2.919243574E-1,9.588339806E0,-7.758727670E-1
3.912236415E0,-2.823530734E-1,9.506983757E0,-7.495517135E-1
3.914614124E0,-3.373879790E-1,9.528518677E0,-7.615157962E-1
3.916991832E0,-3.996013701E-1,9.459127426E0,-7.256234884E-1
3.919370270E0,-5.410770178E-1,9.202795982E0,-6.969096065E-1
3.921748759E0,-5.506483316E-1,9.111868858E0,-6.538388133E-1
3.924126468E0,-4.977070987E-1,9.102297783E0,-6.128616929E-1
3.926504176E0,-4.785645306E-1,9.205188751E0,-5.793621540E-1
3.928882613E0,-4.426721931E-1,9.305986404E0,-5.386841893E-1
3.931261103E0,-4.689932466E-1,9.346664429E0,-5.410770178E-1
3.933638759E0,-4.689932466E-1,9.346664429E0,-5.937191248E-1
3.936016468E0,-4.977070987E-1,9.351449966E0,-6.200401783E-1
3.938394905E0,-4.618147612E-1,9.361021042E0,-7.734799385E-1
3.940773395E0,-4.163511395E-1,9.418449402E0,-7.734799385E-1
3.943151103E0,-4.259224236E-1,9.435198784E0,-7.663014531E-1
3.945528811E0,-4.211367965E-1,9.475876808E0,-7.543373108E-1
3.947907249E0,-4.163511395E-1,9.499805450E0,-7.184450030E-1
3.950285738E0,-3.876372576E-1,9.538089752E0,-7.495517135E-1
3.952663447E0,-4.091726840E-1,9.585947037E0,-7.974081635E-1
3.955041155E0,-3.876372576E-1,9.593125343E0,-8.835497499E-1
3.957419593E0,-3.158525825E-1,9.698409081E0,-8.955138922E-1
3.959798030E0,-3.326023519E-1,9.765408516E0,-8.572286963E-1
3.962175738E0,-3.086741269E-1,9.818349838E0,-8.500502706E-1
3.964553447E0,-2.823530734E-1,9.746265411E0,-8.213363886E-1
3.966931884E0,-2.703889608E-1,9.719944954E0,-7.950153351E-1
3.969310374E0,-2.488535494E-1,9.823135376E0,-7.495517135E-1
3.971688082E0,-2.033899277E-1,9.849455833E0,-7.567301393E-1
3.974065790E0,-1.268195957E-1,9.935597420E0,-8.093722463E-1
3.976444228E0,-6.460621208E-2,1.002173901E1,-8.739784956E-1
3.978822718E0,-1.196411345E-2,1.011745262E1,-8.189435601E-1
3.981200374E0,2.871387079E-2,1.015334511E1,-7.567301393E-1
3.983578082E0,-1.674975827E-2,1.018205833E1,-7.447660565E-1
3.985956520E0,-5.503492057E-2,1.010548782E1,-8.141579032E-1
3.988335009E0,-1.172483116E-1,1.001456070E1,-9.026923180E-1
3.990712718E0,-1.220339537E-1,1.001456070E1,-8.907282352E-1
3.993090426E0,-1.603191197E-1,1.002173901E1,-7.806583643E-1
3.995468863E0,-2.129612118E-1,1.004327488E1,-6.490531564E-1
3.997847353E0,-1.722832322E-1,1.001216793E1,-5.171487927E-1
4.000225009E0,-1.842473447E-1,9.930811882E0,-4.645066857E-1
4.002602718E0,-1.818545163E-1,9.880562782E0,-4.334000051E-1
4.004981207E0,-2.033899277E-1,9.770194054E0,-4.142574072E-1
4.007359697E0,-1.674975902E-1,9.676874161E0,-5.243272781E-1
4.009737353E0,-2.153540403E-1,9.729516029E0,-5.482555032E-1
4.012115061E0,-2.847459018E-1,9.770194054E0,-5.051847100E-1
4.014493499E0,-2.967100143E-1,9.823135376E0,-5.626124144E-1
4.016871988E0,-2.871387303E-1,9.890133858E0,-6.490531564E-1
4.019249697E0,-2.392822653E-1,9.976275444E0,-7.399803996E-1
4.021627405E0,-2.632105052E-1,1.003609657E1,-7.088736892E-1
4.024005843E0,-2.536391914E-1,1.001456070E1,-7.639086246E-1
4.026384332E0,-2.703889608E-1,9.981060982E0,-8.644071817E-1
4.028761988E0,-2.656033039E-1,9.923633575E0,-8.117650747E-1
4.031139697E0,-2.727817893E-1,9.949954987E0,-8.261220455E-1
4.033518134E0,-2.416750938E-1,1.001695347E1,-7.447660565E-1
4.035896624E0,-2.177468538E-1,1.006959629E1,-6.705885530E-1
4.038274332E0,-2.177468538E-1,1.013180923E1,-6.370890141E-1
4.040652040E0,-2.153540403E-1,1.013180923E1,-6.753742099E-1
4.043030478E0,-1.962114573E-1,1.011027431E1,-7.160521746E-1
4.045408968E0,-1.627119333E-1,1.003370380E1,-5.889334679E-1
4.047786624E0,-1.363908947E-1,9.863813400E0,-5.841478109E-1
4.050164332E0,-1.531406492E-1,9.863813400E0,-5.075774789E-1
4.052542822E0,-1.435693651E-1,9.878170013E0,-5.913262963E-1
4.054921311E0,-2.033899277E-1,9.894919395E0,-7.256234884E-1
4.057298968E0,-1.627119333E-1,9.959526062E0,-7.423732281E-1
4.059676676E0,-1.387837082E-1,1.004088211E1,-8.141579032E-1
4.062055113E0,-1.076770201E-1,1.013659477E1,-8.189435601E-1
4.064433603E0,-8.135596663E-2,1.014616585E1,-7.710871100E-1
4.066811311E0,-1.076770201E-1,1.016291618E1,-8.333004713E-1
4.069189020E0,-1.004985496E-1,1.023948669E1,-8.979067206E-1
4.071567457E0,-6.699903309E-2,1.029452133E1,-9.529415965E-1
4.073945947E0,-2.871387079E-2,1.031605625E1,-9.361918569E-1
4.076323603E0,-3.589234129E-2,1.027059269E1,-9.074779749E-1
4.078701311E0,-1.196411345E-2,1.028734303E1,-8.261220455E-1
4.081079801E0,-3.828516230E-2,1.034506989E1,-7.399803996E-1
4.083458290E0,-4.785645287E-3,1.038814068E1,-6.825526357E-1
4.085835947E0,-3.589234129E-2,1.023230743E1,-6.610172391E-1
4.088213655E0,-9.092725813E-2,1.017488003E1,-6.586244106E-1
4.090592093E0,-1.651047617E-1,1.008395290E1,-6.729813814E-1
4.092970582E0,-1.914258152E-1,1.003609657E1,-6.897311211E-1
4.095348238E0,-2.584248483E-1,9.921240807E0,-7.064808607E-1
4.097725947E0,-3.014956415E-1,9.772586823E0,-7.686942816E-1
4.100104436E0,-2.751746178E-1,9.787242889E0,-7.399803996E-1
4.102482926E0,-2.895315289E-1,9.796813965E0,-6.969096065E-1
4.104860582E0,-3.110669553E-1,9.873384476E0,-7.639086246E-1
4.107238290E0,-3.062812984E-1,9.885348320E0,-7.184450030E-1
4.109616728E0,-2.703889608E-1,9.914062500E0,-7.830511928E-1
4.111995218E0,-2.105683982E-1,9.993025780E0,-8.500502706E-1
4.114372926E0,-2.033899277E-1,1.006002426E1,-8.907282352E-1
4.116750634E0,-1.746760458E-1,1.008873844E1,-9.290133715E-1
4.119129072E0,-1.627119333E-1,1.016052341E1,-9.170492887E-1
4.121507561E0,-9.810572863E-2,1.021077251E1,-8.811569214E-1
4.123885218E0,-1.651047617E-1,1.012463093E1,-9.337990284E-1
4.126262926E0,-2.368894368E-1,1.003131104E1,-9.050851464E-1
4.128641415E0,-2.225325108E-1,1.003131104E1,-8.620143533E-1
4.131019905E0,-1.962114573E-1,9.959526062E0,-8.428717852E-1
4.133397561E0,-1.698904037E-1,9.978668213E0,-8.045865893E-1
4.135775270E0,-1.220339537E-1,1.005763149E1,-7.136593461E-1
4.138153707E0,-4.067798331E-2,9.983454704E0,-6.490531564E-1
4.140532197E0,-2.392822644E-3,9.892526627E0,-5.482555032E-1
4.142909905E0,2.153540403E-2,9.806385040E0,-4.668995142E-1
4.145287613E0,-1.555334777E-1,9.712766647E0,-5.099703074E-1
4.147666051E0,-2.129612118E-1,9.650552750E0,-5.291129351E-1
4.150044540E0,-2.488535494E-1,9.600303650E0,-4.884349108E-1
4.152422197E0,-2.775674164E-1,9.511769295E0,-5.099703074E-1
4.154799905E0,-2.368894368E-1,9.490233421E0,-5.099703074E-1
4.157178343E0,-1.986042857E-1,9.521340370E0,-4.908277392E-1
4.159556832E0,-1.938186288E-1,9.502198219E0,-4.860421121E-1
4.161934540E0,-1.459621787E-1,9.619445801E0,-4.286143482E-1
4.164312249E0,-1.459621787E-1,9.746265411E0,-4.429712892E-1
4.166690686E0,-5.264209956E-2,9.854242325E0,-4.884349108E-1
4.169069176E0,2.392822690E-2,9.916455269E0,-5.243272781E-1
4.171446832E0,5.024927482E-2,9.969097137E0,-5.626124144E-1
4.173824540E0,2.632104978E-2,9.978668213E0,-6.200401783E-1
4.176203030E0,4.307080805E-2,1.004327488E1,-5.841478109E-1
4.178581520E0,4.785645381E-2,1.005045319E1,-5.650052428E-1
4.180959176E0,8.404789865E-2,1.008156013E1,-6.538388133E-1
4.183336884E0,2.443670183E-1,1.031605625E1,-6.514459848E-1
4.185715322E0,2.204387933E-1,1.030169964E1,-7.304090858E-1
4.188093811E0,1.630110443E-1,1.035224819E1,-6.825526357E-1
4.190471520E0,-1.674975827E-2,1.023230743E1,-6.849454641E-1
4.192849228E0,8.404789865E-2,1.043360424E1,-5.865406394E-1
4.195227665E0,-1.244267747E-1,1.016052341E1,-7.016952634E-1
4.197606155E0,3.329014480E-1,1.068963623E1,-3.687937856E-1
4.199983811E0,5.024927482E-2,1.038335514E1,-5.243272781E-1
4.202361520E0,-4.857429862E-1,9.643374443E0,-9.744769931E-1
4.204739957E0,6.251249462E-2,1.047428226E1,-4.525425732E-1
4.207118447E0,3.807578981E-1,1.103450203E1,-2.682952285E-1
4.209496155E0,3.783650696E-1,1.104646587E1,-5.003990531E-1
4.211873863E0,2.467598319E-1,1.089811039E1,-6.418746710E-1
4.214252301E0,9.361918271E-2,1.068245792E1,-8.356932998E-1
4.216630790E0,-4.642075896E-1,1.011984539E1,-1.214058399E0
4.219008447E0,-1.342971683E0,8.870193481E0,-1.637588024E0
4.221386155E0,-4.785645306E-1,9.289237022E0,-4.716851711E-1
4.223764645E0,2.156531364E-1,1.014377308E1,3.780659735E-1
4.226143134E0,1.821536273E-1,1.037856865E1,5.264209956E-2
4.228520790E0,-4.881358147E-1,9.861420631E0,-6.969096065E-1
4.230898499E0,-1.666301847E0,8.274081230E0,-1.695015788E0
4.233276936E0,-3.948157430E-1,9.154939651E0,-1.677966863E-1
4.235655426E0,3.233301640E-1,9.993025780E0,6.942176819E-1
4.238033134E0,-9.143573642E-1,9.047262192E0,-6.969096065E-1
4.240410843E0,-7.899305820E-1,7.878966808E0,-7.280163169E-1
4.242789280E0,-7.133602500E-1,7.526922703E0,1.962114573E-1
4.245167770E0,-1.237687469E0,7.711469173E0,5.458626747E-1
4.247545426E0,-1.237687469E0,7.780860901E0,4.354937077E-1
4.249923134E0,-1.249651670E0,7.833503246E0,4.713860750E-1
4.252301624E0,-1.383649707E0,7.706683636E0,1.148554832E-1
4.254680061E0,-1.292722464E0,7.661220074E0,-1.558325738E-1
4.257057770E0,-1.094118118E0,7.814360619E0,-3.711866140E-1
4.259435478E0,-8.880363107E-1,8.015357971E0,-3.065803945E-1
4.261813915E0,-7.420741320E-1,8.226224899E0,-3.879363835E-1
4.264192405E0,-6.296114326E-1,8.429615021E0,-3.568296731E-1
4.266570061E0,-6.296114326E-1,8.410472870E0,-2.060818523E-1
4.268947770E0,-5.482555032E-1,8.455936432E0,-2.443670183E-1
4.271326259E0,-2.129612118E-1,8.482256889E0,-2.228316069E-1
4.273704749E0,-1.435693540E-2,8.601898193E0,-1.438684613E-1
4.276082405E0,1.797607988E-1,8.678768158E0,-7.447660714E-2
4.278460113E0,1.749751568E-1,8.724231720E0,-2.012962103E-1
4.280838551E0,2.084746659E-1,8.831908226E0,-3.017947674E-1
4.283217040E0,3.185445070E-1,8.807980537E0,-5.027918816E-1
4.285594749E0,3.089732230E-1,8.839086533E0,-7.016952634E-1
4.287972457E0,4.070789516E-1,9.008976936E0,-8.811569214E-1
4.290350895E0,4.381856322E-1,9.217452049E0,-1.216451168E0
4.292729384E0,5.219344497E-1,9.463912964E0,-1.438983679E0
4.295107040E0,6.801598072E-1,9.652945518E0,-2.111665964E0
4.297484749E0,8.931210637E-1,9.914062500E0,-2.279163599E0
4.299863186E0,9.337990284E-1,1.024427223E1,-1.340878010E0
4.302241676E0,9.385846853E-1,1.031844902E1,-2.778665423E-1
4.304619384E0,9.696913958E-1,1.045274639E1,2.656033039E-1
4.306997093E0,8.189435601E-1,1.033549786E1,5.099703074E-1
4.309375530E0,8.835497499E-1,1.034985542E1,4.546363056E-1
4.311754020E0,8.596215248E-1,1.037378311E1,2.105683982E-1
4.314131728E0,6.152545214E-1,1.020837975E1,-1.701895148E-1
4.316509436E0,3.927220106E-1,1.029212856E1,-5.721837282E-1
4.318887874E0,3.065803945E-1,1.045274639E1,-8.213363886E-1
4.321266363E0,3.783650696E-1,1.042881870E1,-1.127617717E0
4.323644020E0,5.243272781E-1,1.016291618E1,-1.395912886E0
4.326021728E0,8.021938205E-1,1.006959629E1,-1.525125384E0
4.328400165E0,8.500502706E-1,1.015334511E1,-1.453340650E0
4.330778655E0,7.184450030E-1,1.014855862E1,-1.348056436E0
4.333156363E0,6.080760360E-1,9.942776680E0,-1.295414329E0
4.335534072E0,4.884349108E-1,9.796813965E0,-1.293021560E0
4.337912509E0,4.597210586E-1,9.772586823E0,-1.237986565E0
4.340290999E0,5.362913609E-1,9.818349838E0,-1.273878932E0
4.342668655E0,5.697908998E-1,9.715159416E0,-1.331306696E0
4.345046363E0,5.841478109E-1,9.792028427E0,-1.333699465E0
4.347424853E0,6.323033571E-1,9.875777245E0,-1.247557878E0
4.349803343E0,6.490531564E-1,9.652945518E0,-1.228415370E0
4.352180999E0,6.897311211E-1,9.384949684E0,-1.165902853E0
4.354558707E0,7.758727670E-1,9.150154114E0,-1.127617717E0
4.356937145E0,8.237292171E-1,8.987442017E0,-1.113260746E0
4.359315634E0,7.998009920E-1,9.095118523E0,-1.051047325E0
4.361693343E0,8.428717852E-1,9.231808662E0,-9.553344250E-1
4.364071155E0,7.519445419E-1,9.282057762E0,-9.050851464E-1
4.366449436E0,5.602195859E-1,9.444769859E0,-8.021938205E-1
4.368827770E0,5.386841893E-1,9.667302132E0,-8.907282352E-1
4.371205634E0,5.051847100E-1,9.983454704E0,-9.696913958E-1
4.373583343E0,5.243272781E-1,1.019162941E1,-1.005583763E0
4.375961780E0,5.386841893E-1,1.048146057E1,-1.015154958E0
4.378340270E0,6.490531564E-1,1.085234833E1,-1.070189953E0
4.380717978E0,8.261220455E-1,1.112303638E1,-1.146760225E0
4.383095686E0,9.122636318E-1,1.131206894E1,-1.031904817E0
4.385474124E0,9.290133715E-1,1.139342499E1,-1.051047325E0
4.387852613E0,9.170492887E-1,1.147747326E1,-1.237986565E0
4.390230270E0,9.314061999E-1,1.146790123E1,-1.264307618E0
4.392607978E0,8.237292171E-1,1.144128132E1,-1.190130115E0
4.394986468E0,7.064808607E-1,1.141017437E1,-1.362413406E0
4.397364957E0,6.370890141E-1,1.134796143E1,-1.367199063E0
4.399742613E0,6.442674994E-1,1.141735363E1,-1.343270779E0
4.402120322E0,6.394818425E-1,1.159232807E1,-1.371984720E0
4.404498759E0,6.825526357E-1,1.178375435E1,-1.529910922E0
4.406877249E0,7.351947427E-1,1.205444241E1,-1.584945917E0
4.409254957E0,9.266205430E-1,1.215494061E1,-1.470090389E0
4.411632665E0,8.715856671E-1,1.216451168E1,-1.393520117E0
4.414011103E0,7.591229677E-1,1.195364475E1,-1.362413406E0
4.416389593E0,6.610172391E-1,1.175025463E1,-1.371984720E0
4.418767249E0,5.386841893E-1,1.157318592E1,-1.331306696E0
4.421144957E0,3.616153300E-1,1.137428284E1,-1.209272742E0
4.423523395E0,2.539383173E-1,1.096989536E1,-1.053440213E0
4.425901884E0,3.041875660E-1,1.059870911E1,-9.002995491E-1
4.428279593E0,3.281157911E-1,1.028016472E1,-7.974081635E-1
4.430657301E0,3.185445070E-1,1.003370380E1,-7.926225066E-1
4.433035738E0,3.711866140E-1,9.875777245E0,-7.686942816E-1
4.435414228E0,3.352942765E-1,9.729516029E0,-7.328019142E-1
4.437791884E0,1.582254022E-1,8.681160927E0,-6.705885530E-1
4.440169593E0,6.008976102E-1,9.238986969E0,-6.466603279E-1
4.442548082E0,1.797607988E-1,9.478269577E0,-4.908277392E-1
4.444926572E0,9.361918271E-2,9.660123825E0,-4.310071766E-1
4.447304228E0,-5.264209956E-2,9.784850121E0,-4.166502357E-1
4.449681936E0,-1.004985496E-1,9.890133858E0,-4.286143482E-1
4.452060374E0,-8.853443712E-2,9.990633011E0,-4.645066857E-1
4.454438863E0,-5.503492057E-2,1.007677460E1,-4.860421121E-1
4.456816572E0,-8.282157183E-1,9.461520195E0,-1.051047325E0
4.459194280E0,-1.122832060E0,8.501399994E0,-1.226022482E0
4.461572718E0,2.228316069E-1,9.178867340E0,-2.252244353E-1
4.463951207E0,9.553344250E-1,1.010548782E1,6.224330068E-1
4.466328863E0,8.045865893E-1,1.037856865E1,4.163511395E-1
4.468706572E0,4.453641176E-1,1.033549786E1,-1.295115203E-1
4.471085061E0,1.510469317E-1,1.041206837E1,-5.291129351E-1
4.473463551E0,-1.220339537E-1,1.062502956E1,-5.793621540E-1
4.475841207E0,-3.038884699E-1,1.073270702E1,-5.578267574E-1
4.478218915E0,-4.929214716E-1,1.073031425E1,-4.094717801E-1
4.480597353E0,-3.589234054E-1,1.051496029E1,-3.568296731E-1
4.482975843E0,-3.589234129E-2,1.027537823E1,-3.951148391E-1
4.485353551E0,1.031904742E-1,1.006241703E1,-5.195416212E-1
4.487731259E0,1.773679852E-1,9.921240807E0,-5.697908998E-1
4.490109697E0,1.582254022E-1,9.830313683E0,-6.008976102E-1
4.492488186E0,1.127617657E-1,9.782457352E0,-5.530411601E-1
4.494865843E0,6.490531564E-2,9.780064583E0,-5.362913609E-1
4.497243551E0,5.024927482E-2,9.820742607E0,-5.697908998E-1
4.499621988E0,3.110669367E-2,9.849455833E0,-5.841478109E-1
4.502000478E0,0.000000000E0,9.918848038E0,-5.937191248E-1
4.504378186E0,1.435693540E-2,9.935597420E0,-6.080760360E-1
4.506755895E0,0.000000000E0,9.933204651E0,-5.841478109E-1
4.509134332E0,-2.392822644E-3,9.902098656E0,-5.889334679E-1
4.511512822E0,-1.674975827E-2,9.911669731E0,-5.721837282E-1
4.513890478E0,-7.178467698E-3,9.899705887E0,-5.913262963E-1
4.516268186E0,0.000000000E0,9.904491425E0,-5.673980713E-1
4.518646676E0,2.392822690E-2,9.899705887E0,-5.865406394E-1
4.521025165E0,4.546362907E-2,9.882955551E0,-5.961119533E-1
4.523402822E0,4.307080805E-2,9.885348320E0,-6.370890141E-1
4.525780530E0,6.490531564E-2,9.902098656E0,-6.490531564E-1
4.528158968E0,6.969095767E-2,9.873384476E0,-6.777670383E-1
4.530537457E0,7.686942816E-2,9.825528145E0,-6.801598072E-1
4.532915165E0,3.589234129E-2,9.696016312E0,-7.232306600E-1
4.535292874E0,-1.268195957E-1,8.707481384E0,-7.591229677E-1
4.537671311E0,7.615157962E-1,7.886145115E0,-9.290133715E-1
4.540049801E0,5.027918816E-1,8.575576782E0,-6.921239495E-1
4.542427457E0,-3.110669367E-2,9.166903496E0,-3.879363835E-1
4.544805165E0,-2.009970993E-1,9.588339806E0,-3.281157911E-1
4.547183655E0,-1.674975902E-1,9.796813965E0,-3.807578981E-1
4.549562093E0,-8.135596663E-2,9.878170013E0,-5.267201066E-1
4.551939801E0,-1.108475089E0,7.914859295E0,-1.055832982E0
4.554317509E0,-8.521439433E-1,7.522137165E0,-1.122832060E0
4.556695947E0,4.812564552E-1,8.625826836E0,1.028913707E-1
4.559074436E0,9.481559992E-1,9.602696419E0,3.876372576E-1
4.561452145E0,3.927220106E-1,9.439984322E0,-3.113660514E-1
4.563829853E0,-6.822535396E-1,8.348258972E0,-1.297807217E0
4.566208290E0,-3.828516230E-2,9.004191399E0,-7.351947427E-1
4.568586780E0,-7.178467698E-3,9.042476654E0,-5.626124144E-1
4.570964436E0,-9.092725813E-2,9.064012527E0,-6.370890141E-1
4.573342145E0,4.067798331E-2,9.152546883E0,-4.549354017E-1
4.575720582E0,7.926224917E-2,9.248558998E0,-4.405784607E-1
4.578099072E0,1.151545867E-1,9.361021042E0,-4.860421121E-1
4.580476780E0,8.165507019E-2,9.428020477E0,-4.501497746E-1
4.582854488E0,1.582254022E-1,9.530911446E0,-4.429712892E-1
4.585232926E0,1.677966863E-1,9.607481956E0,-4.692923427E-1
4.587611415E0,3.352942765E-1,9.442377090E0,-4.788636267E-1
4.589989072E0,2.108674943E-1,9.473484039E0,-4.429712892E-1
4.592366780E0,5.772684515E-2,9.916455269E0,-5.027918816E-1
4.594745218E0,2.754737139E-1,1.001695347E1,-7.734799385E-1
4.597123707E0,3.233301640E-1,1.005763149E1,-8.835497499E-1
4.599501415E0,4.334000051E-1,1.016770172E1,-8.500502706E-1
4.601879124E0,4.812564552E-1,1.009830952E1,-7.519445419E-1
4.604257561E0,5.362913609E-1,1.017727280E1,-8.045865893E-1
4.606636051E0,4.740779996E-1,1.018684387E1,-8.500502706E-1
4.609013759E0,4.022932947E-1,1.017727280E1,-8.620143533E-1
4.611391468E0,4.286143482E-1,1.025862885E1,-7.998009920E-1
4.613769905E0,3.855435550E-1,1.018684387E1,-7.974081635E-1
4.616148395E0,3.927220106E-1,1.010309505E1,-7.806583643E-1
4.618526051E0,4.549354017E-1,1.015334511E1,-8.093722463E-1
4.620903759E0,4.692923427E-1,1.006959629E1,-8.524430394E-1
4.623282197E0,4.788636267E-1,1.006002426E1,-8.524430394E-1
4.625660686E0,4.812564552E-1,1.010070229E1,-8.644071817E-1
4.628038395E0,4.477569461E-1,1.011745262E1,-8.668000102E-1
4.630416103E0,4.310071766E-1,1.022512913E1,-9.098708034E-1
4.632794540E0,3.831507266E-1,1.005045319E1,-9.840483069E-1
4.635173030E0,4.118646085E-1,1.013180923E1,-9.649057388E-1
4.637550686E0,4.357928336E-1,1.031605625E1,-9.170492887E-1
4.639928395E0,4.262215197E-1,1.049342442E1,-9.457631707E-1
4.642306884E0,3.951148391E-1,1.055563831E1,-9.625129104E-1
4.644685322E0,3.879363835E-1,1.061067295E1,-9.433703423E-1
4.647063030E0,3.711866140E-1,1.072313595E1,-9.314061999E-1
4.649440738E0,3.329014480E-1,1.090289593E1,-8.452646136E-1
4.651819176E0,2.060818523E-1,1.085713387E1,-7.974081635E-1
4.654197665E0,1.941177398E-1,1.065135098E1,-7.758727670E-1
4.656575374E0,2.850449979E-1,1.044317532E1,-7.567301393E-1
4.658953082E0,3.233301640E-1,1.026341438E1,-7.543373108E-1
4.661331520E0,3.687937856E-1,1.009352398E1,-7.208378315E-1
4.663710009E0,3.735794425E-1,9.945169449E0,-6.801598072E-1
4.666087665E0,3.472583890E-1,9.823135376E0,-6.729813814E-1
4.668465374E0,3.209373355E-1,9.758230209E0,-6.729813814E-1
4.670843811E0,3.065803945E-1,9.691230774E0,-6.945167780E-1
4.673222301E0,3.927220106E-1,9.578767776E0,-7.423732281E-1
4.675600009E0,5.745765567E-1,9.475876808E0,-7.686942816E-1
4.677977718E0,1.582254022E-1,8.446364403E0,-5.985047817E-1
4.680356155E0,4.453641176E-1,7.874181271E0,-7.160521746E-1
4.682734645E0,3.137588799E-1,8.762516975E0,-4.836492836E-1
4.685112301E0,9.361918271E-2,8.886942863E0,-4.549354017E-1
4.687490009E0,1.821536273E-1,9.382556915E0,-3.855435550E-1
4.689868499E0,3.376871049E-1,9.710372925E0,-4.716851711E-1
4.692246988E0,5.503492057E-2,8.219046593E0,2.009970993E-1
4.694624645E0,1.914258115E-2,8.190332413E0,-2.060818523E-1
4.697002353E0,2.898306549E-1,9.166903496E0,-6.873382926E-1
4.699380790E0,5.650052428E-1,9.164510727E0,-1.063011408E0
4.701759280E0,5.506483316E-1,9.075976372E0,-5.961119533E-1
4.704136988E0,1.055833027E-1,9.748658180E0,-5.721837282E-1
4.706514697E0,1.319043487E-1,1.020120144E1,-9.337990284E-1
4.708893134E0,2.347957194E-1,1.049103165E1,-9.170492887E-1
4.711271624E0,4.142574072E-1,1.054845905E1,-7.926225066E-1
4.713649280E0,4.621138871E-1,1.057956600E1,-5.937191248E-1
4.716026988E0,5.291129351E-1,1.057717323E1,-5.961119533E-1
4.718405426E0,6.179464459E-1,1.073988533E1,-6.634100676E-1
4.720783915E0,5.913262963E-1,1.073509979E1,-7.064808607E-1
4.723161624E0,4.334000051E-1,1.042881870E1,-7.208378315E-1
4.725539332E0,4.908277392E-1,1.049103165E1,-6.921239495E-1
4.727917770E0,5.362913609E-1,1.056760216E1,-8.021938205E-1
4.730296259E0,5.697908998E-1,1.089063358E1,-7.615157962E-1
4.732673968E0,3.807578981E-1,1.089571762E1,-8.141579032E-1
4.735051676E0,2.970091105E-1,1.064177990E1,-8.045865893E-1
4.737430113E0,3.496512175E-1,1.036421204E1,-8.213363886E-1
4.739808603E0,4.118646085E-1,1.018684387E1,-8.404789567E-1
4.742186259E0,4.334000051E-1,1.007198906E1,-8.165507317E-1
4.744563968E0,4.836492836E-1,1.000977516E1,-7.830511928E-1
4.746942405E0,4.477569461E-1,9.914062500E0,-7.974081635E-1
4.749320895E0,4.477569461E-1,9.863813400E0,-8.213363886E-1
4.751698603E0,4.764707983E-1,9.801599503E0,-8.476574421E-1
4.754076311E0,6.634100676E-1,9.679266930E0,-8.931210637E-1
4.756454749E0,7.136593461E-1,9.693623543E0,-9.984052777E-1
4.758833238E0,4.477569461E-1,9.854242325E0,-8.811569214E-1
4.761210895E0,4.166502357E-1,9.897313118E0,-7.328019142E-1
4.763588603E0,5.195416212E-1,9.847063065E0,-7.567301393E-1
4.765967093E0,2.635096014E-1,8.400900841E0,-8.333004713E-1
4.768345530E0,8.189435601E-1,8.171190262E0,-9.361918569E-1
4.770723238E0,5.769693851E-1,8.898907661E0,-6.275177598E-1
4.773100947E0,3.735794425E-1,8.915657043E0,-5.697908998E-1
4.775479384E0,3.807578981E-1,9.351449966E0,-4.190430641E-1
4.777857874E0,2.300100774E-1,9.128618240E0,-3.616153300E-1
4.780235582E0,-4.402793646E-1,7.390532017E0,-2.276172489E-1
4.782613290E0,1.749751568E-1,8.345866203E0,-1.677966863E-1
4.784991728E0,6.251249313E-1,9.571589470E0,-1.654038578E-1
4.787370218E0,1.725823283E-1,9.154939651E0,-4.262215197E-1
4.789747874E0,1.845464408E-1,9.303593636E0,-2.659024298E-1
4.792125582E0,3.855435550E-1,9.631410599E0,-2.850449979E-1
4.794504020E0,2.970091105E-1,9.825528145E0,-5.099703074E-1
4.796882509E0,3.424727321E-1,1.009113121E1,-3.616153300E-1
4.799260218E0,3.089732230E-1,1.019641590E1,-2.730808854E-1
4.801637926E0,3.137588799E-1,1.048624611E1,-2.659024298E-1
4.804016363E0,2.635096014E-1,1.065613651E1,-3.137588799E-1
4.806394853E0,4.307080805E-2,1.036899757E1,-3.113660514E-1
4.808772509E0,1.175474152E-1,1.061785126E1,-2.467598319E-1
4.811150218E0,2.611167729E-1,1.091246796E1,-3.089732230E-1
4.813528655E0,3.999004960E-1,1.128814125E1,-4.022932947E-1
4.815907145E0,2.443670183E-1,1.119482040E1,-5.003990531E-1
4.818284853E0,2.180459648E-1,1.092443180E1,-5.650052428E-1
4.820662561E0,2.371885478E-1,1.064895821E1,-6.418746710E-1
4.823040999E0,2.611167729E-1,1.040967560E1,-7.208378315E-1
4.825419488E0,2.395813614E-1,1.021555805E1,-7.950153351E-1
4.827797197E0,2.754737139E-1,1.003131104E1,-7.734799385E-1
4.830174905E0,2.922234535E-1,9.942776680E0,-7.878368497E-1
4.832553343E0,2.730808854E-1,9.902098656E0,-7.830511928E-1
4.834931832E0,2.898306549E-1,9.837491989E0,-7.567301393E-1
4.837309488E0,4.070789516E-1,9.758230209E0,-7.830511928E-1
4.839687197E0,3.544368446E-1,9.801599503E0,-8.117650747E-1
4.842065634E0,2.467598319E-1,9.894919395E0,-7.423732281E-1
4.844444124E0,2.539383173E-1,9.966704369E0,-7.351947427E-1
4.846821832E0,2.515454888E-1,1.005284595E1,-6.658028960E-1
4.849199540E0,2.635096014E-1,1.008395290E1,-5.841478109E-1
4.851577978E0,3.687937856E-1,1.000020409E1,-5.745765567E-1
4.853956468E0,2.539383173E-1,9.734301567E0,-7.136593461E-1
4.856334124E0,1.558325738E-1,9.590732574E0,-4.812564552E-1
4.858711832E0,-1.196411327E-1,8.192725182E0,-8.093722463E-1
4.861090322E0,4.573282301E-1,8.891729355E0,-4.860421121E-1
4.863468759E0,1.510469317E-1,8.870193481E0,-4.573282301E-1
4.865846468E0,-7.875377536E-1,8.147261620E0,-6.849454641E-1
4.868224176E0,-9.981061220E-1,7.778468132E0,-7.112665176E-1
4.870602613E0,2.539383173E-1,9.083154678E0,1.890329868E-1
4.872981103E0,2.395813614E-1,9.652945518E0,-2.204387933E-1
4.875358811E0,5.772684515E-2,9.693623543E0,-6.681957245E-1
4.877736520E0,2.587239444E-1,1.000738239E1,-3.568296731E-1
4.880114957E0,5.841478109E-1,1.090528965E1,-2.874378264E-1
4.882493447E0,1.000798106E0,1.172632694E1,-2.252244353E-1
4.884871103E0,1.012762189E0,1.193928814E1,-1.630110443E-1
4.887248811E0,7.686942816E-1,1.168564892E1,-3.999004960E-1
4.889627249E0,5.267201066E-1,1.130967617E1,-6.152545214E-1
4.892005738E0,3.640081584E-1,1.096989536E1,-7.878368497E-1
4.894383447E0,3.065803945E-1,1.068006516E1,-8.141579032E-1
4.896761155E0,2.826521695E-1,1.047906780E1,-7.088736892E-1
4.899139593E0,2.970091105E-1,1.025623608E1,-6.945167780E-1
4.901518082E0,3.113660514E-1,1.009113121E1,-6.610172391E-1
4.903895738E0,3.520440459E-1,9.966704369E0,-6.466603279E-1
4.906273447E0,4.142574072E-1,9.887741089E0,-6.945167780E-1
4.908651936E0,4.668995142E-1,9.827920914E0,-7.040880919E-1
4.911030426E0,4.668995142E-1,9.813564301E0,-7.351947427E-1
4.913408082E0,4.884349108E-1,9.870991707E0,-7.208378315E-1
4.915785790E0,5.003990531E-1,9.947562218E0,-7.495517135E-1
4.918164228E0,5.171487927E-1,9.868598938E0,-8.165507317E-1
4.920542718E0,5.075774789E-1,9.897313118E0,-8.668000102E-1
4.922920426E0,4.525425732E-1,1.005284595E1,-7.423732281E-1
4.925298134E0,4.405784607E-1,1.020359421E1,-5.315057039E-1
4.927676572E0,4.836492836E-1,1.002413273E1,-6.394818425E-1
4.930055061E0,4.262215197E-1,9.760622978E0,-8.811569214E-1
4.932432718E0,5.410770178E-1,9.880562782E0,-8.285148144E-1
4.934810426E0,5.219344497E-1,9.921240807E0,-6.897311211E-1
4.937188863E0,4.429712892E-1,9.885348320E0,-6.032904387E-1
4.939567353E0,4.788636267E-1,9.820742607E0,-6.128616929E-1
4.941945061E0,5.865406394E-1,9.588339806E0,-7.016952634E-1
4.944322770E0,4.357928336E-1,9.748658180E0,-7.064808607E-1
4.946701207E0,3.472583890E-1,9.811170578E0,-5.673980713E-1
4.949079697E0,3.448655605E-1,9.837491989E0,-4.956133962E-1
4.951457353E0,3.831507266E-1,9.806385040E0,-4.692923427E-1
4.953835061E0,4.166502357E-1,9.784850121E0,-5.123631358E-1
4.956213551E0,4.501497746E-1,9.753444672E0,-5.219344497E-1
4.958592040E0,3.951148391E-1,1.007677460E1,-1.965105534E-1
4.960969697E0,6.203392744E-1,9.780064583E0,-6.466603279E-1
