"Time (s)","Acceleration x (m/s^2)","Acceleration y (m/s^2)","Acceleration z (m/s^2)"
3.079616700E-2,-1.702792406E0,3.189333439E0,8.432905197E0
3.321741700E-2,-1.705185294E0,3.155833960E0,8.442476273E0
3.563825000E-2,-1.690828323E0,3.160619497E0,8.492725372E0
3.805944800E-2,-1.705185294E0,3.131905794E0,8.502297401E0
4.048069800E-2,-1.712363720E0,3.124727249E0,8.547760963E0
4.290236500E-2,-1.724327803E0,3.081357241E0,8.612366676E0
4.532356300E-2,-1.733899117E0,3.067000389E0,8.665008545E0
4.774439600E-2,-1.750648856E0,3.086143017E0,8.751151085E0
5.016606300E-2,-1.757827282E0,3.069393158E0,8.815756798E0
5.258726100E-2,-1.767398596E0,3.081357241E0,8.889934540E0
6.988944800E-2,-1.858325839E0,3.026322365E0,8.997910500E0
7.236481300E-2,-1.851147413E0,3.028715372E0,8.959625244E0
7.483981300E-2,-1.820040703E0,3.026322365E0,8.957232475E0
7.731460400E-2,-1.812862277E0,3.033500910E0,8.938090324E0
7.978918800E-2,-1.829612017E0,3.031108141E0,8.969196320E0
8.226356300E-2,-1.829612017E0,3.045464993E0,8.983553886E0
8.473767700E-2,-1.832004786E0,3.055036306E0,9.043374062E0
8.721158400E-2,-1.858325839E0,3.045464993E0,9.100801468E0
8.968533400E-2,-1.879861236E0,3.050250769E0,9.131908417E0
9.215887500E-2,-1.875075698E0,3.057429075E0,9.167800903E0
9.463226100E-2,-1.875075698E0,3.088535786E0,9.170193672E0
9.710549000E-2,-1.879861236E0,3.095714331E0,9.179764748E0
9.957856300E-2,-1.908575177E0,3.078964472E0,9.158229828E0
1.020514790E-1,-1.925324917E0,3.110370398E0,9.122337341E0
1.045242400E-1,-1.951645970E0,3.110370398E0,9.100801468E0
1.069968440E-1,-1.954038739E0,3.110370398E0,9.060123444E0
1.094693440E-1,-1.939681888E0,3.115155935E0,9.029017448E0
1.119416880E-1,-1.942074656E0,3.098107100E0,9.005088806E0
1.144139270E-1,-1.961217284E0,3.088535786E0,8.988339424E0
1.168861150E-1,-1.961217284E0,3.059821844E0,9.038588524E0
1.193581980E-1,-1.975574136E0,3.086143017E0,9.029017448E0
1.218301250E-1,-1.966002941E0,3.098107100E0,9.052945137E0
1.243019480E-1,-1.975574136E0,3.093321562E0,9.062516212E0
1.267737190E-1,-1.980359793E0,3.100499868E0,9.064909935E0
1.292453860E-1,-1.980359793E0,3.117548704E0,9.052945137E0
1.317169480E-1,-2.013859272E0,3.098107100E0,9.017052650E0
1.341884060E-1,-2.044965982E0,3.081357241E0,8.973981857E0
1.366598650E-1,-2.071586132E0,3.090928555E0,8.909376144E0
1.391312190E-1,-2.133799553E0,3.067000389E0,8.868398666E0
1.416025210E-1,-2.162513494E0,3.067000389E0,8.837292671E0
1.440737710E-1,-2.215155602E0,3.052643538E0,8.820542336E0
1.465449690E-1,-2.239083767E0,3.052643538E0,8.775078773E0
1.490161150E-1,-2.298904419E0,3.035893679E0,8.822935104E0
1.514872090E-1,-2.315654039E0,3.021536827E0,8.851649284E0
1.539582500E-1,-2.349153519E0,2.985644341E0,8.906983376E0
1.564292400E-1,-2.356332064E0,2.995215654E0,8.973981857E0
1.589001770E-1,-2.310868502E0,2.990430117E0,9.067302704E0
1.613710630E-1,-2.322832584E0,2.992822886E0,9.124730110E0
1.638418960E-1,-2.346760750E0,2.980858803E0,9.139086723E0
1.663126770E-1,-2.351546526E0,2.968894720E0,9.158229828E0
1.687827810E-1,-2.358724833E0,2.971287489E0,9.210871696E0
1.712277290E-1,-2.397010088E0,2.971287489E0,9.218050003E0
1.736485630E-1,-2.416152716E0,2.952144861E0,9.232406616E0
1.760702290E-1,-2.425724030E0,2.940180779E0,9.265906334E0
1.784918440E-1,-2.442473650E0,2.940180779E0,9.304191589E0
1.809126770E-1,-2.471187592E0,2.954537868E0,9.335298538E0
1.833335110E-1,-2.478366137E0,2.925823927E0,9.356833458E0
1.857551250E-1,-2.507079840E0,2.904288530E0,9.352047920E0
1.881767400E-1,-2.531008244E0,2.894717216E0,9.390333176E0
1.905976250E-1,-2.542972326E0,2.863610506E0,9.416654587E0
1.930184590E-1,-2.569293261E0,2.830111027E0,9.414261818E0
1.954400730E-1,-2.578864574E0,2.820539713E0,9.469595909E0
1.978617400E-1,-2.576471806E0,2.794218540E0,9.507881165E0
2.002825210E-1,-2.598007202E0,2.796611547E0,9.562915802E0
2.027033540E-1,-2.605185747E0,2.813361168E0,9.577272415E0
2.051250210E-1,-2.627020121E0,2.803789854E0,9.589237213E0
2.075466880E-1,-2.617448807E0,2.803789854E0,9.615557671E0
2.099674690E-1,-2.624627352E0,2.763111830E0,9.651450157E0
2.123883020E-1,-2.634198666E0,2.715255499E0,9.682557106E0
2.148099690E-1,-2.622234583E0,2.679363251E0,9.663414001E0
2.172315840E-1,-2.590828657E0,2.648256540E0,9.649057388E0
2.196524170E-1,-2.588435888E0,2.600399971E0,9.615557671E0
2.220732500E-1,-2.581257343E0,2.574079037E0,9.617950439E0
2.244948650E-1,-2.590828657E0,2.535494804E0,9.605986595E0
2.269165310E-1,-2.569293261E0,2.518744946E0,9.567701340E0
2.293373650E-1,-2.593221426E0,2.521137714E0,9.538987160E0
2.317581980E-1,-2.554936409E0,2.511566401E0,9.558130264E0
2.341798130E-1,-2.514258385E0,2.523530483E0,9.574879646E0
2.366014790E-1,-2.497508526E0,2.470888376E0,9.534201622E0
2.390222610E-1,-2.475973129E0,2.444567442E0,9.495916367E0
2.414430940E-1,-2.411366940E0,2.406282187E0,9.493523598E0
2.438647610E-1,-2.411366940E0,2.401496649E0,9.421440125E0
2.462864270E-1,-2.380260229E0,2.367997169E0,9.375976562E0
2.487072090E-1,-2.358724833E0,2.353640079E0,9.325727463E0
2.511280420E-1,-2.318047047E0,2.310569286E0,9.253942490E0
2.535497090E-1,-2.330011129E0,2.310569286E0,9.143872261E0
2.559713230E-1,-2.356332064E0,2.291426897E0,9.074481010E0
2.583921560E-1,-2.418545485E0,2.262712955E0,9.002696037E0
2.608129900E-1,-2.430509567E0,2.222034931E0,8.921339989E0
2.632346560E-1,-2.449652195E0,2.214856386E0,8.806185722E0
2.656562710E-1,-2.475973129E0,2.183749676E0,8.686544418E0
2.680771040E-1,-2.497508526E0,2.164607286E0,8.588438988E0
2.704979380E-1,-2.499901533E0,2.143071890E0,8.456833839E0
2.729195520E-1,-2.502294302E0,2.102393866E0,8.344370842E0
2.753412190E-1,-2.538186550E0,2.100000858E0,8.222037315E0
2.777620520E-1,-2.528615236E0,2.085644007E0,8.143074989E0
2.801828860E-1,-2.507079840E0,2.066501379E0,8.068897247E0
2.826045000E-1,-2.504687071E0,2.071287155E0,8.001897812E0
2.850261670E-1,-2.507079840E0,2.095215321E0,7.930113316E0
2.874469480E-1,-2.528615236E0,2.100000858E0,7.855936050E0
2.898677810E-1,-2.511865616E0,2.150250196E0,7.774580002E0
2.922894480E-1,-2.440080881E0,2.394318104E0,7.740781307E0
2.947111150E-1,-2.490330219E0,2.303390980E0,7.707281590E0
2.971318960E-1,-2.528615236E0,2.116750717E0,7.549355507E0
2.995527290E-1,-2.571686029E0,2.016252279E0,7.475177765E0
3.019743960E-1,-2.583650351E0,2.001895189E0,7.424928665E0
3.043960110E-1,-2.583650351E0,2.066501379E0,7.341179848E0
3.068168440E-1,-2.490330219E0,2.210070848E0,7.219145775E0
3.092376770E-1,-2.296511650E0,2.382354021E0,7.008278370E0
3.116593440E-1,-1.980359793E0,2.566900492E0,6.790531635E0
3.140809590E-1,-1.724327803E0,2.533101797E0,6.718746662E0
3.165017920E-1,-1.853540182E0,2.408675194E0,6.910172462E0
3.189226250E-1,-2.150549412E0,2.432603359E0,7.123134136E0
3.213442400E-1,-2.423331022E0,2.463710070E0,7.202096939E0
3.237659060E-1,-2.571686029E0,2.557329178E0,7.290930748E0
3.261866880E-1,-2.634198666E0,2.722434044E0,7.412964344E0
3.286075210E-1,-2.710768938E0,2.870789051E0,7.515855789E0
3.310291880E-1,-2.775375128E0,3.019144058E0,7.640282631E0
3.334508540E-1,-2.818445921E0,3.076571703E0,7.740781307E0
3.358716360E-1,-2.828017235E0,3.081357241E0,7.822436333E0
3.382924690E-1,-2.784946442E0,3.074178934E0,7.877471447E0
3.407141360E-1,-2.722733021E0,3.088535786E0,7.910970688E0
3.431357500E-1,-2.627020121E0,3.100499868E0,7.927720547E0
3.455565840E-1,-2.521436930E0,3.127120018E0,7.927720547E0
3.479774170E-1,-2.408974171E0,3.167798042E0,7.942077637E0
3.503990840E-1,-2.325225353E0,3.194119215E0,7.932506084E0
3.528206980E-1,-2.219941139E0,3.237190008E0,7.927720547E0
3.552415310E-1,-2.112264156E0,3.268296719E0,7.925327778E0
3.576623650E-1,-1.999502420E0,3.313760281E0,7.939684868E0
3.600839790E-1,-1.891825438E0,3.373580933E0,7.927720547E0
3.625056460E-1,-1.781755567E0,3.392723322E0,7.958827019E0
3.649264790E-1,-1.674078584E0,3.442972660E0,7.942077637E0
3.673473130E-1,-1.602293849E0,3.483650684E0,7.973184109E0
3.697689270E-1,-1.497009635E0,3.512364626E0,8.035397530E0
3.721905940E-1,-1.448854089E0,3.538685560E0,8.152646065E0
3.746113750E-1,-1.372283816E0,3.574577808E0,8.281858444E0
3.770322090E-1,-1.329213023E0,3.612863064E0,8.401798248E0
3.794538750E-1,-1.276570916E0,3.660719633E0,8.547760963E0
3.818755420E-1,-1.231107235E0,3.687339783E0,8.662615776E0
3.842963230E-1,-1.154536963E0,3.744767427E0,8.806185722E0
3.867171560E-1,-1.121037364E0,3.763910055E0,8.930911064E0
3.891388230E-1,-1.066002488E0,3.795016766E0,9.057730675E0
3.915604380E-1,-1.022931695E0,3.830909014E0,9.117551804E0
3.939812710E-1,-1.018146038E0,3.866801500E0,9.160622597E0
3.964021040E-1,-1.001396298E0,3.852444410E0,9.196515083E0
3.988237190E-1,-9.894321561E-1,3.914657831E0,9.227621078E0
4.012453860E-1,-9.559326172E-1,3.919443607E0,9.246764183E0
4.036662190E-1,-9.343972206E-1,3.933800459E0,9.239585876E0
4.060870520E-1,-8.982058167E-1,3.940979004E0,9.268299103E0
4.085086670E-1,-8.551349640E-1,3.921836376E0,9.246764183E0
4.109303340E-1,-8.216354847E-1,3.912265062E0,9.244371414E0
4.133511150E-1,-7.402794957E-1,3.862015724E0,9.294620514E0
4.157719480E-1,-6.708876491E-1,3.854837179E0,9.316155434E0
4.181936150E-1,-6.110670567E-1,3.802195072E0,9.368798256E0
4.206152810E-1,-5.273182988E-1,3.773481369E0,9.414261818E0
4.230360630E-1,-4.507479668E-1,3.730410576E0,9.460023880E0
4.254568960E-1,-3.909274042E-1,3.692125320E0,9.562915802E0
4.278785630E-1,-3.140579760E-1,3.643969774E0,9.615557671E0
4.303001770E-1,-2.183450609E-1,3.627219915E0,9.656235695E0
4.327210110E-1,-1.465603858E-1,3.608077526E0,9.718449593E0
4.351418440E-1,-7.238288224E-2,3.560220957E0,9.751948357E0
4.375635110E-1,-2.991028363E-3,3.541078329E0,9.799804688E0
4.399851250E-1,8.973085321E-3,3.531507015E0,9.799804688E0
4.424059590E-1,3.290131316E-2,3.505186081E0,9.775876999E0
4.448267920E-1,3.529413417E-2,3.500400543E0,9.706484795E0
4.472484060E-1,3.529413417E-2,3.490829229E0,9.668199539E0
4.496700730E-1,1.794616925E-3,3.481257915E0,9.577272415E0
4.520908540E-1,-2.691925503E-2,3.507578850E0,9.450154305E0
4.545116880E-1,-7.716853172E-2,3.514757395E0,9.323334694E0
4.569333540E-1,-1.657029688E-1,3.574577808E0,9.153444290E0
4.593550210E-1,-2.566302419E-1,3.608077526E0,8.973981857E0
4.617758020E-1,-3.765704632E-1,3.696911097E0,8.732007980E0
4.641966360E-1,-4.938187599E-1,3.792623997E0,8.504690170E0
4.666183020E-1,-6.038886309E-1,3.893122435E0,8.269894600E0
4.690399170E-1,-7.474579811E-1,3.981656790E0,8.004290581E0
4.714607500E-1,-8.144569993E-1,4.077369690E0,7.755138397E0
4.738815840E-1,-8.790631890E-1,4.161118507E0,7.532605648E0
4.763032500E-1,-8.766704202E-1,4.110869408E0,7.424928665E0
4.787248650E-1,-9.655039310E-1,4.010370731E0,7.389036179E0
4.811456980E-1,-1.164108157E0,3.876372576E0,7.377072334E0
4.835665310E-1,-1.377069473E0,3.869194269E0,7.298109055E0
4.859881460E-1,-1.554437399E0,4.031906128E0,7.044170856E0
4.884098130E-1,-1.602293849E0,4.343272209E0,6.651747704E0
4.908306460E-1,-1.571187139E0,4.647160530E0,6.306882381E0
4.932514790E-1,-1.640578985E0,4.824528694E0,6.024230003E0
4.956730940E-1,-1.705185294E0,4.948955536E0,5.753840923E0
4.980947610E-1,-1.824826360E0,5.011168957E0,5.540879726E0
5.005155420E-1,-1.922932148E0,5.032704353E0,5.368297577E0
5.029363750E-1,-1.961217284E0,5.013561726E0,5.294120312E0
5.053580420E-1,-1.968395710E0,4.953741074E0,5.306084156E0
5.077797090E-1,-1.939681888E0,4.891527653E0,5.368297577E0
5.102004900E-1,-1.908575177E0,4.877170563E0,5.475974560E0
5.126213230E-1,-1.853540182E0,4.829314232E0,5.583950520E0
5.150429900E-1,-1.765005827E0,4.838885784E0,5.811268806E0
5.174646040E-1,-1.659721613E0,4.858027935E0,6.000301838E0
5.198854380E-1,-1.595115423E0,4.869992256E0,6.237490654E0
5.223062710E-1,-1.518545032E0,4.848456860E0,6.479165554E0
5.247279380E-1,-1.439282775E0,4.862813950E0,6.713961124E0
5.271495520E-1,-1.355534077E0,4.865206718E0,6.946064949E0
5.295703860E-1,-1.293320656E0,4.846064091E0,7.192525864E0
5.319912190E-1,-1.197607756E0,4.822135925E0,7.401000500E0
5.344128340E-1,-1.144965649E0,4.831707001E0,7.642675400E0
5.368345000E-1,-1.046859860E0,4.836492538E0,7.951648712E0
5.392552810E-1,-9.293124676E-1,4.862813950E0,8.308178902E0
5.416761150E-1,-8.001000881E-1,4.879563808E0,8.559724808E0
5.440977810E-1,-6.684948206E-1,4.905884743E0,8.784649849E0
5.465194480E-1,-5.392823815E-1,4.903491974E0,9.012267113E0
5.489402290E-1,-4.244269133E-1,4.946562767E0,9.210871696E0
5.513610630E-1,-3.547359705E-1,4.932205677E0,9.428618431E0
5.537827290E-1,-3.188436031E-1,4.941776752E0,9.622735977E0
5.562043440E-1,-2.757728100E-1,4.948955536E0,9.795019150E0
5.586251770E-1,-2.470589429E-1,4.922634602E0,9.943374634E0
5.610460110E-1,-1.872383654E-1,4.905884743E0,1.015424156E1
5.634676770E-1,-1.609173268E-1,4.908277512E0,1.035284615E1
5.658892920E-1,-1.441675574E-1,4.905884743E0,1.045813084E1
5.683101250E-1,-1.298106313E-1,4.903491974E0,1.060199928E1
5.707309590E-1,-1.154536903E-1,4.874777794E0,1.075035381E1
5.731526250E-1,-1.417747438E-1,4.850849628E0,1.085324574E1
5.755742400E-1,-1.417747438E-1,4.800600529E0,1.093460083E1
5.779950730E-1,-1.776670814E-1,4.781158924E0,1.099442196E1
5.804159060E-1,-1.896311939E-1,4.752444744E0,1.107338524E1
5.828375210E-1,-2.374876440E-1,4.716552734E0,1.111167049E1
5.852591880E-1,-2.829512656E-1,4.663910389E0,1.115743256E1
5.876799690E-1,-2.733799815E-1,4.649553299E0,1.119332504E1
5.901008020E-1,-2.470589429E-1,4.630411148E0,1.121964645E1
5.925224690E-1,-1.226321608E-1,4.613661289E0,1.120050335E1
5.949441360E-1,-1.734796353E-2,4.625625134E0,1.117179012E1
5.973649170E-1,1.136590727E-2,4.618446827E0,1.111884880E1
5.997857500E-1,-1.734796353E-2,4.589733124E0,1.105424213E1
6.022074170E-1,-5.802594870E-2,4.558626175E0,1.099202919E1
6.046290310E-1,-7.238288224E-2,4.541876316E0,1.092263699E1
6.070498650E-1,-7.956135273E-2,4.513162613E0,1.087717342E1
6.094706980E-1,-8.673982322E-2,4.498805523E0,1.082213879E1
6.118923650E-1,-6.520441920E-2,4.482056141E0,1.081496048E1
6.143139790E-1,-8.673982322E-2,4.482056141E0,1.075513935E1
6.167348130E-1,-1.058823988E-1,4.446163654E0,1.069292641E1
6.191556460E-1,-1.250249892E-1,4.412663937E0,1.063071251E1
6.215772610E-1,-1.441675574E-1,4.403092861E0,1.055862904E1
6.239989270E-1,-1.776670814E-1,4.376771927E0,1.047248745E1
6.264197610E-1,-2.303091735E-1,4.355236530E0,1.038873863E1
6.288405940E-1,-3.308077157E-1,4.333701134E0,1.029063320E1
6.312622090E-1,-4.052843451E-1,4.331307888E0,1.016142082E1
6.336838750E-1,-5.105685592E-1,4.333701134E0,1.007527924E1
6.361046560E-1,-6.278168559E-1,4.348057747E0,9.984052658E0
6.385254900E-1,-7.163512707E-1,4.391128540E0,9.905089378E0
6.409471560E-1,-8.024929166E-1,4.395914078E0,9.823733330E0
6.433687710E-1,-9.053842425E-1,4.412663937E0,9.730413437E0
6.457896040E-1,-9.415757060E-1,4.427021027E0,9.661021233E0
6.482104380E-1,-1.003789067E0,4.398307323E0,9.579665184E0
6.506321040E-1,-1.066002488E0,4.393521309E0,9.498309135E0
6.530537190E-1,-1.125823021E0,4.340879440E0,9.404690742E0
6.554745520E-1,-1.185643673E0,4.348057747E0,9.282656670E0
6.578953860E-1,-1.231107235E0,4.338486671E0,9.179764748E0
6.603170520E-1,-1.276570916E0,4.314558506E0,9.096015930E0
6.627386670E-1,-1.338784218E0,4.271487713E0,9.005088806E0
6.651595000E-1,-1.393819213E0,4.264308929E0,8.875576973E0
6.675803340E-1,-1.451246977E0,4.249952316E0,8.767900467E0
6.700019480E-1,-1.520937920E0,4.237987995E0,8.638688087E0
6.724236150E-1,-1.609472275E0,4.247559071E0,8.569295883E0
6.748443960E-1,-1.623829246E0,4.192225456E0,8.492725372E0
6.772652290E-1,-1.642971873E0,4.151547432E0,8.483154297E0
6.796868960E-1,-1.741077542E0,4.149154663E0,8.473583221E0
6.821085630E-1,-1.748256087E0,4.197010994E0,8.392227173E0
6.845293440E-1,-1.765005827E0,4.211368084E0,8.210073471E0
6.869501770E-1,-1.824826360E0,4.194618225E0,8.159824371E0
6.893718440E-1,-1.848754644E0,4.173082829E0,8.111968040E0
6.917934590E-1,-1.894218206E0,4.180261135E0,8.047361374E0
6.942142920E-1,-1.906182289E0,4.098905087E0,7.999505043E0
6.966351250E-1,-1.932503343E0,4.041477680E0,7.982755661E0
6.990567920E-1,-1.937289000E0,3.986442566E0,7.980362415E0
7.014784060E-1,-1.934896231E0,3.957728624E0,7.958827019E0
7.038992400E-1,-1.944467545E0,3.948157310E0,7.961220264E0
7.063200730E-1,-1.879861236E0,3.936193228E0,7.922935009E0
7.087417400E-1,-1.899003863E0,3.950550079E0,7.954041481E0
7.111633540E-1,-1.875075698E0,3.969692707E0,7.982755661E0
7.135841880E-1,-1.824826360E0,3.979264021E0,8.023433685E0
7.160050210E-1,-1.822433591E0,4.005585194E0,8.068897247E0
7.184266360E-1,-1.781755567E0,3.993621111E0,8.088039398E0
7.208483020E-1,-1.767398596E0,4.019941807E0,8.140681267E0
7.232690840E-1,-1.738684773E0,4.012763500E0,8.207680702E0
7.256899170E-1,-1.693221092E0,4.000799656E0,8.269894600E0
7.281115840E-1,-1.666900039E0,4.015156269E0,8.324929237E0
7.305332500E-1,-1.592722535E0,4.000799656E0,8.401798248E0
7.329540310E-1,-1.573580027E0,4.000799656E0,8.475975990E0
7.353748650E-1,-1.585544109E0,4.010370731E0,8.499904633E0
7.377965310E-1,-1.590329766E0,4.022335052E0,8.547760963E0
7.402181460E-1,-1.595115423E0,4.024727821E0,8.571688652E0
7.426389790E-1,-1.609472275E0,4.010370731E0,8.600402832E0
7.450598130E-1,-1.614257932E0,3.996013880E0,8.619544983E0
7.474814790E-1,-1.628614902E0,3.943371773E0,8.631509781E0
7.499030940E-1,-1.635793328E0,3.936193228E0,8.655437469E0
7.523239270E-1,-1.621436477E0,3.912265062E0,8.674580574E0
7.547447610E-1,-1.619043589E0,3.907479286E0,8.698508263E0
7.571663750E-1,-1.607079506E0,3.919443607E0,8.724829674E0
7.595880420E-1,-1.674078584E0,3.914657831E0,8.784649849E0
7.620088230E-1,-1.657328725E0,3.905086517E0,8.844470978E0
7.644296560E-1,-1.721935034E0,3.897907972E0,8.966803551E0
7.668513230E-1,-1.729113460E0,3.869194269E0,9.050552368E0
7.692729900E-1,-1.731506228E0,3.816552162E0,9.050552368E0
7.716937710E-1,-1.686042666E0,3.778266907E0,9.076873779E0
7.741146040E-1,-1.686042666E0,3.780659676E0,9.127122879E0
7.765362710E-1,-1.683649778E0,3.811766386E0,9.163015366E0
7.789578860E-1,-1.669292927E0,3.804588079E0,9.165408134E0
7.813787190E-1,-1.674078584E0,3.835694790E0,9.222835541E0
7.837995520E-1,-1.595115423E0,3.833301783E0,9.335298538E0
7.862212190E-1,-1.559223056E0,3.840480328E0,9.442975044E0
7.886428340E-1,-1.504188180E0,3.773481369E0,9.567701340E0
7.910636670E-1,-1.628614902E0,3.435794115E0,9.661021233E0
7.934845000E-1,-1.719542146E0,3.146262646E0,9.749555588E0
7.959061670E-1,-1.477568030E0,3.615255833E0,9.723235130E0
7.983277810E-1,-1.343569875E0,3.940979004E0,9.732806206E0
8.007486150E-1,-1.278963685E0,4.072584152E0,9.661021233E0
8.031694480E-1,-1.302891970E0,4.094119549E0,9.605986595E0
8.055910630E-1,-1.319641709E0,4.063013077E0,9.622735977E0
8.080127290E-1,-1.264606714E0,3.969692707E0,9.706484795E0
8.104335110E-1,-1.176072359E0,3.897907972E0,9.802198410E0
8.128543440E-1,-1.137787223E0,3.792623997E0,9.948160172E0
8.152760110E-1,-1.089930773E0,3.653541088E0,1.003699398E1
8.176976770E-1,-1.056431174E0,3.553042412E0,1.010399246E1
8.201184590E-1,-9.702895880E-1,3.498007536E0,1.013509941E1
8.225392920E-1,-8.527421951E-1,3.557828188E0,1.015424156E1
8.249609590E-1,-8.072785139E-1,3.600898981E0,1.022363377E1
8.273825730E-1,-7.857431173E-1,3.646362543E0,1.032173920E1
8.298034060E-1,-8.407780528E-1,3.648755312E0,1.045095158E1
8.322242400E-1,-8.958129883E-1,3.600898981E0,1.064028454E1
8.346459060E-1,-7.498508096E-1,3.553042412E0,1.068574810E1
8.370675210E-1,-5.153541565E-1,3.593720436E0,1.059003448E1
8.394883540E-1,-3.643072546E-1,3.617648840E0,1.049641609E1
8.419091880E-1,-2.805584669E-1,3.629612923E0,1.038873863E1
8.443308540E-1,-2.398804724E-1,3.574577808E0,1.029063320E1
8.467524690E-1,-1.896311939E-1,3.531507015E0,1.020209885E1
8.491733020E-1,-1.728814393E-1,3.512364626E0,1.011356354E1
8.515941360E-1,-1.776670814E-1,3.452543974E0,1.001515961E1
8.540157500E-1,-1.680957973E-1,3.383152008E0,9.952945709E0
8.564374170E-1,-1.872383654E-1,3.323331594E0,9.895518303E0
8.588581980E-1,-1.609173268E-1,3.249154091E0,9.866804123E0
8.612790310E-1,-1.345962733E-1,3.196511984E0,9.811769485E0
8.637006980E-1,-8.913264424E-2,3.174976587E0,9.737591743E0
8.661223650E-1,-3.888336942E-2,3.151048422E0,9.694520950E0
8.685431460E-1,4.187439568E-3,3.170190811E0,9.670592308E0
8.709639790E-1,8.793623000E-2,3.191726208E0,9.665806770E0
8.733856460E-1,1.333998591E-1,3.213261604E0,9.649057388E0
8.758072610E-1,2.557329237E-1,3.227618694E0,9.586843491E0
8.782280940E-1,3.705884218E-1,3.263510942E0,9.538987160E0
8.806489270E-1,4.208376706E-1,3.251546860E0,9.538987160E0
8.830705940E-1,5.141577721E-1,3.191726208E0,9.483952522E0
8.854922090E-1,6.409773827E-1,3.088535786E0,9.411869049E0
8.879130420E-1,7.151548862E-1,3.043072224E0,9.308977127E0
8.903338750E-1,7.704889178E-1,3.043072224E0,9.170193672E0
8.927554900E-1,7.800601721E-1,3.081357241E0,9.043374062E0
8.951771560E-1,8.135597110E-1,3.136691332E0,8.950054169E0
8.975979900E-1,9.044869542E-1,3.227618694E0,8.806185722E0
9.000188230E-1,9.571290612E-1,3.287439108E0,8.700901031E0
9.024404380E-1,9.284151793E-1,3.332902908E0,8.593224525E0
9.048621040E-1,8.063812256E-1,3.356831074E0,8.581260681E0
9.072828860E-1,7.223333120E-1,3.404687405E0,8.552546501E0
9.097037190E-1,6.266204119E-1,3.476472139E0,8.533403397E0
9.121253860E-1,4.567300081E-1,3.483650684E0,8.516654015E0
9.145470000E-1,3.203391433E-1,3.517150164E0,8.447261810E0
9.169678340E-1,2.006980032E-1,3.474079370E0,8.358727455E0
9.193886670E-1,2.054836452E-1,3.447758436E0,8.269894600E0
9.218103340E-1,1.908276081E-1,3.419044495E0,8.111968040E0
9.242319480E-1,1.549352705E-1,3.297010422E0,7.992326736E0
9.266527810E-1,5.069792867E-1,3.253939629E0,8.100004196E0
9.290736150E-1,1.378564954E0,3.387937784E0,8.183753014E0
9.314952810E-1,1.730309844E0,3.567399502E0,8.030611992E0
9.339168960E-1,1.550848126E0,3.670589924E0,7.625925541E0
9.363377290E-1,1.455135226E0,3.933800459E0,7.084848881E0
9.387585630E-1,1.378564954E0,4.098905087E0,6.816852570E0
9.411801770E-1,9.379864931E-1,3.596113443E0,7.403393269E0
9.436018440E-1,4.854438901E-1,2.868396044E0,8.128717422E0
9.460226250E-1,2.150549293E-1,2.370389938E0,8.653044701E0
9.484434590E-1,1.381855011E-1,2.363211393E0,8.839685440E0
9.508651250E-1,3.768695518E-2,2.650649309E0,8.906983376E0
9.532867920E-1,6.161518395E-2,3.055036306E0,8.844470978E0
9.557075730E-1,-5.383851007E-3,3.397509098E0,9.033802986E0
9.581284060E-1,1.070788130E-1,3.655933857E0,9.277871132E0
9.605500730E-1,2.844468057E-1,3.739981890E0,9.689735413E0
9.629716880E-1,4.088735580E-1,3.677768469E0,1.021645546E1
9.653925210E-1,5.811567903E-1,3.574577808E0,1.061396313E1
9.678133540E-1,6.050850153E-1,3.411865950E0,1.103988552E1
9.702350210E-1,8.231309652E-1,3.347259760E0,1.114038372E1
9.726566360E-1,1.012163997E0,3.292224884E0,1.122203922E1
9.750774690E-1,1.158126116E0,3.397509098E0,1.111167049E1
9.774983020E-1,1.174875975E0,3.414258718E0,1.115025425E1
9.799199170E-1,1.330708504E0,3.466900826E0,1.117896843E1
9.823415840E-1,1.380957723E0,3.383152008E0,1.136321545E1
9.847624170E-1,1.617847204E0,3.313760281E0,1.148524952E1
9.871832500E-1,1.886142492E0,3.282653570E0,1.159053421E1
9.896048650E-1,2.264208317E0,3.380759239E0,1.149721336E1
9.920265310E-1,2.611466885E0,3.538685560E0,1.137278652E1
9.944473130E-1,2.893819809E0,3.636791229E0,1.126750278E1
9.968681460E-1,3.061616659E0,3.732803345E0,1.121007538E1
9.992898130E-1,3.200400352E0,3.723232031E0,1.107338524E1
1.001711479E0,3.190829039E0,3.615255833E0,1.099681473E1
1.004132261E0,3.181257725E0,3.512364626E0,1.094656563E1
1.006553094E0,3.229114056E0,3.411865950E0,1.076471043E1
1.008974761E0,3.243471146E0,3.320938826E0,1.061157036E1
1.011396375E0,3.221935749E0,3.256332397E0,1.055862904E1
1.013817209E0,3.121437073E0,3.232404232E0,1.053948689E1
1.016238042E0,2.944069147E0,3.129513025E0,1.050120163E1
1.018659709E0,2.755036116E0,3.031108141E0,1.052991486E1
1.021081323E0,2.580360174E0,2.964108944E0,1.053709316E1
1.023502156E0,2.429313183E0,2.978466034E0,1.046291637E1
1.025922990E0,2.166102648E0,2.887538671E0,1.034088230E1
1.028344604E0,1.910070658E0,2.767897606E0,1.023799038E1
1.030766271E0,1.620239973E0,2.655434847E0,1.014227772E1
1.033187104E0,1.376172066E0,2.501995087E0,1.003460121E1
1.035607938E0,1.127019525E0,2.339283228E0,9.940981865E0
1.038029552E0,9.475577474E-1,2.257927179E0,9.845269203E0
1.040451219E0,6.050850153E-1,2.150250196E0,9.818947792E0
1.042872000E0,-7.378866673E-1,2.009073734E0,1.023320484E1
1.045292834E0,-1.693221092E0,1.664208174E0,1.075274658E1
1.047714500E0,-1.345962763E0,1.364806175E0,1.072163963E1
1.050136167E0,-7.402794957E-1,1.371984720E0,1.029781151E1
1.052556948E0,-5.129613280E-1,1.582852125E0,9.993623734E0
1.054977781E0,-5.033900738E-1,1.788634896E0,1.003699398E1
1.057399448E0,-5.799604058E-1,1.970489502E0,1.016381359E1
1.059821063E0,-5.656034350E-1,2.214856386E0,1.027627563E1
1.062241896E0,-5.416752100E-1,2.401496649E0,1.026670456E1
1.064662729E0,-5.321039557E-1,2.391925335E0,1.019491959E1
1.067084396E0,-6.014958024E-1,2.147857428E0,1.019970608E1
1.069506011E0,-7.402794957E-1,1.649851203E0,1.021166992E1
1.071926844E0,-5.823532343E-1,1.060917735E0,1.024277687E1
1.074347677E0,-5.084748194E-2,8.165507317E-1,1.026431179E1
1.076769292E0,4.351946115E-1,8.620143533E-1,1.030020428E1
1.079190959E0,8.207381964E-1,1.068096161E0,1.031216812E1
1.081611792E0,1.215553880E0,1.235593796E0,1.023081207E1
1.084032625E0,1.639382601E0,1.376770377E0,1.014706326E1
1.086454240E0,2.029711723E0,1.570888042E0,1.010877800E1
1.088875906E0,2.288136721E0,1.666600943E0,9.962516785E0
1.091296688E0,2.419741869E0,1.654636860E0,9.883553505E0
1.093717521E0,2.503789902E0,1.640279889E0,9.897911072E0
1.096139188E0,2.499004126E0,1.671386600E0,1.014227772E1
1.098560854E0,2.359921217E0,1.539781332E0,9.936196327E0
1.100981636E0,2.091925144E0,1.364806175E0,9.692128181E0
1.103402469E0,1.703988791E0,1.266700506E0,9.359226227E0
1.105824136E0,1.615454435E0,1.082453132E0,9.107980728E0
1.108245750E0,1.732702732E0,9.125627279E-1,9.062516212E0
1.110666584E0,1.677667737E0,8.500502706E-1,8.954839706E0
1.113087417E0,1.502991676E0,8.548358679E-1,8.950054169E0
1.115509084E0,1.402493119E0,8.790631890E-1,8.997910500E0
1.117930698E0,1.376172066E0,8.596215248E-1,9.060123444E0
1.120351531E0,1.246660590E0,8.718847632E-1,9.182157516E0
1.122772365E0,1.060020447E0,8.958129883E-1,9.263513565E0
1.125193979E0,9.475577474E-1,9.364909530E-1,9.356833458E0
1.127615646E0,8.015955687E-1,9.699904919E-1,9.454939842E0
1.130036479E0,6.002993584E-1,1.005882859E0,9.591629982E0
1.132457313E0,3.897309899E-1,1.022632599E0,9.658628464E0
1.134878927E0,1.908276081E-1,1.010668516E0,9.680164337E0
1.137300594E0,-5.802594870E-2,1.013061285E0,9.625128746E0
1.139721375E0,-2.853440940E-1,9.675976634E-1,9.586843491E0
1.142142209E0,-5.297111273E-1,9.364909530E-1,9.447761536E0
1.144563875E0,-8.599206209E-1,8.814560175E-1,9.285049438E0
1.146985542E0,-1.164108157E0,8.045865893E-1,9.076873779E0
1.149406323E0,-1.441675663E0,7.471588850E-1,8.844470978E0
1.151827156E0,-1.674078584E0,6.993024349E-1,8.636295319E0
1.154248823E0,-1.939681888E0,6.490531564E-1,8.454441071E0
1.156670438E0,-2.181656122E0,5.988038778E-1,8.279465675E0
1.159091271E0,-2.361117840E0,5.533402562E-1,8.123931885E0
1.161512104E0,-2.502294302E0,5.294120312E-1,8.013862610E0
1.163933771E0,-2.662912607E0,4.648058116E-1,7.949255943E0
1.166355386E0,-2.746661186E0,4.169493318E-1,7.891828060E0
1.168776219E0,-2.789732218E0,3.714857101E-1,7.781758308E0
1.171197052E0,-2.761018276E0,2.946162820E-1,7.649854183E0
1.173618667E0,-2.689233541E0,2.587239444E-1,7.537391186E0
1.176040334E0,-2.552543640E0,2.156531364E-1,7.448856831E0
1.178461167E0,-2.406581402E0,1.749751568E-1,7.391428947E0
1.180882000E0,-2.188834429E0,1.223330572E-1,7.386643410E0
1.183303615E0,-1.963610053E0,9.840483218E-2,7.415357590E0
1.185725281E0,-1.702792406E0,8.883354068E-2,7.467999458E0
1.188146063E0,-1.405783296E0,1.486541033E-1,7.556533813E0
1.190566896E0,-1.118644595E0,1.845464408E-1,7.661818027E0
1.192988563E0,-8.359923959E-1,2.539383173E-1,7.719245911E0
1.195410229E0,-5.584250093E-1,2.898306549E-1,7.824829102E0
1.197831011E0,-3.236292601E-1,2.874378264E-1,7.865507126E0
1.200251844E0,-5.084748194E-2,2.730808854E-1,7.887042522E0
1.202673511E0,2.078764737E-1,2.682952285E-1,7.896613598E0
1.205095125E0,4.256233275E-1,2.563311160E-1,7.879864216E0
1.207515959E0,6.290132403E-1,2.347957194E-1,7.848757267E0
1.209936792E0,7.944171429E-1,2.395813614E-1,7.781758308E0
1.212358459E0,9.308080077E-1,2.060818523E-1,7.757531166E0
1.214780073E0,1.038485050E0,2.204387933E-1,7.683353424E0
1.217200906E0,1.146162033E0,1.917249113E-1,7.599604607E0
1.219621740E0,1.232303619E0,1.917249113E-1,7.530212879E0
1.222043354E0,1.263410330E0,1.989033818E-1,7.436892986E0
1.224465021E0,1.294517040E0,2.204387933E-1,7.408178806E0
1.226885854E0,1.280160069E0,2.084746659E-1,7.367500782E0
1.229306688E0,1.241874933E0,2.228316069E-1,7.365108013E0
1.231728302E0,1.177268744E0,1.965105534E-1,7.355536938E0
1.234149969E0,1.263410330E0,8.404789865E-2,7.525427341E0
1.236570750E0,1.953141451E0,-3.038884699E-1,8.818149567E0
1.238991584E0,2.680858612E0,-5.670989752E-1,1.011835003E1
1.241413250E0,3.214757204E0,-5.862415433E-1,1.111167049E1
1.243834917E0,3.365504980E0,-7.920243144E-1,1.244776249E1
1.246255698E0,3.241078377E0,-4.283152521E-1,1.263440228E1
1.248676531E0,2.939283609E0,-2.841476910E-2,1.241187000E1
1.251098198E0,2.487040043E0,1.486541033E-1,1.219621658E1
1.253519813E0,2.058425665E0,1.630110443E-1,1.187557888E1
1.255940646E0,1.711167336E0,2.156531364E-1,1.148046398E1
1.258361479E0,1.170090318E0,1.103689447E-1,1.126750278E1
1.260783146E0,7.031907439E-1,-5.473581702E-2,1.122921753E1
1.263204761E0,4.136592150E-1,-1.456630826E-1,1.116939735E1
1.265625594E0,6.879365444E-2,-3.996013701E-1,1.118375397E1
1.268046427E0,-1.417747438E-1,-5.551348329E-1,1.130818081E1
1.270468094E0,-3.571287692E-1,-6.723831892E-1,1.138714409E1
1.272889709E0,-6.541379094E-1,-8.111668825E-1,1.149721336E1
1.275310542E0,-1.056431174E0,-9.382855892E-1,1.169103241E1
1.277731375E0,-1.298106313E0,-9.095717072E-1,1.183011532E1
1.280152990E0,-1.504188180E0,-8.497511148E-1,1.190668583E1
1.282574656E0,-1.774577141E0,-8.784649968E-1,1.208136177E1
1.284995438E0,-1.812862277E0,-7.130611539E-1,1.206700420E1
1.287416271E0,-1.820040703E0,-5.192425251E-1,1.195214939E1
1.289837938E0,-1.992323995E0,-4.953143001E-1,1.208614731E1
1.292259604E0,-2.160120726E0,-5.288137794E-1,1.228744316E1
1.294680386E0,-2.315654039E0,-5.838487148E-1,1.229222870E1
1.297101219E0,-2.404188633E0,-5.886343718E-1,1.221775246E1
1.299522886E0,-2.358724833E0,-5.742774606E-1,1.220339584E1
1.301944500E0,-2.267797709E0,-5.288137794E-1,1.216271782E1
1.304365334E0,-2.062014818E0,-3.373879790E-1,1.198804188E1
1.306786167E0,-1.915753603E0,-2.102692872E-1,1.182532978E1
1.309207834E0,-1.810469389E0,-9.780662507E-2,1.165035439E1
1.311629448E0,-1.628614902E0,6.251249462E-2,1.139910793E1
1.314050281E0,-1.494616866E0,1.941177398E-1,1.121964645E1
1.316471115E0,-1.391426325E0,4.169493318E-1,1.104945660E1
1.318892729E0,-1.317248821E0,6.442674994E-1,1.088674450E1
1.321314396E0,-1.281356573E0,8.452646136E-1,1.096331501E1
1.323735229E0,-1.317248821E0,8.958129883E-1,1.134407330E1
1.326156063E0,-1.353141189E0,7.830511928E-1,1.168385410E1
1.328577677E0,-1.030110121E0,6.418746710E-1,1.204307652E1
1.330999344E0,-5.967101455E-1,4.983053207E-1,1.220578861E1
1.333420125E0,-3.092723191E-1,6.346961856E-1,1.206461143E1
1.335840959E0,-3.909274042E-1,8.934201598E-1,1.168624687E1
1.338262625E0,-7.115656137E-1,1.190130115E0,1.124357414E1
1.340684292E0,-8.742775917E-1,1.405484200E0,1.071446133E1
1.343105073E0,-8.862416744E-1,1.590030670E0,1.013988495E1
1.345525906E0,-8.335995674E-1,1.781456470E0,9.629914284E0
1.347947573E0,-5.368895531E-1,2.377568483E0,9.038588524E0
1.350369188E0,-1.417747438E-1,3.543471336E0,8.080861092E0
1.352790021E0,-5.297111273E-1,3.000001431E0,8.844470978E0
1.355210854E0,-7.618148923E-1,2.277069807E0,9.565308571E0
1.357632521E0,-7.857431173E-1,1.628315806E0,1.008006477E1
1.360054136E0,-7.498508096E-1,1.089631557E0,1.040309525E1
1.362474969E0,-7.809575200E-1,6.418746710E-1,1.060199928E1
1.364895802E0,-8.431708813E-1,3.547359705E-1,1.067378330E1
1.367317417E0,-7.666005492E-1,2.682952285E-1,1.057059288E1
1.369739084E0,-6.110670567E-1,3.547359705E-1,1.040788078E1
1.372159917E0,-4.124628007E-1,5.605186820E-1,1.012552834E1
1.374580750E0,-1.992024779E-1,8.524430394E-1,9.830911636E0
1.377002365E0,-3.170489892E-2,1.163809061E0,9.524630547E0
1.379424031E0,4.007977992E-2,1.407876968E0,9.316155434E0
1.381844813E0,6.640082598E-2,1.568495274E0,9.203693390E0
1.384265646E0,-5.982056609E-4,1.611566067E0,9.215657234E0
1.386687313E0,-1.345962733E-1,1.601994753E0,9.253942490E0
1.389108927E0,-2.805584669E-1,1.575673699E0,9.378369331E0
1.391529761E0,-4.722833633E-1,1.527817249E0,9.491130829E0
1.393950594E0,-6.421737671E-1,1.499103427E0,9.634700775E0
1.396372261E0,-7.354938388E-1,1.482353687E0,9.749555588E0
1.398793875E0,-8.264211416E-1,1.494317770E0,9.828518867E0
1.401214709E0,-9.655039310E-1,1.444068432E0,9.926624298E0
1.403635542E0,-1.113858938E0,1.422233939E0,9.933803558E0
1.406057209E0,-1.202393413E0,1.381555915E0,9.917053223E0
1.408478823E0,-1.269392371E0,1.369591832E0,9.893125534E0
1.410899656E0,-1.372283816E0,1.348056436E0,9.931410789E0
1.413320490E0,-1.432104349E0,1.314556956E0,9.940981865E0
1.415742104E0,-1.535294771E0,1.304985642E0,1.002981567E1
1.418163771E0,-1.568794370E0,1.321735382E0,1.006092167E1
1.420584604E0,-1.444068432E0,1.395912886E0,1.009442139E1
1.423005438E0,-1.252642632E0,1.503889084E0,1.014706326E1
1.425427052E0,-1.077966571E0,1.573280931E0,1.022124100E1
1.427848719E0,-9.173483849E-1,1.680957913E0,1.028106117E1
1.430269500E0,-8.001000881E-1,1.726421595E0,1.032173920E1
1.432690334E0,-8.144569993E-1,1.728814363E0,1.033131123E1
1.435112000E0,-8.192426562E-1,1.743171334E0,1.029063320E1
1.437533667E0,-8.096713424E-1,1.728814363E0,1.024277687E1
1.439954448E0,-8.623134494E-1,1.668993831E0,1.024995518E1
1.442375281E0,-9.173483849E-1,1.621137381E0,1.023320484E1
1.444796948E0,-9.221340418E-1,1.659422517E0,1.019252682E1
1.447218563E0,-8.001000881E-1,1.740778446E0,1.015184879E1
1.449639396E0,-7.378866673E-1,1.819741607E0,1.013749218E1
1.452060229E0,-7.354938388E-1,1.862812400E0,1.015663528E1
1.454481896E0,-7.546364665E-1,1.893919110E0,1.013031387E1
1.456903511E0,-8.120641708E-1,1.901097536E0,1.012792110E1
1.459324344E0,-9.005986452E-1,1.874776483E0,1.014706326E1
1.461745177E0,-1.044467092E0,1.865205288E0,1.013749218E1
1.464166792E0,-1.068395257E0,1.829312921E0,1.008724308E1
1.466588459E0,-1.128215909E0,1.831705689E0,1.004177952E1
1.469009240E0,-1.159322619E0,1.846062660E0,9.976874352E0
1.471430073E0,-1.137787223E0,1.860419631E0,9.921838760E0
1.473851740E0,-1.080359459E0,1.946561217E0,9.883553505E0
1.476273406E0,-1.085145116E0,2.059323072E0,9.821340561E0
1.478694188E0,-1.037288666E0,2.135893345E0,9.797411919E0
1.481115021E0,-9.918249846E-1,2.224427700E0,9.790233612E0
1.483536688E0,-8.623134494E-1,2.324926376E0,9.785448074E0
1.485958302E0,-6.661019921E-1,2.631506681E0,9.538987160E0
1.488379136E0,-3.813561201E-1,3.763910055E0,8.437690735E0
1.490799969E0,2.093719877E-2,5.880062580E0,6.206383705E0
1.493221636E0,-4.148556292E-1,5.133202553E0,6.931707859E0
1.495643250E0,-7.809575200E-1,3.952943087E0,8.140681267E0
1.498064084E0,-1.231107235E0,2.535494804E0,9.304191589E0
1.500484917E0,-1.793719649E0,1.249950767E0,1.015902805E1
1.502906584E0,-2.246262312E0,5.748756528E-1,1.056580734E1
1.505328198E0,-2.437688112E0,4.384847581E-1,1.046770191E1
1.507749031E0,-2.545365095E0,5.126622319E-1,1.005374336E1
1.510169865E0,-2.516651154E0,8.524430394E-1,9.464810371E0
1.512591479E0,-2.413759947E0,1.338485122E0,8.938090324E0
1.515013146E0,-2.310868502E0,1.776670814E0,8.631509781E0
1.517433927E0,-2.167299032E0,2.056930065E0,8.607581139E0
1.519854761E0,-2.052144527E0,2.198106766E0,8.842078209E0
1.522276427E0,-1.994716763E0,2.109572172E0,9.189335823E0
1.524698094E0,-1.949253201E0,1.948953986E0,9.582057953E0
1.527118875E0,-1.879861236E0,1.728814363E0,9.926624298E0
1.529539709E0,-1.843968987E0,1.580459356E0,1.013270664E1
1.531961375E0,-1.741077542E0,1.511067510E0,1.022363377E1
1.534382990E0,-1.619043589E0,1.561316729E0,1.026191902E1
1.536803823E0,-1.472782373E0,1.649851203E0,1.025474072E1
1.539224656E0,-1.333998680E0,1.822134495E0,1.026431179E1
1.541646323E0,-1.214357495E0,1.958525300E0,1.030020428E1
1.544067938E0,-1.082752228E0,2.023430586E0,1.036480999E1
1.546488771E0,-9.583254457E-1,2.059323072E0,1.049880886E1
1.548909604E0,-9.101698995E-1,2.016252279E0,1.062353420E1
1.551331271E0,-8.431708813E-1,1.992323995E0,1.071924686E1
1.553752886E0,-8.120641708E-1,1.913061738E0,1.069053364E1
1.556173719E0,-8.192426562E-1,1.834098577E0,1.066660500E1
1.558594552E0,-9.221340418E-1,1.941775560E0,1.075992489E1
1.561016167E0,-1.855933070E0,3.230011463E0,1.231615734E1
1.563437834E0,-1.070788145E0,2.688934565E0,1.086281681E1
1.565858615E0,-7.929216027E-1,1.824527264E0,9.608379364E0
1.568279448E0,-5.416752100E-1,1.166201949E0,8.904590607E0
1.570701115E0,-3.451646566E-1,6.179464459E-1,8.636295319E0
1.573122781E0,-3.475574851E-1,2.778665423E-1,8.669795036E0
1.575543563E0,-4.818546474E-1,6.969095767E-2,8.858827591E0
1.577964396E0,-6.732804775E-1,1.944168471E-2,9.177371979E0
1.580386063E0,-8.264211416E-1,9.840483218E-2,9.553344727E0
1.582807677E0,-9.101698995E-1,2.467598319E-1,9.943374634E0
1.585228511E0,-9.221340418E-1,4.791627228E-1,1.033131123E1
1.587649344E0,-9.005986452E-1,6.634100676E-1,1.063789082E1
1.590071011E0,-8.168498278E-1,8.069794178E-1,1.091306591E1
1.592492625E0,-6.637091637E-1,8.620143533E-1,1.118375397E1
1.594913459E0,-5.129613280E-1,9.125627279E-1,1.138235855E1
1.597334292E0,-3.765704632E-1,9.125627279E-1,1.158814049E1
1.599755959E0,-2.566302419E-1,8.718847632E-1,1.176550865E1
1.602177573E0,-1.944168359E-1,8.404789567E-1,1.192582798E1
1.604598406E0,-1.561316848E-1,7.902296782E-1,1.207657623E1
1.607019240E0,-1.250249892E-1,7.686942816E-1,1.224168110E1
1.609440854E0,-1.369891018E-1,7.447660565E-1,1.236640644E1
1.611862521E0,-1.393819153E-1,7.830511928E-1,1.253151131E1
1.614283302E0,-1.800599098E-1,8.620143533E-1,1.273250866E1
1.616704136E0,-1.824527234E-1,9.580263495E-1,1.291226959E1
1.619125802E0,-2.231307179E-1,1.115952611E0,1.304148197E1
1.621547469E0,-2.159522474E-1,1.257129192E0,1.316830158E1
1.623968250E0,-1.992024779E-1,1.393520117E0,1.327119255E1
1.626389084E0,-1.824527234E-1,1.527817249E0,1.333101273E1
1.628810750E0,-1.872383654E-1,1.587637782E0,1.337169075E1
1.631232365E0,-1.704886109E-1,1.657029629E0,1.338873959E1
1.633653198E0,-2.231307179E-1,1.657029629E0,1.341027546E1
1.636074031E0,-2.255235314E-1,1.685743570E0,1.346531010E1
1.638495698E0,-2.590230405E-1,1.719243050E0,1.350598812E1
1.640917313E0,-2.805584669E-1,1.781456470E0,1.352034569E1
1.643338146E0,-2.590230405E-1,1.881955028E0,1.353948784E1
1.645758979E0,-2.662015259E-1,1.987538338E0,1.357777309E1
1.648180594E0,-2.685943544E-1,2.083251238E0,1.357298756E1
1.650602261E0,-2.781656384E-1,2.162214279E0,1.358495140E1
1.653023094E0,-2.662015259E-1,2.217249393E0,1.358734417E1
1.655443927E0,-2.398804724E-1,2.329711914E0,1.357777309E1
1.657865542E0,-2.494517565E-1,2.399103880E0,1.352752399E1
1.660287209E0,-2.709871531E-1,2.442174673E0,1.344616795E1
1.662707990E0,-2.662015259E-1,2.454138756E0,1.341984653E1
1.665128823E0,-2.542374134E-1,2.497209549E0,1.338365555E1
1.667550490E0,-3.547359705E-1,2.434996128E0,1.326879978E1
1.669972156E0,-4.579264224E-1,2.377568483E0,1.308694553E1
1.672392938E0,-5.057829022E-1,2.289033890E0,1.298405361E1
1.674813771E0,-5.249254704E-1,2.277069807E0,1.291944790E1
1.677235438E0,-4.938187599E-1,2.212463617E0,1.288594818E1
1.679657052E0,-5.273182988E-1,2.121536493E0,1.286680603E1
1.682077886E0,-5.321039557E-1,2.009073734E0,1.277797222E1
1.684498719E0,-5.560321808E-1,1.881955028E0,1.265833092E1
1.686920386E0,-5.488536954E-1,1.783849239E0,1.245015526E1
1.689342000E0,-5.536393523E-1,1.659422517E0,1.229701424E1
1.691762834E0,-5.464608669E-1,1.561316729E0,1.217707443E1
1.694183667E0,-5.368895531E-1,1.465603828E0,1.197607708E1
1.696605281E0,-5.105685592E-1,1.321735382E0,1.177029419E1
1.699026948E0,-4.842474759E-1,1.216451168E0,1.155224895E1
1.701447781E0,-4.435695112E-1,1.077667475E0,1.132971573E1
1.703868615E0,-4.579264224E-1,9.508479238E-1,1.115743256E1
1.706290229E0,-4.674977362E-1,8.045865893E-1,1.106620693E1
1.708711896E0,-4.938187599E-1,6.849454641E-1,1.100877857E1
1.711132677E0,-4.770690203E-1,5.509474277E-1,1.094178009E1
1.713553511E0,-4.387838542E-1,4.456632137E-1,1.082453156E1
1.715975177E0,-3.332005441E-1,3.308077157E-1,1.064985561E1
1.718396844E0,-2.614158690E-1,1.893320978E-1,1.050598717E1
1.720817625E0,-1.633101404E-1,8.644071966E-2,1.026670456E1
1.723238459E0,-8.673982322E-2,2.691925503E-3,1.008006477E1
1.725660125E0,-3.649054468E-2,-9.780662507E-2,9.929018021E0
1.728081740E0,-5.563312769E-2,-1.648056656E-1,9.763913155E0
1.730502573E0,-7.956135273E-2,-2.006980032E-1,9.589237213E0
1.732923406E0,-1.250249892E-1,-1.193420291E-1,9.481559753E0
1.735345073E0,-3.116651475E-1,1.226321608E-2,9.354440689E0
1.737766688E0,-4.938187599E-1,-6.191428751E-2,9.227621078E0
1.740187521E0,-5.823532343E-1,-2.632105052E-1,9.086444855E0
1.742608354E0,-6.230311990E-1,-5.431707501E-1,8.904590607E0
1.745029969E0,-6.972087026E-1,-8.015955687E-1,8.727222443E0
1.747451636E0,-7.474579811E-1,-1.010070205E0,8.559724808E0
1.749872417E0,-7.163512707E-1,-1.170389414E0,8.411369324E0
1.752293250E0,-7.019943595E-1,-1.227817178E0,8.339585304E0
1.754714917E0,-6.613163352E-1,-1.287637711E0,8.337192535E0
1.757136584E0,-5.919244885E-1,-1.352243900E0,8.373085022E0
1.759557365E0,-5.057829022E-1,-1.395613790E0,8.373085022E0
1.761978198E0,-4.172484577E-1,-1.426720500E0,8.349156380E0
1.764399865E0,-3.164508045E-1,-1.421934843E0,8.332107544E0
1.766821531E0,-2.494517565E-1,-1.443470240E0,8.308178902E0
1.769242313E0,-1.872383654E-1,-1.455434322E0,8.293822289E0
1.771663146E0,-1.609173268E-1,-1.431506157E0,8.301000595E0
1.774084813E0,-1.537388563E-1,-1.412363529E0,8.315358162E0
1.776506427E0,-1.968096644E-1,-1.431506157E0,8.298607826E0
1.778927261E0,-1.752742529E-1,-1.472184181E0,8.353941917E0
1.781348094E0,-1.680957973E-1,-1.467398524E0,8.425726891E0
1.783769761E0,-7.716853172E-2,-1.457827210E0,8.485547066E0
1.786191375E0,3.768695518E-2,-1.417149186E0,8.574081421E0
1.788612209E0,7.836493850E-2,-1.330708504E0,8.734400749E0
1.791033042E0,4.486542568E-2,-1.266102314E0,8.866005898E0
1.793454656E0,-5.383851007E-3,-1.223031521E0,9.019445419E0
1.795876323E0,-1.106680483E-1,-1.172782183E0,9.069695473E0
1.798297104E0,-2.063809484E-1,-1.134497046E0,9.103194237E0
1.800717938E0,-3.236292601E-1,-1.096211910E0,9.131908417E0
1.803139604E0,-4.076771438E-1,-1.067497969E0,9.179764748E0
1.805561271E0,-4.938187599E-1,-1.045962572E0,9.225228310E0
1.807982052E0,-5.632106066E-1,-1.060319543E0,9.265906334E0
1.810402886E0,-6.014958024E-1,-1.045962572E0,9.289834976E0
1.812824552E0,-6.349952817E-1,-1.010070205E0,9.325727463E0
1.815246219E0,-6.541379094E-1,-1.007677436E0,9.371191025E0
1.817667000E0,-6.708876491E-1,-9.885348678E-1,9.366405487E0
1.820087834E0,-7.235297561E-1,-9.837492108E-1,9.323334694E0
1.822509500E0,-7.474579811E-1,-1.012463093E0,9.239585876E0
1.824931115E0,-8.264211416E-1,-1.033998489E0,9.155837059E0
1.827351948E0,-8.623134494E-1,-1.060319543E0,9.057730675E0
1.829772781E0,-8.934201598E-1,-1.139282703E0,8.952446938E0
1.832194448E0,-8.982058167E-1,-1.199103236E0,8.806185722E0
1.834616063E0,-8.407780528E-1,-1.282852054E0,8.808578491E0
1.837036896E0,-8.048857450E-1,-1.321137190E0,8.703293800E0
1.839457729E0,-7.833502889E-1,-1.371386528E0,8.574081421E0
1.841879344E0,-7.618148923E-1,-1.373779297E0,8.535796165E0
1.844301011E0,-7.067800164E-1,-1.354636669E0,8.456833839E0
1.846721844E0,-7.043871880E-1,-1.321137190E0,8.461619377E0
1.849142677E0,-6.708876491E-1,-1.278066397E0,8.437690735E0
1.851564292E0,-6.637091637E-1,-1.251745343E0,8.452047348E0
1.853985959E0,-5.871388316E-1,-1.218245864E0,8.521439552E0
1.856406740E0,-5.488536954E-1,-1.141675472E0,8.557332039E0
1.858827573E0,-5.153541565E-1,-1.091426253E0,8.602795601E0
1.861249240E0,-3.957130313E-1,-1.036391258E0,8.736793518E0
1.863670854E0,-3.284149170E-1,-9.622138143E-1,8.842078209E0
1.866091688E0,-2.374876440E-1,-8.401798606E-1,8.914161682E0
1.868512521E0,-2.350948304E-1,-6.867401004E-1,8.981161118E0
1.870934188E0,-2.709871531E-1,-5.312066078E-1,9.021839142E0
1.873355802E0,-3.068794906E-1,-3.900300860E-1,9.029017448E0
1.875776636E0,-3.092723191E-1,-3.110669553E-1,9.050552368E0
1.878197469E0,-3.837489188E-1,-2.413759828E-1,9.036195755E0
1.880619136E0,-4.770690203E-1,-1.911267042E-1,9.086444855E0
1.883040750E0,-5.679962635E-1,-1.911267042E-1,9.141479492E0
1.885461584E0,-5.751747489E-1,-2.270190418E-1,9.218050003E0
1.887882417E0,-6.254240274E-1,-2.632105052E-1,9.265906334E0
1.890304031E0,-6.876373887E-1,-3.134597540E-1,9.330513000E0
1.892725698E0,-7.067800164E-1,-3.661018610E-1,9.330513000E0
1.895146479E0,-8.359923959E-1,-3.469592929E-1,9.308977127E0
1.897567313E0,-9.391828775E-1,-3.637090325E-1,9.308977127E0
1.899988979E0,-1.061216831E0,-3.493520916E-1,9.263513565E0
1.902410646E0,-1.173679471E0,-3.661018610E-1,9.225228310E0
1.904831427E0,-1.233500123E0,-3.900300860E-1,9.170193672E0
1.907252261E0,-1.240678549E0,-4.139583111E-1,9.129515648E0
1.909673927E0,-1.219143152E0,-3.948157430E-1,9.131908417E0
1.912095542E0,-1.219143152E0,-3.972085714E-1,9.043374062E0
1.914516375E0,-1.243071318E0,-3.780659735E-1,8.993124962E0
1.916937209E0,-1.355534077E0,-3.038884699E-1,8.914161682E0
1.919358875E0,-1.427318692E0,-2.847459018E-1,8.837292671E0
1.921780490E0,-1.508973837E0,-2.775674164E-1,8.748757362E0
1.924201323E0,-1.568794370E0,-3.110669553E-1,8.657830238E0
1.926622156E0,-1.628614902E0,-3.469592929E-1,8.638688087E0
1.929043823E0,-1.686042666E0,-4.091726840E-1,8.653044701E0
1.931465438E0,-1.760220170E0,-4.761717021E-1,8.669795036E0
1.933886271E0,-1.858325839E0,-5.120640397E-1,8.667402267E0
1.936307104E0,-1.927717686E0,-5.838487148E-1,8.681758881E0
1.938728719E0,-2.052144527E0,-6.197410822E-1,8.698508263E0
1.941150386E0,-2.140978098E0,-6.604190469E-1,8.770293236E0
1.943571167E0,-2.236690998E0,-7.010970116E-1,8.791828156E0
1.945992000E0,-2.294118643E0,-6.987041831E-1,8.815756798E0
1.948413667E0,-2.325225353E0,-7.010970116E-1,8.822935104E0
1.950835334E0,-2.361117840E0,-6.675975323E-1,8.794221878E0
1.953256115E0,-2.356332064E0,-6.699903607E-1,8.806185722E0
1.955676948E0,-2.330011129E0,-6.460621357E-1,8.834898949E0
1.958098615E0,-2.274976015E0,-6.460621357E-1,8.827720642E0
1.960520281E0,-2.196012974E0,-6.747759581E-1,8.909376144E0
1.962941063E0,-2.090728760E0,-6.987041831E-1,8.926125526E0
1.965361896E0,-2.040180445E0,-7.178468108E-1,8.889934540E0
1.967783563E0,-2.004287958E0,-7.130611539E-1,8.789435387E0
1.970205177E0,-1.901396751E0,-7.345965505E-1,8.657830238E0
1.972626011E0,-1.769791484E0,-7.585247755E-1,8.514261246E0
1.975046844E0,-1.611865163E0,-8.135597110E-1,8.356334686E0
1.977468459E0,-1.499402523E0,-8.688937426E-1,8.243573189E0
1.979890125E0,-1.429711580E0,-9.430712461E-1,8.190931320E0
1.982310959E0,-1.389033556E0,-1.041176915E0,8.164609909E0
1.984731792E0,-1.386640668E0,-1.115354419E0,8.178966522E0
1.987153406E0,-1.398604870E0,-1.182353497E0,8.219644547E0
1.989575073E0,-1.379462242E0,-1.213460207E0,8.267500877E0
1.991995854E0,-1.372283816E0,-1.251745343E0,8.315358162E0
1.994416688E0,-1.405783296E0,-1.256531000E0,8.329714775E0
1.996838354E0,-1.410568953E0,-1.246959686E0,8.380263329E0
1.999260021E0,-1.460818172E0,-1.234995604E0,8.394619942E0
2.001680802E0,-1.518545032E0,-1.223031521E0,8.399405479E0
2.004101636E0,-1.559223056E0,-1.194317579E0,8.444869041E0
2.006523302E0,-1.575972795E0,-1.184746265E0,8.425726891E0
2.008944917E0,-1.607079506E0,-1.108175993E0,8.413763046E0
2.011365750E0,-1.631007791E0,-1.022034407E0,8.461619377E0
2.013786584E0,-1.736291885E0,-9.478568435E-1,8.492725372E0
2.016208250E0,-1.824826360E0,-8.784649968E-1,8.554939270E0
2.018629865E0,-1.992323995E0,-7.896314859E-1,8.633902550E0
2.021050698E0,-2.126621008E0,-7.298108935E-1,8.712865829E0
2.023471531E0,-2.215155602E0,-6.939185858E-1,8.827720642E0
2.025893146E0,-2.265404940E0,-6.628118753E-1,8.964410782E0
2.028314813E0,-2.272583246E0,-6.867401004E-1,9.096015930E0
2.030735646E0,-2.212762833E0,-6.987041831E-1,9.160622597E0
2.033156479E0,-2.169692039E0,-7.250252366E-1,9.208478928E0
2.035578094E0,-2.152942181E0,-7.657032609E-1,9.253942490E0
2.037999761E0,-2.203191519E0,-8.234301209E-1,9.335298538E0
2.040420542E0,-2.341975212E0,-8.928219676E-1,9.407083511E0
2.042841375E0,-2.495115757E0,-9.550353289E-1,9.464810371E0
2.045263042E0,-2.696412086E0,-9.717850685E-1,9.507881165E0
2.047684709E0,-2.859123945E0,-9.430712461E-1,9.471988678E0
2.050105490E0,-2.993122101E0,-9.502496719E-1,9.464810371E0
2.052526323E0,-3.060121059E0,-9.574281573E-1,9.498309135E0
2.054947990E0,-3.093620539E0,-9.358927608E-1,9.620343208E0
2.057369604E0,-3.115155935E0,-9.502496719E-1,9.725627899E0
2.059790438E0,-3.261417150E0,-9.143573642E-1,9.744770050E0
2.062211271E0,-3.206382275E0,-8.808578253E-1,9.768698692E0
2.064632938E0,-3.076870918E0,-8.449655175E-1,1.001785088E1
2.067054552E0,-2.973979473E0,-7.369893789E-1,1.011835003E1
2.069475386E0,-2.806481838E0,-5.886343718E-1,9.984052658E0
2.071896219E0,-2.672483683E0,-4.067798555E-1,9.759127617E0
2.074317834E0,-2.554936409E0,-2.198405862E-1,9.538987160E0
2.076739500E0,-2.437688112E0,-6.669992954E-2,9.371191025E0
2.079160334E0,-2.337189436E0,3.858426586E-2,9.306584358E0
2.081581167E0,-2.341975212E0,1.055833027E-1,9.356833458E0
2.084002781E0,-2.373081923E0,1.725823283E-1,9.373583794E0
2.086424448E0,-2.423331022E0,1.725823283E-1,9.404690742E0
2.088845229E0,-2.497508526E0,1.510469317E-1,9.409476280E0
2.091266063E0,-2.502294302E0,1.462612897E-1,9.440582275E0
2.093687729E0,-2.521436930E0,1.223330572E-1,9.397511482E0
2.096109396E0,-2.533401012E0,1.031904742E-1,9.404690742E0
2.098530177E0,-2.540579557E0,7.686942816E-2,9.411869049E0
2.100951011E0,-2.653341293E0,1.127617657E-1,9.481559753E0
2.103372677E0,-2.806481838E0,1.390828192E-1,9.553344727E0
2.105794292E0,-2.985943556E0,2.156531364E-1,9.649057388E0
2.108215125E0,-3.141477108E0,3.212364316E-1,9.711270332E0
2.110635959E0,-3.215953588E0,4.097708762E-1,9.778269768E0
2.113057625E0,-3.232703447E0,5.150550604E-1,9.862018585E0
2.115479240E0,-3.115155935E0,6.610172391E-1,9.940981865E0
2.117900073E0,-2.942872763E0,8.117650747E-1,9.964909554E0
2.120320906E0,-2.792124987E0,9.819545746E-1,9.926624298E0
2.122742573E0,-2.674876690E0,1.156630635E0,9.881160736E0
2.125164188E0,-2.622234583E0,1.293021560E0,9.838089943E0
2.127585021E0,-2.619841576E0,1.376770377E0,9.792626381E0
2.130005854E0,-2.615056038E0,1.453639746E0,9.778269768E0
2.132427469E0,-2.583650351E0,1.453639746E0,9.854840279E0
2.134849136E0,-2.464009047E0,1.448854089E0,1.000080204E1
2.137269917E0,-2.322832584E0,1.609173179E0,9.993623734E0
2.139690750E0,-2.217548370E0,1.721635938E0,9.687342644E0
2.142112417E0,-2.370688915E0,1.721635938E0,9.203693390E0
2.144534084E0,-2.521436930E0,1.652244091E0,9.038588524E0
2.146954865E0,-2.507079840E0,1.606780410E0,9.182157516E0
2.149375698E0,-2.564507723E0,1.664208174E0,9.572486877E0
2.151797365E0,-2.658126831E0,1.712064624E0,9.790233612E0
2.154218979E0,-2.751446962E0,1.702493310E0,9.773484230E0
2.156639813E0,-2.801696301E0,1.680957913E0,9.706484795E0
2.159060646E0,-2.806481838E0,1.637887120E0,9.649057388E0
2.161482313E0,-2.780160904E0,1.664208174E0,9.689735413E0
2.163903927E0,-2.713161707E0,1.716850281E0,9.778269768E0
2.166324761E0,-2.627020121E0,1.807777524E0,9.804591179E0
2.168745594E0,-2.569293261E0,1.846062660E0,9.754341125E0
2.171167209E0,-2.502294302E0,1.869990945E0,9.670592308E0
2.173588875E0,-2.461616278E0,1.893919110E0,9.555737495E0
2.176009656E0,-2.456830740E0,1.925025821E0,9.428618431E0
2.178430490E0,-2.497508526E0,1.953739643E0,9.368798256E0
2.180852156E0,-2.569293261E0,1.951346874E0,9.387940407E0
2.183273823E0,-2.686840773E0,1.922633052E0,9.442975044E0
2.185694604E0,-2.806481838E0,1.879562140E0,9.486345291E0
2.188115438E0,-2.859123945E0,1.834098577E0,9.531808853E0
2.190537104E0,-2.849552631E0,1.802991867E0,9.589237213E0
2.192958771E0,-2.837588549E0,1.779063582E0,9.584450722E0
2.195379552E0,-2.792124987E0,1.764706731E0,9.605986595E0
2.197800386E0,-2.782553673E0,1.829312921E0,9.603593826E0
2.200222052E0,-2.768196583E0,1.927418590E0,9.644271851E0
2.202643667E0,-2.746661186E0,2.040180445E0,9.589237213E0
2.205064500E0,-2.729911566E0,2.145464659E0,9.615557671E0
2.207485334E0,-2.677269459E0,2.229213476E0,9.603593826E0
2.209907000E0,-2.574079037E0,2.341675997E0,9.601201057E0
2.212328615E0,-2.507079840E0,2.444567442E0,9.553344727E0
2.214749448E0,-2.468794823E0,2.530709028E0,9.474381447E0
2.217170281E0,-2.531008244E0,2.600399971E0,9.433403969E0
2.219591896E0,-2.627020121E0,2.679363251E0,9.395118713E0
2.222013563E0,-2.705983400E0,2.698505640E0,9.438189507E0
2.224434344E0,-2.761018276E0,2.674577475E0,9.433403969E0
2.226855177E0,-2.782553673E0,2.631506681E0,9.438189507E0
2.229276844E0,-2.794517756E0,2.523530483E0,9.558130264E0
2.231698511E0,-2.744268417E0,2.425424814E0,9.629914284E0
2.234119292E0,-2.684448004E0,2.324926376E0,9.615557671E0
2.236540125E0,-2.629412889E0,2.188535452E0,9.486345291E0
2.238961792E0,-2.571686029E0,2.080858469E0,9.342476845E0
2.241383406E0,-2.468794823E0,2.040180445E0,9.234800339E0
2.243804240E0,-2.358724833E0,2.001895189E0,9.280263901E0
2.246225073E0,-2.200798512E0,2.025823355E0,9.407083511E0
2.248646740E0,-2.035394669E0,2.078465462E0,9.500701904E0
2.251068354E0,-1.922932148E0,2.190928221E0,9.601201057E0
2.253489188E0,-1.822433591E0,2.346461773E0,9.646664619E0
2.255910021E0,-1.829612017E0,2.492423773E0,9.658628464E0
2.258331688E0,-1.867897153E0,2.679363251E0,9.634700775E0
2.260753302E0,-1.930110574E0,2.830111027E0,9.658628464E0
2.263174136E0,-2.006680965E0,2.976073265E0,9.670592308E0
2.265594969E0,-2.064407825E0,3.117548704E0,9.720842361E0
2.268016584E0,-2.078764677E0,3.220440149E0,9.763913155E0
2.270438250E0,-2.126621008E0,3.318545818E0,9.799804688E0
2.272859031E0,-2.150549412E0,3.409473181E0,9.835697174E0
2.275279865E0,-2.162513494E0,3.445365429E0,9.862018585E0
2.277701531E0,-2.148156643E0,3.507578850E0,9.862018585E0
2.280123198E0,-2.131406784E0,3.562613726E0,9.878767967E0
2.282543979E0,-2.131406784E0,3.584149122E0,9.938589096E0
2.284964813E0,-2.152942181E0,3.598506212E0,9.991230965E0
2.287386479E0,-2.227119684E0,3.581756353E0,1.002502918E1
2.289808094E0,-2.339582443E0,3.543471336E0,1.000798035E1
2.292228927E0,-2.397010088E0,3.531507015E0,9.967302322E0
2.294649761E0,-2.538186550E0,3.502793312E0,9.960124016E0
2.297071427E0,-2.670090914E0,3.466900826E0,9.976874352E0
2.299493042E0,-2.744268417E0,3.428615808E0,9.993623734E0
2.301913875E0,-2.737090111E0,3.411865950E0,1.013509941E1
2.304334709E0,-2.804089069E0,3.316153049E0,1.025952625E1
2.306756375E0,-2.959622622E0,3.184547901E0,1.021884823E1
2.309177990E0,-3.086441994E0,3.098107100E0,1.018774128E1
2.311598823E0,-3.148655415E0,3.081357241E0,1.024756241E1
2.314019656E0,-3.256631613E0,3.023929596E0,1.028345394E1
2.316441271E0,-3.249453068E0,2.985644341E0,1.024995518E1
2.318862938E0,-3.163012505E0,2.983251572E0,1.023081207E1
2.321283719E0,-3.009871721E0,3.059821844E0,1.019491959E1
2.323704552E0,-2.823231697E0,3.110370398E0,1.011356354E1
2.326126219E0,-2.643769979E0,3.136691332E0,1.001037312E1
2.328547886E0,-2.456830740E0,3.213261604E0,9.897911072E0
2.330968667E0,-2.222334146E0,3.311367512E0,9.929018021E0
2.333389500E0,-2.145763636E0,3.349652529E0,9.936196327E0
2.335811167E0,-2.033001900E0,3.454936743E0,9.948160172E0
2.338232781E0,-1.973181367E0,3.493221998E0,9.996016502E0
2.340653615E0,-1.956431627E0,3.481257915E0,9.998409271E0
2.343074448E0,-2.093121529E0,3.426223040E0,9.945767403E0
2.345496115E0,-2.207977057E0,3.325724363E0,9.790233612E0
2.347917729E0,-2.325225353E0,3.186940670E0,9.680164337E0
2.350338563E0,-2.399402857E0,3.047857761E0,9.610772133E0
2.352759396E0,-2.416152716E0,2.911466837E0,9.488738060E0
2.355181011E0,-2.511865616E0,2.715255499E0,9.402297020E0
2.357602677E0,-2.550150633E0,2.554936409E0,9.390333176E0
2.360023511E0,-2.514258385E0,2.372782707E0,9.591629982E0
2.362444344E0,-2.447259426E0,2.217249393E0,9.821340561E0
2.364865959E0,-2.363510609E0,2.133500576E0,9.962516785E0
2.367287625E0,-2.308475733E0,2.119143486E0,9.943374634E0
2.369708406E0,-2.155334949E0,2.071287155E0,9.811769485E0
2.372129240E0,-2.057229280E0,2.078465462E0,9.634700775E0
2.374550906E0,-1.946860313E0,2.092822552E0,9.486345291E0
2.376972521E0,-1.800898194E0,2.157428741E0,9.364012718E0
2.379393354E0,-1.664507270E0,2.233999014E0,9.344869614E0
2.381814188E0,-1.523330688E0,2.329711914E0,9.340084076E0
2.384235854E0,-1.393819213E0,2.401496649E0,9.332905769E0
2.386657469E0,-1.276570916E0,2.470888376E0,9.385547638E0
2.389078302E0,-1.109073281E0,2.554936409E0,9.431011200E0
2.391499136E0,-9.822536707E-1,2.631506681E0,9.445367813E0
2.393920802E0,-8.694919348E-1,2.720041037E0,9.481559753E0
2.396342417E0,-8.288139701E-1,2.782254457E0,9.529416084E0
2.398763250E0,-8.096713424E-1,2.839682341E0,9.541379929E0
2.401184084E0,-8.407780528E-1,2.935395241E0,9.534201622E0
2.403605698E0,-9.005986452E-1,3.026322365E0,9.579665184E0
2.406027365E0,-9.293124676E-1,3.160619497E0,9.627521515E0
2.408448146E0,-9.391828775E-1,3.287439108E0,9.716055870E0
2.410868979E0,-9.343972206E-1,3.399901867E0,9.792626381E0
2.413290646E0,-9.511470199E-1,3.493221998E0,9.826126099E0
2.415712313E0,-9.269196987E-1,3.560220957E0,9.818947792E0
2.418133094E0,-9.367900491E-1,3.641577005E0,9.811769485E0
2.420553927E0,-9.367900491E-1,3.711267948E0,9.771091461E0
2.422975594E0,-9.463613629E-1,3.732803345E0,9.783055305E0
2.425397209E0,-9.678967595E-1,3.759124279E0,9.787840843E0
2.427818042E0,-9.846464992E-1,3.771088600E0,9.802198410E0
2.430238875E0,-9.343972206E-1,3.759124279E0,9.845269203E0
2.432660542E0,-8.527421951E-1,3.802195072E0,9.847661972E0
2.435082156E0,-8.001000881E-1,3.780659676E0,9.962516785E0
2.437502990E0,-7.953144312E-1,3.809373617E0,9.960124016E0
2.439923823E0,-8.024929166E-1,3.847658873E0,9.864411354E0
2.442345438E0,-8.455637097E-1,3.912265062E0,9.830911636E0
2.444767104E0,-9.197412133E-1,3.957728624E0,9.842875481E0
2.447187886E0,-9.774680734E-1,3.976871252E0,9.809376717E0
2.449608719E0,-1.068395257E0,3.986442566E0,9.790233612E0
2.452030386E0,-1.142572761E0,3.955335855E0,9.766305923E0
2.454452052E0,-1.190429211E0,3.931407690E0,9.761520386E0
2.456872834E0,-1.240678549E0,3.816552162E0,9.730413437E0
2.459293667E0,-1.226321578E0,3.713660717E0,9.732806206E0
2.461715334E0,-1.192822099E0,3.646362543E0,9.749555588E0
2.464136948E0,-1.156929731E0,3.598506212E0,9.778269768E0
2.466557781E0,-1.092323542E0,3.600898981E0,9.778269768E0
2.468978615E0,-1.034895778E0,3.586542130E0,9.778269768E0
2.471400281E0,-9.966106415E-1,3.639184237E0,9.785448074E0
2.473821896E0,-9.343972206E-1,3.689732552E0,9.759127617E0
2.476242729E0,-9.487541914E-1,3.766302824E0,9.668199539E0
2.478663563E0,-8.958129883E-1,3.840480328E0,9.565308571E0
2.481085229E0,-8.599206209E-1,3.897907972E0,9.447761536E0
2.483506844E0,-8.264211416E-1,3.940979004E0,9.392725945E0
2.485927677E0,-8.288139701E-1,3.960121393E0,9.340084076E0
2.488348511E0,-7.929216027E-1,3.931407690E0,9.263513565E0
2.490770125E0,-7.809575200E-1,3.929014683E0,9.179764748E0
2.493191792E0,-7.546364665E-1,3.897907972E0,9.098408699E0
2.495612573E0,-7.402794957E-1,3.926621914E0,9.021839142E0
2.498033406E0,-6.924230456E-1,3.943371773E0,8.964410782E0
2.500455073E0,-6.589235067E-1,3.974478483E0,8.904590607E0
2.502876740E0,-6.541379094E-1,4.048655987E0,8.842078209E0
2.505297521E0,-6.278168559E-1,4.141975880E0,8.815756798E0
2.507718354E0,-6.326025128E-1,4.228117466E0,8.794221878E0
2.510140021E0,-6.469594240E-1,4.338486671E0,8.767900467E0
2.512561636E0,-7.019943595E-1,4.415056705E0,8.700901031E0
2.514982469E0,-7.953144312E-1,4.462913513E0,8.614759445E0
2.517403302E0,-8.718847632E-1,4.527519703E0,8.526225090E0
2.519824969E0,-9.367900491E-1,4.546662331E0,8.521439552E0
2.522246584E0,-9.511470199E-1,4.556233406E0,8.478368759E0
2.524667417E0,-9.631111026E-1,4.551447868E0,8.502297401E0
2.527088250E0,-9.798609018E-1,4.541876316E0,8.480761528E0
2.529509865E0,-9.942178130E-1,4.520340919E0,8.475975990E0
2.531931531E0,-1.022931695E0,4.503591537E0,8.478368759E0
2.534352365E0,-1.018146038E0,4.465306282E0,8.492725372E0
2.536773198E0,-9.822536707E-1,4.422235489E0,8.466404915E0
2.539194813E0,-9.487541914E-1,4.360022068E0,8.449654579E0
2.541616479E0,-9.173483849E-1,4.321736813E0,8.490332603E0
2.544037261E0,-8.982058167E-1,4.266701698E0,8.521439552E0
2.546458094E0,-8.599206209E-1,4.252345085E0,8.598010063E0
2.548879761E0,-8.024929166E-1,4.220939159E0,8.679366112E0
2.551301427E0,-7.642077208E-1,4.204189301E0,8.765507698E0
2.553722209E0,-7.354938388E-1,4.173082829E0,8.830113411E0
2.556143042E0,-6.828517914E-1,4.130012035E0,8.866005898E0
2.558564709E0,-6.493522525E-1,4.074976921E0,8.928518295E0
2.560986323E0,-5.991029739E-1,4.029513359E0,8.959625244E0
2.563407156E0,-5.488536954E-1,4.010370731E0,8.995517731E0
2.565827990E0,-4.746761918E-1,4.012763500E0,9.033802986E0
2.568249656E0,-4.483551383E-1,3.981656790E0,9.007481575E0
2.570671271E0,-4.268197417E-1,3.926621914E0,9.007481575E0
2.573092104E0,-3.571287692E-1,3.852444410E0,8.973981857E0
2.575512938E0,-3.355933726E-1,3.701696634E0,8.954839706E0
2.577934552E0,-3.379862010E-1,3.598506212E0,8.887541771E0
2.580356219E0,-3.643072546E-1,3.466900826E0,8.815756798E0
2.582777000E0,-3.837489188E-1,3.378366470E0,8.789435387E0
2.585197834E0,-3.861417472E-1,3.239582777E0,8.894720078E0
2.587619500E0,-5.321039557E-1,3.088535786E0,9.017052650E0
2.590041167E0,-5.416752100E-1,3.014358282E0,9.153444290E0
2.592461948E0,-5.273182988E-1,2.959323406E0,9.289834976E0
2.594882781E0,-4.962115884E-1,2.947359324E0,9.352047920E0
2.597304448E0,-4.579264224E-1,2.928216696E0,9.373583794E0
2.599726063E0,-4.028915167E-1,2.897109985E0,9.311369896E0
2.602146896E0,-3.403790295E-1,2.887538671E0,9.241978645E0
2.604567729E0,-3.308077157E-1,2.851646423E0,9.160622597E0
2.606989396E0,-3.068794906E-1,2.825325251E0,9.141479492E0
2.609411011E0,-3.140579760E-1,2.818146944E0,9.134301186E0
2.611831844E0,-3.284149170E-1,2.794218540E0,9.155837059E0
2.614252677E0,-3.164508045E-1,2.799004316E0,9.151051521E0
2.616674292E0,-3.643072546E-1,2.784647465E0,9.220442772E0
2.619095959E0,-4.028915167E-1,2.734398127E0,9.253942490E0
2.621516740E0,-4.387838542E-1,2.691327333E0,9.222835541E0
2.623937573E0,-4.244269133E-1,2.665006161E0,9.179764748E0
2.626359240E0,-4.172484577E-1,2.638685226E0,9.115159035E0
2.628780906E0,-3.765704632E-1,2.648256540E0,9.057730675E0
2.631201688E0,-3.164508045E-1,2.693720102E0,9.007481575E0
2.633622521E0,-2.853440940E-1,2.765504837E0,8.918947220E0
2.636044188E0,-2.805584669E-1,2.839682341E0,8.834898949E0
2.638465802E0,-2.757728100E-1,2.916252613E0,8.799007416E0
2.640886636E0,-3.260220885E-1,2.992822886E0,8.765507698E0
2.643307469E0,-3.499503136E-1,3.059821844E0,8.777471542E0
2.645729136E0,-4.028915167E-1,3.117548704E0,8.815756798E0
2.648150750E0,-4.722833633E-1,3.225225925E0,8.846863747E0
2.650571584E0,-5.368895531E-1,3.313760281E0,8.894720078E0
2.652992417E0,-6.254240274E-1,3.435794115E0,8.938090324E0
2.655414031E0,-7.115656137E-1,3.555435419E0,8.902197838E0
2.657835698E0,-8.503493667E-1,3.675375462E0,8.923732758E0
2.660256531E0,-9.846464992E-1,3.790230989E0,8.983553886E0
2.662677365E0,-1.089930773E0,3.842873096E0,9.050552368E0
2.665098979E0,-1.185643673E0,3.833301783E0,9.103194237E0
2.667520646E0,-1.262213945E0,3.821337700E0,9.112766266E0
2.669941427E0,-1.266999602E0,3.751945972E0,9.086444855E0
2.672362261E0,-1.243071318E0,3.696911097E0,9.055337906E0
2.674783927E0,-1.173679471E0,3.680161238E0,9.081659317E0
2.677205594E0,-1.061216831E0,3.608077526E0,9.052945137E0
2.679626375E0,-9.655039310E-1,3.560220957E0,9.007481575E0
2.682047209E0,-8.958129883E-1,3.509971619E0,8.966803551E0
2.684468875E0,-8.240283132E-1,3.464508057E0,8.969196320E0
2.686890490E0,-8.001000881E-1,3.466900826E0,8.959625244E0
2.689311323E0,-7.498508096E-1,3.435794115E0,8.954839706E0
2.691732156E0,-7.666005492E-1,3.409473181E0,8.950054169E0
2.694153823E0,-7.402794957E-1,3.337688446E0,8.952446938E0
2.696575438E0,-7.402794957E-1,3.316153049E0,8.990732193E0
2.698996271E0,-7.211369276E-1,3.282653570E0,8.981161118E0
2.701417104E0,-6.924230456E-1,3.246761322E0,8.957232475E0
2.703838719E0,-6.708876491E-1,3.184547901E0,8.940483093E0
2.706260386E0,-6.780661345E-1,3.179762125E0,8.942875862E0
2.708681167E0,-6.804589629E-1,3.186940670E0,8.988339424E0
2.711102000E0,-6.732804775E-1,3.160619497E0,9.024231911E0
2.713523667E0,-7.115656137E-1,3.127120018E0,9.029017448E0
2.715945334E0,-7.666005492E-1,3.071786165E0,9.064909935E0
2.718366115E0,-8.359923959E-1,3.052643538E0,9.064909935E0
2.720786948E0,-8.647062778E-1,3.076571703E0,9.084052086E0
2.723208615E0,-9.005986452E-1,3.057429075E0,9.167800903E0
2.725630229E0,-9.320043921E-1,3.028715372E0,9.208478928E0
2.728051063E0,-9.415757060E-1,3.026322365E0,9.230013847E0
2.730471896E0,-9.678967595E-1,3.026322365E0,9.249156952E0
2.732893563E0,-1.018146038E0,3.007179976E0,9.249156952E0
2.735315177E0,-1.066002488E0,3.011965513E0,9.239585876E0
2.737736011E0,-1.133001566E0,3.062214851E0,9.213264465E0
2.740156844E0,-1.195214868E0,3.107678413E0,9.198907852E0
2.742578459E0,-1.274178028E0,3.177369356E0,9.198907852E0
2.745000125E0,-1.307677627E0,3.244368315E0,9.246764183E0
2.747420959E0,-1.307677627E0,3.342474222E0,9.292227745E0
2.749841792E0,-1.310070395E0,3.466900826E0,9.373583794E0
2.752263406E0,-1.295713425E0,3.591327667E0,9.383154869E0
2.754685073E0,-1.298106313E0,3.754338741E0,9.390333176E0
2.757105854E0,-1.310070395E0,3.873979807E0,9.380762100E0
2.759526688E0,-1.329213023E0,4.031906128E0,9.414261818E0
2.761948354E0,-1.324427366E0,4.156332970E0,9.447761536E0
2.764369969E0,-1.305284739E0,4.247559071E0,9.486345291E0
2.766790802E0,-1.259821177E0,4.266701698E0,9.486345291E0
2.769211636E0,-1.180858016E0,4.264308929E0,9.414261818E0
2.771633302E0,-1.034895778E0,4.197010994E0,9.287442207E0
2.774054917E0,-8.599206209E-1,4.127619267E0,9.165408134E0
2.776475750E0,-7.019943595E-1,4.070191383E0,9.060123444E0
2.778896584E0,-5.512465239E-1,3.998406649E0,9.002696037E0
2.781318250E0,-3.667000830E-1,3.960121393E0,8.957232475E0
2.783739865E0,-2.135594189E-1,3.917050600E0,8.976374626E0
2.786160698E0,-1.369891018E-1,3.881158352E0,8.959625244E0
2.788581531E0,-7.238288224E-2,3.802195072E0,8.969196320E0
2.791003146E0,-1.417747438E-1,3.759124279E0,8.964410782E0
2.793424813E0,-2.015953064E-1,3.747160196E0,8.995517731E0
2.795845594E0,-2.757728100E-1,3.730410576E0,8.983553886E0
2.798266427E0,-3.765704632E-1,3.692125320E0,8.990732193E0
2.800688094E0,-4.627120793E-1,3.680161238E0,8.971589088E0
2.803109761E0,-5.129613280E-1,3.663112402E0,8.899805069E0
2.805530542E0,-5.847460628E-1,3.634398460E0,8.834898949E0
2.807951375E0,-6.708876491E-1,3.610470295E0,8.751151085E0
2.810373042E0,-7.402794957E-1,3.553042412E0,8.698508263E0
2.812794656E0,-8.240283132E-1,3.514757395E0,8.636295319E0
2.815215490E0,-8.623134494E-1,3.498007536E0,8.600402832E0
2.817636323E0,-8.982058167E-1,3.529114246E0,8.576474190E0
2.820057990E0,-9.005986452E-1,3.610470295E0,8.538188934E0
2.822479604E0,-9.846464992E-1,3.732803345E0,8.523832321E0
2.824900438E0,-9.966106415E-1,3.854837179E0,8.497511864E0
2.827321271E0,-1.066002488E0,4.005585194E0,8.490332603E0
2.829742886E0,-1.116251707E0,4.141975880E0,8.497511864E0
2.832164552E0,-1.200000525E0,4.297808647E0,8.542975426E0
2.834585334E0,-1.243071318E0,4.398307323E0,8.578866959E0
2.837006167E0,-1.329213023E0,4.472484589E0,8.607581139E0
2.839427834E0,-1.403390527E0,4.575376034E0,8.650651932E0
2.841849500E0,-1.482353687E0,4.620839596E0,8.665008545E0
2.844270281E0,-1.604686737E0,4.668695927E0,8.653044701E0
2.846691115E0,-1.619043589E0,4.740480900E0,8.679366112E0
2.849112781E0,-1.626222134E0,4.776372910E0,8.669795036E0
2.851534396E0,-1.592722535E0,4.850849628E0,8.593224525E0
2.853955229E0,-1.516152263E0,4.884349346E0,8.538188934E0
2.856376063E0,-1.403390527E0,4.910670280E0,8.430512428E0
2.858797729E0,-1.264606714E0,4.927420139E0,8.363512993E0
2.861219344E0,-1.123430252E0,4.951348305E0,8.250751495E0
2.863640177E0,-1.001396298E0,4.934598446E0,8.195716858E0
2.866061011E0,-9.029914737E-1,4.877170563E0,8.162217140E0
2.868482625E0,-8.024929166E-1,4.800600529E0,8.178966522E0
2.870904292E0,-7.450651526E-1,4.711766720E0,8.202895164E0
2.873325073E0,-7.067800164E-1,4.561018944E0,8.243573189E0
2.875745906E0,-6.756733060E-1,4.383950233E0,8.262715340E0
2.878167573E0,-6.206383705E-1,4.177868366E0,8.231609344E0
2.880589240E0,-5.512465239E-1,3.981656790E0,8.238787651E0
2.883010021E0,-4.794618487E-1,3.830909014E0,8.257929802E0
2.885430854E0,-3.885345757E-1,3.696911097E0,8.329714775E0
2.887852521E0,-2.805584669E-1,3.579363585E0,8.382656097E0
2.890274136E0,-1.369891018E-1,3.524328709E0,8.397012711E0
2.892694969E0,-2.691925503E-2,3.469293833E0,8.368298531E0
2.895115802E0,6.400800496E-2,3.419044495E0,8.257929802E0
2.897537469E0,1.238285750E-1,3.359223843E0,8.135895729E0
2.899959084E0,1.501496136E-1,3.323331594E0,8.035397530E0
2.902379917E0,1.692921966E-1,3.313760281E0,7.954041481E0
2.904800750E0,1.286142170E-1,3.301796198E0,7.985148430E0
2.907222365E0,9.511470050E-2,3.352045536E0,8.030611992E0
2.909644031E0,1.615155302E-2,3.399901867E0,8.059326172E0
2.912064865E0,-6.281159073E-2,3.514757395E0,8.109575272E0
2.914485698E0,-1.752742529E-1,3.622434378E0,8.176573753E0
2.916907313E0,-2.733799815E-1,3.759124279E0,8.253144264E0
2.919328979E0,-3.475574851E-1,3.914657831E0,8.356334686E0
2.921749761E0,-4.196412563E-1,4.098905087E0,8.435297966E0
2.924170594E0,-4.435695112E-1,4.271487713E0,8.487939835E0
2.926592261E0,-4.531407952E-1,4.412663937E0,8.516654015E0
2.929013875E0,-4.076771438E-1,4.556233406E0,8.487939835E0
2.931434709E0,-3.765704632E-1,4.635196686E0,8.435297966E0
2.933855542E0,-3.092723191E-1,4.709373951E0,8.375477791E0
2.936277209E0,-2.422732860E-1,4.747659206E0,8.327322006E0
2.938698823E0,-1.393819153E-1,4.790730000E0,8.339585304E0
2.941119656E0,-3.649054468E-2,4.836492538E0,8.327322006E0
2.943540490E0,4.486542568E-2,4.843671322E0,8.308178902E0
2.945962104E0,9.272187948E-2,4.831707001E0,8.279465675E0
2.948383771E0,4.965107143E-2,4.848456860E0,8.265108109E0
2.950804604E0,5.682953820E-2,4.838885784E0,8.281858444E0
2.953225438E0,1.615155302E-2,4.798207760E0,8.339585304E0
2.955647052E0,-2.452643216E-2,4.776372910E0,8.385048866E0
2.958068719E0,-3.170489892E-2,4.716552734E0,8.444869041E0
2.960489500E0,-5.563312769E-2,4.656732082E0,8.440083504E0
2.962910334E0,-1.202393398E-1,4.618446827E0,8.447261810E0
2.965332000E0,-2.015953064E-1,4.580161572E0,8.449654579E0
2.967753667E0,-2.566302419E-1,4.544269085E0,8.490332603E0
2.970174448E0,-3.403790295E-1,4.515555382E0,8.550153732E0
2.972595281E0,-4.268197417E-1,4.501198292E0,8.662615776E0
2.975016948E0,-4.818546474E-1,4.470091820E0,8.715258598E0
2.977438563E0,-5.201398134E-1,4.407878399E0,8.751151085E0
2.979859396E0,-5.847460628E-1,4.369593143E0,8.743971825E0
2.982280229E0,-6.732804775E-1,4.300201416E0,8.739186287E0
2.984701896E0,-8.455637097E-1,4.269094467E0,8.751151085E0
2.987123511E0,-9.870393276E-1,4.281058788E0,8.825327873E0
2.989544344E0,-9.942178130E-1,4.281058788E0,8.940483093E0
2.991965177E0,-1.018146038E0,4.285844326E0,9.038588524E0
2.994386792E0,-1.030110121E0,4.307379723E0,9.060123444E0
2.996808459E0,-1.061216831E0,4.297808647E0,9.110373497E0
2.999229240E0,-1.051645517E0,4.371985912E0,9.093623161E0
3.001650073E0,-1.032503009E0,4.391128540E0,9.074481010E0
3.004071740E0,-1.008574724E0,4.400700092E0,9.019445419E0
3.006493406E0,-1.015753269E0,4.355236530E0,8.971589088E0
3.008914188E0,-1.018146038E0,4.273880482E0,9.005088806E0
3.011335021E0,-1.015753269E0,4.199403763E0,9.055337906E0
3.013756688E0,-1.030110121E0,4.151547432E0,9.096015930E0
3.016178302E0,-1.042074203E0,4.156332970E0,9.107980728E0
3.018599136E0,-9.774680734E-1,4.194618225E0,9.107980728E0
3.021019969E0,-9.173483849E-1,4.216153622E0,9.076873779E0
3.023441636E0,-8.718847632E-1,4.228117466E0,9.076873779E0
3.025863250E0,-8.742775917E-1,4.235595226E0,9.084052086E0
3.028284084E0,-8.910273314E-1,4.197010994E0,9.069695473E0
3.030704917E0,-9.535398483E-1,4.180261135E0,9.012267113E0
3.033126531E0,-9.607182741E-1,4.201796532E0,8.950054169E0
3.035548198E0,-9.559326172E-1,4.293023109E0,8.897412300E0
3.037968979E0,-9.391828775E-1,4.601696968E0,8.916554451E0
3.040389813E0,-8.982058167E-1,4.898705959E0,9.134301186E0
3.042811479E0,-1.039681435E0,4.984847546E0,9.464810371E0
3.045233146E0,-1.252642632E0,4.951348305E0,9.598808289E0
3.047653927E0,-1.398604870E0,4.836492538E0,9.524630547E0
3.050074761E0,-1.501795292E0,4.644767761E0,9.304191589E0
3.052496427E0,-1.633400559E0,4.412663937E0,9.007481575E0
3.054918042E0,-1.561615825E0,4.252345085E0,8.796614647E0
3.057338875E0,-1.484746456E0,4.070191383E0,8.679366112E0
3.059759709E0,-1.497009635E0,3.869194269E0,8.667402267E0
3.062181375E0,-1.470389485E0,3.704089403E0,8.696115494E0
3.064602990E0,-1.283749342E0,3.672982693E0,8.700901031E0
3.067023823E0,-1.118644595E0,3.687339783E0,8.784649849E0
3.069444656E0,-9.726824164E-1,3.723232031E0,8.938090324E0
3.071866271E0,-1.025324464E0,3.696911097E0,9.029017448E0
3.074287938E0,-1.113858938E0,3.636791229E0,9.170193672E0
3.076708719E0,-1.202393413E0,3.586542130E0,9.141479492E0
3.079129552E0,-1.264606714E0,3.526721478E0,9.048159599E0
3.081551219E0,-1.231107235E0,3.569792271E0,8.978767395E0
3.083972886E0,-1.089930773E0,3.617648840E0,8.911768913E0
3.086393667E0,-9.798609018E-1,3.735196114E0,8.923732758E0
3.088814500E0,-9.798609018E-1,3.783052683E0,9.002696037E0
3.091236167E0,-9.870393276E-1,3.955335855E0,9.230013847E0
3.093657781E0,-1.286142230E0,4.180261135E0,9.479166985E0
3.096078615E0,-1.317248821E0,4.517948151E0,9.763913155E0
3.098499448E0,-1.231107235E0,4.771587372E0,9.840482712E0
3.100921115E0,-1.135394335E0,4.817350388E0,9.639486313E0
3.103342729E0,-1.173679471E0,4.532305241E0,9.419047356E0
3.105763563E0,-1.571187139E0,4.010370731E0,9.277871132E0
3.108184396E0,-2.119442701E0,3.239582777E0,9.201300621E0
3.110606011E0,-2.105085611E0,2.815753937E0,9.265906334E0
3.113027677E0,-1.839183331E0,2.787040234E0,9.428618431E0
3.115448459E0,-1.616650820E0,2.901895761E0,9.517452240E0
3.117869292E0,-1.393819213E0,2.959323406E0,9.404690742E0
3.120290959E0,-1.133001566E0,2.930609465E0,9.210871696E0
3.122712625E0,-8.742775917E-1,2.772683144E0,9.076873779E0
3.125133406E0,-6.062814593E-1,2.619542599E0,8.973981857E0
3.127554240E0,-3.308077157E-1,2.485245466E0,8.839685440E0
3.129975906E0,1.615155302E-2,2.490031004E0,8.598010063E0
3.132397521E0,3.921238184E-1,2.605185747E0,8.337192535E0
3.134818354E0,6.385845542E-1,2.851646423E0,7.985148430E0
3.137239188E0,8.135597110E-1,3.064607620E0,7.798508167E0
3.139660854E0,8.470591903E-1,3.249154091E0,7.726424217E0
3.142082469E0,8.255237937E-1,3.411865950E0,7.788936615E0
3.144503302E0,7.486543655E-1,3.529114246E0,7.951648712E0
3.146924136E0,6.864410043E-1,3.677768469E0,8.061718941E0
3.149345750E0,5.811567903E-1,3.828516245E0,8.150253296E0
3.151767417E0,5.380859971E-1,4.000799656E0,8.193324089E0
3.154188250E0,4.878367186E-1,4.213760853E0,8.241180420E0
3.156609084E0,4.758726060E-1,4.455734730E0,8.260322571E0
3.159030698E0,4.758726060E-1,4.663910389E0,8.305786133E0
3.161452365E0,5.093721151E-1,4.812564373E0,8.317750931E0
3.163873146E0,5.931209326E-1,4.905884743E0,8.269894600E0
3.166293979E0,6.337988973E-1,4.934598446E0,8.162217140E0
3.168715646E0,7.247261405E-1,4.963312149E0,8.006683350E0
3.171137261E0,7.633104324E-1,4.915455818E0,7.884649754E0
3.173558094E0,8.518448472E-1,4.867599487E0,7.805686474E0
3.175978927E0,9.116654396E-1,4.802993298E0,7.759923935E0
3.178400594E0,1.009771109E0,4.798207760E0,7.800900936E0
3.180822209E0,1.105484009E0,4.762016296E0,7.899006844E0
3.183243042E0,1.220339537E0,4.785944462E0,7.932506084E0
3.185663875E0,1.299302697E0,4.762016296E0,7.939684868E0
3.188085490E0,1.390529037E0,4.757230282E0,7.915756226E0
3.190507156E0,1.438385487E0,4.728516579E0,7.939684868E0
3.192927938E0,1.476670623E0,4.699802876E0,7.944470406E0
3.195348771E0,1.479063511E0,4.668695927E0,7.930113316E0
3.197770438E0,1.469492197E0,4.604089737E0,7.927720547E0
3.200192104E0,1.471885085E0,4.575376034E0,7.942077637E0
3.202612886E0,1.452742457E0,4.563411713E0,7.961220264E0
3.205033719E0,1.428814173E0,4.577768803E0,8.009076118E0
3.207455386E0,1.414457321E0,4.582554340E0,8.016255379E0
3.209877000E0,1.409671664E0,4.630411148E0,8.018648148E0
3.212297834E0,1.390529037E0,4.625625134E0,8.049754143E0
3.214718667E0,1.361815214E0,4.625625134E0,8.033004761E0
3.217140334E0,1.330708504E0,4.706981182E0,7.999505043E0
3.219561948E0,1.316351533E0,4.778766155E0,7.961220264E0
3.221982781E0,1.304088354E0,4.910670280E0,7.949255943E0
3.224403615E0,1.328315616E0,5.051846981E0,7.997112274E0
3.226825229E0,1.311266780E0,5.183452129E0,7.970791340E0
3.229246896E0,1.251446247E0,5.307878971E0,7.942077637E0
3.231667677E0,1.186840057E0,5.444568634E0,7.985148430E0
3.234088511E0,1.162911773E0,5.530710220E0,8.068897247E0
3.236510177E0,1.141376376E0,5.624030590E0,8.052146912E0
3.238931844E0,1.105484009E0,5.774778366E0,8.066504478E0
3.241352625E0,1.141376376E0,5.901597977E0,8.064111710E0
3.243773459E0,1.172483087E0,6.019145489E0,8.068897247E0
3.246195125E0,1.208375454E0,6.114858150E0,8.071290016E0
3.248616740E0,1.215553880E0,6.244070530E0,8.033004761E0
3.251037573E0,1.239482164E0,6.363711834E0,8.037790298E0
3.253458406E0,1.229910851E0,6.457031727E0,8.033004761E0
3.255880073E0,1.227517962E0,6.507580280E0,7.985148430E0
3.258301688E0,1.179661512E0,6.560222149E0,7.889435291E0
3.260722521E0,1.146162033E0,6.622435570E0,7.793722630E0
3.263143354E0,1.141376376E0,6.699006081E0,7.661818027E0
3.265564969E0,1.136590719E0,6.718148708E0,7.570890903E0
3.267986636E0,1.055234790E0,6.691827774E0,7.537391186E0
3.270407469E0,1.004985452E0,6.667899609E0,7.506284714E0
3.272828302E0,9.451649189E-1,6.646364212E0,7.513463020E0
3.275249917E0,9.164510965E-1,6.598507404E0,7.570890903E0
3.277671584E0,9.499505758E-1,6.608078957E0,7.575676441E0
3.280092365E0,9.164510965E-1,6.596114635E0,7.599604607E0
3.282513198E0,9.379864931E-1,6.596114635E0,7.635497093E0
3.284934865E0,9.547362328E-1,6.608078957E0,7.659425259E0
3.287356479E0,9.954141974E-1,6.641578197E0,7.707281590E0
3.289777313E0,1.091127157E0,6.672685146E0,7.781758308E0
3.292198146E0,1.186840057E0,6.684648991E0,7.805686474E0
3.294619813E0,1.284945726E0,6.667899609E0,7.834400654E0
3.297041427E0,1.397707582E0,6.675077915E0,7.779365540E0
3.299462261E0,1.471885085E0,6.672685146E0,7.827221870E0
3.301883094E0,1.567597985E0,6.665506363E0,7.879864216E0
3.304304709E0,1.653739572E0,6.622435570E0,7.910970688E0
3.306726375E0,1.749452472E0,6.553043842E0,7.927720547E0
3.309147156E0,1.811665893E0,6.478866577E0,7.899006844E0
3.311567990E0,1.873879194E0,6.416353703E0,7.798508167E0
3.313989656E0,1.871486425E0,6.351747513E0,7.726424217E0
3.316411323E0,1.849951029E0,6.308676720E0,7.613961697E0
3.318832104E0,1.804487348E0,6.284748554E0,7.482356548E0
3.321252938E0,1.739881158E0,6.327819347E0,7.401000500E0
3.323674604E0,1.672882080E0,6.370890141E0,7.350750923E0
3.326096219E0,1.603490233E0,6.428318024E0,7.326822758E0
3.328517052E0,1.567597985E0,6.514758587E0,7.302894592E0
3.330937886E0,1.541276932E0,6.572186470E0,7.278966427E0
3.333359552E0,1.562812328E0,6.596114635E0,7.228717327E0
3.335781167E0,1.538884044E0,6.615257263E0,7.163811684E0
3.338202000E0,1.577169180E0,6.588936329E0,7.103991508E0
3.340622834E0,1.627418518E0,6.560222149E0,7.060920715E0
3.343044448E0,1.651346684E0,6.507580280E0,7.010671139E0
3.345466115E0,1.672882080E0,6.435496330E0,7.010671139E0
3.347886896E0,1.701596022E0,6.354140759E0,7.008278370E0
3.350307729E0,1.713560104E0,6.279963017E0,6.996314526E0
3.352729396E0,1.723131418E0,6.212964058E0,6.996314526E0
3.355151063E0,1.708774447E0,6.153143406E0,6.972385883E0
3.357571844E0,1.715952992E0,6.095715523E0,6.941279411E0
3.359992677E0,1.737488389E0,6.100501537E0,6.910172462E0
3.362414344E0,1.706381679E0,6.100501537E0,6.924529552E0
3.364835959E0,1.684846282E0,6.090929985E0,6.972385883E0
3.367256792E0,1.677667737E0,6.098108292E0,6.972385883E0
3.369677625E0,1.656132340E0,6.086144447E0,6.984350204E0
3.372099292E0,1.663310885E0,6.074180126E0,7.003492832E0
3.374520906E0,1.656132340E0,6.057430744E0,6.989135742E0
3.376941740E0,1.629811287E0,6.035895348E0,6.991528511E0
3.379362573E0,1.572383523E0,6.011966705E0,6.993921280E0
3.381784188E0,1.510170221E0,6.009573936E0,6.979564667E0
3.384205854E0,1.502991676E0,6.019145489E0,6.955636501E0
3.386626636E0,1.467099428E0,6.043073654E0,6.948457718E0
3.389047469E0,1.455135226E0,6.040680885E0,6.955636501E0
3.391469136E0,1.459920883E0,6.031109333E0,6.924529552E0
3.393890802E0,1.467099428E0,6.055037498E0,6.907779694E0
3.396311584E0,1.483849168E0,6.062216282E0,6.907779694E0
3.398732417E0,1.488634825E0,6.045466423E0,6.914958477E0
3.401154084E0,1.510170221E0,6.098108292E0,6.914958477E0
3.403575698E0,1.510170221E0,6.124429703E0,6.902994156E0
3.405996531E0,1.524527073E0,6.189035892E0,6.898208618E0
3.408417365E0,1.534098387E0,6.251249313E0,6.900601387E0
3.410839031E0,1.555633783E0,6.299105644E0,6.902994156E0
3.413260646E0,1.589133382E0,6.346961975E0,6.879065990E0
3.415681479E0,1.608275890E0,6.373282909E0,6.886244297E0
3.418102313E0,1.601097465E0,6.382854462E0,6.886244297E0
3.420523927E0,1.622632861E0,6.387639999E0,6.891030312E0
3.422945594E0,1.627418518E0,6.387639999E0,6.871887684E0
3.425366375E0,1.634596944E0,6.385247231E0,6.838387966E0
3.427787209E0,1.627418518E0,6.397211552E0,6.840780735E0
3.430208875E0,1.617847204E0,6.406782627E0,6.835995197E0
3.432630542E0,1.550848126E0,6.418746948E0,6.800102711E0
3.435051323E0,1.514955878E0,6.406782627E0,6.780960083E0
3.437472156E0,1.502991676E0,6.406782627E0,6.776174545E0
3.439893823E0,1.450349569E0,6.423532486E0,6.735496521E0
3.442315438E0,1.404886007E0,6.435496330E0,6.682854652E0
3.444736271E0,1.388136268E0,6.486044884E0,6.641877651E0
3.447157104E0,1.359422326E0,6.512365818E0,6.658926487E0
3.449578719E0,1.299302697E0,6.565008163E0,6.658926487E0
3.452000386E0,1.265803218E0,6.622435570E0,6.666104794E0
3.454421167E0,1.237089276E0,6.648756981E0,6.658926487E0
3.456842000E0,1.227517962E0,6.677470684E0,6.622735023E0
3.459263667E0,1.225125194E0,6.699006081E0,6.555736065E0
3.461685334E0,1.225125194E0,6.722934246E0,6.527021885E0
3.464106115E0,1.208375454E0,6.751648426E0,6.536593437E0
3.466526948E0,1.189232826E0,6.770790577E0,6.548557281E0
3.468948615E0,1.194018483E0,6.789933205E0,6.613163471E0
3.471370281E0,1.191625714E0,6.821040154E0,6.579664230E0
3.473791063E0,1.208375454E0,6.835396767E0,6.579664230E0
3.476211896E0,1.196411371E0,6.873682022E0,6.541378975E0
3.478633563E0,1.196411371E0,6.885646343E0,6.608377934E0
3.481055177E0,1.198804140E0,6.919145584E0,6.620342255E0
3.483476011E0,1.158126116E0,6.916752815E0,6.625127792E0
3.485896844E0,1.115055323E0,6.921538830E0,6.594020844E0
3.488318459E0,1.055234790E0,6.955038071E0,6.594020844E0
3.490740125E0,9.882357717E-1,6.967002392E0,6.567699909E0
3.493160959E0,9.260223508E-1,7.012465954E0,6.586842537E0
3.495581792E0,8.805587292E-1,7.089335442E0,6.589235306E0
3.498003406E0,8.638089895E-1,7.177869797E0,6.589235306E0
3.500425073E0,8.709874153E-1,7.244868755E0,6.596413612E0
3.502845854E0,8.614161611E-1,7.259225845E0,6.598806858E0
3.505266688E0,8.733802438E-1,7.259225845E0,6.598806858E0
3.507688354E0,8.949156404E-1,7.273582458E0,6.605985165E0
3.510109969E0,8.901300430E-1,7.275975227E0,6.577271461E0
3.512530802E0,8.614161611E-1,7.266404152E0,6.584449768E0
3.514951636E0,8.446664214E-1,7.247261524E0,6.591628075E0
3.517373302E0,8.135597110E-1,7.254439831E0,6.594020844E0
3.519794917E0,6.696912646E-1,7.232904434E0,6.598806858E0
3.522215750E0,5.811567903E-1,7.199405193E0,6.591628075E0
3.524636584E0,5.596213937E-1,7.158727169E0,6.591628075E0
3.527058198E0,5.835496187E-1,7.118049145E0,6.574878216E0
3.529479865E0,5.763711333E-1,7.101299286E0,6.565307140E0
3.531900646E0,6.002993584E-1,7.084549427E0,6.512664795E0
3.534321479E0,6.361917257E-1,7.072585583E0,6.505486488E0
3.536743146E0,6.074778438E-1,7.065407276E0,6.491129398E0
3.539164813E0,5.620142221E-1,7.051050186E0,6.517450809E0
3.541585594E0,5.165506005E-1,7.067800045E0,6.505486488E0
3.544006427E0,4.782654345E-1,7.098906517E0,6.558128834E0
3.546428094E0,4.782654345E-1,7.165905476E0,6.589235306E0
3.548849709E0,5.237290859E-1,7.225726128E0,6.613163471E0
3.551270542E0,5.715855360E-1,7.285546780E0,6.605985165E0
3.553691375E0,5.644070506E-1,7.323832035E0,6.558128834E0
3.556113042E0,6.098706722E-1,7.383652687E0,6.536593437E0
3.558534656E0,6.505486369E-1,7.433901787E0,6.558128834E0
3.560955490E0,6.577271223E-1,7.455437183E0,6.584449768E0
3.563376323E0,6.840481758E-1,7.472187042E0,6.577271461E0
3.565797938E0,7.223333120E-1,7.503293514E0,6.582056999E0
3.568219604E0,7.007979155E-1,7.517650604E0,6.567699909E0
3.570640386E0,7.199404836E-1,7.536793232E0,6.543771744E0
3.573061219E0,6.912266612E-1,7.579864025E0,6.541378975E0
3.575482886E0,6.816553473E-1,7.616055489E0,6.570092678E0
3.577904552E0,6.696912646E-1,7.649554729E0,6.538986206E0
3.580325334E0,6.816553473E-1,7.651947498E0,6.541378975E0
3.582746167E0,7.031907439E-1,7.666304588E0,6.507879257E0
3.585167834E0,6.864410043E-1,7.663911819E0,6.531807423E0
3.587589448E0,6.840481758E-1,7.699804306E0,6.548557281E0
3.590010281E0,6.864410043E-1,7.726125240E0,6.582056999E0
3.592431115E0,6.912266612E-1,7.738089561E0,6.596413612E0
3.594852781E0,7.271189690E-1,7.750053406E0,6.608377934E0
3.597274396E0,7.561319470E-1,7.769196033E0,6.661319256E0
3.599695229E0,7.920243144E-1,7.793124199E0,6.668497562E0
3.602116063E0,8.111668825E-1,7.783553123E0,6.680461884E0
3.604537677E0,7.872386575E-1,7.781160355E0,6.682854652E0
3.606959344E0,7.752745152E-1,7.778767109E0,6.622735023E0
3.609380125E0,7.390831113E-1,7.783553123E0,6.639484406E0
3.611800959E0,7.031907439E-1,7.781160355E0,6.634698868E0
3.614222625E0,6.457630396E-1,7.788338661E0,6.629913330E0
3.616644240E0,6.122635007E-1,7.778767109E0,6.658926487E0
3.619065073E0,5.500500798E-1,7.785945892E0,6.675675869E0
3.621485906E0,5.165506005E-1,7.790731430E0,6.666104794E0
3.623907573E0,4.950151742E-1,7.817052364E0,6.685247421E0
3.626329188E0,4.686941206E-1,7.802695751E0,6.675675869E0
3.628750021E0,4.806582630E-1,7.781160355E0,6.675675869E0
3.631170854E0,4.878367186E-1,7.776374340E0,6.697211266E0
3.633592469E0,4.926223755E-1,7.711768150E0,6.697211266E0
3.636014136E0,5.117649436E-1,7.685447216E0,6.697211266E0
3.638434917E0,5.380859971E-1,7.642376423E0,6.687640190E0
3.640855750E0,5.380859971E-1,7.591827869E0,6.716353893E0
3.643277417E0,5.404788256E-1,7.558328629E0,6.706782818E0
3.645699084E0,5.644070506E-1,7.520043373E0,6.728318214E0
3.648119865E0,5.955137610E-1,7.488936901E0,6.740282059E0
3.650540698E0,6.337988973E-1,7.465008259E0,6.759424686E0
3.652962365E0,6.290132403E-1,7.424330235E0,6.749853611E0
3.655383979E0,6.337988973E-1,7.388438225E0,6.740282059E0
3.657804813E0,6.218347549E-1,7.376473904E0,6.737889290E0
3.660225646E0,5.739783049E-1,7.340581894E0,6.725925446E0
3.662647313E0,5.428716540E-1,7.374081135E0,6.706782818E0
3.665068927E0,4.902295470E-1,7.338188648E0,6.716353893E0
3.667489761E0,4.854438901E-1,7.366902828E0,6.709175587E0
3.669910594E0,4.806582630E-1,7.364510059E0,6.728318214E0
3.672332209E0,5.021936297E-1,7.374081135E0,6.704390049E0
3.674753875E0,4.782654345E-1,7.409973621E0,6.680461884E0
3.677174656E0,4.471587241E-1,7.407580853E0,6.666104794E0
3.679595490E0,4.471587241E-1,7.412366390E0,6.651747704E0
3.682017156E0,3.993022740E-1,7.407580853E0,6.610770702E0
3.684438771E0,4.112663865E-1,7.426723480E0,6.615556240E0
3.686859604E0,3.993022740E-1,7.421937466E0,6.579664230E0
3.689280438E0,4.016951025E-1,7.412366390E0,6.594020844E0
3.691702104E0,4.375874400E-1,7.386045456E0,6.617949009E0
3.694123719E0,4.615156651E-1,7.354938507E0,6.613163471E0
3.696544552E0,4.974080026E-1,7.331010342E0,6.625127792E0
3.698965386E0,5.141577721E-1,7.299903870E0,6.617949009E0
3.701387052E0,5.069792867E-1,7.271189690E0,6.613163471E0
3.703808667E0,5.141577721E-1,7.254439831E0,6.617949009E0
3.706229500E0,5.644070506E-1,7.261618614E0,6.615556240E0
3.708650334E0,5.691927075E-1,7.252047062E0,6.594020844E0
3.711071948E0,5.739783049E-1,7.256833076E0,6.579664230E0
3.713493615E0,6.050850153E-1,7.242475986E0,6.555736065E0
3.715914396E0,5.667998791E-1,7.223333359E0,6.558128834E0
3.718335229E0,5.811567903E-1,7.228118896E0,6.541378975E0
3.720756896E0,5.644070506E-1,7.206583500E0,6.550950050E0
3.723178563E0,5.548357368E-1,7.163512707E0,6.524629116E0
3.725599344E0,5.572285652E-1,7.141977310E0,6.519843578E0
3.728020177E0,5.380859971E-1,7.115656376E0,6.553342819E0
3.730441844E0,5.333003402E-1,7.098906517E0,6.550950050E0
3.732863459E0,5.404788256E-1,7.074978352E0,6.543771744E0
3.735284292E0,5.596213937E-1,7.058228493E0,6.550950050E0
3.737705125E0,5.667998791E-1,7.046264648E0,6.560521603E0
3.740126740E0,5.979065299E-1,7.034001350E0,6.594020844E0
3.742548406E0,6.242275834E-1,7.026822567E0,6.579664230E0
3.744969188E0,6.194419861E-1,7.014858723E0,6.570092678E0
3.747390021E0,6.361917257E-1,6.993323326E0,6.577271461E0
3.749811688E0,6.529414654E-1,6.969395161E0,6.572485447E0
3.752233354E0,6.314060688E-1,6.955038071E0,6.567699909E0
3.754654136E0,6.170491576E-1,6.933502674E0,6.577271461E0
3.757074969E0,6.218347549E-1,6.947859764E0,6.553342819E0
3.759496636E0,5.524429083E-1,6.935895443E0,6.548557281E0
3.761918250E0,5.261218548E-1,6.926324368E0,6.543771744E0
3.764339084E0,5.093721151E-1,6.950252533E0,6.574878216E0
3.766759917E0,4.854438901E-1,6.976573467E0,6.550950050E0
3.769181584E0,4.519443810E-1,6.993323326E0,6.534200668E0
3.771603198E0,4.040879309E-1,7.026822567E0,6.534200668E0
3.774024031E0,3.705884218E-1,7.048657417E0,6.519843578E0
3.776444865E0,3.251247704E-1,7.077371120E0,6.507879257E0
3.778866479E0,3.035893738E-1,7.094120979E0,6.522236347E0
3.781288146E0,2.892324328E-1,7.082156658E0,6.529414654E0
3.783708927E0,2.988037169E-1,7.094120979E0,6.517450809E0
3.786129761E0,2.868396044E-1,7.084549427E0,6.546164513E0
3.788551427E0,2.916252613E-1,7.060621262E0,6.560521603E0
3.790973094E0,2.772683203E-1,7.036394119E0,6.550950050E0
3.793393875E0,2.916252613E-1,7.031608582E0,6.555736065E0
3.795814709E0,2.796611488E-1,7.017251492E0,6.562914371E0
3.798236375E0,2.629113793E-1,7.007680416E0,6.562914371E0
3.800657990E0,2.605185509E-1,6.995716095E0,6.538986206E0
3.803078823E0,2.533400953E-1,6.981359005E0,6.567699909E0
3.805499656E0,2.485544533E-1,6.955038071E0,6.589235306E0
3.807921323E0,2.294118702E-1,6.947859764E0,6.565307140E0
3.810342938E0,2.294118702E-1,6.914360046E0,6.584449768E0
3.812763771E0,2.174477577E-1,6.880860806E0,6.567699909E0
3.815184604E0,2.437688112E-1,6.883253574E0,6.548557281E0
3.817606219E0,2.437688112E-1,6.837790012E0,6.555736065E0
3.820027886E0,2.270190418E-1,6.809075832E0,6.550950050E0
3.822448667E0,2.341975123E-1,6.763612270E0,6.574878216E0
3.824869500E0,2.341975123E-1,6.744469643E0,6.586842537E0
3.827291167E0,2.341975123E-1,6.689435005E0,6.591628075E0
3.829712781E0,2.461616248E-1,6.651149750E0,6.594020844E0
3.832133615E0,2.653042078E-1,6.622435570E0,6.598806858E0
3.834554448E0,2.629113793E-1,6.579364777E0,6.584449768E0
3.836976115E0,2.676970363E-1,6.553043842E0,6.608377934E0
3.839397729E0,2.437688112E-1,6.526722908E0,6.613163471E0
3.841818563E0,2.341975123E-1,6.500401974E0,6.589235306E0
3.844239396E0,1.908276081E-1,6.486044884E0,6.570092678E0
3.846661011E0,1.645065546E-1,6.452246189E0,6.519843578E0
3.849082677E0,1.405783296E-1,6.437889099E0,6.550950050E0
3.851503511E0,8.793623000E-2,6.442675114E0,6.524629116E0
3.853924344E0,6.879365444E-2,6.447460651E0,6.543771744E0
3.856345959E0,2.572284266E-2,6.442675114E0,6.560521603E0
3.858767625E0,8.973085321E-3,6.442675114E0,6.548557281E0
3.861188406E0,-2.213360928E-2,6.478866577E0,6.572485447E0
3.863609240E0,-3.888336942E-2,6.517151356E0,6.591628075E0
3.866030906E0,-2.452643216E-2,6.545865536E0,6.601199627E0
3.868452521E0,-1.974078640E-2,6.553043842E0,6.605985165E0
3.870873354E0,-3.888336942E-2,6.593721867E0,6.622735023E0
3.873294188E0,-2.213360928E-2,6.579364777E0,6.617949009E0
3.875715854E0,-1.495514158E-2,6.598507404E0,6.637091637E0
3.878137469E0,-1.256231871E-2,6.598507404E0,6.620342255E0
3.880558302E0,-1.256231871E-2,6.608078957E0,6.654140472E0
3.882979136E0,-1.734796353E-2,6.572186470E0,6.668497562E0
3.885400750E0,-2.691925503E-2,6.576972008E0,6.668497562E0
3.887822417E0,4.187439568E-3,6.591329098E0,6.661319256E0
3.890243198E0,-3.649054468E-2,6.615257263E0,6.666104794E0
3.892664031E0,-1.495514158E-2,6.641578197E0,6.706782818E0
3.895085698E0,-4.366901144E-2,6.658328056E0,6.728318214E0
3.897507365E0,-7.776673418E-3,6.682256222E0,6.742675304E0
3.899928146E0,1.136590727E-2,6.696613312E0,6.742675304E0
3.902348979E0,-5.383851007E-3,6.720541477E0,6.761817455E0
3.904770646E0,-1.016949583E-2,6.722934246E0,6.730710983E0
3.907192261E0,-5.324030295E-2,6.739684105E0,6.752246380E0
3.909613094E0,-6.999006122E-2,6.737291336E0,6.761817455E0
3.912033927E0,-1.106680483E-1,6.727719784E0,6.766603470E0
3.914455542E0,-1.202393398E-1,6.766005039E0,6.745068073E0
3.916877209E0,-1.274178028E-1,6.761219501E0,6.761817455E0
3.919298042E0,-9.391828626E-2,6.770790577E0,6.768996239E0
3.921718875E0,-9.152546525E-2,6.794719219E0,6.761817455E0
3.924140490E0,-6.520441920E-2,6.806683064E0,6.768996239E0
3.926562156E0,-2.931207791E-2,6.821040154E0,6.768996239E0
3.928982938E0,-4.606183618E-2,6.828218460E0,6.785746098E0
3.931403771E0,-4.366901144E-2,6.844968319E0,6.759424686E0
3.933825438E0,-4.366901144E-2,6.864110947E0,6.790531635E0
3.936247052E0,-5.324030295E-2,6.926324368E0,6.766603470E0
3.938667886E0,-4.366901144E-2,6.935895443E0,6.776174545E0
3.941088719E0,-3.649054468E-2,6.986145020E0,6.742675304E0
3.943510386E0,-3.649054468E-2,7.007680416E0,6.721139908E0
3.945932000E0,-4.845465720E-2,7.053442955E0,6.704390049E0
3.948352834E0,-4.366901144E-2,7.055835724E0,6.713961124E0
3.950773667E0,-5.802594870E-2,7.098906517E0,6.697211266E0
3.953195281E0,-7.477571070E-2,7.125227451E0,6.685247421E0
3.955616948E0,-9.870393574E-2,7.170691490E0,6.687640190E0
3.958037729E0,-1.034895778E-1,7.189833641E0,6.699604511E0
3.960458563E0,-9.631111473E-2,7.185048103E0,6.697211266E0
3.962880229E0,-1.393819153E-1,7.199405193E0,6.692425728E0
3.965301896E0,-1.561316848E-1,7.182655334E0,6.680461884E0
3.967722677E0,-1.513460279E-1,7.208976269E0,6.678069115E0
3.970143511E0,-1.250249892E-1,7.199405193E0,6.685247421E0
3.972565177E0,-1.154536903E-1,7.211369038E0,6.682854652E0
3.974986792E0,-8.195417374E-2,7.180262566E0,6.699604511E0
3.977407625E0,-6.999006122E-2,7.175477028E0,6.699604511E0
3.979828459E0,-9.631111473E-2,7.141977310E0,6.694818497E0
3.982250125E0,-9.631111473E-2,7.125227451E0,6.680461884E0
3.984671740E0,-1.154536903E-1,7.106084824E0,6.706782818E0
3.987092573E0,-1.250249892E-1,7.091728210E0,6.694818497E0
3.989513406E0,-1.393819153E-1,7.086942673E0,6.721139908E0
3.991935021E0,-1.393819153E-1,7.094120979E0,6.721139908E0
3.994356688E0,-1.585244983E-1,7.089335442E0,6.742675304E0
3.996777469E0,-1.680957973E-1,7.082156658E0,6.747460842E0
3.999198302E0,-1.728814393E-1,7.072585583E0,6.752246380E0
4.001619969E0,-1.633101404E-1,7.053442955E0,6.735496521E0
4.004041584E0,-1.776670814E-1,7.060621262E0,6.759424686E0
4.006462417E0,-2.135594189E-1,7.029215813E0,6.718746662E0
4.008883250E0,-2.374876440E-1,7.036394119E0,6.735496521E0
4.011304917E0,-2.685943544E-1,7.014858723E0,6.757031918E0
4.013726531E0,-2.805584669E-1,7.019644260E0,6.730710983E0
4.016147365E0,-3.260220885E-1,7.017251492E0,6.723532677E0
4.018568198E0,-3.571287692E-1,7.014858723E0,6.752246380E0
4.020989813E0,-3.499503136E-1,7.060621262E0,6.757031918E0
4.023411479E0,-3.547359705E-1,7.089335442E0,6.764210701E0
4.025832261E0,-3.717848063E-1,7.082156658E0,6.771389008E0
4.028253094E0,-3.861417472E-1,7.101299286E0,6.776174545E0
4.030674761E0,-3.957130313E-1,7.115656376E0,6.759424686E0
4.033096427E0,-4.268197417E-1,7.120441914E0,6.737889290E0
4.035517209E0,-4.339981973E-1,7.108478069E0,6.759424686E0
4.037938042E0,-4.770690203E-1,7.108478069E0,6.776174545E0
4.040359709E0,-4.938187599E-1,7.106084824E0,6.768996239E0
4.042781323E0,-5.344967842E-1,7.096513748E0,6.768996239E0
4.045202156E0,-5.081757307E-1,7.110870838E0,6.790531635E0
4.047622990E0,-5.297111273E-1,7.120441914E0,6.764210701E0
4.050044656E0,-5.297111273E-1,7.113263607E0,6.780960083E0
4.052466271E0,-5.344967842E-1,7.115656376E0,6.766603470E0
4.054887104E0,-5.560321808E-1,7.089335442E0,6.747460842E0
4.057307938E0,-5.608177781E-1,7.106084824E0,6.764210701E0
4.059729552E0,-5.560321808E-1,7.101299286E0,6.776174545E0
4.062151219E0,-5.656034350E-1,7.103692055E0,6.771389008E0
4.064572000E0,-5.632106066E-1,7.082156658E0,6.749853611E0
4.066992834E0,-5.416752100E-1,7.065407276E0,6.785746098E0
4.069414500E0,-5.249254704E-1,7.072585583E0,6.790531635E0
4.071836167E0,-5.153541565E-1,7.074978352E0,6.766603470E0
4.074256948E0,-4.579264224E-1,7.070192814E0,6.749853611E0
4.076677781E0,-4.387838542E-1,7.084549427E0,6.742675304E0
4.079099448E0,-4.459623098E-1,7.082156658E0,6.687640190E0
4.081521063E0,-4.220340848E-1,7.096513748E0,6.685247421E0
4.083941896E0,-4.244269133E-1,7.091728210E0,6.649055958E0
4.086362729E0,-4.124628007E-1,7.101299286E0,6.661319256E0
4.088784396E0,-4.268197417E-1,7.137191772E0,6.622735023E0
4.091206011E0,-4.172484577E-1,7.180262566E0,6.603592396E0
4.093626844E0,-4.124628007E-1,7.185048103E0,6.594020844E0
4.096047677E0,-4.148556292E-1,7.208976269E0,6.594020844E0
4.098469292E0,-4.220340848E-1,7.244868755E0,6.567699909E0
4.100890959E0,-4.076771438E-1,7.271189690E0,6.567699909E0
4.103311740E0,-4.028915167E-1,7.316653252E0,6.546164513E0
4.105732573E0,-4.052843451E-1,7.331010342E0,6.541378975E0
4.108154240E0,-4.196412563E-1,7.371688366E0,6.529414654E0
4.110575854E0,-4.220340848E-1,7.395616531E0,6.553342819E0
4.112996688E0,-4.076771438E-1,7.412366390E0,6.548557281E0
4.115417521E0,-4.004986882E-1,7.441080093E0,6.534200668E0
4.117839188E0,-3.861417472E-1,7.445865631E0,6.527021885E0
4.120260802E0,-3.837489188E-1,7.460222721E0,6.515058041E0
4.122681636E0,-3.451646566E-1,7.450651646E0,6.500700951E0
4.125102469E0,-3.188436031E-1,7.417151928E0,6.476772785E0
4.127524084E0,-2.949153781E-1,7.417151928E0,6.507879257E0
4.129945750E0,-3.164508045E-1,7.407580853E0,6.507879257E0
4.132366531E0,-2.973082066E-1,7.390830994E0,6.512664795E0
4.134787365E0,-2.997010350E-1,7.405188084E0,6.558128834E0
4.137209031E0,-3.020938635E-1,7.407580853E0,6.546164513E0
4.139630698E0,-2.901297510E-1,7.429116249E0,6.527021885E0
4.142051479E0,-2.590230405E-1,7.426723480E0,6.505486488E0
4.144472313E0,-2.566302419E-1,7.455437183E0,6.522236347E0
4.146893979E0,-2.590230405E-1,7.476972580E0,6.517450809E0
4.149315594E0,-2.805584669E-1,7.467401028E0,6.519843578E0
4.151736427E0,-2.973082066E-1,7.498507977E0,6.500700951E0
4.154157261E0,-3.403790295E-1,7.498507977E0,6.512664795E0
4.156578927E0,-3.690928817E-1,7.522436142E0,6.498308182E0
4.159000542E0,-3.741776347E-1,7.503293514E0,6.498308182E0
4.161421375E0,-3.619144261E-1,7.508079052E0,6.517450809E0
4.163842209E0,-3.523431420E-1,7.522436142E0,6.510272026E0
4.166263823E0,-3.547359705E-1,7.505686283E0,6.522236347E0
4.168685490E0,-3.619144261E-1,7.496115208E0,6.515058041E0
4.171106271E0,-3.499503136E-1,7.484150887E0,6.515058041E0
4.173527104E0,-3.619144261E-1,7.467401028E0,6.517450809E0
4.175948771E0,-3.571287692E-1,7.457829952E0,6.550950050E0
4.178370386E0,-3.308077157E-1,7.455437183E0,6.541378975E0
4.180791219E0,-3.236292601E-1,7.421937466E0,6.538986206E0
4.183212052E0,-2.997010350E-1,7.402794838E0,6.534200668E0
4.185633719E0,-2.829512656E-1,7.388438225E0,6.538986206E0
4.188055334E0,-2.949153781E-1,7.354938507E0,6.510272026E0
4.190476167E0,-3.068794906E-1,7.340581894E0,6.527021885E0
4.192897000E0,-3.068794906E-1,7.304689407E0,6.510272026E0
4.195318615E0,-3.379862010E-1,7.292725086E0,6.498308182E0
4.197740281E0,-3.427718580E-1,7.285546780E0,6.483951092E0
4.200161063E0,-3.717848063E-1,7.252047062E0,6.486343861E0
4.202581896E0,-3.933202326E-1,7.247261524E0,6.503093719E0
4.205003563E0,-3.837489188E-1,7.266404152E0,6.529414654E0
4.207425622E0,-3.813561201E-1,7.256833076E0,6.493522644E0
4.209846404E0,-3.885345757E-1,7.256833076E0,6.467201233E0
4.212267237E0,-3.789632916E-1,7.256833076E0,6.436094761E0
4.214688904E0,-3.667000830E-1,7.252047062E0,6.424130440E0
4.217110518E0,-3.690928817E-1,7.264011383E0,6.378666878E0
4.219531352E0,-3.667000830E-1,7.237690449E0,6.395416737E0
4.221952185E0,-3.427718580E-1,7.228118896E0,6.373881340E0
4.224373799E0,-3.332005441E-1,7.232904434E0,6.381059647E0
4.226795466E0,-2.901297510E-1,7.228118896E0,6.361917019E0
4.229216299E0,-2.374876440E-1,7.223333359E0,6.359524250E0
4.231637133E0,-2.087737769E-1,7.220940590E0,6.342774391E0
4.234058747E0,-1.680957973E-1,7.235297680E0,6.333203316E0
4.236480414E0,-1.704886109E-1,7.208976269E0,6.335596085E0
4.238901195E0,-1.680957973E-1,7.235297680E0,6.321238995E0
4.241322029E0,-1.585244983E-1,7.228118896E0,6.335596085E0
4.243743695E0,-1.633101404E-1,7.232904434E0,6.361917019E0
4.246165310E0,-1.585244983E-1,7.228118896E0,6.352345943E0
4.248586143E0,-1.537388563E-1,7.242475986E0,6.316453457E0
4.251006977E0,-1.633101404E-1,7.249654293E0,6.309275150E0
4.253428643E0,-1.992024779E-1,7.264011383E0,6.309275150E0
4.255850258E0,-2.015953064E-1,7.237690449E0,6.290132523E0
4.258271091E0,-2.279163599E-1,7.259225845E0,6.261418819E0
4.260691924E0,-2.350948304E-1,7.254439831E0,6.273382664E0
4.263113539E0,-2.398804724E-1,7.259225845E0,6.263811588E0
4.265535206E0,-2.685943544E-1,7.244868755E0,6.268597126E0
4.267955987E0,-2.733799815E-1,7.249654293E0,6.316453457E0
4.270376820E0,-2.733799815E-1,7.259225845E0,6.318846226E0
4.272798487E0,-2.877369225E-1,7.259225845E0,6.326025009E0
4.275220102E0,-2.685943544E-1,7.264011383E0,6.342774391E0
4.277640935E0,-2.638086975E-1,7.237690449E0,6.326025009E0
4.280061768E0,-2.638086975E-1,7.232904434E0,6.340381622E0
4.282483435E0,-2.614158690E-1,7.220940590E0,6.342774391E0
4.284905049E0,-2.542374134E-1,7.225726128E0,6.366703033E0
4.287325883E0,-2.518445849E-1,7.213762283E0,6.361917019E0
4.289746716E0,-2.757728100E-1,7.206583500E0,6.419344902E0
4.292168331E0,-3.140579760E-1,7.185048103E0,6.393023968E0
4.294589997E0,-3.308077157E-1,7.201797962E0,6.402595043E0
4.297010831E0,-3.619144261E-1,7.208976269E0,6.390631199E0
4.299431664E0,-3.523431420E-1,7.235297680E0,6.404987812E0
4.301853279E0,-3.284149170E-1,7.266404152E0,6.416952133E0
4.304274945E0,-3.140579760E-1,7.287939548E0,6.414559364E0
4.306695727E0,-2.757728100E-1,7.311867714E0,6.409773827E0
4.309116560E0,-2.542374134E-1,7.333403111E0,6.402595043E0
4.311538227E0,-2.638086975E-1,7.352545738E0,6.404987812E0
4.313959841E0,-2.685943544E-1,7.371688366E0,6.412166595E0
4.316380674E0,-2.518445849E-1,7.366902828E0,6.393023968E0
4.318801508E0,-2.518445849E-1,7.378866673E0,6.378666878E0
4.321223174E0,-2.566302419E-1,7.374081135E0,6.404987812E0
4.323644789E0,-2.422732860E-1,7.376473904E0,6.376274109E0
4.326065622E0,-2.422732860E-1,7.412366390E0,6.400202274E0
4.328486456E0,-2.303091735E-1,7.409973621E0,6.407381058E0
4.330908070E0,-2.159522474E-1,7.431509018E0,6.440880299E0
4.333329737E0,-2.135594189E-1,7.467401028E0,6.409773827E0
4.335750518E0,-2.279163599E-1,7.496115208E0,6.390631199E0
4.338171352E0,-2.374876440E-1,7.486543655E0,6.395416737E0
4.340593018E0,-2.183450609E-1,7.476972580E0,6.393023968E0
4.343014633E0,-2.350948304E-1,7.474579811E0,6.400202274E0
4.345435466E0,-2.231307179E-1,7.465008259E0,6.390631199E0
4.347856299E0,-2.255235314E-1,7.467401028E0,6.397809505E0
4.350277966E0,-2.255235314E-1,7.474579811E0,6.383452415E0
4.352699581E0,-2.422732860E-1,7.465008259E0,6.388238430E0
4.355120414E0,-2.255235314E-1,7.481758118E0,6.371488571E0
4.357541247E0,-2.231307179E-1,7.488936901E0,6.373881340E0
4.359962862E0,-2.159522474E-1,7.508079052E0,6.364310265E0
4.362384529E0,-1.872383654E-1,7.524828911E0,6.383452415E0
4.364805310E0,-1.513460279E-1,7.534400463E0,6.385845661E0
4.367226143E0,-1.585244983E-1,7.532007694E0,6.376274109E0
4.369647810E0,-1.728814393E-1,7.527221680E0,6.364310265E0
4.372069477E0,-1.609173268E-1,7.508079052E0,6.364310265E0
4.374490258E0,-1.417747438E-1,7.520043373E0,6.371488571E0
4.376911091E0,-1.633101404E-1,7.510472298E0,6.349953175E0
4.379332758E0,-1.704886109E-1,7.520043373E0,6.376274109E0
4.381754372E0,-1.393819153E-1,7.500900745E0,6.371488571E0
4.384175206E0,-1.250249892E-1,7.512865067E0,6.366703033E0
4.386596039E0,-1.322034448E-1,7.543971539E0,6.347560406E0
4.389017706E0,-1.417747438E-1,7.543971539E0,6.364310265E0
4.391439320E0,-1.657029688E-1,7.548757076E0,6.321238995E0
4.393860154E0,-1.585244983E-1,7.551149845E0,6.323632240E0
4.396280987E0,-1.752742529E-1,7.567899704E0,6.326025009E0
4.398702602E0,-1.896311939E-1,7.560721397E0,6.321238995E0
4.401124268E0,-1.848455518E-1,7.577471256E0,6.299703598E0
4.403545049E0,-1.680957973E-1,7.565506935E0,6.294918060E0
4.405965883E0,-1.274178028E-1,7.560721397E0,6.278168201E0
4.408387549E0,-1.274178028E-1,7.579864025E0,6.285346985E0
4.410809164E0,-1.154536903E-1,7.551149845E0,6.266204357E0
4.413229997E0,-9.631111473E-2,7.539186001E0,6.285346985E0
4.415650831E0,-9.631111473E-2,7.520043373E0,6.290132523E0
4.418072497E0,-9.391828626E-2,7.517650604E0,6.292525291E0
4.420494112E0,-1.010967568E-1,7.500900745E0,6.306882381E0
4.422914945E0,-8.434699476E-2,7.493722439E0,6.306882381E0
4.425335779E0,-9.631111473E-2,7.493722439E0,6.268597126E0
4.427757393E0,-6.520441920E-2,7.500900745E0,6.235097408E0
4.430179060E0,-4.845465720E-2,7.491329670E0,6.218348026E0
4.432599841E0,-6.041877344E-2,7.474579811E0,6.244668961E0
4.435020674E0,-5.802594870E-2,7.467401028E0,6.244668961E0
4.437442341E0,-5.802594870E-2,7.436294556E0,6.218348026E0
4.439863956E0,-8.195417374E-2,7.431509018E0,6.208776474E0
4.442284789E0,-8.913264424E-2,7.417151928E0,6.203990936E0
4.444705622E0,-1.130608693E-1,7.421937466E0,6.213562012E0
4.447127289E0,-1.489532143E-1,7.414759159E0,6.215955257E0
4.449548904E0,-1.250249892E-1,7.407580853E0,6.232704639E0
4.451969737E0,-1.274178028E-1,7.424330235E0,6.249454498E0
4.454390570E0,-1.274178028E-1,7.462615490E0,6.251847267E0
4.456812185E0,-9.391828626E-2,7.465008259E0,6.230311871E0
4.459233852E0,-8.913264424E-2,7.472187042E0,6.196812630E0
4.461654633E0,-6.041877344E-2,7.484150887E0,6.184848309E0
4.464075466E0,-4.127619043E-2,7.512865067E0,6.175277233E0
4.466497133E0,-6.999006122E-2,7.517650604E0,6.194419384E0
4.468918799E0,-6.520441920E-2,7.505686283E0,6.177670002E0
4.471339581E0,-4.845465720E-2,7.522436142E0,6.199205399E0
4.473760414E0,-3.888336942E-2,7.517650604E0,6.184848309E0
4.476182081E0,-6.281159073E-2,7.510472298E0,6.156134605E0
4.478603695E0,-6.520441920E-2,7.479365349E0,6.158527374E0
4.481024529E0,-5.324030295E-2,7.510472298E0,6.146563053E0
4.483445362E0,-4.366901144E-2,7.500900745E0,6.120242119E0
4.485867029E0,-5.802594870E-2,7.503293514E0,6.113063812E0
4.488288643E0,-4.127619043E-2,7.520043373E0,6.144170284E0
4.490709477E0,-1.495514158E-2,7.532007694E0,6.134599209E0
4.493130310E0,-2.452643216E-2,7.543971539E0,6.136991978E0
4.495551924E0,1.794616925E-3,7.532007694E0,6.129813194E0
4.497973591E0,-2.991028363E-3,7.536793232E0,6.151348591E0
4.500394372E0,1.375873014E-2,7.558328629E0,6.105885029E0
4.502815206E0,1.794616925E-3,7.555935860E0,6.132206440E0
4.505236872E0,2.811566554E-2,7.541578770E0,6.110671043E0
4.507658487E0,4.965107143E-2,7.575078487E0,6.136991978E0
4.510079320E0,6.400800496E-2,7.560721397E0,6.146563053E0
4.512500154E0,8.075776696E-2,7.604091167E0,6.156134605E0
4.514921820E0,1.142572835E-1,7.601698399E0,6.160920143E0
4.517343435E0,1.118644550E-1,7.596613884E0,6.148955822E0
4.519764268E0,1.118644550E-1,7.613662720E0,6.144170284E0
4.522185102E0,8.793623000E-2,7.623233795E0,6.127420425E0
4.524606716E0,9.750752151E-2,7.606483936E0,6.132206440E0
4.527028383E0,9.990034252E-2,7.584649563E0,6.148955822E0
4.529449164E0,1.118644550E-1,7.587042332E0,6.132206440E0
4.531869997E0,9.750752151E-2,7.553543091E0,6.144170284E0
4.534291664E0,9.990034252E-2,7.522436142E0,6.156134605E0
4.536713279E0,9.511470050E-2,7.498507977E0,6.148955822E0
4.539134112E0,9.511470050E-2,7.500900745E0,6.180062771E0
4.541554945E0,1.070788130E-1,7.493722439E0,6.177670002E0
4.543976612E0,1.046859920E-1,7.491329670E0,6.165705681E0
4.546398227E0,1.214357466E-1,7.510472298E0,6.194419384E0
4.548819060E0,1.405783296E-1,7.488936901E0,6.180062771E0
4.551239893E0,1.286142170E-1,7.474579811E0,6.199205399E0
4.553661508E0,1.214357466E-1,7.457829952E0,6.194419384E0
4.556083174E0,1.022931710E-1,7.467401028E0,6.199205399E0
4.558503956E0,9.750752151E-2,7.455437183E0,6.184848309E0
4.560924789E0,8.315058798E-2,7.433901787E0,6.201598167E0
4.563346456E0,6.161518395E-2,7.431509018E0,6.201598167E0
4.565768122E0,5.204389244E-2,7.426723480E0,6.192026615E0
4.568188904E0,4.725824669E-2,7.405188084E0,6.182455540E0
4.570609737E0,-5.383851007E-3,7.393223763E0,6.194419384E0
4.573031404E0,1.375873014E-2,7.390830994E0,6.163312912E0
4.575453018E0,-4.366901144E-2,7.405188084E0,6.189633846E0
4.577873852E0,-4.845465720E-2,7.395616531E0,6.199205399E0
4.580294685E0,-6.281159073E-2,7.378866673E0,6.225526333E0
4.582716352E0,-6.759724021E-2,7.366902828E0,6.201598167E0
4.585137966E0,-5.324030295E-2,7.383652687E0,6.218348026E0
4.587558747E0,-6.520441920E-2,7.345367432E0,6.220740795E0
4.589979581E0,-7.477571070E-2,7.314260483E0,6.225526333E0
4.592401247E0,-8.673982322E-2,7.311867714E0,6.237490654E0
4.594822914E0,-9.391828626E-2,7.335795879E0,6.239883423E0
4.597243695E0,-8.673982322E-2,7.376473904E0,6.254240036E0
4.599664529E0,-6.520441920E-2,7.366902828E0,6.270989895E0
4.602086195E0,-5.324030295E-2,7.390830994E0,6.278168201E0
4.604507810E0,-2.452643216E-2,7.443472862E0,6.263811588E0
4.606928643E0,-1.016949583E-2,7.457829952E0,6.278168201E0
4.609349477E0,-2.991028363E-3,7.455437183E0,6.278168201E0
4.611771143E0,-5.383851007E-3,7.441080093E0,6.292525291E0
4.614192758E0,-3.409772366E-2,7.436294556E0,6.292525291E0
4.616613591E0,-2.452643216E-2,7.426723480E0,6.282954216E0
4.619034424E0,-3.170489892E-2,7.400402069E0,6.316453457E0
4.621456039E0,-7.776673418E-3,7.407580853E0,6.333203316E0
4.623877706E0,-5.383851007E-3,7.405188084E0,6.349953175E0
4.626298487E0,2.333002165E-2,7.398009300E0,6.330810547E0
4.628719320E0,5.443671346E-2,7.381259441E0,6.328417778E0
4.631140987E0,5.204389244E-2,7.386045456E0,6.330810547E0
4.633562602E0,8.075776696E-2,7.352545738E0,6.326025009E0
4.635983435E0,7.357929647E-2,7.340581894E0,6.314060688E0
4.638404268E0,8.315058798E-2,7.316653252E0,6.333203316E0
4.640825935E0,7.118647546E-2,7.299903870E0,6.323632240E0
4.643247549E0,8.075776696E-2,7.314260483E0,6.335596085E0
4.645668383E0,4.007977992E-2,7.309474945E0,6.316453457E0
4.648089216E0,6.640082598E-2,7.319046497E0,6.309275150E0
4.650510831E0,4.965107143E-2,7.321439266E0,6.290132523E0
4.652932497E0,2.811566554E-2,7.333403111E0,6.299703598E0
4.655353279E0,4.725824669E-2,7.371688366E0,6.297310829E0
4.657774112E0,5.682953820E-2,7.366902828E0,6.297310829E0
4.660195779E0,4.486542568E-2,7.364510059E0,6.285346985E0
4.662617393E0,2.093719877E-2,7.400402069E0,6.287739754E0
4.665038227E0,1.136590727E-2,7.381259441E0,6.287739754E0
4.667459060E0,-5.982056609E-4,7.409973621E0,6.294918060E0
4.669880727E0,-5.982056609E-4,7.402794838E0,6.285346985E0
4.672302341E0,1.794616925E-3,7.421937466E0,6.280561447E0
4.674723174E0,8.973085321E-3,7.431509018E0,6.316453457E0
4.677144008E0,1.615155302E-2,7.460222721E0,6.314060688E0
4.679565622E0,3.768695518E-2,7.443472862E0,6.328417778E0
4.681987289E0,2.333002165E-2,7.441080093E0,6.333203316E0
4.684408070E0,4.725824669E-2,7.441080093E0,6.311667919E0
4.686828904E0,6.400800496E-2,7.431509018E0,6.318846226E0
4.689250570E0,5.204389244E-2,7.445865631E0,6.314060688E0
4.691672237E0,1.136590727E-2,7.433901787E0,6.326025009E0
4.694093018E0,3.050848842E-2,7.445865631E0,6.330810547E0
4.696513852E0,2.093719877E-2,7.450651646E0,6.326025009E0
4.698935518E0,1.854437590E-2,7.469794273E0,6.311667919E0
4.701357133E0,1.615155302E-2,7.486543655E0,6.335596085E0
4.703777966E0,2.811566554E-2,7.508079052E0,6.337988853E0
4.706198799E0,1.136590727E-2,7.515257835E0,6.349953175E0
4.708620466E0,1.854437590E-2,7.536793232E0,6.347560406E0
4.711042081E0,1.375873014E-2,7.541578770E0,6.342774391E0
4.713462914E0,3.529413417E-2,7.520043373E0,6.342774391E0
4.715883747E0,2.811566554E-2,7.500900745E0,6.366703033E0
4.718305362E0,2.093719877E-2,7.508079052E0,6.354738712E0
4.720727029E0,-5.982056609E-4,7.508079052E0,6.347560406E0
4.723147810E0,-2.991028363E-3,7.512865067E0,6.357131481E0
4.725568643E0,-2.213360928E-2,7.529614449E0,6.369095802E0
4.727990310E0,-5.383851007E-3,7.515257835E0,6.357131481E0
4.730411924E0,-2.991028363E-3,7.508079052E0,6.349953175E0
4.732832758E0,-5.383851007E-3,7.522436142E0,6.366703033E0
4.735253591E0,-2.213360928E-2,7.536793232E0,6.359524250E0
4.737675258E0,-3.409772366E-2,7.524828911E0,6.330810547E0
4.740096872E0,-1.734796353E-2,7.503293514E0,6.337988853E0
4.742517706E0,-1.974078640E-2,7.479365349E0,6.311667919E0
4.744938539E0,-5.383851007E-3,7.462615490E0,6.337988853E0
4.747360154E0,-2.452643216E-2,7.453044415E0,6.323632240E0
4.749781820E0,-1.016949583E-2,7.445865631E0,6.340381622E0
4.752202602E0,-1.256231871E-2,7.431509018E0,6.337988853E0
4.754623435E0,1.136590727E-2,7.450651646E0,6.340381622E0
4.757045102E0,4.486542568E-2,7.431509018E0,6.326025009E0
4.759466716E0,5.443671346E-2,7.443472862E0,6.306882381E0
4.761887549E0,4.965107143E-2,7.429116249E0,6.304489613E0
4.764308383E0,4.007977992E-2,7.436294556E0,6.314060688E0
4.766730049E0,4.007977992E-2,7.438687325E0,6.302096844E0
4.769151664E0,4.247260094E-2,7.438687325E0,6.290132523E0
4.771572497E0,3.050848842E-2,7.429116249E0,6.278168201E0
4.773993331E0,3.290131316E-2,7.412366390E0,6.287739754E0
4.776414945E0,8.973085321E-3,7.431509018E0,6.275775433E0
4.778836612E0,2.093719877E-2,7.436294556E0,6.275775433E0
4.781257393E0,4.486542568E-2,7.472187042E0,6.259026051E0
4.783678227E0,5.922235921E-2,7.493722439E0,6.256632805E0
4.786099893E0,7.597211748E-2,7.496115208E0,6.254240036E0
4.788521508E0,9.032905847E-2,7.512865067E0,6.261418819E0
4.790942341E0,1.118644550E-1,7.548757076E0,6.275775433E0
4.793363174E0,1.453639716E-1,7.543971539E0,6.249454498E0
4.795784841E0,1.668993831E-1,7.536793232E0,6.259026051E0
4.798206456E0,1.812563092E-1,7.532007694E0,6.251847267E0
4.800627289E0,1.983051747E-1,7.524828911E0,6.244668961E0
4.803048122E0,1.935195327E-1,7.505686283E0,6.266204357E0
4.805469737E0,1.983051747E-1,7.484150887E0,6.266204357E0
4.807891404E0,2.078764737E-1,7.491329670E0,6.244668961E0
4.810312185E0,2.054836452E-1,7.467401028E0,6.259026051E0
4.812733018E0,1.959123611E-1,7.474579811E0,6.247061729E0
4.815154685E0,1.908276081E-1,7.462615490E0,6.261418819E0
4.817576299E0,2.030908167E-1,7.436294556E0,6.232704639E0
4.819997133E0,2.126621157E-1,7.441080093E0,6.239883423E0
4.822417966E0,1.812563092E-1,7.426723480E0,6.225526333E0
4.824839633E0,1.716850251E-1,7.400402069E0,6.266204357E0
4.827261247E0,1.692921966E-1,7.393223763E0,6.263811588E0
4.829682081E0,1.405783296E-1,7.369295597E0,6.227919102E0
4.832102914E0,1.381855011E-1,7.366902828E0,6.223133564E0
4.834524529E0,1.310070455E-1,7.374081135E0,6.211169243E0
4.836946195E0,1.190429255E-1,7.333403111E0,6.196812630E0
4.839366977E0,1.070788130E-1,7.354938507E0,6.206383705E0
4.841787810E0,9.272187948E-2,7.352545738E0,6.194419384E0
4.844209477E0,1.094716340E-1,7.362117290E0,6.203990936E0
4.846631091E0,9.272187948E-2,7.376473904E0,6.196812630E0
4.849051924E0,9.990034252E-2,7.407580853E0,6.187241077E0
4.851472758E0,9.990034252E-2,7.424330235E0,6.172883987E0
4.853894424E0,8.075776696E-2,7.455437183E0,6.180062771E0
4.856316039E0,1.118644550E-1,7.474579811E0,6.196812630E0
4.858736872E0,1.070788130E-1,7.496115208E0,6.168098450E0
4.861157706E0,1.190429255E-1,7.536793232E0,6.194419384E0
4.863579320E0,1.381855011E-1,7.529614449E0,6.187241077E0
4.866000987E0,1.310070455E-1,7.532007694E0,6.189633846E0
4.868421768E0,1.333998591E-1,7.560721397E0,6.172883987E0
4.870842602E0,1.525424421E-1,7.558328629E0,6.180062771E0
4.873264268E0,1.716850251E-1,7.570292473E0,6.165705681E0
4.875685935E0,1.645065546E-1,7.563114166E0,6.177670002E0
4.878106716E0,1.692921966E-1,7.575078487E0,6.187241077E0
4.880527549E0,1.645065546E-1,7.575078487E0,6.189633846E0
4.882949216E0,1.597209126E-1,7.567899704E0,6.203990936E0
4.885370831E0,1.740778536E-1,7.575078487E0,6.182455540E0
4.887791664E0,1.788634956E-1,7.567899704E0,6.208776474E0
4.890212497E0,1.764706671E-1,7.546364307E0,6.220740795E0
4.892634164E0,1.908276081E-1,7.534400463E0,6.215955257E0
4.895055779E0,2.030908167E-1,7.532007694E0,6.215955257E0
4.897476612E0,2.294118702E-1,7.536793232E0,6.206383705E0
4.899897445E0,2.174477577E-1,7.543971539E0,6.192026615E0
4.902319060E0,2.270190418E-1,7.546364307E0,6.206383705E0
4.904740727E0,2.365903407E-1,7.553543091E0,6.175277233E0
4.907161508E0,2.341975123E-1,7.536793232E0,6.180062771E0
4.909582341E0,2.318046987E-1,7.565506935E0,6.148955822E0
4.912004008E0,2.533400953E-1,7.572685242E0,6.175277233E0
4.914425622E0,2.078764737E-1,7.563114166E0,6.160920143E0
4.916846456E0,2.078764737E-1,7.570292473E0,6.158527374E0
4.919267289E0,2.030908167E-1,7.565506935E0,6.163312912E0
4.921688956E0,1.860419661E-1,7.555935860E0,6.163312912E0
4.924110570E0,1.621137410E-1,7.567899704E0,6.144170284E0
4.926531404E0,1.453639716E-1,7.548757076E0,6.091528416E0
4.928952237E0,1.214357466E-1,7.551149845E0,6.115456581E0
4.931373852E0,9.990034252E-2,7.565506935E0,6.096313953E0
4.933795518E0,1.094716340E-1,7.553543091E0,6.091528416E0
4.936216299E0,1.262213886E-1,7.565506935E0,6.088836193E0
4.938637133E0,1.214357466E-1,7.536793232E0,6.115456581E0
4.941058799E0,1.118644550E-1,7.565506935E0,6.088836193E0
4.943480414E0,1.238285750E-1,7.553543091E0,6.105885029E0
4.945901247E0,1.381855011E-1,7.565506935E0,6.098706722E0
4.948322081E0,1.429711580E-1,7.570292473E0,6.101099491E0
4.950743747E0,1.549352705E-1,7.524828911E0,6.088836193E0
4.953165362E0,1.405783296E-1,7.505686283E0,6.069693565E0
4.955586195E0,1.453639716E-1,7.508079052E0,6.096313953E0
4.958007029E0,1.310070455E-1,7.508079052E0,6.096313953E0
4.960428643E0,1.142572835E-1,7.512865067E0,6.103492260E0
4.962850310E0,1.070788130E-1,7.508079052E0,6.105885029E0
4.965271091E0,1.333998591E-1,7.520043373E0,6.110671043E0
4.967691924E0,1.070788130E-1,7.520043373E0,6.117849350E0
4.970113591E0,1.286142170E-1,7.503293514E0,6.093921185E0
4.972535206E0,1.310070455E-1,7.517650604E0,6.122634888E0
4.974956039E0,1.046859920E-1,7.491329670E0,6.144170284E0
4.977376872E0,8.554340899E-2,7.486543655E0,6.148955822E0
4.979798539E0,7.597211748E-2,7.462615490E0,6.144170284E0
4.982220154E0,8.793623000E-2,7.453044415E0,6.158527374E0
4.984640987E0,6.161518395E-2,7.465008259E0,6.192026615E0
4.987061820E0,7.357929647E-2,7.441080093E0,6.182455540E0
4.989483435E0,6.640082598E-2,7.455437183E0,6.196812630E0
4.991905102E0,9.032905847E-2,7.493722439E0,6.213562012E0
4.994325883E0,1.214357466E-1,7.472187042E0,6.192026615E0
4.996746716E0,1.477568001E-1,7.484150887E0,6.187241077E0
4.999168383E0,1.573280841E-1,7.465008259E0,6.196812630E0
5.001589997E0,1.692921966E-1,7.481758118E0,6.196812630E0
5.004010831E0,2.054836452E-1,7.467401028E0,6.187241077E0
5.006431664E0,2.054836452E-1,7.457829952E0,6.196812630E0
5.008853331E0,2.222333997E-1,7.453044415E0,6.184848309E0
5.011274945E0,2.102692872E-1,7.455437183E0,6.182455540E0
5.013695779E0,2.365903407E-1,7.441080093E0,6.170491219E0
5.016116612E0,2.461616248E-1,7.455437183E0,6.163312912E0
5.018538227E0,2.676970363E-1,7.448258877E0,6.156134605E0
5.020959893E0,2.772683203E-1,7.436294556E0,6.158527374E0
5.023380674E0,2.700898647E-1,7.455437183E0,6.156134605E0
5.025801508E0,2.748754919E-1,7.436294556E0,6.175277233E0
5.028223174E0,2.748754919E-1,7.419544697E0,6.165705681E0
5.030644789E0,2.509472668E-1,7.414759159E0,6.129813194E0
5.033065622E0,2.557329237E-1,7.417151928E0,6.117849350E0
5.035486456E0,2.676970363E-1,7.419544697E0,6.122634888E0
5.037908122E0,2.605185509E-1,7.424330235E0,6.117849350E0
5.040329737E0,2.772683203E-1,7.433901787E0,6.117849350E0
5.042750570E0,2.868396044E-1,7.455437183E0,6.139384747E0
5.045171404E0,2.868396044E-1,7.453044415E0,6.110671043E0
5.047593018E0,3.011965454E-1,7.467401028E0,6.132206440E0
5.050014685E0,3.203391433E-1,7.467401028E0,6.105885029E0
5.052435466E0,3.203391433E-1,7.474579811E0,6.098706722E0
5.054856299E0,3.011965454E-1,7.462615490E0,6.105885029E0
5.057277966E0,2.964109182E-1,7.479365349E0,6.115456581E0
5.059699633E0,3.107678294E-1,7.488936901E0,6.091528416E0
5.062120414E0,3.083750308E-1,7.486543655E0,6.120242119E0
5.064541247E0,3.035893738E-1,7.505686283E0,6.134599209E0
5.066962914E0,2.988037169E-1,7.532007694E0,6.122634888E0
5.069384529E0,3.059822023E-1,7.517650604E0,6.103492260E0
5.071805362E0,3.107678294E-1,7.532007694E0,6.110671043E0
5.074226195E0,3.418745399E-1,7.543971539E0,6.122634888E0
5.076647810E0,3.466601670E-1,7.548757076E0,6.117849350E0
