"Time (s)","Gyroscope x (rad/s)","Gyroscope y (rad/s)","Gyroscope z (rad/s)"
3.527673200E-2,8.462490439E-1,3.548313677E-1,5.348296836E-2
3.779235700E-2,6.609390378E-1,6.572913527E-1,1.908679605E-1
4.030798200E-2,6.918240190E-1,7.297113538E-1,3.229279816E-1
4.282360700E-2,6.928890347E-1,7.637913823E-1,3.719179928E-1
4.533923200E-2,6.790440083E-1,8.021313548E-1,4.422079921E-1
4.785491000E-2,6.641340256E-1,8.287563324E-1,5.295379758E-1
5.054095100E-2,6.428340077E-1,8.415363431E-1,6.253879666E-1
5.305657600E-2,6.183390021E-1,8.489913344E-1,7.254979610E-1
5.557220100E-2,5.863890052E-1,8.585763574E-1,8.277379274E-1
5.808782600E-2,5.459190011E-1,8.777463436E-1,9.331729412E-1
6.060345100E-2,5.054489970E-1,9.054363370E-1,1.035413027E0
6.311907600E-2,4.521989822E-1,9.405813813E-1,1.137652993E0
6.563475300E-2,3.936240077E-1,9.767913818E-1,1.230308056E0
6.815037800E-2,3.329190016E-1,1.013001442E0,1.316573024E0
7.066600300E-2,2.626290023E-1,1.058796406E0,1.394317985E0
7.318162800E-2,1.880789995E-1,1.109916449E0,1.461413026E0
7.569730500E-2,1.113990024E-1,1.170621395E0,1.517858028E0
7.821293000E-2,2.619899996E-2,1.236651421E0,1.561522961E0
8.095662800E-2,-5.793599784E-2,1.303746462E0,1.596668005E0
8.347225300E-2,-1.452660114E-1,1.369776368E0,1.619032979E0
8.598787800E-2,-2.357910126E-1,1.428351402E0,1.629683018E0
8.850350300E-2,-3.241859972E-1,1.476276398E0,1.632878065E0
9.101912800E-2,-4.083209932E-1,1.509291410E0,1.625422955E0
9.353475300E-2,-4.881960154E-1,1.518876433E0,1.609447956E0
9.605043000E-2,-5.531609654E-1,1.486926436E0,1.580693007E0
9.856605500E-2,-5.915009975E-1,1.417701364E0,1.540223002E0
1.010816800E-1,-6.021509767E-1,1.314396381E0,1.486973047E0
1.035973050E-1,-5.893709660E-1,1.202571392E0,1.435853004E0
1.061129300E-1,-5.648759604E-1,1.103526473E0,1.384732962E0
1.086286070E-1,-5.382509828E-1,1.034301400E0,1.341068029E0
1.113780350E-1,-5.137559772E-1,9.927663803E-1,1.303792953E0
1.138937120E-1,-4.892610013E-1,9.522963762E-1,1.281427979E0
1.164093370E-1,-4.615710080E-1,9.011763334E-1,1.277168036E0
1.189249620E-1,-4.306859970E-1,8.447313905E-1,1.280362964E0
1.214405870E-1,-3.880859911E-1,7.755063772E-1,1.297402978E0
1.239562640E-1,-3.401609957E-1,7.062813640E-1,1.319767952E0
1.264718890E-1,-2.869110107E-1,6.445113420E-1,1.351718068E0
1.289875140E-1,-2.230110019E-1,5.880663395E-1,1.387928009E0
1.315031390E-1,-1.516560018E-1,5.475963354E-1,1.429463029E0
1.340187640E-1,-7.497599721E-2,5.209713578E-1,1.475257993E0
1.365344410E-1,1.703999937E-3,5.007363558E-1,1.523182988E0
1.390500660E-1,8.477400243E-2,4.943463504E-1,1.570042968E0
1.417906390E-1,1.667789966E-1,4.964763522E-1,1.619032979E0
1.443062640E-1,2.455889881E-1,5.103213787E-1,1.664828062E0
1.468218890E-1,3.265289962E-1,5.401413441E-1,1.706362963E0
1.493375140E-1,4.042739868E-1,5.827413797E-1,1.744703054E0
1.518531390E-1,4.809539914E-1,6.274713874E-1,1.779847980E0
1.543688160E-1,5.565690398E-1,6.796563864E-1,1.817123055E0
1.568844410E-1,6.300539970E-1,7.350363731E-1,1.840553045E0
1.594000660E-1,7.099290490E-1,7.968063354E-1,1.863983035E0
1.619156910E-1,7.908689976E-1,8.670963645E-1,1.889543056E0
1.644313160E-1,8.696790338E-1,9.384513497E-1,1.904453039E0
1.669469930E-1,9.527490139E-1,1.017261386E0,1.915102959E0
1.694626180E-1,1.039013982E0,1.099266410E0,1.925752997E0
1.721974100E-1,1.129539013E0,1.186596394E0,1.922558069E0
1.747130350E-1,1.216868997E0,1.279251456E0,1.914038062E0
1.772286600E-1,1.306329012E0,1.384686470E0,1.894868016E0
1.797442850E-1,1.396854043E0,1.500771403E0,1.863983035E0
1.822599100E-1,1.483119011E0,1.623246431E0,1.821382999E0
1.847755870E-1,1.565124035E0,1.757436395E0,1.767068028E0
1.872912120E-1,1.635414004E0,1.905471444E0,1.706362963E0
1.898068370E-1,1.691859007E0,2.057766438E0,1.633942962E0
1.923224620E-1,1.734459043E0,2.221776485E0,1.561522961E0
1.948380870E-1,1.761084080E0,2.392176390E0,1.489102960E0
1.973537640E-1,1.768539071E0,2.571096420E0,1.417747974E0
1.998693890E-1,1.768539071E0,2.746821404E0,1.349588037E0
2.026266280E-1,1.755759001E0,2.910831451E0,1.285688043E0
2.051423050E-1,1.732329011E0,3.056736469E0,1.230308056E0
2.076579300E-1,1.696119070E0,3.176016331E0,1.179188013E0
2.101735550E-1,1.649258971E0,3.264411449E0,1.134458065E0
2.126891800E-1,1.585358977E0,3.324051380E0,1.102508068E0
2.152048570E-1,1.509744048E0,3.360261440E0,1.080142975E0
2.177204820E-1,1.421349049E0,3.391146421E0,1.064167976E0
2.202361070E-1,1.325499058E0,3.423096418E0,1.057778001E0
2.227517320E-1,1.211544037E0,3.447591305E0,1.054582953E0
2.252673570E-1,1.088003993E0,3.468891382E0,1.052453041E0
2.277829820E-1,9.644640088E-1,3.485931396E0,1.054582953E0
2.302986600E-1,8.345340490E-1,3.491256475E0,1.044998050E0
2.330689200E-1,7.046040297E-1,3.488061428E0,1.034348011E0
2.355845450E-1,5.757390261E-1,3.465696335E0,1.022632957E0
2.381001700E-1,4.479390085E-1,3.423096418E0,1.010918021E0
2.406158470E-1,3.169440031E-1,3.368781328E0,9.981378913E-1
2.431314720E-1,1.859489977E-1,3.288906336E0,9.800329804E-1
2.456470970E-1,5.175900087E-2,3.193056345E0,9.640579224E-1
2.481627220E-1,-8.030100167E-2,3.091881514E0,9.502129555E-1
2.506783470E-1,-2.144910097E-1,2.978991508E0,9.416929483E-1
2.531940240E-1,-3.444209993E-1,2.863971472E0,9.342379570E-1
2.557096490E-1,-4.700910151E-1,2.756406307E0,9.246529341E-1
2.582252740E-1,-5.904359818E-1,2.660556316E0,9.150679708E-1
2.607408990E-1,-7.043910027E-1,2.576421499E0,8.958979249E-1
2.634464720E-1,-8.119559884E-1,2.516781330E0,8.639479280E-1
2.659620970E-1,-9.120659828E-1,2.476311445E0,8.213479519E-1
2.684777220E-1,-1.004721045E0,2.464596510E0,7.680979371E-1
2.709933470E-1,-1.095245957E0,2.469921350E0,7.020679712E-1
2.735089720E-1,-1.183640957E0,2.494416475E0,6.285829544E-1
2.760246490E-1,-1.267776012E0,2.524236441E0,5.412529707E-1
2.785402740E-1,-1.347651005E0,2.555121422E0,4.496629834E-1
2.810558990E-1,-1.417940974E0,2.590266466E0,3.591379821E-1
2.835715240E-1,-1.482905984E0,2.637126446E0,2.707429826E-1
2.860871490E-1,-1.538285971E0,2.709546328E0,1.855429709E-1
2.886028260E-1,-1.583015919E0,2.804331303E0,1.088629663E-1
2.911184510E-1,-1.617095947E0,2.927871466E0,4.496296868E-2
2.938687640E-1,-1.642655969E0,3.083361387E0,-8.287031204E-3
2.963843890E-1,-1.654371023E0,3.253761530E0,-4.769203067E-2
2.989000140E-1,-1.655435920E0,3.429486513E0,-7.431703061E-2
3.014156390E-1,-1.644786000E0,3.604146481E0,-9.348703176E-2
3.039312640E-1,-1.620290995E0,3.766026497E0,-1.105270311E-1
3.064469410E-1,-1.574496031E0,3.907671452E0,-1.307620406E-1
3.089625660E-1,-1.505270958E0,3.998196363E0,-1.840120405E-1
3.114781910E-1,-1.408355951E0,4.069550991E0,-2.660170197E-1
3.139938160E-1,-1.296530962E0,4.150491238E0,-3.448270261E-1
3.165094410E-1,-1.178315997E0,4.233561039E0,-4.215070307E-1
3.190251180E-1,-1.048385978E0,4.317696095E0,-4.843420088E-1
3.215407430E-1,-9.099359512E-1,4.396506310E0,-5.365270376E-1
3.242782430E-1,-7.629659772E-1,4.466796398E0,-5.706070662E-1
3.267938680E-1,-6.096059680E-1,4.527501106E0,-5.887120366E-1
3.293094930E-1,-4.477260113E-1,4.575426102E0,-5.897770524E-1
3.318251180E-1,-2.901059985E-1,4.597791195E0,-5.812570453E-1
3.343407430E-1,-1.271609962E-1,4.598855972E0,-5.514370203E-1
3.368564200E-1,3.471900150E-2,4.574361324E0,-5.120320320E-1
3.393720450E-1,1.987289935E-1,4.531761169E0,-4.619770050E-1
3.418876700E-1,3.584789932E-1,4.467861176E0,-3.991420269E-1
3.444032950E-1,5.214239955E-1,4.380531311E0,-3.277870119E-1
3.469189200E-1,6.811740398E-1,4.280421257E0,-2.457820326E-1
3.494345970E-1,8.366640210E-1,4.159011364E0,-1.573870331E-1
3.519502220E-1,9.878939986E-1,4.012041092E0,-5.621203035E-2
3.546946490E-1,1.129539013E0,3.843771458E0,4.815796763E-2
3.572102740E-1,1.255208969E0,3.652071476E0,1.525279731E-1
3.597258990E-1,1.369163990E0,3.447591305E0,2.611579895E-1
3.622415240E-1,1.466078997E0,3.232461452E0,3.719179928E-1
3.647571490E-1,1.543824077E0,3.009876490E0,4.741579890E-1
3.672728260E-1,1.600269079E0,2.791551352E0,5.763979554E-1
3.697884510E-1,1.643934011E0,2.581746340E0,6.711829305E-1
3.723040760E-1,1.667364001E0,2.380461454E0,7.531879544E-1
3.748197010E-1,1.673753977E0,2.199411392E0,8.224129677E-1
3.773353260E-1,1.671624064E0,2.036466360E0,8.820529580E-1
3.798510030E-1,1.663104057E0,1.878846407E0,9.289129376E-1
3.823666280E-1,1.655649066E0,1.725486398E0,9.597979784E-1
3.851097010E-1,1.641803980E0,1.576386452E0,9.779029489E-1
3.876253260E-1,1.631154060E0,1.431546450E0,9.896179438E-1
3.901409510E-1,1.617308974E0,1.304811478E0,9.970729947E-1
3.926565760E-1,1.593878984E0,1.233456373E0,1.004528046E0
3.951722010E-1,1.558734059E0,1.229196429E0,1.001332998E0
3.976878780E-1,1.509744048E0,1.271796465E0,9.757729769E-1
4.002035030E-1,1.424543977E0,1.345281363E0,9.448879361E-1
4.027191280E-1,1.243494034E0,1.500771403E0,9.374329448E-1
4.052347530E-1,9.325140119E-1,1.789386392E0,9.747079611E-1
4.077503780E-1,5.821290016E-1,1.969371438E0,9.928129315E-1
4.102660550E-1,3.116189837E-1,1.917186379E0,9.470179677E-1
4.127816800E-1,8.796900511E-2,1.851156473E0,8.777929544E-1
4.155276180E-1,-1.623060107E-1,1.955526471E0,8.117629290E-1
4.180432430E-1,-4.722210169E-1,2.221776485E0,7.680979371E-1
4.205588680E-1,-8.204759955E-1,2.535951376E0,7.446679473E-1
4.230744930E-1,-1.174055934E0,2.803266525E0,7.233679295E-1
4.255901180E-1,-1.512725949E0,2.977926493E0,7.041979432E-1
4.281057430E-1,-1.829030991E0,3.060996532E0,7.020679712E-1
4.306214200E-1,-2.100606203E0,3.047151327E0,7.105879784E-1
4.331370450E-1,-2.323191166E0,2.973666430E0,7.286929488E-1
4.356526700E-1,-2.493591070E0,2.873556376E0,7.478629351E-1
4.381682950E-1,-2.615001202E0,2.771316528E0,7.702279687E-1
4.406839200E-1,-2.690616131E0,2.670141459E0,7.798129320E-1
4.431995970E-1,-2.733216047E0,2.566836357E0,7.872679234E-1
4.459512640E-1,-2.753451109E0,2.441166401E0,7.915279269E-1
4.484668890E-1,-2.764101028E0,2.284611464E0,7.989829779E-1
4.509825140E-1,-2.780076027E0,2.109951496E0,8.043079376E-1
4.534981390E-1,-2.791791201E0,1.936356425E0,8.106979728E-1
4.560137640E-1,-2.803506136E0,1.782996416E0,8.149579763E-1
4.585294410E-1,-2.804571152E0,1.642416477E0,8.149579763E-1
4.610450660E-1,-2.793920994E0,1.501836419E0,8.032429218E-1
4.635606910E-1,-2.777945995E0,1.355931401E0,7.862029672E-1
4.660763160E-1,-2.756646156E0,1.222806454E0,7.585129738E-1
4.685919410E-1,-2.730021000E0,1.110981464E0,7.233679295E-1
4.711076180E-1,-2.693811178E0,1.018326402E0,6.860929728E-1
4.736232430E-1,-2.646951199E0,9.384513497E-1,6.477529407E-1
4.763938680E-1,-2.592636108E0,8.777463436E-1,6.189979315E-1
4.789095450E-1,-2.537256002E0,8.117163777E-1,5.966329575E-1
4.814251700E-1,-2.494656086E0,7.116063833E-1,6.072829366E-1
4.839407950E-1,-2.454186201E0,5.912613869E-1,6.605329514E-1
4.864564200E-1,-2.425431013E0,5.401413441E-1,7.329529524E-1
4.889720450E-1,-2.405196190E0,5.358813405E-1,8.277379274E-1
4.914877220E-1,-2.387091160E0,5.678313375E-1,9.395629764E-1
4.940033470E-1,-2.374311209E0,6.306663752E-1,1.067363024E0
4.965189720E-1,-2.363661051E0,7.201263905E-1,1.197293043E0
4.990345970E-1,-2.359400988E0,8.319513798E-1,1.327223063E0
5.015502220E-1,-2.355141163E0,9.608163834E-1,1.449697971E0
5.040658470E-1,-2.358336210E0,1.098201394E0,1.555132985E0
5.068110550E-1,-2.367921114E0,1.233456373E0,1.644593000E0
5.093267320E-1,-2.380701065E0,1.361256480E0,1.720208049E0
5.118423570E-1,-2.404131174E0,1.475211382E0,1.776653051E0
5.143579820E-1,-2.435016155E0,1.574256420E0,1.827772975E0
5.168736070E-1,-2.466966152E0,1.671171427E0,1.868242979E0
5.193892320E-1,-2.501046181E0,1.779801369E0,1.901257992E0
5.219049100E-1,-2.538321018E0,1.882041454E0,1.924687982E0
5.244205350E-1,-2.578791142E0,1.956591368E0,1.931077957E0
5.269361600E-1,-2.622456074E0,2.010906458E0,1.923622966E0
5.294517850E-1,-2.662926197E0,2.042856455E0,1.901257992E0
5.319674100E-1,-2.704461098E0,2.072676420E0,1.861853004E0
5.344830350E-1,-2.744930983E0,2.122731447E0,1.802212954E0
5.371904300E-1,-2.784336090E0,2.205801487E0,1.718078017E0
5.397060550E-1,-2.807766199E0,2.349576473E0,1.564718008E0
5.422216800E-1,-2.821611166E0,2.512521505E0,1.265452981E0
5.447373050E-1,-2.837586164E0,2.626476526E0,8.618179560E-1
5.472529300E-1,-2.861016035E0,2.692506313E0,4.922629893E-1
5.497686070E-1,-2.886576176E0,2.698896408E0,1.844779700E-1
5.522842320E-1,-2.920656204E0,2.620086432E0,-1.105270311E-1
5.547998570E-1,-2.962191105E0,2.514651537E0,-3.789070249E-1
5.573154820E-1,-3.007986069E0,2.429451466E0,-5.929720402E-1
5.598311070E-1,-3.051651001E0,2.366616488E0,-7.442020774E-1
5.623467850E-1,-3.081471205E0,2.316561460E0,-8.549620509E-1
5.648624100E-1,-3.099575996E0,2.287806511E0,-9.284470677E-1
5.676095970E-1,-3.107031107E0,2.298456430E0,-9.550720453E-1
5.701252220E-1,-3.101706028E0,2.346381426E0,-9.412270784E-1
5.726408470E-1,-3.084666014E0,2.403891325E0,-8.879770637E-1
5.751564720E-1,-3.064431190E0,2.443296432E0,-8.059720397E-1
5.776720970E-1,-3.029286146E0,2.464596510E0,-6.909520626E-1
5.801877740E-1,-2.982426167E0,2.473116398E0,-5.525020361E-1
5.827033990E-1,-2.933436155E0,2.467791319E0,-4.012720287E-1
5.852190240E-1,-2.873795986E0,2.455011368E0,-2.447170317E-1
5.877346490E-1,-2.808830976E0,2.426256418E0,-8.816203475E-2
5.902502740E-1,-2.739606142E0,2.380461454E0,5.880796909E-2
5.927659510E-1,-2.656536102E0,2.333601475E0,1.887379587E-1
5.952815760E-1,-2.567076206E0,2.283546448E0,3.037579954E-1
5.980238680E-1,-2.468031168E0,2.224971533E0,3.921529949E-1
6.005394930E-1,-2.346621037E0,2.169591427E0,4.667029679E-1
6.030551180E-1,-2.196456194E0,2.085456371E0,5.178229213E-1
6.055707430E-1,-2.015406132E0,1.976826429E0,5.465779305E-1
6.080863680E-1,-1.823706031E0,1.869261384E0,5.519029498E-1
6.106020450E-1,-1.626680970E0,1.769151449E0,5.263429284E-1
6.131176700E-1,-1.441370964E0,1.712706447E0,5.039779544E-1
6.156332950E-1,-1.266710997E0,1.724421382E0,5.135629773E-1
6.181489200E-1,-1.101635933E0,1.731876373E0,5.348629355E-1
6.206645450E-1,-9.599909782E-1,1.680756450E0,5.582929254E-1
6.231802220E-1,-8.439059854E-1,1.633896470E0,5.785279274E-1
6.256958470E-1,-7.587059736E-1,1.596621394E0,5.913079381E-1
6.284817320E-1,-7.075859904E-1,1.552956462E0,5.827879310E-1
6.309974100E-1,-6.862859726E-1,1.509291410E0,5.540329218E-1
6.335130350E-1,-6.948059797E-1,1.458171368E0,5.007829666E-1
6.360287120E-1,-7.331459522E-1,1.396401405E0,4.379479885E-1
6.385443370E-1,-7.959809899E-1,1.308006406E0,3.751129806E-1
6.410599620E-1,-8.769209981E-1,1.190856457E0,3.058879673E-1
6.435755870E-1,-9.685109854E-1,1.057731390E0,2.313379645E-1
6.460912120E-1,-1.057971001E0,9.246063828E-1,1.578529626E-1
6.486068890E-1,-1.138911009E0,8.085213900E-1,8.862796426E-2
6.511225140E-1,-1.206005931E0,7.137363553E-1,2.579296939E-2
6.536381390E-1,-1.250735998E0,6.540963650E-1,-2.958703041E-2
6.561537640E-1,-1.281620979E0,6.200163364E-1,-7.751203328E-2
6.588585030E-1,-1.301855922E0,5.859363675E-1,-1.158520356E-1
6.613741280E-1,-1.321025968E0,5.316213369E-1,-1.360870302E-1
6.638897530E-1,-1.338065982E0,4.570713639E-1,-1.499320269E-1
6.664053780E-1,-1.357236028E0,3.878463507E-1,-1.414120346E-1
6.689210030E-1,-1.383860946E0,3.463113606E-1,-1.158520356E-1
6.714366800E-1,-1.409420967E0,3.420513570E-1,-8.390203118E-2
6.739523050E-1,-1.424330950E0,3.814563751E-1,-4.662702978E-2
6.764679300E-1,-1.431785941E0,4.517463744E-1,2.329691779E-4
6.789835550E-1,-1.427525997E0,5.380113721E-1,5.135297030E-2
6.814991800E-1,-1.414745927E0,6.317313910E-1,1.056679636E-1
6.840148570E-1,-1.387055993E0,7.403613329E-1,1.631779671E-1
6.865304820E-1,-1.348716021E0,8.575113416E-1,2.217529714E-1
6.892726180E-1,-1.302920938E0,9.821163416E-1,2.781979740E-1
6.917882430E-1,-1.247540951E0,1.113111377E0,3.346429765E-1
6.943038680E-1,-1.191095948E0,1.250496387E0,3.868279755E-1
6.968194930E-1,-1.138911009E0,1.393206477E0,4.336879849E-1
6.993351180E-1,-1.088855982E0,1.536981463E0,4.720279872E-1
7.018507950E-1,-1.041996002E0,1.676496387E0,4.986529648E-1
7.043664200E-1,-9.993959665E-1,1.813881397E0,5.156929493E-1
7.068820450E-1,-9.631859660E-1,1.956591368E0,5.199529529E-1
7.093976700E-1,-9.323009849E-1,2.113146305E0,5.093029737E-1
7.119132950E-1,-9.046109915E-1,2.283546448E0,4.922629893E-1
7.144289720E-1,-8.822459579E-1,2.457141399E0,4.677679837E-1
7.169445970E-1,-8.641409874E-1,2.645646334E0,4.432729781E-1
7.196909510E-1,-8.577509522E-1,2.840541363E0,4.198429883E-1
7.222065760E-1,-8.566859961E-1,3.031176329E0,3.932179809E-1
7.247222010E-1,-8.641409874E-1,3.203706503E0,3.708529770E-1
7.272378260E-1,-8.854410052E-1,3.334701538E0,3.420979679E-1
7.297534510E-1,-9.078059793E-1,3.340026379E0,2.920429707E-1
7.322691280E-1,-9.205859900E-1,3.102531433E0,2.057779729E-1
7.347847530E-1,-9.195209742E-1,2.723391533E0,9.821296483E-2
7.373003780E-1,-9.014160037E-1,2.385786533E0,1.514296979E-2
7.398160030E-1,-8.502959609E-1,2.157876492E0,-4.236702994E-2
7.423316280E-1,-7.714859843E-1,2.036466360E0,-6.153703108E-2
7.448473050E-1,-6.852209568E-1,1.991736412E0,-4.449703172E-2
7.473629300E-1,-6.117359996E-1,1.959786415E0,-8.320307825E-4
7.501052220E-1,-5.648759604E-1,1.898016453E0,6.519796699E-2
7.526208470E-1,-5.425109863E-1,1.792581439E0,1.418779641E-1
7.551364720E-1,-5.414459705E-1,1.645611405E0,2.164279670E-1
7.576520970E-1,-5.531609654E-1,1.480536461E0,2.920429707E-1
7.601677220E-1,-5.638110042E-1,1.306941390E0,3.644629717E-1
7.626833990E-1,-5.680709481E-1,1.145061374E0,4.315579832E-1
7.651990240E-1,-5.638110042E-1,1.023651481E0,4.911979735E-1
7.677146490E-1,-5.467709899E-1,9.522963762E-1,5.487079620E-1
7.702302740E-1,-5.244059563E-1,9.288663864E-1,5.934379697E-1
7.727458990E-1,-5.052359700E-1,9.395163655E-1,6.232579350E-1
7.752615760E-1,-4.892610013E-1,9.672063589E-1,6.349729300E-1
7.777772010E-1,-4.775460064E-1,9.959613681E-1,6.381679773E-1
7.805227740E-1,-4.786109924E-1,1.021521449E0,6.339079738E-1
7.830383990E-1,-4.913910031E-1,1.033236384E0,6.317779422E-1
7.855540240E-1,-5.116260052E-1,1.039626479E0,6.307129264E-1
7.880696490E-1,-5.414459705E-1,1.041756392E0,6.328429580E-1
7.905852740E-1,-5.744609833E-1,1.051341414E0,6.402979493E-1
7.931009510E-1,-6.042809486E-1,1.060926437E0,6.605329514E-1
7.956165760E-1,-6.255809665E-1,1.067316413E0,6.743779778E-1
7.981322010E-1,-6.330359578E-1,1.077966452E0,6.882229447E-1
8.006478260E-1,-6.245159507E-1,1.090746403E0,6.988729239E-1
8.031634510E-1,-6.021509767E-1,1.104591370E0,7.105879784E-1
8.056791280E-1,-5.733959675E-1,1.113111377E0,7.180429697E-1
8.081947530E-1,-5.286659598E-1,1.124826431E0,7.233679295E-1
8.109374620E-1,-4.754160047E-1,1.136541367E0,7.329529524E-1
8.134530870E-1,-4.189710021E-1,1.141866446E0,7.361479402E-1
8.159687120E-1,-3.518760204E-1,1.142931461E0,7.510579228E-1
8.184843370E-1,-2.762610018E-1,1.136541367E0,7.680979371E-1
8.209999620E-1,-1.995810121E-1,1.124826431E0,7.819429636E-1
8.235156390E-1,-1.250310093E-1,1.108851433E0,7.957879305E-1
8.260312640E-1,-5.687099695E-2,1.090746403E0,8.085679412E-1
8.285468890E-1,5.964000244E-3,1.068381429E0,8.213479519E-1
8.310625140E-1,6.027900428E-2,1.041756392E0,8.362579346E-1
8.335781390E-1,1.050090045E-1,1.003416419E0,8.447779417E-1
8.360938160E-1,1.422839910E-1,9.597513676E-1,8.490379453E-1
8.386094410E-1,1.667789966E-1,9.139563441E-1,8.522329330E-1
8.413531910E-1,1.816889942E-1,8.660313487E-1,8.490379453E-1
8.438688160E-1,1.870139986E-1,7.989363670E-1,8.415829539E-1
8.463844410E-1,1.816889942E-1,7.137363553E-1,8.245429397E-1
8.489000660E-1,1.721040010E-1,6.200163364E-1,8.011129498E-1
8.514156910E-1,1.571939886E-1,5.294913650E-1,7.702279687E-1
8.539313680E-1,1.486739963E-1,4.464213550E-1,7.318879366E-1
8.564469930E-1,1.486739963E-1,3.729363680E-1,6.892879605E-1
8.589626180E-1,1.497389972E-1,3.132963479E-1,6.402979493E-1
8.614782430E-1,1.476089954E-1,2.579163611E-1,5.870479345E-1
8.639938680E-1,1.465439945E-1,1.908213794E-1,5.231479406E-1
8.665095450E-1,1.497389972E-1,7.580137998E-2,4.422079921E-1
8.690251700E-1,1.646489948E-1,-6.797362119E-2,3.378379941E-1
8.717699620E-1,1.689089984E-1,-1.563686281E-1,2.324029654E-1
8.742855870E-1,1.582589895E-1,-1.680836231E-1,1.365529597E-1
8.768012120E-1,1.390889883E-1,-1.318736225E-1,5.348296836E-2
8.793168370E-1,1.039440036E-1,-6.477862597E-2,-1.680703089E-2
8.818324620E-1,4.962900281E-2,2.255137451E-2,-6.579703093E-2
8.843481390E-1,-2.066100016E-2,1.407663822E-1,-9.348703176E-2
8.868637640E-1,-1.005359963E-1,2.834763527E-1,-1.020070314E-1
8.893793890E-1,-1.814760119E-1,4.442913532E-1,-9.242203087E-2
8.918950140E-1,-2.155560106E-1,7.179963589E-1,-4.023703188E-2
8.944106390E-1,-2.017109990E-1,1.089681387E0,6.626296788E-2
8.969263160E-1,-1.942560077E-1,1.380426407E0,1.919329613E-1
8.994419410E-1,-2.081010044E-1,1.556151390E0,3.282529712E-1
9.021867850E-1,-2.389860004E-1,1.618986368E0,4.816129804E-1
9.047024100E-1,-2.879759967E-1,1.580646396E0,6.488179564E-1
9.072180350E-1,-3.412260115E-1,1.495446444E0,8.160229325E-1
9.097336600E-1,-3.880859911E-1,1.437936425E0,9.715129733E-1
9.122492850E-1,-4.253610075E-1,1.387881398E0,1.120612979E0
9.147649620E-1,-4.477260113E-1,1.312266469E0,1.264387965E0
9.172805870E-1,-4.551810026E-1,1.214286447E0,1.425202966E0
9.197962120E-1,-4.562460184E-1,1.121631384E0,1.590278029E0
9.223118370E-1,-4.551810026E-1,1.035366416E0,1.742573023E0
9.248274620E-1,-4.509209991E-1,9.586863518E-1,1.879958034E0
9.273431390E-1,-4.477260113E-1,8.820063472E-1,2.000303030E0
9.298587640E-1,-4.392060041E-1,7.989363670E-1,2.104672909E0
9.326040240E-1,-4.328159988E-1,7.179963589E-1,2.199458122E0
9.351196490E-1,-4.221660197E-1,6.455763578E-1,2.266552925E0
9.376352740E-1,-4.157760143E-1,5.933913589E-1,2.311283112E0
9.401508990E-1,-4.157760143E-1,5.433363914E-1,2.336843014E0
9.426665240E-1,-4.189710021E-1,5.007363558E-1,2.337908030E0
9.451822010E-1,-4.242959917E-1,4.602663517E-1,2.319802999E0
9.476978260E-1,-4.328159988E-1,4.070163667E-1,2.285722971E0
9.502134510E-1,-4.477260113E-1,3.441813588E-1,2.240993023E0
9.527290760E-1,-4.743510187E-1,2.675013542E-1,2.184547901E0
9.552447010E-1,-5.041710138E-1,1.737813801E-1,2.122777939E0
9.577603780E-1,-5.425109863E-1,7.260637730E-2,2.054618120E0
9.602760030E-1,-5.893709660E-1,-2.643862553E-2,1.985393047E0
9.630480870E-1,-6.404909492E-1,-1.137686223E-1,1.908712983E0
9.655637640E-1,-6.894809604E-1,-1.744736284E-1,1.827772975E0
9.680793890E-1,-7.427309752E-1,-2.021636218E-1,1.745767951E0
9.705950140E-1,-7.895909548E-1,-1.989686191E-1,1.658437967E0
9.731106390E-1,-8.311259747E-1,-1.723436266E-1,1.564718008E0
9.756262640E-1,-8.684009910E-1,-1.244186163E-1,1.468868017E0
9.781419410E-1,-8.950259686E-1,-7.116862386E-2,1.370887995E0
9.806575660E-1,-9.184559584E-1,-2.856862359E-2,1.275038004E0
9.831731910E-1,-9.354959726E-1,-3.008625237E-3,1.180253029E0
9.856888160E-1,-9.429509640E-1,-8.333625272E-3,1.083338022E0
9.882044410E-1,-9.429509640E-1,-5.306362361E-2,1.000267982E0
9.907200660E-1,-9.386909604E-1,-1.201586202E-1,9.278479218E-1
9.934339720E-1,-9.280409813E-1,-1.925786287E-1,8.745979667E-1
9.959495970E-1,-9.152609706E-1,-2.596736252E-1,8.479729295E-1
9.984652220E-1,-9.014160037E-1,-3.129236400E-1,8.490379453E-1
1.000980847E0,-8.854410052E-1,-3.597836494E-1,8.607529402E-1
1.003496472E0,-8.598809838E-1,-4.045136273E-1,8.767279387E-1
1.006012149E0,-8.343209624E-1,-4.417886436E-1,8.799229264E-1
1.008527774E0,-8.066309690E-1,-4.641536474E-1,8.682079315E-1
1.011043399E0,-7.810709476E-1,-4.662836492E-1,8.383879662E-1
1.013559024E0,-7.406010032E-1,-4.641536474E-1,7.382779717E-1
1.016074649E0,-6.916109920E-1,-4.822586477E-1,5.337979794E-1
1.018590326E0,-6.490109563E-1,-4.716086388E-1,3.719179928E-1
1.021105951E0,-6.159960032E-1,-4.364636242E-1,2.718079686E-1
1.023852097E0,-5.872409940E-1,-4.151636362E-1,1.898029596E-1
1.026367722E0,-5.627459884E-1,-4.077086449E-1,1.322929710E-1
1.028883347E0,-5.435760021E-1,-4.077086449E-1,1.109929681E-1
1.031398972E0,-5.371859670E-1,-4.045136273E-1,1.259029657E-1
1.033914597E0,-5.361209512E-1,-3.949286342E-1,1.716979593E-1
1.036430274E0,-5.531609654E-1,-3.746936321E-1,2.462479621E-1
1.038945899E0,-5.851109624E-1,-3.395486474E-1,3.506179750E-1
1.041461524E0,-6.287759542E-1,-2.884286344E-1,4.677679837E-1
1.043977149E0,-6.830909848E-1,-2.330486178E-1,6.019579768E-1
1.046492774E0,-7.427309752E-1,-1.829936206E-1,7.414729595E-1
1.049008451E0,-8.066309690E-1,-1.361336261E-1,8.799229264E-1
1.051524076E0,-8.684009910E-1,-8.927362412E-2,1.015177965E0
1.054267305E0,-9.269759655E-1,-3.815362230E-2,1.144042969E0
1.056782930E0,-9.749009609E-1,1.403137483E-2,1.256932974E0
1.059298555E0,-1.013240933E0,6.408637762E-2,1.353847980E0
1.061814180E0,-1.039865971E0,1.077513769E-1,1.435853004E0
1.064329805E0,-1.052645922E0,1.322463751E-1,1.502948046E0
1.066845430E0,-1.062230945E0,1.428963840E-1,1.553002954E0
1.069361107E0,-1.064360976E0,1.397013813E-1,1.582823038E0
1.071876732E0,-1.056905985E0,1.258563697E-1,1.600928068E0
1.074392357E0,-1.041996002E0,1.034913734E-1,1.606253028E0
1.076907982E0,-1.022825956E0,8.006137609E-2,1.606253028E0
1.079423660E0,-9.993959665E-1,5.769637600E-2,1.593472958E0
1.081939285E0,-9.706409574E-1,4.172137752E-2,1.584953070E0
1.084681889E0,-9.418859482E-1,2.894137427E-2,1.575368047E0
1.087197514E0,-9.110009670E-1,2.894137427E-2,1.564718008E0
1.089713139E0,-8.822459579E-1,3.320137411E-2,1.559393048E0
1.092228764E0,-8.556209803E-1,4.917637631E-2,1.561522961E0
1.094744389E0,-8.268659711E-1,8.219137788E-2,1.570042968E0
1.097260066E0,-8.023709655E-1,1.365063787E-1,1.582823038E0
1.099775691E0,-7.789409757E-1,2.067963779E-1,1.603057981E0
1.102291316E0,-7.587059736E-1,2.888013721E-1,1.622228026E0
1.104806941E0,-7.448609471E-1,3.718713522E-1,1.641397953E0
1.107322566E0,-7.342109680E-1,4.549413621E-1,1.661633015E0
1.109838243E0,-7.310159802E-1,5.262963772E-1,1.678673029E0
1.112353868E0,-7.384709716E-1,5.806113482E-1,1.692517996E0
1.115102514E0,-7.576409578E-1,6.189513803E-1,1.698907971E0
1.117618139E0,-7.800059915E-1,6.445113420E-1,1.699972987E0
1.120133764E0,-8.087610006E-1,6.572913527E-1,1.690387964E0
1.122649389E0,-8.449710011E-1,6.604863405E-1,1.669088006E0
1.125165014E0,-8.907659650E-1,6.519663334E-1,1.640333056E0
1.127680691E0,-9.344309568E-1,6.402513385E-1,1.601992965E0
1.130196316E0,-9.887459874E-1,6.359913349E-1,1.563652992E0
1.132711941E0,-1.047320962E0,6.391863823E-1,1.515727997E0
1.135227566E0,-1.110155940E0,6.530313492E-1,1.463543057E0
1.137743191E0,-1.178315997E0,6.839163899E-1,1.408162951E0
1.140258868E0,-1.239020944E0,7.158663869E-1,1.352782965E0
1.143035482E0,-1.302920938E0,7.456863523E-1,1.297402978E0
1.145551107E0,-1.366820931E0,7.574013472E-1,1.243088007E0
1.148066732E0,-1.426460981E0,7.446213365E-1,1.189838052E0
1.150582357E0,-1.482905984E0,7.105413675E-1,1.141913056E0
1.153097982E0,-1.532961011E0,6.636813879E-1,1.097182989E0
1.155613660E0,-1.577690959E0,6.104313731E-1,1.053518057E0
1.158129232E0,-1.610705972E0,5.539863706E-1,1.014113069E0
1.160644910E0,-1.636265993E0,4.954113662E-1,9.736429453E-1
1.163160535E0,-1.645851016E0,4.336413741E-1,9.342379570E-1
1.165676160E0,-1.642655969E0,3.750663698E-1,8.948329687E-1
1.168191837E0,-1.632005930E0,3.164913654E-1,8.586229682E-1
1.170707462E0,-1.604315996E0,2.643063664E-1,8.224129677E-1
1.173223087E0,-1.567040920E0,2.217063755E-1,7.787479758E-1
1.175738764E0,-1.523375988E0,1.908213794E-1,7.361479402E-1
1.178481055E0,-1.474385977E0,1.727163792E-1,6.860929728E-1
1.180996680E0,-1.420071006E0,1.748463809E-1,6.328429580E-1
1.183512305E0,-1.365756035E0,1.780413836E-1,5.753329396E-1
1.186027930E0,-1.308246017E0,1.748463809E-1,5.093029737E-1
1.188543555E0,-1.251801014E0,1.610013694E-1,4.326229692E-1
1.191059180E0,-1.197485924E0,1.482213736E-1,3.570079803E-1
1.193574805E0,-1.143170953E0,1.439613700E-1,2.824579775E-1
1.196090482E0,-1.090986013E0,1.631313711E-1,1.972579658E-1
1.198606107E0,-1.043061018E0,2.142513692E-1,1.163179651E-1
1.201121732E0,-1.003656030E0,2.856063545E-1,3.963796794E-2
1.203637357E0,-9.727709889E-1,3.708063662E-1,-3.065203130E-2
1.206152982E0,-9.440159798E-1,4.538763762E-1,-9.561703354E-2
1.208904180E0,-9.227159619E-1,5.305563807E-1,-1.584520340E-1
1.211419805E0,-9.035459757E-1,6.008463502E-1,-2.234170288E-1
1.213935430E0,-8.928959966E-1,6.551613808E-1,-2.862520218E-1
1.216451107E0,-8.897009492E-1,6.881763339E-1,-3.426970243E-1
1.218966732E0,-8.918309808E-1,7.094763517E-1,-4.012720287E-1
1.221482357E0,-9.003509879E-1,7.158663869E-1,-4.513270259E-1
1.223997982E0,-9.163259864E-1,7.084113359E-1,-4.960570335E-1
1.226513607E0,-9.397559762E-1,6.913713813E-1,-5.280070305E-1
1.229029285E0,-9.674459696E-1,6.722013354E-1,-5.482420325E-1
1.231544910E0,-1.002591014E0,6.445113420E-1,-5.631520748E-1
1.234060535E0,-1.043061018E0,6.093663573E-1,-5.674120784E-1
1.236576160E0,-1.092051029E0,5.550513864E-1,-5.588920712E-1
1.239298451E0,-1.145300984E0,4.805013537E-1,-5.439820290E-1
1.241814076E0,-1.190030932E0,3.910413682E-1,-5.258770585E-1
1.244329701E0,-1.224110961E0,3.026463687E-1,-5.067070723E-1
1.246845326E0,-1.249670982E0,2.302263826E-1,-4.875370264E-1
1.249361003E0,-1.263515949E0,1.780413836E-1,-4.683670104E-1
1.251876576E0,-1.265645981E0,1.482213736E-1,-4.481320083E-1
1.254392253E0,-1.259256005E0,1.279863715E-1,-4.193770289E-1
1.256907878E0,-1.248605967E0,1.120113730E-1,-3.874270320E-1
1.259423503E0,-1.233695984E0,9.710137546E-2,-3.490870297E-1
1.261939128E0,-1.216655970E0,8.432137966E-2,-3.011620045E-1
1.264454805E0,-1.203876019E0,8.325637877E-2,-2.404570282E-1
1.266970378E0,-1.191095948E0,9.710137546E-2,-1.765570343E-1
1.269719910E0,-1.177250981E0,1.173363775E-1,-1.094620377E-1
1.272235535E0,-1.163406014E0,1.375713795E-1,-4.769203067E-2
1.274751212E0,-1.147431016E0,1.450263709E-1,7.687969133E-3
1.277266837E0,-1.117610931E0,1.301163733E-1,5.348296836E-2
1.279782462E0,-1.083531022E0,8.538637310E-2,9.075796604E-2
1.282298087E0,-1.040930986E0,1.616137475E-2,1.259029657E-1
1.284813712E0,-9.951359630E-1,-7.116862386E-2,1.663729697E-1
1.287329337E0,-9.472109675E-1,-1.563686281E-1,2.079079598E-1
1.289845014E0,-9.003509879E-1,-2.362436205E-1,2.473129779E-1
1.292360639E0,-8.652060032E-1,-2.937536240E-1,2.824579775E-1
1.294876264E0,-8.353859782E-1,-3.246386349E-1,3.165379763E-1
1.297391889E0,-8.108909726E-1,-3.278336525E-1,3.463579714E-1
1.300134910E0,-7.927860022E-1,-3.107936382E-1,3.719179928E-1
1.302650535E0,-7.704209685E-1,-2.841686308E-1,4.017379880E-1
1.305166160E0,-7.491209507E-1,-2.639336288E-1,4.241029918E-1
1.307681837E0,-7.224959731E-1,-2.586086392E-1,4.390129745E-1
1.310197410E0,-6.884160042E-1,-2.671286464E-1,4.464679658E-1
1.312713035E0,-6.479460001E-1,-2.862986326E-1,4.443379939E-1
1.315228712E0,-6.010859609E-1,-3.065336347E-1,4.294279814E-1
1.317744337E0,-5.499659777E-1,-3.129236400E-1,3.985429704E-1
1.320259962E0,-4.956510067E-1,-2.937536240E-1,3.633979857E-1
1.322775587E0,-4.381410182E-1,-2.554136515E-1,3.069529831E-1
1.325291264E0,-3.785009980E-1,-2.149436176E-1,2.473129779E-1
1.327806837E0,-3.252510130E-1,-1.840586215E-1,1.812829673E-1
1.330551576E0,-2.815859914E-1,-1.723436266E-1,1.099279672E-1
1.333067201E0,-2.453760058E-1,-1.904486269E-1,3.750796989E-2
1.335582826E0,-2.198159993E-1,-2.319836169E-1,-3.597703204E-2
1.338098503E0,-2.070360035E-1,-2.820386291E-1,-1.105270311E-1
1.340614128E0,-1.963860095E-1,-3.193136454E-1,-1.893370301E-1
1.343129753E0,-1.889310032E-1,-3.107936382E-1,-2.713420093E-1
1.345645378E0,-1.793460101E-1,-2.628686428E-1,-3.437620103E-1
1.348161003E0,-1.782810092E-1,-1.957736164E-1,-4.034020305E-1
1.350676628E0,-1.836059988E-1,-1.137686223E-1,-4.374820292E-1
1.353192305E0,-1.921260059E-1,-3.176362440E-2,-4.481320083E-1
1.355707930E0,-2.081010044E-1,4.491637647E-2,-4.385470152E-1
1.358223555E0,-2.240760028E-1,1.098813787E-1,-4.097920060E-1
1.360966732E0,-2.315310091E-1,1.567413807E-1,-3.852970302E-1
1.363482357E0,-2.336610109E-1,1.929513812E-1,-3.608020246E-1
1.365997982E0,-2.283360064E-1,2.217063755E-1,-3.341770172E-1
1.368513607E0,-2.176860124E-1,2.334213704E-1,-3.022270203E-1
1.371029232E0,-2.017109990E-1,2.302263826E-1,-2.606920302E-1
1.373544910E0,-1.868010014E-1,2.185113728E-1,-2.148970366E-1
1.376060535E0,-1.708260030E-1,2.046663761E-1,-1.637770385E-1
1.378576160E0,-1.569810063E-1,1.844313741E-1,-1.147870347E-1
1.381091785E0,-1.410060078E-1,1.652613729E-1,-6.366702914E-2
1.383607410E0,-1.218359992E-1,1.471563727E-1,-6.157030817E-3
1.386123087E0,-1.026659980E-1,1.343763769E-1,5.774296820E-2
1.388638660E0,-8.669099957E-2,1.269213706E-1,1.269679666E-1
1.391408607E0,-7.071600109E-2,1.258563697E-1,1.972579658E-1
1.393924285E0,-5.687099695E-2,1.375713795E-1,2.718079686E-1
1.396439962E0,-4.835099727E-2,1.641963720E-1,3.452929854E-1
1.398955587E0,-4.515599832E-2,2.046663761E-1,4.155829847E-1
1.401471212E0,-5.048099905E-2,2.664363682E-1,4.848079681E-1
1.403986837E0,-6.539100409E-2,3.388563693E-1,5.508379340E-1
1.406502462E0,-8.669099957E-2,4.187313616E-1,6.189979315E-1
1.409018087E0,-1.079909950E-1,4.868913591E-1,6.807679534E-1
1.411533712E0,-1.239660010E-1,5.390763879E-1,7.318879366E-1
1.414049389E0,-1.367460042E-1,5.667663813E-1,7.723579407E-1
1.416565014E0,-1.484609991E-1,5.699613690E-1,7.979179621E-1
1.419080639E0,-1.580460072E-1,5.603763461E-1,8.106979728E-1
1.421805587E0,-1.676310003E-1,5.486613512E-1,8.160229325E-1
1.424321212E0,-1.846709996E-1,5.273613334E-1,8.032429218E-1
1.426836837E0,-2.038410008E-1,5.071263909E-1,7.819429636E-1
1.429352462E0,-2.240760028E-1,4.986063540E-1,7.553179264E-1
1.431868139E0,-2.411160022E-1,4.975413680E-1,7.169779539E-1
1.434383764E0,-2.507010102E-1,4.964763522E-1,6.743779778E-1
1.436899337E0,-2.549609840E-1,4.964763522E-1,6.349729300E-1
1.439415014E0,-2.592210174E-1,4.911513627E-1,5.913079381E-1
1.441930639E0,-2.666760087E-1,4.879563749E-1,5.455129743E-1
1.444446264E0,-2.773260176E-1,4.868913591E-1,4.986529648E-1
1.446961889E0,-2.964960039E-1,4.879563749E-1,4.485979676E-1
1.449477566E0,-3.167310059E-1,4.858263731E-1,4.006729722E-1
1.452247410E0,-3.327060044E-1,4.794363678E-1,3.570079803E-1
1.454763087E0,-3.465510011E-1,4.645263553E-1,3.144079745E-1
1.457278712E0,-3.540059924E-1,4.496163726E-1,2.792629898E-1
1.459794337E0,-3.572010100E-1,4.379013479E-1,2.579629719E-1
1.462309962E0,-3.667860031E-1,4.389663637E-1,2.409229726E-1
1.464825639E0,-3.785009980E-1,4.677213728E-1,2.334679663E-1
1.467341212E0,-4.008660018E-1,5.135163665E-1,2.324029654E-1
1.469856889E0,-4.242959917E-1,5.859363675E-1,2.334679663E-1
1.472372514E0,-4.573110044E-1,6.722013354E-1,2.313379645E-1
1.474888139E0,-4.913910031E-1,7.563363910E-1,2.281429619E-1
1.477403764E0,-5.222759843E-1,8.223663568E-1,2.185579687E-1
1.479919441E0,-5.531609654E-1,8.628363609E-1,1.972579658E-1
1.482657566E0,-5.808509588E-1,8.766813874E-1,1.706329584E-1
1.485173243E0,-6.074759960E-1,8.734863400E-1,1.365529597E-1
1.487688816E0,-6.394259930E-1,8.596413732E-1,9.608296305E-2
1.490204493E0,-6.735059619E-1,8.372763395E-1,5.348296836E-2
1.492720118E0,-7.171709538E-1,8.074563742E-1,3.427969059E-3
1.495235743E0,-7.544459701E-1,7.755063772E-1,-4.769203067E-2
1.497751420E0,-7.821359634E-1,7.467513680E-1,-9.242203087E-2
1.500267045E0,-8.055659533E-1,7.254513502E-1,-1.318270415E-1
1.502782670E0,-8.236709833E-1,7.169313431E-1,-1.605820358E-1
1.505298295E0,-8.364509940E-1,7.307763696E-1,-1.733620316E-1
1.507813920E0,-8.481659889E-1,7.574013472E-1,-1.744270325E-1
1.510329545E0,-8.577509522E-1,7.829613686E-1,-1.637770385E-1
1.513062097E0,-8.630759716E-1,7.968063354E-1,-1.414120346E-1
1.515577722E0,-8.598809838E-1,7.904163599E-1,-1.105270311E-1
1.518093399E0,-8.492310047E-1,7.712463737E-1,-6.792703271E-2
1.520609024E0,-8.289960027E-1,7.424913645E-1,-1.680703089E-2
1.523124649E0,-8.076959848E-1,7.105413675E-1,5.135297030E-2
1.525640326E0,-7.863959670E-1,6.892413497E-1,1.322929710E-1
1.528155951E0,-7.650959492E-1,6.785913706E-1,2.270779610E-1
1.530671576E0,-7.224959731E-1,6.732663512E-1,3.389029801E-1
1.533187201E0,-6.170609593E-1,6.466413736E-1,4.752229750E-1
1.535702826E0,-5.190809965E-1,6.722013354E-1,6.275179386E-1
1.538218503E0,-4.796760082E-1,7.627263665E-1,7.744879723E-1
1.540734128E0,-4.818060100E-1,8.308863640E-1,9.225229621E-1
1.543461837E0,-4.913910031E-1,8.585763574E-1,1.088662982E0
1.545977462E0,-5.084309578E-1,8.596413732E-1,1.260128021E0
1.548493087E0,-5.244059563E-1,8.308863640E-1,1.434787989E0
1.551008712E0,-5.222759843E-1,7.808313370E-1,1.606253028E0
1.553524337E0,-5.116260052E-1,7.222563624E-1,1.763872981E0
1.556039962E0,-4.935210049E-1,6.572913527E-1,1.906582952E0
1.558555639E0,-4.722210169E-1,5.870013833E-1,2.033318043E0
1.561071264E0,-4.519860148E-1,5.167113543E-1,2.145143032E0
1.563586889E0,-4.413360059E-1,4.453563690E-1,2.251642942E0
1.566102514E0,-4.434660077E-1,3.612213731E-1,2.347492933E0
1.568618191E0,-4.530510008E-1,2.792163491E-1,2.441212893E0
1.571133816E0,-4.850009978E-1,2.014713734E-1,2.533868074E0
1.573885170E0,-5.190809965E-1,1.301163733E-1,2.616938114E0
1.576400743E0,-5.212109685E-1,3.426637501E-2,2.653147936E0
1.578916420E0,-4.924560189E-1,-5.519362167E-2,2.640367985E0
1.581432045E0,-4.541160166E-1,-8.607862145E-2,2.608417988E0
1.583947670E0,-4.157760143E-1,-7.436362654E-2,2.559427977E0
1.586463295E0,-3.625259995E-1,-5.732362345E-2,2.493397951E0
1.588978920E0,-2.975610197E-1,-5.093362182E-2,2.420978069E0
1.591494545E0,-2.347260118E-1,-5.199862272E-2,2.345362902E0
1.594010222E0,-1.772160083E-1,-6.903862208E-2,2.260163069E0
1.596525847E0,-1.335510015E-1,-1.041836217E-1,2.172832966E0
1.599041472E0,-1.101209968E-1,-1.563686281E-1,2.061007977E0
1.601557149E0,-1.005359963E-1,-2.277236283E-1,1.933207989E0
1.604303503E0,-9.308099747E-2,-3.150536418E-1,1.801148057E0
1.606819128E0,-9.734100103E-2,-4.109036326E-1,1.665892959E0
1.609334753E0,-1.122509986E-1,-5.078186393E-1,1.526378036E0
1.611850378E0,-1.303559989E-1,-6.068636179E-1,1.390058041E0
1.614366003E0,-1.442010105E-1,-7.101686597E-1,1.248412967E0
1.616881628E0,-1.473960131E-1,-7.815236449E-1,1.086533070E0
1.619397305E0,-1.271609962E-1,-8.017586470E-1,9.044179320E-1
1.621912930E0,-9.734100103E-2,-8.550086617E-1,6.978079677E-1
1.624428555E0,-7.923600078E-2,-9.402086139E-1,4.848079681E-1
1.626944180E0,-7.391099632E-2,-1.053098559E0,2.675479949E-1
1.629459857E0,-6.752099842E-2,-1.186223626E0,5.028796941E-2
1.631975482E0,-6.539100409E-2,-1.327868581E0,-1.531270295E-1
1.634711524E0,-7.604099810E-2,-1.450343609E0,-3.224620223E-1
1.637227149E0,-8.030100167E-2,-1.508918524E0,-4.598470330E-1
1.639742774E0,-5.580599979E-2,-1.495073557E0,-5.716720223E-1
1.642258399E0,-2.555999905E-3,-1.423718572E0,-6.515470743E-1
1.644774024E0,5.814900249E-2,-1.323608637E0,-6.930820346E-1
1.647289701E0,1.018140018E-1,-1.222433567E0,-7.016020417E-1
1.649805326E0,1.241789982E-1,-1.115933537E0,-6.760420203E-1
1.652320951E0,1.220489964E-1,-1.013693571E0,-6.270520687E-1
1.654836576E0,1.082039997E-1,-9.157136679E-1,-5.642170310E-1
1.657352201E0,8.583900332E-2,-8.219936490E-1,-4.822120070E-1
1.659867878E0,5.495399982E-2,-7.325336337E-1,-3.799720109E-1
1.662383503E0,1.448399946E-2,-6.569186449E-1,-2.606920302E-1
1.665137253E0,-3.237599880E-2,-5.876936316E-1,-1.392820328E-1
1.667652878E0,-7.497599721E-2,-5.099486113E-1,-1.893703081E-2
1.670168503E0,-1.143810004E-1,-4.353986382E-1,9.608296305E-2
1.672684128E0,-1.484609991E-1,-3.629786372E-1,2.068429589E-1
1.675199753E0,-1.729560047E-1,-2.980136275E-1,3.112129867E-1
1.677715430E0,-1.868010014E-1,-2.490236312E-1,4.155829847E-1
1.680231055E0,-1.878660023E-1,-2.298536301E-1,5.210179687E-1
1.682746680E0,-1.793460101E-1,-2.479586154E-1,6.424279213E-1
1.685262305E0,-1.655010134E-1,-3.150536418E-1,7.766179442E-1
1.687777930E0,-1.495260000E-1,-4.513736367E-1,9.203929305E-1
1.690293607E0,-1.346160024E-1,-6.941936612E-1,1.072687984E0
1.692809232E0,-1.314209998E-1,-1.037123561E0,1.232437968E0
1.695549597E0,-1.324860007E-1,-1.360883594E0,1.384732962E0
1.698065222E0,-1.175759956E-1,-1.625003576E0,1.523182988E0
1.700580847E0,-7.497599721E-2,-1.930658579E0,1.661633015E0
1.703096472E0,-4.259999841E-4,-2.241638660E0,1.793693066E0
1.705612097E0,8.796900511E-2,-2.501498461E0,1.915102959E0
1.708127774E0,1.976639926E-1,-2.764553547E0,2.017343044E0
1.710643399E0,3.499589860E-1,-3.128783464E0,2.111063004E0
1.713159024E0,5.373990536E-1,-3.636788607E0,2.198393106E0
1.715674649E0,7.280340195E-1,-4.217213631E0,2.270812988E0
1.718190274E0,8.558340073E-1,-4.710309029E0,2.327258110E0
1.720705951E0,9.112139940E-1,-5.069213867E0,2.371988058E0
1.723221576E0,9.282540083E-1,-5.363153934E0,2.414587975E0
1.725959128E0,9.367740154E-1,-5.627274036E0,2.443342924E0
1.728474701E0,9.548790455E-1,-5.858378887E0,2.451863050E0
1.730990378E0,1.000674009E0,-6.072443962E0,2.438018084E0
1.733506003E0,1.076289058E0,-6.274793625E0,2.411392927E0
1.736021628E0,1.157229066E0,-6.411113739E0,2.374118090E0
1.738537253E0,1.236039042E0,-6.479273796E0,2.327258110E0
1.741052930E0,1.304198980E0,-6.480339050E0,2.279333115E0
1.743568555E0,1.359578967E0,-6.410048962E0,2.233537912E0
1.746084180E0,1.407504082E0,-6.299288750E0,2.187742949E0
1.748599805E0,1.453299046E0,-6.181073666E0,2.153662920E0
1.751115482E0,1.502289057E0,-6.052208900E0,2.121712923E0
1.753631107E0,1.548084021E0,-5.942513943E0,2.097218037E0
1.756383607E0,1.592813969E0,-5.846663952E0,2.082308054E0
1.758899232E0,1.636479020E0,-5.783828735E0,2.074852943E0
1.761414857E0,1.691859007E0,-5.777438641E0,2.080178022E0
1.763930482E0,1.762148976E0,-5.837079048E0,2.095088005E0
1.766446107E0,1.856934071E0,-5.945708752E0,2.122777939E0
1.768961785E0,1.980473995E0,-6.117173672E0,2.164313078E0
1.771477410E0,2.127443790E0,-6.333368778E0,2.211173058E0
1.773993035E0,2.286128998E0,-6.582578659E0,2.260163069E0
1.776508660E0,2.449073792E0,-6.845633984E0,2.309153080E0
1.779024285E0,2.608824015E0,-7.110818863E0,2.346427917E0
1.781539962E0,2.751533985E0,-7.335533619E0,2.381572962E0
1.784055587E0,2.845253944E0,-7.458008766E0,2.408198118E0
1.786831368E0,2.886788845E0,-7.452683926E0,2.426302910E0
1.789347045E0,2.861228943E0,-7.283349037E0,2.450798035E0
1.791862670E0,2.774963856E0,-6.967043877E0,2.485943079E0
1.794378295E0,2.653553963E0,-6.533588886E0,2.532803059E0
1.796893920E0,2.488478899E0,-5.944643974E0,2.598833084E0
1.799409545E0,2.281868935E0,-5.210858822E0,2.686162949E0
1.801925222E0,2.034788847E0,-4.343948841E0,2.784142971E0
1.804440847E0,1.751499057E0,-3.372668505E0,2.899163008E0
1.806956472E0,1.468209028E0,-2.383283615E0,3.020572901E0
1.809472097E0,1.194504023E0,-1.421588540E0,3.131333113E0
1.811987722E0,9.452940226E-1,-5.631986260E-1,3.208013058E0
1.814503347E0,7.248390317E-1,1.929513812E-1,3.244223118E0
1.817210587E0,5.448540449E-1,7.989363670E-1,3.235702991E0
1.819726212E0,4.021439850E-1,1.266471386E0,3.201622963E0
1.822241837E0,2.849940062E-1,1.601946473E0,3.145178080E0
1.824757462E0,1.870139986E-1,1.801101446E0,3.069562912E0
1.827273087E0,9.435900301E-2,1.901211381E0,2.976907969E0
1.829788764E0,-2.555999905E-3,1.940616369E0,2.884253025E0
1.832304389E0,-1.005359963E-1,1.915056467E0,2.796922922E0
1.834820014E0,-2.038410008E-1,1.801101446E0,2.725568056E0
1.837335639E0,-3.231210113E-1,1.588101387E0,2.671252966E0
1.839851264E0,-4.573110044E-1,1.251561403E0,2.625458002E0
1.842366941E0,-5.819159746E-1,8.287563324E-1,2.572207928E0
1.844882566E0,-6.958709955E-1,3.399213552E-1,2.513633013E0
1.847687149E0,-7.810709476E-1,-2.032286227E-1,2.446537971E0
1.850202826E0,-8.332559466E-1,-7.740686536E-1,2.369858027E0
1.852718451E0,-8.513609767E-1,-1.347038627E0,2.276138067E0
1.855234076E0,-8.332559466E-1,-1.899773598E0,2.169637918E0
1.857749701E0,-8.013059497E-1,-2.393933535E0,2.059942961E0
1.860265326E0,-7.480559945E-1,-2.843363523E0,1.924687982E0
1.862781003E0,-6.639209986E-1,-3.255518675E0,1.756417990E0
1.865296628E0,-5.670059919E-1,-3.581408501E0,1.572172999E0
1.867812253E0,-4.700910151E-1,-3.805058479E0,1.369822979E0
1.870327878E0,-3.774360120E-1,-3.924338579E0,1.163213015E0
1.872843503E0,-2.943660021E-1,-3.945638657E0,9.512779713E-1
1.875359128E0,-2.102310061E-1,-3.880673647E0,7.436029315E-1
1.878045222E0,-1.378110051E-1,-3.748613596E0,5.401879549E-1
1.880560847E0,-7.071600109E-2,-3.568628550E0,3.399679661E-1
1.883076472E0,-1.001100056E-2,-3.353498697E0,1.557229608E-1
1.885592097E0,3.578400239E-2,-3.082988501E0,-1.787203178E-2
1.888107722E0,7.092899829E-2,-2.758163691E0,-1.786870360E-1
1.890623399E0,9.755399823E-2,-2.399258614E0,-3.235270083E-1
1.893139024E0,1.177890003E-1,-2.020118475E0,-4.449370205E-1
1.895654649E0,1.358940005E-1,-1.614353538E0,-5.514370203E-1
1.898170274E0,1.390889883E-1,-1.153208613E0,-6.451570392E-1
1.900685951E0,1.529339999E-1,-5.706536174E-1,-7.314220667E-1
1.903201576E0,1.742339879E-1,4.385137558E-2,-8.049070239E-1
1.905717201E0,1.731689870E-1,5.486613512E-1,-8.592220545E-1
1.908460014E0,1.784939915E-1,8.468613625E-1,-8.709370494E-1
1.910975639E0,2.200289965E-1,9.512313604E-1,-8.283370733E-1
1.913491264E0,2.903189957E-1,9.469713569E-1,-7.633720636E-1
1.916006889E0,3.701939881E-1,8.777463436E-1,-6.888220310E-1
1.918522514E0,4.479390085E-1,7.797663808E-1,-6.164020300E-1
1.921038191E0,5.129040480E-1,6.775263548E-1,-5.578270555E-1
1.923553816E0,5.586990118E-1,5.933913589E-1,-5.067070723E-1
1.926069441E0,5.917140245E-1,5.337513685E-1,-4.555870295E-1
1.928585066E0,6.066240072E-1,4.847613573E-1,-4.140520096E-1
1.931100691E0,6.130140424E-1,4.570713639E-1,-3.703870177E-1
1.933616368E0,6.130140424E-1,4.592013657E-1,-3.150070310E-1
1.936131993E0,6.002340317E-1,4.581363499E-1,-2.574970126E-1
1.938874285E0,5.874540210E-1,4.293813705E-1,-1.978570372E-1
1.941389910E0,5.629590154E-1,3.867813647E-1,-1.392820328E-1
1.943905535E0,5.373990536E-1,3.345963657E-1,-9.455203265E-2
1.946421160E0,5.075790286E-1,2.941263616E-1,-5.514702946E-2
1.948936785E0,4.756290019E-1,2.632413507E-1,-2.639203146E-2
1.951452462E0,4.511339962E-1,2.280963808E-1,-2.962030703E-3
1.953968087E0,4.266389906E-1,1.854963750E-1,1.833796874E-2
1.956483712E0,4.064039886E-1,1.450263709E-1,3.750796989E-2
1.958999337E0,3.872340024E-1,1.088163778E-1,5.667797104E-2
1.961514962E0,3.638039827E-1,8.219137788E-2,7.691296935E-2
1.964030639E0,3.361139894E-1,6.621637940E-2,9.927796572E-2
1.966546212E0,3.126839995E-1,5.556637794E-2,1.152529642E-1
1.969289180E0,2.892539799E-1,5.130637810E-2,1.280329674E-1
1.971804805E0,2.732789814E-1,4.491637647E-2,1.365529597E-1
1.974320430E0,2.636939883E-1,3.426637501E-2,1.333579719E-1
1.976836055E0,2.690190077E-1,1.722637564E-2,1.216429621E-1
1.979351680E0,2.871240079E-1,1.863748766E-4,1.056679636E-1
1.981867357E0,3.148140013E-1,-1.046362519E-2,9.821296483E-2
1.984382982E0,3.584789932E-1,-1.898362488E-2,9.182296693E-2
1.986898607E0,4.053390026E-1,-2.111362480E-2,9.288796782E-2
1.989414232E0,4.490039945E-1,2.316374797E-3,1.099279672E-1
1.991929857E0,4.820190072E-1,4.385137558E-2,1.322929710E-1
1.994445535E0,4.926689863E-1,1.002963781E-1,1.642429680E-1
1.996961160E0,4.958640039E-1,1.759113818E-1,2.089729607E-1
1.999708555E0,4.979939759E-1,2.643063664E-1,2.547679842E-1
2.002224180E0,5.086440444E-1,3.431163728E-1,2.952379882E-1
2.004739805E0,5.267490149E-1,4.059513509E-1,3.303829730E-1
2.007255430E0,5.523090363E-1,4.719813764E-1,3.548779786E-1
2.009771055E0,5.810640454E-1,5.507913828E-1,3.687229753E-1
2.012286732E0,6.087540388E-1,6.487713456E-1,3.783079684E-1
2.014802357E0,6.321840286E-1,7.510113716E-1,3.836329877E-1
2.017317982E0,6.534840465E-1,8.468613625E-1,3.932179809E-1
2.019833607E0,6.662639976E-1,9.459063411E-1,4.006729722E-1
2.022349232E0,6.673290133E-1,1.033236384E0,3.985429704E-1
2.024864910E0,6.662639976E-1,1.103526473E0,3.942829669E-1
2.027380535E0,6.630690098E-1,1.177011371E0,3.878929913E-1
2.030122722E0,6.577440500E-1,1.250496387E0,3.783079684E-1
2.032638347E0,6.524190307E-1,1.313331366E0,3.697879910E-1
2.035153972E0,6.438990235E-1,1.361256480E0,3.644629717E-1
2.037669597E0,6.311190128E-1,1.388946414E0,3.623329699E-1
2.040185222E0,6.162090302E-1,1.426221371E0,3.633979857E-1
2.042700899E0,6.012990475E-1,1.452846408E0,3.612679839E-1
2.045216524E0,5.810640454E-1,1.473081470E0,3.633979857E-1
2.047732149E0,5.544390082E-1,1.499706388E0,3.676579893E-1
2.050247774E0,5.363340378E-1,1.507161379E0,3.570079803E-1
2.052763399E0,5.235540271E-1,1.493316412E0,3.548779786E-1
2.055279076E0,5.171640515E-1,1.461366415E0,3.633979857E-1
2.057794701E0,5.150340199E-1,1.418766379E0,3.761779666E-1
2.060539337E0,5.171640515E-1,1.371906400E0,3.985429704E-1
2.063054962E0,5.235540271E-1,1.325046420E0,4.336879849E-1
2.065570587E0,5.320740342E-1,1.281381369E0,4.720279872E-1
2.068086212E0,5.416589975E-1,1.237716436E0,5.135629773E-1
2.070601837E0,5.491140485E-1,1.198311448E0,5.582929254E-1
2.073117514E0,5.640240312E-1,1.166361451E0,6.062179804E-1
2.075633139E0,5.778689981E-1,1.143996477E0,6.488179564E-1
2.078148764E0,5.927790403E-1,1.128021479E0,6.892879605E-1
2.080664389E0,6.076890230E-1,1.121631384E0,7.297579646E-1
2.083180014E0,6.215340495E-1,1.123761415E0,7.585129738E-1
2.085695691E0,6.332490444E-1,1.137606382E0,7.744879723E-1
2.088211316E0,6.449640393E-1,1.158906460E0,7.798129320E-1
2.090957774E0,6.588090062E-1,1.182336450E0,7.723579407E-1
2.093473399E0,6.758490205E-1,1.201506376E0,7.521229386E-1
2.095989024E0,6.992790103E-1,1.216416478E0,7.148479223E-1
2.098504649E0,7.269690037E-1,1.217481375E0,6.637279391E-1
2.101020274E0,7.631790042E-1,1.204701424E0,6.062179804E-1
2.103535951E0,7.983240485E-1,1.190856457E0,5.444479585E-1
2.106051576E0,8.313390017E-1,1.185531378E0,4.901329875E-1
2.108567201E0,8.611590266E-1,1.184466362E0,4.507279694E-1
2.111082826E0,8.952389956E-1,1.184466362E0,4.464679658E-1
2.113598451E0,9.389040470E-1,1.167426467E0,4.837429821E-1
2.116114128E0,9.974790812E-1,1.125891447E0,5.476429462E-1
2.118629753E0,1.050729036E0,1.079031467E0,6.115429401E-1
2.121372357E0,1.082679033E0,1.046016455E0,6.509479284E-1
2.123887982E0,1.110368967E0,1.021521449E0,6.615979671E-1
2.126403607E0,1.130604029E0,1.000221372E0,6.509479284E-1
2.128919285E0,1.142319083E0,9.757263660E-1,6.307129264E-1
2.131434857E0,1.150838971E0,9.522963762E-1,6.051529646E-1
2.133950535E0,1.152969003E0,9.331263900E-1,5.763979554E-1
2.136466160E0,1.138059020E0,9.341913462E-1,5.423179269E-1
2.138981785E0,1.112498999E0,9.405813813E-1,5.029129386E-1
2.141497410E0,1.085874081E0,9.427113533E-1,4.528579712E-1
2.144013035E0,1.063508987E0,9.373863339E-1,3.964129686E-1
2.146528712E0,1.049664021E0,9.235413671E-1,3.527479768E-1
2.149044337E0,1.049664021E0,8.915913701E-1,3.335779905E-1
2.151797410E0,1.063508987E0,8.394063711E-1,3.346429765E-1
2.154313035E0,1.088003993E0,7.776363492E-1,3.516829908E-1
2.156828660E0,1.117824078E0,7.030863762E-1,3.751129806E-1
2.159344285E0,1.150838971E0,6.274713874E-1,3.974779844E-1
2.161859910E0,1.177464008E0,5.635713339E-1,4.155829847E-1
2.164375587E0,1.194504023E0,5.007363558E-1,4.251679778E-1
2.166891212E0,1.213674068E0,4.389663637E-1,4.166479707E-1
2.169406837E0,1.238169074E0,3.676113486E-1,4.028029740E-1
2.171922462E0,1.275444031E0,2.770863473E-1,3.996079862E-1
2.174438087E0,1.331889033E0,1.599363834E-1,3.825679719E-1
2.176953764E0,1.400048971E0,3.426637501E-2,3.665929735E-1
2.179469389E0,1.458624005E0,-7.755862176E-2,3.367729783E-1
2.182223920E0,1.514003992E0,-1.755386293E-1,2.941729724E-1
2.184739597E0,1.574709058E0,-2.767136395E-1,2.579629719E-1
2.187255222E0,1.632219076E0,-3.619136512E-1,2.196229696E-1
2.189770847E0,1.680144072E0,-4.268786311E-1,1.855429709E-1
2.192286472E0,1.720614076E0,-4.662836492E-1,1.493329704E-1
2.194802097E0,1.762148976E0,-5.056886673E-1,1.237729639E-1
2.197317774E0,1.811138988E0,-5.536136627E-1,9.501796216E-2
2.199833399E0,1.862259030E0,-6.068636179E-1,5.454796925E-2
2.202349024E0,1.915508986E0,-6.569186449E-1,8.752969094E-3
2.204864649E0,1.959174037E0,-6.824786663E-1,-5.514702946E-2
2.207380326E0,2.001773834E0,-6.941936612E-1,-1.424770355E-1
2.209895951E0,2.041178942E0,-6.867386103E-1,-2.553670108E-1
2.212639597E0,2.076323986E0,-6.611786485E-1,-3.714520335E-1
2.215155274E0,2.119988918E0,-6.420086622E-1,-4.673020244E-1
2.217670847E0,2.187083960E0,-6.345536113E-1,-5.450470448E-1
2.220186524E0,2.277608871E0,-6.452036500E-1,-6.121420264E-1
2.222702149E0,2.416059017E0,-7.133636475E-1,-6.345070601E-1
2.225217774E0,2.633318901E0,-8.571386337E-1,-5.972320437E-1
2.227733451E0,2.830343962E0,-9.423386455E-1,-5.887120366E-1
2.230249076E0,3.017783880E0,-9.902636409E-1,-6.217270494E-1
2.232764701E0,3.215873957E0,-1.030733585E0,-6.866920590E-1
2.235280326E0,3.406508923E0,-1.044578552E0,-7.718920708E-1
2.237795951E0,3.589689016E0,-1.016888618E0,-8.634820580E-1
2.240311576E0,3.766479015E0,-9.604436159E-1,-9.486820698E-1
2.243044232E0,3.942203999E0,-8.720486164E-1,-1.029621959E0
2.245559857E0,4.110474110E0,-7.527686357E-1,-1.113757014E0
2.248075482E0,4.283003807E0,-5.994086266E-1,-1.201086998E0
2.250591107E0,4.456598759E0,-4.353986382E-1,-1.288416982E0
2.253106732E0,4.629128933E0,-2.607386410E-1,-1.373616934E0
2.255622410E0,4.785684109E0,-7.436362654E-2,-1.453492045E0
2.258138035E0,4.924133778E0,1.162713766E-1,-1.530171990E0
2.260653660E0,5.045543671E0,2.802813649E-1,-1.596202016E0
2.263169285E0,5.135004044E0,4.059513509E-1,-1.656906962E0
2.265684910E0,5.198904037E0,4.900863469E-1,-1.702702045E0
2.268200587E0,5.226593971E0,4.410963655E-1,-1.737846971E0
2.270716212E0,5.162693977E0,2.894137427E-2,-1.751691937E0
2.273454024E0,4.943304062E0,-7.580936551E-1,-1.735716939E0
2.275969649E0,4.650428772E0,-1.413068533E0,-1.705896974E0
2.278485274E0,4.344773769E0,-1.786883593E0,-1.680336952E0
2.281000899E0,4.010364056E0,-2.008403540E0,-1.659036994E0
2.283516524E0,3.649328947E0,-2.139398575E0,-1.640931964E0
2.286032201E0,3.263798952E0,-2.210753679E0,-1.622826934E0
2.288547826E0,2.869748831E0,-2.227793694E0,-1.607916951E0
2.291063451E0,2.463984013E0,-2.192648649E0,-1.595137000E0
2.293579076E0,2.049698830E0,-2.107448578E0,-1.581292033E0
2.296094701E0,1.633283973E0,-1.973258615E0,-1.570641994E0
2.298610378E0,1.213674068E0,-1.786883593E0,-1.556797028E0
2.301126003E0,7.919340134E-1,-1.558973551E0,-1.548277020E0
2.303872410E0,3.776489794E-1,-1.296983600E0,-1.542951941E0
2.306388035E0,-3.663599864E-2,-1.012628555E0,-1.538691998E0
2.308903660E0,-4.285559952E-1,-7.431836128E-1,-1.534431934E0
2.311419285E0,-7.789409757E-1,-5.312486291E-1,-1.526976943E0
2.313934910E0,-1.062230945E0,-4.023836255E-1,-1.521651983E0
2.316450535E0,-1.288010955E0,-3.363536298E-1,-1.523782015E0
2.318966212E0,-1.472255945E0,-3.044036329E-1,-1.535496950E0
2.321481837E0,-1.618160963E0,-2.831036448E-1,-1.552536964E0
2.323997462E0,-1.738505960E0,-2.596736252E-1,-1.582357049E0
2.326513087E0,-1.821575999E0,-2.149436176E-1,-1.624956965E0
2.329028764E0,-1.813055992E0,-1.308086216E-1,-1.684597015E0
2.331544389E0,-1.646916032E0,2.574637532E-2,-1.778316975E0
2.334286472E0,-1.347651005E0,2.611113489E-1,-1.873101950E0
2.336802097E0,-1.103765965E0,5.156463385E-1,-1.918897033E0
2.339317722E0,-9.759659767E-1,7.520763874E-1,-1.947651982E0
2.341833347E0,-9.024809599E-1,9.789213538E-1,-1.972146988E0
2.344348972E0,-8.481659889E-1,1.201506376E0,-1.979601979E0
2.346864597E0,-7.981109619E-1,1.420896411E0,-1.960431933E0
2.349380274E0,-7.342109680E-1,1.640286446E0,-1.906116962E0
2.351895899E0,-6.628559828E-1,1.841571450E0,-1.834761977E0
2.354411524E0,-6.042809486E-1,1.983216405E0,-1.759147048E0
2.356927149E0,-5.435760021E-1,2.040726423E0,-1.684597015E0
2.359442826E0,-4.796760082E-1,2.024751425E0,-1.616436958E0
2.361958451E0,-4.061909914E-1,1.916121364E0,-1.551471949E0
2.364707774E0,-3.390960097E-1,1.721226454E0,-1.489701986E0
2.367223399E0,-2.879759967E-1,1.452846408E0,-1.436452031E0
2.369739024E0,-2.464410067E-1,1.121631384E0,-1.369356990E0
2.372254649E0,-2.176860124E-1,7.510113716E-1,-1.284157038E0
2.374770274E0,-1.963860095E-1,3.601563573E-1,-1.174461961E0
2.377285951E0,-1.772160083E-1,-2.963362448E-2,-1.034947038E0
2.379801576E0,-1.527210027E-1,-3.959936500E-1,-8.709370494E-1
2.382317201E0,-1.324860007E-1,-7.314686179E-1,-6.877570748E-1
2.384832826E0,-1.186409965E-1,-1.015823603E0,-4.822120070E-1
2.387348451E0,-1.101209968E-1,-1.220303535E0,-2.681470215E-1
2.389864128E0,-1.069260016E-1,-1.328933597E0,-6.153703108E-2
2.392379753E0,-1.079909950E-1,-1.329998612E0,1.248379648E-1
2.395117201E0,-1.069260016E-1,-1.250123620E0,2.813929915E-1
2.397632826E0,-9.095099568E-2,-1.121258616E0,4.091929793E-1
2.400148451E0,-6.645599753E-2,-9.891986251E-1,5.082379580E-1
2.402664076E0,-2.492100000E-2,-9.029336572E-1,5.827879310E-1
2.405179701E0,2.300399914E-2,-8.613986373E-1,6.488179564E-1
2.407695378E0,6.986400485E-2,-8.124086261E-1,7.063279748E-1
2.410211003E0,1.018140018E-1,-7.357286215E-1,7.489279509E-1
2.412726628E0,1.252439916E-1,-6.420086622E-1,7.787479758E-1
2.415242253E0,1.444139928E-1,-5.365736485E-1,7.979179621E-1
2.417757878E0,1.497389972E-1,-4.300736487E-1,7.957879305E-1
2.420273555E0,1.497389972E-1,-3.320936263E-1,7.851379514E-1
2.422789180E0,1.401539892E-1,-2.436986268E-1,7.585129738E-1
2.425532878E0,1.284389943E-1,-1.723436266E-1,7.180429697E-1
2.428048503E0,1.082039997E-1,-1.105736271E-1,6.690529585E-1
2.430564128E0,7.625400275E-2,-6.584362686E-2,6.094129682E-1
2.433079753E0,3.684900329E-2,-3.602362424E-2,5.401879549E-1
2.435595378E0,-1.533599943E-2,-1.472362503E-2,4.698979855E-1
2.438111055E0,-8.136599511E-2,1.251374837E-3,3.953479826E-1
2.440626680E0,-1.612410098E-1,2.316374797E-3,3.176029921E-1
2.443142305E0,-2.453760058E-1,-1.046362519E-2,2.398579717E-1
2.445657930E0,-3.390960097E-1,-3.069862537E-2,1.589179635E-1
2.448173555E0,-4.360110164E-1,-5.732362345E-2,7.478296757E-2
2.450689232E0,-5.297309756E-1,-1.009886265E-1,-9.352031164E-3
2.453204857E0,-6.255809665E-1,-1.553036273E-1,-9.455203265E-2
2.455950951E0,-7.214309573E-1,-2.160086185E-1,-1.754920334E-1
2.458466576E0,-8.162159920E-1,-2.809736431E-1,-2.447170317E-1
2.460982201E0,-9.078059793E-1,-3.470036387E-1,-3.011620045E-1
2.463497826E0,-9.876809716E-1,-4.140986502E-1,-3.480220139E-1
2.466013451E0,-1.056905985E0,-4.865186512E-1,-3.810370266E-1
2.468529128E0,-1.118675947E0,-5.578736663E-1,-4.076620340E-1
2.471044753E0,-1.169795990E0,-6.281636357E-1,-4.310920238E-1
2.473560378E0,-1.214525938E0,-6.963236332E-1,-4.481320083E-1
2.476076003E0,-1.250735998E0,-7.815236449E-1,-4.609120190E-1
2.478591628E0,-1.278425932E0,-8.752436638E-1,-4.641070068E-1
2.481107305E0,-1.300791025E0,-9.657686353E-1,-4.641070068E-1
2.483622930E0,-1.317830920E0,-1.038188577E0,-4.555870295E-1
2.486366107E0,-1.312505960E0,-1.118063569E0,-4.353520274E-1
2.488881732E0,-1.295465946E0,-1.179833531E0,-4.034020305E-1
2.491397357E0,-1.256060958E0,-1.223498583E0,-3.522820175E-1
2.493912982E0,-1.203876019E0,-1.256513596E0,-2.979670167E-1
2.496428607E0,-1.151690960E0,-1.278878570E0,-2.479120344E-1
2.498944285E0,-1.104830980E0,-1.282073617E0,-1.904020309E-1
2.501459910E0,-1.068620920E0,-1.256513596E0,-1.328920275E-1
2.503975535E0,-1.043061018E0,-1.212848544E0,-8.070703596E-2
2.506491160E0,-1.019631028E0,-1.160663605E0,-3.810703009E-2
2.509006785E0,-9.898110032E-1,-1.092503548E0,5.557969213E-3
2.511522462E0,-9.621209502E-1,-1.004108548E0,4.709297046E-2
2.514038087E0,-9.280409813E-1,-9.071936607E-1,9.182296693E-2
2.516785535E0,-8.918309808E-1,-8.006936312E-1,1.333579719E-1
2.519301160E0,-8.502959609E-1,-7.005836368E-1,1.631779671E-1
2.521816785E0,-8.034359813E-1,-6.089936495E-1,1.812829673E-1
2.524332462E0,-7.629659772E-1,-5.099486113E-1,1.951279640E-1
2.526848035E0,-7.406010032E-1,-4.002536237E-1,2.164279670E-1
2.529363712E0,-7.437959909E-1,-2.628686428E-1,2.483779639E-1
2.531879337E0,-7.437959909E-1,-1.553036273E-1,2.845879793E-1
2.534394962E0,-7.246260047E-1,-9.566362202E-2,3.261229694E-1
2.536910587E0,-7.139759660E-1,-3.602362424E-2,3.527479768E-1
2.539426212E0,-7.214309573E-1,2.361637540E-2,3.591379821E-1
2.541941889E0,-7.427309752E-1,8.858137578E-2,3.921529949E-1
2.544457514E0,-7.746809721E-1,1.663263738E-1,4.326229692E-1
2.547206524E0,-8.023709655E-1,2.387463748E-1,4.432729781E-1
2.549722149E0,-8.300609589E-1,2.866713703E-1,4.177129865E-1
2.552237774E0,-8.790509701E-1,3.633513749E-1,4.145179689E-1
2.554753451E0,-9.386909604E-1,4.251213670E-1,4.123879671E-1
2.557269076E0,-9.972659945E-1,4.304463565E-1,3.804379702E-1
2.559784701E0,-1.080335975E0,4.102113545E-1,3.474229872E-1
2.562300326E0,-1.183640957E0,3.825213611E-1,3.357079923E-1
2.564815951E0,-1.283751011E0,3.377913535E-1,3.623329699E-1
2.567331628E0,-1.349780917E0,2.557863593E-1,4.315579832E-1
2.569847253E0,-1.407290936E0,1.908213794E-1,4.741579890E-1
2.572362878E0,-1.450955987E0,1.428963840E-1,5.082379580E-1
2.574878503E0,-1.458410978E0,6.302137673E-2,5.678779483E-1
2.577613295E0,-1.444566011E0,-1.685362495E-2,6.179329753E-1
2.580128920E0,-1.442435980E0,-6.264862418E-2,6.562729478E-1
2.582644545E0,-1.434980989E0,-1.286786199E-1,7.020679712E-1
2.585160170E0,-1.417940974E0,-2.181386203E-1,7.286929488E-1
2.587675795E0,-1.400900960E0,-2.788436413E-1,7.521229386E-1
2.590191472E0,-1.372146010E0,-3.288986385E-1,8.011129498E-1
2.592707097E0,-1.316766024E0,-3.384836316E-1,8.564929366E-1
2.595222722E0,-1.230500937E0,-3.065336347E-1,9.076129794E-1
2.597738347E0,-1.108026028E0,-2.756486237E-1,9.640579224E-1
2.600253972E0,-9.578609467E-1,-1.979036182E-1,1.034348011E0
2.602769649E0,-7.821359634E-1,-9.033862501E-2,1.105702996E0
2.605285274E0,-5.957610011E-1,6.408637762E-2,1.193032980E0
2.608036837E0,-3.891510069E-1,2.249013782E-1,1.311248064E0
2.610552462E0,-1.782810092E-1,4.176663756E-1,1.450762987E0
2.613068087E0,4.430400208E-2,6.264063716E-1,1.576433063E0
2.615583712E0,2.636939883E-1,8.191713691E-1,1.694648027E0
2.618099337E0,4.585889876E-1,1.033236384E0,1.827772975E0
2.620615014E0,6.396390200E-1,1.232391477E0,1.983263016E0
2.623130639E0,8.079090118E-1,1.437936425E0,2.143013000E0
2.625646264E0,9.484890103E-1,1.670106411E0,2.307023048E0
2.628161889E0,1.095458984E0,1.884171367E0,2.448668003E0
2.630677514E0,1.248818994E0,2.069481373E0,2.596703053E0
2.633193191E0,1.406439066E0,2.191956520E0,2.731957912E0
2.635708816E0,1.565124035E0,2.252661467E0,2.848042965E0
2.638448712E0,1.731263995E0,2.251596451E0,2.970518112E0
2.640964337E0,1.897404075E0,2.195151329E0,3.069562912E0
2.643479962E0,2.061414003E0,2.108886480E0,3.138787985E0
2.645995587E0,2.228618860E0,1.992801428E0,3.214402914E0
2.648511212E0,2.401148796E0,1.828791380E0,3.257003069E0
2.651026889E0,2.566223860E0,1.661586404E0,3.251677990E0
2.653542514E0,2.706803799E0,1.495446444E0,3.177128077E0
2.656058139E0,2.813303947E0,1.322916389E0,3.026962996E0
2.658573764E0,2.856968880E0,1.140801430E0,2.834197998E0
2.661089389E0,2.840993881E0,9.075663686E-1,2.624392986E0
2.663605066E0,2.758988857E0,5.976513624E-1,2.389028072E0
2.666120691E0,2.596043825E0,1.908213794E-1,2.136622906E0
2.668866732E0,2.338313818E0,-2.841686308E-1,1.884217978E0
2.671382357E0,1.992189050E0,-7.431836128E-1,1.633942962E0
2.673897982E0,1.599204063E0,-1.116998553E0,1.395383000E0
2.676413607E0,1.200893998E0,-1.385378599E0,1.171733022E0
2.678929232E0,8.174940348E-1,-1.563233614E0,9.693829417E-1
2.681444910E0,4.639140069E-1,-1.661213636E0,7.915279269E-1
2.683960535E0,1.465439945E-1,-1.697423577E0,6.243229508E-1
2.686476160E0,-1.324860007E-1,-1.685708523E0,4.805479944E-1
2.688991785E0,-3.678510189E-1,-1.660148621E0,3.665929735E-1
2.691507410E0,-5.584859848E-1,-1.634588599E0,2.718079686E-1
2.694023087E0,-7.107809782E-1,-1.610093594E0,2.004529685E-1
2.696538712E0,-8.428409696E-1,-1.550453544E0,1.493329704E-1
2.699292514E0,-9.440159798E-1,-1.494008541E0,1.120579690E-1
2.701808139E0,-1.012175918E0,-1.435433626E0,8.223796636E-2
2.704323764E0,-1.070750952E0,-1.366208553E0,5.987296626E-2
2.706839389E0,-1.119740963E0,-1.291658521E0,4.815796763E-2
2.709355014E0,-1.162340999E0,-1.208588600E0,4.602796957E-2
2.711870691E0,-1.200680971E0,-1.110608578E0,5.028796941E-2
2.714386316E0,-1.242215991E0,-9.796136618E-1,8.330296725E-2
2.716901941E0,-1.278425932E0,-8.411636353E-1,1.109929681E-1
2.719417566E0,-1.285880923E0,-7.208186388E-1,1.354879588E-1
2.721933191E0,-1.272035956E0,-6.068636179E-1,1.780879647E-1
2.724448868E0,-1.235826015E0,-5.110136271E-1,2.249479592E-1
2.726964441E0,-1.157015920E0,-4.854536355E-1,2.899129689E-1
2.729693764E0,-1.006850958E0,-5.631986260E-1,3.825679719E-1
2.732209389E0,-7.981109619E-1,-7.335986495E-1,4.432729781E-1
2.734725014E0,-5.978909731E-1,-9.008036256E-1,4.113229811E-1
2.737240639E0,-3.508110046E-1,-1.139363527E0,3.133429885E-1
2.739756264E0,-8.562599868E-2,-1.378988624E0,1.780879647E-1
2.742271889E0,7.199399918E-2,-1.439693570E0,7.687969133E-3
2.744787566E0,3.382439911E-1,-1.505723596E0,-2.628220320E-1
2.747303191E0,7.919340134E-1,-1.745348573E0,-6.110770702E-1
2.749818816E0,1.094393969E0,-2.163893461E0,-8.751970530E-1
2.752334441E0,1.086938977E0,-2.481263638E0,-8.379220366E-1
2.754850066E0,1.044339061E0,-2.606933594E0,-5.514370203E-1
2.757365691E0,8.920440078E-1,-2.598413467E0,-2.756020129E-1
2.760125743E0,6.875640154E-1,-2.237378597E0,-1.222420335E-1
2.762641368E0,5.746740103E-1,-1.629263520E0,-3.171703219E-2
2.765156993E0,4.681739807E-1,-9.039986134E-1,3.218296915E-2
2.767672618E0,2.828640044E-1,-2.479586154E-1,7.158796489E-2
2.770188243E0,9.648900479E-2,2.025363743E-1,9.821296483E-2
2.772703920E0,-9.521099925E-2,3.633513749E-1,8.649796247E-2
2.775219545E0,-3.316410184E-1,2.632413507E-1,2.329691779E-4
2.777735170E0,-6.128009558E-1,7.367137820E-2,-1.105270311E-1
2.780250795E0,-9.386909604E-1,-1.648886204E-1,-2.351320386E-1
2.782766420E0,-1.295465946E0,-4.811936319E-1,-3.735820055E-1
2.785282097E0,-1.632005930E0,-8.518136144E-1,-5.109670758E-1
2.787797722E0,-1.899320960E0,-1.227758527E0,-6.345070601E-1
2.790527930E0,-2.072916031E0,-1.554713607E0,-7.037320733E-1
2.793043555E0,-2.160246134E0,-1.769843578E0,-7.005370259E-1
2.795559180E0,-2.195391178E0,-1.853978634E0,-6.462220550E-1
2.798074805E0,-2.216691017E0,-1.833743572E0,-5.801920295E-1
2.800590430E0,-2.219886065E0,-1.774103522E0,-5.333320498E-1
2.803106107E0,-2.204976082E0,-1.705943584E0,-4.971220195E-1
2.805621732E0,-2.183676004E0,-1.630328536E0,-4.566520154E-1
2.808137357E0,-2.159181118E0,-1.534478545E0,-4.108570218E-1
2.810652982E0,-2.131491184E0,-1.430108547E0,-3.576070070E-1
2.813168607E0,-2.109126091E0,-1.324673533E0,-2.990320325E-1
2.815684285E0,-2.088891029E0,-1.234148622E0,-2.532370389E-1
2.818199910E0,-2.065461159E0,-1.155338526E0,-2.212870270E-1
2.820946993E0,-2.024991035E0,-1.068008542E0,-1.872070283E-1
2.823462618E0,-1.912101030E0,-9.647036195E-1,-1.467370391E-1
2.825978243E0,-1.659695983E0,-8.454236388E-1,-7.964203507E-2
2.828493868E0,-1.259256005E0,-6.856736541E-1,2.579296939E-2
2.831009493E0,-7.693559527E-1,-4.684136510E-1,1.397479624E-1
2.833525170E0,-2.837159932E-1,-2.064236253E-1,2.387929708E-1
2.836040795E0,1.177890003E-1,6.408637762E-2,3.186679780E-1
2.838556420E0,3.882989883E-1,2.983863652E-1,3.857629895E-1
2.841072045E0,5.192940235E-1,4.666563570E-1,4.411429763E-1
2.843587670E0,5.469840169E-1,5.550513864E-1,4.688329697E-1
2.846103347E0,5.097090006E-1,5.827413797E-1,4.816129804E-1
2.848618972E0,4.213140011E-1,5.997813344E-1,4.869379699E-1
2.851364337E0,3.105539978E-1,5.901963711E-1,4.656379819E-1
2.853879962E0,1.891440004E-1,5.625063777E-1,4.251679778E-1
2.856395587E0,7.518900186E-2,5.433363914E-1,3.729829788E-1
2.858911212E0,-2.279100008E-2,5.252313614E-1,3.207979798E-1
2.861426837E0,-1.016009971E-1,5.284263492E-1,2.771329880E-1
2.863942514E0,-1.580460072E-1,5.539863706E-1,2.473129779E-1
2.866458139E0,-2.166210115E-1,6.072363853E-1,2.302729636E-1
2.868973764E0,-2.443110049E-1,6.594213843E-1,2.473129779E-1
2.871489389E0,-1.793460101E-1,6.903063655E-1,3.783079684E-1
2.874005014E0,-4.941599816E-2,6.977613568E-1,5.902429223E-1
2.876520691E0,9.755399823E-2,7.062813640E-1,7.542529702E-1
2.879036316E0,2.391989976E-1,7.105413675E-1,8.777929544E-1
2.881778555E0,3.776489794E-1,6.988263726E-1,9.768379331E-1
2.884294180E0,5.086440444E-1,6.668763757E-1,1.054582953E0
2.886809753E0,6.183390021E-1,6.285363436E-1,1.111027956E0
2.889325430E0,7.152540088E-1,5.944563746E-1,1.140848041E0
2.891841055E0,8.015190363E-1,5.497263670E-1,1.121677995E0
2.894356732E0,8.664840460E-1,4.879563749E-1,1.067363024E0
2.896872357E0,9.037590027E-1,4.102113545E-1,9.981378913E-1
2.899387982E0,9.016290307E-1,3.037113547E-1,9.140029550E-1
2.901903607E0,8.632889986E-1,1.801713705E-1,8.288029432E-1
2.904419232E0,7.898040414E-1,5.769637600E-2,7.585129738E-1
2.906934857E0,6.854340434E-1,-6.584362686E-2,7.020679712E-1
2.909450535E0,5.640240312E-1,-1.723436266E-1,6.615979671E-1
2.912194180E0,4.319639802E-1,-2.575436234E-1,6.349729300E-1
2.914709805E0,2.935139835E-1,-3.214436471E-1,6.200629473E-1
2.917225430E0,1.518689990E-1,-3.565886319E-1,6.232579350E-1
2.919741055E0,9.159000590E-3,-3.576536477E-1,6.381679773E-1
2.922256680E0,-1.282259971E-1,-3.267686367E-1,6.669229269E-1
2.924772357E0,-2.581560016E-1,-2.713886499E-1,7.201729417E-1
2.927287982E0,-3.806309998E-1,-2.032286227E-1,7.627729774E-1
2.929803607E0,-4.881960154E-1,-1.222886294E-1,7.883329391E-1
2.932319232E0,-5.765909553E-1,-2.750362456E-2,7.989829779E-1
2.934834857E0,-6.554009914E-1,6.728138030E-2,8.000479341E-1
2.937350535E0,-7.214309573E-1,1.556763798E-1,7.904629707E-1
2.939866107E0,-7.757459879E-1,2.323563695E-1,7.744879723E-1
2.942612566E0,-8.268659711E-1,2.930613756E-1,7.627729774E-1
2.945128191E0,-8.705309629E-1,3.367263675E-1,7.521229386E-1
2.947643816E0,-9.120659828E-1,3.622863591E-1,7.404079437E-1
2.950159441E0,-9.504059553E-1,3.761313558E-1,7.286929488E-1
2.952675066E0,-9.940709472E-1,3.750663698E-1,7.223029733E-1
2.955190743E0,-1.032410979E0,3.633513749E-1,7.137829661E-1
2.957706368E0,-1.069685936E0,3.356613517E-1,7.063279748E-1
2.960221993E0,-1.105895996E0,2.696313560E-1,6.967429519E-1
2.962737618E0,-1.139976025E0,1.727163792E-1,6.892879605E-1
2.965253243E0,-1.168730974E0,6.834637374E-2,6.797029376E-1
2.967768920E0,-1.192160964E0,-5.093362182E-2,6.679879427E-1
2.970284545E0,-1.212396026E0,-1.787336171E-1,6.530779600E-1
2.973031785E0,-1.221980929E0,-3.225086331E-1,6.349729300E-1
2.975547410E0,-1.226240993E0,-4.811936319E-1,6.179329753E-1
2.978063035E0,-1.224110961E0,-6.398786306E-1,5.987629294E-1
2.980578660E0,-1.216655970E0,-7.868486643E-1,5.838529468E-1
2.983094285E0,-1.203876019E0,-9.125186205E-1,5.742679238E-1
2.985609962E0,-1.194290996E0,-1.017953634E0,5.721379519E-1
2.988125587E0,-1.179381013E0,-1.111673594E0,5.700079799E-1
2.990641212E0,-1.167665958E0,-1.181963563E0,5.795929432E-1
2.993156837E0,-1.154886007E0,-1.240538597E0,5.891779661E-1
2.995672462E0,-1.132521033E0,-1.301243544E0,6.008929610E-1
2.998188139E0,-1.103765965E0,-1.370468616E0,6.126079559E-1
3.000703764E0,-1.071815968E0,-1.434368610E0,6.243229508E-1
3.003443243E0,-1.037735939E0,-1.483358622E0,6.381679773E-1
3.005958868E0,-1.003656030E0,-1.518503547E0,6.552079320E-1
3.008474493E0,-9.674459696E-1,-1.532348633E0,6.754429340E-1
3.010990118E0,-9.376260042E-1,-1.520633578E0,7.041979432E-1
3.013505743E0,-8.960909843E-1,-1.472708583E0,7.350829244E-1
3.016021420E0,-8.439059854E-1,-1.364078522E0,7.649029493E-1
3.018537045E0,-7.736159563E-1,-1.211783528E0,7.862029672E-1
3.021052670E0,-6.809609532E-1,-1.012628555E0,8.043079376E-1
3.023568295E0,-5.702009797E-1,-7.772636414E-1,8.138929605E-1
3.026083920E0,-4.424009919E-1,-5.482886434E-1,8.011129498E-1
3.028599597E0,-3.209910095E-1,-3.555236459E-1,7.744879723E-1
3.031115222E0,-2.027759999E-1,-2.042936236E-1,7.329529524E-1
3.033865118E0,-9.308099747E-2,-7.968862355E-2,6.797029376E-1
3.036380743E0,8.093999699E-3,4.172137752E-2,6.339079738E-1
3.038896368E0,1.028790027E-1,1.588713825E-1,5.870479345E-1
3.041411993E0,1.944689900E-1,2.611113489E-1,5.391229391E-1
3.043927618E0,2.817989886E-1,3.473763764E-1,4.943929911E-1
3.046443295E0,3.606089950E-1,4.155363739E-1,4.475329816E-1
3.048958920E0,4.330289960E-1,4.666563570E-1,4.091929793E-1
3.051474545E0,4.926689863E-1,5.028663874E-1,3.825679719E-1
3.053990170E0,5.459190011E-1,5.113863349E-1,3.570079803E-1
3.056505795E0,5.895840526E-1,4.932813644E-1,3.314479887E-1
3.059021472E0,6.247290373E-1,4.528113604E-1,3.101479709E-1
3.061537097E0,6.524190307E-1,4.027563632E-1,2.941729724E-1
3.064279597E0,6.673290133E-1,3.452463746E-1,2.813929915E-1
3.066795222E0,6.715890169E-1,2.792163491E-1,2.707429826E-1
3.069310847E0,6.715890169E-1,2.334213704E-1,2.611579895E-1
3.071826472E0,6.715890169E-1,2.131863832E-1,2.600929737E-1
3.074342097E0,6.758490205E-1,2.206413746E-1,2.611579895E-1
3.076857774E0,6.811740398E-1,2.430063784E-1,2.600929737E-1
3.079373399E0,6.907590032E-1,2.728263736E-1,2.675479949E-1
3.081889024E0,6.971490383E-1,3.175563514E-1,2.728729844E-1
3.084404649E0,7.109940052E-1,3.846513629E-1,2.877829671E-1
3.086920274E0,7.248390317E-1,4.623963535E-1,2.952379882E-1
3.089435899E0,7.429440022E-1,5.507913828E-1,3.080179691E-1
3.091951576E0,7.695690393E-1,6.413163543E-1,3.431629837E-1
3.094690639E0,7.961940169E-1,7.275813818E-1,3.889579773E-1
3.097206264E0,8.121690154E-1,8.181063533E-1,4.422079921E-1
3.099721889E0,8.132340312E-1,9.107613564E-1,4.901329875E-1
3.102237514E0,8.100390434E-1,9.959613681E-1,5.369929671E-1
3.104753139E0,7.876740098E-1,1.050276399E0,5.742679238E-1
3.107268816E0,7.418790460E-1,1.055601478E0,5.955679417E-1
3.109784441E0,6.864989996E-1,1.015131474E0,6.072829366E-1
3.112300066E0,6.183390021E-1,9.405813813E-1,6.115429401E-1
3.114815691E0,5.448540449E-1,8.511213660E-1,6.115429401E-1
3.117331316E0,4.681739807E-1,7.499463558E-1,6.083479524E-1
3.119846993E0,3.946889937E-1,6.509013772E-1,5.987629294E-1
3.122362618E0,3.201389909E-1,5.475963354E-1,5.827879310E-1
3.125107253E0,2.658239901E-1,4.347063601E-1,5.614879727E-1
3.127622878E0,2.786040008E-1,3.186213672E-1,5.284729600E-1
3.130138503E0,3.446339965E-1,2.078613788E-1,5.007829666E-1
3.132654128E0,3.904289901E-1,8.751637489E-2,4.677679837E-1
3.135169753E0,4.308989942E-1,-6.158362329E-2,4.123879671E-1
3.137685430E0,4.585889876E-1,-2.021636218E-1,3.325129747E-1
3.140201055E0,4.713689983E-1,-2.873636484E-1,2.462479621E-1
3.142716680E0,4.660440087E-1,-3.129236400E-1,1.503979713E-1
3.145232305E0,4.873439968E-1,-3.033386469E-1,5.987296626E-2
3.147747930E0,5.182290077E-1,-2.862986326E-1,-2.213202976E-2
3.150263607E0,4.958640039E-1,-2.767136395E-1,-1.115920320E-1
3.152779232E0,4.372889996E-1,-2.564786375E-1,-1.914670318E-1
3.155531628E0,3.669990003E-1,-2.213336229E-1,-2.543020248E-1
3.158047253E0,2.977739871E-1,-1.808636189E-1,-3.075520098E-1
3.160562878E0,2.360039949E-1,-1.403936297E-1,-3.501520157E-1
3.163078503E0,1.838189960E-1,-1.137686223E-1,-3.916870058E-1
3.165594128E0,1.348289996E-1,-1.073786244E-1,-4.236370325E-1
3.168109805E0,8.796900511E-2,-1.158986241E-1,-4.460020065E-1
3.170625430E0,5.388900265E-2,-1.318736225E-1,-4.673020244E-1
3.173141055E0,3.471900150E-2,-1.467836201E-1,-4.854070246E-1
3.175656680E0,2.619899996E-2,-1.616936177E-1,-5.003170371E-1
3.178172305E0,1.874399930E-2,-1.680836231E-1,-5.088370442E-1
3.180687982E0,2.300399914E-2,-1.680836231E-1,-5.152270198E-1
3.183203607E0,3.258899972E-2,-1.648886204E-1,-5.216170549E-1
3.185947253E0,4.430400208E-2,-1.553036273E-1,-5.269420743E-1
3.188462878E0,5.814900249E-2,-1.478486210E-1,-5.290720463E-1
3.190978503E0,7.199399918E-2,-1.425236166E-1,-5.322670341E-1
3.193494128E0,8.583900332E-2,-1.393286288E-1,-5.322670341E-1
3.196009753E0,9.542400390E-2,-1.403936297E-1,-5.333320498E-1
3.198525378E0,1.082039997E-1,-1.382636279E-1,-5.312020779E-1
3.201041055E0,1.199189946E-1,-1.308086216E-1,-5.301370621E-1
3.203556680E0,1.252439916E-1,-1.276136190E-1,-5.280070305E-1
3.206072305E0,1.305689961E-1,-1.222886294E-1,-5.248120427E-1
3.208587930E0,1.337639987E-1,-1.148336232E-1,-5.205520391E-1
3.211103555E0,1.337639987E-1,-1.052486226E-1,-5.141620636E-1
3.213619232E0,1.348289996E-1,-9.885862470E-2,-5.056420565E-1
3.216362514E0,1.358940005E-1,-9.459862113E-2,-5.003170371E-1
3.218878139E0,1.369590014E-1,-8.501362056E-2,-4.896670282E-1
3.221393764E0,1.358940005E-1,-7.542861998E-2,-4.832770228E-1
3.223909389E0,1.326989979E-1,-6.690862030E-2,-4.790170193E-1
3.226425014E0,1.305689961E-1,-5.945362151E-2,-4.715620279E-1
3.228940691E0,1.316339970E-1,-5.519362167E-2,-4.662370086E-1
3.231456316E0,1.295039952E-1,-5.625862256E-2,-4.609120190E-1
3.233971941E0,1.273739934E-1,-5.625862256E-2,-4.555870295E-1
3.236487566E0,1.284389943E-1,-5.732362345E-2,-4.491970241E-1
3.239003191E0,1.284389943E-1,-5.519362167E-2,-4.417420328E-1
3.241518868E0,1.273739934E-1,-5.199862272E-2,-4.310920238E-1
3.244034493E0,1.295039952E-1,-4.880362377E-2,-4.278970063E-1
3.246775899E0,1.316339970E-1,-4.454362392E-2,-4.172470272E-1
3.249291576E0,1.326989979E-1,-4.773862287E-2,-4.119220078E-1
3.251807201E0,1.390889883E-1,-5.199862272E-2,-4.087270200E-1
3.254322826E0,1.444139928E-1,-5.199862272E-2,-3.991420269E-1
3.256838451E0,1.497389972E-1,-5.199862272E-2,-3.874270320E-1
3.259354128E0,1.539990008E-1,-5.199862272E-2,-3.799720109E-1
3.261869753E0,1.593239903E-1,-5.306362361E-2,-3.714520335E-1
3.264385378E0,1.667789966E-1,-5.093362182E-2,-3.629320264E-1
3.266901003E0,1.721040010E-1,-5.412862450E-2,-3.544120193E-1
3.269416628E0,1.752989888E-1,-4.880362377E-2,-3.416320086E-1
3.271932305E0,1.827539951E-1,-4.667362198E-2,-3.288520277E-1
3.274447930E0,1.870139986E-1,-4.347862303E-2,-3.139420152E-1
3.277188451E0,1.923389882E-1,-3.389362246E-2,-2.915770113E-1
3.279704076E0,1.912739873E-1,-2.324362472E-2,-2.617570162E-1
3.282219701E0,1.944689900E-1,-1.472362503E-2,-2.180920392E-1
3.284735326E0,1.965989918E-1,-3.008625237E-3,-1.808170378E-1
3.287251003E0,1.944689900E-1,2.361637540E-2,-1.605820358E-1
3.289766628E0,1.838189960E-1,7.367137820E-2,-1.499320269E-1
3.292282253E0,1.657139957E-1,1.258563697E-1,-1.478020400E-1
3.294797878E0,1.486739963E-1,1.492863744E-1,-1.509970278E-1
3.297313503E0,1.358940005E-1,1.375713795E-1,-1.616470367E-1
3.299829128E0,1.295039952E-1,1.002963781E-1,-1.754920334E-1
3.302344805E0,1.348289996E-1,4.811137542E-2,-1.850770414E-1
3.304860430E0,1.497389972E-1,-1.685362495E-2,-1.967920363E-1
3.307633972E0,1.699739993E-1,-7.649362087E-2,-2.053120285E-1
3.310149649E0,1.891440004E-1,-1.169636250E-1,-2.106370330E-1
3.312665274E0,2.072490007E-1,-1.425236166E-1,-2.127670348E-1
3.315180899E0,2.221589983E-1,-1.563686281E-1,-2.170270383E-1
3.317696524E0,2.338739932E-1,-1.659536213E-1,-2.212870270E-1
3.320212149E0,2.423940003E-1,-1.808636189E-1,-2.255470306E-1
3.322727826E0,2.477189898E-1,-1.883186251E-1,-2.298070341E-1
3.325243451E0,2.487840056E-1,-2.053586245E-1,-2.319370359E-1
3.327759076E0,2.466540039E-1,-2.149436176E-1,-2.298070341E-1
3.330274701E0,2.455889881E-1,-2.192036211E-1,-2.330020368E-1
3.332790326E0,2.381339967E-1,-2.255936265E-1,-2.393920273E-1
3.335305951E0,2.296139896E-1,-2.287886292E-1,-2.425870299E-1
3.338058139E0,2.221589983E-1,-2.287886292E-1,-2.447170317E-1
3.340573816E0,2.136389911E-1,-2.277236283E-1,-2.436520308E-1
3.343089441E0,2.029889971E-1,-2.266586274E-1,-2.479120344E-1
3.345605066E0,1.934039891E-1,-2.266586274E-1,-2.532370389E-1
3.348120691E0,1.870139986E-1,-2.277236283E-1,-2.574970126E-1
3.350636316E0,1.763639897E-1,-2.277236283E-1,-2.617570162E-1
3.353151993E0,1.689089984E-1,-2.287886292E-1,-2.670820057E-1
3.355667618E0,1.646489948E-1,-2.287886292E-1,-2.702770233E-1
3.358183243E0,1.582589895E-1,-2.309186161E-1,-2.745370269E-1
3.360698868E0,1.539990008E-1,-2.298536301E-1,-2.787970304E-1
3.363214493E0,1.486739963E-1,-2.298536301E-1,-2.830570340E-1
3.365730118E0,1.412189901E-1,-2.287886292E-1,-2.915770113E-1
3.368436993E0,1.401539892E-1,-2.287886292E-1,-2.969020307E-1
3.370952618E0,1.326989979E-1,-2.298536301E-1,-2.990320325E-1
3.373468243E0,1.241789982E-1,-2.287886292E-1,-3.000970185E-1
3.375983868E0,1.188540012E-1,-2.245286256E-1,-3.075520098E-1
3.378499493E0,1.145940050E-1,-2.223986238E-1,-3.086170256E-1
3.381015170E0,1.082039997E-1,-2.223986238E-1,-3.150070310E-1
3.383530795E0,1.007490009E-1,-2.192036211E-1,-3.139420152E-1
3.386046420E0,9.648900479E-2,-2.213336229E-1,-3.118120134E-1
3.388562045E0,8.903399855E-2,-2.330486178E-1,-3.107470274E-1
3.391077670E0,8.051399887E-2,-2.351786196E-1,-3.075520098E-1
3.393593347E0,7.731900364E-2,-2.405036241E-1,-3.064870238E-1
3.396108972E0,6.986400485E-2,-2.436986268E-1,-3.011620045E-1
3.398853035E0,6.347399950E-2,-2.468936294E-1,-2.990320325E-1
3.401368660E0,5.921400338E-2,-2.500886321E-1,-2.979670167E-1
3.403884285E0,5.708400160E-2,-2.543486357E-1,-2.915770113E-1
3.406399910E0,5.495399982E-2,-2.607386410E-1,-2.841220200E-1
3.408915535E0,5.069399998E-2,-2.649986446E-1,-2.851870060E-1
3.411431212E0,4.856400192E-2,-2.649986446E-1,-2.809270322E-1
3.413946837E0,5.069399998E-2,-2.692586482E-1,-2.734720111E-1
3.416462462E0,4.856400192E-2,-2.799086273E-1,-2.713420093E-1
3.418978087E0,4.856400192E-2,-2.894936502E-1,-2.649520338E-1
3.421493712E0,4.643400013E-2,-3.022736311E-1,-2.660170197E-1
3.424009389E0,4.536900297E-2,-3.054686487E-1,-2.649520338E-1
3.426524962E0,4.323900118E-2,-2.894936502E-1,-2.606920302E-1
3.429282045E0,3.897900134E-2,-2.724536359E-1,-2.489770353E-1
3.431797722E0,3.791400045E-2,-2.703236341E-1,-2.457820326E-1
3.434313347E0,4.323900118E-2,-2.894936502E-1,-2.457820326E-1
3.436828972E0,4.643400013E-2,-3.171836436E-1,-2.500420213E-1
3.439344597E0,4.749900103E-2,-3.470036387E-1,-2.564320266E-1
3.441860222E0,5.282400176E-2,-3.714986444E-1,-2.585620284E-1
3.444375899E0,5.175900087E-2,-3.970586360E-1,-2.649520338E-1
3.446891472E0,4.856400192E-2,-4.162286520E-1,-2.724070251E-1
3.449407149E0,4.749900103E-2,-4.353986382E-1,-2.766670287E-1
3.451922774E0,4.430400208E-2,-4.503086507E-1,-2.819920182E-1
3.454438399E0,4.323900118E-2,-4.630886316E-1,-2.894470096E-1
3.456954024E0,3.578400239E-2,-4.716086388E-1,-2.947720289E-1
3.459685378E0,2.619899996E-2,-4.758686423E-1,-3.022270203E-1
3.462201003E0,2.087399922E-2,-4.769336283E-1,-3.075520098E-1
3.464716628E0,1.235399954E-2,-4.822586477E-1,-3.150070310E-1
3.467232305E0,3.834000323E-3,-4.854536355E-1,-3.171370327E-1
3.469747878E0,-1.490999945E-3,-4.939736426E-1,-3.192670047E-1
3.472263555E0,-5.750999786E-3,-5.120786428E-1,-3.256570101E-1
3.474779180E0,-1.001100056E-2,-5.269886255E-1,-3.277870119E-1
3.477294805E0,-1.533599943E-2,-5.376386642E-1,-3.277870119E-1
3.479810430E0,-1.853100024E-2,-5.504186153E-1,-3.309820294E-1
3.482326055E0,-2.066100016E-2,-5.642636418E-1,-3.331120312E-1
3.484841732E0,-2.385600097E-2,-5.759786367E-1,-3.309820294E-1
3.487357357E0,-2.492100000E-2,-5.887586474E-1,-3.299170136E-1
3.490112305E0,-2.811600082E-2,-6.015386581E-1,-3.331120312E-1
3.492627930E0,-3.557099774E-2,-6.100586653E-1,-3.352420330E-1
3.495143555E0,-3.770099953E-2,-6.132536530E-1,-3.458920121E-1
3.497659180E0,-3.876599669E-2,-6.132536530E-1,-3.437620103E-1
3.500174805E0,-4.409099743E-2,-6.175136566E-1,-3.416320086E-1
3.502690482E0,-4.515599832E-2,-6.260336637E-1,-3.426970243E-1
3.505206107E0,-4.728600010E-2,-6.345536113E-1,-3.458920121E-1
3.507721732E0,-4.622099921E-2,-6.462686658E-1,-3.437620103E-1
3.510237357E0,-4.728600010E-2,-6.473336220E-1,-3.395020068E-1
3.512752982E0,-4.196099937E-2,-6.526586413E-1,-3.331120312E-1
3.515268660E0,-3.344099969E-2,-6.686336398E-1,-3.309820294E-1
3.517784285E0,-3.237599880E-2,-6.856736541E-1,-3.352420330E-1
3.520518347E0,-3.663599864E-2,-6.899336576E-1,-3.448270261E-1
3.523033972E0,-3.983099759E-2,-6.973886490E-1,-3.522820175E-1
3.525549597E0,-4.941599816E-2,-7.027136087E-1,-3.597370088E-1
3.528065222E0,-5.580599979E-2,-7.069736123E-1,-3.661270142E-1
3.530580847E0,-6.539100409E-2,-7.059086561E-1,-3.735820055E-1
3.533096524E0,-7.710599899E-2,-7.027136087E-1,-3.799720109E-1
3.535612149E0,-8.562599868E-2,-7.016486526E-1,-3.863620162E-1
3.538127774E0,-9.521099925E-2,-6.963236332E-1,-3.959470093E-1
3.540643399E0,-1.058610007E-1,-6.909986138E-1,-4.023370147E-1
3.543159024E0,-1.122509986E-1,-6.878036261E-1,-4.055320323E-1
3.545674701E0,-1.186409965E-1,-6.909986138E-1,-4.119220078E-1
3.548190326E0,-1.271609962E-1,-6.963236332E-1,-4.151170254E-1
3.550938243E0,-1.314209998E-1,-6.995186210E-1,-4.151170254E-1
3.553453868E0,-1.356810033E-1,-7.048436403E-1,-4.172470272E-1
3.555969493E0,-1.388760060E-1,-7.080386281E-1,-4.172470272E-1
3.558485118E0,-1.431360096E-1,-7.154936194E-1,-4.161820114E-1
3.561000743E0,-1.505910009E-1,-7.218836546E-1,-4.151170254E-1
3.563516420E0,-1.537860036E-1,-7.261436582E-1,-4.151170254E-1
3.566032045E0,-1.569810063E-1,-7.325336337E-1,-4.119220078E-1
3.568547670E0,-1.601760089E-1,-7.389236093E-1,-4.097920060E-1
3.571063295E0,-1.655010134E-1,-7.453136444E-1,-4.034020305E-1
3.573578920E0,-1.676310003E-1,-7.506386638E-1,-3.948820233E-1
3.576094597E0,-1.697610021E-1,-7.580936551E-1,-3.916870058E-1
3.578610222E0,-1.686960012E-1,-7.623536587E-1,-3.852970302E-1
3.581350587E0,-1.697610021E-1,-7.676786184E-1,-3.789070249E-1
3.583866212E0,-1.708260030E-1,-7.730036378E-1,-3.703870177E-1
3.586381837E0,-1.708260030E-1,-7.793936133E-1,-3.618670106E-1
3.588897462E0,-1.686960012E-1,-7.815236449E-1,-3.576070070E-1
3.591413087E0,-1.612410098E-1,-7.847186327E-1,-3.469570279E-1
3.593928764E0,-1.601760089E-1,-7.836536169E-1,-3.363070190E-1
3.596444389E0,-1.569810063E-1,-7.857836485E-1,-3.320470154E-1
3.598960014E0,-1.484609991E-1,-7.857836485E-1,-3.267220259E-1
3.601475639E0,-1.452660114E-1,-7.847186327E-1,-3.171370327E-1
3.603991264E0,-1.399410069E-1,-7.825886607E-1,-3.086170256E-1
3.606506889E0,-1.324860007E-1,-7.793936133E-1,-3.022270203E-1
3.609022566E0,-1.250310093E-1,-7.761986256E-1,-2.937070131E-1
3.611765951E0,-1.229010001E-1,-7.761986256E-1,-2.851870060E-1
3.614281576E0,-1.197059974E-1,-7.783286572E-1,-2.819920182E-1
3.616797201E0,-1.154460013E-1,-7.783286572E-1,-2.756020129E-1
3.619312826E0,-1.143810004E-1,-7.761986256E-1,-2.692120075E-1
3.621828451E0,-1.111859977E-1,-7.772636414E-1,-2.617570162E-1
3.624344128E0,-1.069260016E-1,-7.804586291E-1,-2.585620284E-1
3.626859753E0,-1.069260016E-1,-7.825886607E-1,-2.585620284E-1
3.629375378E0,-1.079909950E-1,-7.825886607E-1,-2.553670108E-1
3.631891003E0,-1.079909950E-1,-7.847186327E-1,-2.553670108E-1
3.634406628E0,-1.090559959E-1,-7.857836485E-1,-2.532370389E-1
3.636922305E0,-1.101209968E-1,-7.868486643E-1,-2.532370389E-1
3.639437930E0,-1.090559959E-1,-7.857836485E-1,-2.574970126E-1
3.642263920E0,-1.069260016E-1,-7.868486643E-1,-2.606920302E-1
3.644779545E0,-1.005359963E-1,-7.943036556E-1,-2.606920302E-1
3.647295170E0,-8.669099957E-2,-8.145386577E-1,-2.585620284E-1
3.649810795E0,-8.030100167E-2,-8.198636174E-1,-2.596270144E-1
3.652326472E0,-7.604099810E-2,-8.124086261E-1,-2.692120075E-1
3.654842045E0,-7.817099988E-2,-7.911086679E-1,-2.724070251E-1
3.657357722E0,-8.775600046E-2,-7.634186149E-1,-2.756020129E-1
3.659873347E0,-1.016009971E-1,-7.282736301E-1,-2.809270322E-1
3.662388972E0,-1.143810004E-1,-6.995186210E-1,-2.841220200E-1
3.664904649E0,-1.250310093E-1,-6.909986138E-1,-2.905120254E-1
3.667420222E0,-1.282259971E-1,-6.909986138E-1,-2.990320325E-1
3.669935899E0,-1.324860007E-1,-6.963236332E-1,-3.064870238E-1
3.672451524E0,-1.346160024E-1,-6.984536648E-1,-3.107470274E-1
3.675148035E0,-1.388760060E-1,-6.920636296E-1,-3.128770292E-1
3.677663712E0,-1.410060078E-1,-6.835436225E-1,-3.171370327E-1
3.680179337E0,-1.452660114E-1,-6.803486347E-1,-3.182020187E-1
3.682694962E0,-1.484609991E-1,-6.707636118E-1,-3.171370327E-1
3.685210587E0,-1.527210027E-1,-6.643736362E-1,-3.213970065E-1
3.687726264E0,-1.591110080E-1,-6.611786485E-1,-3.192670047E-1
3.690241889E0,-1.591110080E-1,-6.590486169E-1,-3.213970065E-1
3.692757514E0,-1.601760089E-1,-6.515936255E-1,-3.192670047E-1
3.695273139E0,-1.633710116E-1,-6.441386342E-1,-3.192670047E-1
3.697788764E0,-1.665659994E-1,-6.409436464E-1,-3.224620223E-1
3.700304441E0,-1.697610021E-1,-6.398786306E-1,-3.235270083E-1
3.702820066E0,-1.718910038E-1,-6.366836429E-1,-3.288520277E-1
3.705558295E0,-1.729560047E-1,-6.345536113E-1,-3.245920241E-1
3.708073920E0,-1.740210056E-1,-6.334886551E-1,-3.192670047E-1
3.710589545E0,-1.772160083E-1,-6.334886551E-1,-3.182020187E-1
3.713105170E0,-1.782810092E-1,-6.292286515E-1,-3.118120134E-1
3.715620795E0,-1.793460101E-1,-6.281636357E-1,-3.107470274E-1
3.718136420E0,-1.772160083E-1,-6.281636357E-1,-3.043570220E-1
3.720652097E0,-1.740210056E-1,-6.185786128E-1,-3.000970185E-1
3.723167722E0,-1.708260030E-1,-6.175136566E-1,-3.032920063E-1
3.725683347E0,-1.623060107E-1,-6.185786128E-1,-2.958370149E-1
3.728198972E0,-1.569810063E-1,-6.132536530E-1,-2.873170078E-1
3.730714597E0,-1.495260000E-1,-6.057986617E-1,-2.819920182E-1
3.733230274E0,-1.367460042E-1,-6.143186092E-1,-2.681470215E-1
3.735974076E0,-1.122509986E-1,-6.483986378E-1,-2.596270144E-1
3.738489701E0,-1.016009971E-1,-6.505286098E-1,-2.489770353E-1
3.741005326E0,-1.058610007E-1,-6.239036322E-1,-2.415220290E-1
3.743520951E0,-1.143810004E-1,-5.940836668E-1,-2.330020368E-1
3.746036576E0,-1.229010001E-1,-5.695886612E-1,-2.244820297E-1
3.748552201E0,-1.367460042E-1,-5.472236276E-1,-2.074420303E-1
3.751067878E0,-1.484609991E-1,-5.291186571E-1,-1.967920363E-1
3.753583503E0,-1.559160054E-1,-5.110136271E-1,-1.872070283E-1
3.756099128E0,-1.644360125E-1,-4.950386286E-1,-1.754920334E-1
3.758614753E0,-1.686960012E-1,-4.801286459E-1,-1.637770385E-1
3.761130430E0,-1.665659994E-1,-4.716086388E-1,-1.488670409E-1
3.763646055E0,-1.633710116E-1,-4.598936439E-1,-1.392820328E-1
3.766383503E0,-1.559160054E-1,-4.535036385E-1,-1.296970397E-1
3.768899128E0,-1.484609991E-1,-4.449836314E-1,-1.158520356E-1
3.771414753E0,-1.410060078E-1,-4.396586418E-1,-1.073320359E-1
3.773930378E0,-1.324860007E-1,-4.332686365E-1,-1.041370332E-1
3.776446003E0,-1.197059974E-1,-4.311386347E-1,-9.561703354E-2
3.778961680E0,-1.069260016E-1,-4.279436469E-1,-8.816203475E-2
3.781477305E0,-9.840600193E-2,-4.268786311E-1,-7.857703418E-2
3.783992930E0,-8.775600046E-2,-4.258136451E-1,-7.538203150E-2
3.786508555E0,-7.604099810E-2,-4.236836433E-1,-7.218703628E-2
3.789024180E0,-6.645599753E-2,-4.290086329E-1,-6.899203360E-2
3.791539857E0,-5.793599784E-2,-4.311386347E-1,-6.260203570E-2
3.794055482E0,-5.048099905E-2,-4.311386347E-1,-6.047203019E-2
3.796798660E0,-4.409099743E-2,-4.322036505E-1,-5.834203213E-2
3.799314285E0,-3.663599864E-2,-4.322036505E-1,-5.301703140E-2
3.801829910E0,-3.131099790E-2,-4.290086329E-1,-5.088702962E-2
3.804345535E0,-2.705099992E-2,-4.236836433E-1,-4.556202888E-2
3.806861160E0,-2.385600097E-2,-4.162286520E-1,-4.130202904E-2
3.809376837E0,-2.279100008E-2,-4.013186395E-1,-3.597703204E-2
3.811892462E0,-2.172600105E-2,-3.917336464E-1,-3.384703025E-2
3.814408087E0,-2.066100016E-2,-3.810836375E-1,-2.958703041E-2
3.816923712E0,-2.385600097E-2,-3.651086390E-1,-2.639203146E-2
3.819439337E0,-2.705099992E-2,-3.491336405E-1,-2.106703073E-2
3.821955014E0,-3.024600074E-2,-3.320936263E-1,-1.574203186E-2
3.824470639E0,-3.450600058E-2,-3.171836436E-1,-1.574203186E-2
3.827212774E0,-3.983099759E-2,-3.001436293E-1,-9.352031164E-3
3.829728399E0,-4.409099743E-2,-2.841686308E-1,-5.092030857E-3
3.832244024E0,-5.154599994E-2,-2.639336288E-1,2.362969099E-3
3.834759701E0,-5.367599800E-2,-2.458286285E-1,5.557969213E-3
3.837275326E0,-5.793599784E-2,-2.277236283E-1,1.194796991E-2
3.839790951E0,-6.113099679E-2,-2.149436176E-1,1.620796882E-2
3.842306576E0,-6.219599769E-2,-2.010986209E-1,1.833796874E-2
3.844822201E0,-6.219599769E-2,-1.840586215E-1,2.153296955E-2
3.847337878E0,-6.965100020E-2,-1.712786257E-1,2.472797036E-2
3.849853503E0,-7.071600109E-2,-1.584986299E-1,2.472797036E-2
3.852369128E0,-7.178100199E-2,-1.489136219E-1,2.685797028E-2
3.854884753E0,-7.284599543E-2,-1.403936297E-1,2.792296931E-2
3.857633920E0,-7.604099810E-2,-1.276136190E-1,2.898797020E-2
3.860149545E0,-8.030100167E-2,-1.169636250E-1,3.324797004E-2
3.862665170E0,-7.710599899E-2,-1.073786244E-1,3.644296899E-2
3.865180795E0,-7.604099810E-2,-1.020536199E-1,3.431297094E-2
3.867696420E0,-7.497599721E-2,-9.992362559E-2,3.537796810E-2
3.870212097E0,-7.284599543E-2,-9.672862291E-2,3.431297094E-2
3.872727722E0,-7.178100199E-2,-8.927362412E-2,3.111796826E-2
3.875243347E0,-7.284599543E-2,-8.820862323E-2,2.898797020E-2
3.877758972E0,-6.965100020E-2,-8.714362234E-2,2.792296931E-2
3.880274597E0,-6.645599753E-2,-8.288362622E-2,2.472797036E-2
3.882790274E0,-6.539100409E-2,-7.862362266E-2,1.620796882E-2
3.885305899E0,-6.539100409E-2,-7.649362087E-2,1.194796991E-2
3.888050014E0,-6.539100409E-2,-7.223362476E-2,6.622969173E-3
3.890565639E0,-6.326100230E-2,-7.223362476E-2,-1.897030743E-3
3.893081264E0,-6.752099842E-2,-7.755862176E-2,-2.319703065E-2
3.895596889E0,-7.071600109E-2,-6.903862208E-2,-3.704202920E-2
3.898112514E0,-6.965100020E-2,-5.625862256E-2,-3.810703009E-2
3.900628191E0,-7.071600109E-2,-4.560862482E-2,-4.662702978E-2
3.903143816E0,-7.071600109E-2,-3.176362440E-2,-6.047203019E-2
3.905659441E0,-6.858599931E-2,-2.324362472E-2,-6.473203003E-2
3.908175066E0,-6.752099842E-2,-1.685362495E-2,-6.686203182E-2
3.910690691E0,-6.752099842E-2,-9.398625232E-3,-7.112203538E-2
3.913206368E0,-6.645599753E-2,-1.943625277E-3,-7.431703061E-2
3.915721993E0,-6.432600319E-2,9.771374986E-3,-8.070703596E-2
3.918461107E0,-6.006599963E-2,1.616137475E-2,-8.603203297E-2
3.920976732E0,-5.687099695E-2,2.468137443E-2,-9.242203087E-2
3.923492357E0,-5.367599800E-2,3.426637501E-2,-9.242203087E-2
3.926007982E0,-4.622099921E-2,4.172137752E-2,-9.242203087E-2
3.928523607E0,-3.876599669E-2,5.130637810E-2,-9.561703354E-2
3.931039285E0,-3.024600074E-2,5.769637600E-2,-9.455203265E-2
3.933554910E0,-2.598600090E-2,6.408637762E-2,-9.455203265E-2
3.936070535E0,-1.746599935E-2,7.047637552E-2,-9.242203087E-2
3.938586160E0,-1.001100056E-2,7.473637909E-2,-9.135703743E-2
3.941101785E0,-4.685999826E-3,8.219137788E-2,-9.348703176E-2
3.943617462E0,6.389999762E-4,8.858137578E-2,-8.709703386E-2
3.946133087E0,3.834000323E-3,9.177637845E-2,-8.177203685E-2
3.948885430E0,5.964000244E-3,9.603637457E-2,-7.857703418E-2
3.951401055E0,1.341900043E-2,1.034913734E-1,-7.538203150E-2
3.953916680E0,1.448399946E-2,1.066863760E-1,-6.792703271E-2
3.956432305E0,1.767900027E-2,1.088163778E-1,-6.047203019E-2
3.958947930E0,2.193900011E-2,1.173363775E-1,-5.727703124E-2
3.961463607E0,2.300399914E-2,1.226613745E-1,-5.088702962E-2
3.963979232E0,1.874399930E-2,1.311813742E-1,-4.449703172E-2
3.966494857E0,2.087399922E-2,1.354413778E-1,-3.704202920E-2
3.969010482E0,2.087399922E-2,1.439613700E-1,-3.171703219E-2
3.971526107E0,1.661399938E-2,1.535463780E-1,-2.426202968E-2
3.974041785E0,1.554900035E-2,1.599363834E-1,-1.680703089E-2
3.976557410E0,1.554900035E-2,1.641963720E-1,-7.222030777E-3
3.979295118E0,1.235399954E-2,1.727163792E-1,2.329691779E-4
3.981810743E0,1.128900051E-2,1.801713705E-1,7.687969133E-3
3.984326368E0,8.093999699E-3,1.865613759E-1,1.514296979E-2
3.986841993E0,4.899000283E-3,1.929513812E-1,2.046796866E-2
3.989357618E0,2.769000363E-3,2.004063725E-1,2.685797028E-2
3.991873295E0,-3.620999865E-3,2.046663761E-1,3.111796826E-2
3.994388920E0,-7.880999707E-3,2.142513692E-1,3.644296899E-2
3.996904545E0,-1.107599959E-2,2.195763737E-1,4.070296884E-2
3.999420170E0,-1.640100032E-2,2.249013782E-1,4.815796763E-2
4.001935795E0,-2.279100008E-2,2.270313799E-1,5.348296836E-2
4.004451472E0,-2.492100000E-2,2.344863713E-1,5.774296820E-2
4.006967097E0,-3.024600074E-2,2.408763766E-1,5.987296626E-2
4.009710743E0,-3.450600058E-2,2.483313829E-1,6.306796521E-2
4.012226368E0,-3.450600058E-2,2.547213733E-1,7.052296400E-2
4.014741993E0,-3.663599864E-2,2.632413507E-1,7.265296578E-2
4.017257618E0,-3.876599669E-2,2.675013542E-1,7.797796279E-2
4.019773243E0,-3.876599669E-2,2.749563754E-1,7.691296935E-2
4.022288920E0,-3.876599669E-2,2.824113667E-1,7.691296935E-2
4.024804545E0,-3.770099953E-2,2.877363563E-1,7.797796279E-2
4.027320170E0,-3.450600058E-2,2.919963598E-1,7.584796846E-2
4.029835795E0,-3.131099790E-2,2.973213494E-1,7.904296368E-2
4.032351420E0,-2.918099985E-2,3.026463687E-1,8.010796458E-2
4.034867097E0,-2.492100000E-2,3.069063723E-1,8.117296547E-2
4.037382722E0,-2.279100008E-2,3.111663759E-1,7.904296368E-2
4.040126576E0,-2.066100016E-2,3.143613636E-1,7.691296935E-2
4.042642201E0,-2.066100016E-2,3.154263496E-1,7.797796279E-2
4.045157826E0,-2.066100016E-2,3.132963479E-1,7.797796279E-2
4.047673451E0,-1.746599935E-2,3.122313619E-1,7.904296368E-2
4.050189076E0,-1.107599959E-2,3.122313619E-1,7.691296935E-2
4.052704753E0,-8.945999667E-3,3.101013601E-1,7.797796279E-2
4.055220378E0,-2.555999905E-3,3.079713583E-1,7.797796279E-2
4.057736003E0,6.389999762E-4,3.058413565E-1,7.478296757E-2
4.060251628E0,5.964000244E-3,3.037113547E-1,7.584796846E-2
4.062767253E0,1.341900043E-2,3.026463687E-1,7.691296935E-2
4.065282930E0,1.554900035E-2,2.983863652E-1,7.371796668E-2
4.067798555E0,1.767900027E-2,2.951913476E-1,7.265296578E-2
4.070553035E0,2.087399922E-2,2.919963598E-1,7.371796668E-2
4.073068660E0,2.406900004E-2,2.866713703E-1,7.158796489E-2
4.075584285E0,2.726400085E-2,2.802813649E-1,7.265296578E-2
4.078099910E0,2.832899801E-2,2.749563754E-1,6.945796311E-2
4.080615535E0,2.832899801E-2,2.675013542E-1,6.839296222E-2
4.083131212E0,2.939399891E-2,2.611113489E-1,7.052296400E-2
4.085646837E0,2.939399891E-2,2.568513751E-1,6.839296222E-2
4.088162462E0,2.726400085E-2,2.525913715E-1,6.732796878E-2
4.090678087E0,2.619899996E-2,2.451363802E-1,6.519796699E-2
4.093193712E0,2.832899801E-2,2.398113757E-1,6.626296788E-2
4.095709389E0,2.406900004E-2,2.323563695E-1,6.306796521E-2
4.098225014E0,2.193900011E-2,2.280963808E-1,6.306796521E-2
4.100960430E0,2.087399922E-2,2.217063755E-1,6.306796521E-2
4.103476055E0,1.874399930E-2,2.142513692E-1,6.093796715E-2
4.105991680E0,1.661399938E-2,2.089263797E-1,5.987296626E-2
4.108507305E0,1.661399938E-2,2.004063725E-1,5.987296626E-2
4.111022930E0,1.554900035E-2,1.940163821E-1,5.561297014E-2
4.113538607E0,1.661399938E-2,1.854963750E-1,5.667797104E-2
4.116054232E0,1.767900027E-2,1.769763827E-1,5.774296820E-2
4.118569857E0,1.554900035E-2,1.695213765E-1,5.135297030E-2
4.121085482E0,1.448399946E-2,1.599363834E-1,4.922296852E-2
4.123601107E0,1.767900027E-2,1.471563727E-1,4.602796957E-2
4.126116785E0,1.767900027E-2,1.375713795E-1,4.815796763E-2
4.128632410E0,1.980900019E-2,1.258563697E-1,5.028796941E-2
4.131375066E0,1.874399930E-2,1.109463796E-1,4.389796779E-2
4.133890691E0,1.661399938E-2,9.816637635E-2,4.176796973E-2
4.136406316E0,1.874399930E-2,8.538637310E-2,4.176796973E-2
4.138921941E0,1.874399930E-2,8.006137609E-2,4.070296884E-2
4.141437566E0,1.767900027E-2,7.047637552E-2,3.857297078E-2
4.143953243E0,1.554900035E-2,6.195637584E-2,3.750796989E-2
4.146468868E0,1.341900043E-2,5.663137510E-2,3.644296899E-2
4.148984493E0,1.235399954E-2,5.024137720E-2,3.111796826E-2
4.151500118E0,8.093999699E-3,4.598137736E-2,3.111796826E-2
4.154015743E0,8.093999699E-3,4.598137736E-2,2.898797020E-2
4.156531420E0,3.834000323E-3,4.385137558E-2,2.685797028E-2
4.159047045E0,2.769000363E-3,4.598137736E-2,2.472797036E-2
4.161798399E0,6.389999762E-4,4.491637647E-2,2.153296955E-2
4.164314024E0,-2.555999905E-3,4.491637647E-2,1.940296963E-2
4.166829649E0,-3.620999865E-3,4.491637647E-2,1.620796882E-2
4.169345274E0,-4.685999826E-3,4.491637647E-2,1.407796890E-2
4.171860899E0,-5.750999786E-3,4.704637825E-2,1.301296987E-2
4.174376524E0,-1.107599959E-2,4.704637825E-2,9.817969054E-3
4.176892201E0,-1.001100056E-2,4.704637825E-2,7.687969133E-3
4.179407826E0,-1.214100048E-2,4.598137736E-2,6.622969173E-3
4.181923451E0,-1.533599943E-2,3.959137574E-2,8.752969094E-3
4.184439076E0,-1.427100040E-2,4.065637663E-2,5.557969213E-3
4.186954701E0,-1.746599935E-2,3.852637485E-2,2.362969099E-3
4.189470326E0,-2.066100016E-2,3.746137768E-2,4.492969252E-3
4.192215951E0,-1.853100024E-2,3.426637501E-2,7.687969133E-3
4.194731576E0,-1.959599927E-2,3.107137419E-2,5.557969213E-3
4.197247201E0,-2.066100016E-2,3.000637516E-2,3.427969059E-3
4.199762826E0,-1.959599927E-2,3.107137419E-2,6.622969173E-3
4.202278451E0,-1.640100032E-2,2.681137435E-2,5.557969213E-3
4.204794128E0,-1.853100024E-2,2.468137443E-2,3.427969059E-3
4.207309753E0,-1.959599927E-2,2.574637532E-2,5.557969213E-3
4.209825378E0,-1.640100032E-2,2.787637524E-2,8.752969094E-3
4.212341003E0,-1.320599951E-2,2.574637532E-2,1.088296901E-2
4.214856628E0,-1.001100056E-2,2.574637532E-2,9.817969054E-3
4.217372305E0,-7.880999707E-3,2.574637532E-2,1.194796991E-2
4.219887930E0,-7.880999707E-3,2.574637532E-2,1.194796991E-2
4.222638139E0,-6.815999746E-3,2.574637532E-2,9.817969054E-3
4.225153816E0,-6.815999746E-3,2.574637532E-2,1.088296901E-2
4.227669441E0,-3.620999865E-3,2.361637540E-2,1.301296987E-2
4.230185066E0,-4.685999826E-3,2.361637540E-2,1.407796890E-2
4.232700691E0,-4.259999841E-4,2.468137443E-2,1.407796890E-2
4.235216368E0,1.703999937E-3,2.574637532E-2,1.407796890E-2
4.237731993E0,6.389999762E-4,2.148637548E-2,1.088296901E-2
4.240247618E0,3.834000323E-3,2.042137459E-2,9.817969054E-3
4.242763243E0,5.964000244E-3,1.829137467E-2,1.088296901E-2
4.245278868E0,5.964000244E-3,1.616137475E-2,1.194796991E-2
4.247794545E0,4.899000283E-3,1.616137475E-2,9.817969054E-3
4.250310170E0,5.964000244E-3,1.083637495E-2,8.752969094E-3
4.253052826E0,9.159000590E-3,8.706375025E-3,1.301296987E-2
4.255568503E0,5.964000244E-3,3.381374991E-3,1.088296901E-2
4.258084128E0,2.769000363E-3,1.863748766E-4,5.557969213E-3
4.260599753E0,3.834000323E-3,-8.786248509E-4,7.687969133E-3
4.263115378E0,3.834000323E-3,-4.073625430E-3,7.687969133E-3
4.265631055E0,6.389999762E-4,-6.203625351E-3,8.752969094E-3
4.268146680E0,-3.620999865E-3,-8.333625272E-3,6.622969173E-3
4.270662305E0,-4.685999826E-3,-6.203625351E-3,5.557969213E-3
4.273177930E0,-5.750999786E-3,-7.268625312E-3,5.557969213E-3
4.275693555E0,-4.685999826E-3,-4.073625430E-3,4.492969252E-3
4.278209232E0,-6.815999746E-3,-4.073625430E-3,6.622969173E-3
4.280724857E0,-8.945999667E-3,-8.786248509E-4,5.557969213E-3
4.283492930E0,-1.107599959E-2,2.316374797E-3,3.427969059E-3
4.286008607E0,-1.001100056E-2,6.576375104E-3,4.492969252E-3
4.288524232E0,-1.427100040E-2,1.083637495E-2,6.622969173E-3
4.291039857E0,-1.533599943E-2,1.296637487E-2,6.622969173E-3
4.293555482E0,-1.853100024E-2,2.042137459E-2,6.622969173E-3
4.296071107E0,-2.066100016E-2,2.468137443E-2,7.687969133E-3
4.298586785E0,-1.959599927E-2,2.894137427E-2,9.817969054E-3
4.301102410E0,-2.172600105E-2,3.746137768E-2,1.301296987E-2
4.303618035E0,-2.172600105E-2,4.385137558E-2,1.407796890E-2
4.306133660E0,-2.066100016E-2,5.450137705E-2,1.620796882E-2
4.308649285E0,-2.492100000E-2,5.876137689E-2,1.514296979E-2
4.311164910E0,-2.385600097E-2,6.408637762E-2,1.727296971E-2
4.313875691E0,-2.279100008E-2,7.473637909E-2,2.153296955E-2
4.316391316E0,-2.492100000E-2,8.006137609E-2,2.046796866E-2
4.318906941E0,-2.598600090E-2,8.538637310E-2,2.366296947E-2
4.321422566E0,-2.492100000E-2,9.390638024E-2,2.579296939E-2
4.323938191E0,-2.172600105E-2,9.710137546E-2,2.579296939E-2
4.326453868E0,-1.853100024E-2,1.056213751E-1,3.005297109E-2
4.328969493E0,-2.172600105E-2,1.141413748E-1,2.898797020E-2
4.331485118E0,-1.959599927E-2,1.215963736E-1,3.431297094E-2
4.334000743E0,-1.640100032E-2,1.279863715E-1,3.644296899E-2
4.336516368E0,-1.746599935E-2,1.365063787E-1,3.857297078E-2
4.339032045E0,-1.427100040E-2,1.460913718E-1,4.176796973E-2
4.341547670E0,-1.320599951E-2,1.546113789E-1,4.176796973E-2
4.344288139E0,-1.320599951E-2,1.652613729E-1,4.283297062E-2
4.346803764E0,-1.320599951E-2,1.737813801E-1,4.709297046E-2
4.349319389E0,-8.945999667E-3,1.823013723E-1,4.922296852E-2
4.351835014E0,-1.001100056E-2,1.918863803E-1,5.241797119E-2
4.354350639E0,-8.945999667E-3,1.982763708E-1,5.667797104E-2
4.356866316E0,-6.815999746E-3,2.089263797E-1,6.093796715E-2
4.359381941E0,-5.750999786E-3,2.185113728E-1,6.306796521E-2
4.361897566E0,-4.685999826E-3,2.259663790E-1,6.732796878E-2
4.364413191E0,-1.490999945E-3,2.344863713E-1,6.945796311E-2
4.366928816E0,-4.259999841E-4,2.408763766E-1,7.265296578E-2
4.369444493E0,6.389999762E-4,2.483313829E-1,7.584796846E-2
4.371960118E0,1.703999937E-3,2.568513751E-1,7.478296757E-2
4.374706368E0,5.964000244E-3,2.675013542E-1,7.904296368E-2
4.377221993E0,7.029000204E-3,2.728263736E-1,8.223796636E-2
4.379737618E0,1.022399962E-2,2.749563754E-1,8.756296337E-2
4.382253243E0,1.341900043E-2,2.813463509E-1,8.756296337E-2
4.384768868E0,1.661399938E-2,2.877363563E-1,8.862796426E-2
4.387284493E0,1.767900027E-2,2.919963598E-1,9.288796782E-2
4.389800170E0,1.767900027E-2,2.973213494E-1,9.608296305E-2
4.392315795E0,1.661399938E-2,3.005163670E-1,9.501796216E-2
4.394831420E0,2.087399922E-2,3.069063723E-1,9.714796394E-2
4.397347045E0,1.980900019E-2,3.111663759E-1,1.014079675E-1
4.399862722E0,2.087399922E-2,3.143613636E-1,1.046029627E-1
4.402378347E0,2.193900011E-2,3.207513690E-1,1.067329645E-1
4.405123503E0,1.874399930E-2,3.228813708E-1,1.056679636E-1
4.407639128E0,1.874399930E-2,3.282063603E-1,1.099279672E-1
4.410154753E0,1.874399930E-2,3.303363621E-1,1.131229624E-1
4.412670378E0,1.661399938E-2,3.345963657E-1,1.109929681E-1
4.415186003E0,1.554900035E-2,3.399213552E-1,1.131229624E-1
4.417701680E0,1.448399946E-2,3.463113606E-1,1.163179651E-1
4.420217305E0,1.448399946E-2,3.505713642E-1,1.173829660E-1
4.422732930E0,1.235399954E-2,3.548313677E-1,1.184479669E-1
4.425248555E0,1.448399946E-2,3.622863591E-1,1.173829660E-1
4.427764180E0,1.554900035E-2,3.676113486E-1,1.173829660E-1
4.430279857E0,1.554900035E-2,3.740013540E-1,1.173829660E-1
4.432795482E0,1.235399954E-2,3.750663698E-1,1.184479669E-1
4.435538555E0,1.235399954E-2,3.771963716E-1,1.184479669E-1
4.438054180E0,1.448399946E-2,3.857163489E-1,1.184479669E-1
4.440569805E0,1.448399946E-2,3.857163489E-1,1.216429621E-1
4.443085430E0,1.235399954E-2,3.889113665E-1,1.227079630E-1
4.445601055E0,1.022399962E-2,3.921063542E-1,1.237729639E-1
4.448116732E0,5.964000244E-3,3.899763525E-1,1.259029657E-1
4.450632357E0,7.029000204E-3,3.910413682E-1,1.259029657E-1
4.453147982E0,4.899000283E-3,3.921063542E-1,1.237729639E-1
4.455663607E0,7.029000204E-3,3.921063542E-1,1.237729639E-1
4.458179232E0,7.029000204E-3,3.899763525E-1,1.269679666E-1
4.460694910E0,3.834000323E-3,3.889113665E-1,1.301629692E-1
4.463210535E0,4.899000283E-3,3.878463507E-1,1.290979683E-1
4.465952566E0,2.769000363E-3,3.910413682E-1,1.301629692E-1
4.468468191E0,3.834000323E-3,3.899763525E-1,1.322929710E-1
4.470983816E0,3.834000323E-3,3.878463507E-1,1.322929710E-1
4.473499441E0,2.769000363E-3,3.846513629E-1,1.290979683E-1
4.476015066E0,6.389999762E-4,3.846513629E-1,1.290979683E-1
4.478530743E0,6.389999762E-4,3.857163489E-1,1.269679666E-1
4.481046368E0,-4.259999841E-4,3.846513629E-1,1.227079630E-1
4.483561993E0,6.389999762E-4,3.846513629E-1,1.237729639E-1
4.486077618E0,1.703999937E-3,3.867813647E-1,1.216429621E-1
4.488593243E0,6.389999762E-4,3.846513629E-1,1.205779687E-1
4.491108920E0,6.389999762E-4,3.846513629E-1,1.173829660E-1
4.493624545E0,1.703999937E-3,3.835863471E-1,1.163179651E-1
4.496369962E0,6.389999762E-4,3.782613575E-1,1.131229624E-1
4.498885587E0,-2.555999905E-3,3.782613575E-1,1.077979654E-1
4.501401212E0,-3.620999865E-3,3.761313558E-1,1.056679636E-1
4.503916837E0,-2.555999905E-3,3.718713522E-1,1.056679636E-1
4.506432462E0,-1.490999945E-3,3.686763644E-1,1.056679636E-1
4.508948139E0,-4.685999826E-3,3.633513749E-1,1.024729684E-1
4.511463764E0,-3.620999865E-3,3.622863591E-1,1.035379693E-1
4.513979389E0,-5.750999786E-3,3.580263555E-1,1.024729684E-1
4.516495014E0,-8.945999667E-3,3.537663519E-1,1.024729684E-1
4.519010639E0,-1.001100056E-2,3.495063484E-1,9.927796572E-2
4.521526316E0,-1.107599959E-2,3.431163728E-1,9.821296483E-2
4.524041941E0,-1.107599959E-2,3.420513570E-1,9.821296483E-2
4.526788139E0,-1.107599959E-2,3.367263675E-1,1.014079675E-1
4.529303816E0,-1.320599951E-2,3.303363621E-1,1.035379693E-1
4.531819441E0,-1.427100040E-2,3.271413743E-1,1.035379693E-1
4.534335066E0,-1.214100048E-2,3.271413743E-1,1.067329645E-1
4.536850691E0,-1.320599951E-2,3.260763586E-1,1.067329645E-1
4.539366368E0,-1.320599951E-2,3.218163550E-1,1.077979654E-1
4.541881993E0,-1.320599951E-2,3.207513690E-1,1.099279672E-1
4.544397618E0,-1.320599951E-2,3.207513690E-1,1.131229624E-1
4.546913243E0,-1.427100040E-2,3.207513690E-1,1.184479669E-1
4.549428868E0,-1.107599959E-2,3.164913654E-1,1.195129678E-1
4.551944545E0,-1.001100056E-2,3.143613636E-1,1.227079630E-1
4.554460170E0,-1.001100056E-2,3.122313619E-1,1.269679666E-1
4.557203087E0,-1.001100056E-2,3.122313619E-1,1.280329674E-1
4.559718712E0,-8.945999667E-3,3.090363741E-1,1.333579719E-1
4.562234337E0,-1.001100056E-2,3.058413565E-1,1.376179606E-1
4.564749962E0,-1.107599959E-2,3.026463687E-1,1.397479624E-1
4.567265587E0,-8.945999667E-3,2.983863652E-1,1.408129632E-1
4.569781264E0,-1.001100056E-2,2.941263616E-1,1.440079659E-1
4.572296889E0,-8.945999667E-3,2.941263616E-1,1.472029686E-1
4.574812514E0,-8.945999667E-3,2.877363563E-1,1.503979713E-1
4.577328139E0,-7.880999707E-3,2.824113667E-1,1.514629722E-1
4.579843764E0,-1.107599959E-2,2.792163491E-1,1.525279731E-1
4.582359441E0,-7.880999707E-3,2.749563754E-1,1.546579599E-1
4.584875066E0,-5.750999786E-3,2.675013542E-1,1.557229608E-1
4.587679545E0,-5.750999786E-3,2.579163611E-1,1.535929590E-1
4.590195222E0,-5.750999786E-3,2.504613698E-1,1.557229608E-1
4.592710847E0,-4.685999826E-3,2.440713793E-1,1.546579599E-1
4.595226472E0,-4.685999826E-3,2.408763766E-1,1.535929590E-1
4.597742097E0,-4.685999826E-3,2.344863713E-1,1.567879617E-1
4.600257722E0,-1.490999945E-3,2.291613817E-1,1.546579599E-1
4.602773399E0,-1.490999945E-3,2.185113728E-1,1.535929590E-1
4.605289024E0,-3.620999865E-3,2.110563815E-1,1.525279731E-1
4.607804649E0,-4.685999826E-3,2.067963779E-1,1.503979713E-1
4.610320274E0,-5.750999786E-3,1.950813830E-1,1.503979713E-1
4.612835899E0,-6.815999746E-3,1.886913776E-1,1.493329704E-1
4.615351524E0,-6.815999746E-3,1.833663732E-1,1.440079659E-1
4.618038243E0,-1.001100056E-2,1.759113818E-1,1.440079659E-1
4.620553868E0,-1.640100032E-2,1.673913747E-1,1.418779641E-1
4.623069493E0,-1.746599935E-2,1.631313711E-1,1.365529597E-1
4.625585118E0,-1.959599927E-2,1.524813771E-1,1.290979683E-1
4.628100743E0,-2.066100016E-2,1.428963840E-1,1.290979683E-1
4.630616420E0,-2.385600097E-2,1.354413778E-1,1.290979683E-1
4.633132045E0,-2.492100000E-2,1.247913763E-1,1.227079630E-1
4.635647670E0,-2.918099985E-2,1.162713766E-1,1.195129678E-1
4.638163295E0,-3.024600074E-2,1.024263799E-1,1.173829660E-1
4.640678920E0,-3.344099969E-2,9.177637845E-2,1.141879633E-1
4.643194597E0,-3.344099969E-2,7.899637520E-2,1.099279672E-1
4.645710222E0,-3.450600058E-2,6.408637762E-2,1.024729684E-1
4.648461212E0,-3.450600058E-2,5.237137526E-2,1.014079675E-1
4.650976837E0,-3.344099969E-2,3.959137574E-2,9.821296483E-2
4.653492462E0,-3.450600058E-2,2.681137435E-2,9.288796782E-2
4.656008087E0,-3.770099953E-2,1.403137483E-2,8.862796426E-2
4.658523712E0,-3.770099953E-2,2.316374797E-3,8.436796814E-2
4.661039389E0,-3.876599669E-2,-9.398625232E-3,8.223796636E-2
4.663555014E0,-3.983099759E-2,-2.004862577E-2,7.691296935E-2
4.666070639E0,-3.983099759E-2,-3.069862537E-2,7.052296400E-2
4.668586264E0,-4.409099743E-2,-4.028362408E-2,6.626296788E-2
4.671101889E0,-4.196099937E-2,-5.093362182E-2,6.413296610E-2
4.673617566E0,-4.302600026E-2,-5.838862434E-2,6.413296610E-2
4.676133191E0,-4.302600026E-2,-6.477862597E-2,6.200296804E-2
4.678877566E0,-4.196099937E-2,-7.223362476E-2,5.667797104E-2
4.681393191E0,-4.515599832E-2,-7.968862355E-2,5.135297030E-2
4.683908816E0,-4.409099743E-2,-8.394862711E-2,5.135297030E-2
4.686424441E0,-4.409099743E-2,-8.927362412E-2,4.815796763E-2
4.688940066E0,-4.622099921E-2,-9.992362559E-2,4.389796779E-2
4.691455691E0,-4.515599832E-2,-1.063136235E-1,4.070296884E-2
4.693971368E0,-4.728600010E-2,-1.084436253E-1,3.857297078E-2
4.696486993E0,-4.728600010E-2,-1.137686223E-1,3.431297094E-2
4.699002618E0,-4.622099921E-2,-1.222886294E-1,3.324797004E-2
4.701518243E0,-4.941599816E-2,-1.286786199E-1,3.111796826E-2
4.704033920E0,-5.261099711E-2,-1.350686252E-1,2.685797028E-2
4.706549493E0,-5.154599994E-2,-1.361336261E-1,2.259796858E-2
4.709291889E0,-5.367599800E-2,-1.425236166E-1,2.685797028E-2
4.711807514E0,-5.367599800E-2,-1.467836201E-1,2.259796858E-2
4.714323139E0,-5.474099889E-2,-1.542386264E-1,1.940296963E-2
4.716838764E0,-5.474099889E-2,-1.584986299E-1,1.514296979E-2
4.719354389E0,-6.113099679E-2,-1.616936177E-1,1.514296979E-2
4.721870066E0,-6.539100409E-2,-1.659536213E-1,1.301296987E-2
4.724385691E0,-6.965100020E-2,-1.680836231E-1,1.088296901E-2
4.726901316E0,-7.178100199E-2,-1.734086275E-1,6.622969173E-3
4.729416941E0,-7.284599543E-2,-1.755386293E-1,2.362969099E-3
4.731932566E0,-7.071600109E-2,-1.776686162E-1,2.362969099E-3
4.734448191E0,-7.284599543E-2,-1.787336171E-1,2.329691779E-4
4.736963868E0,-7.391099632E-2,-1.797986180E-1,-2.962030703E-3
4.739709597E0,-7.391099632E-2,-1.819286197E-1,-4.027030896E-3
4.742225222E0,-7.178100199E-2,-1.851236224E-1,-6.157030817E-3
4.744740847E0,-6.858599931E-2,-1.861886233E-1,-4.027030896E-3
4.747256472E0,-6.858599931E-2,-1.883186251E-1,-8.320307825E-4
4.749772097E0,-7.284599543E-2,-1.936436296E-1,-5.092030857E-3
4.752287774E0,-6.965100020E-2,-1.979036182E-1,-2.962030703E-3
4.754803399E0,-6.858599931E-2,-1.968386173E-1,3.427969059E-3
4.757319024E0,-6.858599931E-2,-2.000336200E-1,5.557969213E-3
4.759834649E0,-6.752099842E-2,-2.021636218E-1,9.817969054E-3
4.762350274E0,-6.326100230E-2,-2.053586245E-1,9.817969054E-3
4.764865951E0,-6.219599769E-2,-2.032286227E-1,1.301296987E-2
4.767381576E0,-6.219599769E-2,-2.021636218E-1,1.727296971E-2
4.770118868E0,-5.900099874E-2,-2.010986209E-1,2.046796866E-2
4.772634493E0,-5.687099695E-2,-1.968386173E-1,2.153296955E-2
4.775150118E0,-5.154599994E-2,-1.947086304E-1,2.366296947E-2
4.777665743E0,-4.835099727E-2,-1.915136278E-1,2.366296947E-2
4.780181368E0,-4.302600026E-2,-1.883186251E-1,2.366296947E-2
4.782697045E0,-4.196099937E-2,-1.872536242E-1,2.259796858E-2
4.785212670E0,-3.876599669E-2,-1.840586215E-1,2.153296955E-2
4.787728295E0,-3.770099953E-2,-1.829936206E-1,2.046796866E-2
4.790243920E0,-3.237599880E-2,-1.829936206E-1,1.620796882E-2
4.792759545E0,-3.237599880E-2,-1.861886233E-1,9.817969054E-3
4.795275222E0,-3.131099790E-2,-1.904486269E-1,8.752969094E-3
4.797790847E0,-2.492100000E-2,-1.957736164E-1,4.492969252E-3
4.800530691E0,-2.385600097E-2,-2.032286227E-1,4.492969252E-3
4.803046316E0,-2.385600097E-2,-2.085536271E-1,-1.897030743E-3
4.805561941E0,-2.385600097E-2,-2.128136307E-1,-1.041703112E-2
4.808077566E0,-1.853100024E-2,-2.160086185E-1,-1.467703097E-2
4.810593191E0,-1.746599935E-2,-2.192036211E-1,-1.574203186E-2
4.813108868E0,-1.533599943E-2,-2.202686220E-1,-1.787203178E-2
4.815624493E0,-1.533599943E-2,-2.234636247E-1,-2.319703065E-2
4.818140118E0,-1.214100048E-2,-2.192036211E-1,-2.319703065E-2
4.820655743E0,-1.001100056E-2,-2.181386203E-1,-2.958703041E-2
4.823171368E0,-8.945999667E-3,-2.138786167E-1,-3.278203309E-2
4.825687045E0,-7.880999707E-3,-2.138786167E-1,-3.278203309E-2
4.828202618E0,-7.880999707E-3,-2.085536271E-1,-3.704202920E-2
4.830947149E0,-1.107599959E-2,-2.010986209E-1,-3.810703009E-2
4.833462774E0,-1.214100048E-2,-2.010986209E-1,-4.343203083E-2
4.835978399E0,-1.533599943E-2,-1.957736164E-1,-4.556202888E-2
4.838494024E0,-1.853100024E-2,-1.883186251E-1,-4.449703172E-2
4.841009649E0,-2.279100008E-2,-1.819286197E-1,-4.449703172E-2
4.843525326E0,-2.279100008E-2,-1.702136248E-1,-4.449703172E-2
4.846040951E0,-2.492100000E-2,-1.616936177E-1,-3.917203099E-2
4.848556576E0,-2.598600090E-2,-1.553036273E-1,-3.810703009E-2
4.851072201E0,-2.598600090E-2,-1.489136219E-1,-3.704202920E-2
4.853587826E0,-2.385600097E-2,-1.425236166E-1,-3.491203114E-2
4.856103503E0,-2.172600105E-2,-1.340036243E-1,-3.491203114E-2
4.858619128E0,-1.959599927E-2,-1.265486181E-1,-3.278203309E-2
4.861364805E0,-1.853100024E-2,-1.222886294E-1,-3.171703219E-2
4.863880430E0,-1.533599943E-2,-1.169636250E-1,-2.639203146E-2
4.866396055E0,-1.320599951E-2,-1.105736271E-1,-2.532703057E-2
4.868911680E0,-7.880999707E-3,-1.095086262E-1,-2.639203146E-2
4.871427305E0,-3.620999865E-3,-1.052486226E-1,-2.213202976E-2
4.873942982E0,6.389999762E-4,-1.031186208E-1,-2.319703065E-2
4.876458607E0,5.964000244E-3,-9.992362559E-2,-2.532703057E-2
4.878974232E0,1.022399962E-2,-9.779362381E-2,-2.639203146E-2
4.881489857E0,1.341900043E-2,-9.566362202E-2,-2.639203146E-2
4.884005482E0,1.767900027E-2,-9.566362202E-2,-2.426202968E-2
4.886521107E0,1.980900019E-2,-9.672862291E-2,-2.852203138E-2
4.889036785E0,2.087399922E-2,-9.459862113E-2,-3.384703025E-2
4.891783764E0,2.406900004E-2,-9.672862291E-2,-3.384703025E-2
4.894299389E0,2.726400085E-2,-9.992362559E-2,-3.278203309E-2
4.896815014E0,2.619899996E-2,-9.992362559E-2,-3.384703025E-2
4.899330639E0,2.939399891E-2,-9.885862470E-2,-3.597703204E-2
4.901846264E0,3.045899980E-2,-9.992362559E-2,-3.171703219E-2
4.904361941E0,3.045899980E-2,-9.779362381E-2,-3.171703219E-2
4.906877566E0,3.045899980E-2,-9.566362202E-2,-3.384703025E-2
4.909393191E0,3.152400255E-2,-9.672862291E-2,-3.278203309E-2
4.911908816E0,3.471900150E-2,-9.459862113E-2,-3.384703025E-2
4.914424441E0,3.578400239E-2,-9.353362024E-2,-3.065203130E-2
4.916940118E0,3.365400061E-2,-8.927362412E-2,-2.852203138E-2
4.919455743E0,3.471900150E-2,-8.501362056E-2,-2.745703049E-2
4.922196264E0,3.578400239E-2,-8.075362444E-2,-2.958703041E-2
4.924711889E0,3.684900329E-2,-7.968862355E-2,-3.171703219E-2
4.927227514E0,3.684900329E-2,-7.862362266E-2,-3.384703025E-2
4.929743139E0,3.152400255E-2,-8.288362622E-2,-3.491203114E-2
4.932258764E0,2.939399891E-2,-8.288362622E-2,-4.023703188E-2
4.934774441E0,2.939399891E-2,-8.394862711E-2,-4.343203083E-2
4.937290066E0,2.513399906E-2,-8.714362234E-2,-4.343203083E-2
4.939805691E0,2.300399914E-2,-9.459862113E-2,-4.556202888E-2
4.942321316E0,2.300399914E-2,-1.009886265E-1,-5.088702962E-2
4.944836941E0,1.980900019E-2,-1.095086262E-1,-5.195203051E-2
4.947352618E0,1.554900035E-2,-1.137686223E-1,-5.301703140E-2
4.949868243E0,1.341900043E-2,-1.169636250E-1,-5.621203035E-2
4.952615222E0,1.235399954E-2,-1.222886294E-1,-5.408203229E-2
4.955130847E0,9.159000590E-3,-1.286786199E-1,-5.621203035E-2
4.957646472E0,5.964000244E-3,-1.371986270E-1,-6.047203019E-2
4.960162097E0,1.703999937E-3,-1.382636279E-1,-5.727703124E-2
4.962677722E0,-4.259999841E-4,-1.393286288E-1,-5.940702930E-2
4.965193399E0,-1.490999945E-3,-1.371986270E-1,-5.834203213E-2
4.967709024E0,-2.555999905E-3,-1.371986270E-1,-5.621203035E-2
4.970224649E0,-1.490999945E-3,-1.340036243E-1,-5.514702946E-2
4.972740274E0,-3.620999865E-3,-1.297436208E-1,-5.301703140E-2
4.975255899E0,-5.750999786E-3,-1.265486181E-1,-5.301703140E-2
4.977771576E0,-5.750999786E-3,-1.244186163E-1,-5.514702946E-2
4.980287201E0,-4.685999826E-3,-1.201586202E-1,-4.875703156E-2
4.983033035E0,-4.685999826E-3,-1.180286258E-1,-4.875703156E-2
4.985548660E0,-1.490999945E-3,-1.137686223E-1,-4.556202888E-2
4.988064285E0,2.769000363E-3,-1.116386205E-1,-4.556202888E-2
4.990579910E0,3.834000323E-3,-1.073786244E-1,-4.343203083E-2
4.993095535E0,4.899000283E-3,-1.073786244E-1,-3.917203099E-2
4.995611212E0,5.964000244E-3,-1.063136235E-1,-3.491203114E-2
4.998126837E0,8.093999699E-3,-1.041836217E-1,-3.171703219E-2
5.000642462E0,7.029000204E-3,-1.031186208E-1,-2.852203138E-2
5.003158087E0,1.341900043E-2,-1.052486226E-1,-2.319703065E-2
5.005673712E0,1.874399930E-2,-1.052486226E-1,-1.787203178E-2
5.008189389E0,2.300399914E-2,-1.031186208E-1,-1.467703097E-2
5.010705014E0,2.726400085E-2,-1.020536199E-1,-1.254703011E-2
5.013445274E0,3.152400255E-2,-1.020536199E-1,-1.041703112E-2
5.015960899E0,3.578400239E-2,-1.020536199E-1,-1.897030743E-3
5.018476524E0,4.110900313E-2,-1.031186208E-1,3.427969059E-3
5.020992149E0,4.430400208E-2,-1.031186208E-1,3.427969059E-3
5.023507774E0,4.643400013E-2,-9.885862470E-2,8.752969094E-3
5.026023451E0,4.962900281E-2,-9.672862291E-2,1.514296979E-2
5.028539076E0,5.601900071E-2,-9.992362559E-2,1.833796874E-2
5.031054701E0,5.814900249E-2,-9.672862291E-2,2.366296947E-2
5.033570326E0,5.814900249E-2,-9.566362202E-2,2.472797036E-2
5.036085951E0,6.134400517E-2,-9.459862113E-2,3.111796826E-2
5.038601628E0,6.027900428E-2,-9.672862291E-2,3.644296899E-2
5.041117253E0,5.921400338E-2,-9.246862680E-2,4.176796973E-2
5.043860378E0,6.347399950E-2,-9.033862501E-2,4.496296868E-2
5.046376003E0,6.134400517E-2,-8.501362056E-2,5.135297030E-2
5.048891628E0,6.027900428E-2,-8.501362056E-2,5.880796909E-2
5.051407253E0,6.347399950E-2,-8.288362622E-2,6.306796521E-2
5.053922878E0,6.240899861E-2,-7.542861998E-2,6.732796878E-2
5.056438555E0,6.240899861E-2,-7.329862565E-2,7.371796668E-2
5.058954180E0,6.134400517E-2,-6.797362119E-2,7.797796279E-2
5.061469805E0,6.240899861E-2,-6.051862240E-2,8.223796636E-2
5.063985430E0,6.240899861E-2,-5.412862450E-2,8.756296337E-2
5.066501055E0,6.240899861E-2,-4.880362377E-2,9.395296872E-2
5.069016732E0,6.240899861E-2,-4.241362214E-2,9.927796572E-2
5.071532357E0,6.134400517E-2,-3.708862513E-2,1.056679636E-1
5.074278816E0,5.814900249E-2,-2.643862553E-2,1.077979654E-1
5.076794441E0,5.601900071E-2,-2.324362472E-2,1.120579690E-1
5.079310066E0,5.495399982E-2,-2.004862577E-2,1.120579690E-1
5.081825691E0,5.282400176E-2,-1.472362503E-2,1.131229624E-1
5.084341316E0,4.856400192E-2,-1.152862515E-2,1.152529642E-1
5.086856941E0,4.430400208E-2,-3.008625237E-3,1.152529642E-1
5.089372618E0,4.217400029E-2,2.316374797E-3,1.163179651E-1
5.091888243E0,4.110900313E-2,7.641375065E-3,1.141879633E-1
5.094403868E0,3.578400239E-2,1.509637479E-2,1.152529642E-1
5.096919493E0,3.045899980E-2,1.509637479E-2,1.152529642E-1
5.099435170E0,2.832899801E-2,1.616137475E-2,1.120579690E-1
5.101950795E0,2.193900011E-2,2.042137459E-2,1.067329645E-1
5.104694180E0,1.661399938E-2,3.000637516E-2,1.035379693E-1
