"Time (s)","Gyroscope x (rad/s)","Gyroscope y (rad/s)","Gyroscope z (rad/s)"
2.718187400E-2,-2.316948175E-1,2.516685054E-2,1.207742542E-1
2.964536400E-2,-2.370211333E-1,2.836264111E-2,1.186437234E-1
3.210880100E-2,-2.455432415E-1,4.221106693E-2,1.229047775E-1
3.457229100E-2,-2.476737648E-1,5.925528333E-2,1.314268857E-1
3.703578000E-2,-2.561958730E-1,7.523423433E-2,1.399489939E-1
3.949921800E-2,-2.604569197E-1,8.482161164E-2,1.506016254E-1
4.196270800E-2,-2.657832503E-1,8.482161164E-2,1.665805876E-1
4.442619700E-2,-2.828274667E-1,8.695213497E-2,1.804290116E-1
4.688963500E-2,-2.966758907E-1,9.547424316E-2,1.964079589E-1
4.935312400E-2,-3.062632680E-1,1.146489903E-1,2.081258595E-1
5.181661400E-2,-3.158506453E-1,1.391500533E-1,2.177132368E-1
5.428005100E-2,-3.243727386E-1,1.487374157E-1,2.241048068E-1
5.674354100E-2,-3.318295777E-1,1.476721615E-1,2.315616608E-1
5.920703000E-2,-3.392864466E-1,1.519332081E-1,2.368879765E-1
6.167046800E-2,-3.488737941E-1,1.476721615E-1,2.326269150E-1
6.413395800E-2,-3.531348705E-1,1.647163779E-1,2.294311374E-1
6.659744700E-2,-3.467432857E-1,1.870869100E-1,2.294311374E-1
6.906088500E-2,-3.435474932E-1,1.956090182E-1,2.262353450E-1
7.152437400E-2,-3.478085399E-1,1.934784949E-1,2.251700759E-1
7.398786400E-2,-3.446127474E-1,2.115879655E-1,2.241048068E-1
7.645135300E-2,-3.328948617E-1,2.414153516E-1,2.262353450E-1
7.891479100E-2,-3.233074844E-1,2.595248222E-1,2.262353450E-1
8.137828000E-2,-3.179811537E-1,2.786995769E-1,2.262353450E-1
8.384177000E-2,-3.158506453E-1,2.882869542E-1,2.262353450E-1
8.630520800E-2,-3.137201071E-1,2.882869542E-1,2.273005992E-1
8.876869700E-2,-3.062632680E-1,2.904174626E-1,2.315616608E-1
9.123218700E-2,-3.030674756E-1,2.936132550E-1,2.358227074E-1
9.369562400E-2,-3.041327298E-1,3.053311706E-1,2.422142923E-1
9.615911400E-2,-2.945453525E-1,3.245058954E-1,2.507364154E-1
9.862260300E-2,-2.860232592E-1,3.404848576E-1,2.571279705E-1
1.010860410E-1,-2.785664201E-1,3.447459042E-1,2.581932545E-1
1.035495300E-1,-2.689790428E-1,3.426153958E-1,2.549974620E-1
1.060130200E-1,-2.530000806E-1,3.191795945E-1,2.486058772E-1
1.084764580E-1,-2.370211333E-1,2.680469453E-1,2.326269150E-1
1.109399470E-1,-2.274337560E-1,1.977395415E-1,2.134521753E-1
1.134034370E-1,-2.146506011E-1,1.093226671E-1,2.006690204E-1
1.158668740E-1,-2.029327005E-1,3.049316816E-2,1.932121664E-1
1.183303640E-1,-1.997369081E-1,-3.874896094E-2,1.900163740E-1
1.207938530E-1,-1.965411156E-1,-1.037300378E-1,1.889511198E-1
1.232572910E-1,-1.944105923E-1,-1.591237336E-1,1.878858507E-1
1.257207800E-1,-1.954758614E-1,-2.081258595E-1,1.836248040E-1
1.281842700E-1,-1.944105923E-1,-2.699111402E-1,1.729721576E-1
1.306477080E-1,-1.848232150E-1,-3.466101289E-1,1.548626870E-1
1.331111970E-1,-1.720400602E-1,-4.360922575E-1,1.335574090E-1
1.355746870E-1,-1.581916362E-1,-5.287702084E-1,1.197089851E-1
1.380381760E-1,-1.422126740E-1,-6.044039130E-1,1.101216152E-1
1.405016140E-1,-1.187768802E-1,-6.576670408E-1,1.047952995E-1
1.429651030E-1,-9.001477063E-2,-6.693849564E-1,1.165132001E-1
1.454285930E-1,-6.231791526E-2,-6.374270320E-1,1.388837248E-1
1.478920300E-1,-3.036000952E-2,-5.415533185E-1,1.804290116E-1
1.503555200E-1,-1.597895287E-3,-3.966774940E-1,2.294311374E-1
1.528190100E-1,1.012000348E-2,-2.358227074E-1,2.890858948E-1
1.552824470E-1,-5.326317623E-4,-7.070686668E-2,3.561974764E-1
1.577459370E-1,-3.355580196E-2,9.547424316E-2,4.243743420E-1
1.602094260E-1,-8.681897819E-2,2.637858689E-1,4.925512075E-1
1.626728640E-1,-1.688442677E-1,4.416849017E-1,5.607280731E-1
1.651363530E-1,-2.615222037E-1,6.302365065E-1,6.257091761E-1
1.675998430E-1,-3.605917096E-1,8.262450099E-1,6.853639483E-1
1.700632800E-1,-4.788359404E-1,1.033971429E0,7.482144833E-1
1.725267700E-1,-6.087980866E-1,1.251285195E0,8.046734333E-1
1.749902600E-1,-7.462170720E-1,1.465403080E0,8.504797816E-1
1.774536970E-1,-8.889623880E-1,1.667803168E0,9.016124010E-1
1.799171870E-1,-1.034903526E0,1.855289578E0,9.431576729E-1
1.823806760E-1,-1.178714037E0,2.026797056E0,9.793766737E-1
1.848441140E-1,-1.319328904E0,2.170607567E0,1.004943013E0
1.873076030E-1,-1.455682635E0,2.302700281E0,1.027313471E0
1.897710930E-1,-1.589905858E0,2.402835131E0,1.048618793E0
1.922345300E-1,-1.702823758E0,2.475272894E0,1.061401963E0
1.946980200E-1,-1.804023743E0,2.509361506E0,1.067793489E0
1.971615100E-1,-1.886049032E0,2.527470827E0,1.069923997E0
1.996249470E-1,-1.952095389E0,2.516818285E0,1.074185133E0
2.020884370E-1,-2.001097441E0,2.495512962E0,1.081641912E0
2.045519260E-1,-2.038381815E0,2.474207640E0,1.090164065E0
2.070154160E-1,-2.067143917E0,2.437988758E0,1.099751472E0
2.094788530E-1,-2.078861713E0,2.367681265E0,1.107208252E0
2.119423430E-1,-2.074600697E0,2.295243502E0,1.121056676E0
2.144058330E-1,-2.070339680E0,2.224936008E0,1.129578829E0
2.168692700E-1,-2.044773340E0,2.133323431E0,1.135970354E0
2.193327600E-1,-2.007489204E0,2.029992819E0,1.153014660E0
2.217962490E-1,-1.962748051E0,1.943706512E0,1.159406185E0
2.242596870E-1,-1.918007016E0,1.871268511E0,1.166863084E0
2.267231760E-1,-1.871135354E0,1.796700120E0,1.173254609E0
2.291866660E-1,-1.817872167E0,1.715740085E0,1.179646254E0
2.316501030E-1,-1.772065878E0,1.637043715E0,1.180711508E0
2.341135930E-1,-1.739042759E0,1.560344696E0,1.173254609E0
2.365770830E-1,-1.704954267E0,1.496428967E0,1.172189355E0
2.390405200E-1,-1.679387927E0,1.431447864E0,1.175385118E0
2.415040100E-1,-1.664474249E0,1.360075235E0,1.179646254E0
2.439674990E-1,-1.654886842E0,1.276984692E0,1.191364050E0
2.464309370E-1,-1.668735266E0,1.188567758E0,1.200951457E0
2.488944260E-1,-1.693236351E0,1.108672976E0,1.208408356E0
2.513579160E-1,-1.727324843E0,1.033039331E0,1.211604118E0
2.538213530E-1,-1.772065878E0,9.531445503E-1,1.225452542E0
2.562848430E-1,-1.820002675E0,8.647276759E-1,1.242496729E0
2.587483330E-1,-1.880722761E0,7.858981490E-1,1.256345153E0
2.612117700E-1,-1.946769118E0,7.081339359E-1,1.271258831E0
2.636752600E-1,-2.019207001E0,6.261086464E-1,1.284042001E0
2.661387490E-1,-2.098036528E0,5.451486111E-1,1.286172509E0
2.686021870E-1,-2.185388088E0,4.705801606E-1,1.289368391E0
2.710656760E-1,-2.272739649E0,3.374222219E-1,1.308543086E0
2.735291660E-1,-2.298305988E0,2.929474693E-3,1.387372613E0
2.759926550E-1,-2.267413378E0,-4.561991096E-1,1.442766309E0
2.784560930E-1,-2.267413378E0,-8.578034639E-1,1.418265224E0
2.809195830E-1,-2.302567005E0,-1.192296147E0,1.325587273E0
2.833830720E-1,-2.361156702E0,-1.456481576E0,1.194559932E0
2.858465100E-1,-2.422941923E0,-1.629054189E0,1.058206201E0
2.883099990E-1,-2.477270365E0,-1.679121614E0,9.495492578E-1
2.907734890E-1,-2.525207281E0,-1.650359511E0,8.835029602E-1
2.932367180E-1,-2.564621925E0,-1.593900561E0,8.728502989E-1
2.956998950E-1,-2.597645044E0,-1.511875272E0,9.081371427E-1
2.981631240E-1,-2.621080875E0,-1.390435219E0,9.827055931E-1
3.006263010E-1,-2.643451452E0,-1.256211996E0,1.086036205E0
3.030895300E-1,-2.679670334E0,-1.123054028E0,1.205345631E0
3.055527600E-1,-2.730803013E0,-9.930919409E-1,1.326785684E0
3.080159370E-1,-2.791522980E0,-8.599339724E-1,1.445029974E0
3.104791660E-1,-2.836264133E0,-7.289065719E-1,1.541968942E0
3.129423430E-1,-2.844786167E0,-6.021401882E-1,1.600558400E0
3.154055720E-1,-2.810697794E0,-4.881570041E-1,1.609080553E0
3.178687490E-1,-2.747847319E0,-3.784348667E-1,1.581383705E0
3.203319780E-1,-2.709497690E0,-2.367548198E-1,1.547295213E0
3.227951550E-1,-2.707367182E0,-6.950844824E-2,1.534512162E0
3.252583850E-1,-2.747847319E0,1.169126704E-1,1.578187943E0
3.277215620E-1,-2.837329388E0,3.161169589E-1,1.702823758E0
3.301847910E-1,-2.967291594E0,5.621927977E-1,1.916941762E0
3.326479680E-1,-3.121754646E0,8.338350058E-1,2.203497648E0
3.351111970E-1,-3.276217937E0,1.090563536E0,2.529468298E0
3.375743740E-1,-3.422158957E0,1.307877302E0,2.867156744E0
3.400376030E-1,-3.553186417E0,1.491102576E0,3.200584173E0
3.425007800E-1,-3.660778046E0,1.640239477E0,3.518032789E0
3.449640100E-1,-3.737477064E0,1.757418513E0,3.790740252E0
3.474272390E-1,-3.790740252E0,1.862879634E0,4.004858017E0
3.498904160E-1,-3.814176083E0,1.902294397E0,4.143342495E0
3.523536450E-1,-3.809915066E0,1.823464870E0,4.209388733E0
3.548168220E-1,-3.755586624E0,1.604020596E0,4.201931953E0
3.572800510E-1,-3.659712791E0,1.322790980E0,4.124167919E0
3.597432280E-1,-3.511641264E0,1.005342484E0,3.977161407E0
3.622064580E-1,-3.315632820E0,7.017423511E-1,3.781152964E0
3.646696350E-1,-3.075948477E0,4.322306812E-1,3.548925400E0
3.671328640E-1,-2.802175760E0,1.669800580E-1,3.287935972E0
3.695960410E-1,-2.498575687E0,-6.205160171E-2,3.022685289E0
3.720592700E-1,-2.172605038E0,-2.612558901E-1,2.771283150E0
3.745224470E-1,-1.843438506E0,-4.327633083E-1,2.529468298E0
3.769856760E-1,-1.527055264E0,-5.968139172E-1,2.290849209E0
3.794488530E-1,-1.225585699E0,-7.321023345E-1,2.063948154E0
3.819120830E-1,-9.677919149E-1,-8.258455396E-1,1.856221676E0
3.843753120E-1,-7.430213094E-1,-8.673908114E-1,1.666604757E0
3.868384890E-1,-5.342296362E-1,-8.620644808E-1,1.503619432E0
3.893017180E-1,-3.456780016E-1,-8.290413618E-1,1.361939430E0
3.917648950E-1,-1.667137444E-1,-7.800391912E-1,1.230911970E0
3.942281240E-1,6.924212910E-3,-7.342329025E-1,1.116928816E0
3.966913010E-1,1.699095368E-1,-7.193192244E-1,1.012532949E0
3.991545300E-1,3.286337852E-1,-7.555381656E-1,9.081371427E-1
4.016177080E-1,4.852275252E-1,-8.311718702E-1,7.994802594E-1
4.040809370E-1,6.428865194E-1,-9.142624140E-1,6.833665371E-1
4.065441140E-1,7.952192426E-1,-9.664603472E-1,5.566002131E-1
4.090073430E-1,9.486171603E-1,-9.930919409E-1,4.255727828E-1
4.114705200E-1,1.095623493E0,-1.000548720E0,2.998716831E-1
4.139337490E-1,1.221324682E0,-9.536771774E-1,1.922800690E-1
4.163969260E-1,1.325720429E0,-9.057403207E-1,8.681897819E-2
4.188601550E-1,1.422659397E0,-8.812392354E-1,-1.651158556E-2
4.213233330E-1,1.506815314E0,-8.588687181E-1,-1.123853028E-1
4.237865620E-1,1.578187943E0,-8.205192089E-1,-2.189116478E-1
4.262497910E-1,1.648495317E0,-7.821697593E-1,-3.339601159E-1
4.287129680E-1,1.725194335E0,-7.661907673E-1,-4.532696307E-1
4.311761970E-1,1.807219625E0,-7.555381656E-1,-5.715138912E-1
4.336393740E-1,1.887114286E0,-6.852307916E-1,-6.812360287E-1
4.361026030E-1,1.959552288E0,-5.573991537E-1,-7.781749964E-1
4.385657800E-1,2.021337509E0,-3.603253961E-1,-8.623307943E-1
4.410290100E-1,2.067143917E0,-8.655266464E-2,-9.326382279E-1
4.434921870E-1,2.091645002E0,2.117211223E-1,-9.901624322E-1
4.459554160E-1,2.101232290E0,4.844285846E-1,-1.035968781E0
4.484185930E-1,2.088449240E0,7.262434363E-1,-1.068991899E0
4.508818220E-1,2.061817646E0,9.467529655E-1,-1.090297222E0
4.533449990E-1,2.028794289E0,1.185371995E0,-1.096688747E0
4.558082280E-1,1.988314390E0,1.450622559E0,-1.083905578E0
4.582714050E-1,1.945703864E0,1.710546851E0,-1.049817204E0
4.607346350E-1,1.908419609E0,1.947035432E0,-9.890971780E-1
4.631978640E-1,1.876461744E0,2.167544842E0,-9.102677107E-1
4.656610410E-1,1.845569015E0,2.378467083E0,-8.069370985E-1
4.681242700E-1,1.775261641E0,2.691654682E0,-6.556696892E-1
4.705874470E-1,1.639973164E0,3.139065266E0,-4.511390924E-1
4.730506760E-1,1.503619432E0,3.444795847E0,-2.487390339E-1
4.755138530E-1,1.374722600E0,3.649326563E0,-4.314317182E-2
4.779770830E-1,1.233042479E0,3.846400261E0,1.794968992E-1
4.804402600E-1,1.062600374E0,4.047735214E0,4.095938206E-1
4.829034890E-1,8.697876930E-1,4.207524776E0,6.460823417E-1
4.853666660E-1,6.641917825E-1,4.349204540E0,8.793750405E-1
4.878298950E-1,4.383559525E-1,4.579301357E0,1.117994070E0
4.902930720E-1,2.039979696E-1,4.800876617E0,1.352352023E0
4.927563010E-1,-4.101264477E-2,4.862661839E0,1.569665790E0
4.952194780E-1,-2.870885134E-1,4.749743938E0,1.769935369E0
4.976827080E-1,-5.299686193E-1,4.500472069E0,1.944638610E0
5.001459370E-1,-7.739139795E-1,4.179827690E0,2.095906019E0
5.026091140E-1,-1.011467695E0,3.873031855E0,2.213084936E0
5.050723430E-1,-1.255413055E0,3.525755882E0,2.277000666E0
5.075355200E-1,-1.537707925E0,2.700176716E0,2.234390259E0
5.099987490E-1,-1.872200608E0,1.865010142E0,2.104428053E0
5.124619260E-1,-2.165148020E0,1.662610054E0,1.982988000E0
5.149251550E-1,-2.353699684E0,1.680719495E0,1.894571185E0
5.173883330E-1,-2.495379925E0,1.650892138E0,1.802958488E0
5.198515620E-1,-2.630668163E0,1.614673138E0,1.692171097E0
5.223147390E-1,-2.774478912E0,1.583780527E0,1.544099450E0
5.247779680E-1,-2.927876711E0,1.474058390E0,1.352352023E0
5.272411450E-1,-3.080209494E0,1.339835167E0,1.132907748E0
5.297043740E-1,-3.202714682E0,1.278049946E0,9.070718884E-1
5.321675510E-1,-3.287935972E0,1.271658301E0,6.940191984E-1
5.346307800E-1,-3.344394922E0,1.265266776E0,4.820317328E-1
5.370939580E-1,-3.385940075E0,1.252483606E0,2.689790428E-1
5.395571870E-1,-3.415767431E0,1.246091962E0,5.805686116E-2
5.420204160E-1,-3.438138008E0,1.251418352E0,-1.496695280E-1
5.444835930E-1,-3.449856043E0,1.280180454E0,-3.488737941E-1
5.469468220E-1,-3.449856043E0,1.317464709E0,-5.278380513E-1
5.494099990E-1,-3.443464279E0,1.367532015E0,-6.876276135E-1
5.518732280E-1,-3.427485466E0,1.417732596E0,-8.356992602E-1
5.543364050E-1,-3.399788618E0,1.474191546E0,-9.645960927E-1
5.567996350E-1,-3.358243227E0,1.535976887E0,-1.081775069E0
5.592628120E-1,-3.304980040E0,1.598827362E0,-1.189366698E0
5.617260410E-1,-3.242129564E0,1.667004228E0,-1.283109903E0
5.641892180E-1,-3.170756817E0,1.738376856E0,-1.363004684E0
5.666524470E-1,-3.091927290E0,1.810814857E0,-1.429051042E0
5.691156240E-1,-3.005640984E0,1.870469570E0,-1.479118347E0
5.715788530E-1,-2.912963152E0,1.906688571E0,-1.518533111E0
5.740420300E-1,-2.814958811E0,1.923732758E0,-1.543034196E0
5.765052600E-1,-2.716954708E0,1.937581182E0,-1.553686857E0
5.789684890E-1,-2.617885113E0,1.953560114E0,-1.553686857E0
5.814316660E-1,-2.511358738E0,1.964212775E0,-1.547295213E0
5.838948950E-1,-2.403767109E0,1.979126453E0,-1.536642671E0
5.863580720E-1,-2.294044971E0,1.988713861E0,-1.521728992E0
5.888213010E-1,-2.175800800E0,1.997235894E0,-1.502554178E0
5.912844780E-1,-2.055425882E0,1.991909623E0,-1.479118347E0
5.937477080E-1,-1.935051203E0,1.987648606E0,-1.449290991E0
5.962108850E-1,-1.816806912E0,1.987648606E0,-1.414137363E0
5.986741140E-1,-1.700693250E0,2.006823301E0,-1.369396210E0
6.011372910E-1,-1.594166875E0,2.029193878E0,-1.314002514E0
6.036005200E-1,-1.492966771E0,2.052629709E0,-1.256478310E0
6.060636970E-1,-1.407745719E0,2.088848591E0,-1.193627834E0
6.085269260E-1,-1.331046820E0,2.136785507E0,-1.130777240E0
6.109901030E-1,-1.270326734E0,2.181526423E0,-1.066861391E0
6.134533330E-1,-1.215998292E0,2.242246628E0,-9.997498393E-1
6.159165100E-1,-1.168061495E0,2.327467680E0,-9.273118973E-1
6.183797390E-1,-1.123320341E0,2.443581343E0,-8.474171162E-1
6.208429680E-1,-1.077514052E0,2.584196091E0,-7.685876489E-1
6.233061450E-1,-1.031707764E0,2.730137348E0,-6.844317913E-1
6.257693740E-1,-9.901624322E-1,2.867556334E0,-6.066675782E-1
6.282325510E-1,-9.571392536E-1,3.001779556E0,-5.331643820E-1
6.306957800E-1,-9.337034822E-1,3.128545761E0,-4.703138471E-1
6.331589580E-1,-9.198550582E-1,3.251051188E0,-4.159854054E-1
6.356221870E-1,-9.187898040E-1,3.379947901E0,-3.787011802E-1
6.380853640E-1,-9.283771515E-1,3.509910107E0,-3.499390781E-1
6.405485930E-1,-9.656614065E-1,3.645198584E0,-3.350253701E-1
6.430117700E-1,-1.035968781E0,3.777291298E0,-3.350253701E-1
6.454749990E-1,-1.112667799E0,3.880621910E0,-3.499390781E-1
6.479381760E-1,-1.186170936E0,3.949863911E0,-3.829622269E-1
6.504014050E-1,-1.258608818E0,4.009518623E0,-4.277032912E-1
6.528645830E-1,-1.324655175E0,4.056390285E0,-4.894886017E-1
6.553278120E-1,-1.378983617E0,4.086217880E0,-5.576654673E-1
6.577910410E-1,-1.415202618E0,4.111783981E0,-6.311686635E-1
6.602542180E-1,-1.436507821E0,4.120306015E0,-7.089328766E-1
6.627174470E-1,-1.439703703E0,4.109653473E0,-7.866970897E-1
6.651806240E-1,-1.429051042E0,4.087283134E0,-8.687223792E-1
6.676438530E-1,-1.401354194E0,4.046802998E0,-9.443561435E-1
6.701070300E-1,-1.354482532E0,3.989278793E0,-1.021055102E0
6.725702600E-1,-1.293762565E0,3.924297571E0,-1.098819375E0
6.750334370E-1,-1.214933038E0,3.852925062E0,-1.170192003E0
6.774966660E-1,-1.130777240E0,3.791139841E0,-1.233042479E0
6.799598430E-1,-1.029577255E0,3.735745907E0,-1.286305666E0
6.824230720E-1,-9.113329649E-1,3.687809229E0,-1.334242582E0
6.848862490E-1,-7.877624035E-1,3.637741804E0,-1.375787854E0
6.873494780E-1,-6.641917825E-1,3.580217600E0,-1.412006855E0
6.898126550E-1,-5.395559669E-1,3.512040615E0,-1.443964720E0
6.922758850E-1,-4.202464521E-1,3.439602852E0,-1.467400551E0
6.947391140E-1,-3.105243146E-1,3.365034342E0,-1.487640500E0
6.972022910E-1,-2.103895396E-1,3.300053358E0,-1.500423670E0
6.996655200E-1,-1.241032034E-1,3.235072136E0,-1.506815314E0
7.021286970E-1,-5.273054540E-2,3.169025898E0,-1.511076331E0
7.045919260E-1,1.597895287E-3,3.115762711E0,-1.507880569E0
7.070551030E-1,4.527369887E-2,3.071021557E0,-1.502554178E0
7.095183330E-1,7.403581589E-2,3.024149895E0,-1.499358416E0
7.119815100E-1,9.321055561E-2,2.981539488E0,-1.491901517E0
7.144447390E-1,1.091895103E-1,2.948516369E0,-1.480183721E0
7.169079160E-1,1.166463569E-1,2.915493011E0,-1.468465805E0
7.193711450E-1,1.251684576E-1,2.892057419E0,-1.455682635E0
7.218343220E-1,1.326253116E-1,2.872882605E0,-1.438638449E0
7.242975510E-1,1.358211040E-1,2.854773045E0,-1.424789906E0
7.267607280E-1,1.422126740E-1,2.832402468E0,-1.405615211E0
7.292239580E-1,1.496695280E-1,2.815358400E0,-1.385375261E0
7.316871350E-1,1.549958438E-1,2.798314095E0,-1.364069939E0
7.341503640E-1,1.592568904E-1,2.782335281E0,-1.344895244E0
7.366135930E-1,1.603221595E-1,2.774878263E0,-1.321459413E0
7.390767700E-1,1.518000513E-1,2.765290976E0,-1.294827819E0
7.415399990E-1,1.379516274E-1,2.762095213E0,-1.269261479E0
7.440031760E-1,1.219726726E-1,2.759964705E0,-1.240499377E0
7.464664050E-1,9.640634805E-2,2.762095213E0,-1.213867784E0
7.489295830E-1,5.699159950E-2,2.773813009E0,-1.188301444E0
7.513928120E-1,9.054739960E-3,2.789792061E0,-1.173387766E0
7.538559890E-1,-4.953475296E-2,2.790857315E0,-1.165930986E0
7.563192180E-1,-1.145158261E-1,2.783400536E0,-1.170192003E0
7.587823950E-1,-1.922800690E-1,2.763160467E0,-1.188301444E0
7.612456240E-1,-2.796316743E-1,2.732267857E0,-1.223455191E0
7.637088010E-1,-3.691138029E-1,2.699244499E0,-1.271391988E0
7.661720300E-1,-4.607264698E-1,2.661960363E0,-1.328916192E0
7.686352080E-1,-5.491433740E-1,2.631067753E0,-1.393897295E0
7.710984370E-1,-6.226465106E-1,2.606566668E0,-1.467400551E0
7.735616660E-1,-6.823012829E-1,2.591653109E0,-1.545164704E0
7.760248430E-1,-7.281076312E-1,2.573543549E0,-1.622928977E0
7.784880720E-1,-7.590002418E-1,2.552238226E0,-1.704954267E0
7.809512490E-1,-7.749792337E-1,2.527737141E0,-1.783783793E0
7.834144780E-1,-7.803055048E-1,2.496844530E0,-1.862613320E0
7.858776550E-1,-7.749792337E-1,2.458495140E0,-1.936116457E0
7.883408850E-1,-7.579349875E-1,2.412688732E0,-2.001097441E0
7.908040620E-1,-7.281076312E-1,2.414819241E0,-2.046903849E0
7.932672910E-1,-6.727139354E-1,2.445711851E0,-2.084187984E0
7.957306240E-1,-6.014744043E-1,2.473408699E0,-2.112950087E0
7.981939580E-1,-5.130575299E-1,2.508562326E0,-2.138516426E0
8.006572910E-1,-4.097269773E-1,2.553303480E0,-2.153430223E0
8.031206240E-1,-3.042658865E-1,2.604436159E0,-2.168210745E0
8.055839580E-1,-1.881521642E-1,2.668351889E0,-2.184189796E0
8.080472390E-1,-7.629950345E-2,2.746116161E0,-2.205494881E0
8.105105720E-1,3.661843389E-2,2.834532976E0,-2.231061220E0
8.129739050E-1,1.495363712E-1,2.933602571E0,-2.257692814E0
8.154372390E-1,2.560627162E-1,3.039063692E0,-2.285389662E0
8.179005720E-1,3.508711755E-1,3.150916338E0,-2.310956001E0
8.203639050E-1,4.403533041E-1,3.256377459E0,-2.332261324E0
8.228272390E-1,5.255743861E-1,3.355447054E0,-2.348240376E0
8.252905200E-1,6.054691672E-1,3.450255394E0,-2.355697155E0
8.277538530E-1,6.811028719E-1,3.537606955E0,-2.356762409E0
8.302171870E-1,7.450186610E-1,3.618566990E0,-2.348240376E0
8.326805200E-1,8.110650182E-1,3.683548212E0,-2.331196070E0
8.351438530E-1,8.739155531E-1,3.735745907E0,-2.302433968E0
8.376071870E-1,9.314398170E-1,3.771965027E0,-2.273671865E0
8.400704680E-1,9.878987670E-1,3.784748077E0,-2.247040272E0
8.425338010E-1,1.049684048E0,3.780487061E0,-2.218278170E0
8.449971350E-1,1.109338760E0,3.764508247E0,-2.191646576E0
8.474604680E-1,1.163667202E0,3.741072416E0,-2.162884474E0
8.499238010E-1,1.220126152E0,3.713375568E0,-2.135187626E0
8.523871350E-1,1.277650476E0,3.679286957E0,-2.109621286E0
8.548504160E-1,1.330913663E0,3.649459600E0,-2.082989693E0
8.573137490E-1,1.385242105E0,3.616436481E0,-2.057423353E0
8.597770830E-1,1.433178902E0,3.584478617E0,-2.039313793E0
8.622404160E-1,1.483246326E0,3.551455498E0,-2.030791759E0
8.647037490E-1,1.526922107E0,3.512040615E0,-2.029726505E0
8.671670830E-1,1.555684209E0,3.473691225E0,-2.044640064E0
8.696304160E-1,1.576989532E0,3.440668106E0,-2.068075895E0
8.720936970E-1,1.587642074E0,3.416167021E0,-2.108556032E0
8.745570300E-1,1.586576819E0,3.401386499E0,-2.160753965E0
8.770203640E-1,1.569532633E0,3.397125483E0,-2.222539186E0
8.794836970E-1,1.537574768E0,3.403517008E0,-2.294977188E0
8.819470300E-1,1.488572598E0,3.410973787E0,-2.377002478E0
8.844103640E-1,1.427852631E0,3.419495821E0,-2.464354038E0
8.868736450E-1,1.351153612E0,3.418430567E0,-2.562358141E0
8.893369780E-1,1.262736797E0,3.422691822E0,-2.664623499E0
8.918003120E-1,1.170058846E0,3.432279110E0,-2.763693094E0
8.942636450E-1,1.076315641E0,3.455714941E0,-2.865958452E0
8.967269780E-1,9.868335128E-1,3.474889517E0,-2.968223572E0
8.991903120E-1,9.016124010E-1,3.488738060E0,-3.061966896E0
9.016535930E-1,8.302397728E-1,3.485542297E0,-3.141861677E0
9.041169260E-1,7.812376618E-1,3.462106466E0,-3.206842661E0
9.065802600E-1,7.524755001E-1,3.412039042E0,-3.251583815E0
9.090435930E-1,7.439534068E-1,3.348123312E0,-3.273954391E0
9.115069260E-1,7.514102459E-1,3.269293785E0,-3.269693136E0
9.139702600E-1,7.801723480E-1,3.178746462E0,-3.247322798E0
9.164335930E-1,8.217176795E-1,3.079676867E0,-3.213234186E0
9.188968740E-1,8.792418838E-1,2.974215746E0,-3.170623779E0
9.213602080E-1,9.452882409E-1,2.868754625E0,-3.122686863E0
9.238235410E-1,1.017726183E0,2.775011539E0,-3.075815201E0
9.262868740E-1,1.089098811E0,2.690855742E0,-3.028943777E0
9.287502080E-1,1.164732456E0,2.617352486E0,-2.978876352E0
9.312135410E-1,1.231844068E0,2.552371502E0,-2.924547911E0
9.336768220E-1,1.295759916E0,2.486325026E0,-2.870219469E0
9.361401550E-1,1.350088358E0,2.416017771E0,-2.818021536E0
9.386034890E-1,1.402286291E0,2.346775532E0,-2.765823603E0
9.410668220E-1,1.451288342E0,2.278598785E0,-2.722147703E0
9.435301550E-1,1.489637852E0,2.211487055E0,-2.704038382E0
9.459934890E-1,1.514138937E0,2.141179800E0,-2.711495161E0
9.484567700E-1,1.526922107E0,2.058089018E0,-2.746648788E0
9.509201030E-1,1.525856853E0,1.973933339E0,-2.798846722E0
9.533834370E-1,1.525856853E0,1.901495337E0,-2.861697197E0
9.558467700E-1,1.530117869E0,1.842905879E0,-2.933069944E0
9.583101030E-1,1.534379005E0,1.800295353E0,-3.005507946E0
9.607734370E-1,1.536509514E0,1.765141606E0,-3.074749947E0
9.632367700E-1,1.537574768E0,1.734248996E0,-3.141861677E0
9.657000510E-1,1.537574768E0,1.701225877E0,-3.211103678E0
9.681633850E-1,1.535444260E0,1.671398520E0,-3.271823645E0
9.706267180E-1,1.533313632E0,1.637310028E0,-3.330413342E0
9.730900510E-1,1.525856853E0,1.603221655E0,-3.386872292E0
9.755533850E-1,1.520530581E0,1.560611010E0,-3.427352190E0
9.780167180E-1,1.516269445E0,1.510543704E0,-3.456114292E0
9.804799990E-1,1.508812666E0,1.440236330E0,-3.471028090E0
9.829433330E-1,1.500290513E0,1.368863583E0,-3.465701818E0
9.854066660E-1,1.478985190E0,1.293229938E0,-3.455049038E0
9.878699990E-1,1.450223088E0,1.218661427E0,-3.448657513E0
9.903333330E-1,1.416134715E0,1.150484562E0,-3.427352190E0
9.927966660E-1,1.365002036E0,1.085503578E0,-3.393263817E0
9.952599470E-1,1.317065239E0,1.031175137E0,-3.343196392E0
9.977232800E-1,1.269128323E0,9.725856185E-1,-3.284606934E0
1.000186614E0,1.211604118E0,9.076045156E-1,-3.223886967E0
1.002649947E0,1.149818778E0,8.436887264E-1,-3.154644728E0
1.005113280E0,1.086968303E0,7.861644626E-1,-3.091794252E0
1.007576614E0,1.020921946E0,7.297055125E-1,-3.027878523E0
1.010039947E0,9.559408426E-1,6.764423251E-1,-2.967158318E0
1.012503228E0,8.845682144E-1,6.327665448E-1,-2.898981571E0
1.014966562E0,8.153260946E-1,5.954822898E-1,-2.827608824E0
1.017429895E0,7.439534068E-1,5.592633486E-1,-2.751975060E0
1.019893228E0,6.715154648E-1,5.187833309E-1,-2.667819262E0
1.022356562E0,6.034718156E-1,4.736427963E-1,-2.584995031E0
1.024819895E0,5.310338736E-1,4.278364778E-1,-2.496578217E0
1.027283176E0,4.617917240E-1,3.830953836E-1,-2.399639130E0
1.029746510E0,3.893538117E-1,3.330280185E-1,-2.299504519E0
1.032209843E0,3.179811537E-1,2.733732462E-1,-2.204695940E0
1.034673176E0,2.519348264E-1,2.169142812E-1,-2.102430820E0
1.037136510E0,1.880190074E-1,1.519332081E-1,-2.002295971E0
1.039599843E0,1.209074110E-1,8.588687330E-2,-1.906422257E0
1.042063124E0,5.060001835E-2,2.516685054E-2,-1.814809561E0
1.044526458E0,-1.757684723E-2,-2.703106217E-2,-1.730653763E0
1.046989791E0,-9.321055561E-2,-7.283739001E-2,-1.653954744E0
1.049453124E0,-1.741705835E-1,-1.122521460E-1,-1.583647370E0
1.051916458E0,-2.487390339E-1,-1.580584794E-1,-1.514405251E0
1.054379791E0,-3.254379928E-1,-1.900163740E-1,-1.441967368E0
1.056843124E0,-4.021369815E-1,-2.113216519E-1,-1.357811570E0
1.059306405E0,-4.735096395E-1,-2.283658683E-1,-1.266198874E0
1.061769739E0,-5.363602042E-1,-2.581932545E-1,-1.169259906E0
1.064233072E0,-5.917539001E-1,-3.103911579E-1,-1.075516701E0
1.066696405E0,-6.428865194E-1,-3.860248625E-1,-1.003078818E0
1.069159739E0,-6.940191984E-1,-4.850943685E-1,-9.583377242E-1
1.071623072E0,-7.387602329E-1,-5.937512517E-1,-9.349018931E-1
1.074086353E0,-7.856318355E-1,-7.013428807E-1,-9.221187234E-1
1.076549687E0,-8.282423615E-1,-8.046734333E-1,-9.146618843E-1
1.079013020E0,-8.676571250E-1,-9.026776552E-1,-9.114661217E-1
1.081476353E0,-9.028108120E-1,-1.000681877E0,-9.040092826E-1
1.083939687E0,-9.347687364E-1,-1.093359828E0,-8.858997822E-1
1.086403020E0,-9.614003301E-1,-1.183907270E0,-8.592681885E-1
1.088866301E0,-9.848361015E-1,-1.280846238E0,-8.145270944E-1
1.091329635E0,-1.005076170E0,-1.369263053E0,-7.580681443E-1
1.093792968E0,-1.022120357E0,-1.450223088E0,-6.834996939E-1
1.096256301E0,-1.040229797E0,-1.531183124E0,-5.940175653E-1
1.098719635E0,-1.058339357E0,-1.612143159E0,-4.896217585E-1
1.101182968E0,-1.081775069E0,-1.676059008E0,-3.830953836E-1
1.103646301E0,-1.106276155E0,-1.734648466E0,-2.627206147E-1
1.106109583E0,-1.138234019E0,-1.781520128E0,-1.402153075E-1
1.108572916E0,-1.166996241E0,-1.819869518E0,-1.984053291E-2
1.111036249E0,-1.198954105E0,-1.856088519E0,9.627319127E-2
1.113499583E0,-1.230911970E0,-1.892307520E0,2.059953362E-1
1.115962916E0,-1.268196225E0,-1.925330639E0,3.189132810E-1
1.118426249E0,-1.306545734E0,-1.946635962E0,4.339617193E-1
1.120889530E0,-1.342764616E0,-1.956223249E0,5.458143950E-1
1.123352864E0,-1.376853108E0,-1.979659081E0,6.587323546E-1
1.125816197E0,-1.414137363E0,-2.023334980E0,7.673892379E-1
1.128279530E0,-1.452486873E0,-2.080859184E0,8.600671291E-1
1.130742864E0,-1.492966771E0,-2.135187626E0,9.431576729E-1
1.133206197E0,-1.530251026E0,-2.174602270E0,1.025182962E0
1.135669478E0,-1.563274264E0,-2.198038101E0,1.109338760E0
1.138132812E0,-1.593101621E0,-2.219343424E0,1.197755694E0
1.140596145E0,-1.628255248E0,-2.258758068E0,1.288303018E0
1.143059478E0,-1.668735266E0,-2.320543528E0,1.373524189E0
1.145522812E0,-1.714541674E0,-2.412156105E0,1.454484224E0
1.147986145E0,-1.776326895E0,-2.524008751E0,1.534379005E0
1.150449478E0,-1.848764896E0,-2.652905703E0,1.611077905E0
1.152912760E0,-1.942507982E0,-2.797781467E0,1.686711669E0
1.155376093E0,-2.055425882E0,-2.956505775E0,1.759149551E0
1.157839426E0,-2.199236631E0,-3.126947880E0,1.816673756E0
1.160302760E0,-2.373939753E0,-3.304847002E0,1.860349536E0
1.162766093E0,-2.569948196E0,-3.499790192E0,1.886981130E0
1.165229426E0,-2.779805183E0,-3.695798635E0,1.897633791E0
1.167692708E0,-2.997118950E0,-3.898198605E0,1.897633791E0
1.170156041E0,-3.206975937E0,-4.102729321E0,1.893372774E0
1.172619374E0,-3.404049635E0,-4.300868511E0,1.891242266E0
1.175082708E0,-3.583013773E0,-4.497941971E0,1.899764299E0
1.177546041E0,-3.756651878E0,-4.693950653E0,1.917873859E0
1.180009374E0,-3.920702457E0,-4.889958858E0,1.944505453E0
1.182472655E0,-4.076231003E0,-5.105142117E0,1.967941165E0
1.184935989E0,-4.227498531E0,-5.301150799E0,1.991376996E0
1.187399322E0,-4.384091854E0,-5.487571716E0,2.007355928E0
1.189862655E0,-4.525772095E0,-5.714473248E0,2.002029657E0
1.192325989E0,-4.647212029E0,-5.961614132E0,1.982854843E0
1.194789322E0,-4.769717216E0,-6.197037220E0,1.951962233E0
1.197252655E0,-4.893288136E0,-6.399437428E0,1.925330639E0
1.199715937E0,-5.017923832E0,-6.570944786E0,1.901894808E0
1.202179270E0,-5.147885799E0,-6.711559772E0,1.872067451E0
1.204642603E0,-5.272521973E0,-6.817020893E0,1.845435858E0
1.207105937E0,-5.388635635E0,-6.847913265E0,1.833717942E0
1.209569270E0,-5.497292519E0,-6.781867027E0,1.859284282E0
1.212032603E0,-5.579317570E0,-6.642317772E0,1.918939114E0
1.214495885E0,-5.619797707E0,-6.508094311E0,1.973267555E0
1.216959218E0,-5.619797707E0,-6.349370003E0,1.984985471E0
1.219422551E0,-5.583578587E0,-6.117142677E0,2.005225420E0
1.221885885E0,-5.510075569E0,-5.827391148E0,2.006290674E0
1.224349218E0,-5.396092415E0,-5.497159481E0,1.967941165E0
1.226812551E0,-5.244824886E0,-5.087032795E0,1.938113809E0
1.229275833E0,-5.036033154E0,-4.600207329E0,1.912547469E0
1.231739166E0,-4.745216370E0,-4.119773388E0,1.872067451E0
1.234202499E0,-4.385157108E0,-3.749061823E0,1.823065400E0
1.236665833E0,-3.987813950E0,-3.495529175E0,1.757019043E0
1.239129166E0,-3.577687502E0,-3.336804867E0,1.671797991E0
1.241592499E0,-3.147320986E0,-3.154644728E0,1.571663141E0
1.244055833E0,-2.744651556E0,-2.999116182E0,1.485376835E0
1.246519114E0,-2.373939753E0,-2.955440521E0,1.419330478E0
1.248982447E0,-2.023468018E0,-2.968223572E0,1.355414629E0
1.251445780E0,-1.687910080E0,-3.020421505E0,1.280846238E0
1.253909114E0,-1.382179379E0,-3.084337473E0,1.175385118E0
1.256372447E0,-1.110537171E0,-3.126947880E0,1.028378725E0
1.258835780E0,-8.932234645E-1,-3.157840490E0,8.632629514E-1
1.261299062E0,-7.217160463E-1,-3.189798355E0,6.619281173E-1
1.263762395E0,-5.885580778E-1,-3.214299440E0,4.105259180E-1
1.266225728E0,-4.852275252E-1,-3.201516390E0,1.026647687E-1
1.268689062E0,-4.053327739E-1,-3.141861677E0,-2.467416674E-1
1.271152395E0,-3.637875021E-1,-3.067293167E0,-6.025396585E-1
1.273615728E0,-3.392864466E-1,-3.014029980E0,-9.721861482E-1
1.276079010E0,-3.446127474E-1,-2.954375267E0,-1.348224163E0
1.278542343E0,-3.637875021E-1,-2.876610994E0,-1.704022169E0
1.281005676E0,-3.840275109E-1,-2.796716213E0,-2.052363396E0
1.283469010E0,-3.936148584E-1,-2.696581364E0,-2.387921333E0
1.285932343E0,-3.797664344E-1,-2.569815159E0,-2.681934118E0
1.288395676E0,-3.531348705E-1,-2.434526682E0,-2.886464596E0
1.290859010E0,-3.190464377E-1,-2.290715933E0,-2.983403683E0
1.293322447E0,-2.934800982E-1,-2.114947557E0,-3.004709005E0
1.295785989E0,-2.689790428E-1,-1.884850621E0,-2.958902597E0
1.298249530E0,-2.412821949E-1,-1.590837955E0,-2.854506731E0
1.300713072E0,-1.890842766E-1,-1.274454594E0,-2.702174187E0
1.303176614E0,-1.209074110E-1,-9.570060968E-1,-2.515753031E0
1.305640155E0,-6.338317692E-2,-6.715154648E-1,-2.318679333E0
1.308103697E0,-1.970737427E-2,-4.126564562E-1,-2.120540142E0
1.310567239E0,2.396842837E-2,-2.358227074E-1,-1.940510631E0
1.313030780E0,9.747160971E-2,-1.655153185E-1,-1.790308475E0
1.315494322E0,1.645832211E-1,-1.420795172E-1,-1.662476897E0
1.317957864E0,1.933453232E-1,-1.452753097E-1,-1.536775827E0
1.320421353E0,1.826926917E-1,-2.251700759E-1,-1.388704181E0
1.322884895E0,1.539305747E-1,-3.902859092E-1,-1.232110381E0
1.325348437E0,1.230379343E-1,-5.788375735E-1,-1.076581955E0
1.327811978E0,1.315600425E-1,-7.759113312E-1,-9.743166566E-1
1.330275520E0,1.720400602E-1,-9.538103342E-1,-9.881650805E-1
1.332739062E0,1.422126740E-1,-1.024117708E0,-1.038232446E0
1.335202603E0,7.297055423E-2,-1.035835624E0,-1.042493463E0
1.337666145E0,1.091895103E-1,-1.101881981E0,-1.038232446E0
1.340129687E0,2.647179961E-1,-1.209473610E0,-1.058472514E0
1.342593228E0,4.277032912E-1,-1.279780984E0,-1.103213549E0
1.345056770E0,5.310338736E-1,-1.300020933E0,-1.160737753E0
1.347520312E0,5.757749081E-1,-1.321326256E0,-1.257676721E0
1.349983853E0,5.768402219E-1,-1.342631459E0,-1.366333604E0
1.352447395E0,5.331643820E-1,-1.324522018E0,-1.460076809E0
1.354910885E0,4.607264698E-1,-1.324522018E0,-1.541036844E0
1.357374426E0,3.787011802E-1,-1.288303018E0,-1.623062134E0
1.359837968E0,2.870885134E-1,-1.193494678E0,-1.699761152E0
1.362301510E0,2.135853320E-1,-1.170058846E0,-1.770068526E0
1.364765051E0,1.571263671E-1,-1.196690440E0,-1.843571663E0
1.367228593E0,1.070589870E-1,-1.182842016E0,-1.940510631E0
1.369692135E0,6.444844604E-2,-1.145557761E0,-2.017209530E0
1.372155676E0,4.740422592E-2,-1.182842016E0,-2.008687496E0
1.374619218E0,6.657896936E-2,-1.286172509E0,-1.961815953E0
1.377082760E0,1.070589870E-1,-1.338370442E0,-1.951163292E0
1.379546301E0,1.304947883E-1,-1.290433645E0,-1.987382293E0
1.382009843E0,1.422126740E-1,-1.273389339E0,-2.031058073E0
1.384473385E0,1.880190074E-1,-1.261671543E0,-2.002295971E0
1.386936926E0,1.858884841E-1,-1.029443979E0,-1.949032784E0
1.389400468E0,1.241032034E-1,-7.386270761E-1,-1.933053851E0
1.391863958E0,1.027979329E-1,-6.512755156E-1,-1.815874815E0
1.394327499E0,9.001477063E-2,-6.086649299E-1,-1.673129559E0
1.396791041E0,2.822948247E-2,-4.446143508E-1,-1.631584287E0
1.399254583E0,3.036000952E-2,-4.424838424E-1,-1.609213710E0
1.401718124E0,1.102547720E-1,-6.257091761E-1,-1.561276913E0
1.404181666E0,1.123853028E-1,-6.640586257E-1,-1.583647370E0
1.406645208E0,5.273054540E-2,-7.748460770E-1,-1.636910558E0
1.409108749E0,3.036000952E-2,-1.140231490E0,-1.640106320E0
1.411572291E0,-5.699159950E-2,-1.435309410E0,-1.647563219E0
1.414035833E0,-1.177116185E-1,-1.646231651E0,-1.626257896E0
1.416499374E0,-1.784316450E-1,-1.743170619E0,-1.621996880E0
1.418962916E0,-1.954758614E-1,-1.798564315E0,-1.599626303E0
1.421426458E0,-2.114548087E-1,-1.721865296E0,-1.587908387E0
1.423889999E0,-1.805621684E-1,-1.661145329E0,-1.554885268E0
1.426353489E0,-1.368863583E-1,-1.586576819E0,-1.510144234E0
1.428817030E0,-1.219726726E-1,-1.448092580E0,-1.474990487E0
1.431280572E0,-1.134505644E-1,-1.304282069E0,-1.433445215E0
1.433744114E0,-1.166463569E-1,-1.143427253E0,-1.406813622E0
1.436207655E0,-1.283642501E-1,-9.687240124E-1,-1.383377790E0
1.438671197E0,-1.283642501E-1,-8.281092048E-1,-1.331179976E0
1.441134739E0,-1.209074110E-1,-7.812376618E-1,-1.255546212E0
1.443598280E0,-7.936213166E-2,-8.291745186E-1,-1.189499855E0
1.446061822E0,-7.297055423E-2,-7.546060681E-1,-1.171390414E0
1.448525364E0,-1.091895103E-1,-6.086649299E-1,-1.180977821E0
1.450988905E0,-1.486042589E-1,-5.404880643E-1,-1.191630363E0
1.453452447E0,-2.231727093E-1,-4.446143508E-1,-1.211870432E0
1.455915989E0,-2.817622125E-1,-4.307659268E-1,-1.233175635E0
1.458379530E0,-2.711095810E-1,-5.660544038E-1,-1.236371517E0
1.460843072E0,-2.178463936E-1,-7.439534068E-1,-1.243828297E0
1.463306562E0,-1.326253116E-1,-8.835029602E-1,-1.251285195E0
1.465770103E0,-1.134505644E-1,-9.143955708E-1,-1.286438823E0
1.468233645E0,-1.848232150E-1,-6.949512959E-1,-1.359942079E0
1.470697187E0,-5.267727971E-1,-5.472791195E-2,-1.511209488E0
1.473160728E0,-1.024250865E0,4.587291181E-1,-1.658215880E0
1.475624270E0,-1.483379483E0,3.447459042E-1,-1.664607406E0
1.478087812E0,-1.772065878E0,-2.091911286E-1,-1.560211539E0
1.480551353E0,-2.004293203E0,-4.350270033E-1,-1.509078979E0
1.483014895E0,-2.104428053E0,-3.934817016E-1,-1.522927403E0
1.485478437E0,-2.001097441E0,-4.073301256E-1,-1.483512640E0
1.487941978E0,-1.765674233E0,-4.318312109E-1,-1.335440993E0
1.490405520E0,-1.501488924E0,-3.881554008E-1,-1.113866210E0
1.492869062E0,-1.254347801E0,-2.954774797E-1,-8.582029343E-1
1.495332603E0,-1.037034035E0,-1.910816431E-1,-6.195839047E-1
1.497796145E0,-8.239813447E-1,-1.090563536E-1,-4.289017320E-1
1.500259635E0,-5.928191543E-1,-7.816371322E-2,-3.042658865E-1
1.502723176E0,-3.478085399E-1,-6.964160502E-2,-2.786995769E-1
1.505186718E0,-8.681897819E-2,-4.940159619E-2,-3.628553748E-1
1.507650260E0,1.869537532E-1,-1.047952995E-1,-5.332975388E-1
1.510113801E0,4.266380370E-1,-1.399489939E-1,-7.378281355E-1
1.512577343E0,5.629917979E-1,-7.816371322E-2,-9.135966301E-1
1.515040885E0,6.311686635E-1,1.238368824E-2,-1.044624090E0
1.517504426E0,6.684528589E-1,3.368895873E-2,-1.146889329E0
1.519967968E0,6.599307656E-1,-5.579317734E-2,-1.242763042E0
1.522431510E0,6.439517736E-1,-2.059953362E-1,-1.349289417E0
1.524895051E0,6.375602484E-1,-3.540669680E-1,-1.484577894E0
1.527358593E0,6.886928678E-1,-6.278396845E-1,-1.642236829E0
1.529822135E0,1.129711986E0,-1.590837955E0,-1.722131610E0
1.532285676E0,1.857286930E0,-2.566619396E0,-1.723196864E0
1.534749166E0,2.182192326E0,-2.812695265E0,-1.892573833E0
1.537212708E0,2.135320663E0,-2.629469872E0,-2.099234819E0
1.539676249E0,1.757152200E0,-2.046770811E0,-2.253698111E0
1.542139791E0,1.204280376E0,-1.329848409E0,-2.182325602E0
1.544603333E0,5.864275694E-1,-7.024081349E-1,-1.862746477E0
1.547066874E0,2.183790132E-2,-2.890858948E-1,-1.483512640E0
1.549530416E0,-4.213117361E-1,-8.135949820E-2,-1.204413533E0
1.551993958E0,-7.195855379E-1,-8.775108308E-2,-1.019057751E0
1.554457499E0,-9.432908297E-1,-1.367532015E-1,-9.114661217E-1
1.556921041E0,-1.074318290E0,-2.219742835E-1,-8.230492473E-1
1.559384583E0,-1.171257257E0,-1.921469122E-1,-7.942871451E-1
1.561848124E0,-1.236238360E0,-7.283739001E-2,-7.729818225E-1
1.564311666E0,-1.229846716E0,3.901527822E-2,-7.580681443E-1
1.566775208E0,-1.160604596E0,1.466068923E-1,-7.953523993E-1
1.569238749E0,-1.054078221E0,2.382195592E-1,-8.443545103E-1
1.571702239E0,-8.996150494E-1,2.957437932E-1,-8.922913671E-1
1.574165780E0,-7.217160463E-1,3.404848576E-1,-9.487503171E-1
1.576629322E0,-5.629917979E-1,3.681817055E-1,-9.498155713E-1
1.579092864E0,-4.106590748E-1,3.575290740E-1,-8.795081973E-1
1.581556405E0,-2.828274667E-1,3.245058954E-1,-7.868302464E-1
1.584019947E0,-1.251684576E-1,2.659164071E-1,-7.165228724E-1
1.586483489E0,8.255792409E-2,1.881521642E-1,-7.080007792E-1
1.588947030E0,2.764358819E-1,2.158490270E-1,-7.570028901E-1
1.591410572E0,4.223769903E-1,2.808300853E-1,-8.198534250E-1
1.593874114E0,5.864275694E-1,2.243711352E-1,-8.922913671E-1
1.596337655E0,8.282423615E-1,-6.218475848E-2,-9.636639953E-1
1.598801197E0,1.178714037E0,-5.266396403E-1,-9.562071562E-1
1.601264739E0,1.323589921E0,-7.364965677E-1,-1.029710412E0
1.603728280E0,1.172322512E0,-6.395576000E-1,-1.217196703E0
1.606191770E0,8.964192271E-1,-4.190480411E-1,-1.308809400E0
1.608655312E0,6.439517736E-1,-2.390184999E-1,-1.306678891E0
1.611118853E0,4.564654231E-1,-9.520792961E-2,-1.287504077E0
1.613582395E0,3.254379928E-1,-4.407527670E-2,-1.283243060E0
1.616045937E0,2.668485045E-1,-2.063948102E-2,-1.261937857E0
1.618509478E0,1.816274375E-1,5.499422923E-2,-1.249154687E0
1.620973020E0,1.241032034E-1,9.440898150E-2,-1.184173584E0
1.623436562E0,6.924212910E-3,2.083921731E-1,-1.126649380E0
1.625900103E0,-5.912212655E-2,2.744385302E-1,-1.105344057E0
1.628363645E0,4.042675197E-1,-3.994738217E-4,-1.298156738E0
1.630827187E0,1.205345631E0,-4.829638600E-1,-1.812679052E0
1.633290728E0,1.464204669E0,-2.347574532E-1,-2.011883259E0
1.635754270E0,1.299088836E0,5.179844052E-2,-1.782851696E0
1.638217812E0,9.645960927E-1,9.334371984E-2,-1.455815792E0
1.640681353E0,5.992107391E-1,1.029310897E-1,-1.163933516E0
1.643144843E0,2.551306188E-1,1.114531979E-1,-9.870998263E-1
1.645608385E0,-3.355580196E-2,3.368895873E-2,-8.997482061E-1
1.648071926E0,-2.071937621E-1,-1.324921548E-1,-8.422240019E-1
1.650535468E0,-3.222422302E-1,-2.933469415E-1,-8.102660775E-1
1.652999010E0,-4.223769903E-1,-4.083954096E-1,-7.612639666E-1
1.655462551E0,-5.438170433E-1,-4.190480411E-1,-6.558028460E-1
1.657926093E0,-6.482128501E-1,-3.956122398E-1,-4.906870127E-1
1.660389635E0,-7.227813005E-1,-3.870901465E-1,-3.117227256E-1
1.662853176E0,-7.717834115E-1,-3.721764386E-1,-1.444763690E-1
1.665316718E0,-7.824360728E-1,-3.593932688E-1,-1.731053228E-3
1.667780260E0,-7.526086569E-1,-3.593932688E-1,1.101216152E-1
1.670243801E0,-7.068023682E-1,-3.540669680E-1,1.921469122E-1
1.672707343E0,-6.524739265E-1,-3.455448449E-1,2.507364154E-1
1.675170885E0,-5.853623152E-1,-3.157174885E-1,2.890858948E-1
1.677634374E0,-5.161201954E-1,-2.645848393E-1,3.093259037E-1
1.680097916E0,-4.511390924E-1,-2.049300671E-1,3.125216961E-1
1.682561458E0,-3.914843500E-1,-1.623195261E-1,3.008037806E-1
1.685024999E0,-3.542001247E-1,-1.239700392E-1,2.848248482E-1
1.687488541E0,-3.414169550E-1,-8.562055230E-2,2.645848393E-1
1.689952083E0,-3.424822092E-1,-4.194474965E-2,2.592585087E-1
1.692415624E0,-3.605917096E-1,-3.994738217E-4,2.635195553E-1
1.694879166E0,-3.978759348E-1,3.795001283E-2,2.794985175E-1
1.697342708E0,-4.468780458E-1,6.777739525E-2,3.082606196E-1
1.699806249E0,-5.075980425E-1,1.008005589E-1,3.530017138E-1
1.702269791E0,-5.736443996E-1,1.519332081E-1,4.126564562E-1
1.704733333E0,-6.396907568E-1,2.265016586E-1,4.787027836E-1
1.707196874E0,-7.110633850E-1,3.308974802E-1,5.564670563E-1
1.709660416E0,-7.920234203E-1,4.896217585E-1,6.619281173E-1
1.712123958E0,-8.612655401E-1,6.568681002E-1,7.876292467E-1
1.714587447E0,-9.230508208E-1,7.910913229E-1,9.122650623E-1
1.717050989E0,-9.976192713E-1,8.677902818E-1,1.037966132E0
1.719514530E0,-1.096688747E0,8.688555360E-1,1.126383066E0
1.721978072E0,-1.219194055E0,8.241145015E-1,1.160471439E0
1.724441614E0,-1.380048871E0,8.017439842E-1,1.177515626E0
1.726905155E0,-1.570731044E0,8.006786704E-1,1.175385118E0
1.729368697E0,-1.768870115E0,8.219839931E-1,1.156210423E0
1.731832239E0,-1.947834373E0,8.582029343E-1,1.115730405E0
1.734295780E0,-2.090579748E0,9.061397910E-1,1.061401963E0
1.736759322E0,-2.186453342E0,9.498155713E-1,9.900292754E-1
1.739222864E0,-2.248238564E0,9.881650805E-1,9.048082232E-1
1.741686405E0,-2.289783955E0,1.039297700E0,8.078691959E-1
1.744149947E0,-2.295110226E0,1.098952532E0,7.034733891E-1
1.746613489E0,-2.226933479E0,1.153280973E0,6.129260063E-1
1.749077030E0,-2.104428053E0,1.183108330E0,5.287702084E-1
1.751540520E0,-1.958487034E0,1.224653602E0,4.478101432E-1
1.754004062E0,-1.781653285E0,1.292830467E0,3.625890613E-1
1.756467603E0,-1.594166875E0,1.357811570E0,2.667153478E-1
1.758931145E0,-1.405615211E0,1.391899943E0,1.751026958E-1
1.761394687E0,-1.234107852E0,1.418531537E0,1.005342454E-1
1.763858228E0,-1.090297222E0,1.432379961E0,5.579317734E-2
1.766321770E0,-9.656614065E-1,1.432379961E0,4.194474965E-2
1.768785312E0,-8.559392691E-1,1.437706232E0,5.685843900E-2
1.771248853E0,-7.643265724E-1,1.459011555E0,8.242476732E-2
1.773712395E0,-6.908233762E-1,1.444097877E0,1.090563536E-1
1.776175937E0,-6.269075871E-1,1.415335774E0,1.314268857E-1
1.778639478E0,-5.661875606E-1,1.430249453E0,1.484711021E-1
1.781103020E0,-5.086633563E-1,1.482447386E0,1.580584794E-1
1.783566562E0,-4.426169991E-1,1.551689506E0,1.580584794E-1
1.786030051E0,-3.712443411E-1,1.623062134E0,1.601890028E-1
1.788493593E0,-3.073285222E-1,1.666737914E0,1.644500494E-1
1.790957135E0,-2.593916655E-1,1.681651592E0,1.665805876E-1
1.793420520E0,-2.146506011E-1,1.680586338E0,1.708416343E-1
1.795883801E0,-1.816274375E-1,1.660346389E0,1.719069034E-1
1.798347083E0,-1.624526829E-1,1.608148456E0,1.804290116E-1
1.800810364E0,-1.464737356E-1,1.531449437E0,1.910816431E-1
1.803273645E0,-1.486042589E-1,1.455815792E0,1.964079589E-1
1.805736926E0,-1.784316450E-1,1.408944130E0,1.868205965E-1
1.808200208E0,-2.370211333E-1,1.416401029E0,1.644500494E-1
1.810663489E0,-2.966758907E-1,1.456881046E0,1.346226782E-1
1.813126770E0,-3.350253701E-1,1.499491572E0,1.069258228E-1
1.815590051E0,-3.637875021E-1,1.506948471E0,7.496792078E-2
1.818053333E0,-3.968106508E-1,1.488838911E0,1.850895397E-2
1.820516614E0,-4.319643676E-1,1.439836860E0,-4.753738642E-2
1.822979895E0,-4.692485929E-1,1.330114722E0,-1.231710985E-1
1.825443176E0,-5.384907126E-1,1.231045127E0,-2.062616497E-1
1.827906458E0,-6.386255026E-1,1.146889329E0,-3.053311706E-1
1.830369739E0,-7.728486657E-1,1.093626142E0,-4.246406853E-1
1.832833020E0,-9.049413800E-1,1.076581955E0,-5.482112169E-1
1.835296301E0,-9.528782368E-1,1.066994548E0,-6.302365065E-1
1.837759583E0,-9.390298128E-1,1.090430379E0,-6.941523552E-1
1.840222864E0,-9.219855666E-1,1.144758821E0,-7.538071275E-1
1.842686145E0,-9.102677107E-1,1.193760991E0,-7.985481620E-1
1.845149426E0,-8.815055490E-1,1.218261957E0,-8.028092384E-1
1.847612708E0,-8.527434468E-1,1.227849364E0,-7.910913229E-1
1.850075989E0,-8.239813447E-1,1.211870432E0,-7.825692296E-1
1.852539270E0,-7.845665812E-1,1.193760991E0,-7.687208056E-1
1.855002551E0,-7.632613182E-1,1.208674669E0,-7.612639666E-1
1.857465833E0,-7.430213094E-1,1.234241009E0,-7.399587035E-1
1.859929114E0,-7.291728854E-1,1.294960976E0,-7.111965418E-1
1.862392395E0,-7.302381396E-1,1.418531537E0,-6.749776006E-1
1.864855676E0,-7.313033938E-1,1.519731522E0,-6.227796674E-1
1.867318958E0,-7.398255467E-1,1.660346389E0,-5.556681156E-1
1.869782239E0,-7.451518178E-1,1.816940069E0,-4.683164656E-1
1.872245520E0,-7.494128942E-1,1.977794886E0,-3.617901206E-1
1.874708801E0,-7.398255467E-1,2.138649702E0,-2.520679832E-1
1.877172135E0,-7.227813005E-1,2.271807671E0,-1.263668835E-1
1.879635416E0,-6.865623593E-1,2.385790825E0,5.725791678E-3
1.882098697E0,-6.343644261E-1,2.505100250E0,1.314268857E-1
1.884561978E0,-5.672528148E-1,2.614822388E0,2.528669238E-1
1.887025260E0,-4.990759492E-1,2.704304695E0,3.572627604E-1
1.889488541E0,-4.277032912E-1,2.804439306E0,4.467448890E-1
1.891951822E0,-3.659180105E-1,2.889660358E0,5.245091319E-1
1.894415103E0,-3.009369373E-1,2.995121479E0,6.033385992E-1
1.896878385E0,-2.498043031E-1,3.082473278E0,7.077344656E-1
1.899341666E0,-2.306295484E-1,3.128279448E0,8.302397728E-1
1.901804947E0,-2.242379785E-1,3.162367821E0,9.783113599E-1
1.904268228E0,-2.338253409E-1,3.133605719E0,1.114665151E0
1.906731510E0,-2.284990251E-1,3.049449921E0,1.232909322E0
1.909194791E0,-2.370211333E-1,2.884334087E0,1.313869357E0
1.911658072E0,-2.508695722E-1,2.691521406E0,1.370328307E0
1.914121353E0,-2.860232592E-1,2.520014048E0,1.415069461E0
1.916584635E0,-3.488737941E-1,2.346376181E0,1.452353716E0
1.919047916E0,-4.383559525E-1,2.150367498E0,1.500290513E0
1.921511197E0,-5.480780602E-1,1.975664377E0,1.541835785E0
1.923974478E0,-6.514086723E-1,1.822266459E0,1.554618955E0
1.926437760E0,-7.579349875E-1,1.668868423E0,1.547162056E0
1.928901041E0,-8.740487099E-1,1.517601013E0,1.516269445E0
1.931364322E0,-9.869666696E-1,1.407878876E0,1.457679987E0
1.933827603E0,-1.071122527E0,1.307744145E0,1.363936782E0
1.936290885E0,-1.132907748E0,1.198022008E0,1.230778813E0
1.938754166E0,-1.189366698E0,1.100017786E0,1.034770370E0
1.941217447E0,-1.253282547E0,1.029710412E0,7.982818484E-1
1.943680728E0,-1.288436174E0,9.966871738E-1,5.639238954E-1
1.946144010E0,-1.288436174E0,1.043558836E0,3.498059213E-1
1.948607291E0,-1.285240412E0,1.137301922E0,1.868205965E-1
1.951070572E0,-1.305480480E0,1.212935686E0,1.026647687E-1
1.953533853E0,-1.336373091E0,1.257676721E0,1.250353009E-1
1.955997135E0,-1.343829989E0,1.265133619E0,1.772332191E-1
1.958460416E0,-1.340634108E0,1.249154687E0,2.336921841E-1
1.960923697E0,-1.359808922E0,1.198022008E0,3.029343188E-1
1.963386978E0,-1.397093058E0,1.089365125E0,3.711111844E-1
1.965850260E0,-1.458878398E0,9.338366389E-1,4.147869945E-1
1.968313541E0,-1.537707925E0,7.900260687E-1,4.201132953E-1
1.970776822E0,-1.573926806E0,5.748428106E-1,3.934817016E-1
1.973240103E0,-1.552621603E0,3.053311706E-1,3.125216961E-1
1.975703385E0,-1.520663738E0,1.344895177E-2,2.006690204E-1
1.978166666E0,-1.475922585E0,-2.699111402E-1,8.668582141E-2
1.980629947E0,-1.441834211E0,-5.607280731E-1,-1.557947882E-2
1.983093228E0,-1.431181550E0,-8.430229425E-1,-6.564686447E-2
1.985556510E0,-1.410941482E0,-1.050749302E0,-9.973529726E-2
1.988019791E0,-1.358743668E0,-1.146623015E0,-1.572595239E-1
1.990483072E0,-1.260739326E0,-1.182842016E0,-2.243711352E-1
1.992946353E0,-1.162735105E0,-1.161536694E0,-2.968090475E-1
1.995409635E0,-1.059404612E0,-1.082707167E0,-3.617901206E-1
1.997872916E0,-9.028108120E-1,-9.953556061E-1,-3.767038286E-1
2.000336249E0,-7.153244615E-1,-9.175913930E-1,-3.447459042E-1
2.002799530E0,-5.555348992E-1,-8.494145274E-1,-2.755037844E-1
2.005262812E0,-4.159854054E-1,-7.620629072E-1,-1.711079478E-1
2.007726093E0,-3.030674756E-1,-6.587323546E-1,-4.221106693E-2
2.010189374E0,-1.912147999E-1,-5.522059798E-1,9.840371460E-2
2.012652655E0,-7.190528512E-2,-4.414185584E-1,2.368879765E-1
2.015115937E0,4.420843720E-2,-3.700459301E-1,3.870901465E-1
2.017579218E0,1.315600425E-1,-3.114564121E-1,5.554017425E-1
2.020042499E0,1.922800690E-1,-2.304963917E-1,7.343660593E-1
2.022505780E0,2.295642942E-1,-1.388837248E-1,9.303745031E-1
2.024969062E0,2.370211333E-1,-5.153212324E-2,1.129578829E0
2.027432343E0,2.295642942E-1,-2.916158922E-2,1.326652527E0
2.029895624E0,2.231727093E-1,3.368895873E-2,1.504551530E0
2.032358905E0,2.370211333E-1,1.178447753E-1,1.657949567E0
2.034822187E0,2.540653646E-1,1.806953251E-1,1.779389501E0
2.037285468E0,2.668485045E-1,2.531332374E-1,1.873132706E0
2.039748749E0,2.498043031E-1,3.298322260E-1,1.930657029E0
2.042212030E0,2.157158703E-1,4.491417408E-1,1.938113809E0
2.044675312E0,1.880190074E-1,6.451502442E-1,1.892307520E0
2.047138593E0,1.635179520E-1,8.890955448E-1,1.813477993E0
2.049601874E0,1.336905658E-1,1.144758821E0,1.714408517E0
2.052065155E0,6.977476180E-2,1.330114722E0,1.605751634E0
2.054528437E0,-1.864211261E-2,1.410009384E0,1.525856853E0
2.056991718E0,-1.358211040E-1,1.400422096E0,1.456614733E0
2.059454999E0,-3.041327298E-1,1.348224163E0,1.375654697E0
2.061918280E0,-4.937496483E-1,1.301352501E0,1.293629408E0
2.064381562E0,-6.673876047E-1,1.257676721E0,1.204147220E0
2.066844843E0,-8.111981750E-1,1.203348279E0,1.104012489E0
2.069308124E0,-9.166592360E-1,1.182043076E0,1.000681877E0
2.071771405E0,-9.901624322E-1,1.209739923E0,8.994818926E-1
2.074234687E0,-1.038099289E0,1.296026230E0,7.972165942E-1
2.076697968E0,-1.043425679E0,1.460076809E0,6.768417954E-1
2.079161249E0,-9.997498393E-1,1.683782101E0,5.383575559E-1
2.081624530E0,-9.028108120E-1,1.936249614E0,3.870901465E-1
2.084087812E0,-7.472823858E-1,2.192978144E0,2.326269150E-1
2.086551093E0,-5.203812122E-1,2.426270723E0,7.390265912E-2
2.089014374E0,-2.359558642E-1,2.621214151E0,-8.375634253E-2
2.091477655E0,6.870950013E-2,2.772481441E0,-2.328932434E-1
2.093940937E0,3.627222180E-1,2.897117376E0,-3.596596122E-1
2.096404218E0,6.183854938E-1,2.983403683E0,-4.736427963E-1
2.098867499E0,8.207855225E-1,3.023883581E0,-5.641902089E-1
2.101330780E0,9.848361015E-1,3.011100531E0,-6.366280913E-1
2.103794062E0,1.114798307E0,2.918422699E0,-6.888260245E-1
2.106257343E0,1.204280376E0,2.739458323E0,-7.282407880E-1
2.108720624E0,1.261804700E0,2.488056183E0,-7.559376359E-1
2.111183905E0,1.275653124E0,2.201500177E0,-7.772428989E-1
2.113647187E0,1.268196225E0,1.904291749E0,-7.942871451E-1
2.116110468E0,1.241564631E0,1.634780049E0,-8.070702553E-1
2.118573749E0,1.207476258E0,1.416401029E0,-8.177229166E-1
2.121037030E0,1.177648783E0,1.257676721E0,-8.315713406E-1
2.123500312E0,1.160604596E0,1.160737753E0,-8.443545103E-1
2.125963645E0,1.152082443E0,1.127714634E0,-8.592681885E-1
2.128426926E0,1.157408834E0,1.149019837E0,-8.784429431E-1
2.130890208E0,1.171257257E0,1.198022008E0,-9.040092826E-1
2.133353489E0,1.174453020E0,1.269394636E0,-9.306408763E-1
2.135816770E0,1.160604596E0,1.338636756E0,-9.636639953E-1
2.138280051E0,1.131842494E0,1.385508418E0,-9.966871738E-1
2.140743333E0,1.095623493E0,1.411074638E0,-1.038232446E0
2.143206614E0,1.059404612E0,1.425988436E0,-1.081908226E0
2.145669895E0,1.024250865E0,1.432379961E0,-1.125584126E0
2.148133176E0,9.933582544E-1,1.412140012E0,-1.163933516E0
2.150596458E0,9.667266607E-1,1.367398858E0,-1.202283025E0
2.153059739E0,9.518129826E-1,1.297091484E0,-1.245958805E0
2.155523020E0,9.507476687E-1,1.198022008E0,-1.292830467E0
2.157986301E0,9.709876776E-1,1.077647209E0,-1.349289417E0
2.160449583E0,1.002945662E0,9.551419020E-1,-1.407878876E0
2.162912864E0,1.054078221E0,8.294408321E-1,-1.464337826E0
2.165376145E0,1.130777240E0,7.186533809E-1,-1.520796895E0
2.167839426E0,1.228781462E0,6.408891678E-1,-1.579386353E0
2.170302708E0,1.352352023E0,6.068007350E-1,-1.635845304E0
2.172765989E0,1.503619432E0,5.961480737E-1,-1.683782101E0
2.175229270E0,1.670865893E0,6.089312434E-1,-1.717870593E0
2.177692551E0,1.870070100E0,6.195839047E-1,-1.732784271E0
2.180155833E0,2.086318731E0,6.366280913E-1,-1.727458000E0
2.182619114E0,2.301501751E0,6.685860157E-1,-1.685912728E0
2.185082395E0,2.519880772E0,6.994786859E-1,-1.591104269E0
2.187545676E0,2.735064030E0,7.197186947E-1,-1.437706232E0
2.190008958E0,2.926811457E0,6.973481178E-1,-1.218261957E0
2.192472239E0,3.098319054E0,6.376934052E-1,-9.391629696E-1
2.194935520E0,3.245325327E0,5.514070392E-1,-5.993438959E-1
2.197398801E0,3.358243227E0,4.491417408E-1,-2.328932434E-1
2.199862083E0,3.441333771E0,3.266364336E-1,1.239700392E-1
2.202325364E0,3.487140179E0,1.988048106E-1,4.424838424E-1
2.204788645E0,3.477552891E0,5.925528333E-2,7.034733891E-1
2.207251926E0,3.395527601E0,-1.292963624E-1,8.962860703E-1
2.209715208E0,3.236803293E0,-3.561974764E-1,1.021987200E0
2.212178489E0,2.976878881E0,-5.213133097E-1,1.079511404E0
2.214641770E0,2.607232571E0,-6.352965236E-1,1.085903049E0
2.217105051E0,2.143842936E0,-7.077344656E-1,1.062467217E0
2.219568333E0,1.619733214E0,-7.056038976E-1,1.024117708E0
2.222031614E0,1.078579307E0,-6.736460328E-1,9.815071821E-1
2.224494895E0,5.747096539E-1,-6.587323546E-1,9.325050712E-1
2.226958176E0,1.507347822E-1,-7.173218131E-1,8.739155531E-1
2.229421458E0,-1.763011068E-1,-8.994818926E-1,7.972165942E-1
2.231884739E0,-4.053327739E-1,-1.251018882E0,6.928207874E-1
2.234348020E0,-5.310338736E-1,-1.753823280E0,5.713807344E-1
2.236811301E0,-5.683180690E-1,-2.343979120E0,4.659196436E-1
2.239274583E0,-5.225117803E-1,-2.952244759E0,3.988080323E-1
2.241737864E0,-4.085285664E-1,-3.507246971E0,3.806985617E-1
2.244201145E0,-2.348906100E-1,-3.968506098E0,3.924164474E-1
2.246664426E0,-1.864211261E-2,-4.271040916E0,4.158522487E-1
2.249127760E0,2.316948175E-1,-4.410590649E0,4.765722752E-1
2.251591041E0,5.150549412E-1,-4.445744038E0,6.757765412E-1
2.254054322E0,7.909581661E-1,-4.469180107E0,1.124252439E0
2.256517603E0,1.016794086E0,-4.517117023E0,1.817739010E0
2.258980885E0,1.169126749E0,-4.539487362E0,2.673145771E0
2.261444166E0,1.262869954E0,-4.534161091E0,3.634013414E0
2.263907447E0,1.309741497E0,-4.599142075E0,4.623643398E0
2.266370728E0,1.348091006E0,-4.787693977E0,5.553618431E0
2.268834010E0,1.414137363E0,-5.121121407E0,6.284389019E0
2.271297291E0,1.535577416E0,-5.551487923E0,6.738191128E0
2.273760572E0,1.693236351E0,-5.988245964E0,6.931004047E0
2.276223853E0,1.850895405E0,-6.339782715E0,6.913959980E0
2.278687135E0,2.006423950E0,-6.569879532E0,6.749909401E0
2.281150416E0,2.138516426E0,-6.742452145E0,6.468679428E0
2.283613697E0,2.229063988E0,-6.876675606E0,6.095837593E0
2.286076978E0,2.269543886E0,-7.017290115E0,5.653752804E0
2.288540260E0,2.249303818E0,-7.199450493E0,5.173319340E0
2.291003541E0,2.165148020E0,-7.416764259E0,4.676906109E0
2.293466926E0,2.014945984E0,-7.639404297E0,4.175167084E0
2.295930364E0,1.755021691E0,-7.722494602E0,3.657449245E0
2.298393801E0,9.720529914E-1,-7.067357540E0,3.063032150E0
2.300857239E0,-7.387602329E-1,-5.152013779E0,2.335457087E0
2.303320624E0,-2.112950087E0,-3.469962835E0,1.687776923E0
2.305784062E0,-2.617885113E0,-2.761562586E0,1.206277728E0
2.308247499E0,-2.738259792E0,-2.426004410E0,7.759113312E-1
2.310710937E0,-2.698845148E0,-2.009486437E0,3.231743276E-1
2.313174374E0,-2.557165146E0,-1.388437867E0,-1.316931993E-1
2.315637812E0,-2.284457684E0,-6.310355067E-1,-5.940175653E-1
2.318101249E0,-1.964878559E0,2.424806058E-1,-1.073386192E0
2.320564687E0,-1.633581638E0,1.102148294E0,-1.455815792E0
2.323028124E0,-1.350221515E0,1.805222154E0,-1.617735863E0
2.325491562E0,-1.149951935E0,2.286721230E0,-1.576190591E0
2.327954947E0,-1.004010916E0,2.577538252E0,-1.415335774E0
2.330418385E0,-9.028108120E-1,2.735197306E0,-1.185238838E0
2.332881822E0,-8.207855225E-1,2.765024662E0,-9.210534692E-1
2.335345260E0,-7.526086569E-1,2.669150829E0,-6.440849304E-1
2.337808697E0,-6.972149611E-1,2.469946623E0,-3.862911761E-1
2.340272135E0,-6.471475959E-1,2.154628754E0,-1.711079478E-1
2.342735572E0,-6.141244173E-1,1.727458000E0,-1.771000586E-2
2.345199010E0,-5.789707303E-1,1.215066195E0,6.964160502E-2
2.347662447E0,-5.310338736E-1,6.579334140E-1,1.090563536E-1
2.350125885E0,-4.671180546E-1,8.695213497E-2,1.143826693E-1
2.352589270E0,-3.797664344E-1,-4.488754272E-1,1.058605611E-1
2.355052708E0,-2.700442970E-1,-9.058734775E-1,9.094687551E-2
2.357516145E0,-1.368863583E-1,-1.261671543E0,8.349002898E-2
2.359979583E0,6.924212910E-3,-1.488572598E0,7.922897488E-2
2.362443020E0,1.464737356E-1,-1.591903210E0,9.201213717E-2
2.364906458E0,2.753706276E-1,-1.589772701E0,1.143826693E-1
2.367369895E0,3.829622269E-1,-1.483246326E0,1.420795172E-1
2.369833333E0,4.213117361E-1,-1.232909322E0,1.708416343E-1
2.372296770E0,3.201116920E-1,-7.684544921E-1,2.027995437E-1
2.374760208E0,9.853687882E-2,-1.569932103E-1,2.241048068E-1
2.377223593E0,-1.390168965E-1,4.331627786E-1,2.262353450E-1
2.379687030E0,-3.126548529E-1,8.731166124E-1,2.027995437E-1
2.382150468E0,-4.010717273E-1,1.150085092E0,1.655153185E-1
2.384613905E0,-4.436822534E-1,1.317331553E0,1.303616166E-1
2.387077343E0,-4.426169991E-1,1.399356842E0,1.037300378E-1
2.389540780E0,-4.138548672E-1,1.425988436E0,8.349002898E-2
2.392004218E0,-3.648527563E-1,1.416401029E0,7.816371322E-2
2.394467655E0,-2.860232592E-1,1.365268350E0,7.496792078E-2
2.396931093E0,-1.805621684E-1,1.290699959E0,7.496792078E-2
2.399394530E0,-7.084002346E-2,1.222523093E0,9.307739884E-2
2.401857968E0,3.142527491E-2,1.180977821E0,1.261005700E-1
2.404321353E0,1.123853028E-1,1.163933516E0,1.655153185E-1
2.406784791E0,1.816274375E-1,1.163933516E0,2.070605904E-1
2.409248228E0,2.242379785E-1,1.177781940E0,2.507364154E-1
2.411711666E0,2.508695722E-1,1.174586177E0,2.954774797E-1
2.414175103E0,2.753706276E-1,1.170325160E0,3.434143364E-1
2.416638541E0,2.977411449E-1,1.160737753E0,3.956122398E-1
2.419101978E0,2.828274667E-1,1.156476736E0,4.435490966E-1
2.421565416E0,2.274337560E-1,1.152215719E0,4.946817458E-1
2.424028853E0,1.709747910E-1,1.130910397E0,5.383575559E-1
2.426492291E0,1.294295192E-1,1.086169362E0,5.703154802E-1
2.428955676E0,1.113200411E-1,1.006274581E0,5.884249210E-1
2.431419114E0,1.262337267E-1,9.050745368E-1,6.097301841E-1
2.433882551E0,1.581916362E-1,7.964176536E-1,6.363617778E-1
2.436345989E0,2.167811245E-1,6.653902531E-1,6.608628631E-1
2.438809426E0,3.126548529E-1,5.130575299E-1,7.045386434E-1
2.441272864E0,4.330296218E-1,3.500722349E-1,7.631281614E-1
2.443736301E0,5.491433740E-1,1.956090182E-1,8.185218573E-1
2.446199739E0,6.503433585E-1,7.310371101E-2,8.824376464E-1
2.448663176E0,7.110633850E-1,3.368895873E-2,9.463534951E-1
2.451126614E0,7.238465548E-1,3.049316816E-2,1.006008267E0
2.453589999E0,6.961497068E-1,-3.994738217E-4,1.052879810E0
2.456053437E0,6.279728413E-1,-8.988160640E-2,1.083772421E0
2.458516874E0,4.852275252E-1,-2.145174444E-1,1.084837794E0
2.460980312E0,3.083937764E-1,-3.061301112E-1,1.026248217E0
2.463443749E0,1.432779431E-1,-4.328964651E-1,9.335703254E-1
2.465907187E0,-2.290316671E-2,-5.905554891E-1,8.462187052E-1
2.468370624E0,-2.114548087E-1,-7.428881526E-1,7.588670850E-1
2.470834062E0,-3.115895689E-1,-8.909597993E-1,6.811028719E-1
2.473297499E0,-3.201116920E-1,-1.006008267E0,6.225133538E-1
2.475760937E0,-2.732400894E-1,-1.105077744E0,5.681849122E-1
2.478224322E0,-1.986716539E-1,-1.206277728E0,5.053343773E-1
2.480687760E0,-1.177116185E-1,-1.286172509E0,4.414185584E-1
2.483151197E0,-3.355580196E-2,-1.314934611E0,3.806985617E-1
2.485614635E0,5.486107245E-2,-1.289368391E0,3.253048360E-1
2.488078072E0,1.486042589E-1,-1.216930389E0,2.688458860E-1
2.490541510E0,2.253032327E-1,-1.109338760E0,2.113216519E-1
2.493004947E0,2.828274667E-1,-9.847029448E-1,1.559279412E-1
2.495468385E0,3.243727386E-1,-8.483492136E-1,1.101216152E-1
2.497931822E0,3.435474932E-1,-7.141260505E-1,6.751107424E-2
2.500395260E0,3.339601159E-1,-5.703154802E-1,2.490053512E-2
2.502858645E0,3.041327298E-1,-4.275701344E-1,-1.451421529E-2
2.505322083E0,2.540653646E-1,-2.933469415E-1,-5.179844052E-2
2.507785520E0,1.816274375E-1,-1.676458418E-1,-8.269108087E-2
2.510248958E0,1.049284562E-1,-5.792370439E-2,-1.018658280E-1
2.512712395E0,2.822948247E-2,2.729737759E-2,-1.178447753E-1
2.515175833E0,-4.527369887E-2,8.908266574E-2,-1.327584684E-1
2.517639270E0,-1.059937179E-1,1.242363602E-1,-1.359542608E-1
2.520102708E0,-1.507347822E-1,1.444763690E-1,-1.391500533E-1
2.522566145E0,-1.826926917E-1,1.636511087E-1,-1.348889917E-1
2.525029583E0,-2.125200778E-1,1.892174333E-1,-1.391500533E-1
2.527493020E0,-2.370211333E-1,2.350237668E-1,-1.380847842E-1
2.529956405E0,-2.583264112E-1,2.904174626E-1,-1.370195150E-1
2.532419843E0,-2.700442970E-1,3.436806500E-1,-1.380847842E-1
2.534883280E0,-2.764358819E-1,3.735080361E-1,-1.391500533E-1
2.537346718E0,-2.775011361E-1,3.926827610E-1,-1.338237375E-1
2.539810155E0,-2.689790428E-1,3.948132992E-1,-1.306279451E-1
2.542273593E0,-2.530000806E-1,3.937480450E-1,-1.274321526E-1
2.544737030E0,-2.327600867E-1,3.830953836E-1,-1.274321526E-1
2.547200468E0,-2.029327005E-1,3.649859130E-1,-1.253016293E-1
2.549663905E0,-1.688442677E-1,3.458111584E-1,-1.221058294E-1
2.552127343E0,-1.347558349E-1,3.255711794E-1,-1.167795137E-1
2.554590728E0,-9.853687882E-2,3.063964248E-1,-1.103879362E-1
2.557054166E0,-6.551370770E-2,2.904174626E-1,-1.008005589E-1
2.559517603E0,-3.249053657E-2,2.755037844E-1,-9.440898150E-2
2.561981041E0,-4.793685861E-3,2.573943138E-1,-9.547424316E-2
2.564444478E0,1.225053053E-2,2.350237668E-1,-9.227845073E-2
2.566907916E0,2.077263966E-2,2.083921731E-1,-9.227845073E-2
2.569371353E0,3.036000952E-2,1.817605942E-1,-8.908266574E-2
2.571834791E0,3.781685606E-2,1.583247930E-1,-8.269108087E-2
2.574298228E0,5.273054540E-2,1.338237375E-1,-6.777739525E-2
2.576761666E0,7.297055423E-2,1.167795137E-1,-3.901527822E-2
2.579225051E0,8.362318575E-2,1.008005589E-1,-2.090579644E-2
2.581688489E0,8.575371653E-2,9.014792740E-2,-1.771000586E-2
2.584151926E0,8.255792409E-2,7.949528843E-2,-2.303632349E-2
2.586615364E0,6.870950013E-2,7.203844935E-2,-3.901527822E-2
2.589078801E0,6.018738821E-2,5.819002166E-2,-5.392896757E-2
2.591542239E0,5.379580706E-2,4.647212103E-2,-6.351634115E-2
2.594005676E0,4.953475296E-2,4.327633232E-2,-6.990791857E-2
2.596469114E0,3.781685606E-2,3.901527822E-2,-7.416897267E-2
2.598932551E0,2.929474786E-2,3.688475117E-2,-6.671212614E-2
2.601395989E0,2.716422081E-2,2.516685054E-2,-6.671212614E-2
2.603859374E0,1.970737427E-2,1.238368824E-2,-7.097318023E-2
2.606322812E0,1.225053053E-2,-1.424789988E-2,-7.310371101E-2
2.608786249E0,5.326317623E-4,-7.177212834E-2,-8.269108087E-2
2.611249687E0,-1.331579406E-2,-1.484711021E-1,-7.949528843E-2
2.613713124E0,-1.544632111E-2,-2.571279705E-1,-6.671212614E-2
2.616176562E0,-1.438105758E-2,-3.721764386E-1,-6.032054871E-2
2.618639999E0,-1.970737427E-2,-4.360922575E-1,-6.245107576E-2
2.621103437E0,-2.396842837E-2,-4.233090878E-1,-5.499422923E-2
2.623566874E0,-1.864211261E-2,-3.828290701E-1,-3.049316816E-2
2.626030312E0,-1.438105758E-2,-3.508711755E-1,-1.557947882E-2
2.628493697E0,-6.924212910E-3,-3.466101289E-1,2.170474455E-2
2.630957135E0,4.793685861E-3,-3.455448449E-1,4.301001504E-2
2.633420572E0,2.290316671E-2,-3.498059213E-1,5.579317734E-2
2.635884010E0,3.568632901E-2,-3.498059213E-1,6.751107424E-2
2.638347447E0,4.314317182E-2,-3.636543453E-1,7.816371322E-2
2.640810885E0,4.207791016E-2,-3.721764386E-1,7.070686668E-2
2.643274322E0,2.290316671E-2,-3.700459301E-1,5.366265029E-2
2.645737760E0,-2.663158812E-3,-3.615238070E-1,3.235737979E-2
2.648201197E0,-3.355580196E-2,-3.615238070E-1,1.318263635E-2
2.650664635E0,-6.444844604E-2,-3.625890613E-1,3.994738217E-4
2.653128020E0,-1.006674021E-1,-3.700459301E-1,-3.861580277E-3
2.655591458E0,-1.667137444E-1,-4.637891054E-1,6.791055202E-3
2.658054895E0,-2.540653646E-1,-6.960165501E-1,5.366265029E-2
2.660518333E0,-2.838927209E-1,-7.940207720E-1,8.775108308E-2
2.662981770E0,-2.892190516E-1,-7.641934156E-1,8.455529064E-2
2.665445208E0,-2.892190516E-1,-6.491449475E-1,6.538055092E-2
2.667908645E0,-2.817622125E-1,-5.532712340E-1,4.407527670E-2
2.670372083E0,-2.732400894E-1,-4.850943685E-1,3.768369555E-2
2.672835520E0,-2.753706276E-1,-4.371575117E-1,3.981422260E-2
2.675298958E0,-2.753706276E-1,-4.382227957E-1,6.325002015E-2
2.677762395E0,-2.657832503E-1,-4.542017281E-1,7.922897488E-2
2.680225780E0,-2.583264112E-1,-4.637891054E-1,8.562055230E-2
2.682689218E0,-2.508695722E-1,-4.755069911E-1,9.307739884E-2
2.685152655E0,-2.434127182E-1,-4.946817458E-1,1.015995070E-1
2.687616093E0,-2.242379785E-1,-5.532712340E-1,1.292963624E-1
2.690079530E0,-1.912147999E-1,-6.491449475E-1,1.697763801E-1
2.692542968E0,-1.656484753E-1,-7.024081349E-1,1.814942658E-1
2.695006405E0,-1.603221595E-1,-6.725807786E-1,1.665805876E-1
2.697469843E0,-1.741705835E-1,-6.065344214E-1,1.410142630E-1
2.699933280E0,-2.039979696E-1,-5.500754714E-1,1.175784618E-1
2.702396718E0,-2.476737648E-1,-4.744417369E-1,8.881634474E-2
2.704860103E0,-2.870885134E-1,-3.998732865E-1,6.431528181E-2
2.707323541E0,-3.147853613E-1,-3.806985617E-1,5.685843900E-2
2.709786978E0,-3.211769462E-1,-3.838943541E-1,6.005423144E-2
2.712250416E0,-3.062632680E-1,-3.732416928E-1,6.431528181E-2
2.714713853E0,-2.775011361E-1,-3.402185440E-1,6.644581258E-2
2.717177291E0,-2.391516566E-1,-3.018690646E-1,7.283739001E-2
2.719640728E0,-1.912147999E-1,-2.954774797E-1,9.201213717E-2
2.722104166E0,-1.347558349E-1,-3.189132810E-1,1.122521460E-1
2.724567603E0,-6.444844604E-2,-3.561974764E-1,1.314268857E-1
2.727031041E0,1.597895287E-3,-3.679153919E-1,1.623195261E-1
2.729494426E0,5.273054540E-2,-3.306311667E-1,1.878858507E-1
2.731957864E0,9.108003229E-2,-2.656500936E-1,2.134521753E-1
2.734421301E0,1.241032034E-1,-2.134521753E-1,2.390184999E-1
2.736884739E0,1.592568904E-1,-1.740374267E-1,2.571279705E-1
2.739348176E0,1.880190074E-1,-1.410142630E-1,2.635195553E-1
2.741811614E0,2.103895396E-1,-1.154479310E-1,2.603237629E-1
2.744275051E0,2.135853320E-1,-9.414266050E-2,2.475406080E-1
2.746738489E0,1.912147999E-1,-7.496792078E-2,2.368879765E-1
2.749201926E0,1.592568904E-1,-5.259738490E-2,2.336921841E-1
2.751665364E0,1.209074110E-1,-3.235737979E-2,2.251700759E-1
2.754128749E0,8.681897819E-2,-2.490053512E-2,2.134521753E-1
2.756592187E0,5.060001835E-2,-2.916158922E-2,2.091911286E-1
2.759055624E0,1.970737427E-2,-4.301001504E-2,1.964079589E-1
2.761519062E0,-1.757684723E-2,-6.644581258E-2,1.814942658E-1
2.763982499E0,-6.338317692E-2,-9.627319127E-2,1.580584794E-1
2.766445937E0,-1.155810952E-1,-1.378184706E-1,1.559279412E-1
2.768909374E0,-1.656484753E-1,-1.900163740E-1,1.676458418E-1
2.771372812E0,-2.146506011E-1,-2.528669238E-1,1.793637425E-1
2.773836249E0,-2.647179961E-1,-3.189132810E-1,1.825595349E-1
2.776299687E0,-3.105243146E-1,-3.913511932E-1,1.836248040E-1
2.778763072E0,-3.584611714E-1,-4.520712197E-1,1.921469122E-1
2.781226510E0,-4.000064433E-1,-4.925512075E-1,1.964079589E-1
2.783689947E0,-4.340948761E-1,-5.106607080E-1,1.932121664E-1
2.786153385E0,-4.617917240E-1,-5.095954537E-1,1.825595349E-1
2.788616822E0,-4.830970168E-1,-4.946817458E-1,1.687111109E-1
2.791080260E0,-4.980106950E-1,-4.637891054E-1,1.537974179E-1
2.793543697E0,-5.044022799E-1,-4.222438335E-1,1.506016254E-1
2.796007083E0,-5.012065172E-1,-3.934817016E-1,1.548626870E-1
2.798470520E0,-4.884233177E-1,-3.583280146E-1,1.484711021E-1
2.800933905E0,-4.745748937E-1,-3.370227516E-1,1.356879473E-1
2.803397343E0,-4.671180546E-1,-3.114564121E-1,1.175784618E-1
2.805860728E0,-4.575306773E-1,-2.773679793E-1,1.005342454E-1
2.808324166E0,-4.394212067E-1,-2.219742835E-1,7.390265912E-2
2.810787551E0,-4.223769903E-1,-1.665805876E-1,5.046685785E-2
2.813250989E0,-3.968106508E-1,-1.154479310E-1,3.129211441E-2
2.815714374E0,-3.680485487E-1,-6.644581258E-2,2.703106217E-2
2.818177812E0,-3.382211626E-1,-3.342264146E-2,2.809632570E-2
2.820641197E0,-3.105243146E-1,-2.063948102E-2,3.661843389E-2
2.823104635E0,-2.924148440E-1,-1.744369045E-2,3.768369555E-2
2.825568072E0,-2.764358819E-1,-1.105210930E-2,2.383527160E-2
2.828031458E0,-2.700442970E-1,-5.725791678E-3,-3.861580277E-3
2.830494895E0,-2.657832503E-1,6.657897029E-4,-2.942790464E-2
2.832958280E0,-2.625874579E-1,-5.725791678E-3,-5.286370218E-2
2.835421718E0,-2.593916655E-1,-3.448790684E-2,-7.310371101E-2
2.837885103E0,-2.615222037E-1,-7.709844410E-2,-8.908266574E-2
2.840348541E0,-2.636527121E-1,-1.175784618E-1,-1.199753061E-1
2.842811926E0,-2.604569197E-1,-1.495363712E-1,-1.529984772E-1
2.845275364E0,-2.508695722E-1,-1.527321637E-1,-1.966742724E-1
2.847738749E0,-2.412821949E-1,-1.335574090E-1,-2.371542901E-1
2.850202187E0,-2.221074402E-1,-8.775108308E-2,-2.765690386E-1
2.852665624E0,-1.997369081E-1,-2.490053512E-2,-3.063964248E-1
2.855129010E0,-1.784316450E-1,6.032054871E-2,-3.234406412E-1
2.857592447E0,-1.667137444E-1,1.711079478E-1,-3.330280185E-1
2.860055833E0,-1.667137444E-1,3.021353781E-1,-3.383543193E-1
2.862519270E0,-1.741705835E-1,4.374238253E-1,-3.426153958E-1
2.864982655E0,-1.816274375E-1,5.684512258E-1,-3.522027433E-1
2.867446093E0,-1.890842766E-1,6.941523552E-1,-3.671164513E-1
2.869909478E0,-1.901495457E-1,7.889608145E-1,-3.862911761E-1
2.872372916E0,-1.890842766E-1,8.454197645E-1,-4.001396000E-1
2.874836301E0,-1.848232150E-1,8.837692738E-1,-4.171838164E-1
2.877299739E0,-1.826926917E-1,9.040092826E-1,-4.352933168E-1
2.879763124E0,-1.763011068E-1,9.050745368E-1,-4.438154101E-1
2.882226562E0,-1.656484753E-1,8.922913671E-1,-4.534027874E-1
2.884689999E0,-1.518000513E-1,8.880302906E-1,-4.672512114E-1
2.887153385E0,-1.379516274E-1,8.858997822E-1,-4.832301736E-1
2.889616822E0,-1.219726726E-1,8.795081973E-1,-5.002743602E-1
2.892080208E0,-1.059937179E-1,8.784429431E-1,-5.194491148E-1
2.894543645E0,-9.214529395E-2,8.752471209E-1,-5.354281068E-1
2.897007030E0,-8.042739332E-2,8.763124347E-1,-5.386238694E-1
2.899470468E0,-9.321055561E-2,9.146618843E-1,-5.045354366E-1
2.901933853E0,-1.560611129E-1,1.037167192E0,-4.491417408E-1
2.904397291E0,-2.263685018E-1,1.173520923E0,-4.097269773E-1
2.906860676E0,-2.785664201E-1,1.261937857E0,-3.916175067E-1
2.909324114E0,-2.977411449E-1,1.305613637E0,-3.724427521E-1
2.911787551E0,-3.126548529E-1,1.348224163E0,-3.511374891E-1
2.914250937E0,-3.680485487E-1,1.418531537E0,-3.426153958E-1
2.916714374E0,-4.383559525E-1,1.447293639E0,-3.564638197E-1
2.919177760E0,-4.948149025E-1,1.357811570E0,-4.044006765E-1
2.921641197E0,-5.075980425E-1,1.084038854E0,-4.544680417E-1
2.924104583E0,-4.958801568E-1,7.506113052E-1,-4.949480593E-1
2.926568020E0,-4.905538559E-1,4.651206732E-1,-5.279712081E-1
2.929031405E0,-5.012065172E-1,3.021353781E-1,-5.322322845E-1
2.931494843E0,-5.075980425E-1,3.106574714E-1,-5.056006908E-1
2.933958228E0,-4.809664786E-1,5.130575299E-1,-4.629901648E-1
2.936421666E0,-4.053327739E-1,9.263797998E-1,-4.235754013E-1
2.938885051E0,-3.062632680E-1,1.536775827E0,-4.012048841E-1
2.941348489E0,-1.784316450E-1,2.251567602E0,-3.980090916E-1
2.943811926E0,-2.183790132E-2,2.947184801E0,-4.118575156E-1
2.946275312E0,1.411474198E-1,3.463837624E0,-4.054659307E-1
2.948738749E0,3.020022213E-1,3.661976576E0,-3.522027433E-1
2.951202135E0,4.372906685E-1,3.579951286E0,-2.893522084E-1
2.953665572E0,5.320991278E-1,3.306178570E0,-2.456763983E-1
2.956128958E0,5.779054761E-1,2.904574156E0,-2.190448195E-1
2.958592395E0,5.789707303E-1,2.439054012E0,-2.137184888E-1
2.961055780E0,5.502086282E-1,1.956489563E0,-2.020006031E-1
2.963519218E0,5.012065172E-1,1.481382132E0,-1.828258485E-1
2.965982603E0,4.362254143E-1,1.044624090E0,-1.593900621E-1
2.968446041E0,3.573959172E-1,6.664555073E-1,-1.306279451E-1
2.970909478E0,2.796316743E-1,3.426153958E-1,-9.547424316E-2
2.973372864E0,2.029327005E-1,7.843002677E-2,-5.179844052E-2
2.975836301E0,1.368863583E-1,-1.346226782E-1,-2.410158701E-2
2.978299687E0,8.149266243E-2,-3.338269591E-1,-1.238368824E-2
2.980763124E0,3.568632901E-2,-5.074648857E-1,-1.664474234E-2
2.983226510E0,-1.438105758E-2,-6.299701929E-1,-4.221106693E-2
2.985689947E0,-8.362318575E-2,-7.130607963E-1,-8.375634253E-2
2.988153333E0,-1.794968992E-1,-8.025429249E-1,-1.327584684E-1
2.990616770E0,-2.870885134E-1,-9.186566472E-1,-1.625858396E-1
2.993080155E0,-3.850927651E-1,-1.033705115E0,-1.561942697E-1
2.995543593E0,-4.724443853E-1,-1.115730405E0,-1.359542608E-1
2.998006978E0,-5.597959757E-1,-1.168993592E0,-1.114531979E-1
3.000470416E0,-6.514086723E-1,-1.187103033E0,-8.588687330E-2
3.002933853E0,-7.398255467E-1,-1.158340931E0,-7.203844935E-2
3.005397239E0,-8.186550140E-1,-1.110404015E0,-4.540685937E-2
3.007860676E0,-8.900277019E-1,-1.075250387E0,1.318263635E-2
3.010324062E0,-9.603350759E-1,-1.073119879E0,8.562055230E-2
3.012787499E0,-1.030642509E0,-1.096555591E0,1.559279412E-1
3.015250885E0,-1.115863562E0,-1.134905100E0,2.336921841E-1
3.017714322E0,-1.212802529E0,-1.163667202E0,3.114564121E-1
3.020177708E0,-1.334242582E0,-1.202016711E0,4.073301256E-1
3.022641145E0,-1.480183721E0,-1.245692492E0,5.063996315E-1
3.025104530E0,-1.631451130E0,-1.262736797E0,5.873596668E-1
3.027567968E0,-1.732651114E0,-1.206277728E0,6.289049387E-1
3.030031353E0,-1.775261641E0,-1.079511404E0,6.438186169E-1
3.032494791E0,-1.791240573E0,-9.463534951E-1,6.672544479E-1
3.034958228E0,-1.812545896E0,-8.600671291E-1,7.290397286E-1
3.037421614E0,-1.813611150E0,-7.812376618E-1,7.961513400E-1
3.039885051E0,-1.781653285E0,-6.917554736E-1,8.281092048E-1
3.042348437E0,-1.721998453E0,-5.799028277E-1,8.355661035E-1
3.044811874E0,-1.626124740E0,-4.403533041E-1,8.249134421E-1
3.047275260E0,-1.504684687E0,-2.901511490E-1,8.174566031E-1
3.049738697E0,-1.372592092E0,-1.303616166E-1,8.227829337E-1
3.052202083E0,-1.245825648E0,1.131842472E-2,8.440881968E-1
3.054665520E0,-1.129711986E0,1.231710985E-1,8.696545362E-1
3.057128905E0,-1.017859340E0,2.147837579E-1,8.824376464E-1
3.059592343E0,-9.241161346E-1,2.776342928E-1,8.930903077E-1
3.062055780E0,-8.367645144E-1,3.287669420E-1,9.005471468E-1
3.064519166E0,-7.504781485E-1,3.830953836E-1,9.271787405E-1
3.066982603E0,-6.716486812E-1,4.438154101E-1,9.602019191E-1
3.069445989E0,-6.109286547E-1,4.896217585E-1,9.836376905E-1
3.071909426E0,-5.768402219E-1,5.151880980E-1,9.889640212E-1
3.074372812E0,-5.725791454E-1,5.056006908E-1,9.665935040E-1
3.076836249E0,-5.821664929E-1,4.619249105E-1,9.357008338E-1
3.079299635E0,-6.024065018E-1,4.225101471E-1,8.941555619E-1
3.081763072E0,-6.056023240E-1,4.065311849E-1,8.238481879E-1
3.084226458E0,-5.832318068E-1,4.065311849E-1,7.503449917E-1
3.086689895E0,-5.523391366E-1,3.948132992E-1,7.183870673E-1
3.089153280E0,-5.310338736E-1,3.798995912E-1,7.024081349E-1
3.091616718E0,-5.022717714E-1,3.841606677E-1,6.757765412E-1
3.094080155E0,-4.639222622E-1,4.022701383E-1,6.363617778E-1
3.096543541E0,-4.277032912E-1,4.139880240E-1,6.075996757E-1
3.099006978E0,-3.925496042E-1,4.161185622E-1,5.745764971E-1
3.101470364E0,-3.669832945E-1,4.033353925E-1,5.372923017E-1
3.103933801E0,-3.510043323E-1,3.905522525E-1,4.914859533E-1
3.106397187E0,-3.360906541E-1,3.585943282E-1,4.382227957E-1
3.108860624E0,-3.254379928E-1,3.298322260E-1,3.870901465E-1
3.111324010E0,-3.158506453E-1,3.074616790E-1,3.455448449E-1
3.113787447E0,-3.020022213E-1,2.936132550E-1,3.050648272E-1
3.116250833E0,-2.679137886E-1,2.872216702E-1,2.752374709E-1
3.118714270E0,-2.157158703E-1,2.733732462E-1,2.486058772E-1
3.121177708E0,-1.560611129E-1,2.403500825E-1,2.187784910E-1
3.123641093E0,-9.534108639E-2,1.796300560E-1,1.942774355E-1
3.126104530E0,-2.929474786E-2,1.125184596E-1,1.623195261E-1
3.128567916E0,3.249053657E-2,5.179844052E-2,1.250353009E-1
3.131031353E0,9.214529395E-2,-1.464737346E-3,9.520792961E-2
3.133494739E0,1.549958438E-1,-5.259738490E-2,6.325002015E-2
3.135958176E0,2.082590163E-1,-1.229047775E-1,3.981422260E-2
3.138421562E0,2.519348264E-1,-2.027995437E-1,6.791055202E-3
3.140884999E0,2.860232592E-1,-2.656500936E-1,-3.368895873E-2
3.143348385E0,3.137201071E-1,-3.008037806E-1,-6.671212614E-2
3.145811822E0,3.467432857E-1,-3.189132810E-1,-8.801739663E-2
3.148275208E0,3.840275109E-1,-3.210437894E-1,-1.071921438E-1
3.150738645E0,4.202464521E-1,-3.274353743E-1,-1.316931993E-1
3.153202083E0,4.575306773E-1,-3.306311667E-1,-1.519332081E-1
3.155665468E0,4.916191101E-1,-3.157174885E-1,-1.732384861E-1
3.158128905E0,5.246422887E-1,-2.922816873E-1,-2.041311264E-1
3.160592291E0,5.544696450E-1,-2.677806318E-1,-2.318279743E-1
3.163055728E0,5.800359845E-1,-2.379532456E-1,-2.595248222E-1
3.165519114E0,6.056023240E-1,-2.049300671E-1,-2.776342928E-1
3.167982551E0,6.290380955E-1,-1.601890028E-1,-2.882869542E-1
3.170445937E0,6.535391808E-1,-9.840371460E-2,-2.989395857E-1
3.172909374E0,6.801707745E-1,-2.596579865E-2,-3.106574714E-1
3.175372760E0,7.068023682E-1,5.073317513E-2,-3.213101029E-1
3.177836197E0,7.313033938E-1,1.221058294E-1,-3.394196033E-1
3.180299635E0,7.504781485E-1,1.647163779E-1,-3.553985357E-1
3.182763020E0,7.675223947E-1,1.966742724E-1,-3.692469597E-1
3.185226458E0,7.749792337E-1,2.233058661E-1,-3.841606677E-1
3.187689843E0,7.866970897E-1,2.424806058E-1,-4.022701383E-1
3.190153280E0,7.941539288E-1,2.648511529E-1,-4.246406853E-1
3.192616666E0,7.973497510E-1,2.840258777E-1,-4.416849017E-1
3.195080103E0,7.973497510E-1,2.914827466E-1,-4.534027874E-1
3.197543489E0,7.962844968E-1,3.010700941E-1,-4.693817496E-1
3.200006926E0,7.920234203E-1,3.127880096E-1,-4.896217585E-1
3.202470312E0,7.930886745E-1,3.255711794E-1,-5.066659451E-1
3.204933749E0,7.845665812E-1,3.383543193E-1,-5.194491148E-1
3.207397135E0,7.707181573E-1,3.468764424E-1,-5.290365219E-1
3.209860572E0,7.611308098E-1,3.479416966E-1,-5.354281068E-1
3.212324010E0,7.536739707E-1,3.543332815E-1,-5.450154543E-1
3.214787395E0,7.462170720E-1,3.660511672E-1,-5.609943867E-1
3.217250833E0,7.472823858E-1,3.894869685E-1,-5.844302177E-1
3.219714218E0,7.547392249E-1,4.363585711E-1,-6.078659892E-1
3.222177655E0,7.728486657E-1,4.938828051E-1,-6.355628371E-1
3.224641041E0,7.973497510E-1,5.524722934E-1,-6.589986682E-1
3.227104478E0,8.165245056E-1,6.036049724E-1,-6.771081090E-1
3.229567864E0,8.197202682E-1,6.536723375E-1,-7.016091943E-1
3.232031301E0,7.973497510E-1,7.016091943E-1,-7.239797115E-1
3.234494687E0,7.803055048E-1,7.410239577E-1,-7.303712964E-1
3.236958124E0,7.717834115E-1,7.516765594E-1,-7.122617960E-1
3.239421562E0,7.611308098E-1,7.111965418E-1,-6.632596850E-1
3.241884947E0,7.536739707E-1,6.536723375E-1,-6.313018203E-1
3.244348385E0,7.472823858E-1,6.068007350E-1,-6.174533963E-1
3.246811770E0,7.408908010E-1,5.620596409E-1,-6.004091501E-1
3.249275208E0,7.291728854E-1,5.194491148E-1,-5.769733787E-1
3.251738593E0,7.078676224E-1,4.757733345E-1,-5.471459627E-1
3.254202030E0,6.663223505E-1,4.193143547E-1,-5.119922757E-1
3.256665416E0,6.077328324E-1,3.479416966E-1,-4.683164656E-1
3.259128853E0,5.374254584E-1,2.680469453E-1,-4.171838164E-1
3.261592239E0,4.575306773E-1,1.785648018E-1,-3.692469597E-1
3.264055676E0,3.818969727E-1,9.440898150E-2,-3.277016878E-1
3.266519062E0,3.233074844E-1,3.901527822E-2,-3.042658865E-1
3.268982499E0,2.913495600E-1,1.984053291E-2,-2.989395857E-1
3.271445937E0,2.806969285E-1,3.262369707E-2,-2.882869542E-1
3.273909322E0,2.721748352E-1,6.245107576E-2,-2.808300853E-1
3.276372760E0,2.647179961E-1,9.334371984E-2,-2.733732462E-1
3.278836145E0,2.572611272E-1,1.103879362E-1,-2.467416674E-1
3.281299583E0,2.487390339E-1,1.103879362E-1,-2.201100737E-1
3.283762968E0,2.359558642E-1,9.653950483E-2,-1.934784949E-1
3.286226405E0,2.231727093E-1,6.884265691E-2,-1.625858396E-1
3.288689791E0,2.061284930E-1,2.942790464E-2,-1.348889917E-1
3.291153228E0,1.880190074E-1,8.122634143E-3,-1.167795137E-1
3.293616562E0,1.741705835E-1,-3.994738217E-4,-9.867003560E-2
3.296079895E0,1.709747910E-1,3.861580277E-3,-8.056055754E-2
3.298543280E0,1.688442677E-1,1.664474234E-2,-6.245107576E-2
3.301006614E0,1.699095368E-1,3.155843168E-2,-3.688475117E-2
3.303469947E0,1.613874286E-1,5.179844052E-2,-1.344895177E-2
3.305933333E0,1.560611129E-1,6.990791857E-2,1.464737346E-3
3.308396666E0,1.539305747E-1,7.629950345E-2,2.063948102E-2
3.310860051E0,1.464737356E-1,7.203844935E-2,3.981422260E-2
3.313323385E0,1.443432122E-1,6.458160281E-2,5.046685785E-2
3.315786718E0,1.464737356E-1,5.925528333E-2,5.472791195E-2
3.318250103E0,1.528653204E-1,5.073317513E-2,6.431528181E-2
3.320713437E0,1.592568904E-1,3.901527822E-2,8.029423654E-2
3.323176770E0,1.656484753E-1,2.410158701E-2,9.414266050E-2
3.325640155E0,1.645832211E-1,1.131842472E-2,9.520792961E-2
3.328103489E0,1.581916362E-1,3.861580277E-3,9.840371460E-2
3.330566874E0,1.528653204E-1,-4.660528153E-3,1.005342454E-1
3.333030208E0,1.432779431E-1,-2.170474455E-2,1.037300378E-1
3.335493541E0,1.283642501E-1,-3.022685274E-2,1.122521460E-1
3.337956926E0,1.027979329E-1,-3.981422260E-2,1.186437234E-1
3.340420260E0,8.149266243E-2,-6.218475848E-2,1.271658391E-1
3.342883645E0,6.018738821E-2,-9.733845294E-2,1.431447864E-1
3.345346978E0,3.994738311E-2,-1.239700392E-1,1.495363712E-1
3.347810312E0,2.503369376E-2,-1.442100555E-1,1.516668946E-1
3.350273697E0,1.864211261E-2,-1.569932103E-1,1.548626870E-1
3.352737030E0,6.924212910E-3,-1.665805876E-1,1.644500494E-1
3.355200416E0,-5.326317623E-4,-1.719069034E-1,1.740374267E-1
3.357663749E0,4.793685861E-3,-1.655153185E-1,1.751026958E-1
3.360127083E0,1.970737427E-2,-1.367532015E-1,1.644500494E-1
3.362590468E0,6.551370770E-2,-5.898896605E-2,1.101216152E-1
3.365053801E0,1.613874286E-1,9.014792740E-2,1.424789988E-2
3.367517187E0,2.263685018E-1,1.540637314E-1,3.235737979E-2
3.369980520E0,2.519348264E-1,1.391500533E-1,6.751107424E-2
3.372443853E0,2.806969285E-1,1.423458457E-1,4.301001504E-2
3.374907239E0,3.137201071E-1,1.466068923E-1,1.744369045E-2
3.377370572E0,3.371559083E-1,1.253016293E-1,4.660528153E-3
3.379833958E0,3.478085399E-1,8.908266574E-2,3.595264396E-3
3.382297291E0,3.563306630E-1,8.162581921E-2,-1.771000586E-2
3.384760624E0,3.701790869E-1,8.801739663E-2,-5.073317513E-2
3.387224010E0,3.765706420E-1,7.736476511E-2,-7.097318023E-2
3.389687343E0,3.829622269E-1,7.203844935E-2,-9.227845073E-2
3.392150728E0,3.989411891E-1,8.056055754E-2,-1.210405678E-1
3.394614062E0,4.234422445E-1,1.029310897E-1,-1.476721615E-1
3.397077395E0,4.415517449E-1,1.039963514E-1,-1.593900621E-1
3.399540780E0,4.468780458E-1,8.269108087E-2,-1.625858396E-1
3.402004114E0,4.426169991E-1,5.179844052E-2,-1.657816321E-1
3.404467499E0,4.287685752E-1,1.025316119E-2,-1.668469012E-1
3.406930833E0,4.117243588E-1,-3.448790684E-2,-1.604553163E-1
3.409394166E0,3.989411891E-1,-6.431528181E-2,-1.551290005E-1
3.411857551E0,3.861580193E-1,-8.242476732E-2,-1.466068923E-1
3.414320885E0,3.765706420E-1,-9.520792961E-2,-1.338237375E-1
3.416784218E0,3.616569638E-1,-1.015995070E-1,-1.199753061E-1
3.419247603E0,3.542001247E-1,-1.058605611E-1,-1.093226671E-1
3.421710937E0,3.478085399E-1,-9.733845294E-2,-9.867003560E-2
3.424174322E0,3.403517008E-1,-8.242476732E-2,-8.801739663E-2
3.426637655E0,3.360906541E-1,-6.857633591E-2,-7.523423433E-2
3.429100989E0,3.265032768E-1,-4.833633080E-2,-5.605949461E-2
3.431564374E0,3.147853613E-1,-3.661843389E-2,-3.795001283E-2
3.434027708E0,3.105243146E-1,-1.211737283E-2,-1.984053291E-2
3.436491093E0,3.105243146E-1,8.122634143E-3,1.464737346E-3
3.438954426E0,3.105243146E-1,2.836264111E-2,2.383527160E-2
3.441417760E0,3.073285222E-1,3.901527822E-2,3.981422260E-2
3.443881145E0,2.998716831E-1,4.647212103E-2,5.792370439E-2
3.446344478E0,2.988064289E-1,7.203844935E-2,6.538055092E-2
3.448807864E0,2.934800982E-1,9.653950483E-2,6.325002015E-2
3.451271197E0,2.785664201E-1,1.029310897E-1,7.390265912E-2
3.453734530E0,2.625874579E-1,8.375634253E-2,8.455529064E-2
3.456197916E0,2.466085106E-1,6.777739525E-2,9.094687551E-2
3.458661249E0,2.284990251E-1,5.392896757E-2,9.414266050E-2
3.461124635E0,2.093242854E-1,4.647212103E-2,9.201213717E-2
3.463587968E0,1.912147999E-1,5.819002166E-2,8.242476732E-2
3.466051301E0,1.837579608E-1,7.203844935E-2,7.603318244E-2
3.468514687E0,1.741705835E-1,7.629950345E-2,7.283739001E-2
3.470978020E0,1.645832211E-1,8.375634253E-2,6.111949310E-2
3.473441405E0,1.560611129E-1,8.801739663E-2,5.259738490E-2
3.475904739E0,1.443432122E-1,8.482161164E-2,4.514054209E-2
3.478368072E0,1.368863583E-1,8.056055754E-2,3.555316851E-2
3.480831458E0,1.326253116E-1,7.203844935E-2,2.916158922E-2
3.483294791E0,1.326253116E-1,6.564686447E-2,2.063948102E-2
3.485758176E0,1.315600425E-1,6.564686447E-2,1.211737283E-2
3.488221510E0,1.368863583E-1,7.203844935E-2,4.660528153E-3
3.490684843E0,1.411474198E-1,6.990791857E-2,-3.861580277E-3
3.493148228E0,1.411474198E-1,6.671212614E-2,-3.861580277E-3
3.495611562E0,1.464737356E-1,4.966791347E-2,-5.992107093E-3
3.498074895E0,1.486042589E-1,2.836264111E-2,-1.025316119E-2
3.500538280E0,1.518000513E-1,1.771000586E-2,-1.238368824E-2
3.503001614E0,1.507347822E-1,2.796316752E-3,-1.557947882E-2
3.505464999E0,1.496695280E-1,-5.725791678E-3,-1.557947882E-2
3.507928333E0,1.454084665E-1,-1.424789988E-2,-1.344895177E-2
3.510391666E0,1.464737356E-1,-2.596579865E-2,-7.057370618E-3
3.512855051E0,1.443432122E-1,-3.874896094E-2,-2.796316752E-3
3.515318385E0,1.464737356E-1,-5.259738490E-2,-2.796316752E-3
3.517781770E0,1.464737356E-1,-7.283739001E-2,3.595264396E-3
3.520245103E0,1.475390047E-1,-8.988160640E-2,8.921582252E-3
3.522708437E0,1.422126740E-1,-1.058605611E-1,1.105210930E-2
3.525171822E0,1.358211040E-1,-1.175784618E-1,1.105210930E-2
3.527635155E0,1.315600425E-1,-1.197089851E-1,8.921582252E-3
3.530098541E0,1.251684576E-1,-1.292963624E-1,6.791055202E-3
3.532561874E0,1.209074110E-1,-1.378184706E-1,8.921582252E-3
3.535025208E0,1.134505644E-1,-1.420795172E-1,8.921582252E-3
3.537488593E0,1.081242487E-1,-1.463405788E-1,4.660528153E-3
3.539951926E0,1.017326638E-1,-1.442100555E-1,-2.796316752E-3
3.542415312E0,9.427582473E-2,-1.420795172E-1,-1.238368824E-2
3.544878645E0,8.894950151E-2,-1.335574090E-1,-1.664474234E-2
3.547341978E0,8.255792409E-2,-1.090563536E-1,-2.729737759E-2
3.549805364E0,7.829686999E-2,-7.709844410E-2,-4.434159398E-2
3.552268697E0,6.977476180E-2,-4.301001504E-2,-6.245107576E-2
3.554732083E0,6.338317692E-2,-8.921582252E-3,-8.056055754E-2
3.557195416E0,5.912212655E-2,2.410158701E-2,-9.653950483E-2
3.559658749E0,5.486107245E-2,5.819002166E-2,-1.178447753E-1
3.562122135E0,5.486107245E-2,9.867003560E-2,-1.434110999E-1
3.564585468E0,5.699159950E-2,1.284974068E-1,-1.668469012E-1
3.567048853E0,6.231791526E-2,1.498026848E-1,-1.817605942E-1
3.569512187E0,6.764423102E-2,1.615205854E-1,-1.977395415E-1
3.571975520E0,7.297055423E-2,1.732384861E-1,-2.147837579E-1
3.574438905E0,7.829686999E-2,1.838911176E-1,-2.350237668E-1
3.576902239E0,8.468844742E-2,1.881521642E-1,-2.499374598E-1
3.579365572E0,9.214529395E-2,1.881521642E-1,-2.605900764E-1
3.581828958E0,9.960214049E-2,1.849563867E-1,-2.701774538E-1
3.584292291E0,1.059937179E-1,1.870869100E-1,-2.755037844E-1
3.586755676E0,1.134505644E-1,1.892174333E-1,-2.872216702E-1
3.589219010E0,1.272989959E-1,1.881521642E-1,-2.914827466E-1
3.591682343E0,1.390168965E-1,1.870869100E-1,-2.978743017E-1
3.594145728E0,1.507347822E-1,1.817605942E-1,-2.968090475E-1
3.596609062E0,1.592568904E-1,1.679121703E-1,-2.914827466E-1
3.599072447E0,1.624526829E-1,1.444763690E-1,-2.818953693E-1
3.601535780E0,1.635179520E-1,1.135837212E-1,-2.744385302E-1
3.603999114E0,1.667137444E-1,8.588687330E-2,-2.659164071E-1
3.606462499E0,1.592568904E-1,6.245107576E-2,-2.563290298E-1
3.608925833E0,1.539305747E-1,4.540685937E-2,-2.499374598E-1
3.611389218E0,1.454084665E-1,2.836264111E-2,-2.392848134E-1
3.613852551E0,1.390168965E-1,1.451421529E-2,-2.275669277E-1
3.616315885E0,1.315600425E-1,4.926843569E-3,-2.126532346E-1
3.618779270E0,1.219726726E-1,-1.105210930E-2,-1.956090182E-1
3.621242603E0,1.209074110E-1,-2.170474455E-2,-1.838911176E-1
3.623705989E0,1.177116185E-1,-3.129211441E-2,-1.636511087E-1
3.626169322E0,1.145158261E-1,-4.407527670E-2,-1.466068923E-1
3.628632655E0,1.155810952E-1,-5.792370439E-2,-1.274321526E-1
3.631096041E0,1.145158261E-1,-6.111949310E-2,-1.071921438E-1
3.633559374E0,1.102547720E-1,-7.283739001E-2,-8.588687330E-2
3.636022760E0,1.049284562E-1,-7.922897488E-2,-6.884265691E-2
3.638486093E0,1.038631946E-1,-7.390265912E-2,-5.605949461E-2
3.640949426E0,1.049284562E-1,-6.857633591E-2,-4.008053988E-2
3.643412812E0,1.070589870E-1,-5.366265029E-2,-1.984053291E-2
3.645876145E0,1.134505644E-1,-3.022685274E-2,-8.122634143E-3
3.648339530E0,1.219726726E-1,-8.921582252E-3,3.595264396E-3
3.650802864E0,1.272989959E-1,6.657897029E-4,2.383527160E-2
3.653266197E0,1.315600425E-1,2.796316752E-3,4.620580375E-2
3.655729583E0,1.368863583E-1,3.861580277E-3,6.325002015E-2
3.658192916E0,1.368863583E-1,2.796316752E-3,8.242476732E-2
3.660656249E0,1.422126740E-1,1.731053228E-3,1.037300378E-1
3.663119635E0,1.464737356E-1,-6.791055202E-3,1.303616166E-1
3.665582968E0,1.486042589E-1,-1.637842692E-2,1.516668946E-1
3.668046353E0,1.507347822E-1,-3.235737979E-2,1.729721576E-1
3.670509687E0,1.539305747E-1,-3.768369555E-2,1.953427047E-1
3.672973020E0,1.560611129E-1,-3.661843389E-2,2.134521753E-1
3.675436405E0,1.645832211E-1,-2.809632570E-2,2.283658683E-1
3.677899739E0,1.773663759E-1,-1.637842692E-2,2.422142923E-1
3.680363124E0,1.880190074E-1,-7.856318727E-3,2.613890469E-1
3.682826458E0,1.976063848E-1,-5.725791678E-3,2.794985175E-1
3.685289791E0,2.071937621E-1,6.657897029E-4,2.912164032E-1
3.687753176E0,2.157158703E-1,4.926843569E-3,3.061301112E-1
3.690216510E0,2.221074402E-1,1.344895177E-2,3.167827427E-1
3.692679895E0,2.231727093E-1,2.197105996E-2,3.253048360E-1
3.695143228E0,2.274337560E-1,3.155843168E-2,3.348922133E-1
3.697606562E0,2.316948175E-1,4.327633232E-2,3.423490524E-1
3.700069947E0,2.391516566E-1,6.032054871E-2,3.476753831E-1
3.702533280E0,2.412821949E-1,7.523423433E-2,3.519364297E-1
3.704996666E0,2.380864024E-1,8.588687330E-2,3.540669680E-1
3.707459999E0,2.338253409E-1,9.760477394E-2,3.498059213E-1
3.709923333E0,2.284990251E-1,1.157142520E-1,3.455448449E-1
3.712386718E0,2.231727093E-1,1.316931993E-1,3.423490524E-1
3.714850051E0,2.189116478E-1,1.380847842E-1,3.391532600E-1
3.717313437E0,2.199769169E-1,1.423458457E-1,3.370227516E-1
3.719776770E0,2.157158703E-1,1.412805766E-1,3.306311667E-1
3.722240103E0,2.082590163E-1,1.359542608E-1,3.210437894E-1
3.724703489E0,2.018674314E-1,1.284974068E-1,3.114564121E-1
3.727166822E0,2.008021772E-1,1.189100444E-1,3.039995730E-1
3.729630208E0,1.976063848E-1,1.050616130E-1,2.922816873E-1
3.732093541E0,1.890842766E-1,9.227845073E-2,2.826943099E-1
3.734556874E0,1.869537532E-1,8.801739663E-2,2.677806318E-1
3.737020260E0,1.848232150E-1,8.801739663E-2,2.560627162E-1
3.739483593E0,1.805621684E-1,8.482161164E-2,2.454100847E-1
3.741946926E0,1.848232150E-1,8.482161164E-2,2.283658683E-1
3.744410312E0,1.805621684E-1,8.269108087E-2,2.102563828E-1
3.746873645E0,1.794968992E-1,7.523423433E-2,1.910816431E-1
3.749337030E0,1.763011068E-1,6.990791857E-2,1.793637425E-1
3.751800364E0,1.752358526E-1,6.245107576E-2,1.655153185E-1
3.754263697E0,1.741705835E-1,5.605949461E-2,1.495363712E-1
3.756727083E0,1.741705835E-1,4.434159398E-2,1.378184706E-1
3.759190416E0,1.699095368E-1,2.410158701E-2,1.335574090E-1
3.761653801E0,1.677789986E-1,5.992107093E-3,1.186437234E-1
3.764117135E0,1.677789986E-1,-7.856318727E-3,1.037300378E-1
3.766580468E0,1.645832211E-1,-2.916158922E-2,9.307739884E-2
3.769043853E0,1.603221595E-1,-4.727106914E-2,7.922897488E-2
3.771507187E0,1.549958438E-1,-6.431528181E-2,6.538055092E-2
3.773970572E0,1.464737356E-1,-7.922897488E-2,5.259738490E-2
3.776433905E0,1.432779431E-1,-9.520792961E-2,4.087948799E-2
3.778897239E0,1.422126740E-1,-1.133174077E-1,2.916158922E-2
3.781360624E0,1.432779431E-1,-1.314268857E-1,1.744369045E-2
3.783823958E0,1.486042589E-1,-1.484711021E-1,2.530000871E-3
3.786287343E0,1.518000513E-1,-1.697763801E-1,-1.025316119E-2
3.788750676E0,1.549958438E-1,-1.921469122E-1,-1.984053291E-2
3.791214010E0,1.571263671E-1,-2.187784910E-1,-3.581948578E-2
3.793677291E0,1.592568904E-1,-2.432795614E-1,-4.327633232E-2
3.796140624E0,1.581916362E-1,-2.677806318E-1,-4.966791347E-2
3.798603958E0,1.592568904E-1,-2.922816873E-1,-5.605949461E-2
3.801067291E0,1.592568904E-1,-3.103911579E-1,-6.458160281E-2
3.803530624E0,1.592568904E-1,-3.295659125E-1,-7.310371101E-2
3.805993958E0,1.571263671E-1,-3.391532600E-1,-7.736476511E-2
3.808457291E0,1.518000513E-1,-3.466101289E-1,-8.269108087E-2
3.810920624E0,1.507347822E-1,-3.636543453E-1,-8.482161164E-2
3.813383958E0,1.486042589E-1,-3.721764386E-1,-8.801739663E-2
3.815847291E0,1.432779431E-1,-3.785680234E-1,-9.227845073E-2
3.818310624E0,1.379516274E-1,-3.775027692E-1,-9.867003560E-2
3.820773958E0,1.304947883E-1,-3.679153919E-1,-1.093226671E-1
3.823237291E0,1.209074110E-1,-3.615238070E-1,-1.242363602E-1
3.825700624E0,1.091895103E-1,-3.338269591E-1,-1.434110999E-1
3.828163958E0,1.059937179E-1,-2.976079881E-1,-1.636511087E-1
3.830627291E0,1.059937179E-1,-2.549974620E-1,-1.806953251E-1
3.833090624E0,1.102547720E-1,-2.027995437E-1,-1.966742724E-1
3.835553958E0,1.102547720E-1,-1.484711021E-1,-2.115879655E-1
3.838017239E0,1.027979329E-1,-9.201213717E-2,-2.286321819E-1
3.840480572E0,9.321055561E-2,-2.916158922E-2,-2.435458750E-1
3.842943905E0,9.108003229E-2,4.327633232E-2,-2.648511529E-1
3.845407239E0,1.038631946E-1,1.242363602E-1,-2.808300853E-1
3.847870572E0,1.262337267E-1,2.073269188E-1,-2.978743017E-1
3.850333905E0,1.549958438E-1,2.946785092E-1,-3.191795945E-1
3.852797239E0,1.912147999E-1,3.767038286E-1,-3.362238109E-1
3.855260572E0,2.380864024E-1,4.693817496E-1,-3.522027433E-1
3.857723905E0,2.902843058E-1,5.684512258E-1,-3.607248664E-1
3.860187239E0,3.360906541E-1,6.547375917E-1,-3.639206588E-1
3.862650572E0,3.669832945E-1,7.111965418E-1,-3.745732903E-1
3.865113905E0,3.893538117E-1,7.271755338E-1,-3.830953836E-1
3.867577239E0,3.957453966E-1,7.005439401E-1,-3.926827610E-1
3.870040572E0,3.840275109E-1,6.440849304E-1,-3.990743458E-1
3.872503905E0,3.605917096E-1,5.652554631E-1,-3.958785534E-1
3.874967239E0,3.510043323E-1,4.874912202E-1,-3.905522525E-1
3.877430572E0,3.510043323E-1,4.203796089E-1,-3.777690828E-1
3.879893905E0,3.520695865E-1,3.873564601E-1,-3.703122437E-1
3.882357187E0,3.488737941E-1,3.607248664E-1,-3.617901206E-1
3.884820520E0,3.350253701E-1,3.639206588E-1,-3.479416966E-1
3.887283853E0,3.094590604E-1,3.830953836E-1,-3.298322260E-1
3.889747187E0,2.892190516E-1,3.777690828E-1,-3.170490563E-1
3.892210520E0,2.615222037E-1,3.468764424E-1,-3.127880096E-1
3.894673853E0,2.316948175E-1,2.925480008E-1,-3.021353781E-1
3.897137187E0,2.082590163E-1,2.403500825E-1,-2.840258777E-1
3.899600520E0,1.858884841E-1,2.051963806E-1,-2.605900764E-1
3.902063853E0,1.592568904E-1,1.796300560E-1,-2.307627052E-1
3.904527187E0,1.145158261E-1,1.295626760E-1,-2.126532346E-1
3.906990520E0,7.616633922E-2,1.199753061E-1,-2.137184888E-1
3.909453853E0,5.699159950E-2,1.444763690E-1,-2.222405970E-1
3.911917187E0,6.018738821E-2,1.604553163E-1,-2.126532346E-1
3.914380520E0,6.018738821E-2,1.647163779E-1,-1.924132258E-1
3.916843853E0,5.805686116E-2,1.625858396E-1,-1.689774245E-1
3.919307187E0,4.527369887E-2,1.519332081E-1,-1.508679539E-1
3.921770520E0,2.716422081E-2,1.327584684E-1,-1.338237375E-1
3.924233853E0,1.597895287E-3,1.167795137E-1,-1.157142520E-1
3.926697187E0,-2.716422081E-2,1.008005589E-1,-1.050616130E-1
3.929160468E0,-5.379580706E-2,7.843002677E-2,-9.014792740E-2
3.931623801E0,-7.723160833E-2,6.458160281E-2,-7.736476511E-2
3.934087135E0,-9.001477063E-2,6.138581038E-2,-6.884265691E-2
3.936550468E0,-9.214529395E-2,6.351634115E-2,-6.245107576E-2
3.939013801E0,-9.108003229E-2,7.310371101E-2,-5.286370218E-2
3.941477135E0,-8.575371653E-2,7.843002677E-2,-4.434159398E-2
3.943940468E0,-7.829686999E-2,9.227845073E-2,-4.647212103E-2
3.946403801E0,-6.125265360E-2,1.221058294E-1,-5.073317513E-2
3.948867135E0,-4.953475296E-2,1.434110999E-1,-4.860264808E-2
3.951330468E0,-4.314317182E-2,1.572595239E-1,-4.860264808E-2
3.953793801E0,-3.781685606E-2,1.636511087E-1,-5.286370218E-2
3.956257135E0,-4.527369887E-2,1.508679539E-1,-5.499422923E-2
3.958720468E0,-5.912212655E-2,1.146489903E-1,-4.434159398E-2
3.961183801E0,-8.468844742E-2,7.949528843E-2,-4.114580527E-2
3.963647135E0,-1.251684576E-1,5.179844052E-2,-3.688475117E-2
3.966110468E0,-1.613874286E-1,1.557947882E-2,-3.155843168E-2
3.968573801E0,-1.954758614E-1,-2.383527160E-2,-2.410158701E-2
3.971037135E0,-2.178463936E-1,-6.111949310E-2,-1.451421529E-2
3.973500416E0,-2.380864024E-1,-8.775108308E-2,-1.731053228E-3
3.975963749E0,-2.530000806E-1,-1.079910919E-1,8.921582252E-3
3.978427083E0,-2.615222037E-1,-1.271658391E-1,2.277000807E-2
3.980890416E0,-2.689790428E-1,-1.399489939E-1,3.129211441E-2
3.983353749E0,-2.753706276E-1,-1.303616166E-1,3.981422260E-2
3.985817083E0,-2.732400894E-1,-1.346226782E-1,5.366265029E-2
3.988280416E0,-2.764358819E-1,-1.452753097E-1,6.538055092E-2
3.990743749E0,-2.743053436E-1,-1.601890028E-1,7.283739001E-2
3.993207083E0,-2.700442970E-1,-1.740374267E-1,7.922897488E-2
3.995670416E0,-2.668485045E-1,-1.772332191E-1,8.029423654E-2
3.998133749E0,-2.604569197E-1,-1.719069034E-1,7.390265912E-2
4.000597083E0,-2.476737648E-1,-1.495363712E-1,6.751107424E-2
4.003060416E0,-2.338253409E-1,-1.346226782E-1,7.070686668E-2
4.005523749E0,-2.263685018E-1,-1.335574090E-1,7.390265912E-2
4.007987083E0,-2.210421860E-1,-1.346226782E-1,7.603318244E-2
4.010450416E0,-2.157158703E-1,-1.420795172E-1,7.496792078E-2
4.012913749E0,-2.114548087E-1,-1.548626870E-1,8.029423654E-2
4.015377083E0,-2.039979696E-1,-1.772332191E-1,9.094687551E-2
4.017840416E0,-1.922800690E-1,-1.974732280E-1,9.946898371E-2
4.020303697E0,-1.848232150E-1,-2.241048068E-1,9.946898371E-2
4.022767030E0,-1.763011068E-1,-2.294311374E-1,1.005342454E-1
4.025230364E0,-1.688442677E-1,-2.262353450E-1,9.946898371E-2
4.027693697E0,-1.603221595E-1,-2.241048068E-1,1.015995070E-1
4.030157030E0,-1.539305747E-1,-2.273005992E-1,1.015995070E-1
4.032620364E0,-1.486042589E-1,-2.336921841E-1,1.069258228E-1
4.035083697E0,-1.475390047E-1,-2.496711314E-1,1.111868769E-1
4.037547030E0,-1.475390047E-1,-2.667153478E-1,1.090563536E-1
4.040010364E0,-1.390168965E-1,-2.880206108E-1,1.101216152E-1
4.042473697E0,-1.304947883E-1,-3.071953654E-1,1.069258228E-1
4.044937030E0,-1.230379343E-1,-3.157174885E-1,1.005342454E-1
4.047400364E0,-1.134505644E-1,-3.125216961E-1,8.988160640E-2
4.049863697E0,-1.049284562E-1,-3.050648272E-1,8.135949820E-2
4.052327030E0,-9.534108639E-2,-2.933469415E-1,7.283739001E-2
4.054790364E0,-9.108003229E-2,-2.816290557E-1,6.325002015E-2
4.057253697E0,-9.108003229E-2,-2.613890469E-1,5.259738490E-2
4.059717030E0,-9.321055561E-2,-2.432795614E-1,4.407527670E-2
4.062180364E0,-9.747160971E-2,-2.390184999E-1,3.768369555E-2
4.064643645E0,-1.027979329E-1,-2.475406080E-1,3.235737979E-2
4.067106978E0,-1.017326638E-1,-2.507364154E-1,2.809632570E-2
4.069570312E0,-9.853687882E-2,-2.496711314E-1,2.170474455E-2
4.072033645E0,-9.747160971E-2,-2.518016696E-1,1.531316340E-2
4.074496978E0,-1.102547720E-1,-2.624543011E-1,4.660528153E-3
4.076960312E0,-1.219726726E-1,-2.635195553E-1,-1.238368824E-2
4.079423645E0,-1.251684576E-1,-2.581932545E-1,-1.984053291E-2
4.081886978E0,-1.315600425E-1,-2.699111402E-1,-1.451421529E-2
4.084350312E0,-1.432779431E-1,-2.901511490E-1,-1.238368824E-2
4.086813645E0,-1.432779431E-1,-2.933469415E-1,-1.451421529E-2
4.089276978E0,-1.422126740E-1,-2.933469415E-1,-1.451421529E-2
4.091740312E0,-1.464737356E-1,-2.901511490E-1,-1.664474234E-2
4.094203645E0,-1.475390047E-1,-2.645848393E-1,-1.877526939E-2
4.096666978E0,-1.507347822E-1,-2.390184999E-1,-1.771000586E-2
4.099130312E0,-1.539305747E-1,-2.145174444E-1,-2.090579644E-2
4.101593645E0,-1.486042589E-1,-1.836248040E-1,-1.771000586E-2
4.104056978E0,-1.379516274E-1,-1.591237336E-1,-1.557947882E-2
4.106520312E0,-1.283642501E-1,-1.442100555E-1,-1.877526939E-2
4.108983645E0,-1.251684576E-1,-1.410142630E-1,-1.557947882E-2
4.111446926E0,-1.230379343E-1,-1.378184706E-1,-1.557947882E-2
4.113910260E0,-1.209074110E-1,-1.356879473E-1,-1.664474234E-2
4.116373593E0,-1.145158261E-1,-1.282310933E-1,-1.557947882E-2
4.118836926E0,-1.017326638E-1,-1.133174077E-1,-1.984053291E-2
4.121300260E0,-9.108003229E-2,-9.733845294E-2,-2.410158701E-2
4.123763593E0,-8.362318575E-2,-1.026647687E-1,-2.410158701E-2
4.126226926E0,-8.042739332E-2,-1.165132001E-1,-2.729737759E-2
4.128690260E0,-8.575371653E-2,-1.324921548E-1,-4.008053988E-2
4.131153593E0,-9.640634805E-2,-1.463405788E-1,-5.605949461E-2
4.133616926E0,-1.027979329E-1,-1.474058330E-1,-6.884265691E-2
4.136080260E0,-1.091895103E-1,-1.090563536E-1,-7.310371101E-2
4.138543593E0,-1.113200411E-1,-2.809632570E-2,-7.523423433E-2
4.141006926E0,-1.070589870E-1,5.286370218E-2,-7.736476511E-2
4.143470260E0,-9.960214049E-2,9.867003560E-2,-7.416897267E-2
4.145933593E0,-9.001477063E-2,1.082574055E-1,-7.097318023E-2
4.148396926E0,-8.575371653E-2,9.973529726E-2,-6.777739525E-2
4.150860260E0,-8.149266243E-2,7.203844935E-2,-5.179844052E-2
4.153323593E0,-7.829686999E-2,3.368895873E-2,-3.155843168E-2
4.155786874E0,-7.723160833E-2,2.796316752E-3,-2.410158701E-2
4.158250208E0,-7.297055423E-2,-3.994738217E-4,-2.090579644E-2
4.160713541E0,-6.551370770E-2,2.796316752E-3,-2.090579644E-2
4.163176874E0,-6.551370770E-2,1.238368824E-2,-2.303632349E-2
4.165640208E0,-7.084002346E-2,1.557947882E-2,-2.090579644E-2
4.168103541E0,-8.362318575E-2,-3.595264396E-3,-1.664474234E-2
4.170566874E0,-9.960214049E-2,-1.318263635E-2,-2.197105996E-2
4.173030208E0,-1.059937179E-1,-6.791055202E-3,-2.197105996E-2
4.175493541E0,-9.960214049E-2,2.623211406E-2,-2.197105996E-2
4.177956874E0,-8.468844742E-2,5.392896757E-2,-1.451421529E-2
4.180420208E0,-7.084002346E-2,4.966791347E-2,-1.664474234E-2
4.182883541E0,-6.657896936E-2,4.327633232E-2,-1.344895177E-2
4.185346874E0,-7.084002346E-2,1.238368824E-2,6.791055202E-3
4.187810208E0,-7.829686999E-2,-3.235737979E-2,1.850895397E-2
4.190273541E0,-8.255792409E-2,-7.390265912E-2,2.916158922E-2
4.192736874E0,-8.149266243E-2,-1.005342454E-1,3.342264146E-2
4.195200208E0,-8.362318575E-2,-1.079910919E-1,3.555316851E-2
4.197663541E0,-8.681897819E-2,-1.122521460E-1,3.129211441E-2
4.200126822E0,-9.321055561E-2,-1.335574090E-1,2.703106217E-2
4.202590155E0,-9.960214049E-2,-1.623195261E-1,3.129211441E-2
4.205053489E0,-1.102547720E-1,-2.038648129E-1,4.301001504E-2
4.207516822E0,-1.326253116E-1,-2.560627162E-1,5.366265029E-2
4.209980155E0,-1.518000513E-1,-2.976079881E-1,6.005423144E-2
4.212443489E0,-1.763011068E-1,-2.922816873E-1,6.751107424E-2
4.214906822E0,-1.922800690E-1,-2.336921841E-1,6.857633591E-2
4.217370155E0,-1.901495457E-1,-1.580584794E-1,7.283739001E-2
4.219833489E0,-1.773663759E-1,-7.922897488E-2,7.496792078E-2
4.222296822E0,-1.688442677E-1,-9.986845776E-3,8.349002898E-2
4.224760155E0,-1.560611129E-1,4.434159398E-2,8.242476732E-2
4.227223489E0,-1.443432122E-1,8.162581921E-2,8.455529064E-2
4.229686822E0,-1.304947883E-1,1.157142520E-1,8.455529064E-2
4.232150155E0,-1.091895103E-1,1.593900621E-1,8.029423654E-2
4.234613489E0,-8.468844742E-2,1.945437491E-1,7.816371322E-2
4.237076822E0,-6.657896936E-2,2.190448195E-1,7.496792078E-2
4.239540155E0,-5.273054540E-2,2.339584976E-1,6.644581258E-2
4.242003489E0,-4.101264477E-2,2.456763983E-1,5.685843900E-2
4.244466822E0,-3.036000952E-2,2.616553605E-1,4.620580375E-2
4.246930103E0,-2.290316671E-2,2.755037844E-1,3.555316851E-2
4.249393437E0,-1.544632111E-2,2.840258777E-1,2.703106217E-2
4.251856770E0,-1.331579406E-2,2.936132550E-1,1.318263635E-2
4.254320103E0,-1.118526701E-2,3.032006323E-1,3.595264396E-3
4.256783437E0,-1.438105758E-2,3.042658865E-1,-7.057370618E-3
4.259246770E0,-1.438105758E-2,3.085269630E-1,-1.877526939E-2
4.261710103E0,-1.331579406E-2,3.106574714E-1,-3.049316816E-2
4.264173437E0,-1.225053053E-2,3.106574714E-1,-4.008053988E-2
4.266636770E0,-9.054739960E-3,3.106574714E-1,-5.073317513E-2
4.269100103E0,-2.663158812E-3,3.202448487E-1,-6.777739525E-2
4.271563437E0,1.118526701E-2,3.394196033E-1,-8.162581921E-2
4.274026770E0,2.396842837E-2,3.575290740E-1,-9.547424316E-2
4.276490103E0,4.101264477E-2,3.724427521E-1,-1.125184596E-1
4.278953437E0,5.699159950E-2,3.820301294E-1,-1.189100444E-1
4.281416770E0,6.657896936E-2,3.788343370E-1,-1.306279451E-1
4.283880103E0,7.723160833E-2,3.735080361E-1,-1.423458457E-1
4.286343437E0,8.681897819E-2,3.745732903E-1,-1.572595239E-1
4.288806770E0,9.853687882E-2,3.798995912E-1,-1.647163779E-1
4.291270103E0,1.070589870E-1,3.767038286E-1,-1.721732169E-1
4.293733280E0,1.145158261E-1,3.713774979E-1,-1.849563867E-1
4.296196510E0,1.262337267E-1,3.628553748E-1,-1.913479567E-1
4.298659791E0,1.304947883E-1,3.553985357E-1,-1.977395415E-1
4.301123020E0,1.294295192E-1,3.404848576E-1,-2.020006031E-1
4.303586301E0,1.241032034E-1,3.170490563E-1,-2.051963806E-1
4.306049530E0,1.155810952E-1,2.946785092E-1,-2.083921731E-1
4.308512812E0,1.027979329E-1,2.691121995E-1,-2.041311264E-1
4.310976041E0,9.108003229E-2,2.435458750E-1,-1.966742724E-1
4.313439322E0,8.255792409E-2,2.275669277E-1,-1.934784949E-1
4.315902551E0,8.149266243E-2,2.179795504E-1,-1.913479567E-1
4.318365833E0,8.255792409E-2,2.115879655E-1,-1.892174333E-1
4.320829062E0,8.894950151E-2,2.073269188E-1,-1.838911176E-1
4.323292343E0,9.321055561E-2,2.041311264E-1,-1.796300560E-1
4.325755572E0,9.214529395E-2,2.030658573E-1,-1.774995327E-1
4.328218801E0,9.427582473E-2,1.956090182E-1,-1.711079478E-1
4.330682083E0,9.321055561E-2,1.881521642E-1,-1.668469012E-1
4.333145312E0,9.534108639E-2,1.828258485E-1,-1.636511087E-1
4.335608593E0,1.006674021E-1,1.806953251E-1,-1.551290005E-1
4.338071822E0,1.017326638E-1,1.743037403E-1,-1.519332081E-1
4.340535103E0,1.049284562E-1,1.636511087E-1,-1.487374157E-1
4.342998333E0,1.038631946E-1,1.551290005E-1,-1.434110999E-1
4.345461614E0,9.427582473E-2,1.498026848E-1,-1.370195150E-1
4.347924843E0,8.575371653E-2,1.348889917E-1,-1.306279451E-1
4.350388124E0,7.297055423E-2,1.114531979E-1,-1.263668835E-1
4.352851353E0,6.444844604E-2,8.056055754E-2,-1.210405678E-1
4.355314583E0,5.273054540E-2,5.286370218E-2,-1.061268821E-1
4.357777864E0,3.568632901E-2,2.623211406E-2,-9.760477394E-2
4.360241093E0,2.929474786E-2,3.861580277E-3,-9.121318907E-2
4.362704374E0,2.609895542E-2,-1.211737283E-2,-7.949528843E-2
4.365167603E0,1.757684723E-2,-2.383527160E-2,-7.416897267E-2
4.367630885E0,1.864211261E-2,-3.555316851E-2,-6.671212614E-2
4.370094114E0,2.396842837E-2,-3.555316851E-2,-6.138581038E-2
4.372557395E0,2.183790132E-2,-4.194474965E-2,-5.819002166E-2
4.375020624E0,2.077263966E-2,-4.620580375E-2,-5.605949461E-2
4.377483905E0,1.757684723E-2,-5.366265029E-2,-5.179844052E-2
4.379947135E0,1.225053053E-2,-6.005423144E-2,-4.647212103E-2
4.382410416E0,6.924212910E-3,-6.325002015E-2,-4.540685937E-2
4.384873645E0,1.597895287E-3,-7.070686668E-2,-4.114580527E-2
4.387336874E0,-1.597895287E-3,-7.816371322E-2,-3.795001283E-2
4.389800155E0,-4.793685861E-3,-8.349002898E-2,-3.581948578E-2
4.392263385E0,-1.012000348E-2,-9.094687551E-2,-3.368895873E-2
4.394726666E0,-1.438105758E-2,-9.414266050E-2,-3.049316816E-2
4.397189895E0,-1.864211261E-2,-9.733845294E-2,-2.729737759E-2
4.399653176E0,-2.396842837E-2,-1.069258228E-1,-2.303632349E-2
4.402116405E0,-2.609895542E-2,-1.111868769E-1,-2.090579644E-2
4.404579687E0,-2.822948247E-2,-1.186437234E-1,-1.771000586E-2
4.407042916E0,-3.568632901E-2,-1.218395159E-1,-1.451421529E-2
4.409506197E0,-3.781685606E-2,-1.250353009E-1,-1.557947882E-2
4.411969426E0,-3.675159067E-2,-1.282310933E-1,-1.344895177E-2
4.414432655E0,-3.675159067E-2,-1.324921548E-1,-1.131842472E-2
4.416895937E0,-3.568632901E-2,-1.346226782E-1,-1.451421529E-2
4.419359166E0,-3.781685606E-2,-1.378184706E-1,-1.025316119E-2
4.421822447E0,-4.101264477E-2,-1.431447864E-1,-7.057370618E-3
4.424285676E0,-4.207791016E-2,-1.516668946E-1,-7.057370618E-3
4.426748958E0,-4.101264477E-2,-1.580584794E-1,-1.731053228E-3
4.429212187E0,-4.207791016E-2,-1.633847952E-1,-6.657897029E-4
4.431675468E0,-4.314317182E-2,-1.665805876E-1,1.464737346E-3
4.434138697E0,-4.314317182E-2,-1.697763801E-1,3.595264396E-3
4.436601978E0,-4.101264477E-2,-1.772332191E-1,5.725791678E-3
4.439065208E0,-3.888211772E-2,-1.804290116E-1,8.921582252E-3
4.441528489E0,-3.994738311E-2,-1.804290116E-1,1.318263635E-2
4.443991718E0,-3.568632901E-2,-1.814942658E-1,1.318263635E-2
4.446454947E0,-3.142527491E-2,-1.857553273E-1,1.531316340E-2
4.448918228E0,-3.249053657E-2,-1.900163740E-1,1.957421750E-2
4.451381458E0,-3.462106362E-2,-1.953427047E-1,2.383527160E-2
4.453844739E0,-3.568632901E-2,-1.964079589E-1,2.490053512E-2
4.456307968E0,-3.249053657E-2,-1.974732280E-1,2.703106217E-2
4.458771249E0,-2.716422081E-2,-1.974732280E-1,3.022685274E-2
4.461234478E0,-2.716422081E-2,-1.932121664E-1,3.448790684E-2
4.463697760E0,-2.609895542E-2,-1.932121664E-1,3.661843389E-2
4.466160989E0,-2.396842837E-2,-1.942774355E-1,4.194474965E-2
4.468624270E0,-1.864211261E-2,-1.974732280E-1,4.514054209E-2
4.471087499E0,-1.651158556E-2,-2.017342746E-1,5.472791195E-2
4.473550728E0,-1.544632111E-2,-2.059953362E-1,5.472791195E-2
4.476014010E0,-1.331579406E-2,-2.038648129E-1,6.111949310E-2
4.478477239E0,-1.118526701E-2,-2.027995437E-1,6.644581258E-2
4.480940520E0,-6.924212910E-3,-2.038648129E-1,7.070686668E-2
4.483403749E0,-1.597895287E-3,-2.070605904E-1,7.496792078E-2
4.485867030E0,3.728422336E-3,-2.081258595E-1,8.242476732E-2
4.488330260E0,5.326317623E-4,-2.123869210E-1,8.775108308E-2
4.490793541E0,4.793685861E-3,-2.145174444E-1,9.201213717E-2
4.493256770E0,4.793685861E-3,-2.177132368E-1,9.520792961E-2
4.495720051E0,1.597895287E-3,-2.230395526E-1,9.946898371E-2
4.498183280E0,-5.326317623E-4,-2.251700759E-1,1.079910919E-1
4.500646562E0,-5.326317623E-4,-2.262353450E-1,1.143826693E-1
4.503109791E0,-2.663158812E-3,-2.326269150E-1,1.197089851E-1
4.505573020E0,-7.989476435E-3,-2.326269150E-1,1.250353009E-1
4.508036301E0,-1.331579406E-2,-2.347574532E-1,1.292963624E-1
4.510499530E0,-1.544632111E-2,-2.358227074E-1,1.388837248E-1
4.512962812E0,-1.970737427E-2,-2.368879765E-1,1.410142630E-1
4.515426041E0,-2.290316671E-2,-2.400837690E-1,1.420795172E-1
4.517889322E0,-3.142527491E-2,-2.432795614E-1,1.452753097E-1
4.520352551E0,-3.888211772E-2,-2.390184999E-1,1.516668946E-1
4.522815833E0,-3.888211772E-2,-2.358227074E-1,1.537974179E-1
4.525279062E0,-4.420843720E-2,-2.390184999E-1,1.569932103E-1
4.527742343E0,-5.060001835E-2,-2.358227074E-1,1.548626870E-1
4.530205572E0,-5.699159950E-2,-2.390184999E-1,1.569932103E-1
4.532668801E0,-5.912212655E-2,-2.422142923E-1,1.580584794E-1
4.535132083E0,-6.125265360E-2,-2.422142923E-1,1.591237336E-1
4.537595312E0,-6.444844604E-2,-2.422142923E-1,1.537974179E-1
4.540058593E0,-6.551370770E-2,-2.464753538E-1,1.527321637E-1
4.542521822E0,-6.338317692E-2,-2.443448156E-1,1.548626870E-1
4.544985103E0,-6.338317692E-2,-2.464753538E-1,1.516668946E-1
4.547448333E0,-6.764423102E-2,-2.464753538E-1,1.484711021E-1
4.549911614E0,-6.444844604E-2,-2.443448156E-1,1.463405788E-1
4.552374843E0,-6.764423102E-2,-2.464753538E-1,1.431447864E-1
4.554838124E0,-6.551370770E-2,-2.443448156E-1,1.367532015E-1
4.557301353E0,-6.231791526E-2,-2.454100847E-1,1.314268857E-1
4.559764583E0,-6.444844604E-2,-2.454100847E-1,1.261005700E-1
4.562227864E0,-6.338317692E-2,-2.454100847E-1,1.218395159E-1
4.564691093E0,-6.231791526E-2,-2.464753538E-1,1.207742542E-1
4.567154374E0,-6.018738821E-2,-2.422142923E-1,1.133174077E-1
4.569617603E0,-6.231791526E-2,-2.422142923E-1,1.101216152E-1
4.572080885E0,-6.444844604E-2,-2.432795614E-1,1.058605611E-1
4.574544114E0,-6.657896936E-2,-2.422142923E-1,9.946898371E-2
4.577007395E0,-6.870950013E-2,-2.400837690E-1,9.520792961E-2
4.579470624E0,-7.084002346E-2,-2.347574532E-1,8.775108308E-2
4.581933905E0,-7.084002346E-2,-2.336921841E-1,8.349002898E-2
4.584397135E0,-7.510107756E-2,-2.209090292E-1,8.029423654E-2
4.586860416E0,-7.936213166E-2,-2.155826986E-1,7.603318244E-2
4.589323645E0,-8.255792409E-2,-2.081258595E-1,7.283739001E-2
4.591786874E0,-8.681897819E-2,-1.996037513E-1,6.857633591E-2
4.594250155E0,-9.108003229E-2,-1.942774355E-1,6.538055092E-2
4.596713385E0,-9.640634805E-2,-1.804290116E-1,6.005423144E-2
4.599176666E0,-1.017326638E-1,-1.719069034E-1,5.579317734E-2
4.601639895E0,-1.059937179E-1,-1.623195261E-1,5.153212324E-2
4.604103176E0,-1.091895103E-1,-1.506016254E-1,4.514054209E-2
4.606566405E0,-1.166463569E-1,-1.388837248E-1,4.194474965E-2
4.609029687E0,-1.198421493E-1,-1.271658391E-1,3.555316851E-2
4.611492916E0,-1.262337267E-1,-1.122521460E-1,3.129211441E-2
4.613956197E0,-1.336905658E-1,-1.069258228E-1,2.277000807E-2
4.616419426E0,-1.400821507E-1,-9.520792961E-2,1.744369045E-2
4.618882655E0,-1.454084665E-1,-8.455529064E-2,8.921582252E-3
4.621345937E0,-1.496695280E-1,-7.283739001E-2,3.994738217E-4
4.623809166E0,-1.581916362E-1,-5.792370439E-2,-9.187897667E-3
4.626272447E0,-1.656484753E-1,-4.833633080E-2,-1.664474234E-2
4.628735676E0,-1.709747910E-1,-3.768369555E-2,-2.729737759E-2
4.631198958E0,-1.784316450E-1,-2.383527160E-2,-3.368895873E-2
4.633662187E0,-1.805621684E-1,-8.921582252E-3,-4.327633232E-2
4.636125468E0,-1.816274375E-1,4.926843569E-3,-5.286370218E-2
4.638588697E0,-1.826926917E-1,1.557947882E-2,-6.032054871E-2
4.641051978E0,-1.837579608E-1,2.836264111E-2,-6.777739525E-2
4.643515208E0,-1.880190074E-1,3.901527822E-2,-7.843002677E-2
4.645978489E0,-1.826926917E-1,4.647212103E-2,-8.695213497E-2
4.648441718E0,-1.805621684E-1,5.712475628E-2,-9.227845073E-2
4.650904947E0,-1.763011068E-1,6.884265691E-2,-1.018658280E-1
4.653368228E0,-1.699095368E-1,7.843002677E-2,-1.093226671E-1
4.655831458E0,-1.656484753E-1,8.588687330E-2,-1.146489903E-1
4.658294739E0,-1.635179520E-1,9.547424316E-2,-1.199753061E-1
4.660757968E0,-1.549958438E-1,9.973529726E-2,-1.221058294E-1
4.663221249E0,-1.475390047E-1,1.061268821E-1,-1.284974068E-1
4.665684478E0,-1.379516274E-1,1.103879362E-1,-1.284974068E-1
4.668147760E0,-1.283642501E-1,1.146489903E-1,-1.316931993E-1
4.670610989E0,-1.166463569E-1,1.189100444E-1,-1.348889917E-1
4.673074270E0,-1.081242487E-1,1.263668835E-1,-1.359542608E-1
4.675537499E0,-1.006674021E-1,1.295626760E-1,-1.359542608E-1
4.678000728E0,-9.108003229E-2,1.338237375E-1,-1.338237375E-1
4.680464010E0,-7.936213166E-2,1.444763690E-1,-1.306279451E-1
4.682927239E0,-6.870950013E-2,1.540637314E-1,-1.327584684E-1
4.685390520E0,-6.018738821E-2,1.615205854E-1,-1.295626760E-1
4.687853749E0,-5.060001835E-2,1.721732169E-1,-1.263668835E-1
4.690317030E0,-4.420843720E-2,1.828258485E-1,-1.242363602E-1
4.692780260E0,-3.355580196E-2,1.924132258E-1,-1.210405678E-1
4.695243541E0,-2.609895542E-2,2.009353340E-1,-1.167795137E-1
4.697706770E0,-1.864211261E-2,2.083921731E-1,-1.135837212E-1
4.700170051E0,-1.012000348E-2,2.158490270E-1,-1.082574055E-1
4.702633280E0,-2.663158812E-3,2.233058661E-1,-1.061268821E-1
4.705096562E0,3.728422336E-3,2.254363894E-1,-1.008005589E-1
4.707559791E0,1.012000348E-2,2.339584976E-1,-9.440898150E-2
4.710023020E0,1.970737427E-2,2.392848134E-1,-8.908266574E-2
4.712486301E0,1.970737427E-2,2.456763983E-1,-8.375634253E-2
4.714949530E0,2.503369376E-2,2.510027289E-1,-8.162581921E-2
4.717412812E0,3.036000952E-2,2.520679832E-1,-7.523423433E-2
4.719876041E0,3.249053657E-2,2.552637756E-1,-7.097318023E-2
4.722339322E0,3.781685606E-2,2.552637756E-1,-6.564686447E-2
4.724802551E0,4.207791016E-2,2.563290298E-1,-5.819002166E-2
4.727265833E0,4.101264477E-2,2.563290298E-1,-4.966791347E-2
4.729729062E0,4.101264477E-2,2.552637756E-1,-4.434159398E-2
4.732192343E0,4.527369887E-2,2.563290298E-1,-4.008053988E-2
4.734655572E0,4.420843720E-2,2.531332374E-1,-3.581948578E-2
4.737118801E0,4.527369887E-2,2.499374598E-1,-2.942790464E-2
4.739582083E0,4.740422592E-2,2.456763983E-1,-2.516685054E-2
4.742045312E0,4.420843720E-2,2.435458750E-1,-2.090579644E-2
4.744508593E0,4.207791016E-2,2.435458750E-1,-1.557947882E-2
4.746971822E0,4.101264477E-2,2.382195592E-1,-1.344895177E-2
4.749435103E0,3.888211772E-2,2.339584976E-1,-1.025316119E-2
4.751898333E0,3.888211772E-2,2.318279743E-1,-8.122634143E-3
4.754361614E0,3.462106362E-2,2.275669277E-1,-7.057370618E-3
4.756824843E0,3.568632901E-2,2.179795504E-1,-2.796316752E-3
4.759288124E0,3.568632901E-2,2.115879655E-1,-1.731053228E-3
4.761751353E0,3.462106362E-2,2.041311264E-1,-6.657897029E-4
4.764214635E0,3.568632901E-2,1.956090182E-1,3.994738217E-4
4.766677864E0,3.355580196E-2,1.870869100E-1,2.530000871E-3
4.769141093E0,3.781685606E-2,1.785648018E-1,2.530000871E-3
4.771604374E0,4.527369887E-2,1.700426936E-1,3.994738217E-4
4.774067603E0,4.953475296E-2,1.593900621E-1,3.994738217E-4
4.776530885E0,5.273054540E-2,1.508679539E-1,-1.731053228E-3
4.778994114E0,5.592633411E-2,1.444763690E-1,-2.796316752E-3
4.781457395E0,6.338317692E-2,1.338237375E-1,-4.926843569E-3
4.783920624E0,7.084002346E-2,1.253016293E-1,-8.122634143E-3
4.786383905E0,7.723160833E-2,1.210405678E-1,-9.187897667E-3
4.788847135E0,8.681897819E-2,1.114531979E-1,-1.131842472E-2
4.791310468E0,9.214529395E-2,9.973529726E-2,-1.451421529E-2
4.793773697E0,9.747160971E-2,9.334371984E-2,-1.451421529E-2
4.796236978E0,1.059937179E-1,8.908266574E-2,-1.771000586E-2
4.798700260E0,1.134505644E-1,8.162581921E-2,-1.984053291E-2
4.801163541E0,1.198421493E-1,7.416897267E-2,-1.984053291E-2
4.803626822E0,1.241032034E-1,7.416897267E-2,-2.303632349E-2
4.806090103E0,1.283642501E-1,6.990791857E-2,-2.410158701E-2
4.808553385E0,1.304947883E-1,6.564686447E-2,-2.516685054E-2
4.811016666E0,1.315600425E-1,6.351634115E-2,-2.836264111E-2
4.813479947E0,1.336905658E-1,6.458160281E-2,-3.581948578E-2
4.815943228E0,1.368863583E-1,6.458160281E-2,-3.475422412E-2
4.818406510E0,1.379516274E-1,6.245107576E-2,-3.688475117E-2
4.820869791E0,1.390168965E-1,6.351634115E-2,-3.688475117E-2
4.823333072E0,1.379516274E-1,6.032054871E-2,-3.795001283E-2
4.825796353E0,1.379516274E-1,5.819002166E-2,-4.008053988E-2
4.828259635E0,1.358211040E-1,5.819002166E-2,-4.221106693E-2
4.830722968E0,1.336905658E-1,5.712475628E-2,-4.327633232E-2
4.833186249E0,1.315600425E-1,5.392896757E-2,-4.221106693E-2
4.835649530E0,1.262337267E-1,5.499422923E-2,-4.327633232E-2
4.838112812E0,1.209074110E-1,5.073317513E-2,-5.073317513E-2
4.840576093E0,1.177116185E-1,4.540685937E-2,-4.647212103E-2
4.843039374E0,1.113200411E-1,4.327633232E-2,-4.753738642E-2
4.845502655E0,1.017326638E-1,4.008053988E-2,-4.753738642E-2
4.847965937E0,9.427582473E-2,3.795001283E-2,-4.860264808E-2
4.850429218E0,8.788423985E-2,3.475422412E-2,-4.647212103E-2
4.852892499E0,7.616633922E-2,2.836264111E-2,-4.860264808E-2
4.855355780E0,7.084002346E-2,2.942790464E-2,-5.073317513E-2
4.857819062E0,6.551370770E-2,2.836264111E-2,-4.860264808E-2
4.860282343E0,6.125265360E-2,2.942790464E-2,-4.860264808E-2
4.862745624E0,5.805686116E-2,2.729737759E-2,-5.073317513E-2
4.865208905E0,5.273054540E-2,2.516685054E-2,-4.860264808E-2
4.867672187E0,4.953475296E-2,3.049316816E-2,-4.434159398E-2
4.870135520E0,4.314317182E-2,3.368895873E-2,-4.647212103E-2
4.872598801E0,4.101264477E-2,3.368895873E-2,-4.860264808E-2
4.875062083E0,3.355580196E-2,3.581948578E-2,-4.753738642E-2
4.877525364E0,3.355580196E-2,4.114580527E-2,-4.647212103E-2
4.879988645E0,3.462106362E-2,4.327633232E-2,-4.327633232E-2
4.882451926E0,3.355580196E-2,4.540685937E-2,-4.327633232E-2
4.884915208E0,3.142527491E-2,5.073317513E-2,-4.327633232E-2
4.887378489E0,3.249053657E-2,4.966791347E-2,-4.008053988E-2
4.889841770E0,2.929474786E-2,5.286370218E-2,-3.688475117E-2
4.892305051E0,2.929474786E-2,5.392896757E-2,-3.262369707E-2
4.894768333E0,3.142527491E-2,5.179844052E-2,-2.942790464E-2
4.897231614E0,3.036000952E-2,5.179844052E-2,-3.049316816E-2
4.899694895E0,2.822948247E-2,5.392896757E-2,-2.836264111E-2
4.902158176E0,2.716422081E-2,5.499422923E-2,-2.197105996E-2
4.904621458E0,2.716422081E-2,5.392896757E-2,-2.090579644E-2
4.907084791E0,2.290316671E-2,5.605949461E-2,-1.984053291E-2
4.909548072E0,1.864211261E-2,6.138581038E-2,-1.771000586E-2
4.912011353E0,1.438105758E-2,6.777739525E-2,-1.557947882E-2
4.914474635E0,6.924212910E-3,6.777739525E-2,-1.557947882E-2
4.916937916E0,5.858949386E-3,7.523423433E-2,-1.238368824E-2
4.919401197E0,-5.326317623E-4,7.736476511E-2,-1.131842472E-2
4.921864478E0,-6.924212910E-3,7.843002677E-2,-1.131842472E-2
4.924327760E0,-1.331579406E-2,8.056055754E-2,-8.122634143E-3
4.926791041E0,-2.290316671E-2,8.162581921E-2,-8.122634143E-3
4.929254322E0,-2.822948247E-2,8.269108087E-2,-8.122634143E-3
4.931717603E0,-3.355580196E-2,8.269108087E-2,-7.057370618E-3
4.934180885E0,-4.207791016E-2,8.588687330E-2,-5.992107093E-3
4.936644166E0,-5.060001835E-2,8.695213497E-2,-2.796316752E-3
4.939107447E0,-5.379580706E-2,8.588687330E-2,-4.926843569E-3
4.941570728E0,-5.912212655E-2,8.908266574E-2,-8.122634143E-3
4.944034010E0,-6.444844604E-2,8.269108087E-2,-4.926843569E-3
4.946497343E0,-6.870950013E-2,7.843002677E-2,-4.926843569E-3
4.948960624E0,-7.190528512E-2,7.416897267E-2,-1.025316119E-2
4.951423905E0,-7.829686999E-2,7.097318023E-2,-1.025316119E-2
4.953887187E0,-8.149266243E-2,6.245107576E-2,-1.238368824E-2
4.956350468E0,-8.468844742E-2,6.138581038E-2,-8.122634143E-3
