"Time (s)","Gyroscope x (rad/s)","Gyroscope y (rad/s)","Gyroscope z (rad/s)"
7.494189500E-2,1.699046642E-1,-4.487293959E-2,-1.211702544E-2
7.743059300E-2,1.358172148E-1,-1.930734888E-2,2.623136342E-2
7.991929100E-2,1.368824393E-1,-2.889444493E-2,1.770949923E-2
8.240798900E-2,1.432738453E-1,-3.102491237E-2,1.344856713E-2
8.489673900E-2,1.454043090E-1,-3.209014609E-2,1.238333434E-2
8.738543700E-2,1.507304758E-1,-3.528584540E-2,1.131810062E-2
8.987413500E-2,1.528609395E-1,-3.848154470E-2,9.187635034E-3
9.236288500E-2,1.581871063E-1,-3.954677656E-2,1.025286783E-2
9.485158300E-2,1.635132730E-1,-4.061200842E-2,9.187635034E-3
9.734257300E-2,1.635132730E-1,-4.061200842E-2,8.122402243E-3
9.983127000E-2,1.667089611E-1,-3.848154470E-2,1.451379992E-2
1.023200200E-1,1.656437367E-1,-3.848154470E-2,1.664426550E-2
1.048087180E-1,1.667089611E-1,-3.741630912E-2,1.770949923E-2
1.072974680E-1,1.656437367E-1,-3.315537795E-2,1.770949923E-2
1.097861660E-1,1.635132730E-1,-3.102491237E-2,1.983996481E-2
1.122748640E-1,1.635132730E-1,-2.676397935E-2,1.983996481E-2
1.147636140E-1,1.624480337E-1,-2.782921307E-2,1.770949923E-2
1.172523120E-1,1.603175700E-1,-2.569874749E-2,1.983996481E-2
1.197410100E-1,1.613828093E-1,-2.143781446E-2,2.090519853E-2
1.222297600E-1,1.581871063E-1,-2.143781446E-2,1.877473295E-2
1.247184580E-1,1.539261788E-1,-1.930734888E-2,1.877473295E-2
1.272066350E-1,1.496652365E-1,-2.143781446E-2,1.877473295E-2
1.296953330E-1,1.422086060E-1,-2.037258074E-2,2.197043039E-2
1.321840830E-1,1.400781423E-1,-1.930734888E-2,2.410089783E-2
1.346727810E-1,1.368824393E-1,-2.037258074E-2,2.303566411E-2
1.371615310E-1,1.294258088E-1,-1.824211515E-2,2.410089783E-2
1.396502290E-1,1.251648813E-1,-2.037258074E-2,2.197043039E-2
1.421389270E-1,1.187734827E-1,-2.250304818E-2,2.197043039E-2
1.446276770E-1,1.113168523E-1,-2.463351376E-2,2.090519853E-2
1.471163750E-1,1.081211492E-1,-2.569874749E-2,1.770949923E-2
1.496050730E-1,1.038602218E-1,-2.889444493E-2,1.664426550E-2
1.520938230E-1,9.959928691E-2,-2.995967865E-2,1.770949923E-2
1.545825200E-1,9.533835202E-2,-3.209014609E-2,1.983996481E-2
1.570707500E-1,9.214265645E-2,-3.635107726E-2,1.664426550E-2
1.595594480E-1,9.214265645E-2,-3.954677656E-2,1.770949923E-2
1.620481980E-1,8.681648970E-2,-3.741630912E-2,1.983996481E-2
1.645368950E-1,8.362079412E-2,-4.167724028E-2,1.983996481E-2
1.670256450E-1,8.042509109E-2,-4.167724028E-2,2.197043039E-2
1.695143430E-1,7.829462737E-2,-3.848154470E-2,2.623136342E-2
1.720030410E-1,7.616416365E-2,-3.741630912E-2,2.942706272E-2
1.744917910E-1,7.403369248E-2,-3.635107726E-2,3.049229458E-2
1.769804890E-1,7.296846062E-2,-3.102491237E-2,3.155753016E-2
1.794691870E-1,7.403369248E-2,-2.676397935E-2,3.475322574E-2
1.819579370E-1,7.190322876E-2,-2.356828004E-2,3.581846133E-2
1.844466350E-1,7.190322876E-2,-2.356828004E-2,3.688369319E-2
1.869348640E-1,7.296846062E-2,-2.143781446E-2,3.901416063E-2
1.894235620E-1,7.083799690E-2,-2.037258074E-2,3.688369319E-2
1.919123120E-1,6.977276504E-2,-1.930734888E-2,3.581846133E-2
1.944010100E-1,6.870753318E-2,-1.930734888E-2,3.794892505E-2
1.968897600E-1,7.083799690E-2,-1.824211515E-2,3.901416063E-2
1.993784580E-1,7.403369248E-2,-2.037258074E-2,3.475322574E-2
2.018671560E-1,7.403369248E-2,-2.037258074E-2,3.155753016E-2
2.043559060E-1,7.616416365E-2,-2.143781446E-2,3.049229458E-2
2.068446040E-1,8.042509109E-2,-2.037258074E-2,2.942706272E-2
2.093333020E-1,8.362079412E-2,-2.250304818E-2,2.942706272E-2
2.118220520E-1,8.788172156E-2,-2.463351376E-2,2.729659714E-2
2.143107500E-1,9.320788831E-2,-2.676397935E-2,3.049229458E-2
2.167989790E-1,9.959928691E-2,-3.102491237E-2,3.262276202E-2
2.192876770E-1,1.006645188E-1,-3.102491237E-2,3.475322574E-2
2.217764270E-1,1.070559174E-1,-2.995967865E-2,3.794892505E-2
2.242651250E-1,1.113168523E-1,-3.315537795E-2,4.220985994E-2
2.267538750E-1,1.113168523E-1,-3.741630912E-2,4.647079110E-2
2.292425730E-1,1.134473160E-1,-3.741630912E-2,5.179695413E-2
2.317312700E-1,1.134473160E-1,-3.848154470E-2,5.605788901E-2
2.342200200E-1,1.123820841E-1,-4.167724028E-2,5.605788901E-2
2.367087180E-1,1.155777797E-1,-4.593817517E-2,5.712312087E-2
2.391974160E-1,1.145125479E-1,-5.232957378E-2,6.031882018E-2
2.416861660E-1,1.145125479E-1,-5.659050494E-2,6.244928762E-2
2.441748640E-1,1.113168523E-1,-5.659050494E-2,6.564498693E-2
2.466630930E-1,1.145125479E-1,-5.659050494E-2,6.777545065E-2
2.491517910E-1,1.145125479E-1,-6.085143611E-2,6.777545065E-2
2.516405410E-1,1.209039465E-1,-5.339480564E-2,6.777545065E-2
2.541292390E-1,1.230344176E-1,-4.487293959E-2,7.097115368E-2
2.566179890E-1,1.187734827E-1,-4.806863889E-2,7.416684926E-2
2.591066870E-1,1.177082509E-1,-4.806863889E-2,7.523208112E-2
2.615953850E-1,1.145125479E-1,-4.806863889E-2,7.523208112E-2
2.640841350E-1,1.091863886E-1,-4.806863889E-2,7.629731297E-2
2.665728330E-1,1.049254537E-1,-4.593817517E-2,7.523208112E-2
2.690615310E-1,1.059906855E-1,-4.380770773E-2,7.203638554E-2
2.715502810E-1,9.959928691E-2,-4.167724028E-2,7.203638554E-2
2.740389790E-1,9.959928691E-2,-4.061200842E-2,7.097115368E-2
2.765271560E-1,9.746882319E-2,-4.380770773E-2,6.671021879E-2
2.790158540E-1,9.746882319E-2,-4.380770773E-2,6.671021879E-2
2.815046040E-1,9.427312016E-2,-4.700340703E-2,6.671021879E-2
2.839933020E-1,9.427312016E-2,-5.126433820E-2,5.925358832E-2
2.864820520E-1,9.427312016E-2,-5.552527308E-2,5.392742157E-2
2.889707500E-1,9.746882319E-2,-6.191666797E-2,4.966649041E-2
2.914594480E-1,9.746882319E-2,-6.404713541E-2,4.434032366E-2
2.939481980E-1,1.017297506E-1,-7.043853402E-2,3.901416063E-2
2.964368950E-1,9.959928691E-2,-7.682993263E-2,2.729659714E-2
2.989255930E-1,1.017297506E-1,-8.641702682E-2,1.664426550E-2
3.014143430E-1,1.038602218E-1,-8.961272985E-2,1.344856713E-2
3.039030410E-1,1.049254537E-1,-9.280842543E-2,3.861469682E-3
3.063912700E-1,1.091863886E-1,-9.174319357E-2,-2.529928461E-3
3.088799680E-1,1.198387146E-1,-9.174319357E-2,-7.856093347E-3
3.113687180E-1,1.219691783E-1,-9.067796171E-2,-1.211702544E-2
3.138574160E-1,1.283605844E-1,-8.854749799E-2,-1.318225823E-2
3.163461660E-1,1.368824393E-1,-8.428656310E-2,-1.424749196E-2
3.188348640E-1,1.443390697E-1,-8.002562821E-2,-1.744319126E-2
3.213235620E-1,1.528609395E-1,-7.682993263E-2,-2.170412242E-2
3.238120000E-1,1.581871063E-1,-7.150376588E-2,-2.276935615E-2
3.263007500E-1,1.667089611E-1,-6.830807030E-2,-2.276935615E-2
3.287894480E-1,1.731003672E-1,-6.298190355E-2,-2.596505545E-2
3.312781980E-1,1.816222370E-1,-6.085143611E-2,-2.489982173E-2
3.337668950E-1,1.880136281E-1,-5.978620425E-2,-2.383458801E-2
3.362555930E-1,1.922745556E-1,-5.765573680E-2,-2.170412242E-2
3.387443430E-1,1.954702586E-1,-5.659050494E-2,-1.531272475E-2
3.412330410E-1,1.976007223E-1,-5.339480564E-2,-1.105179265E-2
3.437217390E-1,1.965354979E-1,-5.446003750E-2,-6.790860556E-3
3.462104890E-1,1.954702586E-1,-5.126433820E-2,-2.529928461E-3
3.486991870E-1,1.944050342E-1,-5.019910634E-2,3.861469682E-3
3.512263230E-1,1.922745556E-1,-5.232957378E-2,5.991935730E-3
3.537150200E-1,1.880136281E-1,-5.339480564E-2,8.122402243E-3
3.562037180E-1,1.805569977E-1,-5.552527308E-2,1.238333434E-2
3.586924680E-1,1.741656065E-1,-5.232957378E-2,1.770949923E-2
3.611811660E-1,1.677742004E-1,-5.126433820E-2,2.623136342E-2
3.636699160E-1,1.581871063E-1,-5.126433820E-2,3.262276202E-2
3.661586140E-1,1.475347728E-1,-4.913387448E-2,3.475322574E-2
3.686473120E-1,1.368824393E-1,-4.913387448E-2,3.901416063E-2
3.711360620E-1,1.304910481E-1,-5.019910634E-2,4.220985994E-2
3.736247600E-1,1.166430190E-1,-5.232957378E-2,4.220985994E-2
3.761134580E-1,1.070559174E-1,-5.446003750E-2,4.647079110E-2
3.786022080E-1,9.959928691E-2,-5.446003750E-2,5.286218971E-2
3.810903850E-1,9.214265645E-2,-5.339480564E-2,5.499265343E-2
3.835790830E-1,8.255556226E-2,-5.019910634E-2,5.499265343E-2
3.860677810E-1,7.403369248E-2,-4.913387448E-2,6.031882018E-2
3.885565310E-1,6.764229387E-2,-5.126433820E-2,6.138405204E-2
3.910452290E-1,6.231613085E-2,-5.126433820E-2,6.351451576E-2
3.935339790E-1,5.698996782E-2,-5.019910634E-2,6.457975507E-2
3.960226770E-1,5.059856921E-2,-5.232957378E-2,6.457975507E-2
3.985113750E-1,4.314193875E-2,-5.126433820E-2,6.244928762E-2
4.010001250E-1,3.888100386E-2,-5.339480564E-2,5.925358832E-2
4.034888230E-1,3.568530455E-2,-5.446003750E-2,5.605788901E-2
4.059775200E-1,3.142437339E-2,-5.552527308E-2,5.286218971E-2
4.084662700E-1,2.503297664E-2,-5.552527308E-2,4.647079110E-2
4.109544480E-1,2.183727734E-2,-5.659050494E-2,4.114462435E-2
4.134431450E-1,1.970681176E-2,-5.765573680E-2,3.688369319E-2
4.159318430E-1,1.757634431E-2,-5.552527308E-2,3.262276202E-2
4.184205930E-1,1.757634431E-2,-5.446003750E-2,3.475322574E-2
4.209092910E-1,1.757634431E-2,-5.232957378E-2,3.262276202E-2
4.233980410E-1,1.651111245E-2,-4.700340703E-2,3.155753016E-2
4.258867390E-1,1.757634431E-2,-4.274247587E-2,3.262276202E-2
4.283754370E-1,1.651111245E-2,-3.528584540E-2,3.262276202E-2
4.308641870E-1,1.864157803E-2,-2.889444493E-2,3.794892505E-2
4.333528850E-1,2.077204362E-2,-2.037258074E-2,3.901416063E-2
4.358415830E-1,2.503297664E-2,-1.291595027E-2,4.220985994E-2
4.383303330E-1,3.142437339E-2,-5.459319334E-3,4.540555924E-2
4.408185620E-1,3.462007269E-2,-4.394086078E-3,4.753602296E-2
4.433072600E-1,3.462007269E-2,-3.328853287E-3,4.966649041E-2
4.457959580E-1,3.994623944E-2,-5.459319334E-3,4.966649041E-2
4.482847080E-1,4.207670316E-2,-9.720250964E-3,4.753602296E-2
4.507734060E-1,4.527240247E-2,-1.398118306E-2,5.073172227E-2
4.532621560E-1,4.101147130E-2,-2.143781446E-2,5.392742157E-2
4.557508540E-1,4.420717061E-2,-2.676397935E-2,5.392742157E-2
4.582395520E-1,4.420717061E-2,-3.209014609E-2,5.286218971E-2
4.607283020E-1,3.994623944E-2,-3.741630912E-2,5.392742157E-2
4.632170000E-1,3.675054014E-2,-3.954677656E-2,5.605788901E-2
4.657056980E-1,3.355484083E-2,-3.848154470E-2,5.712312087E-2
4.681944480E-1,2.609820850E-2,-3.528584540E-2,6.244928762E-2
4.706826250E-1,1.864157803E-2,-2.889444493E-2,6.777545065E-2
4.731713230E-1,1.011971384E-2,-2.356828004E-2,7.736254483E-2
4.756600200E-1,3.728315700E-3,-1.717688330E-2,8.481918275E-2
4.781487700E-1,-6.924014539E-3,-1.291595027E-2,9.334104508E-2
4.806374680E-1,-1.970681176E-2,-7.589785382E-3,9.866721183E-2
4.831262180E-1,-3.462007269E-2,-2.263620263E-3,1.071890742E-1
4.856149160E-1,-5.059856921E-2,9.320789250E-4,1.135804728E-1
4.881036140E-1,-5.912043154E-2,6.258244161E-3,1.231675670E-1
4.905923640E-1,-7.403369248E-2,1.158440951E-2,1.338198930E-1
4.930810620E-1,-8.468602598E-2,1.158440951E-2,1.380808353E-1
4.955697600E-1,-9.200949967E-2,8.388710208E-3,1.423417628E-1
4.980585100E-1,-1.015966013E-1,-5.459319334E-3,1.455374658E-1
5.005467390E-1,-1.090532318E-1,-2.037258074E-2,1.434070021E-1
5.030354370E-1,-1.207707971E-1,-3.635107726E-2,1.455374658E-1
5.055241350E-1,-1.612496525E-1,-2.463351376E-2,1.455374658E-1
5.080128850E-1,-2.645772398E-1,7.656362653E-2,1.412765235E-1
5.105015830E-1,-3.753614724E-1,2.149107605E-1,1.295589656E-1
5.129903330E-1,-4.286231399E-1,3.107817471E-1,1.284937263E-1
5.154790310E-1,-4.392754734E-1,3.608476818E-1,1.434070021E-1
5.179677290E-1,-4.296883643E-1,3.970656097E-1,1.551245600E-1
5.204564790E-1,-4.083836973E-1,4.364792407E-1,1.593854874E-1
5.229451770E-1,-3.945356905E-1,4.822842479E-1,1.583202630E-1
5.254338750E-1,-3.806876540E-1,5.227631330E-1,1.572550237E-1
5.279226250E-1,-3.689700961E-1,5.547201037E-1,1.561897993E-1
5.304108020E-1,-3.529915810E-1,5.802856684E-1,1.572550237E-1
5.328995000E-1,-3.391435742E-1,5.920032263E-1,1.540593207E-1
5.353881980E-1,-3.252955377E-1,5.941337347E-1,1.455374658E-1
5.378769480E-1,-3.103822768E-1,5.802856684E-1,1.391460598E-1
5.403656450E-1,-2.890776098E-1,5.557853580E-1,1.338198930E-1
5.428543950E-1,-2.624467909E-1,5.248935819E-1,1.263632625E-1
5.453430930E-1,-2.379464209E-1,4.812190235E-1,1.210371032E-1
5.478317910E-1,-2.081198990E-1,4.343487620E-1,1.146457046E-1
5.503205410E-1,-1.772281379E-1,3.800218701E-1,1.039933711E-1
5.528092390E-1,-1.495320797E-1,3.182383776E-1,9.547150880E-2
5.552979370E-1,-1.143793985E-1,2.607157826E-1,8.908011019E-2
5.577866870E-1,-8.042509109E-2,1.989322603E-1,7.842778414E-2
5.602748640E-1,-4.527240247E-2,1.296921223E-1,6.777545065E-2
5.627635620E-1,-4.793548491E-3,5.845466256E-2,5.925358832E-2
5.652522600E-1,3.675054014E-2,-6.524552125E-3,4.540555924E-2
5.677410100E-1,7.403369248E-2,-7.469946891E-2,3.581846133E-2
5.702297080E-1,1.177082509E-1,-1.439396143E-1,2.303566411E-2
5.727182500E-1,1.667089611E-1,-2.089188248E-1,9.187635034E-3
5.752070000E-1,2.071878165E-1,-2.707023323E-1,-3.994623839E-4
5.776956980E-1,2.466014475E-1,-3.271597028E-1,-1.531272475E-2
5.801843950E-1,2.881455421E-1,-3.793561161E-1,-2.489982173E-2
5.826731450E-1,3.264939189E-1,-4.251611233E-1,-3.235645220E-2
5.851618430E-1,3.616466224E-1,-4.709661603E-1,-4.087831825E-2
5.876505410E-1,3.989297748E-1,-5.125102401E-1,-4.726971686E-2
5.901392910E-1,4.340824485E-1,-5.560516119E-1,-5.366111174E-2
5.926279890E-1,4.671046734E-1,-5.975957513E-1,-5.579157919E-2
5.951166870E-1,4.937354922E-1,-6.338136196E-1,-6.111774594E-2
5.976054370E-1,5.181027055E-1,-6.668358445E-1,-6.857437640E-2
6.000936660E-1,5.351464152E-1,-6.785534620E-1,-7.177007198E-2
6.025823640E-1,5.351464152E-1,-6.742925048E-1,-6.857437640E-2
6.050710620E-1,5.362116694E-1,-6.593792439E-1,-6.750914454E-2
6.075598120E-1,5.319507122E-1,-6.338136196E-1,-5.898727849E-2
6.100485100E-1,5.202331543E-1,-6.039870977E-1,-5.259587988E-2
6.125372600E-1,5.033226013E-1,-5.698996782E-1,-4.620448127E-2
6.150259580E-1,4.905398190E-1,-5.390079021E-1,-4.087831825E-2
6.838847610E-1,4.354140162E-2,-3.022598661E-2,-5.991935730E-3
6.863734590E-1,1.797580719E-2,-1.105179265E-2,1.105179265E-2
6.888622090E-1,1.264964230E-2,4.926702939E-3,9.986559860E-3
6.913509070E-1,1.264964230E-2,8.122402243E-3,8.921326138E-3
6.938396570E-1,8.388710208E-3,9.187635034E-3,5.725627299E-3
6.963283540E-1,5.193010904E-3,1.025286783E-2,4.660394508E-3
6.988170520E-1,3.062544856E-3,1.238333434E-2,5.725627299E-3
7.013058020E-1,-1.198387123E-3,1.451379992E-2,4.660394508E-3
7.037945000E-1,-3.328853287E-3,1.983996481E-2,2.529928461E-3
7.062831980E-1,-5.459319334E-3,2.410089783E-2,3.994623839E-4
7.087719480E-1,-4.394086078E-3,2.516612969E-2,1.464695437E-3
7.112628340E-1,-5.459319334E-3,2.729659714E-2,3.994623839E-4
7.137515320E-1,-4.394086078E-3,3.262276202E-2,1.464695437E-3
7.162402290E-1,-3.328853287E-3,3.688369319E-2,1.464695437E-3
7.187289790E-1,-1.198387123E-3,3.688369319E-2,2.529928461E-3
7.212176770E-1,-2.263620263E-3,3.794892505E-2,2.529928461E-3
7.237064270E-1,-3.328853287E-3,3.688369319E-2,1.464695437E-3
7.261951250E-1,-2.263620263E-3,3.581846133E-2,3.994623839E-4
7.286838230E-1,-1.198387123E-3,3.368799388E-2,3.994623839E-4
7.311725730E-1,3.062544856E-3,2.942706272E-2,-6.657706108E-4
7.336612710E-1,3.062544856E-3,2.623136342E-2,3.595161485E-3
7.361499690E-1,-2.263620263E-3,2.410089783E-2,4.660394508E-3
7.386387190E-1,-1.198387123E-3,2.197043039E-2,3.595161485E-3
7.411268960E-1,-1.331541280E-4,2.197043039E-2,2.529928461E-3
7.436155940E-1,-3.328853287E-3,1.770949923E-2,2.529928461E-3
7.461042920E-1,-3.328853287E-3,1.770949923E-2,1.464695437E-3
7.485930420E-1,-2.263620263E-3,1.770949923E-2,1.464695437E-3
7.510817400E-1,-7.589785382E-3,1.770949923E-2,4.660394508E-3
7.535704900E-1,-7.589785382E-3,1.770949923E-2,9.986559860E-3
7.560591880E-1,-1.078548469E-2,1.770949923E-2,1.211702544E-2
7.585478860E-1,-1.291595027E-2,2.090519853E-2,1.424749196E-2
7.610366360E-1,-1.611164957E-2,2.090519853E-2,1.637795754E-2
7.635253340E-1,-1.824211515E-2,1.983996481E-2,2.063889056E-2
7.660140320E-1,-2.569874749E-2,1.877473295E-2,2.170412242E-2
7.685027820E-1,-2.995967865E-2,2.197043039E-2,2.489982173E-2
7.709909590E-1,-3.209014609E-2,2.197043039E-2,2.916075476E-2
7.734796570E-1,-3.528584540E-2,2.303566411E-2,2.916075476E-2
7.759683540E-1,-3.635107726E-2,2.516612969E-2,3.129122034E-2
7.784571040E-1,-3.741630912E-2,2.729659714E-2,3.342168778E-2
7.809458020E-1,-3.528584540E-2,2.623136342E-2,3.555215150E-2
7.834345520E-1,-3.635107726E-2,2.623136342E-2,3.448691964E-2
7.859232500E-1,-3.315537795E-2,2.623136342E-2,3.342168778E-2
7.884119480E-1,-3.315537795E-2,2.623136342E-2,3.235645220E-2
7.909006980E-1,-3.102491237E-2,2.516612969E-2,3.022598661E-2
7.933893960E-1,-2.782921307E-2,2.410089783E-2,2.703028731E-2
7.958780940E-1,-2.569874749E-2,2.516612969E-2,2.489982173E-2
7.983668440E-1,-2.569874749E-2,2.303566411E-2,2.170412242E-2
8.008550210E-1,-2.250304818E-2,1.877473295E-2,1.850842312E-2
8.033437190E-1,-1.717688330E-2,1.770949923E-2,1.850842312E-2
8.058324170E-1,-1.291595027E-2,1.451379992E-2,1.318225823E-2
8.083211670E-1,-1.185071748E-2,9.187635034E-3,8.921326138E-3
8.108098650E-1,-8.655018173E-3,9.187635034E-3,7.856093347E-3
8.132986150E-1,-3.328853287E-3,9.187635034E-3,7.856093347E-3
8.157873130E-1,9.320789250E-4,3.861469682E-3,3.595161485E-3
8.182760110E-1,5.193010904E-3,6.657706108E-4,3.994623839E-4
8.207647610E-1,1.051917579E-2,-4.660394508E-3,-1.731003635E-3
8.232534590E-1,1.371487509E-2,-5.725627299E-3,-6.657706108E-4
8.257421570E-1,1.584534161E-2,-8.921326138E-3,-2.796236658E-3
8.282309070E-1,1.797580719E-2,-9.986559860E-3,-6.657706108E-4
8.307190840E-1,2.010627277E-2,-8.921326138E-3,1.464695437E-3
8.332077820E-1,2.223674022E-2,-7.856093347E-3,-1.731003635E-3
8.356964790E-1,2.330197208E-2,-1.105179265E-2,-3.861469682E-3
8.381852290E-1,2.543243766E-2,-6.790860556E-3,-1.731003635E-3
8.406739270E-1,2.756290510E-2,-4.660394508E-3,1.464695437E-3
8.431626770E-1,3.075860441E-2,-5.725627299E-3,-6.657706108E-4
8.456513750E-1,3.182383627E-2,-4.660394508E-3,1.464695437E-3
8.481400730E-1,2.969337068E-2,-2.529928461E-3,3.595161485E-3
8.506288230E-1,2.969337068E-2,-3.595161485E-3,4.660394508E-3
8.531175210E-1,2.756290510E-2,-7.856093347E-3,3.994623839E-4
8.556062190E-1,2.756290510E-2,-5.725627299E-3,3.994623839E-4
8.580949690E-1,2.330197208E-2,-8.921326138E-3,3.595161485E-3
8.605831460E-1,2.436720580E-2,-7.856093347E-3,3.595161485E-3
8.630718440E-1,2.330197208E-2,-9.986559860E-3,6.790860556E-3
8.655605420E-1,2.010627277E-2,-8.921326138E-3,5.725627299E-3
8.680492920E-1,2.223674022E-2,-7.856093347E-3,7.856093347E-3
8.705379900E-1,1.904104091E-2,-1.105179265E-2,5.725627299E-3
8.730267400E-1,1.691057347E-2,-9.986559860E-3,3.595161485E-3
8.755154380E-1,1.797580719E-2,-8.921326138E-3,5.725627299E-3
8.780041360E-1,1.691057347E-2,-1.318225823E-2,5.725627299E-3
8.804928860E-1,1.371487509E-2,-1.531272475E-2,3.595161485E-3
8.829815840E-1,1.691057347E-2,-1.850842312E-2,4.660394508E-3
8.854702820E-1,1.691057347E-2,-1.850842312E-2,5.725627299E-3
8.879590320E-1,1.478010789E-2,-1.957365684E-2,3.994623839E-4
8.904472090E-1,1.478010789E-2,-1.957365684E-2,-1.731003635E-3
8.929359070E-1,1.691057347E-2,-1.744319126E-2,1.464695437E-3
8.954246040E-1,1.797580719E-2,-1.637795754E-2,2.529928461E-3
8.979133540E-1,1.691057347E-2,-1.637795754E-2,-6.657706108E-4
9.004020520E-1,1.371487509E-2,-1.424749196E-2,-1.731003635E-3
9.028908020E-1,1.691057347E-2,-1.531272475E-2,1.464695437E-3
9.053795000E-1,1.371487509E-2,-1.211702544E-2,2.529928461E-3
9.078681980E-1,1.371487509E-2,-1.211702544E-2,-6.657706108E-4
9.103569480E-1,1.691057347E-2,-8.921326138E-3,-1.731003635E-3
9.128456460E-1,1.584534161E-2,-1.105179265E-2,-6.657706108E-4
9.153343440E-1,1.584534161E-2,-1.105179265E-2,2.529928461E-3
9.178230940E-1,1.478010789E-2,-1.105179265E-2,3.595161485E-3
9.203112190E-1,1.691057347E-2,-1.211702544E-2,3.994623839E-4
9.227999170E-1,1.584534161E-2,-1.211702544E-2,-1.731003635E-3
9.252886150E-1,1.797580719E-2,-1.105179265E-2,3.994623839E-4
9.277773650E-1,2.010627277E-2,-1.211702544E-2,3.994623839E-4
9.302660630E-1,1.797580719E-2,-1.211702544E-2,3.994623839E-4
9.327548130E-1,1.797580719E-2,-1.318225823E-2,2.529928461E-3
9.352435110E-1,2.223674022E-2,-1.105179265E-2,5.725627299E-3
9.377322090E-1,1.904104091E-2,-1.211702544E-2,4.660394508E-3
9.402209590E-1,1.691057347E-2,-9.986559860E-3,9.986559860E-3
9.427096570E-1,1.371487509E-2,-7.856093347E-3,1.531272475E-2
9.451983540E-1,1.264964230E-2,-6.790860556E-3,1.850842312E-2
9.476871040E-1,1.158440951E-2,-6.790860556E-3,1.744319126E-2
9.501752820E-1,1.264964230E-2,-7.856093347E-3,1.850842312E-2
9.526639790E-1,1.158440951E-2,-3.595161485E-3,1.744319126E-2
9.551526770E-1,7.323476952E-3,-4.660394508E-3,1.957365684E-2
9.576414270E-1,6.258244161E-3,-5.725627299E-3,1.850842312E-2
9.601301250E-1,5.193010904E-3,-1.464695437E-3,1.850842312E-2
9.626188750E-1,5.193010904E-3,-3.994623839E-4,1.637795754E-2
9.651075730E-1,3.062544856E-3,-2.529928461E-3,1.531272475E-2
9.675962710E-1,9.320789250E-4,-6.790860556E-3,1.637795754E-2
9.700850210E-1,9.320789250E-4,-8.921326138E-3,1.531272475E-2
9.725737190E-1,-3.328853287E-3,-8.921326138E-3,1.318225823E-2
9.750624170E-1,-2.263620263E-3,-1.211702544E-2,8.921326138E-3
9.775511670E-1,-5.459319334E-3,-1.318225823E-2,1.105179265E-2
9.800393440E-1,-8.655018173E-3,-1.318225823E-2,6.790860556E-3
9.825280420E-1,-1.398118306E-2,-1.744319126E-2,5.725627299E-3
9.850167400E-1,-1.398118306E-2,-1.744319126E-2,8.921326138E-3
9.875054900E-1,-1.504641678E-2,-1.744319126E-2,6.790860556E-3
9.899941880E-1,-1.717688330E-2,-1.637795754E-2,1.464695437E-3
9.924829380E-1,-2.250304818E-2,-1.531272475E-2,3.994623839E-4
9.949716360E-1,-2.356828004E-2,-1.318225823E-2,4.660394508E-3
9.974603340E-1,-2.143781446E-2,-1.424749196E-2,5.725627299E-3
9.999490840E-1,-2.569874749E-2,-1.531272475E-2,5.725627299E-3
1.002437782E0,-2.676397935E-2,-9.986559860E-3,2.529928461E-3
1.004926479E0,-2.995967865E-2,-4.660394508E-3,3.595161485E-3
1.007415229E0,-2.995967865E-2,-3.595161485E-3,1.464695437E-3
1.009903407E0,-2.995967865E-2,3.861469682E-3,3.994623839E-4
1.012392104E0,-3.209014609E-2,5.991935730E-3,2.529928461E-3
1.014880802E0,-3.209014609E-2,1.131810062E-2,3.595161485E-3
1.017369552E0,-2.995967865E-2,1.877473295E-2,6.790860556E-3
1.019858250E0,-2.782921307E-2,2.090519853E-2,2.529928461E-3
1.022347000E0,-2.037258074E-2,2.516612969E-2,-6.657706108E-4
1.024835698E0,-1.930734888E-2,2.729659714E-2,3.994623839E-4
1.027324396E0,-1.611164957E-2,3.155753016E-2,-6.657706108E-4
1.029813146E0,-1.185071748E-2,3.155753016E-2,-6.657706108E-4
1.032301844E0,-9.720250964E-3,2.942706272E-2,-1.731003635E-3
1.034790542E0,-6.524552125E-3,2.197043039E-2,-2.796236658E-3
1.037279292E0,-5.459319334E-3,1.877473295E-2,-5.991935730E-3
1.039767469E0,-3.328853287E-3,1.451379992E-2,-4.926702939E-3
1.042256167E0,-1.331541280E-4,1.025286783E-2,-4.926702939E-3
1.044744865E0,3.062544856E-3,3.861469682E-3,-5.991935730E-3
1.047233615E0,7.323476952E-3,6.657706108E-4,-7.057168987E-3
1.049722313E0,7.323476952E-3,-4.660394508E-3,-9.187635034E-3
1.052211063E0,1.051917579E-2,-6.790860556E-3,-8.122402243E-3
1.054699761E0,1.051917579E-2,-7.856093347E-3,-1.025286783E-2
1.057188459E0,1.691057347E-2,-9.986559860E-3,-1.131810062E-2
1.059677209E0,1.584534161E-2,-1.105179265E-2,-1.451379992E-2
1.062165907E0,1.478010789E-2,-9.986559860E-3,-1.557903271E-2
1.064654604E0,1.478010789E-2,-1.318225823E-2,-1.451379992E-2
1.067143354E0,1.584534161E-2,-1.211702544E-2,-1.557903271E-2
1.069631584E0,1.478010789E-2,-1.318225823E-2,-1.664426550E-2
1.072120282E0,1.371487509E-2,-9.986559860E-3,-1.877473295E-2
1.074608979E0,1.371487509E-2,-7.856093347E-3,-1.770949923E-2
1.077097729E0,1.264964230E-2,-6.790860556E-3,-1.770949923E-2
1.079586427E0,1.158440951E-2,-7.856093347E-3,-1.664426550E-2
1.082075177E0,1.158440951E-2,-3.595161485E-3,-1.344856713E-2
1.084563875E0,1.051917579E-2,-3.994623839E-4,-1.664426550E-2
1.087052573E0,9.453942999E-3,2.796236658E-3,-1.877473295E-2
1.089541323E0,8.388710208E-3,5.991935730E-3,-1.664426550E-2
1.092030021E0,1.158440951E-2,1.025286783E-2,-1.770949923E-2
1.094518719E0,1.158440951E-2,1.557903271E-2,-2.197043039E-2
1.097007469E0,8.388710208E-3,2.197043039E-2,-2.303566411E-2
1.099495594E0,9.453942999E-3,2.410089783E-2,-2.516612969E-2
1.101984292E0,1.158440951E-2,2.729659714E-2,-2.516612969E-2
1.104472990E0,1.478010789E-2,3.368799388E-2,-2.623136342E-2
1.106961740E0,1.904104091E-2,3.688369319E-2,-2.623136342E-2
1.109450438E0,2.330197208E-2,3.794892505E-2,-3.049229458E-2
1.111939188E0,2.223674022E-2,4.327509180E-2,-3.155753016E-2
1.114427886E0,2.543243766E-2,4.647079110E-2,-3.368799388E-2
1.116916584E0,3.182383627E-2,5.179695413E-2,-3.368799388E-2
1.119405334E0,3.182383627E-2,5.499265343E-2,-3.581846133E-2
1.121894032E0,3.288906813E-2,5.818835273E-2,-3.901416063E-2
1.124382729E0,3.608476743E-2,6.031882018E-2,-4.007939249E-2
1.126871479E0,3.715000302E-2,6.564498693E-2,-4.007939249E-2
1.129359657E0,3.928046674E-2,7.097115368E-2,-4.114462435E-2
1.131848354E0,3.821523488E-2,7.416684926E-2,-4.327509180E-2
1.134337052E0,3.608476743E-2,8.481918275E-2,-4.220985994E-2
1.136825802E0,3.821523488E-2,9.973244369E-2,-4.220985994E-2
1.139314500E0,3.715000302E-2,1.113168523E-1,-4.007939249E-2
1.141803250E0,3.288906813E-2,1.219691783E-1,-3.901416063E-2
1.144291948E0,3.075860441E-2,1.283605844E-1,-3.901416063E-2
1.146780646E0,2.436720580E-2,1.283605844E-1,-3.901416063E-2
1.149269396E0,2.010627277E-2,1.304910481E-1,-3.581846133E-2
1.151758094E0,1.691057347E-2,1.304910481E-1,-3.581846133E-2
1.154246792E0,1.371487509E-2,1.283605844E-1,-3.475322574E-2
1.156735542E0,6.258244161E-3,1.272953451E-1,-3.049229458E-2
1.159222782E0,3.062544856E-3,1.251648813E-1,-3.049229458E-2
1.161717313E0,-1.198387123E-3,1.240996495E-1,-2.836182900E-2
1.164211844E0,-6.524552125E-3,1.187734827E-1,-2.942706272E-2
1.166706375E0,-7.589785382E-3,1.134473160E-1,-2.942706272E-2
1.169200959E0,-1.398118306E-2,1.059906855E-1,-2.942706272E-2
1.171695490E0,-1.717688330E-2,1.007976755E-1,-2.942706272E-2
1.174189969E0,-1.291595027E-2,9.760197252E-2,-3.262276202E-2
1.176684552E0,-1.185071748E-2,9.227581322E-2,-3.581846133E-2
1.179179084E0,-1.185071748E-2,8.694964647E-2,-3.794892505E-2
1.181673615E0,-1.398118306E-2,8.375394344E-2,-4.327509180E-2
1.184168146E0,-1.398118306E-2,7.949301600E-2,-4.327509180E-2
1.186662677E0,-1.078548469E-2,7.629731297E-2,-4.846810177E-2
1.189086844E0,-8.655018173E-3,7.842778414E-2,-4.740286991E-2
1.191581375E0,-1.078548469E-2,7.842778414E-2,-4.953333735E-2
1.194075907E0,-1.185071748E-2,7.842778414E-2,-4.846810177E-2
1.196570438E0,-1.291595027E-2,8.375394344E-2,-4.740286991E-2
1.199065021E0,-4.394086078E-3,8.694964647E-2,-4.846810177E-2
1.201559552E0,4.127778113E-3,9.121058136E-2,-5.166380107E-2
1.204054084E0,7.323476952E-3,9.440627694E-2,-5.166380107E-2
1.206548615E0,1.691057347E-2,9.760197252E-2,-5.272903293E-2
1.209043146E0,2.436720580E-2,1.029281393E-1,-6.231613085E-2
1.211537677E0,3.075860441E-2,1.102516204E-1,-6.551183015E-2
1.214032209E0,3.715000302E-2,1.198387146E-1,-6.657706201E-2
1.216526740E0,4.567186534E-2,1.326215118E-1,-7.403369248E-2
1.218950854E0,5.632419512E-2,1.422086060E-1,-7.722939551E-2
1.221445386E0,6.484606117E-2,1.517957002E-1,-8.362079412E-2
1.223939917E0,7.230269164E-2,1.571218669E-1,-9.001219273E-2
1.226434448E0,7.762885839E-2,1.635132730E-1,-9.533835202E-2
1.228929032E0,8.615072072E-2,1.720351279E-1,-1.038602218E-1
1.231423563E0,9.254211932E-2,1.762960702E-1,-1.102516204E-1
1.233918094E0,9.680305421E-2,1.773612946E-1,-1.145125479E-1
1.236412625E0,1.010639817E-1,1.816222370E-1,-1.230344176E-1
1.238907157E0,1.031944528E-1,1.816222370E-1,-1.347519755E-1
1.241401688E0,1.063901484E-1,1.837527007E-1,-1.368824393E-1
1.243896219E0,1.042596847E-1,1.869483888E-1,-1.411433816E-1
1.246390750E0,1.021292135E-1,1.869483888E-1,-1.507304758E-1
1.248814917E0,1.010639817E-1,1.880136281E-1,-1.571218669E-1
1.251309448E0,9.786828607E-2,1.837527007E-1,-1.592523307E-1
1.253804032E0,8.402025700E-2,1.784265339E-1,-1.645784974E-1
1.256298511E0,7.230269164E-2,1.709699035E-1,-1.709699035E-1
1.258793094E0,6.378082931E-2,1.667089611E-1,-1.752308309E-1
1.261287625E0,4.993279651E-2,1.645784974E-1,-1.731003672E-1
1.263782157E0,3.715000302E-2,1.624480337E-1,-1.731003672E-1
1.266276688E0,2.117150649E-2,1.624480337E-1,-1.720351279E-1
1.268771219E0,7.323476952E-3,1.667089611E-1,-1.709699035E-1
1.271265750E0,-1.198387123E-3,1.731003672E-1,-1.762960702E-1
1.273760282E0,-1.185071748E-2,1.848179251E-1,-1.880136281E-1
1.276254813E0,-2.250304818E-2,1.954702586E-1,-1.869483888E-1
1.278678979E0,-3.635107726E-2,1.944050342E-1,-1.773612946E-1
1.281173511E0,-5.019910634E-2,1.890788674E-1,-1.656437367E-1
1.283668042E0,-6.191666797E-2,1.837527007E-1,-1.613828093E-1
1.286162573E0,-6.830807030E-2,1.880136281E-1,-1.549914032E-1
1.288657157E0,-7.776200771E-2,1.954702586E-1,-1.539261788E-1
1.291151688E0,-8.202294260E-2,2.061225921E-1,-1.549914032E-1
1.293646219E0,-8.308817446E-2,2.189053893E-1,-1.528609395E-1
1.296140750E0,-9.054480493E-2,2.327534109E-1,-1.528609395E-1
1.298635282E0,-9.267527610E-2,2.466014475E-1,-1.507304758E-1
1.301129813E0,-9.587097168E-2,2.583190203E-1,-1.517957002E-1
1.303624344E0,-1.011971384E-1,2.689713240E-1,-1.528609395E-1
1.306118875E0,-1.054580659E-1,2.817541361E-1,-1.517957002E-1
1.308543042E0,-1.065233052E-1,2.945369184E-1,-1.517957002E-1
1.311037573E0,-1.097190008E-1,3.009283245E-1,-1.571218669E-1
1.313532104E0,-1.139799356E-1,3.083849549E-1,-1.624480337E-1
1.316026636E0,-1.203713343E-1,3.179720640E-1,-1.635132730E-1
1.318521219E0,-1.278279573E-1,3.232982159E-1,-1.688394397E-1
1.321015750E0,-1.331541240E-1,3.264939189E-1,-1.741656065E-1
1.323510282E0,-1.363498271E-1,3.286243975E-1,-1.752308309E-1
1.326004813E0,-1.406107545E-1,3.339505494E-1,-1.816222370E-1
1.328499344E0,-1.459369212E-1,3.307548463E-1,-1.816222370E-1
1.330993875E0,-1.448716968E-1,3.307548463E-1,-1.826874614E-1
1.333488407E0,-1.470021605E-1,3.275591433E-1,-1.816222370E-1
1.335982938E0,-1.470021605E-1,3.318201005E-1,-1.773612946E-1
1.338407104E0,-1.459369212E-1,3.307548463E-1,-1.741656065E-1
1.340901636E0,-1.416759938E-1,3.307548463E-1,-1.699046642E-1
1.343396167E0,-1.352845877E-1,3.318201005E-1,-1.603175700E-1
1.345890698E0,-1.299584359E-1,3.296896219E-1,-1.539261788E-1
1.348385282E0,-1.256974936E-1,3.286243975E-1,-1.486000121E-1
1.350879813E0,-1.193061024E-1,3.264939189E-1,-1.411433816E-1
1.353374344E0,-1.139799356E-1,3.211677670E-1,-1.336867511E-1
1.355868875E0,-1.075885370E-1,3.179720640E-1,-1.294258088E-1
1.358363407E0,-1.022623703E-1,3.147763610E-1,-1.230344176E-1
1.360857938E0,-9.693620354E-2,3.083849549E-1,-1.187734827E-1
1.363352469E0,-9.267527610E-2,3.019935489E-1,-1.145125479E-1
1.365847000E0,-8.521863818E-2,2.998631001E-1,-1.091863886E-1
1.368271167E0,-7.989247888E-2,2.945369184E-1,-1.027949899E-1
1.370765698E0,-7.669677585E-2,2.860150635E-1,-9.746882319E-2
1.373260229E0,-7.256899774E-2,2.774932086E-1,-9.427312016E-2
1.375754761E0,-6.830807030E-2,2.711018026E-1,-9.001219273E-2
1.378249344E0,-6.511236727E-2,2.615146935E-1,-8.468602598E-2
1.380743875E0,-6.511236727E-2,2.497971505E-1,-7.829462737E-2
1.383238407E0,-6.191666797E-2,2.380795777E-1,-7.722939551E-2
1.385732938E0,-5.978620425E-2,2.252967805E-1,-7.296846062E-2
1.388227469E0,-6.298190355E-2,2.103835195E-1,-6.764229387E-2
1.390722000E0,-6.298190355E-2,1.954702586E-1,-6.231613085E-2
1.393216532E0,-6.404713541E-2,1.805569977E-1,-5.592473224E-2
1.395711063E0,-6.404713541E-2,1.656437367E-1,-5.166380107E-2
1.398135229E0,-7.150376588E-2,1.549914032E-1,-4.846810177E-2
1.400629761E0,-7.150376588E-2,1.486000121E-1,-4.846810177E-2
1.403124292E0,-7.150376588E-2,1.379476786E-1,-4.114462435E-2
1.405618823E0,-7.256899774E-2,1.326215118E-1,-4.114462435E-2
1.408113407E0,-7.256899774E-2,1.283605844E-1,-3.794892505E-2
1.410607938E0,-7.882724702E-2,1.219691783E-1,-4.007939249E-2
1.413102469E0,-7.882724702E-2,1.177082509E-1,-3.901416063E-2
1.415597000E0,-7.776200771E-2,1.145125479E-1,-3.688369319E-2
1.418091532E0,-7.669677585E-2,1.113168523E-1,-3.794892505E-2
1.420586063E0,-7.043853402E-2,1.134473160E-1,-4.540555924E-2
1.423080594E0,-6.404713541E-2,1.177082509E-1,-5.272903293E-2
1.425575125E0,-6.404713541E-2,1.134473160E-1,-5.272903293E-2
1.427999292E0,-6.191666797E-2,1.059906855E-1,-4.327509180E-2
1.430493823E0,-5.872096866E-2,1.018629074E-1,-3.368799388E-2
1.432988354E0,-5.126433820E-2,9.547150880E-2,-3.155753016E-2
1.435482886E0,-4.487293959E-2,9.547150880E-2,-3.262276202E-2
1.437977469E0,-3.954677656E-2,1.029281393E-1,-3.475322574E-2
1.440472000E0,-3.315537795E-2,1.123820841E-1,-3.581846133E-2
1.442966532E0,-2.569874749E-2,1.166430190E-1,-3.688369319E-2
1.445461063E0,-2.037258074E-2,1.177082509E-1,-4.114462435E-2
1.447955594E0,-1.611164957E-2,1.219691783E-1,-4.220985994E-2
1.450450125E0,-9.720250964E-3,1.283605844E-1,-4.434032366E-2
1.452944657E0,-5.459319334E-3,1.315562725E-1,-4.434032366E-2
1.455439188E0,-1.198387123E-3,1.358172148E-1,-4.220985994E-2
1.457863354E0,9.320789250E-4,1.432738453E-1,-4.114462435E-2
1.460357886E0,5.193010904E-3,1.454043090E-1,-4.007939249E-2
1.462852417E0,9.453942999E-3,1.486000121E-1,-4.114462435E-2
1.465346948E0,9.453942999E-3,1.496652365E-1,-3.794892505E-2
1.467841532E0,9.453942999E-3,1.571218669E-1,-3.794892505E-2
1.470336063E0,7.323476952E-3,1.656437367E-1,-3.688369319E-2
1.472830594E0,8.388710208E-3,1.688394397E-1,-3.475322574E-2
1.475325125E0,4.127778113E-3,1.720351279E-1,-4.007939249E-2
1.477819657E0,-1.331541280E-4,1.784265339E-1,-4.327509180E-2
1.480314188E0,9.320789250E-4,1.816222370E-1,-3.901416063E-2
1.482808719E0,-5.459319334E-3,1.901440918E-1,-4.114462435E-2
1.485303250E0,-1.185071748E-2,1.912093312E-1,-4.327509180E-2
1.487727365E0,-1.930734888E-2,1.880136281E-1,-4.114462435E-2
1.490221896E0,-2.569874749E-2,1.890788674E-1,-4.007939249E-2
1.492716427E0,-3.422060981E-2,1.901440918E-1,-3.688369319E-2
1.495210959E0,-4.380770773E-2,1.912093312E-1,-3.688369319E-2
1.497705542E0,-5.126433820E-2,1.954702586E-1,-3.581846133E-2
1.500200073E0,-6.191666797E-2,1.954702586E-1,-3.475322574E-2
1.502694604E0,-7.469946891E-2,1.944050342E-1,-3.475322574E-2
1.505189136E0,-8.521863818E-2,1.912093312E-1,-3.688369319E-2
1.507683667E0,-9.054480493E-2,1.912093312E-1,-3.581846133E-2
1.510178198E0,-1.011971384E-1,1.933397949E-1,-3.688369319E-2
1.512672729E0,-1.097190008E-1,1.976007223E-1,-3.475322574E-2
1.515167261E0,-1.129147038E-1,1.965354979E-1,-3.794892505E-2
1.517591427E0,-1.193061024E-1,1.933397949E-1,-4.007939249E-2
1.520085959E0,-1.256974936E-1,1.965354979E-1,-4.327509180E-2
1.522580490E0,-1.288931966E-1,1.976007223E-1,-5.166380107E-2
1.525075021E0,-1.320888996E-1,1.986659616E-1,-5.698996782E-2
1.527569604E0,-1.352845877E-1,1.976007223E-1,-6.444659829E-2
1.530064136E0,-1.363498271E-1,1.976007223E-1,-7.296846062E-2
1.532558667E0,-1.374150664E-1,1.965354979E-1,-8.042509109E-2
1.535053198E0,-1.427412182E-1,1.922745556E-1,-8.788172156E-2
1.537547729E0,-1.416759938E-1,1.933397949E-1,-9.640359133E-2
1.540042261E0,-1.395455301E-1,1.933397949E-1,-1.038602218E-1
1.542536792E0,-1.406107545E-1,1.912093312E-1,-1.145125479E-1
1.545031323E0,-1.384802908E-1,1.901440918E-1,-1.187734827E-1
1.547455490E0,-1.352845877E-1,1.922745556E-1,-1.251648813E-1
1.549950021E0,-1.352845877E-1,1.933397949E-1,-1.326215118E-1
1.552444552E0,-1.331541240E-1,1.922745556E-1,-1.358172148E-1
1.554939084E0,-1.288931966E-1,1.976007223E-1,-1.432738453E-1
1.557416011E0,-1.246322617E-1,2.007964253E-1,-1.422086060E-1
1.559910594E0,-1.193061024E-1,2.061225921E-1,-1.454043090E-1
1.562405125E0,-1.171756312E-1,2.210358530E-1,-1.603175700E-1
1.564882104E0,-1.107842326E-1,2.348838747E-1,-1.699046642E-1
1.567376584E0,-1.054580659E-1,2.402100414E-1,-1.677742004E-1
1.569871115E0,-1.097190008E-1,2.348838747E-1,-1.581871063E-1
1.572365698E0,-1.139799356E-1,2.316881865E-1,-1.539261788E-1
1.574860229E0,-1.139799356E-1,2.327534109E-1,-1.517957002E-1
1.577354761E0,-1.150451675E-1,2.338186502E-1,-1.496652365E-1
1.579849292E0,-1.139799356E-1,2.412752807E-1,-1.528609395E-1
1.582343823E0,-1.171756312E-1,2.508623898E-1,-1.581871063E-1
1.584838354E0,-1.203713343E-1,2.583190203E-1,-1.656437367E-1
1.587332886E0,-1.203713343E-1,2.583190203E-1,-1.699046642E-1
1.589827417E0,-1.267627329E-1,2.583190203E-1,-1.731003672E-1
1.592251532E0,-1.267627329E-1,2.604494691E-1,-1.784265339E-1
1.594746063E0,-1.288931966E-1,2.540580630E-1,-1.805569977E-1
1.597240594E0,-1.331541240E-1,2.476666719E-1,-1.890788674E-1
1.599735125E0,-1.363498271E-1,2.423405200E-1,-1.954702586E-1
1.602229709E0,-1.384802908E-1,2.380795777E-1,-2.007964253E-1
1.604724240E0,-1.438064575E-1,2.274272442E-1,-2.103835195E-1
1.607218771E0,-1.491326243E-1,2.125139832E-1,-2.189053893E-1
1.609713302E0,-1.491326243E-1,2.007964253E-1,-2.263620198E-1
1.612207834E0,-1.555240154E-1,1.880136281E-1,-2.359491140E-1
1.614702365E0,-1.629806459E-1,1.741656065E-1,-2.466014475E-1
1.617196896E0,-1.672415882E-1,1.624480337E-1,-2.561885417E-1
1.619691427E0,-1.725677550E-1,1.528609395E-1,-2.668408751E-1
1.622115594E0,-1.800243855E-1,1.454043090E-1,-2.796236575E-1
1.624610125E0,-1.928071827E-1,1.400781423E-1,-2.902759910E-1
1.627104657E0,-2.002638131E-1,1.368824393E-1,-3.009283245E-1
1.629599188E0,-2.130466104E-1,1.336867511E-1,-3.126458824E-1
1.632093771E0,-2.205032408E-1,1.326215118E-1,-3.211677670E-1
1.634588302E0,-2.364817262E-1,1.304910481E-1,-3.339505494E-1
1.637082834E0,-2.503297627E-1,1.283605844E-1,-3.446028829E-1
1.639577365E0,-2.663082480E-1,1.283605844E-1,-3.531247377E-1
1.642071896E0,-2.801562846E-1,1.262301207E-1,-3.627118468E-1
1.644566427E0,-2.940043211E-1,1.209039465E-1,-3.733641803E-1
1.647060959E0,-3.046566546E-1,1.155777797E-1,-3.840165138E-1
1.649555490E0,-3.153089881E-1,1.155777797E-1,-3.914731443E-1
1.651979657E0,-3.248960674E-1,1.123820841E-1,-4.021254778E-1
1.654474188E0,-3.344831765E-1,1.091863886E-1,-4.085168540E-1
1.656968719E0,-3.398093283E-1,1.059906855E-1,-4.149082601E-1
1.659463250E0,-3.462007344E-1,1.029281393E-1,-4.276910722E-1
1.661957834E0,-3.451355100E-1,1.102516204E-1,-4.479304850E-1
1.664452365E0,-3.493964374E-1,1.018629074E-1,-4.596480429E-1
1.666946896E0,-3.611139953E-1,7.629731297E-2,-4.628437459E-1
1.669441427E0,-3.685706258E-1,5.179695413E-2,-4.617785215E-1
1.671935959E0,-3.717663288E-1,3.155753016E-2,-4.607132971E-1
1.674430490E0,-3.717663288E-1,1.025286783E-2,-4.671046734E-1
1.676925021E0,-3.664401472E-1,-5.725627299E-3,-4.777570069E-1
1.679419552E0,-3.632444739E-1,-2.170412242E-2,-4.948007464E-1
1.681843719E0,-3.547225893E-1,-2.596505545E-2,-5.182358623E-1
1.684338250E0,-3.525921404E-1,-4.940018058E-2,-5.310186744E-1
1.686832782E0,-3.525921404E-1,-9.200949967E-2,-5.320838690E-1
1.689327313E0,-3.557878435E-1,-1.335535944E-1,-5.288882256E-1
1.691821896E0,-3.589835167E-1,-1.729672104E-1,-5.299534202E-1
1.694316427E0,-3.621792197E-1,-2.017285079E-1,-5.342143774E-1
1.696810959E0,-3.685706258E-1,-2.251636237E-1,-5.469971299E-1
1.699305490E0,-3.781577349E-1,-2.517944574E-1,-5.576494932E-1
1.701800021E0,-4.026580751E-1,-2.880123854E-1,-5.640408993E-1
1.704294552E0,-4.271584451E-1,-3.252955377E-1,-5.736280084E-1
1.706789084E0,-4.601806700E-1,-3.604482114E-1,-5.874760151E-1
1.709283615E0,-4.932028949E-1,-3.881442845E-1,-6.013240218E-1
1.711707782E0,-5.304860473E-1,-4.094489515E-1,-6.151720881E-1
1.714202313E0,-5.667039752E-1,-4.275579154E-1,-6.332810521E-1
1.716696844E0,-6.061176062E-1,-4.414059222E-1,-6.535204649E-1
1.719191375E0,-6.455312371E-1,-4.520582557E-1,-6.725615263E-1
1.721685959E0,-6.817491055E-1,-4.595148861E-1,-6.917356849E-1
1.724180490E0,-7.157034278E-1,-4.520582557E-1,-7.173013091E-1
1.726675021E0,-7.423342466E-1,-4.286231399E-1,-7.545844316E-1
1.729169552E0,-7.742912769E-1,-4.275579154E-1,-7.726933956E-1
1.731664084E0,-8.062482476E-1,-4.360797703E-1,-7.854762077E-1
1.734158615E0,-8.328790665E-1,-4.414059222E-1,-7.961285114E-1
1.736653146E0,-8.584446907E-1,-4.382102489E-1,-8.121070266E-1
1.739147677E0,-8.818798065E-1,-4.318188429E-1,-8.323464394E-1
1.741571844E0,-9.021192193E-1,-4.211665094E-1,-8.547163606E-1
1.744066375E0,-9.191629291E-1,-4.105141759E-1,-8.770862222E-1
1.746560907E0,-9.372718930E-1,-4.030575454E-1,-8.983908892E-1
1.749055438E0,-9.511199594E-1,-3.977313936E-1,-9.143694043E-1
1.751550021E0,-9.692289233E-1,-3.924052119E-1,-9.335435629E-1
1.754044552E0,-9.798812270E-1,-3.881442845E-1,-9.548482299E-1
1.756539084E0,-9.937292337E-1,-3.828181326E-1,-9.718919992E-1
1.759033615E0,-1.003316402E0,-3.764267266E-1,-9.931966662E-1
1.761528146E0,-1.012903452E0,-3.732310236E-1,-1.012370825E0
1.764022677E0,-1.013968706E0,-3.668396175E-1,-1.029414535E0
1.766517209E0,-1.021425366E0,-3.625786901E-1,-1.043262601E0
1.769011740E0,-1.022490501E0,-3.604482114E-1,-1.053914905E0
1.771435907E0,-1.022490501E0,-3.583177626E-1,-1.063502073E0
1.773930490E0,-1.018229604E0,-3.519263566E-1,-1.072023869E0
1.776424969E0,-1.012903452E0,-3.529915810E-1,-1.083741426E0
1.778919500E0,-1.008642554E0,-3.529915810E-1,-1.089067578E0
1.781414084E0,-9.969249368E-1,-3.529915810E-1,-1.090132833E0
1.783908615E0,-9.820116758E-1,-3.561872840E-1,-1.093328595E0
1.786403146E0,-9.702941179E-1,-3.593829870E-1,-1.095458984E0
1.788897677E0,-9.543156624E-1,-3.625786901E-1,-1.094393730E0
1.791392209E0,-9.372718930E-1,-3.625786901E-1,-1.095458984E0
1.793886740E0,-9.180977345E-1,-3.668396175E-1,-1.091198087E0
1.796381271E0,-9.053149223E-1,-3.679048419E-1,-1.086937189E0
1.798875802E0,-8.882712126E-1,-3.636439145E-1,-1.082676172E0
1.801299917E0,-8.744231462E-1,-3.625786901E-1,-1.081611037E0
1.803794448E0,-8.573794365E-1,-3.604482114E-1,-1.078415275E0
1.806288979E0,-8.424661756E-1,-3.529915810E-1,-1.072023869E0
1.808783511E0,-8.307486176E-1,-3.455349505E-1,-1.063502073E0
1.811278094E0,-8.190310597E-1,-3.380783200E-1,-1.059241056E0
1.813772625E0,-8.019872904E-1,-3.242303133E-1,-1.052849650E0
1.816267157E0,-7.892045379E-1,-3.114475012E-1,-1.047523499E0
1.818761688E0,-7.796174288E-1,-3.007951677E-1,-1.046458244E0
1.821256219E0,-7.657693624E-1,-2.912080884E-1,-1.036871195E0
1.823750750E0,-7.519213557E-1,-2.837514579E-1,-1.033675551E0
1.826245282E0,-7.370080948E-1,-2.720338702E-1,-1.035805941E0
1.828739813E0,-7.231600881E-1,-2.667077184E-1,-1.040066838E0
1.831163979E0,-7.039858699E-1,-2.581858635E-1,-1.041132092E0
1.833658511E0,-6.828143597E-1,-2.507292330E-1,-1.042197347E0
1.836153042E0,-6.625749469E-1,-2.454030514E-1,-1.045393109E0
1.838647573E0,-6.402050257E-1,-2.411421239E-1,-1.048588753E0
1.841142157E0,-6.167699099E-1,-2.336854935E-1,-1.051784515E0
1.843636688E0,-5.901390910E-1,-2.262288630E-1,-1.053914905E0
1.846131219E0,-5.667039752E-1,-2.209026963E-1,-1.050719261E0
1.848625750E0,-5.443340540E-1,-2.134460658E-1,-1.050719261E0
1.851120282E0,-5.219641924E-1,-2.070546746E-1,-1.046458244E0
1.853614813E0,-4.932028949E-1,-2.017285079E-1,-1.037936449E0
1.856109344E0,-4.729634523E-1,-1.932066381E-1,-1.033675551E0
1.858603875E0,-4.473978579E-1,-1.814890802E-1,-1.024088383E0
1.861028042E0,-4.250279665E-1,-1.676410437E-1,-1.016631722E0
1.863522573E0,-4.005276263E-1,-1.548582464E-1,-1.005979419E0
1.866017104E0,-3.770924807E-1,-1.420754492E-1,-9.910661578E-1
1.868511636E0,-3.536573648E-1,-1.229012609E-1,-9.804138541E-1
1.871006219E0,-3.238308430E-1,-1.058575287E-1,-9.686962962E-1
1.873500750E0,-2.961347699E-1,-8.668334037E-2,-9.591091871E-1
1.875995282E0,-2.684387267E-1,-6.537867337E-2,-9.463263750E-1
1.878489813E0,-2.481992990E-1,-4.833494872E-2,-9.314131141E-1
1.880984344E0,-2.226337045E-1,-3.129122034E-2,-9.207608104E-1
1.883478875E0,-1.949376464E-1,-1.211702544E-2,-9.090432525E-1
1.885973407E0,-1.704372764E-1,3.861469682E-3,-9.015865922E-1
1.888467938E0,-1.480673850E-1,1.770949923E-2,-8.919994831E-1
1.890892104E0,-1.214365661E-1,3.155753016E-2,-8.813471794E-1
1.893386636E0,-9.906667471E-2,4.434032366E-2,-8.738905191E-1
1.895881167E0,-7.776200771E-2,5.499265343E-2,-8.706948161E-1
1.898375698E0,-5.659050494E-2,6.351451576E-2,-8.674991727E-1
1.900870282E0,-3.741630912E-2,6.671021879E-2,-8.643034697E-1
1.903364813E0,-2.037258074E-2,6.671021879E-2,-8.653686643E-1
1.905859344E0,-2.263620263E-3,6.671021879E-2,-8.621729612E-1
1.908353875E0,5.193010904E-3,5.818835273E-2,-8.653686643E-1
1.910848407E0,1.691057347E-2,4.860125855E-2,-8.653686643E-1
1.913342938E0,2.010627277E-2,3.262276202E-2,-8.706948161E-1
1.915837469E0,2.223674022E-2,1.664426550E-2,-8.760210276E-1
1.918332000E0,2.862813696E-2,-3.994623839E-4,-8.824124336E-1
1.920756115E0,2.969337068E-2,-1.637795754E-2,-8.919994831E-1
1.923250646E0,3.608476743E-2,-3.129122034E-2,-8.983908892E-1
1.925745177E0,3.395430371E-2,-4.513924941E-2,-9.047822952E-1
1.928239709E0,3.608476743E-2,-6.111774594E-2,-9.164998531E-1
1.930734292E0,3.928046674E-2,-7.496577501E-2,-9.218260050E-1
1.933228823E0,3.715000302E-2,-8.774857223E-2,-9.239565134E-1
1.935723354E0,3.182383627E-2,-9.733566642E-2,-9.260869622E-1
1.938217886E0,3.182383627E-2,-1.090532318E-1,-9.314131141E-1
1.940712417E0,3.075860441E-2,-1.175750941E-1,-9.324783683E-1
1.943206948E0,2.330197208E-2,-1.229012609E-1,-9.367392659E-1
1.945701479E0,2.117150649E-2,-1.346188188E-1,-9.399349689E-1
1.948196011E0,1.051917579E-2,-1.410102248E-1,-9.367392659E-1
1.950620177E0,-2.263620263E-3,-1.559234858E-1,-9.367392659E-1
1.953114709E0,-9.720250964E-3,-1.644453406E-1,-9.356740713E-1
1.955609240E0,-2.143781446E-2,-1.719019860E-1,-9.335435629E-1
1.958103771E0,-3.422060981E-2,-1.793586165E-1,-9.346088171E-1
1.960598354E0,-5.019910634E-2,-1.878804713E-1,-9.367392659E-1
1.963092886E0,-6.617759913E-2,-1.953371018E-1,-9.431306720E-1
1.965587417E0,-8.734910935E-2,-1.995980442E-1,-9.473916292E-1
1.968081948E0,-1.086537689E-1,-2.102503628E-1,-9.559134841E-1
1.970576479E0,-1.278279573E-1,-2.198374718E-1,-9.676310420E-1
1.973071011E0,-1.533935517E-1,-2.283593267E-1,-9.793485999E-1
1.975565542E0,-1.746982187E-1,-2.368811965E-1,-9.921314120E-1
1.978060073E0,-1.960028708E-1,-2.475335300E-1,-1.003849030E0
1.980484240E0,-2.151770741E-1,-2.528596818E-1,-1.018762231E0
1.982978771E0,-2.343512625E-1,-2.549901605E-1,-1.036871195E0
1.985473302E0,-2.481992990E-1,-2.581858635E-1,-1.045393109E0
1.987967834E0,-2.631125450E-1,-2.581858635E-1,-1.052849650E0
1.990462417E0,-2.748301327E-1,-2.571206093E-1,-1.059241056E0
1.992956948E0,-2.812215090E-1,-2.560553849E-1,-1.062436819E0
1.995451479E0,-2.876129150E-1,-2.528596818E-1,-1.065632463E0
1.997946011E0,-2.950695455E-1,-2.592510879E-1,-1.069893360E0
2.000440542E0,-2.993304729E-1,-2.581858635E-1,-1.069893360E0
2.002935073E0,-3.057218790E-1,-2.560553849E-1,-1.069893360E0
2.005429604E0,-3.099828064E-1,-2.603163123E-1,-1.073089123E0
2.007924136E0,-3.121132851E-1,-2.624467909E-1,-1.076284766E0
2.010348250E0,-3.142437339E-1,-2.645772398E-1,-1.078415275E0
2.012842782E0,-3.185046613E-1,-2.699034214E-1,-1.083741426E0
2.015337313E0,-3.259612918E-1,-2.730991244E-1,-1.085871935E0
2.017831844E0,-3.291569948E-1,-2.773600519E-1,-1.092263341E0
2.020326427E0,-3.280917704E-1,-2.773600519E-1,-1.094393730E0
2.022820959E0,-3.259612918E-1,-2.762948275E-1,-1.096524239E0
2.025315490E0,-3.270265460E-1,-2.752295732E-1,-1.096524239E0
2.027810021E0,-3.248960674E-1,-2.773600519E-1,-1.096524239E0
2.030304552E0,-3.227656186E-1,-2.762948275E-1,-1.095458984E0
2.032799084E0,-3.185046613E-1,-2.752295732E-1,-1.092263341E0
2.035293615E0,-3.163742125E-1,-2.773600519E-1,-1.089067578E0
2.037788146E0,-3.131785095E-1,-2.784252763E-1,-1.083741426E0
2.040212313E0,-3.110480309E-1,-2.837514579E-1,-1.075219631E0
2.042706844E0,-3.110480309E-1,-2.880123854E-1,-1.070958614E0
2.045201375E0,-3.089175820E-1,-2.933385372E-1,-1.063502073E0
2.047695907E0,-3.089175820E-1,-2.997299433E-1,-1.056045413E0
2.050190490E0,-3.067871034E-1,-3.039908707E-1,-1.043262601E0
2.052685021E0,-3.067871034E-1,-3.050560951E-1,-1.031545043E0
2.055179552E0,-3.078523576E-1,-3.050560951E-1,-1.017696977E0
2.057674084E0,-3.089175820E-1,-3.029256463E-1,-1.007044673E0
2.060168615E0,-3.110480309E-1,-2.986647189E-1,-9.900009632E-1
2.062663146E0,-3.163742125E-1,-2.933385372E-1,-9.804138541E-1
2.065157677E0,-3.217003644E-1,-2.858819067E-1,-9.729571939E-1
2.067652209E0,-3.270265460E-1,-2.773600519E-1,-9.601744413E-1
2.070076375E0,-3.344831765E-1,-2.699034214E-1,-9.463263750E-1
2.072570907E0,-3.472659588E-1,-2.581858635E-1,-9.378045201E-1
2.075065438E0,-3.557878435E-1,-2.422073632E-1,-9.271522164E-1
2.077559969E0,-3.632444739E-1,-2.304897904E-1,-9.164998531E-1
2.080054552E0,-3.749620318E-1,-2.187722325E-1,-9.047822952E-1
2.082549084E0,-3.813534081E-1,-2.038589716E-1,-8.919994831E-1
2.085043615E0,-3.866795897E-1,-1.921414137E-1,-8.802819252E-1
2.087538146E0,-3.941362202E-1,-1.836195439E-1,-8.664339185E-1
2.090032677E0,-3.983971477E-1,-1.740324497E-1,-8.515206575E-1
2.092527209E0,-3.994623721E-1,-1.655105799E-1,-8.387378454E-1
2.095021740E0,-4.015928507E-1,-1.601844132E-1,-8.238245845E-1
2.097516271E0,-4.058537781E-1,-1.580539495E-1,-8.099765778E-1
2.099940438E0,-4.090494812E-1,-1.537930220E-1,-7.961285114E-1
2.102434969E0,-4.069190025E-1,-1.484668553E-1,-7.812152505E-1
2.104929500E0,-4.047885537E-1,-1.474016160E-1,-7.684324980E-1
2.107424032E0,-4.005276263E-1,-1.442059278E-1,-7.599105835E-1
2.109918615E0,-3.962666988E-1,-1.431406885E-1,-7.492582798E-1
2.112413146E0,-3.909405172E-1,-1.420754492E-1,-7.364754677E-1
2.114907677E0,-3.802881837E-1,-1.431406885E-1,-7.258231640E-1
2.117402209E0,-3.717663288E-1,-1.474016160E-1,-7.119750977E-1
2.119896740E0,-3.632444739E-1,-1.516625583E-1,-7.002575397E-1
2.122391271E0,-3.536573648E-1,-1.537930220E-1,-6.928009391E-1
2.124885802E0,-3.525921404E-1,-1.537930220E-1,-6.874747872E-1
2.127380334E0,-3.515268862E-1,-1.559234858E-1,-6.810833812E-1
2.129804500E0,-3.536573648E-1,-1.655105799E-1,-6.768224239E-1
2.132299032E0,-3.600487709E-1,-1.772281379E-1,-6.725615263E-1
2.134793563E0,-3.707011044E-1,-1.878804713E-1,-6.714962721E-1
2.137288094E0,-3.770924807E-1,-1.921414137E-1,-6.651048660E-1
2.139782677E0,-3.866795897E-1,-1.995980442E-1,-6.619091630E-1
2.142277209E0,-3.962666988E-1,-2.081198990E-1,-6.587134600E-1
2.144771740E0,-4.079842567E-1,-2.145113051E-1,-6.555177569E-1
2.147266271E0,-4.197018147E-1,-2.262288630E-1,-6.503247619E-1
2.149760802E0,-4.282236695E-1,-2.347507328E-1,-6.460638046E-1
2.152255334E0,-4.420717061E-1,-2.390116602E-1,-6.396724582E-1
2.154749865E0,-4.537892640E-1,-2.443378270E-1,-6.322157979E-1
2.157244396E0,-4.676373005E-1,-2.475335300E-1,-6.247591972E-1
2.159668563E0,-4.846810400E-1,-2.454030514E-1,-6.194329858E-1
2.162163094E0,-4.985290468E-1,-2.368811965E-1,-6.151720881E-1
2.164657625E0,-5.113118291E-1,-2.230331600E-1,-6.109111309E-1
2.167152157E0,-5.272903442E-1,-2.038589716E-1,-6.055849791E-1
2.169646740E0,-5.400731564E-1,-1.836195439E-1,-6.002588272E-1
2.172141271E0,-5.528559685E-1,-1.537930220E-1,-5.928021669E-1
2.174635802E0,-5.624430180E-1,-1.229012609E-1,-5.842803121E-1
2.177130334E0,-5.677692294E-1,-9.094426781E-2,-5.757584572E-1
2.179624865E0,-5.698996782E-1,-5.472634733E-2,-5.629756451E-1
2.182119396E0,-5.698996782E-1,-2.489982173E-2,-5.565842390E-1
2.184613927E0,-5.688344240E-1,1.731003635E-3,-5.448666811E-1
2.187108459E0,-5.635082722E-1,2.836182900E-2,-5.352795720E-1
2.189532573E0,-5.517907143E-1,5.179695413E-2,-5.310186744E-1
2.192027104E0,-5.411383510E-1,7.097115368E-2,-5.193011165E-1
2.194521636E0,-5.283555984E-1,8.694964647E-2,-5.097140074E-1
2.197016167E0,-5.123770833E-1,9.760197252E-2,-5.054530501E-1
2.199510750E0,-4.942681193E-1,1.029281393E-1,-4.958659708E-1
2.202005282E0,-4.772244096E-1,1.039933711E-1,-4.905398190E-1
2.204499813E0,-4.580501914E-1,9.973244369E-2,-4.830831885E-1
2.206994344E0,-4.431369305E-1,8.908011019E-2,-4.766917825E-1
2.209488875E0,-4.282236695E-1,7.416684926E-2,-4.703003764E-1
2.211983407E0,-4.122451842E-1,5.818835273E-2,-4.692351520E-1
2.214477938E0,-4.026580751E-1,4.540555924E-2,-4.681699276E-1
2.216972469E0,-3.930709958E-1,3.475322574E-2,-4.617785215E-1
2.219396636E0,-3.813534081E-1,2.090519853E-2,-4.596480429E-1
2.221891167E0,-3.707011044E-1,1.731003635E-3,-4.564523399E-1
2.224385698E0,-3.632444739E-1,-1.531272475E-2,-4.543218911E-1
2.226880229E0,-3.568530679E-1,-2.916075476E-2,-4.532566369E-1
2.229374813E0,-3.462007344E-1,-4.407401755E-2,-4.500609636E-1
2.231869344E0,-3.366136253E-1,-5.366111174E-2,-4.521914124E-1
2.234363875E0,-3.280917704E-1,-6.537867337E-2,-4.500609636E-1
2.236858407E0,-3.206351399E-1,-7.496577501E-2,-4.511261880E-1
2.239352938E0,-3.153089881E-1,-8.455286920E-2,-4.489957094E-1
2.241847469E0,-3.099828064E-1,-8.881380409E-2,-4.500609636E-1
2.244342000E0,-3.003957272E-1,-9.200949967E-2,-4.511261880E-1
2.246836532E0,-2.918738425E-1,-9.413997084E-2,-4.511261880E-1
2.249260698E0,-2.833519876E-1,-9.200949967E-2,-4.543218911E-1
2.251755229E0,-2.737648785E-1,-9.094426781E-2,-4.564523399E-1
2.254249813E0,-2.684387267E-1,-8.881380409E-2,-4.575175941E-1
2.256744292E0,-2.577863932E-1,-8.242240548E-2,-4.575175941E-1
2.259238875E0,-2.524602413E-1,-7.816147059E-2,-4.564523399E-1
2.261733407E0,-2.450035959E-1,-7.177007198E-2,-4.553871155E-1
2.264227938E0,-2.407426685E-1,-6.537867337E-2,-4.532566369E-1
2.266722469E0,-2.343512625E-1,-5.472634733E-2,-4.532566369E-1
2.269217000E0,-2.290250957E-1,-4.300878197E-2,-4.500609636E-1
2.271711532E0,-2.268946320E-1,-3.129122034E-2,-4.458000064E-1
2.274206063E0,-2.290250957E-1,-2.170412242E-2,-4.447347820E-1
2.276700594E0,-2.311555594E-1,-1.318225823E-2,-4.426043332E-1
2.279124917E0,-2.311555594E-1,-7.856093347E-3,-4.394086301E-1
2.281618250E0,-2.332860380E-1,3.861469682E-3,-4.394086301E-1
2.284111636E0,-2.343512625E-1,1.451379992E-2,-4.394086301E-1
2.286604969E0,-2.354165018E-1,2.090519853E-2,-4.383433759E-1
2.289098354E0,-2.375469655E-1,3.049229458E-2,-4.351477027E-1
2.291591688E0,-2.386122048E-1,4.114462435E-2,-4.330172241E-1
2.294085073E0,-2.386122048E-1,5.392742157E-2,-4.287562966E-1
2.296578407E0,-2.386122048E-1,6.990591437E-2,-4.234301150E-1
2.299071792E0,-2.332860380E-1,8.588441461E-2,-4.223648906E-1
2.301565177E0,-2.279598713E-1,1.070559174E-1,-4.149082601E-1
2.304058511E0,-2.236989290E-1,1.304910481E-1,-4.063864052E-1
2.306551896E0,-2.162422985E-1,1.486000121E-1,-4.021254778E-1
2.308988979E0,-2.077204436E-1,1.677742004E-1,-3.999949992E-1
2.311482313E0,-1.970681101E-1,1.890788674E-1,-3.925383687E-1
2.313975698E0,-1.821548492E-1,2.071878165E-1,-3.797555864E-1
2.316469032E0,-1.704372764E-1,2.242315561E-1,-3.701684773E-1
2.318962417E0,-1.576544940E-1,2.391448170E-1,-3.637770712E-1
2.321455750E0,-1.438064575E-1,2.497971505E-1,-3.552552164E-1
2.323949136E0,-1.267627329E-1,2.540580630E-1,-3.435376585E-1
2.326442469E0,-1.129147038E-1,2.572537661E-1,-3.339505494E-1
2.328935854E0,-9.587097168E-2,2.540580630E-1,-3.232982159E-1
2.331429240E0,-8.095771074E-2,2.551233172E-1,-3.147763610E-1
2.333922573E0,-6.404713541E-2,2.519276142E-1,-3.083849549E-1
2.336415959E0,-4.593817517E-2,2.476666719E-1,-3.030588031E-1
2.338853042E0,-3.209014609E-2,2.444709837E-1,-2.987978756E-1
2.341346375E0,-1.291595027E-2,2.380795777E-1,-2.945369184E-1
2.343839761E0,5.193010904E-3,2.284924835E-1,-2.913412452E-1
2.346333094E0,2.117150649E-2,2.157096863E-1,-2.870802879E-1
2.348826479E0,3.608476743E-2,2.050573528E-1,-2.828193605E-1
2.351319813E0,5.525896326E-2,1.922745556E-1,-2.828193605E-1
2.353813198E0,7.230269164E-2,1.837527007E-1,-2.774932086E-1
2.356306532E0,8.828118443E-2,1.752308309E-1,-2.732322812E-1
2.358799917E0,1.042596847E-1,1.699046642E-1,-2.668408751E-1
2.361293302E0,1.149120107E-1,1.645784974E-1,-2.593842447E-1
2.363786636E0,1.298252791E-1,1.560566425E-1,-2.529928386E-1
2.366280021E0,1.415428370E-1,1.539261788E-1,-2.444709837E-1
2.368717104E0,1.564560980E-1,1.560566425E-1,-2.380795777E-1
2.371210438E0,1.713693589E-1,1.581871063E-1,-2.252967805E-1
2.373703823E0,1.798912287E-1,1.656437367E-1,-2.146444470E-1
2.376197157E0,1.905435622E-1,1.720351279E-1,-2.061225921E-1
2.378690542E0,2.022611201E-1,1.784265339E-1,-1.912093312E-1
2.381183875E0,2.118482143E-1,1.901440918E-1,-1.784265339E-1
2.383677261E0,2.214353085E-1,2.007964253E-1,-1.677742004E-1
2.386170594E0,2.299571782E-1,2.103835195E-1,-1.560566425E-1
2.388663979E0,2.374138087E-1,2.199706137E-1,-1.432738453E-1
2.391157365E0,2.416747361E-1,2.306229472E-1,-1.336867511E-1
2.393650698E0,2.470009029E-1,2.348838747E-1,-1.219691783E-1
2.396144084E0,2.544575334E-1,2.402100414E-1,-1.102516204E-1
2.398581115E0,2.544575334E-1,2.434057444E-1,-1.006645188E-1
2.401074448E0,2.576532364E-1,2.466014475E-1,-9.320788831E-2
2.403567834E0,2.608489394E-1,2.466014475E-1,-8.255556226E-2
2.406061167E0,2.608489394E-1,2.444709837E-1,-7.829462737E-2
2.408554552E0,2.629793882E-1,2.412752807E-1,-7.509893179E-2
2.411047886E0,2.651098669E-1,2.380795777E-1,-6.764229387E-2
2.413541271E0,2.640446424E-1,2.338186502E-1,-6.125089899E-2
2.416034604E0,2.629793882E-1,2.284924835E-1,-5.912043154E-2
2.418527990E0,2.608489394E-1,2.263620198E-1,-5.912043154E-2
2.421021375E0,2.587184608E-1,2.252967805E-1,-5.592473224E-2
2.423514709E0,2.587184608E-1,2.242315561E-1,-5.166380107E-2
2.426008094E0,2.555227578E-1,2.263620198E-1,-4.953333735E-2
2.428445177E0,2.523270845E-1,2.242315561E-1,-4.953333735E-2
2.430938511E0,2.470009029E-1,2.221010923E-1,-4.114462435E-2
2.433431896E0,2.448704392E-1,2.210358530E-1,-3.155753016E-2
2.435925229E0,2.384790480E-1,2.199706137E-1,-3.155753016E-2
2.438418615E0,2.299571782E-1,2.135792226E-1,-3.049229458E-2
2.440911948E0,2.235657871E-1,2.114487588E-1,-2.410089783E-2
2.443405334E0,2.118482143E-1,2.093182951E-1,-2.197043039E-2
2.445898667E0,2.033263594E-1,2.082530558E-1,-2.410089783E-2
2.448392052E0,1.916087866E-1,2.029268891E-1,-2.197043039E-2
2.450885438E0,1.841521561E-1,1.965354979E-1,-2.516612969E-2
2.453378771E0,1.692388952E-1,1.912093312E-1,-2.729659714E-2
2.455872157E0,1.596518010E-1,1.880136281E-1,-2.942706272E-2
2.458309240E0,1.521951705E-1,1.826874614E-1,-3.581846133E-2
2.460802573E0,1.447385401E-1,1.805569977E-1,-3.901416063E-2
2.463295959E0,1.362166703E-1,1.773612946E-1,-4.327509180E-2
2.465789292E0,1.298252791E-1,1.752308309E-1,-4.953333735E-2
2.468282677E0,1.234338731E-1,1.731003672E-1,-5.059856921E-2
2.470776011E0,1.149120107E-1,1.709699035E-1,-5.272903293E-2
2.473269396E0,1.127815470E-1,1.720351279E-1,-6.125089899E-2
2.475762729E0,1.095858440E-1,1.720351279E-1,-6.444659829E-2
2.478256115E0,1.085206121E-1,1.816222370E-1,-6.551183015E-2
2.480749500E0,9.999874979E-2,1.848179251E-1,-7.083799690E-2
2.483242834E0,9.786828607E-2,1.922745556E-1,-7.509893179E-2
2.485736219E0,9.254211932E-2,1.997311860E-1,-7.722939551E-2
2.488173302E0,9.041165560E-2,2.050573528E-1,-7.829462737E-2
2.490666636E0,8.615072072E-2,2.103835195E-1,-7.935985923E-2
2.493160021E0,8.402025700E-2,2.167749256E-1,-8.362079412E-2
2.495653354E0,7.762885839E-2,2.221010923E-1,-8.894696087E-2
2.498146740E0,7.336792350E-2,2.263620198E-1,-9.107742459E-2
2.500640073E0,6.910699606E-2,2.306229472E-1,-9.533835202E-2
2.503133459E0,6.165036187E-2,2.306229472E-1,-9.959928691E-2
2.505626792E0,5.632419512E-2,2.306229472E-1,-1.027949899E-1
2.508120177E0,5.206326395E-2,2.306229472E-1,-1.091863886E-1
2.510613563E0,4.460663348E-2,2.263620198E-1,-1.123820841E-1
2.513106896E0,3.821523488E-2,2.231663167E-1,-1.177082509E-1
2.515600282E0,3.182383627E-2,2.189053893E-1,-1.230344176E-1
2.518037365E0,2.543243766E-2,2.114487588E-1,-1.283605844E-1
2.520530698E0,1.691057347E-2,2.093182951E-1,-1.315562725E-1
2.523024084E0,9.453942999E-3,2.007964253E-1,-1.358172148E-1
2.525517417E0,1.997311832E-3,1.922745556E-1,-1.400781423E-1
2.528010802E0,-3.328853287E-3,1.858831644E-1,-1.411433816E-1
2.530504136E0,-1.291595027E-2,1.762960702E-1,-1.464695334E-1
2.532997521E0,-2.250304818E-2,1.688394397E-1,-1.475347728E-1
2.535490854E0,-3.102491237E-2,1.624480337E-1,-1.496652365E-1
2.537984240E0,-3.741630912E-2,1.539261788E-1,-1.475347728E-1
2.540477625E0,-4.274247587E-2,1.464695334E-1,-1.475347728E-1
2.542970959E0,-5.339480564E-2,1.390129030E-1,-1.486000121E-1
2.545464344E0,-6.511236727E-2,1.326215118E-1,-1.486000121E-1
2.547901375E0,-7.256899774E-2,1.240996495E-1,-1.464695334E-1
2.550394709E0,-7.882724702E-2,1.209039465E-1,-1.496652365E-1
2.552888094E0,-8.628387749E-2,1.166430190E-1,-1.486000121E-1
2.555381427E0,-9.480573982E-2,1.134473160E-1,-1.454043090E-1
2.557874813E0,-1.001319066E-1,1.145125479E-1,-1.486000121E-1
2.560368146E0,-1.054580659E-1,1.166430190E-1,-1.528609395E-1
2.562861532E0,-1.086537689E-1,1.187734827E-1,-1.507304758E-1
2.565354865E0,-1.139799356E-1,1.209039465E-1,-1.528609395E-1
2.567848250E0,-1.161103994E-1,1.209039465E-1,-1.549914032E-1
2.570341636E0,-1.182408631E-1,1.230344176E-1,-1.571218669E-1
2.572834969E0,-1.203713343E-1,1.240996495E-1,-1.571218669E-1
2.575328354E0,-1.171756312E-1,1.262301207E-1,-1.571218669E-1
2.577765438E0,-1.171756312E-1,1.283605844E-1,-1.560566425E-1
2.580258771E0,-1.171756312E-1,1.251648813E-1,-1.592523307E-1
2.582752157E0,-1.193061024E-1,1.283605844E-1,-1.603175700E-1
2.585245490E0,-1.182408631E-1,1.315562725E-1,-1.592523307E-1
2.587738875E0,-1.161103994E-1,1.315562725E-1,-1.613828093E-1
2.590232209E0,-1.139799356E-1,1.347519755E-1,-1.624480337E-1
2.592725594E0,-1.129147038E-1,1.390129030E-1,-1.603175700E-1
2.595218927E0,-1.097190008E-1,1.422086060E-1,-1.603175700E-1
2.597712313E0,-1.086537689E-1,1.464695334E-1,-1.571218669E-1
2.600205698E0,-1.033276021E-1,1.517957002E-1,-1.560566425E-1
2.602699032E0,-1.001319066E-1,1.549914032E-1,-1.539261788E-1
2.605192417E0,-9.480573982E-2,1.581871063E-1,-1.486000121E-1
2.607629500E0,-8.734910935E-2,1.592523307E-1,-1.454043090E-1
2.610122834E0,-8.628387749E-2,1.581871063E-1,-1.422086060E-1
2.612616219E0,-8.628387749E-2,1.560566425E-1,-1.368824393E-1
2.615109552E0,-8.095771074E-2,1.571218669E-1,-1.326215118E-1
2.617602938E0,-7.776200771E-2,1.507304758E-1,-1.326215118E-1
2.620096271E0,-7.469946891E-2,1.432738453E-1,-1.251648813E-1
2.622589657E0,-7.150376588E-2,1.368824393E-1,-1.198387146E-1
2.625082990E0,-6.617759913E-2,1.368824393E-1,-1.187734827E-1
2.627576375E0,-6.085143611E-2,1.326215118E-1,-1.166430190E-1
2.630069761E0,-5.765573680E-2,1.251648813E-1,-1.113168523E-1
2.632563094E0,-5.232957378E-2,1.230344176E-1,-1.081211492E-1
2.635056479E0,-4.487293959E-2,1.198387146E-1,-1.049254537E-1
2.637493511E0,-4.061200842E-2,1.166430190E-1,-9.640359133E-2
2.639986844E0,-3.528584540E-2,1.155777797E-1,-9.214265645E-2
2.642480229E0,-2.676397935E-2,1.102516204E-1,-9.001219273E-2
2.644973563E0,-1.930734888E-2,1.091863886E-1,-8.255556226E-2
2.647466948E0,-7.589785382E-3,1.081211492E-1,-7.935985923E-2
2.649960282E0,6.258244161E-3,1.091863886E-1,-7.403369248E-2
2.652453667E0,1.478010789E-2,1.123820841E-1,-6.870753318E-2
2.654947000E0,2.543243766E-2,1.091863886E-1,-6.338136643E-2
2.657440386E0,3.821523488E-2,1.134473160E-1,-5.485950038E-2
2.659933771E0,4.780233279E-2,1.187734827E-1,-5.059856921E-2
2.662427104E0,6.058513001E-2,1.187734827E-1,-4.434032366E-2
2.664920490E0,7.336792350E-2,1.187734827E-1,-3.688369319E-2
2.667357573E0,8.402025700E-2,1.177082509E-1,-3.155753016E-2
2.669850907E0,9.680305421E-2,1.166430190E-1,-2.410089783E-2
2.672344292E0,1.074553803E-1,1.177082509E-1,-1.131810062E-2
2.674837625E0,1.191729456E-1,1.113168523E-1,-3.861469682E-3
2.677331011E0,1.319557428E-1,1.049254537E-1,4.660394508E-3
2.679824344E0,1.394123733E-1,9.653674066E-2,1.637795754E-2
2.682317729E0,1.479342431E-1,8.801487833E-2,2.809552103E-2
2.684811063E0,1.532603949E-1,8.162347972E-2,4.087831825E-2
2.687304448E0,1.596518010E-1,7.629731297E-2,5.046541616E-2
2.689797834E0,1.692388952E-1,6.990591437E-2,6.324820966E-2
2.692291167E0,1.766955256E-1,6.564498693E-2,7.496577501E-2
2.694784552E0,1.830869317E-1,6.564498693E-2,8.561810106E-2
2.697221584E0,1.926740259E-1,6.671021879E-2,9.307473898E-2
2.699714917E0,2.001306564E-1,6.777545065E-2,1.005313694E-1
2.702208302E0,2.086525112E-1,6.671021879E-2,1.090532318E-1
2.704701636E0,2.171743810E-1,6.884068251E-2,1.175750941E-1
2.707195021E0,2.246310115E-1,7.416684926E-2,1.250317246E-1
2.709688354E0,2.331528813E-1,7.629731297E-2,1.260969639E-1
2.712181740E0,2.427399755E-1,7.842778414E-2,1.314231306E-1
2.714675073E0,2.533923090E-1,8.055824786E-2,1.367492825E-1
2.717168459E0,2.629793882E-1,7.949301600E-2,1.410102248E-1
2.719661844E0,2.715012729E-1,7.736254483E-2,1.452711523E-1
2.722155177E0,2.810883522E-1,7.842778414E-2,1.527277827E-1
2.724648563E0,2.906754613E-1,7.736254483E-2,1.601844132E-1
2.727085646E0,3.023930192E-1,7.949301600E-2,1.676410437E-1
2.729578979E0,3.151758313E-1,8.481918275E-2,1.750976741E-1
2.732072365E0,3.236976862E-1,8.588441461E-2,1.825543046E-1
2.734565698E0,3.375457227E-1,8.694964647E-2,1.900109351E-1
2.737059084E0,3.481980562E-1,8.801487833E-2,2.027937323E-1
2.739552417E0,3.556546867E-1,8.908011019E-2,2.113156021E-1
2.742045802E0,3.631113172E-1,9.334104508E-2,2.177069932E-1
2.744539136E0,3.705679476E-1,9.653674066E-2,2.272941023E-1
2.747032521E0,3.790898025E-1,9.547150880E-2,2.379464209E-1
2.749525907E0,3.865464330E-1,9.547150880E-2,2.485987544E-1
2.752019240E0,3.908073604E-1,9.547150880E-2,2.592510879E-1
2.754512625E0,4.014596939E-1,9.334104508E-2,2.667077184E-1
2.756949657E0,4.110468030E-1,9.227581322E-2,2.762948275E-1
2.759442990E0,4.153077304E-1,9.547150880E-2,2.869471312E-1
2.761936375E0,4.238295853E-1,9.760197252E-2,2.954690158E-1
2.764429709E0,4.387428463E-1,1.007976755E-1,3.061213493E-1
2.766923094E0,4.472647011E-1,1.049254537E-1,3.146432042E-1
2.769416427E0,4.579170346E-1,1.113168523E-1,3.242303133E-1
2.771909813E0,4.675041437E-1,1.166430190E-1,3.306216896E-1
2.774403146E0,4.760259986E-1,1.219691783E-1,3.338173926E-1
2.776896532E0,4.909392595E-1,1.336867511E-1,3.306216896E-1
2.779389917E0,5.005263686E-1,1.432738453E-1,3.359478712E-1
2.781883250E0,5.047873259E-1,1.379476786E-1,3.466002047E-1
2.784376636E0,5.101134777E-1,1.400781423E-1,3.529915810E-1
2.786813875E0,5.186353326E-1,1.443390697E-1,3.572525382E-1
2.789306271E0,5.218310356E-1,1.517957002E-1,3.572525382E-1
2.791798719E0,5.303528905E-1,1.549914032E-1,3.529915810E-1
2.794291167E0,5.366111398E-1,1.624480337E-1,3.561872840E-1
2.796783563E0,5.398068428E-1,1.635132730E-1,3.561872840E-1
2.799276011E0,5.461982489E-1,1.613828093E-1,3.540568352E-1
2.801768407E0,5.461982489E-1,1.603175700E-1,3.572525382E-1
2.804260854E0,5.472634435E-1,1.560566425E-1,3.593829870E-1
2.806753250E0,5.483286977E-1,1.549914032E-1,3.551220596E-1
2.809245698E0,5.472634435E-1,1.560566425E-1,3.519263566E-1
2.811738094E0,5.493939519E-1,1.571218669E-1,3.455349505E-1
2.814230542E0,5.493939519E-1,1.571218669E-1,3.412740231E-1
2.816677886E0,5.504591465E-1,1.560566425E-1,3.370130956E-1
2.819170282E0,5.493939519E-1,1.560566425E-1,3.327521682E-1
2.821662729E0,5.451329947E-1,1.581871063E-1,3.284912407E-1
2.824155177E0,5.408720970E-1,1.613828093E-1,3.231650591E-1
2.826647573E0,5.387415886E-1,1.624480337E-1,3.167736828E-1
2.829140021E0,5.335485935E-1,1.645784974E-1,3.146432042E-1
2.831632417E0,5.292876363E-1,1.699046642E-1,3.125127256E-1
2.834124865E0,5.207657814E-1,1.731003672E-1,3.135779798E-1
2.836617261E0,5.175700784E-1,1.752308309E-1,3.103822768E-1
2.839109709E0,5.154396296E-1,1.762960702E-1,3.114475012E-1
2.841602104E0,5.111786723E-1,1.762960702E-1,3.146432042E-1
2.844094552E0,5.069177747E-1,1.752308309E-1,3.146432042E-1
2.846541896E0,5.079829693E-1,1.752308309E-1,3.167736828E-1
2.849034292E0,5.069177747E-1,1.773612946E-1,3.199693561E-1
2.851526740E0,5.026568174E-1,1.752308309E-1,3.199693561E-1
2.854019188E0,5.026568174E-1,1.741656065E-1,3.157084286E-1
2.856511584E0,5.047873259E-1,1.699046642E-1,3.167736828E-1
2.859004032E0,5.069177747E-1,1.656437367E-1,3.189041317E-1
2.861496427E0,5.101134777E-1,1.592523307E-1,3.199693561E-1
2.863988875E0,5.079829693E-1,1.549914032E-1,3.252955377E-1
2.866481271E0,5.122439265E-1,1.496652365E-1,3.242303133E-1
2.868973719E0,5.133091807E-1,1.390129030E-1,3.210346103E-1
2.871466115E0,5.197005868E-1,1.379476786E-1,3.231650591E-1
2.873958563E0,5.260919333E-1,1.368824393E-1,3.231650591E-1
2.876405959E0,5.314181447E-1,1.368824393E-1,3.242303133E-1
2.878898354E0,5.355458856E-1,1.400781423E-1,3.274259865E-1
2.881390802E0,5.355458856E-1,1.400781423E-1,3.295564651E-1
2.883883250E0,5.398068428E-1,1.432738453E-1,3.295564651E-1
2.886375646E0,5.408720970E-1,1.486000121E-1,3.306216896E-1
2.888868094E0,5.398068428E-1,1.496652365E-1,3.306216896E-1
2.891360490E0,5.419372916E-1,1.507304758E-1,3.306216896E-1
2.893852938E0,5.387415886E-1,1.539261788E-1,3.274259865E-1
2.896345334E0,5.366111398E-1,1.603175700E-1,3.306216896E-1
2.898837782E0,5.355458856E-1,1.645784974E-1,3.284912407E-1
2.901330177E0,5.344806910E-1,1.677742004E-1,3.295564651E-1
2.903822625E0,5.335485935E-1,1.731003672E-1,3.295564651E-1
2.906269969E0,5.335485935E-1,1.731003672E-1,3.306216896E-1
2.908762365E0,5.324833393E-1,1.752308309E-1,3.263607621E-1
2.911254813E0,5.324833393E-1,1.762960702E-1,3.252955377E-1
2.913747261E0,5.314181447E-1,1.794917583E-1,3.231650591E-1
2.916239657E0,5.314181447E-1,1.773612946E-1,3.220998347E-1
2.918732104E0,5.344806910E-1,1.826874614E-1,3.210346103E-1
2.921224500E0,5.344806910E-1,1.816222370E-1,3.178389072E-1
2.923716948E0,5.355458856E-1,1.837527007E-1,3.178389072E-1
2.926209344E0,5.398068428E-1,1.805569977E-1,3.146432042E-1
2.928701792E0,5.387415886E-1,1.805569977E-1,3.167736828E-1
2.931194188E0,5.408720970E-1,1.858831644E-1,3.199693561E-1
2.933686636E0,5.430025458E-1,1.869483888E-1,3.231650591E-1
2.936134032E0,5.419372916E-1,1.869483888E-1,3.252955377E-1
2.938626427E0,5.408720970E-1,1.858831644E-1,3.306216896E-1
2.941118875E0,5.408720970E-1,1.880136281E-1,3.348826170E-1
2.943611323E0,5.376763940E-1,1.890788674E-1,3.380783200E-1
2.946103719E0,5.366111398E-1,1.837527007E-1,3.423392773E-1
2.948596167E0,5.335485935E-1,1.762960702E-1,3.487306535E-1
2.951088563E0,5.314181447E-1,1.699046642E-1,3.529915810E-1
2.953581011E0,5.355458856E-1,1.624480337E-1,3.561872840E-1
2.956073407E0,5.376763940E-1,1.528609395E-1,3.615134656E-1
2.958565854E0,5.430025458E-1,1.379476786E-1,3.689700961E-1
2.961058250E0,5.440677404E-1,1.219691783E-1,3.753614724E-1
2.963550698E0,5.504591465E-1,1.049254537E-1,3.817528784E-1
2.965998042E0,5.557853580E-1,8.801487833E-2,3.892095089E-1
2.968490438E0,5.621767044E-1,6.884068251E-2,3.998618424E-1
2.970982886E0,5.706986189E-1,4.860125855E-2,4.105141759E-1
2.973475334E0,5.802856684E-1,2.942706272E-2,4.222317338E-1
2.975967729E0,5.920032263E-1,9.187635034E-3,4.318188429E-1
2.978460177E0,6.069164872E-1,-7.856093347E-3,4.435364008E-1
2.980952573E0,6.228950024E-1,-2.703028731E-2,4.520582557E-1
2.983445021E0,6.410039663E-1,-4.513924941E-2,4.637758136E-1
2.985937417E0,6.580476761E-1,-6.218297780E-2,4.722976983E-1
2.988429865E0,6.804175973E-1,-7.816147059E-2,4.808195531E-1
2.990922261E0,7.038527131E-1,-9.094426781E-2,4.914718866E-1
2.993414709E0,7.262226343E-1,-1.058575287E-1,4.967980385E-1
2.995862104E0,7.464620471E-1,-1.207707971E-1,5.021241903E-1
2.998354500E0,7.730928659E-1,-1.346188188E-1,5.149070024E-1
3.000846948E0,7.954627872E-1,-1.442059278E-1,5.223636627E-1
3.003339396E0,8.188979030E-1,-1.516625583E-1,5.319507122E-1
3.005831792E0,8.465939164E-1,-1.527277827E-1,5.404726267E-1
3.008324240E0,8.668333888E-1,-1.505973190E-1,5.479292274E-1
3.010816636E0,8.881380558E-1,-1.452711523E-1,5.564510822E-1
3.013309084E0,9.094427228E-1,-1.431406885E-1,5.637745857E-1
3.015801479E0,9.286168814E-1,-1.356840581E-1,5.712311864E-1
3.018293927E0,9.477910995E-1,-1.282274276E-1,5.797531009E-1
3.020786323E0,9.637695551E-1,-1.239664927E-1,5.882749557E-1
3.023278771E0,9.744219184E-1,-1.111836955E-1,5.957315564E-1
3.025726115E0,9.818785191E-1,-1.026618332E-1,6.031882167E-1
3.028218511E0,9.882699251E-1,-9.094426781E-2,6.106448174E-1
3.030710959E0,9.967917800E-1,-8.135717362E-2,6.149057746E-1
3.033203407E0,9.946613312E-1,-7.390054315E-2,6.223623753E-1
3.035695802E0,9.925308824E-1,-6.750914454E-2,6.266233325E-1
3.038188250E0,9.914656281E-1,-6.431344151E-2,6.223623753E-1
3.040680646E0,9.904004335E-1,-5.792204663E-2,6.202319264E-1
3.043173094E0,9.893351793E-1,-5.366111174E-2,6.191666722E-1
3.045665490E0,9.882699251E-1,-5.792204663E-2,6.159709692E-1
3.048157938E0,9.861394763E-1,-5.792204663E-2,6.117100716E-1
3.050650334E0,9.818785191E-1,-5.685681105E-2,6.074491143E-1
3.053142782E0,9.808133245E-1,-6.431344151E-2,6.021229625E-1
3.055590125E0,9.786828160E-1,-6.431344151E-2,5.999925137E-1
3.058082521E0,9.818785191E-1,-6.431344151E-2,5.946663618E-1
3.060574969E0,9.808133245E-1,-6.324820966E-2,5.882749557E-1
3.063067417E0,9.829437733E-1,-5.792204663E-2,5.797531009E-1
3.065559813E0,9.882699251E-1,-6.111774594E-2,5.765573978E-1
3.068052261E0,9.904004335E-1,-7.177007198E-2,5.744268894E-1
3.070544657E0,9.935960770E-1,-7.709623873E-2,5.754921436E-1
3.073037104E0,9.946613312E-1,-9.094426781E-2,5.797531009E-1
3.075529500E0,9.914656281E-1,-1.005313694E-1,5.861444473E-1
3.078021948E0,9.914656281E-1,-1.101184636E-1,5.925358534E-1
3.080511092E0,9.893351793E-1,-1.186403260E-1,5.957315564E-1
3.083003540E0,9.861394763E-1,-1.292926520E-1,6.010577083E-1
3.085450936E0,9.872047305E-1,-1.420754492E-1,6.106448174E-1
3.087943332E0,9.872047305E-1,-1.495320797E-1,6.212971807E-1
3.090435780E0,9.840090275E-1,-1.474016160E-1,6.362104416E-1
3.092928227E0,9.797480702E-1,-1.420754492E-1,6.511237025E-1
3.095420623E0,9.808133245E-1,-1.282274276E-1,6.692326665E-1
3.097913071E0,9.840090275E-1,-1.090532318E-1,6.884068251E-1
3.100405467E0,9.829437733E-1,-8.881380409E-2,7.086462975E-1
3.102897915E0,9.818785191E-1,-6.324820966E-2,7.256900072E-1
3.105390311E0,9.818785191E-1,-3.555215150E-2,7.416685224E-1
3.107882759E0,9.776176214E-1,-4.660394508E-3,7.629731297E-1
3.110375155E0,9.722914696E-1,1.877473295E-2,7.800168991E-1
3.112867602E0,9.669652581E-1,4.434032366E-2,7.981258631E-1
3.115314998E0,9.563129544E-1,6.244928762E-2,8.173000216E-1
3.117807394E0,9.445953965E-1,7.310161740E-2,8.332785368E-1
3.120299842E0,9.328778386E-1,8.268871158E-2,8.471265435E-1
3.122792290E0,9.190297723E-1,7.949301600E-2,8.609746099E-1
3.125284686E0,9.062470198E-1,7.310161740E-2,8.748226166E-1
3.127777134E0,8.923989534E-1,6.138405204E-2,8.886706233E-1
3.130269530E0,8.785509467E-1,4.753602296E-2,9.014534354E-1
3.132761977E0,8.710942864E-1,3.155753016E-2,9.142362475E-1
3.135254373E0,8.668333888E-1,1.344856713E-2,9.259538054E-1
3.137746821E0,8.561810255E-1,-6.790860556E-3,9.376713634E-1
3.140239217E0,8.465939164E-1,-2.916075476E-2,9.493889213E-1
3.142731665E0,8.391373158E-1,-4.726971686E-2,9.621717334E-1
3.145179009E0,8.306154609E-1,-7.177007198E-2,9.706935883E-1
3.147671405E0,8.252893090E-1,-9.307473898E-2,9.781502485E-1
3.150163852E0,8.178326488E-1,-1.143793985E-1,9.866721034E-1
3.152656300E0,8.093107939E-1,-1.399449855E-1,9.919982553E-1
3.155148696E0,8.029193878E-1,-1.623148769E-1,9.941287041E-1
3.157641144E0,7.954627872E-1,-1.846847683E-1,1.000520110E0
3.160133540E0,7.880061269E-1,-2.091851383E-1,1.004781008E0
3.162625988E0,7.784190178E-1,-2.347507328E-1,1.006911516E0
3.165118384E0,7.709624171E-1,-2.592510879E-1,1.009042025E0
3.167610832E0,7.656362653E-1,-2.869471312E-1,1.009042025E0
3.170103227E0,7.571143508E-1,-3.167736828E-1,1.006911516E0
3.172595675E0,7.453967929E-1,-3.476654291E-1,1.004781008E0
3.175043019E0,7.368749380E-1,-3.721657991E-1,9.983896613E-1
3.177535415E0,7.294183373E-1,-3.966661394E-1,9.877372980E-1
3.180027863E0,7.262226343E-1,-4.094489515E-1,9.749545455E-1
3.182520311E0,7.187659740E-1,-4.232969582E-1,9.600412846E-1
3.185012707E0,7.091788650E-1,-4.392754734E-1,9.472584724E-1
3.187505155E0,7.027874589E-1,-4.467321038E-1,9.461932182E-1
3.189997550E0,6.932004094E-1,-4.520582557E-1,9.387366176E-1
3.192489998E0,6.836133003E-1,-4.520582557E-1,9.291495085E-1
3.194982394E0,6.697652340E-1,-4.488625526E-1,9.216928482E-1
3.197474842E0,6.559172273E-1,-4.446016252E-1,9.174319506E-1
3.199967238E0,6.420692205E-1,-4.296883643E-1,9.163666964E-1
3.202459686E0,6.239602566E-1,-4.126446545E-1,9.121057987E-1
3.204907082E0,6.047860384E-1,-3.881442845E-1,9.067795873E-1
3.207399477E0,5.909380317E-1,-3.572525382E-1,9.035838842E-1
3.209891925E0,5.738942623E-1,-3.252955377E-1,9.003882408E-1
3.212384373E0,5.589810014E-1,-2.848166823E-1,8.971925378E-1
3.214876769E0,5.408720970E-1,-2.454030514E-1,8.982577324E-1
3.217369217E0,5.228962898E-1,-2.038589716E-1,8.971925378E-1
3.219861613E0,5.037220716E-1,-1.623148769E-1,8.971925378E-1
3.222354061E0,4.834826291E-1,-1.165098622E-1,8.950620294E-1
3.224846457E0,4.621779919E-1,-7.390054315E-2,8.939968348E-1
3.227338905E0,4.355471432E-1,-3.235645220E-2,8.908011317E-1
3.229831300E0,4.099815488E-1,4.926702939E-3,8.865401745E-1
3.232323748E0,3.812202811E-1,4.007939249E-2,8.790835738E-1
3.234771092E0,3.524589837E-1,7.523208112E-2,8.726921678E-1
3.237263488E0,3.226324618E-1,9.866721183E-2,8.588441014E-1
3.239755936E0,2.938711643E-1,1.209039465E-1,8.481917977E-1
3.242248384E0,2.629793882E-1,1.368824393E-1,8.354089856E-1
3.244740780E0,2.363485843E-1,1.486000121E-1,8.204957247E-1
3.247233227E0,2.129134536E-1,1.571218669E-1,8.045172691E-1
3.249725623E0,1.894783229E-1,1.613828093E-1,7.864083052E-1
3.252218071E0,1.681736708E-1,1.656437367E-1,7.736254930E-1
3.254710467E0,1.479342431E-1,1.581871063E-1,7.587122321E-1
3.257202915E0,1.330209672E-1,1.528609395E-1,7.469946742E-1
3.259695311E0,1.191729456E-1,1.422086060E-1,7.342118621E-1
3.262187759E0,1.053249165E-1,1.230344176E-1,7.256900072E-1
3.264635102E0,9.573781490E-2,1.059906855E-1,7.161028981E-1
3.267127498E0,8.934641629E-2,8.375394344E-2,7.129071951E-1
3.269619946E0,8.295502514E-2,6.244928762E-2,7.054505944E-1
3.272112394E0,7.762885839E-2,3.688369319E-2,6.969286799E-1
3.274604790E0,7.336792350E-2,1.025286783E-2,6.916025281E-1
3.277097238E0,7.123745978E-2,-1.318225823E-2,6.724283695E-1
3.279589634E0,6.804175675E-2,-4.513924941E-2,6.671021581E-1
3.282082082E0,6.271559745E-2,-8.242240548E-2,6.671021581E-1
3.284574477E0,5.419373140E-2,-1.207707971E-1,6.649717093E-1
3.287066925E0,4.780233279E-2,-1.559234858E-1,6.617760062E-1
3.289559321E0,4.460663348E-2,-1.868152469E-1,6.575151086E-1
3.292051769E0,3.821523488E-2,-2.155765295E-1,6.457974911E-1
3.294499269E0,2.969337068E-2,-2.454030514E-1,6.330147386E-1
3.296990936E0,2.649767138E-2,-2.688381970E-1,6.191666722E-1
3.299482602E0,2.330197208E-2,-2.880123854E-1,6.021229625E-1
3.301974269E0,1.904104091E-2,-3.135779798E-1,5.850792527E-1
3.304465936E0,1.584534161E-2,-3.444697261E-1,5.744268894E-1
3.306957602E0,1.051917579E-2,-3.742962480E-1,5.659050345E-1
3.309449269E0,5.193010904E-3,-4.073184729E-1,5.617772937E-1
3.311940936E0,3.062544856E-3,-4.318188429E-1,5.532553792E-1
3.314432602E0,1.584534161E-2,-4.222317338E-1,5.330159664E-1
3.316924321E0,1.532603949E-1,-2.155765295E-1,4.147751033E-1
3.319415988E0,4.003944695E-1,5.179695413E-2,1.921414137E-1
3.321907655E0,4.856131077E-1,-6.857437640E-2,1.175750941E-1
3.324363280E0,4.355471432E-1,-3.125127256E-1,1.729672104E-1
3.326854946E0,4.408733249E-1,-3.945356905E-1,1.995980442E-1
3.329346613E0,5.047873259E-1,-3.540568352E-1,1.569887102E-1
3.331838280E0,5.664376616E-1,-3.082517982E-1,8.348763734E-2
3.334329946E0,6.111774445E-1,-2.922733128E-1,1.531272475E-2
3.336821613E0,6.527215242E-1,-2.773600519E-1,-4.220985994E-2
3.339313280E0,6.963961124E-1,-2.411421239E-1,-8.788172156E-2
3.341804946E0,7.368749380E-1,-2.070546746E-1,-1.198387146E-1
3.344296613E0,7.635057569E-1,-2.027937323E-1,-1.347519755E-1
3.346788332E0,7.720276117E-1,-2.368811965E-1,-1.272953451E-1
3.349279998E0,7.571143508E-1,-2.805557549E-1,-1.091863886E-1
3.351771665E0,7.326140404E-1,-3.146432042E-1,-8.042509109E-2
3.354227342E0,6.995918155E-1,-3.274259865E-1,-4.540555924E-2
3.356719009E0,6.559172273E-1,-3.402087986E-1,-5.991935730E-3
3.359210675E0,6.111774445E-1,-3.540568352E-1,3.448691964E-2
3.361702342E0,5.611115098E-1,-3.647091687E-1,7.816147059E-2
3.364194009E0,5.133091807E-1,-3.774919510E-1,1.207707971E-1
3.366685675E0,4.696346223E-1,-3.956009150E-1,1.612496525E-1
3.369177342E0,4.334166944E-1,-4.275579154E-1,2.049241960E-1
3.371669009E0,4.099815488E-1,-4.861457348E-1,2.454030514E-1
3.374160675E0,3.961335421E-1,-5.701659918E-1,2.752295732E-1
3.376652394E0,3.940030634E-1,-6.713631153E-1,3.007951677E-1
3.379144061E0,3.865464330E-1,-7.714950442E-1,3.231650591E-1
3.381635727E0,3.769593239E-1,-8.631050587E-1,3.476654291E-1
3.384091352E0,3.567199111E-1,-9.493889213E-1,3.721657991E-1
3.386583019E0,3.343500197E-1,-1.030346632E0,3.966661394E-1
3.389074686E0,3.109148741E-1,-1.107043386E0,4.222317338E-1
3.391566352E0,2.896102369E-1,-1.180411339E0,4.424711764E-1
3.394058019E0,2.746969759E-1,-1.248586297E0,4.605801404E-1
3.396549686E0,2.608489394E-1,-1.314630747E0,4.786891043E-1
3.399041352E0,2.533923090E-1,-1.384936094E0,4.882761836E-1
3.401533019E0,2.512618303E-1,-1.455241442E0,4.946675897E-1
3.404024686E0,2.587184608E-1,-1.528742552E0,4.999937415E-1
3.406516405E0,2.704360485E-1,-1.597982645E0,4.999937415E-1
3.409008071E0,2.800231278E-1,-1.666157603E0,4.978632927E-1
3.411499738E0,2.949363887E-1,-1.729938388E0,4.925371110E-1
3.413955415E0,3.141105771E-1,-1.788526297E0,4.818847775E-1
3.416447082E0,3.332847953E-1,-1.839657426E0,4.680367708E-1
3.418938748E0,3.535242081E-1,-1.888658166E0,4.541887343E-1
3.421430415E0,3.737636507E-1,-1.928071737E0,4.382102489E-1
3.423922082E0,3.940030634E-1,-1.965354919E0,4.232969582E-1
3.426413748E0,4.185034335E-1,-1.999442339E0,4.062532485E-1
3.428905415E0,4.408733249E-1,-2.023942709E0,3.892095089E-1
3.431397082E0,4.589822888E-1,-2.047377825E0,3.753614724E-1
3.433888748E0,4.792217016E-1,-2.070812941E0,3.593829870E-1
3.436380467E0,4.962654412E-1,-2.088922024E0,3.466002047E-1
3.438872134E0,5.101134777E-1,-2.107030869E0,3.338173926E-1
3.441363800E0,5.218310356E-1,-2.121944189E0,3.210346103E-1
3.443819425E0,5.376763940E-1,-2.130465984E0,3.125127256E-1
3.446311092E0,5.483286977E-1,-2.132596493E0,2.986647189E-1
3.448802759E0,5.579158068E-1,-2.129400730E0,2.848166823E-1
3.451294425E0,5.675029159E-1,-2.126205206E0,2.677729428E-1
3.453786092E0,5.664376616E-1,-2.116617918E0,2.517944574E-1
3.456277759E0,5.589810014E-1,-2.097443819E0,2.379464209E-1
3.458769425E0,5.483286977E-1,-2.078269720E0,2.251636237E-1
3.461261092E0,5.314181447E-1,-2.055899620E0,2.145113051E-1
3.463752759E0,5.101134777E-1,-2.030334234E0,2.049241960E-1
3.466244477E0,4.888088107E-1,-2.003703356E0,1.974675655E-1
3.468736144E0,4.611127377E-1,-1.974941969E0,1.900109351E-1
3.471227811E0,4.344819188E-1,-1.936593652E0,1.814890802E-1
3.473683488E0,4.121120274E-1,-1.891853809E0,1.633801162E-1
3.476175155E0,3.865464330E-1,-1.846048832E0,1.442059278E-1
3.478666821E0,3.556546867E-1,-1.805570006E0,1.239664927E-1
3.481158488E0,3.236976862E-1,-1.759764910E0,1.069227681E-1
3.483650155E0,2.917406857E-1,-1.708766937E0,9.307473898E-2
3.486141821E0,2.608489394E-1,-1.656570554E0,8.242240548E-2
3.488633488E0,2.299571782E-1,-1.604374051E0,6.857437640E-2
3.491125155E0,2.033263594E-1,-1.553242922E0,5.259587988E-2
3.493616821E0,1.830869317E-1,-1.499981284E0,4.407401755E-2
3.496108540E0,1.639127284E-1,-1.449915290E0,3.342168778E-2
3.498600207E0,1.489994675E-1,-1.399849296E0,1.531272475E-2
3.501091873E0,1.319557428E-1,-1.344457269E0,6.790860556E-3
3.503547498E0,1.170424819E-1,-1.298652172E0,2.529928461E-3
3.506039165E0,1.053249165E-1,-1.257108092E0,2.529928461E-3
3.508530832E0,9.041165560E-2,-1.210237861E0,6.790860556E-3
3.511022498E0,7.549838722E-2,-1.163367629E0,1.105179265E-2
3.513514165E0,6.165036187E-2,-1.109173894E0,1.744319126E-2
3.516005832E0,5.099803209E-2,-1.056977510E0,1.957365684E-2
3.518497498E0,4.034570232E-2,-1.001585364E0,2.596505545E-2
3.520989165E0,2.756290510E-2,-9.525846243E-1,3.555215150E-2
3.523480832E0,1.904104091E-2,-9.067795873E-1,4.194355011E-2
3.525972550E0,9.453942999E-3,-8.620398045E-1,5.366111174E-2
3.528464217E0,1.997311832E-3,-8.162348270E-1,6.218297780E-2
3.530955884E0,-5.459319334E-3,-7.736254930E-1,7.390054315E-2
3.533411561E0,-8.655018173E-3,-7.320814133E-1,8.668334037E-2
3.535903227E0,-9.720250964E-3,-6.916025281E-1,9.946613014E-2
3.538394894E0,-1.078548469E-2,-6.585803032E-1,1.079879999E-1
3.540886561E0,-9.720250964E-3,-6.266233325E-1,1.143793985E-1
3.543378227E0,-6.524552125E-3,-5.957315564E-1,1.218360290E-1
3.545869894E0,-2.263620263E-3,-5.669702888E-1,1.292926520E-1
3.548361561E0,9.320789250E-4,-5.477960706E-1,1.356840581E-1
3.550853227E0,4.127778113E-3,-5.275566578E-1,1.399449855E-1
3.553344894E0,1.264964230E-2,-5.115781426E-1,1.452711523E-1
3.555836613E0,1.904104091E-2,-4.967980385E-1,1.495320797E-1
3.558328280E0,2.543243766E-2,-4.829500318E-1,1.516625583E-1
3.560819946E0,3.182383627E-2,-4.712324440E-1,1.548582464E-1
3.563275571E0,4.034570232E-2,-4.627105892E-1,1.548582464E-1
3.565767238E0,4.567186534E-2,-4.563191831E-1,1.612496525E-1
3.568258905E0,5.419373140E-2,-4.520582557E-1,1.612496525E-1
3.570750571E0,6.165036187E-2,-4.467321038E-1,1.591191888E-1
3.573242238E0,6.804175675E-2,-4.456668794E-1,1.601844132E-1
3.575733905E0,7.656362653E-2,-4.424711764E-1,1.612496525E-1
3.578225571E0,8.295502514E-2,-4.424711764E-1,1.569887102E-1
3.580717238E0,9.041165560E-2,-4.414059222E-1,1.569887102E-1
3.583208905E0,9.467258304E-2,-4.446016252E-1,1.516625583E-1
3.585700623E0,9.999874979E-2,-4.499278069E-1,1.505973190E-1
3.588192290E0,1.010639817E-1,-4.520582557E-1,1.484668553E-1
3.590683957E0,1.053249165E-1,-4.573844373E-1,1.452711523E-1
3.593139582E0,1.074553803E-1,-4.659062922E-1,1.399449855E-1
3.595631248E0,1.117163152E-1,-4.680367708E-1,1.324883550E-1
3.598122915E0,1.117163152E-1,-4.722976983E-1,1.271621883E-1
3.600614582E0,1.191729456E-1,-4.744281471E-1,1.229012609E-1
3.603106248E0,1.223686412E-1,-4.765586257E-1,1.175750941E-1
3.605597915E0,1.202381775E-1,-4.829500318E-1,1.133141592E-1
3.608089582E0,1.191729456E-1,-4.882761836E-1,1.090532318E-1
3.610581248E0,1.181077138E-1,-4.882761836E-1,1.026618332E-1
3.613072915E0,1.202381775E-1,-4.925371110E-1,9.733566642E-2
3.615564634E0,1.127815470E-1,-4.914718866E-1,9.520520270E-2
3.618056300E0,1.042596847E-1,-4.861457348E-1,8.561810106E-2
3.620547967E0,9.786828607E-2,-4.840152562E-1,8.242240548E-2
3.623003644E0,8.828118443E-2,-4.797543287E-1,8.029194176E-2
3.625495311E0,7.869409025E-2,-4.691019952E-1,7.283531129E-2
3.627986977E0,6.910699606E-2,-4.627105892E-1,6.644391268E-2
3.630478644E0,5.845466256E-2,-4.531235099E-1,6.537867337E-2
3.632970311E0,4.780233279E-2,-4.456668794E-1,6.218297780E-2
3.635461977E0,3.608476743E-2,-4.371449947E-1,5.898727849E-2
3.637953644E0,2.330197208E-2,-4.275579154E-1,5.792204663E-2
3.640445311E0,1.478010789E-2,-4.147751033E-1,5.579157919E-2
3.642936977E0,4.127778113E-3,-4.009270668E-1,5.153064802E-2
3.645428696E0,-6.524552125E-3,-3.870790601E-1,5.259587988E-2
3.647920363E0,-2.143781446E-2,-3.742962480E-1,5.259587988E-2
3.650412030E0,-2.782921307E-2,-3.625786901E-1,5.259587988E-2
3.652867655E0,-3.209014609E-2,-3.497959077E-1,5.472634733E-2
3.655359321E0,-4.487293959E-2,-3.402087986E-1,5.685681105E-2
3.657850988E0,-4.806863889E-2,-3.242303133E-1,6.005251035E-2
3.660342655E0,-5.446003750E-2,-3.125127256E-1,5.898727849E-2
3.662834321E0,-5.765573680E-2,-3.018604219E-1,6.324820966E-2
3.665325988E0,-5.978620425E-2,-2.912080884E-1,6.750914454E-2
3.667817655E0,-6.298190355E-2,-2.816209793E-1,6.857437640E-2
3.670309321E0,-6.617759913E-2,-2.730991244E-1,7.177007198E-2
3.672800988E0,-6.617759913E-2,-2.613815665E-1,7.283531129E-2
3.675292707E0,-6.617759913E-2,-2.475335300E-1,7.390054315E-2
3.677784373E0,-6.830807030E-2,-2.347507328E-1,7.390054315E-2
3.680276040E0,-6.617759913E-2,-2.240983993E-1,7.603100687E-2
3.682731665E0,-6.404713541E-2,-2.166417688E-1,7.709623873E-2
3.685223332E0,-6.085143611E-2,-2.081198990E-1,7.922670245E-2
3.687714998E0,-5.872096866E-2,-2.070546746E-1,8.242240548E-2
3.690206665E0,-5.765573680E-2,-2.113156021E-1,8.242240548E-2
3.692698332E0,-5.126433820E-2,-2.102503628E-1,8.242240548E-2
3.695189998E0,-4.380770773E-2,-2.049241960E-1,8.455286920E-2
3.697681665E0,-3.741630912E-2,-1.985328048E-1,8.348763734E-2
3.700173332E0,-3.315537795E-2,-1.953371018E-1,8.348763734E-2
3.702664998E0,-2.782921307E-2,-1.921414137E-1,8.455286920E-2
3.705156717E0,-2.356828004E-2,-1.793586165E-1,8.561810106E-2
3.707648384E0,-1.930734888E-2,-1.740324497E-1,8.455286920E-2
3.710140050E0,-1.291595027E-2,-1.644453406E-1,9.094426781E-2
3.712595727E0,-1.185071748E-2,-1.569887102E-1,9.520520270E-2
3.715087394E0,-1.930734888E-2,-1.527277827E-1,9.946613014E-2
3.717579061E0,-2.356828004E-2,-1.388797611E-1,1.026618332E-1
3.720070727E0,-2.889444493E-2,-1.197055578E-1,1.090532318E-1
3.722562394E0,-3.741630912E-2,-1.026618332E-1,1.154446304E-1
3.725054061E0,-4.274247587E-2,-9.520520270E-2,1.239664927E-1
3.727545727E0,-5.126433820E-2,-9.413997084E-2,1.324883550E-1
3.730037394E0,-5.872096866E-2,-9.200949967E-2,1.324883550E-1
3.732529061E0,-6.298190355E-2,-7.603100687E-2,1.186403260E-1
3.735020780E0,-7.150376588E-2,-6.963960826E-2,1.069227681E-1
3.737512446E0,-8.841434121E-2,-8.455286920E-2,1.111836955E-1
3.740004113E0,-1.022623703E-1,-9.733566642E-2,1.197055578E-1
3.742459738E0,-1.182408631E-1,-1.207707971E-1,1.207707971E-1
3.744951405E0,-1.267627329E-1,-1.420754492E-1,1.239664927E-1
3.747443071E0,-1.331541240E-1,-1.612496525E-1,1.260969639E-1
3.749934738E0,-1.416759938E-1,-1.708367467E-1,1.282274276E-1
3.752426405E0,-1.533935517E-1,-1.750976741E-1,1.303578913E-1
3.754918071E0,-1.661763489E-1,-1.772281379E-1,1.282274276E-1
3.757409738E0,-1.810896099E-1,-1.804238409E-1,1.314231306E-1
3.759901405E0,-1.938724071E-1,-1.878804713E-1,1.335535944E-1
3.762393071E0,-2.055899799E-1,-2.006632686E-1,1.378145218E-1
3.764884790E0,-2.215684652E-1,-2.145113051E-1,1.442059278E-1
3.767376457E0,-2.375469655E-1,-2.262288630E-1,1.537930220E-1
3.769868123E0,-2.513949871E-1,-2.379464209E-1,1.612496525E-1
3.772323800E0,-2.705691755E-1,-2.507292330E-1,1.665758193E-1
3.774815467E0,-2.940043211E-1,-2.592510879E-1,1.719019860E-1
3.777307134E0,-3.121132851E-1,-2.635120153E-1,1.750976741E-1
3.779798800E0,-3.259612918E-1,-2.656424940E-1,1.793586165E-1
3.782290467E0,-3.398093283E-1,-2.645772398E-1,1.804238409E-1
3.784782134E0,-3.557878435E-1,-2.645772398E-1,1.857500076E-1
3.787273800E0,-3.675054014E-1,-2.624467909E-1,1.942718774E-1
3.789765467E0,-3.781577349E-1,-2.624467909E-1,1.942718774E-1
3.792257134E0,-3.930709958E-1,-2.528596818E-1,1.942718774E-1
3.794748852E0,-4.015928507E-1,-2.400768995E-1,1.964023411E-1
3.797240519E0,-4.047885537E-1,-2.262288630E-1,1.974675655E-1
3.799732186E0,-4.079842567E-1,-2.155765295E-1,1.942718774E-1
3.802187915E0,-4.143756330E-1,-1.995980442E-1,1.921414137E-1
3.804679009E0,-4.154408872E-1,-1.825543046E-1,1.900109351E-1
3.807170050E0,-4.122451842E-1,-1.687062830E-1,1.889457107E-1
3.809661144E0,-4.069190025E-1,-1.463363916E-1,1.857500076E-1
3.812152186E0,-4.015928507E-1,-1.367492825E-1,1.868152469E-1
3.814643280E0,-3.994623721E-1,-1.410102248E-1,1.857500076E-1
3.817134373E0,-3.962666988E-1,-1.452711523E-1,1.793586165E-1
3.819625415E0,-3.920057416E-1,-1.452711523E-1,1.729672104E-1
3.822116509E0,-3.920057416E-1,-1.431406885E-1,1.655105799E-1
3.824607550E0,-3.856143653E-1,-1.420754492E-1,1.537930220E-1
3.827098644E0,-3.834838867E-1,-1.431406885E-1,1.452711523E-1
3.829589738E0,-3.813534081E-1,-1.463363916E-1,1.324883550E-1
3.832051925E0,-3.749620318E-1,-1.420754492E-1,1.197055578E-1
3.834543019E0,-3.643096983E-1,-1.346188188E-1,1.079879999E-1
3.837034061E0,-3.557878435E-1,-1.239664927E-1,9.627043456E-2
3.839525155E0,-3.472659588E-1,-1.133141592E-1,8.135717362E-2
3.842016196E0,-3.334179223E-1,-9.520520270E-2,6.218297780E-2
3.844507290E0,-3.195699155E-1,-8.348763734E-2,4.407401755E-2
3.846998384E0,-3.089175820E-1,-7.603100687E-2,3.342168778E-2
3.849489425E0,-3.035914004E-1,-7.283531129E-2,3.022598661E-2
3.851980519E0,-2.886781394E-1,-7.390054315E-2,3.874785081E-2
3.854471561E0,-2.790910602E-1,-7.177007198E-2,4.087831825E-2
3.856962655E0,-2.673735023E-1,-6.537867337E-2,4.300878197E-2
3.859453748E0,-2.545906901E-1,-5.685681105E-2,4.300878197E-2
3.861915988E0,-2.396774292E-1,-4.407401755E-2,4.087831825E-2
3.864407082E0,-2.268946320E-1,-3.235645220E-2,3.874785081E-2
3.866898123E0,-2.173075378E-1,-2.383458801E-2,3.661738336E-2
3.869389217E0,-2.045247406E-1,-1.424749196E-2,3.342168778E-2
3.871880259E0,-1.896114796E-1,-4.660394508E-3,2.809552103E-2
3.874371352E0,-1.778939217E-1,3.861469682E-3,2.276935615E-2
3.876862446E0,-1.661763489E-1,7.057168987E-3,1.850842312E-2
3.879353488E0,-1.523283273E-1,1.238333434E-2,1.424749196E-2
3.881844582E0,-1.374150664E-1,1.025286783E-2,9.986559860E-3
3.884335623E0,-1.256974936E-1,8.122402243E-3,3.595161485E-3
3.886826717E0,-1.118494645E-1,8.122402243E-3,3.595161485E-3
3.889317811E0,-9.906667471E-2,4.926702939E-3,3.994623839E-4
3.891779998E0,-8.628387749E-2,2.796236658E-3,1.464695437E-3
3.894271092E0,-7.776200771E-2,-4.660394508E-3,-6.657706108E-4
3.896762134E0,-6.937330216E-2,-1.105179265E-2,-2.796236658E-3
3.899253227E0,-6.191666797E-2,-1.531272475E-2,-5.991935730E-3
3.901744269E0,-5.765573680E-2,-2.383458801E-2,-7.057168987E-3
3.904235363E0,-5.019910634E-2,-3.129122034E-2,-9.187635034E-3
3.906726457E0,-4.593817517E-2,-3.874785081E-2,-1.344856713E-2
3.909217498E0,-4.380770773E-2,-4.407401755E-2,-1.557903271E-2
3.911708592E0,-3.741630912E-2,-4.407401755E-2,-1.557903271E-2
3.914199634E0,-2.676397935E-2,-3.981308267E-2,-1.451379992E-2
3.916690727E0,-2.782921307E-2,-4.833494872E-2,-1.025286783E-2
3.919181821E0,-3.209014609E-2,-6.431344151E-2,-9.187635034E-3
3.921644009E0,-3.422060981E-2,-7.283531129E-2,-8.122402243E-3
3.924135102E0,-3.741630912E-2,-8.135717362E-2,-9.187635034E-3
3.926626144E0,-3.954677656E-2,-8.242240548E-2,-5.991935730E-3
3.929117238E0,-4.380770773E-2,-9.307473898E-2,-7.057168987E-3
3.931608280E0,-5.339480564E-2,-1.047922969E-1,-5.991935730E-3
3.934099373E0,-6.298190355E-2,-1.143793985E-1,-6.657706108E-4
3.936590467E0,-6.724283099E-2,-1.250317246E-1,3.994623839E-4
3.939081509E0,-7.776200771E-2,-1.378145218E-1,-2.796236658E-3
3.941572602E0,-8.628387749E-2,-1.452711523E-1,-3.861469682E-3
3.944063644E0,-9.480573982E-2,-1.569887102E-1,-2.796236658E-3
3.946554738E0,-1.075885370E-1,-1.697715074E-1,-3.861469682E-3
3.949045832E0,-1.193061024E-1,-1.804238409E-1,-7.057168987E-3
3.951508071E0,-1.320888996E-1,-1.900109351E-1,-8.122402243E-3
3.953999165E0,-1.438064575E-1,-1.942718774E-1,-1.025286783E-2
3.956490207E0,-1.512630880E-1,-2.006632686E-1,-1.238333434E-2
3.958981300E0,-1.565892547E-1,-2.081198990E-1,-1.451379992E-2
3.961472342E0,-1.597849578E-1,-2.155765295E-1,-1.557903271E-2
3.963963436E0,-1.651111245E-1,-2.230331600E-1,-1.344856713E-2
3.966454530E0,-1.661763489E-1,-2.336854935E-1,-1.238333434E-2
3.968945571E0,-1.608501822E-1,-2.454030514E-1,-1.877473295E-2
3.971436665E0,-1.597849578E-1,-2.613815665E-1,-2.410089783E-2
3.973927707E0,-1.555240154E-1,-2.709686458E-1,-2.410089783E-2
3.976418800E0,-1.491326243E-1,-2.794905007E-1,-2.623136342E-2
3.978909894E0,-1.470021605E-1,-2.869471312E-1,-2.836182900E-2
3.981372082E0,-1.438064575E-1,-2.954690158E-1,-3.049229458E-2
3.983863175E0,-1.374150664E-1,-3.018604219E-1,-2.836182900E-2
3.986354217E0,-1.374150664E-1,-3.061213493E-1,-2.410089783E-2
3.988845311E0,-1.342193633E-1,-3.114475012E-1,-2.090519853E-2
3.991336352E0,-1.310236603E-1,-3.178389072E-1,-1.983996481E-2
3.993827446E0,-1.331541240E-1,-3.178389072E-1,-1.344856713E-2
3.996318540E0,-1.342193633E-1,-3.178389072E-1,-1.238333434E-2
3.998809582E0,-1.363498271E-1,-3.167736828E-1,-9.187635034E-3
4.001300675E0,-1.395455301E-1,-3.125127256E-1,-2.796236658E-3
4.003791717E0,-1.438064575E-1,-3.061213493E-1,5.725627299E-3
4.006282811E0,-1.480673850E-1,-2.954690158E-1,1.318225823E-2
4.008773905E0,-1.501978636E-1,-2.837514579E-1,1.850842312E-2
4.011236144E0,-1.512630880E-1,-2.752295732E-1,3.022598661E-2
4.013727238E0,-1.587197185E-1,-2.667077184E-1,3.235645220E-2
4.016218280E0,-1.619154215E-1,-2.571206093E-1,3.874785081E-2
4.018709373E0,-1.683068126E-1,-2.517944574E-1,4.407401755E-2
4.021200415E0,-1.768286824E-1,-2.400768995E-1,4.833494872E-2
4.023691509E0,-1.778939217E-1,-2.283593267E-1,5.579157919E-2
4.026182602E0,-1.810896099E-1,-2.177069932E-1,6.111774594E-2
4.028673644E0,-1.896114796E-1,-2.091851383E-1,6.111774594E-2
4.031164738E0,-1.938724071E-1,-2.006632686E-1,6.537867337E-2
4.033655780E0,-1.981333494E-1,-1.910761744E-1,6.750914454E-2
4.036146873E0,-2.013290375E-1,-1.836195439E-1,7.603100687E-2
4.038637967E0,-2.045247406E-1,-1.761629134E-1,7.816147059E-2
4.041100207E0,-2.098509073E-1,-1.676410437E-1,8.242240548E-2
4.043591300E0,-2.162422985E-1,-1.559234858E-1,8.774857223E-2
4.046082342E0,-2.236989290E-1,-1.399449855E-1,9.094426781E-2
4.048573436E0,-2.226337045E-1,-1.197055578E-1,9.627043456E-2
4.051064477E0,-2.173075378E-1,-9.413997084E-2,1.015966013E-1
4.053555571E0,-2.236989290E-1,-9.200949967E-2,1.037270650E-1
4.056046665E0,-2.311555594E-1,-1.037270650E-1,1.037270650E-1
4.058537707E0,-2.354165018E-1,-1.005313694E-1,1.015966013E-1
4.061028800E0,-2.332860380E-1,-9.413997084E-2,1.026618332E-1
4.063519842E0,-2.354165018E-1,-8.881380409E-2,1.005313694E-1
4.066010936E0,-2.375469655E-1,-8.135717362E-2,1.005313694E-1
4.068502030E0,-2.364817262E-1,-7.177007198E-2,9.840089828E-2
4.070964217E0,-2.375469655E-1,-6.431344151E-2,9.946613014E-2
4.073455311E0,-2.418078929E-1,-4.407401755E-2,9.946613014E-2
4.075946352E0,-2.428731322E-1,-2.596505545E-2,9.627043456E-2
4.078437446E0,-2.471340597E-1,-5.725627299E-3,9.733566642E-2
4.080928488E0,-2.492645234E-1,1.877473295E-2,1.026618332E-1
4.083419582E0,-2.513949871E-1,4.860125855E-2,1.026618332E-1
4.085910675E0,-2.503297627E-1,7.736254483E-2,1.047922969E-1
4.088401717E0,-2.524602413E-1,1.039933711E-1,1.047922969E-1
4.090892811E0,-2.577863932E-1,1.368824393E-1,1.058575287E-1
4.093383852E0,-2.631125450E-1,1.677742004E-1,1.101184636E-1
4.095874946E0,-2.748301327E-1,1.933397949E-1,1.154446304E-1
4.098366040E0,-2.833519876E-1,2.178401500E-1,1.154446304E-1
4.100828280E0,-2.897433937E-1,2.455362082E-1,1.207707971E-1
4.103319373E0,-3.025261760E-1,2.774932086E-1,1.229012609E-1
4.105810415E0,-3.142437339E-1,3.083849549E-1,1.271621883E-1
4.108301509E0,-3.280917704E-1,3.392767310E-1,1.292926520E-1
4.110792550E0,-3.430050313E-1,3.797555864E-1,1.271621883E-1
4.113283644E0,-3.611139953E-1,4.202344418E-1,1.260969639E-1
4.115774738E0,-3.770924807E-1,4.617785215E-1,1.282274276E-1
4.118265780E0,-3.973319232E-1,5.086487532E-1,1.292926520E-1
4.120756873E0,-4.197018147E-1,5.565842390E-1,1.303578913E-1
4.123247915E0,-4.420717061E-1,6.130415797E-1,1.271621883E-1
4.125739009E0,-4.612458944E-1,6.694989800E-1,1.282274276E-1
4.128230102E0,-4.857462645E-1,7.311493158E-1,1.260969639E-1
4.130692290E0,-5.102466345E-1,7.833457589E-1,1.292926520E-1
4.133183384E0,-5.400731564E-1,8.334116936E-1,1.346188188E-1
4.135674425E0,-5.667039752E-1,8.824124336E-1,1.388797611E-1
4.138165519E0,-5.933347940E-1,9.367392659E-1,1.495320797E-1
4.140656561E0,-6.167699099E-1,9.942618608E-1,1.569887102E-1
4.143147655E0,-6.402050257E-1,1.046458244E0,1.687062830E-1
4.145638748E0,-6.657706499E-1,1.093328595E0,1.857500076E-1
4.148129790E0,-6.933335662E-1,1.151916385E0,2.006632686E-1
4.150620884E0,-7.157034278E-1,1.204112768E0,2.166417688E-1
4.153111925E0,-7.402037978E-1,1.250983000E0,2.358159572E-1
4.155603019E0,-7.657693624E-1,1.303179502E0,2.507292330E-1
4.158094113E0,-7.924002409E-1,1.349916577E0,2.656424940E-1
4.160556352E0,-8.200962543E-1,1.394656301E0,2.805557549E-1
4.163047446E0,-8.424661756E-1,1.445787549E0,2.954690158E-1
4.165538488E0,-8.690969944E-1,1.496918678E0,3.135779798E-1
4.168029582E0,-8.999887705E-1,1.542723775E0,3.316869438E-1
4.170520623E0,-9.244890809E-1,1.595985413E0,3.583177626E-1
4.173011717E0,-9.511199594E-1,1.656703711E0,3.934704363E-1
4.175502759E0,-9.756202698E-1,1.718487144E0,4.328840673E-1
4.177993852E0,-9.926640391E-1,1.778140187E0,4.722976983E-1
4.180484946E0,-1.011838198E0,1.834597588E0,5.042546988E-1
4.182975988E0,-1.032077670E0,1.888924479E0,5.298202634E-1
4.185467082E0,-1.064034581E0,1.945248604E0,5.521901846E-1
4.187958175E0,-1.086404562E0,1.979336143E0,5.808182955E-1
4.190420363E0,-1.100252509E0,1.988923192E0,6.117100716E-1
4.192911457E0,-1.118361473E0,1.998510361E0,6.436670423E-1
4.195402498E0,-1.133274794E0,2.010227919E0,6.745588183E-1
4.197893592E0,-1.150318503E0,2.019814968E0,7.065157890E-1
4.200384634E0,-1.170557976E0,2.028336763E0,7.288857102E-1
4.202875727E0,-1.185471177E0,2.030467272E0,7.469946742E-1
4.205366821E0,-1.200384498E0,2.028336763E0,7.629731297E-1
4.207857863E0,-1.218493462E0,2.030467272E0,7.736254930E-1
4.210348957E0,-1.245124221E0,2.040054321E0,7.789516449E-1
4.212839998E0,-1.263233185E0,2.034728289E0,7.864083052E-1
4.215331092E0,-1.269624591E0,2.011293173E0,7.927996516E-1
4.217822186E0,-1.281342149E0,1.982531786E0,8.023867607E-1
4.220284425E0,-1.290929317E0,1.943118215E0,8.077129126E-1
4.222775519E0,-1.299317956E0,1.895315886E0,8.077129126E-1
4.225266561E0,-1.311035514E0,1.842054248E0,8.023867607E-1
4.227757655E0,-1.314231277E0,1.773879290E0,7.853430510E-1
4.230248696E0,-1.321687818E0,1.680138826E0,7.672340870E-1
4.232739790E0,-1.325948834E0,1.584267855E0,7.469946742E-1
4.235230884E0,-1.323818326E0,1.488396883E0,7.161028981E-1
4.237721925E0,-1.319557428E0,1.388264894E0,6.734935641E-1
4.240213019E0,-1.313166022E0,1.287200928E0,6.276885867E-1
4.242704061E0,-1.300383210E0,1.178547144E0,5.722964406E-1
4.245195155E0,-1.276015997E0,1.057110667E0,5.085155964E-1
4.247686248E0,-1.247254729E0,9.314131141E-1,4.467321038E-1
4.250148436E0,-1.215297699E0,8.035851717E-1,3.838833570E-1
4.252639530E0,-1.184405923E0,6.769555807E-1,3.199693561E-1
4.255130571E0,-1.150318503E0,5.544537902E-1,2.635120153E-1
4.257621665E0,-1.111970067E0,4.362129271E-1,2.113156021E-1
4.260112707E0,-1.080013156E0,3.211677670E-1,1.644453406E-1
4.262603800E0,-1.044860482E0,2.252967805E-1,1.239664927E-1
4.265094894E0,-1.009707808E0,1.379476786E-1,8.561810106E-2
4.267585936E0,-9.713593721E-1,5.712312087E-2,5.472634733E-2
4.270077030E0,-9.298152924E-1,-7.856093347E-3,3.235645220E-2
4.272568071E0,-8.957278132E-1,-6.324820966E-2,1.318225823E-2
4.275059165E0,-8.659012914E-1,-1.090532318E-1,-2.796236658E-3
4.277550259E0,-8.286181092E-1,-1.346188188E-1,-1.025286783E-2
4.280012498E0,-7.881392837E-1,-1.420754492E-1,-1.770949923E-2
4.282503592E0,-7.508561015E-1,-1.356840581E-1,-2.303566411E-2
4.284994634E0,-7.103772759E-1,-1.165098622E-1,-2.303566411E-2
4.287485727E0,-6.721620560E-1,-8.242240548E-2,-1.983996481E-2
4.289976769E0,-6.327484250E-1,-3.981308267E-2,-1.451379992E-2
4.292467863E0,-5.997262001E-1,1.731003635E-3,-7.057168987E-3
4.294958957E0,-5.709648728E-1,4.647079110E-2,4.660394508E-3
4.297449998E0,-5.507254601E-1,9.227581322E-2,2.170412242E-2
4.299941092E0,-5.294207931E-1,1.400781423E-1,4.300878197E-2
4.302432134E0,-5.113118291E-1,1.912093312E-1,6.857437640E-2
4.304923227E0,-4.995943010E-1,2.434057444E-1,8.987903595E-2
4.307414321E0,-4.910724163E-1,2.934716940E-1,1.133141592E-1
4.309876561E0,-4.804200828E-1,3.456681073E-1,1.367492825E-1
4.312367134E0,-4.761591554E-1,3.989297748E-1,1.548582464E-1
4.314857759E0,-4.740287066E-1,4.479304850E-1,1.697715074E-1
4.317348332E0,-4.729634523E-1,4.948007464E-1,1.793586165E-1
4.319838905E0,-4.729634523E-1,5.384752750E-1,1.900109351E-1
4.322329530E0,-4.772244096E-1,5.757584572E-1,1.953371018E-1
4.324820102E0,-4.804200828E-1,6.034545302E-1,1.942718774E-1
4.327310675E0,-4.868114889E-1,6.247591972E-1,1.942718774E-1
4.329801300E0,-4.974638224E-1,6.364767551E-1,1.878804713E-1
4.332291873E0,-5.102466345E-1,6.407376528E-1,1.836195439E-1
4.334782498E0,-5.251598954E-1,6.396724582E-1,1.750976741E-1
4.337273071E0,-5.390079021E-1,6.418029070E-1,1.655105799E-1
4.339740571E0,-5.549864173E-1,6.407376528E-1,1.569887102E-1
4.342231144E0,-5.752258301E-1,6.386072040E-1,1.484668553E-1
4.344721769E0,-5.975957513E-1,6.364767551E-1,1.356840581E-1
4.347212342E0,-6.220960617E-1,6.364767551E-1,1.229012609E-1
4.349702915E0,-6.465964317E-1,6.322157979E-1,1.143793985E-1
4.352193540E0,-6.700315475E-1,6.332810521E-1,9.946613014E-2
4.354684113E0,-6.975944638E-1,6.386072040E-1,8.881380409E-2
4.357174686E0,-7.306166887E-1,6.418029070E-1,7.816147059E-2
4.359665311E0,-7.604432106E-1,6.492595077E-1,7.177007198E-2
4.362155884E0,-7.924002409E-1,6.588466167E-1,6.857437640E-2
4.364646509E0,-8.232919574E-1,6.663032770E-1,6.218297780E-2
4.367137082E0,-8.520532846E-1,6.790860295E-1,6.431344151E-2
4.369604634E0,-8.776188493E-1,6.886731386E-1,6.750914454E-2
4.372095207E0,-9.074453712E-1,6.982602477E-1,6.750914454E-2
4.374585832E0,-9.351414442E-1,7.089125514E-1,7.496577501E-2
4.377076405E0,-9.639027119E-1,7.131735086E-1,8.029194176E-2
4.379566977E0,-9.894683361E-1,7.173013091E-1,8.668334037E-2
4.382057602E0,-1.013968706E0,7.215622067E-1,9.520520270E-2
4.384548175E0,-1.038469076E0,7.226274610E-1,1.026618332E-1
4.387038748E0,-1.062969446E0,7.236927152E-1,1.165098622E-1
4.389529373E0,-1.085339308E0,7.183665037E-1,1.229012609E-1
4.392019946E0,-1.103448272E0,7.121082544E-1,1.346188188E-1
4.394510571E0,-1.120491982E0,7.046516538E-1,1.474016160E-1
4.397001144E0,-1.131144285E0,6.982602477E-1,1.559234858E-1
4.399468644E0,-1.134340048E0,6.886731386E-1,1.676410437E-1
4.401959217E0,-1.134340048E0,6.758903265E-1,1.740324497E-1
4.404449842E0,-1.129013896E0,6.631075740E-1,1.772281379E-1
4.406940415E0,-1.121557236E0,6.449986100E-1,1.793586165E-1
4.409430988E0,-1.106643915E0,6.258243918E-1,1.782933772E-1
4.411921613E0,-1.093861103E0,6.045197248E-1,1.804238409E-1
4.414412186E0,-1.073621750E0,5.800193548E-1,1.814890802E-1
4.416902759E0,-1.051251888E0,5.619103909E-1,1.825543046E-1
4.419393384E0,-1.027816772E0,5.427362323E-1,1.825543046E-1
4.421883957E0,-1.001185894E0,5.235620141E-1,1.814890802E-1
4.424374582E0,-9.745550752E-1,5.054530501E-1,1.836195439E-1
4.426865155E0,-9.468590021E-1,4.830831885E-1,1.804238409E-1
4.429332707E0,-9.223586321E-1,4.521914124E-1,1.793586165E-1
4.431823280E0,-8.957278132E-1,4.202344418E-1,1.804238409E-1
4.434313905E0,-8.712274432E-1,3.850817382E-1,1.804238409E-1
4.436804477E0,-8.424661756E-1,3.424724042E-1,1.782933772E-1
4.439295050E0,-8.147701025E-1,2.977326214E-1,1.782933772E-1
4.441785675E0,-7.913349867E-1,2.466014475E-1,1.804238409E-1
4.444276248E0,-7.647041678E-1,1.858831644E-1,1.857500076E-1
4.446766821E0,-7.412690520E-1,1.187734827E-1,1.932066381E-1
4.449257446E0,-7.231600881E-1,4.007939249E-2,1.995980442E-1
4.451748019E0,-7.050511241E-1,-4.300878197E-2,2.049241960E-1
4.454238644E0,-6.858769059E-1,-1.271621883E-1,2.155765295E-1
4.456729217E0,-6.710968018E-1,-2.123808414E-1,2.251636237E-1
4.459196717E0,-6.561835408E-1,-2.975994647E-1,2.304897904E-1
4.461687290E0,-6.444659829E-1,-3.828181326E-1,2.379464209E-1
4.464177915E0,-6.327484250E-1,-4.691019952E-1,2.464682907E-1
4.466668488E0,-6.263570189E-1,-5.541874766E-1,2.571206093E-1
4.469159061E0,-6.295527220E-1,-6.340799332E-1,2.645772398E-1
4.471649686E0,-6.295527220E-1,-7.150376439E-1,2.603163123E-1
4.474140259E0,-6.348788738E-1,-7.864083052E-1,2.464682907E-1
4.476630832E0,-6.497921348E-1,-8.439308405E-1,2.347507328E-1
4.479121457E0,-6.636402011E-1,-8.971925378E-1,2.219679356E-1
4.481612030E0,-6.785534620E-1,-9.493889213E-1,2.113156021E-1
4.484102655E0,-6.975944638E-1,-9.909330010E-1,2.059894353E-1
4.486593227E0,-7.199643850E-1,-1.027150989E0,1.995980442E-1
4.489060780E0,-7.402037978E-1,-1.054847002E0,1.974675655E-1
4.491551352E0,-7.636389136E-1,-1.070825458E0,1.921414137E-1
4.494041977E0,-7.892045379E-1,-1.086804032E0,1.964023411E-1
4.496532550E0,-8.158353567E-1,-1.088934422E0,1.995980442E-1
4.499023123E0,-8.445966244E-1,-1.086804032E0,2.070546746E-1
4.501513748E0,-8.744231462E-1,-1.082543015E0,2.187722325E-1
4.504004321E0,-9.106410742E-1,-1.075086474E0,2.347507328E-1
4.506494894E0,-9.468590021E-1,-1.063368917E0,2.539249361E-1
4.508985519E0,-9.873378873E-1,-1.054847002E0,2.699034214E-1
4.511476092E0,-1.034208059E0,-1.046325088E0,2.901428342E-1
4.513966717E0,-1.082143545E0,-1.032477140E0,3.061213493E-1
4.516457290E0,-1.132209539E0,-1.017563820E0,3.210346103E-1
4.518924790E0,-1.182275534E0,-1.000520110E0,3.380783200E-1
4.521415363E0,-1.233406663E0,-9.856068492E-1,3.497959077E-1
4.523905988E0,-1.279211760E0,-9.781502485E-1,3.615134656E-1
4.526396561E0,-1.320622683E0,-9.674978852E-1,3.785571754E-1
4.528887134E0,-1.357905746E0,-9.643021822E-1,3.987966180E-1
4.531377759E0,-1.393058538E0,-9.632369876E-1,4.211665094E-1
4.533868332E0,-1.421819806E0,-9.621717334E-1,4.339492917E-1
4.536358905E0,-1.442059159E0,-9.600412846E-1,4.424711764E-1
4.538849530E0,-1.460168123E0,-9.589760303E-1,4.520582557E-1
4.541340102E0,-1.472950935E0,-9.568455815E-1,4.627105892E-1
4.543830727E0,-1.481472850E0,-9.579107761E-1,4.797543287E-1
4.546321300E0,-1.492125154E0,-9.664326906E-1,4.978632927E-1
4.548788800E0,-1.492125154E0,-9.824111462E-1,5.202331543E-1
4.551279373E0,-1.492125154E0,-1.006911516E0,5.404726267E-1
4.553769998E0,-1.486799002E0,-1.035672784E0,5.648398399E-1
4.556260571E0,-1.477211952E0,-1.070825458E0,5.914706588E-1
4.558751144E0,-1.466559529E0,-1.115432143E0,6.212971807E-1
4.561241769E0,-1.451646328E0,-1.163367629E0,6.532541513E-1
4.563732342E0,-1.431406856E0,-1.218759775E0,6.905373335E-1
4.566222915E0,-1.413297892E0,-1.281608462E0,7.288857102E-1
4.568713540E0,-1.397319436E0,-1.350848675E0,7.672340870E-1
4.571204113E0,-1.374949574E0,-1.426480174E0,8.109086156E-1
4.573694738E0,-1.351514339E0,-1.504242182E0,8.599093556E-1
4.576185311E0,-1.332340240E0,-1.582004189E0,9.067795873E-1
4.578652863E0,-1.313166022E0,-1.655505300E0,9.579107761E-1
4.581143436E0,-1.286668301E0,-1.725677490E0,1.011172414E0
4.583634061E0,-1.260037541E0,-1.793852448E0,1.060173154E0
4.586124634E0,-1.237667561E0,-1.852440238E0,1.116630554E0
4.588615207E0,-1.209971547E0,-1.904636621E0,1.171889424E0
4.591105832E0,-1.180145025E0,-1.949376464E0,1.225151181E0
4.593596405E0,-1.151383758E0,-1.984529138E0,1.283738971E0
4.596086977E0,-1.121557236E0,-2.015420914E0,1.355109572E0
4.598577602E0,-1.089600205E0,-2.038856030E0,1.414762616E0
4.601068175E0,-1.054447532E0,-2.054834604E0,1.456306696E0
4.603558800E0,-1.015033960E0,-2.066552162E0,1.496785522E0
4.606049373E0,-9.798812270E-1,-2.072943449E0,1.540460110E0
4.608516873E0,-9.447285533E-1,-2.080399990E0,1.586265087E0
4.611007446E0,-9.042496681E-1,-2.095313311E0,1.629939675E0
4.613498071E0,-8.659012914E-1,-2.109161377E0,1.675744653E0
4.615988644E0,-8.286181092E-1,-2.125139952E0,1.723680139E0
4.618479217E0,-7.881392837E-1,-2.143248796E0,1.774811387E0
4.620969842E0,-7.497909069E-1,-2.161357880E0,1.826874614E0
4.623460415E0,-7.103772759E-1,-2.180531979E0,1.882266760E0
4.625950988E0,-6.732272506E-1,-2.196510553E0,1.934463143E0
4.628441613E0,-6.348788738E-1,-2.210358620E0,1.987724781E0
4.630932186E0,-5.944000483E-1,-2.224206448E0,2.043117046E0
4.633422811E0,-5.485950112E-1,-2.244446039E0,2.115552902E0
4.635913384E0,-5.070509315E-1,-2.259359360E0,2.176270962E0
4.638380936E0,-4.580501914E-1,-2.264685392E0,2.221010923E0
4.640871509E0,-4.090494812E-1,-2.268946409E0,2.266815901E0
4.643362134E0,-3.653749228E-1,-2.273207188E0,2.308359861E0
4.645852707E0,-3.174394369E-1,-2.277468204E0,2.352034569E0
4.648343280E0,-2.684387267E-1,-2.285990000E0,2.389184475E0
4.650833905E0,-2.205032408E-1,-2.291316271E0,2.419011116E0
4.653324477E0,-1.715025157E-1,-2.288120508E0,2.442446232E0
4.655815050E0,-1.193061024E-1,-2.285990000E0,2.454163790E0
4.658305675E0,-6.724283099E-2,-2.277468204E0,2.461620331E0
4.660796248E0,-1.611164957E-2,-2.266815901E0,2.460555077E0
4.663286873E0,3.928046674E-2,-2.250837326E0,2.457359314E0
4.665777446E0,9.360735118E-2,-2.232728481E0,2.452033281E0
4.668244946E0,1.447385401E-1,-2.212488890E0,2.447772264E0
4.670735519E0,1.958697289E-1,-2.183727741E0,2.446707010E0
4.673226144E0,2.448704392E-1,-2.147509813E0,2.443511486E0
4.675716717E0,2.928059399E-1,-2.099574327E0,2.441380978E0
4.678207290E0,3.386109471E-1,-2.042051792E0,2.436054707E0
4.680697915E0,3.780245781E-1,-1.970681071E0,2.431793928E0
4.683188488E0,4.153077304E-1,-1.881201506E0,2.426467657E0
4.685679061E0,4.461994767E-1,-1.782134891E0,2.416880608E0
4.688169686E0,4.675041437E-1,-1.683201313E0,2.408358812E0
4.690660259E0,4.813521802E-1,-1.577743292E0,2.394510746E0
4.693150884E0,4.856131077E-1,-1.465893745E0,2.378665447E0
4.695641457E0,4.792217016E-1,-1.349783421E0,2.368012905E0
4.698109009E0,4.706998467E-1,-1.236868739E0,2.354165077E0
4.700599582E0,4.557865858E-1,-1.122888803E0,2.343512535E0
4.703090207E0,4.387428463E-1,-1.012237668E0,2.333925486E0
4.705580780E0,4.142425060E-1,-9.067795873E-1,2.321142673E0
4.708071352E0,3.961335421E-1,-8.055824637E-1,2.306229591E0
4.710561977E0,3.758940995E-1,-7.097114921E-1,2.292381525E0
4.713052550E0,3.556546867E-1,-6.223623753E-1,2.275337696E0
4.715543123E0,3.354152441E-1,-5.499265194E-1,2.259359360E0
4.718033748E0,3.194367588E-1,-4.850804806E-1,2.242315531E0
4.720524321E0,3.055887222E-1,-4.392754734E-1,2.224206448E0
4.723014946E0,2.896102369E-1,-4.105141759E-1,2.208228111E0
4.725505519E0,2.704360485E-1,-3.945356905E-1,2.196510553E0
4.727973019E0,2.555227578E-1,-3.892095089E-1,2.181597233E0
4.730463592E0,2.406095117E-1,-3.945356905E-1,2.168814421E0
4.732954217E0,2.256962508E-1,-4.105141759E-1,2.152835846E0
4.735444790E0,2.107829899E-1,-4.382102489E-1,2.142183542E0
4.737935363E0,1.926740259E-1,-4.754934013E-1,2.123009443E0
4.740425988E0,1.798912287E-1,-5.137086511E-1,2.105965614E0
4.742916561E0,1.617822647E-1,-5.648398399E-1,2.093182802E0
4.745407134E0,1.415428370E-1,-6.181014776E-1,2.076139212E0
4.747897759E0,1.213034093E-1,-6.734935641E-1,2.064421654E0
4.750388332E0,1.010639817E-1,-7.288857102E-1,2.059095383E0
4.752878957E0,7.443315536E-2,-7.800168991E-1,2.049508333E0
4.755369530E0,4.354140162E-2,-8.236914277E-1,2.044182062E0
4.757837082E0,1.158440951E-2,-8.567136526E-1,2.036725521E0
4.760327655E0,-2.037258074E-2,-8.876054287E-1,2.031399488E0
4.762818280E0,-5.659050494E-2,-9.121057987E-1,2.027138472E0
4.765308852E0,-9.374050796E-2,-9.248885512E-1,2.020746946E0
4.767799425E0,-1.278279573E-1,-9.344756603E-1,2.014355659E0
4.770290050E0,-1.619154215E-1,-9.355409145E-1,2.007964134E0
4.772780623E0,-1.960028708E-1,-9.280842543E-1,1.993050933E0
4.775271196E0,-2.236989290E-1,-9.067795873E-1,1.981333375E0
4.777761821E0,-2.524602413E-1,-8.801487684E-1,1.968550682E0
4.780252394E0,-2.748301327E-1,-8.513875008E-1,1.950441718E0
4.782743019E0,-2.940043211E-1,-8.236914277E-1,1.948311210E0
4.785233592E0,-3.110480309E-1,-7.917344570E-1,1.948311210E0
4.787701092E0,-3.185046613E-1,-7.512555718E-1,1.923810840E0
4.790191665E0,-3.185046613E-1,-7.043853402E-1,1.889723420E0
4.792682290E0,-3.153089881E-1,-6.457974911E-1,1.854570746E0
4.795172863E0,-3.153089881E-1,-5.925358534E-1,1.809830904E0
4.797663436E0,-3.035914004E-1,-5.403394699E-1,1.768419981E0
4.800154061E0,-2.854824364E-1,-4.936023653E-1,1.730071545E0
4.802644634E0,-2.631125450E-1,-4.499278069E-1,1.691723228E0
4.805135207E0,-2.375469655E-1,-4.083836973E-1,1.659766197E0
4.807625832E0,-2.045247406E-1,-3.711005449E-1,1.624613523E0
4.810116405E0,-1.693720520E-1,-3.370130956E-1,1.583069444E0
4.812607030E0,-1.288931966E-1,-3.039908707E-1,1.535133958E0
4.815097602E0,-9.161003679E-2,-2.688381970E-1,1.488263726E0
4.817565207E0,-4.274247587E-2,-2.390116602E-1,1.441393495E0
4.820055415E0,3.062544856E-3,-2.187722325E-1,1.398784161E0
4.822545623E0,5.099803209E-2,-2.027937323E-1,1.361500978E0
4.825035832E0,1.010639817E-1,-1.942718774E-1,1.323152542E0
4.827526040E0,1.468690038E-1,-1.942718774E-1,1.287999868E0
4.830016248E0,1.958697289E-1,-1.964023411E-1,1.256042838E0
4.832506457E0,2.416747361E-1,-2.006632686E-1,1.224085927E0
4.834996665E0,2.864145339E-1,-2.091851383E-1,1.191063643E0
4.837486821E0,3.247629106E-1,-2.155765295E-1,1.163500786E0
4.839977030E0,3.652417660E-1,-2.187722325E-1,1.134739518E0
4.842467238E0,3.993292153E-1,-2.198374718E-1,1.110239148E0
4.844957446E0,4.280905128E-1,-2.219679356E-1,1.088934422E0
4.847429269E0,4.483299553E-1,-2.187722325E-1,1.067629814E0
4.849919477E0,4.696346223E-1,-2.134460658E-1,1.058042645E0
4.852409686E0,4.792217016E-1,-2.145113051E-1,1.071890712E0
4.854899894E0,4.834826291E-1,-2.198374718E-1,1.075086474E0
4.857390102E0,4.994611442E-1,-2.102503628E-1,1.051651359E0
4.859880311E0,5.069177747E-1,-1.740324497E-1,1.018629074E0
4.862370519E0,5.015916228E-1,-1.282274276E-1,9.866721034E-1
4.864860727E0,4.941349626E-1,-8.881380409E-2,9.525846243E-1
4.867350884E0,4.813521802E-1,-5.366111174E-2,9.216928482E-1
4.869841092E0,4.611127377E-1,-1.744319126E-2,8.971925378E-1
4.872331300E0,4.398080707E-1,1.344856713E-2,8.705616593E-1
4.874821509E0,4.174381793E-1,4.434032366E-2,8.481917977E-1
4.877293280E0,3.940030634E-1,7.523208112E-2,8.204957247E-1
4.879783488E0,3.684374690E-1,1.007976755E-1,7.938649058E-1
4.882273696E0,3.460675776E-1,1.251648813E-1,7.651036382E-1
4.884763905E0,3.226324618E-1,1.443390697E-1,7.363423109E-1
4.887254113E0,2.970668674E-1,1.581871063E-1,7.107767463E-1
4.889744321E0,2.800231278E-1,1.720351279E-1,6.894720793E-1
4.892234530E0,2.587184608E-1,1.816222370E-1,6.681674123E-1
4.894724738E0,2.406095117E-1,1.858831644E-1,6.468627453E-1
4.897214894E0,2.235657871E-1,1.858831644E-1,6.244928837E-1
4.899705102E0,2.065220475E-1,1.848179251E-1,6.042534113E-1
4.902195311E0,1.948044896E-1,1.762960702E-1,5.882749557E-1
4.904685519E0,1.884130985E-1,1.656437367E-1,5.754921436E-1
4.907157342E0,1.798912287E-1,1.517957002E-1,5.596467853E-1
4.909647550E0,1.713693589E-1,1.283605844E-1,5.479292274E-1
4.912137759E0,1.639127284E-1,1.039933711E-1,5.372769237E-1
4.914627967E0,1.607170254E-1,7.736254483E-2,5.255593657E-1
4.917118175E0,1.553908736E-1,4.753602296E-2,5.191679597E-1
4.919608384E0,1.521951705E-1,1.664426550E-2,5.063851476E-1
4.922098592E0,1.458037645E-1,-1.531272475E-2,4.989285171E-1
4.924588800E0,1.447385401E-1,-4.513924941E-2,4.893414080E-1
4.927078957E0,1.383471340E-1,-7.283531129E-2,4.765586257E-1
4.929569165E0,1.308905035E-1,-1.005313694E-1,4.637758136E-1
4.932059373E0,1.276948154E-1,-1.271621883E-1,4.520582557E-1
4.934549582E0,1.234338731E-1,-1.527277827E-1,4.382102489E-1
4.937021352E0,1.202381775E-1,-1.793586165E-1,4.232969582E-1
4.939511561E0,1.191729456E-1,-2.038589716E-1,4.062532485E-1
4.942001769E0,1.159772426E-1,-2.219679356E-1,3.870790601E-1
4.944491977E0,1.127815470E-1,-2.400768995E-1,3.679048419E-1
4.946982186E0,1.106510833E-1,-2.528596818E-1,3.497959077E-1
4.949472394E0,1.085206121E-1,-2.539249361E-1,3.274259865E-1
4.951962602E0,1.085206121E-1,-2.517944574E-1,3.050560951E-1
4.954452811E0,1.085206121E-1,-2.432725877E-1,2.869471312E-1
4.956942967E0,1.053249165E-1,-2.283593267E-1,2.592510879E-1
4.959433175E0,1.085206121E-1,-2.049241960E-1,2.379464209E-1
4.961923384E0,1.149120107E-1,-1.750976741E-1,2.177069932E-1
4.964413592E0,1.170424819E-1,-1.474016160E-1,1.974675655E-1
4.966885363E0,1.213034093E-1,-1.165098622E-1,1.793586165E-1
4.969375571E0,1.308905035E-1,-8.455286920E-2,1.591191888E-1
4.971865780E0,1.383471340E-1,-5.153064802E-2,1.452711523E-1
4.974355988E0,1.458037645E-1,-2.276935615E-2,1.346188188E-1
4.976846196E0,1.532603949E-1,9.187635034E-3,1.260969639E-1
4.979336405E0,1.628475040E-1,4.114462435E-2,1.175750941E-1
4.981826613E0,1.724345982E-1,7.523208112E-2,1.143793985E-1
4.984316821E0,1.830869317E-1,1.081211492E-1,1.101184636E-1
4.986806977E0,1.937392503E-1,1.475347728E-1,1.069227681E-1
4.989297186E0,2.065220475E-1,1.869483888E-1,1.005313694E-1
4.991787394E0,2.203700840E-1,2.274272442E-1,1.015966013E-1
4.994277602E0,2.352833450E-1,2.700365782E-1,9.840089828E-2
4.996749425E0,2.501966059E-1,3.147763610E-1,9.733566642E-2
4.999239634E0,2.565880120E-1,3.701684773E-1,9.840089828E-2
5.001729842E0,2.544575334E-1,4.479304850E-1,1.079879999E-1
5.004220050E0,2.448704392E-1,5.267577171E-1,1.260969639E-1
5.006710259E0,2.320876420E-1,6.013240218E-1,1.697715074E-1
5.009200467E0,2.182396203E-1,6.673684716E-1,2.081198990E-1
5.011690675E0,2.193048447E-1,7.492582798E-1,2.145113051E-1
5.014180884E0,2.235657871E-1,8.398030996E-1,2.145113051E-1
5.016671040E0,2.256962508E-1,9.228912592E-1,2.251636237E-1
5.019161248E0,2.331528813E-1,9.804138541E-1,2.443378270E-1
5.021651457E0,2.406095117E-1,1.015566587E0,2.624467909E-1
5.024141665E0,2.427399755E-1,1.036871195E0,2.730991244E-1
5.026613436E0,2.448704392E-1,1.048588753E0,2.794905007E-1
5.029103644E0,2.480661422E-1,1.047523499E0,2.837514579E-1
5.031593852E0,2.523270845E-1,1.035805941E0,2.858819067E-1
5.034084061E0,2.544575334E-1,1.014501333E0,2.912080884E-1
5.036574269E0,2.501966059E-1,9.878704548E-1,2.912080884E-1
5.039064477E0,2.448704392E-1,9.548482299E-1,2.912080884E-1
5.041554686E0,2.416747361E-1,9.239565134E-1,2.858819067E-1
5.044044894E0,2.384790480E-1,8.919994831E-1,2.794905007E-1
5.046535050E0,2.331528813E-1,8.643034697E-1,2.773600519E-1
5.049025259E0,2.299571782E-1,8.355421424E-1,2.762948275E-1
5.051515467E0,2.267614752E-1,8.163679838E-1,2.720338702E-1
5.054005675E0,2.203700840E-1,8.003894687E-1,2.613815665E-1
5.056477498E0,2.161091566E-1,7.908023596E-1,2.549901605E-1
5.058967707E0,2.065220475E-1,7.812152505E-1,2.571206093E-1
5.061457915E0,1.937392503E-1,7.769543529E-1,2.656424940E-1
5.063948123E0,1.756303012E-1,7.812152505E-1,2.720338702E-1
5.066438332E0,1.468690038E-1,7.897371054E-1,2.762948275E-1
5.068928540E0,1.106510833E-1,8.025199175E-1,2.805557549E-1
5.071418748E0,6.910699606E-2,8.131722808E-1,2.848166823E-1
5.073908957E0,2.543243766E-2,8.110417724E-1,2.965342402E-1
5.076399113E0,-1.930734888E-2,8.121070266E-1,3.220998347E-1
5.078889321E0,-6.298190355E-2,8.163679838E-1,3.455349505E-1
