"Time (s)","Gyroscope x (rad/s)","Gyroscope y (rad/s)","Gyroscope z (rad/s)"
4.033020200E-2,0.000000000E0,0.000000000E0,0.000000000E0
4.960754600E-2,0.000000000E0,0.000000000E0,0.000000000E0
5.964782900E-2,0.000000000E0,0.000000000E0,0.000000000E0
6.974914800E-2,0.000000000E0,0.000000000E0,0.000000000E0
7.981994800E-2,0.000000000E0,0.000000000E0,0.000000000E0
8.986023200E-2,0.000000000E0,0.000000000E0,0.000000000E0
9.993103200E-2,0.000000000E0,0.000000000E0,0.000000000E0
1.100018330E-1,0.000000000E0,0.000000000E0,0.000000000E0
1.200726340E-1,0.000000000E0,0.000000000E0,0.000000000E0
1.301129170E-1,0.000000000E0,0.000000000E0,0.000000000E0
1.401226830E-1,-4.132080078E-2,3.988494873E-1,6.386871338E-1
1.502850360E-1,-9.051513672E-2,3.169555664E-1,5.723571777E-1
1.603558370E-1,-1.623077393E-1,2.027893066E-1,5.125274658E-1
1.704266380E-1,-2.428588867E-1,1.181640625E-1,4.760742188E-1
1.804974390E-1,-3.081207275E-1,8.700561523E-2,4.465637207E-1
1.905682390E-1,-3.411560059E-1,4.554748535E-2,4.403228760E-1
2.006390400E-1,-3.237915039E-1,-9.739685059E-2,4.316558838E-1
2.107098410E-1,-3.006286621E-1,-3.001403809E-1,4.111785889E-1
2.207806420E-1,-3.315887451E-1,-4.405212402E-1,3.770904541E-1
2.308514420E-1,-3.993225098E-1,-3.900909424E-1,3.612823486E-1
2.409222430E-1,-4.556732178E-1,-2.874603271E-1,3.317108154E-1
2.509930440E-1,-5.068664551E-1,-2.026214600E-1,2.914428711E-1
2.610638450E-1,-5.727996826E-1,-5.513000488E-2,2.873077393E-1
2.714093040E-1,-6.320648193E-1,9.854125977E-2,3.168334961E-1
2.811138940E-1,-6.665039062E-1,1.946868896E-1,3.751678467E-1
2.912762470E-1,-6.712341309E-1,2.799987793E-1,4.756927490E-1
3.013470480E-1,-7.080535889E-1,4.378509521E-1,5.798645020E-1
3.114178490E-1,-8.249511719E-1,3.961944580E-1,4.710998535E-1
3.214886500E-1,-9.510650635E-1,1.651458740E-1,2.426452637E-1
3.315594500E-1,-1.032287598E0,-6.593322754E-2,6.755065918E-2
3.416302510E-1,-1.013031006E0,-4.944610596E-1,-9.960937500E-2
3.517010520E-1,-9.752960205E-1,-9.114532471E-1,-2.256469727E-1
3.618023700E-1,-9.947204590E-1,-9.465026855E-1,-2.156982422E-1
3.719342060E-1,-1.091857910E0,-7.969665527E-1,-2.382812500E-1
3.821270770E-1,-1.150344849E0,-6.528778076E-1,-2.051544189E-1
3.924115010E-1,-1.157440186E0,-3.675231934E-1,-2.897644043E-2
4.026043720E-1,-1.150238037E0,-6.623840332E-2,1.702270508E-1
4.127972430E-1,-1.129684448E0,1.200256348E-1,3.236083984E-1
4.230206320E-1,-1.097122192E0,1.385192871E-1,4.173126221E-1
4.330914330E-1,-1.105865479E0,3.986968994E-1,5.592346191E-1
4.432232690E-1,-1.150833130E0,7.884368896E-1,7.301940918E-1
4.524090600E-1,-1.200149536E0,1.121078491E0,8.389892578E-1
4.624798600E-1,-1.235229492E0,1.321243286E0,8.423004150E-1
4.725506610E-1,-1.213882446E0,1.232009888E0,7.414245605E-1
4.826214620E-1,-1.213562012E0,1.170349121E0,6.918029785E-1
4.927227800E-1,-1.245254517E0,1.100692749E0,6.624603271E-1
5.027935810E-1,-1.272384644E0,8.160705566E-1,4.744262695E-1
5.128338640E-1,-1.316177368E0,4.080047607E-1,1.541442871E-1
5.229046650E-1,-1.380889893E0,-1.020812988E-2,-2.282562256E-1
5.329754660E-1,-1.401687622E0,-5.298614502E-1,-7.099761963E-1
5.430462670E-1,-1.353195190E0,-6.405487061E-1,-8.273925781E-1
5.531475850E-1,-1.168365479E0,-5.166473389E-1,-4.445953369E-1
5.632183860E-1,-9.532928467E-1,-3.350372314E-1,7.708740234E-2
5.732891870E-1,-8.201446533E-1,-1.361389160E-1,4.816284180E-1
5.833599870E-1,-7.625274658E-1,6.967163086E-2,7.643127441E-1
5.934002710E-1,-7.470550537E-1,2.389678955E-1,8.681182861E-1
6.034710710E-1,-7.486114502E-1,2.704772949E-1,7.770385742E-1
6.135418720E-1,-7.629089355E-1,1.498565674E-1,4.935150146E-1
6.236126730E-1,-7.747955322E-1,-6.866455078E-2,9.175109863E-2
6.337139910E-1,-9.398193359E-1,-7.414398193E-1,-1.349380493E0
6.437847920E-1,-9.313659668E-1,-1.569763184E0,-2.772125244E0
6.538250750E-1,-8.939819336E-1,-1.738845825E0,-3.244796753E0
6.638958760E-1,-8.685760498E-1,-1.524505615E0,-3.123214722E0
6.743328880E-1,-1.001632690E0,-1.426284790E0,-3.383468628E0
6.840679950E-1,-1.326705933E0,-1.523345947E0,-4.415695190E0
6.941082780E-1,-1.494186401E0,-1.448547363E0,-4.754608154E0
7.041790790E-1,-1.417190552E0,-1.149993896E0,-4.142196655E0
7.142498800E-1,-1.494018555E0,-8.701171875E-1,-3.740402222E0
7.243206810E-1,-1.694000244E0,-6.640319824E-1,-3.742752075E0
7.343914820E-1,-1.897720337E0,-3.759002686E-1,-3.559768677E0
7.444622820E-1,-2.014968872E0,-9.445190430E-3,-3.038253784E0
7.545636010E-1,-2.039566040E0,4.366302490E-1,-2.233108521E0
7.646649190E-1,-2.265808105E0,1.239166260E0,-8.595275879E-1
7.748577900E-1,-2.774765015E0,2.251129150E0,6.705169678E-1
7.850506610E-1,-2.729064941E0,2.447341919E0,1.048126221E0
7.952130150E-1,-2.350326538E0,2.182067871E0,8.569030762E-1
8.054669210E-1,-2.280227661E0,2.194717407E0,8.705139160E-1
8.156597920E-1,-2.869583130E0,2.862899780E0,1.487182617E0
8.258526630E-1,-3.007141113E0,3.129302979E0,2.014694214E0
8.358929460E-1,-2.876281738E0,3.078582764E0,2.286605835E0
8.459942650E-1,-2.731582642E0,3.061004639E0,2.548385620E0
8.552410910E-1,-2.627548218E0,3.094070435E0,2.914581299E0
8.653424090E-1,-2.392868042E0,2.936096191E0,2.975723267E0
8.754236370E-1,-2.319580078E0,2.861007690E0,3.106460571E0
8.854944380E-1,-2.276657104E0,2.766082764E0,3.157882690E0
8.955347210E-1,-2.151260376E0,2.529037476E0,3.098281860E0
9.056055220E-1,-1.970245361E0,2.175872803E0,2.970138550E0
9.156763230E-1,-1.709716797E0,1.706680298E0,2.642395020E0
9.257471230E-1,-1.526077271E0,1.401794434E0,2.404434204E0
9.358484420E-1,-1.406356812E0,1.130554199E0,2.243927002E0
9.459192430E-1,-1.334335327E0,9.364166260E-1,2.139663696E0
9.559900430E-1,-1.282333374E0,7.656250000E-1,1.991119385E0
9.660303270E-1,-1.185775757E0,5.957031250E-1,1.766418457E0
9.761316450E-1,-1.082290649E0,3.879852295E-1,1.446044922E0
9.861719280E-1,-9.623565674E-1,1.986083984E-1,9.823455811E-1
9.962427290E-1,-8.632812500E-1,7.174682617E-2,4.291381836E-1
1.006313530E0,-8.034820557E-1,7.629394531E-5,-9.365844727E-2
1.016384330E0,-7.488861084E-1,-1.835632324E-2,-5.003051758E-1
1.026455131E0,-7.451019287E-1,-2.819824219E-2,-7.270660400E-1
1.036556450E0,-7.262268066E-1,-1.531982422E-2,-8.405609131E-1
1.046596733E0,-7.112274170E-1,-5.845642090E-2,-8.812561035E-1
1.056667534E0,-6.539611816E-1,-1.113739014E-1,-9.434661865E-1
1.066738334E0,-5.821533203E-1,-1.557617188E-1,-1.011856079E0
1.077144828E0,-4.938201904E-1,-1.666717529E-1,-1.085586548E0
1.086879936E0,-4.235229492E-1,-1.257629395E-1,-1.184082031E0
1.096981254E0,-3.986053467E-1,-2.168273926E-2,-1.303710938E0
1.107052055E0,-4.648284912E-1,1.529693604E-1,-1.425292969E0
1.117122856E0,-5.579071045E-1,3.881072998E-1,-1.565704346E0
1.127193657E0,-6.081237793E-1,6.137390137E-1,-1.662597656E0
1.137233940E0,-6.406250000E-1,7.635192871E-1,-1.655929565E0
1.147304741E0,-6.534423828E-1,8.574523926E-1,-1.588607788E0
1.157375541E0,-6.768341064E-1,9.131927490E-1,-1.467102051E0
1.167476860E0,-7.371215820E-1,9.174041748E-1,-1.297683716E0
1.177700248E0,-7.579956055E-1,9.354095459E-1,-1.176940918E0
1.187893119E0,-7.506866455E-1,9.781799316E-1,-1.129501343E0
1.198085991E0,-7.363128662E-1,1.016143799E0,-1.118927002E0
1.208278862E0,-7.406768799E-1,9.908142090E-1,-1.114105225E0
1.218471733E0,-7.030944824E-1,9.952087402E-1,-1.156539917E0
1.228695121E0,-6.767120361E-1,1.016342163E0,-1.216873169E0
1.238735405E0,-6.510009766E-1,1.066696167E0,-1.344512939E0
1.248897758E0,-6.092834473E-1,1.107803345E0,-1.498870850E0
1.258114067E0,-5.312652588E-1,1.121520996E0,-1.642578125E0
1.268184868E0,-4.558410645E-1,1.094558716E0,-1.634979248E0
1.278225151E0,-4.717407227E-1,1.039230347E0,-1.462219238E0
1.288295952E0,-5.133819580E-1,1.018142700E0,-1.270431519E0
1.298366752E0,-5.832214355E-1,9.501495361E-1,-1.050033569E0
1.308437553E0,-6.474609375E-1,8.325042725E-1,-7.936248779E-1
1.318508354E0,-7.037963867E-1,6.496124268E-1,-5.349273682E-1
1.328609672E0,-7.182464600E-1,4.639739990E-1,-3.424682617E-1
1.338680473E0,-7.255096436E-1,3.301544189E-1,-2.082824707E-1
1.348720756E0,-7.872467041E-1,2.702331543E-1,-1.291809082E-1
1.358791557E0,-6.889190674E-1,3.838958740E-1,-3.300933838E-1
1.368862358E0,-2.557525635E-1,9.069671631E-1,-1.246093750E0
1.378933159E0,-4.949951172E-2,1.338256836E0,-1.817031860E0
1.389003959E0,1.083374023E-2,1.404434204E0,-1.866729736E0
1.399074760E0,3.788757324E-2,1.282913208E0,-1.693725586E0
1.409145561E0,9.017944336E-2,1.290481567E0,-1.690200806E0
1.419216362E0,4.141235352E-1,1.488952637E0,-2.003768921E0
1.429317680E0,1.030426025E0,1.423934937E0,-2.173217773E0
1.439388481E0,1.934310913E0,1.311660767E0,-2.314102173E0
1.449428764E0,2.542480469E0,1.266281128E0,-2.315078735E0
1.459499565E0,2.132766724E0,1.087783813E0,-1.895095825E0
1.469570366E0,1.508941650E0,5.751953125E-1,-1.194747925E0
1.479976860E0,5.757751465E-1,-2.776641846E-1,-2.006378174E-1
1.489711967E0,-1.597595215E0,-1.836288452E0,1.594757080E0
1.499782768E0,-3.236373901E0,-2.678619385E0,2.664093018E0
1.509853569E0,-3.489700317E0,-2.474960327E0,2.526138306E0
1.519924369E0,-3.260192871E0,-2.136260986E0,2.124420166E0
1.530025688E0,-3.072204590E0,-1.730316162E0,1.750915527E0
1.540096489E0,-2.909866333E0,-1.350387573E0,1.421417236E0
1.550167289E0,-2.487350464E0,-1.190765381E0,1.129318237E0
1.560207573E0,-1.048248291E0,-6.594848633E-2,-1.097259521E-1
1.570278373E0,3.562622070E-1,1.432739258E0,-1.452728271E0
1.580562797E0,4.650268555E-1,1.682464600E0,-1.604751587E0
1.590725151E0,1.936492920E-1,1.318511963E0,-1.300796509E0
1.600979057E0,-1.423797607E-1,8.403167725E-1,-9.356231689E-1
1.611141410E0,-6.633453369E-1,-6.118774414E-3,-3.661346436E-1
1.621334282E0,-1.332733154E0,-1.082199097E0,3.156738281E-1
1.631557670E0,-1.907180786E0,-1.899505615E0,8.392181396E-1
1.641597953E0,-2.254898071E0,-2.194290161E0,1.066284180E0
1.650875297E0,-2.334381104E0,-2.013916016E0,1.017974854E0
1.660915580E0,-2.582122803E0,-1.935455322E0,1.167602539E0
1.671016899E0,-3.474014282E0,-1.842514038E0,1.676635742E0
1.681087700E0,-4.318054199E0,-2.246704102E-1,1.600967407E0
1.691158500E0,-4.113906860E0,7.479705811E-1,1.199432373E0
1.701198784E0,-3.380142212E0,7.893066406E-1,8.651580811E-1
1.711300102E0,-2.839797974E0,7.370452881E-1,6.433410645E-1
1.721340385E0,-2.209381104E0,5.518951416E-1,4.064941406E-1
1.731411186E0,-1.559326172E0,1.984252930E-1,1.869964600E-1
1.741512504E0,-1.055313110E0,-1.974792480E-1,6.878662109E-2
1.751583305E0,-5.363922119E-1,-2.374572754E-1,-1.886444092E-1
1.761654106E0,4.013824463E-1,9.898376465E-2,-7.962341309E-1
1.771694389E0,7.820281982E-1,3.661193848E-1,-1.088333130E0
1.781765190E0,8.078918457E-1,6.499938965E-1,-1.195495605E0
1.791866508E0,5.242614746E-1,4.964141846E-1,-9.784240723E-1
1.801937309E0,-1.412048340E-1,2.368164062E-1,-5.387573242E-1
1.811977592E0,-8.851623535E-1,2.733764648E-1,-1.578216553E-1
1.822048393E0,-1.140548706E0,-1.040954590E-1,8.662414551E-2
1.832149711E0,-9.416656494E-1,-1.649932861E-1,2.973937988E-2
1.842220512E0,-8.620452881E-1,-3.388519287E-1,6.057739258E-2
1.852260795E0,-8.992767334E-1,-7.522125244E-1,2.408142090E-1
1.862331596E0,-8.900451660E-1,-1.163436890E0,4.008026123E-1
1.872432914E0,-7.599334717E-1,-1.151306152E0,3.565216064E-1
1.882839409E0,-5.549468994E-1,-8.997192383E-1,1.775512695E-1
1.892574516E0,-2.704162598E-1,-6.365814209E-1,-4.374694824E-2
1.902614799E0,-1.617889404E-1,-4.055786133E-1,-1.685485840E-1
1.912716118E0,-6.086730957E-2,1.313781738E-2,-3.344116211E-1
1.922756401E0,1.538085938E-2,2.901000977E-1,-4.541931152E-1
1.932827202E0,1.136322021E-1,4.553222656E-1,-5.423278809E-1
1.942928520E0,1.763763428E-1,5.393371582E-1,-5.793762207E-1
1.952999321E0,2.676544189E-1,7.147979736E-1,-6.335754395E-1
1.963070121E0,3.327178955E-1,1.025100708E0,-7.140045166E-1
1.973140922E0,3.996124268E-1,1.364929199E0,-7.994995117E-1
1.983333793E0,4.609069824E-1,1.723403931E0,-9.082489014E-1
1.993618217E0,5.460662842E-1,2.362030029E0,-1.149444580E0
2.003750053E0,5.405883789E-1,3.121276855E0,-1.394119263E0
2.013912407E0,4.776153564E-1,3.308471680E0,-1.407119751E0
2.024135795E0,5.279388428E-1,2.876388550E0,-1.205139160E0
2.034328666E0,7.004699707E-1,2.633850098E0,-1.126937866E0
2.044521537E0,8.674926758E-1,2.509521484E0,-1.059524536E0
2.054500785E0,9.085693359E-1,2.328567505E0,-9.800109863E-1
2.063778129E0,9.264831543E-1,2.255355835E0,-9.205474854E-1
2.073848930E0,8.581695557E-1,2.063583374E0,-8.546600342E-1
2.083889213E0,7.861785889E-1,1.883560181E0,-7.874298096E-1
2.093960014E0,7.712402344E-1,1.861450195E0,-7.929687500E-1
2.104061332E0,7.266693115E-1,2.068908691E0,-9.075317383E-1
2.114132133E0,4.953002930E-1,2.585678101E0,-1.159805298E0
2.124172416E0,5.044403076E-1,3.150146484E0,-1.450378418E0
2.134243217E0,5.094909668E-1,2.683929443E0,-1.245529175E0
2.144344535E0,4.643859863E-1,2.102935791E0,-9.850311279E-1
2.154415336E0,3.128356934E-1,1.385711670E0,-6.629638672E-1
2.164486137E0,1.633911133E-1,8.189849854E-1,-4.340209961E-1
2.174526420E0,1.050720215E-1,5.805511475E-1,-3.605499268E-1
2.184597221E0,1.036376953E-1,5.083312988E-1,-3.914794922E-1
2.194698539E0,1.940765381E-1,4.996185303E-1,-4.389801025E-1
2.204769340E0,3.813018799E-1,5.234527588E-1,-4.928588867E-1
2.214840141E0,5.532226562E-1,4.889831543E-1,-5.195465088E-1
2.224880424E0,6.772003174E-1,2.565460205E-1,-4.346771240E-1
2.234951225E0,7.924194336E-1,-9.780883789E-3,-3.272857666E-1
2.245052543E0,9.700317383E-1,-1.357574463E-1,-2.577056885E-1
2.255123344E0,1.200042725E0,-1.167907715E-1,-2.795410156E-1
2.265163627E0,1.214096069E0,-1.016998291E-1,-3.119812012E-1
2.275264946E0,1.044631958E0,-1.525573730E-1,-3.303833008E-1
2.285671440E0,8.280944824E-1,-3.188171387E-1,-3.460235596E-1
2.295406547E0,6.396331787E-1,-4.605560303E-1,-3.509521484E-1
2.305446830E0,3.993225098E-1,-7.085723877E-1,-3.093566895E-1
2.315548149E0,2.760467529E-1,-9.749145508E-1,-2.054443359E-1
2.325588432E0,2.254638672E-1,-1.318450928E0,-1.678466797E-2
2.335659233E0,1.762542725E-1,-1.667526245E0,1.899566650E-1
2.345760551E0,-4.380798340E-2,-2.616775513E0,8.225402832E-1
2.355831352E0,-3.743286133E-1,-4.298812866E0,1.941299438E0
2.365902153E0,-4.362640381E-1,-4.639419556E0,2.252227783E0
2.375942436E0,-3.668060303E-1,-3.717712402E0,1.736465454E0
2.386104789E0,-2.242736816E-1,-3.050109863E0,1.398864746E0
2.396297660E0,2.332153320E-1,-2.077407837E0,7.974243164E-1
2.406490532E0,4.999847412E-1,-1.287551880E0,3.285064697E-1
2.416713920E0,4.509735107E-1,-8.663940430E-1,1.413269043E-1
2.426876274E0,3.899383545E-1,-5.945129395E-1,5.116271973E-2
2.437099662E0,3.351593018E-1,-4.356536865E-1,9.231567383E-3
2.447292534E0,3.025817871E-1,-3.632659912E-1,1.510620117E-3
2.457332817E0,2.682342529E-1,-3.242950439E-1,3.479003906E-3
2.466610160E0,2.368774414E-1,-1.999511719E-1,-8.016967773E-2
2.476650444E0,2.147521973E-1,-1.125183105E-1,-1.286621094E-1
2.486751762E0,1.895141602E-1,-2.300872803E-1,-3.704833984E-2
2.496822563E0,1.062774658E-1,-6.262664795E-1,3.049163818E-1
2.506893364E0,-2.371826172E-1,-1.940719604E0,1.429382324E0
2.516933647E0,-6.960906982E-1,-2.646316528E0,2.151199341E0
2.527034965E0,-8.193664551E-1,-2.197814941E0,1.951202393E0
2.537105766E0,-8.894805908E-1,-1.922637939E0,1.840759277E0
2.547176567E0,-8.334045410E-1,-1.687225342E0,1.679626465E0
2.557216850E0,-4.957275391E-1,-9.280700684E-1,1.059631348E0
2.567287651E0,-7.673645020E-2,7.087249756E-1,-1.171417236E-1
2.577388969E0,7.919311523E-1,3.055801392E0,-2.005020142E0
2.587459770E0,1.406417847E0,3.759368896E0,-2.627136230E0
2.597530571E0,1.378219604E0,3.558853149E0,-2.322570801E0
2.607601371E0,1.135299683E0,2.976181030E0,-1.813247681E0
2.617641655E0,9.590606689E-1,2.619186401E0,-1.444244385E0
2.627742973E0,6.938629150E-1,2.064758301E0,-9.474945068E-1
2.637813774E0,4.725494385E-1,1.595916748E0,-5.511474609E-1
2.647884575E0,3.869018555E-1,1.283630371E0,-2.917327881E-1
2.657955375E0,3.580780029E-1,1.074630737E0,-1.083374023E-1
2.667995659E0,3.373107910E-1,9.152374268E-1,1.826477051E-2
2.678066459E0,3.151550293E-1,7.733154297E-1,1.664276123E-1
2.688503471E0,2.873992920E-1,6.434478760E-1,2.835235596E-1
2.698238578E0,2.665405273E-1,5.688476562E-1,3.787231445E-1
2.708309379E0,2.569885254E-1,5.481719971E-1,4.507904053E-1
2.718380180E0,2.472076416E-1,5.323791504E-1,5.142211914E-1
2.728420463E0,2.540893555E-1,5.552673340E-1,5.265197754E-1
2.738491264E0,3.385162354E-1,7.743835449E-1,3.548583984E-1
2.748592582E0,4.439392090E-1,1.027175903E0,1.093902588E-1
2.758663383E0,5.345611572E-1,1.199661255E0,-4.037475586E-2
2.768703666E0,7.948913574E-1,1.504882812E0,-3.013610840E-1
2.778774467E0,1.077011108E0,1.778549194E0,-5.397338867E-1
2.788936821E0,1.233566284E0,1.867996216E0,-6.033782959E-1
2.799129692E0,1.312957764E0,1.653610229E0,-4.683074951E-1
2.809322563E0,1.159347534E0,9.259490967E-1,6.486511230E-2
2.819515434E0,2.173461914E-1,-1.616165161E0,2.128097534E0
2.829708305E0,-1.002578735E0,-2.618392944E0,3.016845703E0
2.839931694E0,-1.096054077E0,-2.217575073E0,2.694320679E0
2.850124565E0,-7.428588867E-1,-1.444198608E0,2.050888062E0
2.860195366E0,-5.000457764E-1,-1.048690796E0,1.702804565E0
2.869411674E0,-3.263702393E-1,-8.940734863E-1,1.557983398E0
2.879512993E0,-2.047576904E-1,-8.182220459E-1,1.473739624E0
2.889553276E0,-1.452941895E-1,-7.986145020E-1,1.422851562E0
2.899624077E0,-1.907348633E-2,-6.269531250E-1,1.230514526E0
2.909725395E0,1.842193604E-1,-2.376403809E-1,8.673553467E-1
2.919796196E0,1.911926270E-1,-4.888916016E-2,7.016143799E-1
2.929836479E0,7.899475098E-2,-1.278228760E-1,7.467193604E-1
2.939937797E0,-1.878204346E-1,-4.670562744E-1,9.864501953E-1
2.950008598E0,-6.750183105E-1,-1.096420288E0,1.507812500E0
2.960048881E0,-1.138595581E0,-1.645111084E0,1.972717285E0
2.970119682E0,-1.308609009E0,-1.780578613E0,2.063415527E0
2.980221000E0,-1.184661865E0,-1.555221558E0,1.818435669E0
2.990291801E0,-1.058639526E0,-1.349655151E0,1.620178223E0
3.000362602E0,-9.080963135E-1,-1.085418701E0,1.399078369E0
3.010402885E0,-7.341461182E-1,-7.232818604E-1,1.094039917E0
3.020473686E0,-5.864562988E-1,-4.416503906E-1,8.307037354E-1
3.030544487E0,-4.430236816E-1,-2.784881592E-1,6.641693115E-1
3.040615287E0,-3.454895020E-1,-2.072906494E-1,5.913391113E-1
3.050716606E0,-2.436065674E-1,-1.556396484E-1,5.450744629E-1
3.060756889E0,-1.254577637E-1,-9.921264648E-2,4.818267822E-1
3.070827690E0,3.228759766E-2,4.096984863E-2,3.252258301E-1
3.080898491E0,1.807708740E-1,1.665496826E-1,1.515350342E-1
3.091335502E0,3.471374512E-1,2.029571533E-1,-1.043701172E-2
3.101070610E0,4.143218994E-1,2.295989990E-1,-1.268463135E-1
3.111141410E0,3.916320801E-1,3.276977539E-1,-2.120056152E-1
3.121181694E0,2.670898438E-1,3.244171143E-1,-1.826171875E-1
3.131252494E0,1.475982666E-1,2.289428711E-1,-9.098815918E-2
3.141323295E0,1.194763184E-2,5.973815918E-2,5.162048340E-2
3.151394096E0,-1.506042480E-1,-1.632690430E-1,2.607879639E-1
3.161464897E0,-1.196136475E-1,-1.463470459E-1,2.030639648E-1
3.171566215E0,-1.378784180E-1,-2.107086182E-1,2.218170166E-1
3.181637016E0,-8.012390137E-2,-1.515350342E-1,1.395874023E-1
3.191738334E0,5.538940430E-2,5.119323730E-2,-6.391906738E-2
3.201931205E0,2.159118652E-1,2.940368652E-1,-2.966156006E-1
3.212124077E0,2.873077393E-1,4.082031250E-1,-3.931274414E-1
3.222316948E0,2.704925537E-1,4.216003418E-1,-3.619537354E-1
3.232509819E0,2.429809570E-1,4.525299072E-1,-3.024444580E-1
3.242733207E0,2.404022217E-1,4.895782471E-1,-2.370300293E-1
3.252926078E0,3.004913330E-1,5.329742432E-1,-2.050323486E-1
3.262966362E0,3.145141602E-1,5.453948975E-1,-1.630096436E-1
3.273159233E0,2.287139893E-1,4.365386963E-1,-3.253173828E-2
3.282345024E0,6.867980957E-2,2.062683105E-1,1.812133789E-1
3.292385307E0,-1.339263916E-1,-1.021423340E-1,4.336395264E-1
3.302456108E0,-2.028503418E-1,-2.512359619E-1,5.638427734E-1
3.312526909E0,-1.922912598E-1,-2.728271484E-1,5.523071289E-1
3.322597709E0,-1.326751709E-1,-2.074890137E-1,4.820251465E-1
3.332699028E0,-4.328918457E-2,-9.411621094E-2,4.017333984E-1
3.342769828E0,-6.927490234E-2,-1.172943115E-1,4.526062012E-1
3.352840629E0,-2.067413330E-1,-2.731170654E-1,6.267242432E-1
3.362911430E0,-2.564392090E-1,-2.945098877E-1,7.126312256E-1
3.372951713E0,-6.493530273E-1,-5.348052979E-1,1.102142334E0
3.383022514E0,-8.716430664E-1,-6.394958496E-1,1.345596313E0
3.393093315E0,-8.175048828E-1,-5.725402832E-1,1.341033936E0
3.403164116E0,-7.140655518E-1,-4.611663818E-1,1.288070679E0
3.413234916E0,-6.420288086E-1,-3.627777100E-1,1.233871460E0
3.423305717E0,-4.216461182E-1,-1.482849121E-1,1.051651001E0
3.433407035E0,1.208496094E-2,2.163696289E-1,7.015991211E-1
3.443477836E0,4.372863770E-1,5.543212891E-1,3.566131592E-1
3.453518119E0,7.086791992E-1,7.590332031E-1,9.188842773E-2
3.463588920E0,8.428955078E-1,8.591766357E-1,-8.370971680E-2
3.473659721E0,1.062301636E0,9.237213135E-1,-3.273315430E-1
3.483730522E0,1.478897095E0,1.162185669E0,-7.432556152E-1
3.494137016E0,1.745391846E0,1.351684570E0,-1.038696289E0
3.503872123E0,1.827499390E0,1.368515015E0,-1.202926636E0
3.513942924E0,1.728988647E0,1.111206055E0,-1.096054077E0
3.524013725E0,1.528274536E0,8.513031006E-1,-9.040222168E-1
3.534084526E0,1.265213013E0,7.125244141E-1,-7.549591064E-1
3.544185844E0,9.426879883E-1,5.019531250E-1,-5.825653076E-1
3.554256645E0,6.667480469E-1,2.651214600E-1,-4.116973877E-1
3.564327446E0,4.396209717E-1,5.534362793E-2,-2.706146240E-1
3.574398246E0,2.509307861E-1,-9.144592285E-2,-1.608734131E-1
3.584438530E0,1.846313477E-1,-1.835479736E-1,-9.309387207E-2
3.594570366E0,2.002258301E-1,-2.476348877E-1,-8.518981934E-2
3.604763237E0,2.675781250E-1,-2.773590088E-1,-1.160430908E-1
3.614956108E0,3.783111572E-1,-3.188171387E-1,-1.645202637E-1
3.625148979E0,4.436187744E-1,-3.545227051E-1,-1.690673828E-1
3.635341850E0,3.834838867E-1,-4.112548828E-1,-1.041564941E-1
3.645565239E0,2.918853760E-1,-4.386138916E-1,-4.309082031E-2
3.655727592E0,2.240295410E-1,-4.771728516E-1,4.730224609E-2
3.665798393E0,-2.657775879E-1,-1.045745850E0,7.141571045E-1
3.675045219E0,-1.040527344E0,-1.985260010E0,1.789871216E0
3.685177055E0,-1.687911987E0,-2.539688110E0,2.513153076E0
3.695217338E0,-1.546936035E0,-2.134643555E0,2.186233521E0
3.705288139E0,-1.420043945E0,-1.837524414E0,1.961868286E0
3.715358940E0,-1.302490234E0,-1.613769531E0,1.806472778E0
3.725460258E0,-1.298385620E0,-1.514038086E0,1.778472900E0
3.735439506E0,-1.422592163E0,-1.512481689E0,1.871810913E0
3.745571342E0,-1.547744751E0,-1.382537842E0,1.917984009E0
3.755642143E0,-1.531341553E0,-1.230148315E0,1.842010498E0
3.765743461E0,-1.380264282E0,-9.486541748E-1,1.588027954E0
3.775814262E0,-1.106491089E0,-6.893310547E-1,1.269805908E0
3.785854545E0,-7.954406738E-1,-5.092773438E-1,9.709167480E-1
3.795955864E0,-5.239257812E-1,-3.687896729E-1,6.914520264E-1
3.805996147E0,-2.873992920E-1,-2.238464355E-1,4.378356934E-1
3.816066948E0,-9.555053711E-2,-1.470947266E-1,2.410278320E-1
3.826137748E0,4.383850098E-2,-1.875610352E-1,1.314849854E-1
3.836208549E0,1.549682617E-1,-2.817840576E-1,8.811950684E-2
3.846279350E0,2.083282471E-1,-3.769989014E-1,9.011840820E-2
3.856380668E0,1.280822754E-1,-4.245452881E-1,1.398925781E-1
3.866420952E0,-1.298522949E-2,-4.667053223E-1,2.036132812E-1
3.876491752E0,-7.296752930E-2,-4.582214355E-1,1.899566650E-1
3.886562553E0,-7.415771484E-3,-4.101257324E-1,9.474182129E-2
3.896969047E0,3.440856934E-2,-4.430236816E-1,2.328491211E-2
3.906704155E0,3.036499023E-2,-4.755401611E-1,-4.470825195E-3
3.916774955E0,8.869476318E-1,2.331848145E-1,-1.107162476E0
3.926845756E0,1.740371704E0,9.625854492E-1,-2.182312012E0
3.936947075E0,1.783737183E0,1.114944458E0,-2.304534912E0
3.947017875E0,1.177627563E0,7.886352539E-1,-1.680374146E0
3.957088676E0,-1.433364868E0,-6.817626953E-2,8.970031738E-1
3.967128959E0,-2.206481934E0,-2.870178223E-1,1.712112427E0
3.977199760E0,-1.392608643E0,-5.979919434E-2,9.696350098E-1
3.987301078E0,9.362792969E-1,-7.616119385E-1,-5.722961426E-1
3.997341362E0,1.136093140E0,-1.496704102E0,-3.185424805E-1
4.007534233E0,7.986907959E-1,-1.095748901E0,-1.600646973E-1
4.017727104E0,3.069763184E-1,-9.842681885E-1,2.990417480E-1
4.027828422E0,-7.925262451E-1,-1.231384277E0,1.432418823E0
4.038021293E0,-1.240234375E0,-1.168563843E0,1.859619141E0
4.048305717E0,-1.084106445E0,-9.533996582E-1,1.635284424E0
4.058498588E0,-1.267761230E0,-1.052078247E0,1.821289062E0
4.068660942E0,-1.499114990E0,-1.241088867E0,2.119918823E0
4.078640190E0,-1.462600708E0,-1.171859741E0,2.088607788E0
4.087978569E0,-1.139358521E0,-8.724975586E-1,1.729171753E0
4.098049369E0,-6.355743408E-1,-3.185882568E-1,1.176559448E0
4.108120170E0,-1.757049561E-1,3.216094971E-1,6.453247070E-1
4.118190971E0,1.709899902E-1,8.746337891E-1,1.879730225E-1
4.128261772E0,3.418731689E-1,1.164016724E0,-1.126251221E-1
4.138332573E0,4.175109863E-1,1.217300415E0,-2.178497314E-1
4.148403373E0,4.598236084E-1,1.174118042E0,-2.411499023E-1
4.158474174E0,4.620971680E-1,1.029235840E0,-2.023620605E-1
4.168544975E0,3.616180420E-1,7.362518311E-1,-2.839660645E-2
4.178615776E0,-1.368377686E0,-4.987945557E-1,1.864028931E0
4.188686577E0,-1.105148315E0,-5.071563721E-1,1.603225708E0
4.198757377E0,-3.210754395E-1,-4.271087646E-1,8.179931641E-1
4.208828178E0,1.487152100E0,-9.472198486E-1,-6.986083984E-1
4.218898979E0,8.589172363E-1,-6.782989502E-1,-2.691040039E-1
4.228969780E0,-8.069610596E-1,1.774597168E-2,1.022064209E0
4.239040580E0,-8.416137695E-1,1.353164673E0,7.228088379E-1
4.249111381E0,-4.590759277E-1,1.131347656E0,3.501739502E-1
4.259212700E0,-2.013244629E-1,8.953094482E-1,9.985351562E-2
4.269252983E0,4.058685303E-1,1.010421753E0,-4.958801270E-1
4.279323784E0,5.757904053E-1,9.529876709E-1,-6.673278809E-1
4.289394584E0,8.254394531E-1,1.112472534E0,-9.885559082E-1
4.299740043E0,1.374832153E0,1.652023315E0,-1.642700195E0
4.309566703E0,1.465408325E0,1.784225464E0,-1.799194336E0
4.319606987E0,1.327224731E0,1.524780273E0,-1.649520874E0
4.329677787E0,1.137710571E0,1.233474731E0,-1.430389404E0
4.339748588E0,6.269836426E-1,7.203674316E-1,-9.030456543E-1
4.349819389E0,1.931762695E-2,-1.243896484E-1,-1.421813965E-1
4.359890190E0,-1.703994751E0,-2.113861084E0,1.898834229E0
4.369960991E0,-2.142669678E0,-2.009552002E0,2.263931274E0
4.380031791E0,-1.570022583E0,-1.437088013E0,1.629516602E0
4.390102592E0,-1.191421509E0,-1.051284790E0,1.246749878E0
4.400173393E0,-8.764648438E-1,-7.496185303E-1,9.429168701E-1
4.410244194E0,-5.340576172E-1,-4.463806152E-1,6.112976074E-1
4.420406547E0,-2.514038086E-1,-8.639526367E-2,3.316345215E-1
4.430599418E0,1.693725586E-3,2.546691895E-1,1.189575195E-1
4.440792289E0,2.542114258E-1,5.347137451E-1,-3.355407715E-2
4.450985160E0,4.687347412E-1,7.334899902E-1,-1.212005615E-1
4.461178032E0,6.528015137E-1,8.487243652E-1,-1.637115479E-1
4.471370903E0,7.618408203E-1,8.614044189E-1,-1.614227295E-1
4.481563774E0,8.397521973E-1,7.980804443E-1,-1.001129150E-1
4.491604057E0,7.551422119E-1,6.153106689E-1,9.936523438E-2
4.501796928E0,5.659942627E-1,4.004211426E-1,3.690795898E-1
4.510982719E0,3.794097900E-1,2.137756348E-1,6.037292480E-1
4.521023002E0,2.819213867E-1,1.447753906E-1,7.556152344E-1
4.531093803E0,1.871032715E-1,1.137390137E-1,9.269714355E-1
4.541164604E0,-4.959106445E-3,2.436828613E-2,1.137145996E0
4.551265922E0,-2.252197266E-2,7.217407227E-3,1.244277954E0
4.561336723E0,-7.064819336E-3,-5.752563477E-3,1.323242188E0
4.571407524E0,-3.712463379E-2,-4.547119141E-2,1.422424316E0
4.581447807E0,1.178436279E-1,3.036499023E-3,1.365432739E0
4.591518608E0,7.874298096E-1,3.169097900E-1,8.258514404E-1
4.601589409E0,1.254364014E0,5.458984375E-1,4.515533447E-1
4.611660209E0,1.253616333E0,5.278320312E-1,4.738464355E-1
4.621731010E0,1.088241577E0,4.243621826E-1,6.359100342E-1
4.631801811E0,8.438873291E-1,3.507232666E-1,7.731323242E-1
4.641872612E0,7.299499512E-1,3.449707031E-1,8.044281006E-1
4.651943412E0,7.167053223E-1,3.503417969E-1,7.723236084E-1
4.662014213E0,7.816162109E-1,3.594970703E-1,6.784057617E-1
4.672085014E0,7.706298828E-1,3.443450928E-1,6.443634033E-1
4.682186332E0,7.444000244E-1,3.340301514E-1,6.271209717E-1
4.692257133E0,7.379455566E-1,3.318939209E-1,5.706939697E-1
4.702541557E0,7.035217285E-1,3.036193848E-1,5.077056885E-1
4.712368217E0,7.448120117E-1,2.609252930E-1,4.386901855E-1
4.722439018E0,6.486663818E-1,1.403808594E-1,4.501800537E-1
4.732509819E0,4.785461426E-1,2.680969238E-2,5.889129639E-1
4.742580619E0,2.208404541E-1,-6.599426270E-2,8.192749023E-1
4.752651420E0,-8.389282227E-2,-1.450042725E-1,1.026168823E0
4.762722221E0,-4.436950684E-1,-2.353515625E-1,1.261810303E0
4.772793022E0,-6.990661621E-1,-3.171234131E-1,1.394531250E0
4.782863823E0,-6.648254395E-1,-2.892913818E-1,1.348999023E0
4.792965141E0,-6.069793701E-1,-2.138977051E-1,1.234954834E0
4.803035942E0,-3.701171875E-1,-1.069030762E-1,1.039230347E0
4.813076225E0,-1.308135986E-1,3.295898438E-3,8.067626953E-1
4.823147026E0,1.984405518E-1,1.643218994E-1,5.343933105E-1
4.833248344E0,3.528442383E-1,2.856750488E-1,3.021850586E-1
4.843441215E0,4.922943115E-1,3.852233887E-1,1.228027344E-1
4.853542534E0,5.515747070E-1,4.010772705E-1,2.278137207E-2
4.863826957E0,5.820159912E-1,3.439483643E-1,-4.116821289E-2
4.874019828E0,6.116485596E-1,2.632293701E-1,-5.873107910E-2
4.884243217E0,4.970703125E-1,1.758728027E-1,-1.728820801E-2
4.894527641E0,4.655303955E-1,1.293487549E-1,-1.258850098E-2
4.904537407E0,3.008728027E-1,8.064270020E-2,8.088684082E-2
4.913814750E0,-2.157592773E-1,-2.143859863E-2,4.225158691E-1
4.923885551E0,-5.706481934E-1,-1.089324951E-1,6.679534912E-1
4.933925834E0,-1.049835205E0,-2.098999023E-1,1.039978027E0
4.944027153E0,-1.501022339E0,-2.691497803E-1,1.390625000E0
4.954097953E0,-1.850311279E0,-2.433624268E-1,1.593078613E0
4.964138237E0,-1.659072876E0,-7.101440430E-2,1.429626465E0
4.974239555E0,-1.336898804E0,1.310577393E-1,1.168518066E0
4.984279838E0,-1.141616821E0,2.532196045E-1,9.520568848E-1
4.994350639E0,-1.055786133E0,2.605590820E-1,8.261260986E-1
5.004421440E0,-9.259796143E-1,1.928558350E-1,6.951904297E-1
5.014492241E0,-6.997833252E-1,1.322174072E-1,5.141296387E-1
5.024563041E0,-4.140319824E-1,1.222381592E-1,2.946472168E-1
5.034664360E0,-2.170257568E-1,1.096954346E-1,1.478424072E-1
5.044735160E0,-1.991271973E-1,7.394409180E-2,1.018066406E-1
5.054805961E0,-1.348114014E-1,5.041503906E-2,1.025390625E-2
5.064876762E0,-1.228790283E-1,2.755737305E-2,-6.074523926E-2
5.074917045E0,-1.613159180E-1,8.239746094E-4,-7.080078125E-2
5.084987846E0,-2.842712402E-1,-3.486633301E-2,-1.086425781E-2
5.095058647E0,-4.826812744E-1,-7.949829102E-2,9.399414062E-2
5.105434623E0,-5.589752197E-1,-9.434509277E-2,1.466674805E-1
5.115230766E0,-5.225372314E-1,-8.633422852E-2,1.231231689E-1
5.125271049E0,-5.444335938E-1,-8.448791504E-2,1.569671631E-1
5.135341850E0,-6.259002686E-1,-9.550476074E-2,2.110290527E-1
5.145412651E0,-6.215515137E-1,-1.047210693E-1,2.207794189E-1
5.155483452E0,-6.122283936E-1,-1.368255615E-1,2.166595459E-1
5.165584770E0,-7.149047852E-1,-1.905670166E-1,2.624816895E-1
5.175655571E0,-7.629852295E-1,-2.366180420E-1,2.590332031E-1
5.185726371E0,-6.062164307E-1,-2.374267578E-1,1.312713623E-1
5.195766655E0,-4.369506836E-1,-2.257690430E-1,-4.455566406E-3
5.205837455E0,-5.126953125E-1,-1.934051514E-1,1.965332031E-2
5.215908256E0,-2.729339600E-1,-1.271972656E-1,-1.901855469E-1
5.226009575E0,2.396697998E-1,5.847167969E-2,-5.895080566E-1
5.236080375E0,7.404479980E-1,1.646423340E-1,-9.628448486E-1
5.246242729E0,9.413299561E-1,1.774291992E-1,-1.159576416E0
5.256435600E0,7.239532471E-1,1.200103760E-1,-1.055709839E0
5.266567436E0,1.337890625E-1,-1.689147949E-2,-6.874847412E-1
5.276821342E0,-3.865966797E-1,-1.255187988E-1,-3.446044922E-1
5.287044731E0,-6.795959473E-1,-1.694793701E-1,-1.302337646E-1
5.297237602E0,-8.538055420E-1,-1.830902100E-1,-1.518249512E-2
5.307277885E0,-9.204254150E-1,-1.784057617E-1,3.994750977E-2
5.316585746E0,-1.026779175E0,-1.805267334E-1,7.684326172E-2
5.326687065E0,-1.081481934E0,-1.790161133E-1,8.232116699E-2
5.336757866E0,-1.018402100E0,-1.619110107E-1,4.212951660E-2
5.346828666E0,-9.147949219E-1,-1.473846436E-1,-7.127380371E-2
5.356899467E0,-6.457824707E-1,-1.055297852E-1,-2.647705078E-1
5.366970268E0,-3.910827637E-1,-4.858398438E-2,-4.407348633E-1
5.377071586E0,-2.304229736E-1,1.937866211E-2,-5.646362305E-1
5.387142387E0,-6.158447266E-2,1.219329834E-1,-6.852569580E-1
5.397213188E0,1.484069824E-1,2.508544922E-1,-8.126983643E-1
5.407283989E0,2.924194336E-1,3.623046875E-1,-8.985137939E-1
5.417354789E0,2.971649170E-1,4.133148193E-1,-9.042358398E-1
5.427425590E0,1.828918457E-1,3.680877686E-1,-8.251037598E-1
5.437496391E0,1.501464844E-2,2.344055176E-1,-6.841430664E-1
5.447567192E0,-2.159118652E-1,6.747436523E-2,-5.167236328E-1
5.457607475E0,-4.854125977E-1,-6.915283203E-2,-3.545532227E-1
5.467678276E0,-5.700683594E-1,-1.362457275E-1,-2.465820312E-1
5.477779594E0,-5.444335938E-1,-1.445465088E-1,-2.002868652E-1
5.487850395E0,-5.171966553E-1,-1.314392090E-1,-1.910095215E-1
5.497921196E0,-4.899291992E-1,-1.004180908E-1,-1.962585449E-1
5.508327690E0,-4.939422607E-1,-8.995056152E-2,-1.994628906E-1
5.518032280E0,-5.217285156E-1,-1.042327881E-1,-2.015991211E-1
5.528133598E0,-4.206085205E-1,-8.959960938E-2,-2.349700928E-1
5.538204399E0,-3.683319092E-1,-7.666015625E-2,-2.737274170E-1
5.548244682E0,-3.534851074E-1,-4.679870605E-2,-3.027801514E-1
5.558315483E0,-2.772369385E-1,2.880859375E-2,-3.388519287E-1
5.568416801E0,-2.400665283E-1,7.246398926E-2,-3.564910889E-1
5.578487602E0,-2.810058594E-1,4.965209961E-2,-3.530883789E-1
5.588558403E0,-2.635345459E-1,3.309631348E-2,-3.638153076E-1
5.598629203E0,-3.018035889E-1,-3.616333008E-3,-3.635864258E-1
5.608669487E0,-2.553863525E-1,-1.098632812E-2,-3.786926270E-1
5.618740287E0,-2.212066650E-1,-1.647949219E-2,-3.834228516E-1
5.628811088E0,-2.838134766E-1,-5.041503906E-2,-3.181762695E-1
5.638881889E0,-4.343109131E-1,-1.087493896E-1,-2.200927734E-1
5.649013725E0,-4.855346680E-1,-1.326293945E-1,-1.531372070E-1
5.659206596E0,-4.613037109E-1,-1.237487793E-1,-1.202239990E-1
5.669399467E0,-4.637145996E-1,-1.078186035E-1,-1.098022461E-1
5.679622856E0,-3.498840332E-1,-4.241943359E-2,-1.532287598E-1
5.689815727E0,-1.730957031E-1,5.004882812E-2,-2.173004150E-1
5.700008598E0,-2.087402344E-2,1.201782227E-1,-2.680664062E-1
5.710201469E0,4.864501953E-2,1.496734619E-1,-2.913055420E-1
5.720180717E0,4.946899414E-2,1.528167725E-1,-2.955017090E-1
5.729519096E0,1.489257812E-2,1.398468018E-1,-2.787475586E-1
5.739589897E0,-8.845520020E-2,1.032409668E-1,-2.299346924E-1
5.749660698E0,-1.506652832E-1,8.578491211E-2,-1.786041260E-1
5.759762016E0,-1.688537598E-1,9.297180176E-2,-1.183166504E-1
5.769832817E0,-2.153930664E-1,1.087341309E-1,-5.390930176E-2
5.779903618E0,-2.250823975E-1,1.520233154E-1,-9.552001953E-3
5.789974418E0,-1.662139893E-1,2.153167725E-1,-6.896972656E-3
5.800014702E0,-2.065124512E-1,2.613525391E-1,4.437255859E-2
5.810116020E0,-3.016052246E-1,2.582855225E-1,1.351928711E-1
5.820186821E0,-4.309997559E-1,2.285919189E-1,2.423248291E-1
5.830227104E0,-5.518341064E-1,2.132720947E-1,3.475952148E-1
5.840297905E0,-6.088562012E-1,2.289276123E-1,4.095306396E-1
5.850368705E0,-6.006622314E-1,2.740936279E-1,4.402923584E-1
5.860470024E0,-6.145019531E-1,2.911834717E-1,4.769287109E-1
5.870510307E0,-6.515655518E-1,3.004608154E-1,5.096282959E-1
5.880581108E0,-7.020721436E-1,3.119964600E-1,5.487365723E-1
5.890682426E0,-7.323608398E-1,3.399047852E-1,5.711364746E-1
5.900753227E0,-7.216949463E-1,3.656158447E-1,5.604858398E-1
5.911129203E0,-7.272033691E-1,3.381652832E-1,5.522155762E-1
5.920894828E0,-8.006744385E-1,2.904052734E-1,5.785369873E-1
5.930965629E0,-8.739776611E-1,2.714385986E-1,5.864410400E-1
5.941005912E0,-8.216857910E-1,3.085021973E-1,5.305023193E-1
5.951107231E0,-7.213134766E-1,3.563690186E-1,4.391021729E-1
5.961178032E0,-5.957031250E-1,4.042510986E-1,3.295593262E-1
5.971218315E0,-4.635772705E-1,4.435272217E-1,2.181091309E-1
5.981319633E0,-2.939910889E-1,4.777069092E-1,1.245574951E-1
5.991390434E0,-2.230987549E-1,4.610443115E-1,6.510925293E-2
6.001430717E0,-2.443695068E-1,4.061126709E-1,3.506469727E-2
6.011532035E0,-1.703491211E-1,3.636779785E-1,-7.397460938E-2
6.021602836E0,9.020996094E-2,3.657531738E-1,-2.525177002E-1
6.031643119E0,3.471679688E-1,3.870391846E-1,-4.653778076E-1
6.041713920E0,5.647430420E-1,3.829193115E-1,-6.215515137E-1
6.051876274E0,6.379241943E-1,3.704376221E-1,-6.850585938E-1
6.062099662E0,6.655426025E-1,3.695220947E-1,-6.988220215E-1
6.072292534E0,6.309509277E-1,3.594665527E-1,-6.859893799E-1
6.082485405E0,5.501861572E-1,3.467407227E-1,-6.517639160E-1
6.092678276E0,3.959808350E-1,3.122558594E-1,-5.991058350E-1
6.102871147E0,2.937469482E-1,2.946624756E-1,-5.391387939E-1
6.113094535E0,2.287597656E-1,2.808837891E-1,-4.886169434E-1
6.123134819E0,2.068176270E-1,2.629547119E-1,-4.576721191E-1
6.132381645E0,2.198638916E-1,2.368927002E-1,-4.357910156E-1
6.142421928E0,2.139892578E-1,1.928100586E-1,-4.108276367E-1
6.152492729E0,2.388458252E-1,1.642608643E-1,-4.004364014E-1
6.162594047E0,2.633819580E-1,1.382751465E-1,-3.877716064E-1
6.172664848E0,2.005462646E-1,8.882141113E-2,-3.499603271E-1
6.182705131E0,9.217834473E-2,4.309082031E-2,-2.749023438E-1
6.192775932E0,-1.460266113E-2,-2.615356445E-2,-1.933593750E-1
6.202877250E0,-1.070861816E-1,-1.205596924E-1,-1.098632812E-1
6.212948051E0,-1.742248535E-1,-2.200012207E-1,-3.433227539E-2
6.223018852E0,-2.217712402E-1,-3.087768555E-1,1.562500000E-2
6.233059135E0,-2.322387695E-1,-3.591766357E-1,3.224182129E-2
6.243129936E0,-2.915802002E-1,-3.963317871E-1,8.139038086E-2
6.253200737E0,-3.846130371E-1,-4.200592041E-1,1.804199219E-1
6.263302055E0,-5.007476807E-1,-4.369354248E-1,2.752990723E-1
6.273372856E0,-5.332489014E-1,-4.439086914E-1,3.487243652E-1
6.283413139E0,-5.390167236E-1,-4.358215332E-1,3.933715820E-1
6.293514457E0,-5.505523682E-1,-4.224548340E-1,4.119567871E-1
6.303585258E0,-5.650787354E-1,-4.055023193E-1,4.104003906E-1
6.313991752E0,-5.464477539E-1,-3.809356689E-1,3.968505859E-1
6.323696342E0,-4.873046875E-1,-3.531951904E-1,3.776855469E-1
6.333797660E0,-3.856506348E-1,-3.233337402E-1,3.430786133E-1
6.343837944E0,-2.944030762E-1,-3.076629639E-1,2.899322510E-1
6.353908744E0,-2.234802246E-1,-3.033752441E-1,2.259521484E-1
6.363979545E0,-1.466217041E-1,-3.000946045E-1,1.513977051E-1
6.374080864E0,-7.812500000E-2,-3.005981445E-1,7.466125488E-2
6.384151664E0,-3.659057617E-2,-3.072967529E-1,7.522583008E-3
6.394222465E0,1.921081543E-2,-2.994537354E-1,-3.636169434E-2
6.404262748E0,7.322692871E-2,-2.767791748E-1,-6.744384766E-2
6.414333549E0,2.417602539E-1,-2.028350830E-1,-1.600494385E-1
6.424434868E0,4.730682373E-1,-9.556579590E-2,-3.104858398E-1
6.434505668E0,7.416839600E-1,3.274536133E-2,-4.745941162E-1
6.444545952E0,9.337921143E-1,1.382293701E-1,-6.013031006E-1
6.454616752E0,3.536682129E-1,7.397460938E-2,-2.231750488E-1
6.464870659E0,1.298141479E0,3.142089844E-1,-8.125915527E-1
6.475063530E0,1.182876587E0,3.171539307E-1,-7.318878174E-1
6.485256401E0,1.026519775E0,2.954864502E-1,-6.350708008E-1
6.495388237E0,8.456420898E-1,2.553558350E-1,-5.377655029E-1
6.505642143E0,6.880187988E-1,2.153930664E-1,-4.484558105E-1
6.515835014E0,4.942169189E-1,1.567230225E-1,-3.641662598E-1
6.525936332E0,3.218383789E-1,1.054687500E-1,-2.905578613E-1
6.536068168E0,2.506561279E-1,8.470153809E-2,-2.350158691E-1
6.545284477E0,2.295837402E-1,7.559204102E-2,-1.997528076E-1
6.555355278E0,2.468719482E-1,8.493041992E-2,-1.821746826E-1
6.565395561E0,2.794036865E-1,8.769226074E-2,-1.826934814E-1
6.575466362E0,2.755889893E-1,5.685424805E-2,-1.906433105E-1
6.585567680E0,8.561706543E-2,5.004882812E-3,-5.909729004E-2
6.595638481E0,8.331298828E-2,-8.117675781E-3,-5.682373047E-2
6.605678764E0,1.993103027E-1,-4.734802246E-2,-1.298370361E-1
6.615749565E0,7.923889160E-2,-3.617858887E-2,-4.891967773E-2
6.625820366E0,4.783630371E-2,4.180908203E-3,5.477905273E-3
6.635891166E0,4.016113281E-2,3.097534180E-2,2.874755859E-2
6.645992485E0,-3.158569336E-2,7.019042969E-4,5.313110352E-2
6.656063285E0,-1.135864258E-1,-7.949829102E-3,1.059722900E-1
6.666134086E0,-2.276611328E-1,-1.730346680E-2,1.720123291E-1
6.676174369E0,-2.688751221E-1,-1.670837402E-2,2.296142578E-1
6.686275688E0,-3.182678223E-1,-5.017089844E-2,2.568969727E-1
6.696346489E0,-3.072814941E-1,-7.957458496E-2,2.447967529E-1
6.706386772E0,-2.522888184E-1,-8.593750000E-2,2.077941895E-1
6.716701713E0,-1.647338867E-1,-5.841064453E-2,1.664276123E-1
6.726558891E0,-1.127319336E-1,-6.498718262E-2,1.302795410E-1
6.736629692E0,-2.598571777E-2,-3.269958496E-2,3.388977051E-2
6.746669975E0,-4.313659668E-2,-1.357879639E-1,9.814453125E-2
6.756771293E0,4.519653320E-2,-1.071472168E-1,7.138061523E-2
6.766842094E0,8.010864258E-2,-7.241821289E-2,4.962158203E-2
6.776882377E0,1.611175537E-1,-1.278686523E-2,3.298950195E-2
6.786953178E0,1.520996094E-1,7.446289062E-3,1.428222656E-2
6.797054496E0,1.689147949E-1,2.476501465E-2,-1.432800293E-2
6.807125297E0,1.729431152E-1,3.002929688E-2,-4.850769043E-2
6.817196098E0,2.134704590E-1,4.327392578E-2,-8.096313477E-2
6.827236381E0,2.384643555E-1,4.512023926E-2,-1.091918945E-1
6.837307182E0,2.605895996E-1,4.293823242E-2,-1.321105957E-1
6.847408500E0,3.034667969E-1,4.647827148E-2,-1.540527344E-1
6.857479301E0,3.201141357E-1,2.511596680E-2,-1.643066406E-1
6.867641655E0,2.805328369E-1,-2.801513672E-2,-1.635742188E-1
6.877834526E0,7.962036133E-2,-2.624511719E-2,-5.093383789E-2
6.888027397E0,9.216308594E-2,-3.932189941E-2,-5.552673340E-2
6.898220268E0,9.713745117E-2,-4.766845703E-2,-5.749511719E-2
6.908413139E0,2.948455811E-1,-1.453704834E-1,-1.753082275E-1
6.918636528E0,2.346191406E-1,-1.003875732E-1,-1.422271729E-1
6.928829399E0,1.885986328E-1,-5.831909180E-2,-1.183166504E-1
6.938869682E0,1.610412598E-1,-2.090454102E-2,-9.973144531E-2
6.948116508E0,1.546630859E-1,9.918212891E-3,-8.250427246E-2
6.958187309E0,5.053710938E-2,9.735107422E-3,-2.230834961E-2
6.968227592E0,5.891418457E-2,1.448059082E-2,-2.185058594E-2
6.978328910E0,6.097412109E-2,1.771545410E-2,-2.020263672E-2
6.988369194E0,6.266784668E-2,1.950073242E-2,-1.860046387E-2
6.998439994E0,1.728210449E-1,4.962158203E-2,-5.036926270E-2
7.008541313E0,1.279907227E-1,3.216552734E-2,-3.593444824E-2
7.018612114E0,2.549743652E-2,4.776000977E-3,-9.078979492E-3
7.028682914E0,1.693725586E-2,1.846313477E-3,-6.347656250E-3
7.038723198E0,-2.136230469E-3,-4.348754883E-3,-2.899169922E-4
7.048763481E0,-2.397155762E-2,-1.393127441E-2,7.629394531E-3
7.058773246E0,-5.081176758E-2,-2.339172363E-2,1.728820801E-2
7.068966118E0,-7.234191895E-2,-3.010559082E-2,2.613830566E-2
7.079006401E0,-8.155822754E-2,-3.286743164E-2,3.022766113E-2
7.089107719E0,-8.178710938E-2,-2.903747559E-2,3.039550781E-2
7.099178520E0,-7.575988770E-2,-2.043151855E-2,2.719116211E-2
7.109218803E0,-1.736450195E-1,-2.117919922E-2,6.716918945E-2
7.119655815E0,-1.009979248E-1,1.350402832E-2,4.156494141E-2
7.129360405E0,-7.379150391E-2,3.135681152E-2,3.224182129E-2
7.139461723E0,-5.438232422E-2,5.039978027E-2,3.015136719E-2
7.149502006E0,0.000000000E0,3.001403809E-2,8.575439453E-3
7.159572807E0,1.376342773E-2,4.931640625E-2,8.209228516E-3
7.169674125E0,3.269958496E-2,7.258605957E-2,6.744384766E-3
7.179744926E0,1.027984619E-1,2.696533203E-1,1.664733887E-2
7.189815727E0,2.841186523E-2,2.458190918E-1,2.113342285E-2
7.199886528E0,-5.003356934E-2,2.240600586E-1,3.912353516E-2
7.209926811E0,-8.778381348E-2,2.196655273E-1,5.995178223E-2
7.220028129E0,-1.100616455E-1,2.189636230E-1,6.936645508E-2
7.230098930E0,-1.370544434E-1,2.071075439E-1,6.159973145E-2
7.240169731E0,-1.468658447E-1,1.997375488E-1,4.342651367E-2
7.250210014E0,-1.523742676E-1,1.888122559E-1,2.610778809E-2
7.260311332E0,-1.729125977E-1,1.749725342E-1,1.773071289E-2
7.270473686E0,-1.764068604E-1,1.696014404E-1,1.667785645E-2
7.280666557E0,-1.813812256E-1,1.643371582E-1,1.940917969E-2
7.290859428E0,-1.781768799E-1,1.607055664E-1,2.214050293E-2
7.301082817E0,-1.607055664E-1,1.580352783E-1,2.482604980E-2
7.311275688E0,-5.987548828E-2,4.641723633E-2,9.536743164E-3
7.321468559E0,-8.377075195E-2,4.783630371E-2,1.242065430E-2
7.331661430E0,-1.005096436E-1,4.904174805E-2,1.423645020E-2
7.341640678E0,-1.129150391E-1,4.855346680E-2,1.564025879E-2
7.350948539E0,-1.350555420E-1,4.312133789E-2,1.889038086E-2
7.360988823E0,-1.517181396E-1,3.804016113E-2,2.410888672E-2
7.371090141E0,-1.572265625E-1,3.416442871E-2,2.995300293E-2
7.381160942E0,-1.685028076E-1,2.592468262E-2,3.387451172E-2
7.391201225E0,-1.881103516E-1,1.200866699E-2,3.433227539E-2
7.401272026E0,-2.010498047E-1,-7.629394531E-4,3.173828125E-2
7.411373344E0,-2.082519531E-1,-1.203918457E-2,2.781677246E-2
7.421444145E0,-1.977539062E-1,-1.625061035E-2,2.439880371E-2
7.431514946E0,-1.946563721E-1,-2.182006836E-2,2.217102051E-2
7.441585746E0,-1.697692871E-1,-1.860046387E-2,1.831054688E-2
7.451626030E0,-1.427612305E-1,-1.745605469E-2,1.107788086E-2
7.461696830E0,-1.276855469E-1,-2.375793457E-2,4.440307617E-3
7.471767631E0,-1.135559082E-1,-3.065490723E-2,2.441406250E-3
7.481868950E0,-1.154632568E-1,-3.971862793E-2,4.394531250E-3
7.491909233E0,-1.128997803E-1,-4.374694824E-2,5.645751953E-3
7.502010551E0,-1.088256836E-1,-4.548645020E-2,5.050659180E-3
7.512081352E0,-1.031799316E-1,-4.508972168E-2,3.509521484E-3
7.522487846E0,-1.057128906E-1,-4.618835449E-2,6.790161133E-3
7.532222953E0,-1.143951416E-1,-4.913330078E-2,1.358032227E-2
7.542263237E0,-1.247253418E-1,-5.233764648E-2,2.006530762E-2
7.552364555E0,-1.245727539E-1,-5.149841309E-2,2.345275879E-2
7.562435356E0,-1.119232178E-1,-4.609680176E-2,2.336120605E-2
7.572475639E0,-1.006927490E-1,-4.116821289E-2,2.133178711E-2
7.582546440E0,-8.865356445E-2,-3.511047363E-2,1.945495605E-2
7.592647758E0,-7.762145996E-2,-2.897644043E-2,1.789855957E-2
7.602718559E0,-6.909179688E-2,-2.398681641E-2,1.718139648E-2
7.612789360E0,-6.311035156E-2,-2.017211914E-2,1.692199707E-2
7.622829643E0,-6.094360352E-2,-1.765441895E-2,1.727294922E-2
7.632900444E0,-6.048583984E-2,-1.551818848E-2,1.812744141E-2
7.643001762E0,-6.159973145E-2,-1.385498047E-2,1.956176758E-2
7.653072563E0,-6.205749512E-2,-1.171875000E-2,2.069091797E-2
7.663112846E0,-6.040954590E-2,-8.102416992E-3,2.107238770E-2
7.673275200E0,-5.830383301E-2,-3.860473633E-3,2.087402344E-2
7.683468071E0,-5.699157715E-2,-3.662109375E-4,2.082824707E-2
7.693660942E0,-5.468750000E-2,2.883911133E-3,1.985168457E-2
7.703853813E0,-5.070495605E-2,5.401611328E-3,1.783752441E-2
7.714077202E0,-4.621887207E-2,6.393432617E-3,1.560974121E-2
7.724270073E0,-4.264831543E-2,5.340576172E-3,1.399230957E-2
7.734462944E0,-4.000854492E-2,3.692626953E-3,1.295471191E-2
7.744503227E0,-3.630065918E-2,2.120971680E-3,1.150512695E-2
7.753750053E0,-3.056335449E-2,1.632690430E-3,8.926391602E-3
7.763851371E0,-2.159118652E-2,3.280639648E-3,4.562377930E-3
7.773922172E0,-1.135253906E-2,3.479003906E-3,-8.239746094E-4
7.783962455E0,-3.799438477E-3,0.000000000E0,-5.737304688E-3
7.794033256E0,1.266479492E-3,-4.714965820E-3,-8.407592773E-3
7.804134575E0,4.928588867E-3,-9.780883789E-3,-1.182556152E-2
7.814205375E0,7.263183594E-3,-1.213073730E-2,-1.242065430E-2
7.824276176E0,7.797241211E-3,-1.332092285E-2,-1.181030273E-2
7.834316459E0,7.446289062E-3,-1.367187500E-2,-1.058959961E-2
7.844387260E0,7.873535156E-3,-1.300048828E-2,-9.979248047E-3
7.854488578E0,7.949829102E-3,-1.321411133E-2,-9.628295898E-3
7.864559379E0,6.179809570E-3,-1.351928711E-2,-7.904052734E-3
7.874630180E0,4.608154297E-3,-1.400756836E-2,-6.500244141E-3
7.884700981E0,3.524780273E-3,-1.394653320E-2,-5.386352539E-3
7.894771782E0,-7.629394531E-4,-1.516723633E-2,-2.319335938E-3
7.904842582E0,-8.499145508E-3,-1.786804199E-2,3.067016602E-3
7.914913383E0,-1.593017578E-2,-2.012634277E-2,8.560180664E-3
7.925319877E0,-1.896667480E-2,-2.059936523E-2,1.161193848E-2
7.935024467E0,-1.963806152E-2,-2.073669434E-2,1.335144043E-2
7.945125785E0,-1.658630371E-2,-1.918029785E-2,1.275634766E-2
7.955196586E0,-1.290893555E-2,-1.765441895E-2,1.176452637E-2
7.965267387E0,-8.300781250E-3,-1.596069336E-2,1.019287109E-2
7.975338188E0,-3.677368164E-3,-1.496887207E-2,8.453369141E-3
7.985408989E0,-3.662109375E-4,-1.655578613E-2,7.629394531E-3
7.995449272E0,1.754760742E-3,-1.829528809E-2,6.332397461E-3
8.005550590E0,3.372192383E-3,-2.069091797E-2,5.661010742E-3
8.015621391E0,4.959106445E-3,-2.221679688E-2,4.974365234E-3
8.025661674E0,6.790161133E-3,-2.339172363E-2,4.470825195E-3
8.035732475E0,7.781982422E-3,-2.314758301E-2,4.150390625E-3
8.045833793E0,8.377075195E-3,-2.493286133E-2,4.028320312E-3
8.055904594E0,9.033203125E-3,-2.429199219E-2,3.570556641E-3
8.065944877E0,9.780883789E-3,-2.351379395E-2,3.509521484E-3
8.076076713E0,9.887695312E-3,-2.188110352E-2,3.555297852E-3
8.086269584E0,1.025390625E-2,-2.058410645E-2,3.601074219E-3
8.096462455E0,1.078796387E-2,-1.855468750E-2,3.173828125E-3
8.106655327E0,1.181030273E-2,-1.663208008E-2,2.685546875E-3
8.116817680E0,1.364135742E-2,-1.524353027E-2,2.059936523E-3
8.127071586E0,1.467895508E-2,-1.257324219E-2,1.342773438E-3
8.137264457E0,1.463317871E-2,-1.063537598E-2,9.613037109E-4
8.147365776E0,1.504516602E-2,-1.115417480E-2,9.155273438E-4
8.157467094E0,1.506042480E-2,-1.216125488E-2,5.645751953E-4
8.166652885E0,1.454162598E-2,-1.293945312E-2,-1.373291016E-4
8.176754203E0,1.530456543E-2,-1.458740234E-2,-1.205444336E-3
8.186825004E0,1.528930664E-2,-1.675415039E-2,-2.182006836E-3
8.196865287E0,1.487731934E-2,-1.962280273E-2,-2.777099609E-3
8.206844535E0,1.296997070E-2,-2.258300781E-2,-2.670288086E-3
8.217037407E0,1.106262207E-2,-2.461242676E-2,-2.105712891E-3
8.227077690E0,8.926391602E-3,-2.551269531E-2,-1.434326172E-3
8.237148491E0,7.324218750E-3,-2.557373047E-2,-8.087158203E-4
8.247249809E0,6.103515625E-3,-2.497863770E-2,-3.509521484E-4
8.257320610E0,4.104614258E-3,-2.490234375E-2,7.629394531E-4
8.267360893E0,6.256103516E-4,-2.645874023E-2,2.853393555E-3
8.277431694E0,-3.890991211E-3,-2.795410156E-2,5.493164062E-3
8.287533012E0,-9.017944336E-3,-2.976989746E-2,8.468627930E-3
8.297603813E0,-1.390075684E-2,-3.169250488E-2,1.119995117E-2
8.307644096E0,-1.708984375E-2,-3.390502930E-2,1.283264160E-2
8.317714897E0,-1.814270020E-2,-3.385925293E-2,1.335144043E-2
8.328182426E0,-1.858520508E-2,-3.341674805E-2,1.374816895E-2
8.337887016E0,-1.913452148E-2,-3.259277344E-2,1.434326172E-2
8.347927299E0,-1.876831055E-2,-3.094482422E-2,1.441955566E-2
8.358028618E0,-1.791381836E-2,-2.886962891E-2,1.406860352E-2
8.368068901E0,-1.770019531E-2,-2.738952637E-2,1.402282715E-2
8.378139702E0,-1.763916016E-2,-2.557373047E-2,1.419067383E-2
8.388241020E0,-1.852416992E-2,-2.395629883E-2,1.501464844E-2
8.398311821E0,-2.018737793E-2,-2.273559570E-2,1.631164551E-2
8.408382621E0,-2.172851562E-2,-2.122497559E-2,1.748657227E-2
8.418422905E0,-2.288818359E-2,-2.032470703E-2,1.841735840E-2
8.428493705E0,-2.272033691E-2,-1.855468750E-2,1.856994629E-2
8.438564506E0,-2.154541016E-2,-1.570129395E-2,1.812744141E-2
8.448665825E0,-2.005004883E-2,-1.263427734E-2,1.763916016E-2
8.458736625E0,-1.766967773E-2,-9.521484375E-3,1.678466797E-2
8.468776909E0,-1.423645020E-2,-5.767822266E-3,1.538085938E-2
8.478908744E0,-1.016235352E-2,-2.288818359E-3,1.322937012E-2
8.489101616E0,-6.652832031E-3,1.571655273E-3,1.191711426E-2
8.499294487E0,-3.540039062E-3,5.828857422E-3,1.087951660E-2
8.509487358E0,-7.934570312E-4,9.490966797E-3,9.872436523E-3
8.519649711E0,1.586914062E-3,1.171875000E-2,8.453369141E-3
8.529873100E0,3.997802734E-3,1.446533203E-2,7.522583008E-3
8.540096489E0,5.767822266E-3,1.580810547E-2,6.713867188E-3
8.550167289E0,6.408691406E-3,1.687622070E-2,7.019042969E-3
8.560299125E0,4.653930664E-3,1.547241211E-2,8.178710938E-3
8.569515434E0,1.159667969E-3,1.322937012E-2,1.037597656E-2
8.579586235E0,-3.204345703E-3,1.072692871E-2,1.347351074E-2
8.589657035E0,-7.461547852E-3,7.873535156E-3,1.611328125E-2
8.599697319E0,-1.083374023E-2,5.172729492E-3,1.811218262E-2
8.609798637E0,-1.249694824E-2,3.555297852E-3,1.933288574E-2
8.619838920E0,-1.235961914E-2,2.548217773E-3,1.896667480E-2
8.629940239E0,-1.133728027E-2,1.754760742E-3,1.846313477E-2
8.640011039E0,-9.307861328E-3,9.918212891E-4,1.702880859E-2
8.650051323E0,-7.095336914E-3,-1.068115234E-4,1.527404785E-2
8.660122123E0,-5.050659180E-3,-1.296997070E-3,1.361083984E-2
8.670223442E0,-3.234863281E-3,-2.059936523E-3,1.226806641E-2
8.680294243E0,-1.495361328E-3,-1.968383789E-3,1.057434082E-2
8.690365043E0,-5.493164062E-4,-1.892089844E-3,1.068115234E-2
8.700435844E0,-4.730224609E-4,-1.922607422E-3,9.521484375E-3
8.710506645E0,-1.342773438E-3,-3.051757812E-3,1.142883301E-2
8.720546928E0,-3.051757812E-3,-4.516601562E-3,1.351928711E-2
8.730983940E0,-4.501342773E-3,-5.966186523E-3,1.426696777E-2
8.740688530E0,-6.393432617E-3,-7.598876953E-3,1.525878906E-2
8.750789848E0,-7.827758789E-3,-8.636474609E-3,1.634216309E-2
8.760830131E0,-8.666992188E-3,-9.490966797E-3,1.757812500E-2
8.770931450E0,-7.461547852E-3,-9.231567383E-3,1.693725586E-2
8.781002250E0,-4.608154297E-3,-8.529663086E-3,1.545715332E-2
8.791042534E0,-7.781982422E-4,-7.431030273E-3,1.348876953E-2
8.801113334E0,2.532958984E-3,-6.423950195E-3,1.194763184E-2
8.811214653E0,6.652832031E-3,-4.776000977E-3,9.918212891E-3
8.821285453E0,1.184082031E-2,-2.059936523E-3,6.698608398E-3
8.831356254E0,1.716613770E-2,3.662109375E-4,3.509521484E-3
8.841396537E0,2.159118652E-2,2.334594727E-3,9.002685547E-4
8.851467338E0,2.586364746E-2,3.936767578E-3,-1.007080078E-3
8.861568657E0,2.862548828E-2,5.096435547E-3,-2.258300781E-3
8.871639457E0,2.932739258E-2,5.691528320E-3,-2.258300781E-3
8.881862846E0,2.931213379E-2,5.874633789E-3,-1.815795898E-3
8.892055717E0,2.850341797E-2,5.874633789E-3,-1.251220703E-3
8.902248588E0,2.804565430E-2,5.996704102E-3,-1.022338867E-3
8.912441459E0,2.725219727E-2,5.767822266E-3,-3.662109375E-4
8.922664848E0,2.468872070E-2,4.852294922E-3,1.098632812E-3
8.932918754E0,2.171325684E-2,3.738403320E-3,2.670288086E-3
8.942928520E0,1.998901367E-2,3.234863281E-3,3.494262695E-3
8.952175346E0,2.001953125E-2,3.326416016E-3,3.723144531E-3
8.962276664E0,2.000427246E-2,3.555297852E-3,3.479003906E-3
8.972316948E0,2.116394043E-2,4.150390625E-3,2.960205078E-3
8.982418266E0,2.214050293E-2,5.020141602E-3,2.090454102E-3
8.992489067E0,2.310180664E-2,5.538940430E-3,1.541137695E-3
9.002590385E0,2.362060547E-2,5.538940430E-3,1.144409180E-3
9.012630668E0,2.510070801E-2,5.615234375E-3,2.136230469E-4
9.022670952E0,2.609252930E-2,5.249023438E-3,-8.697509766E-4
9.032772270E0,2.784729004E-2,4.837036133E-3,-2.029418945E-3
9.042843071E0,2.789306641E-2,4.333496094E-3,-2.563476562E-3
9.052883354E0,2.795410156E-2,3.662109375E-3,-2.929687500E-3
9.062984672E0,2.873229980E-2,3.326416016E-3,-3.723144531E-3
9.073055473E0,3.047180176E-2,4.241943359E-3,-4.776000977E-3
9.083095756E0,3.259277344E-2,6.011962891E-3,-5.966186523E-3
9.093197075E0,3.417968750E-2,7.583618164E-3,-7.080078125E-3
9.103267875E0,3.567504883E-2,9.017944336E-3,-7.965087891E-3
9.113308159E0,3.631591797E-2,9.887695312E-3,-8.529663086E-3
9.123409477E0,3.703308105E-2,1.054382324E-2,-8.941650391E-3
9.133815971E0,3.730773926E-2,1.150512695E-2,-9.124755859E-3
9.143520561E0,3.713989258E-2,1.242065430E-2,-8.926391602E-3
9.153621879E0,3.636169434E-2,1.335144043E-2,-8.209228516E-3
9.163692680E0,3.277587891E-2,1.322937012E-2,-5.859375000E-3
9.173763481E0,2.879333496E-2,1.368713379E-2,-2.746582031E-3
9.183834282E0,8.186340332E-2,4.771423340E-2,-4.318237305E-3
9.193874565E0,1.846313477E-2,2.844238281E-2,1.127624512E-2
9.203975883E0,-5.079650879E-2,1.072692871E-2,4.911804199E-2
9.214046684E0,-1.289978027E-1,-1.196289062E-2,9.684753418E-2
9.224148002E0,-1.970520020E-1,-2.906799316E-2,1.410064697E-1
9.234188285E0,-2.236633301E-1,-2.847290039E-2,1.605529785E-1
9.244259086E0,-1.977081299E-1,-4.196166992E-3,1.453247070E-1
9.254299369E0,-1.167755127E-1,3.819274902E-2,1.042480469E-1
9.264461723E0,-3.532409668E-2,7.777404785E-2,5.772399902E-2
9.274654594E0,2.809143066E-2,1.034851074E-1,1.983642578E-2
9.284847465E0,7.398986816E-2,1.157226562E-1,3.692626953E-3
9.294948784E0,1.196441650E-1,1.267700195E-1,-1.210021973E-2
9.305202690E0,2.090301514E-1,1.504516602E-1,-7.374572754E-2
9.315456596E0,3.248291016E-1,1.793365479E-1,-1.480255127E-1
9.325649467E0,3.851165771E-1,1.833953857E-1,-1.882476807E-1
9.335689750E0,3.675994873E-1,1.585693359E-1,-1.785430908E-1
9.344936577E0,3.046112061E-1,1.271820068E-1,-1.456298828E-1
9.355037895E0,2.428131104E-1,7.937622070E-2,-1.051635742E-1
9.365108696E0,1.691589355E-1,-4.943847656E-3,-6.723022461E-2
9.375179496E0,8.860778809E-2,-1.229553223E-1,-3.340148926E-2
9.385250297E0,-8.544921875E-3,-2.621765137E-1,-5.371093750E-3
9.395290580E0,-7.226562500E-2,-3.870849609E-1,1.158142090E-2
9.405391899E0,-1.159667969E-1,-4.924774170E-1,1.972961426E-2
9.415462700E0,-2.045288086E-1,-6.062316895E-1,6.088256836E-2
9.425533500E0,-3.248748779E-1,-7.307128906E-1,1.443023682E-1
9.435604301E0,-4.511413574E-1,-8.499755859E-1,2.550354004E-1
9.445644584E0,-6.263732910E-1,-9.728240967E-1,3.855895996E-1
9.455715385E0,-7.980041504E-1,-1.079864502E0,5.260620117E-1
9.465786186E0,-9.525299072E-1,-1.169952393E0,6.633758545E-1
9.475887504E0,-1.078155518E0,-1.238998413E0,7.881469727E-1
9.485958305E0,-1.227142334E0,-1.318435669E0,9.040374756E-1
9.495998588E0,-1.388580322E0,-1.409820557E0,1.013137817E0
9.506099907E0,-1.459426880E0,-1.479217529E0,1.102035522E0
9.516170707E0,-1.466766357E0,-1.525039673E0,1.160217285E0
9.526241508E0,-1.442230225E0,-1.551162720E0,1.172302246E0
9.536648002E0,-1.297531128E0,-1.537033081E0,1.118057251E0
9.546352592E0,-1.038848877E0,-1.530670166E0,9.998168945E-1
9.556453910E0,-7.527465820E-1,-1.530914307E0,8.276672363E-1
9.566524711E0,-3.985137939E-1,-1.463745117E0,6.196441650E-1
9.576595512E0,4.972839355E-2,-1.239151001E0,3.842773438E-1
9.586666313E0,5.660247803E-1,-8.804016113E-1,1.589202881E-1
9.596706596E0,1.033889771E0,-5.107574463E-1,-2.072143555E-2
9.606777397E0,1.632675171E0,-1.207427979E-1,-3.470764160E-1
9.616848198E0,2.265502930E0,2.512664795E-1,-7.104644775E-1
9.626949516E0,2.591201782E0,4.895477295E-1,-8.693084717E-1
9.637020317E0,2.441421509E0,5.237731934E-1,-7.249908447E-1
9.647060600E0,2.105102539E0,4.565124512E-1,-4.722137451E-1
9.657161918E0,1.801895142E0,3.972625732E-1,-2.739410400E-1
9.667232719E0,1.648315430E0,3.716125488E-1,-2.187500000E-1
9.677364555E0,1.642593384E0,3.870239258E-1,-2.968292236E-1
9.687557426E0,1.487289429E0,3.596954346E-1,-2.062377930E-1
9.697872368E0,1.318054199E0,3.323364258E-1,-1.034393311E-1
9.708065239E0,1.296478271E0,3.464050293E-1,-1.504058838E-1
9.718166557E0,1.423278809E0,3.918151855E-1,-3.315429688E-1
9.728389946E0,1.608810425E0,4.480285645E-1,-5.290069580E-1
9.738460746E0,1.720046997E0,4.816284180E-1,-6.546630859E-1
9.747768608E0,1.663330078E0,4.664764404E-1,-6.731719971E-1
9.757839409E0,1.513092041E0,4.134674072E-1,-6.346282959E-1
9.767940727E0,1.441635132E0,3.706970215E-1,-6.832427979E-1
9.777981010E0,1.452774048E0,3.360290527E-1,-7.673645020E-1
9.788051811E0,1.283523560E0,2.553710938E-1,-7.596740723E-1
9.798122612E0,1.024276733E0,1.528778076E-1,-6.567077637E-1
9.808193412E0,7.494659424E-1,4.698181152E-2,-4.954376221E-1
9.818264213E0,5.117797852E-1,-5.136108398E-2,-3.408660889E-1
9.828335014E0,3.850708008E-1,-7.424926758E-2,-2.810363770E-1
9.838405815E0,-5.614318848E-1,-9.804534912E-1,6.681823730E-1
9.848507133E0,-1.273025513E0,-1.662887573E0,1.334899902E0
9.858577934E0,-1.437591553E0,-1.753784180E0,1.382812500E0
9.868648735E0,-1.534240723E0,-1.808731079E0,1.352066040E0
9.878719535E0,-1.469772339E0,-1.957702637E0,1.175827026E0
9.888790336E0,-1.236129761E0,-1.996002197E0,8.796997070E-1
9.898861137E0,-9.177551270E-1,-1.808074951E0,5.690765381E-1
9.908901420E0,-6.869354248E-1,-1.523681641E0,3.576507568E-1
9.918972221E0,-6.065216064E-1,-1.300704956E0,2.845306396E-1
9.929073539E0,-4.584350586E-1,-1.126266479E0,1.790008545E-1
9.939480034E0,-4.300994873E-1,-1.033828735E0,1.766510010E-1
9.949215141E0,-4.552612305E-1,-9.351043701E-1,2.535552979E-1
9.959255424E0,-4.862213135E-1,-7.984619141E-1,3.199768066E-1
9.969356743E0,-4.530029297E-1,-6.456298828E-1,3.027496338E-1
9.979397026E0,-8.288879395E-1,-6.050415039E-1,7.505950928E-1
9.989467827E0,-1.193710327E0,-5.743865967E-1,1.225387573E0
1.000069830E1,-1.616058350E0,-5.785064697E-1,1.788986206E0
1.000963995E1,-1.841766357E0,-5.347290039E-1,2.161071777E0
1.001971075E1,-1.790069580E0,-4.659271240E-1,2.156112671E0
1.002978155E1,-1.520004272E0,-3.785552979E-1,1.867492676E0
1.003982183E1,-1.174606323E0,-2.358398438E-1,1.488815308E0
1.004992315E1,-7.398071289E-1,-7.261657715E-2,1.052276611E0
1.005999395E1,-2.707977295E-1,1.038360596E-1,6.080627441E-1
1.007006475E1,1.216888428E-1,2.846069336E-1,2.167205811E-1
1.008025762E1,4.098968506E-1,4.568023682E-1,-8.905029297E-2
1.009045049E1,6.139221191E-1,5.882415771E-1,-2.780761719E-1
1.010064336E1,7.190399170E-1,6.549835205E-1,-3.550415039E-1
1.011083624E1,8.389129639E-1,6.799011230E-1,-5.596466064E-1
1.012102911E1,1.079879761E0,6.883544922E-1,-8.814697266E-1
1.013122198E1,1.226730347E0,6.651916504E-1,-1.150192261E0
1.014144537E1,1.286468506E0,5.981597900E-1,-1.303482056E0
1.015142461E1,1.263717651E0,4.988250732E-1,-1.335388184E0
1.016070196E1,1.198959351E0,4.505004883E-1,-1.281051636E0
1.017077276E1,1.093612671E0,4.514617920E-1,-1.167373657E0
1.018084356E1,1.008041382E0,4.804687500E-1,-1.066818237E0
1.019091436E1,9.152984619E-1,4.139404297E-1,-9.962463379E-1
1.020095464E1,8.271331787E-1,2.407226562E-1,-9.684600830E-1
1.021102544E1,7.725067139E-1,9.475708008E-3,-9.824829102E-1
1.022112676E1,7.731018066E-1,-1.997222900E-1,-1.041778564E0
1.023119756E1,8.395080566E-1,-3.407897949E-1,-1.158966064E0
1.024126836E1,9.832763672E-1,-4.297332764E-1,-1.349548340E0
1.025130865E1,1.188537598E0,-4.652557373E-1,-1.584075928E0
1.026137945E1,1.455291748E0,-3.722229004E-1,-1.859527588E0
1.027145025E1,1.731185913E0,-1.777038574E-1,-2.111724854E0
1.028152105E1,1.951553345E0,-1.957702637E-2,-2.262969971E0
1.029159185E1,2.017562866E0,5.970764160E-2,-2.269424438E0
1.030169317E1,2.012100220E0,1.286773682E-1,-2.178100586E0
1.031173345E1,1.676422119E0,2.499847412E-1,-1.763900757E0
1.032180425E1,1.424346924E0,5.566864014E-1,-1.485931396E0
1.033187505E1,1.144180298E0,9.161682129E-1,-1.221481323E0
1.034209844E1,7.502593994E-1,1.006744385E0,-8.410644531E-1
1.035204717E1,3.255157471E-1,1.004669189E0,-4.021606445E-1
1.036208746E1,-6.126403809E-2,1.157943726E0,-2.624511719E-2
1.037206670E1,-5.097808838E-1,1.546356201E0,4.120178223E-1
1.038222906E1,-1.015045166E0,1.831176758E0,9.621124268E-1
1.039233038E1,-1.082168579E0,1.661285400E0,1.148284912E0
1.040240118E1,-8.886413574E-1,1.488952637E0,1.066299438E0
1.041247198E1,-9.204254150E-1,1.386016846E0,1.162979126E0
1.042251226E1,-1.213073730E0,1.305252075E0,1.473648071E0
1.043258306E1,-1.216140747E0,1.292984009E0,1.515228271E0
1.044265386E1,-8.532562256E-1,1.203674316E0,1.217391968E0
1.045272466E1,-5.741577148E-1,1.173339844E0,9.610290527E-1
1.046282598E1,-3.500976562E-1,1.219451904E0,7.275390625E-1
1.047289678E1,-1.555480957E-1,1.344451904E0,5.142364502E-1
1.048293706E1,7.797241211E-3,1.536575317E0,3.546752930E-1
1.049312994E1,1.191711426E-2,1.714111328E0,3.152465820E-1
1.050332281E1,-6.536865234E-2,1.785064697E0,3.632354736E-1
1.051351568E1,-1.629486084E-1,1.714904785E0,4.062652588E-1
1.052370855E1,-2.515869141E-1,1.586654663E0,4.425048828E-1
1.053393194E1,-4.203796387E-1,1.414245605E0,5.856018066E-1
1.054412481E1,-8.197937012E-1,1.173583984E0,9.348907471E-1
1.055428716E1,-1.287551880E0,8.928833008E-1,1.319351196E0
1.056432745E1,-1.629730225E0,6.952056885E-1,1.627639771E0
1.057360479E1,-1.820831299E0,4.894561768E-1,1.786010742E0
1.058367559E1,-1.723815918E0,1.836547852E-1,1.632369995E0
1.059374639E1,-1.505432129E0,-9.564208984E-2,1.349533081E0
1.060381719E1,-1.216949463E0,-3.047485352E-1,1.011886597E0
1.061385748E1,-8.766479492E-1,-7.141113281E-1,6.235351562E-1
1.062392828E1,-5.322265625E-1,-1.181671143E0,1.796569824E-1
1.063402959E1,-2.315673828E-1,-1.382156372E0,-2.088165283E-1
1.064410040E1,-7.130432129E-2,-1.407363892E0,-4.531860352E-1
1.065417120E1,4.020690918E-2,-1.484130859E0,-6.654510498E-1
1.066424200E1,6.420898438E-2,-1.591476440E0,-8.009948730E-1
1.067428228E1,-1.237792969E-1,-1.551620483E0,-6.946868896E-1
1.068435308E1,-2.644500732E-1,-1.374343872E0,-5.251159668E-1
1.069445440E1,-4.478454590E-1,-1.319076538E0,-3.551483154E-1
1.070449468E1,-7.669982910E-1,-1.417892456E0,-8.239746094E-2
1.071459600E1,-1.575942993E0,-1.683975220E0,5.265502930E-1
1.072466680E1,-2.481399536E0,-2.014099121E0,1.150939941E0
1.073470708E1,-2.792633057E0,-2.072372437E0,1.387481689E0
1.074514410E1,-2.857620239E0,-2.033554077E0,1.441940308E0
1.075484869E1,-2.640548706E0,-1.756988525E0,1.374313354E0
1.076495000E1,-2.090301514E0,-1.274291992E0,1.134826660E0
1.077502080E1,-1.543426514E0,-8.615875244E-1,8.313446045E-1
1.078509161E1,-1.029235840E0,-5.901031494E-1,5.251159668E-1
1.079513189E1,-6.567993164E-1,-4.249572754E-1,2.894287109E-1
1.080520269E1,-4.591522217E-1,-3.053588867E-1,1.611328125E-1
1.081530401E1,-3.092041016E-1,-1.976165771E-1,1.056976318E-1
1.082537481E1,-6.668090820E-3,-7.484436035E-2,-7.058715820E-2
1.083544561E1,4.954833984E-1,7.485961914E-2,-3.843231201E-1
1.084548589E1,1.035339355E0,2.209014893E-1,-7.275695801E-1
1.085555669E1,1.357894897E0,3.071441650E-1,-9.440002441E-1
1.086562749E1,1.416458130E0,3.293457031E-1,-9.760589600E-1
1.087574022E1,1.350982666E0,3.373718262E-1,-8.933410645E-1
1.088581102E1,1.250320435E0,3.574829102E-1,-7.502899170E-1
1.089585130E1,1.158462524E0,3.880920410E-1,-5.992736816E-1
1.090598314E1,1.165710449E0,4.443969727E-1,-4.905700684E-1
1.091614549E1,1.198303223E0,5.015563965E-1,-4.198760986E-1
1.092636888E1,1.231567383E0,5.669860840E-1,-3.846588135E-1
1.093656175E1,1.369277954E0,6.453704834E-1,-4.052429199E-1
1.094678514E1,1.447479248E0,7.095489502E-1,-4.414520264E-1
1.095697801E1,1.481033325E0,7.651977539E-1,-4.906005859E-1
1.096714036E1,1.527984619E0,7.178039551E-1,-5.650329590E-1
1.097721116E1,1.522491455E0,5.842590332E-1,-6.149139404E-1
1.098737352E1,1.405090332E0,4.473266602E-1,-5.585479736E-1
1.099658982E1,1.123733521E0,1.380615234E-1,-3.735961914E-1
1.100666062E1,3.461914062E-1,-1.031082153E0,1.582489014E-1
1.101673143E1,-3.190307617E-1,-1.423339844E0,7.593994141E-1
1.102677171E1,-6.031951904E-1,-1.323318481E0,1.089950562E0
1.103687303E1,-4.874267578E-1,-1.042221069E0,1.102920532E0
1.104694383E1,-1.608581543E-1,-7.135162354E-1,9.271697998E-1
1.105701463E1,1.639709473E-1,-4.107666016E-1,6.829833984E-1
1.106705491E1,4.633941650E-1,-1.558227539E-1,4.402465820E-1
1.107715623E1,6.534729004E-1,5.691528320E-3,2.479248047E-1
1.108722703E1,7.542114258E-1,4.429626465E-2,1.224975586E-1
1.109726731E1,7.856140137E-1,-2.127075195E-2,2.420043945E-2
1.110736863E1,9.202575684E-1,-8.053588867E-2,-1.443481445E-1
1.111743943E1,1.093170166E0,-1.162872314E-1,-3.716278076E-1
1.112751023E1,1.318344116E0,-1.240844727E-1,-6.457672119E-1
1.113755052E1,1.564071655E0,-8.610534668E-2,-9.242095947E-1
1.114798753E1,1.679534912E0,-5.210876465E-2,-1.138641357E0
1.115769212E1,1.806198120E0,-1.060180664E-1,-1.369659424E0
1.116779344E1,1.916183472E0,-1.976776123E-1,-1.581680298E0
1.117786424E1,1.887786865E0,-2.097167969E-1,-1.643402100E0
1.118790452E1,1.809509277E0,-1.822204590E-1,-1.653930664E0
1.119797532E1,1.729507446E0,-1.421508789E-1,-1.606384277E0
1.120804612E1,1.578018188E0,-8.497619629E-2,-1.475296021E0
1.121811692E1,1.351486206E0,-4.670715332E-2,-1.285781860E0
1.122821824E1,1.195281982E0,-4.693603516E-2,-1.138839722E0
1.123828904E1,1.059509277E0,2.809143066E-2,-1.036087036E0
1.124832933E1,1.003143311E0,4.974517822E-1,-1.126068115E0
1.125840013E1,1.251785278E0,8.490753174E-1,-1.653900146E0
1.126850144E1,1.389221191E0,6.977233887E-1,-1.916854858E0
1.127857225E1,1.547134399E0,3.842010498E-1,-2.151840210E0
1.128864305E1,1.723709106E0,-9.512329102E-2,-2.281356812E0
1.129868333E1,1.923156738E0,-6.523437500E-1,-2.311767578E0
1.130878465E1,2.107528687E0,-1.080047607E0,-2.303451538E0
1.131894700E1,2.175537109E0,-1.317138672E0,-2.239959717E0
1.132913987E1,1.948699951E0,-1.266601562E0,-1.984909058E0
1.133933274E1,1.825332642E0,-1.176284790E0,-1.891799927E0
1.134952562E1,1.603210449E0,-1.071533203E0,-1.706787109E0
1.135971849E1,1.346313477E0,-9.503479004E-1,-1.455474854E0
1.136994188E1,8.315582275E-1,-8.551788330E-1,-8.386535645E-1
1.138013475E1,8.500671387E-2,-7.819366455E-1,1.183013916E-1
1.139017503E1,-7.585296631E-1,-6.674041748E-1,1.219741821E0
1.139942186E1,-1.964309692E0,-5.012054443E-1,2.669494629E0
1.140949266E1,-3.603485107E0,-3.396759033E-1,4.638717651E0
1.141956346E1,-4.177688599E0,-2.218475342E-1,5.272598267E0
1.142960374E1,-3.822204590E0,-2.452545166E-1,4.727035522E0
1.143967454E1,-3.657928467E0,-2.879333496E-1,4.413497925E0
1.144974534E1,-3.417892456E0,-2.499847412E-1,3.977005005E0
1.145984666E1,-3.012588501E0,-2.141876221E-1,3.369918823E0
1.146991746E1,-2.662567139E0,-3.513946533E-1,2.791687012E0
1.147995774E1,-2.325027466E0,-5.778503418E-1,2.267761230E0
1.149002855E1,-2.050872803E0,-7.472991943E-1,1.828445435E0
1.150012986E1,-1.771209717E0,-7.205810547E-1,1.443878174E0
1.151017015E1,-1.450317383E0,-4.557952881E-1,1.098770142E0
1.152027146E1,-1.166870117E0,-8.876037598E-2,8.391723633E-1
1.153034227E1,-9.896240234E-1,2.481994629E-1,6.931762695E-1
1.154041307E1,-8.177185059E-1,5.055236816E-1,5.669403076E-1
1.155081956E1,-6.308288574E-1,8.132171631E-1,4.184417725E-1
1.156052415E1,-4.512481689E-1,1.209686279E0,2.991485596E-1
1.157062547E1,-4.336547852E-1,1.375869751E0,2.916717529E-1
1.158069627E1,-5.237579346E-1,1.233352661E0,3.142089844E-1
1.159073655E1,-5.616149902E-1,9.227447510E-1,2.379608154E-1
1.160080735E1,-4.647369385E-1,5.822143555E-1,3.982543945E-3
1.161090867E1,-1.743774414E-1,3.173828125E-1,-4.097747803E-1
1.162097947E1,4.272155762E-1,2.627410889E-1,-1.050552368E0
1.163101976E1,1.265487671E0,4.266967773E-1,-1.841888428E0
1.164112107E1,2.255691528E0,6.468658447E-1,-2.750473022E0
1.165119188E1,3.228240967E0,8.470611572E-1,-3.585250854E0
1.166123216E1,3.611602783E0,9.204101562E-1,-3.791503906E0
1.167130296E1,3.434860229E0,9.281463623E-1,-3.481399536E0
1.168140428E1,3.287292480E0,9.953308105E-1,-3.230819702E0
1.169147508E1,2.728027344E0,8.644409180E-1,-2.626281738E0
1.170154588E1,1.623764038E0,1.311569214E0,-1.730529785E0
1.171161668E1,1.651916504E-1,1.870910645E0,-6.019134521E-1
1.172171800E1,-1.010025024E0,1.873626709E0,3.666534424E-1
1.173191087E1,-1.367858887E0,1.564056396E0,7.433776855E-1
1.174210374E1,-1.445693970E0,1.303237915E0,8.724060059E-1
1.175229661E1,-1.608123779E0,1.185729980E0,1.010162354E0
1.176248948E1,-1.690704346E0,1.122665405E0,1.072006226E0
1.177271287E1,-1.506744385E0,1.086196899E0,9.469451904E-1
1.178290574E1,-1.312072754E0,1.002899170E0,8.428649902E-1
1.179297654E1,-1.112426758E0,8.954620361E-1,7.380981445E-1
1.180307786E1,-9.148254395E-1,8.095855713E-1,6.266632080E-1
1.181232469E1,-7.746276855E-1,8.022766113E-1,5.356750488E-1
1.182239549E1,-6.708221436E-1,8.442230225E-1,4.704132080E-1
1.183243577E1,-6.085662842E-1,9.240264893E-1,4.382934570E-1
1.184253709E1,-5.982818604E-1,1.027862549E0,4.473876953E-1
1.185260789E1,-6.195983887E-1,1.061599731E0,4.887390137E-1
1.186267869E1,-9.050903320E-1,1.063491821E0,7.009887695E-1
1.187271898E1,-1.169113159E0,7.195739746E-1,8.688507080E-1
1.188278978E1,-1.449890137E0,4.647064209E-1,1.058242798E0
1.189289109E1,-1.789459229E0,4.003906250E-1,1.319427490E0
1.190296190E1,-2.066757202E0,5.152282715E-1,1.567077637E0
1.191300218E1,-1.882568359E0,5.766296387E-1,1.462402344E0
1.192307298E1,-1.593841553E0,4.321289062E-1,1.217163086E0
1.193317430E1,-1.316452026E0,2.484436035E-1,9.674377441E-1
1.194324510E1,-9.421081543E-1,1.008758545E-1,6.592559814E-1
1.195365159E1,-8.449859619E-1,-9.349822998E-1,3.097991943E-1
1.196335618E1,-6.535186768E-1,-2.044982910E0,-1.680297852E-1
1.197345750E1,-4.935302734E-1,-2.123092651E0,-3.872985840E-1
1.198352830E1,-6.004180908E-1,-1.834869385E0,-3.037719727E-1
1.199359910E1,-8.815917969E-1,-1.843704224E0,-1.710510254E-1
1.200363939E1,-1.022308350E0,-1.883270264E0,-1.269683838E-1
1.201374070E1,-9.277191162E-1,-1.792907715E0,-1.603851318E-1
1.202381150E1,-7.928161621E-1,-1.620605469E0,-1.925048828E-1
1.203385179E1,-6.433715820E-1,-1.452606201E0,-2.213439941E-1
1.204392259E1,-4.503326416E-1,-1.216293335E0,-2.644500732E-1
1.205399339E1,-1.016082764E-1,-8.994293213E-1,-3.414154053E-1
1.206409471E1,1.163330078E-1,-6.403961182E-1,-3.805694580E-1
1.207416551E1,2.752380371E-1,-4.745178223E-1,-3.883209229E-1
1.208420579E1,4.011688232E-1,-3.618164062E-1,-3.774566650E-1
1.209427659E1,4.462738037E-1,-2.066955566E-1,-2.970886230E-1
1.210437791E1,4.405670166E-1,3.849792480E-2,-1.590270996E-1
1.211444871E1,3.959808350E-1,3.515625000E-1,-8.438110352E-3
1.212448899E1,3.111877441E-1,5.721435547E-1,1.301422119E-1
1.213462083E1,1.791381836E-1,5.547485352E-1,2.353363037E-1
1.214481370E1,9.867858887E-2,3.772277832E-1,2.580413818E-1
1.215503709E1,8.915710449E-2,1.905212402E-1,2.509765625E-1
1.216516893E1,1.483154297E-1,1.023254395E-1,2.367858887E-1
1.217542283E1,2.600097656E-1,1.254272461E-1,2.106933594E-1
1.218561570E1,3.482666016E-1,1.884613037E-1,1.718444824E-1
1.219580857E1,4.284667969E-1,1.999359131E-1,1.131134033E-1
1.220587938E1,4.711303711E-1,1.045684814E-1,6.317138672E-2
1.221601121E1,5.077667236E-1,-9.036254883E-2,-8.926391602E-3
1.222522752E1,5.088806152E-1,-3.561859131E-1,-9.796142578E-2
1.223529832E1,5.623168945E-1,-6.177368164E-1,-2.062683105E-1
1.224533860E1,6.192932129E-1,-8.468780518E-1,-2.929992676E-1
1.225540940E1,8.253479004E-1,-9.050750732E-1,-4.831085205E-1
1.226551072E1,6.919860840E-1,-9.829864502E-1,-3.899536133E-1
1.227558152E1,4.535369873E-1,-6.713256836E-1,-1.216583252E-1
1.228565232E1,4.132843018E-1,-4.076843262E-1,-3.913879395E-2
1.229569261E1,4.135284424E-1,-2.550048828E-1,-1.072692871E-2
1.230576341E1,4.735412598E-1,-1.753387451E-1,-3.942871094E-2
1.231586473E1,6.083068848E-1,-6.761169434E-2,-1.219635010E-1
1.232593553E1,7.246856689E-1,-5.584716797E-3,-1.920013428E-1
1.233597581E1,9.412078857E-1,4.953002930E-2,-3.699188232E-1
1.234604661E1,1.214691162E0,8.674621582E-2,-6.103210449E-1
1.235648362E1,1.455810547E0,7.400512695E-2,-8.390350342E-1
1.236621873E1,1.578125000E0,2.220153809E-2,-9.820251465E-1
1.237628953E1,1.637390137E0,-2.546691895E-2,-1.045303345E0
1.238632981E1,1.643310547E0,-7.012939453E-2,-1.066101074E0
1.239643113E1,1.616683960E0,-7.148742676E-2,-1.083175659E0
1.240650193E1,1.636016846E0,2.746582031E-3,-1.133529663E0
1.241657273E1,1.634475708E0,9.840393066E-2,-1.170364380E0
1.242661302E1,1.640808105E0,1.951446533E-1,-1.181976318E0
1.243668382E1,1.606903076E0,2.732543945E-1,-1.155899048E0
1.244678514E1,1.543090820E0,3.002319336E-1,-1.112991333E0
1.245685594E1,1.429748535E0,4.062500000E-1,-1.075881958E0
1.246689622E1,1.391082764E0,6.302490234E-1,-1.120178223E0
1.247696702E1,1.377960205E0,8.522796631E-1,-1.210968018E0
1.248706834E1,1.351348877E0,9.804534912E-1,-1.250137329E0
1.249713914E1,1.307052612E0,1.025939941E0,-1.285079956E0
1.250717942E1,1.291122437E0,9.794464111E-1,-1.396789551E0
1.251725023E1,1.469360352E0,7.821044922E-1,-1.578720093E0
1.252729051E1,1.605514526E0,4.387817383E-1,-1.644149780E0
1.253730027E1,1.652374268E0,1.468658447E-1,-1.632324219E0
1.254758470E1,1.761154175E0,-1.084747314E-1,-1.688659668E0
1.255777757E1,1.773925781E0,-3.535919189E-1,-1.653015137E0
1.256797044E1,1.702621460E0,-4.784851074E-1,-1.521148682E0
1.257816331E1,1.582244873E0,-3.964233398E-1,-1.362350464E0
1.258829515E1,1.311309814E0,-3.633880615E-1,-9.801940918E-1
1.259857957E1,7.992095947E-1,-3.509368896E-1,-3.264923096E-1
1.260874192E1,-8.053588867E-2,-4.328308105E-1,5.707702637E-1
1.261875169E1,-1.209426880E0,-4.877166748E-1,1.573120117E0
1.262805955E1,-2.467758179E0,-5.102539062E-1,2.612319946E0
1.263813035E1,-3.289566040E0,-5.988769531E-1,3.253463745E0
1.264820115E1,-3.753051758E0,-8.055267334E-1,3.579711914E0
1.265827195E1,-3.963516235E0,-8.982086182E-1,3.589355469E0
1.266834275E1,-3.798950195E0,-8.755340576E-1,3.236572266E0
1.267838304E1,-3.463409424E0,-1.028442383E0,2.740188599E0
1.268845384E1,-3.173004150E0,-1.440383911E0,2.305816650E0
1.269855516E1,-2.897415161E0,-1.585952759E0,1.896072388E0
1.270862596E1,-2.760345459E0,-1.727844238E0,1.618209839E0
1.271866624E1,-2.615844727E0,-1.742004395E0,1.421813965E0
1.272873704E1,-2.601577759E0,-1.694229126E0,1.310073853E0
1.273883836E1,-2.534729004E0,-1.592193604E0,1.183258057E0
1.274890916E1,-2.392807007E0,-1.376495361E0,1.064880371E0
1.275931565E1,-2.155975342E0,-1.091842651E0,8.658752441E-1
1.276902024E1,-1.892150879E0,-8.170928955E-1,6.868591309E-1
1.277912156E1,-1.587158203E0,-4.930114746E-1,5.436553955E-1
1.278916185E1,-1.359542847E0,-1.318511963E-1,4.579010010E-1
1.279923265E1,-9.123077393E-1,3.857269287E-1,2.785797119E-1
1.280933396E1,2.959442139E-1,1.566284180E0,-4.175109863E-1
1.281940477E1,9.601593018E-1,2.080734253E0,-8.776550293E-1
1.282947557E1,9.488830566E-1,1.702697754E0,-9.853515625E-1
1.283951585E1,4.673309326E-1,1.257705688E0,-6.916351318E-1
1.284958665E1,2.291412354E-1,9.822692871E-1,-5.456542969E-1
1.285968797E1,3.276519775E-1,8.256988525E-1,-6.286315918E-1
1.286975877E1,6.291809082E-1,7.714385986E-1,-8.277893066E-1
1.287982957E1,9.802856445E-1,8.252868652E-1,-1.033355713E0
1.288986985E1,1.213195801E0,1.078430176E0,-1.115524292E0
1.289997117E1,1.702514648E0,2.306869507E0,-1.239471436E0
1.291004197E1,1.390106201E0,3.100280762E0,-8.362579346E-1
1.292008226E1,7.719268799E-1,3.101669312E0,-3.205108643E-1
1.293015306E1,3.738250732E-1,2.522384644E0,-6.794738770E-2
1.294022386E1,1.744232178E-1,2.212905884E0,5.979919434E-2
1.295032518E1,-6.607055664E-2,1.960754395E0,2.412719727E-1
1.296051805E1,-3.331756592E-1,1.710525513E0,4.172515869E-1
1.297071092E1,-4.845123291E-1,1.491104126E0,5.029296875E-1
1.298096482E1,-5.508270264E-1,1.302124023E0,5.326080322E-1
1.299109666E1,-5.694885254E-1,1.128509521E0,5.103607178E-1
1.300128953E1,-4.970092773E-1,1.018585205E0,4.504699707E-1
1.301148240E1,-4.181060791E-1,9.897308350E-1,3.745880127E-1
1.302167527E1,-4.026947021E-1,9.678955078E-1,2.942962646E-1
1.303168504E1,-4.492645264E-1,8.436889648E-1,2.152404785E-1
1.304093187E1,-5.388336182E-1,6.329803467E-1,1.473541260E-1
1.305103318E1,-6.706237793E-1,4.343261719E-1,1.351776123E-1
1.306107347E1,-1.042816162E0,3.315277100E-1,3.892974854E-1
1.307117478E1,-1.120010376E0,2.527313232E-1,4.342041016E-1
1.308124559E1,-1.003982544E0,1.000976562E-1,3.319244385E-1
1.309128587E1,-8.043518066E-1,-2.485656738E-2,1.738128662E-1
1.310135667E1,-7.549133301E-1,-2.072906494E-1,6.300354004E-2
1.311142747E1,-7.609710693E-1,-3.945617676E-1,-4.272460938E-4
1.312149827E1,-9.124298096E-1,-6.389160156E-1,-2.639770508E-3
1.313159959E1,-1.267028809E0,-1.150802612E0,7.675170898E-2
1.314167039E1,-2.061416626E0,-2.165206909E0,2.505493164E-1
1.315171067E1,-3.043960571E0,-3.176132202E0,4.316558838E-1
1.316214769E1,-3.355712891E0,-3.176544189E0,5.244140625E-1
1.317188279E1,-3.300765991E0,-2.842559814E0,5.317230225E-1
1.318192308E1,-3.185989380E0,-2.503707886E0,5.422363281E-1
1.319202440E1,-3.232315063E0,-2.160095215E0,7.097015381E-1
1.320209520E1,-3.125015259E0,-1.783813477E0,8.582153320E-1
1.321216600E1,-2.716140747E0,-1.368515015E0,8.333435059E-1
1.322220628E1,-2.287124634E0,-1.053405762E0,7.065887451E-1
1.323230760E1,-1.938598633E0,-8.891448975E-1,5.976409912E-1
1.324237840E1,-1.816253662E0,-7.908477783E-1,6.304779053E-1
1.325244920E1,-1.762145996E0,-6.955871582E-1,7.085418701E-1
1.326248948E1,-1.581680298E0,-6.256866455E-1,7.232971191E-1
1.327259080E1,-1.441650391E0,-6.074981689E-1,6.974029541E-1
1.328266160E1,-1.406127930E0,-6.593322754E-1,6.733245850E-1
1.329273240E1,-1.610275269E0,-8.611907959E-1,7.120819092E-1
1.330277269E1,-1.878692627E0,-1.104156494E0,7.678375244E-1
1.331287400E1,-1.742187500E0,-1.110534668E0,7.175598145E-1
1.332294480E1,-1.133605957E0,-8.255615234E-1,5.245513916E-1
1.333298509E1,-1.424102783E-1,-3.353118896E-1,2.093353271E-1
1.334305589E1,6.523590088E-1,4.667663574E-2,-4.588317871E-2
1.335315721E1,1.190536499E0,2.509002686E-1,-2.596588135E-1
1.336338060E1,1.525711060E0,3.004150391E-1,-4.631042480E-1
1.337357347E1,2.193374634E0,6.281585693E-1,-7.493133545E-1
1.338376634E1,2.897537231E0,1.104431152E0,-9.862823486E-1
1.339395921E1,3.326782227E0,1.490509033E0,-1.080078125E0
1.340418260E1,3.226898193E0,1.527816772E0,-9.812011719E-1
1.341434495E1,2.734664917E0,1.251296997E0,-7.274475098E-1
1.342444627E1,1.695251465E0,5.589599609E-1,-2.287292480E-1
1.343457811E1,7.699890137E-1,-2.291107178E-1,1.579589844E-1
1.344376390E1,1.967926025E-1,-7.793884277E-1,3.899993896E-1
1.345383470E1,1.191711426E-1,-9.664916992E-1,3.894042969E-1
1.346390550E1,5.181884766E-1,-7.887268066E-1,1.629180908E-1
1.347400682E1,1.220870972E0,-3.766937256E-1,-2.143249512E-1
1.348404710E1,1.803268433E0,5.274963379E-2,-4.967956543E-1
1.349411790E1,2.056655884E0,3.214721680E-1,-5.553894043E-1
1.350418870E1,2.172180176E0,4.445648193E-1,-6.152496338E-1
1.351429002E1,2.309707642E0,4.756622314E-1,-7.554473877E-1
1.352433030E1,2.447753906E0,4.759979248E-1,-9.196166992E-1
1.353440110E1,2.571395874E0,4.803619385E-1,-1.049133301E0
1.354447190E1,2.599624634E0,4.683227539E-1,-1.095260620E0
1.355457322E1,2.468383789E0,4.176025391E-1,-1.036041260E0
1.356497972E1,2.244964600E0,3.228759766E-1,-9.042663574E-1
1.357471482E1,2.023757935E0,1.592864990E-1,-7.570648193E-1
1.358475511E1,1.718750000E0,-6.982421875E-2,-6.000213623E-1
1.359482591E1,1.487594604E0,-2.628326416E-1,-5.099182129E-1
1.360492723E1,1.408370972E0,-3.585052490E-1,-5.160064697E-1
1.361499803E1,1.398117065E0,-3.521881104E-1,-5.892486572E-1
1.362506883E1,1.550308228E0,-2.788238525E-1,-7.928771973E-1
1.363510911E1,1.860382080E0,-1.480865479E-1,-1.181442261E0
1.364517991E1,2.277877808E0,8.407592773E-2,-1.694564819E0
1.365528123E1,2.530395508E0,4.123229980E-1,-2.074508667E0
1.366535203E1,2.474609375E0,6.217956543E-1,-2.155670166E0
1.367539231E1,2.461959839E0,8.023529053E-1,-2.278381348E0
1.368540208E1,2.394454956E0,9.045715332E-1,-2.366775513E0
1.369556443E1,2.287872314E0,8.504943848E-1,-2.374923706E0
1.370560472E1,2.105178833E0,5.919647217E-1,-2.221389771E0
1.371570604E1,1.792678833E0,1.419830322E-1,-1.885528564E0
1.372574632E1,1.446319580E0,-3.921356201E-1,-1.433746338E0
1.373581712E1,1.124191284E0,-8.070373535E-1,-9.686279297E-1
1.374588792E1,8.763885498E-1,-1.087005615E0,-6.447906494E-1
1.375605027E1,6.141357422E-1,-1.335601807E0,-3.510284424E-1
1.376624314E1,2.655944824E-1,-1.525482178E0,-4.177856445E-2
1.377643602E1,-5.168151855E-2,-1.578842163E0,1.689300537E-1
1.378662889E1,-5.447235107E-1,-1.594772339E0,5.696563721E-1
1.379682176E1,-1.102615356E0,-1.580764771E0,1.085327148E0
1.380701463E1,-1.651016235E0,-1.482543945E0,1.669677734E0
1.381720750E1,-2.294174194E0,-1.379470825E0,2.317855835E0
1.382727830E1,-2.777175903E0,-1.191558838E0,2.824996948E0
1.383652513E1,-3.156768799E0,-6.047668457E-1,3.168975830E0
1.384662644E1,-3.356338501E0,-6.922912598E-2,3.348968506E0
1.385669725E1,-3.352859497E0,1.186981201E-1,3.296356201E0
1.386676805E1,-3.232086182E0,4.393005371E-2,3.016601562E0
1.387680833E1,-3.041839600E0,-2.682495117E-2,2.665435791E0
1.388687913E1,-2.956649780E0,-2.633819580E-1,2.353988647E0
1.389698045E1,-2.903381348E0,-5.734863281E-1,2.026702881E0
1.390705125E1,-2.740768433E0,-8.268890381E-1,1.645462036E0
1.391709153E1,-2.658584595E0,-1.128692627E0,1.286178589E0
1.392719285E1,-2.638626099E0,-1.483459473E0,9.327239990E-1
1.393726365E1,-2.610671997E0,-1.662643433E0,6.517486572E-1
1.394733445E1,-2.562286377E0,-1.594009399E0,4.996337891E-1
1.395737474E1,-2.393356323E0,-1.347366333E0,3.932342529E-1
1.396781175E1,-2.032745361E0,-9.988098145E-1,1.992340088E-1
1.397754686E1,-1.521972656E0,-5.586853027E-1,-9.867858887E-2
1.398761766E1,-1.227966309E0,-2.133483887E-1,-2.013549805E-1
1.399768846E1,-1.112548828E0,4.287719727E-2,-1.386260986E-1
1.400775926E1,-6.905822754E-1,4.675598145E-1,-2.538757324E-1
1.401779954E1,3.605041504E-1,1.296310425E0,-7.286682129E-1
1.402787034E1,1.123291016E0,1.904418945E0,-1.071426392E0
1.403797166E1,9.258575439E-1,1.654541016E0,-9.322814941E-1
1.404804246E1,3.468322754E-1,1.216445923E0,-5.279235840E-1
1.405808274E1,7.101440430E-2,9.160461426E-1,-3.787689209E-1
1.406815355E1,1.528778076E-1,7.112884521E-1,-4.762725830E-1
1.407822435E1,4.353942871E-1,6.345825195E-1,-6.770629883E-1
1.408832566E1,1.431533813E0,1.312026978E0,-1.179077148E0
1.409839646E1,2.389572144E0,2.154510498E0,-1.623123169E0
1.410846727E1,2.383758545E0,2.416763306E0,-1.445281982E0
1.411850755E1,1.963470459E0,2.369918823E0,-1.021560669E0
1.412860887E1,1.589172363E0,2.638626099E0,-5.082092285E-1
1.413867967E1,1.023406982E0,2.866989136E0,1.526641846E-1
1.414875047E1,5.188446045E-1,2.420181274E0,4.875030518E-1
1.415888230E1,4.488983154E-1,2.146499634E0,4.516448975E-1
1.416907518E1,3.844757080E-1,2.013412476E0,4.796447754E-1
1.417926805E1,1.984710693E-1,1.953094482E0,6.296844482E-1
1.418946092E1,1.625976562E-1,1.955795288E0,6.803741455E-1
1.419968431E1,2.796478271E-1,1.931472778E0,5.816040039E-1
1.420987718E1,2.752380371E-1,1.769302368E0,5.080566406E-1
1.422003953E1,1.887969971E-1,1.557815552E0,4.498291016E-1
1.423011033E1,1.589202881E-1,1.441879272E0,3.964996338E-1
1.423938768E1,1.866302490E-1,1.355285645E0,3.001251221E-1
1.424945848E1,1.254577637E-1,1.186538696E0,2.615661621E-1
1.425952928E1,-8.543395996E-2,8.339233398E-1,2.882080078E-1
1.426960008E1,-4.253387451E-1,2.938842773E-1,3.591766357E-1
1.427964036E1,-6.098937988E-1,-1.347351074E-2,4.005737305E-1
1.428971116E1,-5.894012451E-1,-4.702758789E-2,3.097534180E-1
1.429981248E1,-5.858154297E-1,-9.840393066E-2,1.886138916E-1
1.430988328E1,-7.404479980E-1,-1.608123779E-1,1.508483887E-1
1.431992356E1,-1.151260376E0,-6.261291504E-1,2.101135254E-1
1.433002488E1,-2.462661743E0,-2.045166016E0,5.696716309E-1
1.434009568E1,-3.374816895E0,-2.800567627E0,8.656005859E-1
1.435016648E1,-3.188339233E0,-2.496643066E0,7.955474854E-1
1.436020677E1,-3.289169312E0,-2.569992065E0,7.521057129E-1
1.437064378E1,-3.640304565E0,-2.901275635E0,7.682037354E-1
1.438034837E1,-3.687484741E0,-3.130783081E0,6.118774414E-1
1.439044969E1,-2.864547729E0,-2.494857788E0,3.285827637E-1
1.440052049E1,-2.025039673E0,-1.812026978E0,1.233825684E-1
1.441056077E1,-1.521102905E0,-1.362899780E0,-1.342773438E-3
1.442063157E1,-1.266677856E0,-1.132690430E0,-1.937866211E-2
1.443070237E1,-1.198562622E0,-1.020492554E0,4.226684570E-2
1.444080369E1,-1.236465454E0,-9.070434570E-1,2.157897949E-1
1.445087449E1,-1.284408569E0,-7.669982910E-1,4.527435303E-1
1.446091478E1,-1.378707886E0,-6.576843262E-1,7.218627930E-1
1.447098558E1,-1.465530396E0,-5.817260742E-1,9.402008057E-1
1.448108690E1,-1.297592163E0,-4.855804443E-1,9.925231934E-1
1.449115770E1,-9.197998047E-1,-3.734436035E-1,8.860931396E-1
1.450119798E1,-5.077209473E-1,-2.648925781E-1,6.953582764E-1
1.451126878E1,-9.249877930E-2,-1.523590088E-1,4.912567139E-1
1.452137010E1,1.549224854E-1,-7.296752930E-2,3.728790283E-1
1.453141038E1,3.754119873E-1,-8.544921875E-3,2.949676514E-1
1.454148118E1,5.731964111E-1,2.890014648E-2,2.189331055E-1
1.455158250E1,5.294342041E-1,-2.645874023E-2,2.688751221E-1
1.456177537E1,4.724426270E-1,-9.541320801E-2,2.922058105E-1
1.457193773E1,5.360107422E-1,-2.032775879E-1,1.794738770E-1
1.458213060E1,8.137359619E-1,-2.190551758E-1,-5.221557617E-2
1.459232347E1,1.062332153E0,-1.966094971E-1,-2.611541748E-1
1.460254686E1,1.274810791E0,-2.430419922E-1,-5.184326172E-1
1.461273973E1,1.733947754E0,-7.650756836E-2,-8.000030518E-1
1.462293260E1,2.239654541E0,1.893157959E-1,-1.069442749E0
1.463294236E1,2.666015625E0,4.516448975E-1,-1.286315918E0
1.464221971E1,2.900451660E0,6.495361328E-1,-1.415069580E0
1.465225999E1,3.062118530E0,7.890625000E-1,-1.492630005E0
1.466233079E1,3.111190796E0,8.758544922E-1,-1.505783081E0
1.467243211E1,3.147338867E0,9.470214844E-1,-1.554336548E0
1.468250291E1,3.059143066E0,9.469604492E-1,-1.517700195E0
1.469254319E1,2.784942627E0,8.840942383E-1,-1.361572266E0
1.470261399E1,2.491363525E0,8.155059814E-1,-1.170150757E0
1.471271531E1,2.272949219E0,7.414245605E-1,-1.013793945E0
1.472278611E1,2.086120605E0,6.435089111E-1,-9.123229980E-1
1.473285691E1,1.983337402E0,5.281829834E-1,-8.887939453E-1
1.474289720E1,1.844772339E0,3.898773193E-1,-9.023895264E-1
1.475296800E1,1.791671753E0,2.837829590E-1,-9.707641602E-1
1.476306932E1,1.836807251E0,2.739105225E-1,-1.090988159E0
1.477347581E1,1.916656494E0,3.473510742E-1,-1.249969482E0
1.478321092E1,2.346282959E0,4.905395508E-1,-1.749984741E0
1.479328172E1,2.941528320E0,6.967010498E-1,-2.364410400E0
1.480332200E1,2.995300293E0,9.011077881E-1,-2.426376343E0
1.481339280E1,2.799011230E0,1.059921265E0,-2.270675659E0
1.482349412E1,2.734603882E0,1.315444946E0,-2.310577393E0
1.483356492E1,2.741973877E0,1.622192383E0,-2.441162109E0
1.484363572E1,2.476608276E0,1.626556396E0,-2.292358398E0
1.485370652E1,2.090621948E0,1.364303589E0,-2.021881104E0
1.486374681E1,1.739303589E0,8.966217041E-1,-1.692092896E0
1.487381761E1,1.468994141E0,2.804565430E-1,-1.350723267E0
1.488388841E1,1.299423218E0,-3.299255371E-1,-1.037612915E0
1.489395921E1,1.049987793E0,-7.999114990E-1,-7.146453857E-1
1.490406053E1,7.815093994E-1,-9.745635986E-1,-5.236816406E-1
1.491413133E1,4.546203613E-1,-1.017120361E0,-3.864898682E-1
1.492420213E1,1.339416504E-1,-1.002853394E0,-2.662200928E-1
1.493424241E1,-2.438049316E-1,-1.023956299E0,4.129028320E-2
1.494431321E1,-7.489166260E-1,-1.084716797E0,4.819335938E-1
1.495438401E1,-1.335388184E0,-1.161743164E0,9.653472900E-1
1.496457689E1,-1.812713623E0,-1.207489014E0,1.352554321E0
1.497464769E1,-2.169143677E0,-1.279434204E0,1.604507446E0
1.498484056E1,-2.409927368E0,-1.456527710E0,1.800003052E0
1.499509446E1,-3.201187134E0,-2.167816162E0,2.430984497E0
1.500525682E1,-4.250213623E0,-2.807312012E0,3.164398193E0
1.501544969E1,-4.720870972E0,-2.886505127E0,3.385940552E0
1.502564256E1,-5.210342407E0,-2.967361450E0,3.629211426E0
1.503568284E1,-5.617294312E0,-2.907546997E0,3.835906982E0
1.504502122E1,-5.834320068E0,-2.716659546E0,3.948379517E0
1.505509202E1,-5.876068115E0,-2.481658936E0,3.961181641E0
1.506516282E1,-5.727401733E0,-2.240036011E0,3.854309082E0
1.507523362E1,-5.503814697E0,-2.030838013E0,3.703002930E0
1.508530442E1,-5.580139160E0,-2.016235352E0,3.834838867E0
1.509540574E1,-5.274093628E0,-1.837570190E0,3.729995728E0
1.510547654E1,-4.136413574E0,-1.162124634E0,2.980178833E0
1.511551683E1,-2.564041138E0,-2.106018066E-1,1.976593018E0
1.512558763E1,-3.015441895E-1,1.241775513E0,6.167755127E-1
1.513568894E1,9.011840820E-1,1.816482544E0,-3.473815918E-1
1.514575975E1,9.439849854E-1,1.487182617E0,-8.213653564E-1
1.515580003E1,6.235504150E-1,8.664245605E-1,-1.056716919E0
1.516587083E1,2.494964600E-1,3.627624512E-1,-1.083770752E0
1.517621629E1,1.212921143E-1,2.826232910E-1,-8.999481201E-1
1.518604295E1,2.156066895E-1,3.282012939E-1,-8.492279053E-1
1.519611375E1,3.903503418E-1,4.008026123E-1,-8.413085938E-1
1.520615403E1,2.078384399E0,1.668380737E0,-1.399063110E0
1.521622483E1,3.083572388E0,2.711563110E0,-1.458663940E0
1.522629564E1,3.170150757E0,3.079589844E0,-1.126449585E0
1.523636644E1,3.145431519E0,3.407958984E0,-8.228759766E-1
1.524646775E1,3.237930298E0,3.736206055E0,-6.488494873E-1
1.525653856E1,3.068038940E0,3.501495361E0,-6.074981689E-1
1.526660936E1,2.807754517E0,3.244812012E0,-5.765075684E-1
1.527664964E1,2.449722290E0,2.847702026E0,-5.402832031E-1
1.528672044E1,2.112915039E0,2.434967041E0,-5.467071533E-1
1.529682176E1,1.893966675E0,2.114562988E0,-5.804595947E-1
1.530689256E1,1.621383667E0,1.813003540E0,-5.383758545E-1
1.531696336E1,1.243667603E0,1.550674438E0,-3.992614746E-1
1.532700364E1,1.084243774E0,1.432647705E0,-3.831634521E-1
1.533710496E1,1.080551147E0,1.396072388E0,-4.556884766E-1
1.534717576E1,1.116683960E0,1.277053833E0,-5.515441895E-1
1.535724656E1,9.739227295E-1,9.204711914E-1,-5.712432861E-1
1.536728685E1,6.724395752E-1,4.118804932E-1,-5.433959961E-1
1.537747972E1,1.064147949E-1,-3.503875732E-1,-4.479217529E-1
1.538767259E1,-5.960083008E-1,-5.127563477E-1,-4.066467285E-2
1.539786546E1,-1.006088257E0,-1.493835449E-1,3.197174072E-1
1.540805833E1,-1.295867920E0,5.917358398E-2,5.542602539E-1
1.541825120E1,-1.500869751E0,-3.257751465E-2,6.627197266E-1
1.542838304E1,-1.608016968E0,-3.260650635E-1,6.539306641E-1
1.543866746E1,-2.040786743E0,-9.413299561E-1,7.326965332E-1
1.544867723E1,-2.571548462E0,-1.777984619E0,7.554626465E-1
1.545795457E1,-2.885025024E0,-2.413375854E0,6.182403564E-1
1.546802537E1,-3.037872314E0,-2.801391602E0,4.174957275E-1
1.547809617E1,-3.202636719E0,-3.180786133E0,2.359924316E-1
1.548816697E1,-3.535659790E0,-3.418380737E0,1.977691650E-1
1.549820726E1,-3.621826172E0,-3.241973877E0,3.133697510E-1
1.550827806E1,-3.649459839E0,-3.049224854E0,4.640197754E-1
1.551834886E1,-3.618453979E0,-2.784912109E0,6.731872559E-1
1.552845018E1,-3.951110840E0,-2.684631348E0,1.156036377E0
1.553852098E1,-4.272506714E0,-2.640121460E0,1.603439331E0
1.554856126E1,-3.805831909E0,-2.288375854E0,1.582153320E0
1.555863206E1,-2.953445435E0,-1.871780396E0,1.231796265E0
1.556873338E1,-2.193557739E0,-1.498992920E0,1.038940430E0
1.557913987E1,-1.522705078E0,-1.179336548E0,9.268798828E-1
1.558887498E1,-1.246887207E0,-9.968566895E-1,9.449157715E-1
1.559894578E1,-8.273162842E-1,-7.544860840E-1,8.677673340E-1
1.560898606E1,-1.109313965E-1,-3.760070801E-1,6.514434814E-1
1.561905687E1,8.125305176E-1,1.399383545E-1,3.560943604E-1
1.562912767E1,1.556335449E0,6.115875244E-1,1.114196777E-1
1.563922898E1,1.867797852E0,7.710418701E-1,-4.203796387E-2
1.564929978E1,1.684341431E0,5.588226318E-1,-1.237030029E-1
1.565937059E1,1.710372925E0,5.997924805E-1,-1.034088135E-1
1.566941087E1,1.468627930E0,3.777313232E-1,-1.387329102E-1
1.567948167E1,1.291137695E0,2.256164551E-1,-1.382904053E-1
1.568958299E1,1.341979980E0,2.321319580E-1,-1.631774902E-1
1.569965379E1,1.712203979E0,4.373016357E-1,-3.453979492E-1
1.570972459E1,2.288345337E0,7.053375244E-1,-6.549530029E-1
1.571976487E1,2.575164795E0,7.929229736E-1,-8.934020996E-1
1.572983567E1,2.804397583E0,8.403472900E-1,-1.017410278E0
1.573993699E1,2.933822632E0,8.553009033E-1,-1.063796997E0
1.575000779E1,3.028442383E0,8.168182373E-1,-1.216217041E0
1.576007859E1,3.262039185E0,7.253417969E-1,-1.530090332E0
1.577011888E1,3.555114746E0,6.806182861E-1,-1.895843506E0
1.578022020E1,3.716857910E0,6.825866699E-1,-2.152969360E0
1.579038255E1,3.741653442E0,7.045288086E-1,-2.222351074E0
1.580060594E1,3.462783813E0,6.221008301E-1,-2.062744141E0
1.581076829E1,3.054626465E0,4.782867432E-1,-1.784500122E0
1.582099168E1,2.601547241E0,3.014831543E-1,-1.481262207E0
1.583118455E1,2.254119873E0,1.725769043E-1,-1.235137939E0
1.584137742E1,2.021118164E0,1.332702637E-1,-1.049758911E0
1.585157029E1,1.789474487E0,1.496429443E-1,-8.791351318E-1
1.586161058E1,1.588943481E0,1.867828369E-1,-7.358703613E-1
1.587085740E1,1.476669312E0,2.397613525E-1,-6.595153809E-1
1.588089769E1,1.469360352E0,3.150939941E-1,-6.632537842E-1
1.589099900E1,1.467361450E0,3.573608398E-1,-6.943054199E-1
1.590106980E1,1.601531982E0,5.460510254E-1,-8.732452393E-1
1.591111009E1,2.448883057E0,1.138168335E0,-1.684829712E0
1.592118089E1,2.737579346E0,1.361328125E0,-2.012390137E0
1.593125169E1,2.912338257E0,1.485916138E0,-2.313064575E0
1.594135301E1,3.028656006E0,1.398712158E0,-2.530807495E0
1.595142381E1,2.912979126E0,1.060897827E0,-2.531158447E0
1.596149461E1,2.640869141E0,6.189270020E-1,-2.347396851E0
1.597156541E1,2.218673706E0,2.573547363E-1,-1.977584839E0
1.598200242E1,1.956695557E0,2.197265625E-2,-1.742614746E0
1.599170701E1,1.727233887E0,-1.193389893E-1,-1.532485962E0
1.600174730E1,1.302749634E0,-2.363739014E-1,-1.221160889E0
1.601184861E1,6.155700684E-1,-4.430999756E-1,-6.869506836E-1
1.602191941E1,-3.802642822E-1,-7.681121826E-1,8.551025391E-2
1.603195970E1,-1.510391235E0,-1.109329224E0,9.751129150E-1
1.604203050E1,-2.657974243E0,-1.430175781E0,1.865570068E0
1.605213182E1,-3.756759644E0,-1.663696289E0,2.660446167E0
1.606220262E1,-4.626174927E0,-1.811721802E0,3.278457642E0
1.607224290E1,-5.272216797E0,-1.931472778E0,3.660537720E0
1.608231370E1,-5.550140381E0,-1.969940186E0,3.741394043E0
1.609238450E1,-5.737045288E0,-2.155014038E0,3.692733765E0
1.610248582E1,-5.734100342E0,-2.176086426E0,3.458999634E0
1.611255662E1,-5.683654785E0,-2.192764282E0,3.190338135E0
1.612259690E1,-6.199493408E0,-2.587585449E0,3.212036133E0
1.613266770E1,-7.154479980E0,-3.135406494E0,3.516921997E0
1.614276902E1,-8.334304810E0,-3.720031738E0,4.057495117E0
1.615283982E1,-9.889526367E0,-4.329681396E0,4.981643677E0
1.616291063E1,-1.080036926E1,-4.580368042E0,5.682876587E0
1.617295091E1,-8.817947388E0,-3.417526245E0,4.526596069E0
1.618302171E1,-5.937164307E0,-1.870620728E0,2.771194458E0
1.619312303E1,-1.485061646E0,5.048370361E-1,-7.827758789E-3
1.620325486E1,5.292205811E-1,1.525726318E0,-1.349807739E0
1.621344773E1,3.686370850E-1,1.354965210E0,-1.447463989E0
1.622364060E1,-2.911376953E-2,1.130859375E0,-1.049835205E0
1.623386399E1,1.828002930E-1,1.247100830E0,-7.452850342E-1
1.624402635E1,1.770690918E0,2.171417236E0,-1.036544800E0
1.625424974E1,3.801284790E0,3.504516602E0,-1.256149292E0
1.626441209E1,3.196426392E0,3.207077026E0,-7.817230225E-1
1.627451341E1,2.052246094E0,2.404617310E0,-4.025268555E-1
1.628461473E1,1.477630615E0,1.965515137E0,-1.940307617E-1
1.629380052E1,1.245529175E0,1.817855835E0,-1.033935547E-1
1.630387132E1,1.805892944E0,2.098358154E0,-3.522338867E-1
1.631397264E1,3.480651855E0,3.192977905E0,-8.186035156E-1
1.632404344E1,3.818191528E0,3.473434448E0,-7.925720215E-1
1.633411424E1,3.156570435E0,3.048629761E0,-5.805053711E-1
1.634415452E1,2.461990356E0,2.600509644E0,-4.007720947E-1
1.635425584E1,2.092086792E0,2.334304810E0,-3.212280273E-1
1.636432664E1,1.976333618E0,2.213775635E0,-3.292541504E-1
1.637439744E1,2.225723267E0,2.266998291E0,-4.394226074E-1
1.638480394E1,2.702941895E0,2.519424438E0,-6.439361572E-1
1.639453904E1,3.651412964E0,3.279769897E0,-8.279571533E-1
1.640457933E1,3.493927002E0,3.497879028E0,-6.304626465E-1
1.641465013E1,2.433807373E0,2.657867432E0,-3.824310303E-1
1.642475145E1,1.462783813E0,1.778656006E0,-2.632904053E-1
1.643482225E1,-6.985015869E-1,5.563201904E-1,4.549713135E-1
1.644489305E1,-2.475540161E0,-1.845550537E-1,1.192962646E0
1.645493333E1,-2.580352783E0,-7.083129883E-2,1.288497925E0
1.646500413E1,-2.356979370E0,-1.166839600E-1,1.131164551E0
1.647510545E1,-2.357513428E0,-2.538909912E-1,9.833984375E-1
1.648517625E1,-2.713378906E0,-8.103179932E-1,6.966400146E-1
1.649521653E1,-5.109069824E0,-2.994201660E0,3.190612793E-1
1.650528733E1,-5.851943970E0,-3.543655396E0,1.271362305E-1
1.651535814E1,-5.629547119E0,-3.142211914E0,1.462707520E-1
1.652545945E1,-5.776885986E0,-2.987091064E0,2.468414307E-1
1.653553025E1,-7.403228760E0,-3.669418335E0,6.615447998E-1
1.654557054E1,-8.516418457E0,-4.080413818E0,1.212554932E0
1.655564134E1,-7.512649536E0,-3.488754272E0,1.308288574E0
1.656571214E1,-6.226440430E0,-2.778274536E0,1.189010620E0
1.657581346E1,-5.003662109E0,-2.189834595E0,1.004776001E0
1.658588426E1,-4.015747070E0,-1.746673584E0,9.129486084E-1
1.659592454E1,-3.377365112E0,-1.469955444E0,8.592376709E-1
1.660599534E1,-2.858566284E0,-1.237274170E0,9.752502441E-1
1.661615770E1,-2.412384033E0,-1.027297974E0,1.112823486E0
1.662635057E1,-2.079864502E0,-8.805541992E-1,1.162033081E0
1.663654344E1,-1.903350830E0,-8.271331787E-1,1.108123779E0
1.664676683E1,-1.678924561E0,-7.675628662E-1,9.630126953E-1
1.665695970E1,-1.303543091E0,-6.237945557E-1,7.640991211E-1
1.666715257E1,-9.561309814E-1,-4.857025146E-1,6.093292236E-1
1.667734544E1,-7.284088135E-1,-3.937225342E-1,5.463714600E-1
1.668735520E1,-4.913330078E-1,-3.167114258E-1,5.231933594E-1
1.669666307E1,-8.288574219E-2,-2.015228271E-1,4.714050293E-1
1.670673387E1,5.197143555E-1,-2.770996094E-2,3.656311035E-1
1.671677415E1,1.093734741E0,1.305847168E-1,2.616424561E-1
1.672684495E1,1.665176392E0,2.780456543E-1,1.422424316E-1
1.673694627E1,1.954681396E0,3.745117188E-1,6.585693359E-2
1.674698655E1,2.207107544E0,4.841156006E-1,-2.137756348E-2
1.675708787E1,2.613845825E0,6.338500977E-1,-1.688690186E-1
1.676715867E1,2.830276489E0,6.751708984E-1,-3.249664307E-1
1.677722947E1,2.687500000E0,5.318450928E-1,-5.890502930E-1
1.678726976E1,2.446731567E0,3.180541992E-1,-9.601287842E-1
1.679737107E1,1.889221191E0,-5.999755859E-2,-1.233825684E0
1.680744188E1,1.465820312E0,-3.932037354E-1,-1.371444702E0
1.681748216E1,1.636489868E0,-4.500122070E-1,-1.512329102E0
1.682755296E1,2.531082153E0,-1.631164551E-1,-1.734329224E0
1.683765428E1,3.571350098E0,2.736968994E-1,-1.946258545E0
1.684772508E1,4.790786743E0,7.498474121E-1,-2.278594971E0
1.685779588E1,5.693862915E0,1.096908569E0,-2.500198364E0
1.686783616E1,6.377014160E0,1.347610474E0,-2.587066650E0
1.687793748E1,6.544692993E0,1.443008423E0,-2.459671021E0
1.688800828E1,6.313217163E0,1.417083740E0,-2.173339844E0
1.689804856E1,5.870071411E0,1.313766479E0,-1.850173950E0
1.690811936E1,5.449249268E0,1.199935913E0,-1.609664917E0
1.691822068E1,5.175003052E0,1.138641357E0,-1.489669800E0
1.692829148E1,4.866516113E0,1.086288452E0,-1.416931152E0
1.693833177E1,4.681228638E0,1.076629639E0,-1.385452271E0
1.694840257E1,4.317718506E0,1.005096436E0,-1.340621948E0
1.695847337E1,4.185836792E0,9.826660156E-1,-1.374130249E0
1.696854417E1,4.013717651E0,9.640960693E-1,-1.433624268E0
1.697861497E1,4.188735962E0,1.112045288E0,-1.662002563E0
1.698871629E1,4.898239136E0,1.578475952E0,-2.184646606E0
1.699872606E1,5.697982788E0,2.189117432E0,-2.812255859E0
1.700885789E1,5.564987183E0,2.402374268E0,-2.866256714E0
1.701889817E1,5.188110352E0,2.330154419E0,-2.782806396E0
1.702912156E1,4.642044067E0,2.097595215E0,-2.586090088E0
1.703931443E1,3.892257690E0,1.783142090E0,-2.239318848E0
1.704950731E1,3.096160889E0,1.381484985E0,-1.813079834E0
1.705970018E1,2.407730103E0,8.901214600E-1,-1.428970337E0
1.706992356E1,1.587341309E0,2.237701416E-1,-9.548645020E-1
1.708011644E1,6.064453125E-1,-5.052337646E-1,-4.205932617E-1
1.709012620E1,-5.343170166E-1,-1.184005737E0,1.482238770E-1
1.709946458E1,-1.829513550E0,-1.867355347E0,7.666168213E-1
1.710953538E1,-3.170318604E0,-2.480346680E0,1.367050171E0
1.711960618E1,-4.360549927E0,-2.845657349E0,1.902099609E0
1.712967698E1,-5.276657104E0,-3.176467896E0,2.272308350E0
1.713974778E1,-6.116287231E0,-3.509292603E0,2.548019409E0
1.714984910E1,-7.072357178E0,-3.935577393E0,2.868103027E0
1.715988938E1,-8.590591431E0,-4.601562500E0,3.443679810E0
1.716996019E1,-1.003778076E1,-5.019515991E0,4.183029175E0
1.718006150E1,-1.124992371E1,-5.209243774E0,5.039047241E0
1.719004075E1,-1.247111511E1,-5.595397949E0,5.950317383E0
1.720020310E1,-1.242346191E1,-5.475311279E0,6.205825806E0
1.721024339E1,-1.148126221E1,-5.007843018E0,5.957015991E0
1.722034471E1,-1.027676392E1,-4.466049194E0,5.604782104E0
1.723041551E1,-8.708847046E0,-3.761367798E0,5.104263306E0
1.724048631E1,-6.969131470E0,-3.040786743E0,4.420684814E0
1.725052659E1,-5.659637451E0,-2.500732422E0,3.803878784E0
1.726059739E1,-4.468963623E0,-2.043823242E0,3.282287598E0
1.727069871E1,-3.418762207E0,-1.625793457E0,2.826385498E0
1.728076951E1,-2.595855713E0,-1.254180908E0,2.443832397E0
1.729080980E1,-1.886291504E0,-9.053497314E-1,2.051300049E0
1.730088060E1,-1.271789551E0,-5.559082031E-1,1.638412476E0
1.731095140E1,-6.708526611E-1,-2.113952637E-1,1.175567627E0
1.732105272E1,-1.770019531E-1,9.915161133E-2,7.241821289E-1
1.733112352E1,-1.172027588E-1,2.342224121E-1,3.173828125E-1
1.734116380E1,8.015441895E-2,5.546112061E-1,-3.096008301E-1
1.735123460E1,1.981811523E-1,7.393341064E-1,-6.230926514E-1
1.736133592E1,1.939544678E-1,8.219757080E-1,-7.354583740E-1
1.737140672E1,3.424682617E-1,8.544311523E-1,-7.155914307E-1
1.738147752E1,2.611083984E-1,7.886047363E-1,-7.073059082E-1
1.739151780E1,2.060928345E0,2.183700562E0,-2.417037964E0
1.740158860E1,2.322692871E0,2.329101562E0,-2.571411133E0
1.741172044E1,2.066040039E0,2.102752686E0,-2.252319336E0
1.742194383E1,2.723693848E0,2.392822266E0,-2.343368530E0
1.743216722E1,6.034439087E0,4.166976929E0,-3.338439941E0
1.744236009E1,8.050842285E0,5.217498779E0,-3.426147461E0
1.745255296E1,9.396362305E0,5.971252441E0,-3.173248291E0
1.746277635E1,9.389328003E0,6.088302612E0,-2.588485718E0
1.747296922E1,8.378402710E0,5.601943970E0,-1.947967529E0
1.748297898E1,7.073318481E0,4.957351685E0,-1.424743652E0
1.749225633E1,6.230468750E0,4.601379395E0,-1.046386719E0
1.750232713E1,5.618621826E0,4.337158203E0,-8.375701904E-1
1.751236741E1,4.866744995E0,3.862274170E0,-7.504425049E-1
1.752246873E1,4.237152100E0,3.414764404E0,-7.042999268E-1
1.753253953E1,3.709884644E0,2.975540161E0,-7.052764893E-1
1.754261033E1,3.226028442E0,2.557586670E0,-7.138214111E-1
1.755268113E1,2.936691284E0,2.281890869E0,-7.661590576E-1
1.756275193E1,2.741973877E0,2.135086060E0,-8.278045654E-1
1.757279222E1,2.582702637E0,2.097198486E0,-8.007965088E-1
1.758286302E1,3.260971069E0,2.807769775E0,-8.409881592E-1
1.759330003E1,2.936111450E0,2.916015625E0,-6.070556641E-1
1.760303514E1,2.303787231E0,2.672225952E0,-3.621978760E-1
1.761310594E1,1.359588623E0,1.927734375E0,-1.973876953E-1
1.762314622E1,9.717254639E-1,1.381011963E0,-2.134246826E-1
1.763321702E1,2.010498047E-1,7.734985352E-1,-1.050872803E-1
1.764331834E1,-1.108367920E0,5.097961426E-2,2.493438721E-1
1.765338914E1,-2.138107300E0,-4.141387939E-1,5.021667480E-1
1.766342942E1,-2.685180664E0,-6.221008301E-1,6.307067871E-1
1.767350022E1,-2.675140381E0,-6.808013916E-1,5.422515869E-1
1.768357103E1,-2.492736816E0,-8.321380615E-1,2.875061035E-1
1.769367234E1,-2.761062622E0,-1.749374390E0,-2.776031494E-1
1.770374314E1,-2.485153198E0,-2.170059204E0,-8.383941650E-1
1.771378343E1,-2.217346191E0,-1.938125610E0,-9.515838623E-1
1.772385423E1,-2.126953125E0,-1.742523193E0,-9.061889648E-1
1.773395555E1,-1.983093262E0,-1.651687622E0,-9.947357178E-1
1.774402635E1,-2.100875854E0,-1.701583862E0,-1.088134766E0
1.775406663E1,-2.633743286E0,-1.904754639E0,-1.029373169E0
1.776416795E1,-3.362319946E0,-2.160354614E0,-8.870849609E-1
1.777423875E1,-3.743957520E0,-2.163131714E0,-6.554260254E-1
1.778430955E1,-3.728515625E0,-1.893173218E0,-4.371643066E-1
1.779434983E1,-3.457504272E0,-1.511535645E0,-2.351989746E-1
1.780445115E1,-3.304550171E0,-1.121749878E0,2.816009521E-1
1.781467454E1,-2.983489990E0,-6.242828369E-1,8.317565918E-1
1.782486741E1,-2.858489990E0,-3.332672119E-1,1.231567383E0
1.783509080E1,-2.936065674E0,-3.482055664E-1,1.357772827E0
1.784528367E1,-3.117721558E0,-5.260925293E-1,1.374374390E0
1.785550706E1,-3.396530151E0,-8.021392822E-1,1.295791626E0
1.786557786E1,-3.799896240E0,-1.200515747E0,1.150390625E0
1.787570970E1,-4.144607544E0,-1.607086182E0,9.892730713E-1
1.788498704E1,-4.294845581E0,-1.842330933E0,8.103332520E-1
1.789505784E1,-4.067993164E0,-1.830947876E0,6.402435303E-1
1.790512864E1,-3.634567261E0,-1.697860718E0,5.101318359E-1
1.791519944E1,-3.466232300E0,-1.694931030E0,4.320373535E-1
1.792527024E1,-3.094741821E0,-1.603210449E0,3.879547119E-1
1.793537156E1,-2.642074585E0,-1.421554565E0,3.700103760E-1
1.794544236E1,-2.184616089E0,-1.218399048E0,3.575439453E-1
1.795548265E1,-1.743225098E0,-1.002105713E0,3.602600098E-1
1.796558396E1,-1.290756226E0,-7.682037354E-1,3.596038818E-1
1.797565477E1,-8.975982666E-1,-5.504150391E-1,3.222656250E-1
1.798569505E1,-6.009979248E-1,-3.761901855E-1,3.515319824E-1
1.799607103E1,-2.129058838E-1,-2.153930664E-1,4.561767578E-1
1.800583665E1,3.343963623E-1,-3.213500977E-2,5.751647949E-1
1.801590745E1,8.998107910E-1,1.123809814E-1,5.647583008E-1
1.802600877E1,1.558532715E0,3.242492676E-1,3.324737549E-1
1.803607957E1,2.125640869E0,5.448303223E-1,-1.577758789E-2
1.804611985E1,2.405807495E0,6.136169434E-1,-5.067138672E-1
1.805619065E1,2.078628540E0,2.075500488E-1,-2.074768066E0
1.806626146E1,1.995666504E0,1.835632324E-2,-2.598464966E0
1.807633226E1,3.071212769E0,4.855346680E-1,-2.996109009E0
1.808640306E1,4.642639160E0,1.264953613E0,-3.108474731E0
1.809647386E1,6.500106812E0,2.197952271E0,-2.975158691E0
1.810654466E1,8.781799316E0,3.394165039E0,-2.982849121E0
1.811664598E1,1.099177551E1,4.729583740E0,-2.829940796E0
1.812671678E1,1.208143616E1,5.570800781E0,-2.504516602E0
1.813675706E1,1.197366333E1,5.736968994E0,-2.096954346E0
1.814682786E1,1.123695374E1,5.580215454E0,-1.707687378E0
1.815689866E1,1.019378662E1,5.260620117E0,-1.408065796E0
1.816696946E1,9.148574829E0,4.867828369E0,-1.214492798E0
1.817704026E1,8.424652100E0,4.591674805E0,-1.113998413E0
1.818711106E1,7.842346191E0,4.399978638E0,-1.082717896E0
1.819721238E1,7.459899902E0,4.309188843E0,-1.146682739E0
1.820740525E1,7.177215576E0,4.277526855E0,-1.278305054E0
1.821765916E1,6.852096558E0,4.213653564E0,-1.422485352E0
1.822788255E1,6.352355957E0,4.069641113E0,-1.532562256E0
1.823810594E1,5.667816162E0,3.811233521E0,-1.538360596E0
1.824829881E1,4.928771973E0,3.406082153E0,-1.494552612E0
1.825849168E1,4.184036255E0,2.918212891E0,-1.386260986E0
1.826850145E1,3.413558960E0,2.377700806E0,-1.213333130E0
1.827774827E1,2.687072754E0,1.862228394E0,-1.032485962E0
1.828781907E1,1.779357910E0,1.175399780E0,-6.475830078E-1
1.829788987E1,2.054748535E-1,2.060546875E-1,7.852172852E-2
1.830796067E1,-7.483673096E-1,-4.532928467E-1,5.304565430E-1
1.831806199E1,-1.168823242E0,-9.507904053E-1,8.111877441E-1
1.832810228E1,-1.414367676E0,-1.307525635E0,1.002243042E0
1.833817308E1,-1.678436279E0,-1.673583984E0,1.230590820E0
1.834824388E1,-2.067413330E0,-2.142639160E0,1.558486938E0
1.835831468E1,-2.359619141E0,-2.564254761E0,1.789413452E0
1.836838548E1,-2.577682495E0,-2.787796021E0,1.885940552E0
1.837845628E1,-2.648468018E0,-2.821716309E0,1.867965698E0
1.838855760E1,-2.622055054E0,-3.009201050E0,1.843734741E0
1.839887254E1,-2.681396484E0,-3.393722534E0,1.880523682E0
1.840869920E1,-2.974273682E0,-3.712966919E0,1.958251953E0
1.841877000E1,-3.151641846E0,-3.800476074E0,1.873992920E0
1.842884080E1,-3.355422974E0,-3.847793579E0,1.764862061E0
1.843891160E1,-3.566482544E0,-3.790191650E0,1.698303223E0
1.844898240E1,-3.911743164E0,-3.715850830E0,1.721054077E0
1.845905320E1,-4.285675049E0,-3.565322876E0,1.798019409E0
1.846909349E1,-4.554183960E0,-3.327255249E0,1.892501831E0
1.847916429E1,-4.780578613E0,-3.054885864E0,1.992828369E0
1.848923509E1,-4.704055786E0,-2.686599731E0,2.009750366E0
1.849930589E1,-4.397064209E0,-2.275054932E0,1.930114746E0
1.850937669E1,-4.073837280E0,-1.905990601E0,1.785583496E0
1.851944749E1,-3.556579590E0,-1.536788940E0,1.534271240E0
1.852951829E1,-3.097625732E0,-1.271759033E0,1.270477295E0
1.853961961E1,-2.482421875E0,-9.165496826E-1,9.653930664E-1
1.854969041E1,-1.511184692E0,-3.240051270E-1,5.671081543E-1
1.855976121E1,-8.875122070E-1,9.535217285E-2,2.632293701E-1
1.856983201E1,-8.225860596E-1,7.199096680E-2,1.514587402E-1
1.857987230E1,-8.545684814E-1,-6.182861328E-2,5.744934082E-2
1.859003465E1,-5.733337402E-1,-3.883361816E-2,-2.015228271E-1
1.860031907E1,-7.675323486E-1,-1.259460449E-1,-1.173248291E-1
1.861054246E1,-1.057510376E0,-2.228546143E-1,5.554199219E-2
1.862073533E1,-1.239379883E0,-2.374877930E-1,1.560821533E-1
1.863092820E1,-1.014648438E0,-1.050872803E-1,5.554199219E-2
1.864112107E1,-5.368652344E-1,1.249237061E-1,-1.849517822E-1
1.865119188E1,9.846038818E-1,1.141815186E0,-7.444000244E-1
1.866043870E1,2.171646118E0,1.914077759E0,-1.193511963E0
1.867054002E1,2.314407349E0,1.985214233E0,-1.230773926E0
1.868058030E1,2.165359497E0,2.046768188E0,-1.090148926E0
1.869065110E1,2.137603760E0,2.145843506E0,-9.990234375E-1
1.870072190E1,2.097564697E0,2.131118774E0,-9.366149902E-1
1.871082322E1,1.831558228E0,1.915206909E0,-8.304748535E-1
1.872089402E1,1.398284912E0,1.576751709E0,-7.006072998E-1
1.873096482E1,8.983154297E-1,1.164352417E0,-5.773468018E-1
1.874100511E1,3.643188477E-1,7.110137939E-1,-4.596099854E-1
1.875107591E1,-5.989074707E-2,3.170776367E-1,-3.611755371E-1
1.876117723E1,-5.005798340E-1,-3.950500488E-2,-2.513427734E-1
1.877124803E1,-1.663742065E0,-7.118225098E-1,1.889495850E-1
1.878128831E1,-2.746444702E0,-1.299453735E0,5.687561035E-1
1.879135911E1,-3.365692139E0,-1.507461548E0,7.874603271E-1
1.880179612E1,-3.298629761E0,-1.369857788E0,8.475341797E-1
1.881153123E1,-2.769714355E0,-1.103179932E0,6.596832275E-1
1.882160203E1,-2.217254639E0,-4.261627197E-1,6.964874268E-1
1.883164231E1,-1.292251587E0,5.007171631E-1,6.100463867E-1
1.884174363E1,-2.218475342E-1,1.138076782E0,2.719116211E-1
1.885181443E1,1.927185059E-2,1.029159546E0,4.698181152E-2
1.886188523E1,1.065979004E-1,8.722076416E-1,-6.221008301E-2
1.887192552E1,2.715606689E-1,7.770080566E-1,-1.957092285E-1
1.888202684E1,2.046966553E-1,6.268920898E-1,-2.166290283E-1
1.889209764E1,1.322937012E-2,4.734191895E-1,-1.899566650E-1
1.890216844E1,2.978515625E-2,4.360809326E-1,-2.058105469E-1
1.891220872E1,4.325866699E-2,4.137420654E-1,-2.261047363E-1
1.892227952E1,-5.601501465E-2,3.425445557E-1,-2.278900146E-1
1.893238084E1,-2.139282227E-1,2.529602051E-1,-2.126617432E-1
1.894242112E1,-4.689788818E-1,1.352691650E-1,-1.583557129E-1
1.895249192E1,-6.632232666E-1,4.461669922E-2,-1.016387939E-1
1.896259324E1,-7.117767334E-1,1.004028320E-2,-6.300354004E-2
1.897275560E1,-7.288208008E-1,-1.402282715E-2,-4.711914062E-2
1.898294847E1,-6.734924316E-1,-9.933471680E-3,-4.498291016E-2
1.899314134E1,-6.853179932E-1,-2.755737305E-2,-4.463195801E-2
1.900336473E1,-6.389923096E-1,-8.972167969E-3,-4.103088379E-2
1.901355760E1,-5.467071533E-1,4.371643066E-2,-3.399658203E-2
1.902375047E1,-4.125518799E-1,1.299591064E-1,-2.262878418E-2
1.903397386E1,-2.043304443E-1,2.378082275E-1,-2.154541016E-2
1.904395310E1,-1.891326904E-1,2.285003662E-1,-3.443908691E-2
1.905323045E1,-2.573394775E-1,1.500549316E-1,-4.737854004E-2
1.906330125E1,-2.890167236E-1,6.877136230E-2,-5.220031738E-2
1.907334153E1,-2.475738525E-1,2.935791016E-2,-4.751586914E-2
1.908341233E1,-3.060607910E-1,-2.317810059E-2,-3.810119629E-2
1.909348314E1,-3.121032715E-1,-2.241516113E-2,-2.699279785E-2
1.910355394E1,-2.084503174E-1,5.560302734E-2,-1.506042480E-2
1.911362474E1,-1.433258057E-1,1.414947510E-1,-4.226684570E-3
1.912369554E1,-1.329498291E-1,2.023773193E-1,3.417968750E-3
1.913379686E1,-1.117248535E-1,2.477874756E-1,7.385253906E-3
1.914386766E1,-6.877136230E-2,2.854614258E-1,6.652832031E-3
1.915390794E1,1.113891602E-3,3.271179199E-1,8.911132812E-3
1.916394822E1,1.356506348E-2,3.197174072E-1,1.641845703E-2
1.917392747E1,-5.204772949E-2,2.341766357E-1,1.835632324E-2
1.918412034E1,-1.604003906E-1,1.069030762E-1,1.547241211E-2
1.919419114E1,-2.015991211E-1,2.178955078E-2,2.293395996E-2
1.920456712E1,-3.339233398E-1,-7.377624512E-2,3.697204590E-2
1.921436326E1,-3.274688721E-1,-9.442138672E-2,5.439758301E-2
1.922440354E1,-2.561798096E-1,-7.824707031E-2,4.882812500E-2
1.923447435E1,-1.261444092E-1,-3.303527832E-2,7.537841797E-3
1.924454515E1,3.224182129E-2,2.496337891E-2,-3.923034668E-2
1.925461595E1,9.417724609E-2,4.367065430E-2,-6.788635254E-2
1.926471727E1,6.381225586E-2,2.705383301E-2,-5.949401855E-2
1.927478807E1,1.482696533E-1,6.123352051E-2,-9.686279297E-2
1.928485887E1,2.977294922E-1,1.244354248E-1,-1.521606445E-1
1.929489915E1,4.098663330E-1,1.793670654E-1,-1.817779541E-1
1.930496995E1,4.736022949E-1,2.515563965E-1,-1.618652344E-1
1.931507127E1,4.829559326E-1,3.457031250E-1,-1.146087646E-1
1.932514207E1,4.954071045E-1,4.669799805E-1,-6.280517578E-2
1.933518235E1,1.829071045E-1,1.956329346E-1,-6.072998047E-3
1.934525315E1,1.927185059E-1,2.349853516E-1,3.051757812E-4
1.935535447E1,1.807098389E-1,2.372741699E-1,1.770019531E-3
1.936548631E1,1.371307373E-1,2.054290771E-1,7.629394531E-5
1.937574022E1,8.731079102E-2,1.629638672E-1,7.781982422E-4
1.938593309E1,3.929138184E-2,1.215209961E-1,2.731323242E-3
1.939612596E1,1.704406738E-2,9.574890137E-2,6.408691406E-3
1.940631883E1,-2.288818359E-3,7.809448242E-2,1.080322266E-2
1.941651170E1,-4.037475586E-2,4.124450684E-2,1.513671875E-2
1.942673509E1,-1.023101807E-1,-1.541137695E-2,1.934814453E-2
1.943674485E1,-1.812896729E-1,-8.023071289E-2,2.224731445E-2
1.944596116E1,-2.465972900E-1,-1.290130615E-1,2.752685547E-2
1.945603196E1,-3.102264404E-1,-1.651458740E-1,3.573608398E-2
1.946613328E1,-3.493347168E-1,-1.826934814E-1,4.776000977E-2
1.947620408E1,-3.652954102E-1,-1.857147217E-1,6.185913086E-2
1.948627488E1,-3.721618652E-1,-1.833953857E-1,7.504272461E-2
1.949631517E1,-3.809814453E-1,-1.828613281E-1,8.535766602E-2
1.950638597E1,-3.738098145E-1,-1.768646240E-1,9.120178223E-2
1.951645677E1,-3.642578125E-1,-1.708374023E-1,9.140014648E-2
1.952655809E1,-3.482818604E-1,-1.636810303E-1,8.726501465E-2
1.953662889E1,-3.282775879E-1,-1.573181152E-1,8.090209961E-2
1.954666917E1,-3.095397949E-1,-1.540985107E-1,7.310485840E-2
1.955673997E1,-3.024597168E-1,-1.581726074E-1,6.430053711E-2
1.956684129E1,-3.005828857E-1,-1.666564941E-1,5.609130859E-2
1.957688157E1,-3.051300049E-1,-1.775970459E-1,4.904174805E-2
1.958698289E1,-2.906494141E-1,-1.789855957E-1,4.357910156E-2
1.959705369E1,-2.673492432E-1,-1.724395752E-1,3.849792480E-2
1.960746019E1,-2.355041504E-1,-1.589660645E-1,3.416442871E-2
1.961719529E1,-2.030181885E-1,-1.444549561E-1,3.144836426E-2
1.962723558E1,-1.723327637E-1,-1.288909912E-1,3.054809570E-2
1.963733690E1,-1.452331543E-1,-1.135253906E-1,3.132629395E-2
1.964737718E1,-1.233215332E-1,-1.001739502E-1,3.280639648E-2
1.965747850E1,-1.041870117E-1,-8.786010742E-2,3.373718262E-2
1.966754930E1,-9.068298340E-2,-7.812500000E-2,3.384399414E-2
1.967758958E1,-8.256530762E-2,-7.075500488E-2,3.356933594E-2
1.968766038E1,-7.858276367E-2,-6.536865234E-2,3.361511230E-2
1.969776170E1,-7.734680176E-2,-6.164550781E-2,3.402709961E-2
1.970783250E1,-7.502746582E-2,-5.760192871E-2,3.381347656E-2
1.971787278E1,-7.170104980E-2,-5.340576172E-2,3.297424316E-2
1.972794358E1,-6.846618652E-2,-4.948425293E-2,3.160095215E-2
1.973804490E1,-6.343078613E-2,-4.518127441E-2,2.931213379E-2
1.974811570E1,-5.563354492E-2,-4.003906250E-2,2.627563477E-2
1.975827806E1,-4.565429688E-2,-3.433227539E-2,2.272033691E-2
1.976847093E1,-3.701782227E-2,-2.996826172E-2,1.873779297E-2
1.977866380E1,-3.366088867E-2,-2.955627441E-2,1.524353027E-2
1.978888719E1,-3.535461426E-2,-3.388977051E-2,1.292419434E-2
1.979908006E1,-3.970336914E-2,-4.193115234E-2,1.098632812E-2
1.980927293E1,-4.263305664E-2,-5.079650879E-2,7.995605469E-3
1.981949632E1,-4.371643066E-2,-5.801391602E-2,4.745483398E-3
1.982950608E1,-3.886413574E-2,-5.862426758E-2,1.556396484E-3
1.983872239E1,-3.250122070E-2,-5.612182617E-2,-7.171630859E-4
1.984879319E1,-2.549743652E-2,-5.068969727E-2,-1.724243164E-3
1.985889451E1,-1.739501953E-2,-4.345703125E-2,-2.441406250E-3
1.986893480E1,-9.536743164E-3,-3.660583496E-2,-3.204345703E-3
1.987900560E1,-1.403808594E-3,-3.002929688E-2,-4.180908203E-3
1.988910691E1,5.264282227E-3,-2.464294434E-2,-5.111694336E-3
1.989917772E1,1.162719727E-2,-1.930236816E-2,-5.950927734E-3
1.990924852E1,1.756286621E-2,-1.445007324E-2,-7.019042969E-3
1.991931932E1,2.593994141E-2,-9.765625000E-3,-9.017944336E-3
1.992932908E1,3.422546387E-2,-4.516601562E-3,-1.139831543E-2
1.993946092E1,4.222106934E-2,-4.119873047E-4,-1.412963867E-2
1.994950120E1,4.447937012E-2,5.950927734E-4,-1.548767090E-2
1.995957200E1,4.072570801E-2,-2.197265625E-3,-1.574707031E-2
1.996967332E1,3.327941895E-2,-7.995605469E-3,-1.562500000E-2
1.997974412E1,2.345275879E-2,-1.416015625E-2,-1.472473145E-2
1.998981492E1,1.776123047E-2,-1.701354980E-2,-1.405334473E-2
1.999988572E1,1.673889160E-2,-1.617431641E-2,-1.379394531E-2
2.001023118E1,1.878356934E-2,-1.176452637E-2,-1.298522949E-2
2.001999681E1,2.308654785E-2,-6.317138672E-3,-1.269531250E-2
2.003006761E1,2.816772461E-2,-1.708984375E-3,-1.324462891E-2
2.004016893E1,3.300476074E-2,1.434326172E-3,-1.460266113E-2
2.005023973E1,4.200744629E-2,8.575439453E-3,-1.585388184E-2
2.006031053E1,5.500793457E-2,1.895141602E-2,-1.730346680E-2
2.007038133E1,6.611633301E-2,2.854919434E-2,-1.800537109E-2
2.008042161E1,7.469177246E-2,3.501892090E-2,-1.921081543E-2
2.009049241E1,7.850646973E-2,3.755187988E-2,-2.006530762E-2
2.010056321E1,7.868957520E-2,3.773498535E-2,-2.017211914E-2
2.011063401E1,7.664489746E-2,3.642272949E-2,-1.982116699E-2
2.012070481E1,7.328796387E-2,3.424072266E-2,-1.916503906E-2
2.013077562E1,7.118225098E-2,3.266906738E-2,-1.873779297E-2
2.014087693E1,7.157897949E-2,3.230285645E-2,-1.913452148E-2
2.015094773E1,7.423400879E-2,3.292846680E-2,-2.021789551E-2
2.016117112E1,7.902526855E-2,3.439331055E-2,-2.210998535E-2
2.017136399E1,8.259582520E-2,3.538513184E-2,-2.362060547E-2
2.018155686E1,8.222961426E-2,3.474426270E-2,-2.377319336E-2
2.019178025E1,8.212280273E-2,3.424072266E-2,-2.406311035E-2
2.020197313E1,8.201599121E-2,3.393554688E-2,-2.424621582E-2
2.021216600E1,8.210754395E-2,3.385925293E-2,-2.433776855E-2
2.022223680E1,8.280944824E-2,3.405761719E-2,-2.453613281E-2
2.023148362E1,8.349609375E-2,3.422546387E-2,-2.468872070E-2
2.024158494E1,8.346557617E-2,3.398132324E-2,-2.470397949E-2
2.025162522E1,8.209228516E-2,3.288269043E-2,-2.453613281E-2
2.026169603E1,7.771301270E-2,3.022766113E-2,-2.346801758E-2
2.027176683E1,6.962585449E-2,2.592468262E-2,-2.119445801E-2
2.028186814E1,6.100463867E-2,2.157592773E-2,-1.853942871E-2
2.029193895E1,5.403137207E-2,1.821899414E-2,-1.626586914E-2
2.030197923E1,4.928588867E-2,1.638793945E-2,-1.437377930E-2
2.031205003E1,4.333496094E-2,1.393127441E-2,-1.213073730E-2
