"Time (s)","Acceleration x (m/s^2)","Acceleration y (m/s^2)","Acceleration z (m/s^2)"
2.894629200E-2,2.183334351E0,3.351516724E0,7.770874023E0
3.144873400E-2,2.176162720E0,3.313201904E0,7.751724243E0
3.389014000E-2,2.178543091E0,3.260528564E0,7.758895874E0
3.636206400E-2,2.216857910E0,3.203063965E0,7.732559204E0
3.880347000E-2,2.183334351E0,3.176742554E0,7.782852173E0
4.127539400E-2,2.224044800E0,3.102508545E0,7.833129883E0
4.374731800E-2,2.269531250E0,3.169555664E0,7.873825073E0
4.621924100E-2,2.255157471E0,3.119277954E0,7.945648193E0
4.866064800E-2,2.259948730E0,3.028289795E0,8.003112793E0
5.113257100E-2,2.245590210E0,2.968444824E0,8.039016724E0
5.360449500E-2,2.348541260E0,3.045059204E0,8.204223633E0
5.607641900E-2,2.647811890E0,3.370666504E0,8.644760132E0
5.854834300E-2,2.379669189E0,3.291656494E0,8.819534302E0
6.102026700E-2,2.293472290E0,3.076171875E0,8.850662231E0
6.349219100E-2,2.317413330E0,2.887039185E0,8.809951782E0
6.596411400E-2,2.415573120E0,2.803237915E0,8.750106812E0
6.843603800E-2,2.420364380E0,2.690719604E0,8.635177612E0
7.087744500E-2,2.326995850E0,2.554244995E0,8.548995972E0
7.334936800E-2,2.209671021E0,2.525512695E0,8.623214722E0
7.582129200E-2,2.140243530E0,2.537490845E0,8.668701172E0
7.829321600E-2,2.061233521E0,2.501571655E0,8.647155762E0
8.073462200E-2,1.994201660E0,2.556640625E0,8.570541382E0
8.320654600E-2,2.015747070E0,2.525512695E0,8.546600342E0
8.564795200E-2,2.051651001E0,2.530303955E0,8.570541382E0
8.811987600E-2,2.130661011E0,2.561431885E0,8.570541382E0
9.059180000E-2,2.221649170E0,2.556640625E0,8.616027832E0
9.306372400E-2,2.315017700E0,2.597335815E0,8.649551392E0
9.550513000E-2,2.432342529E0,2.623672485E0,8.690246582E0
9.797705400E-2,2.511337280E0,2.616485596E0,8.680664062E0
1.004489780E-1,2.587951660E0,2.688323975E0,8.766860962E0
1.028903840E-1,2.942306519E0,2.956466675E0,8.867416382E0
1.053623080E-1,3.145812988E0,3.100128174E0,8.908126831E0
1.078342320E-1,3.006942749E0,3.025894165E0,8.982345581E0
1.103061550E-1,2.947082520E0,2.973220825E0,9.257675171E0
1.127475620E-1,2.959060669E0,2.867889404E0,9.372589111E0
1.152194860E-1,3.021316528E0,2.865493774E0,9.480331421E0
1.176608920E-1,3.066802979E0,2.872665405E0,9.475540161E0
1.201328160E-1,3.059616089E0,2.815216064E0,9.420471191E0
1.226047390E-1,2.954269409E0,2.733810425E0,9.298370361E0
1.250461460E-1,2.978210449E0,2.733810425E0,9.267242432E0
1.275180700E-1,2.932723999E0,2.736206055E0,9.190628052E0
1.299899930E-1,2.913574219E0,2.678741455E0,9.181060791E0
1.324619170E-1,2.906387329E0,2.678741455E0,9.125991821E0
1.349033230E-1,2.846527100E0,2.638046265E0,9.082901001E0
1.373752470E-1,2.810623169E0,2.590148926E0,9.046981812E0
1.398471710E-1,2.810623169E0,2.547058105E0,9.056564331E0
1.422885770E-1,2.834564209E0,2.489593506E0,9.046981812E0
1.447605010E-1,2.870468140E0,2.463256836E0,9.051773071E0
1.472324250E-1,2.906387329E0,2.424957275E0,9.099655151E0
1.496738310E-1,2.882446289E0,2.405807495E0,9.032623291E0
1.521457550E-1,2.920745850E0,2.391433716E0,9.046981812E0
1.546176790E-1,2.966247559E0,2.377075195E0,9.066131592E0
1.570896030E-1,2.975814819E0,2.374679565E0,9.097259521E0
1.595310090E-1,3.009338379E0,2.369888306E0,9.109237671E0
1.620029330E-1,3.045257568E0,2.372283936E0,9.099655151E0
1.644748570E-1,3.038070679E0,2.367492676E0,9.090072632E0
1.669162630E-1,3.026092529E0,2.341156006E0,9.082901001E0
1.693881870E-1,3.042861938E0,2.341156006E0,9.080505371E0
1.718601110E-1,3.066802979E0,2.389038086E0,9.080505371E0
1.743015170E-1,3.095535278E0,2.434539795E0,9.087692261E0
1.767734410E-1,3.088348389E0,2.365097046E0,9.080505371E0
1.792453640E-1,3.129043579E0,2.324401855E0,9.073318481E0
1.816867710E-1,3.160171509E0,2.348342896E0,9.075714111E0
1.841586950E-1,3.191299438E0,2.360305786E0,9.049377441E0
1.866306180E-1,3.229598999E0,2.350738525E0,9.018249512E0
1.891025420E-1,3.330154419E0,2.345947266E0,8.977554321E0
1.915439480E-1,3.327774048E0,2.319610596E0,8.956008911E0
1.940158720E-1,3.421142578E0,2.298065186E0,8.888961792E0
1.964572790E-1,3.449874878E0,2.259750366E0,8.857833862E0
1.989292020E-1,3.531280518E0,2.257354736E0,8.896148682E0
2.014011260E-1,3.559997559E0,2.195114136E0,8.879394531E0
2.038730500E-1,3.548034668E0,2.192718506E0,8.783615112E0
2.063144560E-1,3.528884888E0,2.163986206E0,8.714187622E0
2.087863800E-1,3.500152588E0,2.118499756E0,8.745315552E0
2.112583040E-1,3.521697998E0,2.056243896E0,8.740524292E0
2.136997100E-1,3.500152588E0,2.022735596E0,8.718978882E0
2.161716340E-1,3.490570068E0,1.998794556E0,8.680664062E0
2.186435580E-1,3.447479248E0,1.960479736E0,8.570541382E0
2.210849640E-1,3.449874878E0,1.869506836E0,8.580108643E0
2.235568880E-1,3.445083618E0,1.855133057E0,8.563354492E0
2.260288120E-1,3.397201538E0,1.821609497E0,8.489135742E0
2.284702180E-1,3.287063599E0,1.773727417E0,8.398147583E0
2.309421420E-1,3.229598999E0,1.740219116E0,8.386184692E0
2.334140660E-1,3.136230469E0,1.687545776E0,8.328720093E0
2.358554720E-1,3.009338379E0,1.661209106E0,8.359848022E0
2.383273960E-1,2.954269409E0,1.680358887E0,8.326324463E0
2.407993200E-1,2.834564209E0,1.613327026E0,8.357452393E0
2.432712430E-1,2.798645020E0,1.586990356E0,8.345489502E0
2.457126500E-1,2.743576050E0,1.582199097E0,8.314361572E0
2.481845730E-1,2.688522339E0,1.584594727E0,8.307174683E0
2.506564970E-1,2.652603149E0,1.596557617E0,8.350265503E0
2.530979040E-1,2.587951660E0,1.555862427E0,8.393371582E0
2.555698270E-1,2.566406250E0,1.560653687E0,8.350265503E0
2.580417510E-1,2.540069580E0,1.598953247E0,8.359848022E0
2.604831570E-1,2.470642090E0,1.630081177E0,8.367034912E0
2.629550810E-1,2.645416260E0,1.481643677E0,8.369430542E0
2.654270050E-1,2.573593140E0,1.543884277E0,8.448425293E0
2.678989290E-1,2.511337280E0,1.546279907E0,8.429275513E0
2.703403350E-1,2.475433350E0,1.479248047E0,8.527435303E0
2.728122590E-1,2.398818970E0,1.354751587E0,8.601669312E0
2.752841830E-1,2.417968750E0,1.402633667E0,8.568145752E0
2.777255890E-1,2.468246460E0,1.402633667E0,8.532226562E0
2.801975130E-1,2.494583130E0,1.419387817E0,8.527435303E0
2.826694370E-1,2.564010620E0,1.373901367E0,8.527435303E0
2.851108430E-1,2.602325439E0,1.359542847E0,8.529830933E0
2.875827670E-1,2.585571289E0,1.328414917E0,8.553771973E0
2.900546910E-1,2.635848999E0,1.318832397E0,8.570541382E0
2.924960970E-1,2.607116699E0,1.249404907E0,8.604049683E0
2.949680210E-1,2.621475220E0,1.244613647E0,8.616027832E0
2.974399450E-1,2.621475220E0,1.220672607E0,8.649551392E0
2.998813510E-1,2.633453369E0,1.199127197E0,8.687850952E0
3.023532750E-1,2.628662109E0,1.201522827E0,8.704605103E0
3.048251980E-1,2.611907959E0,1.182357788E0,8.742919922E0
3.072971220E-1,2.611907959E0,1.160812378E0,8.797988892E0
3.097385290E-1,2.516128540E0,1.117721558E0,8.843475342E0
3.122104520E-1,2.446701050E0,1.098571777E0,8.853057861E0
3.146823760E-1,2.408386230E0,1.086593628E0,8.876998901E0
3.171237820E-1,2.394027710E0,1.081802368E0,8.920089722E0
3.195957060E-1,2.346145630E0,1.074630737E0,8.975158691E0
3.220676300E-1,2.298263550E0,1.002807617E0,9.027832031E0
3.245090360E-1,2.283889771E0,9.884338379E-1,9.118804932E0
3.269809600E-1,2.224044800E0,9.525146484E-1,9.109237671E0
3.294528840E-1,2.178543091E0,9.381561279E-1,9.197814941E0
3.318942900E-1,2.214462280E0,8.878784180E-1,9.300765991E0
3.343662140E-1,2.185729980E0,8.591461182E-1,9.386962891E0
3.368381380E-1,2.145034790E0,7.992858887E-1,9.458786011E0
3.393100620E-1,2.166580200E0,7.873229980E-1,9.542587280E0
3.417514680E-1,2.176162720E0,7.681732178E-1,9.597656250E0
3.442233920E-1,2.168975830E0,7.346496582E-1,9.671875000E0
3.466953160E-1,2.152206421E0,6.819763184E-1,9.667083740E0
3.491367220E-1,2.183334351E0,6.149444580E-1,9.731719971E0
3.516086460E-1,2.178543091E0,5.574798584E-1,9.748489380E0
3.540805700E-1,2.183334351E0,4.784698486E-1,9.781997681E0
3.565219760E-1,2.238403320E0,4.928283691E-1,9.853836060E0
3.589939000E-1,2.221649170E0,4.018554688E-1,9.882553101E0
3.614658230E-1,2.271926880E0,3.108825684E-1,9.834671021E0
3.639072300E-1,2.276718140E0,3.228454590E-1,9.863403320E0
3.663791540E-1,2.267135620E0,3.132629395E-1,9.844253540E0
3.688510770E-1,2.221649170E0,2.773590088E-1,9.808334351E0
3.713230010E-1,2.116302490E0,3.755187988E-1,9.743698120E0
3.737644070E-1,1.951095581E0,4.928283691E-1,9.676651001E0
3.762363310E-1,1.924758911E0,4.425506592E-1,9.743698120E0
3.787082550E-1,1.996597290E0,3.443908691E-1,9.966354370E0
3.811496610E-1,2.066024780E0,6.187438965E-2,1.038534546E1
3.836215850E-1,2.094757080E0,-1.511993408E-1,1.061518860E1
3.860629910E-1,2.089965820E0,-1.416320801E-1,1.072293091E1
3.885349150E-1,1.994201660E0,-1.727600098E-1,1.079475403E1
3.910068390E-1,1.869705200E0,-9.852600098E-2,1.093121338E1
3.934787630E-1,1.721252441E0,-1.392364502E-1,1.105810547E1
3.959201690E-1,1.733230591E0,-2.780914307E-1,1.130950928E1
3.983920930E-1,1.778717041E0,-4.480895996E-1,1.157046509E1
4.008640170E-1,1.785903931E0,-5.630035400E-1,1.179074097E1
4.033359410E-1,1.800262451E0,-6.108856201E-1,1.198706055E1
4.057773470E-1,1.838577271E0,-6.922912598E-1,1.220254517E1
4.082492710E-1,1.965469360E0,-7.473602295E-1,1.247308350E1
4.107211950E-1,2.152206421E0,-8.383483887E-1,1.255448914E1
4.131626010E-1,2.283889771E0,-8.503112793E-1,1.260955811E1
4.156345250E-1,2.353332520E0,-8.143920898E-1,1.257843018E1
4.181064480E-1,2.317413330E0,-7.880554199E-1,1.253773499E1
4.205478550E-1,2.305435181E0,-7.473602295E-1,1.246589661E1
4.230197790E-1,2.233612061E0,-7.689056396E-1,1.237252808E1
4.254917020E-1,2.123489380E0,-6.994781494E-1,1.225042725E1
4.279331090E-1,2.027709961E0,-6.420135498E-1,1.209001160E1
4.304050320E-1,1.900817871E0,-5.845489502E-1,1.190325928E1
4.328769560E-1,1.833786011E0,-4.887847900E-1,1.171891785E1
4.353183630E-1,1.788299561E0,-3.858337402E-1,1.154652405E1
4.377902860E-1,1.781112671E0,-3.164062500E-1,1.137414551E1
4.402622100E-1,1.740417480E0,-2.804870605E-1,1.123529053E1
4.427341340E-1,1.802658081E0,-2.182464600E-1,1.105332947E1
4.451755400E-1,1.831390381E0,-1.392364502E-1,1.096952820E1
4.476474640E-1,1.845748901E0,-1.559906006E-1,1.075643921E1
4.501193880E-1,1.833786011E0,-1.847229004E-1,1.067265320E1
4.525607940E-1,1.881668091E0,-1.296539307E-1,1.057447815E1
4.550327180E-1,1.948699951E0,-6.262207031E-2,1.049069214E1
4.575046420E-1,2.008560181E0,2.029418945E-3,1.042843628E1
4.599460480E-1,2.085174561E0,1.169433594E-1,1.033027649E1
4.624179720E-1,2.061233521E0,1.959533691E-1,1.029196167E1
4.648898960E-1,1.946319580E0,2.055358887E-1,1.033506775E1
4.673313020E-1,1.857727051E0,1.983489990E-1,1.040209961E1
4.698032260E-1,1.766754150E0,2.174987793E-1,1.046435547E1
4.722751500E-1,1.726043701E0,2.151031494E-1,1.061518860E1
4.747470730E-1,1.680557251E0,2.174987793E-1,1.073010254E1
4.771884800E-1,1.553665161E0,1.600341797E-1,1.086178589E1
4.796604040E-1,1.395645142E0,1.432800293E-1,1.094079590E1
4.821323270E-1,1.314239502E0,1.145477295E-1,1.095515442E1
4.845737340E-1,1.302276611E0,8.581542969E-2,1.105332947E1
4.870456570E-1,1.237625122E0,5.708312988E-2,1.108923340E1
4.895175810E-1,1.223266602E0,3.076171875E-2,1.104614258E1
4.919589880E-1,1.283111572E0,-1.234436035E-2,1.099586487E1
4.944309110E-1,1.345367432E0,-3.149414062E-2,1.095515442E1
4.969028350E-1,1.441131592E0,-6.741333008E-2,1.093840027E1
4.993442410E-1,1.503387451E0,-9.614562988E-2,1.096473694E1
5.018161650E-1,1.577606201E0,-1.248626709E-1,1.091445923E1
5.042880890E-1,1.675765991E0,-1.152954102E-1,1.083784485E1
5.067294950E-1,1.766754150E0,-1.033172607E-1,1.075164795E1
5.092014190E-1,1.888854980E0,-1.128997803E-1,1.073968506E1
5.116733430E-1,1.967864990E0,-1.033172607E-1,1.066067505E1
5.141452670E-1,2.073211670E0,-8.416748047E-2,1.068222046E1
5.165866730E-1,2.185729980E0,-7.937622070E-2,1.063433838E1
5.190585970E-1,2.233612061E0,-1.057128906E-1,1.055293274E1
5.215000030E-1,2.350936890E0,-8.177185059E-2,1.053378296E1
5.239719270E-1,2.461059570E0,-8.416748047E-2,1.048110962E1
5.264438510E-1,2.583175659E0,-7.937622070E-2,1.048110962E1
5.289157750E-1,2.623870850E0,-6.501770020E-2,1.041407776E1
5.313571810E-1,2.666961670E0,-1.953125000E-2,1.032788086E1
5.338291050E-1,2.743576050E0,-5.064392090E-2,1.028239441E1
5.363010290E-1,2.808227539E0,-6.262207031E-2,1.025126648E1
5.387424350E-1,2.808227539E0,-2.909851074E-2,1.022972107E1
5.412143590E-1,2.798645020E0,-6.741333008E-2,1.021296692E1
5.436862820E-1,2.767517090E0,-1.488037109E-1,1.018183899E1
5.461582060E-1,2.827377319E0,-1.990966797E-1,1.019619751E1
5.485996130E-1,2.793853760E0,-2.493743896E-1,1.023451233E1
5.510715360E-1,2.750762939E0,-2.589416504E-1,1.031590271E1
5.535434600E-1,2.722030640E0,-3.092193604E-1,1.044041443E1
5.559848660E-1,2.690902710E0,-4.145660400E-1,1.047392273E1
5.584567900E-1,2.626266479E0,-4.145660400E-1,1.051463318E1
5.609287140E-1,2.597534180E0,-4.385070801E-1,1.062954712E1
5.633701200E-1,2.561614990E0,-5.247039795E-1,1.072770691E1
5.658420440E-1,2.480224609E0,-5.294952393E-1,1.087854004E1
5.683139680E-1,2.463455200E0,-6.085052490E-1,1.098149109E1
5.707553740E-1,2.403610229E0,-6.300506592E-1,1.106768799E1
5.732272980E-1,2.334167480E0,-6.156768799E-1,1.113711548E1
5.756992220E-1,2.350936890E0,-6.515960693E-1,1.121372986E1
5.781711460E-1,2.338958740E0,-6.755371094E-1,1.132865906E1
5.806125520E-1,2.358108521E0,-6.324462891E-1,1.138372803E1
5.830844760E-1,2.295867920E0,-5.701904297E-1,1.142921448E1
5.855258820E-1,2.276718140E0,-4.959716797E-1,1.142202759E1
5.879978060E-1,2.259948730E0,-4.624481201E-1,1.139089966E1
5.904697300E-1,2.315017700E0,-4.552612305E-1,1.137654114E1
5.929416540E-1,2.358108521E0,-4.241485596E-1,1.139569092E1
5.953830600E-1,2.343750000E0,-3.954162598E-1,1.134541321E1
5.978549840E-1,2.489791870E0,-2.876739502E-1,1.118501282E1
6.003269070E-1,2.580780029E0,-3.259887695E-1,1.106529236E1
6.027683140E-1,2.674148560E0,-3.403472900E-1,1.083544922E1
6.052402380E-1,2.808227539E0,-3.020324707E-1,1.059364319E1
6.077121610E-1,2.942306519E0,-3.020324707E-1,1.028239441E1
6.101840850E-1,3.150588989E0,-2.996520996E-1,9.978332520E0
6.126254910E-1,3.370864868E0,-2.254180908E-1,9.698211670E0
6.150974150E-1,3.600708008E0,-2.541503906E-1,9.372589111E0
6.175693390E-1,3.797027588E0,-2.302093506E-1,8.944030762E0
6.200107450E-1,3.928710938E0,-1.679687500E-1,8.563354492E0
6.224826690E-1,4.153762817E0,-7.458496094E-2,8.331115723E0
6.249545930E-1,4.359664917E0,-8.416748047E-2,8.113250732E0
6.273959990E-1,4.491348267E0,-1.033172607E-1,8.010299683E0
6.298679230E-1,4.582321167E0,-1.775360107E-1,7.928894043E0
6.323398470E-1,4.766677856E0,-2.804870605E-1,7.837905884E0
6.347812530E-1,4.898361206E0,-2.780914307E-1,7.684677124E0
6.372531770E-1,4.979766846E0,-2.541503906E-1,7.751724243E0
6.397251010E-1,5.092300415E0,-2.876739502E-1,7.770874023E0
6.421665070E-1,5.195251465E0,-3.307647705E-1,7.689468384E0
6.446384310E-1,5.326919556E0,-2.804870605E-1,7.718200684E0
6.471103550E-1,5.604660034E0,7.385253906E-2,7.830734253E0
6.495822790E-1,5.812942505E0,6.939544678E-1,8.240142822E0
6.520236850E-1,5.963775635E0,3.659362793E-1,8.036636353E0
6.544956090E-1,6.002090454E0,8.103942871E-2,7.869033813E0
6.569675320E-1,5.803375244E0,9.060668945E-2,7.885787964E0
6.594089390E-1,5.738723755E0,1.049804688E-1,7.895370483E0
6.618808630E-1,5.757888794E0,1.638793945E-2,7.773269653E0
6.643527860E-1,5.846466064E0,-8.177185059E-2,7.775665283E0
6.667941930E-1,5.851257324E0,-1.176910400E-1,7.703842163E0
6.692661160E-1,5.733932495E0,-4.585266113E-2,7.581726074E0
6.717380400E-1,5.599868774E0,-5.543518066E-2,7.512298584E0
6.741794460E-1,5.511276245E0,-3.662109375E-4,7.562576294E0
6.766513700E-1,5.437057495E0,-3.662109375E-4,7.608062744E0
6.791232940E-1,5.343688965E0,3.314208984E-2,7.567367554E0
6.815952180E-1,5.274246216E0,3.076171875E-2,7.557785034E0
6.840366240E-1,5.188064575E0,1.217346191E-1,7.493148804E0
6.865085480E-1,5.082717896E0,1.145477295E-1,7.390197754E0
6.889499540E-1,5.022857666E0,1.145477295E-1,7.347106934E0
6.914218780E-1,4.972579956E0,1.313171387E-1,7.380615234E0
6.938938020E-1,5.025253296E0,1.025848389E-1,7.361465454E0
6.963657260E-1,5.094680786E0,1.336975098E-1,7.459625244E0
6.988071320E-1,5.140182495E0,1.744079590E-1,7.699050903E0
7.012790560E-1,5.207214355E0,1.576538086E-1,7.830734253E0
7.037509800E-1,5.228759766E0,1.863708496E-1,7.995925903E0
7.062229040E-1,5.195251465E0,2.222900391E-1,8.149154663E0
7.086643100E-1,5.209609985E0,2.462310791E-1,8.151550293E0
7.111362340E-1,5.212005615E0,2.677764893E-1,8.173095703E0
7.136081570E-1,5.180877686E0,3.156585693E-1,8.165924072E0
7.160495640E-1,5.171295166E0,3.132629395E-1,8.189865112E0
7.185214880E-1,5.168914795E0,2.390441895E-1,8.134796143E0
7.209934110E-1,5.070739746E0,2.246856689E-1,8.144363403E0
7.234348180E-1,4.991729736E0,2.222900391E-1,8.141967773E0
7.259067410E-1,4.953430176E0,1.528625488E-1,8.130004883E0
7.283481480E-1,4.907943726E0,1.169433594E-1,8.213806152E0
7.308200710E-1,4.826538086E0,1.360931396E-1,8.316757202E0
7.332919950E-1,4.781051636E0,4.751586914E-2,8.295196533E0
7.357639190E-1,4.737945557E0,2.836608887E-2,8.388580322E0
7.382053250E-1,4.627822876E0,1.638793945E-2,8.541809082E0
7.406772490E-1,4.548812866E0,-5.543518066E-2,8.563354492E0
7.431491730E-1,4.503326416E0,-9.135437012E-2,8.671096802E0
7.455905790E-1,4.366851807E0,-1.200866699E-1,8.747711182E0
7.480625030E-1,4.168136597E0,-1.473999023E-2,8.905731201E0
7.505344270E-1,4.117858887E0,1.456756592E-1,9.185852051E0
7.530063510E-1,4.235168457E0,2.318725586E-1,9.398925781E0
7.554477570E-1,4.268692017E0,4.138336182E-1,9.516250610E0
7.579196810E-1,4.342910767E0,4.281921387E-1,9.695816040E0
7.603916050E-1,4.383605957E0,4.832611084E-1,9.820312500E0
7.628330110E-1,4.290237427E0,5.670623779E-1,9.884948730E0
7.653049350E-1,4.177703857E0,6.029663086E-1,9.875381470E0
7.677768590E-1,4.012512207E0,6.508483887E-1,9.820312500E0
7.702182650E-1,3.818572998E0,6.819763184E-1,9.758056641E0
7.726901890E-1,3.627044678E0,7.059173584E-1,9.619201660E0
7.751621130E-1,3.469024658E0,7.514038086E-1,9.413299561E0
7.776035190E-1,3.260726929E0,8.304138184E-1,9.413299561E0
7.800754430E-1,2.971023560E0,8.447875977E-1,9.300765991E0
7.825473660E-1,2.719635010E0,8.304138184E-1,9.102050781E0
7.850192900E-1,2.621475220E0,8.615417480E-1,8.984741211E0
7.874606960E-1,2.520919800E0,8.519592285E-1,8.833892822E0
7.899326200E-1,2.525711060E0,7.945098877E-1,8.692642212E0
7.924045440E-1,2.520919800E0,7.274627686E-1,8.553771973E0
7.948459500E-1,2.626266479E0,7.202911377E-1,8.479553223E0
7.973178740E-1,2.736404419E0,6.508483887E-1,8.398147583E0
7.997897980E-1,2.887237549E0,6.436767578E-1,8.299987793E0
8.022312040E-1,3.052429199E0,6.197204590E-1,8.144363403E0
8.047031280E-1,3.275100708E0,6.029663086E-1,8.010299683E0
8.071750520E-1,3.488174438E0,5.933990479E-1,7.952835083E0
8.096164580E-1,3.691680908E0,6.700134277E-1,7.952835083E0
8.120883820E-1,3.940689087E0,7.298583984E-1,7.979171753E0
8.145603060E-1,4.206436157E0,8.447875977E-1,8.060577393E0
8.170322300E-1,4.424316406E0,8.998565674E-1,8.141967773E0
8.194736360E-1,4.685272217E0,9.788513184E-1,8.187469482E0
8.219455600E-1,4.836120605E0,1.002807617E0,8.163528442E0
8.244174840E-1,4.907943726E0,1.074630737E0,8.182678223E0
8.268588900E-1,5.022857666E0,1.098571777E0,8.264083862E0
8.293308140E-1,5.097076416E0,1.096176147E0,8.206619263E0
8.318027380E-1,5.073135376E0,1.120117188E0,8.218582153E0
8.342441440E-1,5.097076416E0,1.100967407E0,8.280838013E0
8.367160680E-1,5.087509155E0,1.060256958E0,8.288024902E0
8.391879910E-1,5.025253296E0,1.033920288E0,8.438858032E0
8.416293980E-1,4.974975586E0,9.740753174E-1,8.462799072E0
8.441013210E-1,4.939071655E0,9.237976074E-1,8.364639282E0
8.465732450E-1,4.860061646E0,8.519592285E-1,8.474761963E0
8.490451690E-1,4.800201416E0,7.897186279E-1,8.551376343E0
8.514865750E-1,4.699645996E0,8.040771484E-1,8.639968872E0
8.539584990E-1,4.639785767E0,7.418365479E-1,8.788406372E0
8.564304230E-1,4.520080566E0,6.987304688E-1,8.762069702E0
8.588718290E-1,4.510498047E0,6.340942383E-1,8.742919922E0
8.613437530E-1,4.407546997E0,6.245117188E-1,8.735733032E0
8.638156770E-1,4.244750977E0,6.221160889E-1,8.797988892E0
8.662570830E-1,4.163345337E0,5.910034180E-1,8.786010742E0
8.687290070E-1,4.134613037E0,6.412811279E-1,8.853057861E0
8.712009310E-1,4.086730957E0,6.149444580E-1,8.936843872E0
8.736423370E-1,4.007720947E0,6.747894287E-1,8.956008911E0
8.761142610E-1,3.981384277E0,6.939544678E-1,8.927276611E0
8.785861850E-1,3.907165527E0,6.939544678E-1,8.965576172E0
8.810275910E-1,3.890411377E0,7.561950684E-1,8.984741211E0
8.834995150E-1,3.840118408E0,7.681732178E-1,8.987121582E0
8.859714390E-1,3.806610107E0,7.490081787E-1,8.958404541E0
8.884433630E-1,3.773086548E0,8.040771484E-1,8.960784912E0
8.908847690E-1,3.720413208E0,7.250671387E-1,9.152328491E0
8.933566930E-1,3.689285278E0,6.747894287E-1,9.695816040E0
8.958286160E-1,3.643798828E0,7.945098877E-1,9.480331421E0
8.982700230E-1,3.677322388E0,9.261932373E-1,9.006286621E0
9.007419460E-1,3.737182617E0,8.854827881E-1,8.972763062E0
9.032138700E-1,3.787460327E0,7.537994385E-1,9.149932861E0
9.056552770E-1,3.854492188E0,7.059173584E-1,9.195419312E0
9.081272000E-1,3.885620117E0,7.729492188E-1,8.910507202E0
9.105991240E-1,3.880828857E0,8.208465576E-1,8.453216553E0
9.130710480E-1,3.947860718E0,8.687286377E-1,8.173095703E0
9.155124540E-1,4.026870728E0,9.381561279E-1,7.936080933E0
9.179843780E-1,4.141799927E0,9.525146484E-1,7.763687134E0
9.204563020E-1,4.304595947E0,9.668884277E-1,7.696655273E0
9.228977080E-1,4.436279297E0,9.477386475E-1,7.634399414E0
9.253696320E-1,4.608657837E0,9.932250977E-1,7.541030884E0
9.278415560E-1,4.836120605E0,1.031524658E0,7.548217773E0
9.302829620E-1,4.979766846E0,9.908294678E-1,7.574554443E0
9.327548860E-1,5.092300415E0,9.812469482E-1,7.586517334E0
9.352268100E-1,5.152145386E0,1.009979248E0,7.586517334E0
9.376682160E-1,5.207214355E0,1.045898438E0,7.596099854E0
9.401401400E-1,5.238342285E0,9.860382080E-1,7.672714233E0
9.426120640E-1,5.245529175E0,9.405517578E-1,7.734954834E0
9.450534700E-1,5.214401245E0,9.620971680E-1,7.785232544E0
9.475253940E-1,5.212005615E0,9.022369385E-1,7.828338623E0
9.499973180E-1,5.094680786E0,8.591461182E-1,7.787628174E0
9.524692410E-1,5.003707886E0,8.687286377E-1,7.890579224E0
9.549106480E-1,4.900756836E0,8.399963379E-1,8.082122803E0
9.573825710E-1,4.761886597E0,8.088684082E-1,8.431671143E0
9.598544950E-1,4.570358276E0,7.945098877E-1,8.692642212E0
9.622959020E-1,4.450653076E0,7.753448486E-1,8.932067871E0
9.647678250E-1,4.340515137E0,7.585906982E-1,9.205001831E0
9.672397490E-1,4.232772827E0,7.633819580E-1,9.391754150E0
9.696811550E-1,4.153762817E0,7.442321777E-1,9.521041870E0
9.721530790E-1,4.108276367E0,8.040771484E-1,9.633560181E0
9.746250030E-1,4.137008667E0,8.495635986E-1,9.691024780E0
9.770664090E-1,4.165740967E0,9.812469482E-1,9.822708130E0
9.795383330E-1,4.175308228E0,1.136871338E0,9.882553101E0
9.820102570E-1,4.144195557E0,1.139266968E0,9.858612061E0
9.844516630E-1,4.036453247E0,1.088989258E0,9.722152710E0
9.869235870E-1,3.916732788E0,9.836425781E-1,9.628768921E0
9.893955110E-1,3.859283447E0,9.237976074E-1,9.451599121E0
9.918674350E-1,3.768295288E0,8.447875977E-1,9.329498291E0
9.943088410E-1,3.646194458E0,8.160552979E-1,9.262466431E0
9.967807650E-1,3.569580078E0,8.088684082E-1,9.272033691E0
9.992526890E-1,3.531280518E0,7.969055176E-1,9.291198730E0
1.001694095E0,3.488174438E0,8.519592285E-1,9.260070801E0
1.004166019E0,3.488174438E0,9.094238281E-1,9.279220581E0
1.006637943E0,3.466629028E0,9.788513184E-1,9.248092651E0
1.009079349E0,3.495361328E0,1.031524658E0,9.181060791E0
1.011551273E0,3.488174438E0,1.055465698E0,9.176269531E0
1.014023196E0,3.421142578E0,1.141662598E0,9.118804932E0
1.016464603E0,2.477828979E0,1.352355957E0,8.299987793E0
1.018936527E0,2.046875000E0,1.462493896E0,7.299209595E0
1.021408450E0,2.444305420E0,1.515151978E0,7.670318604E0
1.023880374E0,3.054824829E0,1.472061157E0,8.829116821E0
1.026321780E0,3.583953857E0,1.433761597E0,9.837066650E0
1.028793704E0,3.816177368E0,1.498397827E0,9.504272461E0
1.031265628E0,3.883224487E0,1.575012207E0,8.508285522E0
1.033707034E0,3.847305298E0,1.575012207E0,8.173095703E0
1.036178958E0,3.840118408E0,1.507980347E0,8.288024902E0
1.038650882E0,3.844909668E0,1.388259888E0,8.668701172E0
1.041092288E0,3.835342407E0,1.244613647E0,8.994308472E0
1.043564212E0,3.818572998E0,1.153640747E0,9.035018921E0
1.046036136E0,3.701263428E0,1.093780518E0,8.989517212E0
1.048508060E0,3.586334229E0,1.029129028E0,8.869812012E0
1.050949466E0,3.473815918E0,9.692840576E-1,8.733337402E0
1.053421390E0,3.394805908E0,1.024353027E0,8.663909912E0
1.055862796E0,3.361282349E0,1.014770508E0,8.663909912E0
1.058334720E0,3.277481079E0,9.740753174E-1,8.618423462E0
1.060806644E0,3.160171509E0,9.597015381E-1,8.503494263E0
1.063217532E0,3.073974609E0,9.573059082E-1,8.283233643E0
1.065658939E0,3.026092529E0,9.525146484E-1,8.012695312E0
1.068130863E0,3.045257568E0,9.788513184E-1,7.971984863E0
1.070633304E0,3.071594238E0,9.453430176E-1,8.060577393E0
1.073105228E0,3.141021729E0,9.644927979E-1,8.098876953E0
1.075577152E0,3.234390259E0,9.261932373E-1,8.103668213E0
1.078049075E0,3.255935669E0,8.806915283E-1,8.019866943E0
1.080490482E0,3.243972778E0,8.830871582E-1,7.948043823E0
1.082962405E0,3.311004639E0,9.190063477E-1,7.950439453E0
1.085434329E0,3.390014648E0,9.166107178E-1,7.945648193E0
1.087875736E0,3.437896729E0,8.950653076E-1,7.928894043E0
1.090347659E0,3.526489258E0,9.070281982E-1,8.216201782E0
1.092819583E0,3.595916748E0,9.046325684E-1,8.450820923E0
1.095291507E0,3.538452148E0,8.974609375E-1,8.596878052E0
1.097732913E0,3.478607178E0,8.687286377E-1,8.637573242E0
1.100204837E0,3.516906738E0,8.735198975E-1,8.853057861E0
1.102676761E0,3.440292358E0,8.615417480E-1,9.097259521E0
1.105118167E0,3.356491089E0,8.304138184E-1,9.295974731E0
1.107590091E0,3.294250488E0,8.352050781E-1,9.236129761E0
1.110062015E0,3.217636108E0,8.208465576E-1,9.324707031E0
1.112503421E0,3.105102539E0,8.328094482E-1,9.497085571E0
1.114975345E0,2.951873779E0,8.519592285E-1,9.542587280E0
1.117447269E0,2.839355469E0,8.495635986E-1,9.549758911E0
1.119888675E0,2.760345459E0,8.567504883E-1,9.559341431E0
1.122360599E0,2.702880859E0,8.495635986E-1,9.499481201E0
1.124832523E0,2.575988770E0,8.639373779E-1,9.458786011E0
1.127304446E0,2.446701050E0,9.405517578E-1,9.470764160E0
1.129745853E0,2.394027710E0,9.214019775E-1,9.372589111E0
1.132217777E0,2.394027710E0,1.009979248E0,9.310348511E0
1.134689700E0,2.401214600E0,1.007583618E0,9.300765991E0
1.137131107E0,2.396423340E0,1.041107178E0,9.327102661E0
1.139603030E0,2.358108521E0,1.096176147E0,9.279220581E0
1.142074954E0,2.398818970E0,1.062652588E0,9.193023682E0
1.144516361E0,2.360504150E0,1.088989258E0,9.085296631E0
1.146988284E0,2.343750000E0,1.136871338E0,9.035018921E0
1.149460208E0,2.355728149E0,1.120117188E0,9.027832031E0
1.151901614E0,2.372482300E0,1.103363037E0,8.898544312E0
1.154373538E0,2.360504150E0,1.077026367E0,8.853057861E0
1.156845462E0,2.317413330E0,1.019561768E0,8.843475342E0
1.159317386E0,2.286285400E0,1.086593628E0,8.912902832E0
1.161758792E0,2.298263550E0,1.110534668E0,9.032623291E0
1.164230716E0,2.224044800E0,1.105743408E0,9.018249512E0
1.166672122E0,2.149826050E0,1.098571777E0,9.018249512E0
1.169144046E0,2.106719971E0,1.105743408E0,9.073318481E0
1.171615970E0,2.044479370E0,1.098571777E0,9.205001831E0
1.174087894E0,1.951095581E0,1.084197998E0,9.300765991E0
1.176529300E0,1.817031860E0,1.074630737E0,9.425262451E0
1.179001224E0,1.678161621E0,1.122512817E0,9.535400391E0
1.181473148E0,1.553665161E0,1.122512817E0,9.633560181E0
1.183914554E0,1.441131592E0,1.084197998E0,9.779602051E0
1.186386478E0,1.347763062E0,1.129699707E0,9.949600220E0
1.188858402E0,1.285507202E0,1.077026367E0,1.006690979E1
1.191299808E0,1.189743042E0,1.086593628E0,1.011479187E1
1.193771732E0,1.125106812E0,1.153640747E0,1.007888794E1
1.196243655E0,1.077224731E0,1.141662598E0,1.016746521E1
1.198715579E0,1.067642212E0,1.163208008E0,1.019619751E1
1.201156986E0,1.053268433E0,1.153640747E0,1.023211670E1
1.203628909E0,1.048492432E0,1.179977417E0,1.020578003E1
1.206100833E0,1.000595093E0,1.213485718E0,1.014591980E1
1.208542239E0,9.431457520E-1,1.230255127E0,1.012916565E1
1.211014163E0,9.551086426E-1,1.244613647E0,1.015550232E1
1.213486087E0,9.144134521E-1,1.273345947E0,1.041885376E1
1.215927493E0,9.000396729E-1,1.287704468E0,1.085221863E1
1.218399417E0,9.168090820E-1,1.266159058E0,1.148667908E1
1.220871341E0,9.359588623E-1,1.294891357E0,1.189369202E1
1.223312747E0,9.024353027E-1,1.302078247E0,1.157046509E1
1.225784671E0,7.923126221E-1,1.309265137E0,1.072770691E1
1.228256595E0,6.893615723E-1,1.323623657E0,9.837066650E0
1.230728519E0,5.983734131E-1,1.381088257E0,9.363021851E0
1.233169925E0,5.026092529E-1,1.472061157E0,9.257675171E0
1.235641849E0,5.193634033E-1,1.527130127E0,9.329498291E0
1.238113773E0,6.007690430E-1,1.536712646E0,9.480331421E0
1.240555179E0,6.917572021E-1,1.673171997E0,9.600036621E0
1.243027103E0,7.420349121E-1,1.756973267E0,9.602432251E0
1.245499027E0,7.635803223E-1,1.773727417E0,9.458786011E0
1.247940433E0,7.970886230E-1,1.843170166E0,9.288803101E0
1.250412357E0,7.611846924E-1,1.912597656E0,9.200210571E0
1.252884280E0,7.444305420E-1,1.924560547E0,9.082901001E0
1.255356204E0,7.635803223E-1,1.907806396E0,8.979949951E0
1.257797611E0,7.420349121E-1,1.903015137E0,8.956008911E0
1.260269534E0,7.252655029E-1,1.876678467E0,8.953613281E0
1.262741458E0,6.725921631E-1,1.862319946E0,8.915298462E0
1.265182864E0,6.534423828E-1,1.809646606E0,8.893753052E0
1.267654788E0,6.558380127E-1,1.800064087E0,8.951217651E0
1.270126712E0,6.678161621E-1,1.828796387E0,8.934448242E0
1.272568118E0,6.749877930E-1,1.800064087E0,8.960784912E0
1.275040042E0,6.773834229E-1,1.754577637E0,8.929672241E0
1.277511966E0,7.085113525E-1,1.768951416E0,9.056564331E0
1.279953372E0,7.300567627E-1,1.723449707E0,9.066131592E0
1.282425296E0,7.539978027E-1,1.699508667E0,9.068527222E0
1.284897220E0,7.970886230E-1,1.673171997E0,9.142745972E0
1.287338626E0,8.497619629E-1,1.603744507E0,9.181060791E0
1.289810550E0,8.258209229E-1,1.601348877E0,9.181060791E0
1.292282474E0,8.186492920E-1,1.551071167E0,9.228942871E0
1.294723880E0,8.401947021E-1,1.503189087E0,9.262466431E0
1.297195804E0,8.760986328E-1,1.481643677E0,9.288803101E0
1.299667728E0,8.808898926E-1,1.397842407E0,9.374984741E0
1.302139652E0,8.760986328E-1,1.306869507E0,9.384567261E0
1.304581058E0,8.832855225E-1,1.292495728E0,9.420471191E0
1.307052982E0,8.401947021E-1,1.273345947E0,9.403717041E0
1.309494388E0,8.449859619E-1,1.270950317E0,9.372589111E0
1.311966312E0,8.401947021E-1,1.201522827E0,9.396530151E0
1.314438236E0,8.569488525E-1,1.203918457E0,9.363021851E0
1.316910159E0,8.808898926E-1,1.146453857E0,9.367813110E0
1.319351566E0,8.856811523E-1,1.158416748E0,9.394149780E0
1.321823489E0,8.880767822E-1,1.141662598E0,9.372589111E0
1.324295413E0,8.952636719E-1,1.153640747E0,9.389358521E0
1.326736820E0,9.287719727E-1,1.148849487E0,9.386962891E0
1.329208743E0,9.910278320E-1,1.124908447E0,9.432449341E0
1.331680667E0,9.910278320E-1,1.065048218E0,9.418090820E0
1.334152591E0,1.022155762E0,1.127304077E0,9.473144531E0
1.336593997E0,1.079605103E0,1.110534668E0,9.449203491E0
1.339065921E0,1.065246582E0,1.079421997E0,9.453994751E0
1.341537845E0,9.886322021E-1,1.048294067E0,9.485122681E0
1.343979251E0,9.742736816E-1,1.036315918E0,9.521041870E0
1.346451175E0,9.455413818E-1,9.908294678E-1,9.544982910E0
1.348923099E0,9.287719727E-1,9.261932373E-1,9.609619141E0
1.351364505E0,8.449859619E-1,8.998565674E-1,9.688629150E0
1.353836429E0,8.186492920E-1,8.328094482E-1,9.762847900E0
1.356308353E0,7.276611328E-1,7.753448486E-1,9.853836060E0
1.358749759E0,6.534423828E-1,7.801361084E-1,9.918472290E0
1.361221683E0,5.696411133E-1,7.585906982E-1,1.010043335E1
1.363693607E0,5.409088135E-1,7.226715088E-1,1.017225647E1
1.366165530E0,4.427490234E-1,7.202911377E-1,1.023211670E1
1.368606937E0,3.206481934E-1,7.011260986E-1,1.041168213E1
1.371078861E0,1.841735840E-1,6.388854980E-1,1.047631836E1
1.373550784E0,1.123504639E-1,6.245117188E-1,1.054814148E1
1.375992191E0,1.419067383E-2,6.269073486E-1,1.057687378E1
1.378464114E0,-4.566955566E-2,6.676177979E-1,1.064392090E1
1.380936038E0,-8.396911621E-2,6.556396484E-1,1.068222046E1
1.383377445E0,-1.749572754E-1,6.747894287E-1,1.078756714E1
1.385849368E0,-2.443847656E-1,7.202911377E-1,1.083544922E1
1.388321292E0,-3.688812256E-1,7.825317383E-1,1.083305359E1
1.390762698E0,-5.556335449E-1,7.801361084E-1,1.087376404E1
1.393234622E0,-7.830810547E-1,7.849273682E-1,1.091206360E1
1.395706546E0,-9.099731445E-1,7.777404785E-1,1.086418152E1
1.398147952E0,-1.048828125E0,7.585906982E-1,1.076362610E1
1.400619876E0,-1.204452515E0,6.700134277E-1,1.065109253E1
1.403091800E0,-1.374450684E0,5.862121582E-1,1.053378296E1
1.405563724E0,-1.393600464E0,5.167846680E-1,1.042604065E1
1.408005130E0,-1.554016113E0,4.641113281E-1,1.024887085E1
1.410477054E0,-1.417541504E0,4.473419189E-1,1.021534729E1
1.412948978E0,-1.187698364E0,4.832611084E-1,1.013635254E1
1.415390384E0,-1.214035034E0,4.952239990E-1,9.937622070E0
1.417862308E0,-1.185302734E0,5.622711182E-1,9.875381470E0
1.420334232E0,-1.113479614E0,6.676177979E-1,9.813125610E0
1.422775638E0,-1.041656494E0,7.729492188E-1,9.731719971E0
1.425247562E0,-9.985504150E-1,8.399963379E-1,9.669479370E0
1.427719486E0,-9.889831543E-1,9.525146484E-1,9.604827881E0
1.430160892E0,-9.099731445E-1,1.093780518E0,9.518646240E0
1.432632816E0,-9.267272949E-1,1.223068237E0,9.468368530E0
1.435104739E0,-8.812408447E-1,1.270950317E0,9.513854980E0
1.437576663E0,-8.309631348E-1,1.421783447E0,9.413299561E0
1.440018070E0,-7.902526855E-1,1.507980347E0,9.329498291E0
1.442489993E0,-8.572998047E-1,1.579803467E0,9.243301392E0
1.444931400E0,-7.256164551E-1,1.673171997E0,9.252883911E0
1.447403323E0,-6.490020752E-1,1.730636597E0,9.212188721E0
1.449875247E0,-7.734985352E-1,1.768951416E0,9.216964722E0
1.452347171E0,-7.160339355E-1,1.766555786E0,9.257675171E0
1.454788577E0,-6.226654053E-1,1.807250977E0,9.183456421E0
1.457260501E0,-7.711029053E-1,1.795288086E0,9.082901001E0
1.459732425E0,-9.003906250E-1,1.716278076E0,9.106842041E0
1.462173831E0,-9.841918945E-1,1.673171997E0,9.054168701E0
1.464645755E0,-1.060806274E0,1.608535767E0,8.970367432E0
1.467117679E0,-1.106292725E0,1.575012207E0,8.908126831E0
1.469589603E0,-1.218826294E0,1.436157227E0,8.903335571E0
1.472031009E0,-1.305007935E0,1.405029297E0,8.860229492E0
1.474502933E0,-1.422332764E0,1.273345947E0,8.812347412E0
1.476974857E0,-1.539642334E0,1.141662598E0,8.750106812E0
1.479416263E0,-1.762298584E0,1.045898438E0,8.730941772E0
1.481888187E0,-1.949050903E0,9.620971680E-1,8.647155762E0
1.484360111E0,-2.080734253E0,8.926696777E-1,8.663909912E0
1.486801517E0,-2.176498413E0,8.615417480E-1,8.687850952E0
1.489273441E0,-2.344100952E0,7.992858887E-1,8.651947021E0
1.491745364E0,-2.456619263E0,7.992858887E-1,8.582504272E0
1.494186771E0,-2.645767212E0,7.873229980E-1,8.580108643E0
1.496658695E0,-2.813354492E0,7.705688477E-1,8.575332642E0
1.499130618E0,-2.913909912E0,7.681732178E-1,8.537017822E0
1.501572025E0,-3.081512451E0,8.495635986E-1,8.467590332E0
1.504043948E0,-3.155731201E0,8.974609375E-1,8.381393433E0
1.506515872E0,-3.244323730E0,9.597015381E-1,8.256896973E0
1.508987796E0,-3.390365601E0,1.050689697E0,8.199432373E0
1.511429202E0,-3.431060791E0,1.105743408E0,8.048599243E0
1.513901126E0,-3.502883911E0,1.112930298E0,7.663131714E0
1.516373050E0,-3.668090820E0,1.029129028E0,7.105285645E0
1.518814456E0,-3.763854980E0,1.132080078E0,7.275268555E0
1.521286380E0,-3.759063721E0,1.254196167E0,7.299209595E0
1.523758304E0,-3.806961060E0,1.364318848E0,7.141204834E0
1.526199710E0,-3.723159790E0,1.503189087E0,6.932907104E0
1.528671634E0,-3.646545410E0,1.697113037E0,6.734191895E0
1.531143558E0,-3.577117920E0,1.790496826E0,6.554626465E0
1.533584964E0,-3.464584351E0,1.833587646E0,6.504333496E0
1.536056888E0,-3.380783081E0,1.847946167E0,6.463638306E0
1.538528812E0,-3.244323730E0,1.910202026E0,6.415756226E0
1.540970218E0,-3.177276611E0,1.974853516E0,6.322387695E0
1.543442142E0,-3.050384521E0,1.996398926E0,6.284072876E0
1.545914066E0,-2.973770142E0,2.061035156E0,6.257736206E0
1.548385989E0,-2.899551392E0,2.128082275E0,6.231399536E0
1.550827396E0,-2.894760132E0,2.192718506E0,6.226608276E0
1.553299320E0,-2.887588501E0,2.183135986E0,6.274490356E0
1.555771243E0,-2.866027832E0,2.231018066E0,6.296051025E0
1.558212650E0,-2.815750122E0,2.242996216E0,6.336746216E0
1.560684573E0,-2.679290771E0,2.290878296E0,6.346328735E0
1.563156497E0,-2.538024902E0,2.348342896E0,6.418151855E0
1.565597904E0,-2.463806152E0,2.322006226E0,6.511520386E0
1.568069827E0,-2.437469482E0,2.350738525E0,6.521102905E0
1.570541751E0,-2.413528442E0,2.329193115E0,6.600112915E0
1.573013675E0,-2.341705322E0,2.262145996E0,6.633621216E0
1.575455081E0,-2.181289673E0,2.242996216E0,6.645599365E0
1.577927005E0,-2.128616333E0,2.163986206E0,6.712631226E0
1.580398929E0,-2.056793213E0,2.152023315E0,6.688690186E0
1.582840335E0,-1.908355713E0,2.120895386E0,6.688690186E0
1.585312259E0,-1.824554443E0,2.017944336E0,6.669540405E0
1.587784183E0,-1.874832153E0,1.828796387E0,6.636016846E0
1.590225589E0,-1.992156982E0,1.603744507E0,6.535461426E0
1.592697513E0,-2.154953003E0,1.311645508E0,6.458847046E0
1.595169437E0,-2.375228882E0,1.024353027E0,6.399002075E0
1.597610843E0,-2.609848022E0,7.274627686E-1,6.308013916E0
1.600082767E0,-2.849273682E0,4.712829590E-1,6.238586426E0
1.602554691E0,-3.043197632E0,1.744079590E-1,6.226608276E0
1.605026614E0,-3.189254761E0,-6.980895996E-2,6.147598267E0
1.607468021E0,-3.304168701E0,-1.679687500E-1,6.082962036E0
1.609939945E0,-3.306564331E0,-2.589416504E-1,6.044647217E0
1.612411868E0,-3.361633301E0,-3.331604004E-1,6.068603516E0
1.614853275E0,-3.349655151E0,-3.906250000E-1,6.049438477E0
1.617325198E0,-3.289810181E0,-3.954162598E-1,6.070983887E0
1.619797122E0,-3.222763062E0,-3.594970703E-1,6.054229736E0
1.622238529E0,-3.165313721E0,-3.906250000E-1,5.999160767E0
1.624710452E0,-3.045593262E0,-5.175170898E-1,5.857910156E0
1.627182376E0,-2.813354492E0,-5.797729492E-1,5.759750366E0
1.629623782E0,-2.676895142E0,-5.558319092E-1,5.764526367E0
1.632095706E0,-2.581115723E0,-5.582122803E-1,5.704681396E0
1.634567630E0,-2.499725342E0,-5.582122803E-1,5.572998047E0
1.637009036E0,-2.535629272E0,-5.677947998E-1,5.465255737E0
1.639480960E0,-2.566757202E0,-5.917358398E-1,5.364700317E0
1.641952884E0,-2.621826172E0,-6.180725098E-1,5.211471558E0
1.644424808E0,-2.729568481E0,-6.180725098E-1,5.019943237E0
1.646866214E0,-2.832519531E0,-5.965270996E-1,4.883468628E0
1.649338138E0,-2.954620361E0,-6.132812500E-1,4.837982178E0
1.651810062E0,-3.076721191E0,-6.492004395E-1,4.725448608E0
1.654251468E0,-3.182067871E0,-6.587829590E-1,4.636856079E0
1.656723392E0,-3.311355591E0,-7.042694092E-1,4.617706299E0
1.659195316E0,-3.450225830E0,-7.449645996E-1,4.495605469E0
1.661636722E0,-3.555557251E0,-7.808837891E-1,4.526733398E0
1.664108646E0,-3.620208740E0,-8.431243896E-1,4.524337769E0
1.666580570E0,-3.737518311E0,-8.766479492E-1,4.557861328E0
1.669021976E0,-3.802169800E0,-9.580535889E-1,4.543487549E0
1.671493900E0,-3.931457520E0,-9.652404785E-1,4.644042969E0
1.673965823E0,-4.024826050E0,-9.843902588E-1,4.670379639E0
1.676437747E0,-4.111022949E0,-1.029876709E0,4.711090088E0
1.678879154E0,-4.144531250E0,-1.113677979E0,4.826004028E0
1.681351077E0,-4.252273560E0,-1.187896729E0,4.881072998E0
1.683823001E0,-4.319320679E0,-1.240570068E0,4.933746338E0
1.686264407E0,-4.400711060E0,-1.360275269E0,4.950500488E0
1.688736331E0,-4.496490479E0,-1.444076538E0,4.988815308E0
1.691208255E0,-4.529998779E0,-1.570968628E0,5.031906128E0
1.693649661E0,-4.585067749E0,-1.659545898E0,5.017547607E0
1.696121585E0,-4.623382568E0,-1.760101318E0,5.082183838E0
1.698593509E0,-4.721542358E0,-1.903762817E0,5.043884277E0
1.701034915E0,-4.805343628E0,-2.013900757E0,5.039093018E0
1.703506839E0,-4.891525269E0,-2.119232178E0,5.074996948E0
1.705978763E0,-4.977722168E0,-2.229370117E0,5.017547607E0
1.708450687E0,-5.080673218E0,-2.327529907E0,4.955291748E0
1.710892093E0,-5.162078857E0,-2.430480957E0,4.948104858E0
1.713364017E0,-5.253051758E0,-2.528640747E0,4.852340698E0
1.715835941E0,-5.358398438E0,-2.626815796E0,4.814041138E0
1.718277347E0,-5.336853027E0,-2.698638916E0,4.785308838E0
1.720749271E0,-5.367980957E0,-2.808761597E0,4.687149048E0
1.723221195E0,-5.391921997E0,-2.820739746E0,4.545883179E0
1.725662601E0,-5.372756958E0,-2.902145386E0,4.471664429E0
1.728134525E0,-5.329666138E0,-2.976364136E0,4.433349609E0
1.730606448E0,-5.300933838E0,-3.012283325E0,4.292098999E0
1.733047855E0,-5.320083618E0,-3.052978516E0,4.258575439E0
1.735519779E0,-5.253051758E0,-3.103256226E0,4.160415649E0
1.737991702E0,-5.257843018E0,-3.141555786E0,4.086196899E0
1.740433109E0,-5.300933838E0,-3.232543945E0,3.992828369E0
1.742905032E0,-5.365585327E0,-3.285217285E0,3.940155029E0
1.745376956E0,-5.456558228E0,-3.349853516E0,3.942550659E0
1.747848880E0,-5.569091797E0,-3.448013306E0,3.911422729E0
1.750290286E0,-5.707946777E0,-3.553359985E0,3.851562500E0
1.752762210E0,-5.818084717E0,-3.646743774E0,3.791717529E0
1.755234134E0,-5.906661987E0,-3.697021484E0,3.827621460E0
1.757675540E0,-6.023986816E0,-3.737716675E0,3.841995239E0
1.760147464E0,-6.146087646E0,-3.811935425E0,3.846771240E0
1.762619388E0,-6.292129517E0,-3.845458984E0,3.978454590E0
1.765060794E0,-6.452545166E0,-3.847854614E0,4.016769409E0
1.767532718E0,-6.658447266E0,-3.883758545E0,4.148452759E0
1.770004642E0,-6.828430176E0,-3.816726685E0,4.280120850E0
1.772446048E0,-7.079833984E0,-3.811935425E0,4.387863159E0
1.774917972E0,-7.336013794E0,-3.790390015E0,4.521942139E0
1.777389896E0,-7.575424194E0,-3.744903564E0,4.588973999E0
1.779831302E0,-7.862731934E0,-3.677871704E0,4.725448608E0
1.782303226E0,-8.178771973E0,-3.627578735E0,4.852340698E0
1.784775150E0,-8.482833862E0,-3.601257324E0,4.993606567E0
1.787247073E0,-8.784500122E0,-3.519851685E0,5.118103027E0
1.789688480E0,-9.050262451E0,-3.493515015E0,5.244995117E0
1.792160404E0,-9.296859741E0,-3.457595825E0,5.364700317E0
1.794632327E0,-9.555435181E0,-3.455200195E0,5.510742188E0
1.797073734E0,-9.730209351E0,-3.366622925E0,5.663970947E0
1.799545657E0,-9.933715820E0,-3.325912476E0,5.752563477E0
1.802017581E0,-1.011328125E1,-3.328308105E0,5.903396606E0
1.804458988E0,-1.022102356E1,-3.261276245E0,6.075775146E0
1.806930911E0,-1.035270691E1,-3.218170166E0,6.123657227E0
1.809402835E0,-1.046762085E1,-3.215789795E0,6.231399536E0
1.811874759E0,-1.051310730E1,-3.218170166E0,6.288864136E0
1.814316165E0,-1.054183960E1,-3.225357056E0,6.360687256E0
1.816788089E0,-1.056817627E1,-3.273239136E0,6.415756226E0
1.819260013E0,-1.058494568E1,-3.191848755E0,6.389419556E0
1.821701419E0,-1.057536316E1,-3.218170166E0,6.434906006E0
1.824173343E0,-1.058972168E1,-3.237335205E0,6.449279785E0
1.826645267E0,-1.056100464E1,-3.215789795E0,6.410964966E0
1.829086673E0,-1.049874878E1,-3.242126465E0,6.389419556E0
1.831558597E0,-1.043409729E1,-3.297180176E0,6.389419556E0
1.834030521E0,-1.042213440E1,-3.258880615E0,6.339141846E0
1.836471927E0,-1.038621521E1,-3.282821655E0,6.236190796E0
1.838943851E0,-1.035270691E1,-3.304367065E0,6.202667236E0
1.841415775E0,-1.028805542E1,-3.306762695E0,6.082962036E0
1.843857181E0,-1.028565979E1,-3.297180176E0,5.946487427E0
1.846329105E0,-1.036946106E1,-3.345077515E0,5.862701416E0
1.848801029E0,-1.045805359E1,-3.301971436E0,5.745376587E0
1.851272952E0,-1.053944397E1,-3.321121216E0,5.719039917E0
1.853714359E0,-1.065676880E1,-3.270843506E0,5.613693237E0
1.856186282E0,-1.085308838E1,-3.263671875E0,5.587356567E0
1.858658206E0,-1.108293152E1,-3.182266235E0,5.637634277E0
1.861099613E0,-1.131037903E1,-3.100860596E0,5.716644287E0
1.863571536E0,-1.156895447E1,-2.990722656E0,5.719039917E0
1.866043460E0,-1.181317139E1,-2.842285156E0,5.750167847E0
1.868484866E0,-1.202384949E1,-2.684265137E0,5.795654297E0
1.870956790E0,-1.226567078E1,-2.602874756E0,5.889038086E0
1.873428714E0,-1.244044495E1,-2.492736816E0,5.922546387E0
1.875870120E0,-1.256015015E1,-2.387390137E0,6.023101807E0
1.878342044E0,-1.270860291E1,-2.282043457E0,6.106903076E0
1.880813968E0,-1.282112122E1,-2.255706787E0,6.176330566E0
1.883285892E0,-1.288098145E1,-2.277252197E0,6.315200806E0
1.885727298E0,-1.291928101E1,-2.270080566E0,6.341537476E0
1.888199222E0,-1.294322205E1,-2.282043457E0,6.418151855E0
1.890671146E0,-1.290971375E1,-2.351470947E0,6.528289795E0
1.893112552E0,-1.289054871E1,-2.430480957E0,6.631240845E0
1.895584476E0,-1.295520020E1,-2.528640747E0,6.806015015E0
1.898056400E0,-1.296716309E1,-2.578918457E0,7.019088745E0
1.900497806E0,-1.274211121E1,-2.645965576E0,7.191482544E0
1.902969730E0,-1.241889954E1,-2.729766846E0,7.315979004E0
1.905441654E0,-1.216990662E1,-2.801589966E0,7.426101685E0
1.907883060E0,-1.196160889E1,-2.938049316E0,7.600891113E0
1.910354984E0,-1.169345093E1,-3.064941406E0,7.679901123E0
1.912826907E0,-1.150431824E1,-3.160720825E0,7.742141724E0
1.915298831E0,-1.128643799E1,-3.335494995E0,7.869033813E0
1.917740238E0,-1.106138611E1,-3.469573975E0,8.003112793E0
1.920212161E0,-1.083393860E1,-3.649139404E0,8.173095703E0
1.922684085E0,-1.053704834E1,-3.807144165E0,8.486740112E0
1.925125491E0,-1.029045105E1,-3.934036255E0,8.671096802E0
1.927597415E0,-1.006539917E1,-4.022628784E0,8.891357422E0
1.930069339E0,-9.852310181E0,-4.106430054E0,9.104446411E0
1.932510745E0,-9.679931641E0,-4.166275024E0,9.243301392E0
1.934982669E0,-9.529098511E0,-4.197402954E0,9.351043701E0
1.937454593E0,-9.385437012E0,-4.288391113E0,9.425262451E0
1.939895999E0,-9.277709961E0,-4.295562744E0,9.499481201E0
1.942367923E0,-9.220245361E0,-4.312332153E0,9.554550171E0
1.944839847E0,-9.222640991E0,-4.321899414E0,9.595260620E0
1.947311771E0,-9.198699951E0,-4.362609863E0,9.607223511E0
1.949753177E0,-9.167572021E0,-4.384155273E0,9.621597290E0
1.952225101E0,-9.215454102E0,-4.343444824E0,9.626373291E0
1.954666507E0,-9.263336182E0,-4.341064453E0,9.667083740E0
1.957138431E0,-9.282501221E0,-4.353027344E0,9.700607300E0
1.959610355E0,-9.385437012E0,-4.307540894E0,9.707778931E0
1.962082279E0,-9.531494141E0,-4.309936523E0,9.813125610E0
1.964523685E0,-9.624862671E0,-4.259658813E0,9.877777100E0
1.966995609E0,-9.739791870E0,-4.195007324E0,9.963958740E0
1.969467532E0,-9.821182251E0,-4.135162354E0,1.009324646E1
1.971908939E0,-9.988784790E0,-4.106430054E0,1.014591980E1
1.974380863E0,-1.010130310E1,-4.089660645E0,1.027281189E1
1.976852786E0,-1.021383667E1,-4.034606934E0,1.028239441E1
1.979324710E0,-1.027609253E1,-3.986709595E0,1.036380005E1
1.981766116E0,-1.035510254E1,-3.950805664E0,1.042843628E1
1.984238040E0,-1.042213440E1,-3.957992554E0,1.039251709E1
1.986679446E0,-1.046043396E1,-3.926864624E0,1.043801880E1
1.989151370E0,-1.045086670E1,-3.871795654E0,1.043801880E1
1.991623294E0,-1.049874878E1,-3.819122314E0,1.034223938E1
1.994095218E0,-1.048199463E1,-3.761657715E0,1.031112671E1
1.996536624E0,-1.050833130E1,-3.740112305E0,1.019140625E1
1.999008548E0,-1.049156189E1,-3.706588745E0,1.010282898E1
2.001480472E0,-1.044128418E1,-3.689834595E0,1.000227356E1
2.003921878E0,-1.041734314E1,-3.670684814E0,9.901718140E0
2.006393802E0,-1.040298462E1,-3.656311035E0,9.767639160E0
2.008865726E0,-1.033593750E1,-3.649139404E0,9.571319580E0
2.011307132E0,-1.026411438E1,-3.610824585E0,9.477935791E0
2.013779056E0,-1.019708252E1,-3.644348145E0,9.339080811E0
2.016250980E0,-1.010609436E1,-3.699417114E0,9.068527222E0
2.018722904E0,-9.964843750E0,-3.692230225E0,8.922485352E0
2.021164310E0,-9.909774780E0,-3.732925415E0,8.774047852E0
2.023636234E0,-9.787673950E0,-3.776031494E0,8.661514282E0
2.026108157E0,-9.718231201E0,-3.809539795E0,8.513076782E0
2.028549564E0,-9.593734741E0,-3.826309204E0,8.398147583E0
2.031021488E0,-9.512344360E0,-3.847854614E0,8.309570312E0
2.033493411E0,-9.426147461E0,-3.917282104E0,8.244918823E0
2.035934818E0,-9.301651001E0,-3.969955444E0,8.141967773E0
2.038406741E0,-9.222640991E0,-4.063323975E0,7.919311523E0
2.040878665E0,-9.129257202E0,-4.288391113E0,7.466812134E0
2.043320071E0,-9.162780762E0,-4.444015503E0,7.201049805E0
2.045791995E0,-9.169967651E0,-4.302749634E0,7.385406494E0
2.048263919E0,-9.011947632E0,-4.199798584E0,7.569763184E0
2.050735843E0,-8.815628052E0,-4.175857544E0,7.756515503E0
2.053177249E0,-8.655212402E0,-4.156707764E0,7.900161743E0
2.055649173E0,-8.530715942E0,-4.154312134E0,7.861846924E0
2.058121097E0,-8.487625122E0,-4.192611694E0,7.770874023E0
2.060562503E0,-8.525924683E0,-4.214172363E0,7.634399414E0
2.063034427E0,-8.525924683E0,-4.281204224E0,7.521881104E0
2.065506351E0,-8.552261353E0,-4.420059204E0,7.418930054E0
2.067947757E0,-8.585784912E0,-4.520629883E0,7.304000854E0
2.070419681E0,-8.643234253E0,-4.630752563E0,7.301605225E0
2.072891605E0,-8.619293213E0,-4.748077393E0,7.148376465E0
2.075333011E0,-8.631271362E0,-4.764831543E0,7.057403564E0
2.077804935E0,-8.602539062E0,-4.781585693E0,7.011917114E0
2.080276859E0,-8.614517212E0,-4.865386963E0,6.944869995E0
2.082718265E0,-8.650421143E0,-4.915664673E0,6.746154785E0
2.085190189E0,-8.660003662E0,-4.920455933E0,6.669540405E0
2.087662113E0,-8.671966553E0,-4.982696533E0,6.552230835E0
2.090134036E0,-8.698303223E0,-5.061706543E0,6.358291626E0
2.092575443E0,-8.774917603E0,-5.025802612E0,6.454055786E0
2.095047366E0,-8.798858643E0,-5.023406982E0,6.437301636E0
2.097519290E0,-8.772521973E0,-5.164657593E0,6.135635376E0
2.099960696E0,-8.837173462E0,-5.167053223E0,6.020706177E0
2.102432620E0,-8.889846802E0,-5.159881592E0,5.987197876E0
2.104904544E0,-8.858718872E0,-5.179031372E0,5.901000977E0
2.107345950E0,-8.844360352E0,-5.138320923E0,5.915374756E0
2.109817874E0,-8.885055542E0,-5.167053223E0,5.738189697E0
2.112289798E0,-8.887451172E0,-5.195785522E0,5.630462646E0
2.114731204E0,-8.856323242E0,-5.212554932E0,5.527511597E0
2.117203128E0,-8.851531982E0,-5.167053223E0,5.558624268E0
2.119675052E0,-8.889846802E0,-5.200576782E0,5.455673218E0
2.122146976E0,-8.949707031E0,-5.181427002E0,5.470046997E0
2.124588382E0,-8.959274292E0,-5.080871582E0,5.505966187E0
2.127060306E0,-8.908996582E0,-5.135940552E0,5.412582397E0
2.129532230E0,-8.815628052E0,-5.234100342E0,5.319213867E0
2.131973636E0,-8.818023682E0,-5.234100342E0,5.273727417E0
2.134445560E0,-8.897033691E0,-5.200576782E0,5.362304688E0
2.136917484E0,-8.856323242E0,-5.238876343E0,5.436523438E0
2.139358890E0,-8.803649902E0,-5.243667603E0,5.422164917E0
2.141830814E0,-8.894638062E0,-5.258041382E0,5.302444458E0
2.144302738E0,-9.057434082E0,-5.198181152E0,5.450897217E0
2.146774661E0,-9.059829712E0,-5.140716553E0,5.527511597E0
2.149216068E0,-9.090957642E0,-5.128753662E0,5.376678467E0
2.151687991E0,-9.253768921E0,-5.109603882E0,5.252166748E0
2.154159915E0,-9.466842651E0,-4.997070312E0,5.381454468E0
2.156601321E0,-9.344741821E0,-5.049743652E0,5.333572388E0
2.159073245E0,-9.181930542E0,-5.035369873E0,5.065429688E0
2.161545169E0,-9.282501221E0,-5.059326172E0,4.816421509E0
2.163986575E0,-9.454879761E0,-5.090438843E0,4.814041138E0
2.166458499E0,-9.646408081E0,-5.056930542E0,4.746994019E0
2.168930423E0,-9.687118530E0,-5.044952393E0,4.766143799E0
2.171371829E0,-9.519515991E0,-5.061706543E0,4.675170898E0
2.173843753E0,-9.351928711E0,-5.064102173E0,4.466873169E0
2.176315677E0,-9.347137451E0,-5.004257202E0,4.354354858E0
2.178757083E0,-9.960052490E0,-4.762435913E0,4.301681519E0
2.181229007E0,-1.102786255E1,-4.333877563E0,4.591369629E0
2.183700931E0,-1.145643616E1,-4.314727783E0,4.670379639E0
2.186172855E0,-1.153065491E1,-4.312332153E0,4.533920288E0
2.188614261E0,-1.149713135E1,-4.252471924E0,4.588973999E0
2.191086185E0,-1.125531006E1,-4.257263184E0,4.632080078E0
2.193558109E0,-1.089379883E1,-4.317123413E0,4.660812378E0
2.195999515E0,-1.064958191E1,-4.338668823E0,4.644042969E0
2.198471439E0,-1.054663086E1,-4.343444824E0,4.555465698E0
2.200943363E0,-1.061845398E1,-4.345840454E0,4.335189819E0
2.203384769E0,-1.067112732E1,-4.353027344E0,4.284912109E0
2.205856693E0,-1.056578064E1,-4.331481934E0,4.227462769E0
2.208328616E0,-1.046043396E1,-4.398513794E0,4.143661499E0
2.210770023E0,-1.046762085E1,-4.379364014E0,4.102951050E0
2.213241946E0,-1.037185669E1,-4.379364014E0,4.081405640E0
2.215713870E0,-1.040058899E1,-4.357818604E0,4.095779419E0
2.218155277E0,-1.022102356E1,-4.350631714E0,4.038314819E0
2.220627200E0,-1.001033020E1,-4.422454834E0,3.956909180E0
2.223099124E0,-9.854705811E0,-4.489501953E0,3.978454590E0
2.225571048E0,-9.586563110E0,-4.523010254E0,3.978454590E0
2.228012454E0,-9.404602051E0,-4.606811523E0,3.911422729E0
2.230484378E0,-9.177154541E0,-4.702575684E0,3.870712280E0
2.232956302E0,-9.074203491E0,-4.760040283E0,3.885086060E0
2.235397708E0,-8.949707031E0,-4.798355103E0,3.820434570E0
2.237869632E0,-8.791687012E0,-4.915664673E0,3.870712280E0
2.240341556E0,-8.648025513E0,-4.994674683E0,3.820434570E0
2.242782962E0,-8.518737793E0,-5.064102173E0,3.858749390E0
2.245254886E0,-8.411010742E0,-5.195785522E0,3.973663330E0
2.247726810E0,-8.312835693E0,-5.238876343E0,3.949722290E0
2.250168216E0,-8.236221313E0,-5.317886353E0,4.028732300E0
2.252640140E0,-8.145248413E0,-5.382537842E0,4.059860229E0
2.255112064E0,-8.104553223E0,-5.485488892E0,4.158020020E0
2.257583988E0,-8.037506104E0,-5.545349121E0,4.275344849E0
2.260025394E0,-7.989624023E0,-5.614776611E0,4.323226929E0
2.262497318E0,-7.905822754E0,-5.751235962E0,4.493209839E0
2.264969241E0,-7.836395264E0,-5.808700562E0,4.536300659E0
2.267410648E0,-7.675979614E0,-6.141494751E0,4.569824219E0
2.269882571E0,-7.429382324E0,-6.637100220E0,4.450119019E0
2.272354495E0,-7.462905884E0,-6.696945190E0,4.636856079E0
2.274795902E0,-7.410232544E0,-6.713714600E0,4.962478638E0
2.277267825E0,-7.211502075E0,-6.816665649E0,5.237808228E0
2.279739749E0,-7.106170654E0,-6.945953369E0,5.417373657E0
2.282181155E0,-7.000823975E0,-7.065658569E0,5.620880127E0
2.284653079E0,-6.897872925E0,-7.051300049E0,5.735809326E0
2.287125003E0,-6.780548096E0,-7.048904419E0,5.903396606E0
2.289596927E0,-6.677597046E0,-7.099182129E0,5.991989136E0
2.292038333E0,-6.612960815E0,-7.175796509E0,6.054229736E0
2.294510257E0,-6.526763916E0,-7.190155029E0,6.030288696E0
2.296982181E0,-6.498031616E0,-7.261978149E0,6.073379517E0
2.299423587E0,-6.526763916E0,-7.348175049E0,6.183517456E0
2.301895511E0,-6.526763916E0,-7.403244019E0,6.217041016E0
2.304336917E0,-6.481277466E0,-7.489440918E0,6.286468506E0
2.306808841E0,-6.414245605E0,-7.506195068E0,6.331954956E0
2.309280765E0,-6.213119507E0,-7.345779419E0,6.339141846E0
2.311752689E0,-5.616973877E0,-7.077636719E0,6.365478516E0
2.314194095E0,-5.703155518E0,-7.283538818E0,6.296051025E0
2.316666019E0,-5.942581177E0,-7.558868408E0,6.245773315E0
2.319137943E0,-6.222702026E0,-7.683364868E0,6.224212646E0
2.321579349E0,-6.598587036E0,-7.810256958E0,6.044647217E0
2.324051273E0,-6.969696045E0,-7.903625488E0,5.810028076E0
2.326523196E0,-7.316848755E0,-8.004180908E0,5.678344727E0
2.328995120E0,-7.510787964E0,-8.104736328E0,5.517929077E0
2.331436527E0,-7.498809814E0,-8.128692627E0,5.527511597E0
2.333908450E0,-7.527542114E0,-8.171783447E0,5.398223877E0
2.336380374E0,-7.424591064E0,-8.176574707E0,5.268936157E0
2.338821780E0,-7.240234375E0,-8.076019287E0,5.249786377E0
2.341293704E0,-7.084609985E0,-7.989822388E0,5.278503418E0
2.343765628E0,-6.907440186E0,-7.843780518E0,5.362304688E0
2.346207034E0,-6.802093506E0,-7.680969238E0,5.383850098E0
2.348678958E0,-6.735061646E0,-7.587600708E0,5.364700317E0
2.351150882E0,-6.696762085E0,-7.549285889E0,5.391036987E0
2.353592288E0,-6.723098755E0,-7.472671509E0,5.328781128E0
2.356064212E0,-6.840408325E0,-7.372116089E0,5.249786377E0
2.358536136E0,-6.998428345E0,-7.273956299E0,5.225830078E0
2.360977542E0,-7.177993774E0,-7.247619629E0,5.209075928E0
2.363449466E0,-7.379104614E0,-7.132690430E0,5.118103027E0
2.365921390E0,-7.470077515E0,-7.103973389E0,5.029510498E0
2.368393314E0,-7.620910645E0,-7.075241089E0,5.024719238E0
2.370834720E0,-7.716690063E0,-7.051300049E0,4.986419678E0
2.373306644E0,-7.759780884E0,-7.024963379E0,4.916992188E0
2.375778568E0,-7.831604004E0,-7.034530640E0,4.914596558E0
2.378219974E0,-7.793304443E0,-7.051300049E0,4.972045898E0
2.380691898E0,-7.805267334E0,-7.001022339E0,4.945709229E0
2.383163821E0,-7.771759033E0,-7.012985229E0,4.974441528E0
2.385605228E0,-7.716690063E0,-6.996231079E0,4.950500488E0
2.388077152E0,-7.702316284E0,-6.981857300E0,4.981628418E0
2.390549075E0,-7.673583984E0,-6.955520630E0,5.072601318E0
2.392990482E0,-7.625701904E0,-6.905242920E0,5.130065918E0
2.395462405E0,-7.611343384E0,-6.866943359E0,5.110916138E0
2.397934329E0,-7.632888794E0,-6.864547729E0,5.094161987E0
2.400406253E0,-7.604156494E0,-6.761596680E0,5.051055908E0
2.402847659E0,-7.647247314E0,-6.720901489E0,5.012756348E0
2.405319583E0,-7.625701904E0,-6.754409790E0,5.091766357E0
2.407791507E0,-7.637680054E0,-6.754409790E0,4.902618408E0
2.410232913E0,-7.630493164E0,-6.847793579E0,4.773330688E0
2.412704837E0,-7.467681885E0,-6.938766479E0,4.708694458E0
2.415176761E0,-7.391067505E0,-7.027359009E0,4.632080078E0
2.417618167E0,-7.273757935E0,-7.166213989E0,4.577011108E0
2.420090091E0,-7.130111694E0,-7.218887329E0,4.359130859E0
2.422562015E0,-6.885894775E0,-7.427185059E0,4.373504639E0
2.425003421E0,-6.605773926E0,-7.637878418E0,4.488418579E0
2.427475345E0,-6.342407227E0,-7.877288818E0,4.447723389E0
2.429947269E0,-5.968917847E0,-8.076019287E0,4.347167969E0
2.432419193E0,-5.578659058E0,-8.255584717E0,4.196334839E0
2.434860599E0,-5.104614258E0,-8.394439697E0,4.177169800E0
2.437332523E0,-4.628158569E0,-8.526123047E0,4.201126099E0
2.439804446E0,-4.388748169E0,-8.578796387E0,4.414199829E0
2.442245853E0,-4.352828979E0,-8.408813477E0,4.478851318E0
2.444717777E0,-4.494094849E0,-8.119110107E0,4.445327759E0
2.447189700E0,-4.630554199E0,-7.817443848E0,4.395050049E0
2.449631107E0,-4.743087769E0,-7.568435669E0,4.335189819E0
2.452103030E0,-4.853225708E0,-7.410430908E0,4.325622559E0
2.454574954E0,-4.982513428E0,-7.381698608E0,4.268157959E0
2.457016361E0,-5.080673218E0,-7.348175049E0,4.158020020E0
2.459488284E0,-5.162078857E0,-7.343383789E0,4.076614380E0
2.461960208E0,-5.317687988E0,-7.340988159E0,3.937759399E0
2.464432132E0,-5.418258667E0,-7.360153198E0,3.803680420E0
2.466873538E0,-5.437408447E0,-7.386489868E0,3.786926270E0
2.469345462E0,-5.468536377E0,-7.439147949E0,3.760589600E0
2.471817386E0,-5.475708008E0,-7.460708618E0,3.770156860E0
2.474258792E0,-5.420639038E0,-7.431976318E0,3.808471680E0
2.476730716E0,-5.418258667E0,-7.400848389E0,3.865936279E0
2.479202640E0,-5.341644287E0,-7.343383789E0,4.035919189E0
2.481644046E0,-5.298538208E0,-7.326629639E0,4.189147949E0
2.484115970E0,-5.312911987E0,-7.242828369E0,4.390258789E0
2.486587894E0,-5.341644287E0,-7.221282959E0,4.603347778E0
2.489029300E0,-5.401489258E0,-7.147064209E0,4.799667358E0
2.491501224E0,-5.502044678E0,-7.118331909E0,5.065429688E0
2.493973148E0,-5.621765137E0,-7.039321899E0,5.347946167E0
2.496445071E0,-5.755828857E0,-7.003417969E0,5.572998047E0
2.498886478E0,-5.906661987E0,-7.041717529E0,5.872268677E0
2.501358402E0,-5.992858887E0,-7.039321899E0,6.140426636E0
2.503830325E0,-6.153274536E0,-7.036926270E0,6.379837036E0
2.506271732E0,-6.328048706E0,-7.048904419E0,6.588134766E0
2.508743655E0,-6.469299316E0,-7.005798340E0,6.741363525E0
2.511215579E0,-6.577041626E0,-6.981857300E0,6.851501465E0
2.513656986E0,-6.629714966E0,-6.991439819E0,6.964035034E0
2.516128909E0,-6.620147705E0,-6.967498779E0,7.062194824E0
2.518600833E0,-6.610565186E0,-6.979461670E0,7.098098755E0
2.521042239E0,-6.584228516E0,-6.955520630E0,7.057403564E0
2.523514163E0,-6.526763916E0,-6.890884399E0,6.923324585E0
2.525986087E0,-6.414245605E0,-6.907638550E0,6.844314575E0
2.528427493E0,-6.385513306E0,-6.864547729E0,6.712631226E0
2.530899417E0,-6.284957886E0,-6.819061279E0,6.566589355E0
2.533371341E0,-6.189178467E0,-6.845397949E0,6.367874146E0
2.535843265E0,-6.136505127E0,-6.828628540E0,6.209854126E0
2.538284671E0,-6.035949707E0,-6.797515869E0,5.987197876E0
2.540756595E0,-5.997650146E0,-6.768783569E0,5.687911987E0
2.543228519E0,-5.921035767E0,-6.723281860E0,5.422164917E0
2.545669925E0,-5.794143677E0,-6.682586670E0,5.158798218E0
2.548141849E0,-5.626541138E0,-6.653854370E0,4.885864258E0
2.550613773E0,-5.509231567E0,-6.684982300E0,4.687149048E0
2.553055179E0,-5.336853027E0,-6.627517700E0,4.505187988E0
2.555527103E0,-5.372756958E0,-6.476684570E0,4.184356689E0
2.557999027E0,-5.367980957E0,-6.462326050E0,3.966491699E0
2.560440433E0,-5.315307617E0,-6.488662720E0,3.853958130E0
2.562912357E0,-5.396697998E0,-6.407257080E0,3.739044189E0
2.565384280E0,-5.423034668E0,-6.366546631E0,3.743820190E0
2.567856204E0,-5.552322388E0,-6.244445801E0,3.569046021E0
2.570297611E0,-5.703155518E0,-6.158264160E0,3.545104980E0
2.572769534E0,-5.849212646E0,-6.282760620E0,3.676788330E0
2.575241458E0,-5.774993896E0,-6.541336060E0,3.964096069E0
2.577682864E0,-5.691192627E0,-6.912429810E0,4.521942139E0
2.580154788E0,-5.578659058E0,-7.115936279E0,5.106124878E0
2.582626712E0,-5.695983887E0,-6.735260010E0,4.701507568E0
2.585068118E0,-5.870758057E0,-6.347396851E0,4.256179810E0
2.587540042E0,-5.892303467E0,-6.277969360E0,4.402236938E0
2.590011966E0,-5.925827026E0,-6.230087280E0,4.351959229E0
2.592453372E0,-6.007232666E0,-6.163040161E0,4.356735229E0
2.594925296E0,-6.100601196E0,-6.036148071E0,4.268157959E0
2.597397220E0,-6.126937866E0,-6.069671631E0,4.277740479E0
2.599838626E0,-5.937789917E0,-6.177413940E0,4.555465698E0
2.602310550E0,-6.040740967E0,-6.107986450E0,4.371109009E0
2.604782474E0,-6.138900757E0,-5.971511841E0,4.098175049E0
2.607254398E0,-6.263412476E0,-5.825469971E0,3.808471680E0
2.609695804E0,-6.478881836E0,-5.791946411E0,3.746215820E0
2.612167728E0,-6.330444336E0,-5.902084351E0,3.978454590E0
2.614639652E0,-6.416641235E0,-5.873352051E0,3.976058960E0
2.617081058E0,-6.466918945E0,-5.995452881E0,3.916213989E0
2.619552982E0,-6.421417236E0,-6.107986450E0,3.978454590E0
2.622024905E0,-6.311294556E0,-6.191772461E0,4.138870239E0
2.624466312E0,-6.299316406E0,-6.244445801E0,4.428573608E0
2.626938236E0,-6.478881836E0,-5.985870361E0,4.239425659E0
2.629410159E0,-6.641693115E0,-5.847015381E0,4.253784180E0
2.631851566E0,-6.476486206E0,-6.043334961E0,4.713485718E0
2.634323489E0,-6.457336426E0,-5.916442871E0,4.732635498E0
2.636795413E0,-6.502822876E0,-5.894897461E0,4.687149048E0
2.639267337E0,-6.380722046E0,-6.028976440E0,5.003173828E0
2.641708743E0,-6.340026855E0,-6.110366821E0,5.319213867E0
2.644180667E0,-6.359176636E0,-6.242050171E0,5.551452637E0
2.646652591E0,-6.277770996E0,-6.311492920E0,5.836364746E0
2.649093997E0,-6.241851807E0,-6.210922241E0,6.104507446E0
2.651565921E0,-6.256225586E0,-6.062484741E0,5.896209717E0
2.654037845E0,-6.313690186E0,-5.995452881E0,5.618484497E0
2.656479251E0,-6.299316406E0,-6.005035400E0,5.618484497E0
2.658951175E0,-6.222702026E0,-5.997848511E0,5.623275757E0
2.661423099E0,-6.215515137E0,-6.005035400E0,5.659194946E0
2.663864505E0,-6.167633057E0,-6.045730591E0,5.687911987E0
2.666336429E0,-6.229888916E0,-6.005035400E0,5.515533447E0
2.668808353E0,-6.182006836E0,-5.983474731E0,5.477233887E0
2.671280277E0,-6.112564087E0,-6.050521851E0,5.606521606E0
2.673721683E0,-6.170028687E0,-6.007415771E0,5.525115967E0
2.676193607E0,-6.258621216E0,-6.000244141E0,5.391036987E0
2.678665530E0,-6.282562256E0,-6.062484741E0,5.659194946E0
2.681106937E0,-6.258621216E0,-6.002639771E0,5.956069946E0
2.683578861E0,-6.392684937E0,-5.966720581E0,6.020706177E0
2.686050784E0,-6.462127686E0,-5.942779541E0,6.054229736E0
2.688492191E0,-6.471694946E0,-5.914047241E0,6.008743286E0
2.690964114E0,-6.514801025E0,-5.839828491E0,5.903396606E0
2.693436038E0,-6.488464355E0,-5.866165161E0,5.965652466E0
2.695877445E0,-6.462127686E0,-5.875747681E0,6.121261597E0
2.698349368E0,-6.416641235E0,-5.801513672E0,5.903396606E0
2.700821292E0,-6.510009766E0,-5.808700562E0,5.968032837E0
2.703262698E0,-6.452545166E0,-5.779968262E0,6.025497437E0
2.705734622E0,-6.392684937E0,-5.791946411E0,5.807632446E0
2.708206546E0,-6.397476196E0,-5.835037231E0,5.898605347E0
2.710678470E0,-6.251434326E0,-5.827850342E0,5.869873047E0
2.713119876E0,-6.177215576E0,-5.830245972E0,5.640029907E0
2.715591800E0,-6.158065796E0,-5.861373901E0,5.862701416E0
2.718063724E0,-6.057510376E0,-5.870956421E0,5.817199707E0
2.720505130E0,-6.021591187E0,-5.890106201E0,5.841140747E0
2.722977054E0,-5.918640137E0,-5.801513672E0,5.510742188E0
2.725448978E0,-6.067077637E0,-5.669845581E0,5.060638428E0
2.727890384E0,-5.913848877E0,-5.717727661E0,5.414978027E0
2.730362308E0,-5.645706177E0,-5.732086182E0,5.197113037E0
2.732834232E0,-5.533172607E0,-5.763214111E0,5.304840088E0
2.735306155E0,-5.425430298E0,-5.899688721E0,5.549057007E0
2.737747562E0,-5.217132568E0,-5.976303101E0,5.417373657E0
2.740219486E0,-5.111801147E0,-6.112762451E0,5.486801147E0
2.742691409E0,-5.011230469E0,-6.232482910E0,5.556243896E0
2.745132816E0,-4.937011719E0,-6.359375000E0,5.968032837E0
2.747604739E0,-4.941802979E0,-6.433593750E0,5.968032837E0
2.750076663E0,-4.965744019E0,-6.474288940E0,6.066207886E0
2.752518070E0,-4.925048828E0,-6.476684570E0,5.951278687E0
2.754989993E0,-4.951385498E0,-6.505416870E0,6.367874146E0
2.757461917E0,-4.896316528E0,-6.519775391E0,6.449279785E0
2.759903323E0,-4.764633179E0,-6.445556641E0,6.183517456E0
2.762375247E0,-4.774215698E0,-6.380920410E0,6.248168945E0
2.764847171E0,-4.807723999E0,-6.349792480E0,6.506729126E0
2.767288577E0,-4.807723999E0,-6.373733521E0,6.475616455E0
2.769760501E0,-4.716751099E0,-6.313873291E0,6.415756226E0
2.772232425E0,-4.853225708E0,-6.203750610E0,6.437301636E0
2.774704349E0,-4.939407349E0,-6.117553711E0,6.425338745E0
2.777145755E0,-4.980117798E0,-6.060089111E0,6.475616455E0
2.779617679E0,-4.831665039E0,-6.000244141E0,6.360687256E0
2.782089603E0,-4.807723999E0,-6.040939331E0,6.296051025E0
2.784531009E0,-4.599441528E0,-6.000244141E0,6.176330566E0
2.787002933E0,-4.522827148E0,-5.988265991E0,5.857910156E0
2.789474857E0,-4.577880859E0,-6.084030151E0,5.865081787E0
2.791916263E0,-4.618591309E0,-6.119949341E0,5.692703247E0
2.794388187E0,-4.747879028E0,-6.234878540E0,5.953674316E0
2.796860111E0,-4.695205688E0,-6.263595581E0,5.774108887E0
2.799301517E0,-4.630554199E0,-6.258819580E0,5.505966187E0
2.801773441E0,-4.494094849E0,-6.263595581E0,5.479629517E0
2.804245364E0,-4.319320679E0,-6.304306030E0,5.256958008E0
2.806686771E0,-4.383956909E0,-6.467102051E0,5.479629517E0
2.809158695E0,-4.266647339E0,-6.510208130E0,5.517929077E0
2.811630618E0,-4.221145630E0,-6.608367920E0,5.479629517E0
2.814102542E0,-4.173263550E0,-6.665832520E0,5.632858276E0
2.816543948E0,-4.075103760E0,-6.687377930E0,5.561019897E0
2.819015872E0,-4.075103760E0,-6.713714600E0,5.544265747E0
2.821457279E0,-4.032012939E0,-6.766387939E0,5.666366577E0
2.823929202E0,-3.957794189E0,-6.778350830E0,5.704681396E0
2.826401126E0,-3.941024780E0,-6.874130249E0,5.850723267E0
2.828873050E0,-3.818923950E0,-6.857360840E0,5.824386597E0
2.831314456E0,-3.744705200E0,-6.792724609E0,5.496383667E0
2.833786380E0,-3.885955811E0,-6.859756470E0,5.874664307E0
2.836258304E0,-3.847656250E0,-6.965103149E0,6.334350586E0
2.838699710E0,-3.845260620E0,-7.163818359E0,6.791641235E0
2.841171634E0,-3.902725220E0,-7.247619629E0,6.841918945E0
2.843643558E0,-3.459793091E0,-6.922012329E0,5.659194946E0
2.846115482E0,-3.198822021E0,-6.893280029E0,5.233016968E0
2.848556888E0,-3.064758301E0,-6.991439819E0,5.575393677E0
2.851028812E0,-2.894760132E0,-7.001022339E0,5.963256836E0
2.853500736E0,-2.866027832E0,-7.108749390E0,6.200271606E0
2.855942142E0,-2.918701172E0,-7.151855469E0,6.339141846E0
2.858414066E0,-3.136581421E0,-7.180587769E0,6.391815186E0
2.860885989E0,-3.280227661E0,-7.261978149E0,6.406173706E0
2.863327396E0,-3.498107910E0,-7.312255859E0,6.396606445E0
2.865799320E0,-3.696823120E0,-7.312255859E0,6.492370605E0
2.868271243E0,-4.439025879E0,-7.685760498E0,7.643981934E0
2.870712650E0,-5.217132568E0,-8.131072998E0,9.576095581E0
2.873184573E0,-5.384735107E0,-8.064041138E0,9.944808960E0
2.875656497E0,-4.553939819E0,-7.702514648E0,8.067749023E0
2.878128421E0,-4.154113770E0,-7.659423828E0,6.995147705E0
2.880569827E0,-4.271423340E0,-7.836593628E0,8.352661133E0
2.883041751E0,-4.379165649E0,-8.159805298E0,1.069419861E1
2.885513675E0,-4.125381470E0,-8.205307007E0,1.129992676E1
2.887955081E0,-3.692031860E0,-8.030517578E0,9.693420410E0
2.890427005E0,-3.411911011E0,-8.087982178E0,9.027832031E0
2.892898929E0,-3.124603271E0,-8.277130127E0,1.013635254E1
2.895340335E0,-2.832519531E0,-8.415985107E0,1.096952820E1
2.897812259E0,-2.631408691E0,-8.447113037E0,1.091685486E1
2.900284183E0,-2.624221802E0,-8.427963257E0,1.032069397E1
2.902725589E0,-2.597885132E0,-8.399230957E0,9.877777100E0
2.905197513E0,-2.633789062E0,-8.301071167E0,9.662292480E0
2.907669437E0,-2.791809082E0,-8.157409668E0,9.547378540E0
2.910110843E0,-2.844482422E0,-8.042495728E0,9.389358521E0
2.912582767E0,-2.873214722E0,-7.934753418E0,9.051773071E0
2.915054691E0,-2.925888062E0,-7.769561768E0,8.788406372E0
2.917526614E0,-2.990524292E0,-7.652236938E0,8.611236572E0
2.919968021E0,-3.002502441E0,-7.556472778E0,8.405334473E0
2.922439945E0,-2.976165771E0,-7.422393799E0,8.261688232E0
2.924911868E0,-2.964202881E0,-7.331420898E0,8.189865112E0
2.927353275E0,-2.937866211E0,-7.238037109E0,8.108459473E0
2.929825198E0,-2.854064941E0,-7.182968140E0,8.141967773E0
2.932297122E0,-2.801391602E0,-7.175796509E0,7.988739014E0
2.934738529E0,-2.794204712E0,-7.082412720E0,7.897766113E0
2.937210452E0,-2.789413452E0,-7.044113159E0,7.912124634E0
2.939682376E0,-2.822937012E0,-6.996231079E0,7.926498413E0
2.942154300E0,-2.789413452E0,-6.965103149E0,7.904953003E0
2.944595706E0,-2.746322632E0,-6.898071289E0,7.912124634E0
2.947067630E0,-2.775054932E0,-6.890884399E0,7.916915894E0
2.949539554E0,-2.719985962E0,-6.816665649E0,7.849884033E0
2.951980960E0,-2.691253662E0,-6.754409790E0,7.852279663E0
2.954452884E0,-2.614639282E0,-6.701736450E0,7.840301514E0
2.956924808E0,-2.621826172E0,-6.663436890E0,7.845092773E0
2.959366214E0,-2.588302612E0,-6.586822510E0,7.816360474E0
2.961838138E0,-2.547607422E0,-6.433593750E0,7.732559204E0
2.964310062E0,-2.526062012E0,-6.402465820E0,7.533843994E0
2.966751468E0,-2.511688232E0,-6.313873291E0,7.239364624E0
2.969223392E0,-2.487747192E0,-6.203750610E0,7.023880005E0
2.971695316E0,-2.480560303E0,-6.136703491E0,6.734191895E0
2.974136722E0,-2.413528442E0,-6.033752441E0,6.269714355E0
2.976608646E0,-2.368041992E0,-5.928421021E0,5.912979126E0
2.979080570E0,-2.336914062E0,-5.868560791E0,5.484405518E0
2.981552493E0,-2.341705322E0,-5.734481812E0,5.132461548E0
2.983993900E0,-2.394378662E0,-5.703353882E0,5.019943237E0
2.986465823E0,-2.502120972E0,-5.710540771E0,5.058242798E0
2.988907230E0,-2.715194702E0,-5.724899292E0,5.149215698E0
2.991379154E0,-2.959411621E0,-5.744064331E0,5.007965088E0
2.993851077E0,-3.136581421E0,-5.815887451E0,4.948104858E0
2.996323001E0,-3.347274780E0,-5.863769531E0,5.278503418E0
2.998764407E0,-3.330505371E0,-6.005035400E0,5.522720337E0
3.001236331E0,-3.237136841E0,-6.265991211E0,5.855514526E0
3.003708255E0,-3.263473511E0,-6.424011230E0,5.956069946E0
3.006149661E0,-3.306564331E0,-6.476684570E0,6.145217896E0
3.008621585E0,-3.332901001E0,-6.438385010E0,6.533065796E0
3.011093509E0,-3.373611450E0,-6.414443970E0,6.755737305E0
3.013565433E0,-3.548385620E0,-6.304306030E0,7.086135864E0
3.016006839E0,-3.675277710E0,-6.163040161E0,7.332733154E0
3.018478763E0,-3.706390381E0,-6.084030151E0,7.450057983E0
3.020950687E0,-3.701614380E0,-5.997848511E0,7.562576294E0
3.023392093E0,-3.665695190E0,-6.014602661E0,7.689468384E0
3.025864017E0,-3.565139771E0,-6.129531860E0,7.634399414E0
3.028335941E0,-3.577117920E0,-6.100799561E0,7.404556274E0
3.030777347E0,-3.512466431E0,-6.119949341E0,7.057403564E0
3.033249271E0,-3.543594360E0,-6.072067261E0,6.837127686E0
3.035721195E0,-3.641754150E0,-5.949966431E0,6.772491455E0
3.038162601E0,-3.577117920E0,-5.906860352E0,6.528289795E0
3.040634525E0,-3.529220581E0,-5.961929321E0,6.358291626E0
3.043106448E0,-3.634567261E0,-5.904464722E0,6.205062866E0
3.045547855E0,-3.718368530E0,-5.705749512E0,5.821990967E0
3.048019779E0,-3.917083740E0,-5.578857422E0,5.623275757E0
3.050491702E0,-4.137359619E0,-5.442398071E0,5.462860107E0
3.052963626E0,-4.300155640E0,-5.375350952E0,5.350341797E0
3.055405032E0,-4.405502319E0,-5.380142212E0,5.316818237E0
3.057876956E0,-4.529998779E0,-5.298736572E0,5.280899048E0
3.060348880E0,-4.688018799E0,-5.231704712E0,5.379058838E0
3.062790286E0,-4.862792969E0,-5.274795532E0,5.453292847E0
3.065262210E0,-4.953781128E0,-5.387329102E0,5.587356567E0
3.067734134E0,-5.056732178E0,-5.461547852E0,5.745376587E0
3.070175540E0,-5.114181519E0,-5.535766602E0,5.850723267E0
3.072647464E0,-5.147705078E0,-5.588439941E0,5.968032837E0
3.075119388E0,-5.083068848E0,-5.657867432E0,6.118881226E0
3.077560794E0,-4.980117798E0,-5.760818481E0,6.219436646E0
3.080032718E0,-4.922653198E0,-5.818283081E0,6.296051025E0
3.082504642E0,-4.987289429E0,-5.756027222E0,6.296051025E0
3.084946048E0,-5.111801147E0,-5.708145142E0,6.473220825E0
3.087417972E0,-5.128555298E0,-5.672241211E0,6.729400635E0
3.089889896E0,-5.205169678E0,-5.621963501E0,6.944869995E0
3.092361820E0,-5.442199707E0,-5.523788452E0,7.325546265E0
3.094803226E0,-5.456558228E0,-5.368164062E0,7.746932983E0
3.097275150E0,-5.197982788E0,-5.210159302E0,8.003112793E0
3.099747073E0,-4.695205688E0,-5.195785522E0,8.031845093E0
3.102188480E0,-4.144531250E0,-5.430419922E0,8.067749023E0
3.104660404E0,-3.921875000E0,-5.547729492E0,7.885787964E0
3.107132327E0,-3.926666260E0,-5.600402832E0,7.464416504E0
3.109573734E0,-4.008071899E0,-5.629135132E0,7.110076904E0
3.112045657E0,-3.981735229E0,-5.729690552E0,6.817977905E0
3.114517581E0,-3.866806030E0,-5.784759521E0,6.683898926E0
3.116989505E0,-3.826110840E0,-5.770401001E0,6.557006836E0
3.119430911E0,-3.957794189E0,-5.691390991E0,6.434906006E0
3.121902835E0,-4.259460449E0,-5.583648682E0,6.547439575E0
3.124374759E0,-4.594650269E0,-5.365783691E0,6.889801025E0
3.126816165E0,-4.848434448E0,-5.088043213E0,7.323150635E0
3.129288089E0,-5.066299438E0,-4.743286133E0,7.823547363E0
3.131760013E0,-5.171646118E0,-4.496688843E0,8.290420532E0
3.134201419E0,-5.186019897E0,-4.274017334E0,8.446044922E0
3.136673343E0,-5.212356567E0,-4.120788574E0,8.668701172E0
3.139145267E0,-5.279388428E0,-4.039382935E0,8.757278442E0
3.141586673E0,-5.291366577E0,-3.989105225E0,8.841079712E0
3.144058597E0,-5.291366577E0,-3.972351074E0,8.922485352E0
3.146530521E0,-5.255447388E0,-3.924468994E0,8.960784912E0
3.148971927E0,-5.243469238E0,-3.950805664E0,9.154724121E0
3.151443851E0,-5.205169678E0,-3.965164185E0,9.214584351E0
3.153915775E0,-5.097427368E0,-3.962768555E0,9.248092651E0
3.156357181E0,-4.927444458E0,-3.946014404E0,9.193023682E0
3.158829105E0,-4.714355469E0,-3.907714844E0,8.956008911E0
3.161301029E0,-4.455780029E0,-3.902923584E0,8.790802002E0
3.163772952E0,-4.288192749E0,-3.943618774E0,8.613632202E0
3.166214359E0,-4.103836060E0,-4.118392944E0,8.122817993E0
3.168686282E0,-4.087081909E0,-4.147125244E0,7.636795044E0
3.171158206E0,-4.213973999E0,-4.135162354E0,7.234573364E0
3.173599613E0,-4.338470459E0,-4.285995483E0,6.549835205E0
3.176071536E0,-4.635345459E0,-4.149520874E0,6.276885986E0
3.178543460E0,-4.915466309E0,-3.962768555E0,6.097320557E0
3.180984866E0,-4.946594238E0,-3.811935425E0,5.999160767E0
3.183456790E0,-4.740692139E0,-3.732925415E0,5.960861206E0
3.185928714E0,-4.496490479E0,-3.675476074E0,5.927337646E0
3.188400638E0,-4.213973999E0,-3.670684814E0,5.824386597E0
3.190842044E0,-4.087081909E0,-3.735321045E0,5.647216797E0
3.193313968E0,-4.020034790E0,-3.802368164E0,5.544265747E0
3.195785892E0,-4.067916870E0,-3.823913574E0,5.350341797E0
3.198227298E0,-4.158905029E0,-3.953201294E0,5.223449707E0
3.200699222E0,-4.182846069E0,-4.099243164E0,5.271331787E0
3.203171146E0,-4.204391479E0,-4.343444824E0,5.472442627E0
3.205612552E0,-4.163696289E0,-4.587661743E0,5.592147827E0
3.208084476E0,-4.194808960E0,-4.803146362E0,5.855514526E0
3.210556400E0,-4.206787109E0,-4.903701782E0,6.008743286E0
3.212997806E0,-4.283401489E0,-4.961151123E0,6.051834106E0
3.215469730E0,-4.278610229E0,-4.965942383E0,6.188308716E0
3.217941654E0,-4.206787109E0,-4.930038452E0,6.099716187E0
3.220413577E0,-4.118194580E0,-4.865386963E0,5.865081787E0
3.222854984E0,-4.060745239E0,-4.812713623E0,5.716644287E0
3.225326907E0,-4.008071899E0,-4.750473022E0,5.565811157E0
3.227798831E0,-4.122985840E0,-4.709762573E0,5.479629517E0
3.230240238E0,-4.427047729E0,-4.755249023E0,5.283294678E0
3.232712161E0,-5.224319458E0,-4.846237183E0,4.555465698E0
3.235184085E0,-5.212356567E0,-4.843841553E0,4.588973999E0
3.237625491E0,-4.659286499E0,-4.815109253E0,5.331176758E0
3.240097415E0,-4.348037720E0,-4.772018433E0,6.066207886E0
3.242569339E0,-4.292984009E0,-4.724136353E0,6.262527466E0
3.245010745E0,-4.369598389E0,-4.745681763E0,6.173934937E0
3.247482669E0,-4.412689209E0,-4.815109253E0,6.355895996E0
3.249954593E0,-4.589859009E0,-4.910873413E0,6.597717285E0
3.252426517E0,-4.649719238E0,-5.032989502E0,6.638412476E0
3.254867923E0,-4.561126709E0,-5.248458862E0,6.509124756E0
3.257339847E0,-4.412689209E0,-5.605194092E0,6.513916016E0
3.259811771E0,-4.084686279E0,-5.923629761E0,6.358291626E0
3.262253177E0,-3.926666260E0,-5.978698730E0,6.552230835E0
3.264725101E0,-3.931457520E0,-6.007415771E0,6.710235596E0
3.267197025E0,-4.058349609E0,-5.993057251E0,6.849105835E0
3.269638431E0,-4.137359619E0,-6.057693481E0,6.880233765E0
3.272110355E0,-4.362411499E0,-6.081649780E0,7.028671265E0
3.274582279E0,-4.496490479E0,-6.052917480E0,6.997543335E0
3.277023685E0,-4.587463379E0,-6.119949341E0,6.803619385E0
3.279495609E0,-4.740692139E0,-6.093612671E0,6.576171875E0
3.281967532E0,-4.738296509E0,-6.160644531E0,6.339141846E0
3.284408939E0,-4.656890869E0,-6.158264160E0,6.166763306E0
3.286880863E0,-4.671264648E0,-6.273178101E0,6.367874146E0
3.289352786E0,-4.597045898E0,-6.582031250E0,6.659957886E0
3.291824710E0,-4.649719238E0,-6.768783569E0,6.875442505E0
3.294266116E0,-4.714355469E0,-6.840606689E0,6.940078735E0
3.296738040E0,-4.697601318E0,-6.838211060E0,6.837127686E0
3.299209964E0,-4.656890869E0,-6.828628540E0,6.671936035E0
3.301651370E0,-4.575500488E0,-6.826232910E0,6.308013916E0
3.304123294E0,-4.436630249E0,-6.768783569E0,5.879455566E0
3.306595218E0,-4.424652100E0,-6.661041260E0,5.596939087E0
3.309036624E0,-4.613800049E0,-6.596389771E0,5.596939087E0
3.311508548E0,-4.807723999E0,-6.505416870E0,5.501174927E0
3.313980472E0,-4.970535278E0,-6.445556641E0,5.529907227E0
3.316421878E0,-5.107009888E0,-6.419219971E0,5.340759277E0
3.318893802E0,-5.300933838E0,-6.390487671E0,5.280899048E0
3.321365726E0,-5.497253418E0,-6.524566650E0,5.374282837E0
3.323837650E0,-5.645706177E0,-6.560485840E0,5.201889038E0
3.326279056E0,-5.691192627E0,-6.570053101E0,5.036697388E0
3.328750980E0,-5.731887817E0,-6.591613770E0,5.007965088E0
3.331222904E0,-5.834838867E0,-6.613159180E0,5.242599487E0
3.333664310E0,-5.765411377E0,-6.524566650E0,4.811645508E0
3.336136234E0,-5.734283447E0,-6.562881470E0,4.433349609E0
3.338608157E0,-5.882720947E0,-6.603576660E0,4.146057129E0
3.341049564E0,-6.100601196E0,-6.617950439E0,4.117324829E0
3.343521488E0,-6.026382446E0,-6.682586670E0,4.193939209E0
3.345993411E0,-5.899490356E0,-6.850173950E0,4.632080078E0
3.348434818E0,-5.892303467E0,-6.957916260E0,5.204284668E0
3.350906741E0,-5.944976807E0,-7.099182129E0,5.707077026E0
3.353378665E0,-5.837234497E0,-7.271560669E0,5.668762207E0
3.355850589E0,-5.413467407E0,-7.446334839E0,5.230621338E0
3.358291995E0,-4.941802979E0,-7.642669678E0,4.713485718E0
3.360763919E0,-4.695205688E0,-7.788711548E0,4.617706299E0
3.363235843E0,-4.769424438E0,-7.872512817E0,4.735031128E0
3.365677249E0,-4.920257568E0,-8.011367798E0,4.857131958E0
3.368149173E0,-4.975326538E0,-8.188537598E0,5.039093018E0
3.370621097E0,-4.958572388E0,-8.298675537E0,5.237808228E0
3.373062503E0,-5.099822998E0,-8.411193848E0,5.709472656E0
3.375534427E0,-5.116577148E0,-8.490203857E0,6.059020996E0
3.378006351E0,-5.169250488E0,-8.600341797E0,6.597717285E0
3.380447757E0,-5.365585327E0,-8.676956177E0,7.043029785E0
3.382919681E0,-5.231506348E0,-8.772720337E0,7.236968994E0
3.385391605E0,-5.214752197E0,-8.880462646E0,7.464416504E0
3.387863529E0,-5.291366577E0,-8.964263916E0,7.703842163E0
3.390304935E0,-5.387130737E0,-9.052841187E0,7.921707153E0
3.392776859E0,-5.557113647E0,-9.016937256E0,8.149154663E0
3.395248782E0,-5.490081787E0,-8.990600586E0,7.919311523E0
3.397690189E0,-5.286575317E0,-8.856521606E0,7.548217773E0
3.400162113E0,-5.356002808E0,-8.722442627E0,7.524276733E0
3.402603519E0,-5.475708008E0,-8.607528687E0,7.289642334E0
3.405075443E0,-5.267410278E0,-8.571609497E0,6.882629395E0
3.407547366E0,-4.726333618E0,-8.588378906E0,5.980010986E0
3.410019290E0,-4.726333618E0,-8.566818237E0,5.764526367E0
3.412460696E0,-4.529998779E0,-8.660202026E0,5.412582397E0
3.414932620E0,-4.585067749E0,-8.767944336E0,5.355117798E0
3.417404544E0,-4.472549438E0,-8.897216797E0,4.883468628E0
3.419845950E0,-4.228332520E0,-8.978622437E0,4.500396729E0
3.422317874E0,-4.271423340E0,-9.012145996E0,4.608139038E0
3.424789798E0,-4.336074829E0,-8.985809326E0,4.711090088E0
3.427261722E0,-4.383956909E0,-8.892440796E0,4.905014038E0
3.429703128E0,-4.285797119E0,-8.767944336E0,4.703903198E0
3.432175052E0,-4.067916870E0,-8.736816406E0,4.557861328E0
3.434646976E0,-3.984130859E0,-8.681747437E0,4.512359619E0
3.437088382E0,-3.660903931E0,-8.657806396E0,4.237030029E0
3.439560306E0,-3.888351440E0,-8.535705566E0,4.402236938E0
3.442032230E0,-4.106231689E0,-8.526123047E0,4.596160889E0
3.444473636E0,-4.218750000E0,-8.621887207E0,4.498001099E0
3.446945560E0,-4.316925049E0,-8.590759277E0,4.404632568E0
3.449417484E0,-3.632171631E0,-8.703292847E0,4.021560669E0
3.451858890E0,-3.591476440E0,-8.777511597E0,3.937759399E0
3.454330814E0,-3.708786011E0,-8.787094116E0,4.169998169E0
3.456802738E0,-3.411911011E0,-8.822998047E0,4.059860229E0
3.459274661E0,-3.103057861E0,-8.882858276E0,4.052673340E0
3.461716068E0,-3.268264771E0,-8.849334717E0,4.138870239E0
3.464187991E0,-3.526840210E0,-8.758361816E0,4.373504639E0
3.466659915E0,-3.658508301E0,-8.672164917E0,4.598556519E0
3.469101321E0,-3.658508301E0,-8.538101196E0,4.684753418E0
3.471573245E0,-3.902725220E0,-8.348953247E0,4.857131958E0
3.474045169E0,-3.634567261E0,-8.360916138E0,4.864318848E0
3.476486575E0,-3.684844971E0,-8.344161987E0,5.086975098E0
3.478958499E0,-3.644149780E0,-8.329803467E0,5.438919067E0
3.481430423E0,-4.000885010E0,-8.229248047E0,5.424560547E0
3.483871829E0,-4.522827148E0,-8.054458618E0,5.391036987E0
3.486343753E0,-4.764633179E0,-7.889266968E0,5.453292847E0
3.488815677E0,-5.068695068E0,-7.750396729E0,5.776504517E0
3.491257083E0,-5.274597168E0,-7.623504639E0,6.073379517E0
3.493729007E0,-5.329666138E0,-7.391265869E0,6.001556396E0
3.496200931E0,-5.238693237E0,-7.230865479E0,5.891418457E0
3.498672855E0,-5.377548218E0,-7.111145020E0,6.164367676E0
3.501114261E0,-5.470932007E0,-6.986648560E0,6.322387695E0
3.503586185E0,-5.619369507E0,-6.831024170E0,6.458847046E0
3.506058109E0,-5.968917847E0,-6.677795410E0,6.638412476E0
3.508499515E0,-6.122146606E0,-6.689773560E0,6.743759155E0
3.510971439E0,-6.098205566E0,-6.754409790E0,6.722213745E0
3.513443363E0,-6.299316406E0,-6.763992310E0,6.631240845E0
3.515884769E0,-6.311294556E0,-6.828628540E0,6.746154785E0
3.518356693E0,-6.466918945E0,-6.890884399E0,6.705459595E0
3.520828616E0,-6.581832886E0,-6.960311890E0,6.645599365E0
3.523300540E0,-6.421417236E0,-7.001022339E0,6.463638306E0
3.525741946E0,-6.404663086E0,-6.974685669E0,6.389419556E0
3.528213870E0,-6.488464355E0,-6.819061279E0,6.547439575E0
3.530685794E0,-6.383117676E0,-6.677795410E0,6.478012085E0
3.533127200E0,-6.289733887E0,-6.603576660E0,6.437301636E0
3.535599124E0,-5.966522217E0,-6.663436890E0,6.583343506E0
3.538040530E0,-5.703155518E0,-6.797515869E0,6.432510376E0
3.540512454E0,-4.939407349E0,-6.957916260E0,6.092544556E0
3.542984378E0,-4.448593140E0,-7.091995239E0,6.360687256E0
3.545456302E0,-4.070312500E0,-7.324234009E0,6.274490356E0
3.547897708E0,-3.301773071E0,-7.795898438E0,6.003952026E0
3.550339114E0,-2.813354492E0,-8.222061157E0,5.381454468E0
3.552811038E0,-2.952224731E0,-8.310638428E0,4.380691528E0
3.555282962E0,-3.342483521E0,-8.181350708E0,3.698333740E0
3.557754886E0,-3.751892090E0,-7.953903198E0,3.300903320E0
3.560226810E0,-4.419876099E0,-7.568435669E0,3.231460571E0
3.562698734E0,-4.982513428E0,-7.257202148E0,3.308074951E0
3.565140140E0,-5.760620117E0,-6.881301880E0,3.650451660E0
3.567612064E0,-6.038345337E0,-6.641891479E0,4.184356689E0
3.570083988E0,-6.557891846E0,-6.282760620E0,4.778121948E0
3.572525394E0,-6.926605225E0,-5.890106201E0,5.376678467E0
3.574997318E0,-7.125320435E0,-5.557312012E0,6.006347656E0
3.577438724E0,-7.695144653E0,-5.344223022E0,6.652786255E0
3.579910648E0,-7.999206543E0,-5.171844482E0,6.705459595E0
3.582382571E0,-8.351150513E0,-5.100021362E0,6.609680176E0
3.584854495E0,-8.712677002E0,-5.030593872E0,6.485183716E0
3.587295902E0,-9.131652832E0,-4.989883423E0,6.346328735E0
3.589767825E0,-9.478820801E0,-4.937210083E0,6.312805176E0
3.592239749E0,-9.725418091E0,-4.798355103E0,6.140426636E0
3.594681155E0,-1.027609253E1,-4.489501953E0,5.977615356E0
3.597153079E0,-1.047241211E1,-4.285995483E0,5.889038086E0
3.599625003E0,-1.081478882E1,-3.867004395E0,6.102111816E0
3.602066409E0,-1.122897339E1,-3.577301025E0,6.358291626E0
3.604538333E0,-1.173176575E1,-3.443237305E0,6.351104736E0
3.607010257E0,-1.230636597E1,-3.366622925E0,6.078170776E0
3.609482181E0,-1.223214722E1,-3.584487915E0,5.996765137E0
3.611923587E0,-1.167669678E1,-4.027420044E0,6.104507446E0
3.614395511E0,-1.011567688E1,-4.752853394E0,6.408569336E0
3.616867435E0,-8.765350342E0,-5.284378052E0,6.755737305E0
3.619308841E0,-7.927368164E0,-5.550125122E0,6.643203735E0
3.621780765E0,-7.331222534E0,-5.863769531E0,6.272109985E0
3.624252689E0,-6.847595215E0,-6.215713501E0,5.884246826E0
3.626694095E0,-6.433395386E0,-6.603576660E0,5.642425537E0
3.629166019E0,-6.110183716E0,-6.955520630E0,5.436523438E0
3.631637943E0,-5.839630127E0,-7.288314819E0,5.230621338E0
3.634109866E0,-5.710342407E0,-7.580413818E0,5.115707397E0
3.636551273E0,-5.655273438E0,-7.731246948E0,5.024719238E0
3.639023196E0,-5.676818848E0,-7.838989258E0,5.065429688E0
3.641495120E0,-5.767807007E0,-7.846176147E0,5.249786377E0
3.643936527E0,-5.868362427E0,-7.795898438E0,5.259353638E0
3.646408450E0,-5.968917847E0,-7.762374878E0,5.312026978E0
3.648880374E0,-6.253829956E0,-7.676177979E0,5.352737427E0
3.651321780E0,-6.270584106E0,-7.556472778E0,5.400619507E0
3.653793704E0,-6.325653076E0,-7.448730469E0,5.218658447E0
3.656265628E0,-6.593811035E0,-7.288314819E0,5.098937988E0
3.658707034E0,-6.634506226E0,-7.211700439E0,4.823608398E0
3.661178958E0,-6.416641235E0,-7.254806519E0,4.251403809E0
3.663650882E0,-6.351989746E0,-7.352966309E0,4.694320679E0
3.666122806E0,-6.136505127E0,-7.592376709E0,5.063034058E0
3.668564212E0,-6.189178467E0,-7.580413818E0,4.569824219E0
3.671036136E0,-6.340026855E0,-7.520553589E0,4.260971069E0
3.673508060E0,-6.258621216E0,-7.625900269E0,4.038314819E0
3.675949466E0,-6.383117676E0,-7.609146118E0,3.841995239E0
3.678421390E0,-6.004837036E0,-7.623504639E0,4.143661499E0
3.680893314E0,-5.703155518E0,-7.671386719E0,4.517150879E0
3.683334720E0,-5.571487427E0,-7.702514648E0,4.766143799E0
3.685806644E0,-5.324874878E0,-7.692947388E0,4.023941040E0
3.688278568E0,-5.444595337E0,-7.484649658E0,2.529968262E0
3.690719974E0,-5.253051758E0,-7.506195068E0,1.828460693E0
3.693191898E0,-5.614578247E0,-7.537322998E0,2.771774292E0
3.695663821E0,-5.956954956E0,-7.549285889E0,4.019165039E0
3.698135745E0,-6.510009766E0,-7.419998169E0,4.809249878E0
3.700577152E0,-6.845199585E0,-7.355361938E0,4.770935059E0
3.703049075E0,-6.464523315E0,-7.482254028E0,3.988037109E0
3.705520999E0,-6.014404297E0,-7.767166138E0,3.789321899E0
3.707962405E0,-6.074264526E0,-7.846176147E0,3.911422729E0
3.710434329E0,-6.069473267E0,-7.860534668E0,4.014373779E0
3.712906253E0,-5.751052856E0,-8.004180908E0,4.098175049E0
3.715347659E0,-5.648101807E0,-7.898834229E0,4.090988159E0
3.717819583E0,-5.705551147E0,-7.688156128E0,4.438140869E0
3.720291507E0,-5.633728027E0,-7.534927368E0,4.193939209E0
3.722732913E0,-5.332061768E0,-7.551681519E0,3.576232910E0
3.725204837E0,-5.145309448E0,-7.613937378E0,3.135696411E0
3.727676761E0,-4.716751099E0,-7.925170898E0,2.903457642E0
3.730148685E0,-4.860397339E0,-8.121505737E0,2.944168091E0
3.732590091E0,-4.893920898E0,-8.370498657E0,3.298507690E0
3.735062015E0,-4.527603149E0,-8.775115967E0,2.891494751E0
3.737533939E0,-4.585067749E0,-8.890045166E0,2.616149902E0
3.739975345E0,-4.376770020E0,-9.103118896E0,2.027191162E0
3.742447269E0,-4.257064819E0,-9.143829346E0,2.630523682E0
3.744919193E0,-4.008071899E0,-9.122283936E0,3.219497681E0
3.747360599E0,-3.596267700E0,-9.275512695E0,3.224288940E0
3.749832523E0,-3.481338501E0,-9.426345825E0,3.164428711E0
3.752304446E0,-3.682449341E0,-9.376068115E0,3.324844360E0
3.754745853E0,-3.835678101E0,-9.416763306E0,3.487640381E0
3.757217777E0,-3.739913940E0,-9.610702515E0,3.573837280E0
3.759689700E0,-3.768646240E0,-9.591537476E0,3.717483521E0
3.762131107E0,-3.909912109E0,-9.447891235E0,4.026336670E0
3.764603030E0,-3.024047852E0,-9.543655396E0,4.318435669E0
3.767074773E0,-3.206008911E0,-9.469436646E0,4.318435669E0
3.769546697E0,-3.986526489E0,-9.265930176E0,4.380691528E0
3.771988103E0,-4.271423340E0,-9.103118896E0,4.627288818E0
3.774460027E0,-4.233123779E0,-8.969055176E0,4.818817139E0
3.776931951E0,-4.702392578E0,-8.593154907E0,4.957687378E0
3.779373357E0,-4.891525269E0,-8.370498657E0,5.094161987E0
3.781845281E0,-4.747879028E0,-8.322616577E0,5.046264648E0
3.784317205E0,-5.248260498E0,-8.107131958E0,4.995986938E0
3.786758611E0,-5.676818848E0,-7.886871338E0,4.869094849E0
3.789230535E0,-5.336853027E0,-7.920394897E0,4.536300659E0
3.791702459E0,-5.324874878E0,-7.827011108E0,4.260971069E0
3.794143865E0,-5.473312378E0,-7.589996338E0,4.150848389E0
3.796615789E0,-5.604995728E0,-7.247619629E0,4.481246948E0
3.799087713E0,-5.913848877E0,-6.854965210E0,4.749389648E0
3.801559637E0,-5.360794067E0,-6.804687500E0,4.826004028E0
3.804001043E0,-4.371978760E0,-7.142272949E0,4.457305908E0
3.806472967E0,-4.111022949E0,-7.443939209E0,4.086196899E0
3.808944890E0,-4.532394409E0,-7.455917358E0,3.791717529E0
3.811386297E0,-4.922653198E0,-7.441543579E0,3.413421631E0
3.813858221E0,-5.006454468E0,-7.427185059E0,3.154846191E0
3.816330144E0,-5.025604248E0,-7.379302979E0,3.169219971E0
3.818771551E0,-4.970535278E0,-7.314651489E0,3.159637451E0
3.821243474E0,-5.018417358E0,-7.281143188E0,3.219497681E0
3.823715398E0,-5.320083618E0,-7.185363770E0,3.355972290E0
3.826156805E0,-5.446975708E0,-7.154251099E0,3.370330811E0
3.828628728E0,-5.351211548E0,-7.139877319E0,3.564254761E0
3.831100652E0,-5.202774048E0,-7.099182129E0,3.731857300E0
3.833572576E0,-5.145309448E0,-7.077636719E0,3.846771240E0
3.836013982E0,-5.236297607E0,-7.068054199E0,3.870712280E0
3.838485906E0,-5.454162598E0,-7.070449829E0,3.899444580E0
3.840957830E0,-5.523590088E0,-7.197341919E0,3.851562500E0
3.843399236E0,-5.490081787E0,-7.463104248E0,3.822830200E0
3.845871160E0,-5.715133667E0,-7.209304810E0,4.052673340E0
3.848343084E0,-5.633728027E0,-7.091995239E0,4.347167969E0
3.850784490E0,-5.487686157E0,-6.996231079E0,4.476455688E0
3.853256414E0,-5.346420288E0,-6.931579590E0,4.464477539E0
3.855728338E0,-5.257843018E0,-7.060867310E0,4.440536499E0
3.858169744E0,-5.257843018E0,-7.192550659E0,4.550674438E0
3.860641668E0,-5.300933838E0,-7.340988159E0,4.600952148E0
3.863113592E0,-5.358398438E0,-7.594772339E0,4.596160889E0
3.865585515E0,-5.516418457E0,-7.800674438E0,4.648834229E0
3.868026922E0,-5.523590088E0,-7.858139038E0,4.826004028E0
3.870498846E0,-5.487686157E0,-7.939544678E0,4.919372559E0
3.872970769E0,-5.573867798E0,-7.910812378E0,5.022323608E0
3.875412176E0,-5.789352417E0,-7.745605469E0,4.924163818E0
3.877884099E0,-5.868362427E0,-7.659423828E0,4.912200928E0
3.880325506E0,-5.971313477E0,-7.587600708E0,4.821212769E0
3.882797430E0,-6.086227417E0,-7.585205078E0,4.718261719E0
3.885269353E0,-6.119750977E0,-7.647445679E0,4.658416748E0
3.887741277E0,-6.086227417E0,-7.398452759E0,4.533920288E0
3.890182683E0,-5.940185547E0,-6.974685669E0,4.593765259E0
3.892654607E0,-5.863571167E0,-6.732864380E0,4.435745239E0
3.895126531E0,-6.043136597E0,-6.893280029E0,3.523559570E0
3.897567937E0,-6.591415405E0,-7.216491699E0,2.831634521E0
3.900039861E0,-7.156448364E0,-6.993835449E0,2.807693481E0
3.902511785E0,-6.548309326E0,-6.948348999E0,3.162033081E0
3.904983709E0,-5.839630127E0,-6.950744629E0,3.389480591E0
3.907425115E0,-5.652877808E0,-6.862152100E0,3.521163940E0
3.909897039E0,-5.619369507E0,-6.864547729E0,3.650451660E0
3.912368963E0,-5.643310547E0,-6.785537720E0,3.643264771E0
3.914810369E0,-5.751052856E0,-6.601181030E0,3.504409790E0
3.917282293E0,-5.707946777E0,-6.452743530E0,3.358352661E0
3.919754217E0,-5.619369507E0,-6.273178101E0,3.219497681E0
3.922195623E0,-5.454162598E0,-6.076858521E0,3.207519531E0
3.924667547E0,-5.339248657E0,-6.009811401E0,3.164428711E0
3.927139471E0,-5.360794067E0,-6.012207031E0,3.253021240E0
3.929580877E0,-5.399093628E0,-6.084030151E0,3.221893311E0
3.932052801E0,-5.341644287E0,-6.179809570E0,2.982467651E0
3.934524724E0,-5.446975708E0,-6.330642700E0,2.838821411E0
3.936996648E0,-5.561904907E0,-6.543716431E0,2.671218872E0
3.939438055E0,-5.695983887E0,-6.696945190E0,2.549118042E0
3.941909978E0,-5.937789917E0,-6.945953369E0,2.522781372E0
3.944381902E0,-6.000045776E0,-7.017776489E0,2.678405762E0
3.946823308E0,-6.050323486E0,-6.945953369E0,2.853179932E0
3.949295232E0,-5.935394287E0,-6.723281860E0,2.956130981E0
3.951767156E0,-5.885116577E0,-6.610763550E0,3.106964111E0
3.954208562E0,-5.588241577E0,-6.548507690E0,3.054290771E0
3.956680486E0,-5.602600098E0,-6.459930420E0,3.102172852E0
3.959152410E0,-5.724716187E0,-6.476684570E0,3.150070190E0
3.961593816E0,-5.877944946E0,-6.541336060E0,3.209915161E0
3.964065740E0,-6.198760986E0,-6.567672729E0,3.236251831E0
3.966537664E0,-6.380722046E0,-6.692169189E0,3.341598511E0
3.968979070E0,-6.383117676E0,-6.766387939E0,3.420608521E0
3.971450994E0,-6.543533325E0,-6.910034180E0,3.612152100E0
3.973922918E0,-6.725479126E0,-7.053695679E0,3.765380859E0
3.976394842E0,-6.720703125E0,-7.173400879E0,3.664825439E0
3.978836248E0,-6.586624146E0,-7.197341919E0,3.667205811E0
3.981308172E0,-6.562683105E0,-7.273956299E0,3.885086060E0
3.983780096E0,-6.976882935E0,-7.410430908E0,4.040710449E0
3.986221502E0,-6.952941895E0,-7.384094238E0,3.638488770E0
3.988693426E0,-6.656051636E0,-7.374511719E0,3.779739380E0
3.991165349E0,-6.615356445E0,-7.372116089E0,3.976058960E0
3.993606756E0,-6.634506226E0,-7.343383789E0,3.774948120E0
3.996078680E0,-6.445358276E0,-7.350570679E0,3.683975220E0
3.998550603E0,-6.682388306E0,-7.410430908E0,3.913818359E0
4.001022527E0,-6.787734985E0,-7.422393799E0,3.858749390E0
4.003463933E0,-6.830825806E0,-7.424789429E0,3.856353760E0
4.005935857E0,-6.905044556E0,-7.496612549E0,3.959304810E0
4.008407781E0,-6.998428345E0,-7.522949219E0,3.889877319E0
4.010849187E0,-6.897872925E0,-7.441543579E0,3.899444580E0
4.013321111E0,-6.888290405E0,-7.424789429E0,3.932968140E0
4.015793035E0,-6.993637085E0,-7.427185059E0,3.976058960E0
4.018234441E0,-7.166015625E0,-7.537322998E0,4.105346680E0
4.020706365E0,-7.233062744E0,-7.647445679E0,4.052673340E0
4.023178289E0,-7.494018555E0,-7.657028198E0,4.009582520E0
4.025619695E0,-7.577819824E0,-7.678573608E0,3.947326660E0
4.028091619E0,-7.455718994E0,-7.728851318E0,3.841995239E0
4.030563543E0,-7.283340454E0,-7.786315918E0,3.834808350E0
4.033004949E0,-7.168411255E0,-7.917999268E0,3.925781250E0
4.035476873E0,-7.252212524E0,-8.066436768E0,4.050277710E0
4.037948797E0,-7.426986694E0,-8.188537598E0,4.131683350E0
4.040420721E0,-7.144470215E0,-8.289093018E0,4.019165039E0
4.042862127E0,-6.893081665E0,-8.363311768E0,3.743820190E0
4.045334051E0,-6.555496216E0,-8.399230957E0,3.583419800E0
4.047805974E0,-6.301712036E0,-8.533309937E0,3.626510620E0
4.050247381E0,-6.325653076E0,-8.755966187E0,3.502014160E0
4.052719305E0,-6.830825806E0,-9.414367676E0,3.200347900E0
4.055191228E0,-6.773376465E0,-9.409576416E0,3.351181030E0
4.057632635E0,-6.330444336E0,-9.093551636E0,3.114151001E0
4.060104558E0,-6.498031616E0,-9.191711426E0,3.001617432E0
4.062576482E0,-6.713516235E0,-9.306625366E0,3.068664551E0
4.065017889E0,-8.985610962E0,-1.051809692E1,2.867553711E0
4.067489812E0,-8.188339233E0,-1.066413879E1,3.006408691E0
4.069961736E0,-5.928222656E0,-9.670547485E0,2.467712402E0
4.072433660E0,-5.743865967E0,-9.067214966E0,2.474899292E0
4.074875066E0,-6.292129517E0,-9.385635376E0,2.721496582E0
4.077346990E0,-6.533950806E0,-9.574783325E0,2.585037231E0
4.079818914E0,-5.782165527E0,-9.230010986E0,2.376739502E0
4.082260320E0,-5.454162598E0,-8.763153076E0,2.355194092E0
4.084732244E0,-5.377548218E0,-8.736816406E0,2.987258911E0
4.087204168E0,-4.862792969E0,-8.693710327E0,2.956130981E0
4.089645574E0,-4.960952759E0,-8.336975098E0,2.628128052E0
4.092117498E0,-5.159683228E0,-8.150238037E0,2.565872192E0
4.094589422E0,-4.960952759E0,-7.958694458E0,2.781356812E0
4.097030828E0,-4.604217529E0,-7.702514648E0,2.948944092E0
4.099502752E0,-4.980117798E0,-7.815048218E0,3.068664551E0
4.101974676E0,-5.202774048E0,-7.841384888E0,3.078231812E0
4.104446599E0,-5.169250488E0,-7.597167969E0,2.788543701E0
4.106888006E0,-5.482894897E0,-7.664215088E0,2.771774292E0
4.109359930E0,-6.117355347E0,-7.836593628E0,2.857971191E0
4.111831853E0,-6.612960815E0,-7.949127197E0,2.869949341E0
4.114273260E0,-6.895477295E0,-8.121505737E0,2.776565552E0
4.116745183E0,-6.368743896E0,-8.073623657E0,2.553909302E0
4.119217107E0,-6.500427246E0,-8.126296997E0,2.522781372E0
4.121658514E0,-6.351989746E0,-8.178970337E0,2.441375732E0
4.124130437E0,-5.772598267E0,-8.104736328E0,2.575454712E0
4.126602361E0,-5.892303467E0,-7.982635498E0,2.529968262E0
4.129043767E0,-6.141296387E0,-8.262756348E0,2.316879272E0
4.131515691E0,-5.928222656E0,-8.260360718E0,2.333648682E0
4.133987615E0,-5.595428467E0,-8.028121948E0,2.352798462E0
4.136459539E0,-5.743865967E0,-8.336975098E0,2.266601562E0
4.138900945E0,-5.899490356E0,-8.621887207E0,2.292938232E0
4.141372869E0,-6.124542236E0,-8.717651367E0,2.201965332E0
4.143844793E0,-6.387908936E0,-9.002563477E0,2.053512573E0
4.146286199E0,-5.995254517E0,-9.081573486E0,2.108581543E0
4.148758123E0,-6.150878906E0,-9.241989136E0,2.127746582E0
4.151230047E0,-6.864349365E0,-9.708862305E0,2.058303833E0
4.153671453E0,-7.350372314E0,-9.783081055E0,1.974517822E0
4.156143377E0,-7.915405273E0,-9.730407715E0,1.883529663E0
4.158615301E0,-8.578598022E0,-9.900390625E0,1.651290894E0
4.161056707E0,-8.528320312E0,-9.993774414E0,1.672836304E0
4.163528631E0,-7.541915894E0,-1.011587524E1,1.632141113E0
4.166000555E0,-5.971313477E0,-9.802230835E0,1.665664673E0
4.168472478E0,-2.980957031E0,-8.822998047E0,1.900283813E0
4.170913885E0,-7.304077148E-1,-8.008972168E0,2.283370972E0
4.173385808E0,9.407501221E-1,-8.013763428E0,2.597000122E0
4.175857732E0,6.869659424E-1,-8.131072998E0,3.413421631E0
4.178299139E0,2.178543091E0,-8.253189087E0,3.774948120E0
4.180771062E0,2.473037720E0,-8.138259888E0,4.533920288E0
4.183242986E0,1.070037842E0,-8.624282837E0,4.840377808E0
4.185684392E0,-1.582748413E0,-9.196502686E0,4.203506470E0
4.188156316E0,-4.120590210E0,-9.617874146E0,3.353576660E0
4.190628240E0,-5.152496338E0,-9.926727295E0,2.716720581E0
4.193069646E0,-4.798156738E0,-1.019488525E1,2.383926392E0
4.195541570E0,-4.510848999E0,-1.007516479E1,2.257034302E0
4.198013494E0,-4.656890869E0,-1.012306213E1,2.362365723E0
4.200454900E0,-4.407897949E0,-1.025233459E1,2.369552612E0
4.202926824E0,-5.372756958E0,-1.026670837E1,1.754241943E0
4.205398748E0,-6.062286377E0,-1.041993713E1,1.541168213E0
4.207870672E0,-6.433395386E0,-1.038162231E1,1.536376953E0
4.210312078E0,-6.117355347E0,-1.005122375E1,1.782974243E0
4.212784002E0,-6.179611206E0,-9.447891235E0,1.885925293E0
4.215255926E0,-6.205947876E0,-9.064819336E0,1.919448853E0
4.217697332E0,-5.897094727E0,-8.961868286E0,1.866775513E0
4.220169256E0,-6.804489136E0,-8.698501587E0,1.677627563E0
4.222641180E0,-7.110946655E0,-8.832580566E0,1.399902344E0
4.225082586E0,-6.866744995E0,-8.976226807E0,1.277801514E0
4.227554510E0,-6.763793945E0,-8.897216797E0,1.067108154E0
4.230026433E0,-5.662460327E0,-9.103118896E0,9.593658447E-1
4.232467840E0,-4.855621338E0,-9.301849365E0,1.153305054E0
4.234939764E0,-5.624160767E0,-9.208465576E0,1.028808594E0
4.237411687E0,-5.918640137E0,-9.261138916E0,8.085327148E-1
4.239883611E0,-4.508453369E0,-9.452682495E0,9.354248047E-1
4.242325017E0,-3.744705200E0,-9.586761475E0,1.148513794E0
4.244796941E0,-4.218750000E0,-9.706466675E0,1.143722534E0
4.247268865E0,-4.367202759E0,-9.960250854E0,1.445388794E0
4.249710271E0,-4.379165649E0,-1.015896606E1,2.022399902E0
4.252182195E0,-4.008071899E0,-9.754348755E0,1.447784424E0
4.254654119E0,-3.984130859E0,-9.002563477E0,6.505126953E-1
4.257095525E0,-4.383956909E0,-8.583587646E0,1.045562744E0
4.259567449E0,-5.032791138E0,-8.461486816E0,1.713546753E0
4.262039373E0,-5.954559326E0,-8.609924316E0,2.130126953E0
4.264480779E0,-5.770202637E0,-8.784698486E0,2.091827393E0
4.266952703E0,-5.018417358E0,-8.947509766E0,2.024795532E0
4.269424627E0,-4.649719238E0,-8.971450806E0,2.000854492E0
4.271896551E0,-5.075881958E0,-8.863708496E0,2.144500732E0
4.274337957E0,-4.513244629E0,-9.040878296E0,1.809310913E0
4.276809881E0,-3.466979980E0,-9.411972046E0,1.751846313E0
4.279281805E0,-3.574722290E0,-9.641815186E0,2.120559692E0
4.281723211E0,-3.938629150E0,-9.447891235E0,2.204360962E0
4.284195135E0,-3.816528320E0,-9.622665405E0,2.151687622E0
4.286667058E0,-3.476547241E0,-9.854904175E0,2.079849243E0
4.289108465E0,-3.172485352E0,-9.811813354E0,2.156463623E0
4.291580389E0,-2.006515503E0,-9.972213745E0,2.139709473E0
4.294052312E0,-1.683303833E0,-1.003686523E1,2.051132202E0
4.296524236E0,-2.652954102E0,-1.001531982E1,2.383926392E0
4.298965642E0,-2.947433472E0,-1.021882629E1,2.740661621E0
4.301437566E0,-2.576339722E0,-1.018769836E1,2.778961182E0
4.303878973E0,-2.473388672E0,-1.002011108E1,2.678405762E0
4.306350896E0,-2.396774292E0,-9.876449585E0,2.771774292E0
4.308822820E0,-2.870819092E0,-9.620269775E0,2.778961182E0
4.311294744E0,-3.371215820E0,-9.237197876E0,2.587432861E0
4.313736150E0,-3.644149780E0,-8.973831177E0,2.707138062E0
4.316208074E0,-3.981735229E0,-8.760757446E0,2.604187012E0
4.318649480E0,-3.754287720E0,-8.578796387E0,2.544326782E0
4.321121404E0,-3.536407471E0,-8.358535767E0,2.594604492E0
4.323593328E0,-3.512466431E0,-8.028121948E0,2.474899292E0
4.326065252E0,-3.409515381E0,-7.752792358E0,2.616149902E0
4.328506658E0,-3.668090820E0,-7.570831299E0,2.589828491E0
4.330978582E0,-3.806961060E0,-7.434371948E0,2.240264893E0
4.333450506E0,-3.814132690E0,-7.252410889E0,2.393493652E0
4.335891912E0,-3.969757080E0,-7.103973389E0,2.091827393E0
4.338363836E0,-3.747100830E0,-7.125518799E0,1.778182983E0
4.340835760E0,-4.371978760E0,-7.080032349E0,1.574676514E0
4.343307683E0,-4.702392578E0,-7.161422729E0,1.656082153E0
4.345749090E0,-4.709564209E0,-7.381698608E0,1.624954224E0
4.348221014E0,-4.855621338E0,-7.657028198E0,1.347229004E0
4.350692937E0,-4.443817139E0,-7.937149048E0,1.311325073E0
4.353134344E0,-4.422271729E0,-7.994613647E0,1.622558594E0
4.355606267E0,-4.252273560E0,-7.973068237E0,1.713546753E0
4.358078191E0,-3.780624390E0,-8.068832397E0,1.720733643E0
4.360519598E0,-3.639358521E0,-8.133468628E0,1.859588623E0
4.362991521E0,-3.613021851E0,-8.214874268E0,2.252243042E0
4.365463445E0,-3.584289551E0,-8.274734497E0,2.295333862E0
4.367904851E0,-3.713577271E0,-8.296279907E0,2.249847412E0
4.370376775E0,-3.996093750E0,-8.279525757E0,2.125350952E0
4.372848699E0,-4.292984009E0,-8.313034058E0,2.218719482E0
4.375320623E0,-4.673660278E0,-8.380081177E0,2.257034302E0
4.377762029E0,-4.235519409E0,-8.456695557E0,2.048736572E0
4.380233953E0,-4.197204590E0,-8.399230957E0,2.357589722E0
4.382705877E0,-4.695205688E0,-8.389648438E0,2.462921143E0
4.385147283E0,-4.913070679E0,-8.401626587E0,2.137313843E0
4.387619207E0,-4.834060669E0,-8.296279907E0,2.137313843E0
4.390091131E0,-4.788574219E0,-8.284301758E0,2.089431763E0
4.392532537E0,-4.714355469E0,-8.334579468E0,2.024795532E0
4.395004461E0,-4.678436279E0,-8.420776367E0,2.005630493E0
4.397476385E0,-4.635345459E0,-8.514144897E0,1.991271973E0
4.399917791E0,-4.589859009E0,-8.542877197E0,1.948181152E0
4.402389715E0,-4.810119629E0,-8.612319946E0,1.806915283E0
4.404861639E0,-4.898712158E0,-8.755966187E0,1.727905273E0
4.407303045E0,-5.011230469E0,-8.801452637E0,1.962539673E0
4.409774969E0,-5.102218628E0,-8.849334717E0,1.933807373E0
4.412246892E0,-5.176437378E0,-8.899612427E0,1.763824463E0
4.414718816E0,-5.085464478E0,-8.909194946E0,1.720733643E0
4.417160223E0,-4.750274658E0,-8.892440796E0,1.634536743E0
4.419632146E0,-4.448593140E0,-8.794265747E0,1.610595703E0
4.422104070E0,-4.496490479E0,-8.904403687E0,1.713546753E0
4.424545476E0,-4.570709229E0,-9.007354736E0,1.627349854E0
4.427017400E0,-4.371978760E0,-8.997787476E0,1.483703613E0
4.429489324E0,-4.082290649E0,-8.902008057E0,1.464553833E0
4.431930730E0,-3.835678101E0,-8.696105957E0,1.512435913E0
4.434402654E0,-3.794982910E0,-8.693710327E0,1.414260864E0
4.436874578E0,-3.699218750E0,-8.621887207E0,1.167663574E0
4.439315984E0,-3.826110840E0,-8.631469727E0,1.246673584E0
4.441787908E0,-4.204391479E0,-8.566818237E0,1.112594604E0
4.444259832E0,-4.424652100E0,-8.557250977E0,9.928894043E-1
4.446731756E0,-4.587463379E0,-8.674560547E0,1.138931274E0
4.449173162E0,-4.388748169E0,-8.724838257E0,1.059921265E0
4.451645086E0,-4.213973999E0,-8.662597656E0,9.497985840E-1
4.454117010E0,-4.005676270E0,-8.633865356E0,1.112594604E0
4.456558416E0,-3.814132690E0,-8.688934326E0,1.086257935E0
4.459030340E0,-3.759063721E0,-8.722442627E0,1.064712524E0
4.461502264E0,-3.754287720E0,-8.767944336E0,1.165267944E0
4.463943670E0,-3.749496460E0,-8.727233887E0,1.201187134E0
4.466415594E0,-3.809341431E0,-8.746383667E0,1.205978394E0
4.468887517E0,-3.773437500E0,-8.777511597E0,1.079086304E0
4.471328924E0,-3.648941040E0,-8.870880127E0,1.208374023E0
4.473800848E0,-3.443038940E0,-8.940322876E0,1.273010254E0
4.476272771E0,-3.112640381E0,-8.995391846E0,1.325683594E0
4.478744695E0,-2.854064941E0,-9.151016235E0,1.244277954E0
4.481186101E0,-2.667312622E0,-9.438308716E0,1.158081055E0
4.483658025E0,-2.576339722E0,-9.634643555E0,1.323287964E0
4.486099432E0,-2.487747192E0,-9.938705444E0,1.361602783E0
4.488571355E0,-2.281845093E0,-1.033853149E1,1.177246094E0
4.491043279E0,-2.028060913E0,-1.076708984E1,1.136535645E0
4.493515203E0,-1.846099854E0,-1.118608093E1,1.318496704E0
4.495956609E0,-1.592315674E0,-1.168885803E1,1.292160034E0
4.498428533E0,-1.470214844E0,-1.206953430E1,1.143722534E0
4.500900457E0,-1.486968994E0,-1.217488098E1,1.079086304E0
4.503341863E0,-1.312194824E0,-1.230416870E1,1.076690674E0
4.505813787E0,-1.022491455E0,-1.234967041E1,1.208374023E0
4.508285711E0,-9.722137451E-1,-1.241909790E1,1.433425903E0
4.510757635E0,-1.041656494E0,-1.246697998E1,1.658477783E0
4.513199041E0,-1.168548584E0,-1.268724060E1,2.017608643E0
4.515670965E0,-1.271499634E0,-1.304158020E1,2.027191162E0
4.518142889E0,-1.235580444E0,-1.323072815E1,2.091827393E0
4.520584295E0,-1.321777344E0,-1.325946045E1,2.108581543E0
4.523056219E0,-1.472610474E0,-1.323072815E1,2.166046143E0
4.525528142E0,-1.633026123E0,-1.322354126E1,2.106185913E0
4.527969549E0,-1.858078003E0,-1.328100586E1,1.996063232E0
4.530441473E0,-2.016098022E0,-1.329776001E1,2.034362793E0
4.532913396E0,-2.210021973E0,-1.323551941E1,1.945785522E0
4.535354803E0,-2.478179932E0,-1.315890503E1,1.859588623E0
4.537826726E0,-2.545211792E0,-1.308229065E1,1.708755493E0
4.540298650E0,-2.585906982E0,-1.295539856E1,1.601013184E0
4.542770574E0,-2.631408691E0,-1.281652832E1,1.502853394E0
4.545211980E0,-2.779846191E0,-1.265612793E1,1.296951294E0
4.547683904E0,-2.722381592E0,-1.245739746E1,1.146118164E0
4.550155828E0,-2.751113892E0,-1.234487915E1,1.021621704E0
4.552597234E0,-2.887588501E0,-1.222038269E1,9.066925049E-1
4.555069158E0,-2.930679321E0,-1.207192993E1,8.300781250E-1
4.557541082E0,-2.925888062E0,-1.196897888E1,7.774047852E-1
4.559982488E0,-2.959411621E0,-1.186842346E1,7.319183350E-1
4.562454412E0,-3.012084961E0,-1.173435974E1,7.031860352E-1
4.564926336E0,-3.009689331E0,-1.157154846E1,6.265716553E-1
4.567398260E0,-2.988143921E0,-1.143267822E1,6.433410645E-1
4.569839666E0,-2.976165771E0,-1.132972717E1,6.217803955E-1
4.572311590E0,-2.894760132E0,-1.121720886E1,6.194000244E-1
4.574783514E0,-2.906738281E0,-1.111904907E1,6.768493652E-1
4.577224920E0,-2.961807251E0,-1.107115173E1,6.936187744E-1
4.579696844E0,-2.856460571E0,-1.090835571E1,6.146087646E-1
4.582168767E0,-2.731964111E0,-1.082934570E1,5.978393555E-1
4.584610174E0,-2.703231812E0,-1.074314880E1,7.007904053E-1
4.587082098E0,-2.731964111E0,-1.066174316E1,7.007904053E-1
4.589554021E0,-2.657730103E0,-1.050134277E1,6.792449951E-1
4.591995428E0,-2.540420532E0,-1.033134460E1,6.864318848E-1
4.594467351E0,-2.461410522E0,-1.012783813E1,6.481170654E-1
4.596939275E0,-2.466201782E0,-1.008474731E1,7.151641846E-1
4.599380682E0,-2.494934082E0,-1.004882812E1,6.888275146E-1
4.601852605E0,-2.509292603E0,-9.962646484E0,7.415008545E-1
4.604324529E0,-2.533233643E0,-9.907577515E0,7.965698242E-1
4.606796453E0,-2.542816162E0,-9.866882324E0,8.731842041E-1
4.609237859E0,-2.518875122E0,-9.795043945E0,8.444519043E-1
4.611709783E0,-2.557174683E0,-9.747161865E0,8.707885742E-1
4.614181707E0,-2.576339722E0,-9.660980225E0,9.713439941E-1
4.616623113E0,-2.633789062E0,-9.598724365E0,1.026412964E0
4.619095037E0,-2.569152832E0,-9.534088135E0,1.043167114E0
4.621566961E0,-2.351272583E0,-9.505355835E0,1.074295044E0
4.624008367E0,-2.265090942E0,-9.426345825E0,1.091049194E0
4.626480291E0,-2.080734253E0,-9.091156006E0,1.064712524E0
4.628952215E0,-1.297836304E0,-8.104736328E0,1.174850464E0
4.631393621E0,-1.075164795E0,-7.755187988E0,1.277801514E0
4.633865545E0,-1.419937134E0,-7.970672607E0,1.261032104E0
4.636337469E0,-1.556411743E0,-8.040100098E0,1.194000244E0
4.638809392E0,-1.680908203E0,-8.083190918E0,1.237091064E0
4.641250799E0,-1.745544434E0,-8.133468628E0,1.251464844E0
4.643722723E0,-1.745544434E0,-8.109527588E0,1.227523804E0
4.646194646E0,-1.592315674E0,-8.090377808E0,1.237091064E0
4.648636053E0,-1.573165894E0,-8.020950317E0,1.308929443E0
4.651107976E0,-1.568374634E0,-8.044891357E0,1.256256104E0
4.653579900E0,-1.546829224E0,-8.083190918E0,1.189208984E0
4.656021307E0,-1.465423584E0,-8.016159058E0,1.263427734E0
4.658493230E0,-1.498947144E0,-7.994613647E0,1.232315063E0
4.660965154E0,-1.465423584E0,-7.970672607E0,1.229919434E0
4.663406560E0,-1.441482544E0,-7.977844238E0,1.287368774E0
4.665878484E0,-1.530075073E0,-7.963485718E0,1.198791504E0
4.668350408E0,-1.508514404E0,-7.994613647E0,1.194000244E0
4.670791814E0,-1.496551514E0,-7.906021118E0,1.126968384E0
4.673263738E0,-1.338531494E0,-7.867721558E0,1.138931274E0
4.675735662E0,-1.345718384E0,-7.939544678E0,1.167663574E0
4.678207586E0,-1.384017944E0,-7.961090088E0,1.275405884E0
4.680648992E0,-1.194885254E0,-8.020950317E0,1.170059204E0
4.683120916E0,-1.233184814E0,-8.035308838E0,1.131759644E0
4.685592840E0,-1.309799194E0,-7.977844238E0,1.160476685E0
4.688034246E0,-1.372055054E0,-7.903625488E0,1.091049194E0
4.690506170E0,-1.314590454E0,-7.985031128E0,1.019226074E0
4.692978094E0,-1.446273804E0,-7.985031128E0,1.059921265E0
4.695419500E0,-1.305007935E0,-7.970672607E0,9.713439941E-1
4.697891424E0,-1.237976074E0,-8.099960327E0,9.545745850E-1
4.700363348E0,-1.388809204E0,-8.126296997E0,9.090881348E-1
4.702804754E0,-1.616256714E0,-8.176574707E0,7.702331543E-1
4.705276678E0,-1.458236694E0,-8.195724487E0,7.247314453E-1
4.707748601E0,-1.410354614E0,-8.439926147E0,7.391052246E-1
4.710190008E0,-1.635406494E0,-8.576400757E0,5.451660156E-1
4.712661932E0,-1.925109863E0,-8.609924316E0,2.315368652E-1
4.715133855E0,-1.915542603E0,-8.691329956E0,1.126098633E-2
4.717605779E0,-2.176498413E0,-8.801452637E0,-3.662109375E-2
4.720047185E0,-2.976165771E0,-8.269943237E0,-2.224731445E-2
4.722519109E0,-4.010467529E0,-7.484649658E0,-2.943420410E-2
4.724991033E0,-4.544372559E0,-7.855743408E0,-6.591033936E-1
4.727432439E0,-5.209960938E0,-8.164596558E0,-9.129028320E-1
4.729904363E0,-5.552322388E0,-8.322616577E0,-8.075561523E-1
4.732376287E0,-5.731887817E0,-8.720046997E0,-5.944671631E-1
4.734817693E0,-5.530776978E0,-8.822998047E0,-3.382873535E-1
4.737289617E0,-5.317687988E0,-8.870880127E0,-1.730804443E-1
4.739761541E0,-4.934616089E0,-8.801452637E0,-6.056213379E-2
4.742233465E0,-4.630554199E0,-8.873275757E0,2.698364258E-1
4.744674871E0,-4.388748169E0,-9.064819336E0,3.440551758E-1
4.747146795E0,-4.137359619E0,-9.179733276E0,4.422149658E-1
4.749618719E0,-3.852447510E0,-9.258743286E0,6.074218750E-1
4.752060125E0,-3.474166870E0,-9.297058105E0,6.505126953E-1
4.754532049E0,-3.081512451E0,-9.445495605E0,5.403900146E-1
4.757003973E0,-2.878005981E0,-9.392822266E0,4.925079346E-1
4.759445379E0,-2.640975952E0,-9.060028076E0,2.985687256E-1
4.761917303E0,-2.262695312E0,-8.976226807E0,-5.577087402E-2
4.764389226E0,-1.901168823E0,-9.055236816E0,-9.646606445E-2
4.766830633E0,-1.520492554E0,-8.928344727E0,-1.012573242E-1
4.769302557E0,-1.228393555E0,-8.629074097E0,-4.603881836E-1
4.771774480E0,-1.056015015E0,-8.047286987E0,-8.458557129E-1
4.774215887E0,-7.136383057E-1,-8.018554688E0,-6.016540527E-1
4.776687810E0,-1.031188965E-1,-8.198120117E0,-1.922454834E-1
4.779159734E0,2.081146240E-1,-7.963485718E0,-1.036529541E-1
4.781631658E0,2.991027832E-1,-8.344161987E0,2.530822754E-1
4.784073064E0,2.464294434E-1,-8.459091187E0,6.864318848E-1
4.786544988E0,9.399414062E-3,-8.377685547E0,9.928894043E-1
4.789016912E0,-1.127014160E-1,-8.322616577E0,1.378356934E0
4.791458318E0,-1.055145264E-1,-8.406417847E0,1.735092163E0
4.793930242E0,1.658630371E-2,-8.564422607E0,2.072677612E0
4.796402166E0,1.386871338E-1,-8.669769287E0,2.336029053E0
4.798843572E0,-4.087829590E-2,-8.538101196E0,2.664047241E0
4.801315496E0,-3.353576660E-1,-8.255584717E0,2.963317871E0
4.803787420E0,-4.790191650E-1,-8.248397827E0,3.181182861E0
4.806228826E0,-5.699920654E-1,-8.071228027E0,3.317657471E0
4.808700750E0,-5.388641357E-1,-7.762374878E0,3.209915161E0
4.811172674E0,-5.771789551E-1,-7.647445679E0,3.233856201E0
4.813644598E0,-7.615356445E-1,-7.431976318E0,3.174011230E0
4.816086004E0,-1.010528564E0,-7.211700439E0,2.994445801E0
4.818557928E0,-1.079956055E0,-7.113540649E0,2.834030151E0
4.821029851E0,-1.228393555E0,-6.991439819E0,2.477294922E0
4.823471258E0,-1.149383545E0,-6.852569580E0,2.230697632E0
4.825943182E0,-1.135025024E0,-6.802291870E0,1.835647583E0
4.828415105E0,-1.125442505E0,-6.615554810E0,1.627349854E0
4.830856512E0,-1.115875244E0,-6.512603760E0,1.541168213E0
4.833328435E0,-1.034469604E0,-6.605972290E0,1.466934204E0
4.835800359E0,-1.209243774E0,-6.766387939E0,1.581863403E0
4.838241765E0,-1.254730225E0,-6.979461670E0,1.639328003E0
4.840713689E0,-1.087142944E0,-7.017776489E0,1.179641724E0
4.843185613E0,-1.012924194E0,-7.065658569E0,1.095840454E0
4.845657537E0,-9.099731445E-1,-7.132690430E0,8.109283447E-1
4.848098943E0,-9.411010742E-1,-7.161422729E0,1.014434814E0
4.850570867E0,-8.046264648E-1,-7.250015259E0,1.495666504E0
4.853042791E0,-7.758941650E-1,-7.271560669E0,1.689605713E0
4.855484197E0,-1.060806274E0,-7.099182129E0,1.660873413E0
4.857956121E0,-1.362472534E0,-7.020172119E0,4.446105957E-1
4.860428045E0,-1.470214844E0,-7.314651489E0,-7.429046631E-1
4.862869451E0,-1.381622314E0,-7.355361938E0,-1.159500122E0
4.865341375E0,-1.419937134E0,-7.451126099E0,-1.494689941E0
4.867813299E0,-1.688079834E0,-7.803070068E0,-1.671859741E0
4.870254705E0,-1.848495483E0,-8.114318848E0,-1.573699951E0
4.872726629E0,-1.747940063E0,-8.198120117E0,-9.559936523E-1
4.875198553E0,-1.755126953E0,-8.222061157E0,-1.299896240E-1
4.877670476E0,-1.637802124E0,-8.389648438E0,6.720581055E-1
4.880111883E0,-1.333740234E0,-8.825393677E0,8.851470947E-1
4.882583807E0,-9.794006348E-1,-9.569992065E0,5.379943848E-1
4.885055730E0,-6.513977051E-1,-1.050613403E1,9.745788574E-2
4.887497137E0,-5.044555664E-2,-1.147817993E1,-3.119506836E-1
4.889969060E0,7.276611328E-1,-1.210545349E1,-4.867248535E-1
4.892410467E0,1.489013672E0,-1.271118164E1,-4.101104736E-1
4.894882390E0,1.764358521E0,-1.347972107E1,-7.381134033E-1
4.897354314E0,2.161788940E0,-1.389871216E1,-1.106826782E0
4.899826238E0,2.659790039E0,-1.383885193E1,-7.692413330E-1
4.902267644E0,3.229598999E0,-1.377421570E1,-3.263092041E-1
4.904739568E0,3.363677979E0,-1.365689087E1,7.271270752E-1
4.907211492E0,2.896804810E0,-1.358746338E1,1.814102173E0
4.909683416E0,2.202499390E0,-1.377661133E1,2.786148071E0
4.912124822E0,1.924758911E0,-1.363294983E1,2.668823242E0
4.914596746E0,1.740417480E0,-1.348211670E1,1.986480713E0
4.917068670E0,1.647033691E0,-1.339353943E1,1.890716553E0
4.919510076E0,1.467468262E0,-1.290751648E1,1.960144043E0
4.921982000E0,1.448318481E0,-1.235923767E1,1.912261963E0
4.924453924E0,1.058059692E0,-1.192109680E1,2.103805542E0
4.926895330E0,4.954223633E-1,-1.139198303E1,2.455749512E0
4.929367254E0,-7.200622559E-2,-1.091314697E1,3.372726440E0
4.931839178E0,-2.276153564E-1,-1.113580322E1,4.363922119E0
4.934280584E0,-5.316925049E-1,-1.279019165E1,3.121337891E0
4.936752508E0,-8.596954346E-1,-1.412376404E1,3.085418701E0
4.939224432E0,-9.147644043E-1,-1.505271912E1,3.940155029E0
4.941665838E0,-1.125442505E0,-1.590505981E1,3.892272949E0
4.944137762E0,-1.405563354E0,-1.647966003E1,4.028732300E0
4.946609685E0,-1.886810303E0,-1.725059509E1,4.256179810E0
4.949081609E0,-2.303390503E0,-1.813404846E1,4.093383789E0
4.951523015E0,-2.928283691E0,-1.881640625E1,3.973663330E0
4.953994939E0,-3.435852051E0,-1.941734314E1,3.753402710E0
4.956466863E0,-3.742309570E0,-1.995603943E1,3.475677490E0
4.958908269E0,-4.345642090E0,-2.044206238E1,3.190765381E0
4.961380193E0,-5.104614258E0,-2.084907532E1,2.766998291E0
4.963852117E0,-5.612182617E0,-2.101667786E1,2.089431763E0
4.966293523E0,-6.229888916E0,-2.112202454E1,1.495666504E0
4.968765447E0,-6.701538086E0,-2.128002930E1,8.181152344E-1
4.971237371E0,-7.391067505E0,-2.145719910E1,4.957580566E-2
4.973678777E0,-8.157211304E0,-2.130158997E1,-5.992584229E-1
4.976150701E0,-7.915405273E0,-2.075570679E1,-9.392395020E-1
4.978622625E0,-5.557113647E0,-1.953227234E1,-1.698196411E0
4.981094549E0,-2.741531372E0,-1.799519348E1,-2.476303101E0
4.983535955E0,-7.256164551E-1,-1.669274902E1,-2.892898560E0
4.986007879E0,2.272796631E-1,-1.553634644E1,-3.026977539E0
4.988479803E0,2.584075928E-1,-1.446614075E1,-2.830657959E0
4.990921209E0,-2.276153564E-1,-1.350366211E1,-2.598419189E0
4.993393133E0,-9.722137451E-1,-1.286920166E1,-2.385330200E0
4.995865057E0,-1.822158813E0,-1.224192810E1,-1.925643921E0
4.998306463E0,-2.753509521E0,-1.179660034E1,-1.487503052E0
5.000778387E0,-3.364028931E0,-1.141352844E1,-1.178649902E0
5.003250310E0,-3.768646240E0,-1.114776611E1,-8.913421631E-1
5.005691717E0,-4.122985840E0,-1.098976135E1,-6.662902832E-1
5.008163640E0,-4.237915039E0,-1.076469421E1,-4.053192139E-1
5.010635564E0,-4.173263550E0,-1.064498901E1,-2.257537842E-1
5.013107488E0,-4.003280640E0,-1.047021484E1,2.363281250E-1
5.015548894E0,-3.775833130E0,-1.032656860E1,6.816406250E-1
5.018020818E0,-3.493316650E0,-1.026431274E1,9.521942139E-1
5.020492742E0,-3.270660400E0,-1.001292419E1,1.237091064E0
5.022934148E0,-3.050384521E0,-9.723220825E0,1.380752563E0
5.025406072E0,-2.602676392E0,-9.620269775E0,1.608200073E0
5.027877996E0,-2.135803223E0,-9.670547485E0,1.720733643E0
5.030319402E0,-1.733581543E0,-9.593933105E0,1.931411743E0
5.032791326E0,-1.429519653E0,-9.536468506E0,2.055908203E0
5.035263250E0,-1.247558594E0,-9.486190796E0,2.070281982E0
5.037704656E0,-1.242767334E0,-9.421554565E0,2.027191162E0
5.040176580E0,-1.185302734E0,-9.277908325E0,2.082244873E0
5.042648504E0,-1.206848145E0,-9.275512695E0,2.094223022E0
5.045120428E0,-1.324172974E0,-9.378463745E0,2.020004272E0
5.047561834E0,-1.386413574E0,-9.452682495E0,1.952957153E0
5.050033758E0,-1.443878174E0,-9.452682495E0,1.964935303E0
5.052505682E0,-1.582748413E0,-9.464645386E0,1.933807373E0
5.054947088E0,-1.644989014E0,-9.500564575E0,1.950576782E0
5.057419012E0,-1.745544434E0,-9.550842285E0,1.940994263E0
5.059890935E0,-1.791030884E0,-9.569992065E0,2.031967163E0
5.062332342E0,-1.716812134E0,-9.759140015E0,1.976898193E0
5.064773748E0,-1.649780273E0,-9.854904175E0,1.998458862E0
5.067245672E0,-1.592315674E0,-9.862091064E0,2.170837402E0
5.069717596E0,-1.733581543E0,-1.007995605E1,1.900283813E0
5.072189519E0,-1.791030884E0,-1.010629272E1,1.826065063E0
5.074661443E0,-1.752731323E0,-1.019248962E1,1.823669434E0
5.077133367E0,-1.678512573E0,-1.034811401E1,1.550735474E0
5.079574773E0,-1.678512573E0,-1.036247253E1,1.399902344E0
5.082046697E0,-1.673721313E0,-1.043908691E1,1.306533813E0
5.084488103E0,-1.649780273E0,-1.045823669E1,1.148513794E0
5.086960027E0,-1.649780273E0,-1.039839172E1,1.134140015E0
5.089431951E0,-1.589920044E0,-1.035528564E1,1.148513794E0
5.091903875E0,-1.458236694E0,-1.039360046E1,1.155700684E0
5.094345281E0,-1.403182983E0,-1.034811401E1,1.165267944E0
5.096817205E0,-1.309799194E0,-1.044387817E1,1.107803345E0
5.099289129E0,-1.281066895E0,-1.047261047E1,1.059921265E0
5.101730535E0,-1.264312744E0,-1.044866943E1,1.091049194E0
5.104202459E0,-1.293045044E0,-1.053485107E1,1.088653564E0
5.106674383E0,-1.271499634E0,-1.059231567E1,1.014434814E0
5.109115789E0,-1.240371704E0,-1.066174316E1,1.000076294E0
5.111587713E0,-1.223617554E0,-1.072160339E1,9.258575439E-1
5.114059637E0,-1.247558594E0,-1.075033569E1,9.833068848E-1
5.116531560E0,-1.305007935E0,-1.066413879E1,1.062316895E0
5.118972967E0,-1.352890015E0,-1.065217590E1,1.035980225E0
