"Time (s)","Gyroscope x (rad/s)","Gyroscope y (rad/s)","Gyroscope z (rad/s)"
1.411664900E-2,2.337499987E-3,-1.099999994E-3,-7.287499961E-3
1.665448700E-2,2.337499987E-3,-1.099999994E-3,-7.287499961E-3
1.919232000E-2,2.337499987E-3,-1.099999994E-3,-7.287499961E-3
2.172981400E-2,2.337499987E-3,-1.099999994E-3,-7.287499961E-3
2.426732100E-2,2.337499987E-3,-1.099999994E-3,-7.287499961E-3
2.680370500E-2,2.337499987E-3,-1.099999994E-3,-7.287499961E-3
2.934005200E-2,2.337499987E-3,-1.099999994E-3,-7.287499961E-3
3.187647500E-2,2.337499987E-3,-1.099999994E-3,-7.287499961E-3
3.441289800E-2,2.337499987E-3,-1.099999994E-3,-7.287499961E-3
3.694908400E-2,2.337499987E-3,-1.099999994E-3,-7.287499961E-3
3.948527700E-2,2.337499987E-3,-1.099999994E-3,-7.287499961E-3
4.202185400E-2,2.337499987E-3,-1.099999994E-3,-7.287499961E-3
4.455843100E-2,2.337499987E-3,-1.099999994E-3,-7.287499961E-3
4.709581500E-2,2.337499987E-3,-1.099999994E-3,-7.287499961E-3
4.963320000E-2,2.337499987E-3,-1.099999994E-3,-7.287499961E-3
5.217042900E-2,2.337499987E-3,-1.099999994E-3,-7.287499961E-3
5.470766000E-2,2.337499987E-3,-1.099999994E-3,-7.287499961E-3
5.724493000E-2,2.337499987E-3,-1.099999994E-3,-7.287499961E-3
5.978219900E-2,2.337499987E-3,-1.099999994E-3,-7.287499961E-3
6.231883200E-2,2.337499987E-3,-1.099999994E-3,-7.287499961E-3
6.485544900E-2,2.337499987E-3,-1.099999994E-3,-7.287499961E-3
6.739314200E-2,4.771250114E-2,5.898749828E-2,2.309999987E-2
6.993083300E-2,4.771250114E-2,5.898749828E-2,2.309999987E-2
7.246804900E-2,4.771250114E-2,5.898749828E-2,2.309999987E-2
7.500528200E-2,4.771250114E-2,5.898749828E-2,2.309999987E-2
7.754216600E-2,4.771250114E-2,5.898749828E-2,2.309999987E-2
8.007905100E-2,4.771250114E-2,5.898749828E-2,2.309999987E-2
8.261581900E-2,4.771250114E-2,5.898749828E-2,2.309999987E-2
8.515258800E-2,4.771250114E-2,5.898749828E-2,2.309999987E-2
8.768981900E-2,5.637500063E-2,7.383749634E-2,2.722499892E-2
9.022705000E-2,5.637500063E-2,7.383749634E-2,2.722499892E-2
9.276464500E-2,5.637500063E-2,7.383749634E-2,2.722499892E-2
9.530222200E-2,5.637500063E-2,7.383749634E-2,2.722499892E-2
9.783987600E-2,5.637500063E-2,7.383749634E-2,2.722499892E-2
1.003775310E-1,5.637500063E-2,7.383749634E-2,2.722499892E-2
1.029146690E-1,5.637500063E-2,7.383749634E-2,2.722499892E-2
1.054517840E-1,5.637500063E-2,7.383749634E-2,2.722499892E-2
1.079893230E-1,6.627500057E-2,8.195000142E-2,3.231250122E-2
1.105268620E-1,6.627500057E-2,8.195000142E-2,3.231250122E-2
1.130646930E-1,6.627500057E-2,8.195000142E-2,3.231250122E-2
1.156025020E-1,6.627500057E-2,8.195000142E-2,3.231250122E-2
1.181399230E-1,6.627500057E-2,8.195000142E-2,3.231250122E-2
1.206773480E-1,6.627500057E-2,8.195000142E-2,3.231250122E-2
1.232145350E-1,6.627500057E-2,8.195000142E-2,3.231250122E-2
1.257517260E-1,6.627500057E-2,8.195000142E-2,3.231250122E-2
1.282881880E-1,7.713750005E-2,8.112499863E-2,3.836249933E-2
1.308246510E-1,7.713750005E-2,8.112499863E-2,3.836249933E-2
1.333622190E-1,7.713750005E-2,8.112499863E-2,3.836249933E-2
1.358997560E-1,7.713750005E-2,8.112499863E-2,3.836249933E-2
1.384369850E-1,7.713750005E-2,8.112499863E-2,3.836249933E-2
1.409742180E-1,7.713750005E-2,8.112499863E-2,3.836249933E-2
1.435110110E-1,7.713750005E-2,8.112499863E-2,3.836249933E-2
1.460477800E-1,7.713750005E-2,8.112499863E-2,3.836249933E-2
1.485845490E-1,8.181250095E-2,7.369999588E-2,4.124999791E-2
1.511213180E-1,8.181250095E-2,7.369999588E-2,4.124999791E-2
1.536576780E-1,8.181250095E-2,7.369999588E-2,4.124999791E-2
1.561940250E-1,8.181250095E-2,7.369999588E-2,4.124999791E-2
1.587304480E-1,8.181250095E-2,7.369999588E-2,4.124999791E-2
1.612668710E-1,8.181250095E-2,7.369999588E-2,4.124999791E-2
1.638041450E-1,8.181250095E-2,7.369999588E-2,4.124999791E-2
1.663414140E-1,8.181250095E-2,7.369999588E-2,4.124999791E-2
1.688781820E-1,7.919999957E-2,6.558749825E-2,4.028749838E-2
1.714149530E-1,7.919999957E-2,6.558749825E-2,4.028749838E-2
1.739515300E-1,7.919999957E-2,6.558749825E-2,4.028749838E-2
1.764881070E-1,7.919999957E-2,6.558749825E-2,4.028749838E-2
1.790247080E-1,7.919999957E-2,6.558749825E-2,4.028749838E-2
1.815613230E-1,7.919999957E-2,6.558749825E-2,4.028749838E-2
1.840988620E-1,7.919999957E-2,6.558749825E-2,4.028749838E-2
1.866364010E-1,7.919999957E-2,6.558749825E-2,4.028749838E-2
1.891738520E-1,7.108750194E-2,5.829999968E-2,3.629999980E-2
1.917112750E-1,7.108750194E-2,5.829999968E-2,3.629999980E-2
1.942480450E-1,7.108750194E-2,5.829999968E-2,3.629999980E-2
1.967848140E-1,7.108750194E-2,5.829999968E-2,3.629999980E-2
1.993223150E-1,7.108750194E-2,5.829999968E-2,3.629999980E-2
2.018598140E-1,7.108750194E-2,5.829999968E-2,3.629999980E-2
2.043978670E-1,7.108750194E-2,5.829999968E-2,3.629999980E-2
2.069359060E-1,7.108750194E-2,5.829999968E-2,3.629999980E-2
2.094725200E-1,6.503749639E-2,5.087500066E-2,3.341250122E-2
2.120091370E-1,6.503749639E-2,5.087500066E-2,3.341250122E-2
2.145465220E-1,6.503749639E-2,5.087500066E-2,3.341250122E-2
2.170839070E-1,6.503749639E-2,5.087500066E-2,3.341250122E-2
2.196207900E-1,6.503749639E-2,5.087500066E-2,3.341250122E-2
2.221576750E-1,6.503749639E-2,5.087500066E-2,3.341250122E-2
2.246955360E-1,6.503749639E-2,5.087500066E-2,3.341250122E-2
2.272333810E-1,6.503749639E-2,5.087500066E-2,3.341250122E-2
2.297708040E-1,5.664999783E-2,2.956249937E-2,3.066249937E-2
2.323082270E-1,5.664999783E-2,2.956249937E-2,3.066249937E-2
2.348462090E-1,5.664999783E-2,2.956249937E-2,3.066249937E-2
2.373842080E-1,5.664999783E-2,2.956249937E-2,3.066249937E-2
2.399223230E-1,5.664999783E-2,2.956249937E-2,3.066249937E-2
2.424604400E-1,5.664999783E-2,2.956249937E-2,3.066249937E-2
2.449975290E-1,5.664999783E-2,2.956249937E-2,3.066249937E-2
2.475346080E-1,5.664999783E-2,2.956249937E-2,3.066249937E-2
2.500719920E-1,4.826249927E-2,-3.052499890E-2,3.093750030E-2
2.526093770E-1,4.826249927E-2,-3.052499890E-2,3.093750030E-2
2.551471070E-1,4.826249927E-2,-3.052499890E-2,3.093750030E-2
2.576848380E-1,4.826249927E-2,-3.052499890E-2,3.093750030E-2
2.602226460E-1,4.826249927E-2,-3.052499890E-2,3.093750030E-2
2.627604530E-1,4.826249927E-2,-3.052499890E-2,3.093750030E-2
2.652983370E-1,4.427500069E-2,-1.225124970E-1,3.684999794E-2
2.678362220E-1,4.427500069E-2,-1.225124970E-1,3.684999794E-2
2.703734520E-1,4.427500069E-2,-1.225124970E-1,3.684999794E-2
2.729106850E-1,4.427500069E-2,-1.225124970E-1,3.684999794E-2
2.754481890E-1,4.427500069E-2,-1.225124970E-1,3.684999794E-2
2.779857280E-1,4.427500069E-2,-1.225124970E-1,3.684999794E-2
2.805229570E-1,4.427500069E-2,-1.225124970E-1,3.684999794E-2
2.830601880E-1,4.427500069E-2,-1.225124970E-1,3.684999794E-2
2.855967800E-1,4.289999977E-2,-1.911250055E-1,4.303750023E-2
2.881333950E-1,4.289999977E-2,-1.911250055E-1,4.303750023E-2
2.906704350E-1,4.289999977E-2,-1.911250055E-1,4.303750023E-2
2.932074720E-1,4.289999977E-2,-1.911250055E-1,4.303750023E-2
2.957447460E-1,4.289999977E-2,-1.911250055E-1,4.303750023E-2
2.982820170E-1,4.289999977E-2,-1.911250055E-1,4.303750023E-2
3.008187840E-1,4.289999977E-2,-1.911250055E-1,4.303750023E-2
3.033555550E-1,4.289999977E-2,-1.911250055E-1,4.303750023E-2
3.058925650E-1,4.138749838E-2,-2.004749924E-1,4.358749837E-2
3.084296020E-1,4.138749838E-2,-2.004749924E-1,4.358749837E-2
3.109659470E-1,4.138749838E-2,-2.004749924E-1,4.358749837E-2
3.135022940E-1,4.138749838E-2,-2.004749924E-1,4.358749837E-2
3.160392130E-1,4.138749838E-2,-2.004749924E-1,4.358749837E-2
3.185761360E-1,4.138749838E-2,-2.004749924E-1,4.358749837E-2
3.211136730E-1,4.138749838E-2,-2.004749924E-1,4.358749837E-2
3.236512120E-1,4.138749838E-2,-2.004749924E-1,4.358749837E-2
3.261885580E-1,3.891250119E-2,-1.856250018E-1,4.111250117E-2
3.287259050E-1,3.891250119E-2,-1.856250018E-1,4.111250117E-2
3.312630120E-1,3.891250119E-2,-1.856250018E-1,4.111250117E-2
3.338001270E-1,3.891250119E-2,-1.856250018E-1,4.111250117E-2
3.363367420E-1,3.891250119E-2,-1.856250018E-1,4.111250117E-2
3.388733570E-1,3.891250119E-2,-1.856250018E-1,4.111250117E-2
3.414096800E-1,3.891250119E-2,-1.856250018E-1,4.111250117E-2
3.439459870E-1,3.891250119E-2,-1.856250018E-1,4.111250117E-2
3.464828730E-1,3.767500073E-2,-1.729750037E-1,3.932499886E-2
3.490197560E-1,3.767500073E-2,-1.729750037E-1,3.932499886E-2
3.515564100E-1,3.767500073E-2,-1.729750037E-1,3.932499886E-2
3.540930650E-1,3.767500073E-2,-1.729750037E-1,3.932499886E-2
3.566296800E-1,3.767500073E-2,-1.729750037E-1,3.932499886E-2
3.591662950E-1,3.767500073E-2,-1.729750037E-1,3.932499886E-2
3.617027510E-1,3.767500073E-2,-1.729750037E-1,3.932499886E-2
3.642392140E-1,3.767500073E-2,-1.729750037E-1,3.932499886E-2
3.667749060E-1,3.877500072E-2,-1.504250020E-1,3.795000166E-2
3.693105970E-1,3.877500072E-2,-1.504250020E-1,3.795000166E-2
3.718470460E-1,3.877500072E-2,-1.504250020E-1,3.795000166E-2
3.743835070E-1,3.877500072E-2,-1.504250020E-1,3.795000166E-2
3.769194670E-1,3.877500072E-2,-1.504250020E-1,3.795000166E-2
3.794554300E-1,3.877500072E-2,-1.504250020E-1,3.795000166E-2
3.819917430E-1,3.877500072E-2,-1.504250020E-1,3.795000166E-2
3.845280880E-1,3.877500072E-2,-1.504250020E-1,3.795000166E-2
3.870649720E-1,4.015000165E-2,-1.119249985E-1,3.519999981E-2
3.896018570E-1,4.015000165E-2,-1.119249985E-1,3.519999981E-2
3.921389620E-1,4.015000165E-2,-1.119249985E-1,3.519999981E-2
3.946760790E-1,4.015000165E-2,-1.119249985E-1,3.519999981E-2
3.972134630E-1,4.015000165E-2,-1.119249985E-1,3.519999981E-2
3.997508480E-1,4.015000165E-2,-1.119249985E-1,3.519999981E-2
4.022883520E-1,4.015000165E-2,-1.119249985E-1,3.519999981E-2
4.048258530E-1,4.015000165E-2,-1.119249985E-1,3.519999981E-2
4.073628130E-1,3.932499886E-2,-8.635000139E-2,3.244999796E-2
4.098997760E-1,3.932499886E-2,-8.635000139E-2,3.244999796E-2
4.124374550E-1,3.932499886E-2,-8.635000139E-2,3.244999796E-2
4.149751460E-1,3.932499886E-2,-8.635000139E-2,3.244999796E-2
4.175114140E-1,3.932499886E-2,-8.635000139E-2,3.244999796E-2
4.200476850E-1,3.932499886E-2,-8.635000139E-2,3.244999796E-2
4.225842040E-1,3.932499886E-2,-8.635000139E-2,3.244999796E-2
4.251207030E-1,3.932499886E-2,-8.635000139E-2,3.244999796E-2
4.276571260E-1,3.464999795E-2,-7.603749633E-2,2.873750031E-2
4.301935490E-1,3.464999795E-2,-7.603749633E-2,2.873750031E-2
4.327293530E-1,3.464999795E-2,-7.603749633E-2,2.873750031E-2
4.352652000E-1,3.464999795E-2,-7.603749633E-2,2.873750031E-2
4.378020080E-1,3.464999795E-2,-7.603749633E-2,2.873750031E-2
4.403388150E-1,3.464999795E-2,-7.603749633E-2,2.873750031E-2
4.428754240E-1,3.464999795E-2,-7.603749633E-2,2.873750031E-2
4.454120410E-1,3.464999795E-2,-7.603749633E-2,2.873750031E-2
4.479489640E-1,2.708750032E-2,-5.816249922E-2,2.309999987E-2
4.504858870E-1,2.708750032E-2,-5.816249922E-2,2.309999987E-2
4.530230980E-1,2.708750032E-2,-5.816249922E-2,2.309999987E-2
4.555602910E-1,2.708750032E-2,-5.816249922E-2,2.309999987E-2
4.580969040E-1,2.708750032E-2,-5.816249922E-2,2.309999987E-2
4.606335210E-1,2.708750032E-2,-5.816249922E-2,2.309999987E-2
4.631707860E-1,2.708750032E-2,-5.816249922E-2,2.309999987E-2
4.657080550E-1,2.708750032E-2,-5.816249922E-2,2.309999987E-2
4.682449760E-1,2.268750034E-2,-5.953750014E-2,2.103750035E-2
4.707819010E-1,2.268750034E-2,-5.953750014E-2,2.103750035E-2
4.733188240E-1,2.268750034E-2,-5.953750014E-2,2.103750035E-2
4.758557470E-1,2.268750034E-2,-5.953750014E-2,2.103750035E-2
4.783923620E-1,2.268750034E-2,-5.953750014E-2,2.103750035E-2
4.809289770E-1,2.268750034E-2,-5.953750014E-2,2.103750035E-2
4.834660260E-1,2.268750034E-2,-5.953750014E-2,2.103750035E-2
4.860031030E-1,2.268750034E-2,-5.953750014E-2,2.103750035E-2
4.885401410E-1,2.021249942E-2,-6.668750197E-2,2.076249942E-2
4.910771800E-1,2.021249942E-2,-6.668750197E-2,2.076249942E-2
4.936138330E-1,2.021249942E-2,-6.668750197E-2,2.076249942E-2
4.961504860E-1,2.021249942E-2,-6.668750197E-2,2.076249942E-2
4.986886420E-1,2.021249942E-2,-6.668750197E-2,2.076249942E-2
5.012267950E-1,2.021249942E-2,-6.668750197E-2,2.076249942E-2
5.037637070E-1,2.021249942E-2,-6.668750197E-2,2.076249942E-2
5.063006320E-1,2.021249942E-2,-6.668750197E-2,2.076249942E-2
5.088370930E-1,1.801249944E-2,-6.792499870E-2,1.993750036E-2
5.113735540E-1,1.801249944E-2,-6.792499870E-2,1.993750036E-2
5.139103200E-1,1.801249944E-2,-6.792499870E-2,1.993750036E-2
5.164470890E-1,1.801249944E-2,-6.792499870E-2,1.993750036E-2
5.189840110E-1,1.801249944E-2,-6.792499870E-2,1.993750036E-2
5.215209340E-1,1.801249944E-2,-6.792499870E-2,1.993750036E-2
5.240579720E-1,1.801249944E-2,-6.792499870E-2,1.993750036E-2
5.265950110E-1,1.801249944E-2,-6.792499870E-2,1.993750036E-2
5.291310100E-1,1.361249946E-2,-1.659625024E-1,2.749999985E-2
5.316670110E-1,1.361249946E-2,-1.659625024E-1,2.749999985E-2
5.342033000E-1,1.361249946E-2,-1.659625024E-1,2.749999985E-2
5.367396070E-1,1.361249946E-2,-1.659625024E-1,2.749999985E-2
5.392763760E-1,1.361249946E-2,-1.659625024E-1,2.749999985E-2
5.418131470E-1,1.361249946E-2,-1.659625024E-1,2.749999985E-2
5.443498190E-1,1.361249946E-2,-1.659625024E-1,2.749999985E-2
5.468864740E-1,1.361249946E-2,-1.659625024E-1,2.749999985E-2
5.494227810E-1,9.212499484E-3,-2.543750107E-1,3.464999795E-2
5.519590880E-1,9.212499484E-3,-2.543750107E-1,3.464999795E-2
5.544949390E-1,9.212499484E-3,-2.543750107E-1,3.464999795E-2
5.570307860E-1,9.212499484E-3,-2.543750107E-1,3.464999795E-2
5.595678630E-1,9.212499484E-3,-2.543750107E-1,3.464999795E-2
5.621049400E-1,9.212499484E-3,-2.543750107E-1,3.464999795E-2
5.646423190E-1,9.212499484E-3,-2.543750107E-1,3.464999795E-2
5.671797040E-1,9.212499484E-3,-2.543750107E-1,3.464999795E-2
5.697167790E-1,1.003750041E-2,-3.063499928E-1,4.152499884E-2
5.722538580E-1,1.003750041E-2,-3.063499928E-1,4.152499884E-2
5.747906220E-1,1.003750041E-2,-3.063499928E-1,4.152499884E-2
5.773273910E-1,1.003750041E-2,-3.063499928E-1,4.152499884E-2
5.798636990E-1,1.003750041E-2,-3.063499928E-1,4.152499884E-2
5.824000060E-1,1.003750041E-2,-3.063499928E-1,4.152499884E-2
5.849359830E-1,1.003750041E-2,-3.063499928E-1,4.152499884E-2
5.874719440E-1,1.003750041E-2,-3.063499928E-1,4.152499884E-2
5.900082530E-1,1.086249948E-2,-3.620375097E-1,4.922499880E-2
5.925445600E-1,1.086249948E-2,-3.620375097E-1,4.922499880E-2
5.950809280E-1,1.086249948E-2,-3.620375097E-1,4.922499880E-2
5.976172750E-1,1.086249948E-2,-3.620375097E-1,4.922499880E-2
6.001552760E-1,1.086249948E-2,-3.620375097E-1,4.922499880E-2
6.026932750E-1,1.086249948E-2,-3.620375097E-1,4.922499880E-2
6.052301640E-1,1.058750041E-2,-3.991625011E-1,5.431250110E-2
6.077670490E-1,1.058750041E-2,-3.991625011E-1,5.431250110E-2
6.103045890E-1,1.058750041E-2,-3.991625011E-1,5.431250110E-2
6.128421260E-1,1.058750041E-2,-3.991625011E-1,5.431250110E-2
6.153790340E-1,1.058750041E-2,-3.991625011E-1,5.431250110E-2
6.179159590E-1,1.058750041E-2,-3.991625011E-1,5.431250110E-2
6.204530360E-1,1.058750041E-2,-3.991625011E-1,5.431250110E-2
6.229901130E-1,1.058750041E-2,-3.991625011E-1,5.431250110E-2
6.255270350E-1,9.762499481E-3,-3.810124993E-1,5.238749832E-2
6.280639580E-1,9.762499481E-3,-3.810124993E-1,5.238749832E-2
6.306012280E-1,9.762499481E-3,-3.810124993E-1,5.238749832E-2
6.331384970E-1,9.762499481E-3,-3.810124993E-1,5.238749832E-2
6.356755350E-1,9.762499481E-3,-3.810124993E-1,5.238749832E-2
6.382125740E-1,9.762499481E-3,-3.810124993E-1,5.238749832E-2
6.407498440E-1,9.762499481E-3,-3.810124993E-1,5.238749832E-2
6.432871130E-1,9.762499481E-3,-3.810124993E-1,5.238749832E-2
6.458246120E-1,7.837500423E-3,-3.338499963E-1,4.661250114E-2
6.483621130E-1,7.837500423E-3,-3.338499963E-1,4.661250114E-2
6.508990490E-1,7.837500423E-3,-3.338499963E-1,4.661250114E-2
6.534359720E-1,7.837500423E-3,-3.338499963E-1,4.661250114E-2
6.559730500E-1,7.837500423E-3,-3.338499963E-1,4.661250114E-2
6.585101270E-1,7.837500423E-3,-3.338499963E-1,4.661250114E-2
6.610472410E-1,7.837500423E-3,-3.338499963E-1,4.661250114E-2
6.635843580E-1,7.837500423E-3,-3.338499963E-1,4.661250114E-2
6.661214340E-1,7.149999961E-3,-2.761000097E-1,4.042499885E-2
6.686585110E-1,7.149999961E-3,-2.761000097E-1,4.042499885E-2
6.711955410E-1,7.149999961E-3,-2.761000097E-1,4.042499885E-2
6.737325800E-1,7.149999961E-3,-2.761000097E-1,4.042499885E-2
6.762705800E-1,7.149999961E-3,-2.761000097E-1,4.042499885E-2
6.788085790E-1,7.149999961E-3,-2.761000097E-1,4.042499885E-2
6.813457940E-1,7.149999961E-3,-2.761000097E-1,4.042499885E-2
6.838830250E-1,7.149999961E-3,-2.761000097E-1,4.042499885E-2
6.864201030E-1,6.874999963E-3,-2.299000025E-1,3.616249934E-2
6.889571800E-1,6.874999963E-3,-2.299000025E-1,3.616249934E-2
6.914941130E-1,6.874999963E-3,-2.299000025E-1,3.616249934E-2
6.940310360E-1,6.874999963E-3,-2.299000025E-1,3.616249934E-2
6.965687670E-1,6.874999963E-3,-2.299000025E-1,3.616249934E-2
6.991064980E-1,6.874999963E-3,-2.299000025E-1,3.616249934E-2
7.016430730E-1,6.874999963E-3,-2.299000025E-1,3.616249934E-2
7.041796520E-1,6.874999963E-3,-2.299000025E-1,3.616249934E-2
7.067165750E-1,8.387500420E-3,-2.033624947E-1,3.575000167E-2
7.092534980E-1,8.387500420E-3,-2.033624947E-1,3.575000167E-2
7.117909250E-1,8.387500420E-3,-2.033624947E-1,3.575000167E-2
7.143283480E-1,8.387500420E-3,-2.033624947E-1,3.575000167E-2
7.168655780E-1,8.387500420E-3,-2.033624947E-1,3.575000167E-2
7.194028110E-1,8.387500420E-3,-2.033624947E-1,3.575000167E-2
7.219398730E-1,8.387500420E-3,-2.033624947E-1,3.575000167E-2
7.244769500E-1,8.387500420E-3,-2.033624947E-1,3.575000167E-2
7.270138340E-1,1.072499994E-2,-1.460250020E-1,3.231250122E-2
7.295507190E-1,1.072499994E-2,-1.460250020E-1,3.231250122E-2
7.320873000E-1,1.072499994E-2,-1.460250020E-1,3.231250122E-2
7.346239150E-1,1.072499994E-2,-1.460250020E-1,3.231250122E-2
7.371610310E-1,1.072499994E-2,-1.460250020E-1,3.231250122E-2
7.396981460E-1,1.072499994E-2,-1.460250020E-1,3.231250122E-2
7.422359970E-1,1.072499994E-2,-1.460250020E-1,3.231250122E-2
7.447738440E-1,1.072499994E-2,-1.460250020E-1,3.231250122E-2
7.473113430E-1,1.374999993E-2,-6.462500244E-2,2.626249939E-2
7.498488440E-1,1.374999993E-2,-6.462500244E-2,2.626249939E-2
7.523851170E-1,1.374999993E-2,-6.462500244E-2,2.626249939E-2
7.549214240E-1,1.374999993E-2,-6.462500244E-2,2.626249939E-2
7.574574630E-1,1.374999993E-2,-6.462500244E-2,2.626249939E-2
7.599935020E-1,1.374999993E-2,-6.462500244E-2,2.626249939E-2
7.625296660E-1,1.374999993E-2,-6.462500244E-2,2.626249939E-2
7.650658190E-1,1.374999993E-2,-6.462500244E-2,2.626249939E-2
7.676022800E-1,3.726249933E-2,-6.132499874E-2,4.152499884E-2
7.701387430E-1,3.726249933E-2,-6.132499874E-2,4.152499884E-2
7.726753050E-1,3.726249933E-2,-6.132499874E-2,4.152499884E-2
7.752118820E-1,3.726249933E-2,-6.132499874E-2,4.152499884E-2
7.777478820E-1,3.726249933E-2,-6.132499874E-2,4.152499884E-2
7.802838830E-1,3.726249933E-2,-6.132499874E-2,4.152499884E-2
7.828204830E-1,3.726249933E-2,-6.132499874E-2,4.152499884E-2
7.853570980E-1,3.726249933E-2,-6.132499874E-2,4.152499884E-2
7.878928270E-1,1.663750038E-2,1.567500085E-2,2.241249941E-2
7.904285600E-1,1.663750038E-2,1.567500085E-2,2.241249941E-2
7.929653190E-1,1.663750038E-2,1.567500085E-2,2.241249941E-2
7.955020880E-1,1.663750038E-2,1.567500085E-2,2.241249941E-2
7.980397800E-1,1.663750038E-2,1.567500085E-2,2.241249941E-2
8.005774730E-1,1.663750038E-2,1.567500085E-2,2.241249941E-2
8.031142070E-1,1.663750038E-2,1.567500085E-2,2.241249941E-2
8.056509400E-1,1.663750038E-2,1.567500085E-2,2.241249941E-2
8.081880170E-1,1.443750039E-2,8.689999580E-2,1.292499993E-2
8.107250940E-1,1.443750039E-2,8.689999580E-2,1.292499993E-2
8.132619050E-1,1.443750039E-2,8.689999580E-2,1.292499993E-2
8.157987140E-1,1.443750039E-2,8.689999580E-2,1.292499993E-2
8.183351370E-1,1.443750039E-2,8.689999580E-2,1.292499993E-2
8.208715600E-1,1.443750039E-2,8.689999580E-2,1.292499993E-2
8.234078670E-1,1.443750039E-2,8.689999580E-2,1.292499993E-2
8.259441740E-1,1.443750039E-2,8.689999580E-2,1.292499993E-2
8.284812520E-1,-2.089999989E-2,1.758625060E-1,-1.801249944E-2
8.310183290E-1,-2.089999989E-2,1.758625060E-1,-1.801249944E-2
8.335551020E-1,-2.089999989E-2,1.758625060E-1,-1.801249944E-2
8.360918730E-1,-2.089999989E-2,1.758625060E-1,-1.801249944E-2
8.386285270E-1,-2.089999989E-2,1.758625060E-1,-1.801249944E-2
8.411651800E-1,-2.089999989E-2,1.758625060E-1,-1.801249944E-2
8.437019150E-1,-2.089999989E-2,1.758625060E-1,-1.801249944E-2
8.462386460E-1,-2.089999989E-2,1.758625060E-1,-1.801249944E-2
8.487758760E-1,-9.762500226E-2,4.291374981E-1,-8.346249908E-2
8.513131070E-1,-9.762500226E-2,4.291374981E-1,-8.346249908E-2
8.538500340E-1,-9.762500226E-2,4.291374981E-1,-8.346249908E-2
8.563869970E-1,-9.762500226E-2,4.291374981E-1,-8.346249908E-2
8.589237660E-1,-9.762500226E-2,4.291374981E-1,-8.346249908E-2
8.614605350E-1,-9.762500226E-2,4.291374981E-1,-8.346249908E-2
8.639969960E-1,-9.762500226E-2,4.291374981E-1,-8.346249908E-2
8.665334570E-1,-9.762500226E-2,4.291374981E-1,-8.346249908E-2
8.690708430E-1,-6.599999964E-2,4.564999938E-1,-6.682500243E-2
8.716082260E-1,-6.599999964E-2,4.564999938E-1,-6.682500243E-2
8.741442300E-1,-6.599999964E-2,4.564999938E-1,-6.682500243E-2
8.766802330E-1,-6.599999964E-2,4.564999938E-1,-6.682500243E-2
8.792166560E-1,-6.599999964E-2,4.564999938E-1,-6.682500243E-2
8.817530790E-1,-6.599999964E-2,4.564999938E-1,-6.682500243E-2
8.842898610E-1,-6.599999964E-2,4.564999938E-1,-6.682500243E-2
8.868266300E-1,-6.599999964E-2,4.564999938E-1,-6.682500243E-2
8.893626680E-1,-3.217500076E-2,4.025999904E-1,-1.044999994E-2
8.918987070E-1,-3.217500076E-2,4.025999904E-1,-1.044999994E-2
8.944361210E-1,-3.217500076E-2,4.025999904E-1,-1.044999994E-2
8.969734660E-1,-3.217500076E-2,4.025999904E-1,-1.044999994E-2
8.995110050E-1,-3.217500076E-2,4.025999904E-1,-1.044999994E-2
9.020485440E-1,-3.217500076E-2,4.025999904E-1,-1.044999994E-2
9.045858120E-1,-3.217500076E-2,4.025999904E-1,-1.044999994E-2
9.071230830E-1,-3.217500076E-2,4.025999904E-1,-1.044999994E-2
9.096604290E-1,9.184999764E-2,4.823499918E-1,1.189374998E-1
9.121977740E-1,9.184999764E-2,4.823499918E-1,1.189374998E-1
9.147353510E-1,9.184999764E-2,4.823499918E-1,1.189374998E-1
9.172729280E-1,9.184999764E-2,4.823499918E-1,1.189374998E-1
9.198106210E-1,9.184999764E-2,4.823499918E-1,1.189374998E-1
9.223483140E-1,9.184999764E-2,4.823499918E-1,1.189374998E-1
9.248855240E-1,9.184999764E-2,4.823499918E-1,1.189374998E-1
9.274227550E-1,9.184999764E-2,4.823499918E-1,1.189374998E-1
9.299602560E-1,2.433750033E-2,8.688625097E-1,1.859000027E-1
9.324977550E-1,2.433750033E-2,8.688625097E-1,1.859000027E-1
9.350348840E-1,2.433750033E-2,8.688625097E-1,1.859000027E-1
9.375720010E-1,2.433750033E-2,8.688625097E-1,1.859000027E-1
9.401093850E-1,2.433750033E-2,8.688625097E-1,1.859000027E-1
9.426467700E-1,2.433750033E-2,8.688625097E-1,1.859000027E-1
9.451841680E-1,1.287000030E-1,9.794124961E-1,4.025999904E-1
9.477215530E-1,1.287000030E-1,9.794124961E-1,4.025999904E-1
9.502588990E-1,1.287000030E-1,9.794124961E-1,4.025999904E-1
9.527962460E-1,1.287000030E-1,9.794124961E-1,4.025999904E-1
9.553333810E-1,1.287000030E-1,9.794124961E-1,4.025999904E-1
9.578704960E-1,1.287000030E-1,9.794124961E-1,4.025999904E-1
9.604077270E-1,1.287000030E-1,9.794124961E-1,4.025999904E-1
9.629449580E-1,1.287000030E-1,9.794124961E-1,4.025999904E-1
9.654825010E-1,1.204499975E-1,1.044175029E0,5.860249996E-1
9.680200400E-1,1.204499975E-1,1.044175029E0,5.860249996E-1
9.705572310E-1,1.204499975E-1,1.044175029E0,5.860249996E-1
9.730944240E-1,1.204499975E-1,1.044175029E0,5.860249996E-1
9.756318570E-1,1.204499975E-1,1.044175029E0,5.860249996E-1
9.781692800E-1,1.204499975E-1,1.044175029E0,5.860249996E-1
9.807078560E-1,1.204499975E-1,1.044175029E0,5.860249996E-1
9.832464330E-1,1.204499975E-1,1.044175029E0,5.860249996E-1
9.857842650E-1,8.181250095E-2,1.134649992E0,7.418124676E-1
9.883221120E-1,8.181250095E-2,1.134649992E0,7.418124676E-1
9.908596880E-1,8.181250095E-2,1.134649992E0,7.418124676E-1
9.933972650E-1,8.181250095E-2,1.134649992E0,7.418124676E-1
9.959350390E-1,8.181250095E-2,1.134649992E0,7.418124676E-1
9.984728460E-1,8.181250095E-2,1.134649992E0,7.418124676E-1
1.001010423E0,8.181250095E-2,1.134649992E0,7.418124676E-1
1.003548000E0,8.181250095E-2,1.134649992E0,7.418124676E-1
1.006086155E0,6.971249729E-2,1.084874988E0,9.175375104E-1
1.008624308E0,6.971249729E-2,1.084874988E0,9.175375104E-1
1.011162000E0,6.971249729E-2,1.084874988E0,9.175375104E-1
1.013699693E0,6.971249729E-2,1.084874988E0,9.175375104E-1
1.016237521E0,6.971249729E-2,1.084874988E0,9.175375104E-1
1.018775328E0,6.971249729E-2,1.084874988E0,9.175375104E-1
1.021313328E0,6.971249729E-2,1.084874988E0,9.175375104E-1
1.023851329E0,6.971249729E-2,1.084874988E0,9.175375104E-1
1.026389943E0,1.058750041E-2,1.011450052E0,1.064800024E0
1.028928560E0,1.058750041E-2,1.011450052E0,1.064800024E0
1.031466097E0,1.058750041E-2,1.011450052E0,1.064800024E0
1.034003636E0,1.058750041E-2,1.011450052E0,1.064800024E0
1.036541218E0,1.058750041E-2,1.011450052E0,1.064800024E0
1.039078795E0,1.058750041E-2,1.011450052E0,1.064800024E0
1.041616948E0,1.058750041E-2,1.011450052E0,1.064800024E0
1.044155103E0,1.058750041E-2,1.011450052E0,1.064800024E0
1.046692794E0,-7.851249725E-2,1.204637527E0,1.141387463E0
1.049230487E0,-7.851249725E-2,1.204637527E0,1.141387463E0
1.051768339E0,-7.851249725E-2,1.204637527E0,1.141387463E0
1.054306184E0,-7.851249725E-2,1.204637527E0,1.141387463E0
1.056843376E0,-7.851249725E-2,1.204637527E0,1.141387463E0
1.059380569E0,-7.851249725E-2,1.204637527E0,1.141387463E0
1.061918382E0,-7.851249725E-2,1.204637527E0,1.141387463E0
1.064456227E0,-7.851249725E-2,1.204637527E0,1.141387463E0
1.066994265E0,-1.864500046E-1,1.343924999E0,1.192812443E0
1.069532304E0,-1.864500046E-1,1.343924999E0,1.192812443E0
1.072070438E0,-1.864500046E-1,1.343924999E0,1.192812443E0
1.074608555E0,-1.864500046E-1,1.343924999E0,1.192812443E0
1.077145630E0,-1.864500046E-1,1.343924999E0,1.192812443E0
1.079682709E0,-1.864500046E-1,1.343924999E0,1.192812443E0
1.082220594E0,-1.864500046E-1,1.343924999E0,1.192812443E0
1.084758477E0,-1.864500046E-1,1.343924999E0,1.192812443E0
1.087296785E0,-2.168374956E-1,1.256887436E0,1.335537434E0
1.089835092E0,-2.168374956E-1,1.256887436E0,1.335537434E0
1.092373549E0,-2.168374956E-1,1.256887436E0,1.335537434E0
1.094912012E0,-2.168374956E-1,1.256887436E0,1.335537434E0
1.097450126E0,-2.168374956E-1,1.256887436E0,1.335537434E0
1.099988243E0,-2.168374956E-1,1.256887436E0,1.335537434E0
1.102526112E0,-2.168374956E-1,1.256887436E0,1.335537434E0
1.105063997E0,-2.168374956E-1,1.256887436E0,1.335537434E0
1.107602305E0,-1.817750037E-1,1.108250022E0,1.583724976E0
1.110140612E0,-1.817750037E-1,1.108250022E0,1.583724976E0
1.112678260E0,-1.817750037E-1,1.108250022E0,1.583724976E0
1.115215915E0,-1.817750037E-1,1.108250022E0,1.583724976E0
1.117754107E0,-1.817750037E-1,1.108250022E0,1.583724976E0
1.120292300E0,-1.817750037E-1,1.108250022E0,1.583724976E0
1.122831079E0,-1.817750037E-1,1.108250022E0,1.583724976E0
1.125369848E0,-1.817750037E-1,1.108250022E0,1.583724976E0
1.127907847E0,-1.526249945E-1,7.715125084E-1,1.952499986E0
1.130445848E0,-1.526249945E-1,7.715125084E-1,1.952499986E0
1.132983825E0,-1.526249945E-1,7.715125084E-1,1.952499986E0
1.135521824E0,-1.526249945E-1,7.715125084E-1,1.952499986E0
1.138059324E0,-1.526249945E-1,7.715125084E-1,1.952499986E0
1.140596825E0,-1.526249945E-1,7.715125084E-1,1.952499986E0
1.143134055E0,-1.526249945E-1,7.715125084E-1,1.952499986E0
1.145671286E0,-1.526249945E-1,7.715125084E-1,1.952499986E0
1.148209286E0,-4.922499880E-2,1.794375032E-1,2.688674927E0
1.150747285E0,-4.922499880E-2,1.794375032E-1,2.688674927E0
1.153285612E0,-4.922499880E-2,1.794375032E-1,2.688674927E0
1.155823921E0,-4.922499880E-2,1.794375032E-1,2.688674927E0
1.158361496E0,-4.922499880E-2,1.794375032E-1,2.688674927E0
1.160899073E0,-4.922499880E-2,1.794375032E-1,2.688674927E0
1.163436804E0,-4.922499880E-2,1.794375032E-1,2.688674927E0
1.165974497E0,-4.922499880E-2,1.794375032E-1,2.688674927E0
1.168512034E0,5.431250110E-2,-2.776125073E-1,3.600849867E0
1.171049573E0,5.431250110E-2,-2.776125073E-1,3.600849867E0
1.173586820E0,5.431250110E-2,-2.776125073E-1,3.600849867E0
1.176124051E0,5.431250110E-2,-2.776125073E-1,3.600849867E0
1.178661397E0,5.431250110E-2,-2.776125073E-1,3.600849867E0
1.181198742E0,5.431250110E-2,-2.776125073E-1,3.600849867E0
1.183735977E0,5.431250110E-2,-2.776125073E-1,3.600849867E0
1.186273208E0,5.431250110E-2,-2.776125073E-1,3.600849867E0
1.188810786E0,4.098874927E-1,-5.381749868E-1,4.802324772E0
1.191348363E0,4.098874927E-1,-5.381749868E-1,4.802324772E0
1.193886323E0,4.098874927E-1,-5.381749868E-1,4.802324772E0
1.196424286E0,4.098874927E-1,-5.381749868E-1,4.802324772E0
1.198961400E0,4.098874927E-1,-5.381749868E-1,4.802324772E0
1.201498517E0,4.098874927E-1,-5.381749868E-1,4.802324772E0
1.204036040E0,4.098874927E-1,-5.381749868E-1,4.802324772E0
1.206573579E0,4.098874927E-1,-5.381749868E-1,4.802324772E0
1.209110501E0,6.708624959E-1,-6.384124756E-1,5.826699734E0
1.211647424E0,6.708624959E-1,-6.384124756E-1,5.826699734E0
1.214184304E0,6.708624959E-1,-6.384124756E-1,5.826699734E0
1.216721189E0,6.708624959E-1,-6.384124756E-1,5.826699734E0
1.219257843E0,6.708624959E-1,-6.384124756E-1,5.826699734E0
1.221794496E0,6.708624959E-1,-6.384124756E-1,5.826699734E0
1.224331743E0,6.708624959E-1,-6.384124756E-1,5.826699734E0
1.226868974E0,6.708624959E-1,-6.384124756E-1,5.826699734E0
1.229406319E0,3.924250007E-1,-5.361124873E-1,6.224625111E0
1.231943666E0,3.924250007E-1,-5.361124873E-1,6.224625111E0
1.234481487E0,3.924250007E-1,-5.361124873E-1,6.224625111E0
1.237019334E0,3.924250007E-1,-5.361124873E-1,6.224625111E0
1.239557025E0,3.924250007E-1,-5.361124873E-1,6.224625111E0
1.242094718E0,3.924250007E-1,-5.361124873E-1,6.224625111E0
1.244632757E0,3.924250007E-1,-5.361124873E-1,6.224625111E0
1.247170796E0,3.924250007E-1,-5.361124873E-1,6.224625111E0
1.249708602E0,2.043250054E-1,-2.881999910E-1,5.672012329E0
1.252246411E0,2.043250054E-1,-2.881999910E-1,5.672012329E0
1.254783555E0,2.043250054E-1,-2.881999910E-1,5.672012329E0
1.257320670E0,2.043250054E-1,-2.881999910E-1,5.672012329E0
1.259858825E0,2.043250054E-1,-2.881999910E-1,5.672012329E0
1.262396978E0,2.043250054E-1,-2.881999910E-1,5.672012329E0
1.264934997E0,2.043250054E-1,-2.881999910E-1,5.672012329E0
1.267472998E0,2.043250054E-1,-2.881999910E-1,5.672012329E0
1.270011267E0,-1.663750038E-2,-2.494249940E-1,4.206812382E0
1.272549536E0,-1.663750038E-2,-2.494249940E-1,4.206812382E0
1.275088198E0,-1.663750038E-2,-2.494249940E-1,4.206812382E0
1.277626853E0,-1.663750038E-2,-2.494249940E-1,4.206812382E0
1.280165159E0,-1.663750038E-2,-2.494249940E-1,4.206812382E0
1.282703468E0,-1.663750038E-2,-2.494249940E-1,4.206812382E0
1.285240852E0,-8.978749812E-2,-6.132499874E-2,2.828924894E0
1.287778237E0,-8.978749812E-2,-6.132499874E-2,2.828924894E0
1.290316700E0,-8.978749812E-2,-6.132499874E-2,2.828924894E0
1.292855161E0,-8.978749812E-2,-6.132499874E-2,2.828924894E0
1.295392996E0,-8.978749812E-2,-6.132499874E-2,2.828924894E0
1.297930805E0,-8.978749812E-2,-6.132499874E-2,2.828924894E0
1.300468536E0,-8.978749812E-2,-6.132499874E-2,2.828924894E0
1.303006267E0,-8.978749812E-2,-6.132499874E-2,2.828924894E0
1.305544074E0,-6.324999966E-3,1.644500047E-1,2.252662420E0
1.308081881E0,-6.324999966E-3,1.644500047E-1,2.252662420E0
1.310619573E0,-6.324999966E-3,1.644500047E-1,2.252662420E0
1.313157266E0,-6.324999966E-3,1.644500047E-1,2.252662420E0
1.315695762E0,-6.324999966E-3,1.644500047E-1,2.252662420E0
1.318234261E0,-6.324999966E-3,1.644500047E-1,2.252662420E0
1.320772838E0,-6.324999966E-3,1.644500047E-1,2.252662420E0
1.323311415E0,-6.324999966E-3,1.644500047E-1,2.252662420E0
1.325849910E0,1.086250022E-1,2.536875010E-1,1.931187510E0
1.328388411E0,1.086250022E-1,2.536875010E-1,1.931187510E0
1.330926834E0,1.086250022E-1,2.536875010E-1,1.931187510E0
1.333465257E0,1.086250022E-1,2.536875010E-1,1.931187510E0
1.336003295E0,1.086250022E-1,2.536875010E-1,1.931187510E0
1.338541334E0,1.086250022E-1,2.536875010E-1,1.931187510E0
1.341079641E0,1.086250022E-1,2.536875010E-1,1.931187510E0
1.343617948E0,1.086250022E-1,2.536875010E-1,1.931187510E0
1.346156669E0,5.087500066E-2,4.609000087E-1,1.473724961E0
1.348695400E0,5.087500066E-2,4.609000087E-1,1.473724961E0
1.351233245E0,5.087500066E-2,4.609000087E-1,1.473724961E0
1.353771092E0,5.087500066E-2,4.609000087E-1,1.473724961E0
1.356308934E0,5.087500066E-2,4.609000087E-1,1.473724961E0
1.358846779E0,5.087500066E-2,4.609000087E-1,1.473724961E0
1.361385280E0,5.087500066E-2,4.609000087E-1,1.473724961E0
1.363923779E0,5.087500066E-2,4.609000087E-1,1.473724961E0
1.366462524E0,3.038750030E-2,6.080250144E-1,1.130249977E0
1.369001255E0,3.038750030E-2,6.080250144E-1,1.130249977E0
1.371539909E0,3.038750030E-2,6.080250144E-1,1.130249977E0
1.374078564E0,3.038750030E-2,6.080250144E-1,1.130249977E0
1.376616703E0,3.038750030E-2,6.080250144E-1,1.130249977E0
1.379154856E0,3.038750030E-2,6.080250144E-1,1.130249977E0
1.381694049E0,3.038750030E-2,6.080250144E-1,1.130249977E0
1.384233242E0,3.038750030E-2,6.080250144E-1,1.130249977E0
1.386771841E0,2.751374841E-1,6.118749976E-1,1.117874980E0
1.389310458E0,2.751374841E-1,6.118749976E-1,1.117874980E0
1.391848803E0,2.751374841E-1,6.118749976E-1,1.117874980E0
1.394387150E0,2.751374841E-1,6.118749976E-1,1.117874980E0
1.396924962E0,2.751374841E-1,6.118749976E-1,1.117874980E0
1.399462769E0,2.751374841E-1,6.118749976E-1,1.117874980E0
1.402000616E0,2.751374841E-1,6.118749976E-1,1.117874980E0
1.404538463E0,2.751374841E-1,6.118749976E-1,1.117874980E0
1.407076015E0,6.345624924E-1,6.175125241E-1,1.186900020E0
1.409613554E0,6.345624924E-1,6.175125241E-1,1.186900020E0
1.412152170E0,6.345624924E-1,6.175125241E-1,1.186900020E0
1.414690785E0,6.345624924E-1,6.175125241E-1,1.186900020E0
1.417229082E0,6.345624924E-1,6.175125241E-1,1.186900020E0
1.419767391E0,6.345624924E-1,6.175125241E-1,1.186900020E0
1.422305852E0,6.345624924E-1,6.175125241E-1,1.186900020E0
1.424844313E0,6.345624924E-1,6.175125241E-1,1.186900020E0
1.427383111E0,1.038125038E0,4.017750025E-1,1.612049937E0
1.429921880E0,1.038125038E0,4.017750025E-1,1.612049937E0
1.432459764E0,1.038125038E0,4.017750025E-1,1.612049937E0
1.434997651E0,1.038125038E0,4.017750025E-1,1.612049937E0
1.437535939E0,1.038125038E0,4.017750025E-1,1.612049937E0
1.440074208E0,1.038125038E0,4.017750025E-1,1.612049937E0
1.442611937E0,1.038125038E0,4.017750025E-1,1.612049937E0
1.445149670E0,1.038125038E0,4.017750025E-1,1.612049937E0
1.447687362E0,1.309412479E0,2.597374916E-1,1.931462526E0
1.450225053E0,1.309412479E0,2.597374916E-1,1.931462526E0
1.452763775E0,1.309412479E0,2.597374916E-1,1.931462526E0
1.455302506E0,1.309412479E0,2.597374916E-1,1.931462526E0
1.457841274E0,1.309412479E0,2.597374916E-1,1.931462526E0
1.460380043E0,1.309412479E0,2.597374916E-1,1.931462526E0
1.462918067E0,1.309412479E0,2.597374916E-1,1.931462526E0
1.465456106E0,1.309412479E0,2.597374916E-1,1.931462526E0
1.467994877E0,1.565162539E0,4.375250041E-1,1.981925011E0
1.470533646E0,1.565162539E0,4.375250041E-1,1.981925011E0
1.473071754E0,1.565162539E0,4.375250041E-1,1.981925011E0
1.475609871E0,1.565162539E0,4.375250041E-1,1.981925011E0
1.478147601E0,1.565162539E0,4.375250041E-1,1.981925011E0
1.480685332E0,1.565162539E0,4.375250041E-1,1.981925011E0
1.483223006E0,1.565162539E0,4.375250041E-1,1.981925011E0
1.485760659E0,1.565162539E0,4.375250041E-1,1.981925011E0
1.488298506E0,1.933799982E0,6.422625184E-1,2.072812557E0
1.490836351E0,1.933799982E0,6.422625184E-1,2.072812557E0
1.493373312E0,1.933799982E0,6.422625184E-1,2.072812557E0
1.495910275E0,1.933799982E0,6.422625184E-1,2.072812557E0
1.498447314E0,1.933799982E0,6.422625184E-1,2.072812557E0
1.500984351E0,1.933799982E0,6.422625184E-1,2.072812557E0
1.503522063E0,1.933799982E0,6.422625184E-1,2.072812557E0
1.506059794E0,1.933799982E0,6.422625184E-1,2.072812557E0
1.508597447E0,2.514462471E0,9.893124700E-1,2.285249949E0
1.511135102E0,2.514462471E0,9.893124700E-1,2.285249949E0
1.513673289E0,2.514462471E0,9.893124700E-1,2.285249949E0
1.516211482E0,2.514462471E0,9.893124700E-1,2.285249949E0
1.518750520E0,2.514462471E0,9.893124700E-1,2.285249949E0
1.521289559E0,2.514462471E0,9.893124700E-1,2.285249949E0
1.523827716E0,2.514462471E0,9.893124700E-1,2.285249949E0
1.526365871E0,2.514462471E0,9.893124700E-1,2.285249949E0
1.528904834E0,3.392950058E0,1.576849937E0,2.538525105E0
1.531443795E0,3.392950058E0,1.576849937E0,2.538525105E0
1.533982207E0,3.392950058E0,1.576849937E0,2.538525105E0
1.536520630E0,3.392950058E0,1.576849937E0,2.538525105E0
1.539058515E0,3.392950058E0,1.576849937E0,2.538525105E0
1.541596400E0,3.392950058E0,1.576849937E0,2.538525105E0
1.544134669E0,3.392950058E0,1.576849937E0,2.538525105E0
1.546672976E0,3.392950058E0,1.576849937E0,2.538525105E0
1.549210514E0,4.185087681E0,2.537012577E0,2.516112566E0
1.551748053E0,4.185087681E0,2.537012577E0,2.516112566E0
1.554286790E0,4.185087681E0,2.537012577E0,2.516112566E0
1.556825521E0,4.185087681E0,2.537012577E0,2.516112566E0
1.559363212E0,4.185087681E0,2.537012577E0,2.516112566E0
1.561900905E0,4.185087681E0,2.537012577E0,2.516112566E0
1.564439098E0,4.185087681E0,2.537012577E0,2.516112566E0
1.566977289E0,4.185087681E0,2.537012577E0,2.516112566E0
1.569515751E0,3.974162579E0,3.388137579E0,2.639999866E0
1.572054212E0,3.974162579E0,3.388137579E0,2.639999866E0
1.574592312E0,3.974162579E0,3.388137579E0,2.639999866E0
1.577130429E0,3.974162579E0,3.388137579E0,2.639999866E0
1.579668583E0,3.974162579E0,3.388137579E0,2.639999866E0
1.582206736E0,3.974162579E0,3.388137579E0,2.639999866E0
1.584745823E0,3.974162579E0,3.388137579E0,2.639999866E0
1.587284900E0,3.974162579E0,3.388137579E0,2.639999866E0
1.589822438E0,3.707962513E0,4.350500107E0,2.243999958E0
1.592359977E0,3.707962513E0,4.350500107E0,2.243999958E0
1.594898713E0,3.707962513E0,4.350500107E0,2.243999958E0
1.597437482E0,3.707962513E0,4.350500107E0,2.243999958E0
1.599975673E0,3.707962513E0,4.350500107E0,2.243999958E0
1.602513866E0,3.707962513E0,4.350500107E0,2.243999958E0
1.605052607E0,3.707962513E0,4.350500107E0,2.243999958E0
1.607591376E0,3.707962513E0,4.350500107E0,2.243999958E0
1.610129798E0,2.779150009E0,5.005274773E0,1.889662504E0
1.612668221E0,2.779150009E0,5.005274773E0,1.889662504E0
1.615205928E0,2.779150009E0,5.005274773E0,1.889662504E0
1.617743659E0,2.779150009E0,5.005274773E0,1.889662504E0
1.620280852E0,2.779150009E0,5.005274773E0,1.889662504E0
1.622818045E0,2.779150009E0,5.005274773E0,1.889662504E0
1.625354968E0,2.145824909E0,4.960862637E0,1.778562546E0
1.627891891E0,2.145824909E0,4.960862637E0,1.778562546E0
1.630429006E0,2.145824909E0,4.960862637E0,1.778562546E0
1.632966121E0,2.145824909E0,4.960862637E0,1.778562546E0
1.635503596E0,2.145824909E0,4.960862637E0,1.778562546E0
1.638041097E0,2.145824909E0,4.960862637E0,1.778562546E0
1.640578942E0,2.145824909E0,4.960862637E0,1.778562546E0
1.643116789E0,2.145824909E0,4.960862637E0,1.778562546E0
1.645655712E0,1.442374945E0,4.810024738E0,1.825862527E0
1.648194635E0,1.442374945E0,4.810024738E0,1.825862527E0
1.650733271E0,1.442374945E0,4.810024738E0,1.825862527E0
1.653271926E0,1.442374945E0,4.810024738E0,1.825862527E0
1.655810079E0,1.442374945E0,4.810024738E0,1.825862527E0
1.658348232E0,1.442374945E0,4.810024738E0,1.825862527E0
1.660886329E0,1.442374945E0,4.810024738E0,1.825862527E0
1.663424444E0,1.442374945E0,4.810024738E0,1.825862527E0
1.665961675E0,6.338750124E-1,4.544787407E0,1.788324952E0
1.668498906E0,6.338750124E-1,4.544787407E0,1.788324952E0
1.671035984E0,6.338750124E-1,4.544787407E0,1.788324952E0
1.673573061E0,6.338750124E-1,4.544787407E0,1.788324952E0
1.676109714E0,6.338750124E-1,4.544787407E0,1.788324952E0
1.678646367E0,6.338750124E-1,4.544787407E0,1.788324952E0
1.681183931E0,6.338750124E-1,4.544787407E0,1.788324952E0
1.683721468E0,6.338750124E-1,4.544787407E0,1.788324952E0
1.686260392E0,-2.056999952E-1,4.284087658E0,1.912762523E0
1.688799315E0,-2.056999952E-1,4.284087658E0,1.912762523E0
1.691337125E0,-2.056999952E-1,4.284087658E0,1.912762523E0
1.693874934E0,-2.056999952E-1,4.284087658E0,1.912762523E0
1.696413435E0,-2.056999952E-1,4.284087658E0,1.912762523E0
1.698951934E0,-2.056999952E-1,4.284087658E0,1.912762523E0
1.701490078E0,-2.056999952E-1,4.284087658E0,1.912762523E0
1.704028233E0,-2.056999952E-1,4.284087658E0,1.912762523E0
1.706567118E0,-8.663874865E-1,3.999599934E0,2.122725010E0
1.709106003E0,-8.663874865E-1,3.999599934E0,2.122725010E0
1.711645597E0,-8.663874865E-1,3.999599934E0,2.122725010E0
1.714185136E0,-8.663874865E-1,3.999599934E0,2.122725010E0
1.716724097E0,-8.663874865E-1,3.999599934E0,2.122725010E0
1.719263060E0,-8.663874865E-1,3.999599934E0,2.122725010E0
1.721801363E0,-8.663874865E-1,3.999599934E0,2.122725010E0
1.724339670E0,-8.663874865E-1,3.999599934E0,2.122725010E0
1.726877825E0,-8.930624723E-1,3.720200062E0,2.103612423E0
1.729415978E0,-8.930624723E-1,3.720200062E0,2.103612423E0
1.731954286E0,-8.930624723E-1,3.720200062E0,2.103612423E0
1.734492593E0,-8.930624723E-1,3.720200062E0,2.103612423E0
1.737030554E0,-8.930624723E-1,3.720200062E0,2.103612423E0
1.739568517E0,-8.930624723E-1,3.720200062E0,2.103612423E0
1.742105944E0,-8.930624723E-1,3.720200062E0,2.103612423E0
1.744643367E0,-8.930624723E-1,3.720200062E0,2.103612423E0
1.747181945E0,-8.203250170E-1,3.470637560E0,2.138674974E0
1.749720520E0,-8.203250170E-1,3.470637560E0,2.138674974E0
1.752257789E0,-8.203250170E-1,3.470637560E0,2.138674974E0
1.754795060E0,-8.203250170E-1,3.470637560E0,2.138674974E0
1.757334253E0,-8.203250170E-1,3.470637560E0,2.138674974E0
1.759873444E0,-8.203250170E-1,3.470637560E0,2.138674974E0
1.762412174E0,-8.203250170E-1,3.470637560E0,2.138674974E0
1.764950945E0,-8.203250170E-1,3.470637560E0,2.138674974E0
1.767489252E0,-3.866499960E-1,3.294087410E0,2.082437515E0
1.770027559E0,-3.866499960E-1,3.294087410E0,2.082437515E0
1.772565540E0,-3.866499960E-1,3.294087410E0,2.082437515E0
1.775103541E0,-3.866499960E-1,3.294087410E0,2.082437515E0
1.777641887E0,-3.866499960E-1,3.294087410E0,2.082437515E0
1.780180234E0,-3.866499960E-1,3.294087410E0,2.082437515E0
1.782719021E0,-3.866499960E-1,3.294087410E0,2.082437515E0
1.785257790E0,-3.866499960E-1,3.294087410E0,2.082437515E0
1.787795789E0,-1.601874977E-1,3.182849884E0,1.976150036E0
1.790333790E0,-1.601874977E-1,3.182849884E0,1.976150036E0
1.792872060E0,-1.601874977E-1,3.182849884E0,1.976150036E0
1.795410329E0,-1.601874977E-1,3.182849884E0,1.976150036E0
1.797947867E0,-1.601874977E-1,3.182849884E0,1.976150036E0
1.800485406E0,-1.601874977E-1,3.182849884E0,1.976150036E0
1.803023407E0,-1.601874977E-1,3.182849884E0,1.976150036E0
1.805561406E0,-1.601874977E-1,3.182849884E0,1.976150036E0
1.808099752E0,2.624875009E-1,3.013312578E0,1.638587475E0
1.810638099E0,2.624875009E-1,3.013312578E0,1.638587475E0
1.813176983E0,2.624875009E-1,3.013312578E0,1.638587475E0
1.815715868E0,2.624875009E-1,3.013312578E0,1.638587475E0
1.818254059E0,2.624875009E-1,3.013312578E0,1.638587475E0
1.820792252E0,2.624875009E-1,3.013312578E0,1.638587475E0
1.823329348E0,2.624875009E-1,3.013312578E0,1.638587475E0
1.825866425E0,2.624875009E-1,3.013312578E0,1.638587475E0
1.828404734E0,4.580124915E-1,3.253112555E0,1.633912444E0
1.830943041E0,4.580124915E-1,3.253112555E0,1.633912444E0
1.833480712E0,4.580124915E-1,3.253112555E0,1.633912444E0
1.836018367E0,4.580124915E-1,3.253112555E0,1.633912444E0
1.838556714E0,4.580124915E-1,3.253112555E0,1.633912444E0
1.841095059E0,4.580124915E-1,3.253112555E0,1.633912444E0
1.843633309E0,4.580124915E-1,3.253112555E0,1.633912444E0
1.846171580E0,4.580124915E-1,3.253112555E0,1.633912444E0
1.848708964E0,7.178875208E-1,3.423062563E0,1.401812434E0
1.851246349E0,7.178875208E-1,3.423062563E0,1.401812434E0
1.853784503E0,7.178875208E-1,3.423062563E0,1.401812434E0
1.856322656E0,7.178875208E-1,3.423062563E0,1.401812434E0
1.858860654E0,7.178875208E-1,3.423062563E0,1.401812434E0
1.861398655E0,7.178875208E-1,3.423062563E0,1.401812434E0
1.863935775E0,7.178875208E-1,3.423062563E0,1.401812434E0
1.866472890E0,7.178875208E-1,3.423062563E0,1.401812434E0
1.869010738E0,8.472750187E-1,3.559187412E0,1.119387507E0
1.871548583E0,8.472750187E-1,3.559187412E0,1.119387507E0
1.874086352E0,8.472750187E-1,3.559187412E0,1.119387507E0
1.876624161E0,8.472750187E-1,3.559187412E0,1.119387507E0
1.879162161E0,8.472750187E-1,3.559187412E0,1.119387507E0
1.881700160E0,8.472750187E-1,3.559187412E0,1.119387507E0
1.884238343E0,8.472750187E-1,3.559187412E0,1.119387507E0
1.886776536E0,8.472750187E-1,3.559187412E0,1.119387507E0
1.889314688E0,8.922374845E-1,3.712912560E0,8.047875166E-1
1.891852843E0,8.922374845E-1,3.712912560E0,8.047875166E-1
1.894390671E0,8.922374845E-1,3.712912560E0,8.047875166E-1
1.896928478E0,8.922374845E-1,3.712912560E0,8.047875166E-1
1.899466209E0,8.922374845E-1,3.712912560E0,8.047875166E-1
1.902003940E0,8.922374845E-1,3.712912560E0,8.047875166E-1
1.904542858E0,8.922374845E-1,3.712912560E0,8.047875166E-1
1.907081781E0,8.922374845E-1,3.712912560E0,8.047875166E-1
1.909620049E0,4.724499881E-1,4.798200130E0,5.526124835E-1
1.912158320E0,4.724499881E-1,4.798200130E0,5.526124835E-1
1.914696184E0,4.724499881E-1,4.798200130E0,5.526124835E-1
1.917234069E0,4.724499881E-1,4.798200130E0,5.526124835E-1
1.919772839E0,4.724499881E-1,4.798200130E0,5.526124835E-1
1.922311608E0,4.724499881E-1,4.798200130E0,5.526124835E-1
1.924849448E0,4.724499881E-1,4.798200130E0,5.526124835E-1
1.927387257E0,4.724499881E-1,4.798200130E0,5.526124835E-1
1.929925911E0,-5.420249701E-1,7.001087666E0,4.211624861E-1
1.932464564E0,-5.420249701E-1,7.001087666E0,4.211624861E-1
1.935003511E0,-5.420249701E-1,7.001087666E0,4.211624861E-1
1.937542434E0,-5.420249701E-1,7.001087666E0,4.211624861E-1
1.940080703E0,-5.420249701E-1,7.001087666E0,4.211624861E-1
1.942618972E0,-5.420249701E-1,7.001087666E0,4.211624861E-1
1.945156665E0,-1.234612465E0,8.374574661E0,1.280124933E-1
1.947694358E0,-1.234612465E0,8.374574661E0,1.280124933E-1
1.950232512E0,-1.234612465E0,8.374574661E0,1.280124933E-1
1.952770665E0,-1.234612465E0,8.374574661E0,1.280124933E-1
1.955308997E0,-1.234612465E0,8.374574661E0,1.280124933E-1
1.957847344E0,-1.234612465E0,8.374574661E0,1.280124933E-1
1.960386227E0,-1.234612465E0,8.374574661E0,1.280124933E-1
1.962925112E0,-1.234612465E0,8.374574661E0,1.280124933E-1
1.965462880E0,-1.616174936E0,8.656450272E0,-5.348749831E-2
1.968000613E0,-1.616174936E0,8.656450272E0,-5.348749831E-2
1.970538921E0,-1.616174936E0,8.656450272E0,-5.348749831E-2
1.973077228E0,-1.616174936E0,8.656450272E0,-5.348749831E-2
1.975615967E0,-1.616174936E0,8.656450272E0,-5.348749831E-2
1.978154698E0,-1.616174936E0,8.656450272E0,-5.348749831E-2
1.980694083E0,-1.616174936E0,8.656450272E0,-5.348749831E-2
1.983233468E0,-1.616174936E0,8.656450272E0,-5.348749831E-2
1.985771914E0,-1.815687537E0,8.612312317E0,-4.522374868E-1
1.988310377E0,-1.815687537E0,8.612312317E0,-4.522374868E-1
1.990848838E0,-1.815687537E0,8.612312317E0,-4.522374868E-1
1.993387299E0,-1.815687537E0,8.612312317E0,-4.522374868E-1
1.995925184E0,-1.815687537E0,8.612312317E0,-4.522374868E-1
1.998463069E0,-1.815687537E0,8.612312317E0,-4.522374868E-1
2.001001531E0,-1.815687537E0,8.612312317E0,-4.522374868E-1
2.003539992E0,-1.815687537E0,8.612312317E0,-4.522374868E-1
2.006078107E0,-1.735387444E0,8.072899818E0,-6.162750125E-1
2.008616222E0,-1.735387444E0,8.072899818E0,-6.162750125E-1
2.011154377E0,-1.735387444E0,8.072899818E0,-6.162750125E-1
2.013692530E0,-1.735387444E0,8.072899818E0,-6.162750125E-1
2.016231140E0,-1.735387444E0,8.072899818E0,-6.162750125E-1
2.018769757E0,-1.735387444E0,8.072899818E0,-6.162750125E-1
2.021307486E0,-1.735387444E0,8.072899818E0,-6.162750125E-1
2.023845217E0,-1.735387444E0,8.072899818E0,-6.162750125E-1
2.026383488E0,-1.540825009E0,7.337550163E0,-6.870874763E-1
2.028921757E0,-1.540825009E0,7.337550163E0,-6.870874763E-1
2.031459755E0,-1.540825009E0,7.337550163E0,-6.870874763E-1
2.033997756E0,-1.540825009E0,7.337550163E0,-6.870874763E-1
2.036536122E0,-1.540825009E0,7.337550163E0,-6.870874763E-1
2.039074467E0,-1.540825009E0,7.337550163E0,-6.870874763E-1
2.041613660E0,-1.540825009E0,7.337550163E0,-6.870874763E-1
2.044152853E0,-1.540825009E0,7.337550163E0,-6.870874763E-1
2.046691774E0,-1.305150032E0,6.448750019E0,-6.291999817E-1
2.049230699E0,-1.305150032E0,6.448750019E0,-6.291999817E-1
2.051769160E0,-1.305150032E0,6.448750019E0,-6.291999817E-1
2.054307621E0,-1.305150032E0,6.448750019E0,-6.291999817E-1
2.056846737E0,-1.305150032E0,6.448750019E0,-6.291999817E-1
2.059385852E0,-1.305150032E0,6.448750019E0,-6.291999817E-1
2.061925030E0,-1.305150032E0,6.448750019E0,-6.291999817E-1
2.064464223E0,-1.305150032E0,6.448750019E0,-6.291999817E-1
2.067003030E0,-1.107699990E0,5.530387402E0,-5.135625005E-1
2.069541839E0,-1.107699990E0,5.530387402E0,-5.135625005E-1
2.072080718E0,-1.107699990E0,5.530387402E0,-5.135625005E-1
2.074619603E0,-1.107699990E0,5.530387402E0,-5.135625005E-1
2.077158987E0,-1.107699990E0,5.530387402E0,-5.135625005E-1
2.079698372E0,-1.107699990E0,5.530387402E0,-5.135625005E-1
2.082237145E0,-1.107699990E0,5.530387402E0,-5.135625005E-1
2.084775916E0,-1.107699990E0,5.530387402E0,-5.135625005E-1
2.087314223E0,-1.000312448E0,4.682287693E0,-4.190999866E-1
2.089852530E0,-1.000312448E0,4.682287693E0,-4.190999866E-1
2.092390574E0,-1.000312448E0,4.682287693E0,-4.190999866E-1
2.094928613E0,-1.000312448E0,4.682287693E0,-4.190999866E-1
2.097467382E0,-1.000312448E0,4.682287693E0,-4.190999866E-1
2.100006151E0,-1.000312448E0,4.682287693E0,-4.190999866E-1
2.102544458E0,-1.000312448E0,4.682287693E0,-4.190999866E-1
2.105082767E0,-1.000312448E0,4.682287693E0,-4.190999866E-1
2.107621536E0,-8.632249832E-1,4.086500168E0,-3.273875117E-1
2.110160305E0,-8.632249832E-1,4.086500168E0,-3.273875117E-1
2.112699035E0,-8.632249832E-1,4.086500168E0,-3.273875117E-1
2.115237766E0,-8.632249832E-1,4.086500168E0,-3.273875117E-1
2.117776421E0,-8.632249832E-1,4.086500168E0,-3.273875117E-1
2.120315074E0,-8.632249832E-1,4.086500168E0,-3.273875117E-1
2.122853395E0,-8.632249832E-1,4.086500168E0,-3.273875117E-1
2.125391702E0,-8.632249832E-1,4.086500168E0,-3.273875117E-1
2.127930318E0,-7.623000145E-1,3.670700073E0,-2.956250012E-1
2.130468933E0,-7.623000145E-1,3.670700073E0,-2.956250012E-1
2.133007020E0,-7.623000145E-1,3.670700073E0,-2.956250012E-1
2.135545137E0,-7.623000145E-1,3.670700073E0,-2.956250012E-1
2.138082406E0,-7.623000145E-1,3.670700073E0,-2.956250012E-1
2.140619675E0,-7.623000145E-1,3.670700073E0,-2.956250012E-1
2.143157675E0,-7.623000145E-1,3.670700073E0,-2.956250012E-1
2.145695674E0,-7.623000145E-1,3.670700073E0,-2.956250012E-1
2.148233982E0,-6.132500172E-1,3.261087418E0,-1.655499935E-1
2.150772291E0,-6.132500172E-1,3.261087418E0,-1.655499935E-1
2.153310458E0,-6.132500172E-1,3.261087418E0,-1.655499935E-1
2.155848613E0,-6.132500172E-1,3.261087418E0,-1.655499935E-1
2.158387074E0,-6.132500172E-1,3.261087418E0,-1.655499935E-1
2.160925535E0,-6.132500172E-1,3.261087418E0,-1.655499935E-1
2.163463843E0,-6.132500172E-1,3.261087418E0,-1.655499935E-1
2.166002152E0,-6.132500172E-1,3.261087418E0,-1.655499935E-1
2.168540421E0,-5.348749757E-1,2.941537380E0,-1.187999994E-1
2.171078690E0,-5.348749757E-1,2.941537380E0,-1.187999994E-1
2.173616420E0,-5.348749757E-1,2.941537380E0,-1.187999994E-1
2.176154151E0,-5.348749757E-1,2.941537380E0,-1.187999994E-1
2.178692458E0,-5.348749757E-1,2.941537380E0,-1.187999994E-1
2.181230765E0,-5.348749757E-1,2.941537380E0,-1.187999994E-1
2.183768433E0,-5.348749757E-1,2.941537380E0,-1.187999994E-1
2.186306088E0,-5.348749757E-1,2.941537380E0,-1.187999994E-1
2.188843818E0,-4.977499843E-1,2.219387531E0,2.884750068E-1
2.191381549E0,-4.977499843E-1,2.219387531E0,2.884750068E-1
2.193919408E0,-4.977499843E-1,2.219387531E0,2.884750068E-1
2.196457255E0,-4.977499843E-1,2.219387531E0,2.884750068E-1
2.198995255E0,-4.977499843E-1,2.219387531E0,2.884750068E-1
2.201533256E0,-4.977499843E-1,2.219387531E0,2.884750068E-1
2.204071101E0,-4.977499843E-1,2.219387531E0,2.884750068E-1
2.206608948E0,-4.977499843E-1,2.219387531E0,2.884750068E-1
2.209147063E0,-2.862749994E-1,1.614249945E0,8.299499750E-1
2.211685178E0,-2.862749994E-1,1.614249945E0,8.299499750E-1
2.214223375E0,-2.862749994E-1,1.614249945E0,8.299499750E-1
2.216761568E0,-2.862749994E-1,1.614249945E0,8.299499750E-1
2.219298913E0,-2.862749994E-1,1.614249945E0,8.299499750E-1
2.221836260E0,-2.862749994E-1,1.614249945E0,8.299499750E-1
2.224374083E0,-2.862749994E-1,1.614249945E0,8.299499750E-1
2.226911928E0,-2.862749994E-1,1.614249945E0,8.299499750E-1
2.229449466E0,3.107500076E-2,1.200924993E0,1.309000015E0
2.231987005E0,3.107500076E-2,1.200924993E0,1.309000015E0
2.234525011E0,3.107500076E-2,1.200924993E0,1.309000015E0
2.237063010E0,3.107500076E-2,1.200924993E0,1.309000015E0
2.239601010E0,3.107500076E-2,1.200924993E0,1.309000015E0
2.242139011E0,3.107500076E-2,1.200924993E0,1.309000015E0
2.244677471E0,3.107500076E-2,1.200924993E0,1.309000015E0
2.247215934E0,3.107500076E-2,1.200924993E0,1.309000015E0
2.249753779E0,8.456250280E-2,1.005949974E0,1.422024965E0
2.252291626E0,8.456250280E-2,1.005949974E0,1.422024965E0
2.254830285E0,8.456250280E-2,1.005949974E0,1.422024965E0
2.257368938E0,8.456250280E-2,1.005949974E0,1.422024965E0
2.259906784E0,8.456250280E-2,1.005949974E0,1.422024965E0
2.262444631E0,8.456250280E-2,1.005949974E0,1.422024965E0
2.264982304E0,8.456250280E-2,1.005949974E0,1.422024965E0
2.267519957E0,8.456250280E-2,1.005949974E0,1.422024965E0
2.270057496E0,7.067500055E-2,9.535624981E-1,1.343924999E0
2.272595035E0,7.067500055E-2,9.535624981E-1,1.343924999E0
2.275133564E0,7.067500055E-2,9.535624981E-1,1.343924999E0
2.277672063E0,7.067500055E-2,9.535624981E-1,1.343924999E0
2.280209447E0,7.067500055E-2,9.535624981E-1,1.343924999E0
2.282746832E0,7.067500055E-2,9.535624981E-1,1.343924999E0
2.285283904E0,6.751249731E-2,8.546999693E-1,1.318624973E0
2.287820981E0,6.751249731E-2,8.546999693E-1,1.318624973E0
2.290358790E0,6.751249731E-2,8.546999693E-1,1.318624973E0
2.292896597E0,6.751249731E-2,8.546999693E-1,1.318624973E0
2.295433981E0,6.751249731E-2,8.546999693E-1,1.318624973E0
2.297971366E0,6.751249731E-2,8.546999693E-1,1.318624973E0
2.300509213E0,6.751249731E-2,8.546999693E-1,1.318624973E0
2.303047058E0,6.751249731E-2,8.546999693E-1,1.318624973E0
2.305585202E0,5.444999784E-2,8.156499863E-1,1.254962444E0
2.308123357E0,5.444999784E-2,8.156499863E-1,1.254962444E0
2.310660778E0,5.444999784E-2,8.156499863E-1,1.254962444E0
2.313198203E0,5.444999784E-2,8.156499863E-1,1.254962444E0
2.315735708E0,5.444999784E-2,8.156499863E-1,1.254962444E0
2.318273207E0,5.444999784E-2,8.156499863E-1,1.254962444E0
2.320810630E0,5.444999784E-2,8.156499863E-1,1.254962444E0
2.323348053E0,5.444999784E-2,8.156499863E-1,1.254962444E0
2.325885448E0,5.156249925E-2,6.828249693E-1,1.319862485E0
2.328422833E0,5.156249925E-2,6.828249693E-1,1.319862485E0
2.330960487E0,5.156249925E-2,6.828249693E-1,1.319862485E0
2.333498140E0,5.156249925E-2,6.828249693E-1,1.319862485E0
2.336035578E0,5.156249925E-2,6.828249693E-1,1.319862485E0
2.338573001E0,5.156249925E-2,6.828249693E-1,1.319862485E0
2.341111117E0,5.156249925E-2,6.828249693E-1,1.319862485E0
2.343649232E0,5.156249925E-2,6.828249693E-1,1.319862485E0
2.346186924E0,9.404999763E-2,8.258249760E-1,1.162837505E0
2.348724617E0,9.404999763E-2,8.258249760E-1,1.162837505E0
2.351262338E0,9.404999763E-2,8.258249760E-1,1.162837505E0
2.353800069E0,9.404999763E-2,8.258249760E-1,1.162837505E0
2.356338029E0,9.404999763E-2,8.258249760E-1,1.162837505E0
2.358875992E0,9.404999763E-2,8.258249760E-1,1.162837505E0
2.361413837E0,9.404999763E-2,8.258249760E-1,1.162837505E0
2.363951684E0,9.404999763E-2,8.258249760E-1,1.162837505E0
2.366489877E0,2.719750106E-1,1.481150031E0,6.032124758E-1
2.369028068E0,2.719750106E-1,1.481150031E0,6.032124758E-1
2.371565149E0,2.719750106E-1,1.481150031E0,6.032124758E-1
2.374102228E0,2.719750106E-1,1.481150031E0,6.032124758E-1
2.376640190E0,2.719750106E-1,1.481150031E0,6.032124758E-1
2.379178151E0,2.719750106E-1,1.481150031E0,6.032124758E-1
2.381715707E0,2.719750106E-1,1.481150031E0,6.032124758E-1
2.384253246E0,2.719750106E-1,1.481150031E0,6.032124758E-1
2.386791285E0,3.437500075E-2,1.565575004E0,2.558875084E-1
2.389329324E0,3.437500075E-2,1.565575004E0,2.558875084E-1
2.391867958E0,3.437500075E-2,1.565575004E0,2.558875084E-1
2.394406573E0,3.437500075E-2,1.565575004E0,2.558875084E-1
2.396944726E0,3.437500075E-2,1.565575004E0,2.558875084E-1
2.399482881E0,3.437500075E-2,1.565575004E0,2.558875084E-1
2.402020848E0,3.437500075E-2,1.565575004E0,2.558875084E-1
2.404558809E0,3.437500075E-2,1.565575004E0,2.558875084E-1
2.407096656E0,3.712499980E-3,1.573137522E0,1.922249943E-1
2.409634501E0,3.712499980E-3,1.573137522E0,1.922249943E-1
2.412171757E0,3.712499980E-3,1.573137522E0,1.922249943E-1
2.414709026E0,3.712499980E-3,1.573137522E0,1.922249943E-1
2.417247181E0,3.712499980E-3,1.573137522E0,1.922249943E-1
2.419785334E0,3.712499980E-3,1.573137522E0,1.922249943E-1
2.422323636E0,3.712499980E-3,1.573137522E0,1.922249943E-1
2.424861945E0,3.712499980E-3,1.573137522E0,1.922249943E-1
2.427399789E0,-6.943749636E-2,1.362212539E0,3.392125070E-1
2.429937636E0,-6.943749636E-2,1.362212539E0,3.392125070E-1
2.432476234E0,-6.943749636E-2,1.362212539E0,3.392125070E-1
2.435014849E0,-6.943749636E-2,1.362212539E0,3.392125070E-1
2.437552655E0,-6.943749636E-2,1.362212539E0,3.392125070E-1
2.440090464E0,-6.943749636E-2,1.362212539E0,3.392125070E-1
2.442627833E0,-6.943749636E-2,1.362212539E0,3.392125070E-1
2.445165218E0,-6.943749636E-2,1.362212539E0,3.392125070E-1
2.447703065E0,-3.148750067E-1,5.498625040E-1,1.046787500E0
2.450240910E0,-3.148750067E-1,5.498625040E-1,1.046787500E0
2.452778910E0,-3.148750067E-1,5.498625040E-1,1.046787500E0
2.455316911E0,-3.148750067E-1,5.498625040E-1,1.046787500E0
2.457854025E0,-3.148750067E-1,5.498625040E-1,1.046787500E0
2.460391142E0,-3.148750067E-1,5.498625040E-1,1.046787500E0
2.462928848E0,-3.148750067E-1,5.498625040E-1,1.046787500E0
2.465466539E0,-3.148750067E-1,5.498625040E-1,1.046787500E0
2.468003923E0,-6.111875176E-1,-1.457500011E-1,1.552512527E0
2.470541308E0,-6.111875176E-1,-1.457500011E-1,1.552512527E0
2.473079411E0,-6.111875176E-1,-1.457500011E-1,1.552512527E0
2.475617526E0,-6.111875176E-1,-1.457500011E-1,1.552512527E0
2.478154909E0,-6.111875176E-1,-1.457500011E-1,1.552512527E0
2.480692294E0,-6.111875176E-1,-1.457500011E-1,1.552512527E0
2.483230290E0,-6.111875176E-1,-1.457500011E-1,1.552512527E0
2.485768289E0,-6.111875176E-1,-1.457500011E-1,1.552512527E0
2.488305558E0,-9.134125113E-1,-4.976125062E-1,1.705412507E0
2.490842829E0,-9.134125113E-1,-4.976125062E-1,1.705412507E0
2.493380320E0,-9.134125113E-1,-4.976125062E-1,1.705412507E0
2.495917819E0,-9.134125113E-1,-4.976125062E-1,1.705412507E0
2.498454934E0,-9.134125113E-1,-4.976125062E-1,1.705412507E0
2.500992051E0,-9.134125113E-1,-4.976125062E-1,1.705412507E0
2.503529727E0,-9.134125113E-1,-4.976125062E-1,1.705412507E0
2.506067418E0,-9.134125113E-1,-4.976125062E-1,1.705412507E0
2.508604918E0,-1.205049992E0,-6.331874728E-1,1.667874932E0
2.511142419E0,-1.205049992E0,-6.331874728E-1,1.667874932E0
2.513680314E0,-1.205049992E0,-6.331874728E-1,1.667874932E0
2.516218199E0,-1.205049992E0,-6.331874728E-1,1.667874932E0
2.518756005E0,-1.205049992E0,-6.331874728E-1,1.667874932E0
2.521293814E0,-1.205049992E0,-6.331874728E-1,1.667874932E0
2.523831053E0,-1.205049992E0,-6.331874728E-1,1.667874932E0
2.526368322E0,-1.205049992E0,-6.331874728E-1,1.667874932E0
2.528905823E0,-1.301574945E0,-5.975750089E-1,1.555812478E0
2.531443322E0,-1.301574945E0,-5.975750089E-1,1.555812478E0
2.533980740E0,-1.301574945E0,-5.975750089E-1,1.555812478E0
2.536518165E0,-1.301574945E0,-5.975750089E-1,1.555812478E0
2.539056126E0,-1.301574945E0,-5.975750089E-1,1.555812478E0
2.541594087E0,-1.301574945E0,-5.975750089E-1,1.555812478E0
2.544131651E0,-1.301574945E0,-5.975750089E-1,1.555812478E0
2.546669228E0,-1.301574945E0,-5.975750089E-1,1.555812478E0
2.549207036E0,-1.227049947E0,-4.727250040E-1,1.428074956E0
2.551744843E0,-1.227049947E0,-4.727250040E-1,1.428074956E0
2.554282548E0,-1.227049947E0,-4.727250040E-1,1.428074956E0
2.556820241E0,-1.227049947E0,-4.727250040E-1,1.428074956E0
2.559358857E0,-1.227049947E0,-4.727250040E-1,1.428074956E0
2.561897472E0,-1.227049947E0,-4.727250040E-1,1.428074956E0
2.564436120E0,-1.227049947E0,-4.727250040E-1,1.428074956E0
2.566974775E0,-1.227049947E0,-4.727250040E-1,1.428074956E0
2.569513697E0,-1.112237453E0,-2.793999910E-1,1.248637438E0
2.572052620E0,-1.112237453E0,-2.793999910E-1,1.248637438E0
2.574592789E0,-1.112237453E0,-2.793999910E-1,1.248637438E0
2.577132944E0,-1.112237453E0,-2.793999910E-1,1.248637438E0
2.579672943E0,-1.112237453E0,-2.793999910E-1,1.248637438E0
2.582212944E0,-1.112237453E0,-2.793999910E-1,1.248637438E0
2.584752347E0,-1.112237453E0,-2.793999910E-1,1.248637438E0
2.587291732E0,-1.112237453E0,-2.793999910E-1,1.248637438E0
2.589829578E0,-1.012962461E0,1.787499934E-1,7.844374776E-1
2.592367425E0,-1.012962461E0,1.787499934E-1,7.844374776E-1
2.594905535E0,-1.012962461E0,1.787499934E-1,7.844374776E-1
2.597443650E0,-1.012962461E0,1.787499934E-1,7.844374776E-1
2.599982110E0,-1.012962461E0,1.787499934E-1,7.844374776E-1
2.602520573E0,-1.012962461E0,1.787499934E-1,7.844374776E-1
2.605059058E0,-1.012962461E0,1.787499934E-1,7.844374776E-1
2.607597559E0,-1.012962461E0,1.787499934E-1,7.844374776E-1
2.610136019E0,-8.548374772E-1,5.641624928E-1,4.023250043E-1
2.612674482E0,-8.548374772E-1,5.641624928E-1,4.023250043E-1
2.615212765E0,-8.548374772E-1,5.641624928E-1,4.023250043E-1
2.617751034E0,-8.548374772E-1,5.641624928E-1,4.023250043E-1
2.620289073E0,-8.548374772E-1,5.641624928E-1,4.023250043E-1
2.622827112E0,-8.548374772E-1,5.641624928E-1,4.023250043E-1
2.625366002E0,-6.019750237E-1,9.053000212E-1,1.005124971E-1
2.627904885E0,-6.019750237E-1,9.053000212E-1,1.005124971E-1
2.630443384E0,-6.019750237E-1,9.053000212E-1,1.005124971E-1
2.632981885E0,-6.019750237E-1,9.053000212E-1,1.005124971E-1
2.635519270E0,-6.019750237E-1,9.053000212E-1,1.005124971E-1
2.638056655E0,-6.019750237E-1,9.053000212E-1,1.005124971E-1
2.640593732E0,-6.019750237E-1,9.053000212E-1,1.005124971E-1
2.643130809E0,-6.019750237E-1,9.053000212E-1,1.005124971E-1
2.645668771E0,-3.275249898E-1,1.139462471E0,-6.778749824E-2
2.648206732E0,-3.275249898E-1,1.139462471E0,-6.778749824E-2
2.650744919E0,-3.275249898E-1,1.139462471E0,-6.778749824E-2
2.653283074E0,-3.275249898E-1,1.139462471E0,-6.778749824E-2
2.655821227E0,-3.275249898E-1,1.139462471E0,-6.778749824E-2
2.658359382E0,-3.275249898E-1,1.139462471E0,-6.778749824E-2
2.660896804E0,-3.275249898E-1,1.139462471E0,-6.778749824E-2
2.663434227E0,-3.275249898E-1,1.139462471E0,-6.778749824E-2
2.665972228E0,-4.564999789E-2,1.167787552E0,1.952499896E-2
2.668510227E0,-4.564999789E-2,1.167787552E0,1.952499896E-2
2.671048804E0,-4.564999789E-2,1.167787552E0,1.952499896E-2
2.673587381E0,-4.564999789E-2,1.167787552E0,1.952499896E-2
2.676125573E0,-4.564999789E-2,1.167787552E0,1.952499896E-2
2.678663766E0,-4.564999789E-2,1.167787552E0,1.952499896E-2
2.681201111E0,-4.564999789E-2,1.167787552E0,1.952499896E-2
2.683738496E0,-4.564999789E-2,1.167787552E0,1.952499896E-2
2.686276035E0,-8.332499862E-2,1.121724963E0,-3.877500072E-2
2.688813574E0,-8.332499862E-2,1.121724963E0,-3.877500072E-2
2.691350356E0,-8.332499862E-2,1.121724963E0,-3.877500072E-2
2.693887127E0,-8.332499862E-2,1.121724963E0,-3.877500072E-2
2.696424627E0,-8.332499862E-2,1.121724963E0,-3.877500072E-2
2.698962126E0,-8.332499862E-2,1.121724963E0,-3.877500072E-2
2.701499664E0,-8.332499862E-2,1.121724963E0,-3.877500072E-2
2.704037203E0,-8.332499862E-2,1.121724963E0,-3.877500072E-2
2.706575087E0,-9.515000135E-2,1.027950048E0,-2.901249938E-2
2.709112972E0,-9.515000135E-2,1.027950048E0,-2.901249938E-2
2.711651087E0,-9.515000135E-2,1.027950048E0,-2.901249938E-2
2.714189204E0,-9.515000135E-2,1.027950048E0,-2.901249938E-2
2.716727510E0,-9.515000135E-2,1.027950048E0,-2.901249938E-2
2.719265819E0,-9.515000135E-2,1.027950048E0,-2.901249938E-2
2.721803654E0,-9.515000135E-2,1.027950048E0,-2.901249938E-2
2.724341501E0,-9.515000135E-2,1.027950048E0,-2.901249938E-2
2.726879348E0,-1.270499974E-1,8.964999914E-1,8.112499490E-3
2.729417193E0,-1.270499974E-1,8.964999914E-1,8.112499490E-3
2.731954746E0,-1.270499974E-1,8.964999914E-1,8.112499490E-3
2.734492285E0,-1.270499974E-1,8.964999914E-1,8.112499490E-3
2.737030169E0,-1.270499974E-1,8.964999914E-1,8.112499490E-3
2.739568054E0,-1.270499974E-1,8.964999914E-1,8.112499490E-3
2.742106828E0,-1.270499974E-1,8.964999914E-1,8.112499490E-3
2.744645597E0,-1.270499974E-1,8.964999914E-1,8.112499490E-3
2.747183135E0,-4.277625084E-1,4.430249929E-1,2.193125039E-1
2.749720674E0,-4.277625084E-1,4.430249929E-1,2.193125039E-1
2.752258179E0,-4.277625084E-1,4.430249929E-1,2.193125039E-1
2.754795718E0,-4.277625084E-1,4.430249929E-1,2.193125039E-1
2.757333371E0,-4.277625084E-1,4.430249929E-1,2.193125039E-1
2.759871024E0,-4.277625084E-1,4.430249929E-1,2.193125039E-1
2.762409390E0,-4.277625084E-1,4.430249929E-1,2.193125039E-1
2.764947737E0,-4.277625084E-1,4.430249929E-1,2.193125039E-1
2.767486505E0,-6.069250107E-1,1.904374957E-1,2.987875044E-1
2.770025274E0,-6.069250107E-1,1.904374957E-1,2.987875044E-1
2.772563428E0,-6.069250107E-1,1.904374957E-1,2.987875044E-1
2.775101583E0,-6.069250107E-1,1.904374957E-1,2.987875044E-1
2.777639390E0,-6.069250107E-1,1.904374957E-1,2.987875044E-1
2.780177197E0,-6.069250107E-1,1.904374957E-1,2.987875044E-1
2.782715073E0,-6.069250107E-1,1.904374957E-1,2.987875044E-1
2.785252958E0,-6.069250107E-1,1.904374957E-1,2.987875044E-1
2.787790495E0,-6.836500168E-1,8.387500420E-3,3.724874854E-1
2.790328034E0,-6.836500168E-1,8.387500420E-3,3.724874854E-1
2.792864943E0,-6.836500168E-1,8.387500420E-3,3.724874854E-1
2.795401866E0,-6.836500168E-1,8.387500420E-3,3.724874854E-1
2.797940175E0,-6.836500168E-1,8.387500420E-3,3.724874854E-1
2.800478482E0,-6.836500168E-1,8.387500420E-3,3.724874854E-1
2.803016457E0,-6.836500168E-1,8.387500420E-3,3.724874854E-1
2.805554420E0,-6.836500168E-1,8.387500420E-3,3.724874854E-1
2.808092612E0,-6.333249807E-1,3.368749842E-2,3.147374988E-1
2.810630805E0,-6.333249807E-1,3.368749842E-2,3.147374988E-1
2.813168785E0,-6.333249807E-1,3.368749842E-2,3.147374988E-1
2.815706786E0,-6.333249807E-1,3.368749842E-2,3.147374988E-1
2.818245248E0,-6.333249807E-1,3.368749842E-2,3.147374988E-1
2.820783709E0,-6.333249807E-1,3.368749842E-2,3.147374988E-1
2.823321260E0,-6.333249807E-1,3.368749842E-2,3.147374988E-1
2.825858799E0,-6.333249807E-1,3.368749842E-2,3.147374988E-1
2.828396915E0,-5.443624854E-1,3.547500074E-1,-1.608750038E-2
2.830935030E0,-5.443624854E-1,3.547500074E-1,-1.608750038E-2
2.833473385E0,-5.443624854E-1,3.547500074E-1,-1.608750038E-2
2.836011732E0,-5.443624854E-1,3.547500074E-1,-1.608750038E-2
2.838549539E0,-5.443624854E-1,3.547500074E-1,-1.608750038E-2
2.841087348E0,-5.443624854E-1,3.547500074E-1,-1.608750038E-2
2.843624953E0,-5.443624854E-1,3.547500074E-1,-1.608750038E-2
2.846162530E0,-5.443624854E-1,3.547500074E-1,-1.608750038E-2
2.848700647E0,-5.080624819E-1,2.752749920E-1,4.317500070E-2
2.851238762E0,-5.080624819E-1,2.752749920E-1,4.317500070E-2
2.853776799E0,-5.080624819E-1,2.752749920E-1,4.317500070E-2
2.856314838E0,-5.080624819E-1,2.752749920E-1,4.317500070E-2
2.858852530E0,-5.080624819E-1,2.752749920E-1,4.317500070E-2
2.861390223E0,-5.080624819E-1,2.752749920E-1,4.317500070E-2
2.863928700E0,-5.080624819E-1,2.752749920E-1,4.317500070E-2
2.866467161E0,-5.080624819E-1,2.752749920E-1,4.317500070E-2
2.869005429E0,-7.484124899E-1,4.038375020E-1,-2.958999872E-1
2.871543700E0,-7.484124899E-1,4.038375020E-1,-2.958999872E-1
2.874081123E0,-7.484124899E-1,4.038375020E-1,-2.958999872E-1
2.876618546E0,-7.484124899E-1,4.038375020E-1,-2.958999872E-1
2.879156392E0,-7.484124899E-1,4.038375020E-1,-2.958999872E-1
2.881694237E0,-7.484124899E-1,4.038375020E-1,-2.958999872E-1
2.884232342E0,-7.484124899E-1,4.038375020E-1,-2.958999872E-1
2.886770459E0,-7.484124899E-1,4.038375020E-1,-2.958999872E-1
2.889308035E0,-8.277499676E-1,3.700124919E-1,-3.693250120E-1
2.891845612E0,-8.277499676E-1,3.700124919E-1,-3.693250120E-1
2.894383574E0,-8.277499676E-1,3.700124919E-1,-3.693250120E-1
2.896921535E0,-8.277499676E-1,3.700124919E-1,-3.693250120E-1
2.899459843E0,-8.277499676E-1,3.700124919E-1,-3.693250120E-1
2.901998152E0,-8.277499676E-1,3.700124919E-1,-3.693250120E-1
2.904536299E0,-8.277499676E-1,3.700124919E-1,-3.693250120E-1
2.907074454E0,-8.277499676E-1,3.700124919E-1,-3.693250120E-1
2.909612915E0,-7.881500125E-1,3.320625126E-1,-3.753750026E-1
2.912151376E0,-7.881500125E-1,3.320625126E-1,-3.753750026E-1
2.914690005E0,-7.881500125E-1,3.320625126E-1,-3.753750026E-1
2.917228622E0,-7.881500125E-1,3.320625126E-1,-3.753750026E-1
2.919767082E0,-7.881500125E-1,3.320625126E-1,-3.753750026E-1
2.922305545E0,-7.881500125E-1,3.320625126E-1,-3.753750026E-1
2.924843223E0,-7.881500125E-1,3.320625126E-1,-3.753750026E-1
2.927380916E0,-7.881500125E-1,3.320625126E-1,-3.753750026E-1
2.929918454E0,-7.926874757E-1,4.655750096E-1,-6.126999855E-1
2.932455993E0,-7.926874757E-1,4.655750096E-1,-6.126999855E-1
2.934994032E0,-7.926874757E-1,4.655750096E-1,-6.126999855E-1
2.937532069E0,-7.926874757E-1,4.655750096E-1,-6.126999855E-1
2.940069876E0,-7.926874757E-1,4.655750096E-1,-6.126999855E-1
2.942607685E0,-7.926874757E-1,4.655750096E-1,-6.126999855E-1
2.945145425E0,-8.225250244E-1,6.050000191E-1,-8.883875012E-1
2.947683156E0,-8.225250244E-1,6.050000191E-1,-8.883875012E-1
2.950222080E0,-8.225250244E-1,6.050000191E-1,-8.883875012E-1
2.952761003E0,-8.225250244E-1,6.050000191E-1,-8.883875012E-1
2.955298808E0,-8.225250244E-1,6.050000191E-1,-8.883875012E-1
2.957836617E0,-8.225250244E-1,6.050000191E-1,-8.883875012E-1
2.960375425E0,-8.225250244E-1,6.050000191E-1,-8.883875012E-1
2.962914232E0,-8.225250244E-1,6.050000191E-1,-8.883875012E-1
2.965453458E0,-9.810624719E-1,4.786374867E-1,-9.292249680E-1
2.967992689E0,-9.810624719E-1,4.786374867E-1,-9.292249680E-1
2.970530342E0,-9.810624719E-1,4.786374867E-1,-9.292249680E-1
2.973067997E0,-9.810624719E-1,4.786374867E-1,-9.292249680E-1
2.975605732E0,-9.810624719E-1,4.786374867E-1,-9.292249680E-1
2.978143463E0,-9.810624719E-1,4.786374867E-1,-9.292249680E-1
2.980681732E0,-9.810624719E-1,4.786374867E-1,-9.292249680E-1
2.983220001E0,-9.810624719E-1,4.786374867E-1,-9.292249680E-1
2.985758160E0,-9.783124924E-1,5.704874992E-1,-1.125574946E0
2.988296315E0,-9.783124924E-1,5.704874992E-1,-1.125574946E0
2.990834315E0,-9.783124924E-1,5.704874992E-1,-1.125574946E0
2.993372314E0,-9.783124924E-1,5.704874992E-1,-1.125574946E0
2.995910199E0,-9.783124924E-1,5.704874992E-1,-1.125574946E0
2.998448084E0,-9.783124924E-1,5.704874992E-1,-1.125574946E0
3.000986507E0,-9.783124924E-1,5.704874992E-1,-1.125574946E0
3.003524930E0,-9.783124924E-1,5.704874992E-1,-1.125574946E0
3.006062457E0,-7.675250173E-1,6.153125167E-1,-1.098487496E0
3.008599996E0,-7.675250173E-1,6.153125167E-1,-1.098487496E0
3.011137997E0,-7.675250173E-1,6.153125167E-1,-1.098487496E0
3.013675996E0,-7.675250173E-1,6.153125167E-1,-1.098487496E0
3.016214136E0,-7.675250173E-1,6.153125167E-1,-1.098487496E0
3.018752291E0,-7.675250173E-1,6.153125167E-1,-1.098487496E0
3.021289712E0,-7.675250173E-1,6.153125167E-1,-1.098487496E0
3.023827137E0,-7.675250173E-1,6.153125167E-1,-1.098487496E0
3.026364367E0,-4.728625119E-1,6.389625072E-1,-9.537000060E-1
3.028901598E0,-4.728625119E-1,6.389625072E-1,-9.537000060E-1
3.031439141E0,-4.728625119E-1,6.389625072E-1,-9.537000060E-1
3.033976680E0,-4.728625119E-1,6.389625072E-1,-9.537000060E-1
3.036514949E0,-4.728625119E-1,6.389625072E-1,-9.537000060E-1
3.039053218E0,-4.728625119E-1,6.389625072E-1,-9.537000060E-1
3.041591107E0,-4.728625119E-1,6.389625072E-1,-9.537000060E-1
3.044128992E0,-4.728625119E-1,6.389625072E-1,-9.537000060E-1
3.046667416E0,-1.181124970E-1,6.631624699E-1,-7.287499905E-1
3.049205839E0,-1.181124970E-1,6.631624699E-1,-7.287499905E-1
3.051744516E0,-1.181124970E-1,6.631624699E-1,-7.287499905E-1
3.054283171E0,-1.181124970E-1,6.631624699E-1,-7.287499905E-1
3.056821593E0,-1.181124970E-1,6.631624699E-1,-7.287499905E-1
3.059360016E0,-1.181124970E-1,6.631624699E-1,-7.287499905E-1
3.061898194E0,-1.181124970E-1,6.631624699E-1,-7.287499905E-1
3.064436387E0,-1.181124970E-1,6.631624699E-1,-7.287499905E-1
3.066976080E0,2.065249979E-1,8.927875161E-1,-7.339749932E-1
3.069515771E0,2.065249979E-1,8.927875161E-1,-7.339749932E-1
3.072054063E0,2.065249979E-1,8.927875161E-1,-7.339749932E-1
3.074592372E0,2.065249979E-1,8.927875161E-1,-7.339749932E-1
3.077129911E0,2.065249979E-1,8.927875161E-1,-7.339749932E-1
3.079667450E0,2.065249979E-1,8.927875161E-1,-7.339749932E-1
3.082206065E0,2.065249979E-1,8.927875161E-1,-7.339749932E-1
3.084744680E0,2.065249979E-1,8.927875161E-1,-7.339749932E-1
3.087282794E0,3.308250010E-1,9.464125037E-1,-7.081249952E-1
3.089820911E0,3.308250010E-1,9.464125037E-1,-7.081249952E-1
3.092358910E0,3.308250010E-1,9.464125037E-1,-7.081249952E-1
3.094896949E0,3.308250010E-1,9.464125037E-1,-7.081249952E-1
3.097435103E0,3.308250010E-1,9.464125037E-1,-7.081249952E-1
3.099973256E0,3.308250010E-1,9.464125037E-1,-7.081249952E-1
3.102510347E0,3.308250010E-1,9.464125037E-1,-7.081249952E-1
3.105047426E0,3.308250010E-1,9.464125037E-1,-7.081249952E-1
3.107584656E0,3.121249974E-1,7.964000106E-1,-5.912500024E-1
3.110121887E0,3.121249974E-1,7.964000106E-1,-5.912500024E-1
3.112659087E0,3.121249974E-1,7.964000106E-1,-5.912500024E-1
3.115196280E0,3.121249974E-1,7.964000106E-1,-5.912500024E-1
3.117734743E0,3.121249974E-1,7.964000106E-1,-5.912500024E-1
3.120273204E0,3.121249974E-1,7.964000106E-1,-5.912500024E-1
3.122811525E0,3.121249974E-1,7.964000106E-1,-5.912500024E-1
3.125349834E0,3.121249974E-1,7.964000106E-1,-5.912500024E-1
3.127887718E0,2.820124924E-1,6.865375042E-1,-5.292375088E-1
3.130425603E0,2.820124924E-1,6.865375042E-1,-5.292375088E-1
3.132963007E0,2.820124924E-1,6.865375042E-1,-5.292375088E-1
3.135500392E0,2.820124924E-1,6.865375042E-1,-5.292375088E-1
3.138037930E0,2.820124924E-1,6.865375042E-1,-5.292375088E-1
3.140575469E0,2.820124924E-1,6.865375042E-1,-5.292375088E-1
3.143113449E0,2.820124924E-1,6.865375042E-1,-5.292375088E-1
3.145651450E0,2.820124924E-1,6.865375042E-1,-5.292375088E-1
3.148189718E0,2.916375101E-1,2.844874859E-1,-9.404999763E-2
3.150727987E0,2.916375101E-1,2.844874859E-1,-9.404999763E-2
3.153265394E0,2.916375101E-1,2.844874859E-1,-9.404999763E-2
3.155802819E0,2.916375101E-1,2.844874859E-1,-9.404999763E-2
3.158340050E0,2.916375101E-1,2.844874859E-1,-9.404999763E-2
3.160877281E0,2.916375101E-1,2.844874859E-1,-9.404999763E-2
3.163415445E0,2.916375101E-1,2.844874859E-1,-9.404999763E-2
3.165953598E0,2.916375101E-1,2.844874859E-1,-9.404999763E-2
3.168491443E0,1.375000030E-1,-8.483749628E-2,1.042250022E-1
3.171029290E0,1.375000030E-1,-8.483749628E-2,1.042250022E-1
3.173567719E0,1.375000030E-1,-8.483749628E-2,1.042250022E-1
3.176106142E0,1.375000030E-1,-8.483749628E-2,1.042250022E-1
3.178644295E0,1.375000030E-1,-8.483749628E-2,1.042250022E-1
3.181182450E0,1.375000030E-1,-8.483749628E-2,1.042250022E-1
3.183720026E0,1.375000030E-1,-8.483749628E-2,1.042250022E-1
3.186257603E0,1.375000030E-1,-8.483749628E-2,1.042250022E-1
3.188794680E0,-1.608750038E-2,-4.120875001E-1,2.620750070E-1
3.191331757E0,-1.608750038E-2,-4.120875001E-1,2.620750070E-1
3.193869546E0,-1.608750038E-2,-4.120875001E-1,2.620750070E-1
3.196407353E0,-1.608750038E-2,-4.120875001E-1,2.620750070E-1
3.198944929E0,-1.608750038E-2,-4.120875001E-1,2.620750070E-1
3.201482506E0,-1.608750038E-2,-4.120875001E-1,2.620750070E-1
3.204020805E0,-1.608750038E-2,-4.120875001E-1,2.620750070E-1
3.206559112E0,-1.608750038E-2,-4.120875001E-1,2.620750070E-1
3.209097266E0,-3.059374988E-1,-6.377249956E-1,2.182125002E-1
3.211635421E0,-3.059374988E-1,-6.377249956E-1,2.182125002E-1
3.214173560E0,-3.059374988E-1,-6.377249956E-1,2.182125002E-1
3.216711713E0,-3.059374988E-1,-6.377249956E-1,2.182125002E-1
3.219249983E0,-3.059374988E-1,-6.377249956E-1,2.182125002E-1
3.221788252E0,-3.059374988E-1,-6.377249956E-1,2.182125002E-1
3.224325929E0,-3.059374988E-1,-6.377249956E-1,2.182125002E-1
3.226863622E0,-3.059374988E-1,-6.377249956E-1,2.182125002E-1
3.229401161E0,-6.466624737E-1,-9.055749774E-1,2.014375031E-1
3.231938700E0,-6.466624737E-1,-9.055749774E-1,2.014375031E-1
3.234476560E0,-6.466624737E-1,-9.055749774E-1,2.014375031E-1
3.237014405E0,-6.466624737E-1,-9.055749774E-1,2.014375031E-1
3.239551327E0,-6.466624737E-1,-9.055749774E-1,2.014375031E-1
3.242088252E0,-6.466624737E-1,-9.055749774E-1,2.014375031E-1
3.244625353E0,-6.466624737E-1,-9.055749774E-1,2.014375031E-1
3.247162468E0,-6.466624737E-1,-9.055749774E-1,2.014375031E-1
3.249700468E0,-5.039374828E-1,-8.754624724E-1,2.523125112E-1
3.252238469E0,-5.039374828E-1,-8.754624724E-1,2.523125112E-1
3.254776213E0,-5.039374828E-1,-8.754624724E-1,2.523125112E-1
3.257313906E0,-5.039374828E-1,-8.754624724E-1,2.523125112E-1
3.259852061E0,-5.039374828E-1,-8.754624724E-1,2.523125112E-1
3.262390214E0,-5.039374828E-1,-8.754624724E-1,2.523125112E-1
3.264928813E0,-5.039374828E-1,-8.754624724E-1,2.523125112E-1
3.267467430E0,-5.039374828E-1,-8.754624724E-1,2.523125112E-1
3.270005698E0,-2.033624947E-1,1.371287465E0,-2.188724995E0
3.272543969E0,-2.033624947E-1,1.371287465E0,-2.188724995E0
3.275081641E0,-2.033624947E-1,1.371287465E0,-2.188724995E0
3.277619334E0,-2.033624947E-1,1.371287465E0,-2.188724995E0
3.280156603E0,-2.033624947E-1,1.371287465E0,-2.188724995E0
3.282693872E0,-2.033624947E-1,1.371287465E0,-2.188724995E0
3.285231700E0,-5.282750130E-1,9.998999834E-1,-2.136475086E0
3.287769545E0,-5.282750130E-1,9.998999834E-1,-2.136475086E0
3.290308007E0,-5.282750130E-1,9.998999834E-1,-2.136475086E0
3.292846468E0,-5.282750130E-1,9.998999834E-1,-2.136475086E0
3.295384564E0,-5.282750130E-1,9.998999834E-1,-2.136475086E0
3.297922681E0,-5.282750130E-1,9.998999834E-1,-2.136475086E0
3.300460565E0,-5.282750130E-1,9.998999834E-1,-2.136475086E0
3.302998450E0,-5.282750130E-1,9.998999834E-1,-2.136475086E0
3.305536464E0,-7.834749818E-1,7.020750046E-1,-2.107049942E0
3.308074463E0,-7.834749818E-1,7.020750046E-1,-2.107049942E0
3.310612001E0,-7.834749818E-1,7.020750046E-1,-2.107049942E0
3.313149540E0,-7.834749818E-1,7.020750046E-1,-2.107049942E0
3.315687228E0,-7.834749818E-1,7.020750046E-1,-2.107049942E0
3.318224921E0,-7.834749818E-1,7.020750046E-1,-2.107049942E0
3.320762574E0,-7.834749818E-1,7.020750046E-1,-2.107049942E0
3.323300227E0,-7.834749818E-1,7.020750046E-1,-2.107049942E0
3.325837940E0,-5.885000229E-1,8.724374771E-1,-2.282637596E0
3.328375671E0,-5.885000229E-1,8.724374771E-1,-2.282637596E0
3.330913170E0,-5.885000229E-1,8.724374771E-1,-2.282637596E0
3.333450671E0,-5.885000229E-1,8.724374771E-1,-2.282637596E0
3.335988209E0,-5.885000229E-1,8.724374771E-1,-2.282637596E0
3.338525748E0,-5.885000229E-1,8.724374771E-1,-2.282637596E0
3.341063015E0,-5.885000229E-1,8.724374771E-1,-2.282637596E0
3.343600286E0,-5.885000229E-1,8.724374771E-1,-2.282637596E0
3.346137921E0,-4.518249929E-1,8.982874751E-1,-2.279612541E0
3.348675574E0,-4.518249929E-1,8.982874751E-1,-2.279612541E0
3.351212958E0,-4.518249929E-1,8.982874751E-1,-2.279612541E0
3.353750343E0,-4.518249929E-1,8.982874751E-1,-2.279612541E0
3.356287776E0,-4.518249929E-1,8.982874751E-1,-2.279612541E0
3.358825199E0,-4.518249929E-1,8.982874751E-1,-2.279612541E0
3.361363661E0,-4.518249929E-1,8.982874751E-1,-2.279612541E0
3.363902122E0,-4.518249929E-1,8.982874751E-1,-2.279612541E0
3.366439010E0,-4.167625010E-1,7.823749781E-1,-2.173187494E0
3.368975897E0,-4.167625010E-1,7.823749781E-1,-2.173187494E0
3.371513166E0,-4.167625010E-1,7.823749781E-1,-2.173187494E0
3.374050435E0,-4.167625010E-1,7.823749781E-1,-2.173187494E0
3.376588752E0,-4.167625010E-1,7.823749781E-1,-2.173187494E0
3.379127061E0,-4.167625010E-1,7.823749781E-1,-2.173187494E0
3.381664598E0,-4.167625010E-1,7.823749781E-1,-2.173187494E0
3.384202137E0,-4.167625010E-1,7.823749781E-1,-2.173187494E0
3.386739959E0,-3.495250046E-1,7.012500167E-1,-2.058099985E0
3.389277766E0,-3.495250046E-1,7.012500167E-1,-2.058099985E0
3.391815650E0,-3.495250046E-1,7.012500167E-1,-2.058099985E0
3.394353535E0,-3.495250046E-1,7.012500167E-1,-2.058099985E0
3.396891689E0,-3.495250046E-1,7.012500167E-1,-2.058099985E0
3.399429844E0,-3.495250046E-1,7.012500167E-1,-2.058099985E0
3.401968420E0,-3.495250046E-1,7.012500167E-1,-2.058099985E0
3.404506997E0,-3.495250046E-1,7.012500167E-1,-2.058099985E0
3.407045063E0,-3.665750027E-1,5.307499766E-1,-1.907124996E0
3.409583102E0,-3.665750027E-1,5.307499766E-1,-1.907124996E0
3.412121410E0,-3.665750027E-1,5.307499766E-1,-1.907124996E0
3.414659717E0,-3.665750027E-1,5.307499766E-1,-1.907124996E0
3.417198471E0,-3.665750027E-1,5.307499766E-1,-1.907124996E0
3.419737242E0,-3.665750027E-1,5.307499766E-1,-1.907124996E0
3.422275356E0,-3.665750027E-1,5.307499766E-1,-1.907124996E0
3.424813471E0,-3.665750027E-1,5.307499766E-1,-1.907124996E0
3.427351357E0,-5.024250150E-1,-6.411625147E-1,-4.294124842E-1
3.429889242E0,-5.024250150E-1,-6.411625147E-1,-4.294124842E-1
3.432426895E0,-5.024250150E-1,-6.411625147E-1,-4.294124842E-1
3.434964548E0,-5.024250150E-1,-6.411625147E-1,-4.294124842E-1
3.437502733E0,-5.024250150E-1,-6.411625147E-1,-4.294124842E-1
3.440040926E0,-5.024250150E-1,-6.411625147E-1,-4.294124842E-1
3.442579502E0,-5.024250150E-1,-6.411625147E-1,-4.294124842E-1
3.445118079E0,-5.024250150E-1,-6.411625147E-1,-4.294124842E-1
3.447656694E0,-3.119874895E-1,-3.108874857E-1,-5.955125093E-1
3.450195311E0,-3.119874895E-1,-3.108874857E-1,-5.955125093E-1
3.452733371E0,-3.119874895E-1,-3.108874857E-1,-5.955125093E-1
3.455271410E0,-3.119874895E-1,-3.108874857E-1,-5.955125093E-1
3.457810487E0,-3.119874895E-1,-3.108874857E-1,-5.955125093E-1
3.460349564E0,-3.119874895E-1,-3.108874857E-1,-5.955125093E-1
3.462887876E0,-3.119874895E-1,-3.108874857E-1,-5.955125093E-1
3.465426185E0,-3.119874895E-1,-3.108874857E-1,-5.955125093E-1
3.467963992E0,-5.128749833E-2,-3.849999979E-3,-5.893250108E-1
3.470501799E0,-5.128749833E-2,-3.849999979E-3,-5.893250108E-1
3.473039939E0,-5.128749833E-2,-3.849999979E-3,-5.893250108E-1
3.475578092E0,-5.128749833E-2,-3.849999979E-3,-5.893250108E-1
3.478116553E0,-5.128749833E-2,-3.849999979E-3,-5.893250108E-1
3.480655016E0,-5.128749833E-2,-3.849999979E-3,-5.893250108E-1
3.483193322E0,-5.128749833E-2,-3.849999979E-3,-5.893250108E-1
3.485731631E0,-5.128749833E-2,-3.849999979E-3,-5.893250108E-1
3.488270747E0,-1.857624948E-1,-2.869625092E-1,-4.100250006E-1
3.490809862E0,-1.857624948E-1,-2.869625092E-1,-4.100250006E-1
3.493348427E0,-1.857624948E-1,-2.869625092E-1,-4.100250006E-1
3.495887006E0,-1.857624948E-1,-2.869625092E-1,-4.100250006E-1
3.498425006E0,-1.857624948E-1,-2.869625092E-1,-4.100250006E-1
3.500963005E0,-1.857624948E-1,-2.869625092E-1,-4.100250006E-1
3.503500890E0,-1.857624948E-1,-2.869625092E-1,-4.100250006E-1
3.506038775E0,-1.857624948E-1,-2.869625092E-1,-4.100250006E-1
3.508576159E0,-2.671625018E-1,-3.658874929E-1,-3.778499961E-1
3.511113544E0,-2.671625018E-1,-3.658874929E-1,-3.778499961E-1
3.513651094E0,-2.671625018E-1,-3.658874929E-1,-3.778499961E-1
3.516188593E0,-2.671625018E-1,-3.658874929E-1,-3.778499961E-1
3.518726478E0,-2.671625018E-1,-3.658874929E-1,-3.778499961E-1
3.521264363E0,-2.671625018E-1,-3.658874929E-1,-3.778499961E-1
3.523802467E0,-2.671625018E-1,-3.658874929E-1,-3.778499961E-1
3.526340584E0,-2.671625018E-1,-3.658874929E-1,-3.778499961E-1
3.528879083E0,-2.182125002E-1,-2.855874896E-1,-3.463625014E-1
3.531417584E0,-2.182125002E-1,-2.855874896E-1,-3.463625014E-1
3.533956049E0,-2.182125002E-1,-2.855874896E-1,-3.463625014E-1
3.536494512E0,-2.182125002E-1,-2.855874896E-1,-3.463625014E-1
3.539032781E0,-2.182125002E-1,-2.855874896E-1,-3.463625014E-1
3.541571050E0,-2.182125002E-1,-2.855874896E-1,-3.463625014E-1
3.544108728E0,-2.182125002E-1,-2.855874896E-1,-3.463625014E-1
3.546646459E0,-2.182125002E-1,-2.855874896E-1,-3.463625014E-1
3.549184920E0,-1.956624985E-1,-2.385624945E-1,-3.111625016E-1
3.551723381E0,-1.956624985E-1,-2.385624945E-1,-3.111625016E-1
3.554261804E0,-1.956624985E-1,-2.385624945E-1,-3.111625016E-1
3.556800227E0,-1.956624985E-1,-2.385624945E-1,-3.111625016E-1
3.559339959E0,-1.956624985E-1,-2.385624945E-1,-3.111625016E-1
3.561879690E0,-1.956624985E-1,-2.385624945E-1,-3.111625016E-1
3.564417553E0,-1.956624985E-1,-2.385624945E-1,-3.111625016E-1
3.566955400E0,-1.956624985E-1,-2.385624945E-1,-3.111625016E-1
3.569493208E0,-1.710499972E-1,-1.940124929E-1,-2.793999910E-1
3.572031015E0,-1.710499972E-1,-1.940124929E-1,-2.793999910E-1
3.574569155E0,-1.710499972E-1,-1.940124929E-1,-2.793999910E-1
3.577107308E0,-1.710499972E-1,-1.940124929E-1,-2.793999910E-1
3.579645154E0,-1.710499972E-1,-1.940124929E-1,-2.793999910E-1
3.582183001E0,-1.710499972E-1,-1.940124929E-1,-2.793999910E-1
3.584721020E0,-1.710499972E-1,-1.940124929E-1,-2.793999910E-1
3.587259059E0,-1.710499972E-1,-1.940124929E-1,-2.793999910E-1
3.589797519E0,-1.732500046E-1,-1.667875051E-1,-2.787125111E-1
3.592335982E0,-1.732500046E-1,-1.667875051E-1,-2.787125111E-1
3.594874866E0,-1.732500046E-1,-1.667875051E-1,-2.787125111E-1
3.597413751E0,-1.732500046E-1,-1.667875051E-1,-2.787125111E-1
3.599951442E0,-1.732500046E-1,-1.667875051E-1,-2.787125111E-1
3.602489135E0,-1.732500046E-1,-1.667875051E-1,-2.787125111E-1
3.605027651E0,-1.732500046E-1,-1.667875051E-1,-2.787125111E-1
3.607566150E0,-1.732500046E-1,-1.667875051E-1,-2.787125111E-1
3.610103342E0,-1.688500047E-1,-1.208624989E-1,-2.880625129E-1
3.612640535E0,-1.688500047E-1,-1.208624989E-1,-2.880625129E-1
3.615178401E0,-1.688500047E-1,-1.208624989E-1,-2.880625129E-1
3.617716284E0,-1.688500047E-1,-1.208624989E-1,-2.880625129E-1
3.620254129E0,-1.688500047E-1,-1.208624989E-1,-2.880625129E-1
3.622791976E0,-1.688500047E-1,-1.208624989E-1,-2.880625129E-1
3.625329790E0,-3.383874893E-1,-5.486249924E-2,-5.570124984E-1
3.627867597E0,-3.383874893E-1,-5.486249924E-2,-5.570124984E-1
3.630405443E0,-3.383874893E-1,-5.486249924E-2,-5.570124984E-1
3.632943290E0,-3.383874893E-1,-5.486249924E-2,-5.570124984E-1
3.635481602E0,-3.383874893E-1,-5.486249924E-2,-5.570124984E-1
3.638019909E0,-3.383874893E-1,-5.486249924E-2,-5.570124984E-1
3.640557601E0,-3.383874893E-1,-5.486249924E-2,-5.570124984E-1
3.643095294E0,-3.383874893E-1,-5.486249924E-2,-5.570124984E-1
3.645633982E0,-3.041499853E-1,1.153625026E-1,-6.833750010E-1
3.648172635E0,-3.041499853E-1,1.153625026E-1,-6.833750010E-1
3.650710480E0,-3.041499853E-1,1.153625026E-1,-6.833750010E-1
3.653248327E0,-3.041499853E-1,1.153625026E-1,-6.833750010E-1
3.655786265E0,-3.041499853E-1,1.153625026E-1,-6.833750010E-1
3.658324226E0,-3.041499853E-1,1.153625026E-1,-6.833750010E-1
3.660861649E0,-3.041499853E-1,1.153625026E-1,-6.833750010E-1
3.663399072E0,-3.041499853E-1,1.153625026E-1,-6.833750010E-1
3.665937227E0,-1.938749999E-1,3.103374839E-1,-7.328749895E-1
3.668475380E0,-1.938749999E-1,3.103374839E-1,-7.328749895E-1
3.671014111E0,-1.938749999E-1,3.103374839E-1,-7.328749895E-1
3.673552842E0,-1.938749999E-1,3.103374839E-1,-7.328749895E-1
3.676090697E0,-1.938749999E-1,3.103374839E-1,-7.328749895E-1
3.678628544E0,-1.938749999E-1,3.103374839E-1,-7.328749895E-1
3.681166237E0,-1.938749999E-1,3.103374839E-1,-7.328749895E-1
3.683703930E0,-1.938749999E-1,3.103374839E-1,-7.328749895E-1
3.686241814E0,-2.792625129E-1,2.305874974E-1,-7.357624769E-1
3.688779699E0,-2.792625129E-1,2.305874974E-1,-7.357624769E-1
3.691318635E0,-2.792625129E-1,2.305874974E-1,-7.357624769E-1
3.693857558E0,-2.792625129E-1,2.305874974E-1,-7.357624769E-1
3.696395557E0,-2.792625129E-1,2.305874974E-1,-7.357624769E-1
3.698933558E0,-2.792625129E-1,2.305874974E-1,-7.357624769E-1
3.701471703E0,-2.792625129E-1,2.305874974E-1,-7.357624769E-1
3.704009856E0,-2.792625129E-1,2.305874974E-1,-7.357624769E-1
3.706548317E0,-2.634499967E-1,2.267374992E-1,-6.696249843E-1
3.709086780E0,-2.634499967E-1,2.267374992E-1,-6.696249843E-1
3.711624952E0,-2.634499967E-1,2.267374992E-1,-6.696249843E-1
3.714163069E0,-2.634499967E-1,2.267374992E-1,-6.696249843E-1
3.716700914E0,-2.634499967E-1,2.267374992E-1,-6.696249843E-1
3.719238761E0,-2.634499967E-1,2.267374992E-1,-6.696249843E-1
3.721776318E0,-2.634499967E-1,2.267374992E-1,-6.696249843E-1
3.724313857E0,-2.634499967E-1,2.267374992E-1,-6.696249843E-1
3.726851703E0,-1.302125007E-1,2.842124999E-1,-4.747875035E-1
3.729389548E0,-1.302125007E-1,2.842124999E-1,-4.747875035E-1
3.731927111E0,-1.302125007E-1,2.842124999E-1,-4.747875035E-1
3.734464688E0,-1.302125007E-1,2.842124999E-1,-4.747875035E-1
3.737003266E0,-1.302125007E-1,2.842124999E-1,-4.747875035E-1
3.739541843E0,-1.302125007E-1,2.842124999E-1,-4.747875035E-1
3.742080496E0,-1.302125007E-1,2.842124999E-1,-4.747875035E-1
3.744619151E0,-1.302125007E-1,2.842124999E-1,-4.747875035E-1
3.747157880E0,8.882500231E-2,1.127500013E-1,1.447875053E-1
3.749696611E0,8.882500231E-2,1.127500013E-1,1.447875053E-1
3.752234206E0,8.882500231E-2,1.127500013E-1,1.447875053E-1
3.754771785E0,8.882500231E-2,1.127500013E-1,1.447875053E-1
3.757310517E0,8.882500231E-2,1.127500013E-1,1.447875053E-1
3.759849246E0,8.882500231E-2,1.127500013E-1,1.447875053E-1
3.762387269E0,8.882500231E-2,1.127500013E-1,1.447875053E-1
3.764925308E0,8.882500231E-2,1.127500013E-1,1.447875053E-1
3.767463463E0,3.524124920E-1,-1.468500048E-1,8.534625173E-1
3.770001616E0,3.524124920E-1,-1.468500048E-1,8.534625173E-1
3.772539765E0,3.524124920E-1,-1.468500048E-1,8.534625173E-1
3.775077920E0,3.524124920E-1,-1.468500048E-1,8.534625173E-1
3.777615611E0,3.524124920E-1,-1.468500048E-1,8.534625173E-1
3.780153304E0,3.524124920E-1,-1.468500048E-1,8.534625173E-1
3.782691862E0,3.524124920E-1,-1.468500048E-1,8.534625173E-1
3.785230439E0,3.524124920E-1,-1.468500048E-1,8.534625173E-1
3.787769092E0,7.891125083E-1,-4.090625048E-1,1.679700017E0
3.790307747E0,7.891125083E-1,-4.090625048E-1,1.679700017E0
3.792845279E0,7.891125083E-1,-4.090625048E-1,1.679700017E0
3.795382818E0,7.891125083E-1,-4.090625048E-1,1.679700017E0
3.797920626E0,7.891125083E-1,-4.090625048E-1,1.679700017E0
3.800458433E0,7.891125083E-1,-4.090625048E-1,1.679700017E0
3.802996760E0,7.891125083E-1,-4.090625048E-1,1.679700017E0
3.805535107E0,7.891125083E-1,-4.090625048E-1,1.679700017E0
3.808073376E0,7.017999887E-1,-9.817500114E-1,2.029362440E0
3.810611645E0,7.017999887E-1,-9.817500114E-1,2.029362440E0
3.813149785E0,7.017999887E-1,-9.817500114E-1,2.029362440E0
3.815687938E0,7.017999887E-1,-9.817500114E-1,2.029362440E0
3.818225939E0,7.017999887E-1,-9.817500114E-1,2.029362440E0
3.820763938E0,7.017999887E-1,-9.817500114E-1,2.029362440E0
3.823301703E0,7.017999887E-1,-9.817500114E-1,2.029362440E0
3.825839434E0,7.017999887E-1,-9.817500114E-1,2.029362440E0
3.828377704E0,7.298499942E-1,-9.140999913E-1,2.070475101E0
3.830915973E0,7.298499942E-1,-9.140999913E-1,2.070475101E0
3.833454159E0,7.298499942E-1,-9.140999913E-1,2.070475101E0
3.835992352E0,7.298499942E-1,-9.140999913E-1,2.070475101E0
3.838530198E0,7.298499942E-1,-9.140999913E-1,2.070475101E0
3.841068045E0,7.298499942E-1,-9.140999913E-1,2.070475101E0
3.843605968E0,7.298499942E-1,-9.140999913E-1,2.070475101E0
3.846143929E0,7.298499942E-1,-9.140999913E-1,2.070475101E0
3.848681621E0,7.195374966E-1,-8.562124968E-1,2.071712494E0
3.851219314E0,7.195374966E-1,-8.562124968E-1,2.071712494E0
3.853757455E0,7.195374966E-1,-8.562124968E-1,2.071712494E0
3.856295608E0,7.195374966E-1,-8.562124968E-1,2.071712494E0
3.858833145E0,7.195374966E-1,-8.562124968E-1,2.071712494E0
3.861370684E0,7.195374966E-1,-8.562124968E-1,2.071712494E0
3.863908267E0,7.195374966E-1,-8.562124968E-1,2.071712494E0
3.866445844E0,7.195374966E-1,-8.562124968E-1,2.071712494E0
3.868983035E0,6.736124754E-1,-7.672500014E-1,2.011625051E0
3.871520228E0,6.736124754E-1,-7.672500014E-1,2.011625051E0
3.874058349E0,6.736124754E-1,-7.672500014E-1,2.011625051E0
3.876596502E0,6.736124754E-1,-7.672500014E-1,2.011625051E0
3.879134655E0,6.736124754E-1,-7.672500014E-1,2.011625051E0
3.881672810E0,6.736124754E-1,-7.672500014E-1,2.011625051E0
3.884210323E0,6.736124754E-1,-7.672500014E-1,2.011625051E0
3.886747862E0,6.736124754E-1,-7.672500014E-1,2.011625051E0
3.889286017E0,4.598000050E-1,-7.360374928E-1,1.844149947E0
3.891824170E0,4.598000050E-1,-7.360374928E-1,1.844149947E0
3.894362318E0,4.598000050E-1,-7.360374928E-1,1.844149947E0
3.896900473E0,4.598000050E-1,-7.360374928E-1,1.844149947E0
3.899438780E0,4.598000050E-1,-7.360374928E-1,1.844149947E0
3.901977089E0,4.598000050E-1,-7.360374928E-1,1.844149947E0
3.904515088E0,4.598000050E-1,-7.360374928E-1,1.844149947E0
3.907053089E0,4.598000050E-1,-7.360374928E-1,1.844149947E0
3.909590781E0,3.921499848E-1,-5.351499915E-1,1.666912436E0
3.912128474E0,3.921499848E-1,-5.351499915E-1,1.666912436E0
3.914666325E0,3.921499848E-1,-5.351499915E-1,1.666912436E0
3.917204170E0,3.921499848E-1,-5.351499915E-1,1.666912436E0
3.919741862E0,3.921499848E-1,-5.351499915E-1,1.666912436E0
3.922279555E0,3.921499848E-1,-5.351499915E-1,1.666912436E0
3.924817285E0,3.921499848E-1,-5.351499915E-1,1.666912436E0
3.927355016E0,3.921499848E-1,-5.351499915E-1,1.666912436E0
3.929891900E0,3.154250085E-1,-3.139125109E-1,1.448287487E0
3.932428785E0,3.154250085E-1,-3.139125109E-1,1.448287487E0
3.934966512E0,3.154250085E-1,-3.139125109E-1,1.448287487E0
3.937504205E0,3.154250085E-1,-3.139125109E-1,1.448287487E0
3.940041742E0,3.154250085E-1,-3.139125109E-1,1.448287487E0
3.942579281E0,3.154250085E-1,-3.139125109E-1,1.448287487E0
3.945116979E0,4.922499880E-2,-3.437500075E-2,9.869750142E-1
3.947654670E0,4.922499880E-2,-3.437500075E-2,9.869750142E-1
3.950192055E0,4.922499880E-2,-3.437500075E-2,9.869750142E-1
3.952729440E0,4.922499880E-2,-3.437500075E-2,9.869750142E-1
3.955268080E0,4.922499880E-2,-3.437500075E-2,9.869750142E-1
3.957806733E0,4.922499880E-2,-3.437500075E-2,9.869750142E-1
3.960345308E0,4.922499880E-2,-3.437500075E-2,9.869750142E-1
3.962883887E0,4.922499880E-2,-3.437500075E-2,9.869750142E-1
3.965421579E0,1.080750003E-1,3.806000054E-1,6.208124757E-1
3.967959272E0,1.080750003E-1,3.806000054E-1,6.208124757E-1
3.970497311E0,1.080750003E-1,3.806000054E-1,6.208124757E-1
3.973035348E0,1.080750003E-1,3.806000054E-1,6.208124757E-1
3.975573785E0,1.080750003E-1,3.806000054E-1,6.208124757E-1
3.978112248E0,1.080750003E-1,3.806000054E-1,6.208124757E-1
3.980650246E0,1.080750003E-1,3.806000054E-1,6.208124757E-1
3.983188247E0,1.080750003E-1,3.806000054E-1,6.208124757E-1
3.985726377E0,-7.521250099E-2,2.796750069E-1,5.032500029E-1
3.988264492E0,-7.521250099E-2,2.796750069E-1,5.032500029E-1
3.990801915E0,-7.521250099E-2,2.796750069E-1,5.032500029E-1
3.993339338E0,-7.521250099E-2,2.796750069E-1,5.032500029E-1
3.995877767E0,-7.521250099E-2,2.796750069E-1,5.032500029E-1
3.998416190E0,-7.521250099E-2,2.796750069E-1,5.032500029E-1
4.000953765E0,-7.521250099E-2,2.796750069E-1,5.032500029E-1
4.003491344E0,-7.521250099E-2,2.796750069E-1,5.032500029E-1
4.006028555E0,-1.380500048E-1,2.486000061E-1,4.185499847E-1
4.008565748E0,-1.380500048E-1,2.486000061E-1,4.185499847E-1
4.011102671E0,-1.380500048E-1,2.486000061E-1,4.185499847E-1
4.013639594E0,-1.380500048E-1,2.486000061E-1,4.185499847E-1
4.016177633E0,-1.380500048E-1,2.486000061E-1,4.185499847E-1
4.018715670E0,-1.380500048E-1,2.486000061E-1,4.185499847E-1
4.021253977E0,-1.380500048E-1,2.486000061E-1,4.185499847E-1
4.023792286E0,-1.380500048E-1,2.486000061E-1,4.185499847E-1
4.026330246E0,-1.282874942E-1,2.459875047E-1,3.660250008E-1
4.028868209E0,-1.282874942E-1,2.459875047E-1,3.660250008E-1
4.031405647E0,-1.282874942E-1,2.459875047E-1,3.660250008E-1
4.033943070E0,-1.282874942E-1,2.459875047E-1,3.660250008E-1
4.036480570E0,-1.282874942E-1,2.459875047E-1,3.660250008E-1
4.039018069E0,-1.282874942E-1,2.459875047E-1,3.660250008E-1
4.041556088E0,-1.282874942E-1,2.459875047E-1,3.660250008E-1
4.044094089E0,-1.282874942E-1,2.459875047E-1,3.660250008E-1
4.046631819E0,-9.955000132E-2,2.521750033E-1,3.192749918E-1
4.049169550E0,-9.955000132E-2,2.521750033E-1,3.192749918E-1
4.051707729E0,-9.955000132E-2,2.521750033E-1,3.192749918E-1
4.054245882E0,-9.955000132E-2,2.521750033E-1,3.192749918E-1
4.056783420E0,-9.955000132E-2,2.521750033E-1,3.192749918E-1
4.059320959E0,-9.955000132E-2,2.521750033E-1,3.192749918E-1
4.061858608E0,-9.955000132E-2,2.521750033E-1,3.192749918E-1
4.064396261E0,-9.955000132E-2,2.521750033E-1,3.192749918E-1
4.066933222E0,3.946249932E-2,3.359124959E-1,2.964499891E-1
4.069470185E0,3.946249932E-2,3.359124959E-1,2.964499891E-1
4.072007863E0,3.946249932E-2,3.359124959E-1,2.964499891E-1
4.074545556E0,3.946249932E-2,3.359124959E-1,2.964499891E-1
4.077083093E0,3.946249932E-2,3.359124959E-1,2.964499891E-1
4.079620632E0,3.946249932E-2,3.359124959E-1,2.964499891E-1
4.082158589E0,3.946249932E-2,3.359124959E-1,2.964499891E-1
4.084696550E0,3.946249932E-2,3.359124959E-1,2.964499891E-1
4.087234280E0,7.768750191E-2,3.301374912E-1,2.771999836E-1
4.089772011E0,7.768750191E-2,3.301374912E-1,2.771999836E-1
4.092309853E0,7.768750191E-2,3.301374912E-1,2.771999836E-1
4.094847660E0,7.768750191E-2,3.301374912E-1,2.771999836E-1
4.097385082E0,7.768750191E-2,3.301374912E-1,2.771999836E-1
4.099922507E0,7.768750191E-2,3.301374912E-1,2.771999836E-1
4.102459853E0,7.768750191E-2,3.301374912E-1,2.771999836E-1
4.104997238E0,7.768750191E-2,3.301374912E-1,2.771999836E-1
4.107534892E0,7.768750191E-2,2.939749956E-1,2.641375065E-1
4.110072545E0,7.768750191E-2,2.939749956E-1,2.641375065E-1
4.112610092E0,7.768750191E-2,2.939749956E-1,2.641375065E-1
4.115147631E0,7.768750191E-2,2.939749956E-1,2.641375065E-1
4.117685170E0,7.768750191E-2,2.939749956E-1,2.641375065E-1
4.120222709E0,7.768750191E-2,2.939749956E-1,2.641375065E-1
4.122759939E0,7.768750191E-2,2.939749956E-1,2.641375065E-1
4.125297170E0,7.768750191E-2,2.939749956E-1,2.641375065E-1
4.127833631E0,8.621250093E-2,2.767874897E-1,2.512125075E-1
4.130370092E0,8.621250093E-2,2.767874897E-1,2.512125075E-1
4.132907589E0,8.621250093E-2,2.767874897E-1,2.512125075E-1
4.135445126E0,8.621250093E-2,2.767874897E-1,2.512125075E-1
4.137982818E0,8.621250093E-2,2.767874897E-1,2.512125075E-1
4.140520511E0,8.621250093E-2,2.767874897E-1,2.512125075E-1
4.143058092E0,8.621250093E-2,2.767874897E-1,2.512125075E-1
4.145595671E0,8.621250093E-2,2.767874897E-1,2.512125075E-1
4.148133825E0,9.336250275E-2,2.613874972E-1,2.402125001E-1
4.150671978E0,9.336250275E-2,2.613874972E-1,2.402125001E-1
4.153209809E0,9.336250275E-2,2.613874972E-1,2.402125001E-1
4.155747656E0,9.336250275E-2,2.613874972E-1,2.402125001E-1
4.158285925E0,9.336250275E-2,2.613874972E-1,2.402125001E-1
4.160824194E0,9.336250275E-2,2.613874972E-1,2.402125001E-1
4.163361924E0,9.336250275E-2,2.613874972E-1,2.402125001E-1
4.165899655E0,9.336250275E-2,2.613874972E-1,2.402125001E-1
4.168437156E0,9.473749995E-2,2.411749959E-1,2.347124964E-1
4.170974655E0,9.473749995E-2,2.411749959E-1,2.347124964E-1
4.173512373E0,9.473749995E-2,2.411749959E-1,2.347124964E-1
4.176050104E0,9.473749995E-2,2.411749959E-1,2.347124964E-1
4.178588372E0,9.473749995E-2,2.411749959E-1,2.347124964E-1
4.181126641E0,9.473749995E-2,2.411749959E-1,2.347124964E-1
4.183664809E0,9.473749995E-2,2.411749959E-1,2.347124964E-1
4.186202964E0,9.473749995E-2,2.411749959E-1,2.347124964E-1
4.188740232E0,7.246249914E-2,1.959374994E-1,2.356749922E-1
4.191277501E0,7.246249914E-2,1.959374994E-1,2.356749922E-1
4.193814526E0,7.246249914E-2,1.959374994E-1,2.356749922E-1
4.196351565E0,7.246249914E-2,1.959374994E-1,2.356749922E-1
4.198888796E0,7.246249914E-2,1.959374994E-1,2.356749922E-1
4.201426027E0,7.246249914E-2,1.959374994E-1,2.356749922E-1
4.203964060E0,7.246249914E-2,1.959374994E-1,2.356749922E-1
4.206502099E0,7.246249914E-2,1.959374994E-1,2.356749922E-1
4.209039328E0,2.287999988E-1,-7.163749635E-2,6.386874914E-1
4.211576559E0,2.287999988E-1,-7.163749635E-2,6.386874914E-1
4.214114199E0,2.287999988E-1,-7.163749635E-2,6.386874914E-1
4.216651852E0,2.287999988E-1,-7.163749635E-2,6.386874914E-1
4.219189390E0,2.287999988E-1,-7.163749635E-2,6.386874914E-1
4.221726929E0,2.287999988E-1,-7.163749635E-2,6.386874914E-1
4.224264468E0,2.287999988E-1,-7.163749635E-2,6.386874914E-1
4.226802007E0,2.287999988E-1,-7.163749635E-2,6.386874914E-1
4.229339853E0,2.062499970E-1,-1.187999994E-1,6.429499984E-1
4.231877698E0,2.062499970E-1,-1.187999994E-1,6.429499984E-1
4.234414828E0,2.062499970E-1,-1.187999994E-1,6.429499984E-1
4.236951945E0,2.062499970E-1,-1.187999994E-1,6.429499984E-1
4.239489637E0,2.062499970E-1,-1.187999994E-1,6.429499984E-1
4.242027328E0,2.062499970E-1,-1.187999994E-1,6.429499984E-1
4.244565477E0,2.062499970E-1,-1.187999994E-1,6.429499984E-1
4.247103632E0,2.062499970E-1,-1.187999994E-1,6.429499984E-1
4.249642670E0,1.362625062E-1,-2.079000026E-1,6.498249769E-1
4.252181709E0,1.362625062E-1,-2.079000026E-1,6.498249769E-1
4.254719881E0,1.362625062E-1,-2.079000026E-1,6.498249769E-1
4.257258074E0,1.362625062E-1,-2.079000026E-1,6.498249769E-1
4.259796498E0,1.362625062E-1,-2.079000026E-1,6.498249769E-1
4.262334921E0,1.362625062E-1,-2.079000026E-1,6.498249769E-1
4.264872477E0,1.362625062E-1,-2.079000026E-1,6.498249769E-1
4.267410056E0,1.362625062E-1,-2.079000026E-1,6.498249769E-1
4.269947247E0,6.407500058E-2,-2.930124998E-1,6.554625034E-1
4.272484440E0,6.407500058E-2,-2.930124998E-1,6.554625034E-1
4.275021834E0,6.407500058E-2,-2.930124998E-1,6.554625034E-1
4.277559219E0,6.407500058E-2,-2.930124998E-1,6.554625034E-1
4.280096910E0,6.407500058E-2,-2.930124998E-1,6.554625034E-1
4.282634603E0,6.407500058E-2,-2.930124998E-1,6.554625034E-1
4.285172309E0,4.399999976E-3,-3.796375096E-1,6.726499796E-1
4.287710002E0,4.399999976E-3,-3.796375096E-1,6.726499796E-1
4.290247694E0,4.399999976E-3,-3.796375096E-1,6.726499796E-1
4.292785387E0,4.399999976E-3,-3.796375096E-1,6.726499796E-1
4.295322228E0,4.399999976E-3,-3.796375096E-1,6.726499796E-1
4.297858997E0,4.399999976E-3,-3.796375096E-1,6.726499796E-1
4.300395921E0,4.399999976E-3,-3.796375096E-1,6.726499796E-1
4.302932844E0,4.399999976E-3,-3.796375096E-1,6.726499796E-1
4.305470982E0,-1.429999992E-2,-4.086500108E-1,6.719624996E-1
4.308009137E0,-1.429999992E-2,-4.086500108E-1,6.719624996E-1
4.310546366E0,-1.429999992E-2,-4.086500108E-1,6.719624996E-1
4.313083597E0,-1.429999992E-2,-4.086500108E-1,6.719624996E-1
4.315621021E0,-1.429999992E-2,-4.086500108E-1,6.719624996E-1
4.318158444E0,-1.429999992E-2,-4.086500108E-1,6.719624996E-1
4.320696252E0,-1.429999992E-2,-4.086500108E-1,6.719624996E-1
4.323234059E0,-1.429999992E-2,-4.086500108E-1,6.719624996E-1
4.325771597E0,-3.409999982E-2,-4.149749875E-1,6.517499685E-1
4.328309136E0,-3.409999982E-2,-4.149749875E-1,6.517499685E-1
4.330845906E0,-3.409999982E-2,-4.149749875E-1,6.517499685E-1
4.333382675E0,-3.409999982E-2,-4.149749875E-1,6.517499685E-1
4.335919762E0,-3.409999982E-2,-4.149749875E-1,6.517499685E-1
4.338456839E0,-3.409999982E-2,-4.149749875E-1,6.517499685E-1
4.340993953E0,-3.409999982E-2,-4.149749875E-1,6.517499685E-1
4.343531070E0,-3.409999982E-2,-4.149749875E-1,6.517499685E-1
4.346068881E0,-4.936249927E-2,-3.695999980E-1,5.924875140E-1
4.348606728E0,-4.936249927E-2,-3.695999980E-1,5.924875140E-1
4.351144265E0,-4.936249927E-2,-3.695999980E-1,5.924875140E-1
4.353681804E0,-4.936249927E-2,-3.695999980E-1,5.924875140E-1
4.356219459E0,-4.936249927E-2,-3.695999980E-1,5.924875140E-1
4.358757112E0,-4.936249927E-2,-3.695999980E-1,5.924875140E-1
4.361295151E0,-4.936249927E-2,-3.695999980E-1,5.924875140E-1
4.363833190E0,-4.936249927E-2,-3.695999980E-1,5.924875140E-1
4.366370573E0,-2.547875047E-1,-8.387500048E-2,1.623875052E-1
4.368907958E0,-2.547875047E-1,-8.387500048E-2,1.623875052E-1
4.371445959E0,-2.547875047E-1,-8.387500048E-2,1.623875052E-1
4.373983958E0,-2.547875047E-1,-8.387500048E-2,1.623875052E-1
4.376521303E0,-2.547875047E-1,-8.387500048E-2,1.623875052E-1
4.379058650E0,-2.547875047E-1,-8.387500048E-2,1.623875052E-1
4.381596377E0,-2.547875047E-1,-8.387500048E-2,1.623875052E-1
4.384134108E0,-2.547875047E-1,-8.387500048E-2,1.623875052E-1
4.386671645E0,-2.722499967E-1,-3.629999980E-2,9.638749808E-2
4.389209184E0,-2.722499967E-1,-3.629999980E-2,9.638749808E-2
4.391745791E0,-2.722499967E-1,-3.629999980E-2,9.638749808E-2
4.394282406E0,-2.722499967E-1,-3.629999980E-2,9.638749808E-2
4.396819907E0,-2.722499967E-1,-3.629999980E-2,9.638749808E-2
4.399357406E0,-2.722499967E-1,-3.629999980E-2,9.638749808E-2
4.401894675E0,-2.722499967E-1,-3.629999980E-2,9.638749808E-2
4.404431944E0,-2.722499967E-1,-3.629999980E-2,9.638749808E-2
4.406969599E0,-2.106499970E-1,1.058750041E-2,8.758749813E-2
4.409507252E0,-2.106499970E-1,1.058750041E-2,8.758749813E-2
4.412044929E0,-2.106499970E-1,1.058750041E-2,8.758749813E-2
4.414582622E0,-2.106499970E-1,1.058750041E-2,8.758749813E-2
4.417120160E0,-2.106499970E-1,1.058750041E-2,8.758749813E-2
4.419657699E0,-2.106499970E-1,1.058750041E-2,8.758749813E-2
4.422195733E0,-2.106499970E-1,1.058750041E-2,8.758749813E-2
4.424733770E0,-2.106499970E-1,1.058750041E-2,8.758749813E-2
4.427271731E0,-1.867250055E-1,4.771250114E-2,5.995000154E-2
4.429809694E0,-1.867250055E-1,4.771250114E-2,5.995000154E-2
4.432347916E0,-1.867250055E-1,4.771250114E-2,5.995000154E-2
4.434886107E0,-1.867250055E-1,4.771250114E-2,5.995000154E-2
4.437424377E0,-1.867250055E-1,4.771250114E-2,5.995000154E-2
4.439962646E0,-1.867250055E-1,4.771250114E-2,5.995000154E-2
4.442500194E0,-1.867250055E-1,4.771250114E-2,5.995000154E-2
4.445037733E0,-1.867250055E-1,4.771250114E-2,5.995000154E-2
4.447576042E0,-1.927749962E-1,1.238875017E-1,-2.667500079E-2
4.450114349E0,-1.927749962E-1,1.238875017E-1,-2.667500079E-2
4.452651886E0,-1.927749962E-1,1.238875017E-1,-2.667500079E-2
4.455189425E0,-1.927749962E-1,1.238875017E-1,-2.667500079E-2
4.457727272E0,-1.927749962E-1,1.238875017E-1,-2.667500079E-2
4.460265117E0,-1.927749962E-1,1.238875017E-1,-2.667500079E-2
4.462802640E0,-1.927749962E-1,1.238875017E-1,-2.667500079E-2
4.465340179E0,-1.927749962E-1,1.238875017E-1,-2.667500079E-2
4.467878065E0,-2.083124965E-1,1.711875051E-1,-9.322500229E-2
4.470415948E0,-2.083124965E-1,1.711875051E-1,-9.322500229E-2
4.472953924E0,-2.083124965E-1,1.711875051E-1,-9.322500229E-2
4.475491887E0,-2.083124965E-1,1.711875051E-1,-9.322500229E-2
4.478029617E0,-2.083124965E-1,1.711875051E-1,-9.322500229E-2
4.480567348E0,-2.083124965E-1,1.711875051E-1,-9.322500229E-2
4.483104275E0,-2.083124965E-1,1.711875051E-1,-9.322500229E-2
4.485641198E0,-2.083124965E-1,1.711875051E-1,-9.322500229E-2
4.488178122E0,-2.041874975E-1,2.177999914E-1,-1.473999918E-1
4.490715045E0,-2.041874975E-1,2.177999914E-1,-1.473999918E-1
4.493252281E0,-2.041874975E-1,2.177999914E-1,-1.473999918E-1
4.495789512E0,-2.041874975E-1,2.177999914E-1,-1.473999918E-1
4.498326588E0,-2.041874975E-1,2.177999914E-1,-1.473999918E-1
4.500863665E0,-2.041874975E-1,2.177999914E-1,-1.473999918E-1
4.503401050E0,-2.041874975E-1,2.177999914E-1,-1.473999918E-1
4.505938435E0,-2.041874975E-1,2.177999914E-1,-1.473999918E-1
4.508476434E0,-1.952500045E-1,2.318249941E-1,-1.648624986E-1
4.511014435E0,-1.952500045E-1,2.318249941E-1,-1.648624986E-1
4.513551837E0,-1.952500045E-1,2.318249941E-1,-1.648624986E-1
4.516089222E0,-1.952500045E-1,2.318249941E-1,-1.648624986E-1
4.518627223E0,-1.952500045E-1,2.318249941E-1,-1.648624986E-1
4.521165222E0,-1.952500045E-1,2.318249941E-1,-1.648624986E-1
4.523702159E0,-1.952500045E-1,2.318249941E-1,-1.648624986E-1
4.526239084E0,-1.952500045E-1,2.318249941E-1,-1.648624986E-1
4.528776584E0,-1.805374920E-1,2.177999914E-1,-1.491875052E-1
4.531314083E0,-1.805374920E-1,2.177999914E-1,-1.491875052E-1
4.533851621E0,-1.805374920E-1,2.177999914E-1,-1.491875052E-1
4.536389160E0,-1.805374920E-1,2.177999914E-1,-1.491875052E-1
4.538926853E0,-1.805374920E-1,2.177999914E-1,-1.491875052E-1
4.541464546E0,-1.805374920E-1,2.177999914E-1,-1.491875052E-1
4.544002433E0,-1.805374920E-1,2.177999914E-1,-1.491875052E-1
4.546540318E0,-1.805374920E-1,2.177999914E-1,-1.491875052E-1
4.549077817E0,-1.402499974E-1,2.113374919E-1,-1.215500012E-1
4.551615318E0,-1.402499974E-1,2.113374919E-1,-1.215500012E-1
4.554152714E0,-1.402499974E-1,2.113374919E-1,-1.215500012E-1
4.556690099E0,-1.402499974E-1,2.113374919E-1,-1.215500012E-1
4.559226868E0,-1.402499974E-1,2.113374919E-1,-1.215500012E-1
4.561763637E0,-1.402499974E-1,2.113374919E-1,-1.215500012E-1
4.564300906E0,-1.402499974E-1,2.113374919E-1,-1.215500012E-1
4.566838175E0,-1.402499974E-1,2.113374919E-1,-1.215500012E-1
4.569375982E0,-8.827500045E-2,2.029500008E-1,-8.524999768E-2
4.571913791E0,-8.827500045E-2,2.029500008E-1,-8.524999768E-2
4.574451188E0,-8.827500045E-2,2.029500008E-1,-8.524999768E-2
4.576988573E0,-8.827500045E-2,2.029500008E-1,-8.524999768E-2
4.579526113E0,-8.827500045E-2,2.029500008E-1,-8.524999768E-2
4.582063650E0,-8.827500045E-2,2.029500008E-1,-8.524999768E-2
4.584600765E0,-8.827500045E-2,2.029500008E-1,-8.524999768E-2
4.587137882E0,-8.827500045E-2,2.029500008E-1,-8.524999768E-2
4.589675228E0,-4.455000162E-2,1.915374994E-1,-5.692499876E-2
4.592212573E0,-4.455000162E-2,1.915374994E-1,-5.692499876E-2
4.594750762E0,-4.455000162E-2,1.915374994E-1,-5.692499876E-2
4.597288955E0,-4.455000162E-2,1.915374994E-1,-5.692499876E-2
4.599827069E0,-4.455000162E-2,1.915374994E-1,-5.692499876E-2
4.602365186E0,-4.455000162E-2,1.915374994E-1,-5.692499876E-2
4.604903522E0,-4.455000162E-2,1.915374994E-1,-5.692499876E-2
4.607441867E0,-4.455000162E-2,1.915374994E-1,-5.692499876E-2
4.609979828E0,8.387500048E-2,1.684374958E-1,4.496249929E-2
4.612517791E0,8.387500048E-2,1.684374958E-1,4.496249929E-2
4.615055637E0,8.387500048E-2,1.684374958E-1,4.496249929E-2
4.617593482E0,8.387500048E-2,1.684374958E-1,4.496249929E-2
4.620130752E0,8.387500048E-2,1.684374958E-1,4.496249929E-2
4.622668021E0,8.387500048E-2,1.684374958E-1,4.496249929E-2
4.625205387E0,2.715624869E-1,1.561999917E-1,1.824624985E-1
4.627742732E0,2.715624869E-1,1.561999917E-1,1.824624985E-1
4.630279963E0,2.715624869E-1,1.561999917E-1,1.824624985E-1
4.632817194E0,2.715624869E-1,1.561999917E-1,1.824624985E-1
4.635354925E0,2.715624869E-1,1.561999917E-1,1.824624985E-1
4.637892656E0,2.715624869E-1,1.561999917E-1,1.824624985E-1
4.640430925E0,2.715624869E-1,1.561999917E-1,1.824624985E-1
4.642969194E0,2.715624869E-1,1.561999917E-1,1.824624985E-1
4.645508155E0,3.176249862E-1,1.399749964E-1,2.079000026E-1
4.648047118E0,3.176249862E-1,1.399749964E-1,2.079000026E-1
4.650584972E0,3.176249862E-1,1.399749964E-1,2.079000026E-1
4.653122819E0,3.176249862E-1,1.399749964E-1,2.079000026E-1
4.655660512E0,3.176249862E-1,1.399749964E-1,2.079000026E-1
4.658198205E0,3.176249862E-1,1.399749964E-1,2.079000026E-1
4.660736046E0,3.176249862E-1,1.399749964E-1,2.079000026E-1
4.663273891E0,3.176249862E-1,1.399749964E-1,2.079000026E-1
4.665811390E0,2.850374877E-1,1.095874980E-1,1.828749925E-1
4.668348891E0,2.850374877E-1,1.095874980E-1,1.828749925E-1
4.670887508E0,2.850374877E-1,1.095874980E-1,1.828749925E-1
4.673426123E0,2.850374877E-1,1.095874980E-1,1.828749925E-1
4.675964930E0,2.850374877E-1,1.095874980E-1,1.828749925E-1
4.678503737E0,2.850374877E-1,1.095874980E-1,1.828749925E-1
4.681042006E0,2.850374877E-1,1.095874980E-1,1.828749925E-1
4.683580277E0,2.850374877E-1,1.095874980E-1,1.828749925E-1
4.686118584E0,2.540999949E-1,8.593750000E-2,1.524875015E-1
4.688656891E0,2.540999949E-1,8.593750000E-2,1.524875015E-1
4.691194876E0,2.540999949E-1,8.593750000E-2,1.524875015E-1
4.693732877E0,2.540999949E-1,8.593750000E-2,1.524875015E-1
4.696270569E0,2.540999949E-1,8.593750000E-2,1.524875015E-1
4.698808262E0,2.540999949E-1,8.593750000E-2,1.524875015E-1
4.701346146E0,2.540999949E-1,8.593750000E-2,1.524875015E-1
4.703884031E0,2.540999949E-1,8.593750000E-2,1.524875015E-1
4.706421684E0,2.374625057E-1,7.259999961E-2,1.262249947E-1
4.708959339E0,2.374625057E-1,7.259999961E-2,1.262249947E-1
4.711496449E0,2.374625057E-1,7.259999961E-2,1.262249947E-1
4.714033564E0,2.374625057E-1,7.259999961E-2,1.262249947E-1
4.716570602E0,2.374625057E-1,7.259999961E-2,1.262249947E-1
4.719107641E0,2.374625057E-1,7.259999961E-2,1.262249947E-1
4.721645223E0,2.374625057E-1,7.259999961E-2,1.262249947E-1
4.724182800E0,2.374625057E-1,7.259999961E-2,1.262249947E-1
4.726721569E0,2.349874973E-1,1.137124971E-1,5.431250110E-2
4.729260338E0,2.349874973E-1,1.137124971E-1,5.431250110E-2
4.731798915E0,2.349874973E-1,1.137124971E-1,5.431250110E-2
4.734337492E0,2.349874973E-1,1.137124971E-1,5.431250110E-2
4.736876103E0,2.349874973E-1,1.137124971E-1,5.431250110E-2
4.739414718E0,2.349874973E-1,1.137124971E-1,5.431250110E-2
4.741953525E0,2.349874973E-1,1.137124971E-1,5.431250110E-2
4.744492334E0,2.349874973E-1,1.137124971E-1,5.431250110E-2
4.747030299E0,2.299000025E-1,1.403875053E-1,-4.674999975E-3
4.749568262E0,2.299000025E-1,1.403875053E-1,-4.674999975E-3
4.752106146E0,2.299000025E-1,1.403875053E-1,-4.674999975E-3
4.754644031E0,2.299000025E-1,1.403875053E-1,-4.674999975E-3
4.757181549E0,2.299000025E-1,1.403875053E-1,-4.674999975E-3
4.759719050E0,2.299000025E-1,1.403875053E-1,-4.674999975E-3
4.762257050E0,2.299000025E-1,1.403875053E-1,-4.674999975E-3
4.764795049E0,2.299000025E-1,1.403875053E-1,-4.674999975E-3
4.767332894E0,2.585000098E-1,2.638624907E-1,-1.667875051E-1
4.769870741E0,2.585000098E-1,2.638624907E-1,-1.667875051E-1
4.772408473E0,2.585000098E-1,2.638624907E-1,-1.667875051E-1
4.774946204E0,2.585000098E-1,2.638624907E-1,-1.667875051E-1
4.777484483E0,2.585000098E-1,2.638624907E-1,-1.667875051E-1
4.780022752E0,2.585000098E-1,2.638624907E-1,-1.667875051E-1
4.782560289E0,2.585000098E-1,2.638624907E-1,-1.667875051E-1
4.785097828E0,2.585000098E-1,2.638624907E-1,-1.667875051E-1
4.787635506E0,2.585000098E-1,3.295874894E-1,-2.916375101E-1
4.790173199E0,2.585000098E-1,3.295874894E-1,-2.916375101E-1
4.792711044E0,2.585000098E-1,3.295874894E-1,-2.916375101E-1
4.795248891E0,2.585000098E-1,3.295874894E-1,-2.916375101E-1
4.797787079E0,2.585000098E-1,3.295874894E-1,-2.916375101E-1
4.800325272E0,2.585000098E-1,3.295874894E-1,-2.916375101E-1
4.802863425E0,2.585000098E-1,3.295874894E-1,-2.916375101E-1
4.805401580E0,2.585000098E-1,3.295874894E-1,-2.916375101E-1
4.807939251E0,2.578125000E-1,3.352249861E-1,-3.396250010E-1
4.810476944E0,2.578125000E-1,3.352249861E-1,-3.396250010E-1
4.813015252E0,2.578125000E-1,3.352249861E-1,-3.396250010E-1
4.815553559E0,2.578125000E-1,3.352249861E-1,-3.396250010E-1
4.818090769E0,2.578125000E-1,3.352249861E-1,-3.396250010E-1
4.820628000E0,2.578125000E-1,3.352249861E-1,-3.396250010E-1
4.823165501E0,2.578125000E-1,3.352249861E-1,-3.396250010E-1
4.825703000E0,2.578125000E-1,3.352249861E-1,-3.396250010E-1
4.828240231E0,2.811875045E-1,3.462249935E-1,-3.678124845E-1
4.830777462E0,2.811875045E-1,3.462249935E-1,-3.678124845E-1
4.833314886E0,2.811875045E-1,3.462249935E-1,-3.678124845E-1
4.835852309E0,2.811875045E-1,3.462249935E-1,-3.678124845E-1
4.838389346E0,2.811875045E-1,3.462249935E-1,-3.678124845E-1
4.840926385E0,2.811875045E-1,3.462249935E-1,-3.678124845E-1
4.843464579E0,2.811875045E-1,3.462249935E-1,-3.678124845E-1
4.846002770E0,2.811875045E-1,3.462249935E-1,-3.678124845E-1
4.848540423E0,3.046999872E-1,3.363249898E-1,-3.579125106E-1
4.851078078E0,3.046999872E-1,3.363249898E-1,-3.579125106E-1
4.853616078E0,3.046999872E-1,3.363249898E-1,-3.579125106E-1
4.856154077E0,3.046999872E-1,3.363249898E-1,-3.579125106E-1
4.858692274E0,3.046999872E-1,3.363249898E-1,-3.579125106E-1
4.861230467E0,3.046999872E-1,3.363249898E-1,-3.579125106E-1
4.863768159E0,3.046999872E-1,3.363249898E-1,-3.579125106E-1
4.866305852E0,3.046999872E-1,3.363249898E-1,-3.579125106E-1
4.868843241E0,3.335750103E-1,3.174875081E-1,-3.213374913E-1
4.871380626E0,3.335750103E-1,3.174875081E-1,-3.213374913E-1
4.873918281E0,3.335750103E-1,3.174875081E-1,-3.213374913E-1
4.876455934E0,3.335750103E-1,3.174875081E-1,-3.213374913E-1
4.878993933E0,3.335750103E-1,3.174875081E-1,-3.213374913E-1
4.881531934E0,3.335750103E-1,3.174875081E-1,-3.213374913E-1
4.884069933E0,3.335750103E-1,3.174875081E-1,-3.213374913E-1
4.886607934E0,3.335750103E-1,3.174875081E-1,-3.213374913E-1
4.889145986E0,3.372874856E-1,2.719750106E-1,-2.696374953E-1
4.891684025E0,3.372874856E-1,2.719750106E-1,-2.696374953E-1
4.894222139E0,3.372874856E-1,2.719750106E-1,-2.696374953E-1
4.896760256E0,3.372874856E-1,2.719750106E-1,-2.696374953E-1
4.899298591E0,3.372874856E-1,2.719750106E-1,-2.696374953E-1
4.901836938E0,3.372874856E-1,2.719750106E-1,-2.696374953E-1
4.904375399E0,3.372874856E-1,2.719750106E-1,-2.696374953E-1
4.906913862E0,3.372874856E-1,2.719750106E-1,-2.696374953E-1
4.909451822E0,3.388000131E-1,2.263250053E-1,-2.219250053E-1
4.911989785E0,3.388000131E-1,2.263250053E-1,-2.219250053E-1
4.914528131E0,3.388000131E-1,2.263250053E-1,-2.219250053E-1
4.917066476E0,3.388000131E-1,2.263250053E-1,-2.219250053E-1
4.919604885E0,3.388000131E-1,2.263250053E-1,-2.219250053E-1
4.922143308E0,3.388000131E-1,2.263250053E-1,-2.219250053E-1
4.924681462E0,3.388000131E-1,2.263250053E-1,-2.219250053E-1
4.927219617E0,3.388000131E-1,2.263250053E-1,-2.219250053E-1
4.929757487E0,3.377000093E-1,1.859000027E-1,-1.845249981E-1
4.932295372E0,3.377000093E-1,1.859000027E-1,-1.845249981E-1
4.934833487E0,3.377000093E-1,1.859000027E-1,-1.845249981E-1
4.937371602E0,3.377000093E-1,1.859000027E-1,-1.845249981E-1
4.939909933E0,3.377000093E-1,1.859000027E-1,-1.845249981E-1
4.942448280E0,3.377000093E-1,1.859000027E-1,-1.845249981E-1
4.944985663E0,3.377000093E-1,1.859000027E-1,-1.845249981E-1
4.947523048E0,3.377000093E-1,1.859000027E-1,-1.845249981E-1
4.950060453E0,3.366000056E-1,1.379124969E-1,-1.328250021E-1
4.952597838E0,3.366000056E-1,1.379124969E-1,-1.328250021E-1
4.955135068E0,3.366000056E-1,1.379124969E-1,-1.328250021E-1
4.957672299E0,3.366000056E-1,1.379124969E-1,-1.328250021E-1
4.960210401E0,3.366000056E-1,1.379124969E-1,-1.328250021E-1
4.962748516E0,3.366000056E-1,1.379124969E-1,-1.328250021E-1
4.965285745E0,3.221625090E-1,6.503749639E-2,-5.376249924E-2
4.967822978E0,3.221625090E-1,6.503749639E-2,-5.376249924E-2
4.970361051E0,3.221625090E-1,6.503749639E-2,-5.376249924E-2
4.972899088E0,3.221625090E-1,6.503749639E-2,-5.376249924E-2
4.975437088E0,3.221625090E-1,6.503749639E-2,-5.376249924E-2
4.977975089E0,3.221625090E-1,6.503749639E-2,-5.376249924E-2
4.980512784E0,3.221625090E-1,6.503749639E-2,-5.376249924E-2
4.983050477E0,3.221625090E-1,6.503749639E-2,-5.376249924E-2
4.985588593E0,2.880625129E-1,-1.512499992E-2,1.732499897E-2
4.988126708E0,2.880625129E-1,-1.512499992E-2,1.732499897E-2
4.990664745E0,2.880625129E-1,-1.512499992E-2,1.732499897E-2
4.993202784E0,2.880625129E-1,-1.512499992E-2,1.732499897E-2
4.995741362E0,2.880625129E-1,-1.512499992E-2,1.732499897E-2
4.998279939E0,2.880625129E-1,-1.512499992E-2,1.732499897E-2
5.000817360E0,2.880625129E-1,-1.512499992E-2,1.732499897E-2
5.003354785E0,2.880625129E-1,-1.512499992E-2,1.732499897E-2
5.005892323E0,2.736249864E-1,-7.479999959E-2,8.346249908E-2
5.008429862E0,2.736249864E-1,-7.479999959E-2,8.346249908E-2
5.010967343E0,2.736249864E-1,-7.479999959E-2,8.346249908E-2
5.013504844E0,2.736249864E-1,-7.479999959E-2,8.346249908E-2
5.016042382E0,2.736249864E-1,-7.479999959E-2,8.346249908E-2
5.018579921E0,2.736249864E-1,-7.479999959E-2,8.346249908E-2
5.021117467E0,2.736249864E-1,-7.479999959E-2,8.346249908E-2
5.023655006E0,2.736249864E-1,-7.479999959E-2,8.346249908E-2
5.026193467E0,2.549250126E-1,-1.099999994E-1,1.134374961E-1
5.028731930E0,2.549250126E-1,-1.099999994E-1,1.134374961E-1
5.031270853E0,2.549250126E-1,-1.099999994E-1,1.134374961E-1
5.033809814E0,2.549250126E-1,-1.099999994E-1,1.134374961E-1
5.036348275E0,2.549250126E-1,-1.099999994E-1,1.134374961E-1
5.038886738E0,2.549250126E-1,-1.099999994E-1,1.134374961E-1
5.041424733E0,2.549250126E-1,-1.099999994E-1,1.134374961E-1
5.043962732E0,2.549250126E-1,-1.099999994E-1,1.134374961E-1
5.046500733E0,2.398000062E-1,-1.023000032E-1,8.882500231E-2
5.049038732E0,2.398000062E-1,-1.023000032E-1,8.882500231E-2
5.051576694E0,2.398000062E-1,-1.023000032E-1,8.882500231E-2
5.054114655E0,2.398000062E-1,-1.023000032E-1,8.882500231E-2
5.056653002E0,2.398000062E-1,-1.023000032E-1,8.882500231E-2
5.059191347E0,2.398000062E-1,-1.023000032E-1,8.882500231E-2
5.061729785E0,2.398000062E-1,-1.023000032E-1,8.882500231E-2
5.064268210E0,2.398000062E-1,-1.023000032E-1,8.882500231E-2
5.066806054E0,2.260500044E-1,-7.975000143E-2,4.578749835E-2
5.069343901E0,2.260500044E-1,-7.975000143E-2,4.578749835E-2
5.071881325E0,2.260500044E-1,-7.975000143E-2,4.578749835E-2
5.074418748E0,2.260500044E-1,-7.975000143E-2,4.578749835E-2
5.076956709E0,2.260500044E-1,-7.975000143E-2,4.578749835E-2
5.079494670E0,2.260500044E-1,-7.975000143E-2,4.578749835E-2
5.082033440E0,2.260500044E-1,-7.975000143E-2,4.578749835E-2
5.084572209E0,2.260500044E-1,-7.975000143E-2,4.578749835E-2
5.087109785E0,2.066625059E-1,-6.572499871E-2,1.017499994E-2
5.089647362E0,2.066625059E-1,-6.572499871E-2,1.017499994E-2
5.092184776E0,2.066625059E-1,-6.572499871E-2,1.017499994E-2
5.094722161E0,2.066625059E-1,-6.572499871E-2,1.017499994E-2
5.097259507E0,2.066625059E-1,-6.572499871E-2,1.017499994E-2
5.099796852E0,2.066625059E-1,-6.572499871E-2,1.017499994E-2
5.102335045E0,2.066625059E-1,-6.572499871E-2,1.017499994E-2
5.104873238E0,2.066625059E-1,-6.572499871E-2,1.017499994E-2
5.107410583E0,1.834249943E-1,-6.916250288E-2,-3.162499983E-3
5.109947930E0,1.834249943E-1,-6.916250288E-2,-3.162499983E-3
