"Time (s)","Gyroscope x (rad/s)","Gyroscope y (rad/s)","Gyroscope z (rad/s)"
1.107134300E-2,-3.402693868E-1,-1.679006778E-2,-3.242123723E-1
1.504321800E-2,-3.446676135E-1,-1.904154196E-2,-3.280870020E-1
1.901196800E-2,-3.381575346E-1,-1.029744279E-2,-3.194825053E-1
2.298228000E-2,-3.192905188E-1,1.762782573E-3,-2.973691821E-1
2.695259300E-2,-2.845759392E-1,1.214749180E-2,-2.617819309E-1
3.092446800E-2,-2.369982600E-1,2.448697016E-2,-2.169793248E-1
3.489321800E-2,-1.754928529E-1,4.108504951E-2,-1.694714725E-1
3.886509300E-2,-9.566149861E-2,6.558947265E-2,-1.188569218E-1
4.283540500E-2,-2.303834539E-3,9.395107627E-2,-6.817255914E-2
4.680571800E-2,1.033933014E-1,1.170417815E-1,-2.029817924E-2
5.077759300E-2,1.939584464E-1,1.170417815E-1,1.471312530E-2
5.474790500E-2,2.883633077E-1,8.349654824E-2,5.110324174E-2
5.871821800E-2,3.687008023E-1,3.014183603E-2,8.152432740E-2
6.268853000E-2,4.242546260E-1,-1.583013684E-2,1.055575162E-1
6.665884300E-2,4.616221189E-1,-4.724606127E-2,1.244594306E-1
7.063071800E-2,4.820424914E-1,-6.747443229E-2,1.360309571E-1
7.459946800E-2,4.882733226E-1,-7.847000659E-2,1.358738840E-1
7.857134300E-2,4.769635797E-1,-7.860963047E-2,1.266410947E-1
8.254165500E-2,4.481307268E-1,-8.239699155E-2,1.122072190E-1
8.651196800E-2,3.999421895E-1,-8.431685716E-2,8.857546002E-2
9.048228000E-2,3.365169466E-1,-6.857398897E-2,5.712462589E-2
9.445259300E-2,2.543293834E-1,-2.953097038E-2,3.926991019E-3
9.842290500E-2,1.675865203E-1,7.749261800E-3,-5.494296551E-2
1.023932180E-1,7.916813344E-2,4.574507847E-2,-1.237438470E-1
1.063635300E-1,-7.260569837E-3,9.060004354E-2,-1.915324330E-1
1.103338430E-1,-8.607963473E-2,1.348092258E-1,-2.457947135E-1
1.143057180E-1,-1.528559327E-1,1.699776202E-1,-2.816088796E-1
1.182744680E-1,-2.143613398E-1,1.871342063E-1,-3.028495312E-1
1.222463430E-1,-2.614328563E-1,1.867851317E-1,-3.092897832E-1
1.262166550E-1,-2.911732793E-1,1.732937396E-1,-3.053802550E-1
1.301869680E-1,-3.002839088E-1,1.532050073E-1,-2.860071063E-1
1.341572800E-1,-2.880665958E-1,1.326275766E-1,-2.528109550E-1
1.381275930E-1,-2.509957850E-1,1.066221669E-1,-2.090729922E-1
1.420994680E-1,-1.972396523E-1,7.337363809E-2,-1.553692073E-1
1.460697800E-1,-1.244943365E-1,3.684389964E-2,-1.004262418E-1
1.500400930E-1,-3.644247353E-2,-6.981316954E-3,-4.138175771E-2
1.540104050E-1,5.199335888E-2,-4.717624933E-2,8.918632753E-3
1.579807180E-1,1.387536824E-1,-7.454301417E-2,4.885176569E-2
1.619510300E-1,2.152339965E-1,-8.648106456E-2,7.401940972E-2
1.659213430E-1,2.790257931E-1,-8.824384958E-2,7.922049612E-2
1.698932180E-1,3.227462769E-1,-8.101818711E-2,6.838200241E-2
1.738619680E-1,3.466398418E-1,-6.258750707E-2,4.253367335E-2
1.778338430E-1,3.506191969E-1,-3.427826613E-2,9.285151958E-3
1.818041550E-1,3.355395496E-1,-4.188790335E-4,-3.309144080E-2
1.857744680E-1,3.061656654E-1,3.038618155E-2,-7.319910824E-2
1.897447800E-1,2.604380250E-1,5.469861999E-2,-1.143714264E-1
1.937150930E-1,2.015331686E-1,7.051130384E-2,-1.546012610E-1
1.976854050E-1,1.425061375E-1,8.124507964E-2,-1.882861257E-1
2.016572800E-1,7.564257085E-2,8.511970937E-2,-2.146755010E-1
2.056275930E-1,1.303760987E-2,8.384561539E-2,-2.355496287E-1
2.095963430E-1,-4.932300374E-2,8.051203936E-2,-2.482207268E-1
2.135682180E-1,-1.044405028E-1,7.017968595E-2,-2.518335581E-1
2.175385300E-1,-1.501157731E-1,5.300565064E-2,-2.461612374E-1
2.215104050E-1,-1.859648377E-1,3.092723340E-2,-2.284112424E-1
2.254807180E-1,-2.097536623E-1,1.055924222E-2,-1.991071552E-1
2.294510300E-1,-2.222851366E-1,-4.817108624E-3,-1.607448310E-1
2.334213430E-1,-2.242050022E-1,-1.560324337E-2,-1.182285994E-1
2.373916550E-1,-2.134014070E-1,-2.850122750E-2,-8.140215278E-2
2.413619680E-1,-1.917767823E-1,-4.164355621E-2,-4.499458894E-2
2.453338430E-1,-1.626646817E-1,-4.914847016E-2,-1.218239777E-2
2.493041550E-1,-1.239009202E-1,-4.703662172E-2,1.609193534E-2
2.532729050E-1,-8.023278415E-2,-4.272565991E-2,3.731513768E-2
2.572447800E-1,-3.164282069E-2,-4.009021446E-2,4.932300374E-2
2.612150930E-1,1.848303713E-2,-4.225442186E-2,4.974188283E-2
2.651854050E-1,6.346017122E-2,-5.394812673E-2,4.577998444E-2
2.691557180E-1,1.027649865E-1,-7.431612164E-2,4.098033160E-2
2.731260300E-1,1.306204349E-1,-1.007054970E-1,4.183554277E-2
2.770963430E-1,1.451066732E-1,-1.244594306E-1,4.583234712E-2
2.810666550E-1,1.427155733E-1,-1.407433450E-1,4.522148147E-2
2.850447800E-1,1.267283559E-1,-1.484402567E-1,3.556980938E-2
2.890322800E-1,9.683086723E-2,-1.483529806E-1,2.012364566E-2
2.929822800E-1,5.440191180E-2,-1.421396136E-1,-4.206243437E-3
2.969494680E-1,7.208209950E-3,-1.283515096E-1,-3.150319308E-2
3.009197800E-1,-4.616395757E-2,-1.054702476E-1,-5.953317881E-2
3.048900930E-1,-9.697049111E-2,-7.693411410E-2,-8.175121993E-2
3.088604050E-1,-1.450194120E-1,-4.028219730E-2,-1.025904566E-1
3.128307180E-1,-1.798212677E-1,-3.769911127E-3,-1.176700965E-1
3.168025930E-1,-2.046922147E-1,3.042108938E-2,-1.328893751E-1
3.207729050E-1,-2.176600099E-1,5.665338784E-2,-1.454382837E-1
3.247432180E-1,-2.186373919E-1,7.478735596E-2,-1.544267386E-1
3.287135300E-1,-2.062281072E-1,8.868017793E-2,-1.585806161E-1
3.326838430E-1,-1.838878840E-1,9.637708217E-2,-1.557531804E-1
3.366541550E-1,-1.560847908E-1,9.958848357E-2,-1.467298269E-1
3.406260300E-1,-1.206895187E-1,9.576621652E-2,-1.330988109E-1
3.446025930E-1,-8.569566905E-2,8.693484962E-2,-1.134289503E-1
3.485666550E-1,-4.993386939E-2,7.606144994E-2,-8.964011073E-2
3.525369680E-1,-1.275835652E-2,5.651376024E-2,-6.084217876E-2
3.565072800E-1,2.024581842E-2,3.214896470E-2,-3.092723340E-2
3.604775930E-1,4.934045672E-2,3.665191354E-3,8.203047328E-4
3.644494680E-1,7.211700082E-2,-2.679080330E-2,3.181735054E-2
3.684197800E-1,9.161233157E-2,-5.504768342E-2,5.946336687E-2
3.723885300E-1,1.052782610E-1,-8.138470352E-2,8.625417203E-2
3.763604050E-1,1.104967967E-1,-1.037598252E-1,1.079835221E-1
3.803307180E-1,1.099033803E-1,-1.172861233E-1,1.214923710E-1
3.843010300E-1,1.010196581E-1,-1.185427606E-1,1.272694021E-1
3.882713430E-1,8.874998987E-2,-1.131496951E-1,1.251575649E-1
3.922416550E-1,7.262314856E-2,-1.049640998E-1,1.149822921E-1
3.962135300E-1,5.349434167E-2,-9.965830296E-2,1.029744223E-1
4.001838430E-1,3.120648675E-2,-1.003913358E-1,9.217083454E-2
4.041650930E-1,6.719517522E-3,-1.002866179E-1,8.513715863E-2
4.081244680E-1,-1.740093343E-2,-8.929104358E-2,7.880161703E-2
4.120947800E-1,-4.326671362E-2,-7.630579174E-2,6.901031733E-2
4.160666550E-1,-6.897541136E-2,-6.494370103E-2,5.396557972E-2
4.200354050E-1,-8.862782270E-2,-5.386086181E-2,3.485422581E-2
4.240057180E-1,-1.055051535E-1,-3.277728334E-2,9.843656793E-3
4.279760300E-1,-1.154709831E-1,-4.677482415E-3,-1.398008689E-2
4.319463430E-1,-1.207767874E-1,2.326523885E-2,-3.359758854E-2
4.359182180E-1,-1.199041158E-1,5.085889250E-2,-4.850269854E-2
4.398885300E-1,-1.109505817E-1,7.386233658E-2,-5.555383116E-2
4.438588430E-1,-9.761626273E-2,9.086184204E-2,-5.813691765E-2
4.478307180E-1,-8.059930801E-2,9.784315526E-2,-5.459389836E-2
4.517994680E-1,-6.110397726E-2,9.906488657E-2,-4.794419557E-2
4.557713430E-1,-4.246386141E-2,9.608037770E-2,-3.928736225E-2
4.597416550E-1,-2.420771681E-2,9.182177484E-2,-2.996730246E-2
4.637119680E-1,-6.649704650E-3,8.199556917E-2,-1.864011586E-2
4.676822800E-1,6.789330859E-3,6.829473376E-2,-9.058258496E-3
4.716525930E-1,1.677261479E-2,5.372123420E-2,-2.513274085E-3
4.756229050E-1,2.207841538E-2,4.284783453E-2,6.981316837E-4
4.795947800E-1,2.527236752E-2,3.639011458E-2,3.333578818E-3
4.835650930E-1,3.015928902E-2,3.262020275E-2,6.440265104E-3
4.875354050E-1,3.579670191E-2,2.501056902E-2,9.948376566E-3
4.915057180E-1,4.269075394E-2,1.699950732E-2,1.492256485E-2
4.954760300E-1,5.021312088E-2,1.129228063E-2,1.818633080E-2
4.994463430E-1,5.909684673E-2,1.010545623E-2,2.083923109E-2
5.034182180E-1,6.578145921E-2,1.115265395E-2,2.228785492E-2
5.073869680E-1,6.977826357E-2,1.308996975E-2,2.371902391E-2
5.113572800E-1,6.871361285E-2,1.329940930E-2,2.515019476E-2
5.153307180E-1,6.408849359E-2,1.153662615E-2,2.476622164E-2
5.192994680E-1,5.384340882E-2,1.333431527E-2,2.195624262E-2
5.232697800E-1,4.106759652E-2,1.680752076E-2,1.851794310E-2
5.272400930E-1,2.720968239E-2,2.253220044E-2,1.445132587E-2
5.312104050E-1,1.080358773E-2,2.748893574E-2,9.337511845E-3
5.351807180E-1,-3.403391922E-3,2.968805097E-2,4.991641734E-3
5.391525930E-1,-1.628392190E-2,3.281218931E-2,-3.490658419E-4
5.431229050E-1,-2.492330223E-2,3.754203022E-2,-7.155850064E-3
5.470932180E-1,-2.972295694E-2,4.660028964E-2,-1.150172018E-2
5.510635300E-1,-3.068288788E-2,5.544910952E-2,-1.623156108E-2
5.550338430E-1,-2.897246554E-2,6.302383542E-2,-2.124065720E-2
5.590041550E-1,-2.701769583E-2,6.710790843E-2,-2.359685116E-2
5.629760300E-1,-2.485348843E-2,6.831218302E-2,-2.241002768E-2
5.669463430E-1,-2.384119667E-2,6.819001585E-2,-1.877974346E-2
5.709166550E-1,-2.446951531E-2,6.633996218E-2,-1.527163107E-2
5.748869680E-1,-2.555162087E-2,6.585127115E-2,-9.407324716E-3
5.788572800E-1,-2.446951531E-2,6.784094870E-2,-4.398229532E-3
5.828275930E-1,-2.342231758E-2,6.806784123E-2,1.396263367E-3
5.867979050E-1,-1.986184716E-2,6.660176069E-2,8.185594343E-3
5.907682180E-1,-1.439896598E-2,6.398376822E-2,1.342158206E-2
5.947400930E-1,-7.557275705E-3,5.996951461E-2,1.884955540E-2
5.987104050E-1,6.981316983E-5,5.771803856E-2,2.357939817E-2
6.026807180E-1,9.302604944E-3,5.653121322E-2,2.616248466E-2
6.066510300E-1,1.651081443E-2,5.396557972E-2,2.668608353E-2
6.106213430E-1,2.396337129E-2,5.180137232E-2,2.698278986E-2
6.145916550E-1,3.193952516E-2,4.822344705E-2,2.448697016E-2
6.185619680E-1,3.972369432E-2,4.337143153E-2,1.947787404E-2
6.225322800E-1,4.567526653E-2,3.743731230E-2,1.755801216E-2
6.265025930E-1,4.827580601E-2,3.197443113E-2,1.495747175E-2
6.304744680E-1,4.956734926E-2,3.085742146E-2,1.352630183E-2
6.344447800E-1,4.885176569E-2,3.312635049E-2,1.059414819E-2
6.384135300E-1,4.445353523E-2,3.808308393E-2,8.779006079E-3
6.423854050E-1,3.576179594E-2,4.569271952E-2,5.742133129E-3
6.463557180E-1,2.357939817E-2,5.054473504E-2,2.967059845E-4
6.503260300E-1,9.546951391E-3,5.345943570E-2,-4.118977115E-3
6.542979050E-1,-5.218534265E-3,5.211552978E-2,-8.604473434E-3
6.582666550E-1,-1.946042106E-2,4.769985005E-2,-1.216494478E-2
6.622369680E-1,-3.371975943E-2,4.338888451E-2,-1.581268385E-2
6.662088430E-1,-4.420918971E-2,3.729768470E-2,-1.795943826E-2
6.701791550E-1,-5.176646635E-2,3.014183603E-2,-2.062979154E-2
6.741494680E-1,-5.614724010E-2,2.359685116E-2,-2.103121765E-2
6.781213430E-1,-5.607742816E-2,1.919862255E-2,-1.495747175E-2
6.820916550E-1,-5.185373127E-2,1.487020496E-2,-8.115780540E-3
6.860604050E-1,-4.368559271E-2,1.179842558E-2,0.000000000E0
6.900322800E-1,-3.356268257E-2,6.632251199E-3,7.661995478E-3
6.940025930E-1,-2.234021388E-2,1.361356815E-3,1.343903504E-2
6.979729050E-1,-1.054178830E-2,0.000000000E0,1.478293911E-2
7.019432180E-1,-1.274090377E-3,2.338741207E-3,1.244419720E-2
7.059135300E-1,5.934119225E-3,8.377579972E-3,7.155850064E-3
7.098838430E-1,1.172861271E-2,1.612684131E-2,-1.134464052E-3
7.138557180E-1,1.429424621E-2,2.508038096E-2,-6.754423957E-3
7.178260300E-1,1.631882787E-2,3.296926990E-2,-1.455604564E-2
7.217963430E-1,1.579522900E-2,4.059635848E-2,-2.094395086E-2
7.257666550E-1,1.218239777E-2,4.574507847E-2,-2.682571113E-2
7.297369680E-1,7.347836159E-3,4.920083284E-2,-3.183480725E-2
7.337072800E-1,5.061454722E-4,4.996877536E-2,-3.644247353E-2
7.376791550E-1,-7.138396613E-3,4.488986731E-2,-4.035201296E-2
7.416479050E-1,-1.589994878E-2,3.918264061E-2,-4.288274050E-2
7.456197800E-1,-2.361430414E-2,3.394665569E-2,-4.368559271E-2
7.495900930E-1,-2.923426405E-2,2.940879762E-2,-4.148647562E-2
7.535604050E-1,-3.340560198E-2,2.342231758E-2,-3.820525855E-2
7.575307180E-1,-3.555235639E-2,1.296779606E-2,-3.269001842E-2
7.615088430E-1,-3.745476529E-2,1.064650831E-3,-2.673844434E-2
7.654713430E-1,-3.900810704E-2,-6.091198884E-3,-2.171189524E-2
7.694432180E-1,-4.092797264E-2,-1.186823845E-2,-1.694714651E-2
7.734135300E-1,-4.127703607E-2,-1.668534800E-2,-1.659808122E-2
7.773838430E-1,-4.106759652E-2,-2.125811018E-2,-1.621410809E-2
7.813541550E-1,-4.145156965E-2,-2.546435408E-2,-1.792453043E-2
7.853244680E-1,-4.321435094E-2,-2.551671304E-2,-2.001892589E-2
7.892979050E-1,-4.337143153E-2,-1.740093343E-2,-2.296853252E-2
7.932650930E-1,-4.281292483E-2,-5.934119225E-3,-2.675589733E-2
7.972369680E-1,-3.965387866E-2,6.213372108E-3,-2.954842336E-2
8.012072800E-1,-3.673918173E-2,1.886700839E-2,-3.223622963E-2
8.051775930E-1,-3.174753860E-2,2.879793197E-2,-3.248057887E-2
8.091479050E-1,-2.654645778E-2,3.378957510E-2,-3.284709528E-2
8.131182180E-1,-2.080432512E-2,3.780383244E-2,-3.129375353E-2
8.170885300E-1,-1.391027402E-2,3.975860029E-2,-2.771582827E-2
8.210588430E-1,-6.824237294E-3,3.846705705E-2,-2.392846346E-2
8.250291550E-1,-1.518436475E-3,3.434807807E-2,-2.309070528E-2
8.290010300E-1,4.537856148E-4,2.666863054E-2,-2.392846346E-2
8.329713430E-1,2.007128671E-3,1.743583940E-2,-2.204350755E-2
8.369400930E-1,1.675516134E-3,8.098327555E-3,-1.898918301E-2
8.409119680E-1,-1.099557383E-3,-6.283185212E-4,-1.548107062E-2
8.448822800E-1,-6.056292448E-3,-1.014036313E-2,-1.396263391E-2
8.488525930E-1,-1.185078546E-2,-2.241002768E-2,-1.055924222E-2
8.528229050E-1,-1.834340952E-2,-3.193952516E-2,-6.352998316E-3
8.567932180E-1,-2.528982051E-2,-3.893829510E-2,-4.502949305E-3
8.607650930E-1,-3.178244457E-2,-4.347615317E-2,-1.169370604E-3
8.647354050E-1,-3.663446009E-2,-4.375540465E-2,-1.640609466E-3
8.687057180E-1,-4.075343907E-2,-4.276056588E-2,-4.642575979E-3
8.726760300E-1,-4.228932783E-2,-4.054399952E-2,-1.022762898E-2
8.766463430E-1,-4.283038154E-2,-3.726277873E-2,-1.589994878E-2
8.806260300E-1,-4.358087108E-2,-2.993239649E-2,-1.829105057E-2
8.845885300E-1,-4.316199198E-2,-2.035053819E-2,-1.891936921E-2
8.885588430E-1,-4.246386141E-2,-1.076868176E-2,-1.771509275E-2
8.925291550E-1,-4.227187485E-2,-6.300638430E-3,-1.665044017E-2
8.964994680E-1,-4.192280769E-2,-6.806783844E-3,-1.668534800E-2
9.004697800E-1,-4.153883457E-2,-7.243116386E-3,-1.925098151E-2
9.044400930E-1,-4.127703607E-2,-7.347836159E-3,-2.007128671E-2
9.084104050E-1,-4.197516665E-2,-7.086036727E-3,-2.253220044E-2
9.123822800E-1,-4.274311289E-2,-7.016223390E-3,-2.665117756E-2
9.163525930E-1,-4.295255244E-2,-8.639379404E-3,-3.117158078E-2
9.203229050E-1,-4.089306295E-2,-1.178097259E-2,-3.462733328E-2
9.242932180E-1,-3.871140257E-2,-1.576032303E-2,-3.551745042E-2
9.282635300E-1,-3.497639671E-2,-2.176425606E-2,-3.665191308E-2
9.322338430E-1,-2.933898382E-2,-2.665117756E-2,-3.183480725E-2
9.362041550E-1,-2.244493365E-2,-2.897246554E-2,-2.665117756E-2
9.401760300E-1,-1.446877979E-2,-3.274237737E-2,-2.094395086E-2
9.441447800E-1,-6.684611086E-3,-3.537782282E-2,-1.705186628E-2
9.481166550E-1,9.075712296E-4,-3.803072497E-2,-1.045452245E-2
9.520869680E-1,7.853982039E-3,-3.946189582E-2,-6.475171540E-3
9.560572800E-1,1.553343050E-2,-3.998549283E-2,-4.834562074E-3
9.600275930E-1,2.115339041E-2,-3.953170776E-2,-9.599310579E-4
9.639979050E-1,2.548180707E-2,-3.700098023E-2,2.146754880E-3
9.679682180E-1,2.782054804E-2,-3.392919898E-2,3.560471581E-3
9.719385300E-1,2.691297606E-2,-3.296926990E-2,3.036872949E-3
9.759104050E-1,2.202605456E-2,-3.047344834E-2,1.850049011E-3
9.798807180E-1,1.546361670E-2,-2.769837528E-2,4.712388909E-4
9.838510300E-1,7.138396613E-3,-2.700024284E-2,-7.679448463E-4
9.878213430E-1,-1.500983140E-3,-2.408554405E-2,-1.099557383E-3
9.917916550E-1,-9.320057929E-3,-2.092649788E-2,1.954768784E-3
9.957619680E-1,-1.302015595E-2,-1.919862255E-2,5.916666240E-3
9.997385300E-1,-1.427679323E-2,-2.101376466E-2,6.213372108E-3
1.003704155E0,-1.295034308E-2,-2.268928103E-2,6.876597181E-3
1.007674468E0,-8.237954229E-3,-1.876228862E-2,9.162978269E-3
1.011644780E0,-5.410520826E-4,-1.261873078E-2,1.141445339E-2
1.015615093E0,6.126105785E-3,-6.195918657E-3,1.380555425E-2
1.019585405E0,1.494001877E-2,-1.047197497E-3,1.202531811E-2
1.023555718E0,2.190388180E-2,4.188790335E-4,9.005898610E-3
1.027526030E0,2.551671304E-2,2.460914198E-3,5.811946467E-3
1.031497905E0,2.857103944E-2,3.752457909E-3,1.047197497E-3
1.035468218E0,2.846631967E-2,3.019419499E-3,-6.283185212E-4
1.039438530E0,2.663372457E-2,2.234021435E-3,-1.570796303E-4
1.043411968E0,2.359685116E-2,3.228859045E-3,1.012290944E-3
1.047379155E0,2.008873969E-2,1.989675453E-3,2.216568217E-3
1.051351030E0,1.602212340E-2,-1.483529806E-3,3.577925032E-3
1.055319780E0,1.315978263E-2,-4.642575979E-3,6.038838997E-3
1.059291655E0,1.225221157E-2,-9.075712413E-3,7.592182141E-3
1.063263530E0,1.246165112E-2,-1.626646891E-2,8.150687441E-3
1.067232280E0,1.237438433E-2,-2.190388180E-2,6.928957067E-3
1.071202593E0,1.204277202E-2,-2.323033288E-2,6.021386012E-3
1.075172905E0,1.213003788E-2,-2.235766686E-2,4.118977115E-3
1.079143218E0,8.517206647E-3,-2.347467840E-2,-2.216568217E-3
1.083113530E0,4.118977115E-3,-2.829178795E-2,-8.552113548E-3
1.087083843E0,-3.333578818E-3,-3.331833705E-2,-1.802925020E-2
1.091054155E0,-1.099557430E-2,-3.462733328E-2,-2.576106042E-2
1.095026030E0,-2.082177810E-2,-3.015928902E-2,-3.455751762E-2
1.098996343E0,-2.926917188E-2,-2.267182618E-2,-4.106759652E-2
1.102966655E0,-3.387684003E-2,-1.378810126E-2,-4.712389037E-2
1.106936968E0,-3.612831607E-2,-5.742133129E-3,-5.277875811E-2
1.110907280E0,-3.520328924E-2,1.745329238E-3,-5.515240505E-2
1.114877593E0,-3.136356547E-2,8.970992640E-3,-5.728170648E-2
1.118847905E0,-2.537708730E-2,1.403244678E-2,-5.618214980E-2
1.122818218E0,-1.766273193E-2,1.788962446E-2,-4.881685972E-2
1.126790093E0,-7.958701812E-3,1.830850355E-2,-3.982841223E-2
1.130760405E0,-1.570796303E-4,1.584758982E-2,-2.949606441E-2
1.134730718E0,7.714355364E-3,1.190314535E-2,-1.672025397E-2
1.138701030E0,1.445132587E-2,4.852015525E-3,-6.300638430E-3
1.142672905E0,2.162462845E-2,-6.457718089E-3,5.113814492E-3
1.146643218E0,2.771582827E-2,-1.602212340E-2,1.743583940E-2
1.150611968E0,3.125884756E-2,-2.740166895E-2,3.073524870E-2
1.154583843E0,3.127630055E-2,-3.445279971E-2,4.502949491E-2
1.158554155E0,3.038618155E-2,-3.853686899E-2,5.869542435E-2
1.162524468E0,2.682571113E-2,-4.139921069E-2,6.843435764E-2
1.166494780E0,2.139773592E-2,-4.576253146E-2,7.564257085E-2
1.170466655E0,1.485275198E-2,-5.337216705E-2,7.648032904E-2
1.174435405E0,8.185594343E-3,-5.942846090E-2,7.307693362E-2
1.178407280E0,1.169370604E-3,-5.979498103E-2,6.873106211E-2
1.182376030E0,-6.649704650E-3,-5.719443783E-2,6.201154739E-2
1.186347905E0,-1.457349956E-2,-5.304055661E-2,5.560619012E-2
1.190318218E0,-2.024581842E-2,-5.134758726E-2,4.625122622E-2
1.194288530E0,-2.579596639E-2,-4.956734926E-2,3.644247353E-2
1.198258843E0,-2.815216035E-2,-4.954989627E-2,2.666863054E-2
1.202230718E0,-3.117158078E-2,-4.879940674E-2,1.612684131E-2
1.206201030E0,-3.029891662E-2,-4.783947393E-2,7.819075137E-3
1.210169780E0,-2.886774577E-2,-4.473278672E-2,3.665191471E-4
1.214141655E0,-2.443460934E-2,-3.836233541E-2,-4.258603323E-3
1.218111968E0,-1.921607554E-2,-3.352777660E-2,-6.527531426E-3
1.222082280E0,-1.033234876E-2,-3.001966327E-2,-6.510077976E-3
1.226054155E0,5.585053586E-4,-2.638937905E-2,-5.148721393E-3
1.230024468E0,1.258382387E-2,-2.197369561E-2,-8.901178953E-4
1.233994780E0,2.429498360E-2,-1.872738265E-2,5.183627829E-3
1.237965093E0,4.016002640E-2,-1.876228862E-2,9.023352526E-3
1.241935405E0,5.209807679E-2,-2.118829638E-2,1.303760987E-2
1.245905718E0,6.621779501E-2,-2.558652684E-2,1.453859266E-2
1.249877593E0,8.044222742E-2,-3.050835431E-2,1.507964451E-2
1.253846343E0,9.046041220E-2,-3.630284965E-2,1.567305624E-2
1.257818218E0,9.669124335E-2,-4.173082113E-2,1.596976258E-2
1.261788530E0,9.861110151E-2,-4.569271952E-2,1.410226058E-2
1.265757280E0,9.491100162E-2,-5.019566789E-2,1.120501384E-2
1.269729155E0,8.761552721E-2,-5.483824387E-2,3.682644805E-3
1.273699468E0,7.457792014E-2,-5.649630725E-2,-5.497787148E-3
1.277669780E0,5.747369304E-2,-5.736897141E-2,-1.511455141E-2
1.281665093E0,3.750712425E-2,-5.941100791E-2,-2.261946723E-2
1.285610405E0,1.499237865E-2,-6.024876609E-2,-2.712241560E-2
1.289580718E0,-5.916666240E-3,-6.075491011E-2,-2.949606441E-2
1.293551030E0,-2.626720443E-2,-6.150540337E-2,-3.132865950E-2
1.297522905E0,-4.377285764E-2,-6.319837272E-2,-3.103195317E-2
1.301493218E0,-5.736897141E-2,-6.499606371E-2,-3.125884756E-2
1.305463530E0,-6.647959352E-2,-6.771877408E-2,-3.012438305E-2
1.309433843E0,-7.157595456E-2,-6.768386811E-2,-2.546435408E-2
1.313404155E0,-7.185520232E-2,-6.195918843E-2,-1.626646891E-2
1.317376030E0,-6.831218302E-2,-5.263913050E-2,-8.447393775E-3
1.321344780E0,-6.225589290E-2,-4.176572710E-2,-5.410520826E-4
1.325315093E0,-5.420992523E-2,-2.764601447E-2,1.361356815E-3
1.329286968E0,-4.534365237E-2,-1.178097259E-2,1.413716702E-3
1.333257280E0,-3.611086309E-2,3.193952609E-3,-4.433136433E-3
1.337227593E0,-2.872812003E-2,1.612684131E-2,-1.378810126E-2
1.341197905E0,-2.076941729E-2,2.492330223E-2,-2.375393175E-2
1.345168218E0,-1.389282104E-2,2.495820820E-2,-3.328342736E-2
1.349138530E0,-8.185594343E-3,1.909390278E-2,-3.923500329E-2
1.353110405E0,-2.321287990E-3,9.896016680E-3,-3.733259439E-2
1.357080718E0,3.089232836E-3,-6.492624991E-3,-2.825688012E-2
1.361049468E0,7.679448463E-3,-2.687807009E-2,-1.579522900E-2
1.365021343E0,1.188569237E-2,-5.115560070E-2,-6.457717973E-4
1.368991655E0,1.478293911E-2,-7.569492608E-2,1.607448235E-2
1.372961968E0,1.914626174E-2,-9.836675972E-2,3.143338114E-2
1.376932280E0,2.075196430E-2,-1.194677874E-1,4.297000542E-2
1.380902593E0,2.101376466E-2,-1.355248094E-1,4.928809777E-2
1.384874468E0,2.092649788E-2,-1.454208344E-1,5.078908056E-2
1.388844780E0,2.225294709E-2,-1.472534239E-1,4.860742018E-2
1.392815093E0,2.200860158E-2,-1.421570629E-1,4.893903062E-2
1.396785405E0,2.057743259E-2,-1.306029856E-1,4.783947393E-2
1.400755718E0,1.946042106E-2,-1.101302728E-1,4.454080388E-2
1.404726030E0,1.902408898E-2,-8.084364980E-2,4.110250250E-2
1.408697905E0,1.815142483E-2,-5.033529550E-2,3.118903376E-2
1.412668218E0,1.672025397E-2,-2.113593742E-2,1.956514083E-2
1.416638530E0,1.424188633E-2,5.113814492E-3,5.550147034E-3
1.420608843E0,9.826203808E-3,2.565634064E-2,-9.372417815E-3
1.424579155E0,5.218534265E-3,4.111995548E-2,-2.125811018E-2
1.428549468E0,4.014257283E-4,5.176646635E-2,-3.368485346E-2
1.432519780E0,-8.063420653E-3,5.633922666E-2,-4.324925691E-2
1.436491655E0,-1.720894687E-2,5.513495207E-2,-4.740314186E-2
1.440461968E0,-2.544690110E-2,4.804891348E-2,-4.742059484E-2
1.444432280E0,-3.317870945E-2,3.595378250E-2,-4.262094200E-2
1.448402593E0,-3.864159063E-2,2.316051908E-2,-3.429571912E-2
1.452372905E0,-4.129448906E-2,1.244419720E-2,-2.234021388E-2
1.456343218E0,-3.806563094E-2,3.351032268E-3,-6.719517522E-3
1.460313530E0,-3.316125646E-2,-7.452555932E-3,9.372417815E-3
1.464283843E0,-2.314306609E-2,-1.960004680E-2,2.232276089E-2
1.468255718E0,-1.315978263E-2,-2.488839440E-2,3.185226023E-2
1.472226030E0,-1.221730490E-3,-2.670353837E-2,3.796090931E-2
1.476202593E0,1.120501384E-2,-3.124139272E-2,4.150392860E-2
1.480166655E0,2.349213138E-2,-3.244566917E-2,3.926990926E-2
1.484136968E0,3.436553106E-2,-2.583087236E-2,3.206169978E-2
1.488107280E0,4.232423380E-2,-1.701696031E-2,2.492330223E-2
1.492079155E0,4.892157763E-2,-1.019272301E-2,1.492256485E-2
1.496049468E0,5.063199997E-2,-4.817108624E-3,5.689773243E-3
1.500018218E0,4.747295380E-2,-5.410520826E-4,-1.518436475E-3
1.503990093E0,3.926990926E-2,4.153883550E-3,-1.033234876E-2
1.507960405E0,2.659881860E-2,7.208209950E-3,-1.759291813E-2
1.511930718E0,1.289798319E-2,8.150687441E-3,-2.188642882E-2
1.515901030E0,-1.937315450E-3,9.599311277E-3,-2.631956525E-2
1.519872905E0,-1.439896598E-2,1.328195538E-2,-2.914699912E-2
1.523843218E0,-2.532472648E-2,1.890191622E-2,-2.565634064E-2
1.527813530E0,-3.645992652E-2,2.399827726E-2,-1.886700839E-2
1.531783843E0,-4.281292483E-2,2.666863054E-2,-1.410226058E-2
1.535754155E0,-4.885176569E-2,2.827433310E-2,-9.232792072E-3
1.539724468E0,-5.251695588E-2,2.989749052E-2,-5.410520826E-3
1.543694780E0,-5.438445881E-2,2.972295694E-2,-4.415682983E-3
1.547665093E0,-5.337216705E-2,2.696533687E-2,-4.904375412E-3
1.551636968E0,-5.099852011E-2,2.141519077E-2,-1.014036313E-2
1.555607280E0,-4.691445082E-2,1.621410809E-2,-1.542871073E-2
1.559577593E0,-4.132939503E-2,1.439896598E-2,-1.907644793E-2
1.563547905E0,-3.295181692E-2,1.242674422E-2,-1.672025397E-2
1.567518218E0,-1.963495463E-2,1.040216256E-2,-9.477137588E-3
1.571490093E0,-6.963863503E-3,9.878563695E-3,2.181661548E-3
1.575460405E0,7.155850064E-3,9.896016680E-3,1.410226058E-2
1.579429155E0,1.987930015E-2,6.283185445E-3,2.761110850E-2
1.583401030E0,3.176499158E-2,-5.235987919E-5,3.745476529E-2
1.587371343E0,3.923500329E-2,-6.981316954E-3,4.454080388E-2
1.591341655E0,4.344124347E-2,-1.570796408E-2,4.653047770E-2
1.595311968E0,4.469788074E-2,-2.251474746E-2,4.646066576E-2
1.599282280E0,4.260348529E-2,-2.865830623E-2,4.235913977E-2
1.603252593E0,3.799581900E-2,-3.220132366E-2,3.738495335E-2
1.607224468E0,3.258529678E-2,-3.223622963E-2,3.082251363E-2
1.611194780E0,2.544690110E-2,-2.876302600E-2,2.473131567E-2
1.615165093E0,1.876228862E-2,-2.410299703E-2,1.968731359E-2
1.619135405E0,1.221730467E-2,-1.808161102E-2,1.401499379E-2
1.623105718E0,5.235987715E-3,-1.349139493E-2,7.714355364E-3
1.627076030E0,-2.129301662E-3,-8.988445625E-3,3.211405827E-3
1.631046343E0,-1.038470864E-2,-6.614797749E-3,-3.822271014E-3
1.635016655E0,-1.884955540E-2,-3.717551241E-3,-9.267698042E-3
1.638986968E0,-2.663372457E-2,-1.326450263E-3,-1.445132587E-2
1.642958843E0,-3.347541392E-2,9.424777818E-4,-1.822123677E-2
1.646929155E0,-4.038691893E-2,5.148721393E-3,-1.979203336E-2
1.650899468E0,-4.338888451E-2,6.405358203E-3,-2.321287990E-2
1.654869780E0,-4.462806880E-2,8.080874570E-3,-2.246238664E-2
1.658840093E0,-4.419173673E-2,9.878563695E-3,-2.029817924E-2
1.662810405E0,-4.063126445E-2,8.098327555E-3,-1.898918301E-2
1.666782280E0,-3.457497060E-2,8.063420653E-3,-1.609193534E-2
1.670752593E0,-2.816961333E-2,9.564404376E-3,-1.471312530E-2
1.674721343E0,-2.214822732E-2,9.058258496E-3,-1.602212340E-2
1.678693218E0,-1.665044017E-2,8.028514683E-3,-1.801179722E-2
1.682663530E0,-1.251401100E-2,6.248278543E-3,-2.019345947E-2
1.686633843E0,-9.023352526E-3,5.934119225E-3,-2.181661502E-2
1.690605718E0,-4.502949305E-3,5.113814492E-3,-2.209586836E-2
1.694574468E0,5.759586347E-4,2.024581889E-3,-1.750565320E-2
1.698544780E0,2.809980186E-3,-5.375613924E-3,-9.826203808E-3
1.702516655E0,3.682644805E-3,-1.319468953E-2,-2.111848444E-3
1.706486968E0,2.408554312E-3,-1.944296807E-2,4.118977115E-3
1.710457280E0,-2.408554312E-3,-2.227040194E-2,9.040805511E-3
1.714429155E0,-1.061160211E-2,-2.392846346E-2,8.831365965E-3
1.718397905E0,-1.951278187E-2,-2.223549411E-2,5.462880712E-3
1.722369780E0,-3.101450019E-2,-1.895427518E-2,-3.665191471E-4
1.726340093E0,-4.290019348E-2,-1.310742274E-2,-7.923794910E-3
1.730310405E0,-5.398303270E-2,-6.771877408E-3,-1.424188633E-2
1.734280718E0,-6.063273922E-2,2.827433404E-3,-2.146754973E-2
1.738251030E0,-6.403613091E-2,1.497492474E-2,-2.741912194E-2
1.742221343E0,-6.295402348E-2,2.867575921E-2,-3.288200125E-2
1.746193218E0,-5.876523629E-2,4.009021446E-2,-3.460988030E-2
1.750161968E0,-5.180137232E-2,4.653047770E-2,-3.806563094E-2
1.754132280E0,-4.185299575E-2,5.000368133E-2,-3.822271153E-2
1.758104155E0,-3.307398781E-2,5.197590590E-2,-3.689625859E-2
1.762074468E0,-2.387610450E-2,5.082398653E-2,-3.581415489E-2
1.766044780E0,-1.544616371E-2,4.707153141E-2,-3.431317210E-2
1.770016655E0,-7.539822254E-3,4.052654654E-2,-3.422590718E-2
1.773985405E0,-6.457717973E-4,2.918190509E-2,-3.647737950E-2
1.777957280E0,5.794493016E-3,1.912880875E-2,-3.269001842E-2
1.781932280E0,1.319468953E-2,1.366592757E-2,-2.778564207E-2
1.785897905E0,1.858775690E-2,1.223475765E-2,-1.867502369E-2
1.789868218E0,2.300344035E-2,1.034980267E-2,-1.103048120E-2
1.793838530E0,2.626720443E-2,5.951572675E-3,-6.632251199E-3
1.797808843E0,2.982767671E-2,2.548180753E-3,-3.525565146E-3
1.801779155E0,3.029891662E-2,3.909537569E-3,-2.722713631E-3
1.805751030E0,2.905973233E-2,8.482299745E-3,-1.762782573E-3
1.809721343E0,2.994984947E-2,1.148426626E-2,1.640609466E-3
1.813691655E0,3.153809905E-2,1.497492474E-2,7.644542027E-3
1.817661968E0,3.391174600E-2,1.980948634E-2,1.387536712E-2
1.821632280E0,3.588397056E-2,2.047271281E-2,1.715658605E-2
1.825602593E0,3.864159063E-2,1.612684131E-2,2.012364566E-2
1.829574468E0,4.269075394E-2,1.106538717E-2,2.316051908E-2
1.833544780E0,4.584980011E-2,8.988445625E-3,2.710496262E-2
1.837515093E0,4.862487316E-2,1.055924222E-2,2.979277074E-2
1.841485405E0,5.115560070E-2,1.127482671E-2,3.185226023E-2
1.845455718E0,5.152212083E-2,1.146681327E-2,3.164282069E-2
1.849426030E0,5.040510744E-2,7.452555932E-3,2.811725438E-2
1.853396343E0,4.801400751E-2,6.248278543E-3,2.583087236E-2
1.857366655E0,4.497713596E-2,6.841690745E-3,2.523746155E-2
1.861336968E0,4.283038154E-2,7.435102481E-3,2.193878777E-2
1.865308843E0,4.077089205E-2,7.609635592E-3,2.001892589E-2
1.869277593E0,3.871140257E-2,6.736970972E-3,1.635373570E-2
1.873249468E0,3.864159063E-2,7.714355364E-3,9.529497474E-3
1.877219780E0,3.876376152E-2,1.113520097E-2,3.089232836E-3
1.881190093E0,3.820525855E-2,1.518436428E-2,-3.403391922E-3
1.885160405E0,3.579670191E-2,1.909390278E-2,-1.080358773E-2
1.889130718E0,3.110176697E-2,2.223549411E-2,-1.966986060E-2
1.893101030E0,2.551671304E-2,2.380629070E-2,-2.665117756E-2
1.897072905E0,1.788962446E-2,2.316051908E-2,-3.298672289E-2
1.901043218E0,9.128072299E-3,2.253220044E-2,-3.569198400E-2
1.905013530E0,1.413716702E-3,2.462659590E-2,-3.398156166E-2
1.908983843E0,-4.188789986E-3,2.789036185E-2,-2.947861142E-2
1.912955718E0,-9.721484035E-3,3.008947708E-2,-2.408554405E-2
1.916924468E0,-1.235693134E-2,3.157300502E-2,-1.741838641E-2
1.920894780E0,-1.305506285E-2,3.736750036E-2,-1.221730467E-2
1.924866655E0,-1.354375482E-2,4.010766745E-2,-2.268928103E-3
1.928836968E0,-1.125737373E-2,3.298672289E-2,6.475171540E-3
1.932807280E0,-6.143558770E-3,2.448697016E-2,1.221730467E-2
1.936777593E0,1.937315450E-3,2.122320421E-2,1.628392190E-2
1.940747905E0,1.068141498E-2,1.993165910E-2,1.960004680E-2
1.944719780E0,1.673770696E-2,1.567305624E-2,1.836086437E-2
1.948690093E0,2.221804112E-2,1.141445339E-2,1.877974346E-2
1.952666655E0,2.576106042E-2,3.508111695E-3,2.038544603E-2
1.956630718E0,2.382374369E-2,-3.193952609E-3,2.232276089E-2
1.960601030E0,1.954768784E-2,-7.801621687E-3,2.494075522E-2
1.964571343E0,1.136209350E-2,-1.186823845E-2,2.755874954E-2
1.968541655E0,1.553343027E-3,-1.502728462E-2,2.825688012E-2
1.972513530E0,-9.721484035E-3,-1.961750165E-2,2.994984947E-2
1.976482280E0,-1.898918301E-2,-2.186897583E-2,2.902482450E-2
1.980454155E0,-2.457423508E-2,-2.426007576E-2,2.698278986E-2
1.984424468E0,-2.827433310E-2,-2.624975145E-2,2.584832534E-2
1.988394780E0,-2.909463830E-2,-2.736676298E-2,2.405063622E-2
1.992365093E0,-2.659881860E-2,-2.855358645E-2,2.087413706E-2
1.996335405E0,-2.323033288E-2,-2.675589733E-2,1.672025397E-2
2.000305718E0,-1.890191622E-2,-2.494075522E-2,1.157153305E-2
2.004277593E0,-1.233947743E-2,-2.310816012E-2,5.567600485E-3
2.008247905E0,-9.128072299E-3,-1.841322333E-2,-3.490658419E-4
2.012218218E0,-6.335545331E-3,-1.553343050E-2,-6.405358203E-3
2.016188530E0,-3.508111695E-3,-1.178097259E-2,-1.130973361E-2
2.020158843E0,-3.490658419E-4,-1.228711754E-2,-1.256637089E-2
2.024129155E0,4.537856148E-4,-1.514945831E-2,-1.021017600E-2
2.028099468E0,9.599310579E-4,-1.769763790E-2,-7.312929723E-3
2.032071343E0,8.028514567E-4,-1.670280099E-2,-5.218534265E-3
2.036040093E0,5.934119690E-4,-1.268854365E-2,-1.658062800E-3
2.040011968E0,2.059488557E-3,-1.103048120E-2,1.972222002E-3
2.043982280E0,5.899212789E-3,-1.045452245E-2,6.684611086E-3
2.047952593E0,1.066396199E-2,-9.389871731E-3,1.076868176E-2
2.051922905E0,1.612684131E-2,-8.656833321E-3,1.815142483E-2
2.055893218E0,2.310816012E-2,-1.268854365E-2,2.595304511E-2
2.059865093E0,2.839650773E-2,-1.961750165E-2,3.190461919E-2
2.063835405E0,3.279473633E-2,-2.487094142E-2,3.525565192E-2
2.067805718E0,3.454006463E-2,-2.581341937E-2,3.719296679E-2
2.071776030E0,3.483677283E-2,-2.438225038E-2,3.633775562E-2
2.075746343E0,3.131120652E-2,-2.296853252E-2,3.145083413E-2
2.079716655E0,2.420771681E-2,-2.092649788E-2,2.220058814E-2
2.083688530E0,1.710422710E-2,-1.694714651E-2,1.120501384E-2
2.087657280E0,7.120943163E-3,-1.199041214E-2,3.961897455E-3
2.091627593E0,-3.595378250E-3,-6.038838997E-3,-3.630284918E-3
2.095597905E0,-1.453859266E-2,-1.047197584E-4,-1.132718660E-2
2.099569780E0,-2.476622164E-2,5.026548170E-3,-1.635373570E-2
2.103540093E0,-3.330088034E-2,6.981316954E-3,-2.066469751E-2
2.107510405E0,-4.094542563E-2,3.263765713E-3,-2.164208330E-2
2.111480718E0,-4.413937777E-2,-4.450589418E-3,-1.949532703E-2
2.115451030E0,-4.452335089E-2,-1.745329238E-2,-1.696459949E-2
2.119421343E0,-4.131194204E-2,-2.883283980E-2,-1.195550524E-2
2.123393218E0,-3.354522958E-2,-4.234168679E-2,-5.969026126E-3
2.127363530E0,-2.324778587E-2,-5.759586394E-2,3.246312495E-3
2.131333843E0,-1.061160211E-2,-7.318165898E-2,1.483529899E-2
2.135304155E0,3.490658492E-5,-7.572983950E-2,2.373647690E-2
2.139274468E0,1.033234876E-2,-7.023204863E-2,2.816961333E-2
2.143246343E0,1.783726551E-2,-6.185446680E-2,3.143338114E-2
2.147215093E0,2.265437320E-2,-5.770058557E-2,2.926917188E-2
2.151185405E0,2.783800103E-2,-6.490879506E-2,2.689552307E-2
2.155157280E0,3.097959422E-2,-6.244787946E-2,2.342231758E-2
2.159127593E0,3.316125646E-2,-4.930555075E-2,2.174680308E-2
2.163097905E0,3.508111835E-2,-3.953170776E-2,2.071705833E-2
2.167068218E0,3.467969224E-2,-3.593632951E-2,2.120575123E-2
2.171038530E0,3.427826613E-2,-3.817034885E-2,1.996656694E-2
2.175008843E0,3.326597437E-2,-4.431391135E-2,1.905899495E-2
2.178980718E0,3.225368261E-2,-5.028293654E-2,2.045525797E-2
2.182951030E0,3.017674200E-2,-5.335471407E-2,2.309070528E-2
2.186921343E0,2.481858246E-2,-5.818927661E-2,2.872812003E-2
2.190891655E0,1.846558414E-2,-7.136651129E-2,3.534291685E-2
2.194861968E0,1.108284108E-2,-8.864527196E-2,3.916518763E-2
2.198832280E0,-1.570796303E-4,-1.070061326E-1,4.211479425E-2
2.202804155E0,-1.453859266E-2,-1.257858723E-1,4.244640842E-2
2.206774468E0,-2.988003753E-2,-1.454382837E-1,4.251622036E-2
2.210744780E0,-4.576253146E-2,-1.653175801E-1,4.298745841E-2
2.214715093E0,-5.818927661E-2,-1.763829738E-1,4.883431271E-2
2.218685405E0,-6.729989499E-2,-1.765575111E-1,5.698499829E-2
2.222657280E0,-7.164576650E-2,-1.681624800E-1,6.391395628E-2
2.226626030E0,-7.051130384E-2,-1.607099175E-1,7.236135006E-2
2.230596343E0,-6.480407715E-2,-1.522974372E-1,7.876671106E-2
2.234568218E0,-5.562364310E-2,-1.439198554E-1,8.346164227E-2
2.238538530E0,-4.541346803E-2,-1.322610527E-1,8.302531391E-2
2.242508843E0,-3.326597437E-2,-1.222777665E-1,8.094836771E-2
2.246479155E0,-2.075196430E-2,-1.163611040E-1,7.665485889E-2
2.250449468E0,-9.075712413E-3,-1.190314516E-1,7.147122920E-2
2.254419780E0,8.901178953E-4,-1.284736842E-1,6.633996218E-2
2.258390093E0,7.557275705E-3,-1.465727538E-1,6.019640714E-2
2.262361968E0,1.289798319E-2,-1.648637950E-1,5.632177368E-2
2.266332280E0,1.324704941E-2,-1.866280586E-1,5.998696759E-2
2.270302593E0,1.092576142E-2,-2.169793248E-1,6.876597553E-2
2.274297905E0,1.001818944E-2,-2.521651685E-1,8.234463632E-2
2.278246343E0,1.068141498E-2,-2.935294807E-1,1.007753089E-1
2.282213530E0,1.326450240E-2,-3.353300989E-1,1.250179410E-1
2.286185405E0,1.919862255E-2,-3.868696690E-1,1.540602148E-1
2.290154155E0,3.007202223E-2,-4.504171312E-1,1.899267286E-1
2.294126030E0,4.632103816E-2,-5.230228305E-1,2.335948646E-1
2.298096343E0,6.651449949E-2,-5.938657522E-1,2.874382734E-1
2.302065093E0,8.637634665E-2,-6.707300544E-1,3.442312777E-1
2.306036968E0,1.069014147E-1,-7.687477469E-1,4.079706967E-1
2.310013530E0,1.228188202E-1,-8.814785480E-1,4.717101455E-1
2.313977593E0,1.341809183E-1,-1.000283122E0,5.330235362E-1
2.317949468E0,1.356469840E-1,-1.140520334E0,6.015451550E-1
2.321919780E0,1.307600737E-1,-1.278715491E0,6.726847887E-1
2.325890093E0,1.150346473E-1,-1.421326280E0,7.526558042E-1
2.329860405E0,9.061749279E-2,-1.554128408E0,8.328536749E-1
2.333830718E0,5.623450875E-2,-1.676336408E0,9.056687951E-1
2.337801030E0,1.085594762E-2,-1.814601421E0,9.863553643E-1
2.341772905E0,-4.084070399E-2,-1.957526326E0,1.065366387E0
2.345743218E0,-9.906488657E-2,-2.107729435E0,1.145145416E0
2.349711968E0,-1.599768847E-1,-2.264582157E0,1.224767327E0
2.353683843E0,-2.267706245E-1,-2.412219524E0,1.297931552E0
2.357654155E0,-2.911383808E-1,-2.566314697E0,1.375110030E0
2.361624468E0,-3.455577493E-1,-2.714405775E0,1.456023455E0
2.365594780E0,-3.880565166E-1,-2.862497091E0,1.543237567E0
2.369565093E0,-4.180936217E-1,-3.013363361E0,1.632947445E0
2.373535405E0,-4.402418435E-1,-3.165119648E0,1.723460317E0
2.377508843E0,-4.521799088E-1,-3.338413477E0,1.818441033E0
2.381477593E0,-4.575380683E-1,-3.532685995E0,1.914835572E0
2.385447905E0,-4.565432370E-1,-3.766595125E0,2.022016287E0
2.389418218E0,-4.537158012E-1,-4.039041042E0,2.144468546E0
2.393388530E0,-4.511676133E-1,-4.330144405E0,2.278597116E0
2.397358843E0,-4.527384043E-1,-4.643064499E0,2.433722019E0
2.401330718E0,-4.617443085E-1,-4.947519779E0,2.599528313E0
2.405301030E0,-4.803495109E-1,-5.258327961E0,2.788337946E0
2.409271343E0,-5.067214370E-1,-5.537825108E0,2.974913597E0
2.413241655E0,-5.431115627E-1,-5.782362938E0,3.146339893E0
2.417211968E0,-5.915619135E-1,-6.021543026E0,3.312722206E0
2.421182280E0,-6.485992670E-1,-6.242362022E0,3.466712475E0
2.425152593E0,-7.217285633E-1,-6.453389645E0,3.596442938E0
2.429122905E0,-8.074940443E-1,-6.631273746E0,3.709173679E0
2.433094780E0,-9.025446773E-1,-6.751073360E0,3.787451744E0
2.437065093E0,-1.016759038E0,-6.846298218E0,3.848067045E0
2.441033843E0,-1.144045830E0,-6.920928478E0,3.888698339E0
2.445005718E0,-1.291089892E0,-6.982224464E0,3.913900852E0
2.448976030E0,-1.456896186E0,-7.052072525E0,3.928439379E0
2.452946343E0,-1.628968120E0,-7.129600048E0,3.941546917E0
2.456916655E0,-1.808161139E0,-7.197877407E0,3.960012436E0
2.460888530E0,-1.979028821E0,-7.231038570E0,3.992370844E0
2.464858843E0,-2.147522926E0,-7.238159657E0,4.033770084E0
2.468829155E0,-2.298441648E0,-7.234581947E0,4.079968929E0
2.472799468E0,-2.445293427E0,-7.235140324E0,4.121054173E0
2.476769780E0,-2.574814320E0,-7.242976665E0,4.154826164E0
2.480740093E0,-2.689116001E0,-7.255106926E0,4.174007416E0
2.484710405E0,-2.780798197E0,-7.262489319E0,4.176468372E0
2.488680718E0,-2.853456259E0,-7.253151894E0,4.163238525E0
2.492652593E0,-2.897264004E0,-7.218070984E0,4.138576984E0
2.496622905E0,-2.909585953E0,-7.144644737E0,4.103076935E0
2.500593218E0,-2.886320829E0,-7.020133018E0,4.056354523E0
2.504563530E0,-2.837032795E0,-6.864537239E0,4.003977299E0
2.508533843E0,-2.758702278E0,-6.695484638E0,3.936433077E0
2.512504155E0,-2.664821148E0,-6.542750835E0,3.854716778E0
2.516474468E0,-2.553608656E0,-6.399790764E0,3.741270304E0
2.520446343E0,-2.428590775E0,-6.249361038E0,3.593702793E0
2.524415093E0,-2.299663305E0,-6.080273151E0,3.424562931E0
2.528386968E0,-2.163196087E0,-5.877623081E0,3.229138374E0
2.532357280E0,-2.031458616E0,-5.658200264E0,3.001355410E0
2.536327593E0,-1.900576234E0,-5.407344341E0,2.772123814E0
2.540297905E0,-1.773289442E0,-5.127934456E0,2.519696951E0
2.544268218E0,-1.654467463E0,-4.837598801E0,2.267409563E0
2.548241655E0,-1.551318407E0,-4.563302994E0,2.033169031E0
2.552215093E0,-1.467280865E0,-4.323424816E0,1.818947196E0
2.556180718E0,-1.396263361E0,-4.143882751E0,1.641133070E0
2.560151030E0,-1.344636559E0,-4.009335518E0,1.491663098E0
2.564121343E0,-1.313569665E0,-3.918560982E0,1.383592248E0
2.568091655E0,-1.301684022E0,-3.866724491E0,1.320009947E0
2.572061968E0,-1.311230898E0,-3.841801167E0,1.308403492E0
2.576033843E0,-1.340377927E0,-3.828100443E0,1.346783280E0
2.580002593E0,-1.386053205E0,-3.820002079E0,1.427085876E0
2.583974468E0,-1.449129462E0,-3.824051380E0,1.551859498E0
2.587944780E0,-1.533498645E0,-3.841225386E0,1.716321826E0
2.591915093E0,-1.639021277E0,-3.863024473E0,1.904450893E0
2.595885405E0,-1.754893661E0,-3.866183519E0,2.089141607E0
2.599857280E0,-1.873960018E0,-3.845763206E0,2.260201454E0
2.603826030E0,-1.981611967E0,-3.835710049E0,2.386388779E0
2.607797905E0,-2.069785833E0,-3.868155718E0,2.471071959E0
2.611766655E0,-2.134293318E0,-3.937899113E0,2.523833275E0
2.615736968E0,-2.175814629E0,-4.000538826E0,2.553102493E0
2.619708843E0,-2.202134371E0,-4.029249668E0,2.553364277E0
2.623679155E0,-2.209464550E0,-4.007555008E0,2.510551453E0
2.627649468E0,-2.194210529E0,-3.934146643E0,2.415727615E0
2.631621343E0,-2.158308983E0,-3.806318760E0,2.266920805E0
2.635591655E0,-2.096733809E0,-3.617404222E0,2.087692976E0
2.639561968E0,-2.016082287E0,-3.367839575E0,1.886299491E0
2.643532280E0,-1.917855024E0,-3.090087891E0,1.678762436E0
2.647502593E0,-1.794373035E0,-2.837870359E0,1.500424623E0
2.651472905E0,-1.639824152E0,-2.593454599E0,1.331110239E0
2.655443218E0,-1.466774702E0,-2.377400160E0,1.179353833E0
2.659415093E0,-1.275259733E0,-2.175919533E0,1.038750172E0
2.663383843E0,-1.083465457E0,-1.982571840E0,9.317789078E-1
2.667355718E0,-9.024922848E-1,-1.796415091E0,8.596095443E-1
2.671326030E0,-7.372270823E-1,-1.615930557E0,8.331154585E-1
2.675296343E0,-5.906892419E-1,-1.448431253E0,8.471478820E-1
2.679266655E0,-4.818854034E-1,-1.311562538E0,8.864876032E-1
2.683236968E0,-3.991742432E-1,-1.195498228E0,9.440311193E-1
2.687207280E0,-3.488564193E-1,-1.111635089E0,1.003599167E0
2.691179155E0,-3.286629617E-1,-1.043445110E0,1.061596513E0
2.695149468E0,-3.393443525E-1,-9.743475318E-1,1.117639065E0
2.699119780E0,-3.751061559E-1,-8.995601535E-1,1.171272993E0
2.703090093E0,-4.355992675E-1,-8.261690736E-1,1.216703892E0
2.707060405E0,-5.125159621E-1,-7.663915157E-1,1.244524479E0
2.711030718E0,-6.148794889E-1,-7.188836336E-1,1.248625994E0
2.715001030E0,-7.338411212E-1,-6.897715926E-1,1.229671717E0
2.718971343E0,-8.686154485E-1,-6.862459779E-1,1.197749615E0
2.722943218E0,-1.023827553E0,-7.193374634E-1,1.169108748E0
2.726918218E0,-1.167206407E0,-7.593229413E-1,1.156350493E0
2.730883843E0,-1.311859250E0,-7.843683958E-1,1.165810108E0
2.734854155E0,-1.441868901E0,-7.802145481E-1,1.206964970E0
2.738824468E0,-1.551074147E0,-7.565304041E-1,1.260319710E0
2.742794780E0,-1.630120039E0,-7.270169258E-1,1.313674450E0
2.746766655E0,-1.673159838E0,-6.970496178E-1,1.345683813E0
2.750736968E0,-1.684225321E0,-6.627364159E-1,1.348458886E0
2.754707280E0,-1.661832690E0,-6.155776381E-1,1.320742965E0
2.758677593E0,-1.612160683E0,-5.552590489E-1,1.275713563E0
2.762647905E0,-1.540968657E0,-4.722511768E-1,1.205271959E0
2.766618218E0,-1.463092089E0,-3.669380248E-1,1.120518804E0
2.770588530E0,-1.380887032E0,-2.346769720E-1,1.029133439E0
2.774560405E0,-1.297599912E0,-7.841764390E-2,9.407499433E-1
2.778529155E0,-1.214906216E0,6.199409440E-2,8.650026321E-1
2.782501030E0,-1.118127704E0,1.793151200E-1,8.078954816E-1
2.786488530E0,-1.015921235E0,2.475749552E-1,7.764620781E-1
2.790441655E0,-9.159836769E-1,2.698628008E-1,7.669151425E-1
2.794411968E0,-8.113511801E-1,2.556383610E-1,7.730063200E-1
2.798382280E0,-7.245734334E-1,2.267706245E-1,7.878416181E-1
2.802352593E0,-6.527357101E-1,2.013062686E-1,8.120493293E-1
2.806324468E0,-5.938308239E-1,2.053205371E-1,8.448441029E-1
2.810293218E0,-5.501452088E-1,2.473131567E-1,8.854578733E-1
2.814265093E0,-5.295677781E-1,3.117332458E-1,9.206088185E-1
2.818235405E0,-5.339834690E-1,3.604803085E-1,9.398598075E-1
2.822205718E0,-5.611931682E-1,3.822096586E-1,9.399296045E-1
2.826176030E0,-6.036570072E-1,4.020016789E-1,9.230697155E-1
2.830146343E0,-6.552489400E-1,4.244815111E-1,8.979020715E-1
2.834116655E0,-7.147472501E-1,4.435928762E-1,8.637809157E-1
2.838086968E0,-7.787309885E-1,4.535587132E-1,8.375660777E-1
2.842058843E0,-8.418071866E-1,4.504345655E-1,8.186815977E-1
2.846029155E0,-8.910604119E-1,4.347265959E-1,8.095360398E-1
2.849999468E0,-9.231919050E-1,4.107457995E-1,8.080700040E-1
2.853969780E0,-9.245008826E-1,3.793647587E-1,8.102341890E-1
2.857940093E0,-8.906764388E-1,3.395712674E-1,8.183325529E-1
2.861910405E0,-8.274955153E-1,2.984513044E-1,8.327838778E-1
2.865882280E0,-7.422536016E-1,2.639636099E-1,8.621402979E-1
2.869851030E0,-6.266779304E-1,2.409427017E-1,8.990016580E-1
2.873822905E0,-4.851666093E-1,2.384119779E-1,9.346761703E-1
2.877793218E0,-3.308446109E-1,2.546086311E-1,9.573829174E-1
2.881763530E0,-1.692271233E-1,2.707529366E-1,9.617986083E-1
2.885733843E0,-1.303760987E-2,2.730218470E-1,9.477486610E-1
2.889705718E0,1.377762854E-1,2.605078518E-1,9.154775739E-1
2.893676030E0,2.824117243E-1,2.319542617E-1,8.803964257E-1
2.897646343E0,4.243069887E-1,2.044653147E-1,8.551415205E-1
2.901616655E0,5.576676130E-1,1.914277077E-1,8.375660777E-1
2.905604155E0,6.615670323E-1,1.820203811E-1,8.260643482E-1
2.909557280E0,7.309264541E-1,1.627344936E-1,8.167442679E-1
2.913527593E0,7.791149616E-1,1.218763441E-1,8.039335608E-1
2.917497905E0,8.062897325E-1,7.401940972E-2,7.899011374E-1
2.921469780E0,8.177216649E-1,2.782054804E-2,7.802145481E-1
2.925440093E0,8.177042007E-1,-8.761553094E-3,7.760431767E-1
2.929408843E0,8.063944578E-1,-3.183480725E-2,7.764446139E-1
2.933380718E0,7.882430553E-1,-4.494222626E-2,7.725176215E-1
2.937351030E0,7.696552873E-1,-4.714134336E-2,7.629008889E-1
2.941321343E0,7.514166236E-1,-5.342452973E-2,7.507534027E-1
2.945291655E0,7.350628376E-1,-6.440264732E-2,7.382568121E-1
2.949263530E0,7.270169258E-1,-7.119198143E-2,7.295650840E-1
2.953232280E0,7.303504944E-1,-5.913175642E-2,7.257951498E-1
2.957204155E0,7.409969568E-1,-1.324704941E-2,7.270692587E-1
2.961174468E0,7.549247146E-1,4.134684801E-2,7.304202914E-1
2.965144780E0,7.653443217E-1,7.579965144E-2,7.266503572E-1
2.969115093E0,7.703185081E-1,6.792821735E-2,7.089701891E-1
2.973085405E0,7.667929530E-1,2.295107953E-2,6.736272573E-1
2.977055718E0,7.557973862E-1,-3.544763848E-2,6.335545182E-1
2.981027593E0,7.375586629E-1,-7.930775732E-2,5.943369865E-1
2.984997905E0,7.157944441E-1,-1.062381938E-1,5.604775548E-1
2.988968218E0,6.905744076E-1,-1.176177412E-1,5.346466899E-1
2.992938530E0,6.573433280E-1,-1.240405515E-1,5.211204290E-1
2.996908843E0,6.166073680E-1,-1.338318437E-1,5.156575441E-1
3.000879155E0,5.764822364E-1,-1.497841626E-1,5.137725472E-1
3.004851030E0,5.380151868E-1,-1.676563323E-1,5.114861727E-1
3.008821343E0,5.046619773E-1,-1.858601123E-1,5.108927488E-1
3.012790093E0,4.693015814E-1,-2.037148327E-1,5.054647923E-1
3.016761968E0,4.442735612E-1,-2.044653147E-1,4.966683388E-1
3.020732280E0,4.306774437E-1,-1.948485523E-1,4.867199659E-1
3.024702593E0,4.235216081E-1,-1.933824867E-1,4.723559022E-1
3.028674468E0,4.222649634E-1,-2.109055817E-1,4.549375176E-1
3.032643218E0,4.293160737E-1,-2.427403927E-1,4.312708676E-1
3.036613530E0,4.445353448E-1,-2.837032676E-1,4.058239460E-1
3.040585405E0,4.665788710E-1,-3.186447620E-1,3.868347704E-1
3.044555718E0,4.904026091E-1,-3.422067165E-1,3.752632439E-1
3.048526030E0,5.062502027E-1,-3.650356233E-1,3.675837815E-1
3.052496343E0,5.186594725E-1,-3.798883557E-1,3.625746965E-1
3.056466655E0,5.249077678E-1,-3.818082213E-1,3.617194891E-1
3.060438530E0,5.277352333E-1,-3.650006950E-1,3.610562682E-1
3.064408843E0,5.260596871E-1,-3.341258168E-1,3.608642817E-1
3.068379155E0,5.193052888E-1,-2.923426628E-1,3.605326712E-1
3.072349468E0,5.082224011E-1,-2.441191971E-1,3.560820818E-1
3.076319780E0,4.958305955E-1,-2.000670880E-1,3.448247015E-1
3.080290093E0,4.898790121E-1,-1.598372459E-1,3.289596438E-1
3.084260405E0,4.917988777E-1,-1.266061813E-1,3.076491952E-1
3.088232280E0,5.010316372E-1,-1.006356850E-1,2.790606916E-1
3.092201030E0,5.172806978E-1,-8.243189752E-2,2.467895597E-1
3.096172905E0,5.365840197E-1,-6.564183533E-2,2.073451132E-1
3.100143218E0,5.607219338E-1,-6.365215778E-2,1.617047489E-1
3.104113530E0,5.896071196E-1,-7.337363809E-2,1.061334684E-1
3.108083843E0,6.129421592E-1,-8.796459436E-2,5.234242231E-2
3.112054155E0,6.286675930E-1,-1.018574163E-1,5.061454605E-3
3.116024468E0,6.380400062E-1,-1.202357337E-1,-3.179989755E-2
3.119996343E0,6.397329569E-1,-1.390154809E-1,-5.330235511E-2
3.123965093E0,6.336941719E-1,-1.588249654E-1,-5.951572582E-2
3.127936968E0,6.173753142E-1,-1.769414842E-1,-5.691518635E-2
3.131907280E0,5.985082984E-1,-1.857379377E-1,-3.818780556E-2
3.135877593E0,5.825908780E-1,-1.895253062E-1,-4.084070213E-3
3.139847905E0,5.709146261E-1,-1.888620704E-1,4.300491139E-2
3.143818218E0,5.657659173E-1,-1.901885271E-1,8.904670179E-2
3.147788530E0,5.666735172E-1,-1.933824867E-1,1.325054020E-1
3.151758843E0,5.714382529E-1,-2.014459074E-1,1.632580906E-1
3.155730718E0,5.728344917E-1,-2.166477144E-1,1.785122752E-1
3.159701030E0,5.718396902E-1,-2.319018990E-1,1.793151200E-1
3.163669780E0,5.658706427E-1,-2.367888242E-1,1.722989082E-1
3.167641655E0,5.530250072E-1,-2.361081392E-1,1.663822383E-1
3.171611968E0,5.305626392E-1,-2.423738688E-1,1.675516069E-1
3.175582280E0,5.015203357E-1,-2.541199327E-1,1.788438857E-1
3.179554155E0,4.656538367E-1,-2.624451518E-1,1.969953179E-1
3.183524468E0,4.191233516E-1,-2.668783069E-1,2.113768309E-1
3.187493218E0,3.589618802E-1,-2.627767622E-1,2.136283070E-1
3.191465093E0,2.928487957E-1,-2.531076372E-1,2.084970325E-1
3.195435405E0,2.241177261E-1,-2.438050359E-1,1.970651299E-1
3.199405718E0,1.584758908E-1,-2.452885658E-1,1.796292812E-1
3.203377593E0,1.032711342E-1,-2.545737326E-1,1.622807086E-1
3.207346343E0,5.831145123E-2,-2.613630593E-1,1.493303776E-1
3.211318218E0,2.822197415E-2,-2.596700788E-1,1.415811032E-1
3.215288530E0,1.511455141E-2,-2.506641746E-1,1.374621242E-1
3.219258843E0,1.425934024E-2,-2.324953079E-1,1.366941929E-1
3.223229155E0,2.232276089E-2,-2.068564296E-1,1.376890242E-1
3.227199468E0,3.300417587E-2,-1.664346009E-1,1.427679360E-1
3.231169780E0,4.707153141E-2,-1.226268336E-1,1.526639462E-1
3.235141655E0,7.393214852E-2,-7.929030806E-2,1.699950695E-1
3.239111968E0,1.081755087E-1,-3.066543490E-2,1.894380301E-1
3.243082280E0,1.439023912E-1,1.258382387E-2,2.014284432E-1
3.247052593E0,1.818283945E-1,3.726277873E-2,2.086192071E-1
3.251022905E0,2.180439830E-1,4.113740847E-2,2.056870461E-1
3.254993218E0,2.529331148E-1,3.700098023E-2,1.994911283E-1
3.258963530E0,2.844712138E-1,3.502875939E-2,1.897521913E-1
3.262943218E0,3.053453565E-1,3.495894372E-2,1.771160066E-1
3.266935405E0,3.156078756E-1,3.885103017E-2,1.685639024E-1
3.270876030E0,3.125535548E-1,4.290019348E-2,1.599943340E-1
3.274846343E0,2.953620553E-1,3.913028166E-2,1.570098251E-1
3.278816655E0,2.637890577E-1,2.836159989E-2,1.584933549E-1
3.282786968E0,2.209237814E-1,1.607448235E-2,1.629439443E-1
3.286757280E0,1.687907875E-1,5.777040031E-3,1.704314053E-1
3.290727593E0,1.068839654E-1,-6.457717973E-4,1.806590259E-1
3.294699468E0,4.183554277E-2,-4.572762642E-3,1.929636002E-1
3.298668218E0,-2.813470736E-2,-1.027998887E-2,2.053554356E-1
3.302640093E0,-9.482374042E-2,-1.401499379E-2,2.158099562E-1
3.306610405E0,-1.588947773E-1,-1.258382387E-2,2.269626111E-1
3.310580718E0,-2.167000771E-1,-6.195918657E-3,2.408554405E-1
3.314551030E0,-2.599318922E-1,8.237954229E-3,2.538057864E-1
3.318522905E0,-2.952747941E-1,2.481858246E-2,2.701420486E-1
3.322493218E0,-3.201457560E-1,4.644321278E-2,2.874906361E-1
3.326463530E0,-3.373197913E-1,7.569492608E-2,3.037571013E-1
3.330433843E0,-3.458544314E-1,1.155582517E-1,3.117681742E-1
3.334404155E0,-3.473379612E-1,1.556135565E-1,3.150668442E-1
3.338374468E0,-3.430444598E-1,1.899965405E-1,3.159220517E-1
3.342344780E0,-3.326073885E-1,2.144660652E-1,3.117856085E-1
3.346315093E0,-3.196395934E-1,2.289872020E-1,3.043679595E-1
3.350285405E0,-3.033207655E-1,2.336646765E-1,2.956587672E-1
3.354257280E0,-2.880665958E-1,2.336821258E-1,2.902308106E-1
3.358226030E0,-2.700896859E-1,2.272069603E-1,2.894105017E-1
3.362197905E0,-2.490061224E-1,2.077814490E-1,2.949257493E-1
3.366168218E0,-2.213775665E-1,1.751437932E-1,3.061482012E-1
3.370138530E0,-1.873785406E-1,1.463109553E-1,3.244217932E-1
3.374108843E0,-1.557706296E-1,1.259953231E-1,3.413864076E-1
3.378080718E0,-1.269028932E-1,1.088038236E-1,3.577052355E-1
3.382057280E0,-1.088387296E-1,9.634217620E-2,3.679852188E-1
3.386021343E0,-1.014210805E-1,8.798204362E-2,3.720169365E-1
3.389991655E0,-1.030965969E-1,8.143706620E-2,3.735179007E-1
3.393961968E0,-1.116661653E-1,7.822565734E-2,3.740589619E-1
3.397932280E0,-1.266934574E-1,7.286749780E-2,3.739018738E-1
3.401902593E0,-1.480737329E-1,6.921976060E-2,3.768514991E-1
3.405872905E0,-1.715658605E-1,6.901031733E-2,3.832044899E-1
3.409843218E0,-1.998227388E-1,6.941174716E-2,3.907442987E-1
3.413815093E0,-2.297551483E-1,7.117452472E-2,3.945142329E-1
3.417785405E0,-2.646617293E-1,7.510151714E-2,3.957883120E-1
3.421755718E0,-2.980149686E-1,8.349654824E-2,3.962770104E-1
3.425726030E0,-3.295879662E-1,9.260717034E-2,3.947411180E-1
3.429696343E0,-3.629412055E-1,1.031140536E-1,3.919485807E-1
3.433668218E0,-3.952821791E-1,1.145808622E-1,3.854908645E-1
3.437638530E0,-4.275009334E-1,1.309695095E-1,3.779335916E-1
3.441607280E0,-4.568224847E-1,1.494001895E-1,3.661875427E-1
3.445579155E0,-4.823915362E-1,1.659459025E-1,3.533244431E-1
3.449549468E0,-5.033529401E-1,1.815491468E-1,3.379481137E-1
3.453519780E0,-5.277701020E-1,2.092300653E-1,3.176673651E-1
3.457490093E0,-5.514717102E-1,2.337868512E-1,2.980673313E-1
3.461460405E0,-5.597620010E-1,2.456201911E-1,2.827258706E-1
3.465430718E0,-5.544038415E-1,2.443286479E-1,2.709099948E-1
3.469402593E0,-5.367410779E-1,2.385690510E-1,2.599842548E-1
3.473372905E0,-5.146626830E-1,2.332981676E-1,2.533869147E-1
3.477343218E0,-4.912927151E-1,2.355321795E-1,2.456376404E-1
3.481313530E0,-4.689350724E-1,2.358288914E-1,2.387959510E-1
3.485283843E0,-4.501727819E-1,2.346769720E-1,2.356718034E-1
3.489254155E0,-4.326322079E-1,2.351482064E-1,2.334901392E-1
3.493226030E0,-4.211305082E-1,2.387261391E-1,2.354798168E-1
3.497196343E0,-4.154232740E-1,2.432639897E-1,2.402096689E-1
3.501171343E0,-4.154407084E-1,2.462659627E-1,2.444682717E-1
3.505136968E0,-4.185997546E-1,2.453932911E-1,2.443809956E-1
3.509107280E0,-4.308519661E-1,2.487617731E-1,2.395464331E-1
3.513077593E0,-4.578522146E-1,2.669655681E-1,2.253220081E-1
3.517049468E0,-4.835434556E-1,2.801427841E-1,2.139424533E-1
3.521024468E0,-5.108753443E-1,2.811900079E-1,2.124589235E-1
3.524988530E0,-5.354670286E-1,2.727251351E-1,2.209586799E-1
3.528960405E0,-5.591860414E-1,2.565110326E-1,2.322160602E-1
3.532930718E0,-5.784718990E-1,2.357241660E-1,2.485523373E-1
3.536901030E0,-5.883330107E-1,2.113419175E-1,2.627418637E-1
3.540871343E0,-5.896943808E-1,1.867502332E-1,2.756398618E-1
3.544843218E0,-5.856801271E-1,1.669407487E-1,2.848551869E-1
3.548813530E0,-5.751557946E-1,1.559102684E-1,2.914874256E-1
3.552783843E0,-5.612629652E-1,1.548281610E-1,2.981720567E-1
3.556754155E0,-5.388355255E-1,1.626821458E-1,3.065496385E-1
3.560724468E0,-5.108404160E-1,1.742187589E-1,3.167074323E-1
3.564694780E0,-4.782725871E-1,1.852143407E-1,3.294309080E-1
3.568665093E0,-4.407130778E-1,1.933475733E-1,3.390825689E-1
3.572635405E0,-3.985633850E-1,2.013237327E-1,3.459766209E-1
3.576605718E0,-3.555061221E-1,2.082352340E-1,3.483677208E-1
3.580576030E0,-3.135658503E-1,2.131919712E-1,3.458195329E-1
3.584547905E0,-2.758318484E-1,2.155481577E-1,3.392920196E-1
3.588518218E0,-2.412917614E-1,2.184105068E-1,3.303733766E-1
3.592488530E0,-2.137853801E-1,2.208190560E-1,3.205122650E-1
3.596458843E0,-1.954768747E-1,2.204001844E-1,3.114539981E-1
3.600429155E0,-1.830152273E-1,2.247809470E-1,3.045948744E-1
3.604399468E0,-1.820203811E-1,2.324080467E-1,2.891312540E-1
3.608369780E0,-1.954768747E-1,2.429847419E-1,2.567902803E-1
3.612341655E0,-2.155307084E-1,2.443984598E-1,2.224422097E-1
3.616311968E0,-2.401747555E-1,2.330363542E-1,1.948136538E-1
3.620282280E0,-2.624277174E-1,2.086715698E-1,1.757197529E-1
3.624252593E0,-2.778564095E-1,1.899790913E-1,1.671327353E-1
3.628222905E0,-2.852042615E-1,1.715484113E-1,1.725607067E-1
3.632194780E0,-2.890614271E-1,1.459967941E-1,1.855808645E-1
3.636163530E0,-2.878222466E-1,1.063778177E-1,2.037322819E-1
3.640135405E0,-2.883807421E-1,5.927138031E-2,2.185501307E-1
3.644105718E0,-2.995159626E-1,2.305579931E-2,2.195798755E-1
3.648076030E0,-3.201806545E-1,9.389871731E-3,2.080781460E-1
3.652046343E0,-3.449992239E-1,1.921607554E-2,1.968033314E-1
3.656018218E0,-3.686309755E-1,4.754276946E-2,1.846732944E-1
3.659986968E0,-3.876027167E-1,7.134906203E-2,1.751961559E-1
3.663957280E0,-3.984062970E-1,9.515535086E-2,1.691049486E-1
3.667929155E0,-4.000294507E-1,1.201833710E-1,1.633104533E-1
3.671899468E0,-3.957708478E-1,1.411622316E-1,1.589296758E-1
3.675869780E0,-3.847403824E-1,1.625948697E-1,1.531177312E-1
3.679840093E0,-3.710046411E-1,1.821774691E-1,1.498016119E-1
3.683810405E0,-3.566056788E-1,1.927192509E-1,1.480388194E-1
3.687780718E0,-3.421543539E-1,2.002765238E-1,1.454731971E-1
3.691752593E0,-3.277030289E-1,2.087064683E-1,1.437453181E-1
3.695722905E0,-3.135483861E-1,2.142217159E-1,1.404291838E-1
3.699691655E0,-2.985560298E-1,2.173109502E-1,1.392772794E-1
3.703663530E0,-2.797588110E-1,2.194751501E-1,1.361007690E-1
3.707633843E0,-2.611536086E-1,2.206445187E-1,1.319818050E-1
3.711604155E0,-2.407856286E-1,2.158448696E-1,1.268330812E-1
3.715574468E0,-2.207317948E-1,2.031388730E-1,1.193107069E-1
3.719544780E0,-2.036101073E-1,1.829803139E-1,1.135860309E-1
3.723516655E0,-1.880068630E-1,1.551248580E-1,1.098335683E-1
3.727486968E0,-1.741489470E-1,1.313011199E-1,1.079660654E-1
3.731457280E0,-1.640609503E-1,1.098859310E-1,1.058193147E-1
3.735427593E0,-1.581268311E-1,8.639379591E-2,9.998991340E-2
3.739410405E0,-1.538682282E-1,6.988298148E-2,9.485864639E-2
3.743368218E0,-1.518611014E-1,5.789257213E-2,8.644615859E-2
3.747338530E0,-1.508837193E-1,4.951499030E-2,7.386233658E-2
3.751308843E0,-1.482133567E-1,4.190535471E-2,6.501351297E-2
3.755279155E0,-1.448099613E-1,3.991568089E-2,5.623450875E-2
3.759251030E0,-1.418254524E-1,3.625048697E-2,4.836307466E-2
3.763221343E0,-1.357691586E-1,3.047344834E-2,4.241150245E-2
3.767190093E0,-1.296779662E-1,2.775073424E-2,4.160865024E-2
3.771161968E0,-1.244768798E-1,2.734931000E-2,4.244640842E-2
3.775132280E0,-1.169545129E-1,2.815216035E-2,4.358087108E-2
3.779102593E0,-1.112298295E-1,2.520255372E-2,4.433136433E-2
3.783074468E0,-1.050513685E-1,2.471386269E-2,4.527384043E-2
3.787044780E0,-9.773843735E-2,2.790781483E-2,4.522148147E-2
3.791015093E0,-8.709193021E-2,3.145083413E-2,4.564036056E-2
3.794985405E0,-7.272786647E-2,3.778637946E-2,4.742059484E-2
3.798955718E0,-5.799729005E-2,4.246386141E-2,4.864232615E-2
3.802926030E0,-4.406956211E-2,4.384266958E-2,4.564036056E-2
3.806896343E0,-3.050835431E-2,4.462806880E-2,4.124213010E-2
3.810868218E0,-1.867502369E-2,5.281366408E-2,3.949680179E-2
3.814836968E0,-9.424777701E-3,6.084217876E-2,3.708824515E-2
3.818808843E0,-2.949606394E-3,6.457718462E-2,3.810053691E-2
3.822779155E0,6.981316983E-5,6.901031733E-2,4.335397854E-2
3.826749468E0,-2.862340072E-3,7.452555746E-2,5.117305368E-2
3.830721343E0,-1.192059834E-2,8.183848858E-2,5.866051465E-2
3.834690093E0,-2.572615258E-2,8.662068844E-2,6.284930557E-2
3.838660405E0,-4.166100919E-2,8.620180935E-2,6.592108309E-2
3.842632280E0,-6.028367206E-2,8.655087650E-2,6.309365481E-2
3.846602593E0,-7.929030806E-2,7.775441557E-2,6.085963175E-2
3.850572905E0,-9.854128957E-2,7.079055160E-2,6.010913849E-2
3.854543218E0,-1.160643920E-1,6.265731901E-2,5.766567960E-2
3.858513530E0,-1.292067170E-1,5.571090803E-2,5.222025141E-2
3.862483843E0,-1.385093331E-1,4.968952388E-2,4.778711498E-2
3.866455718E0,-1.442514658E-1,4.255112633E-2,4.241150245E-2
3.870424468E0,-1.451415867E-1,3.647737950E-2,4.040437192E-2
3.874396343E0,-1.450717598E-1,3.157300502E-2,4.063126445E-2
3.878366655E0,-1.443038285E-1,2.700024284E-2,4.070107639E-2
3.882336968E0,-1.421396136E-1,2.218313515E-2,4.235913977E-2
3.886307280E0,-1.393121779E-1,1.776745170E-2,4.431391135E-2
3.890279155E0,-1.343729049E-1,1.225221157E-2,4.661774263E-2
3.894247905E0,-1.261523962E-1,6.440265104E-3,5.068436265E-2
3.898219780E0,-1.143888757E-1,-7.679448463E-4,5.777039751E-2
3.902190093E0,-9.911724925E-2,-3.263765713E-3,6.442010403E-2
3.906160405E0,-8.159413934E-2,-4.817108624E-3,7.098253816E-2
3.910130718E0,-6.211626902E-2,-5.218534265E-3,7.796385884E-2
3.914101030E0,-4.077089205E-2,-4.572762642E-3,8.594001085E-2
3.918071343E0,-2.420771681E-2,5.410520826E-4,9.255480766E-2
3.922041655E0,-1.192059834E-2,8.517206647E-3,9.834930301E-2
3.926013530E0,-5.113814492E-3,1.706931926E-2,9.864600748E-2
3.929982280E0,-1.815142459E-3,2.471386269E-2,9.887290001E-2
3.933954155E0,-4.869468510E-3,3.138101846E-2,9.503317624E-2
3.937924468E0,-9.896016680E-3,3.476695716E-2,8.452629298E-2
3.941894780E0,-1.631882787E-2,3.384193406E-2,7.096508890E-2
3.945865093E0,-2.417281084E-2,3.150319308E-2,5.131268129E-2
3.949835405E0,-3.087487444E-2,3.118903376E-2,3.054326214E-2
3.953805718E0,-3.939208016E-2,3.155555204E-2,7.208209950E-3
3.957777593E0,-5.637413636E-2,3.600614145E-2,-2.940879762E-2
3.961747905E0,-7.119198143E-2,4.515166581E-2,-5.976007506E-2
3.965718218E0,-8.438666910E-2,5.372123420E-2,-7.340855151E-2
3.969688530E0,-9.009389579E-2,5.700245500E-2,-7.138396800E-2
3.973658843E0,-9.021607041E-2,4.464552179E-2,-6.016149744E-2
3.977633843E0,-8.588765562E-2,1.701696031E-2,-4.473278672E-2
3.981599468E0,-8.325220644E-2,-9.320057929E-3,-3.317870945E-2
3.985571343E0,-7.970918715E-2,-2.192133479E-2,-2.804744057E-2
3.989540093E0,-7.276277989E-2,-1.946042106E-2,-2.583087236E-2
3.993511968E0,-6.131341681E-2,-1.158898603E-2,-2.253220044E-2
3.997480718E0,-4.794419557E-2,-4.729842301E-3,-2.090904489E-2
4.001451030E0,-3.256784379E-2,-2.024581889E-3,-1.673770696E-2
4.005422905E0,-1.214749180E-2,-2.827433404E-3,-1.038470864E-2
4.009393218E0,1.031489577E-2,-3.647738136E-3,-3.159045940E-3
4.013363530E0,3.183480725E-2,-1.762782573E-3,4.293509759E-3
4.017335405E0,5.040510744E-2,4.293509759E-3,8.482299745E-3
4.021304155E0,6.546729803E-2,1.054178830E-2,1.094321441E-2
4.025274468E0,7.752752304E-2,1.488765888E-2,1.293289009E-2
4.029246343E0,8.489281684E-2,1.677261479E-2,1.375319436E-2
4.033216655E0,8.861036599E-2,1.996656694E-2,1.382300723E-2
4.037186968E0,8.838347346E-2,2.366666496E-2,9.162978269E-3
4.041157280E0,8.801695704E-2,2.928662486E-2,4.799655639E-3
4.045127593E0,8.611454815E-2,3.331833705E-2,-3.857177682E-3
4.049099468E0,8.367108554E-2,3.438298777E-2,-1.453859266E-2
4.053069780E0,8.211774379E-2,3.719296679E-2,-2.501056902E-2
4.057038530E0,7.134906203E-2,4.426154867E-2,-4.398229718E-2
4.061010405E0,6.129596382E-2,4.715879634E-2,-6.356488913E-2
4.064980718E0,5.490805954E-2,3.949680179E-2,-7.482226193E-2
4.068951030E0,5.504768342E-2,2.560397983E-2,-7.956956327E-2
4.072921343E0,5.885250121E-2,5.270894151E-3,-8.185594529E-2
4.076891655E0,6.480407715E-2,-1.778490469E-2,-8.185594529E-2
4.080861968E0,7.058111578E-2,-4.096287861E-2,-7.944738865E-2
4.084832280E0,7.344345748E-2,-5.543165654E-2,-7.625343651E-2
4.088804155E0,7.419394702E-2,-6.478662044E-2,-7.211700082E-2
4.092774468E0,7.182029635E-2,-7.293730974E-2,-6.485643238E-2
4.096751030E0,6.939429045E-2,-7.672467083E-2,-5.708971992E-2
4.100715093E0,7.056365907E-2,-7.424630970E-2,-4.710643739E-2
4.104685405E0,6.846926361E-2,-7.840018719E-2,-3.680899367E-2
4.108657280E0,6.822492182E-2,-8.731882274E-2,-2.630211227E-2
4.112627593E0,6.620033830E-2,-8.470083028E-2,-1.738347858E-2
4.116597905E0,6.236061454E-2,-7.707373798E-2,-1.204277202E-2
4.120568218E0,5.789257213E-2,-7.131415606E-2,-1.050688233E-2
4.124538530E0,5.146975815E-2,-7.056365907E-2,-1.235693134E-2
4.128508843E0,4.136430472E-2,-7.007496804E-2,-1.481784508E-2
4.132480718E0,3.000221029E-2,-6.799802929E-2,-2.131047100E-2
4.136449468E0,1.874483563E-2,-6.248278543E-2,-2.783800103E-2
4.140419780E0,1.024508290E-2,-5.412266031E-2,-3.464478627E-2
4.144391655E0,2.775073517E-3,-4.696680978E-2,-4.017747939E-2
4.148361968E0,-3.089232836E-3,-4.043927789E-2,-4.269075394E-2
4.152332280E0,-6.579891313E-3,-3.754203022E-2,-4.033455998E-2
4.156304155E0,-7.173303049E-3,-3.843215108E-2,-3.384193406E-2
4.160272905E0,-4.782202188E-3,-4.063126445E-2,-2.401573025E-2
4.164243218E0,-1.745329238E-3,-4.180063680E-2,-1.483529899E-2
4.168215093E0,3.385938704E-3,-4.241150245E-2,-6.719517522E-3
4.172185405E0,9.250245057E-3,-4.316199198E-2,3.508111695E-3
4.176155718E0,1.514945831E-2,-4.757767543E-2,1.129228063E-2
4.180126030E0,1.850049011E-2,-5.220279843E-2,1.542871073E-2
4.184096343E0,1.891936921E-2,-5.218534544E-2,1.757546514E-2
4.188066655E0,1.436406001E-2,-5.234242231E-2,1.466076542E-2
4.192038530E0,6.405358203E-3,-5.087634921E-2,1.029744279E-2
4.196007280E0,-4.084070213E-3,-4.792674258E-2,3.438298590E-3
4.199977593E0,-1.570796408E-2,-4.431391135E-2,-6.928957067E-3
4.203949468E0,-2.476622164E-2,-4.214970022E-2,-1.699950732E-2
4.207919780E0,-3.089232743E-2,-3.843215108E-2,-3.152064607E-2
4.211890093E0,-3.609341010E-2,-3.204424679E-2,-4.448844120E-2
4.215860405E0,-4.045673087E-2,-2.827433310E-2,-5.494296551E-2
4.219830718E0,-4.492477328E-2,-2.352703735E-2,-6.400122494E-2
4.223801030E0,-4.639085010E-2,-1.206022501E-2,-7.192502171E-2
4.227772905E0,-4.118977115E-2,1.012290944E-3,-7.880161703E-2
4.231743218E0,-3.082251363E-2,6.824237294E-3,-8.075638115E-2
4.235713530E0,-1.966986060E-2,1.843067631E-2,-8.141960949E-2
4.239683843E0,-1.014036313E-2,2.553416602E-2,-8.248426020E-2
4.243654155E0,-7.330382941E-4,2.316051908E-2,-8.246680349E-2
4.247626030E0,7.278022822E-3,1.680752076E-2,-7.960446924E-2
4.251594780E0,1.389282104E-2,1.396263391E-2,-7.360053062E-2
4.255565093E0,1.755801216E-2,1.005309634E-2,-6.328564137E-2
4.259568218E0,1.958259381E-2,2.565633971E-3,-4.871213809E-2
4.263507280E0,2.340486459E-2,-4.799655639E-3,-3.467969224E-2
4.267477593E0,2.771582827E-2,-8.831365965E-3,-2.108357660E-2
4.271447905E0,3.305653483E-2,-1.047197543E-2,-5.794493016E-3
4.275418218E0,3.792600334E-2,-1.106538717E-2,5.707226694E-3
4.279388530E0,4.295255244E-2,-1.015781611E-2,1.263618376E-2
4.283358843E0,4.696680978E-2,-1.111774705E-2,1.562069636E-2
4.287330718E0,5.057964101E-2,-1.122246683E-2,1.881464943E-2
4.291301030E0,5.166174471E-2,-1.336922217E-2,1.965240762E-2
4.295271343E0,5.255186185E-2,-1.345648803E-2,1.912880875E-2
4.299241655E0,5.098106712E-2,-1.530653704E-2,1.926843449E-2
4.303211968E0,4.892157763E-2,-1.396263391E-2,1.768018492E-2
4.307183843E0,4.792674258E-2,-1.406735368E-2,1.499237865E-2
4.311152593E0,4.616395757E-2,-1.214749180E-2,1.368338149E-2
4.315124468E0,4.644321278E-2,-9.843656793E-3,1.289798319E-2
4.319094780E0,4.817108810E-2,-3.508111695E-3,1.284562331E-2
4.323065093E0,5.059709400E-2,2.181661548E-3,1.417207345E-2
4.327035405E0,5.452408642E-2,6.230825558E-3,1.347394194E-2
4.331005718E0,5.766567960E-2,1.179842558E-2,1.223475765E-2
4.334976030E0,6.164502725E-2,2.213077433E-2,8.168140426E-3
4.338946343E0,5.682792142E-2,3.911282867E-2,-8.237954229E-3
4.342918218E0,5.223770440E-2,6.085963175E-2,-2.954842336E-2
4.346888530E0,5.164429173E-2,7.709119469E-2,-3.946189582E-2
4.350858843E0,5.255186185E-2,8.553858846E-2,-4.099778458E-2
4.354829155E0,5.668829381E-2,8.037241548E-2,-3.433062509E-2
4.358799468E0,5.913175642E-2,6.335545331E-2,-2.399827726E-2
4.362769780E0,5.675810575E-2,4.024729133E-2,-1.076868176E-2
4.366741655E0,4.591961205E-2,1.750565320E-2,-3.996803891E-3
4.370710405E0,2.412045002E-2,2.687806962E-3,-8.395033889E-3
4.374682280E0,-1.570796361E-3,-4.014257342E-3,-1.963495463E-2
4.378652593E0,-2.560397983E-2,-6.667157635E-3,-3.176499158E-2
4.382622905E0,-4.796164855E-2,-3.892084118E-3,-4.394739121E-2
4.386594780E0,-6.508332491E-2,1.326450263E-3,-5.841616914E-2
4.390565093E0,-7.843509316E-2,7.819075137E-3,-7.017968595E-2
4.394533843E0,-8.854055405E-2,1.176351868E-2,-7.759733498E-2
4.398505718E0,-9.449212253E-2,1.279326342E-2,-8.030259609E-2
4.402476030E0,-9.677850455E-2,1.698205434E-2,-8.009316027E-2
4.406446343E0,-9.393361956E-2,1.160643995E-2,-7.508406043E-2
4.410416655E0,-8.461356163E-2,5.218534265E-3,-6.443755329E-2
4.414386968E0,-7.103490084E-2,8.552113432E-4,-5.112069473E-2
4.418357280E0,-5.619960278E-2,-6.579891313E-3,-3.303908184E-2
4.422329155E0,-3.682644665E-2,-1.380555425E-2,-1.342158206E-2
4.426299468E0,-1.537635084E-2,-1.825614460E-2,5.218534265E-3
4.430268218E0,9.180432186E-3,-2.136282995E-2,2.242748067E-2
4.434240093E0,3.364994749E-2,-2.518510073E-2,3.504621238E-2
4.438210405E0,5.688028038E-2,-2.708750963E-2,4.466297477E-2
4.442180718E0,7.710864395E-2,-2.502802201E-2,4.988151044E-2
4.446151030E0,9.199630469E-2,-1.862266287E-2,5.124286562E-2
4.450121343E0,1.038645431E-1,-1.151917316E-2,5.263913050E-2
4.454105718E0,1.102699041E-1,-4.241149873E-3,5.105087906E-2
4.458063530E0,1.126959100E-1,-2.949606394E-3,4.913101718E-2
4.462033843E0,1.110727564E-1,-3.665191354E-3,4.667010531E-2
4.466004155E0,1.062730998E-1,-5.218534265E-3,4.482005537E-2
4.469974468E0,9.960594028E-2,-8.936085738E-3,4.464552179E-2
4.473944780E0,8.958774805E-2,-1.246165112E-2,4.490732029E-2
4.477916655E0,7.855726779E-2,-1.759291813E-2,4.391248524E-2
4.481886968E0,6.543239206E-2,-2.254965343E-2,4.321435094E-2
4.485855718E0,5.057964101E-2,-2.970550396E-2,3.700098023E-2
4.489826030E0,3.750712425E-2,-3.625048697E-2,2.830924094E-2
4.493797905E0,2.523746155E-2,-3.869394958E-2,1.956514083E-2
4.497768218E0,1.420698036E-2,-4.070107639E-2,9.756390937E-3
4.501738530E0,4.991641734E-3,-4.152138159E-2,1.396263397E-4
4.505708843E0,-4.607669078E-3,-4.188790172E-2,-1.139700040E-2
4.509679155E0,-1.614429615E-2,-4.047418386E-2,-2.162462845E-2
4.513649468E0,-2.789036185E-2,-3.799581900E-2,-3.197443113E-2
4.517621343E0,-3.878121451E-2,-3.569198400E-2,-3.949680179E-2
4.521591655E0,-4.644321278E-2,-3.539527580E-2,-4.597197101E-2
4.525561968E0,-5.145230517E-2,-3.080506064E-2,-5.141739920E-2
4.529532280E0,-5.139994621E-2,-2.523746155E-2,-5.314527452E-2
4.533502593E0,-4.867723212E-2,-1.851794310E-2,-5.569345504E-2
4.537472905E0,-4.164355621E-2,-1.225221157E-2,-5.817182362E-2
4.541444780E0,-3.077015467E-2,-5.201081280E-3,-5.445427075E-2
4.545415093E0,-1.665044017E-2,-1.099557383E-3,-5.122541264E-2
4.549385405E0,1.605702913E-3,4.625122529E-3,-4.602433369E-2
4.553355718E0,2.370157093E-2,5.375613924E-3,-3.773401678E-2
4.557326030E0,4.480260238E-2,-1.343903481E-3,-2.549926005E-2
4.561296343E0,6.597344577E-2,-1.199041214E-2,-6.789330859E-3
4.565266655E0,8.457865566E-2,-1.567305624E-2,9.512044489E-3
4.569236968E0,1.007229537E-1,-1.738347858E-2,2.295107953E-2
4.573210405E0,1.126260981E-1,-1.963495463E-2,3.623303398E-2
4.577179155E0,1.202357337E-1,-2.487094142E-2,4.797910154E-2
4.581149468E0,1.244768798E-1,-2.731440216E-2,5.571090803E-2
4.585119780E0,1.231678873E-1,-2.974040993E-2,6.178465486E-2
4.589090093E0,1.187696531E-1,-3.729768470E-2,6.728244573E-2
4.593060405E0,1.129577085E-1,-4.228932783E-2,7.384487987E-2
4.597030718E0,1.046673954E-1,-4.359832406E-2,7.885397226E-2
4.601001030E0,9.421287477E-2,-4.483750835E-2,8.227481693E-2
4.604971343E0,8.066911995E-2,-4.440117627E-2,8.257152885E-2
4.608943218E0,6.628760695E-2,-4.052654654E-2,8.007570356E-2
4.612913530E0,5.110324174E-2,-3.169517964E-2,7.913322747E-2
4.616883843E0,3.419100121E-2,-2.064724453E-2,7.511897385E-2
4.620854155E0,1.713913307E-2,-1.055924222E-2,6.791076064E-2
4.624824468E0,-2.443460980E-4,5.235987919E-5,5.654866621E-2
4.628794780E0,-1.712168008E-2,9.738937020E-3,4.469788074E-2
4.632766655E0,-3.085742146E-2,1.724385284E-2,3.377212211E-2
4.636741655E0,-4.270820692E-2,2.204350755E-2,2.083923109E-2
4.640707280E0,-5.288347602E-2,2.736676298E-2,9.948376566E-3
4.644677593E0,-6.215117499E-2,3.115412779E-2,-3.874630900E-3
4.648647905E0,-6.923720986E-2,3.546509147E-2,-1.560324337E-2
4.652618218E0,-7.483971864E-2,3.899065405E-2,-2.588323317E-2
4.656590093E0,-7.827802002E-2,3.991568089E-2,-3.370230645E-2
4.660558843E0,-7.810348272E-2,4.255112633E-2,-3.663446009E-2
4.664530718E0,-7.445574552E-2,4.354596511E-2,-3.738495335E-2
4.668501030E0,-6.913249195E-2,4.892157763E-2,-3.729768470E-2
4.672471343E0,-6.171484292E-2,5.304055661E-2,-3.349286690E-2
4.676441655E0,-5.497787148E-2,6.119124219E-2,-2.799508162E-2
4.680411968E0,-4.824090004E-2,6.511823088E-2,-2.174680308E-2
4.684383843E0,-4.063126445E-2,6.794566661E-2,-1.319468953E-2
4.688354155E0,-3.232349828E-2,6.914994121E-2,-4.188789986E-3
4.692324468E0,-2.261946723E-2,6.960373372E-2,6.283185445E-3
4.696294780E0,-1.242674422E-2,7.031931728E-2,1.727875881E-2
4.700265093E0,-4.188790335E-4,7.005751878E-2,2.933898382E-2
4.704236968E0,1.307251584E-2,6.939429045E-2,4.091051593E-2
4.708205718E0,2.713987045E-2,6.696828455E-2,4.708898440E-2
4.712177593E0,3.712315485E-2,6.405358016E-2,5.080653355E-2
4.716147905E0,4.440117627E-2,5.925392732E-2,5.269148946E-2
4.720118218E0,4.555309191E-2,5.377359316E-2,5.300565064E-2
4.724088530E0,4.012512043E-2,4.722860828E-2,5.372123420E-2
4.728058843E0,3.164282069E-2,3.981095925E-2,5.223770440E-2
4.732029155E0,1.904154196E-2,3.244566917E-2,4.944517836E-2
4.735999468E0,6.108652335E-3,2.616248466E-2,4.523893446E-2
4.739969780E0,-4.014257342E-3,1.986184716E-2,3.920009360E-2
4.743941655E0,-1.328195538E-2,1.490511186E-2,3.324852139E-2
4.747911968E0,-2.111848444E-2,9.093165398E-3,2.401573025E-2
4.751882280E0,-2.677335031E-2,5.619960371E-3,1.844812930E-2
4.755852593E0,-3.021164984E-2,4.415682983E-3,1.263618376E-2
4.759822905E0,-3.471459821E-2,2.757620299E-3,7.661995478E-3
4.763793218E0,-3.874630854E-2,3.665191471E-4,3.193952609E-3
4.767763530E0,-4.506440088E-2,-3.246312495E-3,1.117010717E-3
4.771735405E0,-5.078908056E-2,-9.477137588E-3,-4.363323096E-4
4.775705718E0,-5.468116701E-2,-1.562069636E-2,-1.466076588E-3
4.779676030E0,-5.750859901E-2,-2.127556317E-2,-2.024581889E-3
4.783646343E0,-6.124360487E-2,-2.305579931E-2,-6.806784077E-4
4.787616655E0,-6.448991597E-2,-2.202605456E-2,8.726646192E-4
4.791586968E0,-6.668902934E-2,-1.872738265E-2,6.387905218E-3
4.795558843E0,-6.620033830E-2,-1.200786512E-2,1.340412907E-2
4.799527593E0,-6.457718462E-2,-3.333578818E-3,2.335250564E-2
4.803497905E0,-6.188937649E-2,7.330382941E-4,3.122393973E-2
4.807469780E0,-5.682792142E-2,4.642575979E-3,3.839724511E-2
4.811440093E0,-5.113814771E-2,7.470009383E-3,4.237659276E-2
4.815410405E0,-4.333652556E-2,1.213003788E-2,4.490732029E-2
4.819380718E0,-3.527310491E-2,1.439896598E-2,4.618141055E-2
4.823351030E0,-2.820452116E-2,1.844812930E-2,4.576253146E-2
4.827321343E0,-2.485348843E-2,2.597049996E-2,4.579744115E-2
4.831293218E0,-2.398082428E-2,3.501130641E-2,4.715879634E-2
4.835263530E0,-2.555162087E-2,4.384266958E-2,4.841543362E-2
4.839232280E0,-2.944370359E-2,5.171410739E-2,5.099852011E-2
4.843204155E0,-3.391174600E-2,5.902703479E-2,5.033529550E-2
4.847174468E0,-4.515166581E-2,7.312929630E-2,3.391174600E-2
4.851144780E0,-5.653121322E-2,9.140289575E-2,1.214749180E-2
4.855116655E0,-6.340780854E-2,1.082278639E-1,-1.797689125E-3
4.859085405E0,-6.386159360E-2,1.154884398E-1,-6.946410518E-3
4.863055718E0,-5.628686771E-2,1.133067757E-1,-5.270894151E-3
4.867027593E0,-4.438372329E-2,1.000946313E-1,-4.712388909E-4
4.870997905E0,-3.148574010E-2,7.648032904E-2,1.040216256E-2
4.874968218E0,-1.713913307E-2,4.953244328E-2,1.972221956E-2
4.878938530E0,-3.909537569E-3,2.309070528E-2,2.546435408E-2
4.882908843E0,3.735004691E-3,4.904375412E-3,2.289872058E-2
4.886880718E0,9.808750823E-3,-2.234021435E-3,1.349139493E-2
4.890851030E0,1.153662615E-2,-1.692969352E-3,1.413716702E-3
4.894821343E0,1.092576142E-2,2.513274085E-3,-1.377064735E-2
4.898791655E0,7.470009383E-3,8.709193207E-3,-2.886774577E-2
4.902761968E0,-3.193952609E-3,2.223549411E-2,-5.010840297E-2
4.906732280E0,-1.698205434E-2,3.675663471E-2,-7.056365907E-2
4.910702593E0,-2.616248466E-2,4.852015153E-2,-8.583529294E-2
4.914674468E0,-2.930407785E-2,5.941100791E-2,-9.192649275E-2
4.918643218E0,-2.544690110E-2,6.541494280E-2,-9.110618383E-2
4.922615093E0,-1.497492474E-2,6.607816368E-2,-8.306021988E-2
4.926585405E0,-1.099557383E-3,6.173229590E-2,-7.087782025E-2
4.930572905E0,1.425934024E-2,5.307546258E-2,-5.461135134E-2
4.934526030E0,2.909463830E-2,4.464552179E-2,-3.665191308E-2
4.938496343E0,4.335397854E-2,3.672172874E-2,-2.099631168E-2
4.942466655E0,5.504768342E-2,3.134611249E-2,-1.132718660E-2
4.946438530E0,6.503096968E-2,2.527236752E-2,-9.861109778E-3
4.950408843E0,7.124433666E-2,1.768018492E-2,-1.610938832E-2
4.954379155E0,7.527604699E-2,9.058258496E-3,-2.766346931E-2
4.958357280E0,7.857472450E-2,1.237438433E-2,-4.063126445E-2
4.962319780E0,8.395033330E-2,2.001892589E-2,-5.529202893E-2
4.966290093E0,9.272934496E-2,2.593559213E-2,-6.454227865E-2
4.970261968E0,1.034456640E-1,3.003711626E-2,-7.117452472E-2
4.974232280E0,1.121199504E-1,3.305653483E-2,-6.974335760E-2
4.978201030E0,1.113694608E-1,4.256857932E-2,-6.319837272E-2
4.982172905E0,1.033583954E-1,6.236061454E-2,-5.274384841E-2
4.986143218E0,9.281660616E-2,7.522369176E-2,-4.354596511E-2
4.990113530E0,8.014551550E-2,7.616616786E-2,-3.483677283E-2
4.994083843E0,7.005751878E-2,7.668976486E-2,-2.713987045E-2
4.998054155E0,6.110397726E-2,8.435176313E-2,-1.940806210E-2
5.002024468E0,5.155702680E-2,9.674359858E-2,-1.333431527E-2
5.005996343E0,4.303981736E-2,1.118581519E-1,-8.290314116E-3
5.009966655E0,3.630284965E-2,1.274090409E-1,-2.146754880E-3
5.013936968E0,3.213151172E-2,1.392947286E-1,1.239183708E-3
5.017907280E0,3.075270168E-2,1.496096253E-1,1.518436475E-3
5.021877593E0,3.429571912E-2,1.635722518E-1,-9.424777818E-4
5.025847905E0,4.153883457E-2,1.803274155E-1,-8.063420653E-3
5.029819780E0,4.750786349E-2,1.925272644E-1,-1.684242673E-2
5.033788530E0,5.508258939E-2,1.976585388E-1,-3.178244457E-2
5.037758843E0,6.607816368E-2,2.065073550E-1,-4.214970022E-2
5.041730718E0,7.602654397E-2,2.226691097E-1,-4.937536269E-2
5.045701030E0,8.344419301E-2,2.363873869E-1,-5.155702680E-2
5.049679155E0,8.522442728E-2,2.489886731E-1,-5.061454698E-2
5.053641655E0,8.178612590E-2,2.704736590E-1,-4.209734127E-2
5.057613530E0,7.485716790E-2,2.995683253E-1,-2.708750963E-2
5.061583843E0,6.356488913E-2,3.238632977E-1,-8.272860199E-3
5.065554155E0,5.204571784E-2,3.505144715E-1,7.470009383E-3
5.069524468E0,4.255112633E-2,3.842691481E-1,1.535889693E-2
5.073494780E0,3.738495335E-2,4.177620113E-1,1.169370580E-2
5.077465093E0,3.813544288E-2,4.313406646E-1,-3.996803891E-3
5.081435405E0,4.375540465E-2,4.258254170E-1,-2.888519876E-2
5.085407280E0,5.379104614E-2,4.130845368E-1,-5.312782153E-2
5.089377593E0,6.770132482E-2,3.954567015E-1,-7.466518879E-2
5.093347905E0,8.096582443E-2,3.818256855E-1,-8.375835419E-2
5.097318218E0,9.257226437E-2,3.806737661E-1,-8.009316027E-2
5.101288530E0,9.724974632E-2,3.868522346E-1,-6.529276818E-2
5.105258843E0,9.410814941E-2,3.976558149E-1,-4.818854108E-2
5.109229155E0,8.663814515E-2,4.013733566E-1,-3.286454827E-2
5.113199468E0,7.476990670E-2,4.085117579E-1,-2.256710641E-2
5.117169780E0,5.827654526E-2,4.187917411E-1,-1.685987972E-2
5.121141655E0,3.967133537E-2,4.332256317E-1,-1.883210242E-2
5.125111968E0,2.202605456E-2,4.442211986E-1,-2.837905288E-2
5.129082280E0,2.827433404E-3,4.501029551E-1,-4.366813600E-2
5.133052593E0,-1.300270297E-2,4.594404697E-1,-6.421066076E-2
5.137022905E0,-2.647664398E-2,4.730365872E-1,-8.777260780E-2
5.140993218E0,-3.239331022E-2,4.765796065E-1,-1.103397161E-1
5.144965093E0,-3.003711626E-2,4.765970707E-1,-1.275137514E-1
5.148935405E0,-1.932079531E-2,4.776442647E-1,-1.299048513E-1
5.152905718E0,2.111848444E-3,4.834910929E-1,-1.141096279E-1
5.156876030E0,2.834414691E-2,4.839797914E-1,-8.590510488E-2
5.160846343E0,5.129522830E-2,4.738568962E-1,-5.068436265E-2
5.164816655E0,7.607889920E-2,4.602433145E-1,-1.171115879E-2
5.168788530E0,9.820967913E-2,4.413414001E-1,2.193878777E-2
5.172757280E0,1.140747219E-1,4.171162248E-1,4.651302472E-2
5.176727593E0,1.281246245E-1,4.005705118E-1,6.195918843E-2
5.180699468E0,1.375319511E-1,3.909886479E-1,6.448991597E-2
5.184669780E0,1.384744197E-1,3.769038618E-1,4.918337986E-2
5.188640093E0,1.332907975E-1,3.685611784E-1,2.096140385E-2
5.192610405E0,1.236565784E-1,3.657861054E-1,-1.949532703E-2
5.196580718E0,1.121199504E-1,3.536386192E-1,-7.175048441E-2
5.200551030E0,9.646435082E-2,3.336022198E-1,-1.293288916E-1
5.204522905E0,7.853981853E-2,3.187320232E-1,-1.755277663E-1
5.208493218E0,5.970771238E-2,3.130422533E-1,-2.057917714E-1
5.212463530E0,3.358013555E-2,3.090105355E-1,-2.187944800E-1
5.216433843E0,5.096361507E-3,3.011914790E-1,-2.175203860E-1
5.220405718E0,-2.701769583E-2,2.838079929E-1,-2.090555429E-1
5.224376030E0,-6.248278543E-2,2.514321208E-1,-1.961575598E-1
5.228344780E0,-9.550441802E-2,2.040289938E-1,-1.733984649E-1
5.232316655E0,-1.276184767E-1,1.389456540E-1,-1.365894675E-1
5.236286968E0,-1.548106968E-1,8.717919886E-2,-9.147270769E-2
5.240257280E0,-1.743932962E-1,6.387905031E-2,-3.738495335E-2
5.244227593E0,-1.829628646E-1,5.782275647E-2,1.687733456E-2
5.248197905E0,-1.833817512E-1,5.897467583E-2,5.920156837E-2
5.252199468E0,-1.747598201E-1,6.558947265E-2,8.319984376E-2
5.256138530E0,-1.583711803E-1,7.649777830E-2,8.237954229E-2
5.260108843E0,-1.400801241E-1,9.227555990E-2,6.633996218E-2
5.264080718E0,-1.186125726E-1,1.152091846E-1,3.310889751E-2
5.268051030E0,-9.826203436E-2,1.440769285E-1,-8.203047328E-3
5.272021343E0,-8.180358261E-2,1.755452156E-1,-5.602506921E-2
5.275991655E0,-7.285004109E-2,2.019695044E-1,-1.079137102E-1
5.279961968E0,-7.005751878E-2,2.162462920E-1,-1.538333148E-1
5.283933843E0,-7.520623505E-2,2.220582366E-1,-1.993689537E-1
5.287913530E0,-8.527678996E-2,2.231228948E-1,-2.395464331E-1
5.291872905E0,-9.813986719E-2,2.191959023E-1,-2.698977292E-1
5.295844780E0,-1.147379428E-1,2.032784969E-1,-2.958682179E-1
5.299815093E0,-1.323308647E-1,1.745852828E-1,-3.158696890E-1
5.303785405E0,-1.496968865E-1,1.338318437E-1,-3.290818334E-1
5.307755718E0,-1.670280099E-1,8.543386310E-2,-3.319267035E-1
5.311726030E0,-1.831374019E-1,2.837905288E-2,-3.207740486E-1
5.315696343E0,-1.978679746E-1,-2.637192421E-2,-2.910860181E-1
5.319668218E0,-2.104517967E-1,-6.339035928E-2,-2.524793148E-1
5.323638530E0,-2.239606529E-1,-8.313003182E-2,-2.086715698E-1
5.327608843E0,-2.380105555E-1,-9.667378664E-2,-1.676039696E-1
5.331579155E0,-2.513274252E-1,-1.074599251E-1,-1.276708394E-1
5.335549468E0,-2.656216621E-1,-1.060462072E-1,-9.513789415E-2
5.339519780E0,-2.779436707E-1,-9.168214351E-2,-7.295475900E-2
5.343491655E0,-2.903355062E-1,-6.475171447E-2,-5.799729005E-2
5.347461968E0,-3.019943237E-1,-3.033382259E-2,-5.393067375E-2
5.351430718E0,-3.120997846E-1,1.474803220E-2,-5.860815570E-2
5.355402593E0,-3.200061023E-1,7.405432314E-2,-6.389650702E-2
5.359372905E0,-3.261322081E-1,1.387711316E-1,-7.098253816E-2
5.363343218E0,-3.313507438E-1,1.997703910E-1,-8.082620054E-2
5.367315093E0,-3.357140720E-1,2.486221492E-1,-9.061749279E-2
5.371283843E0,-3.391174674E-1,2.931280434E-1,-1.008451208E-1
5.375255718E0,-3.408977091E-1,3.316823840E-1,-1.155407950E-1
5.379226030E0,-3.413689435E-1,3.606897295E-1,-1.293114424E-1
5.383196343E0,-3.417878151E-1,3.816511333E-1,-1.475152224E-1
5.387166655E0,-3.429571986E-1,3.957010508E-1,-1.676039696E-1
5.391136968E0,-3.434109688E-1,4.004308879E-1,-1.820378453E-1
5.395107280E0,-3.405137360E-1,4.021064043E-1,-1.897172928E-1
5.399079155E0,-3.360107839E-1,4.010243118E-1,-1.879545003E-1
5.403049468E0,-3.286629617E-1,3.989473581E-1,-1.796641946E-1
5.407018218E0,-3.198141456E-1,3.961373866E-1,-1.677261442E-1
5.410990093E0,-3.062180281E-1,3.954043388E-1,-1.545139998E-1
5.414960405E0,-2.877698839E-1,3.857526779E-1,-1.394867152E-1
5.418930718E0,-2.641555667E-1,3.689276874E-1,-1.250353903E-1
5.422901030E0,-2.363001257E-1,3.454181254E-1,-1.080184281E-1
5.426871343E0,-2.063328177E-1,3.296403289E-1,-9.138543904E-2
5.430841655E0,-1.726130694E-1,3.136531115E-1,-7.304202765E-2
5.434813530E0,-1.361182332E-1,2.932153046E-1,-4.689699784E-2
5.438783843E0,-9.936159104E-2,2.647315264E-1,-1.494001877E-2
5.442754155E0,-6.433283538E-2,2.295806110E-1,2.694788389E-2
5.446724468E0,-3.096214123E-2,2.038370073E-1,8.000589162E-2
5.450694780E0,-1.640609466E-3,1.962273717E-1,1.334478706E-1
5.454665093E0,2.600540593E-2,1.929112375E-1,1.869771183E-1
5.458636968E0,5.082398653E-2,1.860171854E-1,2.370680720E-1
5.462607280E0,7.024950534E-2,1.789486110E-1,2.817310393E-1
5.466576030E0,8.539895713E-2,1.813047975E-1,3.295007050E-1
5.470547905E0,9.763371944E-2,2.065771669E-1,3.743207753E-1
5.474518218E0,1.059414819E-1,2.539977729E-1,4.093669653E-1
5.478488530E0,1.105142459E-1,3.009994924E-1,4.249702096E-1
5.482458843E0,1.103571653E-1,3.248755932E-1,4.210606813E-1
5.486429155E0,1.056447774E-1,3.303210139E-1,4.039215446E-1
5.490399468E0,9.704030305E-2,3.350334167E-1,3.825936317E-1
5.494371343E0,8.424704522E-2,3.486120701E-1,3.622605503E-1
5.498341655E0,7.127925009E-2,3.613355160E-1,3.537956774E-1
5.502311968E0,5.557128415E-2,3.724881709E-1,3.610737026E-1
5.506282280E0,4.181808978E-2,3.878819644E-1,3.820874691E-1
5.510252593E0,3.056071512E-2,4.043927789E-1,4.109203219E-1
5.514222905E0,2.221804112E-2,4.163832068E-1,4.366464615E-1
5.518194780E0,1.883210242E-2,4.243244529E-1,4.582710862E-1
5.522163530E0,2.260201424E-2,4.266980886E-1,4.730714858E-1
5.526141655E0,3.398156166E-2,4.265584648E-1,4.840147197E-1
5.530105718E0,5.063199997E-2,4.284783304E-1,4.948357344E-1
5.534076030E0,7.019714266E-2,4.255287349E-1,5.160240531E-1
5.538046343E0,9.140289575E-2,4.038517475E-1,5.496914387E-1
5.542018218E0,1.131846011E-1,3.742334843E-1,5.941450000E-1
5.545986968E0,1.421919763E-1,3.383844197E-1,6.462430358E-1
5.549958843E0,1.780584902E-1,2.951700687E-1,7.039262056E-1
5.553929155E0,2.173632979E-1,2.507514656E-1,7.627786994E-1
5.557899468E0,2.559176385E-1,2.140471786E-1,8.160461187E-1
5.561869780E0,2.891486883E-1,1.910611987E-1,8.663640022E-1
5.565840093E0,3.210009634E-1,1.787566245E-1,9.106604457E-1
5.569810405E0,3.485771716E-1,1.759815514E-1,9.474868774E-1
5.573780718E0,3.708301187E-1,1.852143407E-1,9.730559587E-1
5.577752593E0,3.821921945E-1,1.984613836E-1,9.875596762E-1
5.581722905E0,3.817034960E-1,2.105041593E-1,9.913295507E-1
5.585693218E0,3.731339276E-1,2.202605456E-1,9.881007075E-1
5.589663530E0,3.621732593E-1,2.312386781E-1,9.737191796E-1
5.593633843E0,3.486295044E-1,2.353052944E-1,9.577494264E-1
5.597604155E0,3.352952003E-1,2.291617244E-1,9.352346659E-1
5.601574468E0,3.202504516E-1,2.076941729E-1,9.129468203E-1
5.605544780E0,3.047344983E-1,1.734682769E-1,8.931373358E-1
5.609516655E0,2.826211751E-1,1.425585002E-1,8.766788840E-1
5.613486968E0,2.476622164E-1,1.135860309E-1,8.633620143E-1
5.617457280E0,2.012015581E-1,7.969173044E-2,8.462054133E-1
5.621427593E0,1.502728462E-1,4.660028964E-2,8.227656484E-1
5.625397905E0,9.241518378E-2,2.846631967E-2,7.837051749E-1
5.629368218E0,3.382448107E-2,2.361430414E-2,7.238404155E-1
5.633340093E0,-1.500983164E-2,5.532693584E-3,6.499606371E-1
5.637310405E0,-6.010913849E-2,-3.050835431E-2,5.794842243E-1
5.641280718E0,-1.012116447E-1,-6.085963175E-2,5.305626392E-1
5.645251030E0,-1.373748630E-1,-6.892304868E-2,5.045397878E-1
5.649221343E0,-1.680403054E-1,-5.551892146E-2,5.025849938E-1
5.653191655E0,-1.987580955E-1,-3.635520861E-2,5.172806978E-1
5.657163530E0,-2.299296707E-1,-1.780235767E-2,5.399350524E-1
5.661133843E0,-2.594431937E-1,7.923794910E-3,5.703735948E-1
5.665104155E0,-2.927266359E-1,3.797836602E-2,6.012135744E-1
5.669074468E0,-3.301639259E-1,7.771950960E-2,6.285279393E-1
5.673044780E0,-3.640058637E-1,1.200088412E-1,6.454402208E-1
5.677015093E0,-3.957184851E-1,1.633977294E-1,6.423335075E-1
5.680985405E0,-4.235565066E-1,2.049540132E-1,6.231349111E-1
5.684955718E0,-4.464726746E-1,2.508736253E-1,5.899910927E-1
5.688926030E0,-4.613254368E-1,3.127979040E-1,5.443158150E-1
5.692897905E0,-4.659680128E-1,3.882485032E-1,4.962669313E-1
5.696868218E0,-4.606971145E-1,4.702789783E-1,4.488114119E-1
5.700836968E0,-4.420220852E-1,5.496216416E-1,4.022634923E-1
5.704808843E0,-4.138001204E-1,6.117204428E-1,3.604803085E-1
5.708779155E0,-3.790506124E-1,6.617590189E-1,3.215769231E-1
5.712749468E0,-3.377735615E-1,6.990567446E-1,2.914176285E-1
5.716721343E0,-2.937389016E-1,7.152708173E-1,2.687807083E-1
5.720691655E0,-2.468768209E-1,7.090923786E-1,2.634923458E-1
5.724661968E0,-2.024581879E-1,6.882182360E-1,2.767044902E-1
5.728632280E0,-1.603084952E-1,6.555107832E-1,3.083124161E-1
5.732602593E0,-1.199739352E-1,6.184050441E-1,3.475474119E-1
5.736572905E0,-7.918559015E-2,5.787512064E-1,3.903428912E-1
5.740543218E0,-2.132792398E-2,5.156051517E-1,4.254065454E-1
5.744513530E0,4.269075394E-2,4.495968223E-1,4.487066865E-1
5.748485405E0,1.084722131E-1,3.980223238E-1,4.648684561E-1
5.752460405E0,1.709375530E-1,3.687880635E-1,4.754102230E-1
5.756426030E0,2.191435397E-1,3.552966714E-1,4.789183438E-1
5.760396343E0,2.619564533E-1,3.504446447E-1,4.735078216E-1
5.764368218E0,2.982593179E-1,3.290294707E-1,4.638037980E-1
5.768338530E0,3.457846344E-1,2.761808932E-1,4.588645101E-1
5.772307280E0,3.911632001E-1,2.272767723E-1,4.551644027E-1
5.776279155E0,4.260523319E-1,1.994736791E-1,4.573635161E-1
5.780247905E0,4.447796941E-1,1.830675900E-1,4.663519859E-1
5.784219780E0,4.448495209E-1,1.658411920E-1,4.843637645E-1
5.788190093E0,4.288972020E-1,1.446354389E-1,5.063723922E-1
5.792160405E0,3.984062970E-1,1.228537261E-1,5.360429883E-1
5.796130718E0,3.568674624E-1,1.087340117E-1,5.650154352E-1
5.800101030E0,3.037571013E-1,1.033933014E-1,5.934817791E-1
5.804071343E0,2.492504716E-1,1.041088924E-1,6.152111292E-1
5.808043218E0,1.982868612E-1,1.103222594E-1,6.296100616E-1
5.812013530E0,1.559626162E-1,1.310393214E-1,6.416354179E-1
5.815983843E0,1.193281636E-1,1.656492054E-1,6.538003087E-1
5.819954155E0,9.471901506E-2,2.232799679E-1,6.705206037E-1
5.823924468E0,8.302531391E-2,2.991319895E-1,6.882705688E-1
5.827894780E0,8.976228535E-2,3.902905285E-1,7.066140175E-1
5.831866655E0,1.127482727E-1,4.753404260E-1,7.207337022E-1
5.835836968E0,1.480911821E-1,5.291314721E-1,7.271215916E-1
5.839805718E0,1.908866614E-1,5.574581623E-1,7.232295275E-1
5.843777593E0,2.429672778E-1,5.679999590E-1,7.158642411E-1
5.847747905E0,3.227812052E-1,5.462356806E-1,7.091447115E-1
5.851722905E0,4.305901825E-1,4.877322614E-1,7.024251819E-1
5.855690093E0,5.457295775E-1,4.056145251E-1,6.965957880E-1
5.859658843E0,6.728419065E-1,3.177895546E-1,6.905569434E-1
5.863629155E0,7.941946387E-1,2.310815901E-1,6.898937225E-1
5.867601030E0,9.112014771E-1,1.474977732E-1,6.979746222E-1
5.871571343E0,9.992533326E-1,8.321730047E-2,7.184647918E-1
5.875541655E0,1.052765131E0,3.249803185E-2,7.492349148E-1
5.879513530E0,1.069572687E0,-3.399901465E-2,7.869166136E-1
5.883490093E0,1.062207341E0,-1.118756011E-1,8.291186690E-1
5.887454155E0,1.038296342E0,-1.772032827E-1,8.676729798E-1
5.891424468E0,9.944362640E-1,-2.223898470E-1,9.007644057E-1
5.895394780E0,9.210102558E-1,-2.379407287E-1,9.248848557E-1
5.899365093E0,8.262388706E-1,-2.490235716E-1,9.526705146E-1
5.903335405E0,7.569493055E-1,-2.838254273E-1,9.872105718E-1
5.907305718E0,7.259173393E-1,-3.363947570E-1,1.026881933E0
5.911277593E0,7.408748269E-1,-3.920009434E-1,1.074895978E0
5.915247905E0,7.717322111E-1,-4.209559560E-1,1.103973150E0
5.919218218E0,8.082445264E-1,-4.309043288E-1,1.107516170E0
5.923188530E0,8.505687714E-1,-4.479038417E-1,1.079678178E0
5.927158843E0,8.921774030E-1,-4.843986928E-1,1.035381675E0
5.931129155E0,9.281835556E-1,-5.170188546E-1,9.746093154E-1
5.935099468E0,9.497557878E-1,-5.053600669E-1,9.105731845E-1
5.939069780E0,9.689020514E-1,-4.589168727E-1,8.547226191E-1
5.943040093E0,1.027300835E0,-4.290193915E-1,8.240397573E-1
5.947010405E0,1.111949205E0,-4.336968660E-1,8.220674992E-1
5.950980718E0,1.212148666E0,-4.701567888E-1,8.273035288E-1
5.954952593E0,1.301980734E0,-5.213647485E-1,8.328711390E-1
5.958922905E0,1.368634820E0,-5.766044259E-1,8.293804526E-1
5.962893218E0,1.409318447E0,-6.159964800E-1,8.159588575E-1
5.966863530E0,1.458693862E0,-6.584254503E-1,8.052250743E-1
5.970835405E0,1.522660136E0,-7.194945216E-1,8.036368489E-1
5.974805718E0,1.575159669E0,-7.811919451E-1,8.032179475E-1
5.978776030E0,1.606034517E0,-8.129569292E-1,8.046142459E-1
5.982746343E0,1.609560132E0,-8.254359961E-1,8.075289130E-1
5.986716655E0,1.592281342E0,-8.265879154E-1,8.197287917E-1
5.990686968E0,1.557182789E0,-8.203920126E-1,8.369202614E-1
5.994657280E0,1.531299472E0,-8.350003958E-1,8.889136314E-1
5.998629155E0,1.508488059E0,-8.707273006E-1,9.514662623E-1
6.002597905E0,1.465343475E0,-9.184795022E-1,9.854128957E-1
6.006569780E0,1.413315296E0,-9.531941414E-1,9.882228971E-1
6.010540093E0,1.356365204E0,-9.800198078E-1,9.750980139E-1
6.014510405E0,1.297896624E0,-9.961990118E-1,9.585697055E-1
6.018482280E0,1.234611034E0,-1.007770538E0,9.402612448E-1
6.022452593E0,1.167380929E0,-1.024927139E0,9.189332724E-1
6.026421343E0,1.095839858E0,-1.039675236E0,8.975530267E-1
6.030393218E0,1.026689887E0,-1.047860742E0,8.990191221E-1
6.034361968E0,9.680468440E-1,-1.050758004E0,9.254782796E-1
6.038333843E0,9.164898396E-1,-1.046848536E0,9.475916028E-1
6.042304155E0,8.672192097E-1,-1.036638260E0,9.617986083E-1
6.046274468E0,8.212472200E-1,-1.018469453E0,9.707521200E-1
6.050244780E0,7.973362207E-1,-1.004838347E0,1.005117655E0
6.054215093E0,8.060104847E-1,-9.957277775E-1,1.060304999E0
6.058186968E0,8.286125064E-1,-9.978570938E-1,1.104549050E0
6.062157280E0,8.515461683E-1,-1.006845593E0,1.124969363E0
6.066127593E0,8.628035188E-1,-1.004855871E0,1.105316997E0
6.070097905E0,8.547400832E-1,-9.746965766E-1,1.053829789E0
6.074068218E0,8.281063437E-1,-9.106953740E-1,9.699492455E-1
6.078038530E0,7.873005867E-1,-8.200953007E-1,8.699593544E-1
6.082008843E0,7.383964658E-1,-7.098777890E-1,7.646461725E-1
6.085979155E0,6.896843314E-1,-5.909684896E-1,6.697701216E-1
6.089951030E0,6.409896016E-1,-4.912927151E-1,5.920331478E-1
6.093921343E0,5.975832939E-1,-4.247956872E-1,5.324650407E-1
6.097891655E0,5.578072071E-1,-3.924198151E-1,4.922526479E-1
6.101861968E0,5.286253095E-1,-3.740589619E-1,4.790405035E-1
6.105832280E0,5.038591027E-1,-3.565009534E-1,4.897568524E-1
6.109802593E0,4.791975915E-1,-3.422590792E-1,5.182929635E-1
6.113774468E0,4.700171649E-1,-3.571816385E-1,5.856103301E-1
6.117744780E0,4.759338200E-1,-4.246909618E-1,6.924070120E-1
6.121715093E0,4.815537930E-1,-5.266879797E-1,8.156272769E-1
6.125685405E0,4.831594825E-1,-6.120346189E-1,9.295099974E-1
6.129655718E0,4.823915362E-1,-6.655987501E-1,1.024508238E0
6.133626030E0,4.746597409E-1,-6.921975613E-1,1.101686716E0
6.137596343E0,4.624075294E-1,-7.042229176E-1,1.158828855E0
6.141568218E0,4.423362315E-1,-7.159340382E-1,1.196772218E0
6.145538530E0,4.192106426E-1,-7.202101350E-1,1.213440180E0
6.149508843E0,3.959977627E-1,-7.082197070E-1,1.203945518E0
6.153479155E0,3.660304546E-1,-6.927560568E-1,1.173157930E0
6.157449468E0,3.290120065E-1,-6.699097157E-1,1.116958380E0
6.161419780E0,2.812772691E-1,-6.461732388E-1,1.051264167E0
6.165390093E0,2.259328663E-1,-6.312506795E-1,9.715200663E-1
6.169361968E0,1.849699914E-1,-6.414608359E-1,9.134704471E-1
6.173332280E0,1.649685204E-1,-6.871885061E-1,8.938529491E-1
6.177302593E0,1.508837193E-1,-7.695505619E-1,8.908684254E-1
6.181272905E0,1.360833198E-1,-8.803266287E-1,8.887391090E-1
6.185243218E0,1.138652787E-1,-9.927781820E-1,8.820021152E-1
6.189213530E0,8.834856749E-2,-1.083360791E0,8.813040257E-1
6.193183843E0,6.166248396E-2,-1.153383374E0,8.860862255E-1
6.197154155E0,4.115486518E-2,-1.195096731E0,9.040281773E-1
6.201124468E0,3.293436393E-2,-1.222672939E0,9.240820408E-1
6.205096343E0,3.817034885E-2,-1.254071474E0,9.460207820E-1
6.209065093E0,5.548401549E-2,-1.291910172E0,9.636312127E-1
6.213036968E0,8.304276317E-2,-1.333710790E0,9.746965766E-1
6.217007280E0,1.132718697E-1,-1.374411821E0,9.833010435E-1
6.220977593E0,1.462760419E-1,-1.414222836E0,9.855524898E-1
6.224949468E0,1.768891215E-1,-1.457419753E0,9.843307734E-1
6.228918218E0,2.000670880E-1,-1.498941064E0,9.788853526E-1
6.232890093E0,2.161939293E-1,-1.520635605E0,9.738588333E-1
6.236860405E0,2.241700888E-1,-1.531526446E0,9.648877978E-1
6.240830718E0,2.232276052E-1,-1.542801261E0,9.458287954E-1
6.244826030E0,2.140995413E-1,-1.549067020E0,9.122661352E-1
6.248776030E0,1.975712776E-1,-1.537006736E0,8.694881201E-1
6.252741655E0,1.843765825E-1,-1.509011626E0,8.310734034E-1
6.256713530E0,1.651430577E-1,-1.474454165E0,7.938106656E-1
6.260683843E0,1.399579495E-1,-1.454731941E0,7.570191026E-1
6.264654155E0,1.010371074E-1,-1.449303985E0,7.225663066E-1
6.268624468E0,4.572762549E-2,-1.440088630E0,6.929655075E-1
6.272594780E0,-1.624901593E-2,-1.423228741E0,6.738017797E-1
6.276565093E0,-9.367182106E-2,-1.411884069E0,6.647435427E-1
6.280535405E0,-1.776919663E-1,-1.407730222E0,6.541144848E-1
6.284507280E0,-2.715732455E-1,-1.413262844E0,6.456147432E-1
6.288476030E0,-3.532546461E-1,-1.449897408E0,6.606769562E-1
6.292447905E0,-4.341506362E-1,-1.516516566E0,6.836105585E-1
6.296418218E0,-5.187641978E-1,-1.603451490E0,6.956184506E-1
6.300388530E0,-5.983337760E-1,-1.663647890E0,6.990392804E-1
6.304358843E0,-6.698399186E-1,-1.690019727E0,6.969274282E-1
6.308330718E0,-7.274532318E-1,-1.699287415E0,6.840468645E-1
6.312301030E0,-7.686953545E-1,-1.715955377E0,6.768561602E-1
6.316269780E0,-7.682939172E-1,-1.775244236E0,7.094763517E-1
6.320241655E0,-7.628834248E-1,-1.856646299E0,7.629881501E-1
6.324211968E0,-7.808603048E-1,-1.934086561E0,8.164300919E-1
6.328182280E0,-8.377754688E-1,-1.974752784E0,8.491724730E-1
6.332154155E0,-9.155822396E-1,-1.966863871E0,8.714079857E-1
6.336124468E0,-1.012762189E0,-1.920961738E0,8.847423196E-1
6.340093218E0,-1.115928650E0,-1.878864408E0,8.707796931E-1
6.344065093E0,-1.231364727E0,-1.840030789E0,8.191179037E-1
6.348035405E0,-1.340360522E0,-1.797863603E0,7.378903031E-1
6.352005718E0,-1.433648348E0,-1.734682679E0,6.407103539E-1
6.355976030E0,-1.520897388E0,-1.642756224E0,5.268276334E-1
6.359947905E0,-1.590186954E0,-1.555961013E0,4.164181054E-1
6.363916655E0,-1.642389774E0,-1.496305704E0,3.235142231E-1
6.367888530E0,-1.692882061E0,-1.453370571E0,2.299122214E-1
6.371858843E0,-1.709584951E0,-1.452480435E0,1.525068730E-1
6.375829155E0,-1.671606541E0,-1.521979451E0,8.204792440E-2
6.379799468E0,-1.584514618E0,-1.614953160E0,1.176351868E-2
6.383769780E0,-1.461032510E0,-1.697210550E0,-5.682792142E-2
6.387740093E0,-1.357133150E0,-1.738976240E0,-1.265014708E-1
6.391710405E0,-1.307007313E0,-1.768472314E0,-1.970302165E-1
6.395680718E0,-1.249359012E0,-1.838128448E0,-2.586927116E-1
6.399652593E0,-1.134638548E0,-1.936896563E0,-3.093247116E-1
6.403622905E0,-9.665982723E-1,-2.026030540E0,-3.905348778E-1
6.407593218E0,-6.941698194E-1,-2.115513563E0,-5.385736823E-1
6.411563530E0,-3.906919658E-1,-2.185326815E0,-7.184298635E-1
6.415533843E0,-1.833293885E-1,-2.242730618E0,-8.718442917E-1
6.419504155E0,-1.462236792E-1,-2.288510561E0,-9.550790787E-1
6.423474468E0,-2.196496874E-1,-2.317011833E0,-9.594598413E-1
6.427446343E0,-3.423637748E-1,-2.352267504E0,-8.863654733E-1
6.431415093E0,-4.844161272E-1,-2.378517151E0,-7.590960264E-1
6.435386968E0,-6.122091413E-1,-2.370768070E0,-5.752081871E-1
6.439357280E0,-6.389301419E-1,-2.369877815E0,-3.384717107E-1
6.443327593E0,-5.543863773E-1,-2.373752594E0,-1.576730460E-1
6.447297905E0,-3.679153919E-1,-2.379407406E0,-8.749335259E-2
6.451269780E0,-1.472185254E-1,-2.383159876E0,-9.108873457E-2
6.455238530E0,9.883799404E-2,-2.379634142E0,-1.247386783E-1
6.459210405E0,3.654370308E-1,-2.346228600E0,-1.756499410E-1
6.463179155E0,6.026970744E-1,-2.300274134E0,-2.303311080E-1
6.467151030E0,8.260643482E-1,-2.263604879E0,-2.867575884E-1
6.471121343E0,1.025049329E0,-2.245156527E0,-3.578797579E-1
6.475091655E0,1.176596284E0,-2.254319668E0,-4.516563118E-1
6.479060405E0,1.242866397E0,-2.281599045E0,-6.378305554E-1
6.483033843E0,1.224680066E0,-2.304061413E0,-9.153902531E-1
6.487004155E0,1.169789433E0,-2.304096460E0,-1.223458290E0
6.490972905E0,1.099906445E0,-2.232502937E0,-1.527163148E0
6.494944780E0,1.071003795E0,-2.132879496E0,-1.722151279E0
6.498915093E0,1.076344490E0,-2.035612345E0,-1.832508445E0
6.502885405E0,1.076344490E0,-1.986324310E0,-1.889807582E0
6.506857280E0,1.109313846E0,-2.008891344E0,-1.828581452E0
6.510826030E0,1.113781810E0,-2.087797642E0,-1.777024388E0
6.514796343E0,1.149927616E0,-2.163667202E0,-1.695726991E0
6.518768218E0,1.279797554E0,-2.255401611E0,-1.482116103E0
6.522738530E0,1.424974084E0,-2.310222626E0,-1.178027391E0
6.526708843E0,1.523428082E0,-2.304847002E0,-9.079028368E-1
6.530679155E0,1.542469621E0,-2.181591749E0,-7.786262631E-1
6.534649468E0,1.527791381E0,-1.951923847E0,-7.435102463E-1
6.538619780E0,1.527547121E0,-1.676929832E0,-7.235785723E-1
6.542591655E0,1.552295804E0,-1.430018067E0,-7.013431191E-1
6.546561968E0,1.594654918E0,-1.225849390E0,-6.904522777E-1
6.550532280E0,1.622981668E0,-1.116783857E0,-6.614274383E-1
6.554502593E0,1.644204855E0,-1.087601900E0,-6.252642274E-1
6.558472905E0,1.671868324E0,-1.113310575E0,-5.929232240E-1
6.562443218E0,1.703458786E0,-1.165164351E0,-5.551717877E-1
6.566415093E0,1.748278856E0,-1.242360234E0,-4.983787537E-1
6.570385405E0,1.789957285E0,-1.344409704E0,-4.314453900E-1
6.574355718E0,1.828930497E0,-1.466722369E0,-3.721390963E-1
6.578326030E0,1.865320683E0,-1.596679568E0,-3.190636337E-1
6.582294780E0,1.883541822E0,-1.693632603E0,-2.468244582E-1
6.586266655E0,1.863488078E0,-1.757913113E0,-1.952848881E-1
6.590236968E0,1.814741015E0,-1.809697032E0,-1.612335145E-1
6.594207280E0,1.737318158E0,-1.867432475E0,-1.227490082E-1
6.598179155E0,1.620922208E0,-1.926511884E0,-6.661921740E-2
6.602149468E0,1.498592019E0,-1.957857966E0,-1.750565320E-2
6.606119780E0,1.362787962E0,-1.983008146E0,3.035127558E-2
6.610090093E0,1.235256791E0,-2.012312174E0,7.895869762E-2
6.614060405E0,1.127796888E0,-2.021335602E0,1.333082467E-1
6.618030718E0,1.027981520E0,-1.991944313E0,1.806590259E-1
6.622002593E0,9.297194481E-1,-1.906772256E0,2.051634490E-1
6.625972905E0,8.315097690E-1,-1.794198513E0,2.297376841E-1
6.629943218E0,7.475070357E-1,-1.669547081E0,2.679255009E-1
6.633913530E0,6.819524765E-1,-1.563273907E0,3.112969100E-1
6.637883843E0,6.285803318E-1,-1.472918272E0,3.542320132E-1
6.641854155E0,5.744751096E-1,-1.403768301E0,3.895051181E-1
6.645824468E0,5.186944008E-1,-1.347045064E0,4.094018936E-1
6.649794780E0,4.601909518E-1,-1.314180613E0,4.209035933E-1
6.653765093E0,3.963293731E-1,-1.296308398E0,4.333652556E-1
6.657736968E0,3.241076469E-1,-1.270896435E0,4.468741119E-1
6.661707280E0,1.952848881E-1,-1.231312275E0,3.923151195E-1
6.665676030E0,2.775073517E-3,-1.184397936E0,2.351133078E-1
6.669647905E0,-2.168222517E-1,-1.060322404E0,2.316051908E-2
6.673618218E0,-4.662821591E-1,-8.514414430E-1,-2.256710678E-1
6.677588530E0,-5.921727419E-1,-6.244090199E-1,-3.680026829E-1
6.681558843E0,-5.935515761E-1,-4.270820618E-1,-3.812322617E-1
6.685530718E0,-4.495618939E-1,-3.838153481E-1,-2.092475295E-1
6.689499468E0,-2.461088747E-1,-4.846953750E-1,1.256637126E-1
6.693471343E0,-7.785914093E-2,-7.306820750E-1,4.452160299E-1
6.697441655E0,2.042035107E-3,-9.747315049E-1,5.575279593E-1
6.701411968E0,-1.396263367E-3,-1.142300487E0,5.171235800E-1
6.705383843E0,-1.684242673E-2,-1.180436015E0,4.369780719E-1
6.709352593E0,-1.213003788E-2,-1.126191139E0,3.365692794E-1
6.713324468E0,-1.206022501E-2,-1.014926434E0,2.315179259E-1
6.717294780E0,-4.120722413E-2,-9.195965528E-1,1.171814054E-1
6.721265093E0,-1.698030829E-1,-8.414581418E-1,-1.055575162E-1
6.725235405E0,-2.911732793E-1,-7.674387097E-1,-3.419274390E-1
6.729205718E0,-5.111894608E-1,-6.072524190E-1,-6.592981219E-1
6.733176030E0,-6.623175144E-1,-4.186870456E-1,-9.231744409E-1
6.737147905E0,-6.918659806E-1,-2.162637413E-1,-1.028749466E0
6.741118218E0,-6.122091413E-1,-7.775441557E-2,-9.661793709E-1
6.745088530E0,-3.896098435E-1,-1.247386783E-1,-6.784443855E-1
6.749058843E0,-2.187421173E-1,-3.116634488E-1,-3.826459944E-1
6.753029155E0,-1.477770209E-1,-5.996602178E-1,-2.591290474E-1
6.756999468E0,-1.396612525E-1,-8.394510150E-1,-2.888170779E-1
6.760969780E0,-1.698205322E-1,-9.463174939E-1,-4.169417024E-1
6.764940093E0,-1.926145405E-1,-9.133307934E-1,-5.933770537E-1
6.768910405E0,-2.197020501E-1,-7.979121804E-1,-7.888190150E-1
6.772882280E0,-3.656464815E-1,-6.348460317E-1,-1.081999421E0
6.776852593E0,-4.635245502E-1,-5.308768153E-1,-1.274701238E0
6.780822905E0,-5.068959594E-1,-4.537855983E-1,-1.342542171E0
6.784793218E0,-5.227086544E-1,-4.163657427E-1,-1.307059646E0
6.788763530E0,-5.343151093E-1,-4.108330607E-1,-1.224453211E0
6.792733843E0,-5.539151430E-1,-4.328765571E-1,-1.124585390E0
6.796705718E0,-5.823465586E-1,-4.764225185E-1,-1.044335246E0
6.800676030E0,-6.113190055E-1,-5.126555562E-1,-9.959895611E-1
6.804644780E0,-6.045122147E-1,-5.481032133E-1,-9.473646879E-1
6.808616655E0,-5.195670724E-1,-5.837253928E-1,-8.823686242E-1
6.812586968E0,-4.324925840E-1,-6.178465486E-1,-8.560490608E-1
6.816557280E0,-3.718423843E-1,-6.260147095E-1,-8.787034750E-1
6.820527593E0,-3.357140720E-1,-5.908463001E-1,-9.225810170E-1
6.824497905E0,-3.232698739E-1,-5.115211010E-1,-9.824633002E-1
6.828468218E0,-3.859970272E-1,-3.713187873E-1,-1.114794135E0
6.832440093E0,-4.876275361E-1,-2.022662014E-1,-1.267684937E0
6.836424468E0,-5.159193277E-1,-5.092870817E-2,-1.329417229E0
6.840380718E0,-4.834212959E-1,5.550146848E-2,-1.309625268E0
6.844351030E0,-4.048989415E-1,8.993681520E-2,-1.246025443E0
6.848321343E0,-3.249279559E-1,4.260348529E-2,-1.168620110E0
6.852291655E0,-2.515368462E-1,-5.274384841E-2,-1.096607804E0
6.856261968E0,-2.019869536E-1,-1.570796371E-1,-1.047424436E0
6.860233843E0,-1.628915817E-1,-2.579421997E-1,-1.020755768E0
6.864202593E0,-1.298175901E-1,-3.453482985E-1,-9.978745580E-1
6.868174468E0,-9.231046587E-2,-4.129798114E-1,-9.775938392E-1
6.872144780E0,-5.000368133E-2,-4.868944883E-1,-9.715549946E-1
6.876115093E0,-8.569566533E-3,-5.585751534E-1,-9.672788978E-1
6.880086968E0,3.429571912E-2,-6.019989848E-1,-9.699143767E-1
6.884055718E0,7.225663215E-2,-5.892580748E-1,-9.694256783E-1
6.888027593E0,9.677850455E-2,-5.114338398E-1,-9.410291910E-1
6.891997905E0,1.042136103E-1,-3.959279358E-1,-8.809200525E-1
6.895968218E0,1.104967967E-1,-2.914176285E-1,-8.119271398E-1
6.899938530E0,1.285434961E-1,-2.123716623E-1,-7.472801805E-1
6.903908843E0,1.595929116E-1,-1.673596203E-1,-6.821095943E-1
6.907879155E0,1.749518067E-1,-1.853888780E-1,-6.179862022E-1
6.911851030E0,1.652652323E-1,-2.502278686E-1,-5.646663904E-1
6.915821343E0,1.371305138E-1,-3.225542903E-1,-5.412614942E-1
6.919790093E0,1.023810133E-1,-3.767991364E-1,-5.470734239E-1
6.923761968E0,6.937684119E-2,-4.180412591E-1,-5.692216754E-1
6.927732280E0,4.843288660E-2,-4.472755194E-1,-6.088406444E-1
6.931702593E0,3.799581900E-2,-4.780980349E-1,-6.723357439E-1
6.935672905E0,3.949680179E-2,-5.033006072E-1,-7.534586191E-1
6.939644780E0,5.101597309E-2,-5.034227967E-1,-8.288394213E-1
6.943613530E0,7.059856504E-2,-4.806985855E-1,-8.837299943E-1
6.947585405E0,8.714429289E-2,-4.575904310E-1,-9.112887383E-1
6.951555718E0,9.222319722E-2,-4.623551667E-1,-9.222145081E-1
6.955536968E0,8.241444826E-2,-5.018694401E-1,-9.316916466E-1
6.959496343E0,6.433283538E-2,-5.501278043E-1,-9.305746555E-1
6.963466655E0,6.065019220E-2,-5.832192302E-1,-9.036267400E-1
6.967436968E0,6.588617712E-2,-5.849121809E-1,-8.702386022E-1
6.971408843E0,7.251843065E-2,-5.660800934E-1,-8.511098027E-1
6.975379155E0,7.740534842E-2,-5.348212123E-1,-8.641822934E-1
6.979349468E0,8.154178411E-2,-4.866501391E-1,-9.026668072E-1
6.983322905E0,8.607963473E-2,-4.149171114E-1,-9.578890204E-1
6.987290093E0,9.176941216E-2,-3.185749352E-1,-1.020459056E0
6.991260405E0,1.036551073E-1,-1.928588748E-1,-1.078473806E0
6.995232280E0,1.193979755E-1,-6.927211583E-2,-1.124637842E0
6.999202593E0,1.383871585E-1,3.096214123E-2,-1.150224328E0
7.003171343E0,1.672723591E-1,1.090481728E-1,-1.148182273E0
7.007143218E0,2.076243609E-1,1.931730360E-1,-1.106852889E0
7.011113530E0,2.545737326E-1,2.803173363E-1,-1.047145128E0
7.015083843E0,3.016103506E-1,3.479488492E-1,-9.774891138E-1
7.019054155E0,3.418576419E-1,3.765547872E-1,-9.198932052E-1
7.023024468E0,3.818605840E-1,3.736226261E-1,-8.695055842E-1
7.026994780E0,4.244989753E-1,3.525215983E-1,-8.260992169E-1
7.030966655E0,4.681321979E-1,3.298497796E-1,-7.934092283E-1
7.034936968E0,5.096186996E-1,3.097784817E-1,-7.711911798E-1
7.038907280E0,5.400048494E-1,2.892010510E-1,-7.512595057E-1
7.042877593E0,5.575803518E-1,2.621659040E-1,-7.245559692E-1
7.046847905E0,5.638111830E-1,2.277131081E-1,-6.934891343E-1
7.050818218E0,5.648234487E-1,1.850049049E-1,-6.618986726E-1
7.054790093E0,5.625196099E-1,1.559277177E-1,-6.365041137E-1
7.058758843E0,5.634272099E-1,1.499935985E-1,-6.218957305E-1
7.062730718E0,5.761506557E-1,1.731541157E-1,-6.171833277E-1
7.066710405E0,5.993286371E-1,2.261423171E-1,-6.322106123E-1
7.070671343E0,6.342700720E-1,2.899515331E-1,-6.605023742E-1
7.074641655E0,6.682516336E-1,3.501304984E-1,-6.944141388E-1
7.078611968E0,7.153057456E-1,3.866078854E-1,-7.393389344E-1
7.082582280E0,7.841764092E-1,3.998723924E-1,-7.941247821E-1
7.086554155E0,8.901702762E-1,3.995582163E-1,-8.444077373E-1
7.090524468E0,1.044788957E0,3.870092928E-1,-8.881980777E-1
7.094493218E0,1.255153537E0,3.167772591E-1,-9.115854502E-1
7.098465093E0,1.480527878E0,1.887049973E-1,-8.875697255E-1
7.102435405E0,1.716217160E0,3.670427576E-2,-8.234987259E-1
7.106405718E0,1.938886285E0,-1.711818874E-1,-7.025125027E-1
7.110376030E0,2.153020620E0,-4.291764498E-1,-5.258502364E-1
7.114347905E0,2.349823952E0,-7.252191901E-1,-3.282440603E-1
7.118324468E0,2.483935118E0,-1.030599475E0,-1.663647890E-1
7.122288530E0,2.541810274E0,-1.269412875E0,-8.061675727E-2
7.126258843E0,2.539977551E0,-1.451939344E0,-4.040437192E-2
7.130229155E0,2.516188860E0,-1.564251304E0,-2.495820820E-2
7.134201030E0,2.448557377E0,-1.656090617E0,-2.380629070E-2
7.138169780E0,2.356543541E0,-1.776797533E0,-3.103195317E-2
7.142140093E0,2.255471468E0,-1.891605258E0,-4.359832406E-2
7.146111968E0,2.115548372E0,-1.944576025E0,-5.426228791E-2
7.150080718E0,1.931992173E0,-1.929531336E0,-5.660102889E-2
7.154052593E0,1.705972075E0,-1.828337073E0,-4.532619938E-2
7.158022905E0,1.464331269E0,-1.659109950E0,-2.897246554E-2
7.161993218E0,1.228938699E0,-1.449827552E0,-2.783800103E-2
7.165963530E0,9.630377889E-1,-1.222376227E0,-4.502949491E-2
7.169935405E0,6.892828941E-1,-9.825330973E-1,-5.600761622E-2
7.173905718E0,4.123514891E-1,-6.959500313E-1,-4.548327997E-2
7.177874468E0,1.443387270E-1,-3.411769569E-1,-6.771877408E-3
7.181846343E0,-8.091346174E-2,3.345796093E-2,3.436553106E-2
7.185816655E0,-2.542421222E-1,3.937986493E-1,6.091199070E-2
7.189786968E0,-3.762929738E-1,7.264932990E-1,3.659955412E-2
7.193757280E0,-4.608541727E-1,1.039116621E0,-4.761258140E-2
7.197727593E0,-4.974711835E-1,1.265014648E0,-1.513375044E-1
7.201699468E0,-5.017472506E-1,1.423141479E0,-2.622182667E-1
7.205669780E0,-4.922875762E-1,1.522642732E0,-3.682470322E-1
7.209640093E0,-4.862138331E-1,1.557008266E0,-4.368559122E-1
7.213610405E0,-4.813094437E-1,1.509570122E0,-4.627216756E-1
7.217580718E0,-4.759861827E-1,1.337515593E0,-4.462806880E-1
7.221551030E0,-4.634547234E-1,1.080830097E0,-3.987902701E-1
7.225522905E0,-4.455825686E-1,7.790800929E-1,-3.239156604E-1
7.229493218E0,-4.305203557E-1,4.793023169E-1,-2.319891602E-1
7.233463530E0,-4.214795530E-1,2.201732844E-1,-1.360658705E-1
7.237465093E0,-4.209385216E-1,-6.056292448E-3,-4.326671362E-2
7.241404155E0,-4.216890037E-1,-2.113244683E-1,2.878047898E-2
7.245374468E0,-4.223522246E-1,-3.884404898E-1,6.639232486E-2
7.249344780E0,-4.271693230E-1,-5.355018973E-1,7.063347101E-2
7.253316655E0,-4.428772926E-1,-6.104812622E-1,5.681046844E-2
7.257285405E0,-4.737521708E-1,-6.029239893E-1,4.188790172E-2
7.261255718E0,-5.240874887E-1,-5.202826262E-1,3.769911081E-2
7.265227593E0,-6.037442684E-1,-3.872711062E-1,5.223770440E-2
7.269197905E0,-7.026520967E-1,-2.582738101E-1,9.005898982E-2
7.273168218E0,-8.208981752E-1,-1.746550947E-1,1.492780149E-1
7.277138530E0,-9.501572251E-1,-1.537460536E-1,2.171538621E-1
7.281108843E0,-1.065331459E0,-2.013935447E-1,2.851170003E-1
7.285080718E0,-1.153034329E0,-2.980673313E-1,3.442487419E-1
7.289051030E0,-1.220142245E0,-3.983888626E-1,3.989473581E-1
7.293021343E0,-1.277650833E0,-4.847652018E-1,4.457221925E-1
7.296991655E0,-1.337218881E0,-5.595350862E-1,4.842765033E-1
7.300961968E0,-1.397293091E0,-6.207263470E-1,5.063549280E-1
7.304932280E0,-1.462184429E0,-6.685832739E-1,5.187467337E-1
7.308904155E0,-1.537041664E0,-7.134208083E-1,5.138424039E-1
7.312890093E0,-1.595754504E0,-7.622900009E-1,5.017297864E-1
7.316843218E0,-1.632563472E0,-8.350527883E-1,4.836656451E-1
7.320815093E0,-1.649545550E0,-9.314123988E-1,4.732111096E-1
7.324785405E0,-1.659668446E0,-1.027614951E0,4.816236198E-1
7.328755718E0,-1.666824341E0,-1.121199489E0,5.015901923E-1
7.332726030E0,-1.670367360E0,-1.189267397E0,5.175075531E-1
7.336696343E0,-1.666754484E0,-1.252308607E0,5.267578363E-1
7.340666655E0,-1.640714169E0,-1.298420191E0,5.315749049E-1
7.344638530E0,-1.610677123E0,-1.299641967E0,5.308942795E-1
7.348608843E0,-1.598634362E0,-1.250877500E0,5.114513040E-1
7.352579155E0,-1.576905012E0,-1.161656260E0,4.762654305E-1
7.356549468E0,-1.535784960E0,-1.082505584E0,4.467344880E-1
7.360519780E0,-1.538123727E0,-9.788678885E-1,4.297175109E-1
7.364490093E0,-1.567392945E0,-8.438841701E-1,4.168718755E-1
7.368461968E0,-1.585282564E0,-7.067187428E-1,3.987728357E-1
7.372430718E0,-1.583345294E0,-5.773723722E-1,3.758217394E-1
7.376402593E0,-1.553011417E0,-4.358261526E-1,3.493625522E-1
7.380372905E0,-1.549677849E0,-3.171612322E-1,3.367263675E-1
7.384341655E0,-1.651657462E0,-2.580469251E-1,3.570420146E-1
7.388313530E0,-1.867868781E0,-2.452013046E-1,4.148822129E-1
7.392283843E0,-2.108514786E0,-2.896897495E-1,4.999670088E-1
7.396254155E0,-2.405534983E0,-3.679328561E-1,5.956459641E-1
7.400224468E0,-2.704108477E0,-3.948458433E-1,6.653544307E-1
7.404196343E0,-2.946604490E0,-3.201282918E-1,6.797708273E-1
7.408165093E0,-3.054378510E0,-8.498007804E-2,6.483025551E-1
7.412135405E0,-2.902866602E0,1.310393214E-1,5.406157374E-1
7.416107280E0,-2.637681246E0,1.727352291E-1,4.200134873E-1
7.420077593E0,-2.507549524E0,1.718974710E-1,3.514744043E-1
7.424047905E0,-2.452816010E0,1.453335732E-1,3.501828611E-1
7.428018218E0,-2.359510660E0,1.024857312E-1,3.781954050E-1
7.432005718E0,-2.186251879E0,-1.432915311E-2,4.126132727E-1
7.435958843E0,-1.954123020E0,-1.785297245E-1,4.408701658E-1
7.439930718E0,-1.690735340E0,-3.084695041E-1,4.577125907E-1
7.443901030E0,-1.529397130E0,-3.260973096E-1,4.711341858E-1
7.447871343E0,-1.443282604E0,-2.718001306E-1,4.710294604E-1
7.451841655E0,-1.391044855E0,-1.917593181E-1,4.362624884E-1
7.455811968E0,-1.382056475E0,-1.505520940E-1,3.756995797E-1
7.459783843E0,-1.437523007E0,-1.467647403E-1,3.177022934E-1
7.463754155E0,-1.524143696E0,-1.642703861E-1,2.711369097E-1
7.467724468E0,-1.586696267E0,-1.850049049E-1,2.321811467E-1
7.471694780E0,-1.529885769E0,-2.055474222E-1,1.990548074E-1
7.475665093E0,-1.203299761E0,-3.131644130E-1,1.207593307E-1
7.479635405E0,-5.478588343E-1,-3.704810441E-1,5.148721393E-3
7.483607280E0,7.447320223E-2,-2.345198840E-1,-1.160643920E-1
7.487576030E0,4.430343807E-1,7.609635592E-2,-2.103296220E-1
7.491546343E0,5.525189042E-1,3.555061221E-1,-2.686236203E-1
7.495518218E0,5.246634483E-1,4.676435292E-1,-3.234967887E-1
7.499488530E0,4.289495647E-1,4.415682852E-1,-3.673917949E-1
7.503457280E0,3.270572424E-1,3.604454100E-1,-3.711268008E-1
7.507429155E0,2.391799241E-1,3.164805472E-1,-3.704112172E-1
7.511399468E0,1.923003793E-1,3.588745892E-1,-3.666413128E-1
7.515369780E0,2.017426044E-1,4.631580114E-1,-3.441440165E-1
7.519340093E0,2.623404264E-1,5.739864111E-1,-2.958333194E-1
7.523311968E0,3.528008461E-1,6.361899376E-1,-2.317448109E-1
7.527282280E0,4.643448591E-1,6.313379407E-1,-1.531526446E-1
7.531252593E0,5.832890272E-1,5.554161072E-1,-7.979645580E-2
7.535222905E0,6.727371812E-1,4.239055812E-1,-2.335250564E-2
7.539193218E0,7.327939272E-1,2.839999795E-1,2.356194519E-2
7.543163530E0,7.794466019E-1,1.638515145E-1,7.386233658E-2
7.547133843E0,8.149291277E-1,4.900884628E-2,1.165181771E-1
7.551104155E0,8.381943703E-1,-3.658210114E-2,1.341285557E-1
7.555076030E0,8.586845398E-1,-5.391322076E-2,1.156978756E-1
7.559044780E0,8.944288492E-1,4.153883550E-3,7.532840967E-2
7.563016655E0,9.470854402E-1,1.442689151E-1,3.152064607E-2
7.566986968E0,1.017718911E0,2.736327052E-1,-2.617993858E-3
7.570957280E0,1.118913174E0,3.318220079E-1,-3.303908184E-2
7.574929155E0,1.258312583E0,2.692344785E-1,-7.166321576E-2
7.578899468E0,1.445848227E0,8.513715863E-2,-1.172861233E-1
7.582869780E0,1.660471320E0,-1.774999797E-1,-1.400626749E-1
7.586840093E0,1.846244216E0,-4.443433583E-1,-1.211782098E-1
7.590810405E0,1.983095407E0,-6.591061354E-1,-4.925319180E-2
7.594780718E0,2.071705818E0,-8.435350657E-1,8.354891092E-2
7.598751030E0,2.148238420E0,-1.011365891E0,2.721841037E-1
7.602722905E0,2.202378511E0,-1.127133608E0,5.567774773E-1
7.606691655E0,2.249834061E0,-1.148252130E0,7.921700478E-1
7.610663530E0,2.328042269E0,-1.136139512E0,8.161508441E-1
7.614638530E0,2.363716841E0,-1.012674928E0,6.355093122E-1
7.618602593E0,2.342301607E0,-7.778059840E-1,4.111995697E-1
7.622574468E0,2.254825830E0,-4.751833379E-1,2.075720131E-1
7.626544780E0,2.123367548E0,-2.181487083E-1,5.722934753E-2
7.630515093E0,1.949131370E0,-4.953244328E-2,-3.543018550E-2
7.634486968E0,1.764091492E0,1.329940930E-2,-5.897467583E-2
7.638457280E0,1.541439891E0,5.724680144E-3,-2.445206232E-2
7.642427593E0,1.352438211E0,-4.349360615E-2,3.183480725E-2
7.646397905E0,1.190401793E0,-1.331162602E-1,8.611454815E-2
7.650368218E0,1.049379230E0,-2.493900955E-1,1.358215213E-1
7.654338530E0,9.336289763E-1,-3.654021323E-1,1.647416204E-1
7.658310405E0,8.469384909E-1,-4.238532186E-1,1.692794859E-1
7.662282280E0,7.906516194E-1,-4.189139307E-1,1.522276103E-1
7.666249468E0,7.505614161E-1,-3.583509922E-1,1.067268848E-1
7.670222905E0,7.142236233E-1,-2.716779411E-1,4.586725309E-2
7.674191655E0,6.714805365E-1,-1.627519578E-1,-9.878563695E-3
7.678161968E0,6.390872002E-1,-1.757546514E-2,-4.157374427E-2
7.682133843E0,6.155951023E-1,1.786693484E-1,-5.902703479E-2
7.686102593E0,5.984908342E-1,3.881961405E-1,-6.986553222E-2
7.690072905E0,5.750685334E-1,5.600761771E-1,-8.262388408E-2
7.694044780E0,5.420294404E-1,6.502049565E-1,-1.046324894E-1
7.698013530E0,5.081002712E-1,6.658256650E-1,-1.218239814E-1
7.701985405E0,4.864581525E-1,6.788283587E-1,-1.311091334E-1
7.705955718E0,4.851666093E-1,7.451159358E-1,-1.476548612E-1
7.709926030E0,5.008047819E-1,8.330805302E-1,-1.792104095E-1
7.713896343E0,5.167919993E-1,8.935387731E-1,-2.276432961E-1
7.717866655E0,5.314876437E-1,9.250768423E-1,-2.749068141E-1
7.721838530E0,5.464625955E-1,9.515011311E-1,-3.129898906E-1
7.725808843E0,5.717175007E-1,9.657779336E-1,-3.382622600E-1
7.729777593E0,6.130992770E-1,9.722007513E-1,-3.541971147E-1
7.733749468E0,6.590886712E-1,9.474170804E-1,-3.458718956E-1
7.737719780E0,7.194247246E-1,9.097528458E-1,-3.002140820E-1
7.741690093E0,7.709642649E-1,8.476191759E-1,-2.268927991E-1
7.745660405E0,8.210029006E-1,7.428819537E-1,-1.264491081E-1
7.749630718E0,8.581609130E-1,5.829748511E-1,-8.011061698E-3
7.753601030E0,8.914269209E-1,3.761009872E-1,1.160818487E-1
7.757571343E0,9.589013457E-1,1.785646379E-1,2.394591719E-1
7.761558843E0,1.091965199E0,-2.740166895E-2,3.660828173E-1
7.765513530E0,1.285330296E0,-2.767219543E-1,4.624598920E-1
7.769483843E0,1.500930786E0,-5.684013963E-1,5.543863773E-1
7.773454155E0,1.678675175E0,-8.344942927E-1,6.530498266E-1
7.777424468E0,1.800132632E0,-1.001225591E0,7.467740178E-1
7.781394780E0,1.831269264E0,-1.101704121E0,8.448615074E-1
7.785366655E0,1.774493694E0,-1.189267397E0,9.455146790E-1
7.789336968E0,1.672932982E0,-1.281054258E0,1.048681021E0
7.793305718E0,1.517284513E0,-1.409824610E0,1.183909178E0
7.797277593E0,1.355021238E0,-1.524370551E0,1.388810873E0
7.801247905E0,1.238014340E0,-1.631376743E0,1.569888711E0
7.805218218E0,1.154360771E0,-1.781003833E0,1.623121262E0
7.809190093E0,1.105177402E0,-1.926389694E0,1.492657900E0
7.813160405E0,1.100761652E0,-1.985538960E0,1.243163109E0
7.817130718E0,1.139211297E0,-1.871499062E0,9.867568016E-1
7.821101030E0,1.190523982E0,-1.634448528E0,7.896392941E-1
7.825071343E0,1.272938490E0,-1.273793697E0,6.255260110E-1
7.829041655E0,1.362369061E0,-9.563182592E-1,5.089380145E-1
7.833011968E0,1.438727260E0,-7.218506932E-1,4.676958919E-1
7.836982280E0,1.473529100E0,-4.339063168E-1,4.489161372E-1
7.840952593E0,1.484524727E0,-9.094911069E-2,4.092448056E-1
7.844924468E0,1.483791709E0,2.834414840E-1,3.749141693E-1
7.848894780E0,1.483582258E0,5.908288360E-1,3.818780482E-1
7.852865093E0,1.481871843E0,8.409345150E-1,4.415159523E-1
7.856835405E0,1.495537758E0,1.029744267E0,5.412266254E-1
7.860805718E0,1.529082894E0,1.103414655E0,6.611656547E-1
7.864776030E0,1.548264146E0,1.078473806E0,7.734950185E-1
7.868747905E0,1.546344280E0,1.002359986E0,8.668527007E-1
7.872716655E0,1.514195323E0,9.294750690E-1,9.645212889E-1
7.876688530E0,1.476321697E0,9.010785818E-1,1.070043921E0
7.880658843E0,1.425532579E0,9.342049360E-1,1.177957654E0
7.884629155E0,1.330289960E0,9.365262389E-1,1.246234894E0
7.888599468E0,1.185637116E0,7.999193072E-1,1.218135118E0
7.892569780E0,1.010545611E0,6.069382429E-1,1.135598421E0
7.896540093E0,8.363443017E-1,4.405385554E-1,1.065401316E0
7.900511968E0,6.957580447E-1,3.723834455E-1,1.031786323E0
7.904482280E0,5.873032808E-1,3.943920434E-1,9.935286641E-1
7.908451030E0,5.179264545E-1,4.537855983E-1,9.549394250E-1
7.912422905E0,4.697204530E-1,5.229006410E-1,9.188460112E-1
7.916393218E0,4.413762987E-1,5.964313745E-1,8.793317676E-1
7.920363530E0,4.350233078E-1,6.432236433E-1,8.477762341E-1
