"Time (s)","Acceleration x (m/s^2)","Acceleration y (m/s^2)","Acceleration z (m/s^2)"
3.375636800E-2,-1.427215576E0,9.038925171E0,1.440765381E0
3.873073300E-2,-1.427215576E0,9.038925171E0,1.440765381E0
4.370509800E-2,-1.427215576E0,9.038925171E0,1.440765381E0
4.867946300E-2,-1.427215576E0,9.038925171E0,1.440765381E0
5.365382900E-2,-1.427215576E0,9.038925171E0,1.440765381E0
5.862819400E-2,-1.403686523E0,8.999359131E0,1.405929565E0
6.360255900E-2,-1.374862671E0,8.925628662E0,1.408691406E0
6.857692400E-2,-1.382980347E0,8.929763794E0,1.469604492E0
7.355129000E-2,-1.337677002E0,8.949081421E0,1.461212158E0
7.852565500E-2,-1.307510376E0,8.942306519E0,1.412597656E0
8.350002000E-2,-1.303161621E0,8.946075439E0,1.421508789E0
8.847438500E-2,-1.296356201E0,8.994964600E0,1.384429932E0
9.344875100E-2,-1.306274414E0,9.013214111E0,1.365890503E0
9.842311600E-2,-1.302383423E0,9.031585693E0,1.427856445E0
1.033974810E-1,-1.256195068E0,9.036529541E0,1.561721802E0
1.083718460E-1,-1.256286621E0,9.010955811E0,1.580078125E0
1.133462110E-1,-1.264099121E0,9.010055542E0,1.593078613E0
1.183205770E-1,-1.319183350E0,9.019699097E0,1.548751831E0
1.232949420E-1,-1.262680054E0,9.036148071E0,1.619644165E0
1.282693070E-1,-1.275833130E0,9.024353027E0,1.478668213E0
1.332436720E-1,-1.260864258E0,9.002624512E0,1.402145386E0
1.382180380E-1,-1.225601196E0,9.019927979E0,1.386657715E0
1.431924030E-1,-1.304183960E0,8.975082397E0,1.346008301E0
1.481667680E-1,-1.331512451E0,8.962341309E0,1.402481079E0
1.531411330E-1,-1.331512451E0,8.962341309E0,1.402481079E0
1.581154990E-1,-1.331512451E0,8.962341309E0,1.402481079E0
1.630898640E-1,-1.331512451E0,8.962341309E0,1.402481079E0
1.680642290E-1,-1.205337524E0,8.935455322E0,1.460418701E0
1.730385940E-1,-1.222824097E0,8.944396973E0,1.362075806E0
1.780129590E-1,-1.260742188E0,8.980102539E0,1.428161621E0
1.829873250E-1,-1.214614868E0,8.947998047E0,1.471405029E0
1.879616900E-1,-1.239669800E0,8.951538086E0,1.434906006E0
1.929360550E-1,-1.225952148E0,9.003295898E0,1.436630249E0
1.979104200E-1,-1.219207764E0,9.004638672E0,1.560714722E0
2.028847860E-1,-1.189010620E0,8.997558594E0,1.487075806E0
2.078591510E-1,-1.185272217E0,8.982498169E0,1.413040161E0
2.128335160E-1,-1.233749390E0,8.967468262E0,1.442062378E0
2.178078810E-1,-1.226425171E0,8.937667847E0,1.391311646E0
2.227822470E-1,-1.244750977E0,8.897613525E0,1.432235718E0
2.277566120E-1,-1.237106323E0,8.904815674E0,1.428527832E0
2.327309770E-1,-1.231521606E0,8.917999268E0,1.394271851E0
2.377053420E-1,-1.208984375E0,8.946716309E0,1.475021362E0
2.426797080E-1,-1.226562500E0,8.968994141E0,1.603103638E0
2.476540730E-1,-1.304641724E0,9.009643555E0,1.724533081E0
2.526284380E-1,-1.321624756E0,9.096252441E0,1.772293091E0
2.576028030E-1,-1.265243530E0,9.151611328E0,1.804718018E0
2.625771680E-1,-1.253555298E0,9.168655396E0,1.761947632E0
2.675515340E-1,-1.230300903E0,9.211578369E0,1.599563599E0
2.725258990E-1,-1.234878540E0,9.222686768E0,1.447158813E0
2.775002640E-1,-1.224456787E0,9.214080811E0,1.476730347E0
2.824746290E-1,-1.168792725E0,9.194458008E0,1.519729614E0
2.874489950E-1,-1.154190063E0,9.227951050E0,1.470031738E0
2.924233600E-1,-1.151519775E0,9.219604492E0,1.329162598E0
2.973977250E-1,-1.165954590E0,9.138259888E0,1.154876709E0
3.023720900E-1,-1.150146484E0,9.111663818E0,1.128265381E0
3.073464560E-1,-1.155639648E0,9.076599121E0,1.116546631E0
3.123208210E-1,-1.174209595E0,9.042541504E0,1.205734253E0
3.172951860E-1,-1.199401855E0,9.012451172E0,1.359375000E0
3.222695510E-1,-1.221389771E0,8.962402344E0,1.441635132E0
3.272439170E-1,-1.241134644E0,8.996978760E0,1.486007690E0
3.322182820E-1,-1.247756958E0,9.096084595E0,1.497100830E0
3.371926470E-1,-1.250396729E0,9.139862061E0,1.473571777E0
3.421670120E-1,-1.245422363E0,9.164169312E0,1.487060547E0
3.471413770E-1,-1.251388550E0,9.180786133E0,1.517562866E0
3.521157430E-1,-1.290679932E0,9.147460938E0,1.528579712E0
3.570901080E-1,-1.299819946E0,9.110748291E0,1.509613037E0
3.620644730E-1,-1.332244873E0,9.088302612E0,1.455444336E0
3.670388380E-1,-1.355239868E0,9.080322266E0,1.382492065E0
3.720132040E-1,-1.342819214E0,9.064575195E0,1.334899902E0
3.769875690E-1,-1.232864380E0,9.044799805E0,1.348739624E0
3.819619340E-1,-1.250000000E0,8.977127075E0,1.371231079E0
3.869362990E-1,-1.232086182E0,8.877166748E0,1.278518677E0
3.919106650E-1,-1.257934570E0,8.900955200E0,1.182983398E0
3.968850300E-1,-1.280960083E0,8.930892944E0,1.157302856E0
4.018593950E-1,-1.238113403E0,8.920501709E0,1.263305664E0
4.068337600E-1,-1.187362671E0,8.867691040E0,1.376617432E0
4.118081260E-1,-1.190414429E0,8.824798584E0,1.391525269E0
4.167824910E-1,-1.193313599E0,8.863601685E0,1.373397827E0
4.217568560E-1,-1.177871704E0,8.866775513E0,1.306442261E0
4.267312210E-1,-1.176528931E0,8.850158691E0,1.245895386E0
4.317055860E-1,-1.173538208E0,8.876815796E0,1.275070190E0
4.366799520E-1,-1.212295532E0,8.908599854E0,1.331405640E0
4.416543170E-1,-1.186538696E0,8.937927246E0,1.332473755E0
4.466286820E-1,-1.145736694E0,8.943801880E0,1.358459473E0
4.516030470E-1,-1.128356934E0,8.945922852E0,1.352874756E0
4.565774130E-1,-1.193725586E0,8.930847168E0,1.377563477E0
4.615517780E-1,-1.111511230E0,8.935363770E0,1.371658325E0
4.665261430E-1,-1.110748291E0,9.006652832E0,1.432815552E0
4.715005080E-1,-1.156646729E0,8.928161621E0,1.532897949E0
4.764748740E-1,-1.098922729E0,8.874328613E0,1.492156982E0
4.814492390E-1,-1.144226074E0,8.840713501E0,1.495712280E0
4.864236040E-1,-1.197601318E0,8.789062500E0,1.550735474E0
4.913979690E-1,-1.142440796E0,8.829574585E0,1.548446655E0
4.963723340E-1,-1.169006348E0,8.898010254E0,1.547805786E0
5.013467000E-1,-1.190032959E0,8.976928711E0,1.556640625E0
5.063210650E-1,-1.202056885E0,9.130218506E0,1.649612427E0
5.112954300E-1,-1.192855835E0,9.219375610E0,1.773788452E0
5.162697950E-1,-1.220581055E0,9.327789307E0,1.810989380E0
5.212441610E-1,-1.225067139E0,9.418365479E0,1.869781494E0
5.262185260E-1,-1.245864868E0,9.578460693E0,1.961303711E0
5.311928910E-1,-1.270385742E0,9.723495483E0,2.002929688E0
5.361672560E-1,-1.280334473E0,9.785110474E0,1.988800049E0
5.411416220E-1,-1.208999634E0,9.903106689E0,2.134719849E0
5.461159870E-1,-1.125228882E0,1.004173279E1,2.382034302E0
5.510903520E-1,-1.091354370E0,1.015167236E1,2.645538330E0
5.560647170E-1,-1.049621582E0,1.024737549E1,2.914566040E0
5.610390830E-1,-1.016235352E0,1.020068359E1,3.158599854E0
5.660134480E-1,-1.074096680E0,1.001628113E1,3.329605103E0
5.709878130E-1,-1.030746460E0,9.962783813E0,3.321441650E0
5.759621780E-1,-1.013946533E0,1.002684021E1,2.914382935E0
5.809365430E-1,-1.006286621E0,1.021846008E1,2.578216553E0
5.859109090E-1,-1.120285034E0,1.015028381E1,2.582977295E0
5.908852740E-1,-1.185745239E0,9.591400146E0,2.827529907E0
5.958596390E-1,-1.129974365E0,6.825988770E0,3.114776611E0
6.008340040E-1,-6.927642822E-1,7.463867188E0,2.517669678E0
6.058083700E-1,-3.503875732E-1,7.551895142E0,2.818038940E0
6.107827350E-1,2.351989746E-1,7.302642822E0,2.019577026E0
6.157571000E-1,2.604721069E0,7.098175049E0,1.833145142E0
6.207314650E-1,5.765823364E0,6.800933838E0,3.061752319E0
6.257058310E-1,2.769409180E0,7.250366211E0,-7.447052002E-1
6.306801960E-1,1.438522339E0,8.338134766E0,-1.652908325E0
6.356545610E-1,9.732818604E-1,9.358901978E0,-7.498474121E-1
6.406289260E-1,1.870254517E0,1.227682495E1,-3.965423584E0
6.456032920E-1,1.270721436E0,1.327175903E1,-3.637298584E0
6.505776570E-1,-1.269088745E0,1.191152954E1,5.104064941E-1
6.555520220E-1,-2.329864502E0,1.081935120E1,4.481826782E0
6.605263870E-1,-1.316619873E0,1.034318542E1,7.441406250E0
6.655007520E-1,-1.210479736E-1,9.914169312E0,6.519042969E0
6.704751180E-1,-7.611694336E-1,8.912170410E0,4.848373413E0
6.754494830E-1,-1.522048950E0,8.228225708E0,2.219024658E0
6.804238480E-1,-2.170822144E0,7.593978882E0,-1.481933594E-1
6.853982130E-1,-3.549911499E0,7.010406494E0,-2.565582275E0
6.903725790E-1,-5.334579468E0,6.677368164E0,-4.363647461E0
6.953469440E-1,-6.318359375E0,6.726806641E0,-5.136215210E0
7.003213090E-1,-6.437881470E0,7.183624268E0,-4.729705811E0
7.052956740E-1,-6.570983887E0,7.937515259E0,-3.711593628E0
7.102700400E-1,-6.739944458E0,8.775146484E0,-2.577972412E0
7.152444050E-1,-6.456268311E0,9.545654297E0,-1.435073853E0
7.202187700E-1,-5.955276489E0,1.006112671E1,-5.639343262E-1
7.251931350E-1,-5.363189697E0,1.012455750E1,-1.516113281E-1
7.301675010E-1,-3.931762695E0,9.817138672E0,-1.181335449E-1
7.351418660E-1,-2.468795776E0,9.468231201E0,-1.199645996E-1
7.401162310E-1,-2.216094971E0,9.266448975E0,-2.153472900E-1
7.450905960E-1,-2.198455811E0,9.169784546E0,-4.543457031E-1
7.500649610E-1,-2.130081177E0,9.173629761E0,-6.629486084E-1
7.550393270E-1,-2.136962891E0,9.176300049E0,-7.319488525E-1
7.600136920E-1,-2.069030762E0,9.180267334E0,-6.448516846E-1
7.649880570E-1,-1.982238770E0,9.188323975E0,-5.099182129E-1
7.699624220E-1,-1.943176270E0,9.158630371E0,-3.903045654E-1
7.749367880E-1,-1.934906006E0,9.138427734E0,-3.183898926E-1
7.799111530E-1,-1.904403687E0,9.130081177E0,-2.992706299E-1
7.848855180E-1,-1.872131348E0,9.113159180E0,-2.798004150E-1
7.898598830E-1,-1.861099243E0,9.115570068E0,-2.889251709E-1
7.948342490E-1,-1.876434326E0,9.083908081E0,-2.819824219E-1
7.998086140E-1,-1.918212891E0,9.093719482E0,-2.640686035E-1
8.047829790E-1,-1.979049683E0,9.061508179E0,-2.634735107E-1
8.097573440E-1,-2.009811401E0,9.037033081E0,-2.301940918E-1
8.147317090E-1,-2.023330688E0,9.031738281E0,-2.336578369E-1
8.197060750E-1,-2.079483032E0,9.023956299E0,-3.275451660E-1
8.246804400E-1,-2.122451782E0,8.999328613E0,-4.151611328E-1
8.296548050E-1,-2.121337891E0,8.991607666E0,-4.990692139E-1
8.346291700E-1,-2.087371826E0,8.983551025E0,-5.526428223E-1
8.396035360E-1,-2.047943115E0,8.968460083E0,-5.646972656E-1
8.445779010E-1,-1.991775513E0,8.976730347E0,-5.624847412E-1
8.495522660E-1,-1.907196045E0,8.970565796E0,-5.144195557E-1
8.545266310E-1,-1.829254150E0,8.971466064E0,-5.087585449E-1
8.595009970E-1,-1.734222412E0,8.950820923E0,-4.912719727E-1
8.644753620E-1,-1.684661865E0,8.918273926E0,-4.888153076E-1
8.694497270E-1,-1.607147217E0,8.883560181E0,-4.882049561E-1
8.744240920E-1,-1.570938110E0,8.882919312E0,-5.051269531E-1
8.793984580E-1,-1.538711548E0,8.892517090E0,-5.435333252E-1
8.843728230E-1,-1.556427002E0,8.940811157E0,-6.266326904E-1
8.893471880E-1,-1.563949585E0,8.993637085E0,-6.677551270E-1
8.943215530E-1,-1.616561890E0,9.046203613E0,-7.223968506E-1
8.992959180E-1,-1.647994995E0,9.095916748E0,-7.435150146E-1
9.042702840E-1,-1.713409424E0,9.134628296E0,-7.333526611E-1
9.092446490E-1,-1.824615479E0,9.129806519E0,-6.983947754E-1
9.142190140E-1,-1.934371948E0,9.103225708E0,-6.854705811E-1
9.191933790E-1,-1.990371704E0,9.073974609E0,-6.579284668E-1
9.241677450E-1,-2.020645142E0,9.059967041E0,-6.323699951E-1
9.291421100E-1,-2.084121704E0,9.026275635E0,-6.144866943E-1
9.341164750E-1,-2.118682861E0,9.008987427E0,-5.717163086E-1
9.390908400E-1,-2.142745972E0,8.998382568E0,-5.721282959E-1
9.440652060E-1,-2.141723633E0,8.965682983E0,-6.026916504E-1
9.490395710E-1,-2.126922607E0,8.933334351E0,-6.556396484E-1
9.540139360E-1,-2.125213623E0,8.947402954E0,-6.709289551E-1
9.589883010E-1,-2.090118408E0,8.953979492E0,-6.905822754E-1
9.639626670E-1,-2.059051514E0,8.992706299E0,-7.136230469E-1
9.689370320E-1,-2.046066284E0,9.009094238E0,-7.519378662E-1
9.739113970E-1,-2.016677856E0,9.025207520E0,-7.732543945E-1
9.788857620E-1,-2.013458252E0,9.040557861E0,-8.180999756E-1
9.838601270E-1,-1.994461060E0,9.062698364E0,-8.656158447E-1
9.888344930E-1,-2.003784180E0,9.033050537E0,-9.002532959E-1
9.938088580E-1,-2.003112793E0,9.007675171E0,-9.676513672E-1
9.987832230E-1,-2.016906738E0,8.977081299E0,-9.670257568E-1
1.003757588E0,-2.010070801E0,8.931838989E0,-1.034179688E0
1.008731954E0,-2.007064819E0,8.909790039E0,-1.054397583E0
1.013706319E0,-1.967269897E0,8.881942749E0,-1.043960571E0
1.018680684E0,-1.922164917E0,8.850692749E0,-1.028305054E0
1.023655049E0,-1.880645752E0,8.835311890E0,-1.007522583E0
1.028629415E0,-1.846481323E0,8.793212891E0,-1.016143799E0
1.033603780E0,-1.828033447E0,8.760314941E0,-1.024978638E0
1.038578145E0,-1.822937012E0,8.731430054E0,-1.029922485E0
1.043552510E0,-1.813964844E0,8.698394775E0,-1.038116455E0
1.048526876E0,-1.805480957E0,8.672500610E0,-1.041442871E0
1.053501241E0,-1.766555786E0,8.657363892E0,-1.038940430E0
1.058475606E0,-1.744934082E0,8.666091919E0,-1.036422729E0
1.063449971E0,-1.743072510E0,8.700805664E0,-1.045303345E0
1.068424336E0,-1.751113892E0,8.724777222E0,-1.063842773E0
1.073398702E0,-1.791000366E0,8.751266479E0,-1.039215088E0
1.078373067E0,-1.836303711E0,8.785720825E0,-1.040298462E0
1.083347432E0,-1.857681274E0,8.794738770E0,-1.012252808E0
1.088321797E0,-1.906158447E0,8.793197632E0,-1.009582520E0
1.093296163E0,-1.920989990E0,8.810516357E0,-1.016418457E0
1.098270528E0,-1.980270386E0,8.796936035E0,-1.065841675E0
1.103244893E0,-2.001632690E0,8.782272339E0,-1.085311890E0
1.108219258E0,-2.020751953E0,8.793487549E0,-1.062561035E0
1.113193624E0,-2.002426147E0,8.812698364E0,-1.026504517E0
1.118167989E0,-1.966354370E0,8.841949463E0,-9.974365234E-1
1.123142354E0,-1.934967041E0,8.867782593E0,-9.374694824E-1
1.128116719E0,-1.932785034E0,8.879943848E0,-8.594055176E-1
1.133091084E0,-1.954986572E0,8.877441406E0,-8.162994385E-1
1.138065450E0,-1.968978882E0,8.871139526E0,-7.875213623E-1
1.143039815E0,-2.018096924E0,8.868026733E0,-7.648773193E-1
1.148014180E0,-2.051208496E0,8.872024536E0,-7.377929688E-1
1.152988545E0,-2.053298950E0,8.899734497E0,-7.271270752E-1
1.157962911E0,-2.076171875E0,8.936508179E0,-7.445678711E-1
1.162937276E0,-2.032958984E0,8.958663940E0,-7.753295898E-1
1.167911641E0,-1.990554810E0,8.984100342E0,-8.256835938E-1
1.172886006E0,-1.942764282E0,8.994964600E0,-8.746948242E-1
1.177860372E0,-1.903549194E0,9.013626099E0,-9.202728271E-1
1.182834737E0,-1.870697021E0,9.040618896E0,-9.116821289E-1
1.187809102E0,-1.808715820E0,9.043701172E0,-9.286804199E-1
1.192783467E0,-1.752441406E0,9.043136597E0,-9.483642578E-1
1.197757833E0,-1.686996460E0,9.039276123E0,-9.365997314E-1
1.202732198E0,-1.640686035E0,9.057220459E0,-9.591217041E-1
1.207706563E0,-1.597732544E0,9.053802490E0,-9.434967041E-1
1.212680928E0,-1.529617310E0,9.049682617E0,-9.291839600E-1
1.217655293E0,-1.423034668E0,9.043518066E0,-9.280700684E-1
1.222629659E0,-1.331573486E0,9.069107056E0,-9.302215576E-1
1.227604024E0,-1.250030518E0,9.086715698E0,-9.216613770E-1
1.232578389E0,-1.176315308E0,9.096343994E0,-9.082183838E-1
1.237552754E0,-1.096099854E0,9.105087280E0,-9.094085693E-1
1.242527120E0,-1.024078369E0,9.100723267E0,-9.391632080E-1
1.247501485E0,-9.812469482E-1,9.114013672E0,-9.694213867E-1
1.252475850E0,-9.323730469E-1,9.133895874E0,-9.622650146E-1
1.257450215E0,-8.840484619E-1,9.138748169E0,-9.198608398E-1
1.262424581E0,-8.517150879E-1,9.150527954E0,-9.028778076E-1
1.267398946E0,-8.123931885E-1,9.169464111E0,-8.664550781E-1
1.272373311E0,-7.821655273E-1,9.170822144E0,-8.649902344E-1
1.277347676E0,-7.898101807E-1,9.181564331E0,-8.681182861E-1
1.282322042E0,-8.256988525E-1,9.196456909E0,-8.846130371E-1
1.287296407E0,-8.411254883E-1,9.182495117E0,-8.919067383E-1
1.292270772E0,-8.510589600E-1,9.180450439E0,-8.753051758E-1
1.297245137E0,-8.975830078E-1,9.152023315E0,-8.762969971E-1
1.302219502E0,-9.746704102E-1,9.131378174E0,-8.998107910E-1
1.307193868E0,-1.066955566E0,9.085266113E0,-9.217529297E-1
1.312168233E0,-1.166076660E0,9.049865723E0,-9.927368164E-1
1.317142598E0,-1.233520508E0,9.011138916E0,-1.021102905E0
1.322116963E0,-1.259613037E0,8.983657837E0,-1.086547852E0
1.327091329E0,-1.225921631E0,8.935317993E0,-1.107666016E0
1.332065694E0,-1.183273315E0,8.902160645E0,-1.116500854E0
1.337040059E0,-1.117156982E0,8.878280640E0,-1.114990234E0
1.342014424E0,-1.022491455E0,8.848648071E0,-1.138244629E0
1.346988790E0,-9.391784668E-1,8.815338135E0,-1.153625488E0
1.351963155E0,-8.888397217E-1,8.801223755E0,-1.147460938E0
1.356937520E0,-8.271942139E-1,8.801345825E0,-1.146896362E0
1.361911885E0,-7.468566895E-1,8.827743530E0,-1.162963867E0
1.366886251E0,-7.108764648E-1,8.855117798E0,-1.161529541E0
1.371860616E0,-6.469421387E-1,8.929855347E0,-1.145721436E0
1.376834981E0,-6.112823486E-1,8.978073120E0,-1.152252197E0
1.381809346E0,-5.625762939E-1,9.037063599E0,-1.104431152E0
1.386783711E0,-5.733337402E-1,9.089416504E0,-1.089981079E0
1.391758077E0,-6.010131836E-1,9.108306885E0,-1.021835327E0
1.396732442E0,-6.267395020E-1,9.107467651E0,-9.857788086E-1
1.401706807E0,-6.475677490E-1,9.104721069E0,-9.229431152E-1
1.406681172E0,-7.149810791E-1,9.125717163E0,-8.659515381E-1
1.411655538E0,-7.570800781E-1,9.133239746E0,-8.232421875E-1
1.416629903E0,-8.251495361E-1,9.116027832E0,-7.420349121E-1
1.421604268E0,-8.297882080E-1,9.113006592E0,-6.455383301E-1
1.426578633E0,-8.089752197E-1,9.122955322E0,-5.922851562E-1
1.431552999E0,-8.069915771E-1,9.098236084E0,-5.508575439E-1
1.436527364E0,-7.712554932E-1,9.086730957E0,-5.441284180E-1
1.441501729E0,-7.280120850E-1,9.067108154E0,-5.702362061E-1
1.446476094E0,-6.764373779E-1,9.056167603E0,-6.043090820E-1
1.451450459E0,-5.956268311E-1,9.043975830E0,-6.209106445E-1
1.456424825E0,-5.136413574E-1,9.028106689E0,-6.444244385E-1
1.461399190E0,-4.699554443E-1,8.990234375E0,-7.035217285E-1
1.466373555E0,-4.127502441E-1,8.973297119E0,-7.681884766E-1
1.471347920E0,-3.578643799E-1,8.969879150E0,-8.328094482E-1
1.476322286E0,-2.985839844E-1,8.971679688E0,-9.154663086E-1
1.481296651E0,-2.404785156E-1,8.974197388E0,-9.484710693E-1
1.486271016E0,-2.068786621E-1,9.036529541E0,-9.712066650E-1
1.491245381E0,-1.740417480E-1,9.076980591E0,-1.018753052E0
1.496219747E0,-1.375885010E-1,9.172302246E0,-1.056350708E0
1.501194112E0,-9.313964844E-2,9.283905029E0,-1.051452637E0
1.506168477E0,-6.619262695E-2,9.369110107E0,-1.070266724E0
1.511142842E0,-2.975463867E-2,9.427154541E0,-1.053085327E0
1.516117208E0,1.800537109E-3,9.431854248E0,-1.013244629E0
1.521091573E0,-7.568359375E-3,9.422485352E0,-9.729156494E-1
1.526065938E0,-4.656982422E-2,9.382522583E0,-8.955841064E-1
1.531040303E0,-7.496643066E-2,9.322418213E0,-8.226165771E-1
1.536014668E0,-1.051940918E-1,9.245895386E0,-7.773742676E-1
1.540989034E0,-1.131134033E-1,9.179855347E0,-7.767486572E-1
1.545963399E0,-1.288909912E-1,9.138442993E0,-7.807159424E-1
1.550937764E0,-1.438446045E-1,9.120590210E0,-7.766571045E-1
1.555912129E0,-1.580505371E-1,9.074630737E0,-7.733154297E-1
1.560886495E0,-1.727600098E-1,9.072387695E0,-7.886962891E-1
1.565860860E0,-1.796112061E-1,9.088684082E0,-8.017883301E-1
1.570835225E0,-1.785430908E-1,9.101684570E0,-7.915496826E-1
1.575809590E0,-2.103576660E-1,9.094924927E0,-7.528686523E-1
1.580783956E0,-2.163238525E-1,9.103027344E0,-7.736206055E-1
1.585758321E0,-2.212371826E-1,9.079589844E0,-8.132781982E-1
1.590732686E0,-2.400512695E-1,9.052505493E0,-8.200988770E-1
1.595707051E0,-2.362213135E-1,9.033981323E0,-8.665313721E-1
1.600681417E0,-2.551422119E-1,9.008789062E0,-9.009857178E-1
1.605655782E0,-2.048797607E-1,8.998306274E0,-9.344482422E-1
1.610630147E0,-2.170410156E-1,8.990997314E0,-9.232940674E-1
1.615604512E0,-2.160034180E-1,8.984741211E0,-9.340667725E-1
1.620578877E0,-2.101135254E-1,8.941177368E0,-9.466247559E-1
1.625553243E0,-2.041473389E-1,8.917388916E0,-9.506835938E-1
1.630527608E0,-1.903991699E-1,8.914489746E0,-9.342193604E-1
1.635501973E0,-1.830291748E-1,8.888504028E0,-9.126892090E-1
1.640476338E0,-1.820678711E-1,8.872222900E0,-9.015960693E-1
1.645450704E0,-1.796722412E-1,8.895187378E0,-9.008331299E-1
1.650425069E0,-1.865844727E-1,8.929611206E0,-9.218750000E-1
1.655399434E0,-1.908721924E-1,8.961425781E0,-9.527893066E-1
1.660373799E0,-1.848144531E-1,8.990829468E0,-9.562988281E-1
1.665348165E0,-1.924591064E-1,9.032409668E0,-9.240570068E-1
1.670322530E0,-1.787414551E-1,9.049392700E0,-8.898620605E-1
1.675296895E0,-1.864471436E-1,9.048751831E0,-8.701324463E-1
1.680271260E0,-1.855010986E-1,9.057495117E0,-8.705444336E-1
1.685245626E0,-1.687164307E-1,9.029525757E0,-8.802032471E-1
1.690219991E0,-1.657714844E-1,9.030334473E0,-8.911285400E-1
1.695194356E0,-1.529846191E-1,9.002761841E0,-9.189910889E-1
1.700168721E0,-1.146697998E-1,9.025207520E0,-9.259338379E-1
1.705143086E0,-1.099548340E-1,9.033340454E0,-9.496002197E-1
1.710117452E0,-1.255187988E-1,9.051986694E0,-9.802093506E-1
1.715091817E0,-1.268920898E-1,9.062454224E0,-9.810791016E-1
1.720066182E0,-1.295166016E-1,9.090744019E0,-9.799652100E-1
1.725040547E0,-1.315612793E-1,9.115814209E0,-9.649200439E-1
1.730014913E0,-1.395568848E-1,9.106826782E0,-9.498596191E-1
1.734989278E0,-1.526947021E-1,9.074111938E0,-9.234924316E-1
1.739963643E0,-1.612701416E-1,9.047866821E0,-8.981933594E-1
1.744938008E0,-1.548614502E-1,9.036132812E0,-8.747100830E-1
1.749912374E0,-1.609191895E-1,9.031097412E0,-8.570709229E-1
1.754886739E0,-1.515808105E-1,9.060226440E0,-8.703002930E-1
1.759861104E0,-1.551513672E-1,9.085281372E0,-8.854980469E-1
1.764835469E0,-1.609039307E-1,9.089172363E0,-8.556823730E-1
1.769809834E0,-1.674041748E-1,9.101119995E0,-8.587188721E-1
1.774784200E0,-1.707000732E-1,9.099319458E0,-8.485107422E-1
1.779758565E0,-1.865692139E-1,9.132080078E0,-8.556671143E-1
1.784732930E0,-2.205963135E-1,9.136962891E0,-8.844909668E-1
1.789707295E0,-2.487335205E-1,9.154022217E0,-8.387298584E-1
1.794681661E0,-2.965393066E-1,9.165191650E0,-8.022003174E-1
1.799656026E0,-3.425140381E-1,9.189117432E0,-7.570800781E-1
1.804630391E0,-3.803405762E-1,9.196899414E0,-7.624053955E-1
1.809604756E0,-4.423828125E-1,9.169891357E0,-7.470397949E-1
1.814579122E0,-5.027770996E-1,9.140090942E0,-7.288665771E-1
1.819553487E0,-5.442657471E-1,9.098098755E0,-6.857910156E-1
1.824527852E0,-5.433654785E-1,9.068786621E0,-6.558532715E-1
1.829502217E0,-5.530853271E-1,9.075073242E0,-6.287536621E-1
1.834476583E0,-5.567779541E-1,9.082412720E0,-5.951385498E-1
1.839450948E0,-5.417480469E-1,9.098815918E0,-5.839233398E-1
1.844425313E0,-5.367431641E-1,9.129531860E0,-5.989837646E-1
1.849399678E0,-5.287170410E-1,9.137619019E0,-6.006011963E-1
1.854374043E0,-5.137939453E-1,9.153991699E0,-5.833282471E-1
1.859348409E0,-4.979858398E-1,9.155746460E0,-5.815887451E-1
1.864322774E0,-4.977416992E-1,9.168579102E0,-5.872650146E-1
1.869297139E0,-4.849853516E-1,9.168960571E0,-5.923004150E-1
1.874271504E0,-4.421691895E-1,9.191223145E0,-5.658264160E-1
1.879245870E0,-3.946380615E-1,9.150268555E0,-5.708465576E-1
1.884220235E0,-3.515014648E-1,9.144256592E0,-5.389556885E-1
1.889194600E0,-3.330230713E-1,9.133575439E0,-5.423278809E-1
1.894168965E0,-3.044891357E-1,9.091217041E0,-5.191345215E-1
1.899143331E0,-2.617187500E-1,9.055068970E0,-4.920043945E-1
1.904117696E0,-2.173309326E-1,9.053771973E0,-5.050201416E-1
1.909092061E0,-1.721038818E-1,9.066574097E0,-5.033111572E-1
1.914066426E0,-1.460571289E-1,9.064788818E0,-4.869995117E-1
1.919040792E0,-1.080780029E-1,9.070022583E0,-4.852294922E-1
1.924015157E0,-9.004211426E-2,9.064682007E0,-4.998168945E-1
1.928989522E0,-5.343627930E-2,9.064697266E0,-4.998168945E-1
1.933963887E0,-1.742553711E-2,9.074951172E0,-5.020599365E-1
1.938938252E0,7.690429688E-3,9.093536377E0,-4.896850586E-1
1.943912618E0,3.977966309E-2,9.103576660E0,-4.894714355E-1
1.948886983E0,6.373596191E-2,9.111160278E0,-4.968414307E-1
1.953861348E0,8.435058594E-2,9.137924194E0,-5.255279541E-1
1.958835713E0,9.909057617E-2,9.170639038E0,-5.267333984E-1
1.963810079E0,9.628295898E-2,9.207641602E0,-5.268554688E-1
1.968784444E0,9.657287598E-2,9.241470337E0,-4.991149902E-1
1.973758809E0,6.782531738E-2,9.259582520E0,-4.467926025E-1
1.978733174E0,6.130981445E-2,9.268020630E0,-3.829498291E-1
1.983707540E0,5.184936523E-2,9.289459229E0,-3.106231689E-1
1.988681905E0,-2.474975586E-2,9.292297363E0,-2.743530273E-1
1.993656270E0,-6.835937500E-3,9.272018433E0,-2.325286865E-1
1.998630635E0,-6.250000000E-2,9.245544434E0,-2.052307129E-1
2.003605001E0,-7.296752930E-2,9.209335327E0,-2.046508789E-1
2.008579366E0,-7.054138184E-2,9.185745239E0,-2.151947021E-1
2.013553731E0,-1.150360107E-1,9.172683716E0,-2.320404053E-1
2.018528096E0,-1.435852051E-1,9.150634766E0,-2.533569336E-1
2.023502461E0,-1.578674316E-1,9.145538330E0,-2.507629395E-1
2.028476827E0,-1.685943604E-1,9.140380859E0,-2.393646240E-1
2.033451192E0,-1.685943604E-1,9.136322021E0,-2.381896973E-1
2.038425557E0,-1.649475098E-1,9.129852295E0,-2.461242676E-1
2.043399922E0,-1.694335938E-1,9.127166748E0,-2.277679443E-1
2.048374288E0,-1.815795898E-1,9.129409790E0,-2.237701416E-1
2.053348653E0,-1.932220459E-1,9.133804321E0,-2.388763428E-1
2.058323018E0,-2.006835938E-1,9.127868652E0,-2.387084961E-1
2.063297383E0,-2.093353271E-1,9.116027832E0,-2.185363770E-1
2.068271749E0,-2.367553711E-1,9.107299805E0,-2.281188965E-1
2.073246114E0,-2.407226562E-1,9.099746704E0,-2.502899170E-1
2.078220479E0,-2.468719482E-1,9.105209351E0,-2.317199707E-1
2.083194844E0,-2.658386230E-1,9.126480103E0,-2.294311523E-1
2.088169209E0,-2.501220703E-1,9.132293701E0,-2.417907715E-1
2.093143575E0,-2.745056152E-1,9.141937256E0,-3.039703369E-1
2.098117940E0,-2.878265381E-1,9.142959595E0,-3.120117188E-1
2.103092305E0,-3.098144531E-1,9.133331299E0,-3.249664307E-1
2.108066670E0,-3.424835205E-1,9.143829346E0,-3.370971680E-1
2.113041036E0,-3.714294434E-1,9.172988892E0,-3.388977051E-1
2.118015401E0,-3.868560791E-1,9.208084106E0,-3.544311523E-1
2.122989766E0,-3.892822266E-1,9.207260132E0,-3.879547119E-1
2.127964131E0,-3.825225830E-1,9.195281982E0,-4.229125977E-1
2.132938497E0,-3.871917725E-1,9.167739868E0,-4.547271729E-1
2.137912862E0,-3.875122070E-1,9.135665894E0,-4.735565186E-1
2.142887227E0,-4.129638672E-1,9.086715698E0,-4.619445801E-1
2.147861592E0,-4.121856689E-1,9.032211304E0,-4.103240967E-1
2.152835958E0,-3.834533691E-1,8.982131958E0,-3.608398438E-1
2.157810323E0,-3.666839600E-1,8.968811035E0,-3.130035400E-1
2.162784688E0,-3.247375488E-1,8.935424805E0,-3.185424805E-1
2.167759053E0,-2.891998291E-1,8.927886963E0,-3.404541016E-1
2.172733418E0,-2.793884277E-1,8.957366943E0,-3.605651855E-1
2.177707784E0,-2.765350342E-1,9.024612427E0,-3.655548096E-1
2.182682149E0,-2.490539551E-1,9.090728760E0,-3.612823486E-1
2.187656514E0,-2.116699219E-1,9.177703857E0,-3.275299072E-1
2.192630879E0,-2.321014404E-1,9.228240967E0,-3.010253906E-1
2.197605245E0,-2.119140625E-1,9.280502319E0,-2.540435791E-1
2.202579610E0,-2.183227539E-1,9.298919678E0,-2.541351318E-1
2.207553975E0,-2.451477051E-1,9.282012939E0,-2.150878906E-1
2.212528340E0,-2.518005371E-1,9.285995483E0,-1.943511963E-1
2.217502706E0,-2.569732666E-1,9.284851074E0,-1.564788818E-1
2.222477071E0,-2.956390381E-1,9.284103394E0,-1.472320557E-1
2.227451436E0,-3.040466309E-1,9.254318237E0,-1.428222656E-1
2.232425801E0,-3.089904785E-1,9.231384277E0,-1.534118652E-1
2.237400167E0,-2.991333008E-1,9.221954346E0,-2.040863037E-1
2.242374532E0,-2.823638916E-1,9.198379517E0,-2.483367920E-1
2.247348897E0,-2.720947266E-1,9.167755127E0,-2.922210693E-1
2.252323262E0,-2.581329346E-1,9.154769897E0,-3.417968750E-1
2.257297627E0,-2.597503662E-1,9.154708862E0,-3.829193115E-1
2.262271993E0,-2.690429688E-1,9.149047852E0,-4.140930176E-1
2.267246358E0,-2.923736572E-1,9.154190063E0,-3.847808838E-1
2.272220723E0,-2.917938232E-1,9.172241211E0,-3.372039795E-1
2.277195088E0,-2.991638184E-1,9.166778564E0,-3.469696045E-1
2.282169454E0,-3.069152832E-1,9.165740967E0,-3.468322754E-1
2.287143819E0,-2.979431152E-1,9.161010742E0,-3.608398438E-1
2.292118184E0,-2.916564941E-1,9.172164917E0,-3.382873535E-1
2.297092549E0,-3.191680908E-1,9.156173706E0,-3.633880615E-1
2.302066915E0,-3.458709717E-1,9.180221558E0,-3.072052002E-1
2.307041280E0,-3.664550781E-1,9.166183472E0,-2.737121582E-1
2.312015645E0,-3.924713135E-1,9.166427612E0,-2.219238281E-1
2.316990010E0,-4.164581299E-1,9.159591675E0,-2.082061768E-1
2.321964376E0,-4.151153564E-1,9.159378052E0,-2.086334229E-1
2.326938741E0,-4.239044189E-1,9.163894653E0,-2.060394287E-1
2.331913106E0,-4.212646484E-1,9.160949707E0,-2.170715332E-1
2.336887471E0,-4.247894287E-1,9.171371460E0,-2.230072021E-1
2.341861836E0,-4.288177490E-1,9.185043335E0,-2.660675049E-1
2.346836202E0,-4.058837891E-1,9.177490234E0,-3.209381104E-1
2.351810567E0,-3.900146484E-1,9.164459229E0,-3.675994873E-1
2.356784932E0,-3.738861084E-1,9.165863037E0,-4.087371826E-1
2.361759297E0,-3.613128662E-1,9.164627075E0,-4.225921631E-1
2.366733663E0,-3.338775635E-1,9.142791748E0,-4.251098633E-1
2.371708028E0,-3.424530029E-1,9.141006470E0,-4.415588379E-1
2.376682393E0,-3.224029541E-1,9.129119873E0,-4.363098145E-1
2.381656758E0,-2.948760986E-1,9.125228882E0,-4.463195801E-1
2.386631124E0,-3.164978027E-1,9.108627319E0,-4.377899170E-1
2.391605489E0,-2.955780029E-1,9.124588013E0,-4.756469727E-1
2.396579854E0,-3.013153076E-1,9.113098145E0,-4.701843262E-1
2.401554219E0,-3.185729980E-1,9.141494751E0,-4.875335693E-1
2.406528584E0,-3.495635986E-1,9.140701294E0,-4.815673828E-1
2.411502950E0,-3.650054932E-1,9.147689819E0,-4.584045410E-1
2.416477315E0,-3.576202393E-1,9.147384644E0,-4.326934814E-1
2.421451680E0,-3.552703857E-1,9.137802124E0,-4.105224609E-1
2.426426045E0,-3.459014893E-1,9.138504028E0,-4.031829834E-1
2.431400411E0,-3.354034424E-1,9.138046265E0,-3.986206055E-1
2.436374776E0,-3.393096924E-1,9.134841919E0,-3.876647949E-1
2.441349141E0,-3.392028809E-1,9.123519897E0,-3.928222656E-1
2.446323506E0,-3.423614502E-1,9.110977173E0,-4.220428467E-1
2.451297872E0,-3.489532471E-1,9.098419189E0,-4.396972656E-1
2.456272237E0,-3.448181152E-1,9.105285645E0,-4.456176758E-1
2.461246602E0,-3.554840088E-1,9.129882812E0,-4.733276367E-1
2.466220967E0,-3.674621582E-1,9.142578125E0,-5.127563477E-1
2.471195333E0,-3.636779785E-1,9.156051636E0,-4.857788086E-1
2.476169698E0,-3.897247314E-1,9.164855957E0,-4.887695312E-1
2.481144063E0,-3.979339600E-1,9.165740967E0,-5.056915283E-1
2.486118428E0,-4.053039551E-1,9.161071777E0,-4.790191650E-1
2.491092793E0,-3.961181641E-1,9.141937256E0,-4.659423828E-1
2.496067159E0,-4.010772705E-1,9.147323608E0,-4.497528076E-1
2.501041524E0,-3.785400391E-1,9.153518677E0,-4.208984375E-1
2.506015889E0,-3.840484619E-1,9.135879517E0,-4.032592773E-1
2.510990254E0,-3.515319824E-1,9.141265869E0,-3.977050781E-1
2.515964620E0,-3.584899902E-1,9.133575439E0,-3.849945068E-1
2.520938985E0,-3.749237061E-1,9.120971680E0,-3.658142090E-1
2.525913350E0,-3.902435303E-1,9.125656128E0,-3.631286621E-1
2.530887715E0,-3.907623291E-1,9.114562988E0,-3.586425781E-1
2.535862081E0,-3.991699219E-1,9.113662720E0,-3.563842773E-1
2.540836446E0,-4.004974365E-1,9.116302490E0,-3.600921631E-1
2.545810811E0,-3.836364746E-1,9.120590210E0,-3.726348877E-1
2.550785176E0,-3.832702637E-1,9.137252808E0,-3.851776123E-1
2.555759542E0,-3.887329102E-1,9.149841309E0,-3.865203857E-1
2.560733907E0,-4.024963379E-1,9.145187378E0,-3.969726562E-1
2.565708272E0,-3.987579346E-1,9.150939941E0,-4.071807861E-1
2.570682637E0,-3.920288086E-1,9.153778076E0,-4.186096191E-1
2.575657002E0,-3.725280762E-1,9.166183472E0,-4.187774658E-1
2.580631368E0,-3.564453125E-1,9.172500610E0,-4.469451904E-1
2.585605733E0,-3.161315918E-1,9.161407471E0,-4.357604980E-1
2.590580098E0,-2.879638672E-1,9.160873413E0,-4.307556152E-1
2.595554463E0,-2.663879395E-1,9.155395508E0,-4.594879150E-1
2.600528829E0,-2.629699707E-1,9.144714355E0,-5.005950928E-1
2.605503194E0,-2.672424316E-1,9.148208618E0,-5.104522705E-1
2.610477559E0,-2.400817871E-1,9.143676758E0,-5.198669434E-1
2.615451924E0,-2.212371826E-1,9.142425537E0,-4.916229248E-1
2.620426290E0,-2.160491943E-1,9.142715454E0,-4.947967529E-1
2.625400655E0,-1.967163086E-1,9.137680054E0,-4.730987549E-1
2.630375020E0,-1.898345947E-1,9.118911743E0,-4.482116699E-1
2.635349385E0,-2.008056641E-1,9.109497070E0,-4.234466553E-1
2.640323751E0,-1.898956299E-1,9.110412598E0,-4.183959961E-1
2.645298116E0,-1.768188477E-1,9.100372314E0,-4.174041748E-1
2.650272481E0,-1.728668213E-1,9.110809326E0,-4.111633301E-1
2.655246846E0,-1.725769043E-1,9.117065430E0,-4.064941406E-1
2.660221211E0,-1.632080078E-1,9.121276855E0,-4.098815918E-1
2.665195577E0,-1.662750244E-1,9.126281738E0,-3.823242188E-1
2.670169942E0,-1.666717529E-1,9.137100220E0,-3.787841797E-1
2.675144307E0,-1.621093750E-1,9.145568848E0,-3.945465088E-1
2.680118672E0,-1.679534912E-1,9.159652710E0,-3.751525879E-1
2.685093038E0,-1.708831787E-1,9.158660889E0,-3.524169922E-1
2.690067403E0,-1.854400635E-1,9.184875488E0,-3.751983643E-1
2.695041768E0,-1.967620850E-1,9.183898926E0,-3.470916748E-1
2.700016133E0,-1.921997070E-1,9.168869019E0,-3.535919189E-1
2.704990499E0,-2.278442383E-1,9.173812866E0,-3.495941162E-1
2.709964864E0,-2.151336670E-1,9.162765503E0,-3.379974365E-1
2.714939229E0,-2.314910889E-1,9.146469116E0,-3.316955566E-1
2.719913594E0,-2.548980713E-1,9.126419067E0,-3.204803467E-1
2.724887959E0,-2.890930176E-1,9.097808838E0,-3.132476807E-1
2.729862325E0,-2.916107178E-1,9.048614502E0,-3.482360840E-1
2.734836690E0,-2.995605469E-1,9.011932373E0,-3.740997314E-1
2.739811055E0,-3.302612305E-1,8.995773315E0,-3.933563232E-1
2.744785420E0,-3.740997314E-1,8.983612061E0,-4.035491943E-1
2.749759786E0,-4.214172363E-1,9.001663208E0,-4.204101562E-1
2.754734151E0,-4.647674561E-1,9.044601440E0,-4.373779297E-1
2.759708516E0,-5.092468262E-1,9.065490723E0,-4.659423828E-1
2.764682881E0,-5.552520752E-1,9.082077026E0,-4.957580566E-1
2.769657247E0,-5.926513672E-1,9.119369507E0,-5.002899170E-1
2.774631612E0,-6.482086182E-1,9.147827148E0,-5.099945068E-1
2.779605977E0,-7.021331787E-1,9.190277100E0,-4.620666504E-1
2.784580342E0,-7.387695312E-1,9.233032227E0,-4.771728516E-1
2.789554708E0,-7.715911865E-1,9.294952393E0,-4.304199219E-1
2.794529073E0,-7.881774902E-1,9.290847778E0,-3.944549561E-1
2.799503438E0,-8.287658691E-1,9.346603394E0,-3.417053223E-1
2.804477803E0,-8.195190430E-1,9.335891724E0,-2.769165039E-1
2.809452168E0,-7.749481201E-1,9.332275391E0,-2.734527588E-1
2.814426534E0,-7.548522949E-1,9.356552124E0,-2.677154541E-1
2.819400899E0,-7.362213135E-1,9.324630737E0,-2.719726562E-1
2.824375264E0,-7.102966309E-1,9.312927246E0,-2.987365723E-1
2.829349629E0,-6.825866699E-1,9.286819458E0,-3.222656250E-1
2.834323995E0,-6.725616455E-1,9.274230957E0,-3.172149658E-1
2.839298360E0,-6.567230225E-1,9.265121460E0,-3.310699463E-1
2.844272725E0,-6.332702637E-1,9.242736816E0,-3.397064209E-1
2.849247090E0,-6.052093506E-1,9.232299805E0,-3.489379883E-1
2.854221456E0,-5.687561035E-1,9.219635010E0,-3.385620117E-1
2.859195821E0,-5.200653076E-1,9.244979858E0,-3.200073242E-1
2.864170186E0,-4.811401367E-1,9.253723145E0,-2.960357666E-1
2.869144551E0,-4.573974609E-1,9.244323730E0,-2.760314941E-1
2.874118917E0,-4.352874756E-1,9.230255127E0,-2.604522705E-1
2.879093282E0,-3.955993652E-1,9.185333252E0,-2.368316650E-1
2.884067647E0,-3.911285400E-1,9.173324585E0,-2.139129639E-1
2.889042012E0,-3.320770264E-1,9.156387329E0,-2.197418213E-1
2.894016377E0,-3.045349121E-1,9.144088745E0,-1.969146729E-1
2.898990743E0,-2.936706543E-1,9.136184692E0,-1.606903076E-1
2.903965108E0,-3.018951416E-1,9.077896118E0,-1.392211914E-1
2.908939473E0,-3.099365234E-1,9.063140869E0,-1.087493896E-1
2.913913838E0,-3.064880371E-1,9.041412354E0,-8.117675781E-2
2.918888204E0,-3.292846680E-1,9.029983521E0,-7.872009277E-2
2.923862569E0,-3.417205811E-1,9.014144897E0,-9.223937988E-2
2.928836934E0,-3.454437256E-1,8.999313354E0,-1.046752930E-1
2.933811299E0,-3.357849121E-1,8.990325928E0,-1.172637939E-1
2.938785665E0,-3.466033936E-1,8.970062256E0,-1.168823242E-1
2.943760030E0,-3.603668213E-1,8.943801880E0,-1.347198486E-1
2.948734395E0,-3.690185547E-1,8.938827515E0,-1.494750977E-1
2.953708760E0,-3.735046387E-1,8.939285278E0,-1.519775391E-1
2.958683126E0,-3.874816895E-1,8.948226929E0,-1.659393311E-1
2.963657491E0,-4.040985107E-1,8.959808350E0,-1.913452148E-1
2.968631856E0,-4.359588623E-1,9.001647949E0,-1.964416504E-1
2.973606221E0,-4.796295166E-1,9.010604858E0,-1.859588623E-1
2.978580586E0,-5.312652588E-1,9.033462524E0,-1.945190430E-1
2.983554952E0,-5.841064453E-1,9.063385010E0,-2.182922363E-1
2.988529317E0,-6.342773438E-1,9.058197021E0,-2.081146240E-1
2.993503682E0,-6.722412109E-1,9.070861816E0,-2.410736084E-1
2.998478047E0,-7.075958252E-1,9.097534180E0,-2.328186035E-1
3.003452413E0,-7.200317383E-1,9.116256714E0,-2.431640625E-1
3.008426778E0,-7.630920410E-1,9.152465820E0,-2.463378906E-1
3.013401143E0,-7.765502930E-1,9.153808594E0,-2.729949951E-1
3.018375508E0,-7.847290039E-1,9.181747437E0,-2.583770752E-1
3.023349874E0,-8.281707764E-1,9.195983887E0,-2.717590332E-1
3.028324239E0,-8.343811035E-1,9.204025269E0,-2.459411621E-1
3.033298604E0,-8.448638916E-1,9.202987671E0,-2.108612061E-1
3.038272969E0,-8.682708740E-1,9.195877075E0,-1.809692383E-1
3.043247334E0,-8.896789551E-1,9.197250366E0,-1.635437012E-1
3.048221700E0,-9.184875488E-1,9.190124512E0,-1.513061523E-1
3.053196065E0,-9.159851074E-1,9.177078247E0,-1.522979736E-1
3.058170430E0,-9.144592285E-1,9.175308228E0,-1.479034424E-1
3.063144795E0,-9.018554688E-1,9.196243286E0,-1.519927979E-1
3.068119161E0,-9.072265625E-1,9.198410034E0,-1.421661377E-1
3.073093526E0,-8.886108398E-1,9.214645386E0,-1.622467041E-1
3.078067891E0,-8.525695801E-1,9.201568604E0,-1.587982178E-1
3.083042256E0,-8.526000977E-1,9.194793701E0,-1.554107666E-1
3.088016622E0,-8.482971191E-1,9.189788818E0,-1.738891602E-1
3.092990987E0,-8.025054932E-1,9.218383789E0,-2.027282715E-1
3.097965352E0,-7.940368652E-1,9.215591431E0,-1.876373291E-1
3.102939717E0,-7.739257812E-1,9.185562134E0,-1.759185791E-1
3.107914083E0,-7.534942627E-1,9.204742432E0,-1.817626953E-1
3.112888448E0,-7.270507812E-1,9.187103271E0,-1.659698486E-1
3.117862813E0,-6.914367676E-1,9.161743164E0,-1.850128174E-1
3.122837178E0,-6.829223633E-1,9.175445557E0,-1.870269775E-1
3.127811543E0,-6.840667725E-1,9.159164429E0,-1.992034912E-1
3.132785909E0,-6.585083008E-1,9.162185669E0,-1.705932617E-1
3.137760274E0,-6.543426514E-1,9.159317017E0,-1.031646729E-1
3.142734639E0,-6.308746338E-1,9.128067017E0,-5.906677246E-2
3.147709004E0,-5.939331055E-1,9.099838257E0,-4.109191895E-2
3.152683370E0,-5.796203613E-1,9.072418213E0,-3.945922852E-2
3.157657735E0,-5.746002197E-1,9.050903320E0,-2.926635742E-2
3.162632100E0,-5.592803955E-1,9.027236938E0,-8.209228516E-3
3.167606465E0,-5.244445801E-1,9.023452759E0,-1.127624512E-2
3.172580831E0,-5.330963135E-1,8.995330811E0,-2.575683594E-2
3.177555196E0,-5.102081299E-1,8.986602783E0,-2.635192871E-2
3.182529561E0,-4.533691406E-1,8.940231323E0,-1.506042480E-2
3.187503926E0,-4.161376953E-1,8.926757812E0,-4.881286621E-2
3.192478292E0,-4.001159668E-1,8.888092041E0,-3.588867188E-2
3.197452657E0,-3.481445312E-1,8.880447388E0,-5.836486816E-2
3.202427022E0,-2.377166748E-1,8.838470459E0,-8.070373535E-2
3.207401387E0,-1.728515625E-1,8.842712402E0,-1.246032715E-1
3.212375752E0,-1.240539551E-1,8.836074829E0,-1.966552734E-1
3.217350118E0,-8.126831055E-2,8.809692383E0,-3.049163818E-1
3.222324483E0,-4.008483887E-2,8.814941406E0,-4.234924316E-1
3.227298848E0,-1.200866699E-2,8.854339600E0,-4.849243164E-1
3.232273213E0,5.966186523E-3,8.915985107E0,-5.291442871E-1
3.237247579E0,5.705261230E-2,8.984420776E0,-5.561370850E-1
3.242221944E0,1.250457764E-1,9.021179199E0,-5.438690186E-1
3.247196309E0,1.936798096E-1,9.065307617E0,-5.641937256E-1
3.252170674E0,2.834014893E-1,9.116485596E0,-6.367340088E-1
3.257145040E0,3.590240479E-1,9.133804321E0,-7.099609375E-1
3.262119405E0,3.912506104E-1,9.139724731E0,-7.828674316E-1
3.267093770E0,3.778839111E-1,9.138153076E0,-8.037109375E-1
3.272068135E0,3.683166504E-1,9.113815308E0,-7.959594727E-1
3.277042501E0,3.756103516E-1,9.106246948E0,-8.454589844E-1
3.282016866E0,4.292144775E-1,9.099380493E0,-8.626556396E-1
3.286991231E0,5.125885010E-1,9.075729370E0,-9.647216797E-1
3.291965596E0,6.210021973E-1,9.082290649E0,-1.139678955E0
3.296939961E0,6.161346436E-1,9.131240845E0,-1.306701660E0
3.301914327E0,5.737304688E-1,9.159011841E0,-1.547332764E0
3.306888692E0,5.515289307E-1,9.204299927E0,-1.547683716E0
3.311863057E0,5.113830566E-1,9.231216431E0,-1.594024658E0
3.316837422E0,5.124206543E-1,9.287994385E0,-1.718368530E0
3.321811788E0,5.520019531E-1,9.301940918E0,-1.849365234E0
3.326786153E0,6.131591797E-1,9.272644043E0,-1.930648804E0
3.331760518E0,6.816101074E-1,9.236831665E0,-2.064300537E0
3.336734883E0,7.378692627E-1,9.194259644E0,-2.244628906E0
3.341709249E0,7.717437744E-1,9.151184082E0,-2.388275146E0
3.346683614E0,7.202606201E-1,9.135681152E0,-2.458953857E0
3.351657979E0,6.286163330E-1,9.138977051E0,-2.487808228E0
3.356632344E0,5.133514404E-1,9.130859375E0,-2.493774414E0
3.361606709E0,3.827819824E-1,9.123367310E0,-2.438217163E0
3.366581075E0,2.067871094E-1,9.135299683E0,-2.363494873E0
3.371555440E0,-2.171325684E-2,9.137481689E0,-2.298828125E0
3.376529805E0,-2.268676758E-1,9.143127441E0,-2.140365601E0
3.381504170E0,-3.303833008E-1,9.150680542E0,-1.965835571E0
3.386478536E0,-3.910522461E-1,9.155944824E0,-1.826477051E0
3.391452901E0,-4.174499512E-1,9.211196899E0,-1.727340698E0
3.396427266E0,-4.508972168E-1,9.225677490E0,-1.665451050E0
3.401401631E0,-4.843902588E-1,9.220291138E0,-1.580307007E0
3.406375997E0,-3.697814941E-1,9.151565552E0,-1.544738770E0
3.411350362E0,-1.556854248E-1,9.130325317E0,-1.523452759E0
3.416324727E0,5.691528320E-2,9.086166382E0,-1.577774048E0
3.421299092E0,1.981353760E-1,9.071304321E0,-1.672531128E0
3.426273458E0,2.961578369E-1,9.098098755E0,-1.812942505E0
3.431247823E0,3.593902588E-1,9.117294312E0,-1.930618286E0
3.436222188E0,3.902587891E-1,9.129577637E0,-2.024093628E0
3.441196553E0,3.487701416E-1,9.139312744E0,-2.103775024E0
3.446170918E0,2.777404785E-1,9.151779175E0,-2.215606689E0
3.451145284E0,2.326507568E-1,9.154739380E0,-2.327911377E0
3.456119649E0,1.684112549E-1,9.139953613E0,-2.398910522E0
3.461094014E0,1.665039062E-1,9.104156494E0,-2.441070557E0
3.466068379E0,1.499481201E-1,9.031204224E0,-2.490798950E0
3.471042745E0,8.689880371E-2,8.960830688E0,-2.457519531E0
3.476017110E0,-1.936340332E-2,8.935928345E0,-2.404983521E0
3.480991475E0,-1.307373047E-1,8.927230835E0,-2.378143311E0
3.485965840E0,-2.482147217E-1,8.921951294E0,-2.335205078E0
3.490940206E0,-4.021453857E-1,8.907409668E0,-2.256637573E0
3.495914571E0,-5.346221924E-1,8.865722656E0,-2.115020752E0
3.500888936E0,-6.063842773E-1,8.900360107E0,-1.986053467E0
3.505863301E0,-7.564697266E-1,8.877578735E0,-1.848266602E0
3.510837667E0,-7.964172363E-1,8.868728638E0,-1.700759888E0
3.515812032E0,-7.985839844E-1,8.846206665E0,-1.572875977E0
3.520786397E0,-7.959136963E-1,8.807418823E0,-1.502792358E0
3.525760762E0,-8.051452637E-1,8.794799805E0,-1.521774292E0
3.530735127E0,-7.959899902E-1,8.781723022E0,-1.554733276E0
3.535709493E0,-7.466888428E-1,8.771667480E0,-1.593536377E0
3.540683858E0,-6.709747314E-1,8.788528442E0,-1.647750854E0
3.545658223E0,-5.806121826E-1,8.795623779E0,-1.709442139E0
3.550632588E0,-4.608154297E-1,8.790069580E0,-1.793655396E0
3.555606954E0,-3.596343994E-1,8.791595459E0,-1.851608276E0
3.560581319E0,-3.336944580E-1,8.802291870E0,-1.883407593E0
3.565555684E0,-3.213958740E-1,8.827926636E0,-1.911788940E0
3.570530049E0,-3.414459229E-1,8.839294434E0,-1.950775146E0
3.575504415E0,-3.341064453E-1,8.864242554E0,-1.965408325E0
3.580478780E0,-3.016967773E-1,8.900741577E0,-2.004684448E0
3.585453145E0,-2.306671143E-1,8.837753296E0,-2.056686401E0
3.590427510E0,-2.520141602E-1,8.795333862E0,-2.090637207E0
3.595401876E0,-2.663879395E-1,8.742507935E0,-2.042404175E0
3.600376241E0,-2.583312988E-1,8.677581787E0,-2.009811401E0
3.605350606E0,-2.811584473E-1,8.653198242E0,-1.893585205E0
3.610324971E0,-3.419799805E-1,8.658706665E0,-1.789230347E0
3.615299336E0,-3.355407715E-1,8.630126953E0,-1.687118530E0
3.620273702E0,-3.180847168E-1,8.643386841E0,-1.633026123E0
3.625248067E0,-2.738952637E-1,8.652862549E0,-1.605285645E0
3.630222432E0,-2.369995117E-1,8.652175903E0,-1.605514526E0
3.635196797E0,-1.863250732E-1,8.665039062E0,-1.651977539E0
3.640171163E0,-1.712188721E-1,8.697357178E0,-1.706176758E0
3.645145528E0,-1.536254883E-1,8.713333130E0,-1.746109009E0
3.650119893E0,-1.585693359E-1,8.715255737E0,-1.755661011E0
3.655094258E0,-1.549835205E-1,8.719787598E0,-1.788436890E0
3.660068624E0,-1.373138428E-1,8.738555908E0,-1.842819214E0
3.665042989E0,-2.269134521E-1,8.715576172E0,-1.865905762E0
3.670017354E0,-2.675170898E-1,8.674026489E0,-1.898391724E0
3.674991719E0,-3.228607178E-1,8.611862183E0,-1.904800415E0
3.679966084E0,-3.085021973E-1,8.533782959E0,-1.818252563E0
3.684940450E0,-2.916564941E-1,8.564468384E0,-1.808502197E0
3.689914815E0,-2.906341553E-1,8.623840332E0,-1.879074097E0
3.694889180E0,-2.647247314E-1,8.756439209E0,-1.902679443E0
3.699863545E0,-1.969451904E-1,8.843994141E0,-1.938262939E0
3.704837911E0,-2.997894287E-1,8.862380981E0,-2.089508057E0
3.709812276E0,-4.588165283E-1,8.883804321E0,-2.336166382E0
3.714786641E0,-4.864501953E-1,8.882614136E0,-2.419662476E0
3.719761006E0,-3.951873779E-1,8.889556885E0,-2.371276855E0
3.724735372E0,-3.080596924E-1,8.890853882E0,-2.199386597E0
3.729709737E0,-4.818572998E-1,8.786544800E0,-2.106353760E0
3.734684102E0,-4.591369629E-1,8.846710205E0,-2.193389893E0
3.739658467E0,-2.456665039E-1,9.020675659E0,-2.228668213E0
3.744632833E0,-6.745910645E-2,9.150360107E0,-2.202163696E0
3.749607198E0,7.502746582E-2,9.235137939E0,-2.257125854E0
3.754581563E0,1.701812744E-1,9.334167480E0,-2.572814941E0
3.759555928E0,1.958923340E-1,9.358657837E0,-2.391098022E0
3.764530293E0,1.951141357E-1,9.393600464E0,-1.966003418E0
3.769504659E0,2.134704590E-1,9.442871094E0,-1.853256226E0
3.774479024E0,1.719818115E-1,9.509719849E0,-1.829757690E0
3.779453389E0,8.499145508E-2,9.532608032E0,-1.788162231E0
3.784427754E0,1.388549805E-2,9.549560547E0,-1.799896240E0
3.789402120E0,-7.736206055E-3,9.513916016E0,-1.796875000E0
3.794376485E0,3.323364258E-2,9.517379761E0,-1.791885376E0
3.799350850E0,7.777404785E-2,9.515625000E0,-1.793243408E0
3.804325215E0,1.180267334E-1,9.563430786E0,-1.859741211E0
3.809299581E0,1.767578125E-1,9.611984253E0,-1.982162476E0
3.814273946E0,2.201995850E-1,9.694625854E0,-2.238708496E0
3.819248311E0,2.093353271E-1,9.852264404E0,-2.758178711E0
3.824222676E0,9.178161621E-2,9.911712646E0,-2.810592651E0
3.829197042E0,-7.031250000E-2,1.004826355E1,-2.780715942E0
3.834171407E0,-1.979827881E-1,1.017532349E1,-3.057312012E0
3.839145772E0,-2.777404785E-1,1.028961182E1,-3.406814575E0
3.844120137E0,-2.594757080E-1,1.048013306E1,-3.636428833E0
3.849094502E0,-3.016510010E-1,1.075617981E1,-3.745605469E0
3.854068868E0,-6.579589844E-1,1.096112061E1,-3.756118774E0
3.859043233E0,-1.226577759E0,1.099072266E1,-3.576736450E0
3.864017598E0,-1.756149292E0,1.087733459E1,-3.206512451E0
3.868991963E0,-2.111846924E0,1.072662354E1,-2.763351440E0
3.873966329E0,-2.282119751E0,1.057565308E1,-2.230651855E0
3.878940694E0,-2.352661133E0,1.044395447E1,-1.521255493E0
3.883915059E0,-2.443130493E0,1.034185791E1,-7.528076172E-1
3.888889424E0,-2.612380981E0,1.021611023E1,-6.309509277E-2
3.893863790E0,-2.771286011E0,1.011975098E1,3.919830322E-1
3.898838155E0,-2.899810791E0,1.006362915E1,5.139770508E-1
3.903812520E0,-2.857604980E0,1.003930664E1,3.815612793E-1
3.908786885E0,-2.639160156E0,1.012225342E1,-2.316284180E-2
3.913761251E0,-2.228332520E0,1.039462280E1,-3.786926270E-1
3.918735616E0,-1.646896362E0,1.066117859E1,-4.557342529E-1
3.923709981E0,-1.076385498E0,1.092977905E1,-4.328765869E-1
3.928684346E0,-1.020874023E0,1.108631897E1,-8.478088379E-1
3.933658711E0,-1.050582886E0,1.111347961E1,-1.122406006E0
3.938633077E0,-9.855804443E-1,1.095622253E1,-1.101440430E0
3.943607442E0,-6.969604492E-1,1.070199585E1,-9.530487061E-1
3.948581807E0,-2.323913574E-2,1.042320251E1,-7.812500000E-1
3.953556172E0,8.663024902E-1,1.006587219E1,-6.601867676E-1
3.958530538E0,1.641815186E0,9.633636475E0,-6.558532715E-1
3.963504903E0,2.232833862E0,9.177612305E0,-7.314147949E-1
3.968479268E0,2.716888428E0,8.781158447E0,-8.738250732E-1
3.973453633E0,3.013931274E0,8.372085571E0,-1.071533203E0
3.978427999E0,3.159927368E0,7.964172363E0,-1.251647949E0
3.983402364E0,3.211166382E0,7.589416504E0,-1.376739502E0
3.988376729E0,3.085449219E0,7.339706421E0,-1.466995239E0
3.993351094E0,2.772186279E0,7.167724609E0,-1.456939697E0
3.998325459E0,2.127639771E0,7.011001587E0,-1.363861084E0
4.003299825E0,1.350830078E0,6.995361328E0,-1.250305176E0
4.008274190E0,8.300018311E-1,7.122680664E0,-1.072555542E0
4.013248555E0,4.868469238E-1,7.391876221E0,-9.994049072E-1
4.018222920E0,2.177276611E-1,7.656188965E0,-9.843902588E-1
4.023197286E0,-1.421813965E-1,8.002731323E0,-7.735595703E-1
4.028171651E0,-5.027770996E-1,8.463439941E0,-3.809967041E-1
4.033146016E0,-8.112030029E-1,9.113372803E0,-1.795959473E-2
4.038120381E0,-1.037399292E0,9.987915039E0,2.125244141E-1
4.043094747E0,-1.511306763E0,1.087770081E1,3.681488037E-1
4.048069112E0,-2.346405029E0,1.154042053E1,7.965393066E-1
4.053043477E0,-3.084014893E0,1.189836121E1,1.610992432E0
4.058017842E0,-3.266693115E0,1.203317261E1,2.404541016E0
4.062992208E0,-2.862091064E0,1.206532288E1,2.773895264E0
4.067966573E0,-2.385223389E0,1.201129150E1,2.840515137E0
4.072940938E0,-1.904998779E0,1.203343201E1,2.835372925E0
4.077915303E0,-1.449737549E0,1.205036926E1,2.459274292E0
4.082889668E0,-7.978363037E-1,1.166770935E1,2.373657227E0
4.087864034E0,-4.263610840E-1,1.130972290E1,1.803604126E0
4.092838399E0,-6.147155762E-1,1.079844666E1,7.796020508E-1
4.097812764E0,-7.699127197E-1,1.018318176E1,-8.198547363E-2
4.102787129E0,-1.453399658E0,9.475860596E0,-7.432403564E-1
4.107761495E0,-2.019012451E0,8.869293213E0,-1.153747559E0
4.112735860E0,-1.825637817E0,8.551223755E0,-1.867401123E0
4.117710225E0,-1.099243164E0,8.257934570E0,-2.246032715E0
4.122684590E0,-3.277587891E-1,8.048889160E0,-2.278991699E0
4.127658956E0,3.874206543E-2,7.834976196E0,-2.302413940E0
4.132633321E0,6.613159180E-2,7.744918823E0,-2.470489502E0
4.137607686E0,5.163574219E-2,7.746200562E0,-2.805603027E0
4.142582051E0,9.577941895E-2,7.771514893E0,-3.207214355E0
4.147556417E0,-4.086303711E-2,7.725250244E0,-3.523605347E0
4.152530782E0,-2.362976074E-1,7.729629517E0,-3.642257690E0
4.157505147E0,-2.310333252E-1,8.009994507E0,-3.458587646E0
4.162479512E0,-2.336578369E-1,8.418197632E0,-3.265411377E0
4.167453877E0,-5.374908447E-1,8.680557251E0,-3.225860596E0
4.172428243E0,-9.771118164E-1,8.703872681E0,-3.185684204E0
4.177402608E0,-1.246917725E0,8.682693481E0,-3.038513184E0
4.182376973E0,-1.323867798E0,8.690643311E0,-2.794982910E0
4.187351338E0,-1.286575317E0,8.633728027E0,-2.376312256E0
4.192325704E0,-1.156112671E0,8.499832153E0,-1.789672852E0
4.197300069E0,-1.050354004E0,8.402053833E0,-1.152496338E0
4.202274434E0,-9.535980225E-1,8.334640503E0,-6.217956543E-1
4.207248799E0,-8.613281250E-1,8.356048584E0,-1.606292725E-1
4.212223165E0,-7.324676514E-1,8.396560669E0,1.340942383E-1
4.217197530E0,-5.677795410E-1,8.489044189E0,2.286682129E-1
4.222171895E0,-4.264984131E-1,8.576354980E0,1.496582031E-1
4.227146260E0,-3.583831787E-1,8.611465454E0,-6.164550781E-2
4.232120626E0,-3.539581299E-1,8.636001587E0,-3.547668457E-1
4.237094991E0,-3.930664062E-1,8.622116089E0,-7.157440186E-1
4.242069356E0,-4.988098145E-1,8.554870605E0,-1.057250977E0
4.247043721E0,-6.612243652E-1,8.395462036E0,-1.367904663E0
4.252018086E0,-8.110656738E-1,8.180084229E0,-1.640594482E0
4.256992452E0,-9.284515381E-1,7.909805298E0,-1.848220825E0
4.261966817E0,-1.022689819E0,7.609481812E0,-1.995025635E0
4.266941182E0,-1.103378296E0,7.264160156E0,-2.065078735E0
4.271915547E0,-1.115859985E0,6.914199829E0,-2.076690674E0
4.276889913E0,-1.064300537E0,6.598922729E0,-2.015335083E0
4.281864278E0,-9.132690430E-1,6.275039673E0,-2.023498535E0
4.286838643E0,-8.516693115E-1,6.033706665E0,-2.037475586E0
4.291813008E0,-8.178558350E-1,6.012115479E0,-2.166610718E0
4.296787374E0,-6.996765137E-1,6.041809082E0,-2.211166382E0
4.301761739E0,-7.033081055E-1,5.983459473E0,-2.232391357E0
4.306736104E0,-8.123779297E-1,5.852630615E0,-2.268005371E0
4.311710469E0,-8.920898438E-1,5.695785522E0,-2.303680420E0
4.316684834E0,-9.645690918E-1,5.571456909E0,-2.315185547E0
4.321659200E0,-1.084579468E0,5.603530884E0,-2.381698608E0
4.326633565E0,-1.213562012E0,5.706100464E0,-2.679214478E0
4.331607930E0,-1.308364868E0,5.815414429E0,-3.116317749E0
4.336582295E0,-1.494964600E0,5.930541992E0,-3.594009399E0
4.341556661E0,-1.787399292E0,6.039031982E0,-4.049194336E0
4.346531026E0,-2.114639282E0,6.049407959E0,-4.258972168E0
4.351505391E0,-2.384826660E0,5.991546631E0,-4.215637207E0
4.356479756E0,-2.704772949E0,6.012130737E0,-4.093566895E0
4.361454122E0,-3.064559937E0,6.062362671E0,-4.021850586E0
4.366428487E0,-3.378005981E0,6.172088623E0,-3.943710327E0
4.371370008E0,-3.564926147E0,6.379928589E0,-3.795822144E0
4.376344373E0,-3.668106079E0,6.681686401E0,-3.574539185E0
4.381318739E0,-3.864974976E0,6.966262817E0,-3.196273804E0
4.386293104E0,-4.220840454E0,7.232727051E0,-2.707580566E0
4.391267469E0,-4.431381226E0,7.640579224E0,-2.151321411E0
4.396241834E0,-4.535552979E0,8.156906128E0,-1.594024658E0
4.401216199E0,-4.525405884E0,8.851409912E0,-1.256057739E0
4.406190565E0,-4.329711914E0,9.444107056E0,-1.148742676E0
4.411164930E0,-4.063934326E0,1.005287170E1,-1.348907471E0
4.416139295E0,-3.845977783E0,1.061354065E1,-1.784255981E0
4.421113660E0,-3.535339355E0,1.111584473E1,-2.330032349E0
4.426088026E0,-3.418685913E0,1.154537964E1,-3.126342773E0
4.431062391E0,-3.464828491E0,1.157188416E1,-3.758987427E0
4.436036756E0,-3.633605957E0,1.132405090E1,-4.290634155E0
4.441011121E0,-3.883514404E0,1.090179443E1,-4.797424316E0
4.445985487E0,-4.093063354E0,1.046966553E1,-5.226409912E0
4.450959852E0,-4.353836060E0,1.005462646E1,-5.403991699E0
4.455934217E0,-4.725082397E0,9.600494385E0,-5.238510132E0
4.460908582E0,-5.155120850E0,9.106948853E0,-4.781692505E0
4.465882948E0,-5.336517334E0,8.738250732E0,-4.066116333E0
4.470857313E0,-5.819915771E0,8.114120483E0,-3.392883301E0
4.475831678E0,-5.944091797E0,7.654083252E0,-2.864349365E0
4.480806043E0,-5.209854126E0,7.472686768E0,-2.500244141E0
4.485780408E0,-4.290924072E0,7.286071777E0,-2.205047607E0
4.490754774E0,-3.543136597E0,7.252212524E0,-1.786224365E0
4.495729139E0,-2.977081299E0,7.521331787E0,-9.206848145E-1
4.500703504E0,-2.112548828E0,8.494628906E0,5.160522461E-2
4.505677869E0,-7.845153809E-1,1.018435669E1,5.587768555E-1
4.510652235E0,6.223449707E-1,1.251490784E1,1.363830566E-1
4.515626600E0,1.476226807E0,1.509988403E1,-8.347015381E-1
4.520600965E0,1.712280273E0,1.776980591E1,-1.283401489E0
4.525575330E0,1.829742432E0,2.049198914E1,-6.660461426E-1
4.530549696E0,2.332626343E0,2.294436646E1,5.824737549E-1
4.535524061E0,3.147796631E0,2.426701355E1,1.529739380E0
4.540498426E0,4.195404053E0,2.352297974E1,8.138275146E-1
4.545472791E0,4.508224487E0,2.044296265E1,-1.468612671E0
4.550447157E0,2.985671997E0,1.615435791E1,-3.572326660E0
4.555421522E0,9.637451172E-1,1.227732849E1,-4.175781250E0
4.560395887E0,3.509521484E-3,9.595352173E0,-3.283493042E0
4.565370252E0,-2.533416748E-1,7.866836548E0,-1.768630981E0
4.570344617E0,-5.783691406E-1,6.756546021E0,-4.662170410E-1
4.575318983E0,-1.195968628E0,5.985275269E0,3.768768311E-1
4.580293348E0,-1.874877930E0,5.478408813E0,7.983398438E-1
4.585267713E0,-2.411300659E0,5.303558350E0,8.149261475E-1
4.590242078E0,-2.222442627E0,5.593673706E0,8.727416992E-1
4.595216444E0,-1.924926758E0,6.203430176E0,8.449554443E-1
4.600190809E0,-1.637634277E0,6.785171509E0,9.011993408E-1
4.605165174E0,-1.144073486E0,7.502609253E0,8.206481934E-1
4.610139539E0,-6.615447998E-1,7.951843262E0,6.694488525E-1
4.615113905E0,-3.834838867E-1,7.897064209E0,5.592498779E-1
4.620088270E0,1.173400879E-1,8.050674438E0,7.061767578E-1
4.625062635E0,1.033126831E0,8.648025513E0,8.946228027E-1
4.630037000E0,2.000411987E0,9.293182373E0,5.954437256E-1
4.635011365E0,2.707092285E0,9.853424072E0,-2.459716797E-2
4.639985731E0,3.045913696E0,1.022286987E1,-7.778015137E-1
4.644960096E0,3.119674683E0,1.028466797E1,-1.911285400E0
4.649934461E0,2.981582642E0,1.014585876E1,-3.194046021E0
4.654908826E0,3.018600464E0,9.956100464E0,-4.690292358E0
4.659883192E0,2.701629639E0,9.608627319E0,-6.067138672E0
4.664857557E0,2.205230713E0,9.124923706E0,-7.176605225E0
4.669831922E0,1.546401978E0,8.552886963E0,-7.739929199E0
4.674806287E0,5.154876709E-1,8.015884399E0,-7.216094971E0
4.679780653E0,-4.000549316E-1,7.627120972E0,-6.281967163E0
4.684755018E0,-1.166992188E0,7.183975220E0,-4.581832886E0
4.689729383E0,-1.381286621E0,7.114059448E0,-2.521240234E0
4.694703748E0,-1.327133179E0,7.317153931E0,-6.024475098E-1
4.699678114E0,-1.302932739E0,7.495712280E0,7.477264404E-1
4.704652479E0,-1.180755615E0,7.664642334E0,1.472656250E0
4.709626844E0,-9.320526123E-1,7.797683716E0,1.473144531E0
4.714601209E0,-7.818603516E-1,7.867111206E0,1.530548096E0
4.719575574E0,-7.202301025E-1,8.038345337E0,1.282302856E0
4.724549940E0,-5.240631104E-1,8.113769531E0,8.006896973E-1
4.729524305E0,-1.338653564E-1,8.246780396E0,1.707000732E-1
4.734498670E0,3.986663818E-1,8.502548218E0,-2.964935303E-1
4.739473035E0,8.129577637E-1,8.679199219E0,-7.353668213E-1
4.744447401E0,9.924468994E-1,8.718780518E0,-1.347473145E0
4.749421766E0,9.902038574E-1,8.654342651E0,-2.078964233E0
4.754396131E0,8.845672607E-1,8.565750122E0,-2.751052856E0
4.759370496E0,7.189483643E-1,8.520721436E0,-3.273635864E0
4.764344862E0,4.579620361E-1,8.525543213E0,-3.595275879E0
4.769319227E0,1.567535400E-1,8.523910522E0,-3.682113647E0
4.774293592E0,-1.984710693E-1,8.540924072E0,-3.543670654E0
4.779267957E0,-6.030273438E-1,8.545989990E0,-3.103820801E0
4.784242323E0,-1.041244507E0,8.599243164E0,-2.530258179E0
4.789216688E0,-1.330856323E0,8.621597290E0,-2.070159912E0
4.794191053E0,-1.541931152E0,8.676879883E0,-1.747940063E0
4.799165418E0,-1.597854614E0,8.683578491E0,-1.556121826E0
4.804139783E0,-1.616699219E0,8.653671265E0,-1.462188721E0
4.809114149E0,-1.606460571E0,8.653991699E0,-1.435119629E0
4.814088514E0,-1.492324829E0,8.652923584E0,-1.386199951E0
4.819062879E0,-1.394042969E0,8.621032715E0,-1.418640137E0
4.824037244E0,-1.339050293E0,8.550994873E0,-1.606262207E0
4.829011610E0,-1.208374023E0,8.509216309E0,-1.840240479E0
4.833985975E0,-1.089141846E0,8.446731567E0,-2.078765869E0
4.838960340E0,-1.052902222E0,8.352600098E0,-2.292404175E0
4.843934705E0,-1.110610962E0,8.277755737E0,-2.410446167E0
4.848909071E0,-1.204147339E0,8.202331543E0,-2.477966309E0
4.853883436E0,-9.975891113E-1,8.053375244E0,-2.455368042E0
4.858857801E0,-7.072601318E-1,7.861358643E0,-2.379150391E0
4.863832166E0,-6.206207275E-1,7.710357666E0,-2.302368164E0
4.868806532E0,-6.293640137E-1,7.616149902E0,-2.246276855E0
4.873780897E0,-6.744232178E-1,7.605392456E0,-2.212188721E0
4.878755262E0,-7.527313232E-1,7.594161987E0,-2.243484497E0
4.883729627E0,-8.465881348E-1,7.561859131E0,-2.331130981E0
4.888703992E0,-8.266143799E-1,7.539962769E0,-2.331161499E0
4.893678358E0,-6.936798096E-1,7.524627686E0,-2.339630127E0
4.898652723E0,-3.936157227E-1,7.601821899E0,-2.227233887E0
4.903627088E0,-1.996002197E-1,7.740219116E0,-2.133407593E0
4.908601453E0,1.232910156E-2,7.878204346E0,-2.191177368E0
4.913575819E0,8.158874512E-2,8.013778687E0,-2.242904663E0
4.918550184E0,4.367065430E-2,8.160278320E0,-2.193695068E0
4.923524549E0,-3.176879883E-2,8.321609497E0,-2.203735352E0
4.928498914E0,-1.737670898E-1,8.451889038E0,-2.223022461E0
4.933473280E0,-3.054656982E-1,8.580322266E0,-2.274917603E0
4.938447645E0,-4.431457520E-1,8.647064209E0,-2.327514648E0
4.943422010E0,-5.569458008E-1,8.701065063E0,-2.367126465E0
4.948396375E0,-7.048492432E-1,8.703765869E0,-2.429824829E0
4.953370740E0,-8.793792725E-1,8.635360718E0,-2.496627808E0
4.958345106E0,-9.903259277E-1,8.534393311E0,-2.527114868E0
4.963319471E0,-1.042953491E0,8.413894653E0,-2.491989136E0
4.968293836E0,-1.045974731E0,8.289657593E0,-2.354583740E0
4.973268201E0,-9.660186768E-1,8.124938965E0,-2.212448120E0
4.978242567E0,-8.358917236E-1,7.962875366E0,-2.145080566E0
4.983216932E0,-6.643066406E-1,7.773269653E0,-2.163589478E0
4.988191297E0,-5.187530518E-1,7.539459229E0,-2.209548950E0
4.993165662E0,-3.475494385E-1,7.302734375E0,-2.303985596E0
4.998140028E0,-2.376403809E-1,7.025283813E0,-2.369247437E0
5.003114393E0,-8.885192871E-2,6.830230713E0,-2.405838013E0
5.008088758E0,5.723571777E-2,6.688354492E0,-2.446884155E0
5.013063123E0,1.369171143E-1,6.583114624E0,-2.386535645E0
5.018037489E0,1.673126221E-1,6.640808105E0,-2.380142212E0
5.023011854E0,1.994934082E-1,6.841445923E0,-2.425125122E0
5.027986219E0,1.356964111E-1,7.133636475E0,-2.481613159E0
5.032960584E0,-1.107788086E-1,7.557159424E0,-2.634613037E0
5.037934949E0,-5.665893555E-1,8.085571289E0,-2.755004883E0
5.042909315E0,-1.061828613E0,8.652160645E0,-2.817733765E0
5.047883680E0,-1.495925903E0,9.207107544E0,-2.926132202E0
5.052858045E0,-1.852096558E0,9.630783081E0,-3.131057739E0
5.057832410E0,-2.067062378E0,9.893554688E0,-3.165725708E0
5.062806776E0,-2.078872681E0,1.002954102E1,-2.971588135E0
5.067781141E0,-1.892044067E0,1.008462524E1,-2.855606079E0
5.072755506E0,-1.551269531E0,1.000228882E1,-2.843673706E0
5.077729871E0,-1.187545776E0,9.803939819E0,-2.817321777E0
5.082704237E0,-6.826019287E-1,9.501281738E0,-2.682891846E0
5.087678602E0,-1.774291992E-1,9.256179810E0,-2.570846558E0
5.092652967E0,-1.814880371E-1,9.137939453E0,-2.689773560E0
5.097627332E0,-6.609039307E-1,8.991333008E0,-2.923065186E0
5.102601698E0,-9.669647217E-1,8.624572754E0,-2.846862793E0
5.107576063E0,-7.066955566E-1,8.295318604E0,-2.446243286E0
5.112550428E0,-5.813598633E-2,8.236114502E0,-1.988143921E0
5.117524793E0,3.699951172E-1,8.439941406E0,-1.478713989E0
5.122499158E0,3.073883057E-1,8.808197021E0,-1.037139893E0
5.127473524E0,-2.618713379E-1,9.268615723E0,-6.888732910E-1
5.132447889E0,-8.800659180E-1,9.603668213E0,-6.504364014E-1
5.137422254E0,-1.221969604E0,9.809951782E0,-9.474182129E-1
5.142396619E0,-9.631805420E-1,1.002020264E1,-1.301239014E0
5.147370985E0,-3.102416992E-1,1.028359985E1,-1.511642456E0
5.152345350E0,4.025268555E-1,1.051513672E1,-1.609512329E0
5.157319715E0,1.106231689E0,1.064059448E1,-1.544036865E0
5.162294080E0,1.701568604E0,1.063786316E1,-1.349533081E0
5.167268446E0,2.216201782E0,1.053713989E1,-1.206802368E0
5.172242811E0,2.607467651E0,1.034739685E1,-1.102920532E0
5.177217176E0,2.896835327E0,1.012001038E1,-1.057632446E0
5.182191541E0,3.132507324E0,9.959075928E0,-1.185150146E0
5.187165907E0,3.307250977E0,9.808929443E0,-1.383148193E0
5.192140272E0,3.603546143E0,9.703659058E0,-1.609817505E0
5.197114637E0,4.136093140E0,9.838119507E0,-2.004898071E0
5.202089002E0,4.234710693E0,1.071437073E1,-1.498809814E0
5.207063367E0,2.060333252E0,1.239764404E1,-3.367614746E-1
5.212037733E0,1.744369507E0,1.370344543E1,-1.959228516E-2
5.217012098E0,1.221633911E0,1.452995300E1,-2.992858887E-1
5.221986463E0,9.042358398E-2,1.515339661E1,-5.355377197E-1
5.226960828E0,-1.056823730E0,1.562879944E1,-3.369445801E-1
5.231935194E0,-2.181961060E0,1.581767273E1,9.992980957E-2
5.236909559E0,-3.276870728E0,1.565794373E1,6.468200684E-1
5.241883924E0,-4.288192749E0,1.531628418E1,1.388442993E0
5.246858289E0,-5.260528564E0,1.480680847E1,2.128707886E0
5.251832655E0,-5.865447998E0,1.424353027E1,2.828292847E0
5.256807020E0,-6.002777100E0,1.365370178E1,3.288024902E0
5.261781385E0,-5.810928345E0,1.297569275E1,3.153411865E0
5.266755750E0,-5.503555298E0,1.236610413E1,2.623794556E0
5.271730115E0,-5.534835815E0,1.170141602E1,1.926452637E0
5.276704481E0,-6.242538452E0,1.111875916E1,1.558029175E0
5.281678846E0,-6.285568237E0,1.045251465E1,1.319839478E0
5.286653211E0,-4.803970337E0,1.000898743E1,6.350555420E-1
5.291627576E0,-3.390167236E0,9.611175537E0,-3.021240234E-1
5.296601942E0,-2.281463623E0,9.151382446E0,-7.391052246E-1
5.301576307E0,-1.528778076E0,8.691757202E0,-9.698791504E-1
5.306550672E0,-8.507843018E-1,8.256393433E0,-1.429534912E0
5.311525037E0,-4.435424805E-1,7.986007690E0,-2.253662109E0
5.316499403E0,-4.590606689E-1,7.817184448E0,-2.551620483E0
5.321473768E0,-7.420959473E-1,7.600830078E0,-2.488403320E0
5.326448133E0,-7.796936035E-1,7.244171143E0,-2.407928467E0
5.331422498E0,-3.458557129E-1,7.027648926E0,-2.695877075E0
5.336396864E0,4.528808594E-1,6.967590332E0,-3.290130615E0
5.341371229E0,1.269638062E0,7.075363159E0,-3.703399658E0
5.346345594E0,1.479598999E0,7.366439819E0,-3.535644531E0
5.351319959E0,1.068145752E0,7.768295288E0,-3.225708008E0
5.356294324E0,7.339630127E-1,8.179443359E0,-3.360290527E0
5.361268690E0,6.505126953E-1,8.397705078E0,-3.571350098E0
5.366243055E0,4.257507324E-1,8.389541626E0,-3.532073975E0
5.371217420E0,1.362152100E-1,8.214462280E0,-3.073638916E0
5.376191785E0,-7.032775879E-2,7.898696899E0,-2.096847534E0
5.381166151E0,-1.165008545E-1,7.587860107E0,-1.069534302E0
5.386140516E0,-8.850097656E-2,7.308868408E0,-3.538208008E-1
5.391114881E0,1.882934570E-2,7.142700195E0,-4.974365234E-3
5.396089246E0,6.324768066E-2,7.029617310E0,1.644134521E-1
5.401063612E0,2.316284180E-2,7.038162231E0,1.076660156E-1
5.406037977E0,-9.739685059E-2,7.094589233E0,-2.468872070E-2
5.411012342E0,-2.207641602E-1,7.156433105E0,-8.990478516E-2
5.415986707E0,-3.672637939E-1,7.175369263E0,-1.275482178E-1
5.420961073E0,-4.718933105E-1,7.173965454E0,-1.167449951E-1
5.425935438E0,-5.775909424E-1,7.154785156E0,-8.526611328E-2
5.430909803E0,-6.655120850E-1,7.127838135E0,-5.633544922E-2
5.435884168E0,-7.046966553E-1,7.118728638E0,-1.185150146E-1
5.440858533E0,-7.217254639E-1,7.094665527E0,-2.873229980E-1
5.445832899E0,-7.621002197E-1,7.020523071E0,-5.896606445E-1
5.450807264E0,-8.361053467E-1,6.927459717E0,-9.989013672E-1
5.455781629E0,-8.669128418E-1,6.796218872E0,-1.428543091E0
5.460755994E0,-8.255767822E-1,6.622039795E0,-1.852279663E0
5.465730360E0,-7.409057617E-1,6.421844482E0,-2.261886597E0
5.470704725E0,-7.379302979E-1,6.268234253E0,-2.676666260E0
5.475679090E0,-7.738189697E-1,6.154205322E0,-3.042724609E0
5.480653455E0,-8.687896729E-1,6.149551392E0,-3.356140137E0
5.485627821E0,-9.410858154E-1,6.190994263E0,-3.547592163E0
5.490602186E0,-1.030914307E0,6.191787720E0,-3.636322021E0
5.495576551E0,-1.133407593E0,6.229003906E0,-3.592300415E0
5.500550916E0,-1.330657959E0,6.249572754E0,-3.431442261E0
5.505525282E0,-1.387542725E0,6.272628784E0,-3.213729858E0
5.510499647E0,-1.544250488E0,6.308395386E0,-3.034271240E0
5.515474012E0,-1.815353394E0,6.390670776E0,-2.939193726E0
5.520448377E0,-2.140365601E0,6.531234741E0,-2.957092285E0
5.525422742E0,-2.364166260E0,6.741348267E0,-3.110946655E0
5.530397108E0,-2.714721680E0,6.875335693E0,-3.420654297E0
5.535371473E0,-3.040847778E0,6.971115112E0,-3.748443604E0
5.540345838E0,-3.285934448E0,7.043426514E0,-3.870681763E0
5.545320203E0,-3.495681763E0,7.184722900E0,-3.768981934E0
5.550294569E0,-3.767959595E0,7.318679810E0,-3.595962524E0
5.555268934E0,-4.070358276E0,7.303573608E0,-3.411315918E0
5.560243299E0,-4.245452881E0,7.208618164E0,-3.189468384E0
5.565217664E0,-4.297302246E0,7.097183228E0,-3.052871704E0
5.570192030E0,-4.302322388E0,7.034698486E0,-2.934768677E0
5.575166395E0,-4.252838135E0,7.176055908E0,-2.779388428E0
5.580140760E0,-4.325744629E0,7.473297119E0,-2.734390259E0
5.585115125E0,-4.654815674E0,7.795379639E0,-2.765899658E0
5.590089490E0,-5.071502686E0,8.109024048E0,-2.677825928E0
5.595063856E0,-5.494232178E0,8.458389282E0,-2.569854736E0
5.600038221E0,-5.560180664E0,8.854537964E0,-2.356704712E0
5.605012586E0,-5.488204956E0,9.235153198E0,-2.175811768E0
5.609986951E0,-5.462997437E0,9.530380249E0,-2.194686890E0
5.614961317E0,-5.478073120E0,9.614837646E0,-2.502151489E0
5.619935682E0,-5.484771729E0,9.571929932E0,-2.783752441E0
5.624910047E0,-5.346572876E0,9.537811279E0,-3.099838257E0
5.629884412E0,-4.906158447E0,9.493621826E0,-3.404144287E0
5.634858778E0,-4.068161011E0,9.539474487E0,-3.702819824E0
5.639833143E0,-3.051559448E0,9.671310425E0,-4.009613037E0
5.644807508E0,-2.263900757E0,9.847915649E0,-4.288589478E0
5.649781873E0,-1.865676880E0,9.980758667E0,-4.555328369E0
5.654756239E0,-1.987915039E0,9.709350586E0,-4.656173706E0
5.659730604E0,-2.504882812E0,9.010177612E0,-4.579544067E0
5.664704969E0,-2.919860840E0,8.035980225E0,-4.385543823E0
5.669679334E0,-2.928512573E0,7.233688354E0,-4.094436646E0
5.674653699E0,-2.693069458E0,6.665969849E0,-3.729003906E0
5.679628065E0,-2.521026611E0,6.171981812E0,-3.273437500E0
5.684602430E0,-2.334259033E0,6.019775391E0,-2.410202026E0
5.689576795E0,-1.777175903E0,6.689559937E0,-9.103698730E-1
5.694551160E0,-4.458618164E-1,8.395477295E0,4.751586914E-1
5.699525526E0,8.368377686E-1,1.088845825E1,9.855804443E-1
5.704499891E0,1.047927856E0,1.403884888E1,2.788391113E-1
5.709474256E0,2.104339600E-1,1.777503967E1,-8.251953125E-1
5.714448621E0,2.291412354E-1,2.188719177E1,-1.664413452E0
5.719422987E0,1.067062378E0,2.558862305E1,-1.314331055E0
5.724397352E0,1.994674683E0,2.798774719E1,2.546691895E-2
5.729371717E0,2.857162476E0,2.725491333E1,7.111663818E-1
5.734346082E0,2.694747925E0,2.226972961E1,-4.369964600E-1
5.739320448E0,1.791564941E0,1.619377136E1,-1.626312256E0
5.744294813E0,8.409576416E-1,1.146649170E1,-1.447601318E0
5.749269178E0,-2.326202393E-1,8.404617310E0,-2.722015381E-1
5.754243543E0,-7.906036377E-1,6.755416870E0,1.114059448E0
5.759217908E0,-9.402923584E-1,5.966613770E0,2.069030762E0
5.764192274E0,-1.348297119E0,5.508102417E0,2.196990967E0
5.769166639E0,-1.927856445E0,5.347625732E0,1.482925415E0
5.774141004E0,-1.991714478E0,5.500106812E0,4.381408691E-1
5.779115369E0,-1.424362183E0,5.836242676E0,-2.800598145E-1
5.784089735E0,-1.032806396E0,5.996704102E0,-6.241302490E-1
5.789064100E0,-1.106124878E0,6.278015137E0,-6.841583252E-1
5.794038465E0,-1.431564331E0,6.920898438E0,-6.750335693E-1
5.799012830E0,-1.556472778E0,7.496871948E0,-1.027114868E0
5.803987196E0,-1.161254883E0,8.114456177E0,-1.147628784E0
5.808961561E0,-5.935668945E-1,8.875808716E0,-8.388214111E-1
5.813935926E0,-8.346557617E-2,9.601531982E0,-6.149749756E-1
5.818910291E0,2.480621338E-1,1.027458191E1,-5.545959473E-1
5.823884657E0,7.518768311E-1,1.072935486E1,-5.502777100E-1
5.828859022E0,1.396194458E0,1.096824646E1,-9.313354492E-1
5.833833387E0,2.013046265E0,1.089094543E1,-2.086868286E0
5.838807752E0,2.601089478E0,1.064978027E1,-3.652435303E0
5.843782117E0,2.995788574E0,1.031660461E1,-5.162338257E0
5.848756483E0,3.114059448E0,9.943679810E0,-6.300476074E0
5.853730848E0,2.989227295E0,9.653518677E0,-7.041397095E0
5.858705213E0,2.670120239E0,9.366973877E0,-7.354598999E0
5.863679578E0,1.976348877E0,9.033691406E0,-6.905715942E0
5.868653944E0,9.920349121E-1,8.779861450E0,-5.663818359E0
5.873628309E0,2.070770264E-1,8.837921143E0,-3.949066162E0
5.878602674E0,-4.705810547E-1,9.037002563E0,-2.454254150E0
5.883577039E0,-9.029235840E-1,8.975311279E0,-7.912445068E-1
5.888551405E0,-1.035812378E0,8.862457275E0,1.374511719E-1
5.893525770E0,-8.400573730E-1,8.675201416E0,4.628448486E-1
5.898500135E0,-6.663055420E-1,8.490966797E0,4.094543457E-1
5.903474500E0,-6.107788086E-1,8.095397949E0,3.220977783E-1
5.908448865E0,-4.114379883E-1,7.892440796E0,3.675537109E-1
5.913423231E0,-2.754669189E-1,7.755889893E0,1.361694336E-1
5.918397596E0,-1.877441406E-1,7.608963013E0,-1.825256348E-1
5.923371961E0,-1.171569824E-1,7.480590820E0,-6.015014648E-1
5.928346326E0,-6.915283203E-2,7.282043457E0,-9.473876953E-1
5.933320692E0,-4.145812988E-2,7.076492310E0,-1.175811768E0
5.938295057E0,2.044677734E-3,6.914840698E0,-1.289749146E0
5.943269422E0,4.994201660E-2,6.827911377E0,-1.382308960E0
5.948243787E0,4.324340820E-2,6.807571411E0,-1.553161621E0
5.953218153E0,4.814147949E-2,6.858428955E0,-1.824356079E0
5.958192518E0,4.257202148E-2,6.971511841E0,-2.120620728E0
5.963166883E0,-5.027770996E-2,7.125198364E0,-2.364120483E0
5.968141248E0,-2.077941895E-1,7.297119141E0,-2.541366577E0
5.973115614E0,-3.699645996E-1,7.467163086E0,-2.692016602E0
5.978089979E0,-4.953765869E-1,7.669174194E0,-2.822616577E0
5.983064344E0,-6.453704834E-1,7.848403931E0,-2.863342285E0
5.988038709E0,-7.352294922E-1,7.998077393E0,-2.782623291E0
5.993013074E0,-6.779022217E-1,8.093048096E0,-2.719223022E0
5.997987440E0,-6.097106934E-1,8.197723389E0,-2.651794434E0
6.002961805E0,-6.173400879E-1,8.230789185E0,-2.500183105E0
6.007936170E0,-5.873870850E-1,8.241088867E0,-2.363601685E0
6.012910535E0,-5.724945068E-1,8.176116943E0,-2.178894043E0
6.017884901E0,-6.545867920E-1,8.130096436E0,-2.112991333E0
6.022859266E0,-7.965240479E-1,8.099792480E0,-2.189666748E0
6.027833631E0,-9.511718750E-1,8.095458984E0,-2.221664429E0
6.032807996E0,-1.033157349E0,8.083312988E0,-2.177825928E0
6.037782362E0,-9.091491699E-1,8.023742676E0,-2.115966797E0
6.042756727E0,-7.144165039E-1,7.907897949E0,-2.199508667E0
6.047731092E0,-7.524566650E-1,7.786773682E0,-2.448715210E0
6.052705457E0,-9.648437500E-1,7.683746338E0,-2.626312256E0
6.057679823E0,-1.227828979E0,7.589859009E0,-2.739685059E0
6.062654188E0,-1.392028809E0,7.578689575E0,-2.774993896E0
6.067628553E0,-1.500869751E0,7.583831787E0,-2.688781738E0
6.072602918E0,-1.533142090E0,7.633850098E0,-2.522491455E0
6.077577283E0,-1.495086670E0,7.778854370E0,-2.377105713E0
6.082551649E0,-1.406982422E0,7.937255859E0,-2.341491699E0
6.087526014E0,-1.315200806E0,8.029815674E0,-2.257415771E0
6.092500379E0,-1.231796265E0,8.221084595E0,-2.124252319E0
6.097474744E0,-1.303665161E0,8.375701904E0,-2.025802612E0
6.102449110E0,-1.265991211E0,8.533340454E0,-1.989532471E0
6.107423475E0,-1.233413696E0,8.663833618E0,-1.961425781E0
6.112397840E0,-1.178604126E0,8.759567261E0,-2.003112793E0
6.117372205E0,-1.161849976E0,8.830505371E0,-2.174102783E0
6.122346571E0,-1.158157349E0,8.835311890E0,-2.383010864E0
6.127320936E0,-1.180389404E0,8.811355591E0,-2.516525269E0
6.132295301E0,-1.167449951E0,8.761749268E0,-2.559692383E0
6.137269666E0,-1.110473633E0,8.635375977E0,-2.609939575E0
6.142244032E0,-1.090209961E0,8.431945801E0,-2.607543945E0
6.147218397E0,-1.087173462E0,8.114456177E0,-2.602279663E0
6.152192762E0,-9.456481934E-1,7.705551147E0,-2.574539185E0
6.157167127E0,-6.607513428E-1,7.344024658E0,-2.542358398E0
6.162141492E0,-3.624572754E-1,7.021667480E0,-2.547851562E0
6.167115858E0,-1.176605225E-1,6.720504761E0,-2.551147461E0
6.172090223E0,7.490539551E-2,6.495666504E0,-2.464324951E0
6.177064588E0,2.274017334E-1,6.400253296E0,-2.386505127E0
6.182038953E0,2.415008545E-1,6.452957153E0,-2.399124146E0
6.187013319E0,2.401733398E-2,6.693374634E0,-2.494781494E0
6.191987684E0,-5.727691650E-1,7.122970581E0,-2.631866455E0
6.196962049E0,-1.390121460E0,7.640640259E0,-3.128662109E0
6.201936414E0,-2.102325439E0,8.144302368E0,-3.297378540E0
6.206910780E0,-2.566024780E0,8.544342041E0,-3.232788086E0
6.211885145E0,-2.549148560E0,8.898056030E0,-3.395431519E0
6.216859510E0,-2.345809937E0,9.119659424E0,-3.532089233E0
6.221833875E0,-1.771408081E0,9.214584351E0,-3.728729248E0
6.226808240E0,-1.325714111E0,9.343521118E0,-3.954650879E0
6.231782606E0,-1.007705688E0,9.428482056E0,-4.216171265E0
6.236756971E0,-6.303863525E-1,9.442428589E0,-4.481872559E0
6.241731336E0,-2.969055176E-1,9.326293945E0,-4.632827759E0
6.246705701E0,5.255126953E-2,9.096176147E0,-4.438858032E0
6.251680067E0,3.338165283E-1,8.884155273E0,-4.028625488E0
6.256654432E0,1.690063477E-1,8.718566895E0,-3.835266113E0
6.261628797E0,-2.329559326E-1,8.572158813E0,-3.755844116E0
6.266603162E0,-2.925262451E-1,8.449020386E0,-3.574447632E0
6.271577528E0,-8.184814453E-2,8.436859131E0,-3.234802246E0
6.276551893E0,-2.467346191E-2,8.631393433E0,-2.765625000E0
6.281526258E0,-2.826232910E-1,9.022216797E0,-2.123931885E0
6.286500623E0,-7.111663818E-1,9.502120972E0,-1.472930908E0
6.291474989E0,-1.284347534E0,9.973068237E0,-8.813629150E-1
6.296449354E0,-1.826187134E0,1.029570007E1,-4.275665283E-1
6.301423719E0,-1.925125122E0,1.047940063E1,-1.136779785E-1
6.306398084E0,-1.530273438E0,1.067506409E1,-4.548645020E-2
6.311372449E0,-8.254241943E-1,1.084567261E1,-3.974914551E-2
6.316346815E0,-6.825256348E-2,1.088841248E1,3.433227539E-2
6.321321180E0,7.160186768E-1,1.089262390E1,1.327514648E-2
6.326295545E0,1.420089722E0,1.078500366E1,2.082824707E-2
6.331269910E0,2.069839478E0,1.060052490E1,5.545043945E-2
6.336244276E0,2.373260498E0,1.028330994E1,1.442718506E-1
6.341218641E0,2.507919312E0,9.938400269E0,1.748809814E-1
6.346193006E0,2.635589600E0,9.712402344E0,1.556396484E-2
6.351167371E0,2.850875854E0,9.700027466E0,-3.157958984E-1
6.356141737E0,3.141479492E0,9.852066040E0,-6.947174072E-1
6.361116102E0,3.599548340E0,1.024111938E1,-1.109436035E0
6.366090467E0,4.337432861E0,1.084623718E1,-1.554763794E0
6.371064832E0,3.782562256E0,1.212387085E1,-1.234329224E0
6.376039198E0,1.948425293E0,1.381568909E1,-3.804779053E-1
6.381013563E0,9.137725830E-1,1.499252319E1,-4.676818848E-1
6.385987928E0,-3.338775635E-1,1.551356506E1,-1.088348389E0
6.390962293E0,-1.538833618E0,1.560810852E1,-1.636474609E0
6.395936658E0,-2.300338745E0,1.548318481E1,-1.539245605E0
6.400911024E0,-3.247283936E0,1.519065857E1,-1.203308105E0
6.405885389E0,-3.873870850E0,1.476960754E1,-8.188171387E-1
6.410859754E0,-4.377258301E0,1.433561707E1,-5.119018555E-1
6.415834119E0,-4.905685425E0,1.392158508E1,1.831054688E-2
6.420808485E0,-5.340179443E0,1.354684448E1,1.014419556E0
6.425782850E0,-5.855178833E0,1.311064148E1,2.229171753E0
6.430757215E0,-6.339691162E0,1.250703430E1,3.453506470E0
6.435731580E0,-6.620422363E0,1.170945740E1,4.286926270E0
6.440705946E0,-6.389175415E0,1.104510498E1,4.258285522E0
6.445680311E0,-5.401077271E0,1.035076904E1,3.005599976E0
6.450654676E0,-4.349868774E0,9.535064697E0,1.510757446E0
6.455629041E0,-3.543182373E0,8.757049561E0,5.840301514E-1
6.460603407E0,-2.976501465E0,8.190536499E0,1.264801025E-1
6.465577772E0,-2.309082031E0,7.748168945E0,-2.750549316E-1
6.470552137E0,-1.636581421E0,7.475326538E0,-8.061828613E-1
6.475526502E0,-1.371643066E0,7.291320801E0,-1.012145996E0
6.480500867E0,-1.499786377E0,6.884368896E0,-1.448837280E0
6.485475233E0,-1.671951294E0,6.496948242E0,-2.378524780E0
6.490449598E0,-1.818420410E0,6.313247681E0,-3.163635254E0
6.495423963E0,-1.833892822E0,6.351684570E0,-3.531723022E0
6.500398328E0,-1.685638428E0,6.698730469E0,-3.694229126E0
6.505372694E0,-1.262512207E0,7.107849121E0,-3.925933838E0
6.510347059E0,-6.027221680E-1,7.296661377E0,-4.185089111E0
6.515321424E0,-1.008758545E-1,7.439956665E0,-4.104507446E0
6.520295789E0,1.367187500E-1,7.570205688E0,-3.419052124E0
6.525270155E0,-2.004394531E-1,7.640975952E0,-2.974014282E0
6.530244520E0,-6.154632568E-1,7.667739868E0,-3.009384155E0
6.535218885E0,-7.963714600E-1,7.655288696E0,-3.071228027E0
6.540193250E0,-6.543426514E-1,7.670684814E0,-3.049118042E0
6.545167615E0,-3.071594238E-1,7.633544922E0,-2.806945801E0
6.550141981E0,-1.626129150E-1,7.485977173E0,-2.390151978E0
6.555116346E0,-2.372131348E-1,7.344940186E0,-2.011383057E0
6.560090711E0,-3.633728027E-1,7.264389038E0,-1.743118286E0
6.565065076E0,-4.997253418E-1,7.205642700E0,-1.582504272E0
6.570039442E0,-6.738586426E-1,7.185211182E0,-1.459747314E0
6.575013807E0,-8.658447266E-1,7.211105347E0,-1.341766357E0
6.579988172E0,-1.019104004E0,7.290618896E0,-1.205139160E0
6.584962537E0,-1.189422607E0,7.407363892E0,-1.078521729E0
6.589936903E0,-1.284835815E0,7.504974365E0,-1.012863159E0
6.594911268E0,-1.351837158E0,7.622863770E0,-1.022872925E0
6.599885633E0,-1.388717651E0,7.667572021E0,-1.061874390E0
6.604859998E0,-1.410949707E0,7.655487061E0,-1.099304199E0
6.609834364E0,-1.422668457E0,7.643264771E0,-1.143386841E0
6.614808729E0,-1.420776367E0,7.604354858E0,-1.287750244E0
6.619783094E0,-1.379562378E0,7.529235840E0,-1.482559204E0
6.624757459E0,-1.273880005E0,7.399307251E0,-1.750762939E0
6.629731824E0,-1.128189087E0,7.276870728E0,-2.089965820E0
6.634706190E0,-9.811553955E-1,7.155166626E0,-2.483688354E0
6.639680555E0,-8.046264648E-1,7.062973022E0,-2.860366821E0
6.644654920E0,-6.115112305E-1,6.985183716E0,-3.083618164E0
6.649629285E0,-4.886322021E-1,6.889297485E0,-3.181427002E0
6.654603651E0,-4.883728027E-1,6.788223267E0,-3.128875732E0
6.659578016E0,-6.376342773E-1,6.663848877E0,-2.972045898E0
6.664552381E0,-8.477325439E-1,6.649536133E0,-2.844528198E0
6.669526746E0,-1.021850586E0,6.650939941E0,-2.850814819E0
6.674501112E0,-1.232604980E0,6.519241333E0,-3.061172485E0
6.679475477E0,-1.435867310E0,6.470550537E0,-3.363067627E0
6.684449842E0,-1.592727661E0,6.279586792E0,-3.537902832E0
6.689424207E0,-1.779113770E0,6.163436890E0,-3.646942139E0
6.694398573E0,-2.071350098E0,6.262847900E0,-3.794876099E0
6.699372938E0,-2.312057495E0,6.371963501E0,-4.163314819E0
6.704347303E0,-2.547363281E0,6.363815308E0,-4.470733643E0
6.709321668E0,-2.721481323E0,6.368133545E0,-4.568725586E0
6.714296033E0,-2.981735229E0,6.400421143E0,-4.400100708E0
6.719270399E0,-3.173416138E0,6.504882812E0,-3.986511230E0
6.724244764E0,-3.272155762E0,6.745208740E0,-3.452102661E0
6.729219129E0,-3.449859619E0,7.076202393E0,-2.864318848E0
6.734193494E0,-3.698806763E0,7.401428223E0,-2.275283813E0
6.739167860E0,-4.069931030E0,7.819198608E0,-1.835540771E0
6.744142225E0,-4.274627686E0,8.582550049E0,-1.578231812E0
6.749116590E0,-4.167846680E0,9.603851318E0,-1.405059814E0
6.754090955E0,-3.897338867E0,1.059202576E1,-1.287338257E0
6.759065321E0,-3.518630981E0,1.137275696E1,-1.321166992E0
6.764039686E0,-3.139251709E0,1.190641785E1,-1.661758423E0
6.769014051E0,-2.994918823E0,1.198712158E1,-2.272552490E0
6.773988416E0,-3.040786743E0,1.164982605E1,-3.076568604E0
6.778962782E0,-2.902755737E0,1.119705200E1,-3.900360107E0
6.783937147E0,-2.702804565E0,1.065942383E1,-4.565780640E0
6.788911512E0,-2.763946533E0,1.001765442E1,-4.978820801E0
6.793885877E0,-3.223602295E0,9.278549194E0,-5.362365723E0
6.798860242E0,-4.041473389E0,8.477050781E0,-5.604217529E0
6.803834608E0,-5.105300903E0,7.793899536E0,-5.739700317E0
6.808808973E0,-5.925292969E0,7.253784180E0,-5.724243164E0
6.813783338E0,-6.069213867E0,7.140869141E0,-5.626937866E0
6.818757703E0,-5.665100098E0,7.390563965E0,-5.173965454E0
6.823732069E0,-5.317108154E0,7.669372559E0,-4.418106079E0
6.828706434E0,-4.953811646E0,8.189682007E0,-3.078262329E0
6.833680799E0,-4.029403687E0,9.320373535E0,-1.393188477E0
6.838655164E0,-2.508865356E0,1.107524109E1,-1.689147949E-1
6.843629530E0,-1.161331177E0,1.323704529E1,1.238098145E-1
6.848603895E0,-6.815948486E-1,1.570692444E1,-2.218475342E-1
6.853578260E0,-7.602233887E-1,1.843670654E1,-7.271728516E-1
6.858552625E0,-5.388183594E-1,2.097270203E1,-9.336242676E-1
6.863526990E0,-2.488708496E-2,2.260598755E1,-8.401184082E-1
6.868501356E0,7.459869385E-1,2.247586060E1,-7.588653564E-1
6.873475721E0,1.664108276E0,1.989259338E1,-1.046905518E0
6.878450086E0,2.464279175E0,1.612498474E1,-1.221969604E0
6.883424451E0,2.842742920E0,1.283111572E1,-1.037246704E0
6.888398817E0,2.299270630E0,1.030766296E1,-6.572723389E-1
6.893373182E0,9.491882324E-1,8.100051880E0,-4.340972900E-1
6.898347547E0,-4.002380371E-1,6.245101929E0,-3.397064209E-1
6.903321912E0,-1.147033691E0,5.291015625E0,-5.454101562E-1
6.908296278E0,-8.733215332E-1,5.403289795E0,-5.569305420E-1
6.913270643E0,-6.620178223E-1,5.843170166E0,-6.543579102E-1
6.918245008E0,-1.144409180E0,6.145324707E0,-9.387207031E-1
6.923219373E0,-1.762039185E0,6.290084839E0,-1.093261719E0
6.928193739E0,-1.968902588E0,6.513870239E0,-9.631195068E-1
6.933168104E0,-2.032470703E0,6.846832275E0,-7.913818359E-1
6.938142469E0,-1.913619995E0,7.311386108E0,-3.824768066E-1
6.943116834E0,-1.616302490E0,7.901718140E0,6.657409668E-2
6.948091199E0,-1.281280518E0,8.447906494E0,5.719299316E-1
6.953065565E0,-1.008636475E0,8.951614380E0,1.626953125E0
6.958039930E0,-6.072845459E-1,9.576553345E0,2.551223755E0
6.963014295E0,7.461547852E-3,1.028680420E1,2.726959229E0
6.967988660E0,5.395355225E-1,1.100355530E1,2.281936646E0
6.972963026E0,9.938049316E-1,1.147760010E1,1.426559448E0
6.977937391E0,1.639724731E0,1.166694641E1,1.188354492E-1
6.982911756E0,2.089004517E0,1.166188049E1,-1.287414551E0
6.987886121E0,2.256179810E0,1.135224915E1,-3.134948730E0
6.992860487E0,2.415832520E0,1.068850708E1,-5.446029663E0
6.997834852E0,2.319595337E0,9.760574341E0,-7.799835205E0
7.002809217E0,1.720535278E0,8.754348755E0,-9.217575073E0
7.007783582E0,1.028564453E0,8.000411987E0,-9.427795410E0
7.012757948E0,1.639862061E-1,7.459320068E0,-8.781677246E0
7.017732313E0,-7.642517090E-1,7.173049927E0,-6.927932739E0
7.022706678E0,-1.394317627E0,7.184844971E0,-4.746383667E0
7.027681043E0,-1.589477539E0,7.033493042E0,-2.787948608E0
7.032655408E0,-1.620635986E0,6.828018188E0,-1.089706421E0
7.037629774E0,-1.478713989E0,6.637069702E0,7.238769531E-2
7.042604139E0,-1.362991333E0,6.558959961E0,7.195587158E-1
7.047578504E0,-1.326736450E0,6.592102051E0,1.190200806E0
7.052552869E0,-1.179763794E0,6.846527100E0,1.049758911E0
7.057527235E0,-9.241790771E-1,7.204391479E0,6.689453125E-1
7.062501600E0,-6.067199707E-1,7.512893677E0,1.936950684E-1
7.067475965E0,-2.938079834E-1,7.715072632E0,-3.249664307E-1
7.072450330E0,2.104187012E-2,7.831848145E0,-9.860839844E-1
7.077424696E0,3.032073975E-1,7.934692383E0,-1.543685913E0
7.082399061E0,4.653320312E-1,8.069747925E0,-2.128784180E0
7.087373426E0,5.037994385E-1,8.172103882E0,-2.757141113E0
7.092347791E0,4.175109863E-1,8.336059570E0,-3.140838623E0
7.097322157E0,3.578033447E-1,8.523529053E0,-3.257125854E0
7.102296522E0,2.173004150E-1,8.748153687E0,-3.152603149E0
7.107270887E0,-6.953430176E-2,8.935745239E0,-3.009140015E0
7.112245252E0,-4.393310547E-1,9.047988892E0,-2.775527954E0
7.117219617E0,-7.926025391E-1,9.038131714E0,-2.520263672E0
7.122193983E0,-1.163269043E0,8.982284546E0,-2.348480225E0
7.127168348E0,-1.381393433E0,8.847854614E0,-2.237991333E0
7.132142713E0,-1.518249512E0,8.686325073E0,-2.101379395E0
7.137117078E0,-1.604278564E0,8.498901367E0,-1.975082397E0
7.142091444E0,-1.671508789E0,8.332443237E0,-1.960067749E0
7.147065809E0,-1.800613403E0,8.192306519E0,-2.032546997E0
7.152040174E0,-1.938934326E0,8.084457397E0,-1.908782959E0
7.157014539E0,-1.949996948E0,8.048919678E0,-1.743026733E0
7.161988905E0,-1.840530396E0,8.075347900E0,-1.774932861E0
7.166963270E0,-1.787857056E0,8.088973999E0,-1.907089233E0
7.171937635E0,-1.819503784E0,8.108963013E0,-1.974655151E0
7.176912000E0,-1.858917236E0,8.197738647E0,-1.970901489E0
7.181886365E0,-1.512420654E0,8.174087524E0,-1.972305298E0
7.186860731E0,-9.973907471E-1,8.005020142E0,-2.097137451E0
7.191835096E0,-8.920593262E-1,7.854187012E0,-2.246353149E0
7.196809461E0,-1.098541260E0,7.754425049E0,-2.454833984E0
7.201783826E0,-1.294433594E0,7.704010010E0,-2.649780273E0
7.206758192E0,-1.405120850E0,7.781875610E0,-2.769287109E0
7.211732557E0,-1.442031860E0,7.872482300E0,-2.797103882E0
7.216706922E0,-1.414291382E0,7.947021484E0,-2.840026855E0
7.221681287E0,-1.359451294E0,8.034225464E0,-2.795532227E0
7.226655653E0,-1.328140259E0,8.057205200E0,-2.787414551E0
7.231630018E0,-1.304885864E0,8.065429688E0,-2.762115479E0
7.236604383E0,-1.289520264E0,8.082031250E0,-2.668045044E0
7.241578748E0,-1.217407227E0,8.121520996E0,-2.557952881E0
7.246553114E0,-1.121261597E0,8.188217163E0,-2.451065063E0
7.251527479E0,-1.007202148E0,8.278289795E0,-2.280090332E0
7.256501844E0,-9.058685303E-1,8.376419067E0,-2.167480469E0
7.261476209E0,-8.527679443E-1,8.445983887E0,-2.191833496E0
7.266450574E0,-8.700256348E-1,8.449356079E0,-2.204895020E0
7.271424940E0,-9.640808105E-1,8.442352295E0,-2.183441162E0
7.276399305E0,-1.105422974E0,8.400497437E0,-2.153564453E0
7.281373670E0,-1.117965698E0,8.344161987E0,-2.230468750E0
7.286348035E0,-1.097335815E0,8.248748779E0,-2.416305542E0
7.291322401E0,-1.147888184E0,8.077011108E0,-2.481643677E0
7.296296766E0,-1.116363525E0,7.878707886E0,-2.521682739E0
7.301271131E0,-1.026367188E0,7.658584595E0,-2.550109863E0
7.306245496E0,-9.718322754E-1,7.393051147E0,-2.540084839E0
7.311219862E0,-8.839569092E-1,7.141937256E0,-2.648010254E0
7.316194227E0,-7.775268555E-1,6.877929688E0,-2.751815796E0
7.321168592E0,-7.089538574E-1,6.679656982E0,-2.821014404E0
7.326142957E0,-6.566925049E-1,6.517135620E0,-2.759170532E0
7.331117323E0,-7.167663574E-1,6.369033813E0,-2.676681519E0
7.336091688E0,-7.828369141E-1,6.293472290E0,-2.598052979E0
7.341066053E0,-8.458404541E-1,6.295959473E0,-2.491027832E0
7.346040418E0,-9.927673340E-1,6.430679321E0,-2.418670654E0
7.351014783E0,-1.271926880E0,6.753219604E0,-2.349227905E0
7.355989149E0,-1.753204346E0,7.242538452E0,-2.382415771E0
7.360963514E0,-2.276275635E0,7.812591553E0,-2.510574341E0
7.365937879E0,-2.615478516E0,8.424118042E0,-2.827178955E0
7.370912244E0,-2.768051147E0,8.922286987E0,-3.265899658E0
7.375886610E0,-2.643447876E0,9.314865112E0,-3.269042969E0
7.380860975E0,-2.217224121E0,9.701721191E0,-3.136764526E0
7.385835340E0,-1.626052856E0,9.964309692E0,-3.150619507E0
7.390809705E0,-1.081466675E0,1.021867371E1,-3.200531006E0
7.395784071E0,-5.550079346E-1,1.041293335E1,-3.300109863E0
7.400758436E0,-2.857055664E-1,1.052761841E1,-3.323013306E0
7.405732801E0,-6.617736816E-2,1.045182800E1,-3.212890625E0
7.410707166E0,4.605102539E-1,1.024369812E1,-3.060516357E0
7.415681532E0,8.578338623E-1,9.894378662E0,-3.109146118E0
7.420655897E0,6.243438721E-1,9.530303955E0,-3.227005005E0
7.425630262E0,1.892395020E-1,9.237518311E0,-3.127899170E0
7.430604627E0,1.689605713E-1,8.935913086E0,-2.672958374E0
7.435578992E0,6.078338623E-1,8.695266724E0,-2.081390381E0
7.440553358E0,1.119644165E0,8.606353760E0,-1.580505371E0
7.445527723E0,1.271423340E0,8.706115723E0,-1.146789551E0
7.450502088E0,9.192352295E-1,8.898666382E0,-6.654205322E-1
7.455476453E0,2.554779053E-1,9.092620850E0,-2.044525146E-1
7.460450819E0,-4.183654785E-1,9.176727295E0,-1.020812988E-2
7.465425184E0,-7.695617676E-1,9.175933838E0,-1.318054199E-1
7.470399549E0,-6.090393066E-1,9.189773560E0,-4.671325684E-1
7.475373914E0,-6.828308105E-2,9.294326782E0,-9.105987549E-1
7.480348280E0,6.068572998E-1,9.474411011E0,-1.344482422E0
7.485322645E0,1.208786011E0,9.670394897E0,-1.590713501E0
7.490297010E0,1.630798340E0,9.837493896E0,-1.622360229E0
7.495271375E0,1.861892700E0,9.969833374E0,-1.522705078E0
7.500245740E0,2.069488525E0,9.988555908E0,-1.373077393E0
7.505220106E0,2.224426270E0,9.934783936E0,-1.249298096E0
7.510194471E0,1.976318359E0,9.854232788E0,-1.152725220E0
7.515168836E0,1.756469727E0,9.742645264E0,-1.108108521E0
7.520143201E0,1.692810059E0,9.703903198E0,-1.040161133E0
7.525117567E0,1.945358276E0,9.930862427E0,-1.052993774E0
7.530091932E0,2.469757080E0,1.033453369E1,-1.192077637E0
7.535066297E0,2.845626831E0,1.085192871E1,-1.143051147E0
7.540040662E0,1.878204346E0,1.189286804E1,-4.295501709E-1
7.545015028E0,2.839508057E-1,1.317617798E1,2.769317627E-1
7.549989393E0,-4.305267334E-1,1.402037048E1,4.617309570E-1
7.554963758E0,-1.361312866E0,1.441604614E1,4.396514893E-1
7.559938123E0,-2.335815430E0,1.452618408E1,3.365631104E-1
7.564912489E0,-3.083618164E0,1.445939636E1,2.447357178E-1
7.569886854E0,-3.698394775E0,1.419453430E1,2.028961182E-1
7.574861219E0,-4.133804321E0,1.385815430E1,2.595520020E-1
7.579835584E0,-4.779067993E0,1.339787292E1,5.435180664E-1
7.584809949E0,-5.606994629E0,1.293942261E1,1.105529785E0
7.589784315E0,-6.213333130E0,1.257891846E1,1.757827759E0
7.594758680E0,-6.668289185E0,1.219503784E1,2.246109009E0
7.599733045E0,-6.712661743E0,1.177258301E1,2.359466553E0
7.604707410E0,-6.276596069E0,1.142153931E1,2.197204590E0
7.609681776E0,-5.632034302E0,1.096235657E1,2.027008057E0
7.614656141E0,-5.135177612E0,1.020283508E1,1.796829224E0
7.619630506E0,-4.257171631E0,9.378005981E0,9.761810303E-1
7.624604871E0,-2.980087280E0,8.734329224E0,1.222839355E-1
7.629579237E0,-1.820739746E0,8.080642700E0,-9.448547363E-1
7.634553602E0,-1.330902100E0,7.472915649E0,-1.768966675E0
7.639527967E0,-9.757995605E-1,7.140899658E0,-2.405639648E0
7.644502332E0,-6.976623535E-1,6.944641113E0,-2.659179688E0
7.649476698E0,-4.154357910E-1,6.741622925E0,-2.521560669E0
7.654451063E0,-3.713989258E-1,6.621414185E0,-2.444702148E0
7.659425428E0,-4.884338379E-1,6.617446899E0,-2.666412354E0
7.664399793E0,-2.575988770E-1,6.938476562E0,-3.029800415E0
7.669374158E0,3.226318359E-1,7.609680176E0,-3.376358032E0
7.674348524E0,7.043914795E-1,8.122451782E0,-3.468368530E0
7.679322889E0,7.171325684E-1,8.310287476E0,-3.294525146E0
7.684297254E0,5.531005859E-1,8.428192139E0,-3.238113403E0
7.689271619E0,3.189849854E-1,8.573471069E0,-3.130432129E0
7.694245985E0,-1.870727539E-2,8.643920898E0,-2.851562500E0
7.699220350E0,-3.249816895E-1,8.635086060E0,-2.475997925E0
7.704194715E0,-6.672821045E-1,8.562194824E0,-2.043411255E0
7.709169080E0,-8.118743896E-1,8.474670410E0,-1.686935425E0
7.714143446E0,-7.195281982E-1,8.371032715E0,-1.253402710E0
7.719117811E0,-7.533721924E-1,8.130920410E0,-8.414306641E-1
7.724092176E0,-8.103637695E-1,7.953521729E0,-6.247100830E-1
7.729066541E0,-8.751831055E-1,7.894500732E0,-5.656433105E-1
7.734040907E0,-9.459075928E-1,7.866867065E0,-5.972595215E-1
7.739015272E0,-1.091964722E0,7.818435669E0,-6.465301514E-1
7.743989637E0,-1.354003906E0,7.755889893E0,-7.060699463E-1
7.748964002E0,-1.604522705E0,7.710968018E0,-7.797698975E-1
7.753938367E0,-1.798110962E0,7.641510010E0,-8.443756104E-1
7.758912733E0,-1.964141846E0,7.528732300E0,-8.932342529E-1
7.763887098E0,-2.095779419E0,7.407958984E0,-9.769439697E-1
7.768861463E0,-2.201278687E0,7.255355835E0,-1.093414307E0
7.773835828E0,-2.278396606E0,7.068786621E0,-1.243942261E0
7.778810194E0,-2.279708862E0,6.868927002E0,-1.447631836E0
7.783784559E0,-2.199630737E0,6.696334839E0,-1.771835327E0
7.788758924E0,-2.126296997E0,6.529571533E0,-2.155639648E0
7.793733289E0,-2.105621338E0,6.472717285E0,-2.618621826E0
7.798707655E0,-2.054473877E0,6.509872437E0,-3.023849487E0
7.803682020E0,-1.913864136E0,6.502593994E0,-3.361968994E0
7.808656385E0,-1.751464844E0,6.496643066E0,-3.549224854E0
7.813630750E0,-1.739761353E0,6.524978638E0,-3.609390259E0
7.818605115E0,-1.883468628E0,6.539978027E0,-3.484588623E0
7.823579481E0,-1.983062744E0,6.595230103E0,-3.318252563E0
7.828553846E0,-1.973052979E0,6.678863525E0,-3.237197876E0
7.833528211E0,-2.175018311E0,6.690261841E0,-3.288696289E0
7.838502576E0,-2.482803345E0,6.726470947E0,-3.483062744E0
7.843476942E0,-2.385803223E0,6.839828491E0,-3.712341309E0
7.848451307E0,-2.485549927E0,6.827911377E0,-3.922714233E0
7.853425672E0,-2.773483276E0,6.787475586E0,-4.085632324E0
7.858400037E0,-3.078247070E0,6.714752197E0,-4.177276611E0
7.863374403E0,-3.280731201E0,6.551162720E0,-4.120391846E0
7.868348768E0,-3.419372559E0,6.372619629E0,-3.940383911E0
7.873323133E0,-3.556289673E0,6.169174194E0,-3.671035767E0
7.878297498E0,-3.709365845E0,5.920059204E0,-3.289459229E0
7.883271864E0,-3.911560059E0,5.755813599E0,-2.930603027E0
7.888246229E0,-4.102737427E0,5.653289795E0,-2.654937744E0
7.893220594E0,-4.216323853E0,5.615280151E0,-2.476577759E0
7.898194959E0,-4.280929565E0,5.695785522E0,-2.405441284E0
7.903169324E0,-4.141616821E0,5.888748169E0,-2.359313965E0
7.908143690E0,-3.904067993E0,6.389709473E0,-2.358032227E0
7.913118055E0,-3.868453979E0,7.245010376E0,-2.478942871E0
7.918092420E0,-4.051696777E0,8.304595947E0,-2.815841675E0
7.923066785E0,-4.034652710E0,9.313858032E0,-3.330307007E0
7.928041151E0,-3.581893921E0,1.029180908E1,-3.824584961E0
7.933015516E0,-2.994216919E0,1.115347290E1,-4.150863647E0
7.937989881E0,-2.451156616E0,1.174505615E1,-4.249374390E0
7.942964246E0,-1.882476807E0,1.198841858E1,-4.276229858E0
7.947938612E0,-1.406829834E0,1.186114502E1,-4.356536865E0
7.952912977E0,-1.178451538E0,1.146578979E1,-4.404907227E0
7.957887342E0,-1.076583862E0,1.093696594E1,-4.473190308E0
7.962861707E0,-1.084701538E0,1.026200867E1,-4.707321167E0
7.967836073E0,-1.438430786E0,9.529769897E0,-5.070755005E0
7.972810438E0,-2.327529907E0,8.725097656E0,-5.375534058E0
7.977784803E0,-3.049453735E0,8.250061035E0,-5.338562012E0
7.982759168E0,-3.582977295E0,8.686355591E0,-4.536529541E0
7.987733533E0,-3.774734497E0,9.941787720E0,-3.321243286E0
7.992707899E0,-3.061065674E0,1.162960815E1,-2.263504028E0
7.997682264E0,-2.254104614E0,1.351208496E1,-1.739395142E0
8.002656629E0,-1.730804443E0,1.576626587E1,-1.511077881E0
8.007630994E0,-1.577911377E0,1.855619812E1,-1.346740723E0
8.012605360E0,-1.186660767E0,2.126585388E1,-9.420471191E-1
8.017579725E0,-7.870330811E-1,2.302603149E1,-4.084167480E-1
8.022554090E0,-1.336822510E-1,2.341842651E1,1.003112793E-1
8.027528455E0,8.647003174E-1,2.199035645E1,1.208648682E-1
8.032502821E0,1.766891479E0,1.848052979E1,-3.329925537E-1
8.037477186E0,2.518402100E0,1.403703308E1,-1.050018311E0
8.042451551E0,2.401824951E0,9.896957397E0,-1.630996704E0
8.047425916E0,1.104202271E0,6.696685791E0,-1.894378662E0
8.052400282E0,-4.550781250E-1,4.792449951E0,-1.580505371E0
8.057374647E0,-1.384033203E0,3.469497681E0,-5.186004639E-1
8.062349012E0,-1.473648071E0,2.494674683E0,9.790344238E-1
8.067323377E0,-1.310150146E0,2.457778931E0,2.222503662E0
8.072297742E0,-1.825592041E0,3.229370117E0,2.443603516E0
8.077272108E0,-3.006118774E0,4.175170898E0,1.706237793E0
8.082246473E0,-3.808624268E0,5.245681763E0,7.130279541E-1
8.087220838E0,-3.784011841E0,6.315490723E0,-2.168273926E-2
8.092195203E0,-3.156127930E0,7.489761353E0,-3.691253662E-1
8.097169569E0,-2.554336548E0,8.581558228E0,-4.018859863E-1
8.102143934E0,-1.811843872E0,9.350845337E0,-2.268676758E-1
8.107118299E0,-9.421691895E-1,9.887069702E0,1.489257812E-2
8.112092664E0,-8.560180664E-2,1.072590637E1,1.170196533E-1
8.117067030E0,8.220977783E-1,1.173660278E1,1.180114746E-1
8.122041395E0,1.427185059E0,1.258604431E1,-1.332092285E-1
8.127015760E0,1.945022583E0,1.328866577E1,-6.904907227E-1
8.131990125E0,2.237976074E0,1.371134949E1,-1.569549561E0
8.136964490E0,2.188491821E0,1.362139893E1,-2.907073975E0
8.141938856E0,1.990615845E0,1.301838684E1,-4.605087280E0
8.146913221E0,1.565963745E0,1.193391418E1,-6.437942505E0
8.151887586E0,1.083099365E0,1.054162598E1,-7.985687256E0
8.156861951E0,6.971435547E-1,9.191879272E0,-8.632736206E0
8.161836317E0,3.594970703E-1,8.098678589E0,-8.396301270E0
8.166810682E0,-2.245330811E-1,7.313720703E0,-7.303085327E0
8.171785047E0,-1.175628662E0,6.912155151E0,-5.458114624E0
8.176759412E0,-2.248641968E0,6.739654541E0,-3.191314697E0
8.181733778E0,-2.884704590E0,6.830825806E0,-9.307098389E-1
8.186708143E0,-2.785842896E0,7.086242676E0,9.128112793E-1
8.191682508E0,-2.257385254E0,7.417663574E0,1.936309814E0
8.196656873E0,-1.720748901E0,7.551773071E0,2.335494995E0
8.201631239E0,-1.544174194E0,7.590255737E0,2.118865967E0
8.206605604E0,-1.420684814E0,7.600494385E0,1.448135376E0
8.211579969E0,-1.191268921E0,7.580215454E0,6.731414795E-1
8.216554334E0,-8.565521240E-1,7.537597656E0,-1.645965576E-1
8.221528699E0,-2.113800049E-1,7.681655884E0,-8.704681396E-1
8.226503065E0,4.416503906E-1,7.930297852E0,-1.426437378E0
8.231477430E0,9.373931885E-1,8.083374023E0,-1.989868164E0
8.236451795E0,1.176071167E0,8.128372192E0,-2.566650391E0
8.241426160E0,1.181961060E0,8.098678589E0,-3.146682739E0
8.246400526E0,9.521636963E-1,8.054016113E0,-3.621917725E0
8.251374891E0,6.331787109E-1,8.010421753E0,-4.067184448E0
8.256349256E0,9.861755371E-2,7.951492310E0,-4.186996460E0
8.261323621E0,-6.430511475E-1,7.974411011E0,-3.992340088E0
8.266297987E0,-1.152511597E0,8.122772217E0,-3.532745361E0
8.271272352E0,-1.414825439E0,8.313491821E0,-2.966232300E0
8.276246717E0,-1.519714355E0,8.459533691E0,-2.425109863E0
8.281221082E0,-1.708648682E0,8.502410889E0,-2.067779541E0
8.286195448E0,-1.876541138E0,8.493743896E0,-1.774795532E0
8.291169813E0,-1.981430054E0,8.458114624E0,-1.603118896E0
8.296144178E0,-1.981353760E0,8.379135132E0,-1.525375366E0
8.301118543E0,-1.961685181E0,8.298202515E0,-1.585403442E0
8.306092908E0,-1.970199585E0,8.205490112E0,-1.706634521E0
8.311067274E0,-1.937133789E0,8.088363647E0,-1.848709106E0
8.316041639E0,-1.846664429E0,7.987335205E0,-2.039291382E0
8.321016004E0,-1.698669434E0,7.854339600E0,-2.089752197E0
8.325990369E0,-1.640869141E0,7.730041504E0,-2.121826172E0
8.330964735E0,-1.568222046E0,7.628768921E0,-2.252746582E0
8.335939100E0,-1.437271118E0,7.529312134E0,-2.356796265E0
8.340913465E0,-1.304183960E0,7.488510132E0,-2.430053711E0
8.345887830E0,-1.255966187E0,7.507644653E0,-2.578933716E0
8.350862196E0,-1.293701172E0,7.523635864E0,-2.712158203E0
8.355836561E0,-1.367660522E0,7.501419067E0,-2.679306030E0
8.360810926E0,-1.405685425E0,7.530822754E0,-2.547058105E0
8.365785291E0,-1.491836548E0,7.631927490E0,-2.490158081E0
8.370759657E0,-1.694274902E0,7.748291016E0,-2.207702637E0
8.375734022E0,-1.879486084E0,7.974243164E0,-1.664749146E0
8.380708387E0,-1.312973022E0,8.180480957E0,-1.354644775E0
8.385682752E0,-3.930358887E-1,8.259338379E0,-1.591415405E0
8.390657117E0,-1.142272949E-1,8.207290649E0,-2.013214111E0
8.395631483E0,-2.524261475E-1,8.175018311E0,-2.262313843E0
8.400605848E0,-4.416198730E-1,8.204498291E0,-2.420944214E0
8.405580213E0,-5.586242676E-1,8.277999878E0,-2.516967773E0
8.410554578E0,-5.458679199E-1,8.348983765E0,-2.589904785E0
8.415528944E0,-5.862731934E-1,8.377090454E0,-2.751678467E0
8.420503309E0,-7.027587891E-1,8.352416992E0,-2.832214355E0
8.425477674E0,-8.256683350E-1,8.265060425E0,-2.921829224E0
8.430452039E0,-1.013870239E0,8.141601562E0,-3.040985107E0
8.435426405E0,-1.180938721E0,7.968368530E0,-3.085708618E0
8.440400770E0,-1.336257935E0,7.803176880E0,-2.984405518E0
8.445375135E0,-1.434677124E0,7.645614624E0,-2.808883667E0
8.450349500E0,-1.514221191E0,7.508987427E0,-2.663406372E0
8.455323865E0,-1.564743042E0,7.355987549E0,-2.618682861E0
8.460298231E0,-1.507339478E0,7.195281982E0,-2.580947876E0
8.465272596E0,-1.265701294E0,7.051849365E0,-2.548568726E0
8.470246961E0,-9.486541748E-1,6.911697388E0,-2.487014771E0
8.475221326E0,-7.233276367E-1,6.764022827E0,-2.381393433E0
8.480195692E0,-4.896087646E-1,6.631912231E0,-2.262283325E0
8.485170057E0,-3.111877441E-1,6.520874023E0,-2.120193481E0
8.490144422E0,-2.163543701E-1,6.487991333E0,-2.020248413E0
8.495118787E0,-2.860260010E-1,6.571594238E0,-2.022308350E0
8.500093153E0,-4.960937500E-1,6.777648926E0,-2.172851562E0
8.505067518E0,-8.768768311E-1,7.093963623E0,-2.602752686E0
8.510041883E0,-1.294097900E0,7.557617188E0,-2.797866821E0
8.515016248E0,-1.672958374E0,8.053253174E0,-2.937591553E0
8.519990614E0,-1.713806152E0,8.512832642E0,-3.146392822E0
8.524964979E0,-1.531280518E0,8.893325806E0,-3.391799927E0
8.529939344E0,-1.134017944E0,9.199569702E0,-3.625686646E0
8.534913709E0,-6.094970703E-1,9.415969849E0,-3.826843262E0
8.539888074E0,-2.272796631E-1,9.591735840E0,-3.821258545E0
8.544862440E0,1.092681885E-1,9.824447632E0,-3.699752808E0
8.549836805E0,3.644409180E-1,1.005921936E1,-3.685668945E0
8.554811170E0,4.415130615E-1,1.013401794E1,-3.772918701E0
8.559785535E0,4.426574707E-1,9.982315063E0,-3.882171631E0
8.564759901E0,6.420745850E-1,9.598190308E0,-3.620742798E0
8.569734266E0,1.160446167E0,9.081253052E0,-3.126190186E0
8.574708631E0,1.292831421E0,8.640945435E0,-2.824691772E0
8.579682996E0,8.391571045E-1,8.351989746E0,-2.656066895E0
8.584657362E0,3.479766846E-1,8.114044189E0,-2.318054199E0
8.589631727E0,2.704620361E-1,7.851943970E0,-1.836303711E0
8.594606092E0,4.982452393E-1,7.597518921E0,-1.485336304E0
8.599580457E0,6.233520508E-1,7.485214233E0,-1.287399292E0
8.604554823E0,4.991912842E-1,7.619567871E0,-1.218765259E0
8.609529188E0,-4.069519043E-2,8.011779785E0,-1.129653931E0
8.614503553E0,-1.093627930E0,8.450881958E0,-1.061523438E0
8.619477918E0,-2.018020630E0,8.783721924E0,-9.035797119E-1
8.624452283E0,-2.217987061E0,9.082305908E0,-7.784118652E-1
8.629426649E0,-1.706588745E0,9.394500732E0,-8.456726074E-1
8.634401014E0,-8.663787842E-1,9.763381958E0,-9.381256104E-1
8.639375379E0,5.168151855E-2,1.010481262E1,-8.744964600E-1
8.644349744E0,9.454193115E-1,1.039636230E1,-7.460632324E-1
8.649324110E0,1.658996582E0,1.060429382E1,-6.552581787E-1
8.654298475E0,2.051803589E0,1.068414307E1,-5.789337158E-1
8.659272840E0,2.115295410E0,1.066645813E1,-5.400695801E-1
8.664247205E0,2.046371460E0,1.062628174E1,-5.416412354E-1
8.669221571E0,2.012756348E0,1.068437195E1,-5.506744385E-1
8.674195936E0,2.328109741E0,1.101916504E1,-5.929718018E-1
8.679170301E0,3.057006836E0,1.153684998E1,-7.867126465E-1
8.684144666E0,2.490921021E0,1.256349182E1,-5.360412598E-1
8.689119032E0,1.401382446E0,1.400912476E1,2.156066895E-2
8.694093397E0,6.061706543E-1,1.524473572E1,2.584991455E-1
8.699067762E0,-3.264312744E-1,1.590246582E1,-7.337951660E-2
8.704042127E0,-1.491592407E0,1.615437317E1,-6.574401855E-1
8.709016492E0,-2.356552124E0,1.594667053E1,-1.033126831E0
8.713990858E0,-3.073272705E0,1.542886353E1,-1.203308105E0
8.718965223E0,-3.767776489E0,1.468891907E1,-1.161575317E0
8.723939588E0,-4.582031250E0,1.390133667E1,-7.307434082E-1
8.728913953E0,-5.389282227E0,1.320173645E1,1.758880615E-1
8.733888319E0,-5.827209473E0,1.272698975E1,1.088043213E0
8.738862684E0,-5.897323608E0,1.236238098E1,1.743118286E0
8.743837049E0,-5.918273926E0,1.202416992E1,2.181945801E0
8.748811414E0,-6.113739014E0,1.176564026E1,2.359985352E0
8.753785780E0,-6.607223511E0,1.145237732E1,2.039001465E0
8.758760145E0,-6.593551636E0,1.099104309E1,1.347198486E0
8.763734510E0,-5.696197510E0,1.020637512E1,1.440338135E0
8.768708875E0,-4.646896362E0,9.273132324E0,2.001724243E0
8.773683240E0,-3.669158936E0,8.459869385E0,1.469238281E0
8.778657606E0,-2.751754761E0,7.851623535E0,3.407287598E-1
8.783631971E0,-2.485549927E0,7.338546753E0,-6.781158447E-1
8.788606336E0,-2.575408936E0,6.931518555E0,-1.387664795E0
8.793580701E0,-2.607727051E0,6.541107178E0,-1.710189819E0
8.798555067E0,-2.562911987E0,6.415679932E0,-2.227340698E0
8.803529432E0,-2.471023560E0,6.529632568E0,-3.074111938E0
8.808503797E0,-1.806564331E0,6.780288696E0,-3.789230347E0
8.813478162E0,-4.686584473E-1,7.439208984E0,-4.353149414E0
8.818452528E0,4.088439941E-1,8.019012451E0,-4.190750122E0
8.823426893E0,1.941833496E-1,8.295394897E0,-3.589599609E0
8.828401258E0,-2.109069824E-1,8.509033203E0,-3.481430054E0
8.833375623E0,-8.235168457E-2,8.559844971E0,-3.455718994E0
8.838349989E0,3.223571777E-1,8.443771362E0,-3.240997314E0
8.843324354E0,5.329589844E-1,8.253952026E0,-2.998062134E0
8.848298719E0,5.286407471E-1,8.072219849E0,-2.735946655E0
8.853273084E0,4.424591064E-1,7.960479736E0,-2.426254272E0
8.858247449E0,4.165649414E-1,7.879806519E0,-2.070724487E0
8.863221815E0,4.318237305E-1,7.732482910E0,-1.692611694E0
8.868196180E0,3.995666504E-1,7.556137085E0,-1.379898071E0
8.873170545E0,3.003082275E-1,7.380966187E0,-1.211929321E0
8.878144910E0,1.517333984E-1,7.228164673E0,-1.103958130E0
8.883119276E0,-7.742309570E-2,7.116394043E0,-1.034011841E0
8.888093641E0,-3.071136475E-1,7.060684204E0,-1.023376465E0
8.893068006E0,-5.472106934E-1,7.059036255E0,-9.992065430E-1
8.898042371E0,-8.174285889E-1,7.081817627E0,-1.040832520E0
8.903016737E0,-1.112411499E0,7.118469238E0,-1.010879517E0
8.907991102E0,-1.342269897E0,7.146392822E0,-1.018463135E0
8.912965467E0,-1.532699585E0,7.178268433E0,-9.261779785E-1
8.917939832E0,-1.665191650E0,7.198730469E0,-8.990631104E-1
8.922914198E0,-1.786254883E0,7.248977661E0,-9.612274170E-1
8.927888563E0,-1.867095947E0,7.328994751E0,-1.146774292E0
8.932862928E0,-1.867889404E0,7.397125244E0,-1.383682251E0
8.937837293E0,-1.829956055E0,7.405349731E0,-1.674682617E0
8.942811658E0,-1.763916016E0,7.337615967E0,-2.021652222E0
8.947786024E0,-1.644271851E0,7.252792358E0,-2.400985718E0
8.952760389E0,-1.404464722E0,7.149505615E0,-2.767715454E0
8.957734754E0,-1.251373291E0,7.085083008E0,-3.052932739E0
8.962709119E0,-1.227325439E0,7.112380981E0,-3.165130615E0
8.967683485E0,-1.195480347E0,7.073715210E0,-3.166198730E0
8.972657850E0,-1.280258179E0,6.975021362E0,-3.121429443E0
8.977632215E0,-1.406524658E0,6.901443481E0,-3.030853271E0
8.982606580E0,-1.545745850E0,6.839630127E0,-2.946121216E0
8.987580946E0,-1.755966187E0,6.825561523E0,-2.916946411E0
8.992555311E0,-1.869506836E0,6.878585815E0,-2.985565186E0
8.997529676E0,-2.015869141E0,6.846694946E0,-3.201080322E0
9.002504041E0,-2.187866211E0,6.734909058E0,-3.423889160E0
9.007478407E0,-2.334106445E0,6.600631714E0,-3.565017700E0
9.012452772E0,-2.743850708E0,6.583053589E0,-3.738800049E0
9.017427137E0,-3.171051025E0,6.507995605E0,-4.003692627E0
9.022401502E0,-3.386947632E0,6.356369019E0,-4.150894165E0
9.027375867E0,-3.608520508E0,6.276153564E0,-4.090469360E0
9.032350233E0,-3.820449829E0,6.202682495E0,-3.905029297E0
9.037324598E0,-4.098831177E0,6.126907349E0,-3.676132202E0
9.042298963E0,-4.405914307E0,6.082656860E0,-3.461776733E0
9.047273328E0,-4.672851562E0,6.080429077E0,-3.231933594E0
9.052247694E0,-4.852828979E0,6.157104492E0,-3.009414673E0
9.057222059E0,-4.967407227E0,6.335021973E0,-2.839996338E0
9.062196424E0,-5.051803589E0,6.610046387E0,-2.724365234E0
9.067170789E0,-5.089202881E0,6.980606079E0,-2.609313965E0
9.072145155E0,-5.127548218E0,7.426513672E0,-2.429992676E0
9.077119520E0,-5.149246216E0,7.997039795E0,-2.159347534E0
9.082093885E0,-5.109878540E0,8.671142578E0,-1.916702271E0
9.087068250E0,-4.999710083E0,9.339447021E0,-2.003463745E0
9.092042615E0,-4.799621582E0,9.916351318E0,-2.414978027E0
9.097016981E0,-4.679626465E0,9.987701416E0,-2.854690552E0
9.101991346E0,-4.522003174E0,9.784500122E0,-3.183349609E0
9.106965711E0,-4.202896118E0,9.606018066E0,-3.588943481E0
9.111940076E0,-3.788375854E0,9.491088867E0,-4.060211182E0
9.116914442E0,-3.516860962E0,9.316024780E0,-4.425033569E0
9.121888807E0,-3.470794678E0,9.071884155E0,-4.552429199E0
9.126863172E0,-3.624847412E0,8.768753052E0,-4.590530396E0
9.131837537E0,-4.061889648E0,8.345672607E0,-4.571090698E0
9.136811903E0,-4.653991699E0,7.870315552E0,-4.424987793E0
9.141786268E0,-5.031188965E0,7.360168457E0,-4.216613770E0
9.146760633E0,-4.982955933E0,7.127212524E0,-4.065811157E0
9.151734998E0,-4.643966675E0,6.848052979E0,-3.904785156E0
9.156709364E0,-4.233413696E0,6.560989380E0,-3.764862061E0
9.161683729E0,-4.054183960E0,6.570251465E0,-3.503173828E0
9.166658094E0,-3.856994629E0,7.077148438E0,-2.840805054E0
9.171632459E0,-3.242462158E0,8.091873169E0,-1.722763062E0
9.176606824E0,-2.260086060E0,9.448135376E0,-6.420440674E-1
9.181581190E0,-1.644760132E0,1.085025024E1,-1.548461914E-1
9.186555555E0,-1.454940796E0,1.277978516E1,-4.154510498E-1
9.191529920E0,-1.492218018E0,1.596669006E1,-7.755279541E-1
9.196504285E0,-1.425476074E0,2.027992249E1,1.058959961E-2
9.201478651E0,2.389526367E-1,2.491893005E1,2.105438232E0
9.206453016E0,2.476425171E0,2.853514099E1,4.193313599E0
9.211427381E0,4.228332520E0,2.906544495E1,4.563796997E0
9.216401746E0,3.693878174E0,2.489349365E1,2.142715454E0
9.221376112E0,2.050170898E0,1.919873047E1,-2.796173096E-1
9.226350477E0,1.492828369E0,1.500633240E1,-1.326187134E0
9.231324842E0,1.174392700E0,1.200724792E1,-1.419250488E0
9.236299207E0,5.942535400E-1,9.743103027E0,-1.048828125E0
9.241273573E0,1.193389893E-1,8.404815674E0,-7.055969238E-1
9.246247938E0,-2.144470215E-1,7.597625732E0,-6.576690674E-1
9.251222303E0,-7.462158203E-1,6.717285156E0,-9.269561768E-1
9.256196668E0,-1.520233154E0,5.709655762E0,-1.296615601E0
9.261171033E0,-1.765014648E0,5.022674561E0,-1.484222412E0
9.266145399E0,-1.805358887E0,4.782318115E0,-1.147415161E0
9.271119764E0,-2.071884155E0,4.920166016E0,-4.769287109E-1
9.276094129E0,-2.371170044E0,5.338821411E0,1.084289551E-1
9.281068494E0,-2.509048462E0,5.866775513E0,7.583618164E-1
9.286042860E0,-2.436920166E0,6.513412476E0,1.402053833E0
9.291017225E0,-2.233444214E0,7.271011353E0,1.404251099E0
9.295991590E0,-1.770492554E0,8.033752441E0,1.190322876E0
9.300965955E0,-9.114685059E-1,8.735977173E0,4.183044434E-1
9.305940321E0,1.765441895E-2,9.350738525E0,-9.641723633E-1
9.310914686E0,1.344848633E0,9.856826782E0,-2.656936646E0
9.315889051E0,2.755905151E0,1.006935120E1,-4.490997314E0
9.320863416E0,3.710708618E0,1.016476440E1,-6.300384521E0
9.325837782E0,4.229461670E0,1.012266541E1,-7.749816895E0
9.330812147E0,4.600982666E0,1.022366333E1,-8.849212646E0
9.335786512E0,4.326843262E0,1.036968994E1,-9.408050537E0
9.340760877E0,3.187316895E0,1.032676697E1,-9.215286255E0
9.345735242E0,1.890289307E0,9.879425049E0,-8.493545532E0
9.350709608E0,2.096862793E-1,9.155181885E0,-6.840011597E0
9.355683973E0,-9.689788818E-1,8.424682617E0,-4.392669678E0
9.360658338E0,-1.179138184E0,7.918502808E0,-1.974105835E0
9.365632703E0,-1.004898071E0,7.593826294E0,-3.299255371E-1
9.370607069E0,-6.830291748E-1,7.377563477E0,6.652069092E-1
9.375581434E0,-3.289184570E-1,7.261734009E0,1.152938843E0
9.380555799E0,3.024291992E-2,7.245117188E0,9.293518066E-1
9.385530164E0,2.990722656E-1,7.226837158E0,1.879272461E-1
9.390504530E0,2.790832520E-1,7.121566772E0,-4.746704102E-1
9.395478895E0,7.974243164E-2,6.972656250E0,-9.060058594E-1
9.400453260E0,-1.978607178E-1,6.811203003E0,-1.075744629E0
9.405427625E0,-4.706115723E-1,6.808547974E0,-1.414733887E0
9.410401990E0,-5.392913818E-1,6.787689209E0,-9.248809814E-1
9.415376356E0,-5.290832520E-1,6.906143188E0,-6.084136963E-1
9.420350721E0,-4.812774658E-1,7.081604004E0,-4.771118164E-1
9.425325086E0,-4.368286133E-1,7.330841064E0,-6.337127686E-1
9.430299451E0,-4.234008789E-1,7.599624634E0,-1.021255493E0
9.435273817E0,-4.685363770E-1,7.878067017E0,-1.465866089E0
9.440248182E0,-5.455780029E-1,8.104766846E0,-1.969177246E0
9.445222547E0,-6.986541748E-1,8.290649414E0,-2.521514893E0
9.450196912E0,-9.069213867E-1,8.437622070E0,-2.976074219E0
9.455171278E0,-1.068679810E0,8.554901123E0,-3.314270020E0
9.460145643E0,-1.142715454E0,8.608428955E0,-3.438430786E0
9.465120008E0,-1.110519409E0,8.576232910E0,-3.248855591E0
9.470094373E0,-1.116928101E0,8.457992554E0,-2.972213745E0
9.475068739E0,-1.163940430E0,8.292709351E0,-2.693023682E0
9.480043104E0,-1.179412842E0,8.160202026E0,-2.444763184E0
9.485017469E0,-1.025619507E0,8.063919067E0,-2.445022583E0
9.489991834E0,-1.273040771E0,7.802307129E0,-1.855499268E0
9.494966199E0,-1.521057129E0,7.810913086E0,-1.421615601E0
9.499940565E0,-1.601531982E0,8.023529053E0,-2.024658203E0
9.504914930E0,-1.602096558E0,8.234420776E0,-2.100143433E0
9.509889295E0,-1.673904419E0,8.367858887E0,-2.280303955E0
9.514863660E0,-1.695037842E0,8.475860596E0,-2.491195679E0
9.519838026E0,-1.763000488E0,8.573852539E0,-2.664443970E0
9.524812391E0,-1.775955200E0,8.603103638E0,-2.883453369E0
9.529786756E0,-1.805526733E0,8.572357178E0,-2.964370728E0
9.534761121E0,-1.760131836E0,8.498977661E0,-2.990814209E0
9.539735487E0,-1.628082275E0,8.456649780E0,-2.855239868E0
9.544709852E0,-1.448318481E0,8.409317017E0,-2.750564575E0
9.549684217E0,-1.257461548E0,8.336090088E0,-2.696975708E0
9.554658582E0,-8.738403320E-1,8.169586182E0,-3.618621826E0
9.559632948E0,-9.211578369E-1,7.729217529E0,-3.411270142E0
9.564607313E0,-1.496887207E0,7.665481567E0,-1.353591919E0
9.569581678E0,-1.569793701E0,8.274002075E0,-9.242095947E-1
9.574556043E0,-1.333801270E0,8.810653687E0,-1.861282349E0
9.579530408E0,-1.152969360E0,9.036590576E0,-2.356796265E0
9.584504774E0,-1.282669067E0,9.063949585E0,-2.297836304E0
9.589479139E0,-1.928726196E0,9.120269775E0,-2.117584229E0
9.594453504E0,-1.795761108E0,9.124359131E0,-1.945953369E0
9.599427869E0,-7.119598389E-1,8.833160400E0,-2.287048340E0
9.604402235E0,-1.723632812E-1,8.516448975E0,-2.812225342E0
9.609376600E0,-1.575469971E-1,8.281860352E0,-3.183578491E0
9.614350965E0,-3.037567139E-1,8.132446289E0,-3.407913208E0
9.619325330E0,-3.779754639E-1,8.010848999E0,-3.527572632E0
9.624299696E0,-1.679687500E-1,7.878707886E0,-3.444366455E0
9.629274061E0,-1.165008545E-1,7.634185791E0,-3.577423096E0
9.634248426E0,-2.222290039E-1,7.360122681E0,-3.808471680E0
9.639222791E0,-3.585815430E-1,7.034912109E0,-3.740661621E0
9.644197157E0,-4.629211426E-1,6.714477539E0,-3.442901611E0
9.649171522E0,-5.866546631E-1,6.430877686E0,-2.963821411E0
9.654145887E0,-6.280212402E-1,6.262847900E0,-2.387054443E0
9.659120252E0,-6.003265381E-1,6.237075806E0,-1.896102905E0
9.664094617E0,-6.221160889E-1,6.353775024E0,-1.686431885E0
9.669068983E0,-8.489532471E-1,6.599914551E0,-1.716094971E0
9.674043348E0,-1.232971191E0,6.922012329E0,-1.915084839E0
9.679017713E0,-1.688537598E0,7.336624146E0,-2.281127930E0
9.683992078E0,-2.129104614E0,7.742584229E0,-2.764556885E0
9.688966444E0,-2.328521729E0,8.087936401E0,-3.203262329E0
9.693940809E0,-2.125030518E0,8.346801758E0,-3.431427002E0
9.698915174E0,-1.609771729E0,8.545135498E0,-3.459487915E0
9.703889539E0,-9.595336914E-1,8.658081055E0,-3.471069336E0
9.708863905E0,-4.030914307E-1,8.809204102E0,-3.478881836E0
9.713838270E0,-8.151245117E-2,8.892791748E0,-3.371139526E0
9.718812635E0,5.659484863E-2,9.043136597E0,-3.165969849E0
9.723787000E0,2.417755127E-1,9.044479370E0,-3.173797607E0
9.728761365E0,3.950958252E-1,8.905838013E0,-3.369262695E0
9.733735731E0,4.294433594E-1,8.639312744E0,-3.598449707E0
9.738710096E0,6.007995605E-1,8.217315674E0,-3.755889893E0
9.743684461E0,9.313354492E-1,7.688629150E0,-3.719879150E0
9.748658826E0,1.169128418E0,7.156646729E0,-3.529922485E0
9.753633192E0,1.057250977E0,6.785659790E0,-3.309997559E0
9.758607557E0,9.098510742E-1,6.552322388E0,-3.033203125E0
9.763581922E0,9.127655029E-1,6.305938721E0,-2.648941040E0
9.768556287E0,9.171295166E-1,6.007873535E0,-2.275100708E0
9.773530653E0,7.536163330E-1,5.791946411E0,-1.984939575E0
9.778505018E0,2.394104004E-1,5.808593750E0,-1.695861816E0
9.783479383E0,-8.053894043E-1,6.191223145E0,-1.428375244E0
9.788453748E0,-2.031936646E0,6.860626221E0,-1.130172729E0
9.793428114E0,-2.953781128E0,7.591415405E0,-8.140411377E-1
9.798402479E0,-2.872146606E0,8.500473022E0,-7.057647705E-1
9.803376844E0,-2.109146118E0,9.396499634E0,-8.584442139E-1
9.808351209E0,-1.069259644E0,1.026771545E1,-1.010040283E0
9.813325574E0,2.089080811E-1,1.114724731E1,-1.228897095E0
9.818299940E0,1.326751709E0,1.186410522E1,-1.270523071E0
9.823274305E0,1.977951050E0,1.250329590E1,-1.260055542E0
9.828248670E0,2.105346680E0,1.299348450E1,-1.086700439E0
9.833223035E0,2.095001221E0,1.346583557E1,-5.829620361E-1
9.838197401E0,2.358551025E0,1.411105347E1,-9.210205078E-2
9.843171766E0,2.377639771E0,1.522505188E1,4.959106445E-1
9.848146131E0,1.553680420E0,1.663960266E1,9.127960205E-1
9.853120496E0,9.458923340E-1,1.787849426E1,1.142150879E0
9.858094862E0,5.238342285E-2,1.882122803E1,1.208816528E0
9.863069227E0,-8.916320801E-1,1.912550354E1,8.313293457E-1
9.868043592E0,-1.801208496E0,1.872079468E1,3.357543945E-1
9.873017957E0,-2.659896851E0,1.778297424E1,1.784210205E-1
9.877992323E0,-3.210128784E0,1.662593079E1,3.465423584E-1
9.882966688E0,-3.375915527E0,1.532658386E1,5.850982666E-1
9.887941053E0,-3.128067017E0,1.412538147E1,8.247528076E-1
9.892915418E0,-3.218246460E0,1.309194946E1,1.098999023E0
9.897889783E0,-3.948486328E0,1.216007996E1,1.490905762E0
9.902864149E0,-4.595321655E0,1.130206299E1,1.576766968E0
9.907838514E0,-5.386947632E0,1.067724609E1,1.389465332E0
9.912812879E0,-6.179534912E0,1.047698975E1,1.250885010E0
9.917787244E0,-6.853698730E0,1.023013306E1,1.119308472E0
9.922761610E0,-7.098907471E0,9.828948975E0,6.626434326E-1
9.927735975E0,-6.905838013E0,9.360000610E0,1.133422852E-1
9.932710340E0,-6.077621460E0,8.723617554E0,2.024841309E-2
9.937684705E0,-4.789688110E0,8.051345825E0,-1.831665039E-1
9.942659071E0,-3.884567261E0,7.653594971E0,-9.344482422E-1
9.947633436E0,-4.020156860E0,7.114959717E0,-1.215927124E0
9.952607801E0,-4.318618774E0,6.553787231E0,-1.495895386E0
9.957582166E0,-4.282653809E0,6.169357300E0,-2.084869385E0
9.962556532E0,-4.056976318E0,5.890396118E0,-2.980590820E0
9.967530897E0,-3.233657837E0,5.889419556E0,-4.124694824E0
9.972505262E0,-1.235687256E0,5.956588745E0,-4.826766968E0
9.977479627E0,3.893127441E-1,6.480895996E0,-4.947525024E0
9.982453992E0,1.019729614E0,7.373794556E0,-4.610336304E0
9.987428358E0,8.641662598E-1,8.060272217E0,-4.158554077E0
9.992402723E0,6.884460449E-1,8.370666504E0,-3.513061523E0
9.997377088E0,9.501953125E-1,8.499298096E0,-2.602722168E0
1.000235145E1,1.210479736E0,8.468338013E0,-1.602828979E0
1.000732582E1,1.359344482E0,8.494934082E0,-7.594757080E-1
1.001230018E1,1.454406738E0,8.535034180E0,-1.605529785E-1
1.001727455E1,1.353500366E0,8.592437744E0,1.816101074E-1
1.002224891E1,1.147125244E0,8.669769287E0,2.004547119E-1
1.002722328E1,9.321289062E-1,8.669540405E0,-1.486053467E-1
1.003219764E1,5.554962158E-1,8.566452026E0,-6.943511963E-1
1.003717201E1,1.099548340E-1,8.348541260E0,-1.283126831E0
1.004214638E1,-3.365936279E-1,8.065582275E0,-1.755645752E0
1.004712074E1,-6.821594238E-1,7.817977905E0,-2.034790039E0
1.005209511E1,-9.286804199E-1,7.517150879E0,-2.081848145E0
1.005706947E1,-1.244354248E0,7.151641846E0,-1.943069458E0
1.006204384E1,-1.578125000E0,6.818679810E0,-1.754653931E0
1.006701820E1,-1.835006714E0,6.587921143E0,-1.624099731E0
1.007199257E1,-1.956298828E0,6.450759888E0,-1.536346436E0
1.007696693E1,-2.064514160E0,6.437118530E0,-1.421035767E0
1.008194130E1,-2.228454590E0,6.540695190E0,-1.341979980E0
1.008691566E1,-2.331787109E0,6.670379639E0,-1.423248291E0
1.009189003E1,-2.307281494E0,6.788909912E0,-1.583511353E0
1.009686439E1,-2.180191040E0,6.899917603E0,-1.773986816E0
1.010183876E1,-2.069747925E0,6.944763184E0,-2.018325806E0
1.010681312E1,-2.038162231E0,7.003158569E0,-2.351013184E0
1.011178749E1,-1.933197021E0,7.001541138E0,-2.748413086E0
1.011676185E1,-1.825668335E0,6.912704468E0,-3.066146851E0
1.012173622E1,-1.686172485E0,6.814819336E0,-3.076828003E0
1.012671058E1,-1.545272827E0,6.736206055E0,-2.999511719E0
1.013168495E1,-1.548751831E0,6.631408691E0,-2.861343384E0
1.013665932E1,-1.529785156E0,6.515823364E0,-2.750762939E0
1.014163368E1,-1.527359009E0,6.524505615E0,-2.714813232E0
1.014660804E1,-1.683761597E0,6.596908569E0,-2.747756958E0
1.015158241E1,-1.816787720E0,6.628707886E0,-2.882980347E0
1.015655678E1,-1.888107300E0,6.661895752E0,-3.117279053E0
1.016153114E1,-2.064941406E0,6.649459839E0,-3.469604492E0
1.016650551E1,-2.334121704E0,6.537887573E0,-3.812194824E0
1.017147987E1,-2.552856445E0,6.380798340E0,-3.990325928E0
1.017645424E1,-2.802978516E0,6.406890869E0,-4.065551758E0
1.018142860E1,-3.238739014E0,6.423004150E0,-4.125015259E0
1.018640297E1,-3.625686646E0,6.344757080E0,-4.176284790E0
1.019137733E1,-3.942047119E0,6.190795898E0,-4.050979614E0
1.019635170E1,-4.122497559E0,6.082244873E0,-3.797668457E0
1.020132606E1,-4.415161133E0,5.991043091E0,-3.604492188E0
