"Time (s)","Acceleration x (m/s^2)","Acceleration y (m/s^2)","Acceleration z (m/s^2)"
2.247365600E-2,8.450469971E-1,-9.129119873E0,3.569229126E0
2.497609700E-2,9.072875977E-1,-9.212921143E0,3.564437866E0
2.750905600E-2,8.402557373E-1,-9.196166992E0,3.550064087E0
3.004201500E-2,7.923736572E-1,-9.149475098E0,3.510559082E0
3.257497400E-2,7.516632080E-1,-9.208129883E0,3.487823486E0
3.510793300E-2,7.420959473E-1,-9.230880737E0,3.496200562E0
3.764089200E-2,7.061767578E-1,-9.259613037E0,3.481842041E0
4.017385100E-2,7.420959473E-1,-9.234466553E0,3.500991821E0
4.270681000E-2,7.289276123E-1,-9.220108032E0,3.489013672E0
4.523976900E-2,6.439361572E-1,-9.187774658E0,3.456695557E0
4.777272800E-2,6.295623779E-1,-9.141098022E0,3.419586182E0
5.033620500E-2,5.601348877E-1,-9.192565918E0,3.364517212E0
5.286916400E-2,5.852661133E-1,-9.216506958E0,3.372894287E0
5.543264000E-2,5.744934082E-1,-9.270385742E0,3.340576172E0
5.796559900E-2,5.445709229E-1,-9.273971558E0,3.341781616E0
6.049855800E-2,5.457611084E-1,-9.267990112E0,3.272338867E0
6.303151700E-2,5.565490723E-1,-9.313476562E0,3.287902832E0
6.556447600E-2,6.092071533E-1,-9.254821777E0,3.267547607E0
6.809743500E-2,6.080169678E-1,-9.269180298E0,3.242416382E0
7.066091200E-2,5.697021484E-1,-9.341003418E0,3.256774902E0
7.319387100E-2,6.283721924E-1,-9.279953003E0,3.186157227E0
7.572683000E-2,6.331634521E-1,-9.296722412E0,3.194534302E0
7.829030600E-2,5.876617432E-1,-9.315872192E0,3.220870972E0
8.082326500E-2,6.271667480E-1,-9.313476562E0,3.231643677E0
8.335622400E-2,6.355438232E-1,-9.285949707E0,3.184951782E0
8.588918300E-2,6.331634521E-1,-9.269180298E0,3.220870972E0
8.842214200E-2,6.379394531E-1,-9.232070923E0,3.210098267E0
9.095510100E-2,6.343536377E-1,-9.254821777E0,3.220870972E0
9.348806000E-2,6.427307129E-1,-9.269180298E0,3.175384521E0
9.605153700E-2,6.678771973E-1,-9.276367188E0,3.205307007E0
9.858449600E-2,6.558990479E-1,-9.247634888E0,3.223266602E0
1.011174550E-1,6.511077881E-1,-9.235671997E0,3.274734497E0
1.036809310E-1,6.894226074E-1,-9.260803223E0,3.286712646E0
1.062444080E-1,7.444915771E-1,-9.258407593E0,3.341781616E0
1.087773670E-1,7.432861328E-1,-9.233276367E0,3.370498657E0
1.113103260E-1,7.205505371E-1,-9.236862183E0,3.420776367E0
1.138432850E-1,6.858215332E-1,-9.229675293E0,3.390853882E0
1.163762440E-1,7.121582031E-1,-9.230880737E0,3.388458252E0
1.189397200E-1,7.468872070E-1,-9.197357178E0,3.442337036E0
1.214726790E-1,7.397003174E-1,-9.232070923E0,3.467468262E0
1.240056380E-1,7.456817627E-1,-9.256011963E0,3.497390747E0
1.265385970E-1,7.540588379E-1,-9.221298218E0,3.459091187E0
1.291020740E-1,7.540588379E-1,-9.209335327E0,3.505783081E0
1.316350330E-1,7.133636475E-1,-9.220108032E0,3.496200562E0
1.341679920E-1,7.265319824E-1,-9.186584473E0,3.473449707E0
1.367314690E-1,7.564544678E-1,-9.177001953E0,3.504577637E0
1.392644280E-1,7.397003174E-1,-9.202148438E0,3.455505371E0
1.417973860E-1,7.528686523E-1,-9.185394287E0,3.529724121E0
1.443303450E-1,7.325134277E-1,-9.187774658E0,3.484222412E0
1.468633040E-1,7.720184326E-1,-9.242843628E0,3.436340332E0
1.494267810E-1,8.366699219E-1,-9.203338623E0,3.496200562E0
1.519597400E-1,7.827911377E-1,-9.208129883E0,3.405227661E0
1.544926990E-1,8.079376221E-1,-9.188980103E0,3.425567627E0
1.570256580E-1,7.923736572E-1,-9.220108032E0,3.334594727E0
1.595891350E-1,8.246917725E-1,-9.202148438E0,3.414794922E0
1.621220940E-1,8.474426270E-1,-9.165039062E0,3.368118286E0
1.646550530E-1,8.546142578E-1,-9.187774658E0,3.386062622E0
1.671880110E-1,8.725738525E-1,-9.177001953E0,3.296279907E0
1.697514880E-1,8.869476318E-1,-9.209335327E0,3.344161987E0
1.722844470E-1,9.084930420E-1,-9.188980103E0,3.344161987E0
1.748174060E-1,9.432067871E-1,-9.180603027E0,3.330993652E0
1.773503650E-1,9.647521973E-1,-9.209335327E0,3.305862427E0
1.798833240E-1,9.096832275E-1,-9.259613037E0,3.259170532E0
1.824468010E-1,8.833465576E-1,-9.223693848E0,3.310653687E0
1.849797600E-1,9.575653076E-1,-9.218902588E0,3.229248047E0
1.875127190E-1,9.659423828E-1,-9.238052368E0,3.291503906E0
1.900456780E-1,1.042572021E0,-9.301498413E0,3.287902832E0
1.926091540E-1,9.875030518E-1,-9.308685303E0,3.341781616E0
1.951421130E-1,9.982757568E-1,-9.283554077E0,3.230438232E0
1.976750720E-1,1.012634277E0,-9.297912598E0,3.222061157E0
2.002080310E-1,9.743347168E-1,-9.262008667E0,3.187347412E0
2.027409900E-1,9.456024170E-1,-9.291931152E0,3.267547607E0
2.052739490E-1,9.815063477E-1,-9.246444702E0,3.326217651E0
2.078374260E-1,9.707336426E-1,-9.211715698E0,3.320220947E0
2.103703850E-1,9.372253418E-1,-9.238052368E0,3.326217651E0
2.129033440E-1,9.084930420E-1,-9.241653442E0,3.327407837E0
2.154668200E-1,8.905334473E-1,-9.275177002E0,3.307052612E0
2.179997790E-1,9.731292725E-1,-9.390090942E0,3.137069702E0
2.205327380E-1,8.055419922E-1,-9.420013428E0,3.297485352E0
2.230656970E-1,7.744140625E-1,-9.331436157E0,3.286712646E0
2.255986560E-1,9.060974121E-1,-9.288330078E0,3.328613281E0
2.281621330E-1,8.749694824E-1,-9.227279663E0,3.305862427E0
2.306950920E-1,8.881378174E-1,-9.193771362E0,3.339385986E0
2.332280510E-1,8.067321777E-1,-9.206939697E0,3.344161987E0
2.357610100E-1,7.373046875E-1,-9.218902588E0,3.414794922E0
2.383244860E-1,7.648315430E-1,-9.218902588E0,3.342971802E0
2.408574450E-1,7.289276123E-1,-9.197357178E0,3.322616577E0
2.433904040E-1,7.516632080E-1,-9.224884033E0,3.362121582E0
2.459233630E-1,7.349090576E-1,-9.244049072E0,3.311843872E0
2.484868400E-1,7.025909424E-1,-9.216506958E0,3.340576172E0
2.510197990E-1,7.588500977E-1,-9.224884033E0,3.262771606E0
2.535527580E-1,7.660369873E-1,-9.260803223E0,3.328613281E0
2.560857170E-1,7.660369873E-1,-9.281158447E0,3.296279907E0
2.586186760E-1,7.384948730E-1,-9.307495117E0,3.320220947E0
2.611821520E-1,7.576599121E-1,-9.273971558E0,3.297485352E0
2.637151110E-1,7.708282471E-1,-9.299118042E0,3.333389282E0
2.662480700E-1,7.899780273E-1,-9.264389038E0,3.329803467E0
2.687810290E-1,7.373046875E-1,-9.272781372E0,3.348953247E0
2.713139880E-1,7.397003174E-1,-9.278762817E0,3.404022217E0
2.738774650E-1,7.444915771E-1,-9.297912598E0,3.393249512E0
2.764104240E-1,7.636413574E-1,-9.283554077E0,3.430358887E0
2.789433830E-1,7.911682129E-1,-9.282348633E0,3.371704102E0
2.814763420E-1,7.504730225E-1,-9.241653442E0,3.426773071E0
2.840398180E-1,7.468872070E-1,-9.224884033E0,3.371704102E0
2.865727770E-1,7.552642822E-1,-9.259613037E0,3.390853882E0
2.891057360E-1,7.756042480E-1,-9.266784668E0,3.335784912E0
2.916386950E-1,7.456817627E-1,-9.259613037E0,3.441131592E0
2.941716540E-1,7.337188721E-1,-9.212921143E0,3.364517212E0
2.967351310E-1,7.277221680E-1,-9.256011963E0,3.368118286E0
2.992680900E-1,7.193450928E-1,-9.221298218E0,3.348953247E0
3.018010490E-1,7.468872070E-1,-9.178207397E0,3.383666992E0
3.043340080E-1,7.097778320E-1,-9.185394287E0,3.369308472E0
3.068974840E-1,7.121582031E-1,-9.190170288E0,3.326217651E0
3.094304430E-1,7.193450928E-1,-9.177001953E0,3.360931396E0
3.119634020E-1,6.774444580E-1,-9.175811768E0,3.278335571E0
3.144963610E-1,7.001953125E-1,-9.204544067E0,3.348953247E0
3.170598380E-1,7.384948730E-1,-9.212921143E0,3.277130127E0
3.195927970E-1,7.672271729E-1,-9.179397583E0,3.370498657E0
3.221257560E-1,7.887725830E-1,-9.154266357E0,3.309448242E0
3.246587150E-1,7.827911377E-1,-9.174606323E0,3.342971802E0
3.271916740E-1,7.756042480E-1,-9.206939697E0,3.271148682E0
3.297551500E-1,8.450469971E-1,-9.199752808E0,3.283111572E0
3.322881090E-1,8.139190674E-1,-9.197357178E0,3.289108276E0
3.348210680E-1,8.175048828E-1,-9.208129883E0,3.296279907E0
3.373540270E-1,8.522186279E-1,-9.216506958E0,3.320220947E0
3.399175040E-1,8.594055176E-1,-9.263198853E0,3.275939941E0
3.424504630E-1,8.438415527E-1,-9.281158447E0,3.369308472E0
3.449834220E-1,8.426513672E-1,-9.242843628E0,3.338180542E0
3.475163810E-1,8.737792969E-1,-9.260803223E0,3.416000366E0
3.500493400E-1,8.737792969E-1,-9.263198853E0,3.332199097E0
3.526128160E-1,8.318786621E-1,-9.276367188E0,3.416000366E0
3.551457750E-1,8.558197021E-1,-9.284744263E0,3.416000366E0
3.576787340E-1,8.115234375E-1,-9.323059082E0,3.484222412E0
3.602116930E-1,7.720184326E-1,-9.381713867E0,3.461486816E0
3.627751700E-1,8.294830322E-1,-9.404449463E0,3.463882446E0
3.653081290E-1,7.911682129E-1,-9.385299683E0,3.447113037E0
3.678410880E-1,7.995605469E-1,-9.409240723E0,3.486618042E0
3.703740470E-1,8.438415527E-1,-9.412841797E0,3.557250977E0
3.729070060E-1,7.887725830E-1,-9.418823242E0,3.503387451E0
3.754704820E-1,7.181549072E-1,-9.356567383E0,3.590774536E0
3.780034410E-1,7.444915771E-1,-9.306289673E0,3.600341797E0
3.805364000E-1,7.241363525E-1,-9.349395752E0,3.764358521E0
3.830693590E-1,6.343536377E-1,-9.336227417E0,3.655410767E0
3.856328360E-1,5.804901123E-1,-9.370941162E0,3.694915771E0
3.881657950E-1,6.044311523E-1,-9.357772827E0,3.668579102E0
3.907292710E-1,5.960388184E-1,-9.363754272E0,3.763153076E0
3.932622300E-1,5.146484375E-1,-9.294326782E0,3.686538696E0
3.957951890E-1,5.242156982E-1,-9.276367188E0,3.690124512E0
3.983586660E-1,5.661163330E-1,-9.253616333E0,3.710479736E0
4.008916250E-1,5.589294434E-1,-9.258407593E0,3.698516846E0
4.034245840E-1,4.727478027E-1,-9.277557373E0,3.699707031E0
4.059575430E-1,4.763336182E-1,-9.259613037E0,3.641052246E0
4.085210190E-1,4.428100586E-1,-9.277557373E0,3.746398926E0
4.110539780E-1,4.212646484E-1,-9.244049072E0,3.645843506E0
4.135869370E-1,3.841552734E-1,-9.241653442E0,3.727233887E0
4.161198960E-1,3.661956787E-1,-9.217712402E0,3.636260986E0
4.186528550E-1,3.422546387E-1,-9.250030518E0,3.744003296E0
4.212163320E-1,2.835998535E-1,-9.178207397E0,3.690124512E0
4.237492910E-1,2.021942139E-1,-9.072860718E0,3.844558716E0
4.262822500E-1,1.926269531E-1,-9.084823608E0,3.832580566E0
4.288152090E-1,1.124114990E-1,-9.048919678E0,3.712875366E0
4.313786850E-1,4.058837891E-2,-9.026168823E0,3.632675171E0
4.339116440E-1,-1.448059082E-2,-9.022583008E0,3.588378906E0
4.364446030E-1,-7.432556152E-2,-9.009414673E0,3.626678467E0
4.389775620E-1,-1.820678711E-1,-9.013000488E0,3.563232422E0
4.415410390E-1,-1.964416504E-1,-9.026168823E0,3.664993286E0
4.440739980E-1,-2.143859863E-1,-9.060882568E0,3.505783081E0
4.466069570E-1,-2.706604004E-1,-9.005828857E0,3.575210571E0
4.491399160E-1,-3.341064453E-1,-9.007019043E0,3.413604736E0
4.516728750E-1,-4.645843506E-1,-8.972305298E0,3.453109741E0
4.542363510E-1,-5.495758057E-1,-8.892089844E0,3.371704102E0
4.567693100E-1,-5.771179199E-1,-8.807098389E0,3.339385986E0
4.593022690E-1,-5.651397705E-1,-8.683807373E0,3.243606567E0
4.618352280E-1,-5.675354004E-1,-8.635910034E0,3.254379272E0
4.643987050E-1,-4.873352051E-1,-8.580856323E0,3.217269897E0
4.669316640E-1,-3.843841553E-1,-8.507827759E0,3.218475342E0
4.694646230E-1,-2.778320312E-1,-8.511413574E0,3.236434937E0
4.719975820E-1,-6.236267090E-2,-8.445571899E0,3.078414917E0
4.745305410E-1,1.160125732E-1,-8.455154419E0,3.095169067E0
4.770940170E-1,3.566284180E-1,-8.452758789E0,2.909622192E0
4.796269760E-1,5.637207031E-1,-8.519805908E0,2.888076782E0
4.821599350E-1,6.977996826E-1,-8.582046509E0,2.718078613E0
4.846928940E-1,8.630065918E-1,-8.603591919E0,2.774353027E0
4.872563710E-1,9.851074219E-1,-8.643096924E0,2.671401978E0
4.897893300E-1,1.073684692E0,-8.679016113E0,2.759979248E0
4.923222890E-1,1.147903442E0,-8.759216309E0,2.878494263E0
4.948552480E-1,1.303527832E0,-8.754425049E0,2.956314087E0
4.973882070E-1,1.289169312E0,-8.682601929E0,3.129882812E0
4.999516830E-1,1.363388062E0,-8.710144043E0,3.257980347E0
5.024846420E-1,1.495071411E0,-8.716125488E0,3.533309937E0
5.050176010E-1,1.668655396E0,-8.712539673E0,3.673370361E0
5.075505600E-1,1.784759521E0,-8.771194458E0,4.026519775E0
5.101140370E-1,1.904479980E0,-8.863372803E0,4.060028076E0
5.126469960E-1,1.868560791E0,-8.954345703E0,4.250381470E0
5.151799550E-1,1.861373901E0,-9.106384277E0,4.171371460E0
5.177129140E-1,1.741668701E0,-9.211715698E0,4.250381470E0
5.202458730E-1,1.656677246E0,-9.236862183E0,4.089965820E0
5.228093490E-1,1.550140381E0,-9.312286377E0,4.056442261E0
5.253423080E-1,1.376556396E0,-9.378112793E0,4.069610596E0
5.278752670E-1,1.232910156E0,-9.384109497E0,4.040878296E0
5.304082260E-1,1.096435547E0,-9.428405762E0,4.136642456E0
5.329717030E-1,1.009048462E0,-9.421218872E0,4.190521240E0
5.355046620E-1,9.108886719E-1,-9.426010132E0,4.344940186E0
5.380376210E-1,7.803955078E-1,-9.420013428E0,4.421554565E0
5.405705800E-1,6.068267822E-1,-9.439178467E0,4.689712524E0
5.431035390E-1,5.421752930E-1,-9.484664917E0,4.664566040E0
5.456670150E-1,4.320373535E-1,-9.502624512E0,4.827377319E0
5.481999740E-1,3.302917480E-1,-9.514587402E0,4.789062500E0
5.507329330E-1,2.057952881E-1,-9.605575562E0,4.903991699E0
5.532658920E-1,1.363525391E-1,-9.649856567E0,4.870468140E0
5.558293690E-1,8.728027344E-2,-9.704925537E0,4.847732544E0
5.583623280E-1,1.184082031E-1,-9.742034912E0,4.747177124E0
5.608952870E-1,1.327667236E-1,-9.836608887E0,4.666961670E0
5.634282460E-1,1.555175781E-1,-9.895263672E0,4.627456665E0
5.659917220E-1,2.560729980E-1,-9.927597046E0,4.334167480E0
5.685246810E-1,3.482513428E-1,-1.003053284E1,4.256362915E0
5.710576400E-1,4.727478027E-1,-1.003532410E1,4.002578735E0
5.735905990E-1,5.266113281E-1,-1.009039307E1,3.915191650E0
5.761235580E-1,5.733032227E-1,-1.003413391E1,3.613510132E0
5.786870350E-1,6.427307129E-1,-1.004730225E1,3.430358887E0
5.812199940E-1,6.666717529E-1,-1.002336121E1,3.149047852E0
5.837529530E-1,6.511077881E-1,-9.945541382E0,2.950317383E0
5.862859120E-1,6.319580078E-1,-9.880905151E0,2.695343018E0
5.888493880E-1,6.331634521E-1,-9.769577026E0,2.500213623E0
5.913823470E-1,6.187896729E-1,-9.704925537E0,2.339797974E0
5.939153060E-1,5.972442627E-1,-9.653457642E0,2.177001953E0
5.964482650E-1,5.577392578E-1,-9.440368652E0,2.150665283E0
5.989812240E-1,5.038757324E-1,-9.245239258E0,1.942367554E0
6.015447010E-1,3.709869385E-1,-9.131515503E0,2.024963379E0
6.040776600E-1,3.398590088E-1,-8.949554443E0,1.961517334E0
6.066106190E-1,3.147277832E-1,-8.825057983E0,2.154251099E0
6.091435780E-1,2.416992188E-1,-8.684997559E0,2.145874023E0
6.117070540E-1,1.375579834E-1,-8.524581909E0,2.321838379E0
6.142400130E-1,4.777526855E-2,-8.462341309E0,2.423599243E0
6.167729720E-1,-9.826660156E-2,-8.449172974E0,2.598373413E0
6.193059310E-1,-2.323455811E-1,-8.455154419E0,2.831802368E0
6.218388900E-1,-3.628387451E-1,-8.552124023E0,3.026931763E0
6.244023670E-1,-4.813385010E-1,-8.649078369E0,3.284317017E0
6.269353260E-1,-5.591583252E-1,-8.768798828E0,3.451904297E0
6.294682850E-1,-6.166229248E-1,-8.823867798E0,3.794281006E0
6.320012440E-1,-6.142272949E-1,-8.833435059E0,3.930755615E0
6.345647200E-1,-6.178131104E-1,-8.869354248E0,4.236007690E0
6.370838670E-1,-6.213989258E-1,-8.890899658E0,4.358108521E0
6.396168260E-1,-7.303466797E-1,-8.920822144E0,4.670562744E0
6.421497850E-1,-7.159729004E-1,-8.896881104E0,4.846527100E0
6.446827440E-1,-7.447052002E-1,-8.845413208E0,5.038070679E0
6.472462210E-1,-7.985839844E-1,-8.825057983E0,5.180526733E0
6.497791800E-1,-7.052001953E-1,-8.817871094E0,5.322982788E0
6.523121390E-1,-6.932373047E-1,-8.838226318E0,5.391204834E0
6.548450980E-1,-6.704864502E-1,-8.815475464E0,5.429519653E0
6.574085740E-1,-6.022491455E-1,-8.756820679E0,5.477401733E0
6.599415330E-1,-5.400085449E-1,-8.793930054E0,5.416351318E0
6.624744920E-1,-4.418334961E-1,-8.827453613E0,5.363677979E0
6.650074510E-1,-3.819885254E-1,-8.808303833E0,5.336151123E0
6.675404100E-1,-3.365020752E-1,-8.831039429E0,5.273895264E0
6.701038870E-1,-3.329010010E-1,-8.840621948E0,5.150588989E0
6.726368460E-1,-2.910003662E-1,-8.902877808E0,5.028488159E0
6.751698050E-1,-2.060089111E-1,-8.992660522E0,4.862091064E0
6.777332820E-1,-5.757141113E-2,-9.051315308E0,4.674148560E0
6.802662410E-1,-9.468078613E-2,-9.057296753E0,4.619079590E0
6.828297170E-1,-3.242492676E-2,-9.074050903E0,4.530502319E0
6.853626760E-1,2.117767334E-1,-9.102783203E0,4.450286865E0
6.878956350E-1,3.135375977E-1,-9.113555908E0,4.335372925E0
6.904285940E-1,3.985290527E-1,-9.197357178E0,4.190521240E0
6.929920710E-1,4.488067627E-1,-9.290725708E0,3.989410400E0
6.955250300E-1,5.230255127E-1,-9.372131348E0,3.821807861E0
6.980579890E-1,6.319580078E-1,-9.464309692E0,3.779907227E0
7.005909480E-1,6.750488281E-1,-9.483459473E0,3.644638062E0
7.031544240E-1,6.846313477E-1,-9.557678223E0,3.601547241E0
7.056873830E-1,7.097778320E-1,-9.600784302E0,3.463882446E0
7.082203420E-1,7.193450928E-1,-9.633102417E0,3.386062622E0
7.107533010E-1,7.696228027E-1,-9.657043457E0,3.275939941E0
7.133167780E-1,7.468872070E-1,-9.763580322E0,3.196929932E0
7.158497370E-1,7.301177979E-1,-9.842590332E0,3.157424927E0
7.183826960E-1,6.810455322E-1,-9.840194702E0,3.017364502E0
7.209156550E-1,7.325134277E-1,-9.850967407E0,2.947921753E0
7.234486140E-1,7.061767578E-1,-9.888092041E0,2.868927002E0
7.260120900E-1,6.451263428E-1,-9.892868042E0,2.833007812E0
7.285450490E-1,6.427307129E-1,-9.850967407E0,2.831802368E0
7.310780080E-1,6.295623779E-1,-9.775558472E0,2.837799072E0
7.336109670E-1,6.463165283E-1,-9.746826172E0,2.762374878E0
7.361744440E-1,6.558990479E-1,-9.696548462E0,2.701324463E0
7.387074030E-1,6.547088623E-1,-9.645080566E0,2.703720093E0
7.412403620E-1,6.726531982E-1,-9.627120972E0,2.689361572E0
7.437733210E-1,6.846313477E-1,-9.558883667E0,2.655838013E0
7.463062800E-1,7.097778320E-1,-9.520568848E0,2.649856567E0
7.488697560E-1,7.432861328E-1,-9.506210327E0,2.683364868E0
7.514027150E-1,7.408905029E-1,-9.496627808E0,2.726470947E0
7.539356740E-1,7.588500977E-1,-9.499023438E0,2.781524658E0
7.564686330E-1,7.660369873E-1,-9.512191772E0,2.801879883E0
7.590321100E-1,7.756042480E-1,-9.570846558E0,2.880889893E0
7.615650690E-1,8.199005127E-1,-9.587615967E0,2.957504272E0
7.640980280E-1,7.756042480E-1,-9.542129517E0,3.053268433E0
7.666309870E-1,7.732238770E-1,-9.485855103E0,3.077209473E0
7.691639460E-1,7.792053223E-1,-9.447555542E0,3.151428223E0
7.717274220E-1,7.313232422E-1,-9.422409058E0,3.302276611E0
7.742603810E-1,7.313232422E-1,-9.405654907E0,3.404022217E0
7.767933400E-1,6.954040527E-1,-9.307495117E0,3.493804932E0
7.793262990E-1,7.121582031E-1,-9.214111328E0,3.562042236E0
7.818897760E-1,6.487121582E-1,-9.175811768E0,3.664993286E0
7.844227350E-1,5.768890381E-1,-9.066879272E0,3.721252441E0
7.869556940E-1,5.062561035E-1,-8.983078003E0,3.813430786E0
7.894886530E-1,4.260559082E-1,-8.929214478E0,3.837371826E0
7.920216120E-1,3.159179688E-1,-8.895690918E0,3.837371826E0
7.945850880E-1,2.608642578E-1,-8.854980469E0,3.801467896E0
7.971180470E-1,2.033996582E-1,-8.828643799E0,3.796676636E0
7.996510060E-1,1.375579834E-1,-8.781967163E0,3.779907227E0
8.021839650E-1,6.333923340E-2,-8.743652344E0,3.742797852E0
8.047474420E-1,-2.404785156E-2,-8.707748413E0,3.697311401E0
8.072804010E-1,-1.327514648E-2,-8.671829224E0,3.733230591E0
8.098133600E-1,-1.312255859E-3,-8.621551514E0,3.749984741E0
8.123463190E-1,-2.525329590E-2,-8.591629028E0,3.818222046E0
8.148792780E-1,-6.115722656E-2,-8.584442139E0,3.758361816E0
8.174427540E-1,5.874633789E-3,-8.559295654E0,3.765548706E0
8.199757130E-1,3.579711914E-2,-8.572463989E0,3.820617676E0
8.225086720E-1,4.656982422E-2,-8.579650879E0,3.832580566E0
8.250416310E-1,1.664733887E-2,-8.566482544E0,3.896026611E0
8.276051080E-1,1.303710938E-1,-8.598800659E0,3.964263916E0
8.301380670E-1,2.057952881E-1,-8.623947144E0,4.007369995E0
8.326710260E-1,2.201538086E-1,-8.661056519E0,4.063629150E0
8.352039850E-1,2.512817383E-1,-8.686203003E0,4.147430420E0
8.377674610E-1,3.290863037E-1,-8.684997559E0,4.275512695E0
8.403004200E-1,3.949279785E-1,-8.674224854E0,4.367691040E0
8.428333790E-1,4.284515381E-1,-8.713729858E0,4.384445190E0
8.453663380E-1,5.062561035E-1,-8.742462158E0,4.480224609E0
8.478992970E-1,5.242156982E-1,-8.772384644E0,4.558029175E0
8.504627740E-1,5.349884033E-1,-8.785552979E0,4.627456665E0
8.529957330E-1,5.278167725E-1,-8.857376099E0,4.635833740E0
8.555286920E-1,5.397796631E-1,-8.905258179E0,4.670562744E0
8.580616510E-1,5.098571777E-1,-8.961532593E0,4.651397705E0
8.606251270E-1,5.302124023E-1,-8.966323853E0,4.578384399E0
8.631580860E-1,6.415405273E-1,-8.947158813E0,4.547256470E0
8.656910450E-1,7.025909424E-1,-9.009414673E0,4.499374390E0
8.682240040E-1,7.600555420E-1,-9.044128418E0,4.464660645E0
8.707569630E-1,7.540588379E-1,-9.029769897E0,4.473037720E0
8.733204400E-1,8.043365479E-1,-9.016601562E0,4.378463745E0
8.758533990E-1,8.007507324E-1,-9.005828857E0,4.281494141E0
8.783863580E-1,7.875823975E-1,-8.932800293E0,4.178543091E0
8.809193170E-1,7.648315430E-1,-8.916046143E0,4.143829346E0
8.834827930E-1,7.492675781E-1,-8.843017578E0,4.131866455E0
8.860157520E-1,6.977996826E-1,-8.848999023E0,4.080383301E0
8.885487110E-1,6.271667480E-1,-8.789154053E0,4.008560181E0
8.910816700E-1,6.415405273E-1,-8.771194458E0,3.937927246E0
8.936146290E-1,5.733032227E-1,-8.758026123E0,3.945114136E0
8.961781060E-1,5.385894775E-1,-8.765197754E0,3.913986206E0
8.987110650E-1,5.756988525E-1,-8.732879639E0,3.846954346E0
9.012440240E-1,5.744934082E-1,-8.736480713E0,3.827804565E0
9.037769830E-1,5.445709229E-1,-8.737670898E0,3.825408936E0
9.063404590E-1,4.715423584E-1,-8.799926758E0,3.814636230E0
9.088734180E-1,3.661956787E-1,-8.852600098E0,3.817016602E0
9.114063770E-1,4.080963135E-1,-8.874145508E0,3.854141235E0
9.139393360E-1,3.793640137E-1,-8.838226318E0,3.818222046E0
9.164722950E-1,3.051452637E-1,-8.816680908E0,3.856521606E0
9.190357720E-1,2.297363281E-1,-8.799926758E0,3.854141235E0
9.215687310E-1,1.806488037E-1,-8.828643799E0,3.861312866E0
9.241016900E-1,1.423492432E-1,-8.916046143E0,3.867294312E0
9.266346490E-1,1.579132080E-1,-8.941177368E0,3.898422241E0
9.291981250E-1,5.375671387E-2,-9.027374268E0,3.945114136E0
9.317310840E-1,-7.293701172E-3,-9.054901123E0,4.007369995E0
9.342640430E-1,3.479003906E-3,-9.039337158E0,3.951095581E0
9.367970020E-1,3.102111816E-2,-9.094406128E0,3.919967651E0
9.393299610E-1,-1.208496094E-2,-9.159057617E0,3.953491211E0
9.418934380E-1,-5.398559570E-2,-9.206939697E0,3.931945801E0
9.444263970E-1,-1.282043457E-1,-9.233276367E0,3.946304321E0
9.469593560E-1,-1.389770508E-1,-9.281158447E0,4.015747070E0
9.494923150E-1,-1.030578613E-1,-9.302703857E0,4.025314331E0
9.520557910E-1,-1.282043457E-1,-9.372131348E0,3.978637695E0
9.545887500E-1,-1.401672363E-1,-9.356567383E0,3.991806030E0
9.571217090E-1,-1.282043457E-1,-9.430786133E0,4.031311035E0
9.596546680E-1,-1.174316406E-1,-9.375732422E0,4.009750366E0
9.621876270E-1,-1.246032715E-1,-9.354171753E0,4.039688110E0
9.647511040E-1,-1.677093506E-1,-9.381713867E0,4.089965820E0
9.673145800E-1,-1.736907959E-1,-9.426010132E0,4.086364746E0
9.698475390E-1,-1.617126465E-1,-9.418823242E0,4.049255371E0
9.723804980E-1,-1.174316406E-1,-9.379318237E0,4.034896851E0
9.749439750E-1,-1.066589355E-1,-9.314666748E0,4.060028076E0
9.774769340E-1,-2.285766602E-2,-9.317062378E0,4.055252075E0
9.800098930E-1,-3.004455566E-2,-9.326644897E0,4.055252075E0
9.825428520E-1,1.785278320E-2,-9.235671997E0,4.060028076E0
9.851063280E-1,1.904296875E-2,-9.196166992E0,4.051651001E0
9.876392870E-1,1.083374023E-3,-9.149475098E0,4.056442261E0
9.901722460E-1,-1.327514648E-2,-9.137496948E0,4.066024780E0
9.927052050E-1,-1.925659180E-2,-9.030960083E0,4.081588745E0
9.952381640E-1,2.981567383E-2,-8.985473633E0,4.125869751E0
9.978016410E-1,2.262878418E-2,-8.937591553E0,4.154602051E0
1.000334600E0,4.179382324E-2,-8.910049438E0,4.124679565E0
1.002867559E0,2.502441406E-2,-8.833435059E0,4.098342896E0
1.005400518E0,1.306152344E-2,-8.791534424E0,4.117492676E0
1.007963994E0,8.270263672E-3,-8.749649048E0,4.134262085E0
1.010496953E0,-2.764892578E-2,-8.725692749E0,4.186920166E0
1.013029912E0,-5.876159668E-2,-8.731689453E0,4.231216431E0
1.015562871E0,-4.200744629E-2,-8.679016113E0,4.174957275E0
1.018095830E0,-4.081726074E-2,-8.634719849E0,4.227630615E0
1.020659307E0,-4.200744629E-2,-8.658660889E0,4.273117065E0
1.023192266E0,-5.278015137E-2,-8.645492554E0,4.347335815E0
1.025725225E0,-5.876159668E-2,-8.643096924E0,4.413177490E0
1.028258184E0,-6.236267090E-2,-8.616760254E0,4.437118530E0
1.030821660E0,-5.158996582E-2,-8.591629028E0,4.544860840E0
1.033354619E0,-4.081726074E-2,-8.603591919E0,4.552047729E0
1.035887578E0,-7.192993164E-2,-8.604797363E0,4.568801880E0
1.038420537E0,-1.198272705E-1,-8.574859619E0,4.658584595E0
1.040953496E0,-1.090393066E-1,-8.573669434E0,4.625061035E0
1.043516973E0,-1.365814209E-1,-8.596420288E0,4.692108154E0
1.046049932E0,-1.317901611E-1,-8.580856323E0,4.695693970E0
1.048582891E0,-1.222076416E-1,-8.611968994E0,4.714843750E0
1.051115850E0,-1.509399414E-1,-8.608383179E0,4.670562744E0
1.053679326E0,-1.701049805E-1,-8.605987549E0,4.682525635E0
1.056212285E0,-1.389770508E-1,-8.588027954E0,4.611892700E0
1.058745244E0,-1.605224609E-1,-8.605987549E0,4.645416260E0
1.061278203E0,-1.629180908E-1,-8.638305664E0,4.635833740E0
1.063811162E0,-1.533355713E-1,-8.634719849E0,4.601119995E0
1.066374639E0,-1.677093506E-1,-8.607192993E0,4.529296875E0
1.068907598E0,-1.796722412E-1,-8.590423584E0,4.508941650E0
1.071440557E0,-1.485443115E-1,-8.652679443E0,4.476623535E0
1.073973516E0,-1.976318359E-1,-8.683807373E0,4.416778564E0
1.076536992E0,-2.072143555E-1,-8.681411743E0,4.405990601E0
1.079069951E0,-2.335510254E-1,-8.668243408E0,4.439514160E0
1.081602910E0,-2.347412109E-1,-8.686203003E0,4.468246460E0
1.084135869E0,-1.724853516E-1,-8.675415039E0,4.414382935E0
1.086668828E0,-1.736907959E-1,-8.731689453E0,4.341354370E0
1.089232305E0,-9.349060059E-2,-8.778366089E0,4.287490845E0
1.091765264E0,-1.353759766E-1,-8.771194458E0,4.299453735E0
1.094298223E0,-1.437683105E-1,-8.798721313E0,4.209671021E0
1.096831182E0,-1.557312012E-1,-8.781967163E0,4.143829346E0
1.099394658E0,-1.150360107E-1,-8.795135498E0,4.101928711E0
1.101927617E0,-9.587097168E-2,-8.777175903E0,4.112701416E0
1.104460576E0,-9.826660156E-2,-8.801116943E0,4.122283936E0
1.106993535E0,-8.630371094E-2,-8.825057983E0,4.124679565E0
1.109526494E0,-6.115722656E-2,-8.839431763E0,4.111511230E0
1.112089971E0,4.684448242E-3,-8.821472168E0,4.093551636E0
1.114622930E0,3.939819336E-2,-8.741256714E0,4.028915405E0
1.117155889E0,8.248901367E-2,-8.698165894E0,4.021728516E0
1.119688848E0,4.058837891E-2,-8.662246704E0,4.092361450E0
1.122252324E0,-3.707885742E-3,-8.580856323E0,4.056442261E0
1.124785283E0,-5.398559570E-2,-8.574859619E0,4.077987671E0
1.127318242E0,-3.602600098E-2,-8.529373169E0,4.094757080E0
1.129851201E0,-6.954956055E-2,-8.505432129E0,4.074401855E0
1.132414678E0,-1.665039062E-1,-8.483886719E0,4.117492676E0
1.134947637E0,-2.155914307E-1,-8.424026489E0,4.085174561E0
1.137480596E0,-2.251586914E-1,-8.421630859E0,4.072006226E0
1.140013555E0,-2.503051758E-1,-8.413253784E0,4.093551636E0
1.142546514E0,-2.155914307E-1,-8.437194824E0,4.077987671E0
1.145109991E0,-1.868591309E-1,-8.389312744E0,4.021728516E0
1.147642949E0,-1.341857910E-1,-8.378540039E0,4.026519775E0
1.150175908E0,-1.198272705E-1,-8.389312744E0,4.172561646E0
1.152708867E0,-9.349060059E-2,-8.391708374E0,4.289871216E0
1.155241826E0,-6.715393066E-2,-8.403686523E0,4.297058105E0
1.157805303E0,1.185607910E-2,-8.506637573E0,4.261154175E0
1.160338262E0,7.171630859E-2,-8.564086914E0,4.285095215E0
1.162871221E0,1.040344238E-1,-8.530578613E0,4.352127075E0
1.165404180E0,1.782531738E-1,-8.577255249E0,4.350936890E0
1.167967657E0,2.189636230E-1,-8.580856323E0,4.342544556E0
1.170500616E0,3.542327881E-1,-8.584442139E0,4.423950195E0
1.173033574E0,4.200744629E-1,-8.632324219E0,4.318603516E0
1.175566533E0,4.883117676E-1,-8.632324219E0,4.281494141E0
1.178130010E0,5.182342529E-1,-8.681411743E0,4.273117065E0
1.180662969E0,6.343536377E-1,-8.706542969E0,4.236007690E0
1.183195928E0,7.959594727E-1,-8.689788818E0,4.237213135E0
1.185728887E0,8.342742920E-1,-8.761611938E0,4.128265381E0
1.188261846E0,9.575653076E-1,-8.906463623E0,4.112701416E0
1.190825323E0,9.515838623E-1,-8.941177368E0,4.020523071E0
1.193358282E0,9.539794922E-1,-8.960327148E0,3.925964355E0
1.195891241E0,1.052139282E0,-8.963928223E0,3.948699951E0
1.198424199E0,1.131149292E0,-9.071655273E0,3.844558716E0
1.200987676E0,1.175445557E0,-9.119552612E0,3.784698486E0
1.203520635E0,1.240081787E0,-9.182998657E0,3.723648071E0
1.206053594E0,1.332260132E0,-9.168624878E0,3.673370361E0
1.208586553E0,1.376556396E0,-9.235671997E0,3.647033691E0
1.211119512E0,1.466339111E0,-9.290725708E0,3.560836792E0
1.213652471E0,1.604003906E0,-9.435577393E0,3.457885742E0
1.216215948E0,1.672241211E0,-9.479873657E0,3.380081177E0
1.218748907E0,1.720123291E0,-9.470291138E0,3.277130127E0
1.221281866E0,1.754837036E0,-9.514587402E0,3.188552856E0
1.223845342E0,1.753646851E0,-9.546905518E0,3.146652222E0
1.226378301E0,1.783569336E0,-9.569656372E0,3.109542847E0
1.228911260E0,1.927215576E0,-9.667816162E0,3.097564697E0
1.231444219E0,2.009826660E0,-9.653457642E0,2.988632202E0
1.233977178E0,2.007431030E0,-9.689361572E0,2.914413452E0
1.236540655E0,2.033767700E0,-9.670211792E0,2.858139038E0
1.239073614E0,2.082839966E0,-9.745635986E0,2.773147583E0
1.241606573E0,2.081649780E0,-9.785140991E0,2.771957397E0
1.244139532E0,2.054107666E0,-9.716903687E0,2.789916992E0
1.246703008E0,2.025390625E0,-9.718093872E0,2.738433838E0
1.249266485E0,1.954757690E0,-9.714508057E0,2.780334473E0
1.251799444E0,1.867370605E0,-9.750411987E0,2.852157593E0
1.254332403E0,1.843429565E0,-9.771972656E0,2.998199463E0
1.256865362E0,1.818283081E0,-9.734863281E0,3.163406372E0
1.259428838E0,1.672241211E0,-9.737243652E0,3.248397827E0
1.261961797E0,1.627944946E0,-9.716903687E0,3.342971802E0
1.264494756E0,1.589645386E0,-9.677398682E0,3.429168701E0
1.267027715E0,1.524993896E0,-9.657043457E0,3.596755981E0
1.269591192E0,1.530975342E0,-9.605575562E0,3.619506836E0
1.272124151E0,1.515426636E0,-9.514587402E0,3.664993286E0
1.274657110E0,1.430419922E0,-9.440368652E0,3.744003296E0
1.277190069E0,1.402893066E0,-9.374526978E0,3.807449341E0
1.279723028E0,1.375350952E0,-9.299118042E0,3.874481201E0
1.282286504E0,1.335861206E0,-9.273971558E0,3.807449341E0
1.284819463E0,1.301132202E0,-9.247634888E0,3.789489746E0
1.287352422E0,1.264022827E0,-9.281158447E0,3.848144531E0
1.289885381E0,1.196990967E0,-9.252426147E0,3.809844971E0
1.292448858E0,1.121566772E0,-9.211715698E0,3.799072266E0
1.294981817E0,1.082061768E0,-9.259613037E0,3.738021851E0
1.297514776E0,9.767303467E-1,-9.307495117E0,3.779907227E0
1.300047735E0,8.773651123E-1,-9.349395752E0,3.754776001E0
1.302580694E0,8.618011475E-1,-9.368545532E0,3.741607666E0
1.305144170E0,8.079376221E-1,-9.484664917E0,3.751190186E0
1.307677129E0,7.037811279E-1,-9.551696777E0,3.864913940E0
1.310210088E0,6.175994873E-1,-9.628311157E0,3.904418945E0
1.312743047E0,5.792846680E-1,-9.653457642E0,3.936737061E0
1.315306524E0,5.541534424E-1,-9.756408691E0,4.013351440E0
1.317839483E0,5.469665527E-1,-9.801895142E0,4.123474121E0
1.320372442E0,5.361938477E-1,-9.811477661E0,4.216857910E0
1.322905401E0,5.170440674E-1,-9.810272217E0,4.258758545E0
1.325468877E0,5.218200684E-1,-9.861755371E0,4.299453735E0
1.328001836E0,4.883117676E-1,-9.841400146E0,4.367691040E0
1.330534795E0,4.559783936E-1,-9.883300781E0,4.427551270E0
1.333067754E0,5.146484375E-1,-9.860549927E0,4.476623535E0
1.335600713E0,4.763336182E-1,-9.852172852E0,4.495773315E0
1.338164190E0,4.080963135E-1,-9.758804321E0,4.542465210E0
1.340697149E0,3.865509033E-1,-9.734863281E0,4.506546021E0
1.343230108E0,3.614196777E-1,-9.666625977E0,4.525711060E0
1.345763067E0,3.494415283E-1,-9.625915527E0,4.553237915E0
1.348326543E0,1.974182129E-1,-9.578033447E0,4.581970215E0
1.350859502E0,8.728027344E-2,-9.586410522E0,4.657394409E0
1.353392461E0,5.136108398E-2,-9.550506592E0,4.743576050E0
1.355925420E0,-1.198272705E-1,-9.503814697E0,4.832168579E0
1.358458379E0,-1.976318359E-1,-9.467895508E0,4.894409180E0
1.361021856E0,-2.898101807E-1,-9.516983032E0,5.069198608E0
1.363554815E0,-3.867797852E-1,-9.412841797E0,5.212844849E0
1.366087774E0,-3.819885254E-1,-9.339813232E0,5.180526733E0
1.368620733E0,-3.221282959E-1,-9.265594482E0,5.205657959E0
1.371184209E0,-3.987426758E-1,-9.222503662E0,5.203262329E0
1.373717168E0,-3.676147461E-1,-9.160247803E0,5.211639404E0
1.376250127E0,-3.305053711E-1,-9.106384277E0,5.198471069E0
1.378783086E0,-3.017730713E-1,-8.987869263E0,5.242767334E0
1.381316045E0,-2.455139160E-1,-8.913650513E0,5.209259033E0
1.383879522E0,-2.155914307E-1,-8.881317139E0,5.144607544E0
1.386412481E0,-2.155914307E-1,-8.839431763E0,5.021301270E0
1.388945440E0,-1.940460205E-1,-8.765197754E0,4.936309814E0
1.391478399E0,-1.772766113E-1,-8.710144043E0,4.787872314E0
1.394041875E0,-1.509399414E-1,-8.696975708E0,4.698089600E0
1.396574834E0,-2.754364014E-1,-8.655075073E0,4.565216064E0
1.399107793E0,-3.700103760E-1,-8.699371338E0,4.429931641E0
1.401640752E0,-4.550018311E-1,-8.729293823E0,4.326995850E0
1.404173711E0,-5.340118408E-1,-8.755630493E0,4.182144165E0
1.406737188E0,-6.405639648E-1,-8.864562988E0,4.086364746E0
1.409270147E0,-8.632202148E-1,-8.939987183E0,4.089965820E0
1.411803106E0,-1.012863159E0,-9.046524048E0,4.079193115E0
1.414336065E0,-1.115814209E0,-9.199752808E0,4.104324341E0
1.416899541E0,-1.276214600E0,-9.360168457E0,4.221649170E0
1.419432500E0,-1.418670654E0,-9.499023438E0,4.304244995E0
1.421965459E0,-1.501281738E0,-9.721694946E0,4.359313965E0
1.424498418E0,-1.545562744E0,-9.912033081E0,4.468246460E0
1.427061895E0,-1.562332153E0,-1.013708496E1,4.495773315E0
1.429594854E0,-1.555145264E0,-1.036213684E1,4.544860840E0
1.432127813E0,-1.583877563E0,-1.058000183E1,4.596328735E0
1.434660772E0,-1.559936523E0,-1.075598145E1,4.601119995E0
1.437193731E0,-1.582672119E0,-1.093794250E1,4.604721069E0
1.439757207E0,-1.598236084E0,-1.100857544E1,4.548446655E0
1.442290166E0,-1.575500488E0,-1.110552979E1,4.502960205E0
1.444823125E0,-1.568313599E0,-1.116539001E1,4.427551270E0
1.447356084E0,-1.598236084E0,-1.111631775E1,4.358108521E0
1.449919561E0,-1.632949829E0,-1.100497437E1,4.203689575E0
1.452452520E0,-1.683227539E0,-1.090202332E1,4.051651001E0
1.454985479E0,-1.671264648E0,-1.082421875E1,3.933135986E0
1.457518438E0,-1.674850464E0,-1.068295288E1,3.867294312E0
1.460051397E0,-1.788574219E0,-1.052015686E1,3.724853516E0
1.462614873E0,-1.875961304E0,-1.039326477E1,3.564437866E0
1.465147832E0,-1.951385498E0,-1.022566223E1,3.472259521E0
1.467680791E0,-1.966949463E0,-1.006645203E1,3.285507202E0
1.470213750E0,-1.933425903E0,-9.902450562E0,3.097564697E0
1.472777227E0,-1.881958008E0,-9.780349731E0,3.011367798E0
1.475310186E0,-1.920257568E0,-9.679794312E0,2.834197998E0
1.477843145E0,-1.962158203E0,-9.643875122E0,2.720474243E0
1.480376104E0,-1.883148193E0,-9.562469482E0,2.562469482E0
1.482909063E0,-1.731124878E0,-9.399673462E0,2.406845093E0
1.485472539E0,-1.591064453E0,-9.331436157E0,2.267974854E0
1.488005498E0,-1.418670654E0,-9.240447998E0,2.194946289E0
1.490538457E0,-1.251083374E0,-9.051315308E0,2.080032349E0
1.493071416E0,-1.081085205E0,-8.859771729E0,1.930389404E0
1.495634893E0,-8.045654297E-1,-8.684997559E0,1.810684204E0
1.498167852E0,-6.417541504E-1,-8.512619019E0,1.792724609E0
1.500700811E0,-4.765625000E-1,-8.449172974E0,1.878921509E0
1.503233770E0,-3.161468506E-1,-8.353408813E0,2.024963379E0
1.505766729E0,-1.557312012E-1,-8.238479614E0,2.077636719E0
1.508330205E0,2.023315430E-2,-8.106796265E0,2.321838379E0
1.510863164E0,2.608642578E-1,-8.031387329E0,2.624710083E0
1.513396123E0,4.547882080E-1,-7.999053955E0,2.843780518E0
1.515929082E0,5.792846680E-1,-7.876953125E0,3.176574707E0
1.518492559E0,7.971649170E-1,-7.733306885E0,3.466278076E0
1.521025518E0,9.276428223E-1,-7.638732910E0,3.749984741E0
1.523558477E0,8.869476318E-1,-7.589645386E0,4.031311035E0
1.526091436E0,9.515838623E-1,-7.492691040E0,4.123474121E0
1.528654912E0,1.100021362E0,-7.314315796E0,4.226425171E0
1.531187871E0,1.202972412E0,-7.170669556E0,4.374877930E0
1.533720830E0,1.110794067E0,-7.028213501E0,4.546051025E0
1.536284307E0,8.043365479E-1,-6.945617676E0,4.852508545E0
1.538817266E0,1.017425537E0,-6.970748901E0,4.695693970E0
1.541380742E0,1.161071777E0,-7.013839722E0,4.654998779E0
1.543913701E0,1.192199707E0,-7.062927246E0,4.683731079E0
1.546446660E0,1.366973877E0,-7.030609131E0,4.762725830E0
1.548979619E0,1.461547852E0,-7.058135986E0,4.881240845E0
1.551512578E0,1.460357666E0,-7.064117432E0,4.953079224E0
1.554076055E0,1.497467041E0,-7.073699951E0,4.986587524E0
1.556609014E0,1.505844116E0,-7.037780762E0,5.012924194E0
1.559141973E0,1.456756592E0,-6.980331421E0,5.066802979E0
1.561674932E0,1.370574951E0,-6.924057007E0,5.062011719E0
1.564238408E0,1.216140747E0,-6.987503052E0,5.010528564E0
1.566771367E0,1.086853027E0,-6.828292847E0,4.971023560E0
1.569304326E0,9.048919678E-1,-6.636764526E0,4.880050659E0
1.571837285E0,7.516632080E-1,-6.460784912E0,4.756744385E0
1.574400762E0,5.720977783E-1,-6.240524292E0,4.688507080E0
1.576933721E0,3.757781982E-1,-5.922088623E0,4.564010620E0
1.579466680E0,1.602935791E-1,-5.638381958E0,4.380859375E0
1.581999639E0,-7.293701172E-3,-5.392974854E0,4.149810791E0
1.584532598E0,-1.748809814E-1,-5.323532104E0,3.739212036E0
1.587096074E0,-3.867797852E-1,-5.434875488E0,3.196929932E0
1.589629033E0,-6.656951904E-1,-5.609649658E0,2.427185059E0
1.592161992E0,-7.913970947E-1,-5.773651123E0,1.519790649E0
1.594694951E0,-9.853210449E-1,-6.035812378E0,4.328155518E-1
1.597258428E0,-1.207992554E0,-6.481140137E0,-3.213500977E-1
1.599791387E0,-1.321716309E0,-6.944412231E0,-7.355499268E-1
1.602324346E0,-1.346847534E0,-7.362197876E0,-9.175109863E-1
1.604857305E0,-1.032012939E0,-8.792739868E0,-1.221572876E0
1.607390264E0,-7.626647949E-1,-1.152931213E1,-1.534011841E0
1.609953741E0,-1.162490845E0,-1.460107422E1,-1.607040405E0
1.612486699E0,-1.854415894E0,-1.786317444E1,-1.340087891E0
1.615019658E0,-2.442199707E0,-2.076853943E1,-1.015670776E0
1.617552617E0,-3.065887451E0,-2.308612061E1,-4.925384521E-1
1.620116094E0,-3.344802856E0,-2.445919800E1,4.196472168E-1
1.622649053E0,-3.425018311E0,-2.475128174E1,1.388107300E0
1.625182012E0,-3.328048706E0,-2.366073608E1,2.150665283E0
1.627714971E0,-2.964126587E0,-2.112646484E1,2.542114258E0
1.630247930E0,-2.075881958E0,-1.790866089E1,2.570846558E0
1.632811407E0,-1.151718140E0,-1.535046387E1,2.370925903E0
1.635344366E0,-8.093566895E-1,-1.358831787E1,1.961517334E0
1.637877324E0,-4.609985352E-1,-1.240438843E1,1.675415039E0
1.640410283E0,-1.497497559E-1,-1.175556946E1,1.453948975E0
1.642973760E0,-2.012176514E-1,-1.136291504E1,1.277969360E0
1.645506719E0,-2.251586914E-1,-1.106962585E1,1.207336426E0
1.648039678E0,-1.305999756E-1,-1.089364624E1,1.292343140E0
1.650572637E0,-1.138305664E-1,-1.078112793E1,1.464721680E0
1.653105596E0,-2.335510254E-1,-1.085295105E1,1.684982300E0
1.655669073E0,-4.897308350E-1,-1.102891541E1,1.937576294E0
1.658202032E0,-6.489410400E-1,-1.110792542E1,2.179382324E0
1.660734991E0,-7.830200195E-1,-1.116539001E1,2.372116089E0
1.663267949E0,-9.817352295E-1,-1.121926880E1,2.534927368E0
1.665831426E0,-1.085876465E0,-1.128749084E1,2.604354858E0
1.668364385E0,-1.186431885E0,-1.130426025E1,2.676193237E0
1.670897344E0,-1.282211304E0,-1.118095398E1,2.673797607E0
1.673430303E0,-1.348052979E0,-1.114624023E1,2.674987793E0
1.675963262E0,-1.454589844E0,-1.107321167E1,2.744415283E0
1.678526739E0,-1.574295044E0,-1.096069336E1,2.794692993E0
1.681059698E0,-1.555145264E0,-1.088766479E1,2.743225098E0
1.683592657E0,-1.680847168E0,-1.071168518E1,2.794692993E0
1.686125616E0,-1.738296509E0,-1.058479309E1,2.804275513E0
1.688689092E0,-1.782592773E0,-1.034896851E1,2.791107178E0
1.691222051E0,-1.792175293E0,-1.012271118E1,2.833007812E0
1.693755010E0,-1.753860474E0,-9.935974121E0,2.813858032E0
1.696287969E0,-1.755065918E0,-9.707321167E0,2.833007812E0
1.698851446E0,-1.689224243E0,-9.524169922E0,2.807861328E0
1.701384405E0,-1.673660278E0,-9.320663452E0,2.840194702E0
1.703917364E0,-1.705978394E0,-9.148269653E0,2.889266968E0
1.706450323E0,-1.812515259E0,-9.124328613E0,2.929977417E0
1.708983282E0,-1.910690308E0,-9.054901123E0,2.988632202E0
1.711546758E0,-2.091445923E0,-9.076446533E0,2.885681152E0
1.714079717E0,-2.267425537E0,-9.120742798E0,2.937149048E0
1.716612676E0,-2.224319458E0,-9.021377563E0,2.950317383E0
1.719145635E0,-2.218338013E0,-9.039337158E0,2.994613647E0
1.721709112E0,-2.236297607E0,-9.030960083E0,3.046096802E0
1.724242071E0,-2.553527832E0,-8.969909668E0,2.991027832E0
1.726775030E0,-2.757034302E0,-8.990264893E0,2.852157593E0
1.729307989E0,-2.715133667E0,-8.981872559E0,2.776748657E0
1.731840948E0,-2.466140747E0,-8.979492188E0,2.728851318E0
1.734404424E0,-2.520004272E0,-8.983078003E0,2.677383423E0
1.736937383E0,-2.711547852E0,-9.050109863E0,2.539718628E0
1.739470342E0,-2.674438477E0,-9.076446533E0,2.463104248E0
1.742003301E0,-2.590637207E0,-9.086029053E0,2.350570679E0
1.744566778E0,-2.497268677E0,-9.123138428E0,2.314666748E0
1.747099737E0,-2.288970947E0,-9.194961548E0,2.308670044E0
1.749632696E0,-2.248260498E0,-9.276367188E0,2.352966309E0
1.752165655E0,-2.239883423E0,-9.235671997E0,2.388885498E0
1.754698614E0,-2.197982788E0,-9.218902588E0,2.433181763E0
1.757262090E0,-2.212356567E0,-9.194961548E0,2.496627808E0
1.759795049E0,-2.247070312E0,-9.156661987E0,2.526550293E0
1.762328008E0,-2.243484497E0,-9.050109863E0,2.516967773E0
1.764860967E0,-2.194396973E0,-9.016601562E0,2.572036743E0
1.767424444E0,-2.000473022E0,-8.957931519E0,2.664215088E0
1.769957403E0,-1.828079224E0,-8.877731323E0,2.781524658E0
1.772490362E0,-1.620986938E0,-8.847808838E0,2.734848022E0
1.775023321E0,-1.425857544E0,-8.876541138E0,2.794692993E0
1.777556280E0,-1.291778564E0,-8.852600098E0,2.917999268E0
1.780119756E0,-1.150527954E0,-8.868148804E0,2.983840942E0
1.782652715E0,-1.087081909E0,-8.902877808E0,3.115524292E0
1.785185674E0,-9.901123047E-1,-8.992660522E0,3.195724487E0
1.787718633E0,-8.344879150E-1,-8.990264893E0,3.328613281E0
1.790282110E0,-7.614593506E-1,-9.013000488E0,3.436340332E0
1.792815069E0,-6.860504150E-1,-8.979492188E0,3.542892456E0
1.795348028E0,-5.172576904E-1,-9.033355713E0,3.673370361E0
1.797880987E0,-4.370574951E-1,-9.057296753E0,3.688934326E0
1.800413946E0,-3.903656006E-1,-9.030960083E0,3.739212036E0
1.802977422E0,-2.658691406E-1,-9.028564453E0,3.746398926E0
1.805510381E0,-2.096099854E-1,-9.029769897E0,3.830184937E0
1.808043340E0,-7.073974609E-2,-9.015396118E0,3.863708496E0
1.810576299E0,1.785278320E-2,-8.962722778E0,3.876876831E0
1.813139776E0,1.160125732E-1,-8.975891113E0,3.917587280E0
1.815672735E0,1.734619141E-1,-8.973495483E0,3.939132690E0
1.818205694E0,2.285308838E-1,-8.930404663E0,3.905609131E0
1.820738653E0,2.752227783E-1,-8.914840698E0,3.844558716E0
1.823302129E0,2.979736328E-1,-8.895690918E0,3.856521606E0
1.825865606E0,3.697967529E-1,-8.821472168E0,3.777526855E0
1.828398565E0,3.985290527E-1,-8.758026123E0,3.775131226E0
1.830931524E0,3.410644531E-1,-8.686203003E0,3.740402222E0
1.833464483E0,3.674011230E-1,-8.629928589E0,3.678161621E0
1.836027959E0,3.781738281E-1,-8.510223389E0,3.663787842E0
1.838560918E0,3.937377930E-1,-8.455154419E0,3.637451172E0
1.841093877E0,2.728271484E-1,-8.376144409E0,3.612319946E0
1.843626836E0,1.818542480E-1,-8.283966064E0,3.600341797E0
1.846159795E0,1.208038330E-1,-8.256439209E0,3.524932861E0
1.848723272E0,2.981567383E-2,-8.216934204E0,3.527328491E0
1.851256231E0,4.179382324E-2,-8.148696899E0,3.455505371E0
1.853789190E0,1.785278320E-2,-8.091232300E0,3.353744507E0
1.856322149E0,4.418945312E-2,-8.111587524E0,3.316635132E0
1.858885625E0,5.256652832E-2,-8.042160034E0,3.298675537E0
1.861418584E0,9.446716309E-2,-7.981109619E0,3.261566162E0
1.863951543E0,1.028442383E-1,-7.837448120E0,3.213684082E0
1.866484502E0,9.684753418E-2,-7.784774780E0,3.222061157E0
1.869047979E0,5.375671387E-2,-7.779983521E0,3.231643677E0
1.871580938E0,4.179382324E-2,-7.717742920E0,3.254379272E0
1.874113897E0,-4.798889160E-2,-7.722534180E0,3.320220947E0
1.876646856E0,-1.234130859E-1,-7.703369141E0,3.342971802E0
1.879179815E0,-9.109497070E-2,-7.710556030E0,3.384872437E0
1.881743291E0,-7.192993164E-2,-7.660278320E0,3.427963257E0
1.884276250E0,-1.186218262E-1,-7.645919800E0,3.445922852E0
1.886809209E0,-1.509399414E-1,-7.618377686E0,3.524932861E0
1.889342168E0,-1.653137207E-1,-7.611206055E0,3.529724121E0
1.891905645E0,-1.844635010E-1,-7.645919800E0,3.511764526E0
1.894438604E0,-2.299499512E-1,-7.626754761E0,3.522537231E0
1.896971563E0,-3.041687012E-1,-7.584869385E0,3.635070801E0
1.899504522E0,-3.269195557E-1,-7.617187500E0,3.741607666E0
1.902037481E0,-3.819885254E-1,-7.638732910E0,3.802658081E0
1.904600957E0,-4.741668701E-1,-7.570495605E0,3.821807861E0
1.907133916E0,-4.753570557E-1,-7.556137085E0,3.887649536E0
1.909666875E0,-4.741668701E-1,-7.564514160E0,3.940322876E0
1.912199834E0,-5.292358398E-1,-7.563308716E0,3.941528320E0
1.914732793E0,-5.699310303E-1,-7.542968750E0,3.939132690E0
1.917296270E0,-5.591583252E-1,-7.560928345E0,3.959472656E0
1.919829229E0,-5.424041748E-1,-7.566909790E0,4.004974365E0
1.922362188E0,-5.699310303E-1,-7.553741455E0,3.994201660E0
1.924895147E0,-5.411987305E-1,-7.571701050E0,3.965469360E0
1.927458623E0,-5.112762451E-1,-7.503463745E0,3.906799316E0
1.929991582E0,-4.825439453E-1,-7.484313965E0,3.911590576E0
1.932524541E0,-4.382476807E-1,-7.463958740E0,3.870895386E0
1.935057500E0,-3.807830811E-1,-7.382553101E0,3.850540161E0
1.937620977E0,-2.874145508E-1,-7.322692871E0,3.852935791E0
1.940153936E0,-2.933959961E-1,-7.376571655E0,3.850540161E0
1.942686895E0,-3.053741455E-1,-7.356216431E0,3.909194946E0
1.945219854E0,-3.065643311E-1,-7.325088501E0,3.870895386E0
1.947752813E0,-3.293151855E-1,-7.299957275E0,3.880462646E0
1.950316289E0,-3.365020752E-1,-7.229324341E0,3.923568726E0
1.952849248E0,-3.807830811E-1,-7.261642456E0,3.909194946E0
1.955382207E0,-3.700103760E-1,-7.295166016E0,3.846954346E0
1.957915166E0,-3.795928955E-1,-7.220947266E0,3.783508301E0
1.960478643E0,-3.724060059E-1,-7.202987671E0,3.741607666E0
1.963011602E0,-4.178924561E-1,-7.141937256E0,3.732025146E0
1.965544561E0,-4.873352051E-1,-7.155105591E0,3.647033691E0
1.968077520E0,-5.340118408E-1,-7.164688110E0,3.606338501E0
1.970610479E0,-6.118316650E-1,-7.135955811E0,3.572814941E0
1.973173955E0,-6.261901855E-1,-7.107223511E0,3.522537231E0
1.975706914E0,-6.202087402E-1,-7.025817871E0,3.576400757E0
1.978239873E0,-6.776733398E-1,-7.017440796E0,3.606338501E0
1.980772832E0,-7.518920898E-1,-6.989898682E0,3.605133057E0
1.983336309E0,-8.428649902E-1,-6.985122681E0,3.650619507E0
1.985869268E0,-9.410247803E-1,-7.010253906E0,3.718856812E0
1.988402227E0,-1.088272095E0,-7.018630981E0,3.775131226E0
1.990935186E0,-1.192428589E0,-7.059341431E0,3.903213501E0
1.993498662E0,-1.316925049E0,-7.066513062E0,3.969055176E0
1.996031621E0,-1.368392944E0,-7.092849731E0,4.063629150E0
1.998564580E0,-1.489303589E0,-7.109619141E0,4.289871216E0
2.001097539E0,-1.552749634E0,-7.072509766E0,4.440719604E0
2.003630498E0,-1.598236084E0,-7.041381836E0,4.650207520E0
2.006163457E0,-1.678451538E0,-7.013839722E0,4.781890869E0
2.008726934E0,-1.720336914E0,-7.011459351E0,5.034469604E0
2.011259893E0,-1.717956543E0,-7.036590576E0,5.290649414E0
2.013792852E0,-1.822097778E0,-7.004272461E0,5.469024658E0
2.016356328E0,-2.008850098E0,-7.015045166E0,5.660552979E0
2.018889287E0,-2.147705078E0,-7.010253906E0,5.872451782E0
2.021422246E0,-2.382339478E0,-7.033004761E0,6.017288208E0
2.023955205E0,-2.510437012E0,-7.077285767E0,6.192077637E0
2.026488164E0,-2.633728027E0,-7.107223511E0,6.284255981E0
2.029051641E0,-2.800125122E0,-7.199401855E0,6.399169922E0
2.031584600E0,-2.942581177E0,-7.264038086E0,6.451843262E0
2.034117559E0,-3.077850342E0,-7.274810791E0,6.533248901E0
2.036650518E0,-3.203552246E0,-7.310729980E0,6.588317871E0
2.039213994E0,-3.286148071E0,-7.298751831E0,6.697250366E0
2.041746953E0,-3.353195190E0,-7.297561646E0,6.796600342E0
2.044279912E0,-3.387908936E0,-7.316711426E0,6.979766846E0
2.046812871E0,-3.407058716E0,-7.299957275E0,7.123413086E0
2.049345830E0,-3.428604126E0,-7.280792236E0,7.282623291E0
2.051909307E0,-3.500427246E0,-7.211364746E0,7.429870605E0
2.054442266E0,-3.499237061E0,-7.202987671E0,7.609436035E0
2.056975225E0,-3.569869995E0,-7.299957275E0,7.743515015E0
2.059508184E0,-3.640487671E0,-7.319107056E0,7.935043335E0
2.062071660E0,-3.712326050E0,-7.401702881E0,8.167282104E0
2.064604619E0,-3.764999390E0,-7.465148926E0,8.374389648E0
2.067137578E0,-3.764999390E0,-7.556137085E0,8.561126709E0
2.069670537E0,-3.821258545E0,-7.636337280E0,8.704788208E0
2.072203496E0,-3.767379761E0,-7.678237915E0,8.802947998E0
2.074766973E0,-3.701553345E0,-7.730911255E0,8.988494873E0
2.077299932E0,-3.615356445E0,-7.738098145E0,9.091445923E0
2.079832891E0,-3.523178101E0,-7.704574585E0,9.166870117E0
2.082365850E0,-3.381927490E0,-7.717742920E0,9.281784058E0
2.084929326E0,-3.240661621E0,-7.684219360E0,9.305725098E0
2.087462285E0,-3.052719116E0,-7.599227905E0,9.382339478E0
2.089995244E0,-2.840835571E0,-7.507049561E0,9.339248657E0
2.092528203E0,-2.594223022E0,-7.444808960E0,9.322494507E0
2.095061162E0,-2.423049927E0,-7.414871216E0,9.268615723E0
2.097624639E0,-2.292556763E0,-7.371780396E0,9.180038452E0
2.100157598E0,-2.169250488E0,-7.281997681E0,9.091445923E0
2.102690557E0,-2.086654663E0,-7.195800781E0,8.980117798E0
2.105223516E0,-2.054336548E0,-7.228134155E0,8.753860474E0
2.107786992E0,-2.022018433E0,-7.192214966E0,8.594650269E0
2.110350469E0,-1.996871948E0,-7.180236816E0,8.387557983E0
2.112883428E0,-1.965744019E0,-7.195800781E0,8.126586914E0
2.115416387E0,-2.027999878E0,-7.264038086E0,7.790206909E0
2.117979864E0,-2.038772583E0,-7.371780396E0,7.396362305E0
2.120512823E0,-2.177642822E0,-7.653091431E0,7.100677490E0
2.123045782E0,-2.314102173E0,-7.948776245E0,6.693649292E0
2.125578741E0,-2.482894897E0,-8.233688354E0,6.378814697E0
2.128111699E0,-2.616973877E0,-8.473114014E0,6.002929688E0
2.130675176E0,-2.682815552E0,-8.821472168E0,5.563598633E0
2.133208135E0,-2.776184082E0,-9.150665283E0,5.229598999E0
2.135741094E0,-2.755844116E0,-9.560073853E0,4.844131470E0
2.138274053E0,-2.694778442E0,-9.977874756E0,4.596328735E0
2.140837530E0,-2.585845947E0,-1.043994141E1,4.332977295E0
2.143370489E0,-2.437408447E0,-1.091998291E1,4.140243530E0
2.145903448E0,-2.366775513E0,-1.145030212E1,3.924758911E0
2.148436407E0,-2.259033203E0,-1.201174927E1,3.763153076E0
2.150969366E0,-2.253051758E0,-1.258755493E1,3.524932861E0
2.153532842E0,-2.197982788E0,-1.330342102E1,3.040100098E0
2.156065801E0,-2.104614258E0,-1.397618103E1,2.586410522E0
2.158598760E0,-2.181228638E0,-1.470642090E1,2.253616333E0
2.161131719E0,-2.254257202E0,-1.540432739E1,1.858566284E0
2.163695196E0,-2.314102173E0,-1.619322205E1,1.483871460E0
2.166228155E0,-2.323684692E0,-1.700245667E1,1.183395386E0
2.168761114E0,-2.330871582E0,-1.785957336E1,9.870758057E-1
2.171294073E0,-2.242279053E0,-1.855868530E1,8.793334961E-1
2.173827032E0,-2.083068848E0,-1.926138306E1,8.146972656E-1
2.176390508E0,-1.824493408E0,-1.968037415E1,9.152526855E-1
2.178923467E0,-1.454589844E0,-2.007901001E1,1.146286011E0
2.181456426E0,-1.156509399E0,-2.018196106E1,1.398880005E0
2.183989385E0,-9.518127441E-1,-1.993295288E1,1.582031250E0
2.186552862E0,-4.992980957E-1,-1.949841309E1,1.876525879E0
2.189085821E0,-1.605224609E-1,-1.877775574E1,2.144668579E0
2.191618780E0,2.692413330E-1,-1.765008545E1,2.248825073E0
2.194151739E0,7.277221680E-1,-1.620639038E1,2.326629639E0
2.196684698E0,1.098831177E0,-1.460107422E1,2.307479858E0
2.199248174E0,1.262832642E0,-1.303407288E1,2.343399048E0
2.201781133E0,1.292755127E0,-1.158198547E1,2.333816528E0
2.204314092E0,1.192199707E0,-1.038009644E1,2.300292969E0
2.206847051E0,9.767303467E-1,-9.394882202E0,2.281143188E0
2.209410528E0,7.600555420E-1,-8.592819214E0,2.223678589E0
2.211943487E0,5.888671875E-1,-7.855407715E0,2.208114624E0
2.214476446E0,4.512023926E-1,-7.323898315E0,2.294311523E0
2.217009405E0,3.302917480E-1,-6.873779297E0,2.306289673E0
2.219572881E0,2.596588135E-1,-6.393753052E0,2.431976318E0
2.222105840E0,1.471405029E-1,-6.013076782E0,2.506195068E0
2.224638799E0,-1.653137207E-1,-5.737731934E0,2.634292603E0
2.227171758E0,-5.088806152E-1,-5.676681519E0,2.836593628E0
2.229704717E0,-9.984893799E-1,-5.716186523E0,3.046096802E0
2.232268194E0,-1.676055908E0,-5.758087158E0,3.389663696E0
2.234801153E0,-2.247070312E0,-5.761672974E0,3.657806396E0
2.237334112E0,-2.694778442E0,-5.692245483E0,3.819412231E0
2.239867071E0,-2.721115112E0,-5.594085693E0,3.815826416E0
2.242430547E0,-2.505645752E0,-5.536621094E0,3.700897217E0
2.244963506E0,-2.081863403E0,-5.582107544E0,3.577606201E0
2.247496465E0,-1.673660278E0,-5.668304443E0,3.503387451E0
2.250029424E0,-1.386352539E0,-5.720977783E0,3.502182007E0
2.252562383E0,-1.149322510E0,-5.698226929E0,3.534515381E0
2.255125860E0,-9.565887451E-1,-5.758087158E0,3.643447876E0
2.257658819E0,-8.560333252E-1,-5.827514648E0,3.706893921E0
2.260191778E0,-7.255554199E-1,-6.065734863E0,3.723648071E0
2.262724737E0,-5.136718750E-1,-6.277633667E0,3.699707031E0
2.265288213E0,-3.281097412E-1,-6.421279907E0,3.647033691E0
2.267821172E0,-1.102447510E-1,-6.622390747E0,3.667388916E0
2.270354131E0,2.189636230E-1,-6.834274292E0,3.662597656E0
2.272887090E0,3.290863037E-1,-7.083282471E0,3.694915771E0
2.275450567E0,6.642761230E-1,-7.358612061E0,3.649429321E0
2.277983526E0,1.259246826E0,-7.669860840E0,3.471054077E0
2.280516485E0,1.700973511E0,-7.984695435E0,3.200515747E0
2.283049444E0,2.133117676E0,-8.294738770E0,2.848571777E0
2.285582403E0,2.610763550E0,-8.737670898E0,2.402053833E0
2.288145879E0,3.010604858E0,-9.148269653E0,2.015380859E0
2.290678838E0,3.263183594E0,-9.566070557E0,1.549713135E0
2.293211797E0,3.508590698E0,-1.004849243E1,1.159454346E0
2.295744756E0,3.715698242E0,-1.063746643E1,7.883605957E-1
2.298277715E0,3.466690063E0,-1.115222168E1,5.106353760E-1
2.300841192E0,2.999816895E0,-1.183337402E1,1.526947021E-1
2.303374151E0,2.762802124E0,-1.255761719E1,-1.849365234E-2
2.305907110E0,3.385284424E0,-1.307835388E1,1.072082520E-1
2.308440069E0,3.913208008E0,-1.348417664E1,9.164428711E-2
2.311003545E0,3.759979248E0,-1.367930603E1,-1.848907471E-1
2.313536504E0,3.174606323E0,-1.386843872E1,1.742401123E-1
2.316069463E0,3.545700073E0,-1.410307312E1,1.568862915E0
2.318602422E0,4.265167236E0,-1.402766418E1,2.704910278E0
2.321135381E0,4.291488647E0,-1.400372314E1,3.352554321E0
2.323698858E0,4.231643677E0,-1.408392334E1,3.948699951E0
2.326231817E0,4.107147217E0,-1.384928894E1,4.488601685E0
2.328764776E0,3.957504272E0,-1.354043579E1,4.962646484E0
2.331297735E0,4.001800537E0,-1.326271057E1,5.374450684E0
2.333861211E0,3.680969238E0,-1.301730347E1,5.703659058E0
2.336394170E0,3.537322998E0,-1.263662720E1,5.925125122E0
2.338927129E0,3.527740479E0,-1.218531799E1,6.127426147E0
2.341460088E0,3.281143188E0,-1.178668213E1,6.232772827E0
2.343993047E0,2.912429810E0,-1.114503479E1,6.122634888E0
2.346556524E0,2.427612305E0,-1.050100708E1,5.816177368E0
2.349089483E0,1.939193726E0,-9.926391602E0,5.559997559E0
2.351622442E0,1.953552246E0,-9.186584473E0,5.569580078E0
2.354155401E0,2.026580811E0,-8.422836304E0,5.555221558E0
2.356718877E0,2.007431030E0,-7.969131470E0,5.129043579E0
2.359251836E0,1.699768066E0,-7.722534180E0,4.628662109E0
2.361784795E0,1.247268677E0,-7.606414795E0,4.395217896E0
2.364317754E0,8.929290771E-1,-7.560928345E0,4.197708130E0
2.366850713E0,6.247711182E-1,-7.508255005E0,3.892440796E0
2.369414190E0,3.877563477E-1,-7.454376221E0,3.621902466E0
2.371947149E0,2.572631836E-1,-7.349029541E0,3.566833496E0
2.374480108E0,1.411437988E-1,-7.220947266E0,3.660202026E0
2.377013067E0,-5.638122559E-2,-7.100036621E0,3.656616211E0
2.379576543E0,-2.012176514E-1,-7.076095581E0,3.526123047E0
2.382109502E0,-1.581268311E-1,-7.102432251E0,3.350158691E0
2.384642461E0,-7.672119141E-2,-7.201797485E0,3.204101562E0
2.387175420E0,1.567077637E-1,-7.286788940E0,3.404022217E0
2.389708379E0,3.614196777E-1,-7.478317261E0,3.728439331E0
2.392271856E0,4.559783936E-1,-7.668655396E0,3.827804565E0
2.394835332E0,4.883117676E-1,-7.820693970E0,3.897232056E0
2.397368291E0,4.751434326E-1,-7.990676880E0,3.991806030E0
2.399901250E0,5.457611084E-1,-8.238479614E0,3.959472656E0
2.402464727E0,6.020355225E-1,-8.385726929E0,3.908004761E0
2.404997686E0,6.187896729E-1,-8.444381714E0,3.688934326E0
2.407530645E0,6.846313477E-1,-8.511413574E0,3.429168701E0
2.410063604E0,8.438415527E-1,-8.526977539E0,3.205307007E0
2.412627080E0,8.235015869E-1,-8.566482544E0,2.989822388E0
2.415160039E0,7.360992432E-1,-8.621551514E0,2.827026367E0
2.417692998E0,7.875823975E-1,-8.711334229E0,2.882095337E0
2.420225957E0,8.989105225E-1,-8.868148804E0,3.026931763E0
2.422758916E0,1.193405151E0,-9.218902588E0,3.435150146E0
2.425322393E0,1.236495972E0,-9.459518433E0,3.802658081E0
2.427855352E0,1.107208252E0,-9.447555542E0,3.715270996E0
2.430388311E0,1.019821167E0,-9.380508423E0,3.661407471E0
2.432921270E0,8.151092529E-1,-9.369735718E0,3.625488281E0
2.435484746E0,8.462371826E-1,-9.457122803E0,3.801467896E0
2.438017705E0,1.179031372E0,-9.775558472E0,4.145034790E0
2.440550664E0,1.067703247E0,-9.956314087E0,4.299453735E0
2.443083623E0,8.929290771E-1,-9.714508057E0,4.323394775E0
2.445616582E0,7.660369873E-1,-9.679794312E0,4.237213135E0
2.448180059E0,7.995605469E-1,-9.837814331E0,4.207275391E0
2.450713018E0,7.923736572E-1,-9.906036377E0,4.238403320E0
2.453245977E0,6.786499023E-1,-9.805480957E0,4.225234985E0
2.455778936E0,6.786499023E-1,-9.706130981E0,4.159393311E0
2.458342412E0,6.690673828E-1,-9.603179932E0,4.190521240E0
2.460875371E0,8.055419922E-1,-9.700134277E0,4.203689575E0
2.463408330E0,1.071289062E0,-9.909637451E0,4.051651001E0
2.465941289E0,1.181427002E0,-9.900054932E0,3.732025146E0
2.468474248E0,1.146713257E0,-9.771972656E0,3.269943237E0
2.471037725E0,8.977203369E-1,-9.580429077E0,2.859344482E0
2.473570684E0,7.420959473E-1,-9.418823242E0,2.654632568E0
2.476103643E0,6.343536377E-1,-9.252426147E0,2.698928833E0
2.478636602E0,5.804901123E-1,-9.172225952E0,2.686965942E0
2.481200078E0,4.823150635E-1,-9.015396118E0,2.708511353E0
2.483733037E0,3.925323486E-1,-8.932800293E0,2.716888428E0
2.486265996E0,3.925323486E-1,-8.804702759E0,2.779144287E0
2.488798955E0,3.255004883E-1,-8.655075073E0,2.853363037E0
2.491331914E0,1.231842041E-1,-8.462341309E0,3.044891357E0
2.493895391E0,2.981567383E-2,-8.246856689E0,3.204101562E0
2.496428350E0,-2.165222168E-2,-8.100814819E0,3.307052612E0
2.498961309E0,-2.167816162E-1,-7.875762939E0,3.433944702E0
2.501494268E0,-1.964416504E-1,-7.647109985E0,3.495010376E0
2.504057744E0,-1.018676758E-1,-7.520217896E0,3.509368896E0
2.506590703E0,7.650756836E-2,-7.498672485E0,3.477050781E0
2.509123662E0,2.237548828E-1,-7.480712891E0,3.407608032E0
2.511656621E0,4.440155029E-1,-7.520217896E0,3.420776367E0
2.514189580E0,5.002746582E-1,-7.551345825E0,3.418395996E0
2.516753057E0,4.918975830E-1,-7.659088135E0,3.406417847E0
2.519286016E0,6.762542725E-1,-7.868576050E0,3.347763062E0
2.521818975E0,7.959594727E-1,-8.163055420E0,3.341781616E0
2.524351934E0,7.720184326E-1,-8.352203369E0,3.327407837E0
2.526915410E0,6.930084229E-1,-8.433609009E0,3.219665527E0
2.529448369E0,7.935638428E-1,-8.499450684E0,3.311843872E0
2.531981328E0,8.773651123E-1,-8.622756958E0,3.278335571E0
2.534514287E0,9.432067871E-1,-8.736480713E0,3.222061157E0
2.537077764E0,1.067703247E0,-8.752029419E0,3.219665527E0
2.539610723E0,1.070098877E0,-8.839431763E0,3.253189087E0
2.542143682E0,1.012634277E0,-8.835830688E0,3.369308472E0
2.544676641E0,1.107208252E0,-8.819076538E0,3.484222412E0
2.547209600E0,1.180236816E0,-8.983078003E0,3.552459717E0
2.549773076E0,1.252059937E0,-9.159057617E0,3.478240967E0
2.552306035E0,1.241287231E0,-9.306289673E0,3.506973267E0
2.554838994E0,1.170654297E0,-9.343399048E0,3.516555786E0
2.557371953E0,1.108398438E0,-9.373336792E0,3.533309937E0
2.559935430E0,9.108886719E-1,-9.447555542E0,3.528518677E0
2.562468389E0,7.792053223E-1,-9.415237427E0,3.572814941E0
2.565001348E0,6.283721924E-1,-9.375732422E0,3.620697021E0
2.567534307E0,6.235809326E-1,-9.252426147E0,3.601547241E0
2.570067266E0,5.182342529E-1,-8.942382812E0,3.529724121E0
2.572630742E0,3.470458984E-1,-8.883712769E0,3.578796387E0
2.575163701E0,2.357177734E-1,-8.955551147E0,3.619506836E0
2.577696660E0,8.967590332E-2,-9.075256348E0,3.551269531E0
2.580229619E0,-1.068115234E-4,-9.022583008E0,3.566833496E0
2.582793096E0,-5.517578125E-2,-8.986663818E0,3.550064087E0
2.585326055E0,-1.018676758E-1,-9.008209229E0,3.529724121E0
2.587859014E0,-1.581268311E-1,-8.992660522E0,3.484222412E0
2.590391973E0,-2.143859863E-1,-8.901672363E0,3.469863892E0
2.592924932E0,-2.371368408E-1,-8.848999023E0,3.423171997E0
2.595488408E0,-1.928405762E-1,-8.850204468E0,3.491409302E0
2.598021367E0,-1.964416504E-1,-8.795135498E0,3.509368896E0
2.600554326E0,-2.443237305E-1,-8.808303833E0,3.498596191E0
2.603087285E0,-2.215728760E-1,-8.758026123E0,3.505783081E0
2.605650762E0,4.684448242E-3,-8.834640503E0,3.541687012E0
2.608183721E0,-1.377716064E-1,-8.801116943E0,3.506973267E0
2.610716680E0,-4.083251953E-1,-8.493469238E0,3.662597656E0
2.613249639E0,-3.233337402E-1,-8.266006470E0,3.560836792E0
2.615782598E0,-3.484649658E-1,-8.076873779E0,3.520141602E0
2.618346074E0,-4.023437500E-1,-7.917663574E0,3.654220581E0
2.620879033E0,-4.262847900E-1,-7.629150391E0,3.635070801E0
2.623411992E0,-3.520507812E-1,-7.540573120E0,3.576400757E0
2.625944951E0,-2.060089111E-1,-7.556137085E0,3.613510132E0
2.628508428E0,-4.679870605E-2,-7.428039551E0,3.693725586E0
2.631041387E0,1.938171387E-1,-7.327484131E0,3.679351807E0
2.633574346E0,2.981567383E-2,-7.230514526E0,3.611129761E0
2.636107305E0,-1.222076416E-1,-7.108413696E0,3.675765991E0
2.638670782E0,-7.293701172E-3,-7.250869751E0,3.849349976E0
2.641203741E0,3.221130371E-2,-7.418472290E0,3.930755615E0
2.643736699E0,-7.553100586E-2,-7.327484131E0,4.025314331E0
2.646269658E0,-1.327514648E-2,-7.340652466E0,4.140243530E0
2.648802617E0,1.004486084E-1,-7.438812256E0,4.243194580E0
2.651366094E0,2.416992188E-1,-7.429244995E0,4.233612061E0
2.653899053E0,4.045104980E-1,-7.451980591E0,4.360504150E0
2.656432012E0,5.768890381E-1,-7.533386230E0,4.371276855E0
2.658964971E0,8.019409180E-1,-7.619583130E0,4.313827515E0
2.661528448E0,9.946746826E-1,-7.721328735E0,4.324600220E0
2.664061407E0,1.165863037E0,-7.898498535E0,4.439514160E0
2.666594366E0,1.325073242E0,-7.994277954E0,4.459869385E0
2.669127324E0,1.505844116E0,-8.105606079E0,4.471832275E0
2.671660283E0,1.624359131E0,-8.163055420E0,4.455078125E0
2.674223760E0,1.688995361E0,-8.182220459E0,4.590347290E0
2.676756719E0,1.704559326E0,-8.060119629E0,4.670562744E0
2.679289678E0,1.742874146E0,-8.040954590E0,4.682525635E0
2.681853155E0,1.959548950E0,-8.163055420E0,4.827377319E0
2.684416631E0,2.116363525E0,-8.171447754E0,4.845336914E0
2.686949590E0,2.251632690E0,-8.112777710E0,4.871673584E0
2.689482549E0,2.463516235E0,-8.313903809E0,4.917160034E0
2.692015508E0,2.372543335E0,-8.446777344E0,4.877655029E0
2.694548467E0,1.993057251E0,-8.507827759E0,4.907577515E0
2.697111944E0,2.022994995E0,-8.597610474E0,4.961456299E0
2.699644903E0,2.163055420E0,-8.570083618E0,5.015319824E0
2.702177862E0,2.182205200E0,-8.487472534E0,5.038070679E0
2.704710821E0,2.273178101E0,-8.436004639E0,5.075180054E0
2.707274297E0,2.465911865E0,-8.479095459E0,5.129043579E0
2.709807256E0,2.588027954E0,-8.605987549E0,5.045242310E0
2.712340215E0,2.653869629E0,-8.730484009E0,5.066802979E0
2.714873174E0,2.833419800E0,-8.791534424E0,5.081161499E0
2.717406133E0,2.907653809E0,-8.889709473E0,5.087142944E0
2.719969610E0,2.886093140E0,-8.981872559E0,5.089538574E0
2.722502569E0,3.001022339E0,-9.230880737E0,5.112289429E0
2.725035528E0,3.039321899E0,-9.338623047E0,5.064407349E0
2.727568487E0,2.959121704E0,-9.374526978E0,5.137420654E0
2.730131963E0,3.060882568E0,-9.481063843E0,5.212844849E0
2.732664922E0,3.144668579E0,-9.645080566E0,5.150588989E0
2.735197881E0,3.131500244E0,-9.752807617E0,5.184112549E0
2.737730840E0,3.060882568E0,-9.821044922E0,5.258331299E0
2.740263799E0,3.047714233E0,-9.799499512E0,5.297836304E0
2.742827276E0,2.901657104E0,-9.793518066E0,5.277481079E0
2.745360235E0,2.735260010E0,-9.800689697E0,5.327758789E0
2.747893194E0,2.574859619E0,-9.825836182E0,5.352905273E0
2.750426153E0,2.352188110E0,-9.764785767E0,5.388824463E0
2.752989629E0,2.179809570E0,-9.718093872E0,5.446273804E0
2.755522588E0,2.002639771E0,-9.647460938E0,5.472610474E0
2.758055547E0,1.824264526E0,-9.610351562E0,5.489379883E0
2.760588506E0,1.599212646E0,-9.528961182E0,5.506134033E0
2.763121465E0,1.368179321E0,-9.497833252E0,5.587539673E0
2.765684942E0,1.173049927E0,-9.443954468E0,5.619857788E0
2.768217901E0,1.024612427E0,-9.362564087E0,5.634216309E0
2.770750860E0,8.378601074E-1,-9.317062378E0,5.671325684E0
2.773283819E0,6.463165283E-1,-9.267990112E0,5.720413208E0
2.775847295E0,5.912628174E-1,-9.111160278E0,5.686889648E0
2.778380254E0,5.912628174E-1,-8.944763184E0,5.684494019E0
2.780913213E0,4.380340576E-1,-8.943572998E0,5.712036133E0
2.783446172E0,2.967681885E-1,-8.925613403E0,5.666549683E0
2.786009649E0,2.680358887E-1,-8.848999023E0,5.591125488E0
2.788542608E0,1.782531738E-1,-8.783157349E0,5.550430298E0
2.791075567E0,1.231842041E-1,-8.754425049E0,5.482192993E0
2.793608526E0,3.939819336E-2,-8.804702759E0,5.537261963E0
2.796141485E0,-5.158996582E-2,-8.707748413E0,5.518096924E0
2.798704961E0,-9.707641602E-2,-8.743652344E0,5.501342773E0
2.801237920E0,-1.581268311E-1,-8.839431763E0,5.477401733E0
2.803770879E0,-3.017730713E-1,-8.881317139E0,5.564788818E0
2.806303838E0,-3.496704102E-1,-8.947158813E0,5.668945312E0
2.808867315E0,-4.454345703E-1,-8.969909668E0,5.767105103E0
2.811400274E0,-4.765625000E-1,-8.941177368E0,5.879623413E0
2.813933233E0,-4.837341309E-1,-8.912445068E0,5.982574463E0
2.816466192E0,-4.562072754E-1,-8.858581543E0,6.107070923E0
2.818999151E0,-4.837341309E-1,-8.796325684E0,6.202850342E0
2.821562627E0,-4.047241211E-1,-8.712539673E0,6.324951172E0
2.824095586E0,-3.688201904E-1,-8.559295654E0,6.415924072E0
2.826628545E0,-3.807830811E-1,-8.465927124E0,6.524871826E0
2.829161504E0,-3.640289307E-1,-8.431213379E0,6.551208496E0
2.831724981E0,-4.334564209E-1,-8.409667969E0,6.560775757E0
2.834257940E0,-3.999481201E-1,-8.347412109E0,6.597885132E0
2.836790899E0,-3.628387451E-1,-8.354598999E0,6.569152832E0
2.839323858E0,-4.621887207E-1,-8.329452515E0,6.470993042E0
2.841856817E0,-5.076751709E-1,-8.252838135E0,6.364456177E0
2.844420293E0,-5.914764404E-1,-8.112777710E0,6.216018677E0
2.846953252E0,-7.566833496E-1,-7.933212280E0,6.153762817E0
2.849486211E0,-9.158935547E-1,-7.751266479E0,6.005325317E0
2.852019170E0,-1.053558350E0,-7.568099976E0,5.864059448E0
2.854582647E0,-1.197204590E0,-7.334671021E0,5.658157349E0
2.857115606E0,-1.403106689E0,-7.122787476E0,5.475006104E0
2.859648565E0,-1.582672119E0,-7.033004761E0,5.452270508E0
2.862181524E0,-1.774215698E0,-6.934829712E0,5.305023193E0
2.864714483E0,-2.014831543E0,-6.740905762E0,5.052429199E0
2.867277959E0,-2.108200073E0,-6.783996582E0,5.036865234E0
2.869810918E0,-2.250656128E0,-6.688232422E0,4.941101074E0
2.872343877E0,-2.265029907E0,-6.521835327E0,4.824981689E0
2.874876836E0,-2.300933838E0,-6.434448242E0,4.749557495E0
2.877440313E0,-2.405090332E0,-6.438034058E0,4.664566040E0
2.879973272E0,-2.406280518E0,-6.421279907E0,4.556838989E0
2.882506231E0,-2.442199707E0,-6.264465332E0,4.212066650E0
2.885039190E0,-2.437408447E0,-6.214187622E0,3.903213501E0
2.887572149E0,-2.378753662E0,-6.130386353E0,3.575210571E0
2.890135625E0,-2.292556763E0,-6.095672607E0,3.445922852E0
2.892668584E0,-2.168060303E0,-6.106445312E0,3.210098267E0
2.895201543E0,-2.071090698E0,-6.185455322E0,3.097564697E0
2.897734502E0,-1.953781128E0,-6.205795288E0,3.099960327E0
2.900297979E0,-1.807739258E0,-6.166305542E0,3.138259888E0
2.902830938E0,-1.582672119E0,-6.205795288E0,3.156219482E0
2.905363897E0,-1.377975464E0,-6.281219482E0,3.222061157E0
2.907896856E0,-1.241500854E0,-6.349456787E0,3.265167236E0
2.910429815E0,-1.051162720E0,-6.530212402E0,3.336990356E0
2.912993291E0,-7.710418701E-1,-6.883361816E0,3.366912842E0
2.915526250E0,-5.088806152E-1,-7.260452271E0,3.559646606E0
2.918059209E0,-2.598876953E-1,-7.818298340E0,3.954696655E0
2.920592168E0,-3.209381104E-1,-8.644302368E0,4.359313965E0
2.923155645E0,-4.178924561E-1,-9.540924072E0,4.857299805E0
2.925688604E0,-8.483886719E-3,-1.007962036E1,5.058410645E0
2.928221563E0,2.069854736E-1,-1.086970520E1,5.228408813E0
2.930754522E0,2.476959229E-1,-1.175077820E1,5.344528198E0
2.933317998E0,3.326873779E-1,-1.270365906E1,5.519302368E0
2.935850957E0,5.218200684E-1,-1.363859558E1,5.744354248E0
2.938383916E0,7.373046875E-1,-1.457713318E1,5.917938232E0
2.940916875E0,8.534240723E-1,-1.547615051E1,5.980178833E0
2.943449834E0,9.815063477E-1,-1.637756348E1,5.853286743E0
2.946013311E0,1.125167847E0,-1.728976440E1,5.812591553E0
2.948546270E0,1.333465576E0,-1.814448547E1,5.723999023E0
2.951079229E0,1.592041016E0,-1.881246948E1,5.431915283E0
2.953612188E0,2.025390625E0,-1.936193848E1,5.063201904E0
2.956175664E0,2.346206665E0,-1.984437561E1,4.785476685E0
2.958708623E0,2.507812500E0,-2.012091064E1,4.352127075E0
2.961241582E0,2.662246704E0,-2.026097107E1,3.904418945E0
2.963774541E0,2.717315674E0,-2.021667480E1,3.580001831E0
2.966338018E0,2.797515869E0,-1.992697144E1,3.290298462E0
2.968901494E0,2.835815430E0,-1.940502930E1,3.161010742E0
2.971434453E0,2.767593384E0,-1.881726074E1,2.962295532E0
2.973967412E0,2.433593750E0,-1.818997192E1,2.686965942E0
2.976500371E0,2.125946045E0,-1.746693420E1,2.455917358E0
2.979063848E0,2.062500000E0,-1.679895020E1,2.384094238E0
2.981596807E0,1.971511841E0,-1.617405701E1,2.336212158E0
2.984129766E0,1.581253052E0,-1.565332031E1,2.209320068E0
2.986662725E0,1.253250122E0,-1.512779236E1,2.306289673E0
2.989195684E0,8.438415527E-1,-1.453283691E1,2.466690063E0
2.991759160E0,2.620544434E-1,-1.399653625E1,2.551681519E0
2.994292119E0,-1.449584961E-1,-1.346142578E1,2.698928833E0
2.996825078E0,-2.682647705E-1,-1.291914368E1,2.827026367E0
2.999358037E0,-3.915557861E-1,-1.248220825E1,2.926376343E0
3.001921514E0,-4.945068359E-1,-1.209674072E1,2.951522827E0
3.004454473E0,-6.321868896E-1,-1.170050049E1,2.969482422E0
3.006987432E0,-8.728027344E-1,-1.134495544E1,2.967086792E0
3.009520391E0,-1.015258789E0,-1.101216125E1,2.964691162E0
3.012053350E0,-1.158905029E0,-1.074639893E1,2.844970703E0
3.014616826E0,-1.286987305E0,-1.046748352E1,2.534927368E0
3.017149785E0,-1.363601685E0,-1.028193665E1,2.103973389E0
3.019682744E0,-1.522827148E0,-1.009039307E1,1.655059814E0
3.022215703E0,-1.692810059E0,-9.919204712E0,1.252838135E0
3.024779180E0,-1.962158203E0,-9.815063477E0,7.871551514E-1
3.027312139E0,-2.387130737E0,-9.750411987E0,5.046386719E-1
3.029845098E0,-2.596618652E0,-9.673797607E0,3.909149170E-1
3.032378057E0,-2.826461792E0,-9.622329712E0,2.819824219E-1
3.034941533E0,-3.113769531E0,-9.606765747E0,1.874084473E-1
3.037474492E0,-3.311294556E0,-9.483459473E0,9.403991699E-2
3.040007451E0,-3.464523315E0,-9.267990112E0,5.572509766E-2
3.042540410E0,-3.481277466E0,-9.169830322E0,1.562957764E-1
3.045073369E0,-3.378326416E0,-9.112365723E0,2.855834961E-1
3.047636846E0,-3.118560791E0,-8.920822144E0,4.028930664E-1
3.050169805E0,-2.603805542E0,-8.741256714E0,6.937866211E-1
3.052702764E0,-2.238693237E0,-8.616760254E0,8.769378662E-1
3.055235723E0,-2.103424072E0,-8.391708374E0,9.631347656E-1
3.057799199E0,-1.909484863E0,-8.222915649E0,1.091232300E0
3.060332158E0,-1.616195679E0,-8.034973145E0,1.214523315E0
3.062865117E0,-1.260650635E0,-7.985885620E0,1.439575195E0
3.065398076E0,-8.452606201E-1,-7.900894165E0,1.719696045E0
3.067931035E0,-5.424041748E-1,-7.692596436E0,2.032150269E0
3.070494512E0,-6.010589600E-1,-7.666259766E0,2.244033813E0
3.073027471E0,-7.542877197E-1,-7.700988770E0,2.500213623E0
3.075560430E0,-6.417541504E-1,-7.580078125E0,2.806671143E0
3.078093389E0,-5.160675049E-1,-7.586059570E0,3.151428223E0
3.080656866E0,-3.975524902E-1,-7.659088135E0,3.347763062E0
3.083189824E0,-3.305053711E-1,-7.671051025E0,3.506973267E0
3.085722783E0,-2.443237305E-1,-7.606414795E0,3.703292847E0
3.088255742E0,-1.389770508E-1,-7.596832275E0,3.814636230E0
3.090788701E0,-1.688995361E-1,-7.598037720E0,3.898422241E0
3.093352178E0,-1.772766113E-1,-7.613586426E0,3.973846436E0
3.095885137E0,-2.682647705E-1,-7.600418091E0,4.019332886E0
3.098418096E0,-1.138305664E-1,-7.565704346E0,4.081588745E0
3.100951055E0,2.620544434E-1,-7.686614990E0,4.353317261E0
3.103514532E0,4.691467285E-1,-7.864990234E0,4.619079590E0
3.106047491E0,3.841552734E-1,-7.938003540E0,4.757949829E0
3.108580449E0,2.512817383E-1,-7.993072510E0,4.868072510E0
3.111113408E0,1.710815430E-1,-8.037368774E0,4.984191895E0
3.113646367E0,8.129882812E-2,-8.136734009E0,4.968627930E0
3.116209844E0,3.102111816E-2,-8.187011719E0,4.900405884E0
3.118742803E0,9.805297852E-2,-8.164260864E0,4.748367310E0
3.121275762E0,2.369079590E-1,-8.243270874E0,4.581970215E0
3.123808721E0,3.159179688E-1,-8.325866699E0,4.380859375E0
3.126372198E0,3.386688232E-1,-8.343826294E0,4.224044800E0
3.128905157E0,3.350830078E-1,-8.358184814E0,3.992996216E0
3.131438116E0,4.775390625E-1,-8.445571899E0,3.876876831E0
3.133971074E0,7.121582031E-1,-8.499450684E0,3.775131226E0
3.136504033E0,9.037017822E-1,-8.540145874E0,3.609924316E0
3.139067510E0,1.048553467E0,-8.608383179E0,3.518951416E0
3.141600469E0,1.168258667E0,-8.749649048E0,3.330993652E0
3.144133428E0,1.293960571E0,-8.863372803E0,3.131088257E0
3.146666387E0,1.364578247E0,-9.009414673E0,2.912017822E0
3.149229864E0,1.473526001E0,-9.065673828E0,2.682174683E0
3.151762823E0,1.522598267E0,-9.162643433E0,2.481063843E0
3.154295782E0,1.547744751E0,-9.326644897E0,2.206924438E0
3.156828741E0,1.492675781E0,-9.405654907E0,1.941162109E0
3.159361699E0,1.474716187E0,-9.408050537E0,1.711318970E0
3.161925176E0,1.393310547E0,-9.417617798E0,1.519790649E0
3.164458135E0,1.271209717E0,-9.430786133E0,1.348602295E0
3.166991094E0,1.134735107E0,-9.437973022E0,1.255233765E0
3.169524053E0,1.052139282E0,-9.385299683E0,1.134323120E0
3.172087530E0,9.467926025E-1,-9.384109497E0,1.048126221E0
3.174620489E0,7.887725830E-1,-9.309890747E0,9.703216553E-1
3.177153448E0,6.319580078E-1,-9.171020508E0,8.925018311E-1
3.179686407E0,4.823150635E-1,-8.981872559E0,8.434295654E-1
3.182249883E0,2.704315186E-1,-8.829849243E0,8.051147461E-1
3.184782842E0,2.742004395E-2,-8.730484009E0,7.141418457E-1
3.187315801E0,-9.947204590E-2,-8.564086914E0,7.488555908E-1
3.189848760E0,-1.449584961E-1,-8.315093994E0,7.524414062E-1
3.192381719E0,-1.485443115E-1,-8.042160034E0,7.967376709E-1
3.194945196E0,-1.282043457E-1,-7.848220825E0,8.865203857E-1
3.197478155E0,-1.712951660E-1,-7.656692505E0,1.040939331E0
3.200011114E0,-1.820678711E-1,-7.529800415E0,1.214523315E0
3.202544073E0,-1.234130859E-1,-7.400512695E0,1.401275635E0
3.205107549E0,-7.192993164E-2,-7.216156006E0,1.480285645E0
3.207640508E0,-8.032226562E-2,-7.103622437E0,1.723297119E0
3.210173467E0,-8.271789551E-2,-7.017440796E0,1.923202515E0
3.212706426E0,-1.198272705E-1,-6.902511597E0,2.125518799E0
3.215239385E0,-1.712951660E-1,-6.803161621E0,2.252410889E0
3.217802862E0,-3.077697754E-1,-6.819915771E0,2.452331543E0
3.220335821E0,-3.676147461E-1,-6.776824951E0,2.623519897E0
3.222868780E0,-4.550018311E-1,-6.739715576E0,2.818634033E0
3.225401739E0,-5.483856201E-1,-6.648727417E0,3.035324097E0
3.227965215E0,-6.261901855E-1,-6.687042236E0,3.193328857E0
3.230498174E0,-7.052001953E-1,-6.724151611E0,3.335784912E0
3.233031133E0,-7.662506104E-1,-6.710983276E0,3.460281372E0
3.235564092E0,-8.249053955E-1,-6.666687012E0,3.547668457E0
3.238097051E0,-8.823699951E-1,-6.670272827E0,3.648239136E0
3.240660528E0,-8.835754395E-1,-6.667877197E0,3.663787842E0
3.243193487E0,-9.206848145E-1,-6.704986572E0,3.772735596E0
3.245726446E0,-9.709625244E-1,-6.712173462E0,3.809844971E0
3.248259405E0,-1.058349609E0,-6.751678467E0,3.880462646E0
3.250822881E0,-1.124191284E0,-6.789993286E0,3.955886841E0
3.253386358E0,-1.105041504E0,-6.858215332E0,4.016937256E0
3.255919317E0,-1.168487549E0,-6.936035156E0,4.031311035E0
3.258452276E0,-1.154113770E0,-6.901321411E0,4.030105591E0
3.260985235E0,-1.114608765E0,-6.873779297E0,4.038482666E0
3.263548711E0,-1.097854614E0,-6.897720337E0,3.939132690E0
3.266081670E0,-1.091873169E0,-6.892944336E0,3.917587280E0
3.268614629E0,-1.014053345E0,-6.885757446E0,3.799072266E0
3.271147588E0,-9.601898193E-1,-6.933639526E0,3.755966187E0
3.273711065E0,-9.051208496E-1,-6.906112671E0,3.643447876E0
3.276244024E0,-9.123077393E-1,-6.882171631E0,3.589569092E0
3.278776983E0,-8.225250244E-1,-6.829498291E0,3.450714111E0
3.281309942E0,-7.518920898E-1,-6.859420776E0,3.363327026E0
3.283842901E0,-7.207641602E-1,-6.834274292E0,3.323822021E0
3.286406377E0,-8.069610596E-1,-6.824707031E0,3.248397827E0
3.288939336E0,-8.751983643E-1,-6.831893921E0,3.230438232E0
3.291472295E0,-8.656158447E-1,-6.871383667E0,3.359725952E0
3.294005254E0,-7.877960205E-1,-6.870193481E0,3.418395996E0
3.296568731E0,-7.123870850E-1,-6.883361816E0,3.560836792E0
3.299101690E0,-6.513366699E-1,-6.846252441E0,3.723648071E0
3.301634649E0,-6.417541504E-1,-6.848648071E0,3.909194946E0
3.304167608E0,-7.064056396E-1,-6.867797852E0,4.206085205E0
3.306731084E0,-7.375183105E-1,-6.853439331E0,4.507751465E0
3.309264043E0,-7.949829102E-1,-6.854629517E0,4.780685425E0
3.311797002E0,-8.356933594E-1,-6.816329956E0,5.063201904E0
3.314329961E0,-8.045654297E-1,-6.819915771E0,5.415145874E0
3.316893438E0,-9.242706299E-1,-6.810333252E0,5.725204468E0
3.319426397E0,-1.054763794E0,-6.823501587E0,6.040039062E0
3.321959356E0,-1.249877930E0,-6.919281006E0,6.370437622E0
3.324492315E0,-1.512054443E0,-7.013839722E0,6.694854736E0
3.327025274E0,-1.780197144E0,-7.113204956E0,6.937866211E0
3.329558233E0,-1.988494873E0,-7.240097046E0,7.213195801E0
3.332121709E0,-2.156082153E0,-7.400512695E0,7.407135010E0
3.334654668E0,-2.346435547E0,-7.594436646E0,7.550781250E0
3.337187627E0,-2.520004272E0,-7.762039185E0,7.617813110E0
3.339720586E0,-2.765411377E0,-7.864990234E0,7.676483154E0
3.342284063E0,-3.000045776E0,-7.959548950E0,7.726760864E0
3.344817022E0,-3.170028687E0,-8.105606079E0,7.711196899E0
3.347349981E0,-3.334030151E0,-8.190597534E0,7.683654785E0
3.349882940E0,-3.567474365E0,-8.263626099E0,7.651336670E0
3.352446416E0,-3.644088745E0,-8.305511475E0,7.550781250E0
3.354979375E0,-3.751831055E0,-8.390518188E0,7.458602905E0
3.357512334E0,-3.834426880E0,-8.456359863E0,7.416702271E0
3.360045293E0,-3.866744995E0,-8.548522949E0,7.384384155E0
3.362578252E0,-3.934982300E0,-8.629928589E0,7.308959961E0
3.365141729E0,-3.968505859E0,-8.729293823E0,7.212005615E0
3.367674688E0,-3.946945190E0,-8.784362793E0,7.188064575E0
3.370207647E0,-3.963714600E0,-8.920822144E0,7.192840576E0
3.372740606E0,-4.000823975E0,-8.930404663E0,7.174896240E0
3.375304082E0,-3.923004150E0,-8.935195923E0,7.158126831E0
3.377837041E0,-3.843994141E0,-8.913650513E0,7.226364136E0
3.380370000E0,-3.799713135E0,-8.889709473E0,7.294601440E0
3.382902959E0,-3.817657471E0,-8.766403198E0,7.352066040E0
3.385435918E0,-3.803298950E0,-8.596420288E0,7.428680420E0
3.387999395E0,-3.770980835E0,-8.473114014E0,7.572326660E0
3.390532354E0,-3.725494385E0,-8.299530029E0,7.663314819E0
3.393065313E0,-3.569869995E0,-8.108001709E0,7.792602539E0
3.395598272E0,-3.426208496E0,-7.934417725E0,7.908706665E0
3.398161748E0,-3.255020142E0,-7.803939819E0,8.018844604E0
3.400694707E0,-3.146087646E0,-7.632751465E0,8.137359619E0
3.403227666E0,-3.086242676E0,-7.558532715E0,8.257064819E0
3.405760625E0,-2.919845581E0,-7.496276855E0,8.355239868E0
3.408293584E0,-2.771392822E0,-7.475921631E0,8.467758179E0
3.410826543E0,-2.699569702E0,-7.479522705E0,8.472549438E0
3.413390020E0,-2.624160767E0,-7.473526001E0,8.491699219E0
3.415922979E0,-2.467330933E0,-7.445999146E0,8.598251343E0
3.418455938E0,-2.302139282E0,-7.422058105E0,8.670074463E0
3.421019414E0,-2.195587158E0,-7.419662476E0,8.670074463E0
3.423552373E0,-2.136932373E0,-7.484313965E0,8.668869019E0
3.426085332E0,-2.031585693E0,-7.534591675E0,8.655700684E0
3.428618291E0,-2.006454468E0,-7.620773315E0,8.587463379E0
3.431151250E0,-2.067504883E0,-7.945190430E0,8.484512329E0
3.433714727E0,-2.375152588E0,-8.520996094E0,8.198410034E0
3.436247686E0,-2.857589722E0,-9.284744263E0,7.877593994E0
3.438780645E0,-3.293334961E0,-1.012989807E1,7.480148315E0
3.441313604E0,-3.630920410E0,-1.085055542E1,7.153350830E0
3.443877080E0,-3.893081665E0,-1.140242004E1,6.761886597E0
3.446410039E0,-4.017578125E0,-1.180105591E1,6.370437622E0
3.448942998E0,-4.102569580E0,-1.223080444E1,6.048416138E0
3.451475957E0,-4.024765015E0,-1.258276367E1,5.781463623E0
3.454039434E0,-3.975677490E0,-1.291076660E1,5.477401733E0
3.456572393E0,-3.861953735E0,-1.336805725E1,5.094329834E0
3.459105352E0,-3.725494385E0,-1.385887146E1,4.756744385E0
3.461638311E0,-3.651275635E0,-1.441073608E1,4.288681030E0
3.464171270E0,-3.627319336E0,-1.502365112E1,3.856521606E0
3.466734746E0,-3.513595581E0,-1.565332031E1,3.420776367E0
3.469267705E0,-3.344802856E0,-1.639312744E1,2.975463867E0
3.471800664E0,-3.052719116E0,-1.713893127E1,2.617523193E0
3.474333623E0,-2.733093262E0,-1.794097900E1,2.199737549E0
3.476897100E0,-2.285369873E0,-1.878134155E1,1.657455444E0
3.479430059E0,-1.698791504E0,-1.960734558E1,7.799835205E-1
3.481963018E0,-1.020034790E0,-2.031243896E1,2.700805664E-2
3.484495977E0,-4.178924561E-1,-2.081044006E1,-4.829559326E-1
3.487028936E0,3.015594482E-1,-2.090380859E1,-7.714691162E-1
3.489592412E0,1.068893433E0,-2.046087646E1,-7.140045166E-1
3.492125371E0,1.760818481E0,-1.939067078E1,-3.321228027E-1
3.494658330E0,2.406066895E0,-1.772909546E1,3.538055420E-1
3.497191289E0,2.619140625E0,-1.574310303E1,9.858856201E-1
3.499754766E0,2.530563354E0,-1.376788330E1,1.452743530E0
3.502287725E0,2.283950806E0,-1.196745300E1,1.746032715E0
3.504820684E0,1.900878906E0,-1.035855103E1,1.803497314E0
3.507353643E0,1.466339111E0,-8.981872559E0,1.822647095E0
3.509886602E0,1.107208252E0,-7.826675415E0,1.747238159E0
3.512450078E0,8.091278076E-1,-6.867797852E0,1.652664185E0
3.514983037E0,5.804901123E-1,-6.065734863E0,1.474304199E0
3.517515996E0,4.595794678E-1,-5.498321533E0,1.337829590E0
3.520048955E0,3.889465332E-1,-5.175094604E0,1.115173340E0
3.522612432E0,3.757781982E-1,-5.032638550E0,1.060104370E0
3.525145391E0,4.033050537E-1,-4.991943359E0,1.020599365E0
3.527678350E0,5.002746582E-1,-4.988357544E0,1.124740601E0
3.530211309E0,6.977996826E-1,-5.006301880E0,1.371353149E0
3.532744268E0,8.139190674E-1,-4.963211060E0,1.862152100E0
3.535307744E0,8.737792969E-1,-4.928497314E0,2.519363403E0
3.537840703E0,8.390502930E-1,-4.946456909E0,2.916809082E0
3.540404180E0,7.744140625E-1,-5.013488770E0,3.091583252E0
3.542937139E0,6.798400879E-1,-5.132003784E0,3.115524292E0
3.545500616E0,6.523132324E-1,-5.285232544E0,3.108337402E0
3.548033574E0,6.702728271E-1,-5.421707153E0,3.016159058E0
3.550566533E0,6.798400879E-1,-5.579711914E0,2.880889893E0
3.553099492E0,8.163146973E-1,-5.718582153E0,2.797088623E0
3.555662969E0,9.719390869E-1,-5.873016357E0,2.623519897E0
3.558195928E0,1.111999512E0,-6.057357788E0,2.478668213E0
3.560728887E0,1.271209717E0,-6.257278442E0,2.344589233E0
3.563261846E0,1.457962036E0,-6.530212402E0,2.193756104E0
3.565794805E0,1.588439941E0,-6.752883911E0,2.047714233E0
3.568358282E0,1.637527466E0,-7.011459351E0,2.147064209E0
3.570891241E0,1.694976807E0,-7.295166016E0,2.351776123E0
3.573424199E0,1.547744751E0,-7.709365845E0,2.618728638E0
3.575957158E0,1.128753662E0,-8.129547119E0,2.973068237E0
3.578490117E0,5.804901123E-1,-8.700561523E0,3.253189087E0
3.581053594E0,1.664733887E-2,-9.406845093E0,3.577606201E0
3.583586553E0,-4.358520508E-1,-1.029629517E1,3.754776001E0
3.586119512E0,-3.819885254E-1,-1.104328918E1,3.965469360E0
3.588652471E0,1.315765381E-1,-1.166578674E1,4.098342896E0
3.591215948E0,5.074615479E-1,-1.230741882E1,4.255157471E0
3.593748907E0,6.918182373E-1,-1.297660828E1,4.225234985E0
3.596281866E0,7.827911377E-1,-1.370324707E1,3.989410400E0
3.598814824E0,1.145507812E0,-1.445143127E1,3.666183472E0
3.601378301E0,1.790756226E0,-1.501167297E1,3.691329956E0
3.603911260E0,2.271987915E0,-1.547256470E1,3.529724121E0
3.606444219E0,2.864547729E0,-1.591548157E1,3.121505737E0
3.608977178E0,3.113555908E0,-1.625546265E1,2.834197998E0
3.611510137E0,3.211715698E0,-1.632489014E1,2.518173218E0
3.614073614E0,3.235656738E0,-1.630334473E1,2.404449463E0
3.616606573E0,3.317062378E0,-1.618843079E1,2.386489868E0
3.619139532E0,3.447540283E0,-1.597892761E1,2.520568848E0
3.621672491E0,3.538513184E0,-1.553720093E1,2.815048218E0
3.624235967E0,3.612747192E0,-1.498533630E1,3.093978882E0
3.626768926E0,3.698928833E0,-1.423954773E1,3.556060791E0
3.629301885E0,3.858139038E0,-1.337524414E1,4.093551636E0
3.631834844E0,3.809066772E0,-1.247741699E1,4.476623535E0
3.634367803E0,3.737243652E0,-1.157000732E1,4.840545654E0
3.636931280E0,3.631896973E0,-1.065901184E1,5.175735474E0
3.639464239E0,3.375717163E0,-9.840194702E0,5.320587158E0
3.641997198E0,3.087219238E0,-9.017791748E0,5.357696533E0
3.644530157E0,2.919616699E0,-8.157073975E0,5.543243408E0
3.647093633E0,2.730484009E0,-7.542968750E0,5.835342407E0
3.649626592E0,2.335433960E0,-7.246078491E0,5.955047607E0
3.652159551E0,1.984680176E0,-6.912094116E0,5.982574463E0
3.654692510E0,1.688995361E0,-6.699005127E0,5.934692383E0
3.657225469E0,1.299942017E0,-6.586486816E0,5.698867798E0
3.659788946E0,8.091278076E-1,-6.567321777E0,5.354095459E0
3.662321905E0,3.661956787E-1,-6.570922852E0,4.870468140E0
3.664854864E0,1.066589355E-2,-6.501480103E0,4.485000610E0
3.667387823E0,-1.892547607E-1,-6.399734497E0,4.238403320E0
3.669951299E0,-3.783874512E-1,-6.341079712E0,3.929550171E0
3.672484258E0,-4.609985352E-1,-6.330307007E0,3.876876831E0
3.675017217E0,-4.897308350E-1,-6.359039307E0,3.732025146E0
3.677550176E0,-4.885253906E-1,-6.349456787E0,3.486618042E0
3.680083135E0,-5.340118408E-1,-6.348251343E0,3.437545776E0
3.682646612E0,-5.411987305E-1,-6.418884277E0,3.380081177E0
3.685179571E0,-5.136718750E-1,-6.512268066E0,3.366912842E0
3.687712530E0,-4.143066406E-1,-6.629577637E0,3.377685547E0
3.690245489E0,-3.352966309E-1,-6.775619507E0,3.350158691E0
3.692808965E0,-3.173370361E-1,-6.959976196E0,3.212493896E0
3.695341924E0,-3.209381104E-1,-7.248474121E0,2.997009277E0
3.697874883E0,-4.178924561E-1,-7.419662476E0,2.738433838E0
3.700407842E0,-3.544464111E-1,-7.477127075E0,2.673797607E0
3.702971319E0,-2.443237305E-1,-7.588455200E0,2.642669678E0
3.705504278E0,-1.806640625E-2,-7.673446655E0,2.421203613E0
3.708037237E0,2.393035889E-1,-7.665069580E0,2.224884033E0
3.710570196E0,9.924316406E-2,-7.633941650E0,1.620346069E0
3.713103155E0,1.231842041E-1,-7.802734375E0,2.417617798E0
3.715666631E0,3.721923828E-1,-8.086441040E0,3.752380371E0
3.718199590E0,1.146713257E0,-8.347412109E0,4.828567505E0
3.720732549E0,1.440002441E0,-8.415649414E0,4.986587524E0
3.723265508E0,1.477111816E0,-8.407272339E0,5.054824829E0
3.725828985E0,1.666259766E0,-8.542541504E0,5.334945679E0
3.728361944E0,1.741668701E0,-8.621551514E0,5.301422119E0
3.730894903E0,1.890106201E0,-8.736480713E0,5.224807739E0
3.733427862E0,2.049331665E0,-8.817871094E0,5.288253784E0
3.735960821E0,2.081649780E0,-8.898086548E0,5.307418823E0
3.738524297E0,2.097213745E0,-8.965118408E0,5.303817749E0
3.741057256E0,2.118759155E0,-9.058486938E0,5.322982788E0
3.743590215E0,2.106781006E0,-9.165039062E0,5.412765503E0
3.746123174E0,1.933212280E0,-9.326644897E0,5.454650879E0
3.748686651E0,1.625549316E0,-9.335021973E0,5.400787354E0
3.751219610E0,1.411270142E0,-9.378112793E0,5.364868164E0
3.753752569E0,1.163467407E0,-9.601974487E0,5.115875244E0
3.756285528E0,1.056930542E0,-9.805480957E0,4.775894165E0
3.758849004E0,1.231704712E0,-1.016221619E1,4.476623535E0
3.761381963E0,1.141921997E0,-1.010116577E1,4.038482666E0
3.763914922E0,9.348297119E-1,-9.901260376E0,3.684143066E0
3.766447881E0,7.289276123E-1,-9.627120972E0,3.399230957E0
3.768980840E0,4.080963135E-1,-9.317062378E0,3.166992188E0
3.771544317E0,3.460693359E-2,-9.460723877E0,3.103546143E0
3.774077276E0,-2.886047363E-1,-9.630706787E0,3.127487183E0
3.776610235E0,-2.730560303E-1,-9.664230347E0,3.147842407E0
3.779143194E0,-3.293151855E-1,-9.771972656E0,3.074813843E0
3.781676153E0,-1.449584961E-1,-1.006047058E1,2.817443848E0
3.784239629E0,-2.778320312E-1,-1.020771790E1,2.412826538E0
3.786772588E0,-3.329010010E-1,-1.040882874E1,2.232055664E0
3.789305547E0,-5.136718750E-1,-1.032023621E1,2.185379028E0
3.791838506E0,-5.471801758E-1,-1.037770081E1,2.193756104E0
3.794401983E0,-5.842895508E-1,-1.042318726E1,2.259597778E0
3.796934942E0,-7.363281250E-1,-9.944351196E0,2.203338623E0
3.799467901E0,-8.021697998E-1,-9.422409058E0,2.265579224E0
3.802000860E0,-6.884460449E-1,-9.185394287E0,2.372116089E0
3.804533819E0,-5.184478760E-1,-9.071655273E0,2.548095703E0
3.807066778E0,-5.675354004E-1,-8.759216309E0,2.690551758E0
3.809630254E0,-5.471801758E-1,-8.621551514E0,2.854553223E0
3.812163213E0,-5.304260254E-1,-8.322280884E0,2.926376343E0
3.814696172E0,-3.891754150E-1,-8.099609375E0,2.940750122E0
3.817259649E0,-3.137512207E-1,-8.080459595E0,3.014968872E0
3.819792608E0,-4.167022705E-1,-7.975112915E0,2.977859497E0
3.822325567E0,-4.621887207E-1,-7.856597900E0,2.987426758E0
3.824889043E0,-4.238891602E-1,-7.806320190E0,2.850967407E0
3.827452520E0,-5.304260254E-1,-7.836257935E0,2.885681152E0
3.829985479E0,-5.340118408E-1,-7.793151855E0,2.907226562E0
3.832518438E0,-4.573974609E-1,-7.795547485E0,2.993423462E0
3.835051397E0,-3.484649658E-1,-7.645919800E0,3.042495728E0
3.837584356E0,-2.311553955E-1,-7.711761475E0,3.119110107E0
3.840147832E0,-4.559326172E-2,-7.841049194E0,3.134674072E0
3.842680791E0,1.303710938E-1,-7.921249390E0,3.205307007E0
3.845213750E0,2.333221436E-1,-8.061309814E0,3.286712646E0
3.847746709E0,3.781738281E-1,-8.084060669E0,3.297485352E0
3.850310186E0,4.559783936E-1,-8.111587524E0,3.285507202E0
3.852843145E0,5.577392578E-1,-8.329452515E0,3.263961792E0
3.855376104E0,5.541534424E-1,-8.512619019E0,3.299880981E0
3.857909063E0,6.068267822E-1,-8.651473999E0,3.375289917E0
3.860442022E0,7.923736572E-1,-8.907653809E0,3.334594727E0
3.863005498E0,9.240570068E-1,-9.046524048E0,3.201721191E0
3.865538457E0,8.845520020E-1,-9.088424683E0,3.240020752E0
3.868071416E0,9.755249023E-1,-9.273971558E0,3.180160522E0
3.870604375E0,1.028198242E0,-9.317062378E0,3.161010742E0
3.873167852E0,9.875030518E-1,-9.416427612E0,3.143051147E0
3.875700811E0,1.040176392E0,-9.612747192E0,3.119110107E0
3.878233770E0,9.551696777E-1,-9.575637817E0,3.085601807E0
3.880766729E0,9.539794922E-1,-9.649856567E0,3.070037842E0
3.883299688E0,8.929290771E-1,-9.732467651E0,3.070037842E0
3.885863164E0,8.905334473E-1,-9.763580322E0,3.123901367E0
3.888396123E0,8.510284424E-1,-9.803085327E0,3.064041138E0
3.890929082E0,7.253265381E-1,-9.804290771E0,3.038909912E0
3.893462041E0,6.750488281E-1,-9.678588867E0,2.937149048E0
3.896025518E0,6.846313477E-1,-9.579238892E0,2.929977417E0
3.898558477E0,5.924530029E-1,-9.476287842E0,2.877304077E0
3.901091436E0,6.630859375E-1,-9.355377197E0,2.906036377E0
3.903624395E0,6.403350830E-1,-9.246444702E0,2.861740112E0
3.906157354E0,5.720977783E-1,-9.302703857E0,2.872512817E0
3.908720830E0,6.355438232E-1,-9.433181763E0,2.761184692E0
3.911253789E0,7.301177979E-1,-9.447555542E0,2.694137573E0
3.913786748E0,6.343536377E-1,-9.293121338E0,2.637878418E0
3.916319707E0,7.229309082E-1,-9.293121338E0,2.615127563E0
3.918883184E0,8.187103271E-1,-9.404449463E0,2.679779053E0
3.921416143E0,6.367492676E-1,-9.352981567E0,2.623519897E0
3.923949102E0,5.385894775E-1,-9.285949707E0,2.515777588E0
3.926482061E0,5.062561035E-1,-9.226089478E0,2.488235474E0
3.929045537E0,7.540588379E-1,-9.426010132E0,2.561264038E0
3.931578496E0,9.288330078E-1,-9.360168457E0,2.716888428E0
3.934111455E0,7.624359131E-1,-8.922027588E0,2.578018188E0
3.936644414E0,9.767303467E-1,-8.979492188E0,2.595977783E0
3.939177373E0,1.163467407E0,-8.713729858E0,2.647460938E0
3.941710332E0,1.321487427E0,-8.538955688E0,2.742019653E0
3.944273809E0,1.539367676E0,-8.335449219E0,2.798294067E0
3.946806768E0,1.763214111E0,-8.333053589E0,2.934753418E0
3.949339727E0,1.898498535E0,-8.351013184E0,2.882095337E0
3.951903203E0,2.105590820E0,-8.225311279E0,3.020950317E0
3.954436162E0,2.323455811E0,-8.129547119E0,3.195724487E0
3.956969121E0,2.611968994E0,-7.946380615E0,3.454299927E0
3.959502080E0,2.827438354E0,-7.836257935E0,3.680557251E0
3.962035039E0,2.896881104E0,-7.710556030E0,3.972640991E0
3.964567998E0,3.028549194E0,-7.479522705E0,4.285095215E0
3.967131475E0,3.160232544E0,-7.430435181E0,4.451492310E0
3.969664434E0,3.220092773E0,-7.128768921E0,4.742385864E0
3.972197393E0,3.376907349E0,-6.795974731E0,5.124252319E0
3.974760869E0,3.617523193E0,-6.689437866E0,5.510925293E0
3.977293828E0,3.785125732E0,-6.658309937E0,5.773086548E0
3.979826787E0,3.995819092E0,-6.602050781E0,5.995742798E0
3.982359746E0,4.017364502E0,-6.517044067E0,6.236358643E0
3.984892705E0,4.091583252E0,-6.567321777E0,6.460220337E0
3.987456182E0,4.351348877E0,-6.744491577E0,6.596694946E0
3.989989141E0,4.369308472E0,-6.940826416E0,6.810974121E0
3.992522100E0,4.581192017E0,-7.176651001E0,6.947448730E0
3.995055059E0,4.491409302E0,-7.280792236E0,6.900756836E0
3.997618535E0,4.228042603E0,-7.285583496E0,6.897171021E0
4.000151494E0,4.048477173E0,-7.266433716E0,6.855270386E0
4.002684453E0,3.927581787E0,-7.271224976E0,6.838500977E0
4.005217412E0,3.753997803E0,-7.463958740E0,6.642181396E0
4.007750371E0,3.694137573E0,-7.613586426E0,6.467407227E0
4.010313848E0,3.503799438E0,-7.918853760E0,6.303405762E0
4.012846807E0,3.397262573E0,-8.252838135E0,6.180099487E0
4.015379766E0,3.351776123E0,-8.492263794E0,6.055603027E0
4.017912725E0,3.181777954E0,-8.724502563E0,5.920333862E0
4.020476201E0,2.985458374E0,-8.945968628E0,5.812591553E0
4.023009160E0,2.692169189E0,-9.084823608E0,5.764709473E0
4.025542119E0,2.541336060E0,-9.384109497E0,5.697662354E0
4.028075078E0,2.343811035E0,-9.659439087E0,5.610275269E0
4.030608037E0,2.143890381E0,-9.805480957E0,5.545639038E0
4.033171514E0,1.934402466E0,-9.989837646E0,5.534866333E0
4.035704473E0,1.795547485E0,-1.018615723E1,5.489379883E0
4.038237432E0,1.697372437E0,-1.028193665E1,5.439102173E0
4.040770391E0,1.629150391E0,-1.034417725E1,5.332550049E0
4.043333867E0,1.738082886E0,-1.031784058E1,5.236785889E0
4.045866826E0,1.973907471E0,-1.014306641E1,5.101516724E0
4.048399785E0,1.842224121E0,-1.000421143E1,4.957855225E0
4.050932744E0,1.117980957E0,-1.025199890E1,5.044052124E0
4.053465703E0,4.715423584E-1,-1.046150208E1,5.179321289E0
4.056029180E0,5.122528076E-1,-1.035615540E1,5.257141113E0
4.058562139E0,7.289276123E-1,-1.016581726E1,5.300231934E0
4.061095098E0,8.797607422E-1,-9.985046387E0,5.338531494E0
4.063628057E0,8.905334473E-1,-9.897659302E0,5.394805908E0
4.066191533E0,8.725738525E-1,-9.765975952E0,5.446273804E0
4.068724492E0,8.701782227E-1,-9.645080566E0,5.449874878E0
4.071257451E0,8.282775879E-1,-9.579238892E0,5.502548218E0
4.073790410E0,7.169494629E-1,-9.586410522E0,5.540847778E0
4.076353887E0,6.175994873E-1,-9.576843262E0,5.600708008E0
4.078886846E0,4.763336182E-1,-9.555297852E0,5.672531128E0
4.081419805E0,3.733825684E-1,-9.564865112E0,5.728790283E0
4.083952764E0,1.974182129E-1,-9.615142822E0,5.848510742E0
4.086485723E0,1.411437988E-1,-9.688171387E0,6.025680542E0
4.089049199E0,1.185607910E-2,-9.680984497E0,6.123840332E0
4.091582158E0,-1.030578613E-1,-9.659439087E0,6.242355347E0
4.094115117E0,-1.736907959E-1,-9.696548462E0,6.383605957E0
4.096648076E0,-2.012176514E-1,-9.601974487E0,6.502120972E0
4.099211553E0,-2.562866211E-1,-9.526565552E0,6.607467651E0
4.101744512E0,-2.862243652E-1,-9.411636353E0,6.773864746E0
4.104277471E0,-2.766418457E-1,-9.278762817E0,6.861251831E0
4.106810430E0,-2.335510254E-1,-9.166229248E0,6.936660767E0
4.109343389E0,-2.886047363E-1,-9.062088013E0,7.009689331E0
4.111906866E0,-3.520507812E-1,-8.878921509E0,6.996520996E0
4.114470342E0,-3.783874512E-1,-8.712539673E0,6.933074951E0
4.117003301E0,-4.334564209E-1,-8.571273804E0,6.960617065E0
4.119536260E0,-5.316162109E-1,-8.412063599E0,6.935470581E0
4.122099737E0,-5.854949951E-1,-8.293548584E0,6.886383057E0
4.124632696E0,-6.537322998E-1,-8.091232300E0,6.712814331E0
4.127165655E0,-7.207641602E-1,-7.932022095E0,6.639785767E0
4.129698614E0,-8.596343994E-1,-7.808715820E0,6.481765747E0
4.132231573E0,-9.266662598E-1,-7.703369141E0,6.237564087E0
4.134795049E0,-9.494171143E-1,-7.454376221E0,6.137008667E0
4.137328008E0,-1.000885010E0,-7.396911621E0,6.001739502E0
4.139860967E0,-1.053558350E0,-7.264038086E0,5.835342407E0
4.142393926E0,-1.126586914E0,-7.053344727E0,5.587539673E0
4.144957403E0,-1.142150879E0,-6.903717041E0,5.361282349E0
4.147490362E0,-1.137359619E0,-6.722946167E0,5.093139648E0
4.150023321E0,-1.182846069E0,-6.488311768E0,4.757949829E0
4.152556280E0,-1.205596924E0,-6.180664062E0,4.455078125E0
4.155119756E0,-1.260650635E0,-5.905334473E0,4.207275391E0
4.157652715E0,-1.292984009E0,-5.607254028E0,3.925964355E0
4.160185674E0,-1.263046265E0,-5.318756104E0,3.662597656E0
4.162718633E0,-1.247482300E0,-5.141586304E0,3.465072632E0
4.165251592E0,-1.248687744E0,-4.947647095E0,3.207702637E0
4.167815069E0,-1.201995850E0,-4.824356079E0,2.999404907E0
4.170348028E0,-1.161300659E0,-4.728576660E0,2.686965942E0
4.172880987E0,-1.119400024E0,-4.681900024E0,2.587600708E0
4.175413946E0,-1.093063354E0,-4.650772095E0,2.464294434E0
4.177946905E0,-1.041595459E0,-4.660339355E0,2.246429443E0
4.180510381E0,-9.841308594E-1,-4.759704590E0,1.986663818E0
4.183043340E0,-8.488616943E-1,-4.831527710E0,1.887298584E0
4.185576299E0,-6.908416748E-1,-4.890182495E0,1.820266724E0
4.188109258E0,-5.627441406E-1,-4.936874390E0,1.878921509E0
4.190672735E0,-4.957122803E-1,-4.948852539E0,1.819061279E0
4.193205694E0,-4.154968262E-1,-5.043411255E0,2.045318604E0
4.195738653E0,-3.676147461E-1,-5.264877319E0,2.244033813E0
4.198271612E0,-2.754364014E-1,-5.543807983E0,2.372116089E0
4.200835088E0,-1.820678711E-1,-5.833511353E0,2.645065308E0
4.203368047E0,-8.630371094E-2,-6.126800537E0,2.797088623E0
4.205901006E0,1.425170898E-2,-6.699005127E0,3.078414917E0
4.208433965E0,1.830444336E-1,-7.357406616E0,3.558456421E0
4.210966924E0,3.518371582E-1,-8.250457764E0,4.110305786E0
4.213530401E0,4.942932129E-1,-9.399673462E0,4.785476685E0
4.216063360E0,7.325134277E-1,-1.056803894E1,5.275085449E0
4.218596319E0,1.185012817E0,-1.163226318E1,5.685699463E0
4.221129278E0,1.542953491E0,-1.259472656E1,5.986175537E0
4.223692754E0,1.903274536E0,-1.360627747E1,6.075958252E0
4.226225713E0,2.389297485E0,-1.482373047E1,6.201644897E0
4.228758672E0,2.816665649E0,-1.624588013E1,6.243545532E0
4.231291631E0,3.332611084E0,-1.799844360E1,6.409942627E0
4.233824590E0,3.890472412E0,-1.971269226E1,6.371643066E0
4.236388067E0,4.480636597E0,-2.153707886E1,6.315368652E0
4.238921026E0,4.965469360E0,-2.297120667E1,5.982574463E0
4.241453985E0,5.122283936E0,-2.390972900E1,5.569580078E0
4.243986944E0,5.208480835E0,-2.431793213E1,5.052429199E0
4.246550420E0,5.334167480E0,-2.423773193E1,4.346145630E0
4.249083379E0,5.221649170E0,-2.384388733E1,3.801467896E0
4.251616338E0,5.070816040E0,-2.314118958E1,3.220870972E0
4.254149297E0,4.787094116E0,-2.208415222E1,2.567245483E0
4.256682256E0,4.344161987E0,-2.088345337E1,2.091995239E0
4.259245733E0,3.841384888E0,-1.977972412E1,1.805892944E0
4.261778692E0,3.478668213E0,-1.885676575E1,1.584426880E0
4.264311651E0,3.078826904E0,-1.810139465E1,1.497039795E0
4.266844610E0,2.730484009E0,-1.743461609E1,1.432403564E0
4.269408086E0,2.321075439E0,-1.684683228E1,1.471908569E0
4.271941045E0,1.680618286E0,-1.644221497E1,1.430007935E0
4.274474004E0,9.839019775E-1,-1.610821533E1,1.361770630E0
4.277006963E0,3.793640137E-1,-1.566050720E1,1.371353149E0
4.279570440E0,-2.525329590E-2,-1.516371155E1,1.383316040E0
4.282103399E0,-4.154968262E-1,-1.466810608E1,1.306701660E0
4.284636358E0,-6.525268555E-1,-1.412342834E1,1.372543335E0
4.287169317E0,-8.811798096E-1,-1.362304688E1,1.434799194E0
4.289702276E0,-1.045181274E0,-1.324714661E1,1.461135864E0
4.292265752E0,-1.053558350E0,-1.278506470E1,1.554504395E0
4.294798711E0,-9.972991943E-1,-1.227870178E1,1.588027954E0
4.297331670E0,-1.083480835E0,-1.190280151E1,1.694564819E0
4.299864629E0,-1.145736694E0,-1.155444336E1,1.975875854E0
4.302397588E0,-1.453384399E0,-1.131982422E1,1.910049438E0
4.304961065E0,-1.647323608E0,-1.106364441E1,1.661041260E0
4.307494024E0,-1.818511963E0,-1.088526917E1,1.096008301E0
4.310026983E0,-1.861602783E0,-1.072007751E1,2.951507568E-1
4.312559942E0,-2.051940918E0,-1.060035706E1,-5.476074219E-1
4.315123418E0,-2.394317627E0,-1.046627808E1,-1.274246216E0
4.317656377E0,-2.776184082E0,-1.038847351E1,-1.921875000E0
4.320189336E0,-3.203552246E0,-1.021728516E1,-2.326492310E0
4.322722295E0,-3.377136230E0,-9.934768677E0,-2.403106689E0
4.325285772E0,-3.517196655E0,-9.731262207E0,-2.350433350E0
4.327818731E0,-3.760208130E0,-9.464309692E0,-2.338470459E0
4.330351690E0,-3.876327515E0,-9.161437988E0,-2.249877930E0
4.332884649E0,-3.865554810E0,-8.825057983E0,-2.155319214E0
4.335417608E0,-3.568664551E0,-8.544937134E0,-1.964981079E0
4.337981084E0,-3.336425781E0,-8.334243774E0,-1.785415649E0
4.340514043E0,-3.277770996E0,-8.067291260E0,-1.565139771E0
4.343047002E0,-3.293334961E0,-7.809921265E0,-1.361633301E0
4.345579961E0,-3.228698730E0,-7.565704346E0,-1.103057861E0
4.348143438E0,-3.130523682E0,-7.310729980E0,-7.367553711E-1
4.350676397E0,-3.083847046E0,-7.024612427E0,-4.171295166E-1
4.353209356E0,-3.016799927E0,-6.883361816E0,-8.911132812E-2
4.355742315E0,-3.002441406E0,-6.677459717E0,2.760009766E-1
4.358275274E0,-3.020401001E0,-6.497894287E0,6.494903564E-1
4.360838750E0,-2.850402832E0,-6.484725952E0,1.080444336E0
4.363371709E0,-2.718719482E0,-6.464370728E0,1.542526245E0
4.365904668E0,-2.691192627E0,-6.448806763E0,1.968704224E0
4.368437627E0,-2.786956787E0,-6.444030762E0,2.376907349E0
4.371001104E0,-2.842025757E0,-6.454803467E0,2.859344482E0
4.373534063E0,-2.888717651E0,-6.518249512E0,3.387268066E0
4.376067022E0,-2.831253052E0,-6.610427856E0,3.739212036E0
4.378599981E0,-2.729507446E0,-6.744491577E0,4.130661011E0
4.381132940E0,-2.534378052E0,-6.918075562E0,4.485000610E0
4.383665899E0,-2.359588623E0,-7.028213501E0,4.850128174E0
4.386229375E0,-2.199188232E0,-7.048568726E0,5.117080688E0
4.388762334E0,-1.856811523E0,-7.092849731E0,5.439102173E0
4.391295293E0,-1.552749634E0,-7.234115601E0,5.676116943E0
4.393858770E0,-1.401916504E0,-7.299957275E0,5.795837402E0
4.396422246E0,-1.297775269E0,-7.357406616E0,5.873641968E0
4.398955205E0,-1.119400024E0,-7.388534546E0,5.921524048E0
4.401488164E0,-9.039154053E-1,-7.395721436E0,5.947860718E0
4.404021123E0,-6.956329346E-1,-7.429244995E0,5.913146973E0
4.406584600E0,-5.005035400E-1,-7.412475586E0,5.793441772E0
4.409117559E0,-2.167816162E-1,-7.449584961E0,5.661758423E0
4.411650518E0,1.004486084E-1,-7.443603516E0,5.587539673E0
4.414183477E0,4.009246826E-1,-7.547760010E0,5.419937134E0
4.416716436E0,5.744934082E-1,-7.667465210E0,5.198471069E0
4.419279912E0,7.983551025E-1,-7.722534180E0,4.846527100E0
4.421812871E0,1.120376587E0,-7.772811890E0,4.469436646E0
4.424345830E0,1.311904907E0,-7.928436279E0,4.077987671E0
4.426878789E0,1.485488892E0,-8.086441040E0,3.783508301E0
4.429442266E0,1.626754761E0,-8.203765869E0,3.462677002E0
4.431975225E0,1.708145142E0,-8.317489624E0,2.971862793E0
4.434508184E0,1.843429565E0,-8.430023193E0,2.329025269E0
4.437041143E0,1.995452881E0,-8.467132568E0,1.797515869E0
4.439604619E0,2.155868530E0,-8.537750244E0,1.410858154E0
4.442137578E0,2.267196655E0,-8.596420288E0,1.301910400E0
4.444670537E0,2.401275635E0,-8.679016113E0,1.264801025E0
4.447203496E0,2.530563354E0,-8.635910034E0,1.307907104E0
4.449736455E0,2.553298950E0,-8.661056519E0,1.231292725E0
4.452299932E0,2.583236694E0,-8.749649048E0,1.130722046E0
4.454832891E0,2.635910034E0,-8.796325684E0,9.200439453E-1
4.457365850E0,2.736465454E0,-8.808303833E0,7.321014404E-1
4.459898809E0,2.814270020E0,-8.774780273E0,4.615478516E-1
4.462462285E0,2.851379395E0,-8.752029419E0,3.346557617E-1
4.464995244E0,2.870544434E0,-8.750839233E0,3.454284668E-1
4.467528203E0,2.888488770E0,-8.741256714E0,2.712097168E-1
4.470061162E0,2.938766479E0,-8.676620483E0,4.004974365E-1
4.472624639E0,3.075241089E0,-8.531768799E0,6.698455811E-1
4.475157598E0,3.051300049E0,-8.481491089E0,9.619445801E-1
4.477690557E0,2.949539185E0,-8.465927124E0,1.240859985E0
4.480223516E0,2.797515869E0,-8.407272339E0,1.659851074E0
4.482756475E0,2.645477295E0,-8.339035034E0,1.969894409E0
4.485319951E0,2.509017944E0,-8.297134399E0,2.320648193E0
4.487852910E0,2.303115845E0,-8.233688354E0,2.678573608E0
4.490385869E0,2.155868530E0,-8.163055420E0,2.929977417E0
4.492949346E0,2.092422485E0,-8.039764404E0,3.207702637E0
4.495482305E0,2.024185181E0,-7.922439575E0,3.424377441E0
4.498015264E0,1.953552246E0,-7.833862305E0,3.621902466E0
4.500548223E0,1.844619751E0,-7.720138550E0,3.699707031E0
4.503081182E0,1.789550781E0,-7.635147095E0,3.759567261E0
4.505614141E0,1.684204102E0,-7.571701050E0,3.831390381E0
4.508177617E0,1.596817017E0,-7.466354370E0,3.799072266E0
4.510710576E0,1.430419922E0,-7.412475586E0,3.704498291E0
4.513243535E0,1.191009521E0,-7.363403320E0,3.608734131E0
4.515776494E0,1.103622437E0,-7.309524536E0,3.431564331E0
4.518339971E0,9.587707520E-1,-7.186233521E0,3.202911377E0
4.520872930E0,7.360992432E-1,-7.164688110E0,2.956314087E0
4.523405889E0,6.271667480E-1,-7.174255371E0,2.795898438E0
4.525938848E0,3.769836426E-1,-7.127563477E0,2.635482788E0
4.528471807E0,1.315765381E-1,-7.089263916E0,2.478668213E0
4.531035283E0,-8.509826660E-2,-7.024612427E0,2.287124634E0
4.533568242E0,-2.766418457E-1,-6.980331421E0,2.076446533E0
4.536101201E0,-4.777526855E-1,-6.942016602E0,1.938766479E0
4.538634160E0,-7.291412354E-1,-6.884552002E0,1.890884399E0
4.541197637E0,-1.093063354E0,-6.829498291E0,1.887298584E0
4.543730596E0,-1.423461914E0,-6.778015137E0,1.820266724E0
4.546263555E0,-1.649719238E0,-6.682250977E0,1.835815430E0
4.548796514E0,-1.843643188E0,-6.561340332E0,1.939971924E0
4.551329473E0,-2.071090698E0,-6.495498657E0,2.077636719E0
4.553892949E0,-2.297348022E0,-6.439239502E0,2.190170288E0
4.556425908E0,-2.466140747E0,-6.397338867E0,2.373321533E0
4.558958867E0,-2.571487427E0,-6.242919922E0,2.624710083E0
4.561491826E0,-2.661270142E0,-6.161514282E0,2.971862793E0
4.564055303E0,-2.710342407E0,-5.965179443E0,3.334594727E0
4.566588262E0,-2.668441772E0,-5.822723389E0,3.787094116E0
4.569121221E0,-2.688796997E0,-5.689849854E0,4.356918335E0
4.571654180E0,-2.707946777E0,-5.573730469E0,4.847732544E0
4.574217657E0,-2.806121826E0,-5.463607788E0,5.379241943E0
4.576750616E0,-2.941390991E0,-5.372619629E0,5.840118408E0
4.579283574E0,-3.050323486E0,-5.361846924E0,6.290237427E0
4.581816533E0,-3.172424316E0,-5.395370483E0,6.670913696E0
4.584349492E0,-3.332839966E0,-5.428878784E0,7.021667480E0
4.586912969E0,-3.484878540E0,-5.549789429E0,7.210800171E0
4.589445928E0,-3.551910400E0,-5.731750488E0,7.411911011E0
4.591978887E0,-3.612960815E0,-5.904129028E0,7.563949585E0
4.594511846E0,-3.620147705E0,-6.084899902E0,7.622604370E0
4.597075323E0,-3.535156250E0,-6.251296997E0,7.682464600E0
4.599608282E0,-3.458541870E0,-6.453598022E0,7.741119385E0
4.602141241E0,-3.433395386E0,-6.657104492E0,7.730346680E0
4.604674199E0,-3.425018311E0,-6.756469727E0,7.704010010E0
4.607207158E0,-3.492050171E0,-6.933639526E0,7.712387085E0
4.609770635E0,-3.644088745E0,-7.064117432E0,7.735137939E0
4.612303594E0,-3.724288940E0,-7.220947266E0,7.672882080E0
4.614836553E0,-3.785339355E0,-7.429244995E0,7.654922485E0
4.617369512E0,-3.840408325E0,-7.686614990E0,7.518463135E0
4.619932989E0,-3.942169189E0,-7.960754395E0,7.392761230E0
4.622465948E0,-4.094192505E0,-8.216934204E0,7.235946655E0
4.624998907E0,-4.143280029E0,-8.441986084E0,7.091094971E0
4.627531866E0,-4.083419800E0,-8.696975708E0,6.955825806E0
4.630064824E0,-4.036727905E0,-8.930404663E0,6.860046387E0
4.632628301E0,-4.066665649E0,-9.081237793E0,6.797805786E0
4.635161260E0,-4.022369385E0,-9.205734253E0,6.882797241E0
4.637694219E0,-3.938568115E0,-9.294326782E0,7.067153931E0
4.640227178E0,-3.885894775E0,-9.332626343E0,7.316146851E0
4.642790655E0,-3.780548096E0,-9.278762817E0,7.635772705E0
4.645323614E0,-3.717102051E0,-9.129119873E0,7.981735229E0
4.647856573E0,-3.640487671E0,-8.916046143E0,8.315734863E0
4.650389532E0,-3.501632690E0,-8.753234863E0,8.550354004E0
4.652922491E0,-3.413040161E0,-8.547332764E0,8.784988403E0
4.655485967E0,-3.355590820E0,-8.403686523E0,8.875976562E0
4.658018926E0,-3.335235596E0,-8.292343140E0,8.910690308E0
4.660551885E0,-3.312484741E0,-8.181015015E0,8.923858643E0
4.663084844E0,-3.278976440E0,-8.013427734E0,8.938217163E0
4.665648321E0,-3.290939331E0,-7.879348755E0,8.927444458E0
4.668181280E0,-3.272979736E0,-7.723724365E0,8.800552368E0
4.670714239E0,-3.265808105E0,-7.596832275E0,8.628173828E0
4.673247198E0,-3.287353516E0,-7.469940186E0,8.470153809E0
4.675780157E0,-3.305313110E0,-7.394531250E0,8.236724854E0
4.678343633E0,-3.346008301E0,-7.525009155E0,7.868011475E0
4.680876592E0,-3.446563721E0,-7.924835205E0,7.441848755E0
4.683440069E0,-3.508819580E0,-8.453964233E0,6.886383057E0
4.685973028E0,-3.537536621E0,-9.007019043E0,6.223190308E0
4.688536504E0,-3.475296021E0,-9.423614502E0,5.496551514E0
4.691069463E0,-3.284957886E0,-9.655853271E0,4.817794800E0
4.693602422E0,-3.227493286E0,-9.890472412E0,4.225234985E0
4.696135381E0,-3.183197021E0,-1.027354431E1,3.642242432E0
4.698698858E0,-3.085037231E0,-1.067817688E1,3.067642212E0
4.701231817E0,-3.028778076E0,-1.116897583E1,2.552886963E0
4.703764776E0,-2.898284912E0,-1.182020569E1,2.217697144E0
4.706297735E0,-2.889907837E0,-1.249177551E1,1.926803589E0
4.708830694E0,-2.912658691E0,-1.326391602E1,1.785537720E0
4.711394170E0,-2.862380981E0,-1.422398376E1,1.753219604E0
4.713927129E0,-2.764221191E0,-1.542108154E1,1.309097290E0
4.716460088E0,-2.712738037E0,-1.686837769E1,6.063995361E-1
4.718993047E0,-2.698379517E0,-1.847129822E1,8.087158203E-2
4.721556524E0,-2.628936768E0,-2.024659729E1,-3.656463623E-1
4.724089483E0,-2.202774048E0,-2.209132385E1,-6.589355469E-1
4.726622442E0,-1.647323608E0,-2.385585022E1,-8.660278320E-1
4.729155401E0,-1.132568359E0,-2.545159912E1,-8.361053467E-1
4.731688360E0,-4.597930908E-1,-2.646913147E1,-7.164001465E-1
4.734251836E0,3.470458984E-1,-2.693479919E1,-6.409759521E-1
4.736784795E0,1.371765137E0,-2.679473877E1,-3.991699219E-1
4.739317754E0,2.655059814E0,-2.574607849E1,-5.340576172E-4
4.741850713E0,3.710906982E0,-2.385466003E1,5.465393066E-1
4.744414190E0,4.562042236E0,-2.127371216E1,1.202560425E0
4.746947149E0,5.099533081E0,-1.828215027E1,1.535354614E0
4.749480108E0,4.997787476E0,-1.548812866E1,1.802307129E0
4.752013067E0,4.787094116E0,-1.303047180E1,2.174606323E0
4.754546026E0,4.366912842E0,-1.099780273E1,2.414016724E0
4.757109502E0,3.853363037E0,-9.459518433E0,2.459518433E0
4.759642461E0,3.556472778E0,-8.204956055E0,2.471481323E0
4.762175420E0,3.172210693E0,-7.302352905E0,2.447540283E0
4.764708379E0,2.939971924E0,-6.576904297E0,2.422393799E0
4.767271856E0,2.791534424E0,-6.056167603E0,2.350570679E0
4.769804815E0,2.870544434E0,-5.701828003E0,2.385284424E0
4.772337774E0,2.920822144E0,-5.413314819E0,2.409225464E0
4.774870733E0,2.936370850E0,-5.219390869E0,2.459518433E0
4.777403692E0,2.882507324E0,-5.049407959E0,2.437957764E0
4.779967168E0,2.843002319E0,-4.886596680E0,2.442749023E0
4.782500127E0,2.843002319E0,-4.793228149E0,2.402053833E0
4.785033086E0,2.669418335E0,-4.835128784E0,2.684570312E0
4.787566045E0,2.588027954E0,-4.776458740E0,3.170593262E0
4.790129522E0,2.597595215E0,-4.656753540E0,3.225662231E0
4.792662481E0,2.501831055E0,-4.765686035E0,3.213684082E0
4.795195440E0,2.364166260E0,-4.946456909E0,3.147842407E0
4.797728399E0,2.042144775E0,-5.201431274E0,3.223266602E0
4.800291875E0,1.447189331E0,-5.528244019E0,3.419586182E0
4.802824834E0,8.354644775E-1,-5.728164673E0,3.818222046E0
4.805357793E0,4.224700928E-1,-5.900543213E0,4.298263550E0
4.807890752E0,1.722717285E-1,-6.118408203E0,4.623870850E0
4.810423711E0,6.573486328E-2,-6.347061157E0,5.021301270E0
4.812987188E0,1.878356934E-1,-6.606826782E0,5.325363159E0
4.815520147E0,2.081909180E-1,-6.889343262E0,5.600708008E0
4.818053106E0,2.742004395E-2,-7.231719971E0,6.057998657E0
4.820586065E0,-3.482055664E-2,-7.604019165E0,6.441070557E0
4.823149541E0,-6.834411621E-2,-8.012222290E0,6.470993042E0
4.825682500E0,-1.760864258E-1,-8.474304199E0,6.304595947E0
4.828215459E0,-2.550964355E-1,-9.068069458E0,5.996948242E0
4.830748418E0,-4.226837158E-1,-9.697738647E0,5.800613403E0
4.833281377E0,-4.705657959E-1,-1.032621765E1,5.653381348E0
4.835844854E0,-2.886047363E-1,-1.096069336E1,5.243972778E0
4.838377813E0,2.288818359E-3,-1.157958984E1,4.827377319E0
4.840910772E0,3.973236084E-1,-1.206680298E1,4.471832275E0
4.843443731E0,9.611663818E-1,-1.250854492E1,3.979827881E0
4.846007207E0,1.516616821E0,-1.305082703E1,3.564437866E0
4.848540166E0,1.831451416E0,-1.358233643E1,3.198120117E0
4.851073125E0,2.160659790E0,-1.394744873E1,3.026931763E0
4.853606084E0,2.464721680E0,-1.419406128E1,2.988632202E0
4.856139043E0,2.735260010E0,-1.442269897E1,2.957504272E0
4.858702520E0,3.302688599E0,-1.447897339E1,2.912017822E0
4.861235479E0,3.885681152E0,-1.445382690E1,3.181365967E0
4.863768438E0,4.042495728E0,-1.412223816E1,3.309448242E0
4.866301397E0,4.426773071E0,-1.387802124E1,3.162216187E0
4.868864873E0,4.948699951E0,-1.371760559E1,2.870117188E0
4.871397832E0,5.390441895E0,-1.347698975E1,2.557678223E0
4.873930791E0,5.570007324E0,-1.325672913E1,2.360153198E0
4.876463750E0,5.665771484E0,-1.304484558E1,2.417617798E0
4.878996709E0,5.725616455E0,-1.272640991E1,2.595977783E0
4.881560186E0,5.774703979E0,-1.237207031E1,2.829421997E0
4.884093145E0,5.700485229E0,-1.210032654E1,3.061645508E0
4.886626104E0,5.408386230E0,-1.164782715E1,3.326217651E0
4.889159063E0,5.040878296E0,-1.114743042E1,3.618301392E0
4.891722539E0,4.471054077E0,-1.065542603E1,3.627883911E0
4.894255498E0,3.712097168E0,-1.017419434E1,3.715270996E0
4.896788457E0,2.929199219E0,-9.744430542E0,3.787094116E0
4.899321416E0,2.254028320E0,-9.296722412E0,3.843353271E0
4.901854375E0,1.578872681E0,-8.845413208E0,3.856521606E0
4.904417852E0,9.515838623E-1,-8.489868164E0,3.767944336E0
4.906950811E0,4.942932129E-1,-8.171447754E0,3.630279541E0
4.909483770E0,1.926269531E-1,-7.949981689E0,3.550064087E0
4.912016729E0,-8.869934082E-2,-7.847030640E0,3.472259521E0
4.914580205E0,-3.831787109E-1,-7.702178955E0,3.455505371E0
4.917113164E0,-5.124664307E-1,-7.521423340E0,3.426773071E0
4.919646123E0,-5.316162109E-1,-7.436416626E0,3.317825317E0
4.922179082E0,-6.333770752E-1,-7.339462280E0,3.220870972E0
4.924742559E0,-7.566833496E-1,-7.152709961E0,3.036514282E0
4.927275518E0,-7.638549805E-1,-6.981521606E0,3.165802002E0
4.929808477E0,-4.861297607E-1,-6.819915771E0,3.530914307E0
4.932341436E0,-2.742462158E-1,-6.819915771E0,3.521347046E0
4.934874395E0,-2.383270264E-1,-6.861816406E0,3.320220947E0
4.937437871E0,-1.042633057E-1,-6.867797852E0,3.495010376E0
4.939970830E0,-2.167816162E-1,-6.852233887E0,3.891250610E0
4.942503789E0,-4.741668701E-1,-6.811538696E0,4.238403320E0
4.945036748E0,-5.902862549E-1,-6.721755981E0,4.702880859E0
4.947600225E0,-4.562072754E-1,-6.713378906E0,5.088348389E0
4.950133184E0,-3.508605957E-1,-6.816329956E0,5.360092163E0
4.952666143E0,-9.707641602E-2,-6.889343262E0,5.453460693E0
4.955199102E0,2.021942139E-1,-6.926452637E0,5.401977539E0
4.957732061E0,4.583740234E-1,-7.110809326E0,5.287063599E0
4.960295537E0,7.588500977E-1,-7.255661011E0,5.182922363E0
4.962828496E0,8.151092529E-1,-7.375366211E0,5.101516724E0
4.965361455E0,8.270874023E-1,-7.486694336E0,5.021301270E0
4.967894414E0,9.755249023E-1,-7.647109985E0,5.075180054E0
4.970457891E0,9.108886719E-1,-7.697387695E0,5.103912354E0
4.973021367E0,7.816009521E-1,-7.779983521E0,5.220031738E0
4.975554326E0,5.852661133E-1,-7.689010620E0,5.084747314E0
4.978087285E0,4.009246826E-1,-7.625564575E0,4.763931274E0
4.980620244E0,6.942138672E-1,-7.794357300E0,4.421554565E0
4.983183721E0,1.050949097E0,-8.064895630E0,3.994201660E0
4.985716680E0,1.289169312E0,-8.244461060E0,3.441131592E0
4.988249639E0,1.541748047E0,-8.378540039E0,3.066436768E0
4.990782598E0,1.942779541E0,-8.513809204E0,2.833007812E0
4.993346074E0,2.000244141E0,-8.574859619E0,2.491836548E0
4.995879033E0,1.982284546E0,-8.659866333E0,2.204528809E0
4.998411992E0,1.991867065E0,-8.920822144E0,1.945953369E0
5.000944951E0,1.876937866E0,-9.185394287E0,1.775970459E0
5.003477910E0,1.702163696E0,-9.391281128E0,1.898071289E0
5.006041387E0,1.552536011E0,-9.667816162E0,2.118331909E0
5.008574346E0,1.432815552E0,-9.892868042E0,2.326629639E0
5.011107305E0,1.291564941E0,-1.024362183E1,2.506195068E0
5.013640264E0,1.104812622E0,-1.036094666E1,2.651046753E0
5.016203741E0,1.049743652E0,-1.027714539E1,2.816253662E0
5.018736699E0,1.037780762E0,-1.008799744E1,2.847366333E0
5.021269658E0,8.294830322E-1,-9.918014526E0,2.862930298E0
5.023802617E0,6.008300781E-1,-9.649856567E0,2.850967407E0
5.026335576E0,7.061767578E-1,-9.497833252E0,2.973068237E0
5.028899053E0,7.097778320E-1,-9.381713867E0,3.092773438E0
5.031432012E0,4.476013184E-1,-9.029769897E0,3.184951782E0
5.033964971E0,1.782531738E-1,-8.896881104E0,3.316635132E0
5.036497930E0,5.854797363E-2,-8.688583374E0,3.333389282E0
5.039061407E0,-5.158996582E-2,-8.480300903E0,3.309448242E0
5.041594366E0,-1.353759766E-1,-8.286361694E0,3.214874268E0
5.044127324E0,-1.605224609E-1,-8.204956055E0,3.091583252E0
5.046660283E0,-1.844635010E-1,-8.081665039E0,2.952713013E0
5.049193242E0,-2.024230957E-1,-7.914062500E0,2.846176147E0
5.051756719E0,-1.521453857E-1,-8.005050659E0,2.904830933E0
5.054289678E0,-2.778320312E-1,-7.880554199E0,2.884475708E0
5.056822637E0,-2.455139160E-1,-7.982299805E0,2.931167603E0
5.059355596E0,-3.352966309E-1,-8.000259399E0,3.044891357E0
5.061919073E0,-4.586029053E-1,-8.102005005E0,3.180160522E0
5.064452032E0,-4.633941650E-1,-8.256439209E0,3.184951782E0
5.066984991E0,-4.226837158E-1,-8.413253784E0,3.314239502E0
5.069517949E0,-3.065643311E-1,-8.506637573E0,3.311843872E0
5.072081426E0,-2.550964355E-1,-8.623947144E0,3.426773071E0
5.074614385E0,-1.437683105E-1,-8.719711304E0,3.496200562E0
5.077147344E0,-2.046203613E-2,-8.844207764E0,3.518951416E0
5.079680303E0,1.243896484E-1,-8.968704224E0,3.552459717E0
5.082213262E0,3.338775635E-1,-9.013000488E0,3.639846802E0
5.084776739E0,5.337982178E-1,-9.141098022E0,3.751190186E0
5.087309698E0,6.642761230E-1,-9.337417603E0,3.793075562E0
5.089842657E0,7.576599121E-1,-9.487060547E0,3.836181641E0
5.092375616E0,8.163146973E-1,-9.514587402E0,3.830184937E0
5.094939092E0,7.851867676E-1,-9.585220337E0,3.823013306E0
5.097472051E0,9.264526367E-1,-9.574447632E0,3.823013306E0
5.100005010E0,1.019821167E0,-9.610351562E0,3.864913940E0
5.102537969E0,9.946746826E-1,-9.669021606E0,3.824203491E0
5.105070928E0,1.119186401E0,-9.611557007E0,3.790679932E0
5.107603887E0,1.046157837E0,-9.520568848E0,3.724853516E0
5.110167364E0,1.074890137E0,-9.454727173E0,3.686538696E0
5.112700323E0,1.021011353E0,-9.230880737E0,3.589569092E0
5.115233282E0,9.420013428E-1,-9.066879272E0,3.431564331E0
5.117796758E0,8.450469971E-1,-9.083633423E0,3.356140137E0
5.120329717E0,9.144744873E-1,-9.136306763E0,3.230438232E0
5.122862676E0,8.953247070E-1,-9.088424683E0,3.104751587E0
5.125426153E0,8.869476318E-1,-8.990264893E0,3.047286987E0
5.127959112E0,8.881378174E-1,-8.981872559E0,2.974258423E0
5.130492071E0,8.594055176E-1,-8.753234863E0,2.835403442E0
5.133025030E0,8.701782227E-1,-8.766403198E0,2.767166138E0
5.135557989E0,6.989898682E-1,-8.665847778E0,2.665405273E0
5.138090948E0,4.823150635E-1,-8.485076904E0,2.617523193E0
5.140654424E0,4.212646484E-1,-8.456359863E0,2.623519897E0
5.143187383E0,4.069061279E-1,-8.401290894E0,2.653442383E0
5.145720342E0,4.871063232E-1,-8.449172974E0,2.676193237E0
5.148253301E0,5.637207031E-1,-8.328262329E0,2.658233643E0
5.150786260E0,6.152038574E-1,-8.295944214E0,2.712097168E0
5.153349737E0,6.211853027E-1,-8.181015015E0,2.788711548E0
5.155882696E0,5.457611084E-1,-8.011032104E0,2.967086792E0
5.158415655E0,5.900573730E-1,-7.932022095E0,2.963485718E0
5.160948614E0,7.109680176E-1,-7.863784790E0,2.909622192E0
5.163512090E0,7.037811279E-1,-7.752456665E0,2.910812378E0
5.166045049E0,6.152038574E-1,-7.538177490E0,2.865325928E0
5.168578008E0,7.384948730E-1,-7.285583496E0,2.841384888E0
5.171110967E0,9.755249023E-1,-7.180236816E0,2.731246948E0
5.173643926E0,1.182632446E0,-7.036590576E0,2.733642578E0
5.176207403E0,1.357406616E0,-6.927658081E0,2.775543213E0
5.178740362E0,1.502258301E0,-6.752883911E0,2.859344482E0
5.181273321E0,1.756042480E0,-6.749282837E0,2.961090088E0
5.183806280E0,1.924835205E0,-6.600845337E0,3.061645508E0
5.186369756E0,2.109176636E0,-6.512268066E0,3.092773438E0
5.188902715E0,2.194168091E0,-6.426071167E0,3.125106812E0
5.191435674E0,2.456344604E0,-6.436843872E0,3.146652222E0
5.193968633E0,2.619140625E0,-6.546981812E0,3.170593262E0
5.196532110E0,2.786743164E0,-6.596054077E0,3.262771606E0
5.199065069E0,2.874130249E0,-6.758865356E0,3.562042236E0
5.201598028E0,3.136291504E0,-7.170669556E0,3.735626221E0
5.204130987E0,3.288330078E0,-7.447189331E0,3.919967651E0
5.206663946E0,3.295501709E0,-7.617187500E0,4.245590210E0
5.209227422E0,3.570846558E0,-7.905685425E0,4.494583130E0
5.211760381E0,3.801879883E0,-8.239669800E0,4.817794800E0
5.214293340E0,3.861740112E0,-8.560501099E0,5.071578979E0
5.216826299E0,3.728851318E0,-8.718521118E0,5.259536743E0
5.219389776E0,3.764770508E0,-8.839431763E0,5.490570068E0
5.221922735E0,3.876098633E0,-9.139892578E0,5.625839233E0
5.224455694E0,4.030532837E0,-9.388900757E0,5.807800293E0
5.226988653E0,4.102355957E0,-9.591201782E0,5.867660522E0
5.229521612E0,4.078414917E0,-9.758804321E0,5.908355713E0
5.232085088E0,3.977859497E0,-9.999420166E0,5.947860718E0
5.234618047E0,3.981445312E0,-1.002815247E1,6.004119873E0
5.237151006E0,3.840194702E0,-9.992233276E0,5.962234497E0
5.239683965E0,3.789916992E0,-9.952728271E0,5.865264893E0
5.242247442E0,3.669006348E0,-9.987442017E0,5.840118408E0
5.244780401E0,3.551681519E0,-9.971878052E0,5.879623413E0
5.247313360E0,3.351776123E0,-9.913223267E0,5.797027588E0
