"Time (s)","Gyroscope x (rad/s)","Gyroscope y (rad/s)","Gyroscope z (rad/s)"
1.302922600E-1,-1.266479492E-3,6.355285645E-2,7.278442383E-3
1.327947010E-1,2.990722656E-3,6.250000000E-2,1.048278809E-2
1.353276600E-1,5.126953125E-3,5.929565430E-2,1.153564453E-2
1.378606190E-1,8.331298828E-3,5.503845215E-2,1.473999023E-2
1.403935780E-1,1.152038574E-2,5.290222168E-2,1.367187500E-2
1.429265370E-1,1.470947266E-2,4.971313477E-2,1.367187500E-2
1.454594960E-1,2.110290527E-2,4.331970215E-2,1.792907715E-2
1.480229720E-1,1.898193359E-2,4.011535645E-2,2.220153809E-2
1.505559310E-1,2.323913574E-2,3.266906738E-2,2.006530762E-2
1.530888900E-1,2.749633789E-2,3.053283691E-2,2.325439453E-2
1.556218490E-1,2.963256836E-2,2.946472168E-2,2.539062500E-2
1.581853260E-1,3.175354004E-2,2.627563477E-2,2.432250977E-2
1.607182850E-1,3.495788574E-2,2.095031738E-2,2.325439453E-2
1.632512440E-1,3.707885742E-2,1.455688477E-2,2.539062500E-2
1.657842030E-1,3.602600098E-2,9.231567383E-3,2.752685547E-2
1.683476790E-1,4.028320312E-2,6.027221680E-3,2.325439453E-2
1.708806380E-1,4.347229004E-2,7.019042969E-4,2.539062500E-2
1.734135970E-1,4.135131836E-2,-4.623413086E-3,2.964782715E-2
1.759465560E-1,4.241943359E-2,-9.948730469E-3,2.539062500E-2
1.784795150E-1,4.347229004E-2,-1.101684570E-2,2.857971191E-2
1.810429920E-1,4.560852051E-2,-1.420593262E-2,2.645874023E-2
1.835759510E-1,4.028320312E-2,-1.527404785E-2,2.539062500E-2
1.861089100E-1,4.135131836E-2,-2.378845215E-2,2.220153809E-2
1.886418690E-1,4.241943359E-2,-2.485656738E-2,2.220153809E-2
1.912053450E-1,4.667663574E-2,-2.273559570E-2,1.899719238E-2
1.937383040E-1,4.667663574E-2,-2.273559570E-2,1.792907715E-2
1.962712630E-1,4.667663574E-2,-3.018188477E-2,1.687622070E-2
1.988042220E-1,4.241943359E-2,-4.083251953E-2,1.687622070E-2
2.013371810E-1,3.921508789E-2,-4.403686523E-2,1.473999023E-2
2.038701400E-1,3.921508789E-2,-4.296875000E-2,1.367187500E-2
2.064336170E-1,3.707885742E-2,-4.615783691E-2,1.473999023E-2
2.089665760E-1,3.602600098E-2,-4.936218262E-2,1.048278809E-2
2.114995350E-1,3.175354004E-2,-5.361938477E-2,7.278442383E-3
2.140630110E-1,3.388977051E-2,-5.575561523E-2,1.048278809E-2
2.165959700E-1,3.388977051E-2,-5.894470215E-2,6.210327148E-3
2.191289290E-1,3.388977051E-2,-8.024597168E-2,-5.508422852E-3
2.216618880E-1,3.495788574E-2,-8.984375000E-2,-5.508422852E-3
2.241948470E-1,3.175354004E-2,-8.451843262E-2,-1.678466797E-4
2.267583240E-1,2.963256836E-2,-7.279968262E-2,5.157470703E-3
2.292912830E-1,2.963256836E-2,-6.959533691E-2,7.278442383E-3
2.318242420E-1,2.963256836E-2,-6.747436523E-2,1.048278809E-2
2.343572010E-1,2.963256836E-2,-6.959533691E-2,1.367187500E-2
2.369206780E-1,2.642822266E-2,-6.852722168E-2,1.580810547E-2
2.394536360E-1,2.537536621E-2,-6.640625000E-2,2.325439453E-2
2.419865950E-1,2.642822266E-2,-6.214904785E-2,2.220153809E-2
2.445195540E-1,2.323913574E-2,-6.427001953E-2,2.857971191E-2
2.470830310E-1,1.898193359E-2,-6.533813477E-2,3.071594238E-2
2.496159900E-1,2.003479004E-2,-6.747436523E-2,3.071594238E-2
2.521489490E-1,2.110290527E-2,-6.852722168E-2,3.285217285E-2
2.546819080E-1,2.110290527E-2,-6.959533691E-2,3.710937500E-2
2.572148670E-1,2.003479004E-2,-6.747436523E-2,3.924560547E-2
2.597783440E-1,2.110290527E-2,-7.066345215E-2,3.710937500E-2
2.623113030E-1,2.003479004E-2,-7.279968262E-2,3.710937500E-2
2.648442610E-1,1.684570312E-2,-7.279968262E-2,3.710937500E-2
2.673772200E-1,1.684570312E-2,-6.747436523E-2,3.604125977E-2
2.699101790E-1,1.791381836E-2,-6.747436523E-2,3.497314453E-2
2.724736560E-1,2.003479004E-2,-6.747436523E-2,3.285217285E-2
2.750066150E-1,1.684570312E-2,-6.959533691E-2,3.392028809E-2
2.775395740E-1,1.791381836E-2,-7.173156738E-2,3.178405762E-2
2.800725330E-1,1.791381836E-2,-6.747436523E-2,3.071594238E-2
2.826360100E-1,1.577758789E-2,-6.640625000E-2,3.071594238E-2
2.851689690E-1,1.684570312E-2,-6.533813477E-2,2.857971191E-2
2.877019280E-1,1.577758789E-2,-6.533813477E-2,2.752685547E-2
2.902348860E-1,1.577758789E-2,-6.640625000E-2,2.645874023E-2
2.927678450E-1,1.470947266E-2,-6.533813477E-2,2.432250977E-2
2.953313220E-1,1.684570312E-2,-6.427001953E-2,2.539062500E-2
2.978642810E-1,1.470947266E-2,-6.427001953E-2,2.220153809E-2
3.003972400E-1,1.152038574E-2,-6.533813477E-2,2.325439453E-2
3.029301990E-1,9.384155273E-3,-6.214904785E-2,2.432250977E-2
3.054936760E-1,8.331298828E-3,-6.320190430E-2,2.539062500E-2
3.080266350E-1,8.331298828E-3,-6.108093262E-2,2.857971191E-2
3.105595940E-1,4.058837891E-3,-5.575561523E-2,2.432250977E-2
3.130925530E-1,2.990722656E-3,-5.361938477E-2,2.539062500E-2
3.156560290E-1,8.697509766E-4,-5.148315430E-2,2.539062500E-2
3.181889880E-1,8.697509766E-4,-5.361938477E-2,2.432250977E-2
3.207219470E-1,1.937866211E-3,-4.829406738E-2,2.857971191E-2
3.232549060E-1,-3.387451172E-3,-4.403686523E-2,2.964782715E-2
3.257878650E-1,-5.523681641E-3,-4.403686523E-2,2.857971191E-2
3.283513420E-1,-5.523681641E-3,-4.296875000E-2,3.071594238E-2
3.308843010E-1,-5.523681641E-3,-4.083251953E-2,3.604125977E-2
3.334172600E-1,-1.191711426E-2,-3.764343262E-2,3.710937500E-2
3.359502190E-1,-1.298522949E-2,-3.018188477E-2,3.817749023E-2
3.385136950E-1,-1.724243164E-2,-2.699279785E-2,3.924560547E-2
3.410466540E-1,-2.363586426E-2,-2.166748047E-2,4.136657715E-2
3.435796130E-1,-2.470397949E-2,-1.313781738E-2,4.882812500E-2
3.461125720E-1,-2.577209473E-2,-9.948730469E-3,4.669189453E-2
3.486455310E-1,-2.896118164E-2,-2.487182617E-3,4.989624023E-2
3.512090080E-1,-2.896118164E-2,2.838134766E-3,5.096435547E-2
3.537419670E-1,-3.002929688E-2,6.027221680E-3,5.201721191E-2
3.562749260E-1,-3.002929688E-2,1.242065430E-2,5.096435547E-2
3.588078850E-1,-3.215026855E-2,1.562500000E-2,5.522155762E-2
3.613713610E-1,-3.428649902E-2,2.627563477E-2,5.308532715E-2
3.639043200E-1,-3.002929688E-2,3.585815430E-2,5.522155762E-2
3.664372790E-1,-3.321838379E-2,3.373718262E-2,6.054687500E-2
3.689702380E-1,-3.215026855E-2,3.799438477E-2,6.054687500E-2
3.715031970E-1,-3.321838379E-2,4.757690430E-2,5.947875977E-2
3.740666740E-1,-3.215026855E-2,5.929565430E-2,5.841064453E-2
3.765996330E-1,-3.002929688E-2,6.355285645E-2,6.266784668E-2
3.791325920E-1,-2.896118164E-2,7.208251953E-2,6.587219238E-2
3.816655510E-1,-2.470397949E-2,8.380126953E-2,6.161499023E-2
3.842290270E-1,-2.149963379E-2,8.912658691E-2,6.587219238E-2
3.867619860E-1,-1.510620117E-2,8.912658691E-2,7.333374023E-2
3.893254630E-1,-1.405334473E-2,9.552001953E-2,7.226562500E-2
3.918584220E-1,-9.780883789E-3,9.231567383E-2,7.652282715E-2
3.943913810E-1,-3.387451172E-3,9.231567383E-2,8.078002930E-2
3.969548570E-1,-2.334594727E-3,9.231567383E-2,8.824157715E-2
3.994878160E-1,5.126953125E-3,9.231567383E-2,9.037780762E-2
4.020207750E-1,9.384155273E-3,9.445190430E-2,9.356689453E-2
4.045537340E-1,9.384155273E-3,9.870910645E-2,1.010284424E-1
4.071172110E-1,1.577758789E-2,9.977722168E-2,1.095428467E-1
4.096501700E-1,1.577758789E-2,1.040344238E-1,1.159362793E-1
4.121831290E-1,1.684570312E-2,1.072387695E-1,1.212615967E-1
4.147160880E-1,2.323913574E-2,1.114959717E-1,1.287231445E-1
4.172490470E-1,2.642822266E-2,1.189575195E-1,1.404418945E-1
4.198125230E-1,3.282165527E-2,1.317291260E-1,1.468353271E-1
4.223454820E-1,3.388977051E-2,1.434478760E-1,1.574859619E-1
4.248784410E-1,2.963256836E-2,1.764831543E-1,1.681365967E-1
4.274114000E-1,2.856445312E-2,2.041778564E-1,1.798553467E-1
4.299748770E-1,3.495788574E-2,2.031097412E-1,1.883697510E-1
4.325078360E-1,4.560852051E-2,1.988525391E-1,2.075500488E-1
4.350407950E-1,4.135131836E-2,1.999053955E-1,2.203369141E-1
4.375737540E-1,3.921508789E-2,2.095031738E-1,2.373809814E-1
4.401372300E-1,3.282165527E-2,2.265472412E-1,2.576141357E-1
4.426701890E-1,2.856445312E-2,2.457122803E-1,2.810516357E-1
4.452031480E-1,1.791381836E-2,2.606353760E-1,3.013000488E-1
4.477361070E-1,1.365661621E-2,2.734222412E-1,3.215332031E-1
4.502690660E-1,1.152038574E-2,2.819366455E-1,3.471069336E-1
4.528325430E-1,1.045227051E-2,2.883300781E-1,3.801269531E-1
4.553655020E-1,1.152038574E-2,2.861938477E-1,4.110107422E-1
4.578984610E-1,1.045227051E-2,2.734222412E-1,4.387207031E-1
4.604314200E-1,1.258850098E-2,2.542419434E-1,4.589538574E-1
4.629948960E-1,2.110290527E-2,2.308044434E-1,4.770660400E-1
4.655278550E-1,2.856445312E-2,2.073669434E-1,4.909057617E-1
4.680608140E-1,4.135131836E-2,1.903228760E-1,5.047607422E-1
4.705937730E-1,5.519104004E-2,1.764831543E-1,5.111541748E-1
4.731267320E-1,6.478881836E-2,1.700897217E-1,5.186157227E-1
4.756902090E-1,7.650756836E-2,1.626281738E-1,5.143432617E-1
4.782231680E-1,8.395385742E-2,1.562347412E-1,5.079498291E-1
4.807561270E-1,8.715820312E-2,1.391906738E-1,5.015716553E-1
4.832890860E-1,9.355163574E-2,1.221466064E-1,4.909057617E-1
4.858525620E-1,9.887695312E-2,1.093597412E-1,4.738616943E-1
4.883855210E-1,1.031341553E-1,9.445190430E-2,4.600219727E-1
4.909184800E-1,1.137847900E-1,8.592224121E-2,4.472351074E-1
4.934514390E-1,1.233673096E-1,7.527160645E-2,4.323272705E-1
4.959843980E-1,1.382904053E-1,5.822753906E-2,4.174041748E-1
4.985478750E-1,1.521301270E-1,4.545593262E-2,4.024963379E-1
5.010808340E-1,1.659851074E-1,3.585815430E-2,3.886413574E-1
5.036137930E-1,1.808929443E-1,2.413940430E-2,3.684082031E-1
5.061467520E-1,2.032623291E-1,2.095031738E-2,3.449707031E-1
5.087102280E-1,2.203063965E-1,2.095031738E-2,3.204650879E-1
5.112431870E-1,2.352294922E-1,2.201843262E-2,2.970275879E-1
5.137761460E-1,2.501373291E-1,1.774597168E-2,2.714691162E-1
5.163091050E-1,2.650451660E-1,3.906250000E-3,2.533569336E-1
5.188420640E-1,2.725067139E-1,-2.166748047E-2,2.363128662E-1
5.214055410E-1,2.778320312E-1,-4.936218262E-2,2.203369141E-1
5.239385000E-1,2.842254639E-1,-8.451843262E-2,2.064819336E-1
5.264714590E-1,2.810363770E-1,-1.175384521E-1,2.000885010E-1
5.290044180E-1,2.863616943E-1,-1.441650391E-1,1.947631836E-1
5.315678940E-1,2.895507812E-1,-1.739959717E-1,1.915740967E-1
5.341008530E-1,2.906188965E-1,-2.006225586E-1,1.905059814E-1
5.366338120E-1,2.948760986E-1,-2.219390869E-1,1.915740967E-1
5.391667710E-1,3.055267334E-1,-2.400360107E-1,1.915740967E-1
5.416997300E-1,3.119201660E-1,-2.602844238E-1,1.915740967E-1
5.442632070E-1,3.268432617E-1,-2.773284912E-1,1.937103271E-1
5.467961660E-1,3.385620117E-1,-2.911682129E-1,1.947631836E-1
5.493291250E-1,3.481445312E-1,-3.114166260E-1,1.947631836E-1
5.518620840E-1,3.577270508E-1,-3.220672607E-1,1.937103271E-1
5.544255600E-1,3.705139160E-1,-3.433685303E-1,1.937103271E-1
5.569585190E-1,3.811645508E-1,-3.657379150E-1,1.947631836E-1
5.594914780E-1,3.886260986E-1,-3.859863281E-1,1.873168945E-1
5.620244370E-1,3.939514160E-1,-4.062194824E-1,1.862487793E-1
5.645879140E-1,4.014129639E-1,-4.221954346E-1,1.787872314E-1
5.671208730E-1,4.046020508E-1,-4.339141846E-1,1.692047119E-1
5.696538320E-1,3.971405029E-1,-4.435119629E-1,1.542816162E-1
5.721867910E-1,3.928833008E-1,-4.541625977E-1,1.361846924E-1
5.747197500E-1,3.833007812E-1,-4.605560303E-1,1.170043945E-1
5.772832260E-1,3.705139160E-1,-4.605560303E-1,9.782409668E-2
5.798161850E-1,3.534698486E-1,-4.541625977E-1,8.184814453E-2
5.823491440E-1,3.321685791E-1,-4.435119629E-1,6.266784668E-2
5.848821030E-1,3.055267334E-1,-4.371185303E-1,4.350280762E-2
5.874455800E-1,2.767639160E-1,-4.253997803E-1,2.432250977E-2
5.899785390E-1,2.458801270E-1,-4.072875977E-1,7.278442383E-3
5.925114980E-1,2.128601074E-1,-3.934326172E-1,-9.765625000E-3
5.950444570E-1,1.798248291E-1,-3.753356934E-1,-2.467346191E-2
5.975774160E-1,1.457366943E-1,-3.540191650E-1,-3.427124023E-2
6.001408920E-1,1.105957031E-1,-3.327178955E-1,-4.492187500E-2
6.026738510E-1,7.330322266E-2,-2.986297607E-1,-5.557250977E-2
6.052068100E-1,3.921508789E-2,-2.709350586E-1,-6.089782715E-2
6.077397690E-1,6.195068359E-3,-2.400360107E-1,-6.301879883E-2
6.103032460E-1,-2.682495117E-2,-2.038269043E-1,-6.622314453E-2
6.128362050E-1,-5.879211426E-2,-1.718597412E-1,-6.622314453E-2
6.153691640E-1,-8.967590332E-2,-1.409759521E-1,-6.622314453E-2
6.179021230E-1,-1.152496338E-1,-1.068878174E-1,-6.622314453E-2
6.204350820E-1,-1.376190186E-1,-6.959533691E-2,-6.301879883E-2
6.229985580E-1,-1.621246338E-1,-3.550720215E-2,-5.769348145E-2
6.255315170E-1,-1.770324707E-1,-4.623413086E-3,-5.024719238E-2
6.280644760E-1,-1.887512207E-1,2.095031738E-2,-4.385375977E-2
6.305974350E-1,-1.983337402E-1,3.906250000E-2,-3.427124023E-2
6.331609120E-1,-2.036590576E-1,4.757690430E-2,-2.255249023E-2
6.356800590E-1,-2.068634033E-1,5.610656738E-2,-1.722717285E-2
6.382130180E-1,-2.089843750E-1,6.462097168E-2,-1.083374023E-2
6.407459770E-1,-2.057952881E-1,6.036376953E-2,-2.304077148E-3
6.432789360E-1,-2.015380859E-1,5.822753906E-2,4.089355469E-3
6.458424120E-1,-1.930084229E-1,6.143188477E-2,9.414672852E-3
6.483753710E-1,-1.834259033E-1,6.143188477E-2,1.899719238E-2
6.509083300E-1,-1.717071533E-1,6.036376953E-2,2.432250977E-2
6.534412890E-1,-1.578521729E-1,5.610656738E-2,2.645874023E-2
6.560047660E-1,-1.418762207E-1,5.290222168E-2,3.392028809E-2
6.585377250E-1,-1.216430664E-1,4.650878906E-2,3.817749023E-2
6.610706840E-1,-1.035308838E-1,3.479003906E-2,3.924560547E-2
6.636036430E-1,-8.755493164E-2,1.774597168E-2,3.710937500E-2
6.661366020E-1,-6.837463379E-2,9.231567383E-3,3.604125977E-2
6.687000780E-1,-4.814147949E-2,1.770019531E-3,3.178405762E-2
6.712330370E-1,-3.109741211E-2,-5.691528320E-3,2.752685547E-2
6.737659960E-1,-1.298522949E-2,-9.948730469E-3,2.220153809E-2
6.763294730E-1,2.990722656E-3,-2.699279785E-2,6.210327148E-3
6.788624320E-1,2.110290527E-2,-5.148315430E-2,-9.765625000E-3
6.814259080E-1,3.602600098E-2,-6.533813477E-2,-1.188659668E-2
6.839588670E-1,4.879760742E-2,-7.279968262E-2,-1.295471191E-2
6.864918260E-1,5.625915527E-2,-7.066345215E-2,-2.467346191E-2
6.890247850E-1,6.584167480E-2,-6.533813477E-2,-3.852844238E-2
6.915882620E-1,6.904602051E-2,-6.320190430E-2,-5.557250977E-2
6.941212210E-1,6.797790527E-2,-6.108093262E-2,-6.941223145E-2
6.966541800E-1,7.223510742E-2,-6.214904785E-2,-8.433532715E-2
6.991871390E-1,7.543945312E-2,-6.747436523E-2,-1.056365967E-1
7.017506160E-1,7.330322266E-2,-7.705688477E-2,-1.205444336E-1
7.042835740E-1,6.797790527E-2,-7.812500000E-2,-1.333312988E-1
7.068165330E-1,6.051635742E-2,-7.492065430E-2,-1.471862793E-1
7.093494920E-1,4.879760742E-2,-7.066345215E-2,-1.610260010E-1
7.119129690E-1,3.495788574E-2,-6.747436523E-2,-1.738128662E-1
7.144459280E-1,2.323913574E-2,-6.214904785E-2,-1.855316162E-1
7.169788870E-1,7.263183594E-3,-5.255126953E-2,-1.897888184E-1
7.195118460E-1,-9.780883789E-3,-5.043029785E-2,-2.004394531E-1
7.220448050E-1,-2.682495117E-2,-4.722595215E-2,-2.057647705E-1
7.246082820E-1,-4.600524902E-2,-4.829406738E-2,-2.100372314E-1
7.271412410E-1,-6.518554688E-2,-4.510498047E-2,-2.100372314E-1
7.296741990E-1,-8.648681641E-2,-4.403686523E-2,-2.100372314E-1
7.322071580E-1,-1.077880859E-1,-4.722595215E-2,-2.100372314E-1
7.347706350E-1,-1.259002686E-1,-4.615783691E-2,-2.079010010E-1
7.373035940E-1,-1.450805664E-1,-4.296875000E-2,-2.068328857E-1
7.398365530E-1,-1.653137207E-1,-4.722595215E-2,-2.047119141E-1
7.423695120E-1,-1.834259033E-1,-4.615783691E-2,-1.972503662E-1
7.449024710E-1,-2.057952881E-1,-4.936218262E-2,-1.897888184E-1
7.474659480E-1,-2.228393555E-1,-4.722595215E-2,-1.855316162E-1
7.499989070E-1,-2.398834229E-1,-4.722595215E-2,-1.812744141E-1
7.525318660E-1,-2.590637207E-1,-4.296875000E-2,-1.716766357E-1
7.550648240E-1,-2.761077881E-1,-3.871154785E-2,-1.663513184E-1
7.576283010E-1,-2.856903076E-1,-3.231811523E-2,-1.599578857E-1
7.601612600E-1,-3.016662598E-1,-2.378845215E-2,-1.557006836E-1
7.626942190E-1,-3.165893555E-1,-1.953125000E-2,-1.535797119E-1
7.652271780E-1,-3.229675293E-1,-1.101684570E-2,-1.461181641E-1
7.677601370E-1,-3.251037598E-1,-1.206970215E-2,-1.397247314E-1
7.703236140E-1,-3.240356445E-1,-2.166748047E-2,-1.354675293E-1
7.728565730E-1,-3.229675293E-1,-2.378845215E-2,-1.290740967E-1
7.753895320E-1,-3.219146729E-1,-2.911376953E-2,-1.226806641E-1
7.779224910E-1,-3.208465576E-1,-3.871154785E-2,-1.162872314E-1
7.804859670E-1,-3.144531250E-1,-4.296875000E-2,-1.098937988E-1
7.830189260E-1,-3.048706055E-1,-5.787658691E-2,-1.013793945E-1
7.855518850E-1,-2.984771729E-1,-7.492065430E-2,-9.072875977E-2
7.880848440E-1,-2.952728271E-1,-8.770751953E-2,-7.901000977E-2
7.906178030E-1,-2.899475098E-1,-1.036834717E-1,-6.301879883E-2
7.931812800E-1,-2.910156250E-1,-1.132812500E-1,-4.811096191E-2
7.957142390E-1,-2.942047119E-1,-1.324462891E-1,-3.427124023E-2
7.982471980E-1,-2.931518555E-1,-1.526947021E-1,-1.722717285E-2
8.007801570E-1,-2.974090576E-1,-1.739959717E-1,-1.235961914E-3
8.033436330E-1,-2.984771729E-1,-1.931762695E-1,1.260375977E-2
8.058765920E-1,-3.005981445E-1,-2.091522217E-1,3.392028809E-2
8.084095510E-1,-3.027343750E-1,-2.283172607E-1,4.562377930E-2
8.109425100E-1,-3.123168945E-1,-2.528228760E-1,6.054687500E-2
8.134754690E-1,-3.080596924E-1,-2.709350586E-1,7.971191406E-2
8.160389460E-1,-3.091278076E-1,-2.869110107E-1,9.356689453E-2
8.185719050E-1,-3.112487793E-1,-3.018341064E-1,1.095428467E-1
8.211048640E-1,-3.112487793E-1,-3.060913086E-1,1.180725098E-1
8.236378230E-1,-3.101959229E-1,-3.178100586E-1,1.287231445E-1
8.262012990E-1,-3.133850098E-1,-3.199310303E-1,1.383056641E-1
8.287342580E-1,-3.112487793E-1,-3.284606934E-1,1.425628662E-1
8.312672170E-1,-3.038024902E-1,-3.327178955E-1,1.468353271E-1
8.338001760E-1,-2.974090576E-1,-3.433685303E-1,1.532287598E-1
8.363636530E-1,-2.899475098E-1,-3.486938477E-1,1.585540771E-1
8.388966120E-1,-2.750396729E-1,-3.582916260E-1,1.617431641E-1
8.414295710E-1,-2.633209229E-1,-3.742675781E-1,1.649475098E-1
8.439625300E-1,-2.494659424E-1,-3.849182129E-1,1.670684814E-1
8.464954890E-1,-2.313537598E-1,-3.955688477E-1,1.638793945E-1
8.490589650E-1,-2.121887207E-1,-3.977050781E-1,1.649475098E-1
8.515919240E-1,-1.972656250E-1,-4.030303955E-1,1.617431641E-1
8.541248830E-1,-1.812896729E-1,-4.062194824E-1,1.596069336E-1
8.566578420E-1,-1.642456055E-1,-4.126129150E-1,1.585540771E-1
8.592213190E-1,-1.461334229E-1,-4.211425781E-1,1.574859619E-1
8.617542780E-1,-1.290893555E-1,-4.264678955E-1,1.553497314E-1
8.642872370E-1,-1.109924316E-1,-4.413757324E-1,1.489562988E-1
8.668201960E-1,-9.713745117E-2,-4.584197998E-1,1.415100098E-1
8.693531550E-1,-8.116149902E-2,-4.626770020E-1,1.361846924E-1
8.719166310E-1,-6.837463379E-2,-4.743957520E-1,1.297912598E-1
8.744495900E-1,-6.091308594E-2,-4.882507324E-1,1.255187988E-1
8.769825490E-1,-4.919433594E-2,-5.020904541E-1,1.212615967E-1
8.795155080E-1,-4.281616211E-2,-5.148773193E-1,1.159362793E-1
8.820789850E-1,-3.642272949E-2,-5.255279541E-1,1.095428467E-1
8.846119440E-1,-3.321838379E-2,-5.340576172E-1,1.063537598E-1
8.871449030E-1,-3.002929688E-2,-5.468444824E-1,1.020965576E-1
8.896778620E-1,-2.682495117E-2,-5.564270020E-1,1.052856445E-1
8.922108210E-1,-2.470397949E-2,-5.649414062E-1,1.020965576E-1
8.947742970E-1,-2.043151855E-2,-5.649414062E-1,9.996032715E-2
8.973072560E-1,-2.043151855E-2,-5.628204346E-1,9.996032715E-2
8.998402150E-1,-1.831054688E-2,-5.649414062E-1,9.889221191E-2
9.023731740E-1,-1.724243164E-2,-5.724029541E-1,9.570312500E-2
9.049366510E-1,-1.510620117E-2,-5.745391846E-1,9.570312500E-2
9.074696100E-1,-1.405334473E-2,-5.819854736E-1,9.782409668E-2
9.100025690E-1,-1.405334473E-2,-5.883789062E-1,9.889221191E-2
9.125355280E-1,-1.617431641E-2,-5.873107910E-1,1.020965576E-1
9.150684870E-1,-1.510620117E-2,-5.787963867E-1,1.020965576E-1
9.176319630E-1,-1.724243164E-2,-5.681457520E-1,1.020965576E-1
9.201649220E-1,-2.043151855E-2,-5.585632324E-1,1.042175293E-1
9.226978810E-1,-3.002929688E-2,-5.542907715E-1,1.052856445E-1
9.252308400E-1,-3.109741211E-2,-5.436401367E-1,1.074218750E-1
9.277943170E-1,-3.428649902E-2,-5.351257324E-1,1.084747314E-1
9.303272760E-1,-4.067993164E-2,-5.234069824E-1,1.074218750E-1
9.328602350E-1,-5.026245117E-2,-5.116882324E-1,1.106109619E-1
9.353931940E-1,-5.772399902E-2,-5.031585693E-1,1.148681641E-1
9.379261530E-1,-6.304931641E-2,-4.978332520E-1,1.180725098E-1
9.404896290E-1,-7.369995117E-2,-4.903717041E-1,1.148681641E-1
9.430225880E-1,-8.328247070E-2,-4.829254150E-1,1.180725098E-1
9.455555470E-1,-9.394836426E-2,-4.712066650E-1,1.201934814E-1
9.480885060E-1,-1.045989990E-1,-4.648132324E-1,1.180725098E-1
9.506519830E-1,-1.120452881E-1,-4.616241455E-1,1.191406250E-1
9.531849420E-1,-1.237640381E-1,-4.605560303E-1,1.233978271E-1
9.557179010E-1,-1.344146729E-1,-4.605560303E-1,1.223297119E-1
9.582508600E-1,-1.440124512E-1,-4.552307129E-1,1.244659424E-1
9.607838190E-1,-1.557312012E-1,-4.509582520E-1,1.255187988E-1
9.633472950E-1,-1.685028076E-1,-4.520263672E-1,1.244659424E-1
9.659107720E-1,-1.791687012E-1,-4.413757324E-1,1.244659424E-1
9.684437310E-1,-1.866149902E-1,-4.360504150E-1,1.276550293E-1
9.709766900E-1,-1.962127686E-1,-4.317932129E-1,1.287231445E-1
9.735401660E-1,-2.100524902E-1,-4.253997803E-1,1.308593750E-1
9.760731250E-1,-2.196502686E-1,-4.200744629E-1,1.276550293E-1
9.786060840E-1,-2.324218750E-1,-4.147491455E-1,1.265869141E-1
9.811390430E-1,-2.420196533E-1,-4.104919434E-1,1.287231445E-1
9.837025200E-1,-2.516021729E-1,-4.072875977E-1,1.255187988E-1
9.862354790E-1,-2.622528076E-1,-4.040985107E-1,1.276550293E-1
9.887684380E-1,-2.697143555E-1,-4.062194824E-1,1.287231445E-1
9.913013970E-1,-2.803649902E-1,-3.977050781E-1,1.244659424E-1
9.938343560E-1,-2.899475098E-1,-3.945007324E-1,1.201934814E-1
9.963978320E-1,-2.963409424E-1,-3.913116455E-1,1.191406250E-1
9.989307910E-1,-3.038024902E-1,-3.838500977E-1,1.159362793E-1
1.001463750E0,-3.091278076E-1,-3.731994629E-1,1.148681641E-1
1.003996709E0,-3.165893555E-1,-3.721313477E-1,1.138153076E-1
1.006560186E0,-3.251037598E-1,-3.753356934E-1,1.095428467E-1
1.009093145E0,-3.251037598E-1,-3.731994629E-1,1.052856445E-1
1.011626104E0,-3.272399902E-1,-3.710632324E-1,1.063537598E-1
1.014159063E0,-3.346862793E-1,-3.646850586E-1,1.031494141E-1
1.016692022E0,-3.421478271E-1,-3.614807129E-1,1.031494141E-1
1.019255498E0,-3.432159424E-1,-3.582916260E-1,9.782409668E-2
1.021788457E0,-3.432159424E-1,-3.550872803E-1,9.143066406E-2
1.024321416E0,-3.453369141E-1,-3.529663086E-1,8.505249023E-2
1.026854375E0,-3.442840576E-1,-3.476409912E-1,8.398437500E-2
1.029417852E0,-3.453369141E-1,-3.401794434E-1,8.078002930E-2
1.031950811E0,-3.432159424E-1,-3.305969238E-1,7.438659668E-2
1.034483770E0,-3.400115967E-1,-3.252563477E-1,7.012939453E-2
1.037016729E0,-3.378906250E-1,-3.178100586E-1,6.694030762E-2
1.039549688E0,-3.336334229E-1,-3.039550781E-1,6.266784668E-2
1.042113164E0,-3.293609619E-1,-2.911682129E-1,5.628967285E-2
1.044646123E0,-3.282928467E-1,-2.794494629E-1,5.096435547E-2
1.047179082E0,-3.229675293E-1,-2.677459717E-1,4.776000977E-2
1.049712041E0,-3.208465576E-1,-2.602844238E-1,4.457092285E-2
1.052275518E0,-3.176422119E-1,-2.517547607E-1,3.924560547E-2
1.054808477E0,-3.197784424E-1,-2.496337891E-1,3.178405762E-2
1.057341436E0,-3.165893555E-1,-2.389831543E-1,2.752685547E-2
1.059874395E0,-3.155212402E-1,-2.357788086E-1,2.539062500E-2
1.062407354E0,-3.176422119E-1,-2.325897217E-1,2.220153809E-2
1.064970830E0,-3.165893555E-1,-2.261962891E-1,1.687622070E-2
1.067503789E0,-3.176422119E-1,-2.251281738E-1,1.260375977E-2
1.070036748E0,-3.219146729E-1,-2.304534912E-1,9.414672852E-3
1.072569707E0,-3.240356445E-1,-2.315216064E-1,7.278442383E-3
1.075133184E0,-3.229675293E-1,-2.293853760E-1,5.157470703E-3
1.077666143E0,-3.240356445E-1,-2.336578369E-1,8.850097656E-4
1.080199102E0,-3.219146729E-1,-2.347106934E-1,8.850097656E-4
1.082732061E0,-3.208465576E-1,-2.432403564E-1,-2.304077148E-3
1.085265020E0,-3.176422119E-1,-2.432403564E-1,-4.440307617E-3
1.087828496E0,-3.176422119E-1,-2.474975586E-1,-4.440307617E-3
1.090361455E0,-3.197784424E-1,-2.560272217E-1,-8.697509766E-3
1.092894414E0,-3.187103271E-1,-2.602844238E-1,-1.188659668E-2
1.095427373E0,-3.187103271E-1,-2.666778564E-1,-1.402282715E-2
1.097990850E0,-3.144531250E-1,-2.687988281E-1,-1.295471191E-2
1.100523809E0,-3.155212402E-1,-2.773284912E-1,-1.295471191E-2
1.103056768E0,-3.165893555E-1,-2.805175781E-1,-1.083374023E-2
1.105589727E0,-3.133850098E-1,-2.815856934E-1,-1.083374023E-2
1.108122686E0,-3.133850098E-1,-2.815856934E-1,-1.083374023E-2
1.110686162E0,-3.091278076E-1,-2.794494629E-1,-9.765625000E-3
1.113219121E0,-3.038024902E-1,-2.869110107E-1,-7.629394531E-3
1.115752080E0,-2.995452881E-1,-2.954406738E-1,-4.440307617E-3
1.118285039E0,-2.974090576E-1,-2.837219238E-1,-7.629394531E-3
1.120848516E0,-2.984771729E-1,-2.645416260E-1,-7.629394531E-3
1.123381475E0,-3.005981445E-1,-2.549591064E-1,-3.372192383E-3
1.125914434E0,-2.942047119E-1,-2.443084717E-1,1.953125000E-3
1.128447393E0,-2.878265381E-1,-2.347106934E-1,3.021240234E-3
1.131010869E0,-2.856903076E-1,-2.304534912E-1,1.153564453E-2
1.133543828E0,-2.835540771E-1,-2.176666260E-1,1.899719238E-2
1.136076787E0,-2.824859619E-1,-2.070159912E-1,2.752685547E-2
1.138609746E0,-2.814331055E-1,-1.985015869E-1,3.497314453E-2
1.141142705E0,-2.814331055E-1,-1.878509521E-1,4.562377930E-2
1.143706182E0,-2.814331055E-1,-1.803894043E-1,5.947875977E-2
1.146239141E0,-2.878265381E-1,-1.633453369E-1,6.906127930E-2
1.148772100E0,-2.899475098E-1,-1.537628174E-1,7.971191406E-2
1.151305059E0,-2.867584229E-1,-1.537628174E-1,8.824157715E-2
1.153838018E0,-2.846221924E-1,-1.548156738E-1,9.782409668E-2
1.156401494E0,-2.814331055E-1,-1.484222412E-1,1.042175293E-1
1.158934453E0,-2.792968750E-1,-1.409759521E-1,1.084747314E-1
1.161467412E0,-2.782287598E-1,-1.409759521E-1,1.116790771E-1
1.164000371E0,-2.729034424E-1,-1.356506348E-1,1.170043945E-1
1.166563848E0,-2.675781250E-1,-1.356506348E-1,1.223297119E-1
1.169096807E0,-2.611846924E-1,-1.377716064E-1,1.233978271E-1
1.171629766E0,-2.579956055E-1,-1.356506348E-1,1.255187988E-1
1.174162725E0,-2.473449707E-1,-1.324462891E-1,1.223297119E-1
1.176726201E0,-2.409515381E-1,-1.377716064E-1,1.191406250E-1
1.179259160E0,-2.377471924E-1,-1.484222412E-1,1.180725098E-1
1.181792119E0,-2.260284424E-1,-1.537628174E-1,1.148681641E-1
1.184325078E0,-2.164459229E-1,-1.601409912E-1,1.042175293E-1
1.186858037E0,-2.132568359E-1,-1.644134521E-1,9.782409668E-2
1.189421514E0,-2.057952881E-1,-1.665344238E-1,9.037780762E-2
1.191954473E0,-1.994018555E-1,-1.665344238E-1,8.291625977E-2
1.194487432E0,-1.908874512E-1,-1.782531738E-1,7.652282715E-2
1.197020391E0,-1.834259033E-1,-1.857147217E-1,6.694030762E-2
1.199583867E0,-1.802215576E-1,-1.899719238E-1,5.628967285E-2
1.202116826E0,-1.748962402E-1,-1.963653564E-1,4.562377930E-2
1.204649785E0,-1.695709229E-1,-1.974334717E-1,3.604125977E-2
1.207182744E0,-1.631774902E-1,-1.985015869E-1,2.539062500E-2
1.209715703E0,-1.567993164E-1,-2.059478760E-1,1.792907715E-2
1.212248662E0,-1.557312012E-1,-2.166137695E-1,6.210327148E-3
1.214812139E0,-1.535949707E-1,-2.219390869E-1,-3.372192383E-3
1.217345098E0,-1.546630859E-1,-2.187347412E-1,-1.402282715E-2
1.219878057E0,-1.546630859E-1,-2.272644043E-1,-2.360534668E-2
1.222441533E0,-1.535949707E-1,-2.325897217E-1,-3.106689453E-2
1.224974492E0,-1.589202881E-1,-2.293853760E-1,-3.532409668E-2
1.227507451E0,-1.653137207E-1,-2.283172607E-1,-3.532409668E-2
1.230040410E0,-1.717071533E-1,-2.229919434E-1,-4.597473145E-2
1.232573369E0,-1.812896729E-1,-2.208709717E-1,-5.131530762E-2
1.235136846E0,-1.898193359E-1,-2.261962891E-1,-5.450439453E-2
1.237669805E0,-2.015380859E-1,-2.347106934E-1,-5.769348145E-2
1.240202764E0,-2.153778076E-1,-2.347106934E-1,-5.664062500E-2
1.242735723E0,-2.313537598E-1,-2.315216064E-1,-5.450439453E-2
1.245299199E0,-2.494659424E-1,-2.293853760E-1,-5.024719238E-2
1.247862676E0,-2.675781250E-1,-2.283172607E-1,-4.704284668E-2
1.250395635E0,-2.888793945E-1,-2.240600586E-1,-4.171752930E-2
1.252928594E0,-3.080596924E-1,-2.198028564E-1,-2.574157715E-2
1.255461553E0,-3.219146729E-1,-2.176666260E-1,-1.934814453E-2
1.258025030E0,-3.314971924E-1,-2.144775391E-1,-1.615905762E-2
1.260557989E0,-3.400115967E-1,-2.198028564E-1,-4.440307617E-3
1.263090948E0,-3.474731445E-1,-2.293853760E-1,3.021240234E-3
1.265623907E0,-3.527984619E-1,-2.368469238E-1,1.473999023E-2
1.268187383E0,-3.602600098E-1,-2.464294434E-1,3.071594238E-2
1.270720342E0,-3.623809814E-1,-2.592163086E-1,4.243469238E-2
1.273253301E0,-3.655853271E-1,-2.666778564E-1,5.628967285E-2
1.275786260E0,-3.687744141E-1,-2.847900391E-1,6.694030762E-2
1.278319219E0,-3.645172119E-1,-3.060913086E-1,8.078002930E-2
1.280882696E0,-3.645172119E-1,-3.252563477E-1,9.249877930E-2
1.283415655E0,-3.677215576E-1,-3.433685303E-1,1.074218750E-1
1.285948614E0,-3.740997314E-1,-3.518981934E-1,1.180725098E-1
1.288481573E0,-3.719787598E-1,-3.689422607E-1,1.308593750E-1
1.291045049E0,-3.740997314E-1,-3.838500977E-1,1.479034424E-1
1.293578008E0,-3.783721924E-1,-3.902435303E-1,1.596069336E-1
1.296110967E0,-3.836975098E-1,-3.955688477E-1,1.702728271E-1
1.298643926E0,-3.858184814E-1,-3.987731934E-1,1.809234619E-1
1.301176885E0,-3.868865967E-1,-4.040985107E-1,1.926422119E-1
1.303740362E0,-3.922119141E-1,-4.030303955E-1,2.086181641E-1
1.306273321E0,-3.954162598E-1,-3.934326172E-1,2.182006836E-1
1.308806280E0,-4.018096924E-1,-3.785247803E-1,2.299194336E-1
1.311339239E0,-4.049987793E-1,-3.678741455E-1,2.416381836E-1
1.313902715E0,-4.049987793E-1,-3.689422607E-1,2.533569336E-1
1.316435674E0,-4.060668945E-1,-3.636169434E-1,2.640075684E-1
1.318968633E0,-4.060668945E-1,-3.518981934E-1,2.714691162E-1
1.321501592E0,-4.071350098E-1,-3.401794434E-1,2.799835205E-1
1.324065069E0,-4.081878662E-1,-3.369750977E-1,2.927703857E-1
1.326598028E0,-4.092559814E-1,-3.327178955E-1,3.013000488E-1
1.329130987E0,-4.113922119E-1,-3.263244629E-1,3.087463379E-1
1.331663946E0,-4.113922119E-1,-3.167419434E-1,3.193969727E-1
1.334196905E0,-4.124603271E-1,-3.018341064E-1,3.279266357E-1
1.336760381E0,-4.199066162E-1,-2.965087891E-1,3.364410400E-1
1.339293340E0,-4.231109619E-1,-2.879791260E-1,3.439025879E-1
1.341826299E0,-4.273681641E-1,-2.762603760E-1,3.492279053E-1
1.344359258E0,-4.295043945E-1,-2.656097412E-1,3.534851074E-1
1.346922735E0,-4.358978271E-1,-2.549591064E-1,3.566894531E-1
1.349455694E0,-4.444122314E-1,-2.336578369E-1,3.630828857E-1
1.351988653E0,-4.497375488E-1,-2.102203369E-1,3.662719727E-1
1.354521612E0,-4.508056641E-1,-1.878509521E-1,3.652038574E-1
1.357054571E0,-4.497375488E-1,-1.622772217E-1,3.641510010E-1
1.359618047E0,-4.508056641E-1,-1.356506348E-1,3.598785400E-1
1.362151006E0,-4.497375488E-1,-9.410095215E-2,3.588256836E-1
1.364683965E0,-4.476165771E-1,-5.148315430E-2,3.609466553E-1
1.367216924E0,-4.433441162E-1,-3.125000000E-2,3.556213379E-1
1.369780401E0,-4.337615967E-1,-1.420593262E-2,3.471069336E-1
1.372313360E0,-4.316253662E-1,9.231567383E-3,3.481597900E-1
1.374846319E0,-4.252319336E-1,3.373718262E-2,3.502960205E-1
1.377379278E0,-4.231109619E-1,6.250000000E-2,3.513641357E-1
1.379912237E0,-4.188537598E-1,9.231567383E-2,3.545532227E-1
1.382475713E0,-4.145812988E-1,1.242828369E-1,3.588256836E-1
1.385008672E0,-4.092559814E-1,1.540985107E-1,3.620147705E-1
1.387541631E0,-4.018096924E-1,1.818084717E-1,3.694763184E-1
1.390074590E0,-3.943481445E-1,2.137603760E-1,3.726654053E-1
1.392638067E0,-3.815612793E-1,2.489166260E-1,3.779907227E-1
1.395171026E0,-3.709106445E-1,2.851257324E-1,3.833160400E-1
1.397703985E0,-3.591918945E-1,3.213500977E-1,3.843841553E-1
1.400236944E0,-3.453369141E-1,3.575744629E-1,3.854522705E-1
1.402769903E0,-3.304290771E-1,3.948516846E-1,3.929138184E-1
1.405333379E0,-3.144531250E-1,4.321441650E-1,3.939666748E-1
1.407866338E0,-2.974090576E-1,4.736785889E-1,3.971710205E-1
1.410399297E0,-2.792968750E-1,5.141601562E-1,3.982391357E-1
1.412932256E0,-2.590637207E-1,5.557098389E-1,4.014282227E-1
1.415495733E0,-2.356262207E-1,5.993804932E-1,4.014282227E-1
1.418028692E0,-2.132568359E-1,6.419982910E-1,4.024963379E-1
1.420561651E0,-1.898193359E-1,6.814117432E-1,4.067535400E-1
1.423094610E0,-1.685028076E-1,7.218933105E-1,4.120788574E-1
1.425658086E0,-1.440124512E-1,7.570495605E-1,4.174041748E-1
1.428191045E0,-1.205749512E-1,7.932586670E-1,4.280548096E-1
1.430724004E0,-9.820556641E-2,8.230895996E-1,4.397735596E-1
1.433256963E0,-7.476806641E-2,8.454589844E-1,4.504241943E-1
1.435789922E0,-5.451965332E-2,8.688964844E-1,4.642791748E-1
1.438353399E0,-3.854370117E-2,8.934020996E-1,4.781341553E-1
1.440886358E0,-1.831054688E-2,9.115142822E-1,4.994354248E-1
1.443419317E0,-2.334594727E-3,9.274902344E-1,5.196685791E-1
1.445952276E0,1.577758789E-2,9.392089844E-1,5.484313965E-1
1.448515752E0,3.602600098E-2,9.445343018E-1,5.729370117E-1
1.451048711E0,5.519104004E-2,9.456024170E-1,6.016998291E-1
1.453581670E0,7.543945312E-2,9.402770996E-1,6.379241943E-1
1.456114629E0,9.992980957E-2,9.370727539E-1,6.730651855E-1
1.458647588E0,1.244354248E-1,9.381408691E-1,7.071533203E-1
1.461211065E0,1.500091553E-1,9.434661865E-1,7.476348877E-1
1.463744024E0,1.744995117E-1,9.530487061E-1,7.923889160E-1
1.466276983E0,1.958160400E-1,9.690399170E-1,8.328552246E-1
1.468809942E0,2.139129639E-1,9.903411865E-1,8.754730225E-1
1.471373418E0,2.277679443E-1,1.010574341E0,9.138183594E-1
1.473906377E0,2.384185791E-1,1.024429321E0,9.521636963E-1
1.476439336E0,2.490692139E-1,1.039337158E0,9.905242920E-1
1.478972295E0,2.586669922E-1,1.042541504E0,1.024612427E0
1.481505254E0,2.639923096E-1,1.039337158E0,1.058700562E0
1.484068731E0,2.597198486E-1,1.022293091E0,1.084259033E0
1.486601690E0,2.565307617E-1,9.978027344E-1,1.101303101E0
1.489134649E0,2.554626465E-1,9.690399170E-1,1.110900879E0
1.491667608E0,2.480010986E-1,9.392089844E-1,1.115158081E0
1.494231084E0,2.341613770E-1,9.019165039E-1,1.108764648E0
1.496764043E0,2.192535400E-1,8.603820801E-1,1.097045898E0
1.499297002E0,2.096557617E-1,8.145751953E-1,1.077865601E0
1.501829961E0,1.990051270E-1,7.719573975E-1,1.060821533E0
1.504362920E0,1.904907227E-1,7.304077148E-1,1.040588379E0
1.506926397E0,1.883544922E-1,6.941986084E-1,1.011825562E0
1.509459356E0,1.968688965E-1,6.665039062E-1,9.873199463E-1
1.511992315E0,2.128601074E-1,6.387939453E-1,9.585571289E-1
1.514525274E0,2.384185791E-1,6.174926758E-1,9.308624268E-1
1.517088750E0,2.757110596E-1,6.015167236E-1,9.010314941E-1
1.519621709E0,3.161926270E-1,5.834045410E-1,8.701477051E-1
1.522154668E0,3.726501465E-1,5.759429932E-1,8.403167725E-1
1.524687627E0,4.344329834E-1,5.780792236E-1,8.083648682E-1
1.527251104E0,4.876861572E-1,5.940551758E-1,7.742767334E-1
1.529784063E0,5.430908203E-1,6.334686279E-1,7.295379639E-1
1.532317022E0,5.984802246E-1,6.878051758E-1,6.826629639E-1
1.534880498E0,6.602630615E-1,7.559814453E-1,6.432495117E-1
1.537413457E0,7.273712158E-1,8.380126953E-1,6.080932617E-1
1.539976934E0,7.891693115E-1,9.168395996E-1,5.697479248E-1
1.542509893E0,8.509521484E-1,9.818115234E-1,5.239410400E-1
1.545042852E0,9.223175049E-1,1.028686523E0,4.759979248E-1
1.547575811E0,9.990234375E-1,1.068099976E0,4.248657227E-1
1.550108770E0,1.076782227E0,1.104324341E0,3.652038574E-1
1.552672246E0,1.157745361E0,1.146926880E0,3.076934814E-1
1.555205205E0,1.232315063E0,1.193801880E0,2.501678467E-1
1.557738164E0,1.314331055E0,1.239608765E0,1.894378662E-1
1.560271123E0,1.397430420E0,1.277954102E0,1.340484619E-1
1.562834600E0,1.477325439E0,1.321640015E0,8.291625977E-2
1.565367559E0,1.552963257E0,1.370635986E0,3.392028809E-2
1.567900518E0,1.625396729E0,1.419647217E0,-6.561279297E-3
1.570433477E0,1.695709229E0,1.478225708E0,-4.171752930E-2
1.572996953E0,1.762817383E0,1.547470093E0,-7.580566406E-2
1.575529912E0,1.828857422E0,1.604995728E0,-1.013793945E-1
1.578062871E0,1.893844604E0,1.641220093E0,-1.194915771E-1
1.580595830E0,1.953491211E0,1.655059814E0,-1.365356445E-1
1.583128789E0,2.016342163E0,1.634826660E0,-1.514434814E-1
1.585692266E0,2.072799683E0,1.568771362E0,-1.684875488E-1
1.588225225E0,2.126068115E0,1.451599121E0,-1.791381836E-1
1.590758184E0,2.162292480E0,1.284347534E0,-1.812744141E-1
1.593291143E0,2.179336548E0,1.047866821E0,-1.855316162E-1
1.595854619E0,2.174011230E0,7.463989258E-1,-1.897888184E-1
1.598387578E0,2.159088135E0,4.108276367E-1,-1.919250488E-1
1.600920537E0,2.129272461E0,6.887817383E-2,-1.887207031E-1
1.603453496E0,2.093048096E0,-2.485656738E-1,-1.972503662E-1
1.605986455E0,2.038711548E0,-5.212707520E-1,-2.366638184E-1
1.608549932E0,1.957763672E0,-7.290039062E-1,-3.037719727E-1
1.611082891E0,1.852294922E0,-8.589630127E-1,-3.772735596E-1
1.613615850E0,1.726593018E0,-8.983764648E-1,-4.475860596E-1
1.616148809E0,1.579589844E0,-8.536376953E-1,-4.976501465E-1
1.618712285E0,1.431518555E0,-7.236785889E-1,-5.253448486E-1
1.621245244E0,1.305816650E0,-5.148773193E-1,-5.253448486E-1
1.623778203E0,1.214202881E0,-2.656097412E-1,-4.838104248E-1
1.626311162E0,1.172653198E0,-1.420593262E-2,-4.071044922E-1
1.628844121E0,1.166259766E0,2.084350586E-1,-3.218841553E-1
1.631407598E0,1.176925659E0,3.778076172E-1,-2.537078857E-1
1.633940557E0,1.186508179E0,4.928588867E-1,-2.142944336E-1
1.636473516E0,1.192901611E0,5.599670410E-1,-1.897888184E-1
1.639006475E0,1.190765381E0,5.961914062E-1,-1.716766357E-1
1.641569951E0,1.170532227E0,6.185607910E-1,-1.599578857E-1
1.644102910E0,1.136444092E0,6.419982910E-1,-1.567687988E-1
1.646635869E0,1.089569092E0,6.707611084E-1,-1.620941162E-1
1.649168828E0,1.038436890E0,6.952667236E-1,-1.802062988E-1
1.651701787E0,9.766540527E-1,7.261505127E-1,-2.079010010E-1
1.654265264E0,9.127349854E-1,7.708892822E-1,-2.313385010E-1
1.656798223E0,8.477478027E-1,8.188323975E-1,-2.505187988E-1
1.659331182E0,7.859649658E-1,8.742218018E-1,-2.622375488E-1
1.661864141E0,7.273712158E-1,9.413299561E-1,-2.718200684E-1
1.664427617E0,6.698455811E-1,1.006317139E0,-2.803344727E-1
1.666960576E0,6.187133789E-1,1.069168091E0,-2.835388184E-1
1.669493535E0,5.782470703E-1,1.129882812E0,-2.846069336E-1
1.672026494E0,5.462799072E-1,1.170364380E0,-2.856597900E-1
1.674559453E0,5.207214355E-1,1.187408447E0,-2.899322510E-1
1.677122930E0,5.036773682E-1,1.187408447E0,-2.899322510E-1
1.679655889E0,5.004730225E-1,1.168243408E0,-2.931213379E-1
1.682188848E0,5.047302246E-1,1.141601562E0,-2.941894531E-1
1.684721807E0,5.132598877E-1,1.104324341E0,-2.909851074E-1
1.687285283E0,5.345611572E-1,1.057449341E0,-2.931213379E-1
1.689818242E0,5.579986572E-1,1.004180908E0,-2.920532227E-1
1.692351201E0,5.942230225E-1,9.445343018E-1,-2.920532227E-1
1.694884160E0,6.368255615E-1,8.848724365E-1,-2.952575684E-1
1.697447637E0,6.773071289E-1,8.316192627E-1,-2.995147705E-1
1.699980596E0,7.167205811E-1,7.858123779E-1,-3.112335205E-1
1.702513555E0,7.572021484E-1,7.421264648E-1,-3.208160400E-1
1.705046514E0,7.912902832E-1,7.208251953E-1,-3.336029053E-1
1.707579473E0,8.211212158E-1,7.112426758E-1,-3.421325684E-1
1.710142949E0,8.413543701E-1,7.208251953E-1,-3.410644531E-1
1.712675908E0,8.573455811E-1,7.442626953E-1,-3.421325684E-1
1.715208867E0,8.701171875E-1,7.740936279E-1,-3.442535400E-1
1.717741826E0,8.775787354E-1,8.103027344E-1,-3.410644531E-1
1.720305303E0,8.861083984E-1,8.390655518E-1,-3.399963379E-1
1.722838262E0,8.903656006E-1,8.539886475E-1,-3.325347900E-1
1.725371221E0,8.935546875E-1,8.699645996E-1,-3.250885010E-1
1.727904180E0,8.892974854E-1,8.859405518E-1,-3.144226074E-1
1.730437139E0,8.807678223E-1,8.997955322E-1,-3.016510010E-1
1.733000616E0,8.679962158E-1,9.115142822E-1,-2.952575684E-1
1.735533574E0,8.541412354E-1,9.274902344E-1,-2.899322510E-1
1.738066533E0,8.381652832E-1,9.530487061E-1,-2.782135010E-1
1.740599492E0,8.136596680E-1,9.711608887E-1,-2.686157227E-1
1.743162969E0,7.881011963E-1,9.754180908E-1,-2.632904053E-1
1.745695928E0,7.604064941E-1,9.775543213E-1,-2.611694336E-1
1.748228887E0,7.337646484E-1,9.626464844E-1,-2.611694336E-1
1.750761846E0,7.113952637E-1,9.605102539E-1,-2.601013184E-1
1.753294805E0,6.879577637E-1,9.615783691E-1,-2.611694336E-1
1.755858282E0,6.698455811E-1,9.615783691E-1,-2.601013184E-1
1.758391241E0,6.506805420E-1,9.658355713E-1,-2.537078857E-1
1.760924199E0,6.325683594E-1,9.605102539E-1,-2.462463379E-1
1.763457158E0,6.165924072E-1,9.541168213E-1,-2.324066162E-1
1.766020635E0,6.006164551E-1,9.487915039E-1,-2.174835205E-1
1.768553594E0,5.878295898E-1,9.477233887E-1,-2.068328857E-1
1.771086553E0,5.739746094E-1,9.413299561E-1,-1.983184814E-1
1.773619512E0,5.601348877E-1,9.360046387E-1,-1.961822510E-1
1.776152471E0,5.430908203E-1,9.274902344E-1,-1.972503662E-1
1.778715948E0,5.292358398E-1,9.232330322E-1,-1.983184814E-1
1.781248907E0,5.175170898E-1,9.179077148E-1,-1.972503662E-1
1.783781866E0,5.057983398E-1,9.104461670E-1,-1.940460205E-1
1.786314824E0,4.962158203E-1,9.040527344E-1,-1.919250488E-1
1.788878301E0,4.898223877E-1,8.923339844E-1,-1.929931641E-1
1.791411260E0,4.823608398E-1,8.901977539E-1,-1.951141357E-1
1.793944219E0,4.802398682E-1,8.901977539E-1,-1.908569336E-1
1.796477178E0,4.770355225E-1,8.923339844E-1,-1.908569336E-1
1.799010137E0,4.738464355E-1,8.955230713E-1,-1.919250488E-1
1.801573614E0,4.738464355E-1,9.029846191E-1,-1.908569336E-1
1.804106573E0,4.770355225E-1,9.061889648E-1,-1.919250488E-1
1.806639532E0,4.802398682E-1,9.093780518E-1,-1.951141357E-1
1.809172491E0,4.855651855E-1,9.083099365E-1,-2.004394531E-1
1.811735967E0,4.940795898E-1,8.997955322E-1,-2.079010010E-1
1.814268926E0,5.036773682E-1,8.934020996E-1,-2.153625488E-1
1.816801885E0,5.121917725E-1,8.891448975E-1,-2.206878662E-1
1.819334844E0,5.249786377E-1,8.859405518E-1,-2.249450684E-1
1.821898321E0,5.345611572E-1,8.870086670E-1,-2.313385010E-1
1.824461797E0,5.462799072E-1,8.891448975E-1,-2.398529053E-1
1.826994756E0,5.590667725E-1,8.891448975E-1,-2.494506836E-1
1.829527715E0,5.686492920E-1,8.955230713E-1,-2.622375488E-1
1.832060674E0,5.782470703E-1,8.934020996E-1,-2.718200684E-1
1.834624151E0,5.856933594E-1,8.955230713E-1,-2.814025879E-1
1.837157110E0,5.942230225E-1,9.008636475E-1,-2.931213379E-1
1.839690069E0,6.006164551E-1,8.997955322E-1,-3.059082031E-1
1.842223028E0,6.016693115E-1,9.019165039E-1,-3.154907227E-1
1.844755987E0,6.048736572E-1,9.061889648E-1,-3.250885010E-1
1.847319463E0,6.048736572E-1,9.157714844E-1,-3.336029053E-1
1.849852422E0,6.016693115E-1,9.221649170E-1,-3.421325684E-1
1.852385381E0,5.995483398E-1,9.264221191E-1,-3.517150879E-1
1.854918340E0,5.920867920E-1,9.274902344E-1,-3.602294922E-1
1.857481817E0,5.814361572E-1,9.253540039E-1,-3.772735596E-1
1.860014776E0,5.665283203E-1,9.210968018E-1,-3.879241943E-1
1.862547735E0,5.526733398E-1,9.168395996E-1,-3.943176270E-1
1.865080694E0,5.398864746E-1,9.147033691E-1,-4.028472900E-1
1.867644170E0,5.175170898E-1,9.104461670E-1,-4.166870117E-1
1.870177129E0,4.983520508E-1,9.019165039E-1,-4.262847900E-1
1.872710088E0,4.791717529E-1,8.987274170E-1,-4.390716553E-1
1.875243047E0,4.557342529E-1,8.987274170E-1,-4.486541748E-1
1.877776006E0,4.355010986E-1,8.965911865E-1,-4.539794922E-1
1.880339483E0,4.173889160E-1,8.880767822E-1,-4.646301270E-1
1.882872442E0,3.950195312E-1,8.848724365E-1,-4.784851074E-1
1.885405401E0,3.715820312E-1,8.838043213E-1,-4.869995117E-1
1.887938360E0,3.502807617E-1,8.816833496E-1,-4.933929443E-1
1.890501836E0,3.278961182E-1,8.752899170E-1,-5.051116943E-1
1.893034795E0,3.065948486E-1,8.657073975E-1,-5.136260986E-1
1.895567754E0,2.874298096E-1,8.571777344E-1,-5.189666748E-1
1.898100713E0,2.682495117E-1,8.486633301E-1,-5.242919922E-1
1.900633672E0,2.533416748E-1,8.358764648E-1,-5.296173096E-1
1.903197149E0,2.384185791E-1,8.220214844E-1,-5.317382812E-1
1.905730108E0,2.256317139E-1,8.049774170E-1,-5.370635986E-1
1.908263067E0,2.160491943E-1,7.826080322E-1,-5.402679443E-1
1.910796026E0,2.043304443E-1,7.602386475E-1,-5.445251465E-1
1.913328985E0,1.915435791E-1,7.346801758E-1,-5.477142334E-1
1.915892461E0,1.851501465E-1,7.027130127E-1,-5.466613770E-1
1.918425420E0,1.787719727E-1,6.750183105E-1,-5.498504639E-1
1.920958379E0,1.713104248E-1,6.409301758E-1,-5.541076660E-1
1.923491338E0,1.606597900E-1,6.036529541E-1,-5.551757812E-1
1.926054815E0,1.542663574E-1,5.674285889E-1,-5.594329834E-1
1.928587774E0,1.489410400E-1,5.248107910E-1,-5.658264160E-1
1.931120733E0,1.425476074E-1,4.853973389E-1,-5.690307617E-1
1.933653692E0,1.329650879E-1,4.385375977E-1,-5.732879639E-1
1.936217168E0,1.255035400E-1,3.905944824E-1,-5.764770508E-1
1.938750127E0,1.201782227E-1,3.479766846E-1,-5.839385986E-1
1.941283086E0,1.063232422E-1,3.138885498E-1,-5.977935791E-1
1.943816045E0,9.674072266E-2,2.872619629E-1,-6.063079834E-1
1.946349004E0,8.609008789E-2,2.680816650E-1,-6.169586182E-1
1.948912481E0,7.011413574E-2,2.521057129E-1,-6.308135986E-1
1.951445440E0,5.519104004E-2,2.467803955E-1,-6.425323486E-1
1.953978399E0,3.921508789E-2,2.478485107E-1,-6.553192139E-1
1.956511358E0,2.323913574E-2,2.478485107E-1,-6.712951660E-1
1.959074834E0,1.937866211E-3,2.521057129E-1,-6.830139160E-1
1.961607793E0,-2.470397949E-2,2.638244629E-1,-7.011260986E-1
1.964140752E0,-4.707336426E-2,2.734222412E-1,-7.160339355E-1
1.966673711E0,-7.156372070E-2,2.893981934E-1,-7.309417725E-1
1.969206670E0,-9.820556641E-2,3.043060303E-1,-7.437286377E-1
1.971770147E0,-1.290893555E-1,3.181610107E-1,-7.543792725E-1
1.974303106E0,-1.546630859E-1,3.330688477E-1,-7.714233398E-1
1.976836065E0,-1.812896729E-1,3.490447998E-1,-7.820739746E-1
1.979369024E0,-2.153778076E-1,3.618316650E-1,-7.916717529E-1
1.981932500E0,-2.430725098E-1,3.714141846E-1,-8.033905029E-1
1.984465459E0,-2.718353271E-1,3.905944824E-1,-8.151092529E-1
1.986998418E0,-3.005981445E-1,4.065704346E-1,-8.225555420E-1
1.989531377E0,-3.261718750E-1,4.268188477E-1,-8.268280029E-1
1.992094854E0,-3.496093750E-1,4.427947998E-1,-8.342742920E-1
1.994627813E0,-3.773040771E-1,4.630279541E-1,-8.374786377E-1
1.997160772E0,-3.986053467E-1,4.800720215E-1,-8.406677246E-1
1.999693731E0,-4.199066162E-1,5.003204346E-1,-8.459930420E-1
2.002226690E0,-4.390869141E-1,5.280151367E-1,-8.470611572E-1
2.004759649E0,-4.571990967E-1,5.535736084E-1,-8.470611572E-1
2.007323125E0,-4.763641357E-1,5.802154541E-1,-8.438720703E-1
2.009856084E0,-4.880828857E-1,6.110992432E-1,-8.417358398E-1
2.012389043E0,-4.987487793E-1,6.398620605E-1,-8.417358398E-1
2.014952520E0,-5.061950684E-1,6.686248779E-1,-8.417358398E-1
2.017485479E0,-5.061950684E-1,6.973876953E-1,-8.353424072E-1
2.020018438E0,-5.040740967E-1,7.154998779E-1,-8.289489746E-1
2.022551397E0,-4.923553467E-1,7.314758301E-1,-8.193664551E-1
2.025084356E0,-4.785003662E-1,7.325439453E-1,-8.087158203E-1
2.027647832E0,-4.603881836E-1,7.208251953E-1,-7.991180420E-1
2.030180791E0,-4.369506836E-1,7.016448975E-1,-7.884674072E-1
2.032713750E0,-4.135284424E-1,6.771545410E-1,-7.724914551E-1
2.035246709E0,-3.922119141E-1,6.494598389E-1,-7.554473877E-1
2.037810186E0,-3.666534424E-1,6.217498779E-1,-7.373352051E-1
2.040343145E0,-3.442840576E-1,5.972595215E-1,-7.149658203E-1
2.042876104E0,-3.229675293E-1,5.748901367E-1,-6.968536377E-1
2.045409063E0,-3.069915771E-1,5.546417236E-1,-6.755523682E-1
2.047942022E0,-2.835540771E-1,5.397338867E-1,-6.542510986E-1
2.050505498E0,-2.611846924E-1,5.386657715E-1,-6.308135986E-1
2.053038457E0,-2.441406250E-1,5.418548584E-1,-6.105651855E-1
2.055571416E0,-2.207031250E-1,5.514526367E-1,-5.871429443E-1
2.058104375E0,-2.015380859E-1,5.642395020E-1,-5.615692139E-1
2.060667852E0,-1.802215576E-1,5.748901367E-1,-5.360107422E-1
2.063200811E0,-1.504058838E-1,5.897979736E-1,-5.072479248E-1
2.065733770E0,-1.216430664E-1,6.047058105E-1,-4.795379639E-1
2.068266729E0,-8.435058594E-2,6.185607910E-1,-4.518432617E-1
2.070799688E0,-4.174804688E-2,6.238861084E-1,-4.220275879E-1
2.073363164E0,4.058837891E-3,6.260223389E-1,-3.921966553E-1
2.075896123E0,5.519104004E-2,6.206970215E-1,-3.623657227E-1
2.078429082E0,1.148529053E-1,6.110992432E-1,-3.346710205E-1
2.080962041E0,1.766357422E-1,5.983276367E-1,-3.069763184E-1
2.083525518E0,2.426757812E-1,5.834045410E-1,-2.803344727E-1
2.086058477E0,3.129882812E-1,5.610351562E-1,-2.590332031E-1
2.088591436E0,3.822326660E-1,5.333404541E-1,-2.419891357E-1
2.091124395E0,4.525451660E-1,5.109710693E-1,-2.292022705E-1
2.093657354E0,5.249786377E-1,4.811401367E-1,-2.196197510E-1
2.096220830E0,5.920867920E-1,4.566345215E-1,-2.132263184E-1
2.098753789E0,6.602630615E-1,4.395904541E-1,-2.121582031E-1
2.101286748E0,7.177886963E-1,4.321441650E-1,-2.153625488E-1
2.103819707E0,7.667846680E-1,4.321441650E-1,-2.196197510E-1
2.106383184E0,8.051452637E-1,4.385375977E-1,-2.238769531E-1
2.108946660E0,8.349761963E-1,4.523773193E-1,-2.355957031E-1
2.111479619E0,8.520202637E-1,4.747467041E-1,-2.451934814E-1
2.114012578E0,8.594665527E-1,4.992523193E-1,-2.568969727E-1
2.116576055E0,8.583984375E-1,5.216217041E-1,-2.664947510E-1
2.119109014E0,8.403015137E-1,5.439910889E-1,-2.760772705E-1
2.121641973E0,8.189849854E-1,5.599670410E-1,-2.824707031E-1
2.124174932E0,7.944946289E-1,5.652923584E-1,-2.792816162E-1
2.126707891E0,7.582702637E-1,5.642395020E-1,-2.739410400E-1
2.129271367E0,7.156524658E-1,5.578460693E-1,-2.611694336E-1
2.131804326E0,6.655883789E-1,5.450592041E-1,-2.473144531E-1
2.134337285E0,6.133880615E-1,5.205535889E-1,-2.260131836E-1
2.136870244E0,5.548095703E-1,4.939270020E-1,-2.057647705E-1
2.139433721E0,4.908905029E-1,4.694213867E-1,-1.748809814E-1
2.141966680E0,4.195098877E-1,4.470520020E-1,-1.471862793E-1
2.144499639E0,3.428192139E-1,4.310760498E-1,-1.173553467E-1
2.147032598E0,2.639923096E-1,4.225463867E-1,-8.966064453E-2
2.149565557E0,1.819610596E-1,4.161682129E-1,-5.982971191E-2
2.152129033E0,8.609008789E-2,4.055023193E-1,-3.213500977E-2
2.154661992E0,-1.724243164E-2,3.905944824E-1,-5.508422852E-3
2.157194951E0,-1.269683838E-1,3.660888672E-1,1.792907715E-2
2.159727910E0,-2.452087402E-1,3.362731934E-1,3.817749023E-2
2.162291387E0,-3.645172119E-1,2.936553955E-1,6.373596191E-2
2.164824346E0,-4.817047119E-1,2.499847412E-1,8.717346191E-2
2.167357305E0,-5.946197510E-1,1.945800781E-1,1.138153076E-1
2.169890264E0,-6.947479248E-1,1.327972412E-1,1.425628662E-1
2.172423223E0,-7.757110596E-1,5.822753906E-2,1.713256836E-1
2.174986699E0,-8.374938965E-1,-2.592468262E-2,2.000885010E-1
2.177519658E0,-8.683929443E-1,-1.111450195E-1,2.224578857E-1
2.180052617E0,-8.609313965E-1,-1.867828369E-1,2.427062988E-1
2.182585576E0,-8.257751465E-1,-2.496337891E-1,2.544250488E-1
2.185149053E0,-7.618560791E-1,-3.018341064E-1,2.597503662E-1
2.187682012E0,-6.745147705E-1,-3.380432129E-1,2.576141357E-1
2.190214971E0,-5.669250488E-1,-3.582916260E-1,2.490997314E-1
2.192747930E0,-4.529418945E-1,-3.731994629E-1,2.363128662E-1
2.195280889E0,-3.410797119E-1,-3.700103760E-1,2.150115967E-1
2.197844366E0,-2.377471924E-1,-3.518981934E-1,1.905059814E-1
2.200377324E0,-1.546630859E-1,-3.146057129E-1,1.681365967E-1
2.202910283E0,-9.820556641E-2,-2.634735107E-1,1.553497314E-1
2.205443242E0,-6.837463379E-2,-1.846466064E-1,1.564178467E-1
2.208006719E0,-5.772399902E-2,-8.131408691E-2,1.745300293E-1
2.210539678E0,-7.902526855E-2,3.585815430E-2,2.054138184E-1
2.213072637E0,-1.227111816E-1,1.668853760E-1,2.427062988E-1
2.215605596E0,-1.855468750E-1,3.085632324E-1,2.853088379E-1
2.218169073E0,-2.590637207E-1,4.694213867E-1,3.236694336E-1
2.220702032E0,-3.432159424E-1,6.462554932E-1,3.407135010E-1
2.223234991E0,-4.295043945E-1,8.220214844E-1,3.300628662E-1
2.225767949E0,-5.051269531E-1,9.658355713E-1,3.034210205E-1
2.228300908E0,-5.647888184E-1,1.060638428E0,2.810516357E-1
2.230864385E0,-6.095275879E-1,1.110717773E0,2.714691162E-1
2.233397344E0,-6.372222900E-1,1.113906860E0,2.895812988E-1
2.235930303E0,-6.489410400E-1,1.089401245E0,3.268585205E-1
2.238463262E0,-6.564025879E-1,1.025497437E0,3.705291748E-1
2.241026739E0,-6.585388184E-1,9.189605713E-1,4.142150879E-1
2.243559698E0,-6.585388184E-1,7.708892822E-1,4.461669922E-1
2.246092657E0,-6.595916748E-1,5.812835693E-1,4.674682617E-1
2.248625616E0,-6.531982422E-1,3.863372803E-1,4.770660400E-1
2.251158574E0,-6.414947510E-1,1.913909912E-1,4.759979248E-1
2.253722051E0,-6.233825684E-1,-5.691528320E-3,4.749298096E-1
2.256255010E0,-5.946197510E-1,-1.857147217E-1,4.770660400E-1
2.258787969E0,-5.626525879E-1,-3.518981934E-1,4.845123291E-1
2.261320928E0,-5.243072510E-1,-4.935760498E-1,4.898529053E-1
2.263884405E0,-4.827575684E-1,-6.118164062E-1,4.951782227E-1
2.266417364E0,-4.401550293E-1,-7.194061279E-1,5.047607422E-1
2.268950323E0,-3.922119141E-1,-7.971801758E-1,5.100860596E-1
2.271483282E0,-3.464050293E-1,-8.578948975E-1,5.047607422E-1
2.274046758E0,-2.963409424E-1,-8.983764648E-1,5.036926270E-1
2.276579717E0,-2.483978271E-1,-9.196777344E-1,4.866485596E-1
2.279112676E0,-2.111206055E-1,-9.239349365E-1,4.557647705E-1
2.281645635E0,-1.781005859E-1,-9.090270996E-1,4.131469727E-1
2.284178594E0,-1.642456055E-1,-8.728027344E-1,3.502960205E-1
2.286742071E0,-1.653137207E-1,-8.280639648E-1,2.735900879E-1
2.289275030E0,-1.706390381E-1,-7.811889648E-1,1.905059814E-1
2.291807989E0,-1.876831055E-1,-7.428436279E-1,9.996032715E-2
2.294340948E0,-2.121887207E-1,-7.119598389E-1,-1.678466797E-4
2.296873907E0,-2.345581055E-1,-6.927795410E-1,-9.284973145E-2
2.299437383E0,-2.622528076E-1,-6.799926758E-1,-1.674194336E-1
2.301970342E0,-2.984771729E-1,-6.650848389E-1,-2.217559814E-1
2.304503301E0,-3.368225098E-1,-6.469726562E-1,-2.664947510E-1
2.307036260E0,-3.804931641E-1,-6.118164062E-1,-3.240203857E-1
2.309599737E0,-4.539947510E-1,-5.447082520E-1,-3.879241943E-1
2.312132696E0,-5.573272705E-1,-4.669494629E-1,-4.326782227E-1
2.314665655E0,-6.414947510E-1,-4.158172607E-1,-4.561157227E-1
2.317198614E0,-6.585388184E-1,-3.881072998E-1,-4.933929443E-1
2.319731573E0,-6.329650879E-1,-3.859863281E-1,-5.477142334E-1
2.322295049E0,-5.754394531E-1,-4.051513672E-1,-5.924682617E-1
2.324828008E0,-5.083312988E-1,-4.488372803E-1,-6.297454834E-1
2.327360967E0,-4.337615967E-1,-5.191345215E-1,-6.531829834E-1
2.329893926E0,-3.602600098E-1,-6.064910889E-1,-6.595764160E-1
2.332457403E0,-2.792968750E-1,-7.023620605E-1,-6.553192139E-1
2.334990362E0,-2.036590576E-1,-8.014373779E-1,-6.350708008E-1
2.337523321E0,-1.386871338E-1,-8.834686279E-1,-5.988464355E-1
2.340056280E0,-8.328247070E-2,-9.463195801E-1,-5.541076660E-1
2.342589239E0,-3.854370117E-2,-9.857330322E-1,-4.955291748E-1
2.345152715E0,-1.617431641E-2,-9.995727539E-1,-4.177551270E-1
2.347685674E0,-2.149963379E-2,-9.750671387E-1,-3.261413574E-1
2.350218633E0,-5.665588379E-2,-9.154205322E-1,-2.270812988E-1
2.352751592E0,-1.077880859E-1,-8.259429932E-1,-1.482543945E-1
2.355315069E0,-1.663818359E-1,-7.290039062E-1,-1.035003662E-1
2.357848028E0,-2.398834229E-1,-6.427154541E-1,-7.794189453E-2
2.360380987E0,-3.240356445E-1,-5.905151367E-1,-6.408691406E-2
2.362913946E0,-3.954162598E-1,-5.574951172E-1,-5.236816406E-2
2.365446905E0,-4.593200684E-1,-5.265960693E-1,-3.106689453E-2
2.368010381E0,-5.243072510E-1,-4.989013672E-1,-1.722717285E-2
2.370543340E0,-5.733032227E-1,-4.967651367E-1,-5.508422852E-3
2.373076299E0,-6.010131836E-1,-5.255279541E-1,7.278442383E-3
2.375609258E0,-6.010131836E-1,-5.766601562E-1,1.473999023E-2
2.378172735E0,-5.978088379E-1,-6.320648193E-1,1.580810547E-2
2.380705694E0,-5.914154053E-1,-6.757354736E-1,1.260375977E-2
2.383238653E0,-5.903472900E-1,-7.066345215E-1,3.021240234E-3
2.385771612E0,-5.882263184E-1,-7.385864258E-1,-7.629394531E-3
2.388304571E0,-5.796966553E-1,-7.769317627E-1,-3.320312500E-2
2.390868047E0,-5.552062988E-1,-8.312683105E-1,-6.301879883E-2
2.393431524E0,-5.307006836E-1,-8.887939453E-1,-8.113098145E-2
2.395964483E0,-5.083312988E-1,-9.292755127E-1,-1.024475098E-1
2.398497442E0,-4.859619141E-1,-9.718780518E-1,-1.205444336E-1
2.401060918E0,-4.646606445E-1,-1.005966187E0,-1.386566162E-1
2.403593877E0,-4.508056641E-1,-1.037918091E0,-1.589050293E-1
2.406126836E0,-4.401550293E-1,-1.066680908E0,-1.695556641E-1
2.408659795E0,-4.369506836E-1,-1.094390869E0,-1.791381836E-1
2.411223272E0,-4.465484619E-1,-1.109298706E0,-1.940460205E-1
2.413756231E0,-4.635925293E-1,-1.108230591E0,-2.068328857E-1
2.416289190E0,-4.806365967E-1,-1.099716187E0,-2.142944336E-1
2.418822149E0,-4.806365967E-1,-1.112487793E0,-2.206878662E-1
2.421355108E0,-4.657135010E-1,-1.143386841E0,-2.366638184E-1
2.423918584E0,-4.316253662E-1,-1.180664062E0,-2.739410400E-1
2.426451543E0,-3.922119141E-1,-1.205169678E0,-3.037719727E-1
2.428984502E0,-3.623809814E-1,-1.224349976E0,-3.218841553E-1
2.431517461E0,-3.336334229E-1,-1.248840332E0,-3.378601074E-1
2.434080938E0,-2.963409424E-1,-1.288269043E0,-3.485107422E-1
2.436613897E0,-2.483978271E-1,-1.373489380E0,-3.645019531E-1
2.439146856E0,-1.866149902E-1,-1.487472534E0,-4.049682617E-1
2.441679815E0,-1.184387207E-1,-1.638732910E0,-4.390716553E-1
2.444212774E0,-5.986022949E-2,-1.816635132E0,-4.571685791E-1
2.446776250E0,-1.724243164E-2,-1.986007690E0,-4.752807617E-1
2.449309209E0,1.577758789E-2,-2.135147095E0,-5.040435791E-1
2.451842168E0,4.347229004E-2,-2.264038086E0,-5.264129639E-1
2.454375127E0,5.946350098E-2,-2.369506836E0,-5.455932617E-1
2.456938604E0,6.584167480E-2,-2.463241577E0,-5.573120117E-1
2.459471563E0,6.584167480E-2,-2.536758423E0,-5.658264160E-1
2.462004522E0,7.116699219E-2,-2.560180664E0,-5.807495117E-1
2.464537481E0,7.756042480E-2,-2.566574097E0,-6.031188965E-1
2.467070440E0,7.862854004E-2,-2.576171875E0,-6.201629639E-1
2.469633916E0,6.904602051E-2,-2.587890625E0,-6.244201660E-1
2.472166875E0,4.241943359E-2,-2.559127808E0,-6.222839355E-1
2.474699834E0,2.003479004E-2,-2.496276855E0,-6.105651855E-1
2.477232793E0,4.058837891E-3,-2.445144653E0,-5.903320312E-1
2.479796270E0,-8.728027344E-3,-2.394012451E0,-5.711517334E-1
2.482329229E0,-2.149963379E-2,-2.351394653E0,-5.509185791E-1
2.484862188E0,-3.747558594E-2,-2.303466797E0,-5.285491943E-1
2.487395147E0,-5.026245117E-2,-2.245941162E0,-5.083007812E-1
2.489928106E0,-5.986022949E-2,-2.193740845E0,-4.933929443E-1
2.492491582E0,-6.623840332E-2,-2.150054932E0,-4.752807617E-1
2.495024541E0,-7.051086426E-2,-2.106384277E0,-4.539794922E-1
2.497557500E0,-7.690429688E-2,-2.081878662E0,-4.198913574E-1
2.500090459E0,-8.435058594E-2,-2.066970825E0,-3.804779053E-1
2.502653936E0,-1.013946533E-1,-2.040344238E0,-3.346710205E-1
2.505186895E0,-1.259002686E-1,-1.996658325E0,-2.931213379E-1
2.507719854E0,-1.546630859E-1,-1.933807373E0,-2.547760010E-1
2.510252813E0,-1.898193359E-1,-1.864562988E0,-2.292022705E-1
2.512785772E0,-2.239074707E-1,-1.791061401E0,-2.025756836E-1
2.515349248E0,-2.547912598E-1,-1.710113525E0,-1.823425293E-1
2.517882207E0,-2.814331055E-1,-1.630218506E0,-1.631622314E-1
2.520415166E0,-3.069915771E-1,-1.555648804E0,-1.482543945E-1
2.522948125E0,-3.346862793E-1,-1.482147217E0,-1.343994141E-1
2.525511602E0,-3.581237793E-1,-1.422485352E0,-1.226806641E-1
2.528044561E0,-3.740997314E-1,-1.354309082E0,-1.067047119E-1
2.530577520E0,-3.879547119E-1,-1.293594360E0,-9.605407715E-2
2.533110479E0,-4.049987793E-1,-1.245651245E0,-8.859252930E-2
2.535673955E0,-4.305725098E-1,-1.201980591E0,-7.901000977E-2
2.538206914E0,-4.593200684E-1,-1.165756226E0,-7.473754883E-2
2.540739873E0,-4.923553467E-1,-1.136993408E0,-7.687377930E-2
2.543272832E0,-5.232391357E-1,-1.105041504E0,-7.687377930E-2
2.545805791E0,-5.520019531E-1,-1.082672119E0,-8.113098145E-2
2.548369268E0,-5.711822510E-1,-1.067749023E0,-9.072875977E-2
2.550902227E0,-5.935516357E-1,-1.054962158E0,-9.924316406E-2
2.553435186E0,-6.233825684E-1,-1.030471802E0,-1.120300293E-1
2.555968145E0,-6.457519531E-1,-1.007034302E0,-1.280059814E-1
2.558531621E0,-6.659851074E-1,-9.846649170E-1,-1.461181641E-1
2.561064580E0,-6.904907227E-1,-9.559020996E-1,-1.589050293E-1
2.563597539E0,-7.075347900E-1,-9.303283691E-1,-1.706237793E-1
2.566130498E0,-7.256469727E-1,-9.037017822E-1,-1.812744141E-1
2.568663457E0,-7.426910400E-1,-8.877258301E-1,-1.951141357E-1
2.571226934E0,-7.618560791E-1,-8.813323975E-1,-2.100372314E-1
2.573759893E0,-7.693176270E-1,-8.781280518E-1,-2.228088379E-1
2.576292852E0,-7.767791748E-1,-8.749389648E-1,-2.345275879E-1
2.578825811E0,-7.831726074E-1,-8.728027344E-1,-2.398529053E-1
2.581389287E0,-7.863616943E-1,-8.717498779E-1,-2.462463379E-1
2.583922246E0,-7.842254639E-1,-8.717498779E-1,-2.547760010E-1
2.586455205E0,-7.821044922E-1,-8.717498779E-1,-2.590332031E-1
2.588988164E0,-7.789001465E-1,-8.791961670E-1,-2.622375488E-1
2.591521123E0,-7.757110596E-1,-8.909149170E-1,-2.728881836E-1
2.594084600E0,-7.714538574E-1,-8.983764648E-1,-2.846069336E-1
2.596617559E0,-7.639923096E-1,-9.090270996E-1,-2.963256836E-1
2.599150518E0,-7.575988770E-1,-9.207458496E-1,-3.090972900E-1
2.601683477E0,-7.512054443E-1,-9.282073975E-1,-3.176269531E-1
2.604246953E0,-7.480163574E-1,-9.409790039E-1,-3.304138184E-1
2.606779912E0,-7.458801270E-1,-9.612274170E-1,-3.559722900E-1
2.609312871E0,-7.416229248E-1,-9.580230713E-1,-3.772735596E-1
2.611845830E0,-7.341613770E-1,-9.559020996E-1,-3.794097900E-1
2.614378789E0,-7.309722900E-1,-9.473724365E-1,-3.730163574E-1
2.616942266E0,-7.384338379E-1,-9.377899170E-1,-3.676910400E-1
2.619475225E0,-7.469482422E-1,-9.271392822E-1,-3.591766357E-1
2.622008184E0,-7.522735596E-1,-9.122314453E-1,-3.431854248E-1
2.624541143E0,-7.608032227E-1,-8.877258301E-1,-3.314666748E-1
2.627104619E0,-7.693176270E-1,-8.770751953E-1,-3.218841553E-1
2.629637578E0,-7.767791748E-1,-8.802642822E-1,-3.176269531E-1
2.632170537E0,-7.831726074E-1,-8.898468018E-1,-3.176269531E-1
2.634703496E0,-7.884979248E-1,-8.941192627E-1,-3.112335205E-1
2.637266973E0,-8.012847900E-1,-9.079589844E-1,-2.984466553E-1
2.639799932E0,-8.066101074E-1,-9.132843018E-1,-2.899322510E-1
2.642332891E0,-8.172607422E-1,-9.186096191E-1,-2.792816162E-1
2.644865850E0,-8.247070312E-1,-9.367218018E-1,-2.643585205E-1
2.647398809E0,-8.311004639E-1,-9.612274170E-1,-2.441253662E-1
2.649962285E0,-8.385620117E-1,-9.846649170E-1,-2.292022705E-1
2.652495244E0,-8.470764160E-1,-9.974517822E-1,-2.164306641E-1
2.655028203E0,-8.524169922E-1,-1.007034302E0,-2.089691162E-1
2.657561162E0,-8.609313965E-1,-1.008102417E0,-2.004394531E-1
2.660124639E0,-8.641204834E-1,-1.010223389E0,-1.940460205E-1
2.662657598E0,-8.609313965E-1,-1.014495850E0,-1.908569336E-1
2.665190557E0,-8.534698486E-1,-1.017684937E0,-1.865997314E-1
2.667723516E0,-8.470764160E-1,-1.020874023E0,-1.855316162E-1
2.670256475E0,-8.321685791E-1,-1.018753052E0,-1.812744141E-1
2.672819951E0,-8.183288574E-1,-1.002777100E0,-1.780700684E-1
2.675352910E0,-7.916870117E-1,-9.963836670E-1,-1.684875488E-1
2.677885869E0,-7.575988770E-1,-9.878540039E-1,-1.546325684E-1
2.680449346E0,-7.277679443E-1,-9.772033691E-1,-1.354675293E-1
2.683012823E0,-6.926269531E-1,-9.590911865E-1,-1.152191162E-1
2.685545782E0,-6.542663574E-1,-9.463195801E-1,-9.178161621E-2
2.688078741E0,-6.116638184E-1,-9.388580322E-1,-7.580566406E-2
2.690611699E0,-5.701141357E-1,-9.356536865E-1,-5.876159668E-2
2.693144658E0,-5.317687988E-1,-9.431152344E-1,-3.213500977E-2
2.695708135E0,-4.944763184E-1,-9.484405518E-1,4.089355469E-3
2.698241094E0,-4.582672119E-1,-9.505767822E-1,3.924560547E-2
2.700774053E0,-4.199066162E-1,-9.484405518E-1,7.438659668E-2
2.703307012E0,-3.836975098E-1,-9.441833496E-1,1.138153076E-1
2.705870489E0,-3.474731445E-1,-9.377899170E-1,1.500244141E-1
2.708403448E0,-3.112487793E-1,-9.441833496E-1,1.809234619E-1
2.710936407E0,-2.792968750E-1,-9.548339844E-1,2.086181641E-1
2.713469366E0,-2.547912598E-1,-9.590911865E-1,2.341766357E-1
2.716002324E0,-2.281646729E-1,-9.654846191E-1,2.565460205E-1
2.718565801E0,-2.057952881E-1,-9.729461670E-1,2.704010010E-1
2.721098760E0,-1.866149902E-1,-9.772033691E-1,2.863769531E-1
2.723631719E0,-1.717071533E-1,-9.750671387E-1,3.023529053E-1
2.726164678E0,-1.535949707E-1,-9.718780518E-1,3.204650879E-1
2.728728155E0,-1.376190186E-1,-9.548339844E-1,3.332519531E-1
2.731261114E0,-1.237640381E-1,-9.292755127E-1,3.385772705E-1
2.733794073E0,-1.088562012E-1,-9.100952148E-1,3.385772705E-1
2.736327032E0,-9.394836426E-2,-8.855895996E-1,3.343200684E-1
2.738859991E0,-8.009338379E-2,-8.578948975E-1,3.353881836E-1
2.741423467E0,-6.623840332E-2,-8.344573975E-1,3.311157227E-1
2.743956426E0,-5.133056641E-2,-8.131561279E-1,3.268585205E-1
2.746489385E0,-3.854370117E-2,-7.961120605E-1,3.226013184E-1
2.749022344E0,-2.470397949E-2,-7.854614258E-1,3.183441162E-1
2.751585821E0,-1.298522949E-2,-7.758636475E-1,3.151397705E-1
2.754118780E0,-4.455566406E-3,-7.726745605E-1,3.183441162E-1
2.756651739E0,2.990722656E-3,-7.684173584E-1,3.193969727E-1
2.759184698E0,1.258850098E-2,-7.673492432E-1,3.204650879E-1
2.761717657E0,1.470947266E-2,-7.652130127E-1,3.247375488E-1
2.764281133E0,1.898193359E-2,-7.630920410E-1,3.311157227E-1
2.766814092E0,2.856445312E-2,-7.652130127E-1,3.396453857E-1
2.769347051E0,3.388977051E-2,-7.630920410E-1,3.502960205E-1
2.771880010E0,3.602600098E-2,-7.577667236E-1,3.566894531E-1
2.774443487E0,3.921508789E-2,-7.513732910E-1,3.652038574E-1
2.776976446E0,4.879760742E-2,-7.449798584E-1,3.779907227E-1
2.779509405E0,5.625915527E-2,-7.385864258E-1,3.854522705E-1
2.782042364E0,6.265258789E-2,-7.268676758E-1,3.875732422E-1
2.784605840E0,7.011413574E-2,-7.098236084E-1,3.971710205E-1
2.787138799E0,8.288574219E-2,-6.906433105E-1,4.035644531E-1
2.789671758E0,9.248352051E-2,-6.693420410E-1,4.110107422E-1
2.792204717E0,1.052703857E-1,-6.384582520E-1,4.184722900E-1
2.794737676E0,1.159210205E-1,-6.022338867E-1,4.280548096E-1
2.797301153E0,1.308288574E-1,-5.574951172E-1,4.344482422E-1
2.799834112E0,1.457366943E-1,-5.010375977E-1,4.355163574E-1
2.802367071E0,1.638488770E-1,-4.371185303E-1,4.365844727E-1
2.804900030E0,1.830291748E-1,-3.700103760E-1,4.333801270E-1
2.807463506E0,2.096557617E-1,-2.933044434E-1,4.291229248E-1
2.809996465E0,2.373504639E-1,-2.166137695E-1,4.237976074E-1
2.812529424E0,2.693176270E-1,-1.409759521E-1,4.120788574E-1
2.815062383E0,3.034057617E-1,-6.108093262E-2,4.035644531E-1
2.817595342E0,3.438873291E-1,1.774597168E-2,3.918457031E-1
2.820158819E0,3.854217529E-1,8.699035645E-2,3.779907227E-1
2.822691778E0,4.280395508E-1,1.594390869E-1,3.652038574E-1
2.825224737E0,4.727783203E-1,2.297363281E-1,3.513641357E-1
2.827757696E0,5.153961182E-1,2.893981934E-1,3.439025879E-1
2.830321172E0,5.569305420E-1,3.469238281E-1,3.375091553E-1
2.832854131E0,5.984802246E-1,4.129638672E-1,3.321838379E-1
2.835387090E0,6.357574463E-1,4.726257324E-1,3.353881836E-1
2.837920049E0,6.698455811E-1,5.312042236E-1,3.375091553E-1
2.840453008E0,6.996765137E-1,5.961914062E-1,3.556213379E-1
2.843016485E0,7.284393311E-1,6.675567627E-1,3.737335205E-1
2.845549444E0,7.476196289E-1,7.431945801E-1,3.971710205E-1
2.848082403E0,7.625274658E-1,8.273468018E-1,4.301910400E-1
2.850615362E0,7.742462158E-1,9.093780518E-1,4.685363770E-1
2.853178838E0,7.859649658E-1,9.924621582E-1,5.111541748E-1
2.855711797E0,7.987518311E-1,1.067031860E0,5.569610596E-1
2.858244756E0,8.179321289E-1,1.127761841E0,6.070251465E-1
2.860777715E0,8.349761963E-1,1.179962158E0,6.602935791E-1
2.863310674E0,8.498840332E-1,1.208724976E0,7.295379639E-1
2.865874151E0,8.583984375E-1,1.221496582E0,8.040924072E-1
2.868407110E0,8.616027832E-1,1.239608765E0,8.829345703E-1
2.870940069E0,8.658599854E-1,1.254516602E0,9.670867920E-1
2.873473028E0,8.679962158E-1,1.263046265E0,1.051239014E0
2.876036504E0,8.690643311E-1,1.280090332E0,1.140716553E0
2.878569463E0,8.626708984E-1,1.298202515E0,1.239791870E0
2.881102422E0,8.583984375E-1,1.314178467E0,1.335662842E0
2.883635381E0,8.445587158E-1,1.324829102E0,1.433670044E0
2.886168340E0,8.232574463E-1,1.328033447E0,1.535934448E0
2.888731817E0,7.987518311E-1,1.331222534E0,1.640335083E0
2.891264776E0,7.731781006E-1,1.332290649E0,1.738342285E0
2.893797735E0,7.444152832E-1,1.340805054E0,1.831008911E0
2.896330694E0,7.177886963E-1,1.353591919E0,1.923690796E0
2.898894170E0,6.954193115E-1,1.363174438E0,2.012115479E0
2.901427129E0,6.773071289E-1,1.369567871E0,2.096267700E0
2.903960088E0,6.613311768E-1,1.372772217E0,2.171905518E0
2.906493047E0,6.432189941E-1,1.369567871E0,2.242202759E0
2.909026006E0,6.293792725E-1,1.368499756E0,2.306121826E0
2.911589483E0,6.080627441E-1,1.370635986E0,2.364715576E0
2.914122442E0,5.846252441E-1,1.381286621E0,2.414779663E0
2.916655401E0,5.675811768E-1,1.399398804E0,2.456329346E0
2.919188360E0,5.516052246E-1,1.431350708E0,2.488281250E0
2.921751836E0,5.398864746E-1,1.487823486E0,2.530899048E0
2.924284795E0,5.366973877E-1,1.561325073E0,2.567108154E0
2.926817754E0,5.334930420E-1,1.633758545E0,2.584152222E0
2.929350713E0,5.271148682E-1,1.725372314E0,2.594802856E0
2.931914190E0,5.153961182E-1,1.816986084E0,2.601196289E0
2.934447149E0,5.079345703E-1,1.908599854E0,2.594802856E0
2.936980108E0,5.004730225E-1,1.998077393E0,2.563919067E0
2.939513067E0,4.919586182E-1,2.087554932E0,2.519180298E0
2.942046026E0,4.855651855E-1,2.153610229E0,2.453125000E0
2.944609502E0,4.759674072E-1,2.188766479E0,2.367904663E0
2.947142461E0,4.738464355E-1,2.182373047E0,2.269897461E0
2.949675420E0,4.695892334E-1,2.126968384E0,2.143142700E0
2.952208379E0,4.674530029E-1,2.026840210E0,1.983352661E0
2.954771856E0,4.791717529E-1,1.887298584E0,1.796920776E0
2.957304815E0,5.057983398E-1,1.705123901E0,1.581741333E0
2.959837774E0,5.409545898E-1,1.500595093E0,1.348449707E0
2.962370733E0,5.771789551E-1,1.303527832E0,1.106628418E0
2.964934209E0,6.197814941E-1,1.127761841E0,8.605651855E-1
2.967497686E0,6.741180420E-1,9.978027344E-1,6.187438965E-1
2.970030645E0,7.295074463E-1,9.157714844E-1,4.024963379E-1
2.972563604E0,7.881011963E-1,8.731536865E-1,2.118072510E-1
2.975096563E0,8.509521484E-1,8.795471191E-1,4.243469238E-2
2.977660039E0,9.159240723E-1,9.264221191E-1,-1.024475098E-1
2.980192998E0,9.819793701E-1,1.011642456E0,-2.355957031E-1
2.982725957E0,1.049087524E0,1.111785889E0,-3.591766357E-1
2.985258916E0,1.119400024E0,1.233215332E0,-4.603729248E-1
2.987791875E0,1.203552246E0,1.351455688E0,-5.445251465E-1
2.990355352E0,1.306884766E0,1.463317871E0,-5.999145508E-1
2.992888311E0,1.412338257E0,1.566650391E0,-6.286773682E-1
2.995421270E0,1.522064209E0,1.664657593E0,-6.403961182E-1
2.997954229E0,1.634979248E0,1.763717651E0,-6.403961182E-1
3.000517705E0,1.739379883E0,1.864913940E0,-6.308135986E-1
3.003050664E0,1.837387085E0,1.956527710E0,-6.137695312E-1
3.005583623E0,1.925796509E0,2.041748047E0,-5.839385986E-1
3.008116582E0,2.004623413E0,2.121643066E0,-5.519866943E-1
3.010649541E0,2.072799683E0,2.197280884E0,-5.178985596E-1
3.013213018E0,2.121810913E0,2.252670288E0,-4.902038574E-1
3.015745977E0,2.154830933E0,2.284637451E0,-4.784851074E-1
3.018278936E0,2.162292480E0,2.295288086E0,-4.795379639E-1
3.020811895E0,2.159088135E0,2.282501221E0,-4.944610596E-1
3.023375371E0,2.138854980E0,2.246292114E0,-5.093688965E-1
3.025908330E0,2.109024048E0,2.185562134E0,-5.168304443E-1
3.028441289E0,2.071746826E0,2.099273682E0,-5.061798096E-1
3.030974248E0,2.026992798E0,1.995941162E0,-4.848632812E-1
3.033537725E0,1.977996826E0,1.884094238E0,-4.571685791E-1
3.036070684E0,1.921539307E0,1.771179199E0,-4.177551270E-1
3.038603643E0,1.857620239E0,1.667846680E0,-3.676910400E-1
3.041136602E0,1.786254883E0,1.581558228E0,-3.144226074E-1
3.043669561E0,1.709548950E0,1.496337891E0,-2.558441162E-1
3.046233037E0,1.629653931E0,1.413253784E0,-1.972503662E-1
3.048765996E0,1.548690796E0,1.324829102E0,-1.525115967E-1
3.051298955E0,1.460281372E0,1.242813110E0,-1.237487793E-1
3.053831914E0,1.370803833E0,1.175689697E0,-9.817504883E-2
3.056395391E0,1.266403198E0,1.139480591E0,-7.473754883E-2
3.058928350E0,1.156677246E0,1.123489380E0,-5.769348145E-2
3.061461309E0,1.050155640E0,1.112838745E0,-5.131530762E-2
3.063994268E0,9.478912354E-1,1.093673706E0,-4.704284668E-2
3.066527227E0,8.488159180E-1,1.056381226E0,-4.704284668E-2
3.069090703E0,7.593383789E-1,1.010574341E0,-5.024719238E-2
3.071623662E0,6.751861572E-1,9.786224365E-1,-4.597473145E-2
3.074156621E0,6.027374268E-1,9.626464844E-1,-3.427124023E-2
3.076689580E0,5.388183594E-1,9.509277344E-1,-3.213500977E-2
3.079253057E0,4.855651855E-1,9.423980713E-1,-3.320312500E-2
3.081786016E0,4.365539551E-1,9.423980713E-1,-3.852844238E-2
3.084318975E0,3.928833008E-1,9.445343018E-1,-3.852844238E-2
3.086851934E0,3.598632812E-1,9.594421387E-1,-4.171752930E-2
3.089384893E0,3.364257812E-1,9.700927734E-1,-4.811096191E-2
3.091948369E0,3.225708008E-1,9.818115234E-1,-4.917907715E-2
3.094481328E0,3.108520508E-1,9.924621582E-1,-5.131530762E-2
3.097014287E0,3.119201660E-1,9.967346191E-1,-4.811096191E-2
3.099547246E0,3.268432617E-1,9.935302734E-1,-4.917907715E-2
3.102110723E0,3.534698486E-1,9.711608887E-1,-6.941223145E-2
3.104643682E0,3.886260986E-1,9.445343018E-1,-8.540344238E-2
3.107176641E0,4.322967529E-1,9.360046387E-1,-1.013793945E-1
3.109709600E0,4.823608398E-1,9.349517822E-1,-1.056365967E-1
3.112242559E0,5.313720703E-1,9.445343018E-1,-1.056365967E-1
3.114806035E0,5.792999268E-1,9.583740234E-1,-1.035003662E-1
3.117338994E0,6.261749268E-1,9.828796387E-1,-9.605407715E-2
3.119871953E0,6.677246094E-1,1.012710571E0,-9.178161621E-2
3.122404912E0,7.092742920E-1,1.041473389E0,-9.178161621E-2
3.124968389E0,7.444152832E-1,1.064910889E0,-9.924316406E-2
3.127501348E0,7.774505615E-1,1.096862793E0,-1.067047119E-1
3.130034307E0,8.136596680E-1,1.132019043E0,-1.120300293E-1
3.132567266E0,8.424224854E-1,1.165039062E0,-1.237487793E-1
3.135100225E0,8.829040527E-1,1.183151245E0,-1.439819336E-1
3.137663701E0,9.233856201E-1,1.190612793E0,-1.663513184E-1
3.140196660E0,9.606628418E-1,1.191665649E0,-1.929931641E-1
3.142729619E0,1.000091553E0,1.187408447E0,-2.260131836E-1
3.145262578E0,1.039505005E0,1.190612793E0,-2.579650879E-1
3.147826055E0,1.075714111E0,1.189544678E0,-2.941894531E-1
3.150359014E0,1.105545044E0,1.189544678E0,-3.325347900E-1
3.152891973E0,1.136444092E0,1.187408447E0,-3.676910400E-1
3.155424932E0,1.159881592E0,1.178894043E0,-4.028472900E-1
3.157957891E0,1.177978516E0,1.172500610E0,-4.411926270E-1
3.160521367E0,1.190765381E0,1.156524658E0,-4.763488770E-1
3.163054326E0,1.200347900E0,1.127761841E0,-5.061798096E-1
3.165587285E0,1.201416016E0,1.091537476E0,-5.338745117E-1
3.168120244E0,1.198226929E0,1.056381226E0,-5.583801270E-1
3.170683721E0,1.193969727E0,1.024429321E0,-5.839385986E-1
3.173216680E0,1.176925659E0,9.882049561E-1,-6.063079834E-1
3.175749639E0,1.149215698E0,9.562530518E-1,-6.265563965E-1
3.178282598E0,1.116195679E0,9.338836670E-1,-6.403961182E-1
3.180846074E0,1.074645996E0,9.189605713E-1,-6.542510986E-1
3.183379033E0,1.021392822E0,9.157714844E-1,-6.702270508E-1
3.185911992E0,9.596099854E-1,9.210968018E-1,-6.808776855E-1
3.188444951E0,8.935546875E-1,9.306793213E-1,-6.925964355E-1
3.190977910E0,8.189849854E-1,9.456024170E-1,-7.096405029E-1
3.193541387E0,7.412261963E-1,9.626464844E-1,-7.256164551E-1
3.196074346E0,6.634674072E-1,9.818115234E-1,-7.405395508E-1
3.198607305E0,5.814361572E-1,1.007385254E0,-7.565155029E-1
3.201140264E0,4.951477051E-1,1.039337158E0,-7.714233398E-1
3.203703741E0,4.141845703E-1,1.072357178E0,-7.831420898E-1
3.206236699E0,3.332366943E-1,1.105392456E0,-8.023223877E-1
3.208769658E0,2.522735596E-1,1.136276245E0,-8.225555420E-1
3.211302617E0,1.744995117E-1,1.162918091E0,-8.364105225E-1
3.213835576E0,9.992980957E-2,1.190612793E0,-8.513183594E-1
3.216399053E0,3.814697266E-2,1.205520630E0,-8.651733398E-1
3.218932012E0,-2.363586426E-2,1.205520630E0,-8.779602051E-1
3.221464971E0,-8.009338379E-2,1.201263428E0,-8.832855225E-1
3.223997930E0,-1.184387207E-1,1.193801880E0,-8.907318115E-1
3.226561407E0,-1.578521729E-1,1.171432495E0,-8.981933594E-1
3.229094366E0,-1.962127686E-1,1.151199341E0,-8.960571289E-1
3.231627324E0,-2.185821533E-1,1.123489380E0,-8.907318115E-1
3.234160283E0,-2.420196533E-1,1.087280273E0,-8.875427246E-1
3.236693242E0,-2.622528076E-1,1.048934937E0,-8.811492920E-1
3.239256719E0,-2.729034424E-1,1.002059937E0,-8.758239746E-1
3.241789678E0,-2.856903076E-1,9.519958496E-1,-8.704986572E-1
3.244322637E0,-2.920837402E-1,8.955230713E-1,-8.662414551E-1
3.246855596E0,-2.974090576E-1,8.380126953E-1,-8.641052246E-1
3.249419073E0,-3.048706055E-1,7.772827148E-1,-8.587799072E-1
3.251982549E0,-3.016662598E-1,7.197570801E-1,-8.513183594E-1
3.254515508E0,-2.984771729E-1,6.611785889E-1,-8.470611572E-1
3.257048467E0,-2.974090576E-1,6.100463867E-1,-8.406677246E-1
3.259581426E0,-2.952728271E-1,5.578460693E-1,-8.364105225E-1
3.262144903E0,-2.942047119E-1,5.045776367E-1,-8.310852051E-1
3.264677862E0,-2.910156250E-1,4.523773193E-1,-8.332061768E-1
3.267210821E0,-2.878265381E-1,4.055023193E-1,-8.332061768E-1
3.269743780E0,-2.888793945E-1,3.618316650E-1,-8.364105225E-1
3.272307256E0,-2.931518555E-1,3.192291260E-1,-8.385314941E-1
3.274840215E0,-3.016662598E-1,2.766113281E-1,-8.374786377E-1
3.277373174E0,-3.123168945E-1,2.403869629E-1,-8.395996094E-1
3.279906133E0,-3.240356445E-1,2.105712891E-1,-8.438720703E-1
3.282439092E0,-3.410797119E-1,1.871337891E-1,-8.491973877E-1
3.285002569E0,-3.655853271E-1,1.743469238E-1,-8.566436768E-1
3.287535528E0,-3.890228271E-1,1.647644043E-1,-8.630371094E-1
3.290068487E0,-4.177856445E-1,1.636962891E-1,-8.726196289E-1
3.292601446E0,-4.422760010E-1,1.711425781E-1,-8.822174072E-1
3.295164922E0,-4.710388184E-1,1.818084717E-1,-8.917999268E-1
3.297697881E0,-5.008697510E-1,1.999053955E-1,-9.035186768E-1
3.300230840E0,-5.243072510E-1,2.254791260E-1,-9.163055420E-1
3.302763799E0,-5.477447510E-1,2.595672607E-1,-9.258880615E-1
3.305327276E0,-5.711822510E-1,3.011169434E-1,-9.461364746E-1
3.307860235E0,-5.935516357E-1,3.458557129E-1,-9.589080811E-1
3.310393194E0,-6.116638184E-1,3.980560303E-1,-9.674377441E-1
3.312926153E0,-6.255035400E-1,4.566345215E-1,-9.791564941E-1
3.315489629E0,-6.340332031E-1,5.141601562E-1,-9.876708984E-1
3.318022588E0,-6.372222900E-1,5.695648193E-1,-9.919433594E-1
3.320555547E0,-6.308288574E-1,6.249542236E-1,-9.983215332E-1
3.323088506E0,-6.191101074E-1,6.718292236E-1,-9.972686768E-1
3.325621465E0,-5.946197510E-1,7.101745605E-1,-9.940643311E-1
3.328154424E0,-5.605316162E-1,7.453308105E-1,-9.887390137E-1
3.330717901E0,-5.179138184E-1,7.613067627E-1,-9.759521484E-1
3.333250860E0,-4.699859619E-1,7.666320801E-1,-9.653015137E-1
3.335783819E0,-4.145812988E-1,7.708892822E-1,-9.525146484E-1
3.338316778E0,-3.591918945E-1,7.570495605E-1,-9.354705811E-1
3.340880254E0,-3.027343750E-1,7.357330322E-1,-9.141693115E-1
3.343413213E0,-2.377471924E-1,7.059173584E-1,-8.928680420E-1
3.345946172E0,-1.812896729E-1,6.750183105E-1,-8.662414551E-1
3.348479131E0,-1.216430664E-1,6.387939453E-1,-8.278808594E-1
3.351042608E0,-6.198120117E-2,6.036529541E-1,-7.959289551E-1
3.353575567E0,-9.780883789E-3,5.748901367E-1,-7.629089355E-1
3.356108526E0,4.241943359E-2,5.408020020E-1,-7.192230225E-1
3.358641485E0,9.355163574E-2,5.099029541E-1,-6.787414551E-1
3.361174444E0,1.350860596E-1,4.939270020E-1,-6.403961182E-1
3.363737920E0,1.734466553E-1,4.779510498E-1,-5.956573486E-1
3.366270879E0,2.128601074E-1,4.673004150E-1,-5.509185791E-1
3.368803838E0,2.458801270E-1,4.555816650E-1,-5.051116943E-1
3.371336797E0,2.789001465E-1,4.417266846E-1,-4.582366943E-1
3.373900274E0,3.108520508E-1,4.332122803E-1,-4.113616943E-1
3.376433233E0,3.406829834E-1,4.268188477E-1,-3.698272705E-1
3.378966192E0,3.694458008E-1,4.151000977E-1,-3.314666748E-1
3.381499151E0,3.960723877E-1,4.097747803E-1,-2.941894531E-1
3.384032110E0,4.259033203E-1,4.065704346E-1,-2.622375488E-1
3.386595586E0,4.525451660E-1,4.065704346E-1,-2.281494141E-1
3.389128545E0,4.749145508E-1,4.044494629E-1,-1.961822510E-1
3.391661504E0,4.940795898E-1,3.980560303E-1,-1.631622314E-1
3.394194463E0,5.111236572E-1,3.969879150E-1,-1.365356445E-1
3.396757940E0,5.334930420E-1,3.852691650E-1,-1.130981445E-1
3.399290899E0,5.516052246E-1,3.735504150E-1,-8.859252930E-2
3.401823858E0,5.643920898E-1,3.586425781E-1,-7.154846191E-2
3.404356817E0,5.846252441E-1,3.415985107E-1,-5.982971191E-2
3.406889776E0,6.048736572E-1,3.224182129E-1,-4.811096191E-2
3.409422735E0,6.272430420E-1,3.053741455E-1,-4.171752930E-2
3.411986211E0,6.485443115E-1,2.883300781E-1,-4.278564453E-2
3.414519170E0,6.741180420E-1,2.787475586E-1,-5.131530762E-2
3.417052129E0,6.996765137E-1,2.830047607E-1,-6.196594238E-2
3.419615606E0,7.177886963E-1,2.968444824E-1,-7.473754883E-2
3.422148565E0,7.305755615E-1,3.256072998E-1,-9.072875977E-2
3.424681524E0,7.390899658E-1,3.724822998E-1,-1.109619141E-1
3.427214483E0,7.359008789E-1,4.321441650E-1,-1.365356445E-1
3.429747442E0,7.263183594E-1,4.971160889E-1,-1.620941162E-1
3.432310918E0,7.039489746E-1,5.642395020E-1,-1.833953857E-1
3.434843877E0,6.762390137E-1,6.228179932E-1,-1.865997314E-1
3.437376836E0,6.410980225E-1,6.601104736E-1,-1.802062988E-1
3.439909795E0,6.016693115E-1,6.728820801E-1,-1.589050293E-1
3.442473272E0,5.622558594E-1,6.643676758E-1,-1.312103271E-1
3.445006231E0,5.207214355E-1,6.430664062E-1,-9.710693359E-2
3.447539190E0,4.791717529E-1,6.110992432E-1,-5.876159668E-2
3.450072149E0,4.376220703E-1,5.823364258E-1,-2.255249023E-2
3.452635625E0,4.035339355E-1,5.429229736E-1,1.367187500E-2
3.455168584E0,3.747711182E-1,5.003204346E-1,5.201721191E-2
3.457701543E0,3.438873291E-1,4.470520020E-1,8.610534668E-2
3.460234502E0,3.151245117E-1,3.842010498E-1,1.191406250E-1
3.462767461E0,2.789001465E-1,3.160247803E-1,1.564178467E-1
3.465330938E0,2.299041748E-1,2.414550781E-1,1.979675293E-1
3.467863897E0,1.744995117E-1,1.615600586E-1,2.416381836E-1
3.470396856E0,1.105957031E-1,7.315063477E-2,2.906494141E-1
3.472929815E0,4.454040527E-2,-2.806091309E-2,3.364410400E-1
3.475493291E0,-1.724243164E-2,-1.367187500E-1,3.822479248E-1
3.478026250E0,-8.435058594E-2,-2.656097412E-1,4.227294922E-1
3.480559209E0,-1.546630859E-1,-4.243316650E-1,4.514923096E-1
3.483092168E0,-2.100524902E-1,-6.000976562E-1,4.749298096E-1
3.485625127E0,-2.452087402E-1,-7.705383301E-1,4.972991943E-1
3.488188604E0,-2.558593750E-1,-9.143524170E-1,5.100860596E-1
3.490721563E0,-2.324218750E-1,-1.013427734E0,5.132751465E-1
3.493254522E0,-1.802215576E-1,-1.046447754E0,5.090179443E-1
3.495787481E0,-1.067199707E-1,-1.003829956E0,4.972991943E-1
3.498350957E0,-3.109741211E-2,-8.962402344E-1,4.845123291E-1
3.500883916E0,3.282165527E-2,-7.364501953E-1,4.770660400E-1
3.503416875E0,6.584167480E-2,-5.404510498E-1,4.770660400E-1
3.505949834E0,7.011413574E-2,-3.242034912E-1,4.845123291E-1
3.508482793E0,4.241943359E-2,-9.410095215E-2,4.962310791E-1
3.511046270E0,-1.405334473E-2,1.455841064E-1,5.100860596E-1
3.513579229E0,-9.606933594E-2,3.767395020E-1,5.090179443E-1
3.516112188E0,-1.930084229E-1,5.866088867E-1,4.898529053E-1
3.518645147E0,-2.995452881E-1,7.655639648E-1,4.610900879E-1
3.521208623E0,-4.145812988E-1,9.072418213E-1,4.206085205E-1
3.523741582E0,-5.275115967E-1,1.021224976E0,3.833160400E-1
3.526274541E0,-6.351013184E-1,1.105392456E0,3.460388184E-1
3.528807500E0,-7.341613770E-1,1.167175293E0,3.076934814E-1
3.531340459E0,-8.247070312E-1,1.216171265E0,2.735900879E-1
3.533903936E0,-8.907623291E-1,1.240676880E0,2.437744141E-1
3.536436895E0,-9.323120117E-1,1.241744995E0,2.160797119E-1
3.539000371E0,-9.589385986E-1,1.221496582E0,1.905059814E-1
3.541533330E0,-9.759826660E-1,1.186340332E0,1.723937988E-1
3.544096807E0,-9.855651855E-1,1.127761841E0,1.500244141E-1
3.546629766E0,-9.844970703E-1,1.057449341E0,1.276550293E-1
3.549162725E0,-9.781036377E-1,9.605102539E-1,1.042175293E-1
3.551695684E0,-9.642639160E-1,8.561096191E-1,8.505249023E-2
3.554259160E0,-9.440155029E-1,7.549133301E-1,6.480407715E-2
3.556792119E0,-9.269714355E-1,6.632995605E-1,5.096435547E-2
3.559325078E0,-9.120635986E-1,5.759429932E-1,3.497314453E-2
3.561858037E0,-8.971557617E-1,5.067138672E-1,1.580810547E-2
3.564390996E0,-8.865051270E-1,4.534454346E-1,-1.188659668E-2
3.566954473E0,-8.801116943E-1,4.204254150E-1,-4.064941406E-2
3.569487432E0,-8.662567139E-1,3.916625977E-1,-8.326721191E-2
3.572020391E0,-8.438873291E-1,3.458557129E-1,-1.269378662E-1
3.574553350E0,-8.055419922E-1,2.755432129E-1,-1.663513184E-1
3.577086309E0,-7.512054443E-1,1.860656738E-1,-1.929931641E-1
3.579649785E0,-6.872863770E-1,7.420349121E-2,-2.025756836E-1
3.582182744E0,-6.105957031E-1,-4.829406738E-2,-1.919250488E-1
3.584715703E0,-5.285644531E-1,-1.814575195E-1,-1.759490967E-1
3.587248662E0,-4.348297119E-1,-3.178100586E-1,-1.716766357E-1
3.589812139E0,-3.346862793E-1,-4.552307129E-1,-1.833953857E-1
3.592345098E0,-2.356262207E-1,-5.958404541E-1,-2.089691162E-1
3.594878057E0,-1.482696533E-1,-7.321929932E-1,-2.345275879E-1
3.597411016E0,-7.902526855E-2,-8.483123779E-1,-2.643585205E-1
3.599974492E0,-2.682495117E-2,-9.633636475E-1,-2.995147705E-1
3.602507451E0,1.470947266E-2,-1.091186523E0,-3.463897705E-1
3.605040410E0,3.707885742E-2,-1.197708130E0,-4.049682617E-1
3.607573369E0,2.749633789E-2,-1.271224976E0,-4.678192139E-1
3.610106328E0,-2.256774902E-2,-1.312759399E0,-5.210876465E-1
3.612669805E0,-9.394836426E-2,-1.323410034E0,-5.615692139E-1
3.615202764E0,-1.812896729E-1,-1.314895630E0,-5.881958008E-1
3.617735723E0,-2.675781250E-1,-1.279739380E0,-6.031188965E-1
3.620268682E0,-3.506774902E-1,-1.227539062E0,-6.116333008E-1
3.622832158E0,-4.241790771E-1,-1.152969360E0,-6.105651855E-1
3.625365117E0,-4.848937988E-1,-1.068817139E0,-6.020507812E-1
3.627898076E0,-5.243072510E-1,-9.804077148E-1,-5.924682617E-1
3.630431035E0,-5.477447510E-1,-8.834686279E-1,-5.828704834E-1
3.632963994E0,-5.520019531E-1,-7.971801758E-1,-5.722198486E-1
3.635527471E0,-5.402832031E-1,-7.013092041E-1,-5.583801270E-1
3.638060430E0,-5.221710205E-1,-5.894470215E-1,-5.402679443E-1
3.640593389E0,-5.008697510E-1,-4.680023193E-1,-5.157623291E-1
3.643126348E0,-4.763641357E-1,-3.561553955E-1,-4.923248291E-1
3.645689824E0,-4.401550293E-1,-2.730712891E-1,-4.688873291E-1
3.648222783E0,-3.964691162E-1,-2.208709717E-1,-4.465179443E-1
3.650755742E0,-3.623809814E-1,-1.718597412E-1,-4.262847900E-1
3.653288701E0,-3.389587402E-1,-1.036834717E-1,-4.166870117E-1
3.655821660E0,-3.378906250E-1,-1.634216309E-2,-4.230804443E-1
3.658385137E0,-3.613281250E-1,7.101440430E-2,-4.273529053E-1
3.660918096E0,-4.018096924E-1,1.540985107E-1,-4.326782227E-1
3.663451055E0,-4.614562988E-1,2.318725586E-1,-4.305419922E-1
3.665984014E0,-5.296325684E-1,2.861938477E-1,-4.198913574E-1
3.668547491E0,-6.052703857E-1,3.075103760E-1,-4.092407227E-1
3.671080449E0,-6.745147705E-1,3.021850586E-1,-3.943176270E-1
3.673613408E0,-7.384338379E-1,2.648925781E-1,-3.783416748E-1
3.676146367E0,-7.959442139E-1,2.009735107E-1,-3.687591553E-1
3.678679326E0,-8.524169922E-1,1.125640869E-1,-3.581085205E-1
3.681242803E0,-8.928833008E-1,3.906250000E-3,-3.474578857E-1
3.683775762E0,-9.141998291E-1,-1.154022217E-1,-3.421325684E-1
3.686308721E0,-9.184570312E-1,-2.411041260E-1,-3.410644531E-1
3.688841680E0,-9.088745117E-1,-3.646850586E-1,-3.527832031E-1
3.691405157E0,-8.950195312E-1,-4.701385498E-1,-3.570404053E-1
3.693938116E0,-8.843688965E-1,-5.617523193E-1,-3.655548096E-1
3.696471074E0,-8.737182617E-1,-6.309967041E-1,-3.730163574E-1
3.699004033E0,-8.683929443E-1,-6.874542236E-1,-3.740844727E-1
3.701567510E0,-8.566741943E-1,-7.481689453E-1,-3.730163574E-1
3.704100469E0,-8.438873291E-1,-8.003692627E-1,-3.740844727E-1
3.706633428E0,-8.300323486E-1,-8.621520996E-1,-3.783416748E-1
3.709166387E0,-8.279113770E-1,-9.058380127E-1,-3.825988770E-1
3.711699346E0,-8.289794922E-1,-9.441833496E-1,-3.794097900E-1
3.714262823E0,-7.767791748E-1,-1.086929321E0,-3.794097900E-1
3.716795782E0,-6.755828857E-1,-1.306365967E0,-3.932647705E-1
3.719328741E0,-5.466766357E-1,-1.548187256E0,-4.241485596E-1
3.721861699E0,-4.273681641E-1,-1.748458862E0,-4.518432617E-1
3.724425176E0,-3.112487793E-1,-1.949798584E0,-4.827423096E-1
3.726958135E0,-2.026062012E-1,-2.147933960E0,-5.146942139E-1
3.729491094E0,-1.099243164E-1,-2.300262451E0,-5.434570312E-1
3.732024053E0,-4.919433594E-2,-2.428100586E0,-5.743560791E-1
3.734557012E0,5.126953125E-3,-2.531433105E0,-6.041870117E-1
3.737120489E0,4.347229004E-2,-2.605987549E0,-6.297454834E-1
3.739653448E0,7.011413574E-2,-2.660324097E0,-6.585083008E-1
3.742186407E0,8.821105957E-2,-2.692276001E0,-6.840820312E-1
3.744719366E0,9.887695312E-2,-2.712524414E0,-7.053833008E-1
3.747282842E0,1.073913574E-1,-2.738082886E0,-7.181701660E-1
3.749815801E0,1.063232422E-1,-2.768981934E0,-7.245483398E-1
3.752348760E0,8.715820312E-2,-2.781768799E0,-7.245483398E-1
3.754881719E0,5.307006836E-2,-2.772171021E0,-7.234954834E-1
3.757445196E0,-1.983642578E-4,-2.730636597E0,-7.075042725E-1
3.759978155E0,-6.623840332E-2,-2.644348145E0,-6.925964355E-1
3.762511114E0,-1.397552490E-1,-2.556991577E0,-6.787414551E-1
3.765044073E0,-2.217712402E-1,-2.469635010E0,-6.659698486E-1
3.767577032E0,-3.080596924E-1,-2.371643066E0,-6.531829834E-1
3.770140508E0,-3.858184814E-1,-2.262985229E0,-6.436004639E-1
3.772673467E0,-4.465484619E-1,-2.153259277E0,-6.361389160E-1
3.775206426E0,-4.859619141E-1,-2.056320190E0,-6.329498291E-1
3.777739385E0,-5.147247314E-1,-1.966842651E0,-6.446533203E-1
3.780272344E0,-5.307006836E-1,-1.907180786E0,-6.670379639E-1
3.782835821E0,-5.456085205E-1,-1.880554199E0,-6.968536377E-1
3.785368780E0,-5.658569336E-1,-1.872024536E0,-7.330780029E-1
3.787901739E0,-5.860900879E-1,-1.852859497E0,-7.597045898E-1
3.790434698E0,-6.063385010E-1,-1.834747314E0,-7.820739746E-1
3.792998174E0,-6.212463379E-1,-1.818771362E0,-8.012542725E-1
3.795531133E0,-6.340332031E-1,-1.827285767E0,-8.151092529E-1
3.798064092E0,-6.382904053E-1,-1.859237671E0,-8.161621094E-1
3.800597051E0,-6.446838379E-1,-1.916763306E0,-7.959289551E-1
3.803130010E0,-6.531982422E-1,-1.938079834E0,-7.682342529E-1
3.805662969E0,-6.595916748E-1,-1.939132690E0,-7.447967529E-1
3.808226446E0,-6.649169922E-1,-1.930618286E0,-7.171020508E-1
3.810759405E0,-6.766357422E-1,-1.901855469E0,-6.819458008E-1
3.813292364E0,-6.926269531E-1,-1.849655151E0,-6.446533203E-1
3.815855840E0,-7.096710205E-1,-1.797454834E0,-6.105651855E-1
3.818388799E0,-7.256469727E-1,-1.727157593E0,-5.807495117E-1
3.820921758E0,-7.384338379E-1,-1.645126343E0,-5.477142334E-1
3.823485235E0,-7.565307617E-1,-1.555648804E0,-5.146942139E-1
3.826048711E0,-7.703857422E-1,-1.466156006E0,-4.784851074E-1
3.828581670E0,-7.757110596E-1,-1.395858765E0,-4.486541748E-1
3.831114629E0,-7.746429443E-1,-1.326614380E0,-4.156341553E-1
3.833647588E0,-7.703857422E-1,-1.274414062E0,-3.804779053E-1
3.836180547E0,-7.661285400E-1,-1.232864380E0,-3.485107422E-1
3.838744024E0,-7.629241943E-1,-1.195587158E0,-3.229522705E-1
3.841276983E0,-7.682495117E-1,-1.161499023E0,-3.037719727E-1
3.843809942E0,-7.671813965E-1,-1.129531860E0,-2.846069336E-1
3.846342901E0,-7.725219727E-1,-1.095443726E0,-2.728881836E-1
3.848906377E0,-7.821044922E-1,-1.057098389E0,-2.654266357E-1
3.851439336E0,-7.938232422E-1,-1.036865234E0,-2.622375488E-1
3.853972295E0,-8.044738770E-1,-1.018753052E0,-2.654266357E-1
3.856505254E0,-8.161926270E-1,-1.003829956E0,-2.675628662E-1
3.859038213E0,-8.289794922E-1,-9.942474365E-1,-2.675628662E-1
3.861601690E0,-8.428192139E-1,-9.814605713E-1,-2.718200684E-1
3.864134649E0,-8.577423096E-1,-9.729461670E-1,-2.760772705E-1
3.866667608E0,-8.747863770E-1,-9.633636475E-1,-2.814025879E-1
3.869200567E0,-8.896942139E-1,-9.516448975E-1,-2.931213379E-1
3.871764043E0,-9.014129639E-1,-9.377899170E-1,-3.069763184E-1
3.874297002E0,-9.109954834E-1,-9.282073975E-1,-3.208160400E-1
3.876829961E0,-9.216461182E-1,-9.239349365E-1,-3.325347900E-1
3.879362920E0,-9.301757812E-1,-9.196777344E-1,-3.442535400E-1
3.881895879E0,-9.323120117E-1,-9.111633301E-1,-3.602294922E-1
3.884459356E0,-9.397583008E-1,-9.132843018E-1,-3.762207031E-1
3.886992315E0,-9.397583008E-1,-9.100952148E-1,-3.932647705E-1
3.889525274E0,-9.429626465E-1,-9.100952148E-1,-4.081726074E-1
3.892058233E0,-9.472198486E-1,-9.154205322E-1,-4.230804443E-1
3.894621709E0,-9.589385986E-1,-9.228820801E-1,-4.284057617E-1
3.897154668E0,-9.695892334E-1,-9.324645996E-1,-4.326782227E-1
3.899687627E0,-9.834442139E-1,-9.495086670E-1,-4.294738770E-1
3.902220586E0,-1.006866455E0,-9.569702148E-1,-4.284057617E-1
3.904753545E0,-1.031372070E0,-9.750671387E-1,-4.252166748E-1
3.907317022E0,-1.046295166E0,-1.005966187E0,-4.134979248E-1
3.909849981E0,-1.063339233E0,-1.048583984E0,-4.007110596E-1
3.912382940E0,-1.083572388E0,-1.096511841E0,-3.804779053E-1
3.914915899E0,-1.104873657E0,-1.138061523E0,-3.559722900E-1
3.917479375E0,-1.126190186E0,-1.167892456E0,-3.431854248E-1
3.920012334E0,-1.142166138E0,-1.195587158E0,-3.208160400E-1
3.922545293E0,-1.156005859E0,-1.228607178E0,-2.888641357E-1
3.925078252E0,-1.178375244E0,-1.270156860E0,-2.568969727E-1
3.927641729E0,-1.197555542E0,-1.313827515E0,-2.249450684E-1
3.930174688E0,-1.210342407E0,-1.368164062E0,-1.993865967E-1
3.932707647E0,-1.220993042E0,-1.417160034E0,-1.802062988E-1
3.935240606E0,-1.235900879E0,-1.469360352E0,-1.439819336E-1
3.937773565E0,-1.247619629E0,-1.521560669E0,-1.035003662E-1
3.940306524E0,-1.257217407E0,-1.570556641E0,-7.154846191E-2
3.942870000E0,-1.264663696E0,-1.621688843E0,-4.171752930E-2
3.945402959E0,-1.268920898E0,-1.684539795E0,-1.509094238E-2
3.947935918E0,-1.267868042E0,-1.743133545E0,8.346557617E-3
3.950499395E0,-1.269989014E0,-1.799591064E0,2.964782715E-2
3.953032354E0,-1.263595581E0,-1.850723267E0,5.522155762E-2
3.955565313E0,-1.250823975E0,-1.905044556E0,7.438659668E-2
3.958098272E0,-1.229507446E0,-1.948730469E0,9.037780762E-2
3.960631231E0,-1.209274292E0,-1.967895508E0,1.042175293E-1
3.963164190E0,-1.182647705E0,-1.977493286E0,1.201934814E-1
3.965727666E0,-1.143234253E0,-1.988143921E0,1.383056641E-1
3.968260625E0,-1.092102051E0,-2.003051758E0,1.628112793E-1
3.970793584E0,-1.035629272E0,-2.005187988E0,1.926422119E-1
3.973357061E0,-9.749145508E-1,-1.979614258E0,2.192687988E-1
3.975890020E0,-9.046020508E-1,-1.945526123E0,2.373809814E-1
3.978422979E0,-8.311004639E-1,-1.903991699E0,2.490997314E-1
3.980955938E0,-7.575988770E-1,-1.846466064E0,2.522888184E-1
3.983488897E0,-6.777038574E-1,-1.783615112E0,2.533569336E-1
3.986052373E0,-5.903472900E-1,-1.719696045E0,2.490997314E-1
3.988585332E0,-5.125885010E-1,-1.648315430E0,2.352447510E-1
3.991118291E0,-4.263000488E-1,-1.552444458E0,2.235260010E-1
3.993651250E0,-3.421478271E-1,-1.472549438E0,2.096862793E-1
3.996214727E0,-2.633209229E-1,-1.404373169E0,1.968994141E-1
3.998747686E0,-1.866149902E-1,-1.335128784E0,1.905059814E-1
4.001280645E0,-1.163177490E-1,-1.282928467E0,1.958312988E-1
4.003813604E0,-5.986022949E-2,-1.243515015E0,2.054138184E-1
4.006346563E0,-1.191711426E-2,-1.197708130E0,2.128753662E-1
4.008910039E0,3.070068359E-2,-1.156173706E0,2.192687988E-1
4.011442998E0,6.051635742E-2,-1.122085571E0,2.203369141E-1
4.013975957E0,8.715820312E-2,-1.096511841E0,2.107543945E-1
4.016508916E0,1.084594727E-1,-1.079467773E0,2.011566162E-1
4.019072393E0,1.265716553E-1,-1.063491821E0,1.894378662E-1
4.021605352E0,1.414794922E-1,-1.041122437E0,1.777191162E-1
4.024138311E0,1.446838379E-1,-1.014495850E0,1.723937988E-1
4.026671270E0,1.457366943E-1,-9.814605713E-1,1.585540771E-1
4.029204229E0,1.468048096E-1,-9.516448975E-1,1.510925293E-1
4.031767705E0,1.500091553E-1,-9.292755127E-1,1.404418945E-1
4.034300664E0,1.521301270E-1,-9.100952148E-1,1.351165771E-1
4.036833623E0,1.542663574E-1,-8.973083496E-1,1.308593750E-1
4.039366582E0,1.542663574E-1,-8.791961670E-1,1.276550293E-1
4.041930059E0,1.510620117E-1,-8.547058105E-1,1.223297119E-1
4.044463018E0,1.404113770E-1,-8.355255127E-1,1.148681641E-1
4.046995977E0,1.297607422E-1,-8.195495605E-1,1.010284424E-1
4.049528936E0,1.137847900E-1,-7.907867432E-1,9.249877930E-2
4.052061895E0,9.887695312E-2,-7.524414062E-1,1.063537598E-1
4.054625371E0,8.183288574E-2,-7.076873779E-1,1.287231445E-1
4.057158330E0,7.116699219E-2,-6.629486084E-1,1.404418945E-1
4.059691289E0,5.839538574E-2,-6.214141846E-1,1.446990967E-1
4.062224248E0,4.879760742E-2,-5.724029541E-1,1.425628662E-1
4.064787725E0,3.707885742E-2,-5.202026367E-1,1.415100098E-1
4.067320684E0,2.642822266E-2,-4.637451172E-1,1.393737793E-1
4.069853643E0,2.110290527E-2,-4.030303955E-1,1.372375488E-1
4.072386602E0,1.258850098E-2,-3.391113281E-1,1.340484619E-1
4.074950078E0,7.263183594E-3,-2.709350586E-1,1.287231445E-1
4.077483037E0,8.331298828E-3,-2.059478760E-1,1.265869141E-1
4.080015996E0,1.365661621E-2,-1.409759521E-1,1.244659424E-1
4.082548955E0,1.684570312E-2,-6.640625000E-2,1.170043945E-1
4.085081914E0,2.963256836E-2,1.029968262E-2,1.095428467E-1
4.087645391E0,4.667663574E-2,9.658813477E-2,9.889221191E-2
4.090178350E0,6.478881836E-2,1.775360107E-1,8.610534668E-2
4.092711309E0,8.927917480E-2,2.542419434E-1,7.119750977E-2
4.095244268E0,1.244354248E-1,3.362731934E-1,5.734252930E-2
4.097807744E0,1.606597900E-1,4.172210693E-1,4.029846191E-2
4.100340703E0,1.936798096E-1,4.971160889E-1,2.432250977E-2
4.102873662E0,2.352294922E-1,5.780792236E-1,1.048278809E-2
4.105406621E0,2.820892334E-1,6.515808105E-1,-4.440307617E-3
4.107939580E0,3.321685791E-1,7.261505127E-1,-2.148437500E-2
4.110503057E0,3.811645508E-1,7.996520996E-1,-3.320312500E-2
4.113066533E0,4.355010986E-1,8.688964844E-1,-3.959655762E-2
4.115599492E0,4.855651855E-1,9.477233887E-1,-4.917907715E-2
4.118132451E0,5.356292725E-1,1.026550293E0,-5.450439453E-2
4.120695928E0,5.846252441E-1,1.106445312E0,-5.769348145E-2
4.123228887E0,6.378936768E-1,1.187408447E0,-5.664062500E-2
4.125761846E0,6.847686768E-1,1.254516602E0,-5.343627930E-2
4.128294805E0,7.305755615E-1,1.322708130E0,-4.064941406E-2
4.130827764E0,7.742462158E-1,1.384490967E0,-2.467346191E-2
4.133391241E0,8.125915527E-1,1.446273804E0,-1.235961914E-3
4.135924199E0,8.541412354E-1,1.513381958E0,2.857971191E-2
4.138457158E0,8.924865723E-1,1.581558228E0,5.841064453E-2
4.140990117E0,9.340362549E-1,1.642272949E0,9.782409668E-2
4.143553594E0,9.660034180E-1,1.696609497E0,1.436309814E-1
4.146086553E0,9.947662354E-1,1.746673584E0,1.926422119E-1
4.148619512E0,1.022460938E0,1.791412354E0,2.490997314E-1
4.151152471E0,1.044830322E0,1.828704834E0,3.119506836E-1
4.153715948E0,1.066131592E0,1.847869873E0,3.779907227E-1
4.156248907E0,1.089569092E0,1.854263306E0,4.504241943E-1
4.158781866E0,1.110870361E0,1.850006104E0,5.249938965E-1
4.161314824E0,1.134307861E0,1.834030151E0,6.006317139E-1
4.163847783E0,1.155609131E0,1.804199219E0,6.869201660E-1
4.166411260E0,1.173721313E0,1.769042969E0,7.700042725E-1
4.168944219E0,1.182250977E0,1.733886719E0,8.541717529E-1
4.171477178E0,1.183303833E0,1.699798584E0,9.415130615E-1
4.174010137E0,1.184371948E0,1.668914795E0,1.036331177E0
4.176543096E0,1.180114746E0,1.644409180E0,1.131134033E0
4.179106573E0,1.166259766E0,1.601806641E0,1.229141235E0
4.181639532E0,1.147094727E0,1.561325073E0,1.320755005E0
4.184172491E0,1.123657227E0,1.528289795E0,1.412368774E0
4.186705449E0,1.095962524E0,1.506988525E0,1.507171631E0
4.189268926E0,1.067199707E0,1.488876343E0,1.598785400E0
4.191801885E0,1.037368774E0,1.477157593E0,1.692535400E0
4.194334844E0,1.010742188E0,1.478225708E0,1.784149170E0
4.196867803E0,9.851684570E-1,1.493148804E0,1.871490479E0
4.199431280E0,9.564056396E-1,1.530426025E0,1.956710815E0
4.201964239E0,9.319152832E-1,1.570907593E0,2.040878296E0
4.204497198E0,9.020843506E-1,1.623107910E0,2.126098633E0
4.207030157E0,8.701171875E-1,1.698745728E0,2.210250854E0
4.209563116E0,8.445587158E-1,1.804199219E0,2.288009644E0
4.212126592E0,8.232574463E-1,1.933090210E0,2.373229980E0
4.214659551E0,8.168640137E-1,2.081161499E0,2.458450317E0
4.217192510E0,8.179321289E-1,2.238830566E0,2.534088135E0
4.219725469E0,8.307037354E-1,2.384765625E0,2.591613770E0
4.222288946E0,8.488159180E-1,2.495559692E0,2.634216309E0
4.224821905E0,8.786468506E-1,2.575454712E0,2.654464722E0
4.227354864E0,9.159240723E-1,2.614868164E0,2.645935059E0
4.229887823E0,9.638671875E-1,2.618057251E0,2.601196289E0
4.232420782E0,1.021392822E0,2.574386597E0,2.522369385E0
4.234984258E0,1.079986572E0,2.501953125E0,2.407318115E0
4.237517217E0,1.141769409E0,2.406082153E0,2.249664307E0
4.240050176E0,1.201416016E0,2.263336182E0,2.050460815E0
4.242583135E0,1.249359131E0,2.087554932E0,1.825683594E0
4.245146612E0,1.285568237E0,1.869186401E0,1.579605103E0
4.247679571E0,1.305816650E0,1.622039795E0,1.316497803E0
4.250212530E0,1.319671631E0,1.363174438E0,1.037399292E0
4.252745489E0,1.331375122E0,1.102188110E0,7.550964355E-1
4.255278448E0,1.333511353E0,8.859405518E-1,4.823913574E-1
4.257841924E0,1.332443237E0,7.336120605E-1,2.373809814E-1
4.260374883E0,1.338836670E0,6.398620605E-1,3.285217285E-2
4.262907842E0,1.358016968E0,5.876617432E-1,-1.375885010E-1
4.265440801E0,1.388900757E0,5.727539062E-1,-2.856597900E-1
4.268004278E0,1.431518555E0,5.866088867E-1,-4.177551270E-1
4.270537237E0,1.477325439E0,6.324157715E-1,-5.274810791E-1
4.273070196E0,1.530593872E0,7.250823975E-1,-6.137695312E-1
4.275603155E0,1.597702026E0,8.550567627E-1,-6.776885986E-1
4.278166631E0,1.671203613E0,1.020172119E0,-7.202911377E-1
4.280699590E0,1.748962402E0,1.203384399E0,-7.426605225E-1
4.283232549E0,1.848037720E0,1.391937256E0,-7.490539551E-1
4.285765508E0,1.960952759E0,1.587951660E0,-7.437286377E-1
4.288298467E0,2.074935913E0,1.785018921E0,-7.298889160E-1
4.290861944E0,2.187850952E0,1.985290527E0,-7.181701660E-1
4.293394903E0,2.298645020E0,2.193023682E0,-7.256164551E-1
4.295927862E0,2.400909424E0,2.395416260E0,-7.458648682E-1
4.298460821E0,2.496780396E0,2.583969116E0,-7.703552246E-1
4.300993780E0,2.592651367E0,2.760803223E0,-7.895355225E-1
4.303557256E0,2.670425415E0,2.917404175E0,-8.023223877E-1
4.306090215E0,2.727951050E0,3.037780762E0,-8.087158203E-1
4.308623174E0,2.755645752E0,3.107025146E0,-8.076477051E-1
4.311156133E0,2.747116089E0,3.119796753E0,-8.129730225E-1
4.313719610E0,2.707702637E0,3.085708618E0,-8.055114746E-1
4.316252569E0,2.638458252E0,3.005813599E0,-7.873992920E-1
4.318785528E0,2.544723511E0,2.889709473E0,-7.607727051E-1
4.321318487E0,2.438186646E0,2.751220703E0,-7.213592529E-1
4.323881963E0,2.326339722E0,2.596755981E0,-6.798095703E-1
4.326414922E0,2.212356567E0,2.444427490E0,-6.329498291E-1
4.328947881E0,2.089843750E0,2.299545288E0,-5.807495117E-1
4.331480840E0,1.957763672E0,2.183441162E0,-5.285491943E-1
4.334013799E0,1.819274902E0,2.097152710E0,-4.806060791E-1
4.336577276E0,1.677597046E0,2.030029297E0,-4.422607422E-1
4.339110235E0,1.530593872E0,1.973571777E0,-4.103088379E-1
4.341643194E0,1.378250122E0,1.906463623E0,-3.783416748E-1
4.344176153E0,1.219528198E0,1.837219238E0,-3.453216553E-1
4.346739629E0,1.059738159E0,1.750930786E0,-3.123016357E-1
4.349272588E0,9.063415527E-1,1.656127930E0,-2.728881836E-1
4.351805547E0,7.561340332E-1,1.548538208E0,-2.366638184E-1
4.354338506E0,6.048736572E-1,1.434555054E0,-2.036437988E-1
4.356871465E0,4.642639160E-1,1.319503784E0,-1.674194336E-1
4.359434942E0,3.311004639E-1,1.214050293E0,-1.280059814E-1
4.361967901E0,2.117919922E-1,1.114974976E0,-9.817504883E-2
4.364500860E0,1.073913574E-1,1.037216187E0,-7.261657715E-2
4.367033819E0,1.898193359E-2,9.882049561E-1,-5.450439453E-2
4.369597295E0,-5.986022949E-2,9.754180908E-1,-3.106689453E-2
4.372130254E0,-1.227111816E-1,9.924621582E-1,-2.304077148E-3
4.374663213E0,-1.653137207E-1,1.026550293E0,2.645874023E-2
4.377196172E0,-1.940765381E-1,1.059585571E0,5.947875977E-2
4.379729131E0,-2.036590576E-1,1.078750610E0,8.184814453E-2
4.382262090E0,-1.951446533E-1,1.091537476E0,1.042175293E-1
4.384825567E0,-1.695709229E-1,1.100067139E0,1.212615967E-1
4.387358526E0,-1.312255859E-1,1.101119995E0,1.297912598E-1
4.389891485E0,-7.690429688E-2,1.083023071E0,1.308593750E-1
4.392454961E0,-1.191711426E-2,1.052124023E0,1.361846924E-1
4.395018438E0,5.839538574E-2,1.027618408E0,1.500244141E-1
4.397551397E0,1.265716553E-1,1.006317139E0,1.670684814E-1
4.400084356E0,2.043304443E-1,9.850158691E-1,1.787872314E-1
4.402617315E0,2.810363770E-1,9.732971191E-1,1.883697510E-1
4.405180791E0,3.609313965E-1,9.658355713E-1,1.915740967E-1
4.407713750E0,4.365539551E-1,9.594421387E-1,1.915740967E-1
4.410246709E0,5.090026855E-1,9.541168213E-1,1.894378662E-1
4.412779668E0,5.814361572E-1,9.328155518E-1,1.819915771E-1
4.415312627E0,6.496124268E-1,9.115142822E-1,1.692047119E-1
4.417876104E0,7.082061768E-1,8.955230713E-1,1.521606445E-1
4.420409063E0,7.582702637E-1,8.859405518E-1,1.319122314E-1
4.422942022E0,7.998199463E-1,8.827514648E-1,1.052856445E-1
4.425474981E0,8.339080811E-1,8.763580322E-1,8.078002930E-2
4.428038457E0,8.616027832E-1,8.678283691E-1,5.415344238E-2
4.430571416E0,8.807678223E-1,8.550567627E-1,2.432250977E-2
4.433104375E0,8.903656006E-1,8.252258301E-1,-5.508422852E-3
4.435637334E0,8.914337158E-1,7.772827148E-1,-3.213500977E-2
4.438200811E0,8.797149658E-1,7.186889648E-1,-6.515502930E-2
4.440733770E0,8.711853027E-1,6.515808105E-1,-1.013793945E-1
4.443266729E0,8.626708984E-1,5.919342041E-1,-1.343994141E-1
4.445799688E0,8.583984375E-1,5.450592041E-1,-1.674194336E-1
4.448332647E0,8.552093506E-1,5.088348389E-1,-1.983184814E-1
4.450896123E0,8.488159180E-1,4.992523193E-1,-2.355957031E-1
4.453429082E0,8.360290527E-1,5.120391846E-1,-2.718200684E-1
4.455962041E0,8.115386963E-1,5.450592041E-1,-3.059082031E-1
4.458495000E0,7.731781006E-1,5.919342041E-1,-3.442535400E-1
4.461058477E0,7.252502441E-1,6.547851562E-1,-3.858032227E-1
4.463591436E0,6.719818115E-1,7.261505127E-1,-4.326782227E-1
4.466124395E0,6.101989746E-1,7.996520996E-1,-4.774169922E-1
4.468657354E0,5.462799072E-1,8.806152344E-1,-5.221557617E-1
4.471220830E0,4.823608398E-1,9.498596191E-1,-5.637054443E-1
4.473753789E0,4.131317139E-1,1.024429321E0,-6.127014160E-1
4.476286748E0,3.417510986E-1,1.100067139E0,-6.606445312E-1
4.478819707E0,2.778320312E-1,1.171432495E0,-7.053833008E-1
4.481352666E0,2.224426270E-1,1.239608765E0,-7.522583008E-1
4.483916143E0,1.649169922E-1,1.299270630E0,-7.980651855E-1
4.486449102E0,1.201782227E-1,1.346130371E0,-8.406677246E-1
4.488982061E0,7.437133789E-2,1.377029419E0,-8.800811768E-1
4.491545537E0,4.135131836E-2,1.396209717E0,-9.163055420E-1
4.494078496E0,9.384155273E-3,1.403656006E0,-9.493255615E-1
4.496611455E0,-1.617431641E-2,1.407928467E0,-9.823455811E-1
4.499144414E0,-4.174804688E-2,1.402603149E0,-1.008987427E0
4.501677373E0,-6.623840332E-2,1.383422852E0,-1.036682129E0
4.504210332E0,-9.181213379E-2,1.356796265E0,-1.060119629E0
4.506773809E0,-1.099243164E-1,1.326965332E0,-1.078216553E0
4.509306768E0,-1.333618164E-1,1.292877197E0,-1.094207764E0
4.511839727E0,-1.631774902E-1,1.253463745E0,-1.106979370E0
4.514372686E0,-1.898193359E-1,1.207656860E0,-1.111251831E0
4.516936162E0,-2.207031250E-1,1.157577515E0,-1.115509033E0
4.519469121E0,-2.569274902E-1,1.093673706E0,-1.118698120E0
4.522002080E0,-2.910156250E-1,1.027618408E0,-1.117645264E0
4.524535039E0,-3.282928467E-1,9.519958496E-1,-1.111251831E0
4.527067998E0,-3.655853271E-1,8.635711670E-1,-1.103790283E0
4.529631475E0,-4.081878662E-1,7.719573975E-1,-1.096328735E0
4.532164434E0,-4.508056641E-1,6.696929932E-1,-1.084609985E0
4.534697393E0,-4.966125488E-1,5.514526367E-1,-1.068634033E0
4.537230352E0,-5.434875488E-1,4.374694824E-1,-1.051589966E0
4.539793828E0,-5.935516357E-1,3.234863281E-1,-1.037750244E0
4.542326787E0,-6.436157227E-1,2.116241455E-1,-1.014312744E0
4.544859746E0,-6.862335205E-1,9.977722168E-2,-9.919433594E-1
4.547392705E0,-7.309722900E-1,-4.623413086E-3,-9.674377441E-1
4.549925664E0,-7.757110596E-1,-1.068878174E-1,-9.471893311E-1
4.552489141E0,-8.129882812E-1,-1.995697021E-1,-9.322814941E-1
4.555022100E0,-8.417510986E-1,-2.858428955E-1,-9.109802246E-1
4.557555059E0,-8.683929443E-1,-3.625488281E-1,-8.875427246E-1
4.560088018E0,-8.907623291E-1,-4.285888672E-1,-8.683624268E-1
4.562651494E0,-9.067382812E-1,-4.893188477E-1,-8.491973877E-1
4.565184453E0,-9.099273682E-1,-5.319213867E-1,-8.353424072E-1
4.567717412E0,-9.141998291E-1,-5.500335693E-1,-8.193664551E-1
4.570250371E0,-9.109954834E-1,-5.521697998E-1,-8.055114746E-1
4.572813848E0,-9.024810791E-1,-5.319213867E-1,-7.937927246E-1
4.575346807E0,-8.886260986E-1,-4.818572998E-1,-7.810211182E-1
4.577879766E0,-8.705139160E-1,-4.190063477E-1,-7.650299072E-1
4.580412725E0,-8.406982422E-1,-3.391113281E-1,-7.479858398E-1
4.582945684E0,-8.055419922E-1,-2.528228760E-1,-7.309417725E-1
4.585509160E0,-7.608032227E-1,-1.601409912E-1,-7.149658203E-1
4.588042119E0,-7.160491943E-1,-7.279968262E-2,-6.947326660E-1
4.590575078E0,-6.564025879E-1,7.095336914E-3,-6.766204834E-1
4.593108037E0,-5.924835205E-1,8.380126953E-2,-6.606445312E-1
4.595671514E0,-5.285644531E-1,1.487731934E-1,-6.414642334E-1
4.598204473E0,-4.603881836E-1,1.977844238E-1,-6.254882812E-1
4.600737432E0,-3.911437988E-1,2.478485107E-1,-6.105651855E-1
4.603270391E0,-3.282928467E-1,2.989807129E-1,-5.988464355E-1
4.605803350E0,-2.654418945E-1,3.447875977E-1,-5.850067139E-1
4.608366826E0,-2.015380859E-1,3.969879150E-1,-5.647583008E-1
4.610899785E0,-1.461334229E-1,4.502563477E-1,-5.423889160E-1
4.613432744E0,-9.288024902E-2,4.981842041E-1,-5.200195312E-1
4.615965703E0,-4.493713379E-2,5.439910889E-1,-4.869995117E-1
4.618529180E0,-1.983642578E-4,5.834045410E-1,-4.571685791E-1
4.621062139E0,3.282165527E-2,6.121673584E-1,-4.188232422E-1
4.623595098E0,6.372070312E-2,6.324157715E-1,-3.730163574E-1
4.626128057E0,9.034729004E-2,6.462554932E-1,-3.282775879E-1
4.628661016E0,1.148529053E-1,6.430664062E-1,-2.824707031E-1
4.631224492E0,1.393585205E-1,6.270904541E-1,-2.324066162E-1
4.633757451E0,1.627807617E-1,6.047058105E-1,-1.865997314E-1
4.636290410E0,1.872863770E-1,5.791473389E-1,-1.354675293E-1
4.638823369E0,2.203063965E-1,5.503845215E-1,-9.178161621E-2
4.641386846E0,2.575988770E-1,5.248107910E-1,-4.917907715E-2
4.643919805E0,3.023376465E-1,5.045776367E-1,-1.295471191E-2
4.646452764E0,3.577270508E-1,4.843444824E-1,2.113342285E-2
4.648985723E0,4.184570312E-1,4.673004150E-1,4.562377930E-2
4.651518682E0,4.823608398E-1,4.449157715E-1,6.373596191E-2
4.654082158E0,5.548095703E-1,4.076385498E-1,8.184814453E-2
4.656615117E0,6.219177246E-1,3.596954346E-1,9.143066406E-2
4.659148076E0,6.954193115E-1,3.085632324E-1,1.042175293E-1
4.661681035E0,7.540130615E-1,2.670288086E-1,1.148681641E-1
4.664244512E0,8.104705811E-1,2.297363281E-1,1.212615967E-1
4.666777471E0,8.562774658E-1,2.041778564E-1,1.276550293E-1
4.669310430E0,8.861083984E-1,1.924591064E-1,1.287231445E-1
4.671843389E0,9.031524658E-1,1.956481934E-1,1.297912598E-1
4.674376348E0,9.020843506E-1,2.158966064E-1,1.223297119E-1
4.676939824E0,8.861083984E-1,2.478485107E-1,1.116790771E-1
4.679472783E0,8.594665527E-1,2.830047607E-1,1.063537598E-1
4.682036260E0,8.157958984E-1,3.096313477E-1,1.010284424E-1
4.684569219E0,7.710571289E-1,3.202819824E-1,1.084747314E-1
4.687132696E0,7.167205811E-1,3.117675781E-1,1.212615967E-1
4.689665655E0,6.634674072E-1,2.766113281E-1,1.404418945E-1
4.692198614E0,6.048736572E-1,2.244110107E-1,1.585540771E-1
4.694731573E0,5.409545898E-1,1.647644043E-1,1.787872314E-1
4.697295049E0,4.738464355E-1,1.040344238E-1,2.054138184E-1
4.699828008E0,3.875579834E-1,5.397033691E-2,2.373809814E-1
4.702360967E0,2.959442139E-1,8.163452148E-3,2.597503662E-1
4.704893926E0,1.979370117E-1,-1.101684570E-2,2.767944336E-1
4.707426885E0,9.992980957E-2,-2.487182617E-3,2.959747314E-1
4.709990362E0,1.937866211E-3,2.734375000E-2,3.140716553E-1
4.712523321E0,-1.045989990E-1,7.420349121E-2,3.353881836E-1
4.715056280E0,-2.249755859E-1,1.285400391E-1,3.620147705E-1
4.717589239E0,-3.496093750E-1,1.679534912E-1,3.961029053E-1
4.720152715E0,-4.838256836E-1,1.892547607E-1,4.440460205E-1
4.722685674E0,-6.180572510E-1,2.009735107E-1,5.026245117E-1
4.725218633E0,-7.437591553E-1,2.137603760E-1,5.569610596E-1
4.727751592E0,-8.492126465E-1,2.158966064E-1,6.070251465E-1
4.730284551E0,-9.216461182E-1,2.052459717E-1,6.560211182E-1
4.732848028E0,-9.557342529E-1,1.839294434E-1,6.986389160E-1
4.735380987E0,-9.386901855E-1,1.434478760E-1,7.252655029E-1
4.737913946E0,-8.609313965E-1,1.008453369E-1,7.263336182E-1
4.740446905E0,-7.320404053E-1,5.715942383E-2,6.943817139E-1
4.743010381E0,-5.669250488E-1,3.906250000E-2,6.368560791E-1
4.745543340E0,-3.922119141E-1,6.250000000E-2,5.494995117E-1
4.748076299E0,-2.366943359E-1,1.306762695E-1,4.493713379E-1
4.750609258E0,-1.088562012E-1,2.244110107E-1,3.492279053E-1
4.753142217E0,-1.298522949E-2,3.405303955E-1,2.618865967E-1
4.755705694E0,5.093383789E-2,4.545135498E-1,1.937103271E-1
4.758238653E0,7.437133789E-2,5.652923584E-1,1.489562988E-1
4.760771612E0,6.797790527E-2,6.739501953E-1,1.212615967E-1
4.763304571E0,3.070068359E-2,7.698211670E-1,1.095428467E-1
4.765868047E0,-3.109741211E-2,8.646392822E-1,1.106109619E-1
4.768401006E0,-1.099243164E-1,9.456024170E-1,1.255187988E-1
4.770933965E0,-1.994018555E-1,1.026550293E0,1.351165771E-1
4.773466924E0,-3.005981445E-1,1.106445312E0,1.457672119E-1
4.775999883E0,-4.018096924E-1,1.188476562E0,1.542816162E-1
4.778563360E0,-5.115203857E-1,1.267303467E0,1.628112793E-1
4.781096319E0,-6.212463379E-1,1.338684082E0,1.681365967E-1
4.783629278E0,-7.299041748E-1,1.385543823E0,1.617431641E-1
4.786162237E0,-8.076629639E-1,1.362121582E0,1.510925293E-1
4.788725713E0,-8.609313965E-1,1.279022217E0,1.212615967E-1
4.791258672E0,-9.024810791E-1,1.162918091E0,7.226562500E-2
4.793791631E0,-9.355010986E-1,1.018035889E0,1.580810547E-2
4.796324590E0,-9.631958008E-1,8.667602539E-1,-3.639221191E-2
4.798888067E0,-9.759826660E-1,7.208251953E-1,-8.006286621E-2
4.801421026E0,-9.653320312E-1,5.706176758E-1,-1.045684814E-1
4.803953985E0,-9.269714355E-1,4.108276367E-1,-1.067047119E-1
4.806486944E0,-8.715820312E-1,2.617034912E-1,-1.003112793E-1
4.809019903E0,-8.012847900E-1,1.274719238E-1,-8.752441406E-2
4.811583379E0,-7.192535400E-1,4.974365234E-3,-7.687377930E-2
4.814116338E0,-6.308288574E-1,-8.877563477E-2,-7.580566406E-2
4.816649297E0,-5.360260010E-1,-1.708068848E-1,-7.473754883E-2
4.819182256E0,-4.156494141E-1,-2.762603760E-1,-6.941223145E-2
4.821745733E0,-2.824859619E-1,-4.221954346E-1,-6.089782715E-2
4.824278692E0,-1.525268555E-1,-5.830535889E-1,-5.343627930E-2
4.826811651E0,-3.321838379E-2,-7.290039062E-1,-4.597473145E-2
4.829344610E0,6.797790527E-2,-8.632202148E-1,-2.999877930E-2
4.831877569E0,1.510620117E-1,-9.793395996E-1,-9.765625000E-3
4.834441045E0,2.139129639E-1,-1.073074341E0,1.367187500E-2
4.836974004E0,2.469482422E-1,-1.136993408E0,3.178405762E-2
4.839506963E0,2.618560791E-1,-1.179611206E0,4.669189453E-2
4.842039922E0,2.554626465E-1,-1.238189697E0,5.628967285E-2
4.844603399E0,2.277679443E-1,-1.321289062E0,5.308532715E-2
4.847136358E0,1.840972900E-1,-1.410766602E0,3.817749023E-2
4.849669317E0,1.233673096E-1,-1.482147217E0,2.964782715E-2
4.852202276E0,4.879760742E-2,-1.546051025E0,1.687622070E-2
4.854735235E0,-2.896118164E-2,-1.622756958E0,5.157470703E-3
4.857298711E0,-1.024627686E-1,-1.705841064E0,-6.561279297E-3
4.859831670E0,-1.642456055E-1,-1.771896362E0,-2.680969238E-2
4.862364629E0,-2.217712402E-1,-1.825149536E0,-5.876159668E-2
4.864897588E0,-2.867584229E-1,-1.835815430E0,-8.326721191E-2
4.867461065E0,-3.549346924E-1,-1.812377930E0,-1.120300293E-1
4.869994024E0,-4.231109619E-1,-1.774017334E0,-1.557006836E-1
4.872526983E0,-4.944763184E-1,-1.721832275E0,-2.100372314E-1
4.875059942E0,-5.541381836E-1,-1.655776978E0,-2.622375488E-1
4.877592901E0,-5.956878662E-1,-1.587600708E0,-3.197479248E-1
4.880156377E0,-6.212463379E-1,-1.520492554E0,-3.815460205E-1
4.882689336E0,-6.308288574E-1,-1.439529419E0,-4.443969727E-1
4.885222295E0,-6.265716553E-1,-1.350051880E0,-4.997863770E-1
4.887755254E0,-6.063385010E-1,-1.247787476E0,-5.487823486E-1
4.890318731E0,-5.786437988E-1,-1.150848389E0,-5.860748291E-1
4.892851690E0,-5.509338379E-1,-1.045379639E0,-6.073760986E-1
4.895384649E0,-5.179138184E-1,-9.441833496E-1,-6.105651855E-1
4.897917608E0,-4.880828857E-1,-8.483123779E-1,-5.999145508E-1
4.900450567E0,-4.657135010E-1,-7.513732910E-1,-5.924682617E-1
4.903014043E0,-4.561309814E-1,-6.469726562E-1,-5.871429443E-1
4.905547002E0,-4.635925293E-1,-5.393829346E-1,-5.796813965E-1
4.908079961E0,-4.763641357E-1,-4.435119629E-1,-5.743560791E-1
4.910612920E0,-4.976806641E-1,-3.731994629E-1,-5.658264160E-1
4.913176397E0,-5.232391357E-1,-3.199310303E-1,-5.551757812E-1
4.915709356E0,-5.530700684E-1,-2.869110107E-1,-5.338745117E-1
4.918242315E0,-5.860900879E-1,-2.815856934E-1,-5.157623291E-1
4.920775274E0,-6.212463379E-1,-2.879791260E-1,-4.987182617E-1
4.923338750E0,-6.585388184E-1,-3.114166260E-1,-4.859313965E-1
4.925871709E0,-7.032775879E-1,-3.550872803E-1,-4.688873291E-1
4.928404668E0,-7.288360596E-1,-4.317932129E-1,-4.603729248E-1
4.930937627E0,-7.384338379E-1,-5.287322998E-1,-4.593048096E-1
4.933470586E0,-7.533416748E-1,-6.075592041E-1,-4.624938965E-1
4.936034063E0,-7.650604248E-1,-6.917114258E-1,-4.752807617E-1
4.938567022E0,-7.575988770E-1,-8.003692627E-1,-4.827423096E-1
4.941099981E0,-7.256469727E-1,-9.526977539E-1,-4.827423096E-1
4.943632940E0,-6.681213379E-1,-1.135925293E0,-4.688873291E-1
4.946196416E0,-5.903472900E-1,-1.353240967E0,-4.507751465E-1
4.948729375E0,-5.019378662E-1,-1.605712891E0,-4.380035400E-1
4.951262334E0,-4.081878662E-1,-1.853912354E0,-4.294738770E-1
4.953795293E0,-3.272399902E-1,-2.080825806E0,-4.294738770E-1
4.956328252E0,-2.643890381E-1,-2.268310547E0,-4.294738770E-1
4.958891729E0,-2.175140381E-1,-2.417449951E0,-4.358673096E-1
4.961424688E0,-1.834259033E-1,-2.552734375E0,-4.486541748E-1
4.963957647E0,-1.621246338E-1,-2.679504395E0,-4.539794922E-1
4.966490606E0,-1.482696533E-1,-2.791351318E0,-4.550476074E-1
4.969054082E0,-1.237640381E-1,-2.895751953E0,-4.529113770E-1
4.971617559E0,-8.967590332E-2,-2.999084473E0,-4.529113770E-1
4.974150518E0,-5.346679688E-2,-3.090682983E0,-4.486541748E-1
4.976683477E0,-3.642272949E-2,-3.151412964E0,-4.347991943E-1
4.979216436E0,-4.067993164E-2,-3.145019531E0,-4.156341553E-1
4.981779912E0,-5.772399902E-2,-3.057662964E0,-4.081726074E-1
4.984312871E0,-8.967590332E-2,-2.934097290E0,-4.124298096E-1
4.986845830E0,-1.269683838E-1,-2.789215088E0,-4.134979248E-1
4.989378789E0,-1.663818359E-1,-2.657119751E0,-4.241485596E-1
4.991942266E0,-1.972656250E-1,-2.563385010E0,-4.454498291E-1
4.994475225E0,-2.239074707E-1,-2.519714355E0,-4.699554443E-1
4.997008184E0,-2.558593750E-1,-2.505859375E0,-4.923248291E-1
4.999541143E0,-2.856903076E-1,-2.507995605E0,-5.296173096E-1
5.002074102E0,-3.144531250E-1,-2.521835327E0,-5.637054443E-1
5.004637578E0,-3.357543945E-1,-2.530364990E0,-5.967254639E-1
5.007170537E0,-3.527984619E-1,-2.525039673E0,-6.318817139E-1
5.009703496E0,-3.602600098E-1,-2.511184692E0,-6.585083008E-1
5.012236455E0,-3.687744141E-1,-2.500534058E0,-6.840820312E-1
5.014799932E0,-3.730468750E-1,-2.501602173E0,-7.107086182E-1
5.017332891E0,-3.783721924E-1,-2.481353760E0,-7.309417725E-1
5.019865850E0,-3.847656250E-1,-2.457916260E0,-7.469329834E-1
5.022398809E0,-3.922119141E-1,-2.445144653E0,-7.479858398E-1
5.024931768E0,-3.986053467E-1,-2.419570923E0,-7.405395508E-1
5.027495244E0,-4.028625488E-1,-2.386550903E0,-7.341461182E-1
5.030028203E0,-4.081878662E-1,-2.351394653E0,-7.266845703E-1
5.032561162E0,-4.231109619E-1,-2.288543701E0,-7.117767334E-1
5.035094121E0,-4.412231445E-1,-2.187347412E0,-6.894073486E-1
5.037657598E0,-4.635925293E-1,-2.064834595E0,-6.606445312E-1
5.040190557E0,-4.859619141E-1,-1.946594238E0,-6.340026855E-1
5.042723516E0,-5.030059814E-1,-1.835815430E0,-6.009826660E-1
5.045256475E0,-5.168457031E-1,-1.739929199E0,-5.711517334E-1
5.047789434E0,-5.285644531E-1,-1.665359497E0,-5.370635986E-1
5.050352910E0,-5.349578857E-1,-1.597183228E0,-5.083007812E-1
5.052885869E0,-5.445556641E-1,-1.539657593E0,-4.806060791E-1
5.055418828E0,-5.498809814E-1,-1.490661621E0,-4.486541748E-1
5.057951787E0,-5.552062988E-1,-1.444854736E0,-4.241485596E-1
5.060515264E0,-5.520019531E-1,-1.400115967E0,-3.932647705E-1
5.063048223E0,-5.477447510E-1,-1.354309082E0,-3.645019531E-1
5.065581182E0,-5.424194336E-1,-1.305313110E0,-3.336029053E-1
5.068114141E0,-5.370941162E-1,-1.257369995E0,-3.133697510E-1
5.070677617E0,-5.360260010E-1,-1.208374023E0,-2.920532227E-1
5.073210576E0,-5.402832031E-1,-1.164688110E0,-2.707519531E-1
5.075743535E0,-5.456085205E-1,-1.117813110E0,-2.579650879E-1
5.078276494E0,-5.530700684E-1,-1.080535889E0,-2.462463379E-1
5.080809453E0,-5.637207031E-1,-1.042190552E0,-2.366638184E-1
5.083372930E0,-5.690460205E-1,-1.010223389E0,-2.366638184E-1
5.085905889E0,-5.807647705E-1,-9.857330322E-1,-2.409210205E-1
5.088438848E0,-5.924835205E-1,-9.686889648E-1,-2.441253662E-1
5.090971807E0,-6.105957031E-1,-9.548339844E-1,-2.547760010E-1
5.093535283E0,-6.297760010E-1,-9.431152344E-1,-2.622375488E-1
5.096068242E0,-6.500091553E-1,-9.409790039E-1,-2.728881836E-1
5.098601201E0,-6.734466553E-1,-9.388580322E-1,-2.846069336E-1
5.101134160E0,-7.000732422E-1,-9.409790039E-1,-2.984466553E-1
5.103667119E0,-7.267150879E-1,-9.452514648E-1,-3.144226074E-1
5.106200078E0,-7.554779053E-1,-9.580230713E-1,-3.304138184E-1
5.108763555E0,-7.799682617E-1,-9.782714844E-1,-3.485107422E-1
5.111296514E0,-8.034057617E-1,-1.008102417E0,-3.708801270E-1
5.113829473E0,-8.321685791E-1,-1.042190552E0,-3.911285400E-1
5.116392949E0,-8.587951660E-1,-1.075210571E0,-4.103088379E-1
5.118925908E0,-8.822326660E-1,-1.106109619E0,-4.273529053E-1
5.121458867E0,-9.056701660E-1,-1.141250610E0,-4.401245117E-1
5.124022344E0,-9.291076660E-1,-1.185989380E0,-4.518432617E-1
5.126555303E0,-9.482879639E-1,-1.231796265E0,-4.731597900E-1
5.129088262E0,-9.738464355E-1,-1.275482178E0,-4.912567139E-1
5.131621221E0,-9.930267334E-1,-1.317031860E0,-5.072479248E-1
5.134154180E0,-1.016464233E0,-1.348983765E0,-5.232238770E-1
5.136687139E0,-1.042022705E0,-1.380935669E0,-5.221557617E-1
5.139250616E0,-1.063339233E0,-1.409698486E0,-5.178985596E-1
5.141783574E0,-1.082504272E0,-1.437393188E0,-5.115051270E-1
5.144316533E0,-1.100616455E0,-1.467224121E0,-5.051116943E-1
5.146849492E0,-1.116592407E0,-1.494918823E0,-4.976501465E-1
5.149382451E0,-1.129379272E0,-1.523681641E0,-4.955291748E-1
5.151945928E0,-1.132568359E0,-1.562042236E0,-4.923248291E-1
5.154478887E0,-1.134704590E0,-1.600387573E0,-4.848632812E-1
5.157011846E0,-1.136840820E0,-1.627014160E0,-4.795379639E-1
5.159544805E0,-1.137893677E0,-1.646194458E0,-4.678192139E-1
5.162108282E0,-1.137893677E0,-1.661102295E0,-4.603729248E-1
5.164641241E0,-1.137893677E0,-1.670684814E0,-4.475860596E-1
5.167174199E0,-1.138961792E0,-1.672821045E0,-4.241485596E-1
5.169707158E0,-1.137893677E0,-1.671752930E0,-4.028472900E-1
5.172240117E0,-1.143234253E0,-1.657913208E0,-3.772735596E-1
5.174803594E0,-1.146423340E0,-1.631271362E0,-3.495788574E-1
