Time (s),Acceleration x (m/s^2),Acceleration y (m/s^2),Acceleration z (m/s^2)
15.02,0.27,8.96,2.67
15.03,0.25,8.92,2.61
15.03,0.27,8.94,2.64
15.03,0.23,8.97,2.65
15.03,0.18,8.91,2.58
15.04,0.19,8.90,2.55
15.04,0.12,8.91,2.52
15.04,0.03,8.90,2.43
15.04,-0.02,8.91,2.38
15.05,-0.08,8.90,2.37
15.05,-0.15,8.90,2.34
15.05,-0.19,8.90,2.22
15.05,-0.27,8.90,2.25
15.06,-0.30,8.87,2.16
15.06,-0.35,8.86,2.17
15.06,-0.43,8.91,2.15
15.06,-0.44,8.94,2.16
15.07,-0.40,8.96,2.19
15.07,-0.45,9.04,2.22
15.07,-0.49,9.09,2.27
15.07,-0.54,9.16,2.30
15.08,-0.54,9.22,2.35
15.08,-0.51,9.27,2.40
15.08,-0.51,9.37,2.49
15.08,-0.49,9.42,2.60
15.09,-0.43,9.50,2.61
15.09,-0.41,9.54,2.70
15.09,-0.38,9.59,2.80
15.09,-0.36,9.64,2.76
15.10,-0.32,9.65,2.82
15.10,-0.29,9.69,2.86
15.10,-0.28,9.68,2.90
15.10,-0.25,9.66,2.92
15.11,-0.16,9.65,2.99
15.11,-0.16,9.69,3.07
15.11,-0.14,9.62,3.14
15.11,-0.05,9.58,3.10
15.12,-0.05,9.45,3.18
15.12,-0.05,9.38,3.17
15.12,-0.01,9.34,3.23
15.12,0.04,9.26,3.19
15.13,0.08,9.17,3.18
15.13,0.09,9.05,3.14
15.13,0.16,9.04,3.10
15.13,0.15,8.94,3.01
15.14,0.15,8.87,2.91
15.14,0.18,8.79,2.78
15.14,0.12,8.80,2.68
15.14,0.12,8.74,2.61
15.15,0.11,8.71,2.53
15.15,0.03,8.64,2.51
15.15,-0.05,8.63,2.47
15.15,-0.08,8.62,2.44
15.16,-0.09,8.70,2.47
15.16,-0.14,8.73,2.50
15.16,-0.16,8.75,2.54
15.16,-0.22,8.73,2.55
15.17,-0.32,8.73,2.60
15.17,-0.32,8.77,2.64
15.17,-0.39,8.79,2.68
15.17,-0.42,8.80,2.76
15.18,-0.43,8.80,2.84
15.18,-0.50,8.80,2.86
15.18,-0.48,8.85,2.99
15.18,-0.52,8.84,3.03
15.19,-0.51,8.86,3.09
15.19,-0.54,8.86,3.15
15.19,-0.56,8.84,3.19
15.19,-0.56,8.84,3.28
15.20,-0.58,8.86,3.34
15.20,-0.58,8.85,3.31
15.20,-0.53,8.85,3.35
15.20,-0.57,8.95,3.33
15.21,-0.57,8.96,3.38
15.21,-0.59,8.94,3.39
15.21,-0.59,8.95,3.45
15.21,-0.52,8.95,3.38
15.22,-0.54,9.09,3.38
15.22,-0.54,9.16,3.45
15.22,-0.54,9.16,3.43
15.22,-0.52,9.19,3.45
15.23,-0.50,9.21,3.41
15.23,-0.44,9.29,3.36
15.23,-0.33,9.37,3.36
15.23,-0.27,9.39,3.37
15.24,-0.22,9.43,3.42
15.24,-0.18,9.51,3.36
15.24,-0.17,9.53,3.39
15.24,-0.15,9.62,3.32
15.25,-0.17,9.60,3.17
15.25,-0.17,9.61,3.10
15.25,-0.15,9.67,2.94
15.25,-0.09,9.62,2.89
15.26,-0.09,9.61,2.80
15.26,-0.07,9.60,2.77
15.26,-0.03,9.56,2.81
15.26,-0.05,9.52,2.78
15.27,-0.01,9.51,2.72
15.27,-0.03,9.47,2.72
15.27,-0.07,9.44,2.65
15.27,-0.10,9.38,2.63
15.28,-0.09,9.34,2.64
15.28,-0.07,9.28,2.71
15.28,-0.12,9.18,2.76
15.28,-0.14,9.09,2.87
15.29,-0.10,9.05,2.92
15.29,-0.14,9.03,3.01
15.29,-0.16,8.97,3.02
15.29,-0.13,8.93,3.06
15.30,-0.15,8.90,3.15
15.30,-0.16,8.84,3.20
15.30,-0.14,8.79,3.23
15.30,-0.12,8.79,3.29
15.31,-0.16,8.73,3.28
15.31,-0.11,8.70,3.35
15.31,-0.09,8.71,3.39
15.31,-0.01,8.67,3.38
15.32,-0.03,8.67,3.33
15.32,-0.06,8.69,3.32
15.32,0.01,8.68,3.30
15.32,0.02,8.66,3.25
15.33,0.04,8.74,3.17
15.33,0.07,8.77,3.15
15.33,0.12,8.81,3.13
15.33,0.15,8.85,3.05
15.34,0.18,8.88,3.05
15.34,0.20,8.92,3.05
15.34,0.21,8.96,3.00
15.34,0.23,8.97,2.93
15.35,0.25,9.01,2.91
15.35,0.22,9.01,2.86
15.35,0.27,9.02,2.84
15.35,0.33,9.08,2.85
15.36,0.33,9.03,2.81
15.36,0.36,9.02,2.80
15.36,0.38,9.06,2.81
15.36,0.44,9.08,2.78
15.37,0.44,9.11,2.82
15.37,0.44,9.11,2.79
15.37,0.50,9.06,2.80
15.37,0.52,9.06,2.82
15.38,0.49,9.02,2.82
15.38,0.51,9.02,2.86
15.38,0.51,8.98,2.86
15.38,0.48,8.99,2.92
15.39,0.49,8.97,2.97
15.39,0.51,8.91,3.01
15.39,0.51,8.91,3.08
15.39,0.54,8.92,3.18
15.40,0.51,8.89,3.18
15.40,0.54,8.92,3.24
15.40,0.52,9.00,3.27
15.40,0.54,9.02,3.30
15.41,0.58,9.03,3.31
15.41,0.57,9.06,3.28
15.41,0.61,9.03,3.24
15.41,0.65,9.08,3.24
15.42,0.65,9.06,3.30
15.42,0.69,9.06,3.26
15.42,0.68,9.09,3.21
15.42,0.75,9.09,3.15
15.43,0.80,9.09,3.13
15.43,0.79,9.10,3.11
15.43,0.83,9.10,3.09
15.43,0.81,9.08,3.01
15.44,0.79,9.09,2.94
15.44,0.80,9.10,2.99
15.44,0.83,9.06,2.95
15.44,0.88,9.04,2.98
15.45,0.91,9.02,3.03
15.45,0.89,8.98,3.02
15.45,0.88,9.00,3.02
15.45,0.94,8.97,3.04
15.46,0.94,8.99,3.06
15.46,0.99,9.00,3.08
15.46,0.94,9.03,3.03
15.46,0.88,9.05,2.96
15.47,0.90,9.06,2.94
15.47,0.89,9.00,2.90
15.47,0.92,9.02,2.83
15.47,0.88,9.07,2.78
15.48,0.81,9.10,2.70
15.48,0.85,9.10,2.70
15.48,0.83,9.17,2.67
15.48,0.77,9.17,2.64
15.49,0.76,9.18,2.62
15.49,0.73,9.25,2.58
15.49,0.70,9.20,2.59
15.49,0.64,9.23,2.63
15.50,0.57,9.22,2.62
15.50,0.60,9.22,2.65
15.50,0.56,9.23,2.69
15.50,0.53,9.22,2.72
15.51,0.51,9.22,2.76
15.51,0.47,9.25,2.81
15.51,0.48,9.24,2.86
15.51,0.40,9.21,2.89
15.52,0.35,9.24,2.92
15.52,0.32,9.29,2.90
15.52,0.21,9.32,2.88
15.52,0.08,9.30,2.94
15.53,-0.02,9.29,3.00
15.53,-0.06,9.27,2.96
15.53,-0.15,9.31,2.95
15.53,-0.24,9.31,2.91
15.54,-0.32,9.28,2.84
15.54,-0.39,9.24,2.84
15.54,-0.40,9.23,2.82
15.54,-0.50,9.21,2.77
15.55,-0.56,9.26,2.67
15.55,-0.59,9.18,2.65
15.55,-0.64,9.15,2.64
15.55,-0.65,9.11,2.64
15.56,-0.66,9.07,2.64
15.56,-0.70,9.07,2.61
15.56,-0.69,8.99,2.66
15.56,-0.59,8.96,2.70
15.57,-0.61,8.96,2.69
15.57,-0.59,8.94,2.69
15.57,-0.63,8.92,2.73
15.57,-0.56,8.93,2.69
15.58,-0.56,8.89,2.71
15.58,-0.54,8.87,2.64
15.58,-0.46,8.82,2.64
15.58,-0.44,8.81,2.70
15.59,-0.43,8.79,2.75
15.59,-0.41,8.78,2.69
15.59,-0.36,8.79,2.68
15.59,-0.29,8.77,2.72
15.60,-0.26,8.78,2.70
15.60,-0.21,8.83,2.61
15.60,-0.17,8.85,2.63
15.60,-0.10,8.88,2.56
15.61,-0.07,8.95,2.51
15.61,0.03,8.98,2.44
15.61,0.06,9.02,2.41
15.61,0.16,9.08,2.32
15.62,0.22,9.07,2.15
15.62,0.22,9.06,2.15
15.62,0.30,9.08,2.10
15.62,0.36,9.07,1.97
15.63,0.38,9.08,1.93
15.63,0.42,9.08,1.86
15.63,0.39,9.08,1.80
15.63,0.39,9.07,1.74
15.64,0.41,9.06,1.71
15.64,0.34,9.09,1.71
15.64,0.31,9.12,1.67
15.64,0.34,9.17,1.67
15.65,0.36,9.19,1.69
15.65,0.37,9.18,1.72
15.65,0.39,9.15,1.75
15.65,0.43,9.12,1.80
15.66,0.42,9.13,1.91
15.66,0.44,9.13,2.00
15.66,0.42,9.13,2.05
15.66,0.37,9.09,2.05
15.67,0.35,9.10,2.14
15.67,0.27,9.17,2.24
15.67,0.25,9.15,2.26
15.67,0.16,9.19,2.29
15.68,0.12,9.21,2.37
15.68,0.05,9.22,2.38
15.68,-0.01,9.22,2.41
15.68,-0.10,9.24,2.46
15.69,-0.20,9.23,2.52
15.69,-0.26,9.26,2.56
15.69,-0.32,9.26,2.56
15.69,-0.39,9.27,2.56
15.70,-0.44,9.28,2.61
15.70,-0.52,9.35,2.63
15.70,-0.56,9.34,2.69
15.70,-0.63,9.41,2.58
15.71,-0.67,9.43,2.52
15.71,-0.70,9.53,2.53
15.71,-0.72,9.53,2.52
15.71,-0.73,9.59,2.43
15.72,-0.73,9.57,2.39
15.72,-0.77,9.56,2.36
15.72,-0.82,9.53,2.33
15.72,-0.83,9.50,2.34
15.73,-0.85,9.48,2.32
15.73,-0.84,9.35,2.25
15.73,-0.85,9.30,2.25
15.73,-0.88,9.26,2.31
15.74,-0.82,9.20,2.27
15.74,-0.82,9.20,2.27
15.74,-0.72,9.16,2.25
15.74,-0.66,9.18,2.17
15.75,-0.62,9.17,2.11
15.75,-0.54,9.20,1.99
15.75,-0.46,9.21,1.92
15.75,-0.40,9.23,1.85
15.76,-0.35,9.24,1.73
15.76,-0.23,9.20,1.73
15.76,-0.21,9.24,1.67
15.76,-0.16,9.19,1.66
15.77,-0.10,9.20,1.58
15.77,-0.04,9.14,1.55
15.77,-0.03,9.09,1.55
15.77,0.01,9.10,1.59
15.78,0.07,9.10,1.63
15.78,0.09,9.05,1.59
15.78,0.11,9.07,1.64
15.78,0.14,9.02,1.70
15.79,0.18,8.96,1.69
15.79,0.20,8.97,1.74
15.79,0.12,8.93,1.83
15.79,0.16,8.88,1.88
15.80,0.19,8.91,1.92
15.80,0.15,8.91,1.94
15.80,0.06,8.85,1.96
15.80,0.02,8.83,1.99
15.81,-0.01,8.88,2.03
15.81,-0.02,8.92,2.04
15.81,-0.05,8.97,2.07
15.81,-0.15,8.99,2.10
15.82,-0.16,9.07,2.07
15.82,-0.19,9.09,2.13
15.82,-0.32,9.10,2.18
15.82,-0.36,9.15,2.24
15.83,-0.44,9.24,2.23
15.83,-0.53,9.27,2.25
15.83,-0.59,9.28,2.37
15.83,-0.59,9.25,2.38
15.84,-0.63,9.33,2.43
15.84,-0.66,9.31,2.48
15.84,-0.64,9.25,2.52
15.84,-0.58,9.29,2.56
15.85,-0.55,9.29,2.67
15.85,-0.44,9.31,2.67
15.85,-0.36,9.34,2.71
15.85,-0.28,9.35,2.69
15.86,-0.20,9.39,2.75
15.86,-0.11,9.42,2.69
15.86,-0.01,9.45,2.69
15.86,0.10,9.47,2.67
15.87,0.13,9.47,2.58
15.87,0.28,9.49,2.40
15.87,0.36,9.44,2.26
15.87,0.47,9.40,2.19
15.88,0.60,9.41,2.07
15.88,0.66,9.43,1.89
15.88,0.80,9.44,1.76
15.88,0.86,9.41,1.70
15.89,0.93,9.39,1.59
15.89,0.98,9.38,1.52
15.89,1.04,9.37,1.36
15.89,1.10,9.33,1.28
15.90,1.15,9.32,1.20
15.90,1.19,9.36,1.11
15.90,1.28,9.28,1.07
15.90,1.35,9.33,1.08
15.91,1.35,9.35,1.11
15.91,1.39,9.30,1.14
15.91,1.41,9.26,1.10
15.91,1.40,9.25,1.12
15.92,1.40,9.27,1.15
15.92,1.34,9.29,1.25
15.92,1.32,9.23,1.32
15.92,1.25,9.25,1.41
15.93,1.22,9.17,1.52
15.93,1.11,9.18,1.66
15.93,1.03,9.19,1.77
15.93,1.00,9.13,1.85
15.94,1.02,9.11,1.94
15.94,0.98,9.17,2.01
15.94,0.95,9.16,2.10
15.94,0.95,9.11,2.14
15.95,0.89,9.16,2.17
15.95,0.81,9.23,2.21
15.95,0.79,9.22,2.20
15.95,0.71,9.23,2.17
15.96,0.66,9.28,2.21
15.96,0.61,9.37,2.28
15.96,0.54,9.34,2.21
15.96,0.50,9.35,2.22
15.97,0.48,9.41,2.20
15.97,0.45,9.37,2.16
15.97,0.39,9.39,2.16
15.97,0.39,9.46,2.12
15.98,0.29,9.39,2.11
15.98,0.28,9.38,2.01
15.98,0.22,9.39,2.04
15.98,0.18,9.30,1.98
15.99,0.16,9.22,1.96
15.99,0.09,9.19,1.98
15.99,0.05,9.15,1.96
15.99,-0.01,9.09,2.01
16.00,-0.08,9.02,1.97
16.00,-0.11,8.94,2.01
16.00,-0.08,8.87,2.09
16.00,-0.13,8.84,2.13
16.01,-0.12,8.73,2.16
16.01,-0.09,8.61,2.19
16.01,-0.11,8.52,2.24
16.01,-0.13,8.47,2.27
16.02,-0.09,8.39,2.32
16.02,-0.05,8.34,2.26
16.02,-0.06,8.24,2.19
16.02,-0.05,8.14,2.23
16.03,-0.04,8.04,2.13
16.03,-0.07,7.98,2.17
16.03,-0.03,7.97,2.17
16.03,-0.09,8.00,2.18
16.04,-0.09,8.02,2.28
16.04,-0.04,7.98,2.32
16.04,0.04,8.00,2.35
16.04,0.01,8.02,2.42
16.05,0.02,8.07,2.40
16.05,0.06,8.16,2.42
16.05,0.09,8.18,2.49
16.05,0.18,8.22,2.49
16.06,0.28,8.26,2.56
16.06,0.26,8.37,2.58
16.06,0.28,8.52,2.64
16.06,0.35,8.63,2.67
16.07,0.42,8.73,2.68
16.07,0.47,8.82,2.62
16.07,0.54,8.91,2.62
16.07,0.60,9.02,2.61
16.08,0.62,9.12,2.61
16.08,0.67,9.21,2.53
16.08,0.72,9.30,2.50
16.08,0.82,9.36,2.48
16.09,0.88,9.47,2.41
16.09,0.93,9.53,2.39
16.09,1.02,9.66,2.41
16.09,1.14,9.69,2.43
16.10,1.23,9.75,2.43
16.10,1.35,9.77,2.41
16.10,1.34,9.84,2.42
16.10,1.42,9.90,2.41
16.11,1.43,9.97,2.43
16.11,1.42,10.03,2.44
16.11,1.44,10.09,2.41
16.11,1.48,10.14,2.34
16.12,1.45,10.22,2.32
16.12,1.50,10.28,2.31
16.12,1.54,10.39,2.21
16.12,1.56,10.45,2.26
16.13,1.59,10.55,2.26
16.13,1.64,10.62,2.28
16.13,1.65,10.74,2.28
16.13,1.64,10.74,2.33
16.14,1.67,10.77,2.32
16.14,1.65,10.75,2.31
16.14,1.57,10.72,2.34
16.14,1.53,10.67,2.35
16.15,1.52,10.62,2.30
16.15,1.45,10.62,2.32
16.15,1.42,10.55,2.39
16.15,1.28,10.49,2.47
16.16,1.26,10.37,2.58
16.16,1.18,10.28,2.64
16.16,1.11,10.20,2.77
16.16,1.03,10.13,2.88
16.17,0.91,9.98,2.93
16.17,0.83,9.89,3.02
16.17,0.68,9.74,3.00
16.17,0.53,9.56,2.82
16.18,0.45,9.44,2.67
16.18,0.45,9.20,2.53
16.18,0.53,8.94,2.43
16.18,0.57,8.73,2.47
16.19,0.62,8.49,2.52
16.19,0.63,8.29,2.50
16.19,0.57,8.16,2.54
16.19,0.48,8.04,2.50
16.20,0.46,7.89,2.53
16.20,0.44,7.77,2.54
16.20,0.45,7.59,2.56
16.20,0.48,7.44,2.57
16.21,0.58,7.33,2.53
16.21,0.59,7.22,2.59
16.21,0.59,7.11,2.60
16.21,0.60,7.10,2.55
16.22,0.52,7.00,2.61
16.22,0.49,6.93,2.71
16.22,0.50,6.88,2.79
16.22,0.49,6.88,2.84
16.23,0.48,6.92,2.95
16.23,0.49,6.95,2.99
16.23,0.52,6.98,3.05
16.23,0.59,7.04,2.95
16.24,0.62,7.08,2.94
16.24,0.73,7.19,2.88
16.24,0.88,7.27,2.73
16.24,1.00,7.34,2.60
16.25,1.10,7.51,2.46
16.25,1.26,7.64,2.34
16.25,1.40,7.77,2.18
16.25,1.51,7.92,2.13
16.26,1.64,8.13,2.04
16.26,1.83,8.25,1.97
16.26,2.01,8.36,1.87
16.26,2.18,8.51,1.82
16.27,2.34,8.64,1.81
16.27,2.47,8.77,1.80
16.27,2.64,8.88,1.79
16.27,2.76,9.01,1.70
16.28,2.85,9.18,1.75
16.28,2.91,9.39,1.77
16.28,2.88,9.63,1.82
16.28,2.84,9.93,1.83
16.29,2.85,10.23,1.77
16.29,2.73,10.58,1.71
16.29,2.60,10.92,1.56
16.29,2.48,11.21,1.46
16.30,2.35,11.50,1.34
16.30,2.20,11.65,1.15
16.30,1.95,11.78,1.05
16.30,1.73,11.86,1.10
16.31,1.39,11.83,1.03
16.31,1.10,11.70,1.06
16.31,0.88,11.54,1.15
16.31,0.69,11.37,1.23
16.32,0.57,11.18,1.27
16.32,0.51,10.96,1.42
16.32,0.47,10.75,1.56
16.32,0.39,10.50,1.64
16.33,0.28,10.26,1.76
16.33,0.27,10.04,1.82
16.33,0.18,9.87,1.91
16.33,0.15,9.67,1.99
16.34,0.13,9.51,2.04
16.34,0.04,9.35,2.09
16.34,0.00,9.29,2.22
16.34,-0.10,9.17,2.25
16.35,-0.14,9.17,2.34
16.35,-0.24,9.12,2.41
16.35,-0.29,9.04,2.46
16.35,-0.24,9.03,2.50
16.36,-0.24,9.05,2.54
16.36,-0.09,9.00,2.56
16.36,0.11,8.95,2.60
16.36,0.36,8.93,2.68
16.37,0.59,8.87,2.67
16.37,0.74,8.77,2.72
16.37,0.88,8.79,2.70
16.37,1.04,8.80,2.66
16.38,1.22,8.77,2.65
16.38,1.35,8.79,2.64
16.38,1.41,8.74,2.56
16.38,1.51,8.71,2.46
16.39,1.54,8.68,2.40
16.39,1.54,8.66,2.31
16.39,1.57,8.60,2.21
16.39,1.60,8.56,2.13
16.40,1.56,8.51,2.04
16.40,1.62,8.45,1.98
16.40,1.56,8.42,1.93
16.40,1.50,8.39,1.86
16.41,1.52,8.37,1.86
16.41,1.51,8.37,1.84
16.41,1.48,8.47,1.84
16.41,1.46,8.46,1.80
16.42,1.41,8.51,1.86
16.42,1.33,8.60,1.90
16.42,1.30,8.71,1.97
16.42,1.26,8.81,1.99
16.43,1.18,8.91,2.09
16.43,1.11,8.99,2.20
16.43,1.07,9.06,2.23
16.43,1.02,9.20,2.32
16.44,1.00,9.29,2.39
16.44,0.95,9.37,2.46
16.44,0.89,9.46,2.47
16.44,0.84,9.52,2.49
16.45,0.80,9.57,2.52
16.45,0.75,9.64,2.49
16.45,0.65,9.73,2.55
16.45,0.60,9.78,2.57
16.46,0.51,9.80,2.53
16.46,0.44,9.81,2.40
16.46,0.35,9.82,2.39
16.46,0.31,9.83,2.41
16.47,0.31,9.84,2.30
16.47,0.31,9.84,2.25
16.47,0.30,9.76,2.23
16.47,0.29,9.76,2.15
16.48,0.28,9.76,2.02
16.48,0.24,9.74,2.00
16.48,0.20,9.72,1.93
16.48,0.16,9.64,1.90
16.49,0.12,9.60,1.85
16.49,0.11,9.61,1.83
16.49,0.08,9.55,1.88
16.49,0.03,9.49,1.87
16.50,-0.03,9.49,1.87
16.50,-0.08,9.43,1.91
16.50,-0.12,9.41,1.94
16.50,-0.17,9.39,1.97
16.51,-0.21,9.40,2.01
16.51,-0.21,9.40,2.07
16.51,-0.26,9.38,2.14
16.51,-0.28,9.33,2.21
16.52,-0.22,9.31,2.27
16.52,-0.18,9.24,2.38
16.52,-0.18,9.25,2.43
16.52,-0.19,9.24,2.51
16.53,-0.18,9.23,2.57
16.53,-0.20,9.24,2.54
16.53,-0.17,9.26,2.53
16.53,-0.13,9.18,2.61
16.54,-0.09,9.13,2.68
16.54,-0.07,9.15,2.62
16.54,-0.02,9.09,2.70
16.54,0.06,9.08,2.67
16.55,0.09,9.03,2.66
16.55,0.14,9.00,2.64
16.55,0.13,8.99,2.62
16.55,0.17,8.91,2.57
16.56,0.19,8.91,2.54
16.56,0.21,8.88,2.49
16.56,0.24,8.85,2.48
16.56,0.21,8.85,2.41
16.57,0.26,8.87,2.37
16.57,0.23,8.84,2.34
16.57,0.26,8.87,2.29
16.57,0.28,8.91,2.23
16.58,0.28,8.93,2.20
16.58,0.35,8.97,2.15
16.58,0.28,8.99,2.12
16.58,0.30,9.08,2.07
16.59,0.30,9.12,2.06
16.59,0.32,9.18,2.02
16.59,0.30,9.18,2.01
16.59,0.26,9.24,1.98
16.60,0.26,9.28,1.99
16.60,0.28,9.30,2.01
16.60,0.28,9.32,2.02
16.60,0.23,9.34,2.00
16.61,0.21,9.36,2.02
16.61,0.23,9.36,2.10
16.61,0.26,9.32,2.10
16.61,0.19,9.32,2.10
16.62,0.21,9.33,2.12
16.62,0.21,9.30,2.15
16.62,0.18,9.25,2.18
16.62,0.22,9.23,2.23
16.63,0.19,9.19,2.20
16.63,0.14,9.15,2.25
16.63,0.19,9.13,2.25
16.63,0.18,9.12,2.25
16.64,0.20,9.13,2.29
16.64,0.23,9.11,2.25
16.64,0.22,9.10,2.23
16.64,0.20,9.11,2.23
16.65,0.24,9.12,2.18
16.65,0.24,9.08,2.22
16.65,0.24,9.03,2.19
16.65,0.19,9.06,2.18
16.66,0.17,9.03,2.20
16.66,0.19,8.99,2.17
16.66,0.23,9.00,2.23
16.66,0.22,8.99,2.26
16.67,0.20,9.01,2.22
16.67,0.18,8.96,2.20
16.67,0.17,9.02,2.27
16.67,0.20,9.00,2.31
16.68,0.25,9.02,2.35
16.68,0.24,9.03,2.36
16.68,0.23,9.06,2.35
16.68,0.23,9.08,2.41
16.69,0.24,9.07,2.43
16.69,0.24,9.06,2.40
16.69,0.18,9.06,2.32
16.69,0.18,9.07,2.37
16.70,0.16,9.05,2.34
16.70,0.17,9.06,2.32
16.70,0.14,9.04,2.31
16.70,0.09,9.01,2.27
16.71,0.07,9.08,2.26
16.71,0.08,9.11,2.24
16.71,0.06,9.11,2.23
16.71,0.04,9.15,2.19
16.72,0.05,9.14,2.16
16.72,0.04,9.13,2.14
16.72,0.05,9.16,2.19
16.72,0.06,9.21,2.19
16.73,0.03,9.20,2.18
16.73,0.05,9.20,2.17
16.73,0.05,9.20,2.16
16.73,0.05,9.30,2.17
16.74,0.07,9.29,2.21
16.74,0.10,9.30,2.27
16.74,0.15,9.27,2.23
16.74,0.15,9.33,2.20
16.75,0.13,9.25,2.17
16.75,0.16,9.32,2.13
16.75,0.19,9.31,2.13
16.75,0.18,9.29,2.12
16.76,0.19,9.26,2.12
16.76,0.18,9.25,2.07
16.76,0.13,9.28,2.10
16.76,0.14,9.27,2.11
16.77,0.14,9.26,2.12
16.77,0.12,9.26,2.13
16.77,0.09,9.23,2.14
16.77,0.08,9.18,2.17
16.78,0.06,9.16,2.16
16.78,0.08,9.17,2.15
16.78,0.05,9.21,2.23
16.78,0.07,9.19,2.22
16.79,0.08,9.14,2.25
16.79,0.05,9.17,2.23
16.79,0.03,9.18,2.18
16.79,0.02,9.20,2.17
16.80,0.01,9.21,2.13
16.80,0.00,9.22,2.13
16.80,0.01,9.24,2.14
16.80,0.05,9.23,2.15
16.81,0.05,9.23,2.13
16.81,0.08,9.20,2.18
16.81,0.06,9.21,2.17
16.81,0.01,9.26,2.20
16.82,0.06,9.28,2.15
16.82,0.02,9.24,2.22
16.82,-0.02,9.28,2.19
16.82,-0.04,9.28,2.21
16.83,-0.04,9.31,2.27
16.83,-0.07,9.31,2.27
16.83,-0.11,9.27,2.32
16.83,-0.12,9.21,2.33
16.84,-0.14,9.18,2.38
16.84,-0.15,9.15,2.35
16.84,-0.18,9.10,2.38
16.84,-0.16,9.05,2.43
16.85,-0.16,9.02,2.37
16.85,-0.19,9.05,2.42
16.85,-0.16,8.96,2.39
16.85,-0.09,8.97,2.44
16.86,-0.06,9.00,2.40
16.86,-0.06,8.96,2.39
16.86,-0.01,9.01,2.29
16.86,0.06,9.01,2.20
16.87,0.09,9.06,2.17
16.87,0.17,9.12,2.13
16.87,0.16,9.11,2.10
16.87,0.20,9.16,2.02
16.88,0.24,9.20,2.04
16.88,0.24,9.22,2.04
16.88,0.24,9.24,1.97
16.88,0.24,9.25,1.99
16.89,0.27,9.31,2.02
16.89,0.26,9.31,2.03
16.89,0.21,9.36,2.00
16.89,0.25,9.38,1.99
16.90,0.20,9.39,2.01
16.90,0.21,9.39,2.04
16.90,0.23,9.39,2.02
16.90,0.22,9.38,2.04
16.91,0.26,9.37,2.06
16.91,0.29,9.40,2.06
16.91,0.32,9.35,2.09
16.91,0.30,9.37,2.16
16.92,0.33,9.38,2.12
16.92,0.33,9.35,2.13
16.92,0.30,9.35,2.16
16.92,0.28,9.35,2.21
16.93,0.25,9.30,2.16
16.93,0.22,9.25,2.18
16.93,0.18,9.19,2.24
16.93,0.19,9.14,2.31
16.94,0.20,9.11,2.31
16.94,0.23,9.06,2.37
16.94,0.27,9.01,2.43
16.94,0.27,9.00,2.42
16.95,0.30,8.99,2.42
16.95,0.30,8.98,2.47
16.95,0.30,8.96,2.46
16.95,0.30,9.00,2.52
16.96,0.36,9.01,2.49
16.96,0.35,9.02,2.46
16.96,0.34,9.01,2.50
16.96,0.34,9.03,2.48
16.97,0.33,9.05,2.49
16.97,0.29,9.07,2.43
16.97,0.31,9.08,2.41
16.97,0.27,9.10,2.43
16.98,0.24,9.08,2.38
16.98,0.22,9.06,2.43
16.98,0.24,9.10,2.42
16.98,0.23,9.12,2.41
16.99,0.18,9.15,2.42
16.99,0.15,9.10,2.40
16.99,0.20,9.12,2.36
16.99,0.21,9.12,2.38
17.00,0.18,9.18,2.39
17.00,0.17,9.20,2.38
17.00,0.20,9.21,2.35
17.00,0.16,9.24,2.36
17.01,0.14,9.28,2.37
17.01,0.11,9.31,2.31
17.01,0.12,9.32,2.37
17.01,0.04,9.33,2.39
17.02,-0.01,9.32,2.38
17.02,0.01,9.32,2.32
17.02,-0.03,9.35,2.32
17.02,-0.06,9.34,2.32
17.03,-0.07,9.36,2.29
17.03,-0.09,9.38,2.24
17.03,-0.08,9.40,2.18
17.03,-0.09,9.42,2.18
17.04,-0.07,9.43,2.22
17.04,-0.07,9.42,2.24
17.04,-0.17,9.43,2.19
17.04,-0.13,9.43,2.20
17.05,-0.12,9.39,2.18
17.05,-0.12,9.35,2.18
17.05,-0.20,9.39,2.21
17.05,-0.21,9.37,2.29
17.06,-0.21,9.28,2.33
17.06,-0.26,9.28,2.37
17.06,-0.24,9.26,2.37
17.06,-0.17,9.23,2.37
17.07,-0.18,9.21,2.45
17.07,-0.16,9.18,2.46
17.07,-0.17,9.18,2.44
17.07,-0.14,9.20,2.50
17.08,-0.10,9.18,2.51
17.08,-0.11,9.17,2.48
17.08,-0.07,9.19,2.49
17.08,-0.10,9.19,2.49
17.09,-0.10,9.17,2.47
17.09,-0.03,9.20,2.46
17.09,-0.03,9.23,2.41
17.09,-0.05,9.23,2.42
17.10,0.06,9.21,2.44
17.10,0.09,9.23,2.46
17.10,0.04,9.24,2.41
17.10,0.06,9.23,2.39
17.11,0.09,9.24,2.35
17.11,0.06,9.24,2.34
17.11,0.01,9.24,2.34
17.11,-0.04,9.22,2.33
17.12,-0.06,9.24,2.29
17.12,-0.07,9.29,2.24
17.12,-0.08,9.27,2.27
17.12,-0.12,9.25,2.29
17.13,-0.12,9.27,2.24
17.13,-0.16,9.30,2.25
17.13,-0.20,9.27,2.20
17.13,-0.18,9.28,2.25
17.14,-0.20,9.25,2.27
17.14,-0.27,9.30,2.28
17.14,-0.23,9.28,2.28
17.14,-0.25,9.21,2.24
17.15,-0.27,9.24,2.25
17.15,-0.30,9.24,2.28
17.15,-0.29,9.25,2.36
17.15,-0.24,9.23,2.34
17.16,-0.27,9.24,2.31
17.16,-0.27,9.25,2.31
17.16,-0.27,9.23,2.35
17.16,-0.28,9.24,2.30
17.17,-0.23,9.24,2.28
17.17,-0.21,9.21,2.30
17.17,-0.24,9.24,2.31
17.17,-0.23,9.17,2.23
17.18,-0.18,9.15,2.16
17.18,-0.17,9.16,2.15
17.18,-0.19,9.12,2.12
17.18,-0.14,9.09,2.15
17.19,-0.12,9.05,2.15
17.19,-0.10,9.00,2.11
17.19,-0.11,9.00,2.10
17.19,-0.10,9.03,2.13
17.20,-0.12,9.06,2.18
17.20,-0.11,8.98,2.11
17.20,-0.07,8.98,2.13
17.20,-0.05,8.95,2.12
17.21,-0.06,8.94,2.15
17.21,-0.08,8.94,2.13
17.21,-0.07,8.94,2.12
17.21,-0.11,9.02,2.14
17.22,-0.05,9.00,2.14
17.22,-0.01,9.03,2.17
17.22,-0.07,9.03,2.13
17.22,-0.03,9.06,2.14
17.23,-0.06,9.05,2.14
17.23,-0.03,9.08,2.19
17.23,-0.02,9.09,2.15
17.23,-0.06,9.12,2.14
17.24,-0.08,9.14,2.15
17.24,-0.06,9.15,2.20
17.24,-0.02,9.12,2.21
17.24,-0.03,9.16,2.21
17.25,0.03,9.16,2.22
17.25,0.04,9.15,2.18
17.25,0.06,9.17,2.13
17.25,0.05,9.17,2.21
17.26,0.05,9.15,2.16
17.26,0.09,9.14,2.16
17.26,0.09,9.14,2.14
17.26,0.13,9.15,2.10
17.27,0.18,9.13,2.08
17.27,0.20,9.18,2.08
17.27,0.22,9.17,2.09
17.27,0.24,9.19,2.13
17.28,0.25,9.17,2.12
17.28,0.24,9.19,2.16
17.28,0.20,9.22,2.17
17.28,0.23,9.23,2.19
17.29,0.21,9.22,2.20
17.29,0.20,9.24,2.24
17.29,0.18,9.24,2.28
17.29,0.16,9.19,2.27
17.30,0.16,9.16,2.30
17.30,0.16,9.13,2.33
17.30,0.24,9.09,2.27
17.30,0.25,9.05,2.29
17.31,0.27,9.05,2.25
17.31,0.27,9.06,2.21
17.31,0.31,9.11,2.27
17.31,0.31,9.05,2.26
17.32,0.32,9.04,2.22
17.32,0.39,9.06,2.18
17.32,0.42,9.04,2.20
17.32,0.43,9.04,2.23
17.33,0.44,9.10,2.14
17.33,0.43,9.12,2.13
17.33,0.40,9.11,2.10
17.33,0.38,9.09,2.12
17.34,0.36,9.12,2.12
17.34,0.33,9.11,2.09
17.34,0.32,9.10,2.07
17.34,0.30,9.15,2.11
17.35,0.34,9.13,2.08
17.35,0.27,9.21,2.07
17.35,0.27,9.14,2.04
17.35,0.24,9.16,2.12
17.36,0.22,9.17,2.12
17.36,0.21,9.17,2.09
17.36,0.18,9.22,2.12
17.36,0.17,9.23,2.17
17.37,0.21,9.25,2.13
17.37,0.20,9.24,2.14
17.37,0.18,9.26,2.16
17.37,0.15,9.28,2.18
17.38,0.12,9.24,2.13
17.38,0.12,9.25,2.19
17.38,0.11,9.25,2.16
17.38,0.09,9.26,2.16
17.39,0.07,9.25,2.18
17.39,0.06,9.26,2.14
17.39,-0.02,9.26,2.19
17.39,0.02,9.25,2.18
17.40,0.05,9.28,2.21
17.40,0.04,9.26,2.23
17.40,-0.02,9.28,2.19
17.40,-0.07,9.30,2.24
17.41,-0.12,9.29,2.20
17.41,-0.17,9.29,2.20
17.41,-0.17,9.30,2.27
17.41,-0.24,9.27,2.27
17.42,-0.26,9.23,2.30
17.42,-0.26,9.21,2.38
17.42,-0.27,9.22,2.37
17.42,-0.26,9.22,2.42
17.43,-0.29,9.15,2.43
17.43,-0.32,9.19,2.37
17.43,-0.30,9.20,2.42
17.43,-0.30,9.21,2.43
17.44,-0.29,9.20,2.42
17.44,-0.25,9.19,2.41
17.44,-0.21,9.20,2.43
17.44,-0.15,9.22,2.44
17.45,-0.16,9.20,2.38
17.45,-0.13,9.21,2.34
17.45,-0.17,9.23,2.28
17.45,-0.12,9.20,2.23
17.46,-0.08,9.19,2.19
17.46,-0.07,9.19,2.11
17.46,-0.10,9.22,2.09
17.46,-0.09,9.22,2.07
17.47,-0.02,9.17,2.05
17.47,0.00,9.18,2.02
17.47,-0.05,9.21,2.01
17.47,-0.05,9.17,2.04
17.48,-0.08,9.18,2.06
17.48,-0.04,9.21,2.03
17.48,-0.01,9.20,2.06
17.48,-0.03,9.25,2.07
17.49,-0.03,9.19,2.13
17.49,-0.09,9.19,2.18
17.49,-0.10,9.19,2.20
17.49,-0.11,9.15,2.21
17.50,-0.12,9.16,2.25
17.50,-0.17,9.12,2.27
17.50,-0.17,9.11,2.33
17.50,-0.15,9.11,2.35
17.51,-0.14,9.12,2.36
17.51,-0.11,9.08,2.34
17.51,-0.05,9.08,2.34
17.51,-0.08,9.12,2.34
17.52,-0.06,9.11,2.30
17.52,-0.03,9.09,2.32
17.52,-0.01,9.12,2.27
17.52,0.00,9.13,2.30
17.53,0.00,9.12,2.30
17.53,0.01,9.11,2.25
17.53,-0.01,9.14,2.27
17.53,-0.04,9.13,2.26
17.54,-0.04,9.13,2.28
17.54,-0.07,9.15,2.28
17.54,-0.05,9.14,2.29
17.54,-0.04,9.08,2.29
17.55,-0.06,9.11,2.32
17.55,-0.11,9.15,2.28
17.55,-0.06,9.15,2.30
17.55,-0.07,9.14,2.27
17.56,-0.08,9.17,2.30
17.56,-0.07,9.18,2.33
17.56,-0.07,9.18,2.27
17.56,-0.06,9.22,2.31
17.57,-0.05,9.23,2.31
17.57,-0.08,9.21,2.24
17.57,-0.03,9.25,2.23
17.57,-0.04,9.30,2.26
17.58,-0.04,9.27,2.25
17.58,0.02,9.29,2.30
17.58,0.03,9.24,2.23
17.58,0.02,9.28,2.22
17.59,0.06,9.31,2.24
17.59,0.08,9.33,2.23
17.59,0.05,9.37,2.22
17.59,0.04,9.31,2.27
17.60,0.07,9.35,2.21
17.60,0.06,9.37,2.23
17.60,0.05,9.33,2.24
17.60,0.05,9.30,2.22
17.61,0.03,9.34,2.22
17.61,0.04,9.35,2.25
17.61,0.05,9.29,2.24
17.61,0.05,9.28,2.25
17.62,0.03,9.25,2.32
17.62,0.04,9.28,2.27
17.62,0.04,9.30,2.29
17.62,0.00,9.30,2.31
17.63,-0.02,9.22,2.31
17.63,-0.04,9.23,2.29
17.63,-0.08,9.18,2.27
17.63,-0.04,9.18,2.33
17.64,-0.08,9.17,2.27
17.64,-0.08,9.16,2.36
17.64,-0.07,9.16,2.36
17.64,-0.12,9.16,2.34
17.65,-0.12,9.18,2.35
17.65,-0.14,9.14,2.43
17.65,-0.17,9.18,2.36
17.65,-0.20,9.17,2.34
17.66,-0.19,9.19,2.33
17.66,-0.20,9.16,2.35
17.66,-0.20,9.17,2.34
17.66,-0.20,9.10,2.37
17.67,-0.18,9.11,2.37
17.67,-0.19,9.13,2.35
17.67,-0.18,9.11,2.34
17.67,-0.16,9.12,2.38
17.68,-0.16,9.12,2.37
17.68,-0.14,9.12,2.36
17.68,-0.16,9.12,2.35
17.68,-0.12,9.10,2.36
17.69,-0.09,9.12,2.40
17.69,-0.09,9.09,2.36
17.69,-0.04,9.08,2.39
17.69,-0.06,9.07,2.37
17.70,-0.05,9.03,2.38
17.70,-0.02,9.05,2.40
17.70,0.00,9.04,2.33
17.70,0.00,9.09,2.32
17.71,-0.03,9.08,2.27
17.71,-0.06,9.08,2.29
17.71,0.00,9.08,2.25
17.71,0.01,9.04,2.25
17.72,-0.02,9.06,2.26
17.72,-0.01,9.11,2.22
17.72,-0.10,9.10,2.26
17.72,-0.08,9.11,2.26
17.73,-0.05,9.11,2.27
17.73,-0.10,9.14,2.31
17.73,-0.12,9.15,2.31
17.73,-0.10,9.16,2.36
17.74,-0.10,9.17,2.28
17.74,-0.16,9.17,2.36
17.74,-0.14,9.18,2.36
17.74,-0.08,9.18,2.38
17.75,-0.09,9.17,2.43
17.75,-0.08,9.17,2.42
17.75,-0.06,9.24,2.39
17.75,-0.05,9.23,2.45
17.76,-0.04,9.21,2.45
17.76,0.01,9.24,2.45
17.76,0.06,9.20,2.42
17.76,0.04,9.20,2.46
17.77,0.08,9.15,2.42
17.77,0.11,9.16,2.45
17.77,0.16,9.16,2.48
17.77,0.18,9.21,2.40
17.78,0.20,9.23,2.43
17.78,0.18,9.22,2.41
17.78,0.16,9.22,2.41
17.78,0.21,9.23,2.42
17.79,0.22,9.23,2.35
17.79,0.22,9.23,2.31
17.79,0.20,9.27,2.37
17.79,0.26,9.24,2.34
17.80,0.20,9.25,2.30
17.80,0.22,9.22,2.32
17.80,0.22,9.24,2.36
17.80,0.21,9.24,2.37
17.81,0.20,9.19,2.38
17.81,0.18,9.19,2.36
17.81,0.20,9.22,2.38
17.81,0.17,9.18,2.41
17.82,0.14,9.15,2.38
17.82,0.13,9.12,2.36
17.82,0.12,9.06,2.45
17.82,0.10,9.09,2.45
17.83,0.05,9.12,2.45
17.83,0.04,9.13,2.46
17.83,0.06,9.15,2.44
17.83,0.05,9.18,2.49
17.84,0.04,9.18,2.51
17.84,0.02,9.20,2.53
17.84,-0.02,9.21,2.55
17.84,-0.05,9.20,2.50
17.85,-0.01,9.24,2.52
17.85,-0.05,9.24,2.56
17.85,-0.08,9.24,2.52
17.85,-0.04,9.27,2.47
17.86,-0.09,9.21,2.53
17.86,-0.12,9.19,2.55
17.86,-0.05,9.17,2.53
17.86,-0.06,9.18,2.53
17.87,-0.09,9.18,2.52
17.87,-0.08,9.16,2.47
17.87,-0.05,9.12,2.53
17.87,-0.04,9.16,2.57
17.88,-0.02,9.13,2.54
17.88,0.03,9.13,2.50
17.88,0.03,9.12,2.55
17.88,0.04,9.09,2.51
17.89,0.09,9.06,2.46
17.89,0.08,9.07,2.43
17.89,0.08,9.10,2.39
17.89,0.12,9.08,2.34
17.90,0.12,9.09,2.30
17.90,0.14,9.07,2.28
17.90,0.14,9.08,2.29
17.90,0.10,9.05,2.31
17.91,0.09,9.02,2.29
17.91,0.11,9.03,2.35
17.91,0.09,9.04,2.38
17.91,0.10,9.04,2.36
17.92,0.06,9.04,2.41
17.92,0.03,9.06,2.40
17.92,0.06,9.07,2.38
17.92,0.02,9.05,2.41
17.93,-0.01,9.03,2.45
17.93,0.02,9.12,2.53
17.93,-0.04,9.08,2.49
17.93,-0.01,9.06,2.46
17.94,-0.03,9.10,2.50
17.94,-0.07,9.11,2.45
17.94,-0.09,9.10,2.46
17.94,-0.11,9.10,2.48
17.95,-0.05,9.09,2.41
17.95,-0.09,9.11,2.40
17.95,-0.09,9.09,2.35
17.95,-0.07,9.15,2.33
17.96,-0.11,9.12,2.40
17.96,-0.07,9.14,2.34
17.96,-0.05,9.12,2.27
17.96,-0.10,9.13,2.23
17.97,-0.08,9.15,2.24
17.97,-0.13,9.17,2.21
17.97,-0.11,9.12,2.19
17.97,-0.14,9.11,2.23
17.98,-0.12,9.15,2.26
17.98,-0.17,9.19,2.23
17.98,-0.20,9.16,2.25
17.98,-0.20,9.18,2.29
17.99,-0.19,9.15,2.24
17.99,-0.20,9.13,2.27
17.99,-0.17,9.16,2.29
17.99,-0.18,9.12,2.30
18.00,-0.20,9.10,2.34
18.00,-0.15,9.14,2.28
18.00,-0.16,9.13,2.30
18.00,-0.11,9.12,2.25
18.01,-0.08,9.09,2.24
18.01,-0.09,9.12,2.23
18.01,-0.08,9.09,2.22
18.01,-0.02,9.11,2.19
18.02,-0.03,9.09,2.20
18.02,0.03,9.09,2.17
18.02,0.03,9.04,2.14
18.02,0.02,9.03,2.13
18.03,0.02,9.06,2.10
18.03,0.12,9.06,2.06
18.03,0.13,9.08,2.10
18.03,0.14,9.08,2.13
18.04,0.16,9.07,2.08
18.04,0.14,9.07,2.05
18.04,0.15,9.06,2.04
18.04,0.14,9.09,2.00
18.05,0.17,9.07,2.03
18.05,0.20,9.04,2.05
18.05,0.17,9.08,2.04
18.05,0.21,9.12,2.09
18.06,0.23,9.11,2.08
18.06,0.22,9.12,2.08
18.06,0.16,9.08,2.11
18.06,0.19,9.09,2.15
18.07,0.20,9.03,2.15
18.07,0.21,9.06,2.12
18.07,0.19,9.10,2.18
18.07,0.14,9.06,2.18
18.08,0.16,9.07,2.21
18.08,0.20,9.11,2.23
18.08,0.18,9.17,2.19
18.08,0.23,9.15,2.23
18.09,0.21,9.22,2.23
18.09,0.19,9.25,2.22
18.09,0.16,9.28,2.17
18.09,0.18,9.36,2.16
18.10,0.20,9.38,2.16
18.10,0.19,9.38,2.16
18.10,0.15,9.43,2.19
18.10,0.16,9.45,2.21
18.11,0.15,9.49,2.19
18.11,0.18,9.49,2.18
18.11,0.15,9.51,2.18
18.11,0.08,9.51,2.16
18.12,0.06,9.47,2.14
18.12,0.07,9.47,2.11
18.12,0.03,9.47,2.11
18.12,0.02,9.42,2.11
18.13,-0.01,9.39,2.12
18.13,-0.06,9.39,2.08
18.13,-0.04,9.35,2.08
18.13,-0.06,9.28,2.05
18.14,-0.05,9.33,2.07
18.14,-0.06,9.24,2.04
18.14,-0.08,9.17,2.07
18.14,-0.08,9.16,2.07
18.15,-0.04,9.17,2.03
18.15,-0.08,9.14,2.07
18.15,-0.03,9.12,2.11
18.15,-0.03,9.14,2.12
18.16,-0.05,9.10,2.15
18.16,-0.01,9.07,2.12
18.16,0.00,9.05,2.07
18.16,-0.07,9.08,2.14
18.17,-0.05,9.07,2.10
18.17,-0.05,9.07,2.07
18.17,-0.07,9.05,2.13
18.17,-0.02,9.04,2.12
18.18,0.00,9.08,2.15
18.18,0.02,9.10,2.15
18.18,-0.04,9.08,2.17
18.18,0.00,9.09,2.14
18.19,0.00,9.14,2.12
18.19,0.06,9.15,2.15
18.19,-0.01,9.14,2.13
18.19,0.04,9.18,2.10
18.20,0.06,9.18,2.13
18.20,0.04,9.22,2.11
18.20,0.08,9.27,2.10
18.20,0.10,9.31,2.09
18.21,0.14,9.34,2.10
18.21,0.12,9.36,2.13
18.21,0.10,9.37,2.17
18.21,0.13,9.42,2.13
18.22,0.10,9.44,2.13
18.22,0.12,9.43,2.13
18.22,0.09,9.45,2.13
18.22,0.11,9.38,2.09
18.23,0.06,9.41,2.12
18.23,0.03,9.42,2.13
18.23,0.00,9.36,2.13
18.23,0.01,9.32,2.14
18.24,0.01,9.36,2.13
18.24,0.00,9.32,2.15
18.24,-0.03,9.31,2.15
18.24,-0.02,9.29,2.11
18.25,-0.04,9.23,2.09
18.25,-0.07,9.22,2.12
18.25,-0.05,9.18,2.16
18.25,-0.06,9.12,2.15
18.26,-0.04,9.10,2.13
18.26,-0.02,9.12,2.17
18.26,0.03,9.10,2.12
18.26,-0.02,9.13,2.12
18.27,-0.06,9.09,2.11
18.27,0.00,9.05,2.12
18.27,-0.03,9.11,2.07
18.27,-0.04,9.09,2.11
18.28,-0.01,9.15,2.10
18.28,-0.04,9.10,2.09
18.28,-0.04,9.11,2.13
18.28,-0.03,9.09,2.18
18.29,-0.02,9.11,2.19
18.29,-0.03,9.15,2.15
18.29,-0.04,9.10,2.12
18.29,-0.03,9.09,2.20
18.30,0.00,9.10,2.23
18.30,-0.03,9.04,2.21
18.30,-0.05,9.02,2.24
18.30,-0.06,9.01,2.27
18.31,-0.01,9.04,2.29
18.31,0.02,9.00,2.28
18.31,0.03,9.01,2.28
18.31,0.08,9.01,2.23
18.32,0.12,8.99,2.26
18.32,0.12,9.01,2.26
18.32,0.16,9.01,2.24
18.32,0.14,9.03,2.25
18.33,0.14,9.09,2.22
18.33,0.12,9.06,2.20
18.33,0.10,9.09,2.13
18.33,0.17,9.12,2.17
18.34,0.14,9.08,2.14
18.34,0.14,9.15,2.17
18.34,0.14,9.16,2.17
18.34,0.11,9.15,2.17
18.35,0.16,9.21,2.22
18.35,0.12,9.21,2.19
18.35,0.06,9.19,2.21
18.35,0.12,9.23,2.21
18.36,0.11,9.26,2.24
18.36,0.12,9.22,2.24
18.36,0.15,9.22,2.28
18.36,0.15,9.27,2.29
18.37,0.20,9.24,2.32
18.37,0.18,9.27,2.33
18.37,0.13,9.28,2.31
18.37,0.18,9.28,2.27
18.38,0.12,9.30,2.21
18.38,0.09,9.30,2.28
18.38,0.12,9.29,2.21
18.38,0.14,9.30,2.19
18.39,0.13,9.30,2.27
18.39,0.14,9.28,2.25
18.39,0.08,9.29,2.24
18.39,0.06,9.29,2.25
18.40,0.04,9.26,2.25
18.40,0.08,9.29,2.27
18.40,0.06,9.30,2.24
18.40,0.06,9.28,2.24
18.41,0.08,9.24,2.31
18.41,0.08,9.24,2.29
18.41,0.05,9.22,2.27
18.41,0.07,9.20,2.31
18.42,0.08,9.25,2.39
18.42,0.10,9.21,2.29
18.42,0.14,9.17,2.33
18.42,0.12,9.22,2.31
18.43,0.16,9.24,2.31
18.43,0.12,9.25,2.28
18.43,0.14,9.22,2.27
18.44,0.15,9.27,2.27
18.44,0.17,9.28,2.19
18.44,0.18,9.26,2.18
18.44,0.18,9.31,2.15
18.45,0.18,9.32,2.12
18.45,0.19,9.22,2.12
18.45,0.15,9.23,2.16
18.45,0.13,9.24,2.12
18.45,0.12,9.25,2.19
18.46,0.10,9.24,2.18
18.46,0.07,9.20,2.19
18.46,0.06,9.21,2.20
18.46,0.03,9.20,2.27
18.47,0.00,9.20,2.27
18.47,-0.04,9.19,2.31
18.47,-0.10,9.18,2.35
18.47,-0.11,9.11,2.35
18.48,-0.14,9.10,2.42
18.48,-0.12,9.10,2.41
18.48,-0.14,9.07,2.40
18.48,-0.08,9.05,2.39
18.49,-0.10,9.06,2.44
18.49,-0.11,9.01,2.37
18.49,-0.09,9.02,2.36
18.49,-0.06,9.02,2.38
18.50,-0.04,9.04,2.37
18.50,-0.04,9.05,2.31
18.50,-0.05,9.02,2.28
18.50,-0.05,9.03,2.32
18.51,-0.01,9.06,2.29
18.51,-0.01,9.04,2.26
18.51,0.00,9.06,2.25
18.51,0.03,9.08,2.26
18.52,0.00,9.08,2.25
18.52,0.02,9.10,2.26
18.52,0.00,9.13,2.27
18.52,0.02,9.13,2.26
18.53,0.00,9.11,2.24
18.53,-0.02,9.13,2.25
18.53,-0.01,9.17,2.21
18.53,-0.04,9.17,2.22
18.54,-0.01,9.16,2.24
18.54,-0.02,9.15,2.23
18.54,-0.04,9.14,2.31
18.54,-0.03,9.16,2.28
18.55,-0.05,9.18,2.28
18.55,-0.06,9.13,2.30
18.55,-0.10,9.10,2.29
18.55,-0.03,9.10,2.32
18.56,-0.03,9.06,2.33
18.56,-0.04,9.08,2.34
18.56,-0.01,9.07,2.39
18.56,0.03,9.02,2.38
18.57,0.00,9.03,2.35
18.57,0.07,9.00,2.30
18.57,0.08,9.10,2.38
18.57,0.08,9.00,2.37
18.58,0.14,9.05,2.37
18.58,0.10,9.05,2.37
18.58,0.10,9.09,2.38
18.58,0.14,9.04,2.41
18.59,0.16,9.06,2.37
18.59,0.14,9.10,2.34
18.59,0.15,9.12,2.33
18.59,0.16,9.11,2.32
18.60,0.15,9.17,2.34
18.60,0.16,9.19,2.31
18.60,0.17,9.20,2.27
18.60,0.14,9.20,2.28
18.61,0.10,9.23,2.23
18.61,0.12,9.22,2.26
18.61,0.11,9.26,2.30
18.61,0.10,9.23,2.26
18.62,0.07,9.24,2.27
18.62,0.12,9.26,2.27
18.62,0.13,9.25,2.26
18.62,0.05,9.29,2.24
18.63,0.05,9.29,2.24
18.63,0.03,9.25,2.27
18.63,0.04,9.26,2.26
18.63,0.05,9.28,2.25
18.64,0.01,9.26,2.26
18.64,0.02,9.27,2.31
18.64,-0.03,9.31,2.32
18.64,0.00,9.24,2.25
18.65,-0.02,9.25,2.29
18.65,-0.07,9.24,2.32
18.65,-0.04,9.21,2.37
18.65,-0.05,9.22,2.36
18.66,-0.08,9.17,2.39
18.66,-0.05,9.16,2.38
18.66,0.00,9.14,2.34
18.66,-0.01,9.10,2.40
18.67,-0.04,9.09,2.40
18.67,-0.02,9.10,2.39
18.67,-0.03,9.08,2.40
18.67,-0.06,9.06,2.39
18.68,-0.06,9.13,2.44
18.68,-0.06,9.12,2.42
18.68,-0.05,9.10,2.41
18.68,0.01,9.11,2.41
18.69,0.03,9.10,2.41
18.69,0.03,9.11,2.37
18.69,0.02,9.12,2.34
18.69,-0.04,9.15,2.34
18.70,0.00,9.16,2.33
18.70,-0.02,9.14,2.32
18.70,-0.01,9.16,2.29
18.70,0.02,9.10,2.33
18.71,-0.05,9.16,2.30
18.71,-0.08,9.16,2.29
18.71,-0.07,9.11,2.27
18.71,-0.07,9.15,2.21
18.72,-0.05,9.12,2.29
18.72,-0.03,9.10,2.27
18.72,0.01,9.08,2.30
18.72,0.02,9.09,2.28
18.73,0.02,9.12,2.21
18.73,0.04,9.09,2.26
18.73,-0.01,9.11,2.29
18.73,0.06,9.08,2.26
18.74,0.08,9.08,2.25
18.74,0.02,9.12,2.26
18.74,0.06,9.07,2.31
18.74,0.07,9.06,2.27
18.75,0.04,9.05,2.27
18.75,0.06,9.05,2.24
18.75,0.04,9.10,2.31
18.75,0.11,9.09,2.34
18.76,0.15,9.03,2.38
18.76,0.16,9.06,2.35
18.76,0.15,9.09,2.36
18.76,0.16,9.08,2.42
18.77,0.22,9.09,2.44
18.77,0.18,9.12,2.42
18.77,0.22,9.11,2.40
18.77,0.21,9.10,2.37
18.78,0.20,9.10,2.31
18.78,0.20,9.12,2.30
18.78,0.18,9.11,2.33
18.78,0.18,9.13,2.33
18.79,0.16,9.14,2.37
18.79,0.15,9.09,2.31
18.79,0.14,9.08,2.32
18.79,0.06,9.12,2.29
18.80,0.03,9.14,2.26
18.80,0.03,9.10,2.24
18.80,0.01,9.12,2.19
18.80,-0.01,9.07,2.20
18.81,-0.02,9.05,2.13
18.81,0.00,9.13,2.14
18.81,-0.01,9.10,2.14
18.81,0.04,9.19,2.17
18.82,0.04,9.14,2.21
18.82,0.04,9.16,2.24
18.82,0.06,9.13,2.22
18.82,0.06,9.17,2.28
18.83,0.05,9.16,2.24
18.83,0.03,9.15,2.28
18.83,0.02,9.10,2.27
18.83,0.04,9.04,2.22
18.84,0.08,9.02,2.27
18.84,0.09,8.98,2.26
18.84,0.08,8.95,2.25
18.84,0.09,8.93,2.25
18.85,0.06,8.94,2.24
18.85,0.05,8.93,2.24
18.85,0.09,8.89,2.33
18.85,0.05,8.92,2.32
18.86,0.00,8.93,2.22
18.86,0.00,8.98,2.29
18.86,0.03,9.01,2.25
18.86,-0.04,9.05,2.22
18.87,-0.01,9.10,2.21
18.87,0.03,9.14,2.26
18.87,0.00,9.20,2.25
18.87,-0.05,9.25,2.25
18.88,-0.10,9.31,2.19
18.88,-0.17,9.36,2.24
18.88,-0.26,9.33,2.27
18.88,-0.26,9.36,2.25
18.89,-0.29,9.39,2.28
18.89,-0.38,9.39,2.21
18.89,-0.44,9.38,2.25
18.89,-0.45,9.41,2.24
18.90,-0.49,9.36,2.27
18.90,-0.51,9.36,2.31
18.90,-0.49,9.36,2.37
18.90,-0.51,9.39,2.42
18.91,-0.55,9.31,2.45
18.91,-0.59,9.29,2.55
18.91,-0.55,9.28,2.68
18.91,-0.57,9.19,2.73
18.92,-0.63,9.16,2.78
18.92,-0.67,9.15,2.88
18.92,-0.69,9.12,2.95
18.92,-0.76,9.09,3.01
18.93,-0.84,9.07,3.05
18.93,-0.87,9.09,3.07
18.93,-0.92,9.09,3.09
18.93,-0.97,9.11,3.11
18.94,-1.03,9.18,3.21
18.94,-1.08,9.14,3.26
18.94,-1.08,9.17,3.25
18.94,-1.13,9.26,3.21
18.95,-1.18,9.20,3.18
18.95,-1.23,9.19,3.21
18.95,-1.26,9.21,3.14
18.95,-1.27,9.25,3.04
18.96,-1.30,9.27,3.01
18.96,-1.32,9.24,2.93
18.96,-1.33,9.21,2.91
18.96,-1.34,9.21,2.88
18.97,-1.33,9.24,2.79
18.97,-1.29,9.24,2.73
18.97,-1.26,9.23,2.63
18.97,-1.31,9.20,2.54
18.98,-1.29,9.18,2.55
18.98,-1.19,9.24,2.51
18.98,-1.14,9.24,2.45
18.98,-1.15,9.27,2.40
18.99,-1.08,9.26,2.39
18.99,-1.03,9.27,2.41
18.99,-1.01,9.26,2.41
18.99,-0.99,9.28,2.43
19.00,-1.01,9.28,2.49
19.00,-1.03,9.27,2.54
19.00,-1.01,9.23,2.57
19.00,-0.96,9.30,2.57
19.01,-0.97,9.26,2.59
19.01,-0.94,9.29,2.61
19.01,-0.93,9.31,2.59
19.01,-0.92,9.30,2.52
19.02,-0.83,9.20,2.54
19.02,-0.85,9.21,2.55
19.02,-0.79,9.20,2.49
19.02,-0.80,9.18,2.48
19.03,-0.74,9.13,2.45
19.03,-0.69,9.13,2.36
19.03,-0.65,9.09,2.37
19.03,-0.65,9.10,2.37
19.04,-0.59,9.08,2.32
19.04,-0.57,9.06,2.27
19.04,-0.51,9.09,2.22
19.04,-0.51,9.08,2.19
19.05,-0.44,9.04,2.16
19.05,-0.43,9.03,2.12
19.05,-0.40,9.05,2.11
19.05,-0.38,9.07,2.10
19.06,-0.39,9.06,2.07
19.06,-0.39,9.00,2.10
19.06,-0.37,9.04,2.13
19.06,-0.40,9.09,2.16
19.07,-0.36,9.06,2.14
19.07,-0.36,9.04,2.14
19.07,-0.33,9.09,2.14
19.07,-0.33,9.08,2.18
19.08,-0.30,9.09,2.17
19.08,-0.32,9.11,2.17
19.08,-0.26,9.10,2.20
19.08,-0.26,9.06,2.24
19.09,-0.26,9.07,2.18
19.09,-0.24,9.09,2.18
19.09,-0.19,9.05,2.24
19.09,-0.21,9.05,2.19
19.10,-0.21,9.08,2.18
19.10,-0.15,9.06,2.16
19.10,-0.16,9.06,2.13
19.10,-0.18,9.09,2.13
19.11,-0.14,9.08,2.12
19.11,-0.12,9.07,2.01
19.11,-0.20,9.06,2.04
19.11,-0.17,9.04,2.00
19.12,-0.21,9.04,1.97
19.12,-0.22,9.01,1.96
19.12,-0.24,9.03,1.93
19.12,-0.32,9.04,1.92
19.13,-0.33,9.04,1.88
19.13,-0.37,9.00,1.88
19.13,-0.36,9.01,1.86
19.13,-0.41,9.04,1.88
19.14,-0.44,9.03,1.95
19.14,-0.48,9.00,1.93
19.14,-0.47,9.03,1.98
19.14,-0.51,8.99,2.05
19.15,-0.56,8.91,2.04
19.15,-0.56,8.91,2.06
19.15,-0.53,8.85,2.10
19.15,-0.52,8.86,2.06
19.16,-0.54,8.88,2.07
19.16,-0.52,8.90,2.04
19.16,-0.53,8.89,2.03
19.16,-0.49,8.90,1.99
19.17,-0.45,8.94,1.95
19.17,-0.39,8.93,1.95
19.17,-0.36,8.94,1.88
19.17,-0.39,8.96,1.82
19.18,-0.37,9.00,1.77
19.18,-0.38,9.03,1.80
19.18,-0.36,9.04,1.78
19.18,-0.35,9.00,1.66
19.19,-0.32,9.06,1.65
19.19,-0.32,9.10,1.64
19.19,-0.32,9.11,1.61
19.19,-0.32,9.18,1.61
19.20,-0.33,9.21,1.65
19.20,-0.32,9.23,1.60
19.20,-0.33,9.24,1.66
19.20,-0.34,9.28,1.68
19.21,-0.36,9.27,1.70
19.21,-0.39,9.25,1.71
19.21,-0.44,9.25,1.70
19.21,-0.45,9.26,1.75
19.22,-0.47,9.25,1.79
19.22,-0.49,9.23,1.76
19.22,-0.47,9.24,1.81
19.22,-0.49,9.20,1.90
19.23,-0.52,9.17,1.87
19.23,-0.53,9.11,1.90
19.23,-0.57,9.13,1.95
19.23,-0.57,9.13,1.98
19.24,-0.58,9.12,1.98
19.24,-0.57,9.06,1.99
19.24,-0.57,9.06,2.06
19.24,-0.59,9.04,2.11
19.25,-0.61,9.09,2.13
19.25,-0.60,9.06,2.15
19.25,-0.59,9.06,2.15
19.25,-0.56,9.00,2.16
19.26,-0.55,9.02,2.15
19.26,-0.54,9.08,2.19
19.26,-0.51,9.04,2.16
19.26,-0.50,9.02,2.15
19.27,-0.48,9.06,2.14
19.27,-0.44,9.12,2.09
19.27,-0.46,9.05,2.07
19.27,-0.42,9.10,2.07
19.28,-0.37,9.15,2.04
19.28,-0.37,9.12,1.99
19.28,-0.36,9.15,1.99
19.28,-0.36,9.19,1.98
19.29,-0.28,9.20,1.94
19.29,-0.33,9.23,1.95
19.29,-0.32,9.27,1.93
19.29,-0.32,9.27,1.95
19.30,-0.33,9.28,1.95
19.30,-0.37,9.29,1.92
19.30,-0.36,9.30,1.94
19.30,-0.31,9.30,1.98
19.31,-0.32,9.26,1.94
19.31,-0.36,9.24,1.94
19.31,-0.32,9.29,1.94
19.31,-0.29,9.27,1.96
19.32,-0.28,9.26,1.97
19.32,-0.34,9.24,1.92
19.32,-0.35,9.23,1.93
19.32,-0.36,9.21,1.88
19.33,-0.35,9.22,1.92
19.33,-0.35,9.20,1.96
19.33,-0.37,9.19,1.99
19.33,-0.38,9.19,2.05
19.34,-0.36,9.25,2.07
19.34,-0.37,9.23,2.04
19.34,-0.34,9.24,1.99
19.34,-0.32,9.24,1.98
19.35,-0.29,9.24,1.98
19.35,-0.27,9.25,2.05
19.35,-0.26,9.22,2.16
19.35,-0.28,9.21,2.25
19.36,-0.25,9.23,2.40
19.36,-0.22,9.16,2.52
19.36,-0.26,9.16,2.58
19.36,-0.26,9.14,2.66
19.37,-0.21,9.16,2.72
19.37,-0.19,9.14,2.75
19.37,-0.24,9.14,2.77
19.37,-0.26,9.13,2.74
19.38,-0.23,9.12,2.67
19.38,-0.30,9.13,2.64
19.38,-0.35,9.09,2.62
19.38,-0.36,9.08,2.56
19.39,-0.37,9.09,2.63
19.39,-0.38,9.08,2.75
19.39,-0.36,9.06,2.72
19.39,-0.35,9.04,2.81
19.40,-0.38,9.00,2.79
19.40,-0.40,9.02,2.81
19.40,-0.45,9.03,2.83
19.40,-0.47,9.02,2.85
19.41,-0.53,9.00,2.83
19.41,-0.56,9.00,2.85
19.41,-0.54,8.97,2.87
19.41,-0.53,8.88,2.94
19.42,-0.59,8.84,2.86
19.42,-0.56,8.89,2.87
19.42,-0.62,8.88,2.85
19.42,-0.62,8.80,2.90
19.43,-0.65,8.76,2.92
19.43,-0.67,8.77,2.98
19.43,-0.69,8.75,2.99
19.43,-0.71,8.74,3.02
19.44,-0.72,8.72,3.08
19.44,-0.72,8.73,3.12
19.44,-0.72,8.74,3.15
19.44,-0.74,8.69,3.24
19.45,-0.64,8.63,3.21
19.45,-0.54,8.64,3.22
19.45,-0.53,8.67,3.29
19.45,-0.55,8.70,3.29
19.46,-0.62,8.78,3.32
19.46,-0.60,8.83,3.36
19.46,-0.61,8.97,3.40
19.46,-0.68,9.00,3.37
19.47,-0.62,9.03,3.30
19.47,-0.61,9.07,3.27
19.47,-0.55,9.12,3.24
19.47,-0.50,9.15,3.13
19.48,-0.48,9.20,3.14
19.48,-0.46,9.24,3.12
19.48,-0.41,9.27,3.04
19.48,-0.38,9.36,3.01
19.49,-0.36,9.27,3.03
19.49,-0.39,9.28,2.98
19.49,-0.39,9.30,2.94
19.49,-0.36,9.27,2.96
19.50,-0.43,9.26,2.94
19.50,-0.45,9.28,2.93
19.50,-0.44,9.27,2.90
19.50,-0.49,9.18,2.89
19.51,-0.51,9.15,2.81
19.51,-0.55,9.14,2.73
19.51,-0.59,9.08,2.69
19.51,-0.68,9.05,2.67
19.52,-0.64,8.98,2.67
19.52,-0.64,8.94,2.75
19.52,-0.68,8.93,2.74
19.52,-0.72,8.91,2.73
19.53,-0.73,8.88,2.76
19.53,-0.80,8.85,2.82
19.53,-0.87,8.86,2.79
19.53,-0.91,8.85,2.76
19.54,-1.01,8.87,2.80
19.54,-1.05,8.90,2.82
19.54,-1.02,8.88,2.83
19.54,-1.05,8.91,2.85
19.55,-1.07,8.92,2.82
19.55,-1.11,8.95,2.85
19.55,-1.13,8.96,2.85
19.55,-1.11,8.99,2.88
19.56,-1.11,8.96,2.89
19.56,-1.10,9.03,2.89
19.56,-1.05,9.01,2.91
19.56,-1.03,9.07,2.88
19.57,-1.01,9.13,2.93
19.57,-1.01,9.11,2.89
19.57,-0.98,9.16,2.86
19.57,-0.97,9.20,2.92
19.58,-0.91,9.23,2.87
19.58,-0.85,9.28,2.84
19.58,-0.83,9.28,2.84
19.58,-0.80,9.30,2.82
19.59,-0.73,9.39,2.82
19.59,-0.65,9.38,2.84
19.59,-0.55,9.37,2.83
19.59,-0.48,9.38,2.82
19.60,-0.43,9.34,2.76
19.60,-0.42,9.32,2.67
19.60,-0.38,9.33,2.58
19.60,-0.38,9.31,2.49
19.61,-0.33,9.23,2.45
19.61,-0.26,9.19,2.42
19.61,-0.27,9.15,2.42
19.61,-0.21,9.10,2.39
19.62,-0.22,9.06,2.32
19.62,-0.27,9.00,2.31
19.62,-0.25,8.96,2.32
19.62,-0.26,8.95,2.32
19.63,-0.29,8.94,2.31
19.63,-0.30,8.88,2.34
19.63,-0.38,8.89,2.44
19.63,-0.43,8.87,2.44
19.64,-0.48,8.90,2.42
19.64,-0.47,8.90,2.47
19.64,-0.47,8.90,2.59
19.64,-0.48,8.92,2.57
19.65,-0.50,8.91,2.58
19.65,-0.50,8.96,2.65
19.65,-0.46,8.94,2.70
19.65,-0.47,8.88,2.69
19.66,-0.45,8.88,2.70
19.66,-0.46,8.91,2.73
19.66,-0.49,8.93,2.72
19.66,-0.49,8.91,2.73
19.67,-0.54,8.89,2.76
19.67,-0.46,8.89,2.76
19.67,-0.48,8.91,2.82
19.67,-0.54,8.88,2.82
19.68,-0.54,8.83,2.83
19.68,-0.55,8.78,2.88
19.68,-0.56,8.75,2.82
19.68,-0.63,8.74,2.76
19.69,-0.62,8.70,2.69
19.69,-0.65,8.66,2.81
19.69,-0.67,8.65,2.79
19.69,-0.68,8.63,2.74
19.70,-0.67,8.64,2.79
19.70,-0.60,8.56,2.75
19.70,-0.60,8.54,2.79
19.70,-0.61,8.54,2.84
19.71,-0.60,8.59,2.95
19.71,-0.53,8.51,2.89
19.71,-0.52,8.51,2.94
19.71,-0.58,8.53,3.00
19.72,-0.56,8.59,3.00
19.72,-0.54,8.61,3.03
19.72,-0.57,8.64,3.18
19.72,-0.55,8.69,3.26
19.73,-0.51,8.69,3.29
19.73,-0.56,8.72,3.27
19.73,-0.60,8.77,3.22
19.73,-0.60,8.82,3.18
19.74,-0.58,8.87,3.26
19.74,-0.52,8.93,3.28
19.74,-0.50,8.97,3.29
19.74,-0.48,9.00,3.30
19.75,-0.43,9.02,3.26
19.75,-0.48,9.07,3.24
19.75,-0.45,9.06,3.11
19.75,-0.40,9.12,3.11
19.76,-0.42,9.09,3.06
19.76,-0.37,9.15,3.11
19.76,-0.34,9.12,2.99
19.76,-0.33,9.08,3.02
19.77,-0.36,9.05,3.05
19.77,-0.29,9.01,2.99
19.77,-0.26,9.06,2.97
19.77,-0.23,9.01,2.91
19.78,-0.21,8.97,2.84
19.78,-0.20,8.96,2.82
19.78,-0.23,8.96,2.81
19.78,-0.24,8.92,2.86
19.79,-0.24,8.90,2.82
19.79,-0.21,8.94,2.79
19.79,-0.26,8.94,2.80
19.79,-0.27,8.94,2.78
19.80,-0.26,8.90,2.75
19.80,-0.33,8.88,2.73
19.80,-0.29,8.87,2.74
19.80,-0.26,8.82,2.75
19.81,-0.33,8.85,2.75
19.81,-0.36,8.85,2.78
19.81,-0.40,8.84,2.80
19.81,-0.48,8.80,2.82
19.82,-0.46,8.84,2.89
19.82,-0.48,8.79,2.91
19.82,-0.54,8.74,2.86
19.82,-0.54,8.71,2.84
19.83,-0.60,8.72,2.84
19.83,-0.64,8.68,2.86
19.83,-0.62,8.67,2.83
19.83,-0.66,8.68,2.81
19.84,-0.67,8.64,2.80
19.84,-0.68,8.65,2.84
19.84,-0.65,8.62,2.82
19.84,-0.57,8.57,2.86
19.85,-0.51,8.62,2.88
19.85,-0.55,8.58,2.94
19.85,-0.55,8.55,2.98
19.85,-0.56,8.56,3.01
19.86,-0.61,8.52,2.96
19.86,-0.59,8.48,2.99
19.86,-0.61,8.49,3.02
19.86,-0.66,8.50,3.09
19.87,-0.66,8.48,3.12
19.87,-0.69,8.50,3.12
19.87,-0.78,8.53,3.18
19.87,-0.80,8.58,3.22
19.88,-0.82,8.58,3.26
19.88,-0.82,8.60,3.25
19.88,-0.83,8.66,3.31
19.88,-0.84,8.67,3.33
19.89,-0.90,8.69,3.28
19.89,-0.93,8.71,3.25
19.89,-0.92,8.76,3.21
19.89,-0.93,8.81,3.22
19.90,-0.99,8.82,3.21
19.90,-0.98,8.86,3.13
19.90,-1.00,8.90,3.13
19.90,-1.01,8.90,3.01
19.91,-1.02,8.91,2.98
19.91,-1.02,8.93,2.96
19.91,-0.99,8.90,2.94
19.91,-0.99,8.94,2.88
19.92,-0.96,8.97,2.88
19.92,-0.95,8.91,2.94
19.92,-0.98,8.89,2.94
19.92,-0.93,8.96,2.85
19.93,-0.95,8.91,2.87
19.93,-1.00,8.89,2.95
19.93,-1.01,8.88,2.96
19.93,-1.00,8.81,2.91
19.94,-1.06,8.74,2.90
19.94,-1.04,8.73,2.87
19.94,-1.08,8.68,2.92
19.94,-1.00,8.63,2.90
19.95,-0.96,8.55,2.86
19.95,-1.03,8.54,2.81
19.95,-0.99,8.45,2.82
19.95,-0.91,8.43,2.78
19.96,-0.84,8.41,2.77
19.96,-0.81,8.41,2.78
19.96,-0.72,8.34,2.83
19.96,-0.66,8.36,2.88
19.97,-0.63,8.42,2.97
19.97,-0.59,8.45,3.07
19.97,-0.60,8.44,3.11
19.97,-0.64,8.48,3.20
19.98,-0.60,8.52,3.25
19.98,-0.65,8.54,3.26
19.98,-0.67,8.57,3.33
19.98,-0.59,8.63,3.41
19.99,-0.52,8.68,3.41
19.99,-0.47,8.73,3.39
19.99,-0.49,8.80,3.40
19.99,-0.49,8.89,3.33
20.00,-0.37,8.95,3.33
20.00,-0.37,8.97,3.28
20.00,-0.42,8.98,3.25
20.00,-0.41,9.08,3.14
20.01,-0.48,9.16,3.17
20.01,-0.58,9.15,3.29
20.01,-0.65,9.18,3.28
20.01,-0.71,9.23,3.21
20.02,-0.85,9.25,3.20
20.02,-0.95,9.27,3.13
20.02,-0.97,9.28,3.05
20.02,-1.00,9.35,3.05
20.03,-1.07,9.38,2.99
20.03,-1.15,9.42,2.99
20.03,-1.23,9.41,3.05
20.03,-1.21,9.41,2.97
20.04,-1.23,9.43,2.95
20.04,-1.25,9.50,3.02
20.04,-1.26,9.49,3.11
20.04,-1.33,9.51,3.08
20.05,-1.37,9.55,3.15
20.05,-1.44,9.57,3.20
20.05,-1.54,9.65,3.25
20.05,-1.64,9.68,3.37
20.06,-1.68,9.69,3.49
20.06,-1.71,9.75,3.54
20.06,-1.67,9.76,3.61
20.06,-1.68,9.79,3.68
20.07,-1.67,9.83,3.73
20.07,-1.61,9.91,3.83
20.07,-1.55,9.97,3.87
20.07,-1.45,10.08,3.89
20.08,-1.32,10.14,3.84
20.08,-1.23,10.23,3.85
20.08,-1.10,10.28,3.83
20.08,-0.92,10.34,3.75
20.09,-0.76,10.41,3.65
20.09,-0.59,10.42,3.67
20.09,-0.54,10.46,3.64
20.09,-0.44,10.44,3.63
20.10,-0.36,10.42,3.58
20.10,-0.29,10.44,3.53
20.10,-0.21,10.42,3.46
20.10,-0.18,10.33,3.44
20.11,-0.16,10.20,3.41
20.11,-0.14,10.12,3.40
20.11,-0.11,10.02,3.37
20.11,-0.15,9.91,3.31
20.12,-0.15,9.74,3.27
20.12,-0.14,9.65,3.29
20.12,-0.20,9.53,3.29
20.12,-0.25,9.39,3.27
20.13,-0.32,9.33,3.30
20.13,-0.37,9.23,3.27
20.13,-0.42,9.18,3.30
20.13,-0.43,9.10,3.27
20.14,-0.50,9.08,3.30
20.14,-0.47,9.03,3.43
20.14,-0.49,8.98,3.41
20.14,-0.47,8.97,3.48
20.15,-0.44,9.03,3.56
20.15,-0.49,9.06,3.64
20.15,-0.42,9.12,3.67
20.15,-0.39,9.20,3.75
20.16,-0.37,9.27,3.86
20.16,-0.35,9.34,3.96
20.16,-0.31,9.47,4.02
20.16,-0.33,9.56,4.07
20.17,-0.34,9.70,4.14
20.17,-0.33,9.74,4.22
20.17,-0.37,9.85,4.22
20.17,-0.40,9.92,4.24
20.18,-0.43,9.92,4.25
20.18,-0.47,9.98,4.28
20.18,-0.50,9.98,4.26
20.18,-0.58,9.97,4.22
20.19,-0.64,9.98,4.16
20.19,-0.69,10.01,4.15
20.19,-0.75,9.96,4.07
20.19,-0.79,9.95,3.95
20.20,-0.90,9.91,3.95
20.20,-0.95,9.84,3.91
20.20,-1.02,9.79,3.83
20.20,-1.03,9.73,3.73
20.21,-1.12,9.69,3.61
20.21,-1.17,9.60,3.52
20.21,-1.25,9.56,3.51
20.21,-1.35,9.48,3.43
20.22,-1.43,9.43,3.29
20.22,-1.46,9.40,3.27
20.22,-1.50,9.34,3.20
20.22,-1.48,9.30,3.23
20.23,-1.51,9.29,3.18
20.23,-1.53,9.18,3.14
20.23,-1.54,9.14,3.14
20.23,-1.54,9.06,3.08
20.24,-1.51,8.99,3.04
20.24,-1.48,8.93,2.99
20.24,-1.51,8.82,2.92
20.24,-1.52,8.78,2.95
20.25,-1.48,8.71,2.95
20.25,-1.47,8.59,2.93
20.25,-1.40,8.46,2.95
20.26,-1.32,8.33,2.98
20.26,-1.28,8.27,2.97
20.26,-1.27,8.23,3.04
20.26,-1.26,8.21,3.16
20.27,-1.22,8.15,3.32
20.27,-1.17,8.08,3.40
20.27,-1.22,8.05,3.51
20.27,-1.15,8.07,3.55
20.28,-1.05,8.15,3.50
20.28,-0.92,8.23,3.52
20.28,-0.77,8.25,3.55
20.28,-0.66,8.25,3.56
20.29,-0.58,8.24,3.58
20.29,-0.47,8.28,3.58
20.29,-0.39,8.23,3.65
20.29,-0.31,8.21,3.60
20.30,-0.18,8.09,3.57
20.30,-0.23,8.01,3.51
20.30,-0.31,7.95,3.50
20.30,-0.34,7.90,3.46
20.31,-0.30,7.90,3.39
20.31,-0.20,7.77,3.26
20.31,-0.08,7.73,2.98
20.31,-0.15,7.53,2.27
20.32,-0.11,7.44,1.89
20.32,-0.07,7.47,1.66
20.32,0.04,7.46,1.43
20.32,0.08,7.53,1.06
20.33,0.17,7.52,0.77
20.33,0.26,7.55,0.48
20.33,0.16,7.57,0.20
20.33,0.12,7.57,0.03
20.34,0.02,7.55,-0.18
20.34,-0.17,7.58,-0.57
20.34,-0.56,7.65,-0.93
20.34,-0.83,7.71,-1.21
20.35,-1.34,7.80,-1.53
20.35,-1.86,8.00,-1.83
20.35,-2.23,8.15,-2.23
20.35,-2.43,8.17,-2.73
20.36,-2.52,8.31,-3.17
20.36,-2.45,8.51,-3.56
20.36,-2.47,8.69,-3.90
20.36,-2.48,8.80,-4.03
20.37,-2.46,8.92,-4.04
20.37,-2.25,9.04,-3.90
20.37,-2.03,9.05,-3.63
20.37,-1.83,9.13,-3.41
20.38,-1.57,9.29,-3.07
20.38,-1.25,9.51,-2.57
20.38,-1.16,9.55,-2.10
20.38,-1.13,9.61,-1.74
20.39,-1.10,9.66,-1.41
20.39,-1.06,9.67,-0.89
20.39,-1.01,9.71,-0.31
20.39,-0.90,9.73,0.18
20.40,-0.83,9.76,0.44
20.40,-1.12,9.97,0.75
20.40,-1.48,10.46,1.47
20.40,-1.54,10.93,2.35
20.41,-1.37,11.15,3.20
20.41,-1.17,11.40,4.10
20.41,-0.96,11.72,4.96
20.41,-0.78,11.95,5.46
20.42,-0.53,12.15,5.62
20.42,-0.23,12.38,5.69
20.42,0.06,12.60,5.37
20.42,0.36,12.81,4.86
20.43,0.51,12.97,4.43
20.43,0.50,13.13,3.94
20.43,0.44,13.21,3.68
20.43,0.38,13.16,3.57
20.44,0.30,13.00,3.51
20.44,0.16,12.90,3.40
20.44,-0.04,12.77,3.45
20.44,-0.13,12.52,3.42
20.45,-0.12,12.11,3.23
20.45,-0.10,11.74,3.02
20.45,0.05,11.19,2.72
20.45,0.21,10.73,2.49
20.46,0.43,10.37,2.32
20.46,0.66,9.92,2.11
20.46,0.94,9.50,1.89
20.46,1.17,9.23,1.73
20.47,1.49,8.91,1.64
20.47,1.78,8.59,1.58
20.47,2.15,8.23,1.55
20.47,2.50,7.95,1.56
20.48,2.77,7.54,1.41
20.48,3.18,7.17,1.02
20.48,3.56,6.94,1.05
20.48,3.90,6.77,1.31
20.49,4.14,6.60,1.61
20.49,4.30,6.48,2.19
20.49,4.45,6.43,2.84
20.49,4.39,6.44,3.39
20.50,4.29,6.45,3.84
20.50,4.13,6.55,4.27
20.50,3.90,6.68,4.71
20.50,3.69,6.86,5.10
20.51,3.46,7.08,5.42
20.51,3.24,7.26,5.66
20.51,3.01,7.46,5.86
20.51,2.86,7.61,6.03
20.52,2.79,7.77,6.14
20.52,2.67,7.86,6.21
20.52,2.64,7.89,6.30
20.52,2.60,7.94,6.34
20.53,2.60,7.95,6.22
20.53,2.64,7.91,6.19
20.53,2.71,7.82,6.14
20.53,2.84,7.70,5.95
20.54,2.97,7.58,5.89
20.54,3.10,7.44,5.79
20.54,3.20,7.34,5.56
20.54,3.29,7.20,5.40
20.55,3.36,7.08,5.29
20.55,3.40,6.90,5.12
20.55,3.52,6.72,4.89
20.55,3.61,6.58,4.78
20.56,3.70,6.42,4.64
20.56,3.81,6.34,4.56
20.56,3.83,6.21,4.58
20.56,3.89,6.09,4.70
20.57,3.93,6.01,4.87
20.57,3.96,5.91,4.99
20.57,3.96,5.74,5.12
20.57,3.91,5.58,5.26
20.58,3.91,5.46,5.40
20.58,3.95,5.39,5.54
20.58,3.91,5.32,5.66
20.58,3.92,5.24,5.84
20.59,4.04,5.20,5.84
20.59,4.26,5.17,5.67
20.59,4.53,5.07,5.52
20.59,4.88,4.97,5.30
20.60,5.23,4.98,5.35
20.60,5.46,5.08,5.70
20.60,5.58,5.16,6.18
20.60,5.60,5.39,6.48
20.61,5.54,5.64,6.75
20.61,5.51,5.83,6.95
20.61,5.47,6.08,7.13
20.61,5.42,6.35,7.26
20.62,5.40,6.53,7.40
20.62,5.41,6.70,7.56
20.62,5.45,6.97,7.73
20.62,5.62,7.19,7.98
20.63,5.84,7.37,8.21
20.63,6.10,7.59,8.44
20.63,6.30,7.81,8.55
20.63,6.40,7.97,8.52
20.64,6.49,8.15,8.40
20.64,6.50,8.30,8.13
20.64,6.54,8.53,7.84
20.64,6.51,8.72,7.48
20.65,6.39,8.94,7.19
20.65,6.21,9.13,6.89
20.65,6.00,9.23,6.60
20.65,5.73,9.29,6.36
20.66,5.42,9.26,6.16
20.66,5.05,9.17,5.97
20.66,4.75,9.00,5.71
20.66,4.42,8.83,5.51
20.67,4.12,8.61,5.28
20.67,3.83,8.45,4.87
20.67,3.52,8.34,4.52
20.67,3.18,8.18,4.12
20.68,2.88,8.04,3.65
20.68,2.45,7.89,3.14
20.68,2.01,7.69,2.55
20.68,1.51,7.52,1.90
20.69,0.99,7.41,1.17
20.69,0.41,7.19,0.32
20.69,-0.12,7.06,-0.42
20.69,-0.61,6.93,-1.06
20.70,-1.13,6.92,-1.70
20.70,-1.66,7.11,-2.37
20.70,-2.16,7.55,-3.12
20.70,-2.52,8.18,-3.72
20.71,-2.84,9.09,-4.15
20.71,-2.93,10.14,-4.47
20.71,-2.70,11.24,-4.66
20.71,-2.08,12.26,-4.73
20.72,-1.11,13.17,-4.58
20.72,-0.16,13.86,-4.28
20.72,0.55,14.39,-3.73
20.72,0.90,14.73,-3.08
20.73,0.94,14.90,-2.35
20.73,0.89,14.97,-1.53
20.73,0.74,14.88,-0.73
20.73,0.52,14.56,0.03
20.74,0.42,14.05,0.71
20.74,0.34,13.31,1.39
20.74,0.42,12.44,1.86
20.74,0.58,11.52,2.24
20.75,0.81,10.66,2.56
20.75,0.93,10.01,2.72
20.75,0.96,9.53,2.82
20.75,0.77,9.25,2.78
20.76,0.48,9.28,2.70
20.76,0.02,9.31,2.59
20.76,-0.43,9.27,2.47
20.76,-0.76,9.21,2.29
20.77,-1.07,9.18,2.06
20.77,-1.40,9.13,1.91
20.77,-1.73,9.16,1.79
20.77,-2.02,9.28,1.67
20.78,-2.30,9.30,1.52
20.78,-2.40,9.24,1.33
20.78,-2.56,9.39,1.17
20.78,-2.78,9.63,1.02
20.79,-2.91,9.81,0.98
20.79,-2.86,9.88,0.95
20.79,-2.79,9.87,0.89
20.79,-2.80,9.90,0.97
20.80,-2.75,9.86,1.12
20.80,-2.66,9.87,1.38
20.80,-2.65,9.85,1.70
20.80,-2.69,9.80,2.13
20.81,-2.75,9.75,2.53
20.81,-2.91,9.72,2.82
20.81,-2.99,9.70,2.96
20.81,-3.08,9.73,3.04
20.82,-3.19,9.78,3.06
20.82,-3.27,9.88,3.00
20.82,-3.42,10.10,2.94
20.82,-3.54,10.32,2.92
20.83,-3.68,10.52,2.82
20.83,-3.73,10.74,2.70
20.83,-3.69,11.00,2.68
20.83,-3.55,11.19,2.69
20.84,-3.19,11.35,2.60
20.84,-2.76,11.51,2.47
20.84,-2.31,11.64,2.41
20.84,-1.81,11.80,2.28
20.85,-1.39,11.92,2.13
20.85,-1.10,12.04,1.94
20.85,-0.72,12.17,1.66
20.85,-0.35,12.30,1.42
20.86,-0.11,12.42,1.31
20.86,0.07,12.58,1.14
20.86,0.30,12.68,1.04
20.86,0.48,12.71,1.01
20.87,0.56,12.76,0.91
20.87,0.63,12.77,0.80
20.87,0.55,12.71,0.80
20.87,0.48,12.60,0.90
20.88,0.26,12.44,1.04
20.88,-0.17,12.18,1.21
20.88,-0.54,11.89,1.31
20.88,-0.82,11.58,1.56
20.89,-1.04,11.27,1.54
20.89,-1.08,11.10,1.10
20.89,-1.08,10.92,0.78
20.89,-1.20,10.55,0.88
20.90,-1.45,10.25,0.87
20.90,-1.65,9.87,0.79
20.90,-1.68,9.51,0.72
20.90,-1.58,9.09,0.87
20.91,-1.37,8.82,1.05
20.91,-1.09,8.49,1.06
20.91,-0.94,8.16,1.15
20.91,-0.92,8.01,1.25
20.92,-1.01,7.85,1.41
20.92,-1.22,7.74,1.67
20.92,-1.30,7.63,1.91
20.92,-1.43,7.54,2.04
20.93,-1.51,7.44,2.19
20.93,-1.50,7.37,2.28
20.93,-1.48,7.27,2.33
20.93,-1.50,7.18,2.44
20.94,-1.48,7.16,2.53
20.94,-1.49,7.13,2.72
20.94,-1.44,7.06,2.91
20.94,-1.44,7.05,3.15
20.95,-1.48,7.17,3.41
20.95,-1.48,7.26,3.51
20.95,-1.42,7.41,3.66
20.95,-1.26,7.49,3.91
20.96,-0.94,7.64,4.22
20.96,-0.52,7.82,4.52
20.96,-0.09,7.96,4.75
20.96,0.32,8.05,4.97
20.97,0.79,8.19,5.15
20.97,1.12,8.31,5.22
20.97,1.38,8.31,5.25
20.97,1.64,8.40,5.35
20.98,1.83,8.40,5.27
20.98,2.10,8.39,5.16
20.98,2.23,8.37,4.87
20.98,2.28,8.34,4.59
20.99,2.20,8.34,4.37
20.99,1.93,8.53,3.98
20.99,1.57,8.61,3.61
20.99,1.38,8.49,3.33
21.00,1.11,8.51,3.05
21.00,0.93,8.60,2.58
21.00,0.80,8.61,2.22
21.00,0.57,8.58,1.89
21.01,0.34,8.57,1.56
21.01,0.08,8.55,1.24
21.01,-0.15,8.57,1.01
21.01,-0.28,8.61,0.87
21.02,-0.47,8.57,0.79
21.02,-0.69,8.59,0.85
21.02,-0.75,8.67,1.00
21.02,-0.77,8.71,1.31
21.03,-0.90,8.64,1.63
21.03,-1.01,8.57,1.93
21.03,-1.12,8.49,2.19
21.03,-1.19,8.40,2.58
21.04,-1.31,8.36,2.94
21.04,-1.41,8.38,3.28
21.04,-1.48,8.42,3.67
21.04,-1.61,8.38,3.95
21.05,-1.72,8.42,4.16
21.05,-1.79,8.46,4.49
21.05,-1.76,8.49,4.73
21.05,-1.70,8.44,4.93
21.06,-1.67,8.44,4.99
21.06,-1.66,8.46,4.95
21.06,-1.62,8.47,4.95
21.06,-1.56,8.49,4.91
21.07,-1.50,8.48,4.85
21.07,-1.42,8.45,4.74
21.07,-1.31,8.41,4.74
21.07,-1.16,8.30,4.67
21.08,-1.07,8.25,4.56
21.08,-0.97,8.17,4.37
21.08,-0.82,8.00,4.25
21.08,-0.71,7.87,4.04
21.09,-0.60,7.82,3.83
21.09,-0.44,7.74,3.61
21.09,-0.37,7.64,3.49
21.09,-0.28,7.67,3.47
21.10,-0.16,7.77,3.40
21.10,-0.13,7.76,3.29
21.10,-0.07,7.86,3.26
21.10,0.08,7.93,3.22
21.11,0.14,8.05,3.18
21.11,0.19,8.13,3.10
21.11,0.24,8.18,3.03
21.11,0.26,8.30,2.96
21.12,0.30,8.42,2.91
21.12,0.37,8.48,2.96
21.12,0.35,8.60,2.99
21.12,0.32,8.69,3.06
21.13,0.28,8.77,3.06
21.13,0.13,8.86,3.03
21.13,-0.02,8.98,2.99
21.13,-0.17,9.13,3.03
21.14,-0.24,9.24,3.16
21.14,-0.34,9.30,3.24
21.14,-0.55,9.40,3.19
21.14,-0.69,9.52,3.26
21.15,-0.74,9.64,3.39
21.15,-0.72,9.70,3.53
21.15,-0.81,9.71,3.59
21.15,-0.91,9.71,3.56
21.16,-0.93,9.69,3.74
21.16,-0.92,9.63,3.85
21.16,-0.94,9.60,4.08
21.16,-0.96,9.56,4.28
21.17,-1.00,9.51,4.47
21.17,-1.11,9.49,4.53
21.17,-1.35,9.47,4.58
21.17,-1.45,9.50,4.70
21.18,-1.71,9.45,4.58
21.18,-1.91,9.30,4.41
21.18,-1.93,9.19,4.32
21.18,-1.94,9.10,4.23
21.19,-1.99,9.01,4.20
21.19,-1.94,8.86,4.52
21.19,-1.94,8.71,4.72
21.19,-1.90,8.54,4.97
21.20,-1.75,8.39,5.13
21.20,-1.64,8.24,5.28
21.20,-1.60,8.05,5.26
21.20,-1.52,7.85,5.21
21.21,-1.35,7.63,5.12
21.21,-1.27,7.43,4.92
21.21,-1.15,7.26,4.69
21.21,-1.03,7.13,4.53
21.22,-0.89,7.02,4.48
21.22,-0.77,6.91,4.38
21.22,-0.64,6.93,4.21
21.22,-0.52,6.94,4.18
21.23,-0.46,7.03,4.14
21.23,-0.38,7.14,4.18
21.23,-0.26,7.24,4.19
21.23,-0.15,7.37,4.14
21.24,0.04,7.49,4.13
21.24,0.17,7.59,4.16
21.24,0.35,7.75,4.18
21.24,0.56,7.94,4.33
21.25,0.63,8.05,4.39
21.25,0.70,8.20,4.47
21.25,0.84,8.31,4.52
21.25,0.94,8.52,4.49
21.26,0.97,8.68,4.47
21.26,1.09,8.72,4.54
21.26,1.23,8.79,4.57
21.26,1.37,8.82,4.57
21.27,1.47,8.94,4.53
21.27,1.59,8.98,4.55
21.27,1.67,8.97,4.51
21.27,1.70,8.96,4.52
21.28,1.71,9.00,4.51
21.28,1.68,9.04,4.53
21.28,1.63,9.11,4.49
21.28,1.54,9.18,4.51
21.29,1.53,9.24,4.49
21.29,1.45,9.28,4.45
21.29,1.32,9.33,4.47
21.29,1.27,9.31,4.47
21.30,1.14,9.35,4.49
21.30,1.04,9.42,4.47
21.30,0.93,9.44,4.45
21.30,0.88,9.49,4.50
21.31,0.83,9.57,4.55
21.31,0.75,9.59,4.54
21.31,0.70,9.62,4.52
21.31,0.61,9.74,4.54
21.32,0.53,9.71,4.55
21.32,0.55,9.71,4.57
21.32,0.54,9.75,4.53
21.32,0.50,9.80,4.47
21.33,0.47,9.80,4.45
21.33,0.43,9.84,4.45
21.33,0.43,9.89,4.46
21.33,0.42,9.87,4.45
21.34,0.37,9.86,4.43
21.34,0.32,9.81,4.48
21.34,0.38,9.76,4.53
21.34,0.46,9.70,4.48
21.35,0.55,9.64,4.53
21.35,0.64,9.58,4.58
21.35,0.70,9.55,4.56
21.35,0.78,9.55,4.59
21.36,0.88,9.53,4.65
21.36,0.93,9.55,4.64
21.36,0.99,9.57,4.55
21.36,1.00,9.59,4.49
21.37,0.99,9.61,4.45
21.37,1.03,9.62,4.44
21.37,1.03,9.68,4.44
21.37,1.07,9.83,4.38
21.38,1.16,9.92,4.32
21.38,1.30,9.94,4.43
21.38,1.48,10.02,4.41
21.38,1.61,10.10,4.39
21.39,1.75,10.15,4.37
21.39,1.91,10.11,4.38
21.39,1.96,10.08,4.34
21.39,2.01,10.04,4.26
21.40,2.05,10.07,4.17
21.40,2.00,10.06,4.04
21.40,1.82,10.19,3.94
21.40,1.67,10.19,3.81
21.41,1.50,10.20,3.65
21.41,1.34,10.24,3.54
21.41,1.14,10.26,3.44
21.41,0.96,10.24,3.34
21.42,0.71,10.25,3.11
21.42,0.49,10.23,2.98
21.42,0.21,10.16,2.88
21.42,-0.14,10.07,2.77
21.43,-0.41,9.96,2.70
21.43,-0.69,9.90,2.61
21.43,-0.96,9.83,2.46
21.43,-1.23,9.71,2.34
21.44,-1.53,9.63,2.24
21.44,-1.80,9.55,2.17
21.44,-2.06,9.45,2.12
21.45,-2.24,9.32,2.03
21.45,-2.46,9.19,1.96
21.45,-2.67,9.07,1.91
21.45,-2.81,8.95,1.83
21.45,-2.94,8.75,1.79
21.46,-3.06,8.58,1.84
21.46,-3.07,8.43,1.84
21.46,-3.11,8.28,1.86
21.46,-3.09,8.12,1.89
21.47,-3.10,7.99,1.86
21.47,-3.11,7.78,1.84
21.47,-3.07,7.62,1.89
21.47,-3.05,7.52,1.87
21.48,-2.93,7.35,1.88
21.48,-2.85,7.23,1.93
21.48,-2.68,7.09,1.96
21.48,-2.53,6.96,1.98
21.49,-2.38,6.84,1.98
21.49,-2.25,6.76,1.89
21.49,-2.09,6.63,1.74
21.49,-1.95,6.49,1.60
21.50,-1.88,6.33,1.46
21.50,-1.83,6.17,1.45
21.50,-1.81,6.08,1.34
21.50,-1.79,6.03,1.36
21.51,-1.78,5.85,1.41
21.51,-1.72,5.75,1.48
21.51,-1.68,5.80,1.57
21.51,-1.67,5.78,1.80
21.52,-1.73,5.70,1.84
21.52,-1.69,5.64,1.83
21.52,-1.50,5.58,1.80
21.52,-1.31,5.46,1.76
21.53,-1.19,5.50,1.55
21.53,-1.09,5.46,1.51
21.53,-0.91,5.53,1.46
21.53,-0.72,5.60,1.30
21.54,-0.47,5.69,1.13
21.54,-0.29,5.88,0.80
21.54,-0.09,6.11,0.38
21.54,0.01,6.48,-0.02
21.55,0.05,6.78,-0.34
21.55,0.20,7.08,-0.63
21.55,0.20,7.39,-0.96
21.55,0.12,7.67,-1.46
21.56,0.00,8.04,-1.90
21.56,-0.25,8.47,-2.42
21.56,-0.47,8.91,-2.86
21.56,-0.56,9.32,-3.03
21.57,-0.72,9.62,-3.09
21.57,-0.76,9.92,-2.96
21.57,-0.83,10.25,-2.76
21.57,-0.96,10.42,-2.54
21.58,-0.92,10.56,-2.40
21.58,-0.57,10.79,-2.41
21.58,-0.15,10.92,-2.37
21.58,0.23,11.03,-2.36
21.59,0.53,11.15,-2.15
21.59,0.75,11.28,-1.73
21.59,1.07,11.31,-1.28
21.59,1.40,11.36,-0.82
21.60,1.72,11.40,-0.25
21.60,2.06,11.50,0.19
21.60,2.31,11.53,0.38
21.60,2.17,11.64,0.82
21.61,1.59,11.93,1.79
21.61,1.39,12.15,2.54
21.61,1.49,12.16,2.87
21.61,1.74,12.10,3.47
21.62,2.09,12.01,4.22
21.62,2.37,12.07,4.69
21.62,2.44,12.45,5.00
21.62,2.59,12.77,5.34
21.63,2.86,13.01,5.50
21.63,3.12,13.07,5.43
21.63,3.46,12.87,5.11
21.63,3.73,12.61,4.78
21.64,3.92,12.30,4.74
21.64,3.94,12.04,4.66
21.64,3.76,11.90,4.65
21.64,3.45,11.78,4.70
21.65,3.11,11.65,4.64
21.65,2.77,11.42,4.43
21.65,2.33,11.14,4.11
21.65,1.94,10.83,3.71
21.66,1.62,10.57,3.44
21.66,1.50,10.18,3.23
21.66,1.47,9.93,2.89
21.66,1.62,9.63,2.60
21.67,1.85,9.34,2.28
21.67,2.07,9.12,2.11
21.67,2.32,8.80,2.08
21.67,2.53,8.48,2.04
21.68,2.58,8.20,2.13
21.68,2.72,7.86,2.15
21.68,2.93,7.54,2.25
21.68,3.04,7.30,2.45
21.69,3.17,7.12,2.60
21.69,3.30,6.93,2.80
21.69,3.35,6.81,3.03
21.69,3.38,6.76,3.25
21.70,3.45,6.74,3.57
21.70,3.51,6.70,3.83
21.70,3.58,6.68,4.07
21.70,3.52,6.80,4.34
21.71,3.38,6.94,4.53
21.71,3.22,7.13,4.78
21.71,3.10,7.41,4.86
21.71,2.93,7.70,4.96
21.72,2.74,7.98,5.07
21.72,2.55,8.21,5.17
21.72,2.42,8.47,5.17
21.72,2.30,8.65,5.16
21.73,2.24,8.78,5.16
21.73,2.23,8.87,5.05
21.73,2.20,9.00,4.94
21.73,2.23,9.05,4.85
21.74,2.25,9.00,4.69
21.74,2.30,9.03,4.52
21.74,2.25,8.96,4.25
21.74,2.25,8.94,4.08
21.75,2.20,8.91,3.90
21.75,2.13,8.84,3.70
21.75,2.11,8.77,3.55
21.75,2.12,8.72,3.46
21.76,2.08,8.62,3.34
21.76,2.05,8.49,3.23
21.76,2.03,8.37,3.17
21.76,2.04,8.23,3.11
21.77,2.09,8.08,3.14
21.77,2.07,7.93,3.14
21.77,2.05,7.75,3.16
21.77,2.10,7.62,3.16
21.78,2.11,7.51,3.20
21.78,2.12,7.36,3.22
21.78,2.25,7.23,3.28
21.78,2.31,7.11,3.27
21.79,2.39,7.02,3.40
21.79,2.48,6.97,3.51
21.79,2.53,6.87,3.57
21.79,2.58,6.82,3.61
21.80,2.66,6.75,3.68
21.80,2.70,6.70,3.71
21.80,2.77,6.64,3.73
21.80,2.85,6.64,3.69
21.81,2.91,6.64,3.75
21.81,3.01,6.63,3.70
21.81,2.99,6.64,3.73
21.81,2.95,6.71,3.84
21.82,2.90,6.75,3.98
21.82,2.87,6.69,3.95
21.82,3.03,6.62,4.02
21.82,3.29,6.45,4.08
21.83,3.45,6.27,4.11
21.83,3.59,6.17,4.23
21.83,3.69,6.06,4.39
21.83,3.77,5.96,4.56
21.84,3.77,5.93,4.72
21.84,3.77,5.88,4.95
21.84,3.78,5.87,5.12
21.84,3.80,5.83,5.20
21.85,3.84,5.76,5.31
21.85,3.85,5.75,5.48
21.85,3.83,5.77,5.63
21.85,3.76,5.72,5.69
21.86,3.74,5.70,5.81
21.86,3.67,5.79,5.97
21.86,3.61,5.90,6.13
21.86,3.63,5.88,6.27
21.87,3.68,5.86,6.51
21.87,3.71,5.79,6.77
21.87,3.81,5.79,6.98
21.87,3.98,5.70,7.17
21.88,4.09,5.66,7.28
21.88,4.18,5.75,7.38
21.88,4.29,5.84,7.44
21.88,4.34,5.94,7.43
21.89,4.47,6.03,7.39
21.89,4.55,6.23,7.36
21.89,4.74,6.38,7.17
21.89,4.99,6.45,7.00
21.90,5.12,6.60,6.78
21.90,5.18,6.81,6.60
21.90,5.05,7.06,6.42
21.90,4.86,7.32,6.36
21.91,4.59,7.63,6.39
21.91,4.07,7.93,6.62
21.91,3.64,8.15,6.91
21.91,3.26,8.32,7.28
21.92,2.95,8.52,7.56
21.92,2.82,8.69,7.87
21.92,2.66,8.94,8.13
21.92,2.60,9.12,8.29
21.93,2.49,9.23,8.42
21.93,2.43,9.39,8.47
21.93,2.31,9.45,8.38
21.93,2.22,9.56,8.30
21.94,2.13,9.55,8.19
21.94,1.96,9.45,8.13
21.94,1.74,9.39,7.89
21.94,1.42,9.35,7.63
21.95,1.19,9.29,7.31
21.95,0.99,9.13,6.89
21.95,0.92,8.98,6.37
21.95,0.86,8.78,5.85
21.96,0.87,8.57,5.35
21.96,0.83,8.36,4.83
21.96,0.93,8.08,4.35
21.96,0.99,7.89,4.09
21.97,1.01,7.76,3.91
21.97,1.16,7.48,3.59
21.97,1.30,7.33,3.33
21.97,1.54,7.24,3.06
21.98,1.84,7.22,2.75
21.98,2.16,7.44,2.35
21.98,2.48,7.68,1.75
21.98,2.63,7.92,1.07
21.99,2.46,8.22,0.26
21.99,2.20,8.56,-0.48
21.99,1.73,9.01,-1.15
21.99,1.22,9.57,-1.74
22.00,0.70,10.27,-2.13
22.00,0.36,11.20,-2.27
22.00,-0.06,12.33,-2.25
22.00,-0.45,13.49,-2.25
22.01,-0.68,14.84,-2.09
22.01,-0.95,16.25,-1.90
22.01,-1.06,17.57,-1.58
22.01,-1.06,18.81,-1.13
22.02,-0.93,19.67,-0.75
22.02,-0.83,20.36,-0.36
22.02,-0.82,20.84,-0.09
22.02,-0.86,20.85,0.10
22.03,-0.84,20.38,0.32
22.03,-0.84,19.29,0.72
22.03,-1.00,17.78,1.27
22.03,-1.29,16.07,1.80
22.04,-1.53,14.41,2.29
22.04,-1.78,12.94,2.82
22.04,-2.03,11.73,3.22
22.04,-2.27,10.70,3.50
22.05,-2.58,9.87,3.53
22.05,-2.92,9.20,3.49
22.05,-3.19,8.63,3.40
22.05,-3.41,8.11,3.17
22.06,-3.47,7.73,2.87
22.06,-3.33,7.41,2.50
22.06,-3.04,7.00,2.20
22.06,-2.57,6.54,2.10
22.07,-2.16,6.19,2.00
22.07,-1.78,5.83,1.92
22.07,-1.43,5.62,1.86
22.07,-1.15,5.44,1.91
22.08,-0.90,5.27,2.03
22.08,-0.74,5.25,2.19
22.08,-0.64,5.36,2.48
22.08,-0.65,5.49,2.65
22.09,-0.65,5.68,2.79
22.09,-0.70,5.94,2.95
22.09,-0.64,6.20,3.11
22.09,-0.60,6.49,3.10
22.10,-0.61,6.86,3.08
22.10,-0.61,7.27,3.01
22.10,-0.59,7.77,2.87
22.10,-0.52,8.33,2.72
22.11,-0.44,8.93,2.63
22.11,-0.25,9.56,2.64
22.11,-0.09,10.16,2.61
22.11,0.02,10.80,2.66
22.12,0.19,11.42,2.72
22.12,0.28,12.11,2.85
22.12,0.38,12.79,2.92
22.12,0.54,13.49,3.02
22.13,0.59,14.12,3.18
22.13,0.60,14.72,3.25
22.13,0.63,15.27,3.29
22.13,0.65,15.70,3.39
22.14,0.61,16.10,3.43
22.14,0.51,16.44,3.45
22.14,0.42,16.68,3.49
22.14,0.26,16.81,3.52
22.15,0.19,16.83,3.56
22.15,0.02,16.78,3.65
22.15,-0.09,16.59,3.70
22.15,-0.17,16.18,3.77
22.16,-0.21,15.55,3.86
22.16,-0.11,14.77,3.86
22.16,0.08,13.83,3.93
22.16,0.41,12.90,4.11
22.17,0.65,12.07,4.20
22.17,0.79,11.24,4.24
22.17,0.86,10.56,4.16
22.17,0.84,9.95,4.01
22.18,0.79,9.45,3.75
22.18,0.69,9.02,3.55
22.18,0.53,8.67,3.38
22.18,0.35,8.40,3.27
22.19,0.20,8.09,3.11
22.19,0.04,7.83,2.96
22.19,-0.06,7.61,2.82
22.19,-0.04,7.39,2.70
22.20,-0.12,7.12,2.57
22.20,-0.19,6.85,2.46
22.20,-0.19,6.62,2.38
22.20,-0.22,6.45,2.28
22.21,-0.25,6.23,2.32
22.21,-0.26,6.05,2.38
22.21,-0.37,5.93,2.30
22.21,-0.38,5.76,2.32
22.22,-0.39,5.64,2.13
22.22,-0.20,5.68,1.36
22.22,-0.16,5.75,0.97
22.22,-0.34,5.73,0.96
22.23,-0.26,5.76,0.77
22.23,-0.10,5.82,0.62
22.23,0.00,5.90,0.58
22.23,0.06,5.97,0.56
22.24,0.27,6.03,0.52
22.24,0.59,6.15,0.33
22.24,0.88,6.24,0.04
22.24,1.11,6.37,-0.24
22.25,1.22,6.38,-0.38
22.25,1.11,6.43,-0.33
22.25,0.97,6.50,-0.12
22.25,0.93,6.63,0.18
22.26,1.01,6.78,0.58
22.26,1.27,6.93,0.89
22.26,1.48,7.15,1.27
22.26,1.73,7.38,1.44
22.27,1.92,7.48,1.48
22.27,1.90,7.65,1.50
22.27,1.88,7.79,1.40
22.27,1.87,7.92,1.37
22.28,1.79,8.09,1.36
22.28,1.65,8.31,1.53
22.28,1.53,8.47,1.75
22.28,1.37,8.61,1.97
22.29,1.23,8.70,2.38
22.29,1.13,8.71,2.74
22.29,1.01,8.78,3.12
22.29,0.94,8.72,3.45
22.30,0.88,8.62,3.77
22.30,0.81,8.54,3.99
22.30,0.78,8.37,4.06
22.30,0.71,8.27,4.10
22.31,0.61,8.17,4.19
22.31,0.59,8.04,4.28
22.31,0.56,8.06,4.32
22.31,0.48,7.99,4.35
22.32,0.29,7.94,4.25
22.32,0.05,7.92,3.89
22.32,-0.20,7.80,3.44
22.32,-0.40,7.70,2.96
22.33,-0.62,7.55,2.61
22.33,-0.85,7.51,2.28
22.33,-1.11,7.41,1.97
22.33,-1.32,7.34,1.84
22.34,-1.56,7.24,1.74
22.34,-1.78,7.19,1.60
22.34,-2.03,7.17,1.67
22.34,-2.28,7.16,1.86
22.35,-2.40,7.14,2.09
22.35,-2.45,7.10,2.21
22.35,-2.52,7.11,2.36
22.35,-2.43,7.13,2.56
22.36,-2.37,7.18,2.78
22.36,-2.21,7.30,2.89
22.36,-1.98,7.50,2.98
22.36,-1.57,7.39,3.25
22.37,-1.19,7.53,3.44
22.37,-0.77,7.63,3.59
22.37,-0.36,7.80,3.62
22.37,-0.04,7.99,3.62
22.38,0.22,8.20,3.53
22.38,0.44,8.43,3.30
22.38,0.60,8.66,3.23
22.38,0.75,8.88,3.08
22.39,0.92,9.10,3.18
22.39,0.91,9.31,3.26
22.39,0.96,9.52,3.44
22.39,0.90,9.75,3.74
22.40,0.81,9.85,4.08
22.40,0.80,9.89,4.34
22.40,0.67,9.99,4.53
22.40,0.49,10.06,4.55
22.41,0.44,10.05,4.58
22.41,0.46,10.02,4.62
22.41,0.40,10.02,4.83
22.41,0.35,10.10,5.00
22.42,0.31,10.12,5.04
22.42,0.35,10.07,5.00
22.42,0.34,9.99,5.04
22.42,0.30,9.93,4.90
22.43,0.37,9.76,4.72
22.43,0.39,9.61,4.59
22.43,0.37,9.46,4.40
22.43,0.36,9.20,4.16
22.44,0.24,9.02,3.89
22.44,0.16,8.83,3.58
22.44,0.02,8.60,3.35
22.44,-0.20,8.53,3.15
22.45,-0.26,8.41,2.93
22.45,-0.38,8.33,2.75
22.45,-0.49,8.27,2.70
22.45,-0.60,8.24,2.62
22.46,-0.64,8.26,2.57
22.46,-0.71,8.25,2.57
22.46,-0.78,8.29,2.66
22.46,-0.78,8.34,2.75
22.47,-0.81,8.37,2.76
22.47,-0.80,8.47,2.85
22.47,-0.79,8.51,3.10
22.47,-0.75,8.50,3.22
22.48,-0.75,8.56,3.35
22.48,-0.78,8.59,3.45
22.48,-0.72,8.57,3.66
22.48,-0.68,8.55,3.83
22.49,-0.65,8.52,3.97
22.49,-0.64,8.52,4.13
22.49,-0.61,8.48,4.38
22.49,-0.58,8.43,4.64
22.50,-0.61,8.40,4.90
22.50,-0.71,8.36,5.00
22.50,-0.75,8.33,5.09
22.50,-0.90,8.26,5.16
22.51,-1.01,8.25,5.12
22.51,-1.13,8.20,5.02
22.51,-1.21,8.14,4.96
22.51,-1.33,8.08,4.82
22.52,-1.53,8.02,4.76
22.52,-1.59,7.99,4.58
22.52,-1.62,7.95,4.29
22.52,-1.74,7.92,4.08
22.53,-1.82,7.88,3.92
22.53,-1.89,7.86,3.74
22.53,-1.95,7.87,3.57
22.53,-2.02,7.83,3.49
22.54,-2.12,7.81,3.41
22.54,-2.11,7.77,3.35
22.54,-2.19,7.79,3.28
22.54,-2.24,7.81,3.22
22.55,-2.24,7.84,3.25
22.55,-2.25,7.90,3.18
22.55,-2.29,7.95,3.12
22.55,-2.27,7.99,3.15
22.56,-2.19,8.08,3.18
22.56,-2.18,8.13,3.23
22.56,-2.01,8.17,3.38
22.56,-1.88,8.20,3.36
22.57,-1.83,8.28,3.35
22.57,-1.78,8.37,3.36
22.57,-1.69,8.45,3.30
22.57,-1.62,8.53,3.33
22.58,-1.47,8.59,3.38
22.58,-1.38,8.66,3.45
22.58,-1.26,8.75,3.42
22.58,-1.17,8.80,3.38
22.59,-1.06,8.86,3.39
22.59,-1.02,8.94,3.41
22.59,-0.89,9.03,3.48
22.59,-0.85,9.15,3.44
22.60,-0.87,9.26,3.42
22.60,-0.88,9.36,3.39
22.60,-0.91,9.43,3.46
22.60,-0.94,9.48,3.54
22.61,-1.05,9.58,3.70
22.61,-1.15,9.69,3.86
22.61,-1.28,9.70,3.95
22.61,-1.38,9.73,4.06
22.62,-1.50,9.76,4.10
22.62,-1.62,9.73,4.32
22.62,-1.70,9.76,4.40
22.62,-1.79,9.73,4.50
22.63,-1.81,9.69,4.64
22.63,-1.90,9.63,4.74
22.63,-1.92,9.58,4.81
22.63,-1.93,9.49,4.90
22.64,-1.94,9.37,5.06
22.64,-1.97,9.29,5.13
22.64,-1.95,9.21,5.28
22.64,-1.88,9.11,5.34
22.65,-1.81,9.02,5.47
22.65,-1.80,8.95,5.60
22.65,-1.71,8.88,5.60
22.65,-1.64,8.85,5.68
22.66,-1.52,8.84,5.73
22.66,-1.41,8.89,5.82
22.66,-1.32,8.92,5.85
22.66,-1.22,8.93,5.80
22.67,-1.15,9.05,5.83
22.67,-1.00,9.11,5.86
22.67,-0.87,9.15,5.79
22.67,-0.78,9.19,5.77
22.68,-0.69,9.23,5.70
22.68,-0.51,9.24,5.66
22.68,-0.39,9.16,5.51
22.68,-0.27,9.15,5.34
22.69,-0.18,9.13,5.18
22.69,-0.09,9.14,5.04
22.69,-0.03,9.18,4.90
22.69,0.07,9.15,4.73
22.70,0.20,9.25,4.54
22.70,0.32,9.31,4.32
22.70,0.43,9.36,4.09
22.70,0.56,9.38,3.88
22.71,0.71,9.40,3.66
22.71,0.84,9.40,3.51
22.71,0.91,9.43,3.37
22.71,0.99,9.43,3.28
22.72,1.07,9.44,3.10
22.72,1.08,9.39,2.99
22.72,1.08,9.30,2.94
22.72,1.19,9.23,2.84
22.73,1.14,9.24,2.74
22.73,1.12,9.24,2.66
22.73,1.17,9.19,2.59
22.73,1.16,9.15,2.59
22.74,1.20,9.12,2.61
22.74,1.15,9.10,2.66
22.74,1.07,9.09,2.65
22.74,0.92,9.07,2.73
22.75,0.69,9.02,2.88
22.75,0.60,9.01,2.95
22.75,0.43,8.86,3.04
22.75,0.24,8.82,3.10
22.76,0.08,8.76,3.30
22.76,0.00,8.62,3.51
22.76,-0.11,8.55,3.69
22.76,-0.20,8.51,3.83
22.77,-0.39,8.38,3.97
22.77,-0.46,8.25,4.08
22.77,-0.57,8.21,4.19
22.77,-0.64,8.20,4.35
22.78,-0.69,8.11,4.47
22.78,-0.70,8.08,4.47
22.78,-0.69,8.01,4.47
22.78,-0.73,8.00,4.47
22.79,-0.81,7.96,4.34
22.79,-0.74,7.96,4.05
22.79,-0.72,7.95,3.71
22.79,-0.65,7.94,3.15
22.80,-0.60,7.91,2.61
22.80,-0.59,7.83,2.19
22.80,-0.50,7.77,1.78
22.80,-0.43,7.69,1.31
22.81,-0.29,7.59,0.81
22.81,-0.06,7.54,0.44
22.81,0.08,7.41,0.07
22.81,0.23,7.35,-0.41
22.82,0.49,7.31,-0.89
22.82,0.60,7.23,-1.32
22.82,0.88,7.27,-1.72
22.82,1.11,7.26,-2.04
22.83,1.26,7.19,-2.43
22.83,1.37,7.16,-2.80
22.83,1.50,7.20,-3.03
22.83,1.58,7.33,-3.35
22.84,1.65,7.48,-3.50
22.84,1.62,7.65,-3.45
22.84,1.37,7.94,-3.29
22.84,1.22,8.25,-3.06
22.85,0.90,8.63,-2.79
22.85,0.67,9.00,-2.64
22.85,0.47,9.36,-2.35
22.85,0.20,9.75,-2.09
22.86,0.16,10.07,-1.81
22.86,0.11,10.41,-1.62
22.86,0.08,10.70,-1.56
22.86,0.03,10.94,-1.48
22.87,-0.01,11.15,-1.34
22.87,-0.13,11.37,-1.21
22.87,-0.11,11.48,-0.99
22.87,-0.07,11.68,-0.73
22.88,0.17,11.79,-0.36
22.88,0.48,11.99,0.16
22.88,0.67,12.12,0.64
22.88,0.89,12.22,1.10
22.89,1.09,12.28,1.64
22.89,1.38,12.31,2.03
22.89,1.73,12.37,2.32
22.89,2.01,12.41,2.58
22.90,2.36,12.46,2.73
22.90,2.58,12.46,2.79
22.90,2.72,12.47,2.72
22.90,2.87,12.40,2.68
22.91,2.84,12.29,2.68
22.91,2.72,12.19,2.69
22.91,2.61,12.10,2.69
22.91,2.63,11.92,2.59
22.92,2.68,11.64,2.50
22.92,2.62,11.49,2.40
22.92,2.40,11.43,2.27
22.92,2.24,11.43,2.27
22.93,2.18,11.38,2.41
22.93,2.25,11.33,2.54
22.93,2.37,11.36,2.70
22.93,2.58,11.43,2.85
22.94,2.82,11.40,3.00
22.94,2.98,11.46,3.01
22.94,3.15,11.58,2.88
22.94,3.39,11.71,2.78
22.95,3.49,11.79,2.79
22.95,3.44,11.82,3.20
22.95,3.32,11.72,3.57
22.95,3.31,11.64,3.82
22.96,3.31,11.46,3.88
22.96,3.35,11.21,3.78
22.96,3.44,11.00,3.57
22.96,3.48,10.84,3.41
22.97,3.52,10.75,3.24
22.97,3.51,10.67,3.02
22.97,3.50,10.63,2.81
22.97,3.42,10.57,2.66
22.98,3.38,10.45,2.55
22.98,3.38,10.26,2.39
22.98,3.34,10.07,2.23
22.98,3.30,9.88,2.14
22.99,3.26,9.68,2.21
22.99,3.18,9.49,2.31
22.99,3.16,9.30,2.50
22.99,3.13,9.10,2.81
23.00,3.05,8.94,3.00
23.00,3.05,8.74,3.39
23.00,3.01,8.49,3.77
23.00,2.99,8.27,4.04
23.01,2.88,8.02,4.35
23.01,2.76,7.74,4.64
23.01,2.62,7.54,4.92
23.01,2.48,7.37,5.12
23.02,2.26,7.10,5.28
23.02,2.14,6.96,5.37
23.02,1.93,6.84,5.47
23.02,1.79,6.78,5.56
23.03,1.58,6.76,5.52
23.03,1.44,6.72,5.42
23.03,1.36,6.78,5.38
23.03,1.14,6.90,5.34
23.04,1.11,6.82,5.22
23.04,1.04,6.74,5.19
23.04,0.95,6.72,5.09
23.04,0.87,6.71,4.90
23.05,0.74,6.64,4.63
23.05,0.64,6.67,4.32
23.05,0.61,6.64,4.06
23.05,0.66,6.61,3.73
23.06,0.70,6.64,3.48
23.06,0.77,6.64,3.23
23.06,0.83,6.74,3.02
23.06,0.98,6.74,2.79
23.07,1.13,6.72,2.63
23.07,1.18,6.76,2.57
23.07,1.18,6.75,2.43
23.07,1.20,6.71,2.29
23.08,1.15,6.74,2.24
23.08,1.18,6.81,2.20
23.08,1.22,6.85,2.29
23.08,1.23,6.87,2.38
23.09,1.27,6.84,2.37
23.09,1.26,6.82,2.45
23.09,1.26,6.87,2.54
23.09,1.25,6.82,2.58
23.10,1.30,6.74,2.65
23.10,1.40,6.70,2.67
23.10,1.46,6.64,2.68
23.10,1.56,6.59,2.64
23.11,1.64,6.56,2.64
23.11,1.79,6.53,2.66
23.11,1.94,6.47,2.65
23.11,2.03,6.45,2.72
23.12,2.14,6.40,2.70
23.12,2.23,6.42,2.78
23.12,2.29,6.48,2.82
23.12,2.34,6.57,2.87
23.13,2.41,6.57,2.94
23.13,2.52,6.65,3.10
23.13,2.66,6.68,3.29
23.13,2.70,6.73,3.52
23.14,2.75,6.72,3.63
23.14,2.85,6.75,3.90
23.14,2.91,6.81,4.08
23.14,3.04,6.80,4.30
23.15,3.10,6.78,4.57
23.15,3.14,6.84,4.82
23.15,3.27,6.81,5.10
23.15,3.31,6.72,5.32
23.16,3.37,6.74,5.57
23.16,3.40,6.77,5.70
23.16,3.48,6.79,5.88
23.16,3.60,6.77,5.96
23.17,3.67,6.73,6.01
23.17,3.70,6.66,6.16
23.17,3.75,6.57,6.25
23.17,3.87,6.51,6.27
23.18,3.97,6.57,6.36
23.18,4.00,6.66,6.48
23.18,4.07,6.74,6.44
23.18,4.19,6.85,6.34
23.19,4.26,6.90,6.29
23.19,4.31,6.90,6.36
23.19,4.40,6.96,6.36
23.19,4.44,7.02,6.36
23.20,4.51,7.03,6.45
23.20,4.72,6.89,6.45
23.20,4.92,6.90,6.42
23.20,4.99,6.95,6.32
23.21,5.12,6.91,6.20
23.21,5.33,6.93,6.05
23.21,5.50,6.99,5.77
23.21,5.64,6.97,5.55
23.22,5.75,6.94,5.37
23.22,5.87,6.93,5.18
23.22,5.88,6.98,4.97
23.22,5.84,7.07,4.83
23.23,5.82,7.09,4.61
23.23,5.63,7.14,4.46
23.23,5.34,7.13,4.24
23.23,4.89,7.08,4.08
23.24,4.36,7.05,4.04
23.24,3.95,7.04,4.02
23.24,3.63,7.03,4.14
23.24,3.36,6.98,4.28
23.25,3.19,6.99,4.59
23.25,3.08,7.07,4.88
23.25,2.90,7.22,5.12
23.25,2.80,7.37,5.40
23.26,2.70,7.54,5.67
23.26,2.63,7.73,5.93
23.26,2.44,7.95,6.10
23.26,2.35,8.12,6.27
23.27,2.22,8.18,6.45
23.27,2.20,8.26,6.55
23.27,2.14,8.36,6.63
23.27,2.06,8.43,6.71
23.28,2.04,8.40,6.69
23.28,1.97,8.38,6.71
23.28,1.86,8.34,6.61
23.28,1.86,8.20,6.51
23.29,1.85,8.08,6.26
23.29,1.95,7.92,6.05
23.29,2.13,7.73,5.86
23.29,2.38,7.53,5.61
23.30,2.68,7.28,5.35
23.30,3.03,7.07,5.12
23.30,3.29,6.95,4.83
23.30,3.52,6.87,4.58
23.31,3.63,6.96,4.31
23.31,3.56,7.12,3.96
23.31,3.47,7.40,3.68
23.31,3.27,7.60,3.30
23.32,3.05,7.74,2.87
23.32,2.94,7.88,2.28
23.32,2.77,8.00,1.70
23.32,2.55,8.25,1.02
23.33,2.38,8.57,0.43
23.33,2.19,8.99,-0.13
23.33,1.97,9.51,-0.69
23.33,1.75,10.10,-1.20
23.34,1.45,10.71,-1.59
23.34,1.13,11.36,-1.88
23.34,0.89,12.15,-2.06
23.34,0.64,12.99,-2.10
23.35,0.53,13.87,-1.92
23.35,0.47,14.72,-1.73
23.35,0.34,15.50,-1.47
23.35,0.17,16.35,-1.19
23.36,-0.09,17.18,-0.95
23.36,-0.49,18.05,-0.74
23.36,-0.94,18.78,-0.56
23.36,-1.48,19.31,-0.20
23.37,-1.85,19.65,0.12
23.37,-2.30,19.85,0.43
23.37,-2.72,19.73,0.70
23.37,-3.01,19.21,1.01
23.38,-3.18,18.12,1.31
23.38,-2.90,16.39,1.68
23.38,-2.30,14.39,2.01
23.38,-1.74,12.72,2.28
23.39,-1.41,11.44,2.53
23.39,-1.23,10.41,2.76
23.39,-1.31,9.60,2.87
23.39,-1.51,9.00,2.88
23.40,-1.82,8.59,2.86
23.40,-2.16,8.24,2.89
23.40,-2.34,7.94,2.89
23.40,-2.45,7.65,2.81
23.41,-2.52,7.40,2.56
23.41,-2.39,7.17,2.41
23.41,-2.47,6.94,2.14
23.41,-2.65,6.81,1.84
23.42,-2.84,6.78,1.71
23.42,-3.03,6.77,1.36
23.42,-3.16,6.82,0.93
23.42,-3.23,6.89,0.65
23.43,-3.29,6.94,0.58
23.43,-3.31,7.02,0.58
23.43,-3.27,7.06,0.49
23.43,-3.19,7.15,0.35
23.44,-3.00,7.27,0.29
23.44,-2.82,7.46,0.44
23.44,-2.60,7.55,0.66
23.44,-2.58,7.76,1.01
23.45,-2.66,7.94,1.42
23.45,-2.81,8.18,1.92
23.45,-2.86,8.39,2.32
23.45,-2.82,8.67,2.85
23.46,-2.79,8.95,3.30
23.46,-2.75,9.26,3.71
23.46,-2.72,9.63,4.05
23.46,-2.63,10.04,4.35
23.47,-2.59,10.46,4.53
23.47,-2.57,10.79,4.71
23.47,-2.48,11.22,4.76
23.47,-2.38,11.54,4.79
23.48,-2.27,11.82,4.86
23.48,-1.98,12.06,4.89
23.48,-1.73,12.23,4.85
23.48,-1.46,12.38,4.86
23.49,-1.18,12.58,4.91
23.49,-0.96,12.73,4.91
23.49,-0.68,12.82,4.93
23.49,-0.39,12.89,4.98
23.50,-0.07,12.95,4.95
23.50,0.35,13.00,4.74
23.50,0.73,13.05,4.56
23.50,1.14,13.05,4.35
23.51,1.66,13.03,4.08
23.51,2.23,12.99,3.72
23.51,2.91,12.79,3.33
23.51,3.56,12.58,2.97
23.52,4.06,12.46,2.66
23.52,4.45,12.33,2.20
23.52,4.80,12.21,1.83
23.52,5.00,12.06,1.41
23.53,5.05,11.81,1.01
23.53,4.97,11.64,0.70
23.53,4.67,11.44,0.48
23.53,4.40,11.14,0.36
23.54,3.88,10.86,0.41
23.54,3.10,10.74,0.48
23.54,2.27,10.49,0.61
23.54,1.64,10.26,0.79
23.55,1.02,10.02,1.02
23.55,0.65,9.75,1.25
23.55,0.40,9.47,1.58
23.55,0.11,9.19,1.98
23.56,0.08,8.95,2.32
23.56,0.14,8.86,2.00
23.56,0.00,8.67,1.85
23.56,-0.15,8.54,1.78
23.57,-0.23,8.47,1.48
23.57,-0.28,8.35,1.23
23.57,-0.45,8.19,1.52
23.57,-0.47,8.08,1.99
23.58,-0.41,7.94,1.92
23.58,-0.25,7.77,1.60
23.58,-0.17,7.67,1.53
23.58,-0.12,7.53,1.60
23.59,-0.09,7.40,1.70
23.59,-0.05,7.21,1.82
23.59,-0.02,7.07,1.94
23.59,0.01,6.90,2.11
23.60,0.02,6.74,2.22
23.60,0.12,6.63,2.34
23.60,0.15,6.52,2.38
23.60,0.09,6.41,2.45
23.61,0.04,6.31,2.49
23.61,0.02,6.23,2.59
23.61,-0.09,6.26,2.69
23.61,-0.26,6.27,2.74
23.62,-0.38,6.33,2.84
23.62,-0.45,6.40,2.88
23.62,-0.47,6.55,3.03
23.62,-0.58,6.71,3.15
23.63,-0.65,6.87,3.26
23.63,-0.66,7.12,3.32
23.63,-0.75,7.33,3.35
23.63,-0.78,7.47,3.40
23.64,-0.73,7.61,3.33
23.64,-0.54,7.75,3.37
23.64,-0.48,8.04,3.45
23.64,-0.38,8.29,3.53
23.65,-0.30,8.44,3.68
23.65,-0.36,8.66,3.71
23.65,-0.47,8.77,3.63
23.65,-0.53,8.81,3.47
23.66,-0.51,8.91,3.05
23.66,-0.50,8.97,2.67
23.66,-0.48,8.86,2.53
23.66,-0.41,8.76,2.46
23.67,-0.43,8.73,2.42
23.67,-0.32,8.65,2.50
23.67,-0.24,8.59,2.67
23.67,-0.25,8.56,2.87
23.68,-0.27,8.46,3.11
23.68,-0.28,8.40,3.36
23.68,-0.34,8.40,3.63
23.68,-0.34,8.33,3.88
23.69,-0.30,8.16,4.07
23.69,-0.17,8.05,4.32
23.69,-0.17,7.97,4.53
23.69,0.02,7.87,4.79
23.70,0.18,7.74,5.03
23.70,0.32,7.72,5.16
23.70,0.45,7.61,5.31
23.70,0.56,7.57,5.29
23.71,0.63,7.56,5.26
23.71,0.78,7.54,5.23
23.71,0.95,7.55,5.24
23.71,1.12,7.59,5.19
23.72,1.22,7.64,5.04
23.72,1.44,7.64,4.90
23.72,1.69,7.67,4.84
23.72,1.81,7.71,4.63
23.73,1.95,7.76,4.35
23.73,2.14,7.82,4.26
23.73,2.35,7.86,4.14
23.73,2.51,7.92,4.06
23.74,2.58,8.01,3.93
23.74,2.74,7.90,3.92
23.74,2.84,7.97,3.99
23.74,2.88,8.09,3.93
23.75,2.94,8.16,3.88
23.75,2.84,8.28,3.75
23.75,2.73,8.43,3.55
23.75,2.64,8.51,3.45
23.76,2.50,8.62,3.27
23.76,2.32,8.71,3.18
23.76,2.14,8.82,3.17
23.76,1.96,8.92,3.18
23.77,1.71,8.96,3.16
23.77,1.52,8.95,3.17
23.77,1.38,8.90,3.18
23.77,1.22,8.85,3.33
23.78,1.11,8.76,3.43
23.78,1.00,8.73,3.51
23.78,0.97,8.68,3.57
23.78,0.98,8.66,3.79
23.79,0.92,8.62,3.84
23.79,0.89,8.62,3.84
23.79,0.90,8.63,4.00
23.79,0.88,8.56,3.99
23.80,0.88,8.53,3.99
23.80,0.88,8.54,4.08
23.80,0.97,8.47,4.27
23.80,1.00,8.50,4.37
23.81,1.03,8.46,4.45
23.81,1.08,8.48,4.63
23.81,1.09,8.49,4.53
23.81,1.06,8.46,4.47
23.82,1.06,8.48,4.37
23.82,1.14,8.52,4.21
23.82,1.20,8.49,4.12
23.82,1.31,8.47,4.19
23.83,1.39,8.47,4.17
23.83,1.48,8.43,4.14
23.83,1.57,8.47,4.16
23.83,1.61,8.49,4.12
23.84,1.59,8.53,4.07
23.84,1.58,8.55,3.95
23.84,1.59,8.58,3.83
23.84,1.53,8.66,3.80
23.85,1.41,8.74,3.72
23.85,1.30,8.75,3.57
23.85,1.23,8.80,3.48
23.85,1.16,8.88,3.38
23.86,1.08,8.90,3.33
23.86,1.01,8.85,3.29
23.86,0.87,8.82,3.24
23.86,0.78,8.87,3.24
23.87,0.69,8.80,3.31
23.87,0.56,8.77,3.49
23.87,0.49,8.79,3.62
23.87,0.41,8.72,3.68
23.88,0.26,8.70,3.79
23.88,0.15,8.69,3.86
23.88,-0.02,8.68,3.95
23.88,-0.13,8.66,4.09
23.89,-0.29,8.61,4.09
23.89,-0.37,8.57,4.13
23.89,-0.47,8.58,4.15
23.89,-0.49,8.57,4.15
23.90,-0.49,8.53,4.14
23.90,-0.58,8.52,4.14
23.90,-0.66,8.48,4.10
23.90,-0.71,8.44,3.97
23.91,-0.77,8.41,3.92
23.91,-0.83,8.41,3.93
23.91,-0.87,8.44,3.92
23.91,-0.93,8.41,3.89
23.92,-1.07,8.43,3.81
23.92,-1.15,8.48,3.73
23.92,-1.23,8.47,3.59
23.92,-1.25,8.48,3.57
23.93,-1.26,8.53,3.56
23.93,-1.32,8.53,3.48
23.93,-1.38,8.56,3.39
23.93,-1.39,8.59,3.31
23.94,-1.44,8.58,3.31
23.94,-1.44,8.59,3.29
23.94,-1.41,8.64,3.18
23.94,-1.42,8.58,3.05
23.95,-1.52,8.61,3.00
23.95,-1.61,8.61,2.82
23.95,-1.70,8.61,2.74
23.95,-1.74,8.63,2.63
23.96,-1.80,8.59,2.55
23.96,-1.74,8.66,2.47
23.96,-1.89,8.63,2.38
23.96,-2.02,8.60,2.37
23.97,-2.09,8.63,2.37
23.97,-2.16,8.64,2.38
23.97,-2.26,8.59,2.49
23.97,-2.36,8.53,2.64
23.98,-2.45,8.54,2.70
23.98,-2.44,8.49,2.84
23.98,-2.51,8.46,3.02
23.98,-2.57,8.49,3.10
23.99,-2.59,8.53,3.18
23.99,-2.56,8.51,3.25
23.99,-2.53,8.55,3.37
23.99,-2.57,8.57,3.51
24.00,-2.60,8.63,3.51
24.00,-2.54,8.67,3.68
24.00,-2.51,8.64,3.87
24.00,-2.53,8.70,3.97
24.01,-2.57,8.72,4.12
24.01,-2.54,8.78,4.21
24.01,-2.56,8.79,4.34
24.01,-2.54,8.85,4.43
24.02,-2.62,8.89,4.39
24.02,-2.65,8.97,4.38
24.02,-2.61,9.02,4.49
24.02,-2.54,9.06,4.39
24.03,-2.55,9.11,4.32
24.03,-2.50,9.15,4.40
24.03,-2.43,9.19,4.55
24.03,-2.32,9.27,4.55
24.04,-2.36,9.35,4.49
24.04,-2.34,9.38,4.47
24.04,-2.28,9.48,4.47
24.04,-2.15,9.54,4.51
24.05,-2.17,9.58,4.56
24.05,-2.15,9.68,4.61
24.05,-2.01,9.69,4.58
24.05,-1.90,9.71,4.69
24.06,-1.86,9.75,4.76
24.06,-1.74,9.82,4.80
24.06,-1.54,9.85,5.00
24.06,-1.40,9.89,5.09
24.07,-1.20,9.86,5.27
24.07,-1.00,9.80,5.38
24.07,-0.77,9.76,5.41
24.07,-0.56,9.74,5.51
24.08,-0.34,9.70,5.64
24.08,-0.12,9.77,5.68
24.08,0.08,9.86,5.71
24.08,0.22,9.85,5.85
24.09,0.46,9.93,5.83
24.09,0.58,10.07,5.90
24.09,0.67,10.14,5.87
24.09,0.77,10.26,5.79
24.10,0.84,10.36,5.73
24.10,0.94,10.43,5.62
24.10,1.00,10.51,5.52
24.10,1.04,10.53,5.36
24.11,1.07,10.56,5.23
24.11,1.11,10.52,5.04
24.11,1.15,10.47,4.81
24.11,1.20,10.44,4.57
24.12,1.22,10.37,4.26
24.12,1.26,10.26,4.04
24.12,1.30,10.13,3.78
24.12,1.36,10.05,3.59
24.13,1.40,9.89,3.43
24.13,1.42,9.81,3.29
24.13,1.52,9.73,3.19
24.13,1.62,9.57,3.03
24.14,1.69,9.53,2.96
24.14,1.72,9.51,2.94
24.14,1.80,9.51,2.83
24.14,1.85,9.54,2.80
24.15,1.81,9.55,2.79
24.15,1.77,9.62,2.74
24.15,1.84,9.71,2.71
24.15,1.79,9.79,2.72
24.16,1.67,9.90,2.75
24.16,1.61,10.02,2.83
24.16,1.53,10.06,2.85
24.16,1.50,10.16,2.95
24.17,1.50,10.27,3.08
24.17,1.47,10.40,3.22
24.17,1.40,10.47,3.37
24.17,1.42,10.52,3.64
24.18,1.41,10.56,3.90
24.18,1.40,10.62,4.05
24.18,1.27,10.63,4.24
24.18,1.22,10.58,4.37
24.19,1.15,10.53,4.56
24.19,1.08,10.51,4.66
24.19,0.99,10.48,4.71
24.19,0.95,10.39,4.70
24.20,0.86,10.28,4.60
24.20,0.69,10.12,4.59
24.20,0.48,9.97,4.48
24.20,0.30,9.85,4.34
24.21,0.14,9.64,4.19
24.21,-0.06,9.45,4.01
24.21,-0.30,9.18,3.81
24.21,-0.52,8.96,3.67
24.22,-0.69,8.73,3.58
24.22,-0.90,8.46,3.48
24.22,-1.11,8.23,3.29
24.22,-1.25,7.99,3.25
24.23,-1.41,7.72,3.17
24.23,-1.52,7.51,3.06
24.23,-1.62,7.33,2.99
24.23,-1.72,7.10,2.87
24.24,-1.85,6.92,2.84
24.24,-1.89,6.75,2.75
24.24,-2.01,6.59,2.57
24.24,-2.09,6.37,2.49
24.25,-2.13,6.21,2.39
24.25,-2.22,6.12,2.27
24.25,-2.25,6.01,2.16
24.25,-2.24,5.91,1.90
24.26,-2.30,5.82,1.72
24.26,-2.31,5.77,1.58
24.26,-2.32,5.67,1.33
24.26,-2.32,5.64,1.22
24.27,-2.24,5.62,1.13
24.27,-2.18,5.63,0.99
24.27,-2.06,5.64,0.82
24.27,-1.94,5.59,0.74
24.28,-1.77,5.59,0.65
24.28,-1.56,5.58,0.60
24.28,-1.44,5.34,0.47
24.28,-0.91,4.85,-0.13
24.29,-0.53,5.55,0.66
24.29,-0.88,5.55,0.87
24.29,-1.05,5.34,0.35
24.29,-0.97,5.49,0.33
24.30,-0.75,5.54,0.35
24.30,-0.64,5.56,0.18
24.30,-0.47,5.69,0.16
24.30,-0.33,5.88,0.05
24.31,-0.15,6.06,-0.11
24.31,0.18,6.29,-0.20
24.31,0.49,6.62,-0.24
24.31,0.74,6.99,-0.37
24.32,0.99,7.40,-0.46
24.32,1.17,7.92,-0.53
24.32,1.38,8.30,-0.70
24.32,1.66,8.72,-0.82
24.33,2.22,9.00,-1.63
24.33,1.68,9.87,-1.73
24.33,1.46,10.41,-0.77
24.33,1.77,10.67,-0.81
24.34,1.55,10.98,-0.49
24.34,1.41,11.36,-0.04
24.34,1.39,11.64,0.27
24.34,1.30,11.86,0.50
24.35,1.09,12.14,0.81
24.35,0.92,12.25,0.98
24.35,0.71,12.32,1.11
24.35,0.54,12.38,1.23
24.36,0.43,12.31,1.15
24.36,0.28,12.28,1.11
24.36,0.21,12.14,0.99
24.36,0.22,11.94,0.88
24.37,0.40,11.70,0.84
24.37,0.68,11.54,1.00
24.37,1.05,11.39,1.17
24.37,1.55,11.22,1.33
24.38,2.09,11.11,1.43
24.38,2.45,10.95,1.35
24.38,2.72,10.80,1.19
24.38,2.90,10.73,0.87
24.39,3.07,10.61,0.57
24.39,3.20,10.50,0.45
24.39,3.32,10.38,0.33
24.39,3.41,10.32,0.25
24.40,3.48,10.31,0.21
24.40,3.61,10.31,0.01
24.40,3.71,10.35,-0.24
24.40,3.75,10.31,-0.41
24.41,3.64,10.20,-0.44
24.41,3.52,10.10,-0.44
24.41,3.47,9.84,-0.28
24.41,3.42,9.57,0.04
24.42,3.26,9.45,0.41
24.42,3.10,9.43,0.96
24.42,2.87,9.43,1.69
24.42,2.74,9.36,2.49
24.43,2.58,9.44,3.15
24.43,2.46,9.67,3.69
24.43,2.53,9.75,4.13
24.44,2.75,9.75,4.53
24.44,3.00,9.68,4.69
24.44,3.23,9.53,4.59
24.44,3.35,9.48,4.58
24.45,3.38,9.41,4.47
24.45,3.38,9.32,4.28
24.45,3.26,9.19,4.09
24.45,3.02,9.16,4.08
24.45,2.81,9.14,4.18
24.46,2.56,9.12,4.24
24.46,2.36,9.09,4.38
24.46,2.30,9.05,4.60
24.46,2.28,9.02,4.69
24.47,2.29,8.96,4.77
24.47,2.25,9.01,4.63
24.47,2.28,8.98,4.55
24.47,2.27,9.00,4.35
24.48,2.25,9.02,4.22
24.48,2.32,9.14,4.08
24.48,2.35,9.21,3.93
24.48,2.48,9.27,3.77
24.49,2.63,9.39,3.68
24.49,2.70,9.49,3.61
24.49,2.77,9.52,3.56
24.49,2.89,9.59,3.52
24.50,2.98,9.72,3.49
24.50,2.98,9.79,3.50
24.50,3.01,9.86,3.52
24.50,3.01,9.89,3.53
24.51,2.94,9.95,3.59
24.51,2.89,10.00,3.69
24.51,2.77,10.02,3.75
24.51,2.64,10.04,3.83
24.52,2.44,9.97,3.84
24.52,2.28,9.90,3.86
24.52,2.18,9.83,3.90
24.52,2.05,9.73,3.98
24.53,1.88,9.62,4.04
24.53,1.75,9.40,3.98
24.53,1.67,9.22,4.01
24.53,1.56,9.02,3.99
24.54,1.46,8.85,3.98
24.54,1.43,8.63,3.98
24.54,1.39,8.36,4.00
24.54,1.36,8.12,3.99
24.55,1.30,7.96,3.98
24.55,1.41,7.66,3.99
24.55,1.51,7.41,3.98
24.55,1.56,7.20,3.90
24.56,1.69,6.95,3.89
24.56,1.77,6.79,3.84
24.56,1.84,6.63,3.78
24.56,1.91,6.54,3.63
24.57,2.05,6.43,3.52
24.57,2.14,6.33,3.48
24.57,2.23,6.19,3.41
24.57,2.19,6.14,3.42
24.58,2.24,6.07,3.42
24.58,2.24,6.01,3.46
24.58,2.20,6.11,3.48
24.58,2.16,6.06,3.45
24.59,2.24,6.12,3.38
24.59,2.24,6.15,3.47
24.59,2.24,6.23,3.56
24.59,2.24,6.33,3.63
24.60,2.24,6.35,3.75
24.60,2.24,6.34,3.77
24.60,2.25,6.33,3.77
24.60,2.35,6.30,3.72
24.61,2.54,6.20,3.88
24.61,2.69,6.12,4.13
24.61,2.82,6.09,4.27
24.61,2.94,6.05,4.36
24.62,2.95,6.02,4.36
24.62,2.94,5.99,4.28
24.62,2.93,5.92,4.23
24.62,2.95,5.94,4.29
24.63,2.95,5.95,4.33
24.63,2.99,5.97,4.39
24.63,3.05,5.97,4.47
24.63,3.09,5.99,4.48
24.64,3.08,6.02,4.51
24.64,3.13,6.09,4.67
24.64,3.26,6.12,4.88
24.64,3.32,6.17,5.05
24.65,3.45,6.20,5.18
24.65,3.48,6.30,5.36
24.65,3.55,6.31,5.56
24.65,3.63,6.37,5.69
24.66,3.70,6.38,5.86
24.66,3.78,6.46,5.99
24.66,3.86,6.53,6.14
24.66,4.06,6.65,6.35
24.67,4.22,6.68,6.41
24.67,4.26,6.69,6.54
24.67,4.40,6.75,6.60
24.67,4.64,6.73,6.68
24.68,4.79,6.74,6.71
24.68,4.92,6.83,6.77
24.68,5.05,6.94,6.84
24.68,5.21,7.05,6.85
24.69,5.36,7.17,6.97
24.69,5.51,7.21,7.18
24.69,5.65,7.26,7.26
24.69,5.80,7.30,7.36
24.70,5.90,7.28,7.49
24.70,6.02,7.29,7.52
24.70,6.24,7.31,7.57
24.70,6.30,7.23,7.54
24.71,6.41,7.15,7.49
24.71,6.49,7.11,7.43
24.71,6.59,7.02,7.49
24.71,6.68,6.97,7.50
24.72,6.69,6.86,7.41
24.72,6.69,6.80,7.34
24.72,6.70,6.71,7.22
24.72,6.75,6.56,7.13
24.73,6.85,6.42,7.09
24.73,6.93,6.30,7.05
24.73,6.96,6.23,7.00
24.73,6.89,6.20,6.97
24.74,6.69,6.21,7.05
24.74,6.43,6.36,7.33
24.74,6.03,6.50,7.72
24.74,5.58,6.70,8.10
24.75,5.19,6.89,8.51
24.75,4.83,7.04,8.85
24.75,4.53,7.29,9.18
24.75,4.27,7.43,9.40
24.76,4.01,7.56,9.58
24.76,3.75,7.68,9.80
24.76,3.56,7.81,9.84
24.76,3.43,7.87,9.81
24.77,3.31,7.87,9.81
24.77,3.17,7.86,9.63
24.77,3.09,7.86,9.40
24.77,2.94,7.77,9.16
24.78,2.74,7.65,8.75
24.78,2.51,7.57,8.39
24.78,2.31,7.41,7.87
24.78,2.14,7.36,7.36
24.79,1.89,7.32,6.80
24.79,1.69,7.27,6.24
24.79,1.52,7.28,5.66
24.79,1.29,7.31,5.11
24.80,1.04,7.28,4.52
24.80,0.80,7.29,3.80
24.80,0.48,7.35,3.03
24.80,0.04,7.51,2.17
24.81,-0.44,7.60,1.14
24.81,-0.92,7.78,0.19
24.81,-1.40,7.99,-0.81
24.81,-1.89,8.27,-1.76
24.82,-2.43,8.62,-2.64
24.82,-2.97,9.10,-3.49
24.82,-3.45,9.69,-4.26
24.82,-3.87,10.45,-4.91
24.83,-4.14,11.24,-5.46
24.83,-4.30,12.04,-5.79
24.83,-4.29,12.90,-5.92
24.83,-4.19,13.78,-5.62
24.84,-4.00,14.58,-4.92
24.84,-3.94,15.53,-4.61
24.84,-3.96,16.38,-4.12
24.84,-3.94,17.27,-3.53
24.85,-3.99,18.01,-2.92
24.85,-4.14,18.77,-2.46
24.85,-4.29,19.49,-2.04
24.85,-4.40,19.98,-1.62
24.86,-4.49,20.33,-1.11
24.86,-4.45,20.34,-0.56
24.86,-4.13,19.79,0.22
24.86,-3.33,18.44,1.19
24.87,-2.42,16.71,2.29
24.87,-1.71,14.95,3.25
24.87,-1.14,13.38,4.05
24.87,-0.68,11.97,4.58
24.88,-0.36,10.86,4.90
24.88,-0.15,9.88,5.17
24.88,-0.02,8.99,5.24
24.88,0.13,8.30,5.00
24.89,0.14,7.65,4.79
24.89,0.00,7.11,4.54
24.89,-0.16,6.70,4.22
24.89,-0.41,6.33,3.84
24.90,-0.61,6.09,3.49
24.90,-0.68,5.84,3.08
24.90,-0.63,5.64,2.70
24.90,-0.58,5.50,2.39
24.91,-0.47,5.44,2.02
24.91,-0.28,5.51,1.71
24.91,-0.15,5.55,1.45
24.91,-0.03,5.70,1.19
24.92,0.06,5.84,1.01
24.92,0.16,5.96,0.94
24.92,0.22,6.11,0.87
24.92,0.30,6.32,0.77
24.93,0.40,6.54,0.79
24.93,0.53,6.82,0.67
24.93,0.65,7.12,0.75
24.93,0.73,7.51,0.72
24.94,0.59,8.00,0.58
24.94,0.50,8.46,0.62
24.94,0.46,8.94,0.78
24.94,0.29,9.39,0.92
24.95,0.07,9.87,0.95
24.95,-0.13,10.30,1.08
24.95,-0.22,10.77,1.22
24.95,-0.33,11.26,1.50
24.96,-0.32,11.74,1.67
24.96,-0.32,12.17,1.83
24.96,-0.36,12.61,1.91
24.96,-0.48,13.12,1.90
24.97,-0.56,13.54,1.94
24.97,-0.68,13.92,2.00
24.97,-0.83,14.30,2.16
24.97,-0.94,14.56,2.24
24.98,-1.01,14.79,2.36
24.98,-1.02,15.00,2.46
24.98,-1.05,15.06,2.37
24.98,-1.05,15.06,2.34
24.99,-1.15,15.02,2.39
24.99,-1.25,14.82,2.41
24.99,-1.31,14.38,2.40
24.99,-1.20,13.68,2.50
25.00,-0.79,12.71,2.60
25.00,-0.30,11.69,2.74
25.00,0.00,10.87,2.91
25.00,0.28,10.18,3.13
25.01,0.47,9.49,3.14
25.01,0.55,8.93,3.02
25.01,0.57,8.50,2.95
25.01,0.55,8.17,2.88
25.02,0.45,7.77,2.77
25.02,0.33,7.48,2.51
25.02,0.26,7.19,2.29
25.02,0.18,6.97,2.12
25.03,0.13,6.75,2.02
25.03,0.09,6.57,1.98
25.03,0.00,6.39,1.93
25.03,0.01,6.26,1.80
25.04,-0.07,6.16,1.75
25.04,-0.09,6.10,1.71
25.04,-0.12,6.00,1.58
25.04,-0.01,6.00,1.15
25.05,0.10,6.02,1.13
25.05,0.22,6.06,1.04
25.05,0.38,6.13,0.78
25.05,0.31,6.17,0.69
25.06,0.13,6.16,0.70
25.06,-0.01,6.18,0.69
25.06,-0.05,6.27,0.59
25.06,0.03,6.39,0.54
25.07,0.06,6.51,0.54
25.07,-0.03,6.62,0.59
25.07,-0.04,6.69,0.78
25.07,-0.02,6.78,1.00
25.08,0.04,6.99,1.33
25.08,0.06,7.11,1.64
25.08,0.14,7.34,1.96
25.08,0.27,7.54,2.21
25.09,0.48,7.72,2.39
25.09,0.57,7.92,2.49
25.09,0.70,8.14,2.71
25.09,0.91,8.39,2.91
25.10,1.08,8.61,3.06
25.10,1.29,8.86,3.19
25.10,1.44,9.09,3.25
25.10,1.66,9.30,3.39
25.11,1.89,9.65,3.69
25.11,1.98,10.01,4.02
25.11,2.08,10.20,4.26
25.11,2.19,10.42,4.43
25.12,2.33,10.63,4.56
25.12,2.38,10.75,4.62
25.12,2.46,10.83,4.64
25.12,2.46,10.82,4.58
25.13,2.36,10.74,4.50
25.13,2.12,10.58,4.41
25.13,1.93,10.38,4.18
25.13,1.74,10.13,3.96
25.14,1.53,9.87,3.65
25.14,1.31,9.63,3.37
25.14,1.11,9.43,3.10
25.14,0.98,9.29,2.88
25.15,0.81,9.12,2.60
25.15,0.67,8.94,2.37
25.15,0.59,8.78,2.23
25.15,0.49,8.63,2.22
25.16,0.46,8.46,2.27
25.16,0.34,8.31,2.40
25.16,0.23,8.18,2.43
25.16,0.09,8.08,2.45
25.17,0.05,8.03,2.49
25.17,-0.04,7.97,2.55
25.17,-0.15,7.96,2.75
25.17,-0.24,7.93,2.98
25.18,-0.30,7.87,3.15
25.18,-0.36,7.84,3.30
25.18,-0.35,7.80,3.51
25.18,-0.32,7.68,3.70
25.19,-0.28,7.65,3.86
25.19,-0.25,7.63,4.10
25.19,-0.20,7.61,4.36
25.19,-0.07,7.50,4.45
25.20,0.03,7.42,4.57
25.20,0.08,7.46,4.79
25.20,0.05,7.57,4.95
25.20,0.06,7.63,5.03
25.21,0.17,7.72,5.08
25.21,0.27,7.83,5.13
25.21,0.43,7.92,5.17
25.21,0.59,8.04,5.27
25.22,0.73,8.22,5.30
25.22,0.87,8.40,5.40
25.22,1.05,8.59,5.35
25.22,1.19,8.73,5.39
25.23,1.33,8.90,5.35
25.23,1.58,8.95,5.33
25.23,1.82,9.09,5.26
25.23,2.03,9.15,5.16
25.24,2.19,9.20,5.06
25.24,2.30,9.25,4.96
25.24,2.39,9.27,4.80
25.24,2.43,9.23,4.64
25.25,2.48,9.28,4.33
25.25,2.49,9.23,4.09
25.25,2.30,9.23,3.82
25.25,2.10,9.28,3.55
25.26,1.91,9.30,3.27
25.26,1.52,9.41,2.94
25.26,1.47,9.10,2.85
25.26,1.39,9.02,2.79
25.27,1.18,9.00,2.72
25.27,1.07,8.89,2.64
25.27,1.01,8.82,2.58
25.27,0.90,8.84,2.52
25.28,0.76,8.78,2.50
25.28,0.64,8.71,2.53
25.28,0.49,8.62,2.55
25.28,0.42,8.52,2.67
25.29,0.31,8.42,2.85
25.29,0.17,8.34,3.12
25.29,0.14,8.25,3.36
25.29,0.13,8.14,3.63
25.30,0.20,8.02,3.90
25.30,0.32,7.86,4.13
25.30,0.37,7.71,4.35
25.30,0.45,7.70,4.62
25.31,0.49,7.65,4.87
25.31,0.51,7.62,5.01
25.31,0.57,7.63,5.19
25.31,0.56,7.71,5.33
25.32,0.51,7.77,5.41
25.32,0.55,7.82,5.49
25.32,0.58,7.90,5.50
25.32,0.61,7.95,5.49
25.33,0.62,7.98,5.54
25.33,0.65,8.07,5.45
25.33,0.62,8.14,5.36
25.33,0.65,8.12,5.23
25.34,0.64,8.17,5.03
25.34,0.59,8.22,4.78
25.34,0.60,8.35,4.65
25.34,0.59,8.45,4.45
25.35,0.52,8.51,4.20
25.35,0.46,8.64,4.03
25.35,0.47,8.73,3.85
25.35,0.38,8.75,3.67
25.36,0.33,8.94,3.47
25.36,0.20,8.97,3.34
25.36,0.12,9.04,3.24
25.36,0.03,9.13,3.18
25.37,-0.10,9.21,3.15
25.37,-0.22,9.25,3.24
25.37,-0.32,9.29,3.27
25.37,-0.46,9.38,3.37
25.38,-0.55,9.40,3.46
25.38,-0.64,9.41,3.54
25.38,-0.71,9.35,3.69
25.38,-0.75,9.34,3.82
25.39,-0.83,9.28,3.97
25.39,-0.84,9.21,4.05
25.39,-0.88,9.12,4.10
25.39,-0.88,9.04,4.10
25.40,-0.85,8.92,4.18
25.40,-0.85,8.84,4.16
25.40,-0.87,8.72,4.12
25.40,-0.91,8.62,4.13
25.41,-0.92,8.55,4.05
25.41,-0.91,8.43,3.90
25.41,-1.00,8.37,3.78
25.41,-1.03,8.28,3.71
25.42,-1.05,8.20,3.60
25.42,-1.13,8.18,3.48
25.42,-1.17,8.21,3.32
25.42,-1.09,8.20,3.27
25.43,-1.06,8.22,3.17
25.43,-1.13,8.25,3.06
25.43,-1.14,8.33,3.05
25.43,-1.08,8.34,2.96
25.44,-1.07,8.40,2.87
25.44,-0.96,8.40,2.90
25.44,-0.87,8.39,2.94
25.44,-0.76,8.39,2.92
25.45,-0.60,8.39,2.91
25.45,-0.52,8.39,2.96
25.45,-0.39,8.41,2.97
25.45,-0.32,8.36,3.02
25.46,-0.21,8.31,3.09
25.46,-0.09,8.31,3.15
25.46,-0.06,8.34,3.20
25.46,-0.08,8.35,3.23
25.47,-0.12,8.38,3.22
25.47,-0.12,8.41,3.21
25.47,-0.14,8.46,3.21
25.47,-0.17,8.53,3.28
25.48,-0.17,8.63,3.39
25.48,-0.27,8.69,3.43
25.48,-0.35,8.75,3.45
25.48,-0.40,8.86,3.56
25.49,-0.54,9.00,3.52
25.49,-0.72,9.05,3.50
25.49,-0.93,9.12,3.53
25.49,-1.11,9.14,3.56
25.50,-1.35,9.19,3.61
25.50,-1.52,9.23,3.59
25.50,-1.71,9.33,3.55
25.50,-1.84,9.43,3.63
25.51,-2.04,9.45,3.84
25.51,-2.23,9.46,3.84
25.51,-2.39,9.47,3.99
25.51,-2.52,9.48,4.15
25.52,-2.67,9.45,4.27
25.52,-2.77,9.42,4.49
25.52,-2.87,9.41,4.72
25.52,-2.99,9.38,4.92
25.53,-3.06,9.36,5.03
25.53,-3.06,9.40,5.16
25.53,-3.05,9.43,5.26
25.53,-3.00,9.44,5.43
25.54,-2.93,9.42,5.53
25.54,-2.74,9.42,5.61
25.54,-2.63,9.36,5.65
25.54,-2.48,9.37,5.76
25.55,-2.34,9.39,5.75
25.55,-2.20,9.47,5.73
25.55,-2.03,9.48,5.72
25.55,-1.87,9.45,5.71
25.56,-1.64,9.48,5.67
25.56,-1.38,9.54,5.63
25.56,-1.13,9.59,5.53
25.56,-0.82,9.54,5.49
25.57,-0.56,9.56,5.40
25.57,-0.29,9.60,5.30
25.57,-0.03,9.63,5.23
25.57,0.22,9.64,5.15
25.58,0.38,9.62,5.03
25.58,0.53,9.65,4.95
25.58,0.59,9.67,4.92
25.58,0.69,9.67,4.87
25.59,0.81,9.64,4.81
25.59,0.91,9.57,4.73
25.59,0.99,9.51,4.76
25.59,1.04,9.45,4.77
25.60,1.12,9.42,4.71
25.60,1.12,9.35,4.65
25.60,1.14,9.29,4.59
25.60,1.22,9.18,4.59
25.61,1.30,9.13,4.49
25.61,1.34,9.12,4.46
25.61,1.40,9.08,4.42
25.61,1.54,9.09,4.27
25.62,1.62,9.10,4.17
25.62,1.72,9.17,4.14
25.62,1.76,9.30,3.99
25.62,1.84,9.44,3.87
25.63,1.88,9.55,3.78
25.63,1.99,9.71,3.63
25.63,2.08,9.83,3.50
25.63,2.15,9.97,3.43
25.64,2.24,10.09,3.35
25.64,2.32,10.24,3.31
25.64,2.42,10.37,3.25
25.64,2.44,10.48,3.26
25.65,2.48,10.52,3.29
25.65,2.51,10.62,3.31
25.65,2.50,10.61,3.33
25.65,2.46,10.60,3.41
25.66,2.40,10.62,3.43
25.66,2.27,10.58,3.50
25.66,2.16,10.54,3.55
25.66,1.98,10.46,3.63
25.67,1.72,10.30,3.69
25.67,1.46,10.20,3.77
25.67,1.19,10.13,3.77
25.67,0.93,9.95,3.75
25.68,0.70,9.83,3.85
25.68,0.40,9.69,3.92
25.68,0.12,9.51,3.89
25.68,-0.16,9.35,4.00
25.69,-0.42,9.20,4.09
25.69,-0.66,9.10,4.08
25.69,-0.90,8.93,4.08
25.69,-1.06,8.76,4.08
25.70,-1.29,8.61,4.05
25.70,-1.47,8.45,3.99
25.70,-1.64,8.27,3.96
25.70,-1.82,8.08,3.93
25.71,-1.94,7.91,3.88
25.71,-2.05,7.72,3.79
25.71,-2.13,7.53,3.71
25.71,-2.14,7.28,3.64
25.72,-2.09,7.03,3.58
25.72,-2.06,6.83,3.45
25.72,-1.99,6.64,3.35
25.72,-1.97,6.43,3.27
25.73,-1.93,6.21,3.15
25.73,-1.89,6.01,2.98
25.73,-1.75,5.82,2.89
25.73,-1.69,5.61,2.72
25.74,-1.60,5.45,2.50
25.74,-1.42,5.26,2.44
25.74,-1.30,5.17,2.28
25.74,-1.17,5.01,2.09
25.75,-0.98,4.92,2.06
25.75,-0.82,4.81,1.97
25.75,-0.62,4.75,1.89
25.75,-0.47,4.76,1.85
25.76,-0.32,4.77,1.81
25.76,-0.16,4.73,1.76
25.76,-0.01,4.74,1.80
25.76,0.12,4.78,1.70
25.77,0.30,4.80,1.58
25.77,0.36,4.82,1.53
25.77,0.47,4.90,1.42
25.77,0.65,4.94,1.17
25.78,0.84,5.03,0.94
25.78,1.02,5.13,0.63
25.78,1.14,5.24,0.30
25.78,1.34,5.43,0.02
25.79,1.53,5.68,-0.31
25.79,1.84,5.92,-0.72
25.79,2.15,6.23,-1.17
25.79,2.33,6.60,-1.37
25.80,2.57,6.94,-1.63
25.80,2.85,7.42,-1.82
25.80,3.03,7.79,-2.02
25.80,3.21,8.20,-2.20
25.81,3.32,8.67,-2.42
25.81,3.32,9.15,-2.56
25.81,3.36,9.54,-2.75
25.81,3.37,9.92,-2.82
25.82,3.22,10.31,-2.75
25.82,2.99,10.64,-2.68
25.82,2.60,10.90,-2.65
25.82,2.03,11.18,-2.37
25.83,1.32,11.34,-2.09
25.83,0.69,11.36,-1.91
25.83,0.11,11.36,-1.71
25.83,-0.31,11.23,-1.39
25.84,-0.53,11.11,-1.04
25.84,-0.70,11.07,-0.69
25.84,-0.75,10.95,-0.28
25.84,-0.61,10.83,0.09
25.85,-0.41,10.77,0.46
25.85,-0.06,10.72,0.76
25.85,0.20,10.67,0.97
25.85,0.32,10.62,1.12
25.86,0.47,10.62,1.21
25.86,0.60,10.62,1.30
25.86,0.78,10.60,1.30
25.86,0.88,10.62,1.24
25.87,0.99,10.77,1.22
25.87,1.12,10.97,1.24
25.87,1.23,11.14,1.23
25.87,1.37,11.28,1.17
25.88,1.47,11.42,1.15
25.88,1.48,11.53,1.26
25.88,1.59,11.60,1.52
25.88,1.58,11.66,1.89
25.89,1.60,11.79,2.36
25.89,1.70,12.01,2.92
25.89,1.86,12.26,3.43
25.89,1.94,12.45,3.88
25.90,2.13,12.68,4.30
25.90,2.18,12.84,4.50
25.90,2.22,12.93,4.54
25.90,2.14,13.01,4.54
25.91,1.88,13.08,4.53
25.91,1.55,13.15,4.51
25.91,1.29,13.33,4.60
25.91,1.35,13.23,4.92
25.92,1.58,12.95,5.19
25.92,1.96,12.71,5.14
25.92,2.31,12.44,5.13
25.92,2.56,12.25,5.16
25.93,2.98,11.89,4.87
25.93,3.31,11.52,4.58
25.93,3.42,11.24,4.44
25.93,3.27,11.01,4.35
25.94,2.99,10.84,4.17
25.94,2.66,10.57,3.88
25.94,2.40,10.24,3.63
25.94,2.21,9.98,3.42
25.95,2.07,9.71,3.27
25.95,2.03,9.56,2.88
25.95,2.09,9.37,2.63
25.95,2.24,9.12,2.54
25.96,2.45,8.94,2.44
25.96,2.70,8.76,2.46
25.96,2.88,8.57,2.56
25.96,3.06,8.36,2.56
25.97,3.27,8.13,2.81
25.97,3.41,7.97,3.05
25.97,3.54,7.76,3.21
25.97,3.60,7.65,3.39
25.98,3.67,7.61,3.66
25.98,3.72,7.53,3.91
25.98,3.73,7.49,4.16
25.98,3.72,7.47,4.38
25.99,3.73,7.44,4.53
25.99,3.62,7.45,4.60
25.99,3.50,7.48,4.80
25.99,3.46,7.50,4.92
26.00,3.33,7.52,5.04
26.00,3.17,7.55,5.07
26.00,3.04,7.59,5.08
26.00,2.91,7.59,5.07
26.01,2.74,7.51,5.02
26.01,2.58,7.45,4.91
26.01,2.40,7.43,4.76
26.01,2.29,7.39,4.58
26.02,2.22,7.34,4.41
26.02,2.10,7.29,4.20
26.02,1.97,7.23,4.08
26.02,1.86,7.12,3.94
26.03,1.74,7.01,3.65
26.03,1.74,6.93,3.37
26.03,1.74,6.80,3.18
26.03,1.85,6.69,3.04
26.04,1.87,6.58,2.93
26.04,1.94,6.48,2.94
26.04,2.02,6.42,3.06
26.04,2.06,6.44,3.13
26.05,2.06,6.39,3.17
26.05,2.03,6.43,3.16
26.05,2.06,6.46,3.21
26.05,2.12,6.42,3.18
26.06,2.17,6.43,3.16
26.06,2.21,6.41,3.16
26.06,2.25,6.39,3.20
26.07,2.33,6.38,3.28
26.07,2.37,6.35,3.35
26.07,2.38,6.39,3.46
26.07,2.44,6.36,3.57
26.08,2.50,6.37,3.69
26.08,2.60,6.36,3.87
26.08,2.72,6.37,4.04
26.08,2.76,6.43,4.31
26.09,2.85,6.49,4.49
26.09,2.98,6.45,4.68
26.09,3.05,6.45,4.83
26.09,3.09,6.48,4.85
26.10,3.20,6.54,4.98
26.10,3.31,6.47,5.07
26.10,3.38,6.45,5.11
26.10,3.42,6.42,5.31
26.11,3.44,6.38,5.42
26.11,3.48,6.39,5.51
26.11,3.50,6.43,5.65
26.11,3.53,6.40,5.75
26.12,3.55,6.35,5.91
26.12,3.61,6.36,6.00
26.12,3.63,6.39,6.10
26.12,3.69,6.36,6.31
26.13,3.79,6.35,6.40
26.13,3.86,6.31,6.54
26.13,3.93,6.37,6.69
26.13,3.96,6.31,6.83
26.14,4.12,6.22,6.93
26.14,4.21,6.18,6.98
26.14,4.30,6.18,7.03
26.14,4.37,6.12,7.17
26.15,4.37,6.02,7.20
26.15,4.42,6.00,7.16
26.15,4.51,6.06,7.09
26.15,4.60,6.12,7.07
26.16,4.70,6.21,7.07
26.16,4.87,6.33,7.05
26.16,4.98,6.43,7.03
26.16,5.07,6.48,7.04
26.17,5.06,6.56,6.98
26.17,5.06,6.64,6.93
26.17,5.06,6.71,6.89
26.17,5.06,6.66,6.69
26.18,5.08,6.54,6.49
26.18,5.14,6.50,6.31
26.18,5.27,6.36,6.01
26.18,5.27,6.27,5.67
26.19,5.30,6.23,5.43
26.19,5.23,6.28,5.16
26.19,5.11,6.31,4.93
26.19,4.98,6.47,4.72
26.20,4.86,6.65,4.57
26.20,4.67,6.84,4.43
26.20,4.53,7.06,4.20
26.20,4.47,7.27,4.07
26.21,4.50,7.51,3.92
26.21,4.56,7.70,3.87
26.21,4.59,7.88,3.86
26.21,4.65,8.08,3.91
26.22,4.67,8.36,4.05
26.22,4.72,8.59,4.31
26.22,4.83,8.84,4.64
26.22,4.97,9.03,5.11
26.23,5.15,9.19,5.54
26.23,5.31,9.37,6.04
26.23,5.47,9.56,6.51
26.23,5.48,9.69,6.90
26.24,5.44,9.71,7.31
26.24,5.29,9.72,7.59
26.24,5.01,9.68,7.83
26.24,4.76,9.60,8.05
26.25,4.51,9.45,8.19
26.25,4.28,9.29,8.31
26.25,4.20,9.20,8.38
26.25,4.19,9.09,8.25
26.26,4.17,9.11,8.02
26.26,4.17,9.22,7.63
26.26,4.13,9.48,7.11
26.26,4.03,9.81,6.50
26.27,3.92,10.05,5.75
26.27,3.77,10.38,4.92
26.27,3.54,10.61,4.09
26.27,3.26,10.86,3.17
26.28,2.96,11.13,2.38
26.28,2.66,11.42,1.65
26.28,2.40,11.74,1.02
26.28,2.25,12.03,0.57
26.29,2.09,12.33,0.22
26.29,1.99,12.64,-0.02
26.29,1.86,12.97,-0.19
26.29,1.71,13.23,-0.31
26.30,1.52,13.50,-0.36
26.30,1.30,13.72,-0.21
26.30,1.15,13.85,0.00
26.30,1.12,13.77,0.21
26.31,1.14,13.51,0.52
26.31,1.12,13.10,0.84
26.31,1.06,12.54,1.22
26.31,1.07,11.93,1.66
26.32,0.98,11.24,2.08
26.32,0.96,10.62,2.51
26.32,0.90,10.08,3.04
26.32,0.73,9.59,3.44
26.33,0.50,9.15,3.72
26.33,0.20,8.74,3.95
26.33,-0.21,8.43,4.11
26.33,-0.63,8.16,4.14
26.34,-1.02,7.92,4.13
26.34,-1.34,7.76,4.03
26.34,-1.70,7.60,3.84
26.34,-2.04,7.51,3.65
26.35,-2.29,7.33,3.51
26.35,-2.37,7.06,3.39
26.35,-2.34,6.87,3.18
26.35,-2.25,6.61,2.98
26.36,-2.15,6.34,2.73
26.36,-1.96,6.00,2.65
26.36,-1.81,5.73,2.48
26.36,-1.74,5.60,2.22
26.37,-1.68,5.60,2.04
26.37,-1.60,5.49,2.01
26.37,-1.50,5.40,2.01
26.37,-1.44,5.37,1.94
26.38,-1.46,5.46,1.83
26.38,-1.54,5.63,1.62
26.38,-1.55,5.87,1.44
26.38,-1.58,6.27,1.40
26.39,-1.46,6.70,1.21
26.39,-1.14,7.13,1.20
26.39,-0.84,7.59,1.26
26.39,-0.64,8.10,1.41
26.40,-0.48,8.59,1.59
26.40,-0.32,9.17,1.76
26.40,-0.15,9.79,2.01
26.40,-0.07,10.43,2.13
26.41,0.01,11.12,2.13
26.41,0.02,11.79,2.04
26.41,0.14,12.45,2.04
26.41,0.22,13.14,2.21
26.42,0.30,13.70,2.42
26.42,0.41,14.27,2.58
26.42,0.49,14.72,2.81
26.42,0.57,15.06,3.00
26.43,0.63,15.36,3.16
26.43,0.65,15.61,3.22
26.43,0.62,15.68,3.51
26.43,0.59,15.71,3.71
26.44,0.61,15.65,3.79
26.44,0.61,15.53,3.92
26.44,0.60,15.34,4.05
26.44,0.64,15.03,4.13
26.45,0.73,14.52,4.11
26.45,1.14,13.78,4.07
26.45,1.61,12.99,4.11
26.45,2.00,12.41,4.13
26.46,2.19,11.90,4.08
26.46,2.34,11.44,4.07
26.46,2.44,11.09,4.01
26.46,2.50,10.72,3.88
26.47,2.50,10.35,3.72
26.47,2.41,10.10,3.60
26.47,2.26,9.83,3.35
26.47,1.99,9.57,3.18
26.48,1.65,9.45,3.02
26.48,1.33,9.34,2.84
26.48,1.02,9.19,2.62
26.48,0.82,9.04,2.54
26.49,0.71,8.92,2.44
26.49,0.54,8.81,2.30
26.49,0.34,8.62,2.18
26.49,0.18,8.43,1.98
26.50,0.01,8.24,1.90
26.50,-0.13,8.09,1.86
26.50,-0.20,7.98,1.80
26.50,-0.32,7.83,1.81
26.51,-0.36,7.74,1.72
26.51,-0.48,7.59,1.77
26.51,-0.51,7.55,1.93
26.51,-0.55,7.55,2.11
26.52,-0.65,7.45,2.22
26.52,-0.80,7.43,2.32
26.52,-0.87,7.44,2.57
26.52,-0.74,7.48,2.34
26.53,-0.86,7.57,2.30
26.53,-1.09,7.57,2.54
26.53,-1.21,7.62,2.44
26.53,-1.24,7.65,2.35
26.54,-1.32,7.72,1.93
26.54,-1.30,7.86,1.39
26.54,-1.24,7.85,0.92
26.54,-1.20,7.84,0.76
26.55,-1.33,7.82,0.78
26.55,-1.44,7.83,1.12
26.55,-1.34,7.74,1.46
26.55,-1.22,7.62,1.76
26.56,-1.23,7.55,1.95
26.56,-1.21,7.61,1.90
26.56,-1.23,7.68,1.96
26.56,-1.15,7.76,1.98
26.57,-0.97,7.74,2.09
26.57,-0.89,7.73,2.35
26.57,-0.84,7.79,2.63
26.57,-0.74,7.86,3.01
26.58,-0.67,8.03,3.48
26.58,-0.64,8.22,3.81
26.58,-0.66,8.36,4.08
26.58,-0.85,8.55,4.25
26.59,-0.72,8.63,4.20
26.59,-0.47,8.64,4.20
26.59,-0.30,8.50,4.32
26.59,0.04,8.33,4.57
26.60,0.16,8.24,4.95
26.60,-0.01,8.40,5.06
26.60,-0.20,8.53,5.05
26.60,-0.40,8.69,5.16
26.61,-0.48,8.87,5.34
26.61,-0.54,8.90,5.41
26.61,-0.56,8.92,5.46
26.61,-0.61,8.90,5.45
26.62,-0.57,8.84,5.29
26.62,-0.60,8.71,5.15
26.62,-0.54,8.58,5.06
26.62,-0.52,8.44,4.88
26.63,-0.47,8.31,4.84
26.63,-0.43,8.19,4.74
26.63,-0.42,7.99,4.59
26.63,-0.43,7.84,4.50
26.64,-0.42,7.70,4.44
26.64,-0.39,7.49,4.37
26.64,-0.39,7.36,4.36
26.64,-0.39,7.18,4.29
26.65,-0.32,7.05,4.24
26.65,-0.22,7.05,4.29
26.65,-0.11,7.03,4.22
26.65,0.08,7.02,4.02
26.66,0.24,6.98,3.94
26.66,0.42,6.91,3.90
26.66,0.50,6.91,3.78
26.66,0.61,6.90,3.59
26.67,0.73,6.97,3.46
26.67,0.63,7.14,3.30
26.67,0.79,6.98,3.33
26.67,0.96,6.92,3.39
26.68,1.01,6.98,3.36
26.68,1.00,7.04,3.39
26.68,0.94,7.21,3.39
26.68,0.82,7.33,3.35
26.69,0.73,7.51,3.34
26.69,0.68,7.65,3.38
26.69,0.57,7.74,3.43
26.69,0.51,7.80,3.50
26.70,0.42,7.92,3.62
26.70,0.35,8.03,3.75
26.70,0.23,8.02,3.93
26.70,0.24,8.00,4.11
26.71,0.23,7.96,4.27
26.71,0.30,7.82,4.44
26.71,0.34,7.70,4.56
26.71,0.40,7.62,4.64
26.72,0.46,7.53,4.73
26.72,0.44,7.54,4.79
26.72,0.46,7.49,4.90
26.72,0.48,7.56,5.03
26.73,0.48,7.61,5.10
26.73,0.50,7.63,5.15
26.73,0.61,7.59,5.24
26.73,0.71,7.58,5.22
26.74,0.83,7.57,5.16
26.74,0.98,7.52,5.15
26.74,1.15,7.52,5.15
26.74,1.23,7.53,4.98
26.75,1.41,7.53,4.89
26.75,1.55,7.48,4.82
26.75,1.69,7.50,4.76
26.75,1.77,7.49,4.71
26.76,1.86,7.54,4.61
26.76,2.02,7.53,4.55
26.76,2.15,7.50,4.41
26.76,2.28,7.51,4.29
26.77,2.36,7.53,4.14
26.77,2.38,7.52,4.07
26.77,2.44,7.54,3.95
26.77,2.44,7.58,3.88
26.78,2.40,7.64,3.81
26.78,2.35,7.71,3.78
26.78,2.24,7.80,3.79
26.78,2.13,7.89,3.81
26.79,2.05,8.06,3.86
26.79,1.93,8.16,3.90
26.79,1.81,8.27,3.92
26.79,1.74,8.39,4.02
26.80,1.63,8.58,4.09
26.80,1.50,8.72,4.20
26.80,1.43,8.94,4.31
26.80,1.33,9.10,4.43
26.81,1.17,9.24,4.59
26.81,1.07,9.39,4.66
26.81,0.99,9.60,4.75
26.81,0.83,9.76,4.83
26.82,0.74,9.86,4.92
26.82,0.67,9.99,5.03
26.82,0.58,10.10,5.06
26.82,0.51,10.17,5.16
26.83,0.43,10.23,5.15
26.83,0.28,10.28,5.22
26.83,0.09,10.30,5.18
26.83,-0.07,10.26,5.16
26.84,-0.21,10.26,5.10
26.84,-0.33,10.19,5.05
26.84,-0.49,10.09,5.10
26.84,-0.62,10.01,5.19
26.85,-0.74,9.86,5.23
26.85,-0.86,9.74,5.36
26.85,-0.94,9.54,5.43
26.85,-1.01,9.37,5.39
26.86,-1.07,9.28,5.35
26.86,-1.07,9.09,5.28
26.86,-1.11,8.93,5.22
26.86,-1.13,8.84,5.20
26.87,-1.16,8.69,5.12
26.87,-1.08,8.54,4.98
26.87,-1.04,8.43,4.78
26.87,-1.00,8.35,4.65
26.88,-0.96,8.27,4.52
26.88,-0.99,8.22,4.40
26.88,-1.02,8.15,4.22
26.88,-0.99,8.13,4.12
26.89,-0.98,8.10,4.02
26.89,-0.92,8.09,3.89
26.89,-0.97,8.05,3.77
26.89,-1.00,8.05,3.67
26.90,-0.97,8.01,3.61
26.90,-0.99,8.02,3.62
26.90,-0.97,8.05,3.58
26.90,-0.95,8.04,3.54
26.91,-0.98,7.94,3.61
26.91,-1.02,8.04,3.65
26.91,-1.05,8.06,3.79
26.91,-1.01,8.04,3.93
26.92,-1.00,8.09,4.01
26.92,-1.02,8.13,4.12
26.92,-1.05,8.13,4.27
26.92,-1.01,8.22,4.38
26.93,-1.02,8.27,4.54
26.93,-1.08,8.32,4.73
26.93,-1.04,8.44,4.85
26.93,-1.00,8.54,5.00
26.94,-0.93,8.65,5.03
26.94,-0.85,8.66,5.10
26.94,-0.81,8.74,5.14
26.94,-0.68,8.86,5.22
26.95,-0.66,8.94,5.26
26.95,-0.58,8.94,5.22
26.95,-0.48,9.03,5.25
26.95,-0.50,9.10,5.32
26.96,-0.45,9.17,5.33
26.96,-0.42,9.25,5.25
26.96,-0.38,9.28,5.23
26.96,-0.25,9.25,5.18
26.97,-0.15,9.27,5.19
26.97,-0.08,9.41,5.19
26.97,0.04,9.42,5.18
26.97,0.14,9.48,5.29
26.98,0.25,9.54,5.27
26.98,0.38,9.53,5.27
26.98,0.51,9.61,5.30
26.98,0.51,9.67,5.33
26.99,0.53,9.74,5.35
26.99,0.59,9.88,5.36
26.99,0.61,9.93,5.51
26.99,0.66,10.03,5.57
27.00,0.67,10.18,5.54
27.00,0.74,10.34,5.59
27.00,0.86,10.43,5.60
27.00,0.99,10.44,5.52
27.01,1.12,10.54,5.48
27.01,1.26,10.65,5.47
27.01,1.45,10.64,5.41
27.01,1.67,10.61,5.38
27.02,1.92,10.59,5.33
27.02,2.10,10.59,5.29
27.02,2.30,10.55,5.30
27.02,2.43,10.50,5.21
27.03,2.52,10.50,5.14
27.03,2.73,10.44,5.08
27.03,2.90,10.47,5.00
27.03,2.97,10.51,4.92
27.04,2.97,10.51,4.80
27.04,3.04,10.56,4.63
27.04,3.14,10.53,4.47
27.04,3.17,10.54,4.29
27.05,3.21,10.50,4.22
27.05,3.26,10.53,4.05
27.05,3.23,10.56,3.97
27.05,3.12,10.61,3.84
27.06,3.08,10.67,3.71
27.06,2.92,10.70,3.54
27.06,2.73,10.73,3.36
27.06,2.54,10.80,3.18
27.07,2.28,10.82,3.05
27.07,2.00,10.82,2.86
27.07,1.67,10.83,2.72
27.07,1.30,10.79,2.55
27.08,1.03,10.79,2.37
27.08,0.85,10.65,2.26
27.08,0.65,10.58,2.16
27.08,0.50,10.46,2.06
27.09,0.36,10.28,1.90
27.09,0.26,10.08,1.94
27.09,0.19,9.86,1.96
27.09,0.17,9.70,1.92
27.10,0.10,9.45,1.93
27.10,0.13,9.16,1.89
27.10,0.11,8.90,1.96
27.10,0.03,8.69,2.04
27.11,-0.11,8.45,2.14
27.11,-0.20,8.20,2.28
27.11,-0.29,8.01,2.44
27.11,-0.44,7.83,2.57
27.12,-0.54,7.68,2.68
27.12,-0.67,7.53,2.80
27.12,-0.77,7.37,2.95
27.12,-0.93,7.23,3.18
27.13,-0.94,7.17,3.37
27.13,-1.02,7.06,3.54
27.13,-1.04,6.96,3.83
27.13,-1.04,6.89,4.01
27.14,-1.14,6.80,4.20
27.14,-1.12,6.80,4.34
27.14,-1.14,6.71,4.43
27.14,-1.14,6.65,4.57
27.15,-1.16,6.70,4.62
27.15,-1.17,6.66,4.56
27.15,-1.13,6.63,4.51
27.15,-1.14,6.63,4.44
27.16,-1.17,6.60,4.38
27.16,-1.15,6.54,4.22
27.16,-1.15,6.53,4.00
27.16,-1.15,6.59,3.81
27.17,-1.07,6.58,3.69
27.17,-0.99,6.55,3.62
27.17,-0.90,6.56,3.54
27.17,-0.84,6.64,3.49
27.18,-0.73,6.73,3.42
27.18,-0.70,6.84,3.28
27.18,-0.74,6.98,3.05
27.18,-0.74,7.14,2.73
27.19,-0.80,7.27,2.27
27.19,-0.89,7.39,1.83
27.19,-0.97,7.58,1.35
27.19,-0.97,7.66,0.75
27.20,-0.91,7.76,0.14
27.20,-0.77,7.99,-0.43
27.20,-0.73,8.20,-1.12
27.20,-0.45,8.41,-1.83
27.21,-0.17,8.66,-2.41
27.21,0.05,8.96,-2.87
27.21,0.30,9.29,-3.20
27.21,0.41,9.64,-3.56
27.22,0.33,9.95,-4.04
27.22,0.32,10.19,-4.58
27.22,0.26,10.32,-5.00
27.22,0.10,10.40,-5.15
27.23,-0.09,10.36,-5.07
27.23,-0.29,10.35,-4.82
27.23,-0.45,10.28,-4.49
27.23,-0.55,10.14,-4.09
27.24,-0.66,9.99,-3.49
27.24,-0.64,9.91,-2.75
27.24,-0.57,9.72,-1.88
27.24,-0.44,9.54,-1.10
27.25,-0.27,9.32,-0.22
27.25,-0.18,9.13,0.47
27.25,-0.10,8.94,0.99
27.25,-0.20,8.72,1.38
27.26,-0.27,8.60,1.73
27.26,-0.35,8.51,2.06
27.26,-0.45,8.39,2.31
27.26,-0.49,8.24,2.58
27.27,-0.53,8.13,2.72
27.27,-0.53,8.06,2.86
27.27,-0.52,8.02,3.02
27.27,-0.44,8.04,2.94
27.28,-0.17,8.07,2.78
27.28,0.10,8.22,2.69
27.28,0.29,8.33,2.51
27.28,0.41,8.48,2.23
27.29,0.54,8.65,1.91
27.29,0.69,8.83,1.63
27.29,0.74,9.04,1.41
27.29,0.81,9.28,1.24
27.30,0.83,9.53,1.18
27.30,0.81,9.78,1.12
27.30,0.99,10.03,1.11
27.30,1.16,10.55,1.28
27.31,1.63,11.00,1.76
27.31,1.96,11.19,2.40
27.31,2.11,11.03,2.95
27.31,2.23,10.88,3.24
27.32,2.22,10.91,3.27
27.32,2.27,10.95,3.35
27.32,2.48,10.84,3.54
27.32,2.52,11.04,3.90
27.33,2.70,11.34,4.41
27.33,3.26,11.39,4.61
27.33,3.92,11.19,4.44
27.33,4.39,11.12,4.45
27.34,4.74,11.15,4.72
27.34,4.96,11.16,4.77
27.34,5.06,11.11,4.79
27.34,5.31,11.00,4.87
27.35,5.43,10.88,5.06
27.35,5.50,10.81,5.15
27.35,5.51,10.61,5.13
27.35,5.45,10.41,5.06
27.36,5.37,10.08,4.92
27.36,5.30,9.78,4.67
27.36,5.19,9.57,4.46
27.36,5.05,9.24,4.23
27.37,4.97,9.03,4.12
27.37,4.91,8.76,3.98
27.37,4.92,8.51,3.89
27.37,4.89,8.24,3.81
27.38,4.88,8.00,3.84
27.38,4.79,7.69,3.75
27.38,4.80,7.46,3.69
27.38,4.76,7.26,3.68
27.39,4.64,7.12,3.76
27.39,4.62,7.04,3.91
27.39,4.56,6.95,3.99
27.39,4.54,6.88,4.13
27.40,4.51,6.76,4.15
27.40,4.48,6.66,4.06
27.40,4.42,6.64,3.99
27.40,4.30,6.59,4.07
27.41,4.10,6.50,4.01
27.41,3.91,6.46,4.05
27.41,3.68,6.47,4.25
27.41,3.49,6.46,4.36
27.42,3.40,6.46,4.48
27.42,3.32,6.47,4.59
27.42,3.22,6.51,4.77
27.42,3.13,6.59,4.80
27.43,3.05,6.59,4.94
27.43,2.99,6.57,5.01
27.43,2.93,6.56,5.11
27.43,2.85,6.52,5.17
27.44,2.82,6.45,5.17
27.44,2.80,6.37,5.25
27.44,2.81,6.35,5.27
27.44,2.82,6.26,5.32
27.45,2.84,6.24,5.27
27.45,2.90,6.20,5.23
27.45,2.96,6.13,5.22
27.45,3.05,6.06,5.23
27.46,3.15,6.03,5.20
27.46,3.30,5.94,5.18
27.46,3.39,5.77,5.11
27.46,3.52,5.69,4.99
27.47,3.57,5.60,4.95
27.47,3.54,5.43,4.88
27.47,3.50,5.31,4.78
27.47,3.50,5.28,4.67
27.48,3.55,5.23,4.53
27.48,3.59,5.18,4.44
27.48,3.70,5.14,4.37
27.48,3.82,5.14,4.28
27.49,3.95,5.10,4.22
27.49,4.07,5.10,4.20
27.49,4.22,5.10,4.25
27.49,4.33,5.06,4.29
27.50,4.36,5.05,4.38
27.50,4.33,5.04,4.47
27.50,4.39,4.97,4.61
27.50,4.48,4.95,4.74
27.51,4.58,4.92,4.88
27.51,4.74,4.92,4.97
27.51,4.91,4.98,5.15
27.51,5.02,5.03,5.36
27.52,5.18,5.11,5.51
27.52,5.28,5.16,5.63
27.52,5.32,5.32,5.81
27.52,5.33,5.48,5.87
27.53,5.38,5.68,5.86
27.53,5.39,5.81,5.90
27.53,5.38,6.12,5.95
27.53,5.41,6.42,6.06
27.54,5.42,6.79,6.11
27.54,5.43,7.23,6.21
27.54,5.48,7.66,6.35
27.54,5.45,7.92,6.49
27.55,5.40,8.26,6.64
27.55,5.37,8.57,6.71
27.55,5.29,8.85,6.79
27.55,5.35,9.02,6.85
27.56,5.43,9.18,6.88
27.56,5.33,9.33,6.86
27.56,5.24,9.43,6.84
27.56,5.20,9.50,6.68
27.57,5.26,9.52,6.57
27.57,5.44,9.37,6.44
27.57,5.63,9.04,6.35
27.57,5.88,8.66,6.12
27.58,6.07,8.36,5.95
27.58,6.24,8.04,5.85
27.58,6.22,7.71,5.80
27.58,6.15,7.43,5.69
27.59,5.92,7.22,5.68
27.59,5.58,7.05,5.71
27.59,5.28,6.93,5.87
27.59,5.02,6.89,6.18
27.60,4.83,6.90,6.70
27.60,4.61,6.88,7.27
27.60,4.32,6.92,7.82
27.60,4.10,6.96,8.13
27.61,3.77,6.96,8.43
27.61,3.53,6.96,8.75
27.61,3.27,6.93,8.93
27.61,2.96,6.83,8.99
27.62,2.70,6.74,8.95
27.62,2.46,6.54,8.68
27.62,2.22,6.32,8.13
27.62,1.87,6.00,6.99
27.63,1.35,5.67,5.13
27.63,0.86,5.10,2.92
27.63,0.62,4.47,1.05
27.63,0.51,3.85,-0.35
27.64,0.50,3.47,-1.24
27.64,0.62,3.25,-1.54
27.64,0.90,3.37,-1.44
27.64,1.23,3.75,-1.08
27.65,1.50,4.24,-0.82
27.65,1.62,4.91,-0.65
27.65,1.70,5.68,-0.65
27.65,1.63,6.47,-0.83
27.66,1.47,7.29,-1.10
27.66,1.25,8.11,-1.50
27.66,1.00,8.94,-1.78
27.66,0.59,9.80,-2.00
27.67,0.08,10.66,-2.21
27.67,-0.49,11.64,-2.27
27.67,-1.04,12.73,-2.24
27.67,-1.45,13.92,-2.12
27.68,-1.76,15.11,-1.90
27.68,-1.95,16.36,-1.48
27.68,-2.07,17.60,-0.81
27.68,-2.15,18.79,-0.03
27.69,-2.13,19.76,0.56
27.69,-2.17,20.59,1.04
27.69,-2.18,21.29,1.41
27.69,-2.14,21.74,1.50
27.70,-2.07,21.91,1.52
27.70,-1.88,21.72,1.41
27.70,-1.50,20.96,1.43
27.70,-0.97,19.38,1.67
27.71,-0.66,17.18,2.27
27.71,-0.51,14.99,2.91
27.71,-0.32,13.23,3.35
27.71,-0.17,11.99,3.72
27.72,0.02,10.98,3.97
27.72,0.00,10.27,4.09
27.72,-0.18,9.73,4.13
27.72,-0.51,9.34,4.12
27.73,-0.97,9.00,3.96
27.73,-1.44,8.73,3.78
27.73,-1.80,8.53,3.68
27.73,-2.00,8.34,3.66
27.74,-2.21,8.13,3.43
27.74,-2.28,7.82,3.24
27.74,-2.24,7.60,3.04
27.74,-2.24,7.46,2.79
27.75,-2.20,7.37,2.50
27.75,-2.13,7.24,2.15
27.75,-1.99,7.12,1.91
27.75,-1.88,6.97,1.69
27.76,-1.70,6.97,1.41
27.76,-1.59,6.99,1.19
27.76,-1.34,7.17,1.09
27.76,-1.12,7.40,1.00
27.77,-0.95,7.60,1.04
27.77,-0.76,8.00,1.09
27.77,-0.65,8.37,1.13
27.77,-0.61,8.73,1.28
27.78,-0.60,9.07,1.45
27.78,-0.63,9.46,1.66
27.78,-0.66,9.78,1.77
27.78,-0.65,10.09,1.91
27.79,-0.64,10.47,1.98
27.79,-0.63,10.86,2.03
27.79,-0.58,11.23,2.11
27.79,-0.48,11.70,2.21
27.80,-0.37,12.10,2.35
27.80,-0.20,12.41,2.57
27.80,-0.05,12.71,2.80
27.80,0.11,13.06,3.00
27.81,0.25,13.31,3.25
27.81,0.36,13.48,3.59
27.81,0.57,13.66,3.93
27.81,0.75,13.80,4.21
27.82,0.96,13.84,4.66
27.82,1.15,13.86,5.03
27.82,1.43,13.82,5.33
27.82,1.71,13.80,5.64
27.83,2.01,13.63,5.84
27.83,2.29,13.44,6.07
27.83,2.61,13.19,6.21
27.83,2.98,12.87,6.31
27.84,3.31,12.52,6.27
27.84,3.70,12.17,6.17
27.84,3.98,11.82,5.91
27.84,4.19,11.50,5.60
27.85,4.33,11.14,5.24
27.85,4.50,10.79,4.68
27.85,4.64,10.41,4.23
27.85,4.77,9.98,3.69
27.86,4.82,9.61,3.26
27.86,4.75,9.35,2.96
27.86,4.53,9.10,2.76
27.86,4.11,8.85,2.68
27.87,3.57,8.80,2.60
27.87,3.01,8.80,2.57
27.87,2.58,8.69,2.51
27.87,2.25,8.50,2.42
27.88,1.98,8.30,2.35
27.88,1.60,8.10,2.27
27.88,1.10,7.97,2.16
27.88,0.75,7.86,2.09
27.89,0.49,7.73,1.97
27.89,0.24,7.60,1.99
27.89,0.02,7.43,2.02
27.89,-0.14,7.28,1.99
27.90,-0.34,7.16,2.01
27.90,-0.42,7.00,2.09
27.90,-0.44,6.88,2.02
27.90,-0.35,6.73,1.82
27.91,-0.33,6.68,1.75
27.91,-0.31,6.63,1.64
27.91,0.00,6.62,1.33
27.91,0.39,6.48,1.10
27.92,0.54,6.40,1.01
27.92,0.58,6.33,0.83
27.92,0.63,6.34,0.56
27.92,0.63,6.32,0.54
27.93,0.59,6.17,0.69
27.93,0.62,6.05,0.96
27.93,0.61,6.04,1.36
27.93,0.62,6.02,1.62
27.94,0.68,6.17,1.82
27.94,0.69,6.28,1.88
27.94,0.69,6.40,2.01
27.94,0.83,6.59,2.15
27.95,0.98,6.71,2.44
27.95,1.06,6.88,3.00
27.95,1.08,7.09,3.55
27.95,1.09,7.29,4.21
27.96,1.04,7.56,4.94
27.96,0.82,7.93,5.55
27.96,0.61,8.20,5.89
27.96,0.43,8.50,6.18
27.97,0.20,8.74,6.40
27.97,-0.03,8.99,6.48
27.97,-0.27,9.20,6.62
27.97,-0.44,9.32,6.65
27.98,-0.59,9.32,6.62
27.98,-0.72,9.29,6.54
27.98,-0.77,9.23,6.41
27.98,-0.77,9.13,6.25
27.99,-0.74,8.99,5.96
27.99,-0.76,8.87,5.62
27.99,-0.78,8.76,5.32
27.99,-0.84,8.70,5.05
28.00,-0.84,8.54,4.72
28.00,-0.81,8.44,4.33
28.00,-0.78,8.36,3.99
28.00,-0.85,8.31,3.71
28.01,-0.85,8.20,3.46
28.01,-0.92,8.20,3.22
28.01,-0.87,8.16,3.14
28.01,-0.78,8.15,3.10
28.02,-0.66,8.05,2.97
28.02,-0.60,7.99,2.92
28.02,-0.52,7.95,2.89
28.02,-0.48,7.84,2.89
28.03,-0.41,7.76,2.91
28.03,-0.34,7.61,3.00
28.03,-0.26,7.62,3.10
28.03,-0.22,7.58,3.18
28.04,-0.17,7.50,3.33
28.04,-0.12,7.49,3.50
28.04,-0.12,7.47,3.70
28.04,-0.01,7.44,3.82
28.05,0.15,7.40,4.07
28.05,0.21,7.40,4.25
28.05,0.25,7.47,4.38
28.05,0.27,7.57,4.49
28.06,0.32,7.64,4.60
28.06,0.40,7.65,4.74
28.06,0.51,7.74,4.86
28.06,0.58,7.81,4.99
28.07,0.67,7.92,5.12
28.07,0.77,7.98,5.16
28.07,0.99,7.83,5.32
28.07,1.05,7.90,5.32
28.08,1.10,8.04,5.28
28.08,1.15,8.06,5.22
28.08,1.26,8.08,5.11
28.08,1.34,8.21,5.06
28.09,1.39,8.28,4.91
28.09,1.38,8.35,4.72
28.09,1.38,8.46,4.59
28.09,1.28,8.54,4.49
28.10,1.17,8.61,4.41
28.10,1.09,8.64,4.24
28.10,1.05,8.69,4.12
28.10,0.95,8.61,4.08
28.11,0.90,8.49,3.99
28.11,0.87,8.36,4.04
28.11,0.81,8.24,3.98
28.11,0.72,8.17,3.95
28.12,0.67,8.01,3.97
28.12,0.60,7.94,4.05
28.12,0.56,7.96,4.08
28.12,0.48,7.96,4.11
28.13,0.38,7.96,4.19
28.13,0.30,8.00,4.19
28.13,0.30,8.02,4.23
28.13,0.32,8.02,4.24
28.14,0.32,8.01,4.22
28.14,0.40,8.00,4.28
28.14,0.44,8.02,4.33
28.14,0.56,7.97,4.26
28.15,0.70,7.94,4.29
28.15,0.73,7.95,4.35
28.15,0.76,7.96,4.34
28.15,0.81,7.96,4.30
28.16,0.84,7.94,4.29
28.16,0.81,7.91,4.29
28.16,0.77,7.90,4.28
28.16,0.73,7.87,4.39
28.17,0.74,7.86,4.44
28.17,0.67,7.89,4.47
28.17,0.64,7.87,4.50
28.17,0.61,7.85,4.57
28.18,0.54,7.81,4.60
28.18,0.52,7.79,4.67
28.18,0.47,7.80,4.74
28.18,0.36,7.77,4.94
28.19,0.24,7.82,5.12
28.19,0.09,7.85,5.29
28.19,-0.06,7.88,5.45
28.19,-0.18,7.95,5.57
28.20,-0.20,8.01,5.74
28.20,-0.17,8.06,5.91
28.20,-0.03,8.04,5.92
28.20,0.09,8.01,5.92
28.21,0.24,8.00,5.92
28.21,0.38,7.98,5.77
28.21,0.51,7.96,5.61
28.21,0.66,7.92,5.40
28.22,0.78,7.88,5.16
28.22,0.89,7.88,4.94
28.22,0.97,7.86,4.59
28.22,1.02,7.92,4.27
28.23,1.05,7.91,3.94
28.23,1.11,7.97,3.61
28.23,1.16,8.04,3.39
28.23,1.17,8.13,3.08
28.24,1.18,8.19,2.77
28.24,1.16,8.30,2.50
28.24,1.17,8.39,2.32
28.24,1.15,8.46,2.15
28.25,1.12,8.56,2.00
28.25,1.09,8.64,1.94
28.25,1.01,8.71,1.93
28.25,0.93,8.81,1.82
28.26,0.91,8.86,1.89
28.26,0.83,8.94,1.84
28.26,0.70,9.03,1.91
28.26,0.53,9.14,1.97
28.27,0.41,9.26,2.03
28.27,0.28,9.33,2.14
28.27,0.12,9.38,2.28
28.27,0.02,9.48,2.40
