"Time (s)","Acceleration x (m/s^2)","Acceleration y (m/s^2)","Acceleration z (m/s^2)"
2.961537700E-2,-2.725723982E0,4.026821613E0,8.555238724E0
3.207720000E-2,-2.757129908E0,4.081856251E0,8.598309517E0
3.454610600E-2,-2.807379246E0,4.089034557E0,8.629714966E0
3.701501200E-2,-2.828914642E0,4.129712582E0,8.581559181E0
3.950329300E-2,-2.864806890E0,4.179962158E0,8.574380875E0
4.199152200E-2,-2.907877684E0,4.117748737E0,8.660821915E0
4.446042900E-2,-2.905484915E0,4.144069672E0,8.651249886E0
4.692933500E-2,-2.907877684E0,4.146462440E0,8.660821915E0
4.939818900E-2,-2.862414122E0,4.151247978E0,8.668000221E0
5.186709500E-2,-2.848057270E0,4.144069672E0,8.668000221E0
5.433600200E-2,-2.800200701E0,4.175176620E0,8.701499939E0
5.680490800E-2,-2.776272535E0,4.179962158E0,8.670392990E0
5.927381400E-2,-2.730509758E0,4.220939159E0,8.677571297E0
6.174272000E-2,-2.649153709E0,4.228117466E0,8.782855988E0
6.420876200E-2,-2.598904610E0,4.237689018E0,8.746963501E0
6.667480400E-2,-2.534298182E0,4.254438877E0,8.711071014E0
6.914084500E-2,-2.474477768E0,4.316651821E0,8.703892708E0
7.160688700E-2,-2.469393015E0,4.292723656E0,8.646464348E0
7.407292900E-2,-2.352144718E0,4.338187218E0,8.644071579E0
7.653897000E-2,-2.254039049E0,4.374079704E0,8.665607452E0
7.900501200E-2,-2.225325108E0,4.369294167E0,8.665607452E0
8.147105400E-2,-2.201097727E0,4.450650215E0,8.629714966E0
8.393709500E-2,-2.102992058E0,4.433900356E0,8.615058899E0
8.640313700E-2,-2.055135489E0,4.496412754E0,8.615058899E0
8.886917900E-2,-1.945065737E0,4.510769844E0,8.653642654E0
9.133522000E-2,-1.916052699E0,4.565804482E0,8.641678810E0
9.380126200E-2,-1.913659930E0,4.563411713E0,8.624929428E0
9.626730400E-2,-1.872981906E0,4.568197727E0,8.574380875E0
9.873334500E-2,-1.813161373E0,4.623232365E0,8.624929428E0
1.011993870E-1,-1.722234130E0,4.656732082E0,8.593523026E0
1.036654290E-1,-1.669592023E0,4.668695927E0,8.665607452E0
1.061314700E-1,-1.628614902E0,4.668695927E0,8.682356834E0
1.085975120E-1,-1.571187139E0,4.714159489E0,8.770891190E0
1.110635540E-1,-1.520937920E0,4.721338272E0,8.782855988E0
1.135295950E-1,-1.506580949E0,4.711766720E0,8.742177963E0
1.159956370E-1,-1.453938842E0,4.706981182E0,8.756534576E0
1.184616790E-1,-1.422832131E0,4.718945503E0,8.823533058E0
1.209277200E-1,-1.398604870E0,4.716552734E0,8.835497856E0
1.233937620E-1,-1.401296735E0,4.728516579E0,8.890532494E0
1.258598040E-1,-1.350748420E0,4.695017338E0,8.852247238E0
1.283258450E-1,-1.357926846E0,4.690231323E0,8.900403023E0
1.307918870E-1,-1.350748420E0,4.695017338E0,8.960223198E0
1.332579290E-1,-1.343569875E0,4.678267479E0,9.027222633E0
1.357239700E-1,-1.357926846E0,4.661517620E0,9.171091080E0
1.381900120E-1,-1.333998680E0,4.675874710E0,9.235696793E0
1.406560540E-1,-1.362712502E0,4.651946545E0,9.295517921E0
1.431220950E-1,-1.333998680E0,4.532305241E0,9.463314056E0
1.455881370E-1,-1.276570916E0,4.494019985E0,9.561420441E0
1.480541790E-1,-1.266999602E0,4.467400074E0,9.698110580E0
1.505202200E-1,-1.240678549E0,4.436293125E0,9.774680138E0
1.529862620E-1,-1.207179070E0,4.402793884E0,9.899106979E0
1.554523040E-1,-1.214357495E0,4.311866283E0,9.915857315E0
1.579183450E-1,-1.161715388E0,4.280759811E0,1.004297543E1
1.603843870E-1,-1.168893814E0,4.254438877E0,1.013868904E1
1.628504290E-1,-1.188036442E0,4.240081787E0,1.017218781E1
1.653164700E-1,-1.178465128E0,4.172783375E0,1.022243786E1
1.677825120E-1,-1.178465128E0,4.117748737E0,1.029212856E1
1.702485540E-1,-1.183250785E0,4.077070713E0,1.037827015E1
1.727145950E-1,-1.202393413E0,4.024428368E0,1.037348461E1
1.751806370E-1,-1.166501045E0,3.981357813E0,1.042373371E1
1.776466790E-1,-1.180858016E0,3.945166349E0,1.048355389E1
1.801127200E-1,-1.233500123E0,3.863810301E0,1.051735306E1
1.825652200E-1,-1.207179070E0,3.813561201E0,1.050299549E1
1.850324600E-1,-1.252642632E0,3.823132277E0,1.056760216E1
1.874997000E-1,-1.250249863E0,3.736990690E0,1.052931690E1
1.899669390E-1,-1.200000525E0,3.693919897E0,1.051017475E1
1.924341790E-1,-1.168893814E0,3.569194078E0,1.060110188E1
1.949014180E-1,-6.610172391E-1,2.812164783E0,1.165992546E1
1.973686580E-1,-6.969096065E-1,2.802593470E0,1.071595669E1
1.998358970E-1,-7.926225066E-1,2.896212816E0,1.039501953E1
2.023014180E-1,-8.548358679E-1,2.991925716E0,1.013390255E1
2.047686060E-1,-9.843474030E-1,3.166900873E0,9.755537987E0
2.072358450E-1,-1.044167995E0,3.336791277E0,9.762716293E0
2.097030330E-1,-1.063310504E0,3.391826153E0,9.683454514E0
2.121702200E-1,-1.183250785E0,3.504587889E0,9.439386368E0
2.146374080E-1,-1.262213945E0,3.638586044E0,9.209376335E0
2.171045950E-1,-1.326820135E0,3.729812384E0,9.015258789E0
2.195718350E-1,-1.384247899E0,3.760919094E0,8.902795792E0
2.220338140E-1,-1.381855130E0,3.808775425E0,8.809176445E0
2.245008450E-1,-1.379462242E0,3.815953970E0,8.809176445E0
2.269679290E-1,-1.345962763E0,3.751347780E0,8.854640007E0
2.294350120E-1,-1.250249863E0,3.725026608E0,8.950652122E0
2.319020430E-1,-1.140179992E0,3.708276987E0,9.122935295E0
2.343691270E-1,-1.044167995E0,3.693919897E0,9.262018204E0
2.368362100E-1,-9.053842425E-1,3.660121441E0,9.379266739E0
2.393032930E-1,-7.950153351E-1,3.585943937E0,9.456135750E0
2.417673040E-1,-6.658028960E-1,3.516551971E0,9.511171341E0
2.442343350E-1,-5.434698462E-1,3.418446302E0,9.527920723E0
2.467013140E-1,-4.740779996E-1,3.293720484E0,9.537491798E0
2.491682930E-1,-3.999004960E-1,3.217149973E0,9.551849365E0
2.516352720E-1,-3.735794425E-1,3.039782047E0,9.441779137E0
2.541023040E-1,-3.400799036E-1,2.948854923E0,9.238089561E0
2.565692830E-1,-2.895315289E-1,2.852842808E0,9.115756989E0
2.590362620E-1,-3.182454109E-1,2.843271494E0,8.988937378E0
2.615016790E-1,-2.775674164E-1,2.802593470E0,8.799605370E0
2.639686580E-1,-2.967100143E-1,2.802593470E0,8.734998703E0
2.664355850E-1,-3.520440459E-1,2.747558594E0,8.533702850E0
2.689025640E-1,-3.759722710E-1,2.790629387E0,8.341978073E0
2.713694910E-1,-3.424727321E-1,2.828914642E0,8.248658180E0
2.738364700E-1,-3.711866140E-1,2.821736097E0,8.148159027E0
2.763033970E-1,-4.357928336E-1,2.838485956E0,8.105088234E0
2.787703770E-1,-4.310071766E-1,2.821736097E0,8.064111710E0
2.812376160E-1,-4.381856322E-1,2.807379246E0,8.052146912E0
2.837045950E-1,-4.238287210E-1,2.785843849E0,8.006683350E0
2.861715750E-1,-4.405784607E-1,2.726023197E0,8.011468887E0
2.886385020E-1,-3.592225015E-1,2.678166628E0,7.942077637E0
2.911054810E-1,-3.329014480E-1,2.661417007E0,7.942077637E0
2.935724600E-1,-2.943171859E-1,2.623131752E0,7.944470406E0
2.960393870E-1,-2.201396823E-1,2.613560438E0,7.963613033E0
2.985063660E-1,-1.674975902E-1,2.570190668E0,7.966005802E0
3.009732410E-1,-1.435693651E-1,2.527119875E0,7.937291622E0
3.034402200E-1,-9.571290761E-2,2.491227388E0,7.851150036E0
3.059072000E-1,-9.332008660E-2,2.488834620E0,7.877471447E0
3.083741270E-1,-4.995017126E-2,2.476870537E0,7.889435291E0
3.108411060E-1,-4.755735025E-2,2.464906454E0,7.913363457E0
3.133080330E-1,7.477570791E-3,2.426621199E0,7.934898853E0
3.157750120E-1,5.084747914E-3,2.405085802E0,7.910970688E0
3.182419910E-1,-4.486542661E-3,2.388336182E0,7.915756226E0
3.207069390E-1,-3.559323773E-2,2.323430777E0,7.899006844E0
3.231738660E-1,-2.841476910E-2,2.340180635E0,7.958827019E0
3.256407930E-1,7.477570791E-3,2.328216314E0,7.932506084E0
3.281076680E-1,-6.939185411E-2,2.268395901E0,7.891828060E0
3.305745950E-1,-1.884347759E-2,2.304288149E0,7.846364498E0
3.330415220E-1,-6.879365072E-3,2.321038008E0,7.834400654E0
3.355083970E-1,-4.516452923E-2,2.258824587E0,7.851150036E0
3.379753250E-1,-3.798605874E-2,2.227717876E0,7.855936050E0
3.404391270E-1,-3.798605874E-2,2.206182480E0,7.822436333E0
3.429059500E-1,-5.234299600E-2,2.208575249E0,7.812565804E0
3.453727720E-1,-8.135596663E-2,2.177468538E0,7.832007408E0
3.478395950E-1,-7.657032460E-2,2.132004976E0,7.810173035E0
3.503064700E-1,-8.374879509E-2,2.124826431E0,7.767102242E0
3.527732930E-1,-1.100698411E-1,2.127219439E0,7.795815945E0
3.552401160E-1,-1.100698411E-1,2.091326952E0,7.877471447E0
3.577069390E-1,-1.148554832E-1,2.105684042E0,7.853542805E0
3.601756370E-1,-1.770688742E-1,2.067099571E0,7.930113316E0
3.626425120E-1,-2.201396823E-1,2.021636009E0,8.009076118E0
3.651093870E-1,-2.249253243E-1,2.040778637E0,7.989933968E0
3.675762620E-1,-2.464607358E-1,2.012064695E0,8.028219223E0
3.700430850E-1,-3.086741269E-1,2.016850471E0,8.001897812E0
3.725100120E-1,-2.775674164E-1,1.990529299E0,7.999505043E0
3.749768870E-1,-2.703889608E-1,1.928315997E0,8.073682785E0
3.774438140E-1,-2.895315289E-1,1.909173369E0,8.033004761E0
3.799095430E-1,-3.038884699E-1,1.928315997E0,7.997112274E0
3.823764180E-1,-2.919243574E-1,1.904387712E0,7.956434250E0
3.848432410E-1,-2.703889608E-1,1.942672849E0,7.894220829E0
3.873101160E-1,-3.206382394E-1,1.935494423E0,7.855936050E0
3.897769390E-1,-3.134597540E-1,2.009671926E0,7.774280548E0
3.922438140E-1,-3.182454109E-1,1.985743642E0,7.731209755E0
3.947106370E-1,-3.592225015E-1,1.964208245E0,7.700103283E0
3.971775120E-1,-4.238287210E-1,1.933101535E0,7.659425259E0
3.996418350E-1,-4.884349108E-1,1.968993902E0,7.611568928E0
4.021086060E-1,-5.051847100E-1,1.945065737E0,7.539484978E0
4.045753770E-1,-5.195416212E-1,1.928315997E0,7.515556812E0
4.070422000E-1,-5.506483316E-1,1.937887192E0,7.510771275E0
4.095089700E-1,-5.988038778E-1,1.928315997E0,7.503592491E0
4.119757410E-1,-6.562315822E-1,1.923530340E0,7.407879829E0
4.144425640E-1,-7.280163169E-1,1.964208245E0,7.474878788E0
4.169093350E-1,-4.525425732E-1,2.378764868E0,7.522735119E0
4.193781890E-1,-3.496512175E-1,2.510370016E0,7.578069210E0
4.218450120E-1,-5.075774789E-1,2.448156595E0,7.549056530E0
4.243118870E-1,-5.817549825E-1,2.419442892E0,7.724031448E0
4.267787100E-1,-6.394818425E-1,2.297109842E0,7.819744587E0
4.292455330E-1,-7.926225066E-1,2.222932339E0,7.678567886E0
4.317124080E-1,-9.173483849E-1,2.153540373E0,7.561319351E0
4.341792310E-1,-1.003489971E0,2.050349951E0,7.611568928E0
4.366460540E-1,-1.142572761E0,1.923530340E0,7.724031448E0
4.391120950E-1,-1.255035520E0,1.942672849E0,7.906185150E0
4.415789180E-1,-1.381855130E0,2.055135489E0,8.143373489E0
4.440457410E-1,-1.528116345E0,2.234896421E0,8.416454315E0
4.465125640E-1,-1.746162295E0,2.378764868E0,8.682356834E0
4.489793870E-1,-1.990529299E0,2.486441851E0,8.679964066E0
4.514462100E-1,-2.318645239E0,2.589333296E0,8.586344719E0
4.539129810E-1,-2.603690147E0,2.574976206E0,8.423632622E0
4.563798040E-1,-2.929413080E0,2.666202545E0,8.162516594E0
4.588458450E-1,-3.235993624E0,2.704487801E0,7.977969646E0
4.613118870E-1,-3.487539053E0,2.702095032E0,7.781459332E0
4.637779290E-1,-3.638586044E0,2.816950560E0,7.566105366E0
4.662439700E-1,-3.798905134E0,2.874378204E0,7.505985737E0
4.687100120E-1,-3.921238184E0,2.960819006E0,7.352844715E0
4.711760540E-1,-4.000201225E0,3.094816923E0,7.309773922E0
4.736420950E-1,-4.024129391E0,3.133102179E0,7.249654293E0
4.761081370E-1,-4.086641788E0,3.207578659E0,7.151548862E0
4.785595430E-1,-4.134498596E0,3.284149170E0,7.113263607E0
4.810260020E-1,-4.146462440E0,3.334398270E0,7.079763889E0
4.834924080E-1,-4.146462440E0,3.358326674E0,7.110870838E0
4.859588660E-1,-4.122534275E0,3.391826153E0,7.108478069E0
4.884253250E-1,-4.124927044E0,3.336791277E0,7.134799004E0
4.908917310E-1,-4.191926003E0,3.317648649E0,7.290631294E0
4.933581890E-1,-4.129712582E0,3.310470104E0,7.355237484E0
4.958246470E-1,-4.167997837E0,3.181257725E0,7.319345474E0
4.983137100E-1,-4.232604027E0,3.116352320E0,7.405487061E0
5.007806890E-1,-4.251746655E0,3.087638617E0,7.601997375E0
5.032477200E-1,-4.369294167E0,2.999104023E0,7.661818027E0
5.057147000E-1,-4.388436794E0,2.881855726E0,7.630711555E0
5.081817310E-1,-4.460221291E0,2.838485956E0,7.647460938E0
5.106487620E-1,-4.491328239E0,2.795415163E0,7.860721588E0
5.131157410E-1,-4.548755646E0,2.991925716E0,8.380561829E0
5.155827720E-1,-4.608576298E0,3.310470104E0,8.981759071E0
5.180486580E-1,-4.570291042E0,3.626621723E0,9.489635468E0
5.205156890E-1,-4.469792843E0,3.803989887E0,9.899106979E0
5.229826680E-1,-4.345366001E0,3.686741590E0,9.554242134E0
5.254496470E-1,-4.290031910E0,3.418446302E0,8.902795792E0
5.279166270E-1,-4.282853603E0,3.078067303E0,8.368597984E0
5.303836060E-1,-4.270889282E0,2.915355206E0,8.006683350E0
5.328505850E-1,-4.223032951E0,2.927319288E0,7.906185150E0
5.353175640E-1,-4.124927044E0,2.956033230E0,7.997112274E0
5.377821470E-1,-3.937987804E0,2.910569668E0,8.054539680E0
5.402490750E-1,-3.734298944E0,2.845664263E0,7.920542240E0
5.427160020E-1,-3.569194078E0,2.790629387E0,7.786244869E0
5.451829290E-1,-3.422932863E0,2.668595552E0,7.642675400E0
5.476498560E-1,-3.247957706E0,2.539083958E0,7.563712597E0
5.501167830E-1,-3.240779161E0,2.486441851E0,7.448557854E0
5.525837100E-1,-3.286541939E0,2.419442892E0,7.367201805E0
5.550506370E-1,-3.274577856E0,2.362015009E0,7.340880871E0
5.575182930E-1,-3.271885872E0,2.289931297E0,7.307381153E0
5.599852720E-1,-3.303291559E0,2.201396942E0,7.165905476E0
5.624522000E-1,-3.332005501E0,2.199003935E0,7.228118896E0
5.649191270E-1,-3.399004459E0,2.203789711E0,7.220940590E0
5.673861060E-1,-3.336791277E0,2.345265388E0,7.319345474E0
5.698530330E-1,-3.334398270E0,2.594118834E0,7.403094292E0
5.723199600E-1,-3.327219963E0,2.737987280E0,7.491628647E0
5.747868870E-1,-3.336791277E0,2.833700180E0,7.613961697E0
5.772516270E-1,-3.372683525E0,2.965604544E0,7.580461979E0
5.797185020E-1,-3.468396425E0,3.042174816E0,7.496414185E0
5.821854290E-1,-3.578765392E0,3.123530865E0,7.275975227E0
5.846523040E-1,-3.609872103E0,3.135494947E0,7.130013466E0
5.871191790E-1,-3.655335665E0,3.159722328E0,7.024729252E0
5.895860540E-1,-3.786941051E0,3.233899832E0,6.967002392E0
5.920529290E-1,-3.796512127E0,3.236292601E0,7.041478634E0
5.945198560E-1,-3.779762506E0,3.257827997E0,6.998108864E0
5.969849600E-1,-3.820739508E0,3.188436270E0,7.010073185E0
5.994517830E-1,-3.803690672E0,3.224328518E0,7.113263607E0
6.019186580E-1,-3.825525284E0,3.190829039E0,7.125227451E0
6.043854810E-1,-3.835096598E0,3.164507866E0,7.204190731E0
6.068523560E-1,-3.851846218E0,3.097209692E0,7.293024540E0
6.093191790E-1,-3.878167391E0,3.113959551E0,7.208976269E0
6.117860020E-1,-3.933202267E0,3.145066261E0,7.242475986E0
6.142528770E-1,-3.918845177E0,3.169293642E0,7.261618614E0
6.167212620E-1,-3.954737663E0,3.214757204E0,7.293024540E0
6.191881370E-1,-3.990629911E0,3.217149973E0,7.424629688E0
6.216550120E-1,-4.002593994E0,3.257827997E0,7.570890903E0
6.241219390E-1,-4.043272018E0,3.298506021E0,7.623532772E0
6.265888140E-1,-4.091427803E0,3.257827997E0,7.676175117E0
6.290556370E-1,-4.089034557E0,3.310470104E0,7.781459332E0
6.315225640E-1,-4.156033993E0,3.358326674E0,7.841578960E0
6.339894390E-1,-4.191926003E0,3.410968781E0,7.771887779E0
6.364543350E-1,-4.239782810E0,3.401397467E0,7.776673794E0
6.389211580E-1,-4.306781769E0,3.451945782E0,7.738388538E0
6.413879810E-1,-4.390829563E0,3.502195120E0,7.680960655E0
6.438548560E-1,-4.419543266E0,3.495016575E0,7.611568928E0
6.463216790E-1,-4.465006828E0,3.562015533E0,7.575676441E0
6.487885020E-1,-4.539184570E0,3.583550930E0,7.501199722E0
6.512553250E-1,-4.606183529E0,3.614657640E0,7.427022457E0
6.537221470E-1,-4.616054058E0,3.727419376E0,7.419844151E0
6.561894910E-1,-4.683053017E0,3.765704632E0,7.388737202E0
6.586563140E-1,-4.726123810E0,3.784847260E0,7.283154011E0
6.611231890E-1,-4.764409065E0,3.866203070E0,7.254439831E0
6.635900120E-1,-4.709373951E0,3.899702787E0,7.237690449E0
6.660568870E-1,-4.726123810E0,3.971786499E0,7.244868755E0
6.685237100E-1,-4.745266438E0,3.983750582E0,7.115656376E0
6.709905850E-1,-4.759623528E0,4.065106392E0,7.053442955E0
6.734574080E-1,-4.759623528E0,4.122534275E0,7.089335442E0
6.759263660E-1,-4.773980141E0,4.077070713E0,7.019943237E0
6.783932930E-1,-4.836193562E0,4.084249020E0,7.002894402E0
6.808601680E-1,-4.817050934E0,4.127319813E0,7.027122021E0
6.833270950E-1,-4.901099205E0,4.144069672E0,6.993323326E0
6.857939700E-1,-4.975276470E0,4.093820572E0,7.012465954E0
6.882608450E-1,-5.020740032E0,4.089034557E0,7.014858723E0
6.907277720E-1,-5.011168957E0,4.033999920E0,7.031907558E0
6.931946470E-1,-5.090131760E0,4.043570995E0,6.993323326E0
6.956578250E-1,-5.094917774E0,4.014857292E0,6.964609623E0
6.981246470E-1,-5.155037403E0,4.031607151E0,6.945466995E0
7.005914180E-1,-5.169394016E0,4.053142548E0,6.978966236E0
7.030582410E-1,-5.214858055E0,4.036392689E0,6.871289253E0
7.055250120E-1,-5.212464809E0,3.952643871E0,6.866503716E0
7.079918350E-1,-5.186143875E0,3.921238184E0,6.871289253E0
7.104586580E-1,-5.171787262E0,3.863810301E0,6.823432922E0
7.129254290E-1,-5.181358337E0,3.849453449E0,6.809075832E0
7.153937100E-1,-5.238786221E0,3.899702787E0,6.748956203E0
7.178605330E-1,-5.243571758E0,3.969393730E0,6.655636311E0
7.203274080E-1,-5.248357296E0,4.036392689E0,6.658029079E0
7.227942310E-1,-5.238786221E0,4.132105827E0,6.691528320E0
7.252610540E-1,-5.329713345E0,4.160819530E0,6.576673031E0
7.277279290E-1,-5.367998600E0,4.175176620E0,6.459125519E0
7.301947520E-1,-5.403890610E0,4.144069672E0,6.380162239E0
7.326615750E-1,-5.418546677E0,4.252045631E0,6.310770512E0
7.351248040E-1,-5.432903767E0,4.271188259E0,6.243771553E0
7.375915220E-1,-5.545366287E0,4.249652863E0,6.193223000E0
7.400582930E-1,-5.624329567E0,4.249652863E0,6.140581131E0
7.425250640E-1,-5.645864964E0,4.213461399E0,6.025725842E0
7.449917830E-1,-5.689234734E0,4.160819530E0,5.951548100E0
7.474585540E-1,-5.713163376E0,4.167997837E0,5.898606777E0
7.499252720E-1,-5.653043270E0,4.165605068E0,5.900999546E0
7.523920430E-1,-5.633901119E0,4.153641224E0,5.874678612E0
7.548599600E-1,-5.609972477E0,4.112963200E0,5.759823322E0
7.573267310E-1,-5.621936798E0,4.067499161E0,5.728716373E0
7.597935020E-1,-5.559723377E0,4.031607151E0,5.800501347E0
7.622602720E-1,-5.461617470E0,3.930809498E0,5.767001629E0
7.647270430E-1,-5.372784138E0,3.878167391E0,5.750251770E0
7.671938660E-1,-5.370391369E0,3.789632797E0,5.716752529E0
7.696606370E-1,-5.315356255E0,3.729812384E0,5.723930836E0
7.721274080E-1,-5.222036362E0,3.669692516E0,5.750251770E0
7.745968870E-1,-5.142774105E0,3.547658682E0,5.757430553E0
7.770637100E-1,-5.037489891E0,3.490231037E0,5.831607819E0
7.795305850E-1,-4.939383984E0,3.370290756E0,5.848357677E0
7.819974080E-1,-4.932205677E0,3.272184849E0,5.850750446E0
7.844642830E-1,-4.898705959E0,3.253042459E0,5.920142174E0
7.869311060E-1,-4.797908306E0,3.198007345E0,5.970690727E0
7.893979810E-1,-4.754837513E0,3.123530865E0,6.028118610E0
7.918648040E-1,-4.723731041E0,3.025425196E0,6.085546017E0
7.943302720E-1,-4.716552734E0,3.003889799E0,6.229414463E0
7.967970950E-1,-4.714159489E0,2.975175858E0,6.413661957E0
7.992639180E-1,-4.702195644E0,2.963211775E0,6.528816700E0
8.017306890E-1,-4.752444744E0,2.946461916E0,6.617351055E0
8.041975120E-1,-4.819443703E0,2.896212816E0,6.794719219E0
8.066643350E-1,-4.867300510E0,2.833700180E0,6.981359005E0
8.091311580E-1,-4.917848587E0,2.802593470E0,7.232904434E0
8.115979290E-1,-4.929812908E0,2.735594511E0,7.431807995E0
8.140630330E-1,-4.913063049E0,2.730808735E0,7.714460373E0
8.165298040E-1,-4.809872627E0,2.740380049E0,8.162516594E0
8.189965750E-1,-4.659124851E0,2.642274380E0,8.773283958E0
8.214633450E-1,-4.553541660E0,2.388336182E0,9.240483284E0
8.239301160E-1,-4.484149456E0,2.194218397E0,9.496813774E0
8.263968870E-1,-4.498506546E0,1.997707844E0,9.695717812E0
8.288636580E-1,-4.512863636E0,1.798804402E0,9.839286804E0
8.313303770E-1,-4.541577339E0,1.588235974E0,9.930213928E0
8.337955850E-1,-4.654339314E0,1.427617788E0,1.006690407E1
8.362623040E-1,-4.733302116E0,1.353440285E0,1.019372368E1
8.387290220E-1,-4.840979099E0,1.264606714E0,1.028973579E1
8.411957410E-1,-4.953741074E0,1.286441326E0,1.040937710E1
8.436624600E-1,-5.082953453E0,1.312762380E0,1.049073315E1
8.461292310E-1,-5.231607437E0,1.281655669E0,1.044287586E1
8.485959500E-1,-5.253142834E0,1.310369492E0,1.035194874E1
8.510626680E-1,-5.279464245E0,1.288834095E0,1.022004509E1
8.535315220E-1,-5.372784138E0,1.207179070E0,9.964012146E0
8.559982930E-1,-5.430510998E0,1.082752228E0,9.685847282E0
8.584650640E-1,-5.557330608E0,9.819545746E-1,9.532706261E0
8.609318350E-1,-5.701199055E0,9.053842425E-1,9.293125153E0
8.633986580E-1,-5.823233128E0,8.479565382E-1,9.034400940E0
8.658654290E-1,-5.952744484E0,7.785646915E-1,8.813961983E0
8.683322000E-1,-5.892624855E0,5.150550604E-1,8.799605370E0
8.707989700E-1,-5.418546677E0,-4.576273263E-1,8.974580765E0
8.732665750E-1,-6.046064377E0,1.483550072E-1,8.217551231E0
8.757333450E-1,-6.530013084E0,6.562315822E-1,7.628318787E0
8.782001680E-1,-6.733402729E0,6.897311211E-1,7.309773922E0
8.806669910E-1,-7.150352478E0,8.431708813E-1,6.871289253E0
8.831337620E-1,-7.535895824E0,9.939187169E-1,6.559923172E0
8.856005850E-1,-7.730013371E0,9.364909530E-1,6.317949295E0
8.880673560E-1,-7.859525204E0,7.905287743E-1,6.090332031E0
8.905341790E-1,-7.938488007E0,6.729813814E-1,5.867500305E0
8.930000120E-1,-8.005487442E0,5.629115105E-1,5.563312531E0
8.954667830E-1,-8.158926964E0,4.573282301E-1,5.297410011E0
8.979335540E-1,-8.218747139E0,3.233301640E-1,5.156233788E0
9.004003250E-1,-8.314460754E0,1.411765367E-1,4.942973614E0
9.028670950E-1,-8.345566750E0,-2.392822690E-2,4.748855591E0
9.053338660E-1,-8.379365921E0,-1.654038578E-1,4.602594376E0
9.078006890E-1,-8.403293610E0,-2.946162820E-1,4.487739086E0
9.102674600E-1,-8.479864120E0,-3.379862010E-1,4.351347923E0
9.127356890E-1,-8.539685249E0,-4.528416991E-1,4.245764732E0
9.152025120E-1,-8.573184013E0,-5.174478889E-1,4.099802494E0
9.176693350E-1,-8.604290962E0,-5.700899959E-1,4.070789337E0
9.201361060E-1,-8.630910873E0,-5.820540786E-1,4.073182583E0
9.226029290E-1,-8.767302513E0,-6.062814593E-1,4.135694981E0
9.250697520E-1,-8.848658562E0,-6.756733060E-1,4.138087749E0
9.275365750E-1,-8.963812828E0,-7.426723242E-1,4.341477394E0
9.300033970E-1,-9.227322578E0,-1.013360381E0,4.914259434E0
9.324680330E-1,-9.431011200E0,-9.583254457E-1,4.677071095E0
9.349348040E-1,-9.615258217E0,-8.216354847E-1,4.478167534E0
9.374015220E-1,-9.713663101E0,-7.713862062E-1,4.530809879E0
9.398682930E-1,-9.790233612E0,-8.240283132E-1,4.619643211E0
9.423350640E-1,-9.986744881E0,-8.264211416E-1,4.734498501E0
9.448018350E-1,-1.047039413E1,-6.158527136E-1,4.801497936E0
9.472686060E-1,-1.159890842E1,-1.103689447E-1,4.787140846E0
9.497353250E-1,-1.176640606E1,-2.108674943E-1,5.029115200E0
9.522010020E-1,-1.184327602E1,-3.738785386E-1,5.247160912E0
9.546677200E-1,-1.202273750E1,-4.528416991E-1,5.395515919E0
9.571344390E-1,-1.215224934E1,-4.863412082E-1,5.486742496E0
9.596011580E-1,-1.223360443E1,-5.485545993E-1,5.424529076E0
9.620679290E-1,-1.236281776E1,-5.389832854E-1,5.603990555E0
9.645346470E-1,-1.243250847E1,-6.062814593E-1,5.721538067E0
9.670013660E-1,-1.252104282E1,-6.828517914E-1,5.819643974E0
9.694681370E-1,-1.261196995E1,-6.661019921E-1,5.874678612E0
9.719382930E-1,-1.269123173E1,-6.852445602E-1,5.896214008E0
9.744051160E-1,-1.277498055E1,-6.206383705E-1,5.848357677E0
9.768719390E-1,-1.286112213E1,-5.270192027E-1,5.615954876E0
9.793387620E-1,-1.287787247E1,-5.437689424E-1,5.908178329E0
9.818055850E-1,-1.278694534E1,-6.014958024E-1,5.915356636E0
9.842723560E-1,-1.274148178E1,-6.469594240E-1,5.826822281E0
9.867391790E-1,-1.274148178E1,-6.828517914E-1,5.893821239E0
9.892060020E-1,-1.265294743E1,-6.278168559E-1,5.898606777E0
9.916742310E-1,-1.260957718E1,-6.302096844E-1,5.795715332E0
9.941411060E-1,-1.258564854E1,-6.421737671E-1,5.702395439E0
9.966079290E-1,-1.254497051E1,-6.158527136E-1,5.644668579E0
9.990748040E-1,-1.247557926E1,-5.461617708E-1,5.409873009E0
1.001541627E0,-1.231256771E1,-5.796613097E-1,5.611168861E0
1.004008502E0,-1.208016491E1,-6.756733060E-1,5.625525951E0
1.006475377E0,-1.197009563E1,-7.450651526E-1,5.553741455E0
1.008942200E0,-1.181904793E1,-7.067800164E-1,5.601597786E0
1.011408241E0,-1.165394402E1,-7.354938388E-1,5.572884083E0
1.013875064E0,-1.157976627E1,-7.067800164E-1,5.575276852E0
1.016341887E0,-1.141196918E1,-7.019943595E-1,5.541777134E0
1.018808762E0,-1.131625652E1,-6.541379094E-1,5.467599869E0
1.021275585E0,-1.125374413E1,-6.469594240E-1,5.513063431E0
1.023742408E0,-1.114128113E1,-6.804589629E-1,5.455635548E0
1.026209231E0,-1.109581757E1,-6.134598851E-1,5.359623432E0
1.028676054E0,-1.105274677E1,-6.876373887E-1,5.290231705E0
1.031140220E0,-1.098066330E1,-7.594220638E-1,5.223232746E0
1.033606991E0,-1.095673466E1,-7.498508096E-1,5.170590401E0
1.036073762E0,-1.089930725E1,-7.761718631E-1,5.076971531E0
1.038540481E0,-1.080598736E1,-7.737790346E-1,5.005186558E0
1.041007252E0,-1.077488041E1,-7.402794957E-1,4.964509010E0
1.043474022E0,-1.072672462E1,-6.780661345E-1,4.986044407E0
1.045940793E0,-1.066211891E1,-6.996015310E-1,4.907081127E0
1.048407564E0,-1.065254688E1,-6.517450809E-1,4.813461781E0
1.050873137E0,-1.057837009E1,-5.772684813E-1,4.775176525E0
1.053339856E0,-1.053529930E1,-5.413761139E-1,4.758427143E0
1.055806575E0,-1.046800041E1,-5.485545993E-1,4.724927425E0
1.058273345E0,-1.031486034E1,-5.365904570E-1,4.655535698E0
1.060740064E0,-1.020688438E1,-5.222335458E-1,4.636393070E0
1.063206783E0,-1.005374336E1,-5.533402562E-1,4.588237286E0
1.065673554E0,-9.893125534E0,-5.796613097E-1,4.509274483E0
1.068140272E0,-9.795019150E0,-5.653043389E-1,4.449453831E0
1.070611366E0,-9.605687141E0,-6.062814593E-1,4.346562386E0
1.073078189E0,-9.411569595E0,-6.326025128E-1,4.236193180E0
1.075545064E0,-9.270393372E0,-6.661019921E-1,4.054039955E0
1.078011887E0,-9.095417976E0,-6.421737671E-1,3.874577999E0
1.080478762E0,-8.963812828E0,-6.302096844E-1,3.649353743E0
1.082945585E0,-8.772088051E0,-6.421737671E-1,3.457628727E0
1.085412408E0,-8.542078018E0,-6.038886309E-1,3.345165968E0
1.087879283E0,-8.362615585E0,-5.605186820E-1,3.158226728E0
1.090340845E0,-8.146963120E0,-5.389832854E-1,2.995215654E0
1.092807564E0,-7.940881252E0,-5.509474277E-1,2.866003275E0
1.095274231E0,-7.708477974E0,-6.062814593E-1,2.743969440E0
1.097740950E0,-7.500003338E0,-5.533402562E-1,2.602493763E0
1.100207668E0,-7.303792000E0,-5.437689424E-1,2.490031004E0
1.102674387E0,-7.090531826E0,-5.365904570E-1,2.408375978E0
1.105141106E0,-6.920341969E0,-5.940182209E-1,2.267199516E0
1.107607825E0,-6.776772976E0,-6.589235067E-1,2.183151484E0
1.110074283E0,-6.553941250E0,-7.546364665E-1,2.173580170E0
1.112540950E0,-6.374180317E0,-8.096713424E-1,2.082653046E0
1.115007668E0,-6.230610847E0,-8.192426562E-1,2.020439625E0
1.117474387E0,-6.036493301E0,-7.618148923E-1,1.977368832E0
1.119941106E0,-5.935695648E0,-7.426723242E-1,1.886142492E0
1.122407772E0,-5.775376320E0,-6.708876491E-1,1.833500385E0
1.124874491E0,-5.643472195E0,-6.493522525E-1,1.752144337E0
1.127341210E0,-5.475974560E0,-6.134598851E-1,1.699502230E0
1.129811158E0,-5.322535038E0,-5.916253924E-1,1.668395638E0
1.132277929E0,-5.174180031E0,-5.150550604E-1,1.660917997E0
1.134744700E0,-4.984847546E0,-4.384847581E-1,1.617847204E0
1.137211522E0,-4.821836948E0,-3.954139352E-1,1.620239973E0
1.139678293E0,-4.589433670E0,-3.786641955E-1,1.660917997E0
1.142145064E0,-4.354937077E0,-3.451646566E-1,1.699502230E0
1.144611887E0,-4.093820572E0,-2.850449979E-1,1.838286042E0
1.147078658E0,-3.880560160E0,-2.802593410E-1,1.907677889E0
1.149545845E0,-3.669692516E0,-2.563311160E-1,2.020439625E0
1.152012616E0,-3.473181963E0,-2.682952285E-1,2.224128723E0
1.154479439E0,-3.305684566E0,-2.467598319E-1,2.336591244E0
1.156946210E0,-3.090031385E0,-2.611167729E-1,2.439482689E0
1.159413033E0,-2.962912560E0,-2.467598319E-1,2.535494804E0
1.161879804E0,-2.860021353E0,-2.419741899E-1,2.679064035E0
1.164346627E0,-2.732902527E0,-1.941177398E-1,2.870789051E0
1.166813397E0,-2.627618313E0,-1.486541033E-1,3.014657497E0
1.169279439E0,-2.558226585E0,-1.271187067E-1,3.093620539E0
1.171745481E0,-2.496013165E0,-6.969095767E-2,3.189333439E0
1.174211522E0,-2.443071842E0,-8.644071966E-2,3.333201885E0
1.176677564E0,-2.364108801E0,9.571290575E-3,3.378665686E0
1.179143606E0,-2.340180635E0,-1.435693540E-2,3.421736479E0
1.181609647E0,-2.342573404E0,-1.914258115E-2,3.493520975E0
1.184075689E0,-2.349751949E0,3.589234129E-2,3.519842148E0
1.186541731E0,-2.344966173E0,2.392822690E-2,3.620639801E0
1.188999960E0,-2.337787628E0,2.392822644E-3,3.651746511E0
1.191466575E0,-2.328216314E0,4.785645287E-3,3.661317825E0
1.193933137E0,-2.340180635E0,-1.674975827E-2,3.642175198E0
1.196399752E0,-2.361716032E0,-3.589234129E-2,3.623032570E0
1.198866314E0,-2.342573404E0,-1.127617657E-1,3.632603884E0
1.201332929E0,-2.359323025E0,-1.797607988E-1,3.551247835E0
1.203799491E0,-2.311466694E0,-2.563311160E-1,3.560819149E0
1.206266106E0,-2.292324066E0,-3.690928817E-1,3.428914785E0
1.208731627E0,-2.316252232E0,-4.217349887E-1,3.357130051E0
1.211198189E0,-2.316252232E0,-5.030909777E-1,3.261118174E0
1.213664752E0,-2.289931297E0,-5.318048596E-1,3.182155132E0
1.216131314E0,-2.337787628E0,-4.959124923E-1,3.081656456E0
1.218597877E0,-2.333002090E0,-4.791627228E-1,3.045764208E0
1.221064439E0,-2.378465652E0,-5.485545993E-1,2.925823927E0
1.223531002E0,-2.459821701E0,-5.270192027E-1,2.887538671E0
1.225997564E0,-2.579761982E0,-5.581258535E-1,2.947359324E0
1.228467825E0,-2.606082916E0,-6.134598851E-1,2.942573547E0
1.230934491E0,-2.622832775E0,-6.876373887E-1,2.966501951E0
1.233401158E0,-2.730509758E0,-8.264211416E-1,2.990430117E0
1.235867825E0,-2.807379246E0,-9.080761671E-1,3.055335522E0
1.238334491E0,-2.886342287E0,-1.046859860E0,3.136691332E0
1.240801106E0,-2.919841766E0,-1.123430252E0,3.182155132E0
1.243267772E0,-3.023032188E0,-1.231406331E0,3.237190008E0
1.245734439E0,-3.135494947E0,-1.343868971E0,3.227618694E0
1.248201835E0,-3.235993624E0,-1.394118309E0,3.251546860E0
1.250668502E0,-3.329612732E0,-1.463809252E0,3.349951744E0
1.253135168E0,-3.456432343E0,-1.561915040E0,3.400201082E0
1.255601835E0,-3.581158161E0,-1.545165181E0,3.369094372E0
1.258068502E0,-3.703192234E0,-1.643270969E0,3.373879910E0
1.260535168E0,-3.820739508E0,-1.736890078E0,3.369094372E0
1.263001835E0,-3.971487284E0,-1.767996788E0,3.352344513E0
1.265468554E0,-4.091427803E0,-1.844567180E0,3.342773199E0
1.267937616E0,-4.184747696E0,-1.820638895E0,3.323630571E0
1.270404335E0,-4.330709934E0,-1.846959949E0,3.318845034E0
1.272871054E0,-4.522434711E0,-1.854138494E0,3.395415306E0
1.275337825E0,-4.644767761E0,-1.892423630E0,3.436093330E0
1.277804543E0,-4.735694885E0,-1.964507341E0,3.483949661E0
1.280271262E0,-4.817050934E0,-2.033899307E0,3.546462297E0
1.282737981E0,-4.948955536E0,-2.045863390E0,3.642175198E0
1.285204752E0,-5.092525005E0,-2.115255117E0,3.761816263E0
1.287667356E0,-5.195715427E0,-2.254338026E0,3.843471289E0
1.290134022E0,-5.363213062E0,-2.323729992E0,3.939184189E0
1.292600637E0,-5.526223660E0,-2.314158678E0,4.070789337E0
1.295067252E0,-5.722734451E0,-2.373979092E0,4.166801453E0
1.297533918E0,-5.950351715E0,-2.457727909E0,4.293621063E0
1.300000533E0,-6.228218079E0,-2.534597397E0,4.389633179E0
1.302467147E0,-6.484250069E0,-2.501097918E0,4.459024906E0
1.304933814E0,-6.707081795E0,-2.558525562E0,4.545166492E0
1.307418970E0,-6.937091827E0,-2.608774900E0,4.665106773E0
1.309886002E0,-7.162316322E0,-2.673381090E0,4.765605450E0
1.312353137E0,-7.392326355E0,-2.737987280E0,4.875675201E0
1.314820272E0,-7.547860146E0,-2.805285454E0,4.983651161E0
1.317287356E0,-7.746763229E0,-2.879462957E0,5.098506927E0
1.319754439E0,-7.919345856E0,-2.970390320E0,5.153841019E0
1.322221522E0,-8.120641708E0,-3.054438114E0,5.251946449E0
1.324688606E0,-8.324031830E0,-3.066402197E0,5.345266819E0
1.327158554E0,-8.477471352E0,-3.131008387E0,5.357230663E0
1.329625741E0,-8.621041298E0,-3.176471949E0,5.426921844E0
1.332092877E0,-8.764909744E0,-3.188436270E0,5.467599869E0
1.334560064E0,-8.939884186E0,-3.248256683E0,5.527420521E0
1.337027200E0,-9.042776108E0,-3.255435228E0,5.544169903E0
1.339494387E0,-9.100203514E0,-3.284448147E0,5.625525951E0
1.341961575E0,-9.174679756E0,-3.286840916E0,5.704788208E0
1.344428710E0,-9.220144272E0,-3.346661568E0,5.728716373E0
1.346889335E0,-9.208179474E0,-3.389732361E0,5.817250729E0
1.349356314E0,-9.201001167E0,-3.466302633E0,5.862714767E0
1.351823293E0,-9.217751503E0,-3.499802113E0,5.977869034E0
1.354290325E0,-9.244071960E0,-3.538087368E0,6.018547058E0
1.356757304E0,-9.201001167E0,-3.650849104E0,6.109474182E0
1.359224335E0,-9.124132156E0,-3.622135162E0,6.190830231E0
1.361691314E0,-9.073882103E0,-3.612564087E0,6.238986015E0
1.364158345E0,-9.042776108E0,-3.638885021E0,6.351448536E0
1.366625012E0,-9.006883621E0,-3.634099483E0,6.516852379E0
1.369092043E0,-8.891729355E0,-3.562314749E0,6.643671989E0
1.371559022E0,-8.841479301E0,-3.492623806E0,6.806683064E0
1.374026002E0,-8.729017258E0,-3.518944740E0,6.895217419E0
1.376493033E0,-8.638090134E0,-3.552743435E0,7.101299286E0
1.378960012E0,-8.561220169E0,-3.591028690E0,7.213762283E0
1.381426991E0,-8.491828918E0,-3.677170277E0,7.273582458E0
1.383894022E0,-8.479864120E0,-3.736990690E0,7.400701523E0
1.386356991E0,-8.436793327E0,-3.813860178E0,7.491628647E0
1.388823918E0,-8.489435196E0,-3.803989887E0,7.556533813E0
1.391290793E0,-8.522934914E0,-3.818645954E0,7.599604607E0
1.393757668E0,-8.544470787E0,-3.847359657E0,7.597211838E0
1.396224595E0,-8.522934914E0,-3.861716747E0,7.601997375E0
1.398691470E0,-8.544470787E0,-3.866502285E0,7.568498135E0
1.401158397E0,-8.544470787E0,-3.883252144E0,7.587640762E0
1.403625272E0,-8.530113220E0,-3.833002806E0,7.522735119E0
1.406095012E0,-8.522934914E0,-3.888037682E0,7.472486019E0
1.408561991E0,-8.515756607E0,-3.866502285E0,7.486843109E0
1.411028970E0,-8.491828918E0,-3.859323740E0,7.424629688E0
1.413495950E0,-8.415258408E0,-3.859323740E0,7.381558895E0
1.415962929E0,-8.429615021E0,-3.816252947E0,7.280761242E0
1.418429856E0,-8.446364403E0,-3.780061483E0,7.237690449E0
1.420896835E0,-8.393722534E0,-3.710669756E0,7.120441914E0
1.423363814E0,-8.347960472E0,-3.681955814E0,7.012465954E0
1.425825012E0,-8.360222816E0,-3.686741590E0,6.990930557E0
1.428291835E0,-8.393722534E0,-3.586242914E0,6.928717136E0
1.430758658E0,-8.326424599E0,-3.638885021E0,6.880860806E0
1.433225481E0,-8.259425163E0,-3.658027649E0,6.880860806E0
1.435692304E0,-8.173283577E0,-3.626920938E0,6.900003433E0
1.438159127E0,-8.113463402E0,-3.677170277E0,6.926324368E0
1.440625950E0,-8.053343773E0,-3.708276987E0,6.907181740E0
1.443092772E0,-7.907381535E0,-3.720241070E0,6.921538830E0
1.445562772E0,-7.849953651E0,-3.727419376E0,6.971787930E0
1.448029700E0,-7.808976650E0,-3.746562004E0,7.002894402E0
1.450496575E0,-7.696514130E0,-3.744169235E0,7.070192814E0
1.452963502E0,-7.564908981E0,-3.840181351E0,7.094120979E0
1.455430377E0,-7.476075172E0,-3.789632797E0,7.177869797E0
1.457897304E0,-7.342077255E0,-3.782454491E0,7.228118896E0
1.460364179E0,-7.262814999E0,-3.782454491E0,7.268796921E0
1.462831106E0,-7.152745247E0,-3.758526087E0,7.333702087E0
1.465294700E0,-7.037889481E0,-3.725026608E0,7.479664326E0
1.467761522E0,-6.958627224E0,-3.725026608E0,7.549056530E0
1.470228345E0,-6.922735214E0,-3.624528170E0,7.556533813E0
1.472695168E0,-6.870092869E0,-3.665206194E0,7.609176159E0
1.475161991E0,-6.781558514E0,-3.650849104E0,7.740781307E0
1.477628814E0,-6.750152588E0,-3.562314749E0,7.805387497E0
1.480095637E0,-6.738188744E0,-3.533301830E0,7.855936050E0
1.482562408E0,-6.695117950E0,-3.545564890E0,7.896613598E0
1.485030689E0,-6.695117950E0,-3.557528973E0,7.870292664E0
1.487497564E0,-6.752844810E0,-3.538087368E0,7.889435291E0
1.489964387E0,-6.807879448E0,-3.487838030E0,7.867899895E0
1.492431262E0,-6.822236538E0,-3.466302633E0,7.757531166E0
1.494898137E0,-6.834200382E0,-3.461517096E0,7.673782349E0
1.497364960E0,-6.882057190E0,-3.442374468E0,7.580461979E0
1.499831835E0,-6.848557472E0,-3.406482220E0,7.505985737E0
1.502298658E0,-6.853343010E0,-3.349054337E0,7.412665367E0
1.504763189E0,-6.867700100E0,-3.353840113E0,7.297810078E0
1.507229960E0,-6.896413803E0,-3.322733402E0,7.199405193E0
1.509696783E0,-6.862914562E0,-3.363411427E0,7.130013466E0
1.512163554E0,-6.925127983E0,-3.384946823E0,7.055835724E0
1.514630377E0,-6.968198776E0,-3.320340633E0,6.952645302E0
1.517097147E0,-6.972984314E0,-3.423231840E0,6.823432922E0
1.519563970E0,-6.970591545E0,-3.444767237E0,6.734599113E0
1.522030741E0,-6.910770893E0,-3.523730516E0,6.725028038E0
1.524496106E0,-6.819843769E0,-3.591028690E0,6.612565517E0
1.526962877E0,-6.795915604E0,-3.653241873E0,6.574280262E0
1.529429595E0,-6.735795975E0,-3.684348583E0,6.588637352E0
1.531896366E0,-6.620940208E0,-3.693919897E0,6.669992924E0
1.534363137E0,-6.530013084E0,-3.818645954E0,6.696314335E0
1.536829908E0,-6.386144638E0,-3.902394533E0,6.684350014E0
1.539296679E0,-6.314359665E0,-3.904787540E0,6.705885410E0
1.541763397E0,-6.264110565E0,-3.907180309E0,6.739385128E0
1.544229908E0,-6.196812630E0,-3.866502285E0,6.720242500E0
1.546696627E0,-6.125027657E0,-3.871287823E0,6.780362129E0
1.549163397E0,-6.053243160E0,-3.861716747E0,6.744170666E0
1.551630168E0,-6.055635929E0,-3.792025566E0,6.746563435E0
1.554096887E0,-6.046064377E0,-3.720241070E0,6.715456963E0
1.556563658E0,-5.991029739E0,-3.679563046E0,6.741777897E0
1.559030429E0,-6.007779598E0,-3.612564087E0,6.835396767E0
1.561497147E0,-5.981458187E0,-3.605385542E0,6.842575550E0
1.563965585E0,-5.947659969E0,-3.567100286E0,6.919145584E0
1.566432356E0,-5.930910110E0,-3.535694599E0,6.967002392E0
1.568899179E0,-5.909374714E0,-3.562314749E0,7.039085865E0
1.571365950E0,-5.851946831E0,-3.581457376E0,7.091728210E0
1.573832772E0,-5.830411434E0,-3.576671600E0,7.034300327E0
1.576299543E0,-5.782555103E0,-3.576671600E0,7.084549427E0
1.578766366E0,-5.732305527E0,-3.626920938E0,7.130013466E0
1.581233137E0,-5.701199055E0,-3.612564087E0,7.091728210E0
1.583696522E0,-5.605186939E0,-3.648456335E0,7.077371120E0
1.586163189E0,-5.557330608E0,-3.672384501E0,6.990930557E0
1.588629908E0,-5.495117188E0,-3.643670797E0,6.974180698E0
1.591096627E0,-5.466403484E0,-3.638885021E0,6.952645302E0
1.593563345E0,-5.418546677E0,-3.648456335E0,6.866503716E0
1.596030064E0,-5.375176907E0,-3.605385542E0,6.811468601E0
1.598496783E0,-5.317749023E0,-3.619742393E0,6.809075832E0
1.600963450E0,-5.312963486E0,-3.586242914E0,6.736992359E0
1.603432356E0,-5.334498882E0,-3.574278831E0,6.650850773E0
1.605899127E0,-5.360819817E0,-3.557528973E0,6.614958286E0
1.608365845E0,-5.367998600E0,-3.662813187E0,6.543173313E0
1.610832616E0,-5.377569675E0,-3.686741590E0,6.521637917E0
1.613299387E0,-5.379962444E0,-3.681955814E0,6.454339981E0
1.615766158E0,-5.327320576E0,-3.744169235E0,6.451947212E0
1.618232929E0,-5.360819817E0,-3.751347780E0,6.490531445E0
1.620699700E0,-5.363213062E0,-3.703491211E0,6.533602238E0
1.623167252E0,-5.332106113E0,-3.732205153E0,6.564708710E0
1.625634022E0,-5.324927807E0,-3.715455294E0,6.602993965E0
1.628100793E0,-5.305785179E0,-3.693919897E0,6.588637352E0
1.630567616E0,-5.281857014E0,-3.710669756E0,6.610172749E0
1.633034387E0,-5.226821899E0,-3.713062525E0,6.636493683E0
1.635501158E0,-5.186143875E0,-3.725026608E0,6.667600155E0
1.637967929E0,-5.147858620E0,-3.713062525E0,6.732206345E0
1.640434700E0,-5.085346222E0,-3.691527128E0,6.840182781E0
1.642902095E0,-4.980062008E0,-3.689134359E0,6.952645302E0
1.645368866E0,-4.848157883E0,-3.679563046E0,7.043871880E0
1.647835689E0,-4.783551693E0,-3.689134359E0,7.115656376E0
1.650302460E0,-4.659124851E0,-3.693919897E0,7.204190731E0
1.652769283E0,-4.536791801E0,-3.772883177E0,7.268796921E0
1.655236054E0,-4.421936035E0,-3.787240028E0,7.314559937E0
1.657702877E0,-4.330709934E0,-3.765704632E0,7.422236919E0
1.660169647E0,-4.203890324E0,-3.770490170E0,7.438986301E0
1.662634491E0,-4.170390606E0,-3.732205153E0,7.419844151E0
1.665101210E0,-4.064807415E0,-3.669991732E0,7.436593533E0
1.667567981E0,-3.995415688E0,-3.708276987E0,7.515556812E0
1.670034700E0,-3.959523201E0,-3.732205153E0,7.517949581E0
1.672501470E0,-3.961916208E0,-3.679563046E0,7.529913902E0
1.674968241E0,-3.882952929E0,-3.696312666E0,7.532306671E0
1.677434960E0,-3.835096598E0,-3.650849104E0,7.556533813E0
1.679901731E0,-3.782155275E0,-3.559921980E0,7.513164043E0
1.682369491E0,-3.811168194E0,-3.617349625E0,7.484450340E0
1.684836262E0,-3.823132277E0,-3.542873144E0,7.494021416E0
1.687303033E0,-3.890131474E0,-3.557528973E0,7.494021416E0
1.689769804E0,-3.894917011E0,-3.545564890E0,7.496414185E0
1.692236575E0,-3.971487284E0,-3.562314749E0,7.477271557E0
1.694703345E0,-4.024129391E0,-3.547957659E0,7.419844151E0
1.697170116E0,-4.064807415E0,-3.564707518E0,7.405487061E0
1.699636887E0,-4.067200184E0,-3.583850145E0,7.369594574E0
1.702102356E0,-4.120141506E0,-3.602992773E0,7.316952705E0
1.704569075E0,-4.199104786E0,-3.583850145E0,7.297810078E0
1.707035845E0,-4.280460835E0,-3.571886063E0,7.312166691E0
1.709502564E0,-4.301996231E0,-3.650849104E0,7.285546780E0
1.711969283E0,-4.330709934E0,-3.725026608E0,7.261618614E0
1.714436054E0,-4.330709934E0,-3.732205153E0,7.220940590E0
1.716902772E0,-4.321138382E0,-3.710669756E0,7.230511665E0
1.719369543E0,-4.400400639E0,-3.715455294E0,7.223333359E0
1.721838554E0,-4.414757729E0,-3.756133318E0,7.235297680E0
1.724305325E0,-4.366901398E0,-3.758526087E0,7.254439831E0
1.726772147E0,-4.390829563E0,-3.796811342E0,7.156334400E0
1.729238918E0,-4.455435753E0,-3.736990690E0,7.139584541E0
1.731705741E0,-4.474578381E0,-3.746562004E0,7.091728210E0
1.734172512E0,-4.457828522E0,-3.772883177E0,7.108478069E0
1.736639335E0,-4.486542225E0,-3.789632797E0,7.094120979E0
1.739106106E0,-4.508078098E0,-3.787240028E0,7.110870838E0
1.741574700E0,-4.548755646E0,-3.787240028E0,7.094120979E0
1.744041522E0,-4.510470867E0,-3.821038723E0,7.165905476E0
1.746508397E0,-4.510470867E0,-3.808775425E0,7.151548862E0
1.748975220E0,-4.503292084E0,-3.756133318E0,7.137191772E0
1.751442043E0,-4.493721008E0,-3.784847260E0,7.161119938E0
1.753908918E0,-4.469792843E0,-3.784847260E0,7.161119938E0
1.756375741E0,-4.431507587E0,-3.746562004E0,7.213762283E0
1.758842616E0,-4.424329281E0,-3.746562004E0,7.225726128E0
1.761309179E0,-4.431507587E0,-3.775275946E0,7.266404152E0
1.763776002E0,-4.374079704E0,-3.763311863E0,7.319345474E0
1.766242825E0,-4.342673779E0,-3.727419376E0,7.316952705E0
1.768709700E0,-4.323531628E0,-3.746562004E0,7.333702087E0
1.771176522E0,-4.251746655E0,-3.753740549E0,7.374380112E0
1.773643345E0,-4.239782810E0,-3.784847260E0,7.434200764E0
1.776110168E0,-4.206283092E0,-3.784847260E0,7.393522739E0
1.778577043E0,-4.196712017E0,-3.787240028E0,7.350451946E0
1.781042877E0,-4.189533234E0,-3.768097401E0,7.383951664E0
1.783509700E0,-4.189533234E0,-3.744169235E0,7.340880871E0
1.785976470E0,-4.215854168E0,-3.746562004E0,7.252047062E0
1.788443293E0,-4.246961117E0,-3.756133318E0,7.285546780E0
1.790910116E0,-4.297210217E0,-3.732205153E0,7.259225845E0
1.793376939E0,-4.335495472E0,-3.729812384E0,7.158727169E0
1.795843762E0,-4.350151539E0,-3.727419376E0,7.106084824E0
1.798310533E0,-4.395615101E0,-3.722633839E0,7.060621262E0
1.800775168E0,-4.453042984E0,-3.691527128E0,7.027122021E0
1.803241887E0,-4.546362877E0,-3.720241070E0,7.005287170E0
1.805708658E0,-4.601397991E0,-3.696312666E0,6.998108864E0
1.808175429E0,-4.654339314E0,-3.667598963E0,6.940680981E0
1.810642200E0,-4.726123810E0,-3.677170277E0,6.900003433E0
1.813108918E0,-4.757230282E0,-3.703491211E0,6.854539394E0
1.815575689E0,-4.831408024E0,-3.736990690E0,6.797111988E0
1.818042460E0,-4.876871586E0,-3.677170277E0,6.801897526E0
1.820510637E0,-4.934598446E0,-3.677170277E0,6.696314335E0
1.822977408E0,-5.011168957E0,-3.722633839E0,6.643671989E0
1.825444231E0,-5.063810825E0,-3.768097401E0,6.648457527E0
1.827911002E0,-5.068596363E0,-3.751347780E0,6.624529362E0
1.830377772E0,-5.140381336E0,-3.698705673E0,6.547959328E0
1.832844595E0,-5.188536644E0,-3.722633839E0,6.583851337E0
1.835311366E0,-5.190929413E0,-3.734597921E0,6.641279221E0
1.837778189E0,-5.157430172E0,-3.732205153E0,6.646064758E0
1.840245116E0,-5.174180031E0,-3.725026608E0,6.693921566E0
1.842711887E0,-5.147858620E0,-3.689134359E0,6.729813576E0
1.845178710E0,-5.118845940E0,-3.669991732E0,6.766005039E0
1.847645481E0,-5.128417015E0,-3.715455294E0,6.830611229E0
1.850112304E0,-5.118845940E0,-3.717848301E0,6.904788971E0
1.852579075E0,-5.097310543E0,-3.669991732E0,6.957430840E0
1.855045897E0,-5.039882660E0,-3.643670797E0,6.998108864E0
1.857512668E0,-5.025525570E0,-3.595814228E0,7.063014030E0
1.859980064E0,-4.980062008E0,-3.622135162E0,7.103692055E0
1.862446887E0,-4.946562767E0,-3.593421459E0,7.161119938E0
1.864913658E0,-4.968098164E0,-3.538087368E0,7.170691490E0
1.867380481E0,-4.922634602E0,-3.547957659E0,7.247261524E0
1.869847304E0,-4.867300510E0,-3.504587889E0,7.240083218E0
1.872314127E0,-4.831408024E0,-3.428017616E0,7.237690449E0
1.874780897E0,-4.812265396E0,-3.375375509E0,7.352844715E0
1.877247720E0,-4.807479858E0,-3.341876030E0,7.429415226E0
1.879715429E0,-4.757230282E0,-3.389732361E0,7.417450905E0
1.882182252E0,-4.764409065E0,-3.394518137E0,7.419844151E0
1.884649075E0,-4.742873669E0,-3.356232882E0,7.450950623E0
1.887115950E0,-4.773980141E0,-3.344268799E0,7.446165085E0
1.889582772E0,-4.829015255E0,-3.313162088E0,7.458128929E0
1.892049595E0,-4.836193562E0,-3.269792080E0,7.422236919E0
1.894516418E0,-4.814658165E0,-3.315554857E0,7.410272598E0
1.896983241E0,-4.867300510E0,-3.262613773E0,7.316952705E0
1.899449804E0,-4.903491974E0,-3.289233923E0,7.211369038E0
1.901916627E0,-4.929812908E0,-3.296412230E0,7.153941631E0
1.904383450E0,-4.980062008E0,-3.315554857E0,7.072585583E0
1.906850272E0,-5.003990173E0,-3.315554857E0,7.012465954E0
1.909317095E0,-5.025525570E0,-3.339483023E0,6.921538830E0
1.911783918E0,-5.030311584E0,-3.337090254E0,6.868896484E0
1.914250741E0,-5.037489891E0,-3.358625650E0,6.766005039E0
1.916717564E0,-5.035097122E0,-3.353840113E0,6.780362129E0
1.919183450E0,-5.049454212E0,-3.353840113E0,6.736992359E0
1.921650220E0,-5.082953453E0,-3.372982502E0,6.780362129E0
1.924117043E0,-5.111667156E0,-3.401696444E0,6.821040154E0
1.926583866E0,-5.106881618E0,-3.401696444E0,6.751648426E0
1.929050637E0,-5.130809784E0,-3.320340633E0,6.823432922E0
1.931517460E0,-5.097310543E0,-3.332304716E0,6.873682022E0
1.933984231E0,-5.061418056E0,-3.296412230E0,6.940680981E0
1.936451054E0,-5.044668198E0,-3.320340633E0,7.072585583E0
1.938918450E0,-5.006382942E0,-3.327518940E0,7.115656376E0
1.941385272E0,-5.030311584E0,-3.303590775E0,7.232904434E0
1.943852095E0,-5.020740032E0,-3.267399311E0,7.256833076E0
1.946318918E0,-4.941776752E0,-3.308376312E0,7.333702087E0
1.948785689E0,-4.881956577E0,-3.296412230E0,7.462914944E0
1.951252512E0,-4.876871586E0,-3.282055378E0,7.561319351E0
1.953719335E0,-4.855336189E0,-3.296412230E0,7.578069210E0
1.956186158E0,-4.788337231E0,-3.296412230E0,7.609176159E0
1.958652408E0,-4.759623528E0,-3.327518940E0,7.712067604E0
1.961119231E0,-4.730909348E0,-3.272184849E0,7.683353424E0
1.963586002E0,-4.740480900E0,-3.257827997E0,7.745566845E0
1.966052825E0,-4.738088131E0,-3.245863914E0,7.714460373E0
1.968519595E0,-4.716552734E0,-3.248256683E0,7.692924976E0
1.970986418E0,-4.678267479E0,-3.241078377E0,7.697710514E0
1.973453189E0,-4.644767761E0,-3.205185890E0,7.673782349E0
1.975920012E0,-4.663910389E0,-3.200400352E0,7.616354465E0
1.978391158E0,-4.642374992E0,-3.174079180E0,7.649854183E0
1.980858085E0,-4.618446827E0,-3.202793121E0,7.575676441E0
1.983325012E0,-4.625625134E0,-3.205185890E0,7.551449299E0
1.985791887E0,-4.601397991E0,-3.190829039E0,7.510771275E0
1.988258814E0,-4.596612453E0,-3.183650494E0,7.494021416E0
1.990725741E0,-4.599005222E0,-3.176471949E0,7.462914944E0
1.993192616E0,-4.567898273E0,-3.174079180E0,7.410272598E0
1.995659543E0,-4.532006264E0,-3.188436270E0,7.386344433E0
1.998119179E0,-4.565505505E0,-3.178864956E0,7.333702087E0
2.000585897E0,-4.517649174E0,-3.152543783E0,7.293024540E0
2.003052616E0,-4.503292084E0,-3.162115097E0,7.326523781E0
2.005519335E0,-4.522434711E0,-3.145365477E0,7.259225845E0
2.007986054E0,-4.493721008E0,-3.138186932E0,7.237690449E0
2.010452825E0,-4.469792843E0,-3.183650494E0,7.230511665E0
2.012919543E0,-4.421936035E0,-3.116651535E0,7.237690449E0
2.015386262E0,-4.376472473E0,-3.174079180E0,7.249654293E0
2.017852304E0,-4.333102703E0,-3.181257725E0,7.223333359E0
2.020318345E0,-4.280460835E0,-3.241078377E0,7.242475986E0
2.022784387E0,-4.278067589E0,-3.276970625E0,7.259225845E0
2.025250429E0,-4.246961117E0,-3.346661568E0,7.220940590E0
2.027716470E0,-4.206283092E0,-3.327518940E0,7.182655334E0
2.030182512E0,-4.175176620E0,-3.380161047E0,7.134799004E0
2.032648554E0,-4.156033993E0,-3.418446302E0,7.201797962E0
2.035114595E0,-4.110570431E0,-3.368196964E0,7.115656376E0
2.037590012E0,-4.081856251E0,-3.394518137E0,7.137191772E0
2.040056991E0,-4.021736622E0,-3.449553013E0,7.113263607E0
2.042523918E0,-4.000201225E0,-3.492623806E0,7.158727169E0
2.044990897E0,-4.007379532E0,-3.463909864E0,7.161119938E0
2.047457825E0,-3.964308977E0,-3.442374468E0,7.151548862E0
2.049924804E0,-3.940380573E0,-3.456731319E0,7.139584541E0
2.052391731E0,-3.904488325E0,-3.502195120E0,7.204190731E0
2.054858710E0,-3.894917011E0,-3.442374468E0,7.199405193E0
2.057325845E0,-3.849453449E0,-3.435195923E0,7.266404152E0
2.059792825E0,-3.813561201E0,-3.411267757E0,7.290631294E0
2.062259804E0,-3.791726589E0,-3.389732361E0,7.367201805E0
2.064726731E0,-3.760619879E0,-3.358625650E0,7.427022457E0
2.067193710E0,-3.743870020E0,-3.303590775E0,7.438986301E0
2.069660637E0,-3.779762506E0,-3.344268799E0,7.472486019E0
2.072127616E0,-3.729513168E0,-3.291626692E0,7.541877747E0
2.074594543E0,-3.743870020E0,-3.262613773E0,7.491628647E0
2.077055689E0,-3.700799227E0,-3.286840916E0,7.532306671E0
2.079522512E0,-3.669692516E0,-3.238685369E0,7.482057095E0
2.081989283E0,-3.698406458E0,-3.231507063E0,7.395915508E0
2.084456106E0,-3.719941854E0,-3.231507063E0,7.419844151E0
2.086922929E0,-3.727120399E0,-3.276970625E0,7.403094292E0
2.089389752E0,-3.700799227E0,-3.313162088E0,7.355237484E0
2.091856522E0,-3.755834341E0,-3.274577856E0,7.331309319E0
2.094323345E0,-3.719941854E0,-3.284448147E0,7.324131012E0
2.096793189E0,-3.774976730E0,-3.305983543E0,7.275975227E0
2.099260064E0,-3.717549086E0,-3.315554857E0,7.228118896E0
2.101726991E0,-3.705585003E0,-3.315554857E0,7.213762283E0
2.104193866E0,-3.707977772E0,-3.322733402E0,7.192226887E0
2.106660741E0,-3.707977772E0,-3.313162088E0,7.216155052E0
2.109127616E0,-3.755834341E0,-3.294019461E0,7.158727169E0
2.111594439E0,-3.815953970E0,-3.339483023E0,7.244868755E0
2.114061418E0,-3.830310822E0,-3.363411427E0,7.264011383E0
2.116530012E0,-3.899702787E0,-3.387339592E0,7.252047062E0
2.118996939E0,-3.961916208E0,-3.384946823E0,7.360023499E0
2.121463866E0,-4.002593994E0,-3.439981699E0,7.369594574E0
2.123930793E0,-4.036093712E0,-3.478266716E0,7.336095333E0
2.126397772E0,-4.105784416E0,-3.449553013E0,7.376772881E0
2.128864700E0,-4.208675861E0,-3.425624609E0,7.405487061E0
2.131331627E0,-4.258925438E0,-3.428017616E0,7.410272598E0
2.133798554E0,-4.275674820E0,-3.461517096E0,7.470093250E0
2.136261783E0,-4.352544308E0,-3.461517096E0,7.501199722E0
2.138728606E0,-4.369294167E0,-3.483052492E0,7.527521133E0
2.141195481E0,-4.400400639E0,-3.406482220E0,7.563712597E0
2.143662304E0,-4.366901398E0,-3.392125130E0,7.628318787E0
2.146129127E0,-4.333102703E0,-3.361018419E0,7.616354465E0
2.148595950E0,-4.321138382E0,-3.351447105E0,7.647460938E0
2.151062825E0,-4.292424679E0,-3.332304716E0,7.764709473E0
2.153529647E0,-4.246961117E0,-3.329911709E0,7.769495010E0
2.155975845E0,-4.156033993E0,-3.351447105E0,7.807780266E0
2.158442200E0,-4.117748737E0,-3.392125130E0,7.922935009E0
2.160908502E0,-4.048057556E0,-3.406482220E0,7.908577919E0
2.163374856E0,-3.990629911E0,-3.406482220E0,7.922935009E0
2.165841158E0,-4.007379532E0,-3.413660526E0,7.939684868E0
2.168307512E0,-3.940380573E0,-3.418446302E0,7.963613033E0
2.170773814E0,-3.937987804E0,-3.430410385E0,8.004290581E0
2.173240116E0,-3.892524242E0,-3.437588930E0,7.989933968E0
2.175732877E0,-3.851846218E0,-3.356232882E0,7.977969646E0
2.178199908E0,-3.844667673E0,-3.406482220E0,8.035397530E0
2.180666887E0,-3.820739508E0,-3.380161047E0,8.037790298E0
2.183133866E0,-3.808775425E0,-3.358625650E0,8.080861092E0
2.185600845E0,-3.882952929E0,-3.356232882E0,8.085646629E0
2.188067825E0,-3.911666870E0,-3.411267757E0,8.052146912E0
2.190534804E0,-3.957130432E0,-3.411267757E0,8.001897812E0
2.193001783E0,-4.016951084E0,-3.430410385E0,7.956434250E0
2.195465325E0,-4.074378967E0,-3.430410385E0,7.908577919E0
2.197932252E0,-4.151247978E0,-3.396910906E0,7.891828060E0
2.200399127E0,-4.187140465E0,-3.384946823E0,7.824829102E0
2.202866054E0,-4.254139423E0,-3.394518137E0,7.752745152E0
2.205332929E0,-4.278067589E0,-3.377768278E0,7.685746193E0
2.207799856E0,-4.299602985E0,-3.416053534E0,7.697710514E0
2.210266731E0,-4.306781769E0,-3.380161047E0,7.668996811E0
2.212733658E0,-4.340281010E0,-3.368196964E0,7.712067604E0
2.215199283E0,-4.330709934E0,-3.387339592E0,7.712067604E0
2.217666158E0,-4.340281010E0,-3.416053534E0,7.666603565E0
2.220133033E0,-4.316352844E0,-3.423231840E0,7.688138962E0
2.222599908E0,-4.330709934E0,-3.389732361E0,7.633104324E0
2.225066783E0,-4.335495472E0,-3.339483023E0,7.676175117E0
2.227533606E0,-4.290031910E0,-3.310769320E0,7.783852100E0
2.230000481E0,-4.294817448E0,-3.325126171E0,7.793423176E0
2.232467356E0,-4.206283092E0,-3.344268799E0,7.903792381E0
2.234935012E0,-4.227818489E0,-3.389732361E0,7.951648712E0
2.237401887E0,-4.203890324E0,-3.377768278E0,7.987541199E0
2.239868814E0,-4.227818489E0,-3.368196964E0,8.021040916E0
2.242335689E0,-4.227818489E0,-3.375375509E0,8.129016876E0
2.244802564E0,-4.220640182E0,-3.375375509E0,8.145766258E0
2.247269439E0,-4.182354927E0,-3.372982502E0,8.227122307E0
2.249736366E0,-4.163212299E0,-3.416053534E0,8.274978638E0
2.252203241E0,-4.144069672E0,-3.377768278E0,8.253443718E0
2.254667512E0,-4.158426762E0,-3.370589733E0,8.224729538E0
2.257134335E0,-4.098606110E0,-3.365804195E0,8.255836487E0
2.259601158E0,-4.100998878E0,-3.308376312E0,8.284550667E0
2.262067981E0,-4.084249020E0,-3.303590775E0,8.346763611E0
2.264534804E0,-4.091427803E0,-3.298804998E0,8.296514511E0
2.267001627E0,-4.084249020E0,-3.250649452E0,8.291728973E0
2.269468450E0,-4.071985722E0,-3.233899832E0,8.368597984E0
2.271935272E0,-4.074378967E0,-3.219542980E0,8.445168495E0
2.274403658E0,-4.071985722E0,-3.152543783E0,8.426025391E0
2.276870533E0,-4.060021877E0,-3.140579700E0,8.488239288E0
2.279337408E0,-4.074378967E0,-3.145365477E0,8.481060982E0
2.281804231E0,-3.990629911E0,-3.152543783E0,8.598309517E0
2.284271106E0,-3.997808456E0,-3.150151014E0,8.552845001E0
2.286737981E0,-4.033700943E0,-3.131008387E0,8.521739006E0
2.289204856E0,-3.978665829E0,-3.135794163E0,8.516953468E0
2.291671679E0,-3.923630953E0,-3.135794163E0,8.500203133E0
2.294139700E0,-3.937987804E0,-3.205185890E0,8.399704933E0
2.296606575E0,-3.885345697E0,-3.181257725E0,8.385348320E0
2.299073502E0,-3.851846218E0,-3.164507866E0,8.298907280E0
2.301540377E0,-3.847060680E0,-3.152543783E0,8.282156944E0
2.304007252E0,-3.811168194E0,-3.123830080E0,8.176873207E0
2.306474179E0,-3.818346739E0,-3.174079180E0,8.095517159E0
2.308941054E0,-3.813561201E0,-3.152543783E0,8.023433685E0
2.311407929E0,-3.820739508E0,-3.121437073E0,7.987541199E0
2.313855116E0,-3.815953970E0,-3.121437073E0,7.915756226E0
2.316321522E0,-3.806083441E0,-3.121437073E0,7.879864216E0
2.318787877E0,-3.782155275E0,-3.095116138E0,7.814958572E0
2.321254283E0,-3.779762506E0,-3.119044304E0,7.779066563E0
2.323720689E0,-3.724727631E0,-3.109472990E0,7.755138397E0
2.326187095E0,-3.774976730E0,-3.128615618E0,7.759923935E0
2.328653502E0,-3.796512127E0,-3.126222849E0,7.731209755E0
2.331119856E0,-3.763012648E0,-3.190829039E0,7.719245911E0
2.333587772E0,-3.803690672E0,-3.198007345E0,7.661818027E0
2.336054179E0,-3.849453449E0,-3.111865759E0,7.616354465E0
2.338520637E0,-3.830310822E0,-3.198007345E0,7.597211838E0
2.340987043E0,-3.827918053E0,-3.193221807E0,7.601997375E0
2.343453502E0,-3.815953970E0,-3.181257725E0,7.541877747E0
2.345919908E0,-3.811168194E0,-3.159722328E0,7.494021416E0
2.348386366E0,-3.806083441E0,-3.198007345E0,7.391129971E0
2.350852825E0,-3.784548044E0,-3.205185890E0,7.371987343E0
2.353324387E0,-3.751048565E0,-3.150151014E0,7.348059177E0
2.355790950E0,-3.755834341E0,-3.147758245E0,7.254439831E0
2.358257512E0,-3.686442375E0,-3.068794966E0,7.254439831E0
2.360724075E0,-3.681656837E0,-3.016152859E0,7.223333359E0
2.363190637E0,-3.662514210E0,-3.025724173E0,7.165905476E0
2.365657200E0,-3.636193037E0,-2.984747171E0,7.216155052E0
2.368123762E0,-3.595515013E0,-2.977568626E0,7.189833641E0
2.370590325E0,-3.557229996E0,-2.960819006E0,7.197012424E0
2.373076522E0,-3.487539053E0,-2.889034271E0,7.194619656E0
2.375543554E0,-3.434896946E0,-2.826820850E0,7.197012424E0
2.378010637E0,-3.298506021E0,-2.759821892E0,7.156334400E0
2.380477668E0,-3.226422310E0,-2.649452925E0,7.201797962E0
2.382944752E0,-3.092424154E0,-2.620738983E0,7.177869797E0
2.385411783E0,-2.967698336E0,-2.606382132E0,7.201797962E0
2.387878814E0,-2.800200701E0,-2.515454769E0,7.208976269E0
2.390345897E0,-2.625225544E0,-2.455335140E0,7.211369038E0
2.392794595E0,-2.467000246E0,-2.395514488E0,7.232904434E0
2.395261210E0,-2.273181438E0,-2.354836702E0,7.307381153E0
2.397727825E0,-2.031207323E0,-2.321336985E0,7.400701523E0
2.400194387E0,-1.877767563E0,-2.352443695E0,7.479664326E0
2.402661002E0,-1.729412556E0,-2.385943174E0,7.563712597E0
2.405127616E0,-1.542473316E0,-2.484348059E0,7.645068169E0
2.407594179E0,-1.384247899E0,-2.587239504E0,7.709674358E0
2.410060793E0,-1.372283816E0,-2.639881611E0,7.671389580E0
2.412536210E0,-1.324427366E0,-2.757428885E0,7.685746193E0
2.415003033E0,-1.202393413E0,-2.958425999E0,7.707281590E0
2.417469856E0,-1.192822099E0,-3.049652576E0,7.757531166E0
2.419936679E0,-1.207179070E0,-3.162115097E0,7.781459332E0
2.422403502E0,-1.314856052E0,-3.245863914E0,7.779066563E0
2.424870272E0,-1.369890928E0,-3.308376312E0,7.712067604E0
2.427337095E0,-1.513759375E0,-3.384946823E0,7.635497093E0
2.429803918E0,-1.698305845E0,-3.423231840E0,7.513164043E0
2.432273658E0,-1.872981906E0,-3.478266716E0,7.419844151E0
2.434740585E0,-2.093420744E0,-3.463909864E0,7.316952705E0
2.437207460E0,-2.318645239E0,-3.504587889E0,7.182655334E0
2.439674335E0,-2.627618313E0,-3.540480137E0,7.027122021E0
2.442141210E0,-2.938984394E0,-3.605385542E0,6.914360046E0
2.444608137E0,-3.228815079E0,-3.650849104E0,6.768397808E0
2.447075012E0,-3.487539053E0,-3.691527128E0,6.681957245E0
2.449541887E0,-3.906881094E0,-3.684348583E0,6.583851337E0
2.452011835E0,-4.237389565E0,-3.693919897E0,6.497709751E0
2.454478814E0,-4.527220249E0,-3.648456335E0,6.502495766E0
2.456945793E0,-4.862514496E0,-3.602992773E0,6.463911057E0
2.459412772E0,-5.229214668E0,-3.638885021E0,6.444768906E0
2.461879752E0,-5.523830891E0,-3.588635683E0,6.514459610E0
2.464346679E0,-5.808876038E0,-3.593421459E0,6.588637352E0
2.466813658E0,-6.067600250E0,-3.552743435E0,6.672386169E0
2.469280637E0,-6.307181358E0,-3.610171080E0,6.756433964E0
2.471745637E0,-6.525227547E0,-3.569493294E0,6.876074791E0
2.474212564E0,-6.714260101E0,-3.559921980E0,6.986145020E0
2.476679491E0,-6.858129025E0,-3.518944740E0,7.101299286E0
2.479146418E0,-7.006484032E0,-3.545564890E0,7.206583500E0
2.481613345E0,-7.049853802E0,-3.542873144E0,7.283154011E0
2.484080272E0,-7.109674454E0,-3.504587889E0,7.436593533E0
2.486547147E0,-7.073781967E0,-3.600599766E0,7.568498135E0
2.489014075E0,-7.083353043E0,-3.617349625E0,7.678567886E0
2.491480168E0,-7.128817081E0,-3.463909864E0,7.752745152E0
2.493947095E0,-7.080960274E0,-3.449553013E0,7.896613598E0
2.496413970E0,-7.040282249E0,-3.442374468E0,8.066504478E0
2.498880897E0,-6.917949200E0,-3.468695641E0,8.172087669E0
2.501347772E0,-6.848557472E0,-3.428017616E0,8.344370842E0
2.503814647E0,-6.803093910E0,-3.418446302E0,8.433204651E0
2.506281575E0,-6.714260101E0,-3.396910906E0,8.533702850E0
2.508748450E0,-6.647261143E0,-3.416053534E0,8.684749603E0
2.511213606E0,-6.553941250E0,-3.353840113E0,8.770891190E0
2.513680481E0,-6.467500687E0,-3.269792080E0,8.828319550E0
2.516147304E0,-6.350252151E0,-3.262613773E0,8.902795792E0
2.518614179E0,-6.249753475E0,-3.195614576E0,8.926724434E0
2.521081002E0,-6.187241077E0,-3.157329559E0,8.957830429E0
2.523547877E0,-6.110671043E0,-3.119044304E0,8.905188560E0
2.526014752E0,-6.038886070E0,-3.116651535E0,8.926724434E0
2.528481575E0,-5.918945789E0,-3.119044304E0,8.895617485E0
2.530950637E0,-5.875874996E0,-3.068794966E0,8.787641525E0
2.533417564E0,-5.784947872E0,-3.020938635E0,8.782855988E0
2.535884491E0,-5.732305527E0,-3.052045345E0,8.723034859E0
2.538351366E0,-5.612365723E0,-2.989532709E0,8.691927910E0
2.540818293E0,-5.519045353E0,-2.956033230E0,8.598309517E0
2.543285220E0,-5.502295494E0,-2.996711254E0,8.457132339E0
2.545752095E0,-5.391926765E0,-3.035295486E0,8.449954033E0
2.548219022E0,-5.327320576E0,-2.984747171E0,8.356334686E0
2.550684179E0,-5.231607437E0,-2.979961395E0,8.241478920E0
2.553151054E0,-5.142774105E0,-3.011367321E0,8.143373489E0
2.555617929E0,-5.082953453E0,-3.013760090E0,8.095517159E0
2.558084804E0,-5.042275429E0,-3.044866800E0,8.042575836E0
2.560551627E0,-4.960919380E0,-3.059223652E0,7.913363457E0
2.563018502E0,-4.910670280E0,-3.061616659E0,7.855936050E0
2.565485377E0,-4.893920422E0,-3.061616659E0,7.752745152E0
2.567952252E0,-4.874478817E0,-3.111865759E0,7.721638680E0
2.570417981E0,-4.788337231E0,-3.102294445E0,7.652246952E0
2.572884804E0,-4.742873669E0,-3.087937593E0,7.568498135E0
2.575351679E0,-4.690231323E0,-3.092723370E0,7.508378506E0
2.577818502E0,-4.687838554E0,-3.111865759E0,7.491628647E0
2.580285325E0,-4.692624092E0,-3.128615618E0,7.465307713E0
2.582752147E0,-4.642374992E0,-3.114258766E0,7.407879829E0
2.585219022E0,-4.587040901E0,-3.123830080E0,7.400701523E0
2.587685845E0,-4.579862595E0,-3.147758245E0,7.374380112E0
2.590151054E0,-4.572684288E0,-3.123830080E0,7.348059177E0
2.592617825E0,-4.563112736E0,-3.150151014E0,7.273582458E0
2.595084647E0,-4.517649174E0,-3.138186932E0,7.275975227E0
2.597551418E0,-4.503292084E0,-3.150151014E0,7.290631294E0
2.600018241E0,-4.546362877E0,-3.114258766E0,7.208976269E0
2.602485012E0,-4.534399033E0,-3.135794163E0,7.197012424E0
2.604951835E0,-4.534399033E0,-3.157329559E0,7.225726128E0
2.607418606E0,-4.543970108E0,-3.157329559E0,7.235297680E0
2.609884752E0,-4.534399033E0,-3.169293642E0,7.177869797E0
2.612351522E0,-4.515256405E0,-3.159722328E0,7.153941631E0
2.614818293E0,-4.462614059E0,-3.154936552E0,7.204190731E0
2.617285064E0,-4.488935471E0,-3.152543783E0,7.216155052E0
2.619751887E0,-4.508078098E0,-3.140579700E0,7.223333359E0
2.622218658E0,-4.472185612E0,-3.119044304E0,7.240083218E0
2.624685429E0,-4.524827480E0,-3.111865759E0,7.208976269E0
2.627152200E0,-4.555934429E0,-3.131008387E0,7.204190731E0
2.629621106E0,-4.560719967E0,-3.109472990E0,7.156334400E0
2.632087929E0,-4.553541660E0,-3.092723370E0,7.108478069E0
2.634554752E0,-4.579862595E0,-3.133401155E0,7.127620220E0
2.637021627E0,-4.616054058E0,-3.102294445E0,7.106084824E0
2.639488450E0,-4.613661289E0,-3.087937593E0,7.094120979E0
2.641955272E0,-4.587040901E0,-3.085544825E0,7.125227451E0
2.644422095E0,-4.553541660E0,-3.087937593E0,7.118049145E0
2.646888918E0,-4.572684288E0,-3.078366280E0,7.082156658E0
2.649355064E0,-4.541577339E0,-2.996711254E0,7.101299286E0
2.651821887E0,-4.546362877E0,-2.999104023E0,7.158727169E0
2.654288710E0,-4.603790760E0,-3.020938635E0,7.194619656E0
2.656755533E0,-4.582255363E0,-2.987139940E0,7.132406235E0
2.659222304E0,-4.527220249E0,-3.003889799E0,7.220940590E0
2.661689127E0,-4.488935471E0,-2.970390320E0,7.271189690E0
2.664155950E0,-4.472185612E0,-2.979961395E0,7.309773922E0
2.666622772E0,-4.505684853E0,-2.996711254E0,7.360023499E0
2.669090741E0,-4.486542225E0,-2.960819006E0,7.429415226E0
2.671557564E0,-4.517649174E0,-2.941676378E0,7.462914944E0
2.674024439E0,-4.493721008E0,-2.920140982E0,7.479664326E0
2.676491262E0,-4.500899315E0,-2.922533751E0,7.529913902E0
2.678958137E0,-4.555934429E0,-2.886641502E0,7.568498135E0
2.681424960E0,-4.515256405E0,-2.848356247E0,7.568498135E0
2.683891783E0,-4.546362877E0,-2.790928602E0,7.587640762E0
2.686358658E0,-4.536791801E0,-2.730808735E0,7.637889862E0
2.688824387E0,-4.534399033E0,-2.735594511E0,7.657032490E0
2.691291210E0,-4.539184570E0,-2.716451883E0,7.676175117E0
2.693758033E0,-4.529613495E0,-2.632703066E0,7.709674358E0
2.696224856E0,-4.505684853E0,-2.654238462E0,7.640282631E0
2.698691627E0,-4.532006264E0,-2.670988321E0,7.621140003E0
2.701158450E0,-4.536791801E0,-2.635095835E0,7.601997375E0
2.703625272E0,-4.539184570E0,-2.577668190E0,7.563712597E0
2.706092095E0,-4.529613495E0,-2.596810818E0,7.505985737E0
2.708559752E0,-4.472185612E0,-2.568096876E0,7.556533813E0
2.711026575E0,-4.515256405E0,-2.546561480E0,7.491628647E0
2.713493450E0,-4.500899315E0,-2.539382935E0,7.460521698E0
2.715960272E0,-4.527220249E0,-2.498705149E0,7.455736160E0
2.718427095E0,-4.481756687E0,-2.440978289E0,7.355237484E0
2.720893918E0,-4.481756687E0,-2.503490686E0,7.343273640E0
2.723360793E0,-4.469792843E0,-2.491526604E0,7.419844151E0
2.725827616E0,-4.453042984E0,-2.479562521E0,7.415058136E0
2.728293658E0,-4.486542225E0,-2.421835661E0,7.381558895E0
2.730759700E0,-4.510470867E0,-2.431406975E0,7.381558895E0
2.733225741E0,-4.515256405E0,-2.436192513E0,7.314559937E0
2.735691783E0,-4.488935471E0,-2.407478571E0,7.304988384E0
2.738157825E0,-4.558327198E0,-2.393121719E0,7.273582458E0
2.740623866E0,-4.539184570E0,-2.397907495E0,7.273582458E0
2.743089908E0,-4.520041943E0,-2.397907495E0,7.235297680E0
2.745555950E0,-4.488935471E0,-2.385943174E0,7.254439831E0
2.748028710E0,-4.496113777E0,-2.378764868E0,7.213762283E0
2.750495689E0,-4.498506546E0,-2.345265388E0,7.141977310E0
2.752962616E0,-4.505684853E0,-2.366800785E0,7.130013466E0
2.755429595E0,-4.457828522E0,-2.323729992E0,7.137191772E0
2.757896522E0,-4.450650215E0,-2.278266191E0,7.096513748E0
2.760363502E0,-4.445864677E0,-2.304587364E0,7.053442955E0
2.762830429E0,-4.462614059E0,-2.309372902E0,7.072585583E0
2.765297356E0,-4.393222332E0,-2.326122761E0,7.072585583E0
2.767762043E0,-4.390829563E0,-2.311765671E0,7.077371120E0
2.770228970E0,-4.402793884E0,-2.285444736E0,7.046264648E0
2.772695845E0,-4.330709934E0,-2.306980133E0,7.005287170E0
2.775162720E0,-4.304389000E0,-2.335694075E0,6.986145020E0
2.777629647E0,-4.306781769E0,-2.350050926E0,6.957430840E0
2.780096522E0,-4.282853603E0,-2.429013968E0,6.926324368E0
2.782563397E0,-4.225425720E0,-2.445763826E0,6.880860806E0
2.785030325E0,-4.230211258E0,-2.409871578E0,6.878467560E0
2.787498710E0,-4.223032951E0,-2.443371058E0,6.823432922E0
2.789965637E0,-4.163212299E0,-2.457727909E0,6.830611229E0
2.792432564E0,-4.134498596E0,-2.467299223E0,6.729813576E0
2.794899543E0,-4.177569389E0,-2.438585281E0,6.698707104E0
2.797366470E0,-4.120141506E0,-2.467299223E0,6.674778938E0
2.799833397E0,-4.089034557E0,-2.481955290E0,6.634100914E0
2.802300325E0,-4.153641224E0,-2.501097918E0,6.535995007E0
2.804767252E0,-4.179962158E0,-2.505883455E0,6.559923172E0
2.807234856E0,-4.177569389E0,-2.525026083E0,6.586244106E0
2.809701835E0,-4.215854168E0,-2.572882652E0,6.504888535E0
2.812168762E0,-4.256532192E0,-2.575275421E0,6.495316982E0
2.814635741E0,-4.258925438E0,-2.596810818E0,6.466304302E0
2.817102668E0,-4.311567307E0,-2.651845694E0,6.492924213E0
2.819569595E0,-4.354937077E0,-2.694916487E0,6.416054726E0
2.822036575E0,-4.453042984E0,-2.692523718E0,6.466304302E0
2.824503502E0,-4.486542225E0,-2.767000198E0,6.463911057E0
2.826963345E0,-4.584648132E0,-2.786142826E0,6.437590122E0
2.829430116E0,-4.699802876E0,-2.833999395E0,6.435197353E0
2.831896887E0,-4.757230282E0,-2.862713099E0,6.485745907E0
2.834363658E0,-4.872086048E0,-2.903391123E0,6.500102520E0
2.836830429E0,-4.896313190E0,-2.874677420E0,6.555137634E0
2.839297200E0,-4.934598446E0,-2.879462957E0,6.557530403E0
2.841763970E0,-5.030311584E0,-2.932105064E0,6.610172749E0
2.844230741E0,-5.051846981E0,-2.970390320E0,6.574280262E0
2.846699804E0,-5.094917774E0,-2.965604544E0,6.586244106E0
2.849166627E0,-5.116453171E0,-2.996711254E0,6.674778938E0
2.851633450E0,-5.162215710E0,-3.080759048E0,6.744170666E0
2.854100272E0,-5.147858620E0,-3.102294445E0,6.766005039E0
2.856567095E0,-5.222036362E0,-3.195614576E0,6.792325974E0
2.859033918E0,-5.245964527E0,-3.221935749E0,6.816254616E0
2.861500793E0,-5.291428089E0,-3.236292601E0,6.847361088E0
2.863967616E0,-5.324927807E0,-3.279662609E0,6.943074226E0
2.866435220E0,-5.356034279E0,-3.349054337E0,6.971787930E0
2.868902095E0,-5.346463203E0,-3.363411427E0,7.010073185E0
2.871368918E0,-5.389533997E0,-3.363411427E0,7.051050186E0
2.873835741E0,-5.449653625E0,-3.425624609E0,7.055835724E0
2.876302616E0,-5.511867046E0,-3.456731319E0,7.127620220E0
2.878769439E0,-5.523830891E0,-3.487838030E0,7.113263607E0
2.881236314E0,-5.600401402E0,-3.514159203E0,7.106084824E0
2.883703137E0,-5.660222054E0,-3.552743435E0,7.132406235E0
2.886167512E0,-5.698806286E0,-3.547957659E0,7.163512707E0
2.888634283E0,-5.741877079E0,-3.595814228E0,7.127620220E0
2.891101054E0,-5.792126179E0,-3.595814228E0,7.161119938E0
2.893567877E0,-5.820840359E0,-3.626920938E0,7.175477028E0
2.896034647E0,-5.885446548E0,-3.629313707E0,7.242475986E0
2.898501418E0,-5.938088417E0,-3.634099483E0,7.254439831E0
2.900968241E0,-5.991029739E0,-3.631706476E0,7.288238525E0
2.903435012E0,-6.069993019E0,-3.622135162E0,7.295417309E0
2.905903710E0,-6.084349632E0,-3.658027649E0,7.376772881E0
2.908370533E0,-6.139384747E0,-3.646063566E0,7.427022457E0
2.910837356E0,-6.215955257E0,-3.629313707E0,7.462914944E0
2.913304231E0,-6.233004093E0,-3.622135162E0,7.573283672E0
2.915771054E0,-6.247360706E0,-3.574278831E0,7.599604607E0
2.918237877E0,-6.192026615E0,-3.588635683E0,7.678567886E0
2.920704700E0,-6.213562012E0,-3.619742393E0,7.714460373E0
2.923171522E0,-6.304788589E0,-3.557528973E0,7.704888821E0
2.925636106E0,-6.283253193E0,-3.555136204E0,7.767102242E0
2.928102877E0,-6.244967937E0,-3.521337509E0,7.795815945E0
2.930569647E0,-6.295217037E0,-3.509373426E0,7.822436333E0
2.933036418E0,-6.268896103E0,-3.514159203E0,7.877471447E0
2.935503189E0,-6.256932259E0,-3.473481178E0,7.906185150E0
2.937969960E0,-6.237789631E0,-3.463909864E0,7.922935009E0
2.940436783E0,-6.225825310E0,-3.437588930E0,7.927720547E0
2.942903554E0,-6.201598167E0,-3.468695641E0,7.922935009E0
2.945371210E0,-6.208776474E0,-3.428017616E0,7.951648712E0
2.947837981E0,-6.172883987E0,-3.372982502E0,7.973184109E0
2.950304804E0,-6.165705681E0,-3.358625650E0,7.934898853E0
2.952771627E0,-6.125027657E0,-3.375375509E0,7.958827019E0
2.955238397E0,-6.074778557E0,-3.329911709E0,8.006683350E0
2.957705220E0,-6.065207005E0,-3.305983543E0,7.951648712E0
2.960171991E0,-6.060421467E0,-3.248256683E0,8.021040916E0
2.962638814E0,-6.012565136E0,-3.269792080E0,7.999505043E0
2.965106158E0,-5.974279881E0,-3.257827997E0,8.030611992E0
2.967572981E0,-5.918945789E0,-3.236292601E0,8.018648148E0
2.970039804E0,-5.878267765E0,-3.212364435E0,8.040183067E0
2.972506575E0,-5.885446548E0,-3.140579700E0,8.028219223E0
2.974973397E0,-5.813661575E0,-3.099901676E0,8.073682785E0
2.977440220E0,-5.780162334E0,-3.111865759E0,8.085646629E0
2.979907043E0,-5.732305527E0,-3.109472990E0,8.105088234E0
2.982373866E0,-5.638686657E0,-3.080759048E0,8.145766258E0
2.984839908E0,-5.593223095E0,-3.075973511E0,8.224729538E0
2.987305950E0,-5.502295494E0,-3.097508907E0,8.229515076E0
2.989771991E0,-5.444868088E0,-3.032902718E0,8.219944000E0
2.992238033E0,-5.411069393E0,-2.982354403E0,8.219944000E0
2.994704075E0,-5.363213062E0,-2.900998354E0,8.253443718E0
2.997170116E0,-5.265107155E0,-2.903391123E0,8.339585304E0
2.999636158E0,-5.207679272E0,-2.924926519E0,8.423632622E0
3.002102200E0,-5.142774105E0,-2.908176899E0,8.449954033E0
3.004576158E0,-5.092525005E0,-2.881855726E0,8.426025391E0
3.007043137E0,-5.037489891E0,-2.836392164E0,8.411668777E0
3.009510116E0,-4.999204636E0,-2.814856768E0,8.447561264E0
3.011977147E0,-4.965705395E0,-2.793321371E0,8.440382957E0
3.014444127E0,-4.929812908E0,-2.798106909E0,8.502595901E0
3.016911158E0,-4.915455818E0,-2.790928602E0,8.521739006E0
3.019378137E0,-4.857728958E0,-2.771785975E0,8.548059464E0
3.021845116E0,-4.860121727E0,-2.778964281E0,8.516953468E0
3.024311158E0,-4.896313190E0,-2.730808735E0,8.493024826E0
3.026777200E0,-4.872086048E0,-2.647060156E0,8.409276009E0
3.029243241E0,-4.908277512E0,-2.647060156E0,8.394919395E0
3.031709283E0,-4.896313190E0,-2.635095835E0,8.351549149E0
3.034175325E0,-4.893920422E0,-2.627917528E0,8.296514511E0
3.036641366E0,-4.917848587E0,-2.639881611E0,8.243872643E0
3.039107408E0,-4.932205677E0,-2.661417007E0,8.162516594E0
3.041573450E0,-4.953741074E0,-2.659024239E0,8.121838570E0
3.044044439E0,-4.980062008E0,-2.685345173E0,8.011468887E0
3.046511522E0,-4.936991215E0,-2.651845694E0,7.891828060E0
3.048978606E0,-4.987240791E0,-2.625524759E0,7.839186192E0
3.051445637E0,-5.025525570E0,-2.678166628E0,7.731209755E0
3.053912720E0,-5.011168957E0,-2.685345173E0,7.601997375E0
3.056379804E0,-5.003990173E0,-2.644667149E0,7.549056530E0
3.058846887E0,-4.984847546E0,-2.637488842E0,7.446165085E0
3.061313970E0,-4.987240791E0,-2.623131752E0,7.316952705E0
3.063778137E0,-4.977669239E0,-2.596810818E0,7.266404152E0
3.066245116E0,-5.015954494E0,-2.608774900E0,7.180262566E0
3.068712095E0,-4.982454777E0,-2.620738983E0,7.070192814E0
3.071179127E0,-4.980062008E0,-2.639881611E0,7.022336483E0
3.073646106E0,-4.941776752E0,-2.601596355E0,7.022336483E0
3.076113137E0,-4.953741074E0,-2.632703066E0,6.943074226E0
3.078580116E0,-4.903491974E0,-2.668595552E0,6.859325409E0
3.081047147E0,-4.889134884E0,-2.630310297E0,6.835396767E0
3.083514595E0,-4.829015255E0,-2.639881611E0,6.773183823E0
3.085981575E0,-4.826622486E0,-2.642274380E0,6.746563435E0
3.088448606E0,-4.793122768E0,-2.642274380E0,6.674778938E0
3.090915637E0,-4.776372910E0,-2.661417007E0,6.614958286E0
3.093382616E0,-4.766801834E0,-2.635095835E0,6.588637352E0
3.095849647E0,-4.754837513E0,-2.639881611E0,6.634100914E0
3.098316679E0,-4.764409065E0,-2.670988321E0,6.533602238E0
3.100783658E0,-4.750051975E0,-2.680559635E0,6.504888535E0
3.103246470E0,-4.750051975E0,-2.682952404E0,6.535995007E0
3.105713397E0,-4.802694321E0,-2.630310297E0,6.466304302E0
3.108180325E0,-4.778766155E0,-2.690130949E0,6.413661957E0
3.110647200E0,-4.793122768E0,-2.668595552E0,6.372983932E0
3.113114127E0,-4.769194603E0,-2.661417007E0,6.372983932E0
3.115581054E0,-4.776372910E0,-2.647060156E0,6.346662998E0
3.118047929E0,-4.776372910E0,-2.654238462E0,6.337091446E0
3.120514856E0,-4.740480900E0,-2.661417007E0,6.325127602E0
3.122983502E0,-4.759623528E0,-2.654238462E0,6.337091446E0
3.125450481E0,-4.740480900E0,-2.637488842E0,6.337091446E0
3.127917408E0,-4.745266438E0,-2.606382132E0,6.289235115E0
3.130384387E0,-4.752444744E0,-2.642274380E0,6.384948254E0
3.132851314E0,-4.671088696E0,-2.743072033E0,6.418447495E0
3.135318293E0,-4.690231323E0,-2.702095032E0,6.408876419E0
3.137785220E0,-4.714159489E0,-2.651845694E0,6.325127602E0
3.140252200E0,-4.673481941E0,-2.592025042E0,6.265306950E0
3.142714804E0,-4.692624092E0,-2.608774900E0,6.250949860E0
3.145181627E0,-4.726123810E0,-2.594418049E0,6.236593246E0
3.147648502E0,-4.690231323E0,-2.563311338E0,6.186044693E0
3.150115325E0,-4.692624092E0,-2.556132793E0,6.183651924E0
3.152582200E0,-4.692624092E0,-2.635095835E0,6.234200478E0
3.155049022E0,-4.706981182E0,-2.654238462E0,6.193223000E0
3.157515897E0,-4.666303158E0,-2.709273338E0,6.315556049E0
3.159982720E0,-4.687838554E0,-2.730808735E0,6.294020653E0
3.162450116E0,-4.678267479E0,-2.704487801E0,6.277271271E0
3.164916991E0,-4.723731041E0,-2.726023197E0,6.248557091E0
3.167383814E0,-4.745266438E0,-2.728415966E0,6.289235115E0
3.169850689E0,-4.771587372E0,-2.714059114E0,6.282056808E0
3.172317564E0,-4.819443703E0,-2.716451883E0,6.217450619E0
3.174784387E0,-4.812265396E0,-2.714059114E0,6.217450619E0
3.177251262E0,-4.750051975E0,-2.745464802E0,6.207580090E0
3.179718137E0,-4.809872627E0,-2.733201742E0,6.169294834E0
3.182186887E0,-4.898705959E0,-2.750250578E0,6.150152206E0
3.184653814E0,-4.898705959E0,-2.757428885E0,6.186044693E0
3.187120689E0,-4.958526611E0,-2.740380049E0,6.085546017E0
3.189587616E0,-4.960919380E0,-2.762214661E0,6.087938786E0
3.192054543E0,-4.948955536E0,-2.778964281E0,6.102295876E0
3.194521418E0,-4.980062008E0,-2.805285454E0,6.037689686E0
3.196988345E0,-4.992026329E0,-2.802892685E0,6.052046776E0
3.199455272E0,-4.992026329E0,-2.778964281E0,6.095117569E0
3.201920585E0,-5.003990173E0,-2.869891644E0,6.052046776E0
3.204387460E0,-5.013561726E0,-2.833999395E0,6.025725842E0
3.206854335E0,-4.996811867E0,-2.814856768E0,6.008975983E0
3.209321210E0,-5.049454212E0,-2.807678223E0,6.008975983E0
3.211788033E0,-5.051846981E0,-2.805285454E0,5.965905190E0
3.214254908E0,-5.047060966E0,-2.778964281E0,5.980261803E0
3.216721783E0,-5.068596363E0,-2.776571512E0,5.989833355E0
3.219188658E0,-5.066203594E0,-2.752643347E0,6.004190445E0
3.221650481E0,-5.106881618E0,-2.767000198E0,5.999404430E0
3.224117200E0,-5.106881618E0,-2.793321371E0,6.059225082E0
3.226583970E0,-5.078167915E0,-2.807678223E0,6.059225082E0
3.229050689E0,-5.080560684E0,-2.781357288E0,6.107081413E0
3.231517408E0,-5.137988567E0,-2.800499916E0,6.159723759E0
3.233984179E0,-5.142774105E0,-2.860320330E0,6.181259155E0
3.236450897E0,-5.137988567E0,-2.845963478E0,6.229414463E0
3.238917668E0,-5.150251865E0,-2.822035313E0,6.270092487E0
3.241391002E0,-5.150251865E0,-2.819642305E0,6.327520370E0
3.243857929E0,-5.174180031E0,-2.819642305E0,6.416054726E0
3.246324804E0,-5.188536644E0,-2.841177702E0,6.490531445E0
3.248791731E0,-5.130809784E0,-2.829213619E0,6.545566559E0
3.251258658E0,-5.169394016E0,-2.833999395E0,6.605386734E0
3.253725533E0,-5.190929413E0,-2.843570709E0,6.648457527E0
3.256192460E0,-5.178965569E0,-2.862713099E0,6.734599113E0
3.258659387E0,-5.155037403E0,-2.893819809E0,6.835396767E0
3.261123866E0,-5.145166874E0,-2.881855726E0,6.907181740E0
3.263590689E0,-5.150251865E0,-2.877070189E0,6.964609623E0
3.266057564E0,-5.169394016E0,-2.891427040E0,7.070192814E0
3.268524387E0,-5.178965569E0,-2.836392164E0,7.127620220E0
3.270991262E0,-5.176572800E0,-2.853141785E0,7.189833641E0
3.273458085E0,-5.171787262E0,-2.867498875E0,7.249654293E0
3.275924960E0,-5.162215710E0,-2.877070189E0,7.302595615E0
3.278391783E0,-5.171787262E0,-2.867498875E0,7.395915508E0
3.280856679E0,-5.169394016E0,-2.889034271E0,7.417450905E0
3.283323450E0,-5.195715427E0,-2.884248495E0,7.441379547E0
3.285790272E0,-5.155037403E0,-2.929712296E0,7.448557854E0
3.288257043E0,-5.106881618E0,-2.948854923E0,7.479664326E0
3.290723866E0,-5.181358337E0,-2.927319288E0,7.467700481E0
3.293190637E0,-5.174180031E0,-2.857927561E0,7.417450905E0
3.295657460E0,-5.123631477E0,-2.886641502E0,7.364809036E0
3.298124231E0,-5.137988567E0,-2.970390320E0,7.400701523E0
3.300591314E0,-5.078167915E0,-2.965604544E0,7.429415226E0
3.303058137E0,-5.027918816E0,-2.970390320E0,7.431807995E0
3.305524908E0,-5.087738991E0,-3.008675337E0,7.400701523E0
3.307991731E0,-5.090131760E0,-3.016152859E0,7.362416267E0
3.310458502E0,-5.082953453E0,-3.025724173E0,7.360023499E0
3.312925325E0,-5.102096081E0,-3.003889799E0,7.383951664E0
3.315392147E0,-5.169394016E0,-3.023331404E0,7.312166691E0
3.317858918E0,-5.164608479E0,-3.030509949E0,7.261618614E0
3.320326575E0,-5.174180031E0,-3.037688255E0,7.328916550E0
3.322793397E0,-5.195715427E0,-3.090330362E0,7.307381153E0
3.325260220E0,-5.272285461E0,-3.003889799E0,7.201797962E0
3.327727043E0,-5.317749023E0,-2.989532709E0,7.271189690E0
3.330193866E0,-5.363213062E0,-3.018545866E0,7.290631294E0
3.332660689E0,-5.379962444E0,-3.028116941E0,7.393522739E0
3.335127512E0,-5.440082073E0,-3.016152859E0,7.474878788E0
3.337594335E0,-5.490331650E0,-3.061616659E0,7.460521698E0
3.340060429E0,-5.528616905E0,-3.083152056E0,7.515556812E0
3.342527252E0,-5.516652584E0,-3.090330362E0,7.556533813E0
3.344994022E0,-5.514259815E0,-3.092723370E0,7.580461979E0
3.347460845E0,-5.509474277E0,-3.128615618E0,7.664210796E0
3.349927668E0,-5.487938881E0,-3.157329559E0,7.688138962E0
3.352394439E0,-5.459224701E0,-3.147758245E0,7.654639721E0
3.354861262E0,-5.430510998E0,-3.107080221E0,7.685746193E0
3.357328085E0,-5.430510998E0,-3.052045345E0,7.683353424E0
3.359792877E0,-5.379962444E0,-3.047259569E0,7.625925541E0
3.362259595E0,-5.312963486E0,-3.020938635E0,7.599604607E0
3.364726366E0,-5.317749023E0,-3.006282568E0,7.561319351E0
3.367193137E0,-5.245964527E0,-2.958425999E0,7.467700481E0
3.369659908E0,-5.183751106E0,-2.958425999E0,7.410272598E0
3.372126627E0,-5.109274387E0,-2.970390320E0,7.316952705E0
3.374593397E0,-5.128417015E0,-2.920140982E0,7.304988384E0
3.377060168E0,-5.099703312E0,-2.929712296E0,7.228118896E0
3.379527564E0,-5.054239750E0,-2.910569668E0,7.194619656E0
3.381994335E0,-5.073382378E0,-2.929712296E0,7.161119938E0
3.384461106E0,-5.015954494E0,-2.934497833E0,7.161119938E0
3.386927877E0,-5.013561726E0,-2.944069147E0,7.149155617E0
3.389394647E0,-5.032704353E0,-2.972783089E0,7.130013466E0
3.391861418E0,-5.025525570E0,-3.020938635E0,7.134799004E0
3.394328189E0,-5.032704353E0,-3.018545866E0,7.118049145E0
3.396794960E0,-5.070989609E0,-3.028116941E0,7.118049145E0
3.399263814E0,-5.102096081E0,-3.061616659E0,7.134799004E0
3.401730637E0,-5.111667156E0,-3.064009428E0,7.091728210E0
3.404197460E0,-5.145166874E0,-3.011367321E0,7.024729252E0
3.406664283E0,-5.186143875E0,-3.056830883E0,7.048657417E0
3.409131106E0,-5.212464809E0,-3.071187973E0,7.125227451E0
3.411597929E0,-5.238786221E0,-3.059223652E0,7.108478069E0
3.414064752E0,-5.231607437E0,-3.071187973E0,7.127620220E0
3.416531575E0,-5.245964527E0,-3.037688255E0,7.187440872E0
3.419000741E0,-5.248357296E0,-3.083152056E0,7.180262566E0
3.421467616E0,-5.272285461E0,-3.061616659E0,7.194619656E0
3.423934491E0,-5.303392410E0,-3.042474031E0,7.197012424E0
3.426401418E0,-5.291428089E0,-3.016152859E0,7.228118896E0
3.428868293E0,-5.248357296E0,-2.991925716E0,7.254439831E0
3.431335116E0,-5.236393452E0,-3.018545866E0,7.256833076E0
3.433801991E0,-5.257928848E0,-2.967997313E0,7.285546780E0
3.436268866E0,-5.229214668E0,-2.891427040E0,7.314559937E0
3.438733189E0,-5.200500965E0,-2.920140982E0,7.278368473E0
3.441200012E0,-5.164608479E0,-2.932105064E0,7.319345474E0
3.443666835E0,-5.142774105E0,-2.941676378E0,7.319345474E0
3.446133658E0,-5.085346222E0,-2.951247692E0,7.369594574E0
3.448600481E0,-5.061418056E0,-2.917748213E0,7.405487061E0
3.451067252E0,-5.092525005E0,-2.951247692E0,7.410272598E0
3.453534075E0,-5.039882660E0,-2.924926519E0,7.431807995E0
3.456000897E0,-4.999204636E0,-2.877070189E0,7.417450905E0
3.458453397E0,-4.999204636E0,-2.903391123E0,7.419844151E0
3.460919856E0,-4.994419098E0,-2.872284412E0,7.436593533E0
3.463386314E0,-4.951348305E0,-2.845963478E0,7.462914944E0
3.465852772E0,-4.850550652E0,-2.862713099E0,7.462914944E0
3.468319231E0,-4.867300510E0,-2.855534792E0,7.450950623E0
3.470785689E0,-4.869693279E0,-2.865106106E0,7.462914944E0
3.473252147E0,-4.852943420E0,-2.889034271E0,7.470093250E0
3.475718658E0,-4.836193562E0,-2.932105064E0,7.472486019E0
3.478186522E0,-4.836193562E0,-2.929712296E0,7.465307713E0
3.480653033E0,-4.831408024E0,-2.910569668E0,7.448557854E0
3.483119491E0,-4.852943420E0,-2.912962437E0,7.455736160E0
3.485586002E0,-4.886742115E0,-2.891427040E0,7.455736160E0
3.488052512E0,-4.833800793E0,-2.819642305E0,7.470093250E0
3.490519022E0,-4.850550652E0,-2.869891644E0,7.412665367E0
3.492985481E0,-4.891527653E0,-2.855534792E0,7.369594574E0
3.495451991E0,-4.908277512E0,-2.778964281E0,7.407879829E0
3.497923033E0,-4.920241356E0,-2.793321371E0,7.343273640E0
3.500389647E0,-4.946562767E0,-2.793321371E0,7.352844715E0
3.502856262E0,-4.946562767E0,-2.800499916E0,7.357630730E0
3.505322877E0,-5.003990173E0,-2.781357288E0,7.302595615E0
3.507789491E0,-5.032704353E0,-2.795714140E0,7.295417309E0
3.510256106E0,-5.013561726E0,-2.783750057E0,7.302595615E0
3.512722720E0,-4.999204636E0,-2.798106909E0,7.264011383E0
3.515189335E0,-5.025525570E0,-2.812463999E0,7.280761242E0
3.517653293E0,-5.001597404E0,-2.778964281E0,7.295417309E0
3.520119856E0,-5.032704353E0,-2.776571512E0,7.271189690E0
3.522586366E0,-5.044668198E0,-2.774178743E0,7.304988384E0
3.525052929E0,-5.042275429E0,-2.747857809E0,7.273582458E0
3.527519491E0,-5.039882660E0,-2.759821892E0,7.242475986E0
3.529986002E0,-5.039882660E0,-2.759821892E0,7.249654293E0
3.532452564E0,-5.008776188E0,-2.767000198E0,7.268796921E0
3.534919127E0,-5.056632519E0,-2.757428885E0,7.256833076E0
3.537388762E0,-5.030311584E0,-2.755036116E0,7.240083218E0
3.539855429E0,-5.013561726E0,-2.767000198E0,7.237690449E0
3.542322043E0,-5.059025288E0,-2.702095032E0,7.247261524E0
3.544788658E0,-5.035097122E0,-2.733201742E0,7.244868755E0
3.547255272E0,-5.018347263E0,-2.740380049E0,7.275975227E0
3.549721887E0,-5.030311584E0,-2.762214661E0,7.312166691E0
3.552188502E0,-5.025525570E0,-2.697309256E0,7.259225845E0
3.554655116E0,-5.042275429E0,-2.745464802E0,7.249654293E0
3.557138970E0,-5.099703312E0,-2.697309256E0,7.275975227E0
3.559606002E0,-5.106881618E0,-2.721237659E0,7.321738243E0
3.562073085E0,-5.082953453E0,-2.764607430E0,7.297810078E0
3.564540116E0,-5.178965569E0,-2.716451883E0,7.321738243E0
3.567007147E0,-5.181358337E0,-2.697309256E0,7.355237484E0
3.569474231E0,-5.255535603E0,-2.730808735E0,7.348059177E0
3.571941262E0,-5.262714386E0,-2.788535595E0,7.383951664E0
3.574408345E0,-5.248357296E0,-2.757428885E0,7.391129971E0
3.576874387E0,-5.327320576E0,-2.755036116E0,7.374380112E0
3.579341418E0,-5.367998600E0,-2.778964281E0,7.362416267E0
3.581808397E0,-5.363213062E0,-2.836392164E0,7.398308277E0
3.584275429E0,-5.370391369E0,-2.769393206E0,7.340880871E0
3.586742460E0,-5.375176907E0,-2.798106909E0,7.398308277E0
3.589209491E0,-5.367998600E0,-2.824428082E0,7.369594574E0
3.591676522E0,-5.403890610E0,-2.814856768E0,7.324131012E0
3.594143554E0,-5.379962444E0,-2.836392164E0,7.309773922E0
3.596608866E0,-5.396712303E0,-2.807678223E0,7.316952705E0
3.599075897E0,-5.406283855E0,-2.838784933E0,7.223333359E0
3.601542877E0,-5.358427048E0,-2.872284412E0,7.211369038E0
3.604009856E0,-5.387141228E0,-2.817249537E0,7.216155052E0
3.606476835E0,-5.387141228E0,-2.874677420E0,7.211369038E0
3.608943814E0,-5.382355213E0,-2.865106106E0,7.197012424E0
3.611410793E0,-5.358427048E0,-2.903391123E0,7.153941631E0
3.613877772E0,-5.442475319E0,-2.869891644E0,7.067800045E0
3.616341627E0,-5.394319534E0,-2.886641502E0,7.065407276E0
3.618808554E0,-5.367998600E0,-2.884248495E0,7.063014030E0
3.621275429E0,-5.413462162E0,-2.893819809E0,7.094120979E0
3.623742356E0,-5.348855972E0,-2.922533751E0,7.043871880E0
3.626209283E0,-5.356034279E0,-2.924926519E0,6.976573467E0
3.628676158E0,-5.406283855E0,-2.891427040E0,6.962216377E0
3.631143085E0,-5.363213062E0,-2.920140982E0,6.940680981E0
3.633610012E0,-5.379962444E0,-2.946461916E0,6.900003433E0
3.636079283E0,-5.384748459E0,-2.946461916E0,6.892824650E0
3.638546262E0,-5.391926765E0,-2.941676378E0,6.892824650E0
3.641013241E0,-5.408676624E0,-3.006282568E0,6.837790012E0
3.643480220E0,-5.372784138E0,-2.996711254E0,6.871289253E0
3.645947200E0,-5.394319534E0,-2.982354403E0,6.804290295E0
3.648414127E0,-5.413462162E0,-2.994318485E0,6.794719219E0
3.650881106E0,-5.363213062E0,-3.052045345E0,6.799504757E0
3.653348085E0,-5.399105072E0,-3.068794966E0,6.777969360E0
3.655812564E0,-5.408676624E0,-3.064009428E0,6.725028038E0
3.658279491E0,-5.399105072E0,-3.099901676E0,6.677171707E0
3.660746366E0,-5.437689304E0,-3.157329559E0,6.619743824E0
3.663213293E0,-5.452046394E0,-3.195614576E0,6.619743824E0
3.665680220E0,-5.440082073E0,-3.154936552E0,6.595815659E0
3.668147095E0,-5.447260857E0,-3.154936552E0,6.533602238E0
3.670614022E0,-5.425725460E0,-3.181257725E0,6.497709751E0
3.673080897E0,-5.394319534E0,-3.245863914E0,6.466304302E0
3.675543814E0,-5.440082073E0,-3.212364435E0,6.442375660E0
3.678010637E0,-5.452046394E0,-3.188436270E0,6.380162239E0
3.680477408E0,-5.480760098E0,-3.217149973E0,6.250949860E0
3.682944231E0,-5.447260857E0,-3.176471949E0,6.231807709E0
3.685411054E0,-5.471189022E0,-3.202793121E0,6.270092487E0
3.687877825E0,-5.471189022E0,-3.250649452E0,6.229414463E0
3.690344647E0,-5.478367329E0,-3.245863914E0,6.166902065E0
3.692811418E0,-5.452046394E0,-3.276970625E0,6.107081413E0
3.695283293E0,-5.480760098E0,-3.334697485E0,6.171687603E0
3.697750220E0,-5.423332691E0,-3.317947626E0,6.152545452E0
3.700217147E0,-5.389533997E0,-3.296412230E0,6.099903107E0
3.702684127E0,-5.387141228E0,-3.368196964E0,6.025725842E0
3.705151054E0,-5.379962444E0,-3.329911709E0,6.016154289E0
3.707617981E0,-5.348855972E0,-3.358625650E0,6.044867992E0
3.710084908E0,-5.353641510E0,-3.353840113E0,6.025725842E0
3.712551835E0,-5.367998600E0,-3.358625650E0,6.114260197E0
3.715015950E0,-5.389533997E0,-3.353840113E0,6.061617851E0
3.717482825E0,-5.399105072E0,-3.372982502E0,6.121438503E0
3.719949700E0,-5.449653625E0,-3.339483023E0,6.133402824E0
3.722416522E0,-5.452046394E0,-3.310769320E0,6.258128643E0
3.724883397E0,-5.499902725E0,-3.327518940E0,6.329913139E0
3.727350272E0,-5.550152302E0,-3.322733402E0,6.322734833E0
3.729817095E0,-5.545366287E0,-3.346661568E0,6.384948254E0
3.732283970E0,-5.595615864E0,-3.399303675E0,6.401698112E0
3.734751262E0,-5.540580750E0,-3.428017616E0,6.483353138E0
3.737218137E0,-5.631507874E0,-3.432803154E0,6.512066841E0
3.739685012E0,-5.609972477E0,-3.530908823E0,6.586244106E0
3.742151887E0,-5.578866005E0,-3.595814228E0,6.591030121E0
3.744618762E0,-5.602794170E0,-3.591028690E0,6.504888535E0
3.747085637E0,-5.564508915E0,-3.588635683E0,6.576673031E0
3.749552512E0,-5.528616905E0,-3.576671600E0,6.583851337E0
3.752019387E0,-5.507081509E0,-3.550350666E0,6.497709751E0
3.754487408E0,-5.478367329E0,-3.619742393E0,6.574280262E0
3.756954335E0,-5.440082073E0,-3.641277790E0,6.526423931E0
3.759421210E0,-5.423332691E0,-3.535694599E0,6.497709751E0
3.761888137E0,-5.399105072E0,-3.552743435E0,6.559923172E0
3.764355012E0,-5.389533997E0,-3.521337509E0,6.550352097E0
3.766821939E0,-5.370391369E0,-3.502195120E0,6.535995007E0
3.769288814E0,-5.363213062E0,-3.497409344E0,6.569494724E0
3.771755741E0,-5.389533997E0,-3.555136204E0,6.514459610E0
3.774223450E0,-5.363213062E0,-3.576671600E0,6.586244106E0
3.776690377E0,-5.358427048E0,-3.619742393E0,6.591030121E0
3.779157304E0,-5.365605831E0,-3.679563046E0,6.588637352E0
3.781624231E0,-5.348855972E0,-3.710669756E0,6.588637352E0
3.784091158E0,-5.353641510E0,-3.758526087E0,6.571887493E0
3.786558085E0,-5.329713345E0,-3.775275946E0,6.559923172E0
3.789025012E0,-5.293820858E0,-3.794418573E0,6.526423931E0
3.791491939E0,-5.344070435E0,-3.842574120E0,6.524031162E0
3.793955325E0,-5.379962444E0,-3.890430450E0,6.428019047E0
3.796422147E0,-5.394319534E0,-3.876073599E0,6.361020088E0
3.798888970E0,-5.435296535E0,-3.921537161E0,6.313163280E0
3.801355845E0,-5.480760098E0,-3.938287020E0,6.272485256E0
3.803822668E0,-5.586044312E0,-3.981357813E0,6.186044693E0
3.806289491E0,-5.588437080E0,-3.962215185E0,6.152545452E0
3.808756314E0,-5.636293888E0,-3.916751623E0,6.102295876E0
3.811223137E0,-5.694020748E0,-3.923929930E0,6.032904148E0
3.813685897E0,-5.808876038E0,-3.947858334E0,6.040082455E0
3.816152616E0,-5.892624855E0,-3.892823458E0,6.028118610E0
3.818619335E0,-5.942873955E0,-3.902394533E0,5.980261803E0
3.821086054E0,-6.000600815E0,-3.883252144E0,5.900999546E0
3.823552825E0,-6.041278839E0,-3.895216227E0,5.900999546E0
3.826019543E0,-6.132206440E0,-3.883252144E0,5.924928188E0
3.828486262E0,-6.127420425E0,-3.888037682E0,5.958726406E0
3.830952981E0,-6.163312912E0,-3.921537161E0,5.936892033E0
3.833421679E0,-6.192026615E0,-3.935894251E0,5.903392792E0
3.835888450E0,-6.160920143E0,-3.890430450E0,5.850750446E0
3.838355220E0,-6.218647003E0,-3.907180309E0,5.869893074E0
3.840821991E0,-6.252146244E0,-3.928715706E0,5.889035702E0
3.843288814E0,-6.199205399E0,-3.923929930E0,5.805286884E0
3.845755585E0,-6.252146244E0,-3.890430450E0,5.786144257E0
3.848222356E0,-6.254539490E0,-3.888037682E0,5.838786125E0
3.850689127E0,-6.256932259E0,-3.868895054E0,5.862714767E0
3.853161835E0,-6.215955257E0,-3.864109516E0,5.838786125E0
3.855628762E0,-6.215955257E0,-3.854538202E0,5.845964909E0
3.858095689E0,-6.249753475E0,-3.808775425E0,5.781358719E0
3.860562616E0,-6.184848309E0,-3.787240028E0,5.834000587E0
3.863029543E0,-6.160920143E0,-3.760919094E0,5.898606777E0
3.865496470E0,-6.201598167E0,-3.753740549E0,5.934499264E0
3.867963450E0,-6.208776474E0,-3.686741590E0,5.968297958E0
3.870430377E0,-6.192026615E0,-3.756133318E0,6.008975983E0
3.872892252E0,-6.096313953E0,-3.746562004E0,6.075974941E0
3.875359075E0,-6.067600250E0,-3.715455294E0,6.099903107E0
3.877825845E0,-6.077171326E0,-3.715455294E0,6.092724800E0
3.880292668E0,-6.043671608E0,-3.713062525E0,6.147759438E0
3.882759439E0,-5.967101574E0,-3.748954773E0,6.123831272E0
3.885226262E0,-5.969494343E0,-3.744169235E0,6.099903107E0
3.887693085E0,-5.974279881E0,-3.703491211E0,6.126224041E0
3.890159856E0,-5.923731327E0,-3.689134359E0,6.061617851E0
3.892628918E0,-5.897410393E0,-3.648456335E0,6.075974941E0
3.895095793E0,-5.916553020E0,-3.574278831E0,6.085546017E0
3.897562616E0,-5.911767483E0,-3.542873144E0,6.090332031E0
3.900029491E0,-5.911767483E0,-3.540480137E0,6.085546017E0
3.902496366E0,-5.885446548E0,-3.518944740E0,6.030511379E0
3.904963241E0,-5.906981945E0,-3.547957659E0,6.032904148E0
3.907430064E0,-5.986244202E0,-3.521337509E0,5.961119175E0
3.909896939E0,-5.981458187E0,-3.540480137E0,5.980261803E0
3.912361262E0,-5.986244202E0,-3.557528973E0,5.973083496E0
3.914828033E0,-6.034100533E0,-3.567100286E0,5.889035702E0
3.917294856E0,-6.060421467E0,-3.591028690E0,5.900999546E0
3.919761627E0,-6.058028698E0,-3.600599766E0,5.860321522E0
3.922228450E0,-6.110671043E0,-3.581457376E0,5.812465191E0
3.924695220E0,-6.115456581E0,-3.667598963E0,5.862714767E0
3.927162043E0,-6.170491219E0,-3.667598963E0,5.893821239E0
3.929628814E0,-6.215955257E0,-3.614956856E0,5.824429512E0
3.932096366E0,-6.297610283E0,-3.521337509E0,5.661418438E0
3.934563189E0,-6.295217037E0,-3.492623806E0,5.572884083E0
3.937030012E0,-6.333502293E0,-3.514159203E0,5.556134224E0
3.939496783E0,-6.345466614E0,-3.545564890E0,5.525027275E0
3.941963606E0,-6.383751869E0,-3.511766434E0,5.453242779E0
3.944430429E0,-6.345466614E0,-3.516551971E0,5.366802216E0
3.946897252E0,-6.352644920E0,-3.533301830E0,5.333302498E0
3.949364075E0,-6.402894497E0,-3.530908823E0,5.261518002E0
3.951830272E0,-6.429215431E0,-3.518944740E0,5.244768143E0
3.954297043E0,-6.400501251E0,-3.523730516E0,5.218447208E0
3.956763866E0,-6.422036648E0,-3.574278831E0,5.127220631E0
3.959230689E0,-6.438786507E0,-3.511766434E0,5.105685234E0
3.961697460E0,-6.474678993E0,-3.492623806E0,5.110470772E0
3.964164283E0,-6.494120598E0,-3.552743435E0,5.161019325E0
3.966631054E0,-6.441179276E0,-3.595814228E0,5.136792183E0
3.969097877E0,-6.503692150E0,-3.588635683E0,5.132006168E0
3.971563814E0,-6.518048763E0,-3.579064369E0,5.180161953E0
3.974030585E0,-6.508477688E0,-3.586242914E0,5.177769184E0
3.976497356E0,-6.506084919E0,-3.574278831E0,5.177769184E0
3.978964127E0,-6.477071762E0,-3.576671600E0,5.208875656E0
3.981430897E0,-6.429215431E0,-3.571886063E0,5.232803822E0
3.983897668E0,-6.429215431E0,-3.576671600E0,5.225625515E0
3.986364491E0,-6.431608200E0,-3.598206997E0,5.192125797E0
3.988831262E0,-6.441179276E0,-3.569493294E0,5.134399414E0
3.991298502E0,-6.383751869E0,-3.547957659E0,5.091328144E0
3.993765272E0,-6.357430458E0,-3.602992773E0,5.156233788E0
3.996232095E0,-6.340681076E0,-3.588635683E0,5.170590401E0
3.998698866E0,-6.359823704E0,-3.571886063E0,5.057828903E0
4.001165637E0,-6.328716755E0,-3.516551971E0,5.100899696E0
4.003632460E0,-6.307181358E0,-3.523730516E0,5.057828903E0
4.006099231E0,-6.326323986E0,-3.550350666E0,5.033900738E0
4.008566002E0,-6.362216473E0,-3.530908823E0,4.995615482E0
4.011031835E0,-6.376573086E0,-3.583850145E0,4.952544689E0
4.013498606E0,-6.314359665E0,-3.567100286E0,5.009972572E0
4.015965377E0,-6.280860424E0,-3.569493294E0,4.983651161E0
4.018432095E0,-6.338288307E0,-3.528516054E0,4.926223755E0
4.020898866E0,-6.352644920E0,-3.523730516E0,4.962115765E0
4.023365637E0,-6.364609241E0,-3.518944740E0,4.933402061E0
4.025832408E0,-6.369394779E0,-3.521337509E0,4.931009293E0
4.028299179E0,-6.359823704E0,-3.492623806E0,4.952544689E0
4.030767877E0,-6.350252151E0,-3.550350666E0,4.909473896E0
4.033234700E0,-6.333502293E0,-3.521337509E0,4.883152962E0
4.035701522E0,-6.359823704E0,-3.487838030E0,4.919044971E0
4.038168293E0,-6.367002010E0,-3.514159203E0,4.954937458E0
4.040635116E0,-6.364609241E0,-3.478266716E0,4.945366383E0
4.043101939E0,-6.386144638E0,-3.502195120E0,4.998008251E0
4.045568762E0,-6.398108482E0,-3.502195120E0,5.048257351E0
4.048035585E0,-6.417251110E0,-3.497409344E0,5.048257351E0
4.050502095E0,-6.383751869E0,-3.423231840E0,5.069792747E0
4.052968918E0,-6.381359100E0,-3.447160006E0,5.124827862E0
4.055435689E0,-6.410072803E0,-3.447160006E0,5.184947491E0
4.057902512E0,-6.434000969E0,-3.442374468E0,5.218447208E0
4.060369335E0,-6.417251110E0,-3.451945782E0,5.285446167E0
4.062836106E0,-6.419643879E0,-3.483052492E0,5.335695267E0
4.065302929E0,-6.359823704E0,-3.499802113E0,5.443671703E0
4.067769752E0,-6.376573086E0,-3.506980658E0,5.469992638E0
4.070236522E0,-6.343073845E0,-3.483052492E0,5.532206059E0
4.072703345E0,-6.343073845E0,-3.485445261E0,5.580062389E0
4.075170116E0,-6.367002010E0,-3.509373426E0,5.625525951E0
4.077636939E0,-6.412465572E0,-3.526123285E0,5.668596745E0
4.080103762E0,-6.405287266E0,-3.509373426E0,5.675775528E0
4.082570533E0,-6.374180317E0,-3.571886063E0,5.697609901E0
4.085037356E0,-6.362216473E0,-3.581457376E0,5.651846886E0
4.087504179E0,-6.371787548E0,-3.612564087E0,5.726323605E0
4.089973450E0,-6.395715714E0,-3.669991732E0,5.726323605E0
4.092440325E0,-6.434000969E0,-3.646063566E0,5.690431118E0
4.094907200E0,-6.448358059E0,-3.619742393E0,5.692824364E0
4.097374075E0,-6.450750828E0,-3.677170277E0,5.673382282E0
4.099840950E0,-6.467500687E0,-3.693919897E0,5.688038349E0
4.102307772E0,-6.484250069E0,-3.696312666E0,5.642275810E0
4.104774647E0,-6.553941250E0,-3.696312666E0,5.577669621E0
4.107241522E0,-6.558726788E0,-3.705883980E0,5.563312531E0
4.109707616E0,-6.573083878E0,-3.710669756E0,5.484349728E0
4.112174491E0,-6.594619274E0,-3.734597921E0,5.436492920E0
4.114641314E0,-6.604190350E0,-3.727419376E0,5.448457241E0
4.117108189E0,-6.604190350E0,-3.727419376E0,5.414957523E0
4.119575012E0,-6.635297298E0,-3.753740549E0,5.330909729E0
4.122041835E0,-6.695117950E0,-3.725026608E0,5.369194984E0
4.124508710E0,-6.678368092E0,-3.748954773E0,5.306981564E0
4.126975533E0,-6.695117950E0,-3.794418573E0,5.283053398E0
4.129439127E0,-6.673582554E0,-3.801596880E0,5.285446167E0
4.131905897E0,-6.642475605E0,-3.799204111E0,5.223232746E0
4.134372668E0,-6.675975323E0,-3.840181351E0,5.189733028E0
4.136839439E0,-6.661618233E0,-3.852145433E0,5.211268425E0
4.139306158E0,-6.628118515E0,-3.840181351E0,5.237589836E0
4.141772929E0,-6.623332977E0,-3.852145433E0,5.261518002E0
4.144239700E0,-6.613761902E0,-3.878466368E0,5.285446167E0
4.146706470E0,-6.573083878E0,-3.859323740E0,5.256732464E0
4.149176054E0,-6.558726788E0,-3.895216227E0,5.228018284E0
4.151642877E0,-6.549155712E0,-3.921537161E0,5.273481846E0
4.154109752E0,-6.489335060E0,-3.962215185E0,5.338088036E0
4.156576575E0,-6.498906136E0,-3.952643871E0,5.376373291E0
4.159043397E0,-6.441179276E0,-3.959822416E0,5.419743061E0
4.161510220E0,-6.405287266E0,-3.964607954E0,5.412265778E0
4.163977095E0,-6.350252151E0,-3.964607954E0,5.405087471E0
4.166443918E0,-6.295217037E0,-3.993321896E0,5.441278458E0
4.168910741E0,-6.268896103E0,-3.988536358E0,5.489135265E0
4.171377564E0,-6.259325027E0,-4.036392689E0,5.503491879E0
4.173844439E0,-6.252146244E0,-4.005286217E0,5.486742496E0
4.176311262E0,-6.208776474E0,-4.024428368E0,5.489135265E0
4.178778085E0,-6.199205399E0,-3.983750582E0,5.520241737E0
4.181244908E0,-6.230610847E0,-3.969393730E0,5.498706341E0
4.183711783E0,-6.240182400E0,-3.938287020E0,5.565705299E0
4.186178606E0,-6.192026615E0,-3.971786499E0,5.587240696E0
4.188645637E0,-6.199205399E0,-3.974179268E0,5.663811207E0
4.191112460E0,-6.172883987E0,-3.957429647E0,5.584847927E0
4.193579335E0,-6.170491219E0,-4.000500202E0,5.632704735E0
4.196046158E0,-6.194419384E0,-4.024428368E0,5.661418438E0
4.198512981E0,-6.156134605E0,-4.043570995E0,5.654240131E0
4.200979856E0,-6.180062771E0,-4.065106392E0,5.668596745E0
4.203446679E0,-6.208776474E0,-4.055535316E0,5.688038349E0
4.205913554E0,-6.201598167E0,-4.089334011E0,5.639883041E0
4.208376731E0,-6.261717796E0,-4.106083870E0,5.651846886E0
4.210843450E0,-6.264110565E0,-4.091726780E0,5.692824364E0
4.213310220E0,-6.331109524E0,-4.031607151E0,5.697609901E0
4.215776991E0,-6.326323986E0,-4.074677944E0,5.675775528E0
4.218243710E0,-6.323931217E0,-4.077070713E0,5.692824364E0
4.220710481E0,-6.355037689E0,-4.072285175E0,5.704788208E0
4.223177200E0,-6.422036648E0,-4.106083870E0,5.697609901E0
4.225643970E0,-6.422036648E0,-4.110869408E0,5.709573746E0
4.228116054E0,-6.445965290E0,-4.177868366E0,5.752644539E0
4.230582929E0,-6.522834301E0,-4.125226021E0,5.690431118E0
4.233049804E0,-6.534798622E0,-4.038785458E0,5.697609901E0
4.235516731E0,-6.549155712E0,-4.096512318E0,5.788537025E0
4.237983606E0,-6.556334019E0,-4.120440483E0,5.778965950E0
4.240450481E0,-6.498906136E0,-4.170690060E0,5.826822281E0
4.242917356E0,-6.465107918E0,-4.158725739E0,5.848357677E0
4.245384231E0,-6.422036648E0,-4.170690060E0,5.893821239E0
4.247847252E0,-6.381359100E0,-4.168296814E0,5.929713726E0
4.250314022E0,-6.367002010E0,-4.168296814E0,5.939284801E0
4.252780793E0,-6.343073845E0,-4.139583111E0,5.975476265E0
4.255247616E0,-6.311966896E0,-4.122833252E0,6.042475224E0
4.257714387E0,-6.196812630E0,-4.137190342E0,6.047261238E0
4.260181158E0,-6.215955257E0,-4.122833252E0,6.059225082E0
4.262647981E0,-6.134599209E0,-4.108476639E0,6.073582172E0
4.265114752E0,-6.041278839E0,-4.106083870E0,6.147759438E0
4.267583137E0,-5.995815277E0,-4.067499161E0,6.164509296E0
4.270049960E0,-5.928517342E0,-4.050749779E0,6.176473618E0
4.272516783E0,-5.873482227E0,-4.086941242E0,6.202794552E0
4.274983606E0,-5.839982986E0,-4.067499161E0,6.212365627E0
4.277450429E0,-5.842375755E0,-4.115654945E0,6.162116528E0
4.279917252E0,-5.820840359E0,-4.041178226E0,6.169294834E0
4.282384075E0,-5.804090500E0,-4.057928085E0,6.176473618E0
4.284850897E0,-5.792126179E0,-4.094119549E0,6.205187321E0
4.287317668E0,-5.784947872E0,-4.110869408E0,6.279664040E0
4.289784491E0,-5.768198013E0,-4.103690624E0,6.301199436E0
4.292251314E0,-5.784947872E0,-4.067499161E0,6.258128643E0
4.294718137E0,-5.784947872E0,-4.091726780E0,6.317949295E0
4.297184960E0,-5.768198013E0,-4.113262177E0,6.351448536E0
4.299651783E0,-5.880660534E0,-4.033999920E0,6.296413898E0
4.302118606E0,-5.899803162E0,-4.014857292E0,6.222236156E0
4.304585429E0,-5.895017624E0,-3.988536358E0,6.320342064E0
4.307055325E0,-5.890232086E0,-3.995714664E0,6.344270229E0
4.309522252E0,-5.923731327E0,-4.007678986E0,6.320342064E0
4.311989127E0,-5.897410393E0,-3.943072557E0,6.361020088E0
4.314456054E0,-5.945266724E0,-3.971786499E0,6.356234074E0
4.316922929E0,-5.959922791E0,-3.964607954E0,6.356234074E0
4.319389856E0,-5.971887112E0,-3.943072557E0,6.389733791E0
4.321856731E0,-5.947659969E0,-3.919144392E0,6.322734833E0
4.324323658E0,-5.942873955E0,-3.921537161E0,6.315556049E0
4.326786158E0,-5.940481186E0,-3.940679789E0,6.265306950E0
4.329252929E0,-5.950351715E0,-3.871287823E0,6.289235115E0
4.331719752E0,-5.897410393E0,-3.909573078E0,6.217450619E0
4.334186522E0,-5.866303921E0,-3.923929930E0,6.181259155E0
4.336653293E0,-5.880660534E0,-3.919144392E0,6.109474182E0
4.339120116E0,-5.849554062E0,-3.900001764E0,6.097510338E0
4.341586887E0,-5.799304962E0,-3.945465326E0,6.083153248E0
4.344053710E0,-5.772983551E0,-3.928715706E0,6.028118610E0
4.346520481E0,-5.820840359E0,-4.017250061E0,5.977869034E0
4.348987252E0,-5.741877079E0,-3.981357813E0,5.934499264E0
4.351454075E0,-5.722734451E0,-3.964607954E0,5.941677570E0
4.353920845E0,-5.715556145E0,-3.943072557E0,5.896214008E0
4.356387616E0,-5.698806286E0,-4.017250061E0,5.862714767E0
4.358854439E0,-5.705984592E0,-3.957429647E0,5.776573181E0
4.361321210E0,-5.705984592E0,-3.931108475E0,5.709573746E0
4.363788033E0,-5.713163376E0,-3.967000723E0,5.776573181E0
4.366255585E0,-5.763412476E0,-3.926322937E0,5.683252811E0
4.368722408E0,-5.765805244E0,-3.904787540E0,5.670989513E0
4.371189179E0,-5.770590782E0,-3.947858334E0,5.649454117E0
4.373656002E0,-5.784947872E0,-3.904787540E0,5.587240696E0
4.376122825E0,-5.784947872E0,-3.959822416E0,5.596812248E0
4.378589647E0,-5.751448154E0,-3.907180309E0,5.572884083E0
4.381056418E0,-5.796912193E0,-3.921537161E0,5.515456200E0
4.383523241E0,-5.787340641E0,-3.861716747E0,5.489135265E0
4.385990637E0,-5.772983551E0,-3.883252144E0,5.453242779E0
4.388457460E0,-5.753840923E0,-3.873680830E0,5.385944843E0
4.390924283E0,-5.717948914E0,-3.849752426E0,5.409873009E0
4.393391106E0,-5.782555103E0,-3.883252144E0,5.371587753E0
4.395857929E0,-5.689234734E0,-3.876073599E0,5.295017242E0
4.398324752E0,-5.682056427E0,-3.933501244E0,5.309374332E0
4.400791575E0,-5.703591824E0,-3.835395575E0,5.280660629E0
4.403258397E0,-5.669793129E0,-3.852145433E0,5.263910770E0
4.405724439E0,-5.667400360E0,-3.892823458E0,5.235197067E0
4.408190481E0,-5.734698772E0,-3.864109516E0,5.163412094E0
4.410656522E0,-5.749055386E0,-3.849752426E0,5.196911812E0
4.413122564E0,-5.732305527E0,-3.849752426E0,5.165804863E0
4.415588606E0,-5.792126179E0,-3.856930971E0,5.141577721E0
4.418054647E0,-5.806483269E0,-3.921537161E0,5.124827862E0
4.420520689E0,-5.808876038E0,-3.911965847E0,5.081757069E0
4.422986731E0,-5.859125137E0,-3.931108475E0,5.105685234E0
4.425457147E0,-5.854339600E0,-3.914358854E0,5.084149837E0
4.427924022E0,-5.921338558E0,-3.888037682E0,5.060221672E0
4.430390897E0,-5.983851433E0,-3.854538202E0,5.065007210E0
4.432857825E0,-6.048457623E0,-3.911965847E0,5.048257351E0
4.435324700E0,-6.093921185E0,-3.878466368E0,5.045864582E0
4.437791575E0,-6.120242119E0,-3.871287823E0,5.067399979E0
4.440258450E0,-6.203990936E0,-3.880859137E0,4.998008251E0
4.442725325E0,-6.264110565E0,-3.888037682E0,4.998008251E0
4.445193970E0,-6.242575169E0,-3.852145433E0,5.029115200E0
4.447660897E0,-6.304788589E0,-3.943072557E0,5.026721954E0
4.450127825E0,-6.352644920E0,-3.895216227E0,4.993222713E0
4.452594752E0,-6.388537407E0,-3.923929930E0,5.031507969E0
4.455061679E0,-6.398108482E0,-3.974179268E0,5.072185993E0
4.457528606E0,-6.422036648E0,-3.971786499E0,5.055436134E0
4.459995533E0,-6.431608200E0,-3.935894251E0,5.036293507E0
4.462462460E0,-6.438786507E0,-3.950251102E0,4.993222713E0
4.464925116E0,-6.489335060E0,-3.919144392E0,5.002793789E0
4.467391939E0,-6.491727829E0,-3.935894251E0,5.026721954E0
4.469858762E0,-6.462714672E0,-3.931108475E0,5.014758110E0
4.472325585E0,-6.469893456E0,-3.981357813E0,4.990829945E0
4.474792408E0,-6.467500687E0,-3.967000723E0,5.060221672E0
4.477259231E0,-6.448358059E0,-3.995714664E0,5.084149837E0
4.479726054E0,-6.426822662E0,-4.024428368E0,5.060221672E0
4.482192877E0,-6.474678993E0,-4.041178226E0,4.993222713E0
4.484661731E0,-6.530013084E0,-3.967000723E0,4.851747036E0
4.487128606E0,-6.546762943E0,-3.938287020E0,4.846961498E0
4.489595481E0,-6.592226505E0,-3.950251102E0,4.899902344E0
4.492062356E0,-6.551548481E0,-3.969393730E0,4.954937458E0
4.494529231E0,-6.592226505E0,-3.993321896E0,4.942973614E0
4.496996106E0,-6.644868374E0,-3.916751623E0,4.904688358E0
4.499462981E0,-6.644868374E0,-3.916751623E0,4.957330227E0
4.501929856E0,-6.683153629E0,-3.938287020E0,4.983651161E0
4.504396679E0,-6.711867332E0,-3.950251102E0,4.998008251E0
4.506863554E0,-6.704689026E0,-3.909573078E0,4.971687317E0
4.509330429E0,-6.716653347E0,-3.938287020E0,4.976472855E0
4.511797304E0,-6.764808655E0,-3.981357813E0,4.986044407E0
4.514264179E0,-6.728617191E0,-3.952643871E0,4.983651161E0
4.516731054E0,-6.735795975E0,-3.938287020E0,5.055436134E0
4.519197929E0,-6.742974281E0,-3.955036640E0,5.103292465E0
4.521664804E0,-6.711867332E0,-3.928715706E0,5.079364300E0
4.524130168E0,-6.742974281E0,-3.921537161E0,5.129613400E0
4.526596991E0,-6.707081795E0,-3.902394533E0,5.146662235E0
4.529063814E0,-6.678368092E0,-3.900001764E0,5.201697350E0
4.531530689E0,-6.709474564E0,-3.871287823E0,5.237589836E0
4.533997512E0,-6.687939167E0,-3.871287823E0,5.306981564E0
4.536464335E0,-6.692724705E0,-3.852145433E0,5.285446167E0
4.538931158E0,-6.623332977E0,-3.842574120E0,5.314159870E0
4.541397981E0,-6.654439926E0,-3.861716747E0,5.395515919E0
4.543863189E0,-6.570691109E0,-3.923929930E0,5.453242779E0
4.546329960E0,-6.515655994E0,-3.947858334E0,5.465207100E0
4.548796783E0,-6.506084919E0,-3.967000723E0,5.455635548E0
4.551263554E0,-6.506084919E0,-3.923929930E0,5.508277893E0
4.553730377E0,-6.465107918E0,-3.935894251E0,5.532206059E0
4.556197147E0,-6.441179276E0,-3.914358854E0,5.565705299E0
4.558663918E0,-6.438786507E0,-3.940679789E0,5.560919762E0
4.561130741E0,-6.438786507E0,-3.945465326E0,5.575276852E0
4.563599960E0,-6.398108482E0,-3.907180309E0,5.580062389E0
4.566066835E0,-6.388537407E0,-3.885644913E0,5.558526993E0
4.568533658E0,-6.357430458E0,-3.911965847E0,5.589633465E0
4.571000533E0,-6.314359665E0,-3.897608995E0,5.570491314E0
4.573467356E0,-6.300003052E0,-3.904787540E0,5.565705299E0
4.575934231E0,-6.309574127E0,-3.940679789E0,5.594419479E0
4.578401106E0,-6.302395821E0,-3.935894251E0,5.572884083E0
4.580867929E0,-6.256932259E0,-3.911965847E0,5.546562672E0
4.583320325E0,-6.273681641E0,-3.914358854E0,5.525027275E0
4.585786835E0,-6.268896103E0,-3.914358854E0,5.522634506E0
4.588253293E0,-6.249753475E0,-3.885644913E0,5.539384365E0
4.590719804E0,-6.192026615E0,-3.895216227E0,5.577669621E0
4.593186314E0,-6.240182400E0,-3.890430450E0,5.515456200E0
4.595652772E0,-6.240182400E0,-3.923929930E0,5.477170944E0
4.598119283E0,-6.192026615E0,-3.940679789E0,5.541777134E0
4.600585793E0,-6.201598167E0,-3.885644913E0,5.532206059E0
4.603052095E0,-6.201598167E0,-3.923929930E0,5.532206059E0
4.605518606E0,-6.182455540E0,-3.928715706E0,5.541777134E0
4.607985064E0,-6.180062771E0,-3.950251102E0,5.508277893E0
4.610451575E0,-6.208776474E0,-3.971786499E0,5.527420521E0
4.612918033E0,-6.206383705E0,-3.964607954E0,5.489135265E0
4.615384543E0,-6.213562012E0,-3.959822416E0,5.481956482E0
4.617851002E0,-6.189633846E0,-3.952643871E0,5.441278458E0
4.620317512E0,-6.230610847E0,-3.969393730E0,5.465207100E0
4.622789804E0,-6.158527374E0,-3.950251102E0,5.453242779E0
4.625256470E0,-6.180062771E0,-3.969393730E0,5.417350292E0
4.627723085E0,-6.244967937E0,-3.993321896E0,5.385944843E0
4.630189700E0,-6.244967937E0,-4.045963764E0,5.419743061E0
4.632656366E0,-6.187241077E0,-4.017250061E0,5.407480240E0
4.635122981E0,-6.184848309E0,-4.038785458E0,5.364409447E0
4.637589647E0,-6.266503334E0,-4.007678986E0,5.321338654E0
4.640056262E0,-6.304788589E0,-4.060320854E0,5.352445126E0
4.642523814E0,-6.290431499E0,-4.067499161E0,5.359623432E0
4.644990481E0,-6.276074886E0,-4.036392689E0,5.316552639E0
4.647457147E0,-6.297610283E0,-4.043570995E0,5.352445126E0
4.649923814E0,-6.278467655E0,-4.094119549E0,5.326124191E0
4.652390481E0,-6.254539490E0,-4.060320854E0,5.369194984E0
4.654857147E0,-6.273681641E0,-4.082155228E0,5.397908688E0
4.657323762E0,-6.276074886E0,-4.096512318E0,5.369194984E0
4.659790429E0,-6.278467655E0,-4.091726780E0,5.321338654E0
4.662256679E0,-6.292824268E0,-4.146761417E0,5.378766060E0
4.664723345E0,-6.266503334E0,-4.137190342E0,5.381158829E0
4.667190012E0,-6.304788589E0,-4.072285175E0,5.350052357E0
4.669656627E0,-6.338288307E0,-4.125226021E0,5.362016678E0
4.672123293E0,-6.345466614E0,-4.127619267E0,5.333302498E0
4.674589960E0,-6.367002010E0,-4.153940201E0,5.359623432E0
4.677056575E0,-6.393322945E0,-4.139583111E0,5.402694225E0
4.679523241E0,-6.402894497E0,-4.139583111E0,5.441278458E0
4.682005429E0,-6.412465572E0,-4.168296814E0,5.469992638E0
4.684472460E0,-6.467500687E0,-4.134797573E0,5.422136307E0
4.686939491E0,-6.479464531E0,-4.127619267E0,5.472385406E0
4.689406522E0,-6.462714672E0,-4.170690060E0,5.486742496E0
4.691873554E0,-6.460321903E0,-4.153940201E0,5.527420521E0
4.694340585E0,-6.457929134E0,-4.192225456E0,5.525027275E0
4.696807616E0,-6.515655994E0,-4.187439442E0,5.491528034E0
4.699274647E0,-6.491727829E0,-4.194618225E0,5.503491879E0
4.701744075E0,-6.575476646E0,-4.189832687E0,5.515456200E0
4.704211158E0,-6.573083878E0,-4.201796532E0,5.515456200E0
4.706678241E0,-6.561119556E0,-4.187439442E0,5.529813290E0
4.709145377E0,-6.573083878E0,-4.189832687E0,5.534598827E0
4.711612408E0,-6.587440968E0,-4.223331928E0,5.558526993E0
4.714079543E0,-6.558726788E0,-4.175475597E0,5.577669621E0
4.716546627E0,-6.597012043E0,-4.177868366E0,5.560919762E0
4.719013710E0,-6.620940208E0,-4.173082829E0,5.560919762E0
4.721474856E0,-6.604190350E0,-4.156332970E0,5.563312531E0
4.723941835E0,-6.611369133E0,-4.216153622E0,5.596812248E0
4.726408762E0,-6.601797581E0,-4.185046673E0,5.572884083E0
4.728875741E0,-6.613761902E0,-4.161118507E0,5.577669621E0
4.731342668E0,-6.628118515E0,-4.137190342E0,5.642275810E0
4.733809595E0,-6.597012043E0,-4.144368649E0,5.632704735E0
4.736276575E0,-6.534798622E0,-4.170690060E0,5.627918720E0
4.738743502E0,-6.518048763E0,-4.175475597E0,5.601597786E0
4.741211939E0,-6.525227547E0,-4.211368084E0,5.568098068E0
4.743678970E0,-6.544369698E0,-4.194618225E0,5.553741455E0
4.746145950E0,-6.486942291E0,-4.182653904E0,5.601597786E0
4.748612929E0,-6.494120598E0,-4.144368649E0,5.565705299E0
4.751079908E0,-6.498906136E0,-4.130012035E0,5.529813290E0
4.753546887E0,-6.481857300E0,-4.139583111E0,5.520241737E0
4.756013866E0,-6.434000969E0,-4.139583111E0,5.477170944E0
4.758480845E0,-6.460321903E0,-4.137190342E0,5.458028316E0
4.760942460E0,-6.445965290E0,-4.113262177E0,5.446064472E0
4.763409335E0,-6.438786507E0,-4.089334011E0,5.484349728E0
4.765876158E0,-6.414858341E0,-4.106083870E0,5.397908688E0
4.768343033E0,-6.405287266E0,-4.098905087E0,5.366802216E0
4.770809856E0,-6.407680035E0,-4.108476639E0,5.306981564E0
4.773276731E0,-6.309574127E0,-4.120440483E0,5.330909729E0
4.775743554E0,-6.316752911E0,-4.132404804E0,5.314159870E0
4.778210429E0,-6.359823704E0,-4.153940201E0,5.194519043E0
4.780679439E0,-6.357430458E0,-4.194618225E0,5.122435093E0
4.783146366E0,-6.300003052E0,-4.256831646E0,5.143970490E0
4.785613241E0,-6.264110565E0,-4.264009953E0,5.213661671E0
4.788080168E0,-6.244967937E0,-4.280759811E0,5.156233788E0
4.790547095E0,-6.295217037E0,-4.256831646E0,5.088935375E0
4.793013970E0,-6.300003052E0,-4.247260094E0,5.029115200E0
4.795480897E0,-6.292824268E0,-4.242474556E0,4.962115765E0
4.797947772E0,-6.285645962E0,-4.259224415E0,4.909473896E0
4.800413970E0,-6.235396862E0,-4.304687977E0,4.990829945E0
4.802880845E0,-6.240182400E0,-4.290330887E0,4.926223755E0
4.805347772E0,-6.242575169E0,-4.299902439E0,4.846961498E0
4.807814647E0,-6.242575169E0,-4.326223373E0,4.830211639E0
4.810281522E0,-6.266503334E0,-4.275974274E0,4.775176525E0
4.812748397E0,-6.247360706E0,-4.316651821E0,4.729712963E0
4.815215325E0,-6.292824268E0,-4.340580463E0,4.638785839E0
4.817682200E0,-6.323931217E0,-4.316651821E0,4.600201607E0
4.820151470E0,-6.352644920E0,-4.290330887E0,4.588237286E0
4.822618450E0,-6.350252151E0,-4.273581028E0,4.581058979E0
4.825085377E0,-6.357430458E0,-4.242474556E0,4.564309120E0
4.827552356E0,-6.367002010E0,-4.228117466E0,4.607379913E0
4.830019283E0,-6.386144638E0,-4.268795490E0,4.573880672E0
4.832486210E0,-6.364609241E0,-4.235296249E0,4.509274483E0
4.834953189E0,-6.333502293E0,-4.252045631E0,4.518845558E0
4.837420116E0,-6.381359100E0,-4.264009953E0,4.530809879E0
4.839883397E0,-6.333502293E0,-4.275974274E0,4.470989227E0
4.842350272E0,-6.350252151E0,-4.273581028E0,4.494917393E0
4.844817095E0,-6.347859383E0,-4.309473515E0,4.499702930E0
4.847283970E0,-6.328716755E0,-4.342973232E0,4.518845558E0
4.849750845E0,-6.333502293E0,-4.278367043E0,4.518845558E0
4.852217668E0,-6.314359665E0,-4.319045067E0,4.516452789E0
4.854684543E0,-6.364609241E0,-4.328616142E0,4.559523582E0
4.857151366E0,-6.369394779E0,-4.295116425E0,4.564309120E0
4.859600897E0,-6.340681076E0,-4.311866283E0,4.559523582E0
4.862067304E0,-6.362216473E0,-4.259224415E0,4.533202648E0
4.864533710E0,-6.376573086E0,-4.235296249E0,4.549952030E0
4.867000168E0,-6.359823704E0,-4.266402721E0,4.573880672E0
4.869466575E0,-6.395715714E0,-4.168296814E0,4.571487427E0
4.871932981E0,-6.419643879E0,-4.244867325E0,4.545166492E0
4.874399387E0,-6.371787548E0,-4.218546391E0,4.564309120E0
4.876865845E0,-6.381359100E0,-4.235296249E0,4.569094658E0
4.879329075E0,-6.434000969E0,-4.208974838E0,4.569094658E0
4.881795377E0,-6.431608200E0,-4.240081787E0,4.542773724E0
4.884261731E0,-6.443572044E0,-4.278367043E0,4.545166492E0
4.886728085E0,-6.410072803E0,-4.292723656E0,4.576273441E0
4.889194439E0,-6.441179276E0,-4.321437836E0,4.595416069E0
4.891660741E0,-6.477071762E0,-4.333401680E0,4.638785839E0
4.894127095E0,-6.486942291E0,-4.307080746E0,4.588237286E0
4.896593450E0,-6.477071762E0,-4.314259052E0,4.593023300E0
4.899086887E0,-6.481857300E0,-4.371985912E0,4.631607533E0
4.901553866E0,-6.453143597E0,-4.338187218E0,4.669892311E0
4.904020897E0,-6.479464531E0,-4.321437836E0,4.674678326E0
4.906487929E0,-6.486942291E0,-4.360022068E0,4.693820953E0
4.908954960E0,-6.503692150E0,-4.374378681E0,4.712963104E0
4.911421991E0,-6.532405853E0,-4.338187218E0,4.677071095E0
4.913888970E0,-6.525227547E0,-4.333401680E0,4.643571377E0
4.916356002E0,-6.539584160E0,-4.374378681E0,4.648356915E0
4.918821887E0,-6.496513367E0,-4.340580463E0,4.672285080E0
4.921288866E0,-6.551548481E0,-4.348057747E0,4.617250443E0
4.923755845E0,-6.508477688E0,-4.381557465E0,4.612464905E0
4.926222825E0,-6.520441532E0,-4.386343002E0,4.629214287E0
4.928689804E0,-6.553941250E0,-4.438984871E0,4.662714005E0
4.931156835E0,-6.508477688E0,-4.455734730E0,4.653142929E0
4.933623814E0,-6.498906136E0,-4.431806564E0,4.643571377E0
4.936090793E0,-6.457929134E0,-4.460520744E0,4.660321236E0
4.938553606E0,-6.462714672E0,-4.460520744E0,4.619643211E0
4.941020481E0,-6.436393738E0,-4.472484589E0,4.617250443E0
4.943487408E0,-6.417251110E0,-4.491627216E0,4.557130814E0
4.945954283E0,-6.455536366E0,-4.501198292E0,4.581058979E0
4.948421158E0,-6.445965290E0,-4.510769844E0,4.576273441E0
4.950888033E0,-6.489335060E0,-4.539483547E0,4.585844517E0
4.953354908E0,-6.472286224E0,-4.510769844E0,4.657928467E0
4.955821835E0,-6.460321903E0,-4.503591537E0,4.684249401E0
4.958288658E0,-6.453143597E0,-4.537090778E0,4.677071095E0
4.960755533E0,-6.513263226E0,-4.482056141E0,4.777569294E0
4.963222460E0,-6.448358059E0,-4.494019985E0,4.806283474E0
4.965689335E0,-6.462714672E0,-4.501198292E0,4.808676243E0
4.968156210E0,-6.431608200E0,-4.539483547E0,4.820640087E0
4.970623085E0,-6.486942291E0,-4.467699051E0,4.808676243E0
4.973089960E0,-6.489335060E0,-4.489234447E0,4.854139805E0
4.975556887E0,-6.503692150E0,-4.525126934E0,4.842175961E0
4.978022252E0,-6.570691109E0,-4.520340919E0,4.839782715E0
4.980489127E0,-6.541976929E0,-4.570590496E0,4.899902344E0
4.982955950E0,-6.474678993E0,-4.575376034E0,4.981258392E0
4.985422772E0,-6.457929134E0,-4.529912472E0,4.998008251E0
4.987889647E0,-6.448358059E0,-4.537090778E0,5.043471813E0
4.990356470E0,-6.460321903E0,-4.551447868E0,5.048257351E0
4.992823345E0,-6.457929134E0,-4.527519703E0,5.053043365E0
4.995290168E0,-6.443572044E0,-4.549055099E0,5.076971531E0
4.997759179E0,-6.414858341E0,-4.558626175E0,5.098506927E0
5.000226106E0,-6.381359100E0,-4.556233406E0,5.112864017E0
5.002692981E0,-6.414858341E0,-4.551447868E0,5.098506927E0
5.005159908E0,-6.400501251E0,-4.565804482E0,5.060221672E0
5.007626783E0,-6.316752911E0,-4.575376034E0,5.069792747E0
5.010093710E0,-6.292824268E0,-4.601696968E0,5.060221672E0
5.012560585E0,-6.295217037E0,-4.575376034E0,5.141577721E0
5.015027512E0,-6.264110565E0,-4.563411713E0,5.151448250E0
5.017491835E0,-6.230610847E0,-4.551447868E0,5.120042324E0
5.019958658E0,-6.230610847E0,-4.553840637E0,5.136792183E0
5.022425533E0,-6.261717796E0,-4.546662331E0,5.120042324E0
5.024892356E0,-6.235396862E0,-4.596911430E0,5.139184952E0
5.027359179E0,-6.242575169E0,-4.625924587E0,5.194519043E0
5.029826002E0,-6.240182400E0,-4.633102894E0,5.158626556E0
5.032292877E0,-6.228218079E0,-4.623531342E0,5.134399414E0
5.034759700E0,-6.290431499E0,-4.695316315E0,5.201697350E0
5.037227147E0,-6.311966896E0,-4.695316315E0,5.254339218E0
5.039694022E0,-6.283253193E0,-4.771886349E0,5.263910770E0
5.042160845E0,-6.314359665E0,-4.740779877E0,5.285446167E0
5.044627720E0,-6.333502293E0,-4.735994339E0,5.290231705E0
5.047094543E0,-6.374180317E0,-4.721637249E0,5.299803257E0
5.049561418E0,-6.386144638E0,-4.714458942E0,5.338088036E0
5.052028241E0,-6.436393738E0,-4.702494621E0,5.333302498E0
5.054495116E0,-6.424429893E0,-4.685744762E0,5.299803257E0
5.056962200E0,-6.460321903E0,-4.640281200E0,5.342874050E0
5.059429075E0,-6.455536366E0,-4.688137531E0,5.333302498E0
5.061895897E0,-6.481857300E0,-4.733601570E0,5.350052357E0
5.064362772E0,-6.518048763E0,-4.702494621E0,5.292624474E0
5.066829647E0,-6.530013084E0,-4.731208801E0,5.316552639E0
5.069296470E0,-6.553941250E0,-4.688137531E0,5.362016678E0
5.071763345E0,-6.506084919E0,-4.740779877E0,5.273481846E0
5.074230220E0,-6.515655994E0,-4.676173687E0,5.285446167E0
5.076696679E0,-6.556334019E0,-4.678566456E0,5.230411053E0
5.079163554E0,-6.532405853E0,-4.695316315E0,5.314159870E0
5.081630377E0,-6.518048763E0,-4.671388149E0,5.345266819E0
5.084097252E0,-6.489335060E0,-4.666602135E0,5.268696308E0
5.086564075E0,-6.503692150E0,-4.685744762E0,5.218447208E0
5.089030950E0,-6.455536366E0,-4.731208801E0,5.244768143E0
5.091497772E0,-6.419643879E0,-4.731208801E0,5.275874615E0
5.093964647E0,-6.431608200E0,-4.757529736E0,5.280660629E0
5.096433762E0,-6.393322945E0,-4.750350952E0,5.251946449E0
5.098900689E0,-6.441179276E0,-4.752744198E0,5.225625515E0
5.101367564E0,-6.388537407E0,-4.786243439E0,5.228018284E0
5.103834491E0,-6.429215431E0,-4.759922504E0,5.211268425E0
5.106301418E0,-6.376573086E0,-4.759922504E0,5.213661671E0
5.108768293E0,-6.376573086E0,-4.798207760E0,5.206482887E0
5.111235220E0,-6.441179276E0,-4.769493580E0,5.158626556E0
5.113702147E0,-6.431608200E0,-4.733601570E0,5.143970490E0
