"Time (s)","Acceleration x (m/s^2)","Acceleration y (m/s^2)","Acceleration z (m/s^2)"
1.209715500E-2,7.168298244E0,2.720639229E0,5.010570526E0
1.951194700E-2,6.162714481E0,2.490928411E0,5.810371399E0
2.198350900E-2,6.056832314E0,2.476571321E0,6.064609051E0
2.445512400E-2,5.846263885E0,2.419143677E0,6.251249313E0
2.692673800E-2,5.721837044E0,2.404786825E0,6.476174355E0
2.939835300E-2,5.611168861E0,2.414358139E0,6.735197544E0
3.186996800E-2,5.501099110E0,2.313859463E0,6.979265213E0
3.434158200E-2,5.424529076E0,2.294716835E0,7.290930748E0
3.681319700E-2,5.362315655E0,2.400001049E0,7.602595806E0
3.928481100E-2,5.271388054E0,2.438286304E0,7.923233986E0
4.175642600E-2,5.166104317E0,2.495713949E0,8.254041672E0
4.422804100E-2,5.123033047E0,2.586641312E0,8.536395073E0
4.669960300E-2,5.156532764E0,2.682354212E0,8.809774399E0
4.917121800E-2,5.065007210E0,2.730210543E0,9.125627518E0
5.164283200E-2,4.998008251E0,2.840878725E0,9.370293617E0
5.411444700E-2,4.864010334E0,2.888735056E0,9.595218658E0
5.658600900E-2,4.730011940E0,2.927020311E0,9.763314247E0
5.903689500E-2,4.615156651E0,2.917448997E0,9.859027863E0
6.150850900E-2,4.514060020E0,2.879163742E0,9.887741089E0
6.398012400E-2,4.447061062E0,2.860021353E0,9.897313118E0
6.645168600E-2,4.322634220E0,2.764308453E0,9.820742607E0
6.892330100E-2,4.269991875E0,2.711068153E0,9.753743172E0
7.139491600E-2,4.241278172E0,2.648854733E0,9.614361763E0
7.386653000E-2,4.236492634E0,2.711068153E0,9.432506561E0
7.633814500E-2,4.164707661E0,2.773879766E0,9.053842545E0
7.880975900E-2,4.341776848E0,2.730210543E0,8.900702477E0
8.128137400E-2,4.600799561E0,2.778665304E0,9.029914856E0
8.375298800E-2,4.816154003E0,2.907877684E0,8.919844627E0
8.622460300E-2,5.031507969E0,2.974876642E0,8.661419868E0
8.869616600E-2,5.242674351E0,3.041875839E0,8.431110382E0
9.116778000E-2,5.405386448E0,3.070589542E0,8.287541389E0
9.363939500E-2,5.467599869E0,3.061018467E0,8.090731621E0
9.611100900E-2,5.405386448E0,3.008376360E0,7.832306862E0
9.858262400E-2,5.347958565E0,2.984447956E0,7.467999458E0
1.010542380E-1,5.304887772E0,3.027518749E0,7.262216568E0
1.035258530E-1,5.266602516E0,3.056232691E0,7.094718933E0
1.059974680E-1,5.319244862E0,3.094517946E0,6.940980434E0
1.084690300E-1,5.328815937E0,3.156731367E0,6.840481758E0
1.109406450E-1,5.338387489E0,3.242872953E0,6.792625427E0
1.134122590E-1,5.443671703E0,3.238087177E0,6.806982040E0
1.158838740E-1,5.548955917E0,3.266801119E0,6.821339130E0
1.183554880E-1,5.650052547E0,3.271586657E0,6.902695179E0
1.208376760E-1,5.717051506E0,3.209373474E0,6.897909641E0
1.233092380E-1,5.764907837E0,3.195016384E0,6.926623344E0
1.257808530E-1,5.798407555E0,3.175873756E0,6.931408882E0
1.282524680E-1,5.788836002E0,3.118446112E0,6.883552551E0
1.307240820E-1,5.721837044E0,3.051447153E0,6.993622303E0
1.331956970E-1,5.640480995E0,2.984447956E0,7.142575741E0
1.356673110E-1,5.505885124E0,2.989233732E0,7.204789162E0
1.381388740E-1,5.414957523E0,2.974876642E0,7.324429989E0
1.406104880E-1,5.247459888E0,2.955734253E0,7.487142086E0
1.430821030E-1,5.146961689E0,2.950948477E0,7.588238716E0
1.455537180E-1,5.074578762E0,3.003590584E0,7.688737392E0
1.480253320E-1,4.998008251E0,3.051447153E0,7.770093441E0
1.504969470E-1,5.007579803E0,3.151945591E0,7.856235027E0
1.529685610E-1,5.012365341E0,3.166302681E0,7.961519241E0
1.554401760E-1,5.050650597E0,3.223730326E0,8.085946083E0
1.579117910E-1,5.045864582E0,3.257229805E0,8.057231903E0
1.604037180E-1,4.993222713E0,3.228515863E0,8.076375008E0
1.628752800E-1,4.969294548E0,3.266801119E0,8.134400368E0
1.653468950E-1,4.897509575E0,3.315255880E0,8.134400368E0
1.678185090E-1,4.730011940E0,3.320041418E0,8.105088234E0
1.702901240E-1,4.447061062E0,3.343969584E0,7.928019524E0
1.727617380E-1,4.470989227E0,3.391826153E0,7.808378696E0
1.752333530E-1,4.562514782E0,3.430111170E0,7.956733704E0
1.777049160E-1,4.672584534E0,3.454039574E0,8.115258217E0
1.801765300E-1,4.820939541E0,3.497110367E0,8.201399803E0
1.826481450E-1,4.940580368E0,3.506681681E0,8.158329010E0
1.851197590E-1,4.998008251E0,3.487539053E0,8.095517159E0
1.875913740E-1,5.017150879E0,3.477967739E0,8.076375008E0
1.900629880E-1,5.012365341E0,3.454039574E0,8.124829292E0
1.925346030E-1,4.954937458E0,3.358326674E0,8.134400368E0
1.950062180E-1,4.859224796E0,3.291327477E0,8.095517159E0
1.974778320E-1,4.744369030E0,3.209373474E0,8.052446365E0
1.999493950E-1,4.682155609E0,3.214159012E0,8.052446365E0
2.024210090E-1,4.610371113E0,3.123231649E0,8.105088234E0
2.048926240E-1,4.643870354E0,3.089732170E0,8.105088234E0
2.073642380E-1,4.706083775E0,3.061018467E0,8.182256699E0
2.098358530E-1,4.715655327E0,3.056232691E0,8.292326927E0
2.123074680E-1,4.797011375E0,3.056232691E0,8.359326363E0
2.147790820E-1,4.868795872E0,3.032304525E0,8.450253487E0
2.172506970E-1,4.892724037E0,3.003590584E0,8.541180611E0
2.197223110E-1,4.878366947E0,2.974876642E0,8.536395073E0
2.221938740E-1,4.878366947E0,2.960519791E0,8.574680328E0
2.246654880E-1,4.887938499E0,2.994019270E0,8.579465866E0
2.271371030E-1,4.844867706E0,2.927020311E0,8.565108299E0
2.296087180E-1,4.777868748E0,2.931805849E0,8.584251404E0
2.320803320E-1,4.816154003E0,2.917448997E0,8.531609535E0
2.345519470E-1,4.816154003E0,2.950948477E0,8.459824562E0
2.370235610E-1,4.816154003E0,2.936591625E0,8.373682976E0
2.394951760E-1,4.892724037E0,2.941377163E0,8.311469078E0
2.419667380E-1,4.926223755E0,2.970091105E0,8.258827209E0
2.444421030E-1,4.983651161E0,2.955734253E0,8.172685623E0
2.469136660E-1,5.079364300E0,2.955734253E0,8.066802979E0
2.493853320E-1,5.170889854E0,2.955734253E0,8.028517723E0
2.518568950E-1,5.223531723E0,2.998805046E0,7.899305820E0
2.543285090E-1,5.362315655E0,2.979662418E0,7.784450054E0
2.568001240E-1,5.434100151E0,2.941377163E0,7.750950813E0
2.592717380E-1,5.477170944E0,2.931805849E0,7.808378696E0
2.617433530E-1,5.582455158E0,2.927020311E0,7.808378696E0
2.642149680E-1,5.611168861E0,2.960519791E0,7.803592682E0
2.666865820E-1,5.654838085E0,2.965305567E0,7.880163193E0
2.691581970E-1,5.702694416E0,3.008376360E0,7.951947689E0
2.716297590E-1,5.779264927E0,3.061018467E0,8.023732185E0
2.741013740E-1,5.846263885E0,3.089732170E0,8.120043755E0
2.765729880E-1,5.884549141E0,3.108874798E0,8.287541389E0
2.790446030E-1,5.946762562E0,3.037090063E0,8.407182693E0
2.815024160E-1,5.903691769E0,2.879163742E0,8.431110382E0
2.839740820E-1,5.874977589E0,2.893520832E0,8.517251968E0
2.864456970E-1,5.951548100E0,2.855235577E0,8.737990379E0
2.889172590E-1,6.037689686E0,2.816950560E0,8.862417221E0
2.913888740E-1,6.075974941E0,2.773879766E0,8.938986778E0
2.938604880E-1,6.104688644E0,2.706282377E0,9.005986214E0
2.963321030E-1,6.052046776E0,2.591426849E0,8.910273552E0
2.988037180E-1,5.827121258E0,2.423929453E0,8.781061172E0
3.012752800E-1,5.563312531E0,2.280359983E0,8.632107735E0
3.037469470E-1,5.209175110E0,2.093121529E0,8.498109818E0
3.062185610E-1,5.031507969E0,1.930409670E0,8.407182693E0
3.086901760E-1,4.892724037E0,1.777269006E0,8.330612183E0
3.111617380E-1,4.797011375E0,1.681556106E0,8.148757935E0
3.136333530E-1,4.663012981E0,1.633101463E0,7.971090317E0
3.161049680E-1,4.581656933E0,1.681556106E0,7.803592682E0
3.185765820E-1,4.552943230E0,1.834696770E0,7.645666599E0
3.210481970E-1,4.600799561E0,1.939980984E0,7.448856831E0
3.235198110E-1,4.672584534E0,2.073979139E0,7.314858913E0
3.259914260E-1,4.691727161E0,2.246860504E0,7.257431030E0
3.284630410E-1,4.777868748E0,2.486142635E0,7.171289444E0
3.309346030E-1,4.859224796E0,2.658426046E0,7.133004189E0
3.334062180E-1,4.902295589E0,2.831307411E0,6.984051228E0
3.358778320E-1,4.773082733E0,2.941377163E0,6.859624386E0
3.383494470E-1,4.782654285E0,3.027518749E0,6.893123627E0
3.408121030E-1,4.706083775E0,3.041875839E0,6.926623344E0
3.432836660E-1,4.480560303E0,3.056232691E0,6.888338089E0
3.457552800E-1,4.518845558E0,3.195016384E0,6.988836765E0
3.482268950E-1,4.605585575E0,3.315255880E0,7.161718369E0
3.506985090E-1,4.797011375E0,3.382254839E0,7.300501823E0
3.531700720E-1,5.007579803E0,3.473181963E0,7.477570534E0
3.556417380E-1,5.170889854E0,3.535395384E0,7.558926582E0
3.581133010E-1,5.280959606E0,3.616751432E0,7.597810268E0
3.605849160E-1,5.424529076E0,3.683750391E0,7.583453178E0
3.630565300E-1,5.515456200E0,3.712464333E0,7.631309509E0
3.655281450E-1,5.592026711E0,3.683750391E0,7.602595806E0
3.679997590E-1,5.659623623E0,3.635894060E0,7.679165840E0
3.704713740E-1,5.736194134E0,3.597608805E0,7.765307903E0
3.729429880E-1,5.827121258E0,3.554538012E0,7.832306862E0
3.754146030E-1,5.922834396E0,3.425325632E0,7.985447407E0
3.778862180E-1,6.008975983E0,3.310470104E0,8.206185341E0
3.803854360E-1,5.951548100E0,3.180659533E0,8.416753769E0
3.828569990E-1,5.961119175E0,3.027518749E0,8.632107735E0
3.853286130E-1,5.894120216E0,2.860021353E0,8.924630165E0
3.878002280E-1,5.846263885E0,2.711068153E0,9.207581520E0
3.902718430E-1,5.793622017E0,2.581855536E0,9.590433121E0
3.927434570E-1,5.702694416E0,2.404786825E0,9.887741089E0
3.952150720E-1,5.654838085E0,2.390429735E0,1.036690426E1
3.976866340E-1,5.563312531E0,2.361716032E0,1.091785145E1
4.001582490E-1,5.438885689E0,2.304288149E0,1.153579807E1
4.026298630E-1,5.280959606E0,2.280359983E0,1.214895916E1
4.051014780E-1,5.094319344E0,2.184048891E0,1.256590843E1
4.075730930E-1,4.820939541E0,2.102692842E0,1.274776268E1
4.100447070E-1,4.567300320E0,2.160120726E0,1.288176060E1
4.125163220E-1,4.088137627E0,1.925624013E0,1.271904850E1
4.149879360E-1,3.848257065E0,2.054836512E0,1.272862053E1
4.174595510E-1,3.666402578E0,2.409572363E0,1.280040455E1
4.199311130E-1,3.416950703E0,2.653640270E0,1.286740398E1
4.224027280E-1,3.239881754E0,3.017947674E0,1.293021584E1
4.248743430E-1,3.072384357E0,3.324826956E0,1.296371460E1
4.273459570E-1,2.933002472E0,3.588037491E0,1.292542934E1
4.298175720E-1,2.813361168E0,3.741178274E0,1.288176060E1
4.322891860E-1,2.741576433E0,3.961916208E0,1.276690483E1
4.347608010E-1,2.688934565E0,4.110270977E0,1.258026505E1
4.372324160E-1,2.545365095E0,4.205984116E0,1.229252815E1
4.397040300E-1,2.435295343E0,4.205984116E0,1.193839073E1
4.421755930E-1,2.286342144E0,4.292125702E0,1.147358418E1
4.446139780E-1,2.118844509E0,4.253840446E0,1.090828037E1
4.470855930E-1,1.980060697E0,4.263411522E0,1.043868923E1
4.495572590E-1,1.788036704E0,4.239483356E0,1.001216793E1
4.520288220E-1,1.697109461E0,4.234697819E0,9.566504478E0
4.545004360E-1,1.639681697E0,4.220340729E0,9.120841980E0
4.569720510E-1,1.548754454E0,3.904488325E0,8.531609535E0
4.594436660E-1,1.476969719E0,4.019343853E0,8.172685623E0
4.619152800E-1,1.438684583E0,4.191627026E0,8.047660828E0
4.643868950E-1,1.390828133E0,4.272983074E0,7.884948730E0
4.668585090E-1,1.395613790E0,4.316053867E0,7.870592117E0
4.693301240E-1,1.357328653E0,4.339982033E0,7.966304779E0
4.718017380E-1,1.289731383E0,4.469792843E0,8.287541389E0
4.742733010E-1,1.064806104E0,4.546362877E0,8.579465866E0
4.767449160E-1,7.627122402E-1,4.417150497E0,8.608179092E0
4.792165300E-1,4.181457460E-1,4.330410957E0,8.431110382E0
4.816806450E-1,2.356930375E-1,4.143770695E0,8.210970879E0
4.841522590E-1,1.208375469E-1,3.981058598E0,7.999804497E0
4.866238740E-1,3.948157281E-2,3.847060680E0,7.597810268E0
4.890954880E-1,-3.589233849E-3,3.722035646E0,7.152146816E0
4.915671030E-1,4.426721856E-2,3.616751432E0,6.706483841E0
4.940387180E-1,8.255238086E-2,3.549752474E0,6.323033810E0
4.965103320E-1,1.974078715E-1,3.525824070E0,5.800800323E0
4.989818950E-1,3.415754437E-1,3.549752474E0,5.297709465E0
5.014535090E-1,4.803591371E-1,3.583251953E0,4.895116806E0
5.039251240E-1,6.909275651E-1,3.554538012E0,4.584050179E0
5.063967380E-1,1.021735311E0,3.511467218E0,4.411766529E0
5.088683530E-1,1.472184181E0,3.535395384E0,4.238885403E0
5.113399680E-1,1.889133453E0,3.592823267E0,4.128815651E0
5.138112700E-1,2.358126640E0,3.688536167E0,4.152743816E0
5.162828320E-1,2.736790895E0,3.731606960E0,4.028316975E0
5.187544470E-1,3.464807272E0,3.655036688E0,3.731008768E0
5.212673630E-1,4.289134502E0,3.602394581E0,3.338585854E0
5.237388740E-1,5.132604599E0,3.655036688E0,2.868994236E0
5.262104880E-1,5.932405472E0,3.698107481E0,2.337189436E0
5.286820510E-1,6.540780544E0,3.818346739E0,1.901097536E0
5.311536660E-1,6.885945320E0,4.052843571E0,1.685743570E0
5.336252280E-1,7.063014030E0,4.311268330E0,1.546361685E0
5.360967910E-1,7.010372162E0,4.584648132E0,1.551147223E0
5.385684050E-1,6.723233223E0,5.020740032E0,1.541576028E0
5.410399680E-1,6.354140759E0,5.423332691E0,1.646860242E0
5.435115820E-1,5.879763603E0,5.825326920E0,1.781456470E0
5.459831450E-1,5.333601475E0,6.170491219E0,1.901097536E0
5.484547590E-1,4.840082169E0,6.448058605E0,2.035095692E0
5.509263220E-1,4.313062668E0,6.654439926E0,2.216950178E0
5.533979360E-1,3.561118364E0,6.553941250E0,1.843669891E0
5.558694990E-1,3.134597778E0,6.568298340E0,1.843669891E0
5.583410610E-1,2.837289333E0,6.558726788E0,2.408974171E0
5.608153320E-1,2.583650351E0,6.534798622E0,2.614757061E0
5.632868430E-1,2.468794823E0,6.218348026E0,2.892922640E0
5.657584570E-1,2.310270309E0,5.930611134E0,3.223132133E0
5.682300200E-1,2.224128723E0,5.643472195E0,3.530011654E0
5.707016340E-1,2.157129526E0,5.403591633E0,3.889533281E0
5.731731970E-1,2.190629244E0,5.250451088E0,4.253242016E0
5.756447590E-1,2.276770830E0,5.202594757E0,4.741976261E0
5.781163740E-1,2.353341103E0,5.087738991E0,6.361319065E0
5.805879360E-1,2.372483730E0,4.958526611E0,9.379864693E0
5.830595510E-1,2.425724030E0,4.819144726E0,1.203410339E1
5.855311130E-1,2.578864574E0,4.901099205E0,1.085085201E1
5.880027280E-1,2.554936409E0,5.140381336E0,8.469395638E0
5.904742910E-1,2.295913219E0,5.629115105E0,7.664809227E0
5.929459050E-1,1.941775560E0,6.031707764E0,7.803592682E0
5.954174680E-1,1.534397483E0,6.304489613E0,8.143971443E0
5.978890300E-1,1.256231904E0,6.428916454E0,8.435895920E0
6.003589780E-1,1.179661512E0,6.467201233E0,8.541180611E0
6.028305410E-1,1.189232826E0,6.433701992E0,8.545966148E0
6.053021030E-1,1.184447169E0,6.361917019E0,8.368897438E0
6.077737180E-1,1.261017561E0,6.184848309E0,8.287541389E0
6.102452800E-1,1.429113269E0,5.925825119E0,8.273183823E0
6.127168950E-1,1.486541033E0,5.729613781E0,8.230113029E0
6.151884570E-1,1.529611826E0,5.538187981E0,8.249256134E0
6.176600200E-1,1.601396561E0,5.317450047E0,8.277970314E0
6.201316340E-1,1.634896040E0,5.140381336E0,8.306683540E0
6.226031970E-1,1.721037745E0,4.915455818E0,8.330612183E0
6.250748110E-1,1.768894196E0,4.685146809E0,8.488538742E0
6.275463740E-1,1.864607096E0,4.527220249E0,8.651848793E0
6.300179880E-1,1.913061738E0,4.335196495E0,8.895915985E0
6.324895510E-1,1.984846354E0,4.129413605E0,9.193224907E0
6.349611660E-1,1.994417667E0,3.894917011E0,9.489934921E0
6.374327280E-1,2.176272154E0,3.645465374E0,9.806385040E0
6.399042910E-1,2.545365095E0,3.281756163E0,1.049611664E1
6.423759050E-1,3.101098061E0,2.903092146E0,1.173679543E1
6.448117380E-1,3.762115479E0,2.423929453E0,1.358166122E1
6.472833530E-1,4.389633179E0,2.040479422E0,1.504726505E1
6.497549160E-1,4.758726120E0,1.872981906E0,1.487498188E1
6.522265300E-1,4.897509575E0,1.805982947E0,1.369173145E1
6.546980930E-1,4.811367989E0,1.801197290E0,1.284347534E1
6.571696550E-1,4.725226402E0,1.772483349E0,1.257069397E1
6.596412700E-1,4.648656368E0,1.758126378E0,1.265683556E1
6.621128320E-1,4.466203690E0,1.820339799E0,1.283390427E1
6.645844470E-1,4.226921082E0,1.954337835E0,1.290090370E1
6.670560090E-1,3.915256023E0,2.107478619E0,1.280997562E1
6.695276240E-1,3.565903902E0,2.285145521E0,1.257547951E1
6.719991860E-1,3.182454109E0,2.505285263E0,1.214417267E1
6.744707490E-1,2.770290375E0,2.720639229E0,1.164108181E1
6.769423630E-1,2.411366940E0,2.922234535E0,1.107577801E1
6.794139260E-1,2.037488461E0,3.094517946E0,1.049133110E1
6.818931450E-1,1.682752490E0,3.300898790E0,1.001216793E1
6.843647590E-1,1.308874011E0,3.535395384E0,9.614361763E0
6.868363220E-1,9.978070259E-1,3.693321705E0,9.322437286E0
6.893078840E-1,7.339983582E-1,3.726821184E0,9.163912773E0
6.917794990E-1,5.090730190E-1,3.760320902E0,9.015557289E0
6.942510610E-1,3.894318938E-1,3.813561201E0,8.929415703E0
6.967226760E-1,2.793620527E-1,3.818346739E0,8.785846710E0
6.991942380E-1,1.543370634E-1,3.823132277E0,8.680562019E0
7.016658530E-1,5.982056726E-3,3.899702787E0,8.593822479E0
7.041374160E-1,-1.375873089E-1,3.966701746E0,8.522037506E0
7.066090300E-1,-2.428714931E-1,4.000201225E0,8.421539307E0
7.090805930E-1,-3.391826153E-1,4.024129391E0,8.301898003E0
7.115521550E-1,-4.923232496E-1,4.091128349E0,8.206185341E0
7.140237700E-1,-6.358926296E-1,4.071985722E0,8.076375008E0
7.164953320E-1,-8.279166222E-1,4.124628067E0,7.985447407E0
7.189669470E-1,-8.997012973E-1,4.100699902E0,7.789236069E0
7.214390300E-1,-9.236295223E-1,3.985844374E0,7.501499176E0
7.239106450E-1,-1.086341500E0,4.048057556E0,7.401000500E0
7.263822590E-1,-1.244267821E0,4.196412563E0,7.424928665E0
7.288538220E-1,-1.374078393E0,4.253840446E0,7.496713161E0
7.313253840E-1,-1.469791293E0,4.388436794E0,7.506284714E0
7.337969990E-1,-1.402792215E0,4.618147850E0,7.482356548E0
7.362685610E-1,-1.119840980E0,4.737788677E0,7.429714203E0
7.387401760E-1,-7.986045480E-1,4.819144726E0,7.353144169E0
7.412117380E-1,-4.683950245E-1,4.901099205E0,7.324429989E0
7.436833530E-1,-1.615155339E-1,4.867001057E0,7.223931789E0
7.461549160E-1,1.112662554E-1,4.852644444E0,7.156932354E0
7.486265300E-1,3.367897868E-1,4.823930264E0,7.104290485E0
7.510980930E-1,5.138586760E-1,4.752145767E0,7.031907558E0
7.535696550E-1,7.196413875E-1,4.685146809E0,6.979265213E0
7.560412700E-1,7.914260626E-1,4.608576298E0,6.912266254E0
7.585128320E-1,8.542376757E-1,4.522434711E0,6.873981476E0
7.609844470E-1,8.350951076E-1,4.344767570E0,6.830910206E0
7.634560090E-1,7.674978375E-1,4.272983074E0,6.845267296E0
7.659276240E-1,7.244270444E-1,4.182055950E0,6.912266254E0
7.683991860E-1,6.622136831E-1,4.115056515E0,6.873981476E0
7.708707490E-1,6.047859192E-1,3.981058598E0,6.940980434E0
7.733423110E-1,5.521438122E-1,3.847060680E0,6.950551510E0
7.758139260E-1,4.803591371E-1,3.769891977E0,7.007979393E0
7.782855410E-1,3.894318938E-1,3.760320902E0,7.027122021E0
7.807594990E-1,3.320041299E-1,3.755535126E0,6.993622303E0
7.832310610E-1,3.272185028E-1,3.726821184E0,6.998407841E0
7.857026240E-1,2.985046208E-1,3.779463291E0,6.969694138E0
7.881742380E-1,3.224328458E-1,3.813561201E0,6.917052269E0
7.906458010E-1,2.021935135E-1,3.847060680E0,6.830910206E0
7.931174160E-1,2.033899166E-2,3.918845177E0,6.763911247E0
7.955889780E-1,-7.058826834E-2,4.004986763E0,6.649055958E0
7.980605410E-1,-1.902294010E-1,4.071985722E0,6.572485447E0
8.005321550E-1,-3.200400174E-1,4.186841488E0,6.505486488E0
8.030037180E-1,-5.066801906E-1,4.268197536E0,6.433103561E0
8.054753320E-1,-7.172485590E-1,4.306482315E0,6.342176437E0
8.079468950E-1,-8.279166222E-1,4.374079704E0,6.270391941E0
8.104185090E-1,-1.014556766E0,4.503292084E0,6.160321712E0
8.128900720E-1,-1.162911773E0,4.575077057E0,6.045466423E0
8.153616340E-1,-1.306481123E0,4.627718925E0,5.997610092E0
8.178332490E-1,-1.455434322E0,4.670789719E0,5.958726406E0
8.203283530E-1,-1.551147223E0,4.627718925E0,5.910870075E0
8.227999160E-1,-1.646860242E0,4.618147850E0,5.906084538E0
8.252714780E-1,-1.728216171E0,4.599005222E0,5.891727448E0
8.277430930E-1,-1.747358680E0,4.603790760E0,5.853442192E0
8.302146550E-1,-1.761715651E0,4.503292084E0,5.901299000E0
8.326862700E-1,-1.785643935E0,4.431507587E0,5.939583778E0
8.351578320E-1,-1.785643935E0,4.320839405E0,5.953940868E0
8.376293950E-1,-1.771286964E0,4.186841488E0,6.026323795E0
8.401010090E-1,-1.594218135E0,3.923630953E0,6.332605362E0
8.425725720E-1,-1.455434322E0,3.583251953E0,6.538986206E0
8.450441340E-1,-1.383649707E0,3.463610888E0,6.447460651E0
8.475157490E-1,-1.306481123E0,3.353540897E0,6.476174355E0
8.499873630E-1,-1.258624673E0,3.171088219E0,6.543771744E0
8.524589260E-1,-1.244267821E0,3.070589542E0,6.591628075E0
8.549305410E-1,-1.182054400E0,2.994019270E0,6.620342255E0
8.574021030E-1,-1.115055323E0,2.922234535E0,6.629913330E0
8.598736660E-1,-1.019342422E0,2.845664263E0,6.677769661E0
8.623452800E-1,-9.236295223E-1,2.783450842E0,6.682555676E0
8.648168430E-1,-8.279166222E-1,2.687139750E0,6.692126751E0
8.672884570E-1,-9.044869542E-1,2.658426046E0,6.744768620E0
8.697600200E-1,-9.140582681E-1,2.629712105E0,6.826124668E0
8.722316340E-1,-9.044869542E-1,2.524427891E0,6.802196503E0
8.747031970E-1,-9.044869542E-1,2.452643156E0,6.826124668E0
8.771747590E-1,-8.662018180E-1,2.361716032E0,6.912266254E0
8.796463740E-1,-8.901300430E-1,2.280359983E0,7.042077065E0
8.821179360E-1,-9.284151793E-1,2.140978098E0,7.123433113E0
8.845895510E-1,-8.757730722E-1,2.021337032E0,7.200003147E0
8.870611130E-1,-7.651050687E-1,1.815554142E0,7.353144169E0
8.895327280E-1,-8.231309652E-1,1.666600943E0,7.496713161E0
8.920042910E-1,-9.523434043E-1,1.523031592E0,7.439285755E0
8.944758530E-1,-1.153340459E0,1.360319614E0,7.415357590E0
8.969474680E-1,-1.258624673E0,1.259821177E0,7.482356548E0
8.994190300E-1,-1.374078393E0,1.106082320E0,7.487142086E0
9.018644470E-1,-1.402792215E0,9.337990284E-1,7.367500782E0
9.043360610E-1,-1.388435364E0,6.705885530E-1,7.295716286E0
9.068076240E-1,-1.388435364E0,4.211367965E-1,7.386643410E0
9.092791860E-1,-1.369292736E0,2.871387303E-1,7.458428383E0
9.117508010E-1,-1.296909928E0,4.725824669E-2,7.472784996E0
9.142223630E-1,-1.244267821E0,-1.968096644E-1,7.420143127E0
9.166939780E-1,-1.479362607E0,-2.685943544E-1,7.329215527E0
9.191655410E-1,-1.325623751E0,-4.504488707E-1,7.286144733E0
9.216371030E-1,-1.129412293E0,-6.137589812E-1,7.362715244E0
9.241087180E-1,-1.000199914E0,-7.238288522E-1,7.348358154E0
9.265803320E-1,-8.805587292E-1,-8.099704385E-1,7.381857872E0
9.290518950E-1,-7.890332937E-1,-8.051848412E-1,7.357929707E0
9.315234570E-1,-8.087740541E-1,-7.429714203E-1,7.276573658E0
9.339950720E-1,-9.044869542E-1,-6.137589812E-1,7.252645493E0
9.364666340E-1,-1.062413216E0,-3.451646566E-1,7.200003147E0
9.389382490E-1,-1.393221021E0,-8.673982322E-2,7.123433113E0
9.414149160E-1,-1.780858278E0,2.440679073E-1,7.094718933E0
9.438865300E-1,-2.149951220E0,5.216353536E-1,7.099504948E0
9.463580930E-1,-2.461616278E0,7.950153351E-1,7.027122021E0
9.488297070E-1,-2.950350285E0,1.091725349E0,6.897909641E0
9.513012700E-1,-3.433700562E0,1.456032634E0,6.629913330E0
9.537728840E-1,-3.951148272E0,1.882553220E0,6.313462734E0
9.562444470E-1,-4.382454872E0,2.280359983E0,5.877370834E0
9.587160610E-1,-4.847260475E0,2.687139750E0,5.446662426E0
9.611876240E-1,-5.379065514E0,3.041875839E0,5.015356064E0
9.636592380E-1,-5.786443233E0,3.358326674E0,4.598406792E0
9.661308010E-1,-5.906084538E0,3.310470104E0,4.488337040E0
9.686024160E-1,-5.858228207E0,3.180659533E0,4.344169617E0
9.710739780E-1,-5.805585861E0,3.046661377E0,4.066602230E0
9.735455410E-1,-5.709873199E0,2.874378204E0,3.692723513E0
9.760171550E-1,-5.652445316E0,2.691925526E0,3.290729284E0
9.784887180E-1,-5.973083496E0,2.600998163E0,2.892922640E0
9.809533530E-1,-5.858228207E0,2.419143677E0,2.830709219E0
9.834248630E-1,-5.292923450E0,2.198405743E0,3.065205812E0
9.858964780E-1,-4.804189682E0,2.002194405E0,3.069991350E0
9.883680930E-1,-4.363312244E0,1.901695848E0,3.050848961E0
9.908396550E-1,-3.999004841E0,1.738983870E0,2.969492912E0
9.933112700E-1,-3.812364578E0,1.585245013E0,3.050848961E0
9.957828840E-1,-3.783650875E0,1.475175142E0,3.275774240E0
9.982544470E-1,-3.836292982E0,1.283749342E0,3.597010612E0
1.000726061E0,-3.994219303E0,1.164108157E0,3.913461447E0
1.003197676E0,-4.200600147E0,9.577272534E-1,4.119244099E0
1.005669238E0,-4.521238327E0,7.758727670E-1,4.281956196E0
1.008140853E0,-4.229313850E0,5.790630579E-1,4.890331268E0
1.010612468E0,-3.568296671E0,3.876372576E-1,5.379065514E0
1.013084030E0,-3.462414265E0,-1.728814393E-1,5.618945599E0
1.015555645E0,-3.539582968E0,-6.520441771E-1,5.910870075E0
1.018027259E0,-3.558725595E0,-1.001396298E0,6.337390900E0
1.020533926E0,-3.525225878E0,-1.260419369E0,6.687341213E0
1.023005488E0,-3.515654564E0,-1.514058471E0,7.003193855E0
1.025477103E0,-3.467200041E0,-1.753939033E0,7.281359196E0
1.027948666E0,-3.404986620E0,-1.931007862E0,7.558926582E0
1.030420280E0,-3.304488182E0,-2.041077614E0,7.846663475E0
1.032891895E0,-3.069991350E0,-1.964507341E0,8.047660828E0
1.035363457E0,-2.782254457E0,-1.854437590E0,8.206185341E0
1.037835072E0,-2.959921598E0,-2.060220242E0,8.311469078E0
1.040306634E0,-3.136990547E0,-2.127817631E0,8.512466431E0
1.042778249E0,-3.290131092E0,-2.194816589E0,8.647063255E0
1.045249863E0,-3.515654564E0,-2.185245275E0,8.670990944E0
1.047721478E0,-3.769293785E0,-2.002792597E0,8.685347557E0
1.050193041E0,-3.975076675E0,-1.897508383E0,8.574680328E0
1.052664655E0,-4.114458561E0,-1.768295884E0,8.359326363E0
1.055136270E0,-4.219742775E0,-1.567298889E0,8.105088234E0
1.057607832E0,-4.243670940E0,-1.418345571E0,7.803592682E0
1.060079447E0,-4.186243057E0,-1.341775298E0,7.506284714E0
1.062551061E0,-4.181457520E0,-1.284347534E0,7.219145775E0
1.065022624E0,-4.162314892E0,-1.293918848E0,6.945765972E0
1.067494238E0,-4.435096741E0,-1.356132269E0,6.582056999E0
1.069965853E0,-4.387240410E0,-1.384846091E0,6.457031727E0
1.072437416E0,-3.979862213E0,-1.523629785E0,6.442675114E0
1.074909030E0,-3.874577999E0,-1.710868239E0,6.150750637E0
1.077380645E0,-3.941577196E0,-1.820937991E0,5.886941910E0
1.079852207E0,-4.052245140E0,-1.806581140E0,5.647659779E0
1.082323822E0,-4.157529354E0,-1.801795483E0,5.437091351E0
1.084795436E0,-4.238885403E0,-1.787438512E0,5.230710506E0
1.087266999E0,-4.229313850E0,-1.792224169E0,5.063212872E0
1.089738613E0,-4.171886444E0,-1.773081541E0,4.991427898E0
1.092210228E0,-4.013361931E0,-1.811366796E0,4.943571568E0
1.094681791E0,-3.908077478E0,-1.892722726E0,4.880760193E0
1.097153405E0,-3.774079561E0,-1.969292998E0,4.866403103E0
1.099625020E0,-3.726222992E0,-2.151745796E0,4.934000492E0
1.102096582E0,-3.740580082E0,-2.300100803E0,4.934000492E0
1.104568197E0,-3.807579041E0,-2.376671076E0,4.962714195E0
1.107039811E0,-3.903291941E0,-2.443670034E0,4.977071285E0
1.109511374E0,-4.104887009E0,-2.434098721E0,4.924428940E0
1.111982988E0,-4.334598064E0,-2.371885538E0,4.934000492E0
1.114454603E0,-4.612763882E0,-2.319243431E0,4.890331268E0
1.116926166E0,-4.885545731E0,-2.290529490E0,4.866403103E0
1.119397780E0,-5.106283665E0,-2.252244234E0,4.890331268E0
1.121843041E0,-5.326423168E0,-2.223530531E0,4.905286312E0
1.124314655E0,-5.536991596E0,-2.261815548E0,4.900500774E0
1.126786270E0,-5.685945034E0,-2.395813704E0,4.929214478E0
1.129257832E0,-5.848656654E0,-2.486740828E0,5.015356064E0
1.131729447E0,-5.982655048E0,-2.606382132E0,5.101497650E0
1.134201061E0,-6.116652966E0,-2.712264538E0,5.144568920E0
1.136672624E0,-6.299105644E0,-2.831905603E0,5.259424210E0
1.139144238E0,-6.528816700E0,-2.985046148E0,5.388636589E0
1.141615801E0,-6.797410965E0,-3.075973511E0,5.537590027E0
1.144087416E0,-7.051050186E0,-3.153141975E0,5.666802406E0
1.146559030E0,-7.305287361E0,-3.186641455E0,5.867799282E0
1.149030593E0,-7.534998417E0,-3.224926710E0,6.050251961E0
1.151502207E0,-7.630711555E0,-3.320639610E0,6.222535133E0
1.153973822E0,-7.597211838E0,-3.488137245E0,6.390032768E0
1.156445436E0,-7.616354465E0,-3.655634880E0,6.538986206E0
1.158916999E0,-7.578069210E0,-3.799802303E0,6.672984123E0
1.161378353E0,-7.463213921E0,-3.924229145E0,6.873981476E0
1.163849968E0,-7.429714203E0,-4.039084435E0,7.080362320E0
1.166321582E0,-7.424928665E0,-4.120440483E0,7.271788120E0
1.168793197E0,-7.357929707E0,-4.168296814E0,7.434499741E0
1.171264759E0,-7.391428947E0,-4.245465755E0,7.593024254E0
1.173736374E0,-7.410571575E0,-4.317250252E0,7.774878979E0
1.176207988E0,-7.472784996E0,-4.384249210E0,7.870592117E0
1.178679551E0,-7.635497093E0,-4.360321045E0,7.918448448E0
1.181151166E0,-7.740781307E0,-4.331607342E0,7.918448448E0
1.183622780E0,-7.908876896E0,-4.302893162E0,7.880163193E0
1.186094343E0,-8.014161110E0,-4.283750534E0,7.798807144E0
1.188565957E0,-8.205587387E0,-4.288536549E0,7.707880020E0
1.191037572E0,-8.359326363E0,-4.235894203E0,7.583453178E0
1.193509134E0,-8.512466431E0,-4.221537113E0,7.487142086E0
1.195980749E0,-8.636893272E0,-4.264608383E0,7.391428947E0
1.198452363E0,-8.804390907E0,-4.211368084E0,7.267002583E0
1.200955749E0,-8.929415703E0,-4.211368084E0,7.133004189E0
1.203427311E0,-9.015557289E0,-4.177868366E0,7.031907558E0
1.205898926E0,-9.101698875E0,-4.153940201E0,6.921837807E0
1.208370488E0,-9.168698311E0,-4.158725739E0,6.749554634E0
1.210842103E0,-9.283554077E0,-4.187439442E0,6.591628075E0
1.213313718E0,-9.437292099E0,-4.149154663E0,6.423532486E0
1.215785280E0,-9.633503914E0,-4.187439442E0,6.227321148E0
1.218256895E0,-9.896714211E0,-4.226323128E0,6.155536175E0
1.220728509E0,-1.008873844E1,-4.283750534E0,6.189035892E0
1.223200072E0,-1.024187946E1,-4.302893162E0,6.212964058E0
1.225671686E0,-1.034237766E1,-4.360321045E0,6.217749596E0
1.228143301E0,-1.045783138E1,-4.451248169E0,6.232106686E0
1.230614863E0,-1.052961636E1,-4.590032101E0,6.299105644E0
1.233086478E0,-1.050090218E1,-4.728815556E0,6.399604321E0
1.235558093E0,-1.039023399E1,-4.887340069E0,6.572485447E0
1.238029655E0,-1.032323551E1,-5.035695076E0,6.744768620E0
1.240499811E0,-1.021316528E1,-5.126622677E0,7.031907558E0
1.242971374E0,-1.013180923E1,-5.222335339E0,7.300501823E0
1.245442988E0,-1.007438183E1,-5.274977684E0,7.554141045E0
1.247914551E0,-1.000259686E1,-5.323431969E0,7.837092400E0
1.250386166E0,-1.000259686E1,-5.352146149E0,8.076375008E0
1.252857780E0,-1.002173901E1,-5.414359570E0,8.258827209E0
1.255329343E0,-9.993025780E0,-5.495715618E0,8.402397156E0
1.257800957E0,-9.993025780E0,-5.562714577E0,8.574680328E0
1.260272572E0,-1.005523872E1,-5.557928562E0,8.642276764E0
1.262744134E0,-1.010788059E1,-5.596213818E0,8.656634331E0
1.265215749E0,-1.032323551E1,-5.605785370E0,8.642276764E0
1.267687363E0,-1.059182930E1,-5.572285652E0,8.685347557E0
1.270158926E0,-1.098006535E1,-5.490929604E0,8.627322197E0
1.272630541E0,-1.138205910E1,-5.380859852E0,8.656634331E0
1.275102155E0,-1.186122227E1,-5.222335339E0,8.680562019E0
1.277573718E0,-1.226859951E1,-5.030909538E0,8.718847275E0
1.280045332E0,-1.257488155E1,-4.877768993E0,8.718847275E0
1.282516947E0,-1.282911873E1,-4.801198483E0,8.714061737E0
1.284988509E0,-1.293918800E1,-4.671388149E0,8.608179092E0
1.287460124E0,-1.300140190E1,-4.532604218E0,8.431110382E0
1.289931738E0,-1.299661636E1,-4.479962349E0,8.239685059E0
1.292403301E0,-1.301097298E1,-4.513461590E0,7.966304779E0
1.294874916E0,-1.304447269E1,-4.532604218E0,7.636095047E0
1.297346530E0,-1.313599777E1,-4.551746845E0,7.228717327E0
1.299818093E0,-1.327478218E1,-4.585246563E0,6.960123062E0
1.302289707E0,-1.336570930E1,-4.527818680E0,6.730412006E0
1.304761322E0,-1.353799248E1,-4.441677094E0,6.495316982E0
1.307232884E0,-1.372044468E1,-4.360321045E0,6.476174355E0
1.309704499E0,-1.393101311E1,-4.197010994E0,6.480959892E0
1.312176113E0,-1.407458305E1,-3.952943087E0,6.558128834E0
1.314647676E0,-1.422353554E1,-3.732803345E0,6.625127792E0
1.317119291E0,-1.436710548E1,-3.588635683E0,6.720840454E0
1.319585228E0,-1.447717476E1,-3.468994617E0,6.897909641E0
1.322056791E0,-1.457767391E1,-3.344567776E0,7.003193855E0
1.324528405E0,-1.476012611E1,-3.191427231E0,7.118647575E0
1.326999968E0,-1.491326714E1,-3.119044304E0,7.247859955E0
1.329471582E0,-1.512383556E1,-3.023331404E0,7.386643410E0
1.331943197E0,-1.538285828E1,-2.860619545E0,7.458428383E0
1.334414759E0,-1.567478275E1,-2.750549555E0,7.506284714E0
1.336886374E0,-1.591944885E1,-2.568096876E0,7.583453178E0
1.339357988E0,-1.613480377E1,-2.414956331E0,7.549355507E0
1.341829603E0,-1.636989784E1,-2.194816589E0,7.491927624E0
1.344301166E0,-1.660439491E1,-1.902294040E0,7.453642368E0
1.346772780E0,-1.693041611E1,-1.557727575E0,7.338787079E0
1.349244343E0,-1.722234154E1,-1.179063320E0,7.195217609E0
1.351715957E0,-1.748614883E1,-8.482556343E-1,6.960123062E0
1.354187520E0,-1.762971878E1,-4.797609448E-1,6.653841496E0
1.356659134E0,-1.771107483E1,-2.207378894E-1,6.275177479E0
1.359130749E0,-1.778285980E1,-2.452643216E-2,5.843871117E0
1.361592728E0,-1.780678749E1,7.178468257E-2,5.470590591E0
1.364064343E0,-1.772064590E1,9.571290761E-2,5.034498692E0
1.366535957E0,-1.753879166E1,1.483550072E-1,4.617549419E0
1.369007572E0,-1.728455353E1,1.435693651E-1,4.234099865E0
1.371479134E0,-1.699741554E1,1.866401732E-1,3.879961967E0
1.373950749E0,-1.681974792E1,2.440679073E-1,3.515654564E0
1.376422363E0,-1.659960938E1,2.297109663E-1,3.084348440E0
1.378893926E0,-1.637946892E1,2.105683982E-1,2.619542599E0
1.381365541E0,-1.614437485E1,1.866401732E-1,2.183450699E0
1.383837155E0,-1.589073563E1,1.531406492E-1,1.704886079E0
1.386308718E0,-1.557428455E1,1.387837082E-1,1.230509043E0
1.388780332E0,-1.527757454E1,-4.366901144E-2,8.662018180E-1
1.391268457E0,-1.496590900E1,-1.920240223E-1,7.082754970E-1
1.393739968E0,-1.471167183E1,-3.499503136E-1,5.641079545E-1
1.396211582E0,-1.438146210E1,-6.616154313E-1,5.353940725E-1
1.398683197E0,-1.405543995E1,-8.578268886E-1,6.119644046E-1
1.401154759E0,-1.369173145E1,-1.049850941E0,7.896314859E-1
1.403626374E0,-1.336570930E1,-1.308275819E0,8.853443861E-1
1.406097988E0,-1.316471195E1,-1.605584025E0,9.475577474E-1
1.408569551E0,-1.395972729E1,-2.194816589E0,5.449653864E-1
1.411041166E0,-1.392622757E1,-2.458027124E0,1.238285750E-1
1.413512780E0,-1.330349541E1,-2.453241348E0,1.794617064E-2
1.415984343E0,-1.269990635E1,-2.481955290E0,5.144568533E-2
1.418455957E0,-1.227338600E1,-2.438884497E0,3.708875179E-2
1.420927572E0,-1.198086262E1,-2.237887383E0,2.147558331E-1
1.423399134E0,-1.191386414E1,-1.878365755E0,4.923232496E-1
1.425870749E0,-1.188993549E1,-1.619940877E0,7.752745152E-1
1.428342363E0,-1.200479126E1,-1.418345571E0,9.236295223E-1
1.430813926E0,-1.204367447E1,-1.246062398E0,1.143769264E0
1.433285541E0,-1.207238865E1,-1.155135155E0,1.374078393E0
1.435757155E0,-1.214417267E1,-1.045065284E0,1.541576028E0
1.438228718E0,-1.227817154E1,-9.439685345E-1,1.622931957E0
1.440711061E0,-1.240738392E1,-8.099704385E-1,1.767099500E0
1.443182572E0,-1.255095291E1,-8.003991842E-1,1.953739643E0
1.445654186E0,-1.258026505E1,-7.621139884E-1,2.140379906E0
1.448125801E0,-1.246481133E1,-7.477570772E-1,2.385046005E0
1.450597363E0,-1.238824081E1,-7.860422134E-1,2.547757864E0
1.453068978E0,-1.234517002E1,-8.243274093E-1,2.638685226E0
1.455540593E0,-1.221117210E1,-8.243274093E-1,2.773281336E0
1.458012155E0,-1.200957680E1,-8.626125455E-1,2.734398127E0
1.460483770E0,-1.166022491E1,-9.056833982E-1,2.681756020E0
1.462955384E0,-1.128634644E1,-9.774680734E-1,2.600399971E0
1.465426947E0,-1.105663490E1,-1.049850941E0,2.365903378E0
1.467898561E0,-1.090289593E1,-1.155135155E0,2.063809633E0
1.470370176E0,-1.071625614E1,-1.317847013E0,1.622931957E0
1.472841791E0,-1.052961636E1,-1.432702541E0,1.028913736E0
1.475313353E0,-1.037109184E1,-1.432702541E0,5.976074338E-1
1.477784916E0,-1.034237766E1,-1.303490162E0,1.908276081E-1
1.480256582E0,-1.049133110E1,-1.083350420E0,-2.787638307E-1
1.482728874E0,-1.066361427E1,-7.812566161E-1,-7.962117195E-1
1.485200488E0,-1.099920750E1,-2.829512656E-1,-1.375872970E0
1.487672155E0,-1.151665497E1,2.919243574E-1,-1.974676847E0
1.490143822E0,-1.234517002E1,8.380861282E-1,-2.631506681E0
1.492615436E0,-1.315514088E1,1.168893814E0,-3.450450182E0
1.495087103E0,-1.392622757E1,1.341177106E0,-4.327419758E0
1.497558718E0,-1.453938866E1,1.307677627E0,-5.189434052E0
1.500030384E0,-1.505205059E1,1.140179992E0,-6.229115486E0
1.502501999E0,-1.582373619E1,9.577272534E-1,-8.284550667E0
1.504973666E0,-1.648475266E1,6.945167780E-1,-8.883354187E0
1.507445280E0,-1.673839188E1,4.402793646E-1,-8.711071014E0
1.509916947E0,-1.685324860E1,2.584248483E-1,-8.356334686E0
1.512388561E0,-1.673360634E1,6.161518395E-2,-7.862815380E0
1.514860176E0,-1.642732620E1,-1.016949583E-2,-7.254439831E0
1.517331843E0,-1.601037598E1,-1.010967568E-1,-6.665207386E0
1.519803509E0,-1.555992699E1,-1.872383654E-1,-6.109474182E0
1.522275124E0,-1.518126297E1,-2.973082066E-1,-5.615954876E0
1.524746791E0,-1.487976742E1,-5.419743061E-1,-5.060221672E0
1.527218405E0,-1.457288837E1,-7.142575383E-1,-4.490131855E0
1.529690072E0,-1.432882023E1,-1.001396298E0,-3.934398651E0
1.532161686E0,-1.406979752E1,-1.351346612E0,-3.541377544E0
1.534633353E0,-1.379222965E1,-1.753939033E0,-3.225524902E0
1.537104968E0,-1.342313671E1,-2.213959217E0,-2.937788010E0
1.539576634E0,-1.311685562E1,-2.659622431E0,-2.607578516E0
1.542048249E0,-1.285783291E1,-2.994617462E0,-2.281556368E0
1.544519863E0,-1.262812138E1,-3.344567776E0,-1.955534339E0
1.546991582E0,-1.231645679E1,-3.636492252E0,-1.606182218E0
1.549463197E0,-1.197129154E1,-3.804588079E0,-1.351944804E0
1.551934863E0,-1.159801102E1,-4.039084435E0,-1.208375454E0
1.554406478E0,-1.120977592E1,-4.206582069E0,-1.069591761E0
1.556878145E0,-1.094118118E1,-4.288536549E0,-9.978070259E-1
1.559349759E0,-1.067797089E1,-4.298107624E0,-9.541380405E-1
1.561790176E0,-1.044347477E1,-4.197010994E0,-9.589236975E-1
1.564261843E0,-1.036630630E1,-4.106083870E0,-9.254241586E-1
1.566733457E0,-1.017966557E1,-4.173082829E0,-7.435696125E-1
1.569205124E0,-9.921240807E0,-4.642673969E0,-3.122633696E-1
1.571676738E0,-9.868000984E0,-4.747958183E0,-1.555334684E-2
1.574148405E0,-1.001216793E1,-4.618745804E0,2.626122832E-1
1.576620020E0,-1.022273636E1,-4.470390797E0,5.306084156E-1
1.579091686E0,-1.038066292E1,-4.317250252E0,9.379864931E-1
1.581563301E0,-1.051047325E1,-4.158725739E0,1.369292736E0
1.584034968E0,-1.066361427E1,-4.048655987E0,1.838884234E0
1.586506582E0,-1.083589745E1,-3.905086517E0,2.332403898E0
1.588978249E0,-1.100877857E1,-3.771088600E0,2.753540754E0
1.591449916E0,-1.108534908E1,-3.790230989E0,3.165704250E0
1.593921530E0,-1.118106174E1,-3.756731510E0,3.640081406E0
1.596393197E0,-1.131984615E1,-3.723232031E0,4.018745422E0
1.598864811E0,-1.150648594E1,-3.684946775E0,4.478765965E0
1.601336426E0,-1.162672520E1,-3.694518089E0,4.828117847E0
1.603808093E0,-1.173200989E1,-3.785445452E0,5.230710506E0
1.606279759E0,-1.178943729E1,-3.818944931E0,5.623731613E0
1.608751374E0,-1.189950657E1,-3.828516245E0,5.901299000E0
1.611223041E0,-1.188993549E1,-4.010370731E0,5.963512421E0
1.613694655E0,-1.166022491E1,-4.302893162E0,5.609374523E0
1.616166322E0,-1.190429306E1,-3.986442566E0,6.461817741E0
1.618637936E0,-1.228774261E1,-3.862015724E0,7.003193855E0
1.621109603E0,-1.283390427E1,-3.742374659E0,7.056434155E0
1.623581218E0,-1.349013615E1,-3.579064369E0,7.180860519E0
1.626052884E0,-1.399801254E1,-3.435495138E0,7.655237675E0
1.628524499E0,-1.435753441E1,-3.282354355E0,7.980661869E0
1.630996166E0,-1.456331635E1,-3.248854876E0,7.951947689E0
1.633467780E0,-1.456331635E1,-3.358924866E0,7.875377655E0
1.635939447E0,-1.438146210E1,-3.583850145E0,7.727022648E0
1.638411061E0,-1.405065441E1,-3.747160196E0,8.038089752E0
1.640881218E0,-1.368694592E1,-3.809373617E0,8.115258217E0
1.643352832E0,-1.327956772E1,-3.981656790E0,7.798807144E0
1.645824447E0,-1.275733376E1,-4.115654945E0,7.338787079E0
1.648296113E0,-1.205803108E1,-4.441677094E0,6.749554634E0
1.650767728E0,-1.133420277E1,-4.738387108E0,6.289534092E0
1.653239395E0,-1.073061275E1,-4.877768993E0,5.983253002E0
1.655711009E0,-1.050090218E1,-4.954339504E0,5.618945599E0
1.658182676E0,-1.030887794E1,-5.011766911E0,5.379065514E0
1.660654291E0,-1.016530895E1,-5.050052166E0,5.201996326E0
1.663125957E0,-9.969097137E0,-5.150550842E0,5.000999451E0
1.665597572E0,-9.542576790E0,-5.467001438E0,4.603192329E0
1.668069238E0,-8.886344910E0,-5.936593056E0,4.004388809E0
1.670540853E0,-8.555537224E0,-6.209374905E0,3.802793503E0
1.673012520E0,-8.388039589E0,-6.319444656E0,3.429512978E0
1.675484134E0,-8.172087669E0,-6.300302029E0,2.993421078E0
1.677955801E0,-7.990232944E0,-6.204588890E0,2.821137905E0
1.680449134E0,-7.784450054E0,-6.022734642E0,2.595614433E0
1.682920749E0,-7.721638680E0,-5.907878876E0,2.265404940E0
1.685392363E0,-7.592426300E0,-5.811567783E0,2.073380709E0
1.687864030E0,-7.223333359E0,-5.519643784E0,1.972882271E0
1.690335645E0,-7.022336483E0,-5.255835056E0,2.015953064E0
1.692807311E0,-6.993622303E0,-5.016552448E0,2.356332064E0
1.695278926E0,-7.161119938E0,-4.944767952E0,2.835494757E0
1.697750593E0,-7.477570534E0,-4.987838745E0,3.333800077E0
1.700222207E0,-7.759923935E0,-5.002195835E0,3.889533281E0
1.702693874E0,-7.980661869E0,-5.078765869E0,4.526622295E0
1.705165488E0,-8.555537224E0,-5.428716183E0,5.504090309E0
1.707637155E0,-9.604789734E0,-5.567500114E0,6.519843578E0
1.710108770E0,-1.065404320E1,-5.366502762E0,6.811768055E0
1.712580436E0,-1.142991543E1,-5.140979290E0,6.466603279E0
1.715052051E0,-1.184207916E1,-4.853840828E0,5.958726406E0
1.717523718E0,-1.198564816E1,-4.393820763E0,5.853442192E0
1.719995332E0,-1.192343521E1,-4.086941242E0,6.011966705E0
1.722466999E0,-1.174636650E1,-3.842873096E0,6.126822472E0
1.724938613E0,-1.155015469E1,-3.602992773E0,6.102894306E0
1.727410280E0,-1.133898830E1,-3.650849104E0,5.949155331E0
1.729881895E0,-1.112363434E1,-3.785445452E0,6.107679844E0
1.732353561E0,-1.087418270E1,-4.063013077E0,6.102894306E0
1.734825176E0,-1.075454140E1,-4.336392879E0,6.227321148E0
1.737296843E0,-1.074975586E1,-4.393820763E0,6.351747513E0
1.739768457E0,-1.077847004E1,-4.278964996E0,6.558128834E0
1.742240124E0,-1.094118118E1,-4.130012035E0,6.653841496E0
1.744685176E0,-1.110449123E1,-3.885943890E0,6.299105644E0
1.747156791E0,-1.114277649E1,-3.737588882E0,5.800800323E0
1.749628457E0,-1.127677536E1,-3.516851187E0,5.254638672E0
1.752100072E0,-1.155972576E1,-3.263211966E0,4.871188641E0
1.754571738E0,-1.187079334E1,-3.004188776E0,4.426123619E0
1.757043353E0,-1.195214939E1,-2.817548752E0,3.961317778E0
1.759515020E0,-1.174158096E1,-2.831905603E0,3.305086374E0
1.761986634E0,-1.130070305E1,-2.989831924E0,2.686541557E0
1.764458301E0,-1.095553875E1,-3.119044304E0,2.145165443E0
1.766929968E0,-1.064447117E1,-3.167499065E0,1.795813441E0
1.769401582E0,-1.043868923E1,-3.153141975E0,1.512862086E0
1.771873249E0,-1.029452133E1,-3.037688255E0,1.019342422E0
1.774344863E0,-1.033280659E1,-3.023331404E0,4.827519655E-1
1.776816530E0,-1.034237766E1,-2.951546669E0,5.497509837E-1
1.779288145E0,-1.015095139E1,-2.836691141E0,6.987041831E-1
1.781757884E0,-1.000738239E1,-2.740978241E0,9.906286001E-1
1.784229551E0,-9.643074989E0,-2.630908489E0,1.177866936E0
1.786701166E0,-9.269196510E0,-2.596810818E0,1.388435364E0
1.789172832E0,-8.991629601E0,-2.621337175E0,1.579861164E0
1.791644447E0,-8.943773270E0,-2.587239504E0,1.905883193E0
1.794116113E0,-8.991629601E0,-2.611765862E0,2.361117840E0
1.796587728E0,-9.087342262E0,-2.755335331E0,3.333800077E0
1.799059395E0,-8.785248756E0,-3.052045345E0,3.664009571E0
1.801531009E0,-8.200801849E0,-3.392424345E0,3.510869026E0
1.804002676E0,-7.549355507E0,-3.636492252E0,3.256631613E0
1.806474291E0,-6.413960934E0,-3.814159393E0,2.514258385E0
1.808945957E0,-5.450850010E0,-3.991228104E0,2.111665964E0
1.811417624E0,-4.651049137E0,-4.077369690E0,1.714457393E0
1.813889238E0,-3.812364578E0,-4.177868366E0,1.033699393E0
1.816360905E0,-3.687937975E0,-4.278964996E0,1.455434322E0
1.818832520E0,-3.620938778E0,-4.503890514E0,1.891526341E0
1.821304186E0,-3.404986620E0,-4.805984497E0,1.709671736E0
1.823775801E0,-3.568296671E0,-5.035695076E0,1.436291814E0
1.826247468E0,-4.047459602E0,-4.987838745E0,1.421934843E0
1.828719082E0,-4.631906509E0,-4.599603176E0,1.934597135E0
1.831190749E0,-5.197210789E0,-4.058227062E0,2.758924484E0
1.833662363E0,-5.767300606E0,-3.602992773E0,3.381656647E0
1.836134030E0,-6.169893265E0,-3.282354355E0,3.731008768E0
1.838605645E0,-6.165107727E0,-3.099901676E0,3.616153240E0
1.841077311E0,-6.303891182E0,-2.874976397E0,3.587439299E0
1.843548926E0,-6.030511379E0,-2.707478762E0,2.969492912E0
1.846011426E0,-5.340780258E0,-2.462812662E0,2.265404940E0
1.848483093E0,-4.866403103E0,-2.069791555E0,1.517647743E0
1.850954759E0,-6.500102520E0,-1.370489120E0,2.935993433E0
1.853426374E0,-8.157731056E0,-9.535398483E-1,5.053641319E0
1.855898041E0,-8.100302696E0,-9.678967595E-1,5.173282623E0
1.858369655E0,-7.544569969E0,-1.064207911E0,4.095315933E0
1.860841322E0,-7.477570534E0,-9.678967595E-1,2.629113913E0
1.863312936E0,-7.697710514E0,-7.908278704E-1,1.627717614E0
1.865784603E0,-8.105088234E0,-5.994020700E-1,1.153938770E0
1.868256218E0,-8.660821915E0,-3.978067636E-1,4.971089065E-1
1.870727884E0,-9.307481766E0,-1.824527234E-1,6.699903607E-1
1.873199499E0,-1.042851925E1,8.135596663E-2,1.421934843E0
1.875671166E0,-1.098485088E1,3.062812984E-1,2.265404940E0
1.878142832E0,-1.190429306E1,5.120640397E-1,3.856033802E0
1.880648353E0,-1.262333584E1,8.141579032E-1,5.230710506E0
1.883119916E0,-1.303490162E1,1.086939692E0,6.337390900E0
1.885591582E0,-1.278604794E1,1.197607756E0,6.605985165E0
1.888063197E0,-1.148734283E1,5.886343718E-1,4.871188641E0
1.890534863E0,-8.915059090E0,-4.552344978E-1,2.255833626E0
1.893006478E0,-7.329215527E0,-8.769695163E-1,4.540380836E-1
1.895478145E0,-7.189833641E0,-7.334001660E-1,6.101697683E-2
1.897949759E0,-7.151548862E0,-1.298704505E0,-2.787638307E-1
1.900421426E0,-7.616354465E0,-8.721838593E-1,1.149153113E0
1.902893041E0,-7.424928665E0,-3.164508045E-1,1.872383714E0
1.905364707E0,-8.038089752E0,2.333002165E-2,3.391227961E0
1.907836322E0,-8.589036942E0,4.259224236E-1,4.378267288E0
1.910307988E0,-9.336195946E0,8.093722463E-1,5.465805054E0
1.912779603E0,-9.528220177E0,9.864411354E-1,6.605985165E0
1.915251270E0,-1.012223816E1,9.337990284E-1,7.042077065E0
1.917722884E0,-1.017009449E1,7.232306600E-1,7.525427341E0
1.920194551E0,-9.456435204E0,4.067798555E-1,7.789236069E0
1.922666166E0,-8.900702477E0,3.876372576E-1,7.362715244E0
1.925137832E0,-9.245268822E0,6.514459848E-1,7.698308468E0
1.927609447E0,-9.058628082E0,7.710871100E-1,7.539783955E0
1.930081113E0,-8.622536659E0,7.710871100E-1,6.969694138E0
1.932552728E0,-8.224729538E0,6.945167780E-1,6.165107727E0
1.935024395E0,-7.904091358E0,5.934200287E-1,5.192425251E0
1.937496009E0,-7.827520847E0,5.072783828E-1,4.205385685E0
1.939967676E0,-7.966304779E0,4.881358147E-1,3.300300598E0
1.942438874E0,-8.617751122E0,6.897311211E-1,2.787638426E0
1.944891009E0,-9.628718376E0,1.355534077E0,2.638685226E0
1.947362676E0,-1.085503960E1,2.164906263E0,3.491726398E0
1.949834291E0,-1.077847004E1,1.618744493E0,4.243670940E0
1.952305905E0,-1.022752190E1,9.098708034E-1,4.550550461E0
1.954777520E0,-9.561718941E0,5.503492355E-1,5.125426292E0
1.957249134E0,-8.291728973E0,1.962114573E-1,4.986642361E0
1.959720801E0,-6.634100914E0,-4.504488707E-1,4.885545731E0
1.962192416E0,-5.359922886E0,-6.424728632E-1,4.234099865E0
1.964664030E0,-4.281956196E0,-1.102493048E0,3.290729284E0
1.967135645E0,-1.814357758E0,-1.537986755E0,1.858026743E0
1.969607259E0,6.717849374E-1,-3.626920938E0,-1.634896040E0
1.972078874E0,1.782652885E-1,-6.343372822E0,-3.723830223E0
1.974550541E0,-1.105484009E0,-5.840879917E0,-2.257628202E0
1.977022155E0,-9.475577474E-1,-5.514857769E0,-1.481157184E0
1.979493770E0,-8.039883971E-1,-5.471786976E0,-2.979064286E-1
1.981965384E0,-6.550351977E-1,-5.289932728E0,5.449653864E-1
1.984436999E0,-1.076770186E0,-4.959125042E0,1.484148264E0
1.986908666E0,-1.498505235E0,-4.829912663E0,2.456830740E0
1.989380280E0,-1.915454507E0,-4.657031059E0,3.069991350E0
1.991851895E0,-2.403590441E0,-4.642673969E0,3.443870068E0
1.994323509E0,-2.791825771E0,-4.585246563E0,3.520440340E0
1.996795124E0,-2.839682341E0,-4.661816597E0,3.237488985E0
1.999266791E0,-2.916252613E0,-4.685744762E0,2.859423161E0
2.001742259E0,-3.031706333E0,-4.542175770E0,2.437688112E0
2.004213926E0,-3.012563705E0,-4.345963955E0,1.968096614E0
2.006685541E0,-2.964707375E0,-4.048655987E0,1.743171334E0
2.009157155E0,-2.844467878E0,-3.641277790E0,1.560718536E0
2.011628770E0,-2.801397085E0,-3.234498024E0,1.460219979E0
2.014100384E0,-3.007778168E0,-2.822334290E0,1.455434322E0
2.016571999E0,-3.419343472E0,-2.467598438E0,1.512862086E0
2.019043666E0,-3.750151396E0,-2.328814745E0,1.579861164E0
2.021515280E0,-3.951148272E0,-2.290529490E0,1.905883193E0
2.023986895E0,-4.133601189E0,-2.079961061E0,2.116451740E0
2.026458509E0,-4.506881237E0,-1.950150490E0,2.102094650E0
2.028930124E0,-4.971687317E0,-1.720439434E0,2.418545485E0
2.031401791E0,-5.144568920E0,-1.432702541E0,2.648256540E0
2.033873405E0,-5.426921844E0,-1.193420291E0,2.859423161E0
2.036345020E0,-5.738586903E0,-1.068993568E0,3.184846878E0
2.038816634E0,-5.915655613E0,-1.006780148E0,3.687937975E0
2.041288249E0,-6.212964058E0,-8.147560954E-1,3.966103554E0
2.043788093E0,-6.543173313E0,-7.429714203E-1,3.879961967E0
2.046259603E0,-6.442675114E0,-7.860422134E-1,3.942175388E0
2.048731270E0,-6.227321148E0,-1.011565804E0,4.085744858E0
2.051202884E0,-6.165107727E0,-1.188634634E0,4.028316975E0
2.053674499E0,-6.025725842E0,-1.246062398E0,4.320241451E0
2.056146166E0,-5.910870075E0,-1.073779106E0,4.272384644E0
2.058617780E0,-6.011368752E0,-9.296116233E-1,4.378267288E0
2.061089395E0,-6.811768055E0,-4.989035130E-1,4.291527271E0
2.063561009E0,-7.798807144E0,3.493520916E-1,4.090530396E0
2.066032624E0,-8.598608017E0,8.141579032E-1,3.846462488E0
2.068504291E0,-8.823533058E0,3.780659735E-1,3.764508247E0
2.070975905E0,-8.593822479E0,-6.281159520E-1,3.764508247E0
2.073447520E0,-8.267800331E0,-1.212562919E0,4.057030678E0
2.075919134E0,-8.286943436E0,-1.480558991E0,4.258028030E0
2.078390749E0,-8.598608017E0,-1.212562919E0,4.214957237E0
2.080829551E0,-8.804390907E0,-8.482556343E-1,4.334598064E0
2.083301113E0,-8.766105652E0,-3.834498227E-1,4.363910198E0
2.085772780E0,-8.703892708E0,3.290131316E-2,4.305884361E0
2.088244395E0,-8.569893837E0,1.579262912E-1,4.071387768E0
2.090716009E0,-8.402397156E0,-1.154536903E-1,3.961317778E0
2.093187624E0,-8.306683540E0,-4.989035130E-1,3.750151396E0
2.095659238E0,-8.248658180E0,-9.200403094E-1,3.429512978E0
2.098130905E0,-8.205587387E0,-1.370489120E0,3.285345554E0
2.100602520E0,-7.995018482E0,-1.706082582E0,3.175275564E0
2.103074134E0,-7.779664516E0,-1.907079697E0,3.290729284E0
2.105545749E0,-7.601997375E0,-2.146960020E0,3.223132133E0
2.108017363E0,-7.558926582E0,-2.247458696E0,3.093919754E0
2.110488978E0,-7.467999458E0,-2.486740828E0,3.175275564E0
2.112960645E0,-7.472784996E0,-2.572882652E0,3.117847919E0
2.115432259E0,-7.161119938E0,-2.779263496E0,3.017349243E0
2.117903874E0,-7.165905476E0,-2.985046148E0,3.194418192E0
2.120404395E0,-7.141977310E0,-3.004188776E0,3.218346357E0
2.122875957E0,-8.014161110E0,-1.720439434E0,3.458226919E0
2.125347624E0,-8.426324844E0,-1.308275819E0,3.002992392E0
2.127819238E0,-7.904091358E0,-2.367099762E0,2.983849764E0
2.130290853E0,-7.386643410E0,-3.224926710E0,3.280559778E0
2.132762468E0,-7.467999458E0,-3.823730469E0,3.324228764E0
2.135234082E0,-7.530212879E0,-4.197010994E0,3.060420275E0
2.137705749E0,-7.401000500E0,-3.991228104E0,2.950350285E0
2.140177363E0,-7.218547821E0,-3.545564890E0,3.069991350E0
2.142648978E0,-7.084549427E0,-3.224926710E0,3.165704250E0
2.145120593E0,-6.749554634E0,-2.932404041E0,3.074777126E0
2.147592207E0,-6.428318024E0,-2.889333248E0,3.079562664E0
2.150063822E0,-6.567101955E0,-2.903690338E0,3.189632654E0
2.152535488E0,-6.610172749E0,-2.812762976E0,2.902493954E0
2.155007103E0,-6.735197544E0,-2.678765059E0,2.676970243E0
2.157478718E0,-6.936194420E0,-2.338385820E0,2.792423964E0
2.159950332E0,-6.984051228E0,-1.777867198E0,2.859423161E0
2.162421947E0,-6.926623344E0,-2.510669231E0,2.581257343E0
2.164893613E0,-6.773482800E0,-3.061616659E0,2.394617319E0
2.167365228E0,-6.442675114E0,-3.258426189E0,2.274976015E0
2.169836843E0,-6.208178520E0,-3.742374659E0,2.068595171E0
2.172308457E0,-6.126224041E0,-4.134797573E0,2.183450699E0
2.174780072E0,-5.829514027E0,-4.336392879E0,2.049452543E0
2.177251738E0,-5.839085579E0,-4.384249210E0,1.781456470E0
2.179723353E0,-5.628517151E0,-4.393820763E0,1.575075507E0
2.182194968E0,-5.364708424E0,-4.508676052E0,1.517647743E0
2.184666582E0,-5.115854740E0,-4.671388149E0,1.474576950E0
2.187138197E0,-5.125426292E0,-4.561318398E0,1.532004714E0
2.189609863E0,-5.259424210E0,-3.728017569E0,1.632503271E0
2.192081478E0,-4.713262558E0,-3.622135162E0,1.814955950E0
2.194553041E0,-4.651049137E0,-4.465605259E0,1.992024899E0
2.197024707E0,-4.708476543E0,-5.270191669E0,2.710469961E0
2.199496322E0,-5.331208706E0,-6.300302029E0,2.399402857E0
2.201967936E0,-5.681159019E0,-6.889534473E0,3.894318819E0
2.204439603E0,-7.204190731E0,-6.779464722E0,3.798007727E0
2.206911218E0,-7.735995770E0,-6.420541286E0,3.644867182E0
2.209382832E0,-7.520641804E0,-6.348158360E0,5.120640278E0
2.211854447E0,-8.253443718E0,-5.342574596E0,5.867799282E0
2.214326061E0,-1.001216793E1,-3.914657831E0,6.064609051E0
2.216797728E0,-1.237866974E1,-2.300100803E0,6.174678802E0
2.219269343E0,-1.423789310E1,-1.351346612E0,5.906084538E0
2.221699186E0,-1.517647743E1,-1.011565804E0,6.558128834E0
2.224170853E0,-1.599123383E1,-5.802595019E-1,7.003193855E0
2.226642468E0,-1.598644829E1,-8.673982322E-2,7.037291527E0
2.229114082E0,-1.471645737E1,-5.802594870E-2,7.031907558E0
2.231585749E0,-1.333699512E1,-6.329016089E-1,6.802196503E0
2.234057363E0,-1.140120125E1,-6.424728632E-1,6.385247231E0
2.236528978E0,-9.049057007E0,-5.611169338E-1,6.351747513E0
2.239000593E0,-7.587640762E0,-8.961120844E-1,6.160321712E0
2.241472207E0,-6.802196503E0,-1.494915962E0,5.983253002E0
2.243943874E0,-6.754340172E0,-1.940579176E0,5.508875847E0
2.246415488E0,-7.525427341E0,-2.304886341E0,5.254638672E0
2.248887103E0,-9.283554077E0,-2.386242390E0,5.197210789E0
2.251358718E0,-1.096510983E1,-2.118246317E0,4.698905468E0
2.253830332E0,-1.216331577E1,-1.777867198E0,4.080958843E0
2.256301947E0,-1.234038448E1,-1.840080619E0,3.903890133E0
2.258773613E0,-1.188993549E1,-1.610369682E0,4.818546772E0
2.261245228E0,-1.167458153E1,-1.169492126E0,4.837689400E0
2.263716843E0,-1.174636650E1,-1.174277663E0,4.469194412E0
2.266188457E0,-1.227338600E1,-1.672582984E0,4.440480709E0
2.268660072E0,-1.323171139E1,-2.175673962E0,4.325026989E0
2.271131738E0,-1.384008598E1,-2.740978241E0,4.713262558E0
2.273603353E0,-1.420917892E1,-2.611765862E0,4.713262558E0
2.276074968E0,-1.414158154E1,-2.731407166E0,4.799404144E0
2.278546582E0,-1.402194023E1,-2.822334290E0,4.483551502E0
2.281018197E0,-1.400279808E1,-2.937189817E0,4.512265205E0
2.283489863E0,-1.385922909E1,-3.032902718E0,4.440480709E0
2.285961478E0,-1.353799248E1,-3.234498024E0,4.483551502E0
2.288433093E0,-1.326042461E1,-3.593421459E0,4.512265205E0
2.290904707E0,-1.268076324E1,-3.972085476E0,4.464408875E0
2.293376322E0,-1.206760311E1,-4.187439442E0,4.430909157E0
2.295847988E0,-1.141555882E1,-4.365106583E0,4.195814610E0
2.298319603E0,-1.111406326E1,-4.561318398E0,4.090530396E0
2.300827624E0,-1.041416264E1,-4.738387108E0,3.875176191E0
2.303299186E0,-9.585647583E0,-4.887340069E0,3.750151396E0
2.305770801E0,-9.197412491E0,-4.930410862E0,3.582653761E0
2.308242416E0,-8.967700958E0,-5.021338463E0,3.381656647E0
2.310714030E0,-8.665607452E0,-5.145765305E0,3.391227961E0
2.313185697E0,-8.392825127E0,-5.279763222E0,3.453441381E0
2.315657311E0,-8.301898003E0,-5.270191669E0,3.491726398E0
2.318128926E0,-8.018946648E0,-5.395216942E0,3.530011654E0
2.320600541E0,-7.827520847E0,-5.404788017E0,3.597010612E0
2.323072155E0,-8.004590034E0,-5.352146149E0,3.793222189E0
2.325543822E0,-8.124231339E0,-5.207978249E0,3.970889091E0
2.328015436E0,-8.560322762E0,-4.844269276E0,4.037888050E0
2.330487051E0,-8.982057571E0,-4.590032101E0,4.147958279E0
2.332958666E0,-9.206983566E0,-4.322035789E0,4.109673023E0
2.335430280E0,-9.326624870E0,-4.206582069E0,4.119244099E0
2.337901947E0,-9.321838379E0,-4.101297855E0,3.951746702E0
2.340365332E0,-9.025128365E0,-4.005585194E0,3.601796389E0
2.342836895E0,-8.684749603E0,-4.034298897E0,3.966103554E0
2.345308561E0,-8.900702477E0,-3.924229145E0,3.759722471E0
2.347780176E0,-8.924630165E0,-3.857230186E0,3.429512978E0
2.350251791E0,-7.928019524E0,-4.086941242E0,3.256631613E0
2.352723405E0,-6.984051228E0,-4.360321045E0,3.146561861E0
2.355195020E0,-7.094120979E0,-4.747958183E0,3.146561861E0
2.357666686E0,-7.520641804E0,-5.088337421E0,3.199203968E0
2.360138301E0,-7.597211838E0,-4.983053207E0,3.175275564E0
2.362609916E0,-1.211545944E1,-7.143772125E0,2.619542599E0
2.365081530E0,-1.062054348E1,-7.651648521E0,4.469194412E0
2.367553145E0,-4.756333351E0,-4.733601570E0,4.488337040E0
2.370024759E0,-8.009375572E0,-5.347360611E0,2.495115757E0
2.372496426E0,-7.276573658E0,-7.421339512E0,2.514258385E0
2.374968041E0,-2.538186550E0,-7.613363266E0,2.945564747E0
2.377439655E0,-2.935395241E0,-7.455437183E0,3.132204771E0
2.379911270E0,-3.659224033E0,-7.330412388E0,3.510869026E0
2.382382832E0,-4.368097782E0,-7.062416077E0,3.788436413E0
2.384854447E0,-5.221138954E0,-7.091129780E0,4.052245140E0
2.387326061E0,-6.020939827E0,-6.865606308E0,4.378267288E0
2.389797676E0,-6.883552551E0,-6.860820770E0,4.334598064E0
2.392348874E0,-7.463213921E0,-6.817749977E0,4.722833633E0
2.394820436E0,-8.052446365E0,-6.659823418E0,5.024927616E0
2.397292051E0,-8.848059654E0,-6.022734642E0,5.010570526E0
2.399763666E0,-9.202198029E0,-5.486144066E0,5.139782906E0
2.402235280E0,-9.192625999E0,-5.045266628E0,5.010570526E0
2.404706895E0,-9.686145782E0,-4.523033142E0,4.905286312E0
2.407178509E0,-9.437292099E0,-3.747160196E0,4.536193371E0
2.409650124E0,-9.082556725E0,-2.994617462E0,4.009174347E0
2.412121738E0,-8.929415703E0,-1.964507341E0,3.875176191E0
2.414593353E0,-9.058628082E0,-8.434699774E-1,3.697509289E0
2.417064968E0,-8.862417221E0,-3.978067636E-1,3.980460405E0
2.419536634E0,-8.612964630E0,7.178468257E-2,4.186243057E0
2.422008249E0,-8.857631683E0,8.668000102E-1,3.711866140E0
2.424479863E0,-8.905488014E0,1.527817249E0,3.597010612E0
2.426951478E0,-8.569893837E0,1.916052699E0,3.372085333E0
2.429423093E0,-8.047660828E0,1.877767563E0,3.218346357E0
2.431894707E0,-7.735995770E0,1.724626899E0,3.060420275E0
2.434366322E0,-7.444071293E0,1.446461320E0,3.184846878E0
2.436837936E0,-7.036693096E0,1.518245935E0,3.122633457E0
2.439309551E0,-5.283352375E0,1.920838356E0,3.050848961E0
2.441686061E0,-6.610172749E0,2.392822653E-1,2.676970243E0
2.444157676E0,-9.418149948E0,-2.693121910E0,2.341975212E0
2.446629291E0,-1.063968563E1,-4.503890514E0,2.461616278E0
2.449100957E0,-9.983454704E0,-5.255835056E0,2.566900492E0
2.451572572E0,-8.435895920E0,-5.557928562E0,2.251047850E0
2.454044186E0,-7.837092400E0,-5.648856163E0,2.149951220E0
2.456515801E0,-7.319644451E0,-5.826523304E0,2.188236237E0
2.458987416E0,-7.262216568E0,-6.233303070E0,2.418545485E0
2.461459030E0,-8.090731621E0,-6.616752625E0,2.385046005E0
2.463930645E0,-8.622536659E0,-6.822535515E0,2.322832584E0
2.466402259E0,-8.555537224E0,-6.899703979E0,2.380260229E0
2.468873874E0,-8.660821915E0,-6.985845566E0,2.519043922E0
2.471345488E0,-8.684749603E0,-7.057630539E0,2.404188633E0
2.473817103E0,-8.364111900E0,-7.067201614E0,2.255833626E0
2.476288770E0,-8.818747520E0,-6.860820770E0,2.255833626E0
2.478760384E0,-9.168698311E0,-6.856035233E0,2.102094650E0
2.481231999E0,-9.302696228E0,-6.923632145E0,1.915454507E0
2.483703613E0,-8.435895920E0,-7.148557663E0,1.603789330E0
2.486175228E0,-8.440681458E0,-7.268198967E0,1.541576028E0
2.488646843E0,-9.293125153E0,-8.159524918E0,1.651645780E0
2.491118457E0,-8.790034294E0,-8.389236450E0,1.767099500E0
2.493590072E0,-1.050568771E1,-9.127422333E0,1.819741607E0
2.496061686E0,-1.161236858E1,-9.491130829E0,1.982453585E0
2.498533301E0,-1.031366348E1,-8.307880402E0,1.848455548E0
2.501004916E0,-9.647860527E0,-7.024130821E0,1.618146300E0
2.503476582E0,-1.050568771E1,-6.156732559E0,1.589432478E0
2.505948197E0,-9.705288887E0,-6.171089649E0,1.259222865E0
2.508419811E0,-9.273982048E0,-6.669394970E0,7.465606928E-1
2.510891426E0,-7.170691490E0,-5.855237007E0,1.417149186E0
2.513363041E0,-8.531609535E0,-5.318646431E0,1.398006678E0
2.515834655E0,-7.822735310E0,-5.639284611E0,1.240080357E0
2.518306270E0,-7.295716286E0,-4.695316315E0,1.661217093E0
2.520782207E0,-7.942376614E0,-4.901697159E0,1.493719578E0
2.523253770E0,-7.789236069E0,-5.274977684E0,1.264008522E0
2.525725384E0,-7.640282631E0,-5.471786976E0,1.412363529E0
2.528196999E0,-7.324429989E0,-5.821737289E0,1.326221943E0
2.530668666E0,-5.800800323E0,-6.473183632E0,1.192223907E0
2.533140280E0,-5.603990555E0,-6.846463680E0,1.599003673E0
2.535611895E0,-1.752144337E0,-8.221738815E0,8.662018180E-1
2.538083509E0,-1.052842021E0,-8.173882484E0,1.445863128E0
2.540555124E0,-3.817150354E0,-6.338587284E0,1.848455548E0
2.543026738E0,-4.722833633E0,-6.482754707E0,1.901097536E0
2.545498353E0,-6.303891182E0,-7.105486870E0,2.413759947E0
2.547969968E0,-7.098906517E0,-7.354340553E0,2.638685226E0
2.550441582E0,-7.189833641E0,-7.474579811E0,2.830709219E0
2.552913197E0,-6.648457527E0,-7.071987152E0,2.816352367E0
2.555384811E0,-6.567101955E0,-6.884748936E0,2.787638426E0
2.557856478E0,-6.830910206E0,-7.153343201E0,3.002992392E0
2.560348666E0,-7.908876896E0,-8.130811691E0,3.515654564E0
2.562820228E0,-9.494720459E0,-9.400203705E0,3.894318819E0
2.565291843E0,-9.959526062E0,-9.132207870E0,3.923032761E0
2.567763509E0,-9.072985649E0,-7.167700291E0,3.597010612E0
2.570235124E0,-7.971090317E0,-6.113661766E0,3.184846878E0
2.572706738E0,-7.530212879E0,-4.896911621E0,3.069991350E0
2.575178353E0,-7.381857872E0,-3.967299938E0,2.998206854E0
2.577649968E0,-7.343572617E0,-3.315854073E0,2.969492912E0
2.580121582E0,-6.907480717E0,-2.927618504E0,2.921636343E0
2.582593197E0,-5.647659779E0,-2.199602127E0,2.686541557E0
2.585064811E0,-6.370890141E0,-3.521636724E0,2.897708178E0
2.587536426E0,-9.087342262E0,-5.931807518E0,3.563511133E0
2.590008041E0,-9.714859962E0,-6.468397617E0,3.774079561E0
2.592479655E0,-9.413364410E0,-5.801996708E0,3.640081406E0
2.594951270E0,-8.340183258E0,-5.419145107E0,3.625724554E0
2.597422936E0,-7.597211838E0,-5.433502197E0,3.812364578E0
2.599894551E0,-8.090731621E0,-5.495715618E0,3.923032761E0
2.602366113E0,-8.660821915E0,-5.667998791E0,3.726222992E0
2.604837780E0,-9.173483849E0,-5.663212776E0,3.520440340E0
2.607309395E0,-8.813961983E0,-5.572285652E0,3.194418192E0
2.609781009E0,-7.640282631E0,-5.763711452E0,3.132204771E0
2.612252624E0,-7.324429989E0,-6.156732559E0,3.189632654E0
2.614724238E0,-7.601997375E0,-6.549753666E0,2.998206854E0
2.617195853E0,-8.593822479E0,-7.460222721E0,2.959921598E0
2.619667468E0,-1.125284672E1,-1.026281643E1,3.203989506E0
2.622139082E0,-1.468774319E1,-1.170449162E1,3.251846075E0
2.624610749E0,-1.112841988E1,-9.127422333E0,1.675574064E0
2.627082363E0,-5.853442192E0,-7.603792191E0,8.949156404E-1
2.629553978E0,-5.024329185E0,-5.989234924E0,1.086341500E0
2.632025593E0,-5.211567879E0,-4.973481655E0,1.197009563E0
2.634497207E0,-5.508277893E0,-4.863411903E0,1.307079315E0
2.636968822E0,-5.906084538E0,-5.241477966E0,1.608574986E0
2.639440436E0,-5.968297958E0,-5.443073273E0,1.661217093E0
2.641878666E0,-4.085744858E0,-6.382256031E0,1.963310957E0
2.644350280E0,6.617351055E0,-9.606584549E0,2.475973129E0
2.646821895E0,-6.550351977E-1,-9.836296082E0,3.937389612E0
2.649293561E0,-9.001200676E0,-1.143171024E1,3.534797192E0
2.651765176E0,-1.020359421E1,-1.138863945E1,3.309871912E0
2.654236791E0,-8.665607452E0,-1.014317513E1,2.782852650E0
2.656708405E0,-7.185048103E0,-9.625727654E0,2.854637384E0
2.659180020E0,-6.591030121E0,-9.505488396E0,3.007778168E0
2.661651634E0,-6.442675114E0,-9.361918449E0,2.763710260E0
2.664123249E0,-6.428318024E0,-9.984650612E0,2.648256540E0
2.666594863E0,-5.743372440E0,-1.036331463E1,2.394617319E0
2.669066478E0,-4.708476543E0,-9.927223206E0,2.653042078E0
2.671538093E0,-5.125426292E0,-8.753543854E0,5.087141037E0
2.674009707E0,-6.490531445E0,-7.028916359E0,4.090530396E0
2.676481374E0,-7.338787079E0,-6.621538639E0,2.595614433E0
2.678952988E0,-8.090731621E0,-6.693323135E0,2.638685226E0
2.681428249E0,-9.442078590E0,-8.269595146E0,2.063809633E0
2.683899916E0,-9.643074989E0,-1.056431198E1,1.680359721E0
2.686371530E0,-7.420143127E0,-9.625727654E0,1.426720500E0
2.688843145E0,-5.738586903E0,-8.533403397E0,9.044869542E-1
2.691314759E0,-4.866403103E0,-7.282555580E0,5.784648657E-1
2.693786374E0,-4.219742775E0,-6.171089649E0,4.157529473E-1
2.696257988E0,-4.052245140E0,-5.505286694E0,3.631108403E-1
2.698729603E0,-4.516452789E0,-5.265406132E0,4.109672904E-1
2.701201270E0,-5.005186558E0,-5.696712494E0,8.279166222E-1
2.703672884E0,-6.121438503E0,-5.936593056E0,2.434697002E-1
2.706144499E0,-6.126224041E0,-5.840879917E0,6.460621357E-1
2.708616113E0,-5.671587944E0,-5.376074314E0,1.455434322E0
2.711087728E0,-5.412564754E0,-4.930410862E0,1.867598057E0
2.713559343E0,-5.307280540E0,-4.206582069E0,1.939382792E0
2.716030957E0,-5.331208706E0,-3.516851187E0,2.173879385E0
2.718502572E0,-5.245067120E0,-3.239283562E0,2.145165443E0
2.721001530E0,-5.201996326E0,-3.263211966E0,2.346760750E0
2.723473093E0,-5.283352375E0,-3.311068296E0,2.691327333E0
2.725944707E0,-5.867799282E0,-3.306282759E0,2.753540754E0
2.728416322E0,-6.135795593E0,-3.488137245E0,2.657827854E0
2.730887988E0,-6.854838848E0,-3.876372576E0,2.102094650E0
2.733359603E0,-7.439285755E0,-4.360321045E0,2.227119684E0
2.735831218E0,-7.750352383E0,-4.747958183E0,2.059023857E0
2.738302832E0,-8.129016876E0,-5.107480049E0,2.274976015E0
2.740774447E0,-8.138587952E0,-5.562714577E0,2.135594130E0
2.743246061E0,-8.286943436E0,-5.505286694E0,1.771885157E0
2.745717676E0,-8.579465866E0,-5.706283569E0,1.992024899E0
2.748189291E0,-8.929415703E0,-5.840879917E0,1.814955950E0
2.750660905E0,-9.278767586E0,-5.768496990E0,1.670788407E0
2.753132520E0,-9.317052841E0,-5.936593056E0,1.714457393E0
2.755604134E0,-9.302696228E0,-6.128018856E0,1.724028707E0
2.758075749E0,-9.010771751E0,-6.329015732E0,1.570289850E0
2.760549030E0,-8.732605934E0,-6.358327866E0,1.412363529E0
2.763020593E0,-8.325826645E0,-6.554539204E0,1.273579836E0
2.765492207E0,-8.009375572E0,-6.669394970E0,1.173081279E0
2.767963874E0,-7.515855789E0,-6.851249218E0,1.211366415E0
2.770435488E0,-7.146762848E0,-6.985845566E0,1.153938770E0
2.772907103E0,-6.940980434E0,-7.081558704E0,1.138983607E0
2.775378718E0,-6.423532486E0,-7.134200573E0,1.071984529E0
2.777850332E0,-6.203392506E0,-6.822535515E0,1.124626637E0
2.780321947E0,-6.006583214E0,-6.597609997E0,1.177866936E0
2.782793561E0,-5.767300606E0,-6.731608391E0,1.311864972E0
2.785265176E0,-5.589633465E0,-6.683752060E0,1.407577872E0
2.787736791E0,-5.628517151E0,-6.640681267E0,1.268794179E0
2.790208405E0,-5.628517151E0,-6.573681831E0,1.240080357E0
2.792680020E0,-5.493920803E0,-6.449255466E0,1.149153113E0
2.795151634E0,-5.508277893E0,-6.410970211E0,1.158724308E0
2.797623301E0,-5.383851051E0,-6.396613121E0,1.302293777E0
2.800094916E0,-5.719444275E0,-6.415755749E0,1.273579836E0
2.802566530E0,-5.757729530E0,-6.832107067E0,1.268794179E0
2.805038145E0,-5.599205017E0,-7.258627415E0,1.469791293E0
2.807509759E0,-5.714658737E0,-7.392625332E0,1.795813441E0
2.809981374E0,-5.925227165E0,-7.685148239E0,1.719243050E0
2.812452988E0,-6.418746948E0,-7.987242222E0,1.992024899E0
2.814924603E0,-6.179464340E0,-8.489734650E0,2.054238319E0
2.817396218E0,-6.227321148E0,-8.484949112E0,2.202593327E0
2.819867832E0,-6.203392506E0,-8.638688087E0,2.154736757E0
2.822339447E0,-6.409175396E0,-8.758329391E0,2.102094650E0
2.824811061E0,-5.949155331E0,-8.992825508E0,1.637288928E0
2.827282728E0,-5.613562107E0,-8.882756233E0,1.187438250E0
2.829754343E0,-6.155536175E0,-8.605188370E0,8.279166222E-1
2.832225957E0,-6.232106686E0,-8.164310455E0,1.086341500E0
2.834697572E0,-5.570491314E0,-8.020741463E0,8.805587292E-1
2.837169186E0,-6.303891182E0,-7.406982422E0,1.383649707E0
2.839640801E0,-7.199405193E0,-7.733004570E0,1.877169371E0
2.842112728E0,-7.146762848E0,-8.207381248E0,1.963310957E0
2.844584395E0,-5.503491879E0,-7.977670670E0,2.099701911E-1
2.847056009E0,-6.073582172E0,-8.921041489E0,1.627717614E0
2.849527624E0,-6.543173313E0,-7.450651646E0,7.992027402E-1
2.851999291E0,-5.087141037E0,-7.162914753E0,-7.100701332E-1
2.854470905E0,-4.875974178E0,-7.349554539E0,3.230310604E-2
2.856942520E0,-5.321637630E0,-7.368697166E0,4.157529473E-1
2.859414134E0,-5.752943993E0,-7.426125050E0,4.396811724E-1
2.861861791E0,-6.001797199E0,-7.091129780E0,1.429711580E-1
2.864333457E0,-6.543173313E0,-6.995417118E0,1.860419661E-1
2.866805072E0,-7.084549427E0,-7.263412952E0,1.286142170E-1
2.869276686E0,-7.113263607E0,-7.445865631E0,1.860419661E-1
2.871748301E0,-7.228717327E0,-7.575078487E0,5.401797295E-1
2.874219968E0,-7.310073376E0,-7.862216949E0,7.513462901E-1
2.876691582E0,-7.204190731E0,-8.499904633E0,7.609176040E-1
2.879163197E0,-7.046264648E0,-9.074779510E0,6.699903607E-1
2.881634811E0,-7.084549427E0,-9.352347374E0,8.566305041E-1
2.884106478E0,-6.912266254E0,-9.606584549E0,9.188438654E-1
2.886578093E0,-6.739983082E0,-9.759725571E0,7.322037220E-1
2.889049707E0,-6.672386169E0,-9.936794281E0,7.657032609E-1
2.891634343E0,-6.442675114E0,-1.022453117E1,7.130611539E-1
2.894105957E0,-5.815157413E0,-1.154178047E1,4.301098585E-1
2.896577572E0,-5.930012703E0,-1.184387398E1,3.918247223E-1
2.899049186E0,-6.160321712E0,-1.162313557E1,3.487538993E-1
2.901517103E0,-5.958726406E0,-1.164706421E1,5.401797295E-1
2.903985020E0,-5.139782906E0,-1.126421261E1,1.517647743E0
2.906456686E0,-4.852046013E0,-1.068933678E1,1.278365493E0
2.908928353E0,-4.909473896E0,-1.012403297E1,8.422735929E-1
2.911399968E0,-4.847260475E0,-9.529416084E0,7.992027402E-1
2.913871582E0,-4.861617565E0,-8.863613129E0,6.795616150E-1
2.916343197E0,-4.871188641E0,-8.312665939E0,7.609176040E-1
2.918814863E0,-4.890331268E0,-8.030312538E0,8.279166222E-1
2.921286478E0,-4.751547337E0,-7.948358536E0,9.379864931E-1
2.923758093E0,-4.459024906E0,-8.159524918E0,1.316650629E0
2.926229707E0,-4.253242016E0,-8.504690170E0,1.498505235E0
2.928701374E0,-4.348955154E0,-8.887541771E0,1.441077471E0
2.931183457E0,-4.545166492E0,-8.782257080E0,1.436291814E0
2.933655020E0,-4.880760193E0,-8.374878883E0,1.364507079E0
2.936126634E0,-5.340780258E0,-7.809575081E0,1.067198873E0
2.938598301E0,-5.603990555E0,-7.258627415E0,8.279166222E-1
2.941069916E0,-5.767300606E0,-6.884748936E0,7.657032609E-1
2.943541530E0,-5.886941910E0,-6.650252342E0,7.417750359E-1
2.946013145E0,-5.685945034E0,-6.607181549E0,5.688936114E-1
2.948484811E0,-5.584847927E0,-6.611967087E0,3.152543902E-1
2.950956426E0,-5.560919762E0,-6.702894211E0,7.944171429E-1
2.953428041E0,-5.508277893E0,-6.846463680E0,1.062413216E0
2.955899655E0,-5.398207664E0,-6.789036274E0,1.052842021E0
2.958371322E0,-5.479563713E0,-6.592824459E0,1.100698471E0
2.960842936E0,-5.398207664E0,-6.511468410E0,1.158724308E0
2.963347259E0,-5.139782906E0,-6.497111797E0,1.220937729E0
2.965818822E0,-4.971687317E0,-6.477969170E0,1.153938770E0
2.968290488E0,-4.761118889E0,-6.664609432E0,1.009771109E0
2.970762103E0,-4.555335999E0,-6.827321053E0,9.667003751E-1
2.973233718E0,-4.396811485E0,-7.110272408E0,9.044869542E-1
2.975705384E0,-4.219742775E0,-7.445865631E0,6.891329288E-1
2.978176999E0,-4.138386726E0,-7.728219032E0,7.609176040E-1
2.980648613E0,-4.008575916E0,-7.996813297E0,1.119840980E0
2.983120228E0,-3.826721668E0,-8.422736168E0,1.493719578E0
2.985591895E0,-3.707080364E0,-9.103493690E0,1.714457393E0
2.988063509E0,-3.539582968E0,-9.731011391E0,1.675574064E0
2.990535124E0,-3.486940861E0,-1.015274620E1,1.733600020E0
2.993006791E0,-3.443271875E0,-1.040159988E1,1.695314884E0
2.995468926E0,-3.318845034E0,-1.053081226E1,1.388435364E0
2.997940488E0,-3.223132133E0,-1.056431198E1,1.168295622E0
3.000412155E0,-3.184846878E0,-1.075155067E1,1.000199914E0
3.002883770E0,-3.122633457E0,-1.104347515E1,1.067198873E0
3.005355384E0,-3.227917671E0,-1.128335476E1,1.402792215E0
3.007827051E0,-3.218346357E0,-1.144128132E1,1.771885157E0
3.010298666E0,-3.318845034E0,-1.164706421E1,2.068595171E0
3.012770280E0,-3.577867985E0,-1.181515980E1,2.346760750E0
3.015241895E0,-3.836292982E0,-1.193480110E1,2.456830740E0
3.017713561E0,-4.095315933E0,-1.192523003E1,2.461616278E0
3.020185176E0,-4.133601189E0,-1.158485126E1,2.586043119E0
3.022656791E0,-3.888935089E0,-1.101476097E1,2.676970243E0
3.025128457E0,-3.510869026E0,-1.035852909E1,2.504687071E0
3.027606999E0,-3.247060299E0,-9.783653259E0,2.337189436E0
3.030078561E0,-3.165704250E0,-9.409774780E0,2.140379906E0
3.032550228E0,-2.758326292E0,-9.275776863E0,1.642074585E0
3.035021843E0,-2.183450699E0,-8.887541771E0,1.197009563E0
3.037493457E0,-1.958525300E0,-8.408378601E0,1.052842021E0
3.039965124E0,-2.452044964E0,-8.197810173E0,9.092726111E-1
3.042436738E0,-2.873181820E0,-8.106883049E0,7.178468108E-1
3.044908353E0,-3.012563705E0,-7.977670670E0,6.652047038E-1
3.047379968E0,-3.103491068E0,-7.900502205E0,5.928218365E-1
3.049851634E0,-2.935395241E0,-8.039883614E0,7.465606928E-1
3.052323249E0,-2.858824968E0,-8.140382767E0,1.009771109E0
3.054794863E0,-2.901895761E0,-8.145168304E0,1.287936807E0
3.057266530E0,-2.988635540E0,-8.140382767E0,1.431506157E0
3.059740176E0,-3.046063185E0,-8.044670105E0,1.508076429E0
3.062211738E0,-3.098705292E0,-8.049455643E0,1.637288928E0
3.064683405E0,-3.256631613E0,-8.106883049E0,1.733600020E0
3.067155020E0,-3.376272678E0,-8.135597229E0,1.752742529E0
3.069626634E0,-3.424129248E0,-8.111668587E0,1.724028707E0
3.072098301E0,-3.506083488E0,-8.025527000E0,1.719243050E0
3.074569916E0,-3.486940861E0,-7.895716667E0,1.661217093E0
3.077041530E0,-3.385843992E0,-7.742575645E0,1.651645780E0
3.079513145E0,-3.553939819E0,-7.627720356E0,1.670788407E0
3.081984811E0,-3.625724554E0,-7.512865067E0,1.579861164E0
3.084456426E0,-3.611367464E0,-7.402196884E0,1.488933921E0
3.086928041E0,-3.740580082E0,-7.282555580E0,1.407577872E0
3.089399707E0,-3.769293785E0,-7.301698208E0,1.283151150E0
3.091854238E0,-3.754936934E0,-7.249056339E0,1.393221021E0
3.094325801E0,-3.836292982E0,-7.239484787E0,1.431506157E0
3.096797468E0,-3.946362734E0,-7.244270325E0,1.311864972E0
3.099269082E0,-3.984647989E0,-7.268198967E0,1.287936807E0
3.101740697E0,-3.984647989E0,-7.373483181E0,1.264008522E0
3.104212363E0,-3.884149313E0,-7.450651646E0,1.201795220E0
3.106683978E0,-3.821935892E0,-7.436294556E0,1.187438250E0
3.109155593E0,-3.664009571E0,-7.306483746E0,1.076770186E0
3.111627207E0,-3.462414265E0,-7.172485828E0,9.571290612E-1
3.114098874E0,-3.337987661E0,-7.095915318E0,8.183453679E-1
3.116570488E0,-3.290131092E0,-6.914061069E0,7.034898400E-1
3.119042103E0,-3.471985579E0,-6.952346325E0,7.609176040E-1
3.121513718E0,-3.573082447E0,-7.033702374E0,7.800601721E-1
3.124004968E0,-3.802793503E0,-7.086344242E0,7.896314859E-1
3.126476530E0,-3.769293785E0,-7.057630539E0,7.417750359E-1
3.128948197E0,-3.769293785E0,-7.062416077E0,7.609176040E-1
3.131419811E0,-3.419343472E0,-6.836892605E0,9.762716293E-1
3.133891426E0,-3.079562664E0,-6.439683914E0,1.143769264E0
3.136363093E0,-2.892324448E0,-6.089733601E0,1.182652593E0
3.138834707E0,-2.533401012E0,-5.653641701E0,1.192223907E0
3.141306322E0,-2.657827854E0,-5.419145107E0,1.000199914E0
3.143777936E0,-2.748754978E0,-5.304289818E0,8.997012973E-1
3.146249551E0,-3.409772158E0,-5.672784328E0,8.614161611E-1
3.148721218E0,-3.802793503E0,-6.065805435E0,7.609176040E-1
3.151192832E0,-4.224528313E0,-6.420541286E0,8.997012973E-1
3.153664499E0,-4.631906509E0,-6.774679184E0,1.052842021E0
3.156113093E0,-4.957330227E0,-7.004988194E0,1.551147223E0
3.158584655E0,-5.168497086E0,-7.143772125E0,1.877169371E0
3.161056322E0,-5.393422127E0,-7.378268719E0,1.805384636E0
3.163527936E0,-4.713262558E0,-7.335197926E0,1.948953986E0
3.165999551E0,-3.558725595E0,-6.832107067E0,2.720041037E0
3.168471218E0,-3.409772158E0,-6.410970211E0,3.769293785E0
3.170942832E0,-4.090530396E0,-6.631109715E0,2.743969440E0
3.173414447E0,-4.584050179E0,-6.914061069E0,1.814955950E0
3.175886061E0,-5.225924492E0,-7.441080093E0,1.086341500E0
3.178357728E0,-5.580062389E0,-8.073383331E0,3.678964674E-1
3.180829343E0,-5.714658737E0,-8.557332039E0,1.286142170E-1
3.183300957E0,-5.709873199E0,-9.065208435E0,1.094716340E-1
3.185772624E0,-5.594419479E0,-9.538987160E0,-3.948157281E-2
3.188243770E0,-5.508277893E0,-9.989436150E0,-1.591227055E-1
3.190715332E0,-5.245067120E0,-1.036331463E1,-2.021935135E-1
3.193186999E0,-5.211567879E0,-1.071805096E1,-1.878365725E-1
3.195658613E0,-5.087141037E0,-1.107697392E1,-1.447657645E-1
3.198130228E0,-4.986044407E0,-1.145563793E1,-3.840480447E-1
3.200601895E0,-5.240281582E0,-1.196830082E1,-3.984049559E-1
3.203073509E0,-5.676373482E0,-1.253360462E1,-1.782652885E-1
3.205545124E0,-5.743372440E0,-1.305583858E1,1.094716340E-1
3.208016738E0,-5.729015827E0,-1.349671650E1,5.210371017E-1
3.210488405E0,-5.714658737E0,-1.400459290E1,8.949156404E-1
3.212960020E0,-5.867799282E0,-1.451246929E1,8.805587292E-1
3.215431634E0,-6.001797199E0,-1.490967751E1,9.810572863E-1
3.217903301E0,-6.087938786E0,-1.519741440E1,9.044869542E-1
3.220382155E0,-6.332605362E0,-1.531227016E1,6.891329288E-1
3.222853718E0,-6.595815659E0,-1.504905987E1,3.870390654E-1
3.225325384E0,-6.442675114E0,-1.446461296E1,1.908276081E-1
3.227796999E0,-6.279963017E0,-1.389930820E1,8.075776696E-2
3.230268613E0,-6.466603279E0,-1.344407368E1,8.075776696E-2
3.232740280E0,-6.485745907E0,-1.294098282E1,9.990034252E-2
3.235211895E0,-6.222535133E0,-1.252881908E1,6.101697683E-2
3.237683509E0,-5.738586903E0,-1.212144089E1,-5.982056726E-3
3.240155124E0,-5.278566837E0,-1.174816132E1,-1.256231815E-1
3.242626791E0,-5.072185993E0,-1.155613708E1,-2.069791555E-1
3.245098405E0,-5.910870075E0,-1.147956657E1,6.843472719E-1
3.247570020E0,-6.614958286E0,-1.188694477E1,2.099701911E-1
3.250041686E0,-4.947759151E0,-1.129292679E1,-1.313659668E0
3.252508301E0,-3.740580082E0,-1.072762203E1,-1.356730461E0
3.254979863E0,-3.438486099E0,-1.047338486E1,-1.083948612E0
3.257451530E0,-3.539582968E0,-1.031067276E1,-7.148557901E-1
3.259923145E0,-3.707080364E0,-1.029153061E1,-3.170489967E-1
3.262394759E0,-3.750151396E0,-1.030588722E1,2.769692242E-1
3.264866426E0,-4.061816216E0,-1.043031406E1,7.944171429E-1
3.267338041E0,-4.291527271E0,-1.026281643E1,1.249651670E0
3.269809655E0,-4.353740692E0,-1.001336479E1,1.388435364E0
3.272281270E0,-4.694119930E0,-1.017188931E1,1.235294700E0
3.274752936E0,-4.718048096E0,-1.034417248E1,1.067198873E0
3.277224499E0,-5.292923450E0,-1.056909752E1,1.206580877E0
3.279696166E0,-5.551348686E0,-1.062652493E1,9.140582681E-1
3.282167780E0,-5.000401020E0,-1.056909752E1,8.949156404E-1
3.284641270E0,-4.473381996E0,-1.066540909E1,1.062413216E0
3.287112832E0,-4.521238327E0,-1.087119102E1,9.714859724E-1
3.289584499E0,-4.718048096E0,-1.111525917E1,7.752745152E-1
3.292056113E0,-4.761118889E0,-1.131685448E1,6.939185858E-1
3.294527728E0,-4.761118889E0,-1.143171024E1,7.274180651E-1
3.296999395E0,-4.885545731E0,-1.168056393E1,7.800601721E-1
3.299471009E0,-5.173282623E0,-1.175773239E1,6.699903607E-1
3.301942624E0,-5.316852093E0,-1.112483025E1,2.482553422E-1
3.304414238E0,-5.115854740E0,-1.041117096E1,5.784648657E-1
3.306885905E0,-5.076971531E0,-9.884152412E0,1.168295622E0
3.309357520E0,-4.718048096E0,-9.366703987E0,1.690529227E0
3.311829134E0,-4.234099865E0,-8.873184204E0,2.097309113E0
3.314300801E0,-3.826721668E0,-8.398807526E0,2.327618122E0
3.316769134E0,-3.036491871E0,-7.804789066E0,2.552543640E0
3.319240697E0,-2.519043922E0,-7.301698208E0,2.490330219E0
3.321712311E0,-2.959921598E0,-6.841678143E0,2.197807550E0
3.324183978E0,-3.678366661E0,-6.722036839E0,1.776670814E0
3.326655593E0,-3.941577196E0,-6.726822853E0,1.119840980E0
3.329127259E0,-4.033102512E0,-6.812964439E0,5.688936114E-1
3.331598874E0,-3.979862213E0,-7.186842918E0,1.238285750E-1
3.334070488E0,-3.237488985E0,-7.675576687E0,-4.079762697E-1
3.336542103E0,-2.030309916E0,-8.126026154E0,-8.201399446E-1
3.339013770E0,-1.479362607E0,-8.164310455E0,-1.112662554E0
3.341485384E0,-1.186840057E0,-8.202595711E0,-1.031306505E0
3.343956999E0,-1.138983607E0,-8.307880402E0,-8.057830334E-1
3.346428613E0,-1.292124271E0,-8.437092781E0,-5.952146053E-1
3.348904238E0,-1.182054400E0,-8.624331474E0,-5.186443329E-1
3.351375801E0,-1.076770186E0,-8.772686005E0,-4.660021961E-1
3.353847468E0,-1.263410330E0,-8.887541771E0,-2.165504545E-1
3.356319082E0,-1.780858278E0,-9.002396584E0,-1.555334684E-2
3.358790697E0,-2.260020971E0,-9.069993973E0,1.716850251E-1
3.361262363E0,-2.538186550E0,-9.180064201E0,2.865405083E-1
3.363733978E0,-2.657827854E0,-9.342776299E0,4.013960063E-1
3.366205593E0,-2.696112871E0,-9.424132347E0,4.205385745E-1
3.368677207E0,-2.710469961E0,-9.448060036E0,5.162515044E-1
3.371148874E0,-2.676970243E0,-9.424132347E0,6.364908218E-1
3.373620488E0,-2.466402054E0,-9.342776299E0,6.412764788E-1
3.376092103E0,-2.106880426E0,-9.280562401E0,6.891329288E-1
3.378563770E0,-1.838286042E0,-9.299705505E0,8.327022791E-1
3.380933145E0,-1.675574064E0,-9.160921097E0,8.805587292E-1
3.383404707E0,-1.508076429E0,-8.901898384E0,8.135597110E-1
3.385876322E0,-1.320838094E0,-8.839685440E0,7.848458290E-1
3.388347936E0,-1.129412293E0,-8.753543854E0,7.226324677E-1
3.390819603E0,-1.100698471E0,-8.662615776E0,6.460621357E-1
3.393291218E0,-1.038485050E0,-8.609973907E0,6.460621357E-1
3.395762832E0,-1.182054400E0,-8.566903114E0,7.322037220E-1
3.398234499E0,-1.210768223E0,-8.341380119E0,6.652047038E-1
3.400706113E0,-1.129412293E0,-8.140382767E0,6.747759581E-1
3.403177728E0,-1.944168448E0,-7.761718273E0,7.992027402E-1
3.405649343E0,-2.240878344E0,-7.354340553E0,7.752745152E-1
3.408121009E0,-2.428116798E0,-6.990631580E0,6.699903607E-1
3.410592624E0,-2.586043119E0,-6.755536556E0,5.114658475E-1
3.413157155E0,-2.696112871E0,-6.578467846E0,2.721835673E-1
3.415628718E0,-2.854039192E0,-6.583253384E0,2.195414752E-1
3.418100384E0,-3.074777126E0,-6.674180508E0,5.162515044E-1
3.420571999E0,-3.237488985E0,-6.707680225E0,1.038485050E0
3.423043666E0,-3.290131092E0,-6.798607349E0,1.335793257E0
3.425515332E0,-3.261417150E0,-6.750751019E0,1.613360643E0
3.427986947E0,-3.242274761E0,-6.856035233E0,1.824527264E0
3.430458613E0,-3.156133175E0,-6.981060028E0,1.987239242E0
3.432930228E0,-2.964707375E0,-7.129415035E0,1.929811478E0
3.435401895E0,-2.758326292E0,-7.368697166E0,1.714457393E0
3.437873509E0,-2.504687071E0,-7.603792191E0,1.354935765E0
3.440345176E0,-2.236092806E0,-7.838288784E0,9.906286001E-1
3.442816843E0,-1.901097536E0,-7.987242222E0,6.987041831E-1
3.445148145E0,-1.584646821E0,-8.001599312E0,3.631108403E-1
3.447619811E0,-1.316052437E0,-7.828717709E0,4.666004330E-2
3.450091478E0,-1.229910851E0,-7.819146156E0,5.144568533E-2
3.452563093E0,-1.124626637E0,-7.752147198E0,2.338984162E-1
3.455034759E0,-1.124626637E0,-7.718647480E0,4.588237405E-1
3.457506374E0,-1.138983607E0,-7.632505894E0,6.843472719E-1
3.459978041E0,-1.119840980E0,-7.508079052E0,8.757730722E-1
3.462449655E0,-1.162911773E0,-7.436294556E0,1.081555843E0
3.464921322E0,-1.350150228E0,-7.421339512E0,1.326221943E0
3.467392936E0,-1.484148264E0,-7.426125050E0,1.575075507E0
3.469864603E0,-1.551147223E0,-7.460222721E0,1.824527264E0
3.472336270E0,-1.646860242E0,-7.479365349E0,1.934597135E0
3.474972936E0,-1.675574064E0,-7.527221680E0,1.963310957E0
3.477444551E0,-1.776072621E0,-7.536793232E0,2.082952023E0
3.479916166E0,-1.809572101E0,-7.546364307E0,2.212164640E0
3.482387832E0,-1.843071699E0,-7.632505894E0,2.164308071E0
3.484859447E0,-1.833500385E0,-7.685148239E0,2.073380709E0
3.487331113E0,-1.809572101E0,-7.756932735E0,2.082952023E0
3.489802780E0,-1.847857237E0,-7.776075363E0,1.987239242E0
3.492274395E0,-1.828714728E0,-7.814360619E0,1.781456470E0
3.494746061E0,-1.790429592E0,-7.819146156E0,1.613360643E0
3.497217676E0,-1.718644857E0,-7.780860901E0,1.512862086E0
3.499689343E0,-1.632503271E0,-7.737790108E0,1.302293777E0
3.502161009E0,-1.579861164E0,-7.709076405E0,1.014556766E0
3.504632624E0,-1.584646821E0,-7.723433495E0,8.949156404E-1
3.507091634E0,-1.527219057E0,-7.728219032E0,9.284151793E-1
3.509563249E0,-1.421934843E0,-7.661220074E0,8.183453679E-1
3.512034863E0,-1.301695466E0,-7.575078487E0,7.274180651E-1
3.514506530E0,-1.210768223E0,-7.498507977E0,6.119644046E-1
3.516978145E0,-1.091127157E0,-7.397411346E0,5.449653864E-1
3.519449811E0,-9.906286001E-1,-7.349554539E0,4.301098585E-1
3.521921478E0,-8.805587292E-1,-7.249056339E0,3.822534084E-1
3.524393093E0,-8.518448472E-1,-7.234699249E0,3.678964674E-1
3.526864759E0,-8.327022791E-1,-7.210771084E0,3.200400174E-1
3.529336374E0,-7.028916478E-1,-7.272984505E0,2.673979402E-1
3.531808041E0,-6.885347366E-1,-7.325626373E0,1.860419661E-1
3.534279707E0,-7.076773047E-1,-7.330412388E0,9.032905847E-2
3.536751322E0,-6.119644046E-1,-7.344769001E0,-7.298108935E-2
3.539226895E0,-5.880361795E-1,-7.416553974E0,-2.213360965E-1
3.541698457E0,-6.119644046E-1,-7.450651646E0,-3.792623878E-1
3.544170124E0,-5.401797295E-1,-7.387839794E0,-3.361915946E-1
3.546641791E0,-4.588237405E-1,-7.387839794E0,-3.074777126E-1
3.549113405E0,-3.248256743E-1,-7.282555580E0,-3.696911037E-1
3.551585072E0,-2.913261652E-1,-7.110272408E0,-5.186443329E-1
3.554056738E0,-2.572284341E-1,-6.947560310E0,-6.478567123E-1
3.556528353E0,-2.620140910E-1,-6.722036839E0,-6.909275651E-1
3.559000020E0,-2.620140910E-1,-6.602396011E0,-6.717849374E-1
3.561471634E0,-2.380858511E-1,-6.477969170E0,-7.435696125E-1
3.563943301E0,-2.817548811E-1,-6.352943897E0,-7.004988194E-1
3.566414968E0,-3.583251834E-1,-6.281159401E0,-6.143572330E-1
3.568886582E0,-4.061816335E-1,-6.290730953E0,-3.744767308E-1
3.571363718E0,-4.923232496E-1,-6.247660160E0,-5.982056726E-3
3.573835332E0,-4.827519655E-1,-6.238088608E0,6.508477330E-1
3.576306947E0,-5.353940725E-1,-6.300302029E0,1.508076429E0
3.578778613E0,-5.784648657E-1,-6.363113403E0,2.389831543E0
3.581250228E0,-6.598208547E-1,-6.382256031E0,3.256631613E0
3.583721895E0,-6.885347366E-1,-6.348158360E0,4.080958843E0
3.586193561E0,-7.411768436E-1,-6.195017815E0,4.775475979E0
3.588665176E0,-7.124629617E-1,-5.898307800E0,5.216353416E0
3.591136791E0,-7.794619799E-1,-5.529214859E0,5.350351334E0
3.593608457E0,-9.236295223E-1,-5.212764263E0,5.015356064E0
3.596080124E0,-1.086341500E0,-4.939982414E0,4.517050743E0
3.598551791E0,-1.249053478E0,-4.791627407E0,3.879961967E0
3.601023405E0,-1.220339537E0,-4.676173687E0,3.203989506E0
3.603495332E0,-1.153340459E0,-4.618745804E0,2.600399971E0
3.605966947E0,-1.277767301E0,-4.570889473E0,1.905883193E0
3.608438561E0,-1.335195065E0,-4.623531342E0,1.292722464E0
3.610910228E0,-1.354935765E0,-4.647459984E0,6.556333899E-1
3.613381843E0,-1.460219979E0,-4.609174728E0,1.716850251E-1
3.615853509E0,-1.484148264E0,-4.724030018E0,-1.208375469E-1
3.618325176E0,-1.555932879E0,-4.733601570E0,-5.090730190E-1
3.620796791E0,-1.670788407E0,-4.901697159E0,-9.158528447E-1
3.623268457E0,-1.847857237E0,-5.227120876E0,-1.294517040E0
3.625740072E0,-1.838286042E0,-5.481358528E0,-9.828519225E-1
3.628211738E0,-1.847857237E0,-5.749354839E0,-5.952146053E-1
3.630683405E0,-2.059023857E0,-6.051448345E0,-6.143572330E-1
3.633155020E0,-2.154736757E0,-6.348158360E0,-2.787638307E-1
3.635623249E0,-2.140379906E0,-6.769893646E0,2.578266263E-1
3.638094863E0,-2.087737799E0,-7.373483181E0,7.130611539E-1
3.640566478E0,-2.044667006E0,-8.135597229E0,1.153938770E0
3.643038145E0,-2.097309113E0,-9.180064201E0,1.781456470E0
3.645509759E0,-2.307877541E0,-1.057388306E1,3.007778168E0
3.647981426E0,-2.633899450E0,-1.146042442E1,4.507479668E0
3.650453093E0,-2.480758905E0,-1.197308636E1,5.211567879E0
3.652924707E0,-2.293520451E0,-1.257188988E1,5.762515068E0
3.655396374E0,-1.814357758E0,-1.340100288E1,6.759125710E0
3.657867988E0,-1.014556766E0,-1.546122360E1,6.131608009E0
3.660339655E0,-6.741777658E-1,-1.954756546E1,3.448655605E0
3.662811322E0,7.579265833E-1,-2.543570518E1,2.178664923E0
3.665282936E0,2.516651154E0,-3.154458046E1,1.781456470E0
3.667751009E0,3.244667530E0,-3.740879059E1,1.129412293E0
3.670222624E0,3.723830223E0,-4.271188354E1,9.571290612E-1
3.672694238E0,3.690330744E0,-4.636751938E1,4.666004330E-2
3.675165905E0,3.388236761E0,-4.858566666E1,-7.244270444E-1
3.677637520E0,3.316452265E0,-4.900261307E1,-1.462014675E0
3.680109186E0,1.903490424E0,-4.616173553E1,-2.104487419E0
3.682580853E0,-1.071984529E0,-3.868775558E1,-3.057429075E0
3.685052468E0,-3.577867985E0,-3.007359314E1,-3.843471289E0
3.687524134E0,-5.111069202E0,-2.255175591E1,-4.375276089E0
3.689995749E0,-5.642873764E0,-1.639980888E1,-4.768297195E0
3.692467416E0,-5.546562672E0,-1.168534946E1,-4.916652203E0
3.694939082E0,-4.933402061E0,-8.197810173E0,-4.490131855E0
3.697410697E0,-3.979862213E0,-5.538786411E0,-3.450450182E0
3.699888926E0,-2.806182861E0,-3.708875179E0,-2.099701881E0
3.702360541E0,-1.484148264E0,-2.755335331E0,-5.377869010E-1
3.704832155E0,-1.710868180E-1,-2.640479803E0,9.284151793E-1
3.707303822E0,1.060020447E0,-3.205784082E0,2.361117840E0
3.709775436E0,2.200200319E0,-4.283750534E0,3.410370588E0
3.712247103E0,3.316452265E0,-5.778068542E0,4.219742775E0
3.714718770E0,4.427918434E0,-7.349554539E0,4.910071850E0
3.717190384E0,5.405386448E0,-8.691329956E0,5.393422127E0
3.719662051E0,5.745765209E0,-9.831509590E0,5.044070244E0
3.722133666E0,5.577669621E0,-1.058345413E1,3.966103554E0
3.724605332E0,4.974080086E0,-1.097169018E1,2.619542599E0
3.727076999E0,4.260420799E0,-1.092861938E1,1.431506157E0
3.729548613E0,3.594617844E0,-1.069412231E1,4.396811724E-1
3.731986634E0,3.096312523E0,-1.045424175E1,-2.931207716E-1
3.734458197E0,2.688934565E0,-1.017667484E1,-8.632107973E-1
3.736929863E0,2.358126640E0,-1.009950638E1,-1.198804140E0
3.739401478E0,2.032702923E0,-1.009472084E1,-1.222732425E0
3.741873145E0,1.730608940E0,-1.011924744E1,-9.158528447E-1
3.744344811E0,1.486541033E0,-1.011924744E1,-4.271188378E-1
3.746816426E0,1.131805062E0,-1.003729248E1,9.032905847E-2
3.749288093E0,7.339983582E-1,-9.908080101E0,5.688936114E-1
3.751759707E0,3.128615618E-1,-9.750154495E0,9.906286001E-1
3.754231374E0,-4.666004330E-2,-9.625727654E0,1.378864050E0
3.756702988E0,-3.296113312E-1,-9.476774216E0,1.738385677E0
3.759174655E0,-5.449653864E-1,-9.486345291E0,1.891526341E0
3.761646270E0,-6.167500615E-1,-9.515059471E0,2.116451740E0
3.764150384E0,-6.454638839E-1,-9.597013474E0,2.173879385E0
3.766621999E0,-5.784648657E-1,-9.620942116E0,2.126022816E0
3.769093613E0,-3.631108403E-1,-9.683155060E0,1.958525300E0
3.771565280E0,-1.758724600E-1,-9.812367439E0,1.791027784E0
3.774036895E0,1.076770201E-2,-9.860223770E0,1.599003673E0
3.776508561E0,1.734796464E-1,-9.869794846E0,1.469791293E0
3.778980228E0,2.745763958E-1,-9.893723488E0,1.388435364E0
3.781451843E0,3.559323549E-1,-9.908080101E0,1.278365493E0
3.783923509E0,4.133601189E-1,-9.888937950E0,1.249651670E0
3.786395124E0,4.899304509E-1,-9.812367439E0,1.316650629E0
3.788866791E0,6.095715761E-1,-9.802796364E0,1.340578914E0
3.791338457E0,7.818548083E-1,-9.836296082E0,1.354935765E0
3.793810072E0,9.643075466E-1,-1.001336479E1,1.297508121E0
3.796251374E0,1.093519926E0,-1.007557774E1,1.249651670E0
3.798722988E0,1.136590719E0,-1.014796066E1,1.268794179E0
3.801194603E0,1.237089276E0,-1.017188931E1,1.254437327E0
3.803666270E0,1.299302697E0,-1.016231823E1,1.273579836E0
3.806137884E0,1.357328653E0,-1.011446095E1,1.216152072E0
3.808609551E0,1.376471281E0,-1.008514881E1,1.119840980E0
3.811081218E0,1.347757339E0,-1.007557774E1,1.014556766E0
3.813552832E0,1.457827210E0,-1.001336479E1,9.571290612E-1
3.816024499E0,1.453041553E0,-9.936794281E0,9.140582681E-1
3.818496113E0,1.390828133E0,-9.836296082E0,8.757730722E-1
3.820967780E0,1.323230863E0,-9.793225288E0,8.949156404E-1
3.823439447E0,1.217946768E0,-9.759725571E0,9.954141974E-1
3.825911061E0,1.198804140E0,-9.812367439E0,9.140582681E-1
3.828412780E0,1.141376376E0,-9.927223206E0,8.422735929E-1
3.830884395E0,1.040877819E0,-9.979865074E0,8.087740541E-1
3.833356009E0,9.882357717E-1,-9.970293999E0,7.704889178E-1
3.835827676E0,9.260223508E-1,-1.000379372E1,8.135597110E-1
3.838299291E0,8.063812256E-1,-1.002772141E1,8.853443861E-1
3.840770957E0,7.435696125E-1,-1.004686451E1,8.662018180E-1
3.843242624E0,7.196413875E-1,-9.984650612E0,8.518448472E-1
3.845714238E0,6.334998012E-1,-9.960722923E0,8.614161611E-1
3.848185905E0,6.287141442E-1,-9.975079536E0,8.374879360E-1
3.850657520E0,6.813562512E-1,-9.927223206E0,8.231309652E-1
3.853129186E0,6.813562512E-1,-9.879366875E0,8.135597110E-1
3.855600853E0,6.909275651E-1,-9.841081619E0,7.896314859E-1
3.858072468E0,7.244270444E-1,-9.836296082E0,7.657032609E-1
3.860392988E0,7.674978375E-1,-9.912865639E0,7.848458290E-1
3.862864551E0,7.483552694E-1,-9.836296082E0,7.082754970E-1
3.865336218E0,7.627122402E-1,-9.750154495E0,6.412764788E-1
3.867807832E0,7.579265833E-1,-9.726225853E0,6.556333899E-1
3.870279499E0,7.483552694E-1,-9.649655342E0,5.545366406E-1
3.872751166E0,7.052844763E-1,-9.687940598E0,4.301098585E-1
3.875222780E0,7.674978375E-1,-9.735796928E0,3.296113312E-1
3.877694447E0,8.207381964E-1,-9.711869240E0,3.248256743E-1
3.880166061E0,8.829515576E-1,-9.692726135E0,3.391826153E-1
3.882637728E0,1.002592683E0,-9.707083702E0,4.157529473E-1
3.885109343E0,1.093519926E0,-9.726225853E0,4.779663086E-1
3.887581009E0,1.194018483E0,-9.654440880E0,5.545366406E-1
3.890052676E0,1.174875975E0,-9.328418732E0,9.667003751E-1
3.892619291E0,1.146162033E0,-9.026325226E0,1.321436286E0
3.895090853E0,1.088734269E0,-9.452845573E0,8.949156404E-1
3.897562520E0,1.189232826E0,-9.812367439E0,4.923232496E-1
3.900046634E0,1.338186026E0,-9.865009308E0,5.545366406E-1
3.902530697E0,1.386042476E0,-9.893723488E0,5.736792088E-1
3.905002311E0,1.332802176E0,-9.960722923E0,5.018945336E-1
3.907473978E0,1.304088354E0,-9.927223206E0,4.396811724E-1
3.909945593E0,1.141376376E0,-9.922437668E0,4.205385745E-1
3.912417259E0,9.164510965E-1,-9.912865639E0,3.104687333E-1
3.914888874E0,7.722834945E-1,-9.769296646E0,6.269195080E-1
3.917360541E0,7.004988194E-1,-9.865009308E0,8.279166222E-1
3.919832155E0,7.148557901E-1,-9.874580383E0,1.024128079E0
3.922303822E0,6.957131624E-1,-9.975079536E0,1.115055323E0
3.924775436E0,6.765705943E-1,-1.010488987E1,1.192223907E0
3.927247155E0,7.579265833E-1,-1.004686451E1,1.350150228E0
3.929718770E0,7.483552694E-1,-1.005165005E1,1.493719578E0
3.932091947E0,6.143572330E-1,-1.014796066E1,1.326221943E0
3.934563509E0,4.755735099E-1,-1.014317513E1,1.345364571E0
3.937035176E0,4.085744619E-1,-9.912865639E0,1.670788407E0
3.939506843E0,3.415754437E-1,-9.793225288E0,1.824527264E0
3.941978457E0,2.985046208E-1,-9.798010826E0,1.622931957E0
3.944450072E0,2.404786795E-1,-9.668798447E0,1.771885157E0
3.946921738E0,1.686939895E-1,-9.707083702E0,1.532004714E0
3.949393353E0,1.686939895E-1,-9.831509590E0,1.326221943E0
3.951865020E0,2.261217386E-1,-9.845867157E0,1.307079315E0
3.954336686E0,3.128615618E-1,-9.922437668E0,1.283151150E0
3.956808301E0,3.655036688E-1,-9.893723488E0,1.307079315E0
3.959279968E0,3.990031779E-1,-9.754940033E0,1.407577872E0
3.961748666E0,4.564309120E-1,-9.707083702E0,1.354935765E0
3.964220280E0,4.325026870E-1,-9.879366875E0,1.100698471E0
3.966691999E0,3.655036688E-1,-9.922437668E0,9.475577474E-1
3.969163613E0,4.803591371E-1,-9.874580383E0,1.038485050E0
3.971635228E0,5.808576941E-1,-9.778867722E0,1.143769264E0
3.974106895E0,6.000002623E-1,-9.759725571E0,1.110269666E0
3.976578561E0,5.665007830E-1,-9.841081619E0,1.052842021E0
3.979050176E0,5.425725579E-1,-9.936794281E0,8.853443861E-1
3.981521843E0,5.760720372E-1,-9.865009308E0,9.379864931E-1
3.983993457E0,6.095715761E-1,-9.879366875E0,8.518448472E-1
3.986465124E0,7.004988194E-1,-9.831509590E0,8.757730722E-1
3.988936791E0,6.574280262E-1,-9.946365356E0,7.704889178E-1
3.991400436E0,6.574280262E-1,-1.000857925E1,7.034898400E-1
3.993871999E0,7.148557901E-1,-9.984650612E0,7.752745152E-1
3.996343666E0,7.148557901E-1,-1.008036327E1,5.976074338E-1
3.998815280E0,6.765705943E-1,-1.005165005E1,5.736792088E-1
4.001286947E0,6.717849374E-1,-9.951150894E0,7.082754970E-1
4.003758561E0,6.909275651E-1,-9.869794846E0,8.327022791E-1
4.006230280E0,7.052844763E-1,-9.850652695E0,9.379864931E-1
4.008701895E0,7.531409264E-1,-9.908080101E0,8.614161611E-1
4.011173509E0,7.818548083E-1,-1.002772141E1,8.087740541E-1
4.013645176E0,7.483552694E-1,-9.807581902E0,7.609176040E-1
4.016116843E0,1.217946768E0,-9.495916367E0,5.545366406E-1
4.018588457E0,1.917847395E0,-8.542975426E0,8.087740541E-1
4.021060124E0,1.472184181E0,-6.889534473E0,5.928218365E-1
4.023531738E0,1.036092162E0,-6.089733601E0,3.870390654E-1
4.026003405E0,1.007378340E0,-6.262016773E0,2.721835673E-1
4.028434030E0,9.020941257E-1,-6.851249218E0,2.961117923E-1
4.030905697E0,7.674978375E-1,-7.608577728E0,2.721835673E-1
4.033377311E0,6.000002623E-1,-8.398807526E0,2.961117923E-1
4.035848978E0,4.372883439E-1,-9.242277145E0,2.530409992E-1
4.038320593E0,2.937189937E-1,-9.903294563E0,2.673979402E-1
4.040792207E0,1.112662554E-1,-1.031067276E1,2.626122832E-1
4.043263874E0,-4.666004330E-2,-1.061695385E1,2.482553422E-1
4.045735541E0,-2.189432681E-1,-1.085683441E1,2.434697002E-1
4.048207155E0,-3.487538993E-1,-1.116790104E1,2.195414752E-1
4.050678822E0,-4.971089065E-1,-1.150349522E1,3.343969584E-1
4.053150488E0,-7.651050687E-1,-1.103868866E1,5.066801906E-1
4.055622103E0,-9.810572863E-1,-1.061695385E1,3.535395563E-1
4.058093770E0,-9.523434043E-1,-1.034895802E1,4.396811724E-1
4.060594811E0,-1.024128079E0,-9.817152977E0,6.508477330E-1
4.063066374E0,-1.378864050E0,-9.683155060E0,8.327022791E-1
4.065538041E0,-1.484148264E0,-9.879366875E0,1.048056364E0
4.068009655E0,-1.335195065E0,-1.003729248E1,1.321436286E0
4.070481322E0,-9.475577474E-1,-1.013838959E1,1.460219979E0
4.072952988E0,-5.688936114E-1,-1.011446095E1,1.551147223E0
4.075424603E0,-1.950150430E-1,-1.000379372E1,1.551147223E0
4.077896218E0,3.032902777E-1,-9.817152977E0,1.412363529E0
4.080367884E0,7.674978375E-1,-9.702297211E0,1.292722464E0
4.082839499E0,1.232303619E0,-9.687940598E0,1.067198873E0
4.085311166E0,1.692323804E0,-9.817152977E0,8.662018180E-1
4.087782832E0,2.070987940E0,-9.970293999E0,7.561319470E-1
4.090271270E0,2.430509567E0,-1.013838959E1,6.604190469E-1
4.092742884E0,2.794218540E0,-1.030110168E1,5.018945336E-1
4.095214499E0,3.019742250E0,-1.032981491E1,3.822534084E-1
4.097686166E0,3.230310678E0,-1.033460140E1,3.583251834E-1
4.100157832E0,3.388236761E0,-1.030588722E1,3.822534084E-1
4.102629499E0,3.508476257E0,-1.023410225E1,4.301098585E-1
4.105101113E0,3.618546009E0,-1.029631615E1,4.492524564E-1
4.107572728E0,3.757329702E0,-1.039681435E1,5.928218365E-1
4.110044395E0,3.795614958E0,-1.028674412E1,6.747759581E-1
4.112516009E0,3.738187075E0,-1.022453117E1,7.130611539E-1
4.114987728E0,3.474378586E0,-1.014317513E1,8.135597110E-1
4.117459343E0,3.196810961E0,-1.001336479E1,8.757730722E-1
4.119930957E0,3.058027267E0,-9.970293999E0,1.038485050E0
4.122402624E0,3.096312523E0,-1.008514881E1,1.302293777E0
4.124874238E0,2.928216696E0,-1.016231823E1,1.350150228E0
4.127314916E0,2.741576433E0,-1.013360405E1,1.354935765E0
4.129786478E0,2.588435888E0,-1.012403297E1,1.359721422E0
4.132258145E0,2.478366137E0,-1.005643559E1,1.273579836E0
4.134729811E0,2.286342144E0,-9.908080101E0,9.762716293E-1
4.137201426E0,2.401197433E0,-1.005643559E1,1.201795220E0
4.139673093E0,2.416152716E0,-1.001336479E1,1.273579836E0
4.142144707E0,2.338984251E0,-9.941579819E0,1.158724308E0
4.144616374E0,2.348555326E0,-9.865009308E0,1.028913736E0
4.147088041E0,2.377269268E0,-9.831509590E0,9.571290612E-1
4.149559655E0,2.214557409E0,-9.735796928E0,6.795616150E-1
4.152031270E0,2.497508526E0,-9.817152977E0,8.949156404E-1
4.154502936E0,2.521436930E0,-9.879366875E0,9.427721500E-1
4.156974603E0,2.425724030E0,-9.888937950E0,8.470591903E-1
4.159446270E0,2.430509567E0,-9.855438232E0,7.322037220E-1
4.161917884E0,2.377269268E0,-9.750154495E0,6.071787477E-1
4.164392207E0,2.362912416E0,-9.678369522E0,5.497509837E-1
4.166863822E0,2.233700037E0,-9.620942116E0,5.018945336E-1
4.169335541E0,1.917847395E0,-9.534201622E0,8.075776696E-2
4.171807155E0,1.922633052E0,-9.409774780E0,1.812563092E-1
4.174278770E0,1.908276081E0,-9.347561836E0,3.391826153E-1
4.176750436E0,1.721037745E0,-9.481559753E0,3.230310604E-2
4.179222051E0,9.547362328E-1,-9.754940033E0,-1.064806059E-1
4.181693770E0,1.543370634E-1,-9.860223770E0,-1.926222295E-1
4.184165384E0,-1.328016520E-1,-1.006122112E1,-4.426721856E-2
4.186636999E0,1.076770201E-2,-1.038245773E1,2.578266263E-1
4.189108666E0,4.516452849E-1,-1.065105152E1,5.401797295E-1
4.191580280E0,1.088734269E0,-1.086640549E1,8.614161611E-1
4.194051947E0,1.658824325E0,-1.114397335E1,1.216152072E0
4.196553926E0,2.224128723E0,-1.128814125E1,1.436291814E0
4.199025541E0,2.641077995E0,-1.128814125E1,1.555932879E0
4.201497155E0,2.991028309E0,-1.122114182E1,1.488933921E0
4.203968822E0,3.206382275E0,-1.101476097E1,1.331007600E0
4.206440488E0,3.354737282E0,-1.078026390E1,1.206580877E0
4.208912103E0,3.575475216E0,-1.051645565E1,1.345364571E0
4.211383718E0,3.805186272E0,-1.029631615E1,1.264008522E0
4.213855436E0,3.963112593E0,-1.004686451E1,9.906286001E-1
4.216327051E0,4.231706619E0,-9.917651176E0,8.709874153E-1
4.218798718E0,4.351347923E0,-9.946365356E0,7.944171429E-1
4.221270332E0,4.365705013E0,-1.002293587E1,5.210371017E-1
4.223741999E0,4.265206337E0,-9.888937950E0,2.099701911E-1
4.226213613E0,4.174279213E0,-9.740582466E0,-4.905286431E-2
4.228685228E0,4.351347923E0,-9.802796364E0,-3.948157281E-2
4.231145905E0,4.547559261E0,-9.960722923E0,1.716850251E-1
4.233617468E0,4.537988186E0,-1.010488987E1,1.860419661E-1
4.236089134E0,4.432703972E0,-1.009950638E1,7.537391037E-2
4.238560749E0,4.389633179E0,-9.912865639E0,-1.351944804E-1
4.241032416E0,4.663012981E0,-9.979865074E0,1.094716340E-1
4.243504030E0,4.715655327E0,-1.025803089E1,4.396811724E-1
4.245975749E0,4.375276089E0,-1.028195858E1,4.061816335E-1
4.248447363E0,3.958326817E0,-1.008993530E1,3.200400174E-1
4.250918978E0,3.695116282E0,-9.999007225E0,1.333998591E-1
4.253390645E0,3.666402578E0,-9.874580383E0,-1.076770201E-2
4.255862311E0,3.733401537E0,-9.821938515E0,-4.905286431E-2
4.258333926E0,3.924827337E0,-9.764511108E0,7.058826834E-2
4.260818561E0,4.073780537E0,-9.659226418E0,1.477568001E-1
4.263290176E0,4.293920040E0,-9.443274498E0,2.769692242E-1
4.265761791E0,4.844867706E0,-9.721440315E0,6.269195080E-1
4.268233457E0,4.883152962E0,-9.970293999E0,6.269195080E-1
4.270705124E0,4.518845558E0,-9.898509026E0,4.253242314E-1
4.273176738E0,4.260420799E0,-9.754940033E0,3.296113312E-1
4.275648405E0,4.174279213E0,-9.592227936E0,4.923232496E-1
4.278120020E0,4.207778454E0,-9.452845573E0,5.976074338E-1
4.280591634E0,4.217350006E0,-9.309276581E0,6.221339107E-1
4.283063301E0,4.265206337E0,-9.213563919E0,6.412764788E-1
4.285534968E0,4.351347923E0,-9.237491608E0,6.269195080E-1
4.288006582E0,4.284348965E0,-9.084351540E0,6.023930907E-1
4.290478249E0,4.183850288E0,-9.016754150E0,5.688936114E-1
4.293062936E0,4.107280254E0,-8.978468895E0,5.736792088E-1
4.295534551E0,4.021138668E0,-9.011968613E0,4.636093974E-1
4.298006166E0,4.054637909E0,-8.968897820E0,4.731806815E-1
4.300477832E0,3.982254982E0,-9.002396584E0,4.492524564E-1
4.302949447E0,3.843471289E0,-8.810971260E0,2.482553422E-1
4.305421113E0,3.953541279E0,-8.653044701E0,3.200400174E-1
4.307892780E0,4.126422882E0,-8.691329956E0,6.747759581E-1
4.310364395E0,3.910470486E0,-7.895716667E0,9.236295223E-1
4.312836009E0,4.725226402E0,-8.126026154E0,2.865405083E-1
4.315307676E0,5.424529076E0,-9.156135559E0,-4.223332107E-1
4.317779291E0,5.395814896E0,-9.774082184E0,-9.978070259E-1
4.320250957E0,4.686941147E0,-9.946365356E0,-1.294517040E0
4.322722624E0,3.891327858E0,-9.807581902E0,-1.356730461E0
4.325194238E0,3.249453068E0,-9.726225853E0,-1.299302697E0
4.327665905E0,2.559721947E0,-9.290133476E0,-8.249256015E-1
4.329993509E0,2.420938253E0,-8.925827026E0,-4.079762697E-1
4.332465072E0,2.808575630E0,-8.849256516E0,-2.500499785E-1
4.334936738E0,2.928216696E0,-9.290133476E0,-4.851447940E-1
4.337408353E0,3.244667530E0,-9.529416084E0,-6.622136831E-1
4.339880020E0,3.766901016E0,-9.409774780E0,-9.212367237E-2
4.342351634E0,3.819543123E0,-9.366703987E0,6.101697683E-2
4.344823301E0,3.675973892E0,-9.237491608E0,4.666004330E-2
4.347294968E0,3.460021496E0,-9.203991890E0,6.101697683E-2
4.349766634E0,3.206382275E0,-9.256634712E0,-4.426721856E-2
4.352238249E0,2.952743053E0,-9.352347374E0,-1.351944804E-1
4.354709916E0,2.679363251E0,-9.400203705E0,-2.261217386E-1
4.357181530E0,2.650649309E0,-9.519845009E0,-8.733802289E-2
4.359653197E0,2.578864574E0,-9.630513191E0,-2.512463741E-2
4.362134134E0,2.569293261E0,-9.764511108E0,3.230310604E-2
4.364605645E0,2.540579557E0,-9.740582466E0,1.477568001E-1
4.367077363E0,2.521436930E0,-9.759725571E0,2.865405083E-1
4.369548978E0,2.416152716E0,-9.874580383E0,2.291127741E-1
4.372020645E0,2.181057930E0,-9.831509590E0,2.195414752E-1
4.374492259E0,2.090130568E0,-9.855438232E0,2.003988922E-1
4.376963926E0,1.956132531E0,-9.865009308E0,2.099701911E-1
4.379435593E0,1.835893154E0,-9.831509590E0,1.716850251E-1
4.381907207E0,1.749751568E0,-9.683155060E0,9.511470050E-2
4.384378874E0,1.744965911E0,-9.538987160E0,5.623133108E-2
4.386850488E0,1.936989903E0,-9.486345291E0,-5.982056726E-3
4.389322155E0,2.047059774E0,-9.381061554E0,-1.495514214E-1
4.391793822E0,2.267199516E0,-9.309276581E0,-4.223332107E-1
4.394393666E0,2.435295343E0,-9.199206352E0,-7.052844763E-1
4.396865228E0,2.554936409E0,-9.180064201E0,-1.060020447E0
4.399336895E0,2.808575630E0,-9.213563919E0,-1.342373490E0
4.401808509E0,3.292523861E0,-9.242277145E0,-1.117448211E0
4.404280176E0,3.513261795E0,-9.582656860E0,-1.141376376E0
4.406751791E0,3.541975737E0,-9.898509026E0,-1.294517040E0
4.409223457E0,3.455235958E0,-1.007079220E1,-1.198804140E0
4.411695124E0,3.211168051E0,-1.011924744E1,-1.122233868E0
4.414166738E0,2.976671457E0,-1.017667484E1,-1.328016520E0
4.416638405E0,2.856431961E0,-1.020060253E1,-1.261017561E0
4.419110020E0,2.755933523E0,-1.035852909E1,-1.021735311E0
4.421581686E0,2.554936409E0,-1.031067276E1,-8.679963946E-1
4.424053353E0,2.372483730E0,-1.029153061E1,-2.176272154E0
4.426548093E0,2.736790895E0,-1.073240757E1,-2.985644341E0
4.429019707E0,1.692323804E0,-1.148435211E1,-1.974676847E0
4.431491374E0,1.141376376E0,-1.133599758E1,-1.587039590E0
4.433963041E0,1.424327731E0,-1.092861938E1,-1.093519926E0
4.436434707E0,1.529611826E0,-1.088554859E1,-7.339983582E-1
4.438906374E0,1.567897081E0,-1.102911758E1,-5.760720372E-1
4.441378093E0,1.639681697E0,-1.105783176E1,-5.186443329E-1
4.443849759E0,1.864607096E0,-1.105783176E1,-3.170489967E-1
4.446321426E0,1.956132531E0,-1.110090256E1,-3.936193287E-1
4.448793093E0,1.889133453E0,-1.115832996E1,-9.978070259E-1
4.451264759E0,2.008774519E0,-1.106740284E1,-1.673181176E0
4.453736426E0,2.545365095E0,-1.112004471E1,-1.596610904E0
4.456208093E0,2.736790895E0,-1.117807102E1,-1.452443361E0
4.458679811E0,3.120240688E0,-1.113440228E1,-1.783251047E0
4.461151426E0,3.335594654E0,-1.102911758E1,-2.123630047E0
4.463623093E0,3.561118364E0,-1.081376362E1,-2.511267424E0
4.466094759E0,3.029313564E0,-1.038724327E1,-2.956930637E0
4.468566426E0,3.402593851E0,-1.036810017E1,-3.211168051E0
4.471038093E0,4.600799561E0,-1.037767220E1,-2.157129526E0
4.473509811E0,4.998008251E0,-1.026760197E1,-1.658824325E0
4.475981478E0,5.300102234E0,-1.016710377E1,-1.902892232E0
4.478453145E0,5.419743061E0,-1.000857925E1,-1.974676847E0
4.480924811E0,5.472385406E0,-9.740582466E0,-1.926820397E0
4.483396478E0,5.510670662E0,-9.491130829E0,-1.596610904E0
4.485868145E0,5.520241737E0,-9.357132912E0,-1.098305583E0
4.488339811E0,5.257031441E0,-9.347561836E0,-1.280160069E0
4.490809916E0,4.844867706E0,-9.462417603E0,-1.831107497E0
4.493281530E0,4.485345840E0,-9.381061554E0,-1.984248161E0
4.495753197E0,3.661616802E0,-9.036494255E0,-2.621935368E0
4.498224863E0,3.436093330E0,-9.060422897E0,-3.330809116E0
4.500696530E0,3.843471289E0,-9.299705505E0,-2.382055044E0
4.503168197E0,3.891327858E0,-9.428917885E0,-1.692323804E0
4.505639916E0,4.092923164E0,-9.649655342E0,-1.539183140E0
4.508111582E0,4.528416634E0,-9.936794281E0,-7.100701332E-1
4.510583249E0,4.653441906E0,-1.001336479E1,-2.644068897E-1
4.513054916E0,4.504488468E0,-9.975079536E0,-7.435696125E-1
4.515526582E0,4.212564468E0,-9.879366875E0,-1.141376376E0
4.517998249E0,4.078566074E0,-9.754940033E0,-1.141376376E0
4.520469916E0,3.886542082E0,-9.687940598E0,-1.160519004E0
4.522794186E0,4.035495281E0,-9.754940033E0,-4.755735099E-1
4.525265853E0,4.207778454E0,-9.860223770E0,-2.500499785E-1
4.527737520E0,4.289134502E0,-1.002293587E1,-5.282155871E-1
4.530209186E0,4.183850288E0,-9.955936432E0,-6.717849374E-1
4.532680853E0,3.948755503E0,-9.860223770E0,-8.201399446E-1
4.535152520E0,3.790829182E0,-9.855438232E0,-1.064806104E0
4.537624186E0,3.192025423E0,-9.745368004E0,-1.701895118E0
4.540095853E0,3.249453068E0,-9.750154495E0,-1.466800332E0
4.542567520E0,3.656831264E0,-1.000379372E1,-8.536394835E-1
4.545039238E0,3.728615999E0,-1.010967541E1,-9.110672474E-1
4.547510853E0,3.805186272E0,-1.014796066E1,-1.002592683E0
4.549982572E0,3.628117323E0,-1.010488987E1,-1.150947690E0
4.552588457E0,3.460021496E0,-9.951150894E0,-1.160519004E0
4.555060124E0,3.263810158E0,-9.865009308E0,-1.261017561E0
4.557531791E0,3.134597778E0,-9.898509026E0,-1.318445325E0
4.560003457E0,2.846860647E0,-9.879366875E0,-1.375872970E0
4.562475124E0,1.783251047E0,-9.635298729E0,-2.329412937E0
4.564946791E0,2.061416626E0,-9.735796928E0,-1.457229018E0
4.567418457E0,2.070987940E0,-9.855438232E0,-8.153542876E-1
4.569890124E0,2.416152716E0,-9.912865639E0,-5.473581553E-1
4.572361791E0,2.430509567E0,-9.893723488E0,-6.430711150E-1
4.574833457E0,2.209771633E0,-9.821938515E0,-8.488538265E-1
4.577305124E0,2.037488461E0,-9.716654778E0,-1.002592683E0
4.579776843E0,1.898704767E0,-9.745368004E0,-1.222732425E0
4.582248509E0,1.797608018E0,-9.769296646E0,-1.313659668E0
4.584696113E0,1.615753531E0,-9.745368004E0,-1.505085468E0
4.587167780E0,6.622136831E-1,-9.462417603E0,-2.429911375E0
4.589639447E0,1.160519004E0,-9.831509590E0,-1.754537225E0
4.592111113E0,1.759322882E0,-1.032024384E1,-1.122233868E0
4.594582780E0,2.075773716E0,-1.050688457E1,-1.146162033E0
4.597054447E0,2.343769789E0,-1.062173939E1,-1.088734269E0
4.599526113E0,2.444866419E0,-1.071805096E1,-1.179661512E0
4.601997780E0,2.449652195E0,-1.077069283E1,-1.375872970E0
4.604469447E0,2.416152716E0,-1.079462147E1,-1.490728498E0
4.606941113E0,2.425724030E0,-1.094297600E1,-1.462014675E0
4.609412780E0,2.233700037E0,-1.084726334E1,-1.553540111E0
4.611884499E0,9.930213690E-1,-1.032502937E1,-2.712862730E0
4.614356166E0,1.591825247E0,-1.061216831E1,-1.941177368E0
4.616854759E0,2.464009047E0,-1.109611702E1,-9.206385016E-1
4.619326374E0,2.684148788E0,-1.120678520E1,-8.488538265E-1
4.621798041E0,2.631506681E0,-1.104347515E1,-1.055234790E0
4.624269707E0,2.473580360E0,-1.093340492E1,-1.299302697E0
4.626741374E0,2.343769789E0,-1.074197865E1,-1.471585870E0
4.629213041E0,2.248056889E0,-1.054038334E1,-1.591825247E0
4.631684759E0,2.262413740E0,-1.031545830E1,-1.658824325E0
4.634156426E0,2.291127682E0,-1.010488987E1,-1.687538147E0
4.636628093E0,2.271985054E0,-9.912865639E0,-1.778465390E0
4.639099759E0,2.353341103E0,-9.750154495E0,-1.749751568E0
4.641571426E0,2.497508526E0,-9.538987160E0,-1.701895118E0
4.644043093E0,2.641077995E0,-9.409774780E0,-1.759322882E0
4.646514811E0,2.770290375E0,-9.247062683E0,-1.740180254E0
4.648993249E0,2.885145903E0,-9.113064766E0,-1.682752490E0
4.651464916E0,3.134597778E0,-9.069993973E0,-1.668395638E0
4.653936530E0,3.129812002E0,-8.954540253E0,-1.811964989E0
4.656408197E0,1.792822361E0,-8.111668587E0,-3.321237803E0
4.658879863E0,3.081955671E0,-8.581260681E0,-2.003390789E0
4.661351530E0,4.279563427E0,-9.261420250E0,-9.732806087E-1
4.663823249E0,4.639084816E0,-9.328418732E0,-8.727820516E-1
4.666294916E0,4.456632137E0,-9.199206352E0,-1.016949654E0
4.668766582E0,4.179064751E0,-8.983254433E0,-1.222732425E0
4.671238249E0,4.025924206E0,-8.873184204E0,-1.332802176E0
4.673709916E0,3.958326817E0,-8.801400185E0,-1.361516118E0
4.676181582E0,3.886542082E0,-8.782257080E0,-1.428515077E0
4.678653249E0,3.814757586E0,-8.796614647E0,-1.414158225E0
4.681125645E0,3.738187075E0,-8.772686005E0,-1.414158225E0
4.683597259E0,3.647259951E0,-8.758329391E0,-1.390229940E0
4.686068926E0,3.580260992E0,-8.830113411E0,-1.299302697E0
4.688540593E0,3.522833109E0,-8.892327309E0,-1.251446247E0
4.691012259E0,3.498904943E0,-8.911469460E0,-1.227517962E0
4.693483926E0,3.455235958E0,-8.968897820E0,-1.213161111E0
4.695955645E0,3.412165165E0,-9.026325226E0,-1.150947690E0
4.698427311E0,3.287738323E0,-9.026325226E0,-1.160519004E0
4.700898978E0,3.263810158E0,-9.002396584E0,-1.103091240E0
4.703370645E0,3.158525944E0,-8.988039970E0,-1.141376376E0
4.705842311E0,2.952743053E0,-8.882756233E0,-1.103091240E0
4.708313978E0,2.779861689E0,-8.767900467E0,-1.131805062E0
4.710785645E0,2.636292458E0,-8.676973343E0,-1.160519004E0
4.713249186E0,2.411366940E0,-8.557332039E0,-1.232303619E0
4.715720801E0,1.237089276E0,-7.919644833E0,-2.372483730E0
4.718192468E0,1.232303619E0,-7.867002487E0,-2.252842426E0
4.720664134E0,2.531008244E0,-8.700901031E0,-4.079762697E-1
4.723135801E0,2.899502754E0,-8.992825508E0,-1.016949639E-1
4.725607468E0,2.641077995E0,-8.854042053E0,-5.473581553E-1
4.728079134E0,2.550150633E0,-8.772686005E0,-8.727820516E-1
4.730550801E0,2.334198475E0,-8.657830238E0,-1.146162033E0
4.733022468E0,2.080559254E0,-8.753543854E0,-1.371087432E0
4.735494134E0,2.037488461E0,-8.820542336E0,-1.558325768E0
4.737965801E0,2.027917147E0,-8.925827026E0,-1.725823283E0
4.740437520E0,2.133201361E0,-9.002396584E0,-1.874178290E0
4.742909186E0,2.324627161E0,-9.113064766E0,-1.979462504E0
4.745226582E0,2.396411896E0,-9.136993408E0,-2.142772675E0
4.747698249E0,2.147558212E0,-9.165707588E0,-2.338984251E0
4.750169916E0,2.137987137E0,-9.170493126E0,-2.343769789E0
4.752641582E0,2.152343988E0,-9.189635277E0,-2.496910334E0
4.755113249E0,2.228914261E0,-9.270991325E0,-2.631506681E0
4.757584916E0,2.324627161E0,-9.290133476E0,-2.645863533E0
4.760056582E0,2.717648268E0,-9.299705505E0,-2.698505640E0
4.762528301E0,2.319841623E0,-9.136993408E0,-2.698505640E0
4.764999916E0,2.085345030E0,-8.992825508E0,-2.722434044E0
4.767471582E0,1.946561217E0,-8.897112846E0,-2.727219582E0
4.769943249E0,2.548356056E-1,-7.852645874E0,-4.250849247E0
4.772414968E0,1.826321840E0,-8.446663857E0,-2.885145903E0
4.775046582E0,3.561118364E0,-9.433703423E0,-1.466800332E0
4.777518197E0,3.829114437E0,-9.640084267E0,-1.476371527E0
4.779989863E0,3.412165165E0,-9.371489525E0,-1.855035782E0
4.782461582E0,3.096312523E0,-9.002396584E0,-2.204986095E0
4.784933197E0,2.866003275E0,-8.834898949E0,-2.377269268E0
4.787404863E0,2.770290375E0,-8.815756798E0,-2.377269268E0
4.789876582E0,2.904288530E0,-8.791828156E0,-2.343769789E0
4.792348249E0,3.058027267E0,-8.681758881E0,-2.338984251E0
4.794819916E0,3.148954630E0,-8.432307243E0,-2.453839540E0
4.797291582E0,3.134597778E0,-8.135597229E0,-2.679363251E0
4.799763249E0,3.211168051E0,-8.078168869E0,-2.617149830E0
4.802234916E0,3.029313564E0,-8.092526436E0,-2.468196630E0
4.804706582E0,3.019742250E0,-8.178668022E0,-2.420340061E0
4.807171686E0,3.072384357E0,-8.279166222E0,-2.420340061E0
4.809643301E0,3.134597778E0,-8.374878883E0,-2.372483730E0
4.812114968E0,3.187239647E0,-8.437092781E0,-2.382055044E0
4.814586634E0,3.196810961E0,-8.547760963E0,-2.487339020E0
4.817058301E0,3.168097258E0,-8.586046219E0,-2.506481647E0
4.819529968E0,2.703291416E0,-8.710473061E0,-2.401197433E0
4.822001686E0,1.740180254E0,-8.374878883E0,-2.842075109E0
4.824473353E0,1.606182218E0,-7.622934818E0,-4.327419758E0
4.826945020E0,3.987040758E0,-8.983254433E0,-2.472982168E0
4.829416686E0,4.212564468E0,-9.175278664E0,-2.166700840E0
4.831888353E0,4.365705013E0,-9.237491608E0,-2.133201361E0
4.834360020E0,3.881756544E0,-8.801400185E0,-2.708076954E0
4.836831686E0,3.412165165E0,-8.432307243E0,-3.134597778E0
4.839293197E0,3.201596737E0,-8.379665375E0,-3.134597778E0
4.841764811E0,3.091526747E0,-8.427521706E0,-3.090928555E0
4.844236478E0,2.967100143E0,-8.523832321E0,-3.081357241E0
4.846708145E0,2.991028309E0,-8.916254997E0,-2.933002472E0
4.849179811E0,2.295913219E0,-8.720044136E0,-2.539981127E0
4.851651478E0,2.286342144E0,-8.734400749E0,-2.248056889E0
4.854123197E0,2.755933523E0,-8.973683357E0,-2.746362209E0
4.856594863E0,2.765504837E0,-8.710473061E0,-3.129213810E0
4.859066530E0,2.617149830E0,-8.552546501E0,-3.230310678E0
4.861538197E0,2.564507723E0,-8.624331474E0,-3.052643538E0
4.864009863E0,2.267199516E0,-8.035098076E0,-3.158525944E0
4.866481530E0,2.291127682E0,-8.030312538E0,-3.139383316E0
4.868953197E0,2.353341103E0,-8.159524918E0,-2.880360365E0
4.871423145E0,2.300698996E0,-8.355736732E0,-2.866003275E0
4.873894759E0,2.166700840E0,-8.059026718E0,-2.789433002E0
4.876366426E0,2.204986095E0,-8.169096947E0,-3.168097258E0
4.878838093E0,1.970489502E0,-8.456234932E0,-2.990430117E0
4.881309811E0,1.913061738E0,-8.849256516E0,-2.233700037E0
4.883781426E0,1.031306505E0,-8.039883614E0,-2.765504837E0
4.886253145E0,-1.110269666E0,-6.611967087E0,-4.983651161E0
4.888724811E0,1.783251047E0,-8.700901031E0,-2.703291416E0
4.891196478E0,2.118844509E0,-9.314062119E0,-2.066202402E0
4.893668145E0,3.029313564E0,-1.041595650E1,-1.237089276E0
4.896139811E0,1.711466432E0,-9.841081619E0,-1.989033818E0
4.898611478E0,8.255237937E-1,-9.505488396E0,-3.182454109E0
4.901083145E0,8.350951076E-1,-9.597013474E0,-3.119642496E0
4.903534499E0,9.403793216E-1,-9.807581902E0,-2.669791937E0
4.906006166E0,4.995017350E-1,-9.218349457E0,-2.818146944E0
4.908477832E0,4.755735099E-1,-9.151350021E0,-3.311666489E0
4.910949499E0,8.350951076E-1,-9.606584549E0,-3.153740168E0
4.913421166E0,8.877372146E-1,-9.932008743E0,-2.329412937E0
4.915892832E0,-6.580262631E-2,-8.724829674E0,-2.295913219E0
4.918364499E0,1.304088384E-1,-8.997611046E0,-2.425125837E0
4.920836166E0,3.176472187E-1,-9.050851822E0,-2.415554523E0
4.923307832E0,3.559323549E-1,-8.940183640E0,-2.544766903E0
4.925779499E0,6.861419082E-1,-9.227920532E0,-2.602792740E0
4.928251166E0,7.914260626E-1,-9.136993408E0,-2.703291416E0
4.930722884E0,8.733802438E-1,-9.089137077E0,-2.784647465E0
4.933194551E0,9.786644578E-1,-8.964112282E0,-2.846860647E0
4.935700697E0,1.012163997E0,-8.916254997E0,-2.880360365E0
4.938172311E0,1.045663476E0,-8.825327873E0,-2.904288530E0
4.940643978E0,1.203589797E0,-8.772686005E0,-2.899502754E0
4.943115593E0,1.194018483E0,-8.710473061E0,-3.000001431E0
4.945587259E0,1.203589797E0,-8.605188370E0,-3.129213810E0
4.948058926E0,1.280160069E0,-8.576474190E0,-3.182454109E0
4.950530593E0,1.304088354E0,-8.586046219E0,-3.192025423E0
4.953002259E0,1.103091240E0,-8.542975426E0,-2.971287489E0
4.955473926E0,1.299302697E0,-8.586046219E0,-2.679363251E0
4.957945593E0,1.639681697E0,-8.629117012E0,-3.762115479E0
4.960417259E0,1.682752490E0,-8.389236450E0,-4.432703972E0
4.962888926E0,1.543968797E0,-8.221738815E0,-4.581058979E0
4.965360593E0,1.486541033E0,-8.087740898E0,-4.432703972E0
4.967832207E0,1.520040631E0,-7.929215908E0,-4.317848682E0
4.970303822E0,1.443470240E0,-7.833503246E0,-4.557130814E0
4.972775488E0,1.251446247E0,-7.857431412E0,-4.226921082E0
4.975247155E0,1.184447169E0,-7.957930088E0,-3.853042603E0
4.977718822E0,1.251446247E0,-8.087740898E0,-3.824328899E0
4.980190436E0,1.338186026E0,-8.193024635E0,-3.881756544E0
4.982662103E0,1.424327731E0,-8.341380119E0,-3.857828379E0
4.985133770E0,1.227517962E0,-8.437092781E0,-3.771686792E0
4.987605436E0,1.165304661E0,-8.614759445E0,-3.622733593E0
4.990077103E0,1.381256819E0,-8.748757362E0,-3.254238844E0
4.992548770E0,1.400399446E0,-8.681758881E0,-3.843471289E0
4.995020436E0,1.453041553E0,-8.681758881E0,-4.365705013E0
4.997492103E0,1.371685624E0,-8.739186287E0,-4.566701889E0
4.999932884E0,1.663609982E0,-8.753543854E0,-4.619344234E0
5.002404447E0,1.141376376E0,-8.715258598E0,-4.025325775E0
5.004876113E0,8.255237937E-1,-8.739186287E0,-3.646661758E0
5.007347780E0,9.834501147E-1,-8.772686005E0,-3.546163082E0
5.009819447E0,1.150947690E0,-8.772686005E0,-3.617947817E0
5.012291113E0,1.246660590E0,-8.806185722E0,-3.742972851E0
5.014762780E0,1.122233868E0,-8.715258598E0,-3.790829182E0
5.017234447E0,-1.728216171E0,-6.985845566E0,-5.635097504E0
5.019706113E0,-1.088734269E-1,-7.713861942E0,-4.614558697E0
5.022177728E0,3.330809116E0,-1.035374355E1,-1.663609982E0
5.024649395E0,2.310270309E0,-9.984650612E0,-2.942573547E0
5.027121061E0,1.265803218E0,-9.400203705E0,-4.101896286E0
5.029592728E0,1.012163997E0,-9.270991325E0,-4.226921082E0
5.032060645E0,1.107876897E0,-9.199206352E0,-4.058825493E0
5.034532207E0,1.141376376E0,-9.213563919E0,-4.092324734E0
5.037003874E0,1.117448211E0,-9.151350021E0,-4.044468403E0
5.039475541E0,1.016949654E0,-9.160921097E0,-4.087539196E0
5.041947207E0,1.050449133E0,-9.122636795E0,-4.116253376E0
5.044418874E0,9.595218897E-1,-9.180064201E0,-4.087539196E0
5.046890488E0,9.738788009E-1,-9.227920532E0,-4.101896286E0
5.049362207E0,1.189232826E0,-9.184849739E0,-4.111467361E0
5.051833874E0,6.478567123E-1,-9.256634712E0,-4.097110748E0
5.054305488E0,4.707878530E-1,-9.438488960E0,-3.747758389E0
5.056777155E0,7.387840152E-1,-9.500701904E0,-4.499702930E0
5.059248822E0,6.957131624E-1,-9.462417603E0,-4.911866665E0
5.061720488E0,5.138586760E-1,-9.457631111E0,-4.681557655E0
5.064190332E0,4.947160780E-1,-9.515059471E0,-4.308277130E0
5.066661895E0,6.287141442E-1,-9.538987160E0,-4.197608948E0
5.069133561E0,6.813562512E-1,-9.543772697E0,-4.279563427E0
5.071605228E0,6.287141442E-1,-9.510273933E0,-4.384847641E0
5.074076895E0,7.100701332E-1,-9.414560318E0,-4.451846600E0
5.076548561E0,8.255237937E-1,-9.304491043E0,-4.585844517E0
5.079020228E0,6.191428304E-1,-9.227920532E0,-4.710271358E0
5.081491895E0,7.052844763E-1,-9.247062683E0,-4.734199524E0
5.083963561E0,7.914260626E-1,-9.299705505E0,-4.816154003E0
5.086435176E0,9.308080077E-1,-9.347561836E0,-4.797011375E0
5.088906843E0,9.834501147E-1,-9.280562401E0,-4.859224796E0
5.091378509E0,8.350951076E-1,-9.347561836E0,-4.940580368E0
5.093850176E0,8.350951076E-1,-9.433703423E0,-4.959722996E0
5.096355228E0,9.355936646E-1,-9.409774780E0,-4.816154003E0
5.098826843E0,9.547362328E-1,-9.352347374E0,-4.935794830E0
5.101298509E0,8.829515576E-1,-9.275776863E0,-4.499702930E0
5.103770176E0,1.031306505E0,-9.261420250E0,-4.811367989E0
5.106241843E0,7.866404653E-1,-9.151350021E0,-5.534598827E0
