"Time (s)","Acceleration x (m/s^2)","Acceleration y (m/s^2)","Acceleration z (m/s^2)"
3.611782400E-2,7.135162354E-1,9.868865967E0,2.430877686E-1
4.109218900E-2,7.685699463E-1,9.995758057E0,2.718200684E-1
4.609707200E-2,8.140716553E-1,1.034530640E1,-1.309204102E-2
5.104091900E-2,4.932403564E-1,1.004603577E1,3.771667480E-1
5.598476700E-2,5.435180664E-1,9.667755127E0,6.716461182E-1
6.095913200E-2,4.836730957E-1,9.672546387E0,6.022186279E-1
6.593349700E-2,3.687438965E-1,9.718032837E0,4.801177979E-1
7.087734500E-2,4.788818359E-1,9.849716187E0,2.382965088E-1
7.585171000E-2,3.831024170E-1,9.737182617E0,3.795623779E-1
8.079555800E-2,3.112792969E-1,9.679718018E0,5.016632080E-1
8.573940600E-2,2.921295166E-1,9.770706177E0,4.968719482E-1
9.071377100E-2,3.471984863E-1,9.789855957E0,6.070098877E-1
9.565761800E-2,3.591613770E-1,9.773101807E0,6.046142578E-1
1.006014660E-1,2.657928467E-1,9.830551147E0,5.998229980E-1
1.055758310E-1,2.370605469E-1,9.892807007E0,5.351867676E-1
1.105501970E-1,2.514343262E-1,9.890411377E0,5.495452881E-1
1.154940440E-1,2.155151367E-1,9.919143677E0,5.639190674E-1
1.204684090E-1,2.346649170E-1,9.988571167E0,5.543365479E-1
1.254122570E-1,2.921295166E-1,1.001730347E1,5.016632080E-1
1.303866220E-1,2.873382568E-1,1.000532532E1,4.633636475E-1
1.353304700E-1,2.538299561E-1,9.988571167E0,4.537811279E-1
1.403048350E-1,1.963653564E-1,9.914352417E0,5.184173584E-1
1.452486830E-1,1.772155762E-1,9.895202637E0,4.944763184E-1
1.502230480E-1,1.101684570E-1,9.883224487E0,4.633636475E-1
1.551668960E-1,1.389007568E-1,9.859283447E0,4.178619385E-1
1.601412610E-1,2.083282471E-1,9.859283447E0,3.388519287E-1
1.650851090E-1,9.341430664E-2,9.897598267E0,5.088500977E-1
1.700594740E-1,1.293182373E-1,9.993362427E0,4.705352783E-1
1.750033220E-1,1.101684570E-1,9.995758057E0,6.357421875E-1
1.799471690E-1,2.011566162E-1,9.902389526E0,5.136413574E-1
1.848910170E-1,8.143615723E-2,9.914352417E0,6.453094482E-1
1.898653820E-1,1.269378662E-1,1.060148621E1,3.675842285E-1
1.948092300E-1,9.481353760E-1,1.004364014E1,3.292846680E-1
1.997835950E-1,-1.340332031E-1,9.411575317E0,8.799438477E-1
2.047274430E-1,3.950805664E-1,1.010589600E1,3.891296387E-1
2.097018080E-1,5.339508057E-1,9.502548218E0,5.208129883E-1
2.146456560E-1,1.365051270E-1,9.909561157E0,6.644744873E-1
2.196200210E-1,9.074401855E-1,9.622253418E0,3.747711182E-1
2.245638680E-1,-8.375549316E-2,9.466644287E0,9.757232666E-1
2.295382340E-1,3.424072266E-1,1.006039429E1,6.596832275E-1
2.344820810E-1,7.685699463E-1,9.768310547E0,5.471496582E-1
2.394564470E-1,1.652374268E-1,9.713241577E0,7.291107178E-1
2.444308120E-1,2.610015869E-1,9.899993896E0,5.567321777E-1
2.494051770E-1,3.711395264E-1,9.935897827E0,5.591278076E-1
2.543490250E-1,3.471984863E-1,9.916748047E0,5.519409180E-1
2.593233900E-1,1.795959473E-1,1.017292786E1,5.447540283E-1
2.642977550E-1,7.063293457E-1,1.020645142E1,3.699798584E-1
2.692416030E-1,4.788818359E-1,9.540863037E0,5.710906982E-1
2.742159680E-1,2.274932861E-1,9.555221558E0,5.088500977E-1
2.791598160E-1,2.159118652E-2,9.923934937E0,6.501007080E-1
2.841341810E-1,5.531005859E-1,1.010589600E1,3.723754883E-1
2.890780290E-1,4.956359863E-1,9.526489258E0,5.303955078E-1
2.940218760E-1,1.197509766E-1,9.552825928E0,6.596832275E-1
2.989962410E-1,2.633972168E-1,9.832946777E0,6.524963379E-1
3.039706070E-1,-4.545593262E-2,1.033573914E1,9.062805176E-1
3.089144540E-1,8.643493652E-1,1.025912476E1,3.220977783E-1
3.138583020E-1,5.866241455E-1,9.591140747E0,4.106903076E-1
3.188021500E-1,8.383178711E-2,9.751541138E0,6.405334473E-1
3.237459970E-1,1.676330566E-1,1.002449036E1,7.171478271E-1
3.286898450E-1,4.740905762E-1,1.017771912E1,4.441986084E-1
3.336642100E-1,6.919555664E-1,9.787460327E0,3.197021484E-1
3.386385750E-1,1.389007568E-1,9.679718018E0,5.615234375E-1
3.435824230E-1,1.628417969E-1,9.852096558E0,5.950317383E-1
3.485262710E-1,5.270385742E-2,9.902389526E0,5.974273682E-1
3.535006360E-1,3.304443359E-1,1.024475098E1,3.795623779E-1
3.584444840E-1,6.105651855E-1,9.854492188E0,3.005523682E-1
3.634188490E-1,1.317138672E-1,9.727600098E0,4.729309082E-1
3.683626970E-1,9.580993652E-2,9.945480347E0,6.046142578E-1
3.733370620E-1,1.963653564E-1,9.959838867E0,6.261596680E-1
3.782809090E-1,1.724243164E-1,1.024714661E1,6.381378174E-1
3.832552750E-1,6.991424561E-1,1.021841431E1,3.651885986E-1
3.882296400E-1,3.448028564E-1,9.873657227E0,5.663146973E-1
3.931734880E-1,4.074096680E-2,9.892807007E0,8.105163574E-1
3.981173350E-1,2.426147461E-3,1.014179993E1,9.110717773E-1
4.030917000E-1,5.985870361E-1,1.016334534E1,4.585723877E-1
4.080660660E-1,5.914001465E-1,9.777877808E0,4.298400879E-1
4.130099130E-1,-9.536743164E-3,9.720428467E0,8.512115479E-1
4.179842790E-1,1.772155762E-1,9.885620117E0,6.596832275E-1
4.229281260E-1,3.017120361E-1,9.823379517E0,4.585723877E-1
4.279024910E-1,1.891784668E-1,9.758728027E0,4.657592773E-1
4.328463390E-1,1.556549072E-1,9.773101807E0,4.801177979E-1
4.378207040E-1,1.221466064E-1,9.816192627E0,5.519409180E-1
4.427950700E-1,1.269378662E-1,9.789855957E0,5.064544678E-1
4.477694350E-1,1.724243164E-1,9.818588257E0,4.106903076E-1
4.527132830E-1,2.011566162E-1,9.866470337E0,3.867492676E-1
4.576876480E-1,1.843872070E-1,9.890411377E0,3.963165283E-1
4.626314950E-1,1.891784668E-1,9.904769897E0,4.346313477E-1
4.676058610E-1,1.436920166E-1,9.866470337E0,5.016632080E-1
4.725497080E-1,5.032348633E-2,9.868865967E0,6.453094482E-1
4.774935560E-1,2.636718750E-2,9.943084717E0,6.884155273E-1
4.824374040E-1,-6.221008301E-2,1.001730347E1,8.177032471E-1
4.874117690E-1,2.681884766E-1,1.010589600E1,5.184173584E-1
4.923556160E-1,3.663482666E-1,9.971817017E0,4.465942383E-1
4.973299820E-1,2.107238770E-1,9.923934937E0,5.208129883E-1
5.022738290E-1,1.173553467E-1,9.919143677E0,6.094055176E-1
5.072176770E-1,2.657928467E-1,9.892807007E0,4.753265381E-1
5.121920420E-1,2.586059570E-1,9.768310547E0,6.596832275E-1
5.171664080E-1,2.250976562E-1,9.861679077E0,6.118011475E-1
5.221102550E-1,4.908447266E-1,9.952667236E0,3.340759277E-1
5.270846200E-1,4.549407959E-1,9.861679077E0,5.232086182E-1
5.320589860E-1,3.711395264E-1,9.888015747E0,5.591278076E-1
5.370333510E-1,4.166259766E-1,9.959838867E0,5.232086182E-1
5.419771990E-1,4.980316162E-1,9.988571167E0,4.873046875E-1
5.469210460E-1,5.028228760E-1,9.931106567E0,4.513854980E-1
5.518648940E-1,4.621124268E-1,9.859283447E0,4.346313477E-1
5.568392590E-1,4.238128662E-1,9.842529297E0,3.292846680E-1
5.617831070E-1,4.501495361E-1,9.823379517E0,2.742156982E-1
5.667269540E-1,4.836730957E-1,9.828155518E0,2.837982178E-1
5.717013200E-1,5.195770264E-1,9.823379517E0,2.598571777E-1
5.766451670E-1,5.291595459E-1,9.842529297E0,2.981567383E-1
5.816195330E-1,5.339508057E-1,9.825775146E0,3.125152588E-1
5.865633800E-1,6.057739258E-1,9.842529297E0,3.436431885E-1
5.915377450E-1,5.914001465E-1,9.830551147E0,3.580169678E-1
5.964815930E-1,5.363464355E-1,9.813796997E0,3.628082275E-1
6.014559580E-1,5.554962158E-1,9.806610107E0,3.460388184E-1
6.064303240E-1,5.387268066E-1,9.837738037E0,3.077392578E-1
6.113741710E-1,5.411224365E-1,9.818588257E0,2.766113281E-1
6.163485360E-1,5.435180664E-1,9.804214478E0,2.933654785E-1
6.212923840E-1,5.243682861E-1,9.799438477E0,3.460388184E-1
6.262362320E-1,5.052185059E-1,9.832946777E0,3.843536377E-1
6.312105970E-1,5.052185059E-1,9.883224487E0,3.795623779E-1
6.361544450E-1,5.483093262E-1,9.902389526E0,3.843536377E-1
6.411288100E-1,5.602874756E-1,9.957443237E0,2.981567383E-1
6.461031750E-1,5.626678467E-1,1.000294495E1,2.646331787E-1
6.510470230E-1,5.602874756E-1,1.001490784E1,2.406921387E-1
6.559908700E-1,5.961914062E-1,9.986175537E0,2.526702881E-1
6.609652360E-1,6.369018555E-1,9.959838867E0,2.861938477E-1
6.659396010E-1,6.225280762E-1,9.962234497E0,2.598571777E-1
6.708834490E-1,5.937957764E-1,9.935897827E0,2.550659180E-1
6.758272960E-1,4.884490967E-1,9.883224487E0,3.005523682E-1
6.808016610E-1,4.549407959E-1,9.926330566E0,2.478790283E-1
6.857760270E-1,5.315551758E-1,9.780273438E0,1.832427979E-1
6.907198740E-1,4.669036865E-1,9.775482178E0,2.454833984E-1
6.956942400E-1,2.633972168E-1,9.911956787E0,3.388519287E-1
7.006380870E-1,3.902893066E-1,9.892807007E0,1.353454590E-1
7.055819350E-1,3.711395264E-1,9.787460327E0,1.257781982E-1
7.105563000E-1,4.046630859E-1,9.785064697E0,4.197692871E-2
7.155001480E-1,4.621124268E-1,9.842529297E0,1.161956787E-1
7.204439950E-1,4.692993164E-1,9.835342407E0,2.430877686E-1
7.254183610E-1,5.028228760E-1,9.868865967E0,3.580169678E-1
7.303927260E-1,5.100097656E-1,9.885620117E0,4.226531982E-1
7.353365740E-1,4.764862061E-1,9.907165527E0,4.585723877E-1
7.403109390E-1,4.764862061E-1,9.919143677E0,4.681396484E-1
7.452547860E-1,4.692993164E-1,9.890411377E0,4.035034180E-1
7.502291520E-1,5.147857666E-1,9.878433228E0,4.035034180E-1
7.551729990E-1,5.507049561E-1,9.914352417E0,4.609680176E-1
7.601473650E-1,5.147857666E-1,9.943084717E0,4.825134277E-1
7.650912120E-1,5.028228760E-1,9.969421387E0,4.705352783E-1
7.700655770E-1,5.004272461E-1,1.000054932E1,4.465942383E-1
7.750094250E-1,4.477539062E-1,1.002209473E1,4.058990479E-1
7.799837900E-1,4.309997559E-1,1.002928162E1,3.364715576E-1
7.849276380E-1,3.328247070E-1,1.006039429E1,3.484344482E-1
7.899020030E-1,3.136749268E-1,1.007716370E1,3.125152588E-1
7.948763680E-1,3.711395264E-1,1.001490784E1,2.766113281E-1
7.998202160E-1,3.543853760E-1,9.957443237E0,2.957611084E-1
8.047640640E-1,2.873382568E-1,9.904769897E0,3.125152588E-1
8.097384290E-1,2.705841064E-1,9.888015747E0,3.412475586E-1
8.147127940E-1,2.035522461E-1,9.899993896E0,3.149108887E-1
8.196566420E-1,1.700286865E-1,9.890411377E0,2.957611084E-1
8.246004900E-1,2.107238770E-1,9.880828857E0,2.526702881E-1
8.295748550E-1,2.179107666E-1,9.856887817E0,3.101348877E-1
8.345187020E-1,2.011566162E-1,9.797042847E0,3.316802979E-1
8.394625500E-1,1.987609863E-1,9.804214478E0,3.268890381E-1
8.444369150E-1,1.676330566E-1,9.847320557E0,3.675842285E-1
8.494112810E-1,2.011566162E-1,9.876052856E0,3.891296387E-1
8.543551280E-1,2.155151367E-1,9.880828857E0,4.298400879E-1
8.593294930E-1,2.442474365E-1,9.825775146E0,4.944763184E-1
8.642733410E-1,2.179107666E-1,9.820983887E0,5.663146973E-1
8.692477060E-1,2.633972168E-1,9.856887817E0,5.686950684E-1
8.741915540E-1,3.112792969E-1,9.895202637E0,5.639190674E-1
8.791659190E-1,3.184661865E-1,1.001251221E1,5.303955078E-1
8.841097670E-1,3.591613770E-1,9.990966797E0,5.854644775E-1
8.890841320E-1,3.256530762E-1,9.976608276E0,5.998229980E-1
8.940279800E-1,3.136749268E-1,9.940689087E0,5.327911377E-1
8.990023450E-1,2.945251465E-1,9.909561157E0,4.609680176E-1
9.039461930E-1,3.017120361E-1,9.849716187E0,4.226531982E-1
9.089205580E-1,2.873382568E-1,9.885620117E0,4.394226074E-1
9.138644060E-1,2.753753662E-1,9.923934937E0,4.920806885E-1
9.188387710E-1,3.017120361E-1,9.921539307E0,4.944763184E-1
9.237826180E-1,3.041076660E-1,9.911956787E0,5.279998779E-1
9.287569840E-1,3.088836670E-1,9.943084717E0,5.591278076E-1
9.337313490E-1,3.543853760E-1,9.990966797E0,4.849090576E-1
9.386751970E-1,3.471984863E-1,1.003884888E1,4.418029785E-1
9.436190440E-1,3.424072266E-1,1.002449036E1,4.441986084E-1
9.485934090E-1,3.471984863E-1,9.952667236E0,4.202575684E-1
9.535372570E-1,3.519897461E-1,9.892807007E0,4.441986084E-1
9.585116220E-1,3.352203369E-1,9.880828857E0,4.801177979E-1
9.634554700E-1,3.854980469E-1,9.868865967E0,4.465942383E-1
9.683993180E-1,4.549407959E-1,9.799438477E0,5.064544678E-1
9.733736830E-1,4.477539062E-1,9.758728027E0,5.232086182E-1
9.783480480E-1,4.333953857E-1,9.741973877E0,5.327911377E-1
9.832918960E-1,3.974761963E-1,9.746765137E0,5.423736572E-1
9.882357430E-1,4.262084961E-1,9.761123657E0,4.968719482E-1
9.932101090E-1,4.286041260E-1,9.785064697E0,4.322357178E-1
9.981539560E-1,4.525451660E-1,9.847320557E0,3.316802979E-1
1.003128322E0,4.884490967E-1,9.847320557E0,3.364715576E-1
1.008102687E0,4.381713867E-1,9.871261597E0,4.154663086E-1
1.013046534E0,4.525451660E-1,9.938293457E0,4.035034180E-1
1.018020900E0,5.076141357E-1,9.962234497E0,4.011077881E-1
1.022964747E0,5.578918457E-1,9.969421387E0,2.933654785E-1
1.027908595E0,5.914001465E-1,9.959838867E0,1.760559082E-1
1.032882960E0,6.369018555E-1,9.959838867E0,8.985900879E-2
1.037857325E0,6.273193359E-1,9.928710938E0,1.377410889E-1
1.042801173E0,6.273193359E-1,9.931106567E0,1.401367188E-1
1.047775538E0,6.392822266E-1,9.931106567E0,9.465026855E-2
1.052719386E0,6.680145264E-1,9.921539307E0,1.233825684E-1
1.057693751E0,6.392822266E-1,9.856887817E0,1.904144287E-1
1.062637599E0,5.985870361E-1,9.909561157E0,2.119598389E-1
1.067581447E0,5.961914062E-1,9.998153687E0,2.263336182E-1
1.072555812E0,5.722503662E-1,9.993362427E0,2.670288086E-1
1.077530177E0,5.794372559E-1,9.957443237E0,2.215423584E-1
1.082474025E0,5.339508057E-1,1.004124451E1,2.694244385E-1
1.087448390E0,5.578918457E-1,1.006039429E1,2.526702881E-1
1.092392238E0,5.243682861E-1,1.000532532E1,2.766113281E-1
1.097366603E0,5.315551758E-1,9.976608276E0,3.077392578E-1
1.102310450E0,4.932403564E-1,9.971817017E0,3.436431885E-1
1.107284816E0,4.740905762E-1,1.000054932E1,3.891296387E-1
1.112228663E0,5.267639160E-1,9.897598267E0,3.508300781E-1
1.117203029E0,4.980316162E-1,9.909561157E0,3.340759277E-1
1.122146876E0,5.746459961E-1,9.888015747E0,3.101348877E-1
1.127121241E0,4.932403564E-1,9.849716187E0,3.771667480E-1
1.132095607E0,4.812774658E-1,9.878433228E0,3.364715576E-1
1.137069972E0,5.554962158E-1,9.864074707E0,2.981567383E-1
1.142013820E0,4.692993164E-1,9.828155518E0,3.173065186E-1
1.146988185E0,4.812774658E-1,9.830551147E0,3.316802979E-1
1.151932033E0,5.004272461E-1,9.888015747E0,3.149108887E-1
1.156906398E0,4.764862061E-1,9.856887817E0,2.861938477E-1
1.161850245E0,5.722503662E-1,9.849716187E0,2.311248779E-1
1.166824611E0,6.608428955E-1,9.758728027E0,2.335205078E-1
1.171768458E0,5.363464355E-1,9.741973877E0,2.957611084E-1
1.176712306E0,4.716949463E-1,9.765914917E0,2.430877686E-1
1.181656154E0,5.171813965E-1,9.811401367E0,1.138000488E-1
1.186630519E0,4.956359863E-1,9.914352417E0,1.521148682E-1
1.191574366E0,5.291595459E-1,9.878433228E0,2.071838379E-1
1.196548732E0,4.669036865E-1,9.828155518E0,2.670288086E-1
1.201492579E0,4.214172363E-1,9.852096558E0,2.790069580E-1
1.206466945E0,3.687438965E-1,9.885620117E0,3.316802979E-1
1.211410792E0,3.711395264E-1,9.888015747E0,3.460388184E-1
1.216385158E0,3.807220459E-1,9.878433228E0,3.532257080E-1
1.221329005E0,4.022674561E-1,9.878433228E0,3.484344482E-1
1.226272853E0,3.663482666E-1,9.849716187E0,3.628082275E-1
1.231247218E0,3.495941162E-1,9.885620117E0,4.178619385E-1
1.236221583E0,3.759307861E-1,9.866470337E0,4.011077881E-1
1.241165431E0,3.711395264E-1,9.866470337E0,4.394226074E-1
1.246139796E0,3.854980469E-1,9.878433228E0,4.250488281E-1
1.251083644E0,3.902893066E-1,9.899993896E0,3.699798584E-1
1.256027491E0,4.788818359E-1,9.904769897E0,3.125152588E-1
1.261001857E0,4.381713867E-1,9.830551147E0,3.460388184E-1
1.265976222E0,3.424072266E-1,9.921539307E0,3.819580078E-1
1.270920070E0,3.663482666E-1,1.010589600E1,3.220977783E-1
1.275863917E0,4.046630859E-1,1.009870911E1,3.220977783E-1
1.280868800E0,3.759307861E-1,1.003645325E1,4.035034180E-1
1.285812648E0,3.639526367E-1,1.004124451E1,4.058990479E-1
1.290787013E0,3.543853760E-1,1.001969910E1,4.035034180E-1
1.295730861E0,3.687438965E-1,9.962234497E0,3.675842285E-1
1.300674708E0,3.639526367E-1,9.955047607E0,3.843536377E-1
1.305649074E0,3.902893066E-1,9.907165527E0,3.699798584E-1
1.310592921E0,3.807220459E-1,9.911956787E0,4.178619385E-1
1.315536769E0,3.807220459E-1,9.892807007E0,4.202575684E-1
1.320511134E0,4.070587158E-1,9.868865967E0,4.394226074E-1
1.325454982E0,3.567810059E-1,9.856887817E0,4.513854980E-1
1.330429347E0,3.376159668E-1,9.844924927E0,4.298400879E-1
1.335403712E0,3.639526367E-1,9.842529297E0,3.699798584E-1
1.340378077E0,3.783264160E-1,9.847320557E0,3.460388184E-1
1.345321925E0,3.735351562E-1,9.866470337E0,3.268890381E-1
1.350296290E0,4.190216064E-1,9.864074707E0,3.867492676E-1
1.355240138E0,3.998718262E-1,9.844924927E0,3.795623779E-1
1.360214503E0,4.238128662E-1,9.864074707E0,3.436431885E-1
1.365158351E0,4.142303467E-1,9.861679077E0,3.053436279E-1
1.370132716E0,3.759307861E-1,9.849716187E0,3.340759277E-1
1.375076564E0,4.070587158E-1,9.868865967E0,3.125152588E-1
1.380050929E0,4.190216064E-1,9.883224487E0,3.197021484E-1
1.384994777E0,4.405670166E-1,9.873657227E0,3.867492676E-1
1.389969142E0,4.597320557E-1,9.878433228E0,3.915252686E-1
1.394912990E0,4.740905762E-1,9.871261597E0,3.963165283E-1
1.399887355E0,4.788818359E-1,9.866470337E0,4.226531982E-1
1.404831202E0,4.740905762E-1,9.899993896E0,4.561767578E-1
1.409805568E0,4.716949463E-1,9.907165527E0,4.370269775E-1
1.414749415E0,4.621124268E-1,9.926330566E0,4.322357178E-1
1.419723781E0,4.573364258E-1,9.928710938E0,3.747711182E-1
1.424667628E0,4.932403564E-1,9.947875977E0,3.388519287E-1
1.429641993E0,5.028228760E-1,9.974212646E0,3.412475586E-1
1.434585841E0,5.219726562E-1,9.990966797E0,2.909698486E-1
1.439529689E0,5.147857666E-1,9.983779907E0,3.029479980E-1
1.444473536E0,5.818328857E-1,9.986175537E0,2.861938477E-1
1.449447902E0,6.057739258E-1,1.000772095E1,2.406921387E-1
1.454422267E0,6.201324463E-1,9.995758057E0,2.478790283E-1
1.459396632E0,6.177368164E-1,9.964630127E0,2.382965088E-1
1.464340480E0,5.890045166E-1,9.907165527E0,2.766113281E-1
1.469314845E0,5.818328857E-1,9.854492188E0,2.790069580E-1
1.474258693E0,5.842285156E-1,9.844924927E0,2.382965088E-1
1.479233058E0,6.225280762E-1,9.840133667E0,2.359008789E-1
1.484207423E0,6.297149658E-1,9.868865967E0,2.933654785E-1
1.489151271E0,6.680145264E-1,9.847320557E0,3.628082275E-1
1.494095118E0,6.680145264E-1,9.840133667E0,3.484344482E-1
1.499069484E0,6.488647461E-1,9.835342407E0,3.628082275E-1
1.504043849E0,6.656188965E-1,9.873657227E0,3.484344482E-1
1.508987697E0,6.704101562E-1,9.871261597E0,3.340759277E-1
1.513931544E0,6.584472656E-1,9.885620117E0,4.035034180E-1
1.518905909E0,6.416778564E-1,9.878433228E0,3.915252686E-1
1.523849757E0,6.321105957E-1,9.878433228E0,4.035034180E-1
1.528824122E0,6.488647461E-1,9.885620117E0,3.987121582E-1
1.533767970E0,6.464691162E-1,9.892807007E0,3.843536377E-1
1.538711818E0,6.416778564E-1,9.883224487E0,4.058990479E-1
1.543686183E0,6.584472656E-1,9.883224487E0,3.843536377E-1
1.548630031E0,6.680145264E-1,9.895202637E0,3.628082275E-1
1.553573878E0,6.799926758E-1,9.902389526E0,3.580169678E-1
1.558548243E0,6.704101562E-1,9.880828857E0,3.532257080E-1
1.563522609E0,7.182922363E-1,9.890411377E0,3.125152588E-1
1.568466456E0,6.967468262E-1,9.859283447E0,2.790069580E-1
1.573410304E0,6.680145264E-1,9.859283447E0,2.766113281E-1
1.578384669E0,6.680145264E-1,9.902389526E0,2.335205078E-1
1.583359034E0,6.536560059E-1,9.890411377E0,2.478790283E-1
1.588333400E0,6.177368164E-1,9.907165527E0,2.478790283E-1
1.593277247E0,5.602874756E-1,9.895202637E0,2.814025879E-1
1.598251613E0,5.507049561E-1,9.907165527E0,3.101348877E-1
1.603195460E0,5.291595459E-1,9.911956787E0,3.244934082E-1
1.608169825E0,5.147857666E-1,9.914352417E0,3.220977783E-1
1.613113673E0,4.884490967E-1,9.883224487E0,2.981567383E-1
1.618057521E0,5.147857666E-1,9.816192627E0,3.173065186E-1
1.623001368E0,4.860534668E-1,9.801818848E0,3.843536377E-1
1.627975734E0,4.477539062E-1,9.813796997E0,3.939208984E-1
1.632950099E0,4.142303467E-1,9.823379517E0,4.274444580E-1
1.637924464E0,3.926849365E-1,9.883224487E0,4.370269775E-1
1.642868312E0,3.854980469E-1,9.971817017E0,4.465942383E-1
1.647842677E0,3.400115967E-1,1.007716370E1,4.849090576E-1
1.652786525E0,3.591613770E-1,1.018728638E1,3.795623779E-1
1.657730372E0,4.094390869E-1,9.990966797E0,4.465942383E-1
1.662674220E0,3.567810059E-1,9.897598267E0,4.346313477E-1
1.667648585E0,3.328247070E-1,9.868865967E0,3.651885986E-1
1.672592433E0,3.232574463E-1,9.801818848E0,3.556213379E-1
1.677566798E0,2.825469971E-1,9.823379517E0,3.508300781E-1
1.682510646E0,2.610015869E-1,9.962234497E0,3.077392578E-1
1.687454493E0,3.615570068E-1,9.969421387E0,3.053436279E-1
1.692428859E0,3.783264160E-1,9.962234497E0,3.556213379E-1
1.697403224E0,3.663482666E-1,9.990966797E0,3.388519287E-1
1.702347072E0,3.711395264E-1,9.998153687E0,2.957611084E-1
1.707321437E0,3.902893066E-1,9.969421387E0,3.005523682E-1
1.712265284E0,3.998718262E-1,9.923934937E0,2.957611084E-1
1.717239650E0,3.591613770E-1,9.931106567E0,3.699798584E-1
1.722183497E0,3.854980469E-1,9.919143677E0,3.484344482E-1
1.727157863E0,3.615570068E-1,9.888015747E0,3.675842285E-1
1.732132228E0,3.280487061E-1,9.897598267E0,3.867492676E-1
1.737106593E0,3.304443359E-1,9.904769897E0,3.819580078E-1
1.742050441E0,3.495941162E-1,9.909561157E0,3.699798584E-1
1.747024806E0,3.567810059E-1,9.904769897E0,3.987121582E-1
1.751968654E0,3.950805664E-1,9.899993896E0,3.771667480E-1
1.756943019E0,3.759307861E-1,9.919143677E0,3.675842285E-1
1.761886866E0,3.735351562E-1,9.957443237E0,3.101348877E-1
1.766861232E0,4.142303467E-1,9.921539307E0,2.909698486E-1
1.771805079E0,4.836730957E-1,9.933502197E0,2.430877686E-1
1.776748927E0,5.123901367E-1,9.892807007E0,2.430877686E-1
1.781692775E0,4.884490967E-1,9.847320557E0,1.976013184E-1
1.786667140E0,5.315551758E-1,9.837738037E0,2.047882080E-1
1.791610988E0,5.291595459E-1,9.823379517E0,2.263336182E-1
1.796554835E0,5.243682861E-1,9.844924927E0,2.430877686E-1
1.801529200E0,5.411224365E-1,9.916748047E0,2.574615479E-1
1.806473048E0,5.243682861E-1,9.983779907E0,2.382965088E-1
1.811447413E0,5.411224365E-1,1.001490784E1,2.694244385E-1
1.816421779E0,5.483093262E-1,1.000772095E1,2.550659180E-1
1.821365626E0,5.363464355E-1,1.000532532E1,3.197021484E-1
1.826339991E0,5.459136963E-1,9.962234497E0,2.406921387E-1
1.831283839E0,5.626678467E-1,9.983779907E0,2.023925781E-1
1.836258204E0,5.291595459E-1,9.959838867E0,2.478790283E-1
1.841202052E0,5.315551758E-1,9.938293457E0,2.574615479E-1
1.846176417E0,5.842285156E-1,9.938293457E0,2.406921387E-1
1.851120265E0,5.722503662E-1,9.921539307E0,2.646331787E-1
1.856094630E0,5.315551758E-1,9.933502197E0,2.502746582E-1
1.861038478E0,5.770416260E-1,9.902389526E0,2.526702881E-1
1.866012843E0,5.602874756E-1,9.907165527E0,2.885742188E-1
1.870956691E0,5.291595459E-1,9.892807007E0,2.957611084E-1
1.875931056E0,5.554962158E-1,9.868865967E0,3.364715576E-1
1.880874904E0,5.100097656E-1,9.864074707E0,3.412475586E-1
1.885849269E0,5.411224365E-1,9.866470337E0,3.891296387E-1
1.890823634E0,5.219726562E-1,9.876052856E0,3.891296387E-1
1.895767482E0,5.435180664E-1,9.868865967E0,4.035034180E-1
1.900711329E0,5.650634766E-1,9.899993896E0,3.628082275E-1
1.905685695E0,5.722503662E-1,9.916748047E0,3.532257080E-1
1.910629542E0,5.746459961E-1,9.938293457E0,3.316802979E-1
1.915603908E0,6.033782959E-1,9.935897827E0,3.125152588E-1
1.920547755E0,6.009826660E-1,9.938293457E0,2.981567383E-1
1.925491603E0,6.153411865E-1,9.943084717E0,2.718200684E-1
1.930465968E0,5.650634766E-1,9.931106567E0,2.550659180E-1
1.935440333E0,5.602874756E-1,9.916748047E0,2.574615479E-1
1.940414699E0,5.842285156E-1,9.902389526E0,2.430877686E-1
1.945358546E0,6.153411865E-1,9.861679077E0,1.664733887E-1
1.950332911E0,6.512603760E-1,9.854492188E0,1.760559082E-1
1.955276759E0,6.153411865E-1,9.830551147E0,2.454833984E-1
1.960251124E0,6.057739258E-1,9.801818848E0,2.885742188E-1
1.965194972E0,6.081695557E-1,9.768310547E0,3.077392578E-1
1.970138820E0,6.081695557E-1,9.773101807E0,3.220977783E-1
1.975113185E0,6.033782959E-1,9.768310547E0,3.077392578E-1
1.980057033E0,5.746459961E-1,9.806610107E0,3.388519287E-1
1.985000880E0,5.602874756E-1,9.799438477E0,3.795623779E-1
1.990005763E0,6.201324463E-1,9.804214478E0,3.460388184E-1
1.994949611E0,7.829437256E-1,9.840133667E0,2.909698486E-1
1.999923976E0,6.153411865E-1,9.902389526E0,3.723754883E-1
2.004867824E0,4.692993164E-1,9.931106567E0,4.394226074E-1
2.009842189E0,4.692993164E-1,9.871261597E0,3.484344482E-1
2.014786036E0,3.974761963E-1,9.809005737E0,3.412475586E-1
2.019729884E0,4.286041260E-1,9.828155518E0,3.340759277E-1
2.024704249E0,4.788818359E-1,9.804214478E0,3.077392578E-1
2.029678615E0,4.645080566E-1,9.801818848E0,2.861938477E-1
2.034622462E0,4.740905762E-1,9.844924927E0,3.292846680E-1
2.039566310E0,5.123901367E-1,9.883224487E0,3.316802979E-1
2.044510158E0,5.004272461E-1,9.919143677E0,2.742156982E-1
2.049484523E0,5.387268066E-1,9.945480347E0,3.029479980E-1
2.054458888E0,5.722503662E-1,9.957443237E0,2.790069580E-1
2.059433253E0,5.243682861E-1,1.000294495E1,2.742156982E-1
2.064377101E0,4.573364258E-1,1.000532532E1,3.628082275E-1
2.069351466E0,4.645080566E-1,1.002209473E1,3.005523682E-1
2.074295314E0,5.219726562E-1,9.971817017E0,2.622375488E-1
2.079269679E0,4.238128662E-1,9.909561157E0,3.771667480E-1
2.084244044E0,4.788818359E-1,9.895202637E0,3.388519287E-1
2.089218409E0,4.836730957E-1,9.902389526E0,3.364715576E-1
2.094162257E0,4.764862061E-1,9.904769897E0,3.364715576E-1
2.099106105E0,4.692993164E-1,9.904769897E0,3.580169678E-1
2.104049952E0,4.884490967E-1,9.883224487E0,3.915252686E-1
2.109024318E0,5.243682861E-1,9.852096558E0,4.226531982E-1
2.113968165E0,5.243682861E-1,9.787460327E0,4.513854980E-1
2.118942531E0,5.435180664E-1,9.787460327E0,4.897003174E-1
2.123886378E0,5.315551758E-1,9.787460327E0,4.968719482E-1
2.128860743E0,5.100097656E-1,9.828155518E0,4.274444580E-1
2.133804591E0,4.932403564E-1,9.856887817E0,3.843536377E-1
2.138778956E0,4.836730957E-1,9.892807007E0,3.580169678E-1
2.143722804E0,4.836730957E-1,9.909561157E0,3.197021484E-1
2.148697169E0,5.123901367E-1,9.931106567E0,3.220977783E-1
2.153641017E0,5.770416260E-1,9.955047607E0,2.359008789E-1
2.158615382E0,5.985870361E-1,9.969421387E0,2.191467285E-1
2.163559230E0,6.129608154E-1,9.998153687E0,2.191467285E-1
2.168533595E0,6.201324463E-1,1.000532532E1,2.526702881E-1
2.173477443E0,5.818328857E-1,1.001730347E1,2.574615479E-1
2.178451808E0,5.339508057E-1,1.002209473E1,2.526702881E-1
2.183395656E0,5.076141357E-1,9.981384277E0,3.125152588E-1
2.188370021E0,5.123901367E-1,9.957443237E0,3.340759277E-1
2.193313868E0,4.812774658E-1,9.919143677E0,3.364715576E-1
2.198288234E0,4.405670166E-1,9.883224487E0,3.197021484E-1
2.203262599E0,4.453582764E-1,9.856887817E0,3.675842285E-1
2.208206447E0,4.669036865E-1,9.837738037E0,3.628082275E-1
2.213150294E0,5.267639160E-1,9.828155518E0,3.508300781E-1
2.218124659E0,5.507049561E-1,9.820983887E0,3.556213379E-1
2.223068507E0,5.531005859E-1,9.811401367E0,3.891296387E-1
2.228042872E0,5.219726562E-1,9.840133667E0,3.987121582E-1
2.232986720E0,5.387268066E-1,9.842529297E0,3.819580078E-1
2.237961085E0,5.076141357E-1,9.873657227E0,3.412475586E-1
2.242935450E0,5.147857666E-1,9.880828857E0,3.747711182E-1
2.247909816E0,5.267639160E-1,9.921539307E0,3.628082275E-1
2.252853663E0,4.956359863E-1,9.945480347E0,3.651885986E-1
2.257797511E0,4.549407959E-1,9.971817017E0,3.268890381E-1
2.262741359E0,4.357757568E-1,9.974212646E0,3.388519287E-1
2.267685206E0,4.525451660E-1,9.983779907E0,3.388519287E-1
2.272629054E0,4.549407959E-1,1.000532532E1,3.340759277E-1
2.277633937E0,4.716949463E-1,9.957443237E0,3.915252686E-1
2.282577784E0,5.243682861E-1,9.938293457E0,4.011077881E-1
2.287552150E0,5.076141357E-1,9.923934937E0,3.891296387E-1
2.292495997E0,5.267639160E-1,9.899993896E0,3.532257080E-1
2.297470363E0,5.171813965E-1,9.847320557E0,3.197021484E-1
2.302414210E0,5.171813965E-1,9.844924927E0,3.292846680E-1
2.307388575E0,5.004272461E-1,9.871261597E0,3.292846680E-1
2.312332423E0,5.028228760E-1,9.864074707E0,3.149108887E-1
2.317276271E0,5.411224365E-1,9.830551147E0,3.220977783E-1
2.322220118E0,4.980316162E-1,9.842529297E0,3.460388184E-1
2.327194484E0,4.980316162E-1,9.854492188E0,3.628082275E-1
2.332168849E0,4.908447266E-1,9.866470337E0,3.532257080E-1
2.337112697E0,4.788818359E-1,9.878433228E0,3.604125977E-1
2.342056544E0,4.860534668E-1,9.916748047E0,3.556213379E-1
2.347030909E0,4.980316162E-1,9.943084717E0,3.029479980E-1
2.351974757E0,4.956359863E-1,9.964630127E0,3.340759277E-1
2.356949122E0,5.076141357E-1,1.000532532E1,3.460388184E-1
2.361923488E0,5.052185059E-1,1.001490784E1,3.053436279E-1
2.366897853E0,5.147857666E-1,1.001490784E1,2.885742188E-1
2.371841700E0,5.171813965E-1,1.000772095E1,3.053436279E-1
2.376816066E0,5.123901367E-1,9.988571167E0,2.766113281E-1
2.381759913E0,4.764862061E-1,9.976608276E0,2.670288086E-1
2.386734279E0,4.860534668E-1,9.940689087E0,2.957611084E-1
2.391678126E0,4.764862061E-1,9.911956787E0,3.412475586E-1
2.396621974E0,4.286041260E-1,9.916748047E0,3.292846680E-1
2.401565822E0,4.190216064E-1,9.907165527E0,3.053436279E-1
2.406540187E0,4.046630859E-1,9.895202637E0,3.508300781E-1
2.411514552E0,4.501495361E-1,9.871261597E0,3.628082275E-1
2.416458400E0,4.740905762E-1,9.902389526E0,3.723754883E-1
2.421402247E0,4.525451660E-1,9.940689087E0,3.412475586E-1
2.426376613E0,4.621124268E-1,9.940689087E0,2.814025879E-1
2.431350978E0,4.764862061E-1,9.909561157E0,2.718200684E-1
2.436325343E0,4.501495361E-1,9.911956787E0,2.694244385E-1
2.441269191E0,4.908447266E-1,9.923934937E0,2.430877686E-1
2.446243556E0,4.788818359E-1,9.885620117E0,2.622375488E-1
2.451187404E0,4.669036865E-1,9.852096558E0,2.454833984E-1
2.456161769E0,4.501495361E-1,9.849716187E0,2.622375488E-1
2.461105616E0,4.238128662E-1,9.816192627E0,2.837982178E-1
2.466079982E0,4.525451660E-1,9.847320557E0,2.861938477E-1
2.471023829E0,3.759307861E-1,9.832946777E0,2.790069580E-1
2.475998195E0,3.400115967E-1,9.820983887E0,2.790069580E-1
2.480972560E0,3.088836670E-1,9.797042847E0,2.814025879E-1
2.485916408E0,2.777709961E-1,9.775482178E0,3.005523682E-1
2.490890773E0,2.538299561E-1,9.751541138E0,2.502746582E-1
2.495834620E0,2.155151367E-1,9.768310547E0,3.388519287E-1
2.500808986E0,2.203063965E-1,9.792251587E0,3.915252686E-1
2.505752833E0,2.274932861E-1,9.806610107E0,3.747711182E-1
2.510696681E0,2.322692871E-1,9.794647217E0,3.699798584E-1
2.515640529E0,2.705841064E-1,9.816192627E0,4.035034180E-1
2.520584376E0,2.849426270E-1,9.854492188E0,3.867492676E-1
2.525558741E0,3.495941162E-1,9.880828857E0,3.268890381E-1
2.530533107E0,3.711395264E-1,9.868865967E0,3.220977783E-1
2.535476954E0,3.854980469E-1,9.921539307E0,2.861938477E-1
2.540451320E0,4.142303467E-1,9.921539307E0,2.742156982E-1
2.545395167E0,4.022674561E-1,9.945480347E0,2.119598389E-1
2.550339015E0,4.046630859E-1,9.990966797E0,2.047882080E-1
2.555313380E0,4.094390869E-1,9.969421387E0,2.359008789E-1
2.560287745E0,3.902893066E-1,9.988571167E0,1.521148682E-1
2.565231593E0,4.118347168E-1,1.003405762E1,1.425323486E-1
2.570205958E0,3.543853760E-1,9.964630127E0,2.143554688E-1
2.575149806E0,3.400115967E-1,9.919143677E0,2.287292480E-1
2.580124171E0,3.687438965E-1,9.885620117E0,2.359008789E-1
2.585098536E0,3.831024170E-1,9.840133667E0,3.125152588E-1
2.590072902E0,4.166259766E-1,9.813796997E0,3.125152588E-1
2.595016749E0,4.333953857E-1,9.844924927E0,3.005523682E-1
2.599991115E0,4.764862061E-1,9.856887817E0,2.909698486E-1
2.604934962E0,5.195770264E-1,9.904769897E0,2.526702881E-1
2.609909327E0,5.602874756E-1,9.950271606E0,2.502746582E-1
2.614853175E0,5.746459961E-1,9.955047607E0,2.598571777E-1
2.619797023E0,5.554962158E-1,9.967025757E0,2.430877686E-1
2.624740870E0,5.578918457E-1,9.943084717E0,2.430877686E-1
2.629715236E0,5.076141357E-1,9.950271606E0,2.335205078E-1
2.634659083E0,5.004272461E-1,9.921539307E0,2.646331787E-1
2.639602931E0,4.716949463E-1,9.899993896E0,2.766113281E-1
2.644577296E0,4.860534668E-1,9.907165527E0,2.837982178E-1
2.649551661E0,4.836730957E-1,1.001011658E1,3.244934082E-1
2.654495509E0,5.339508057E-1,9.952667236E0,3.101348877E-1
2.659469874E0,5.842285156E-1,9.871261597E0,2.861938477E-1
2.664413722E0,5.411224365E-1,9.871261597E0,2.263336182E-1
2.669388087E0,5.076141357E-1,9.830551147E0,2.670288086E-1
2.674331935E0,4.980316162E-1,9.830551147E0,3.484344482E-1
2.679306300E0,5.866241455E-1,9.880828857E0,2.526702881E-1
2.684250148E0,5.650634766E-1,9.914352417E0,1.999969482E-1
2.689224513E0,5.866241455E-1,9.909561157E0,1.185913086E-1
2.694168361E0,6.225280762E-1,9.921539307E0,8.985900879E-2
2.699142726E0,6.201324463E-1,9.888015747E0,1.257781982E-1
2.704086574E0,6.273193359E-1,9.859283447E0,1.449279785E-1
2.709060939E0,6.057739258E-1,9.849716187E0,1.976013184E-1
2.714004786E0,5.818328857E-1,9.847320557E0,2.598571777E-1
2.718979152E0,5.794372559E-1,9.861679077E0,2.861938477E-1
2.723922999E0,5.818328857E-1,9.825775146E0,2.909698486E-1
2.728897365E0,6.033782959E-1,9.854492188E0,2.814025879E-1
2.733841212E0,5.842285156E-1,9.876052856E0,2.718200684E-1
2.738815577E0,6.129608154E-1,9.859283447E0,2.694244385E-1
2.743759425E0,6.177368164E-1,9.859283447E0,2.382965088E-1
2.748703273E0,6.560516357E-1,9.878433228E0,2.263336182E-1
2.753677638E0,6.632385254E-1,9.878433228E0,2.406921387E-1
2.758621486E0,6.536560059E-1,9.892807007E0,2.335205078E-1
2.763595851E0,6.369018555E-1,9.919143677E0,1.808471680E-1
2.768570216E0,6.249237061E-1,9.914352417E0,1.784515381E-1
2.773514064E0,6.416778564E-1,9.888015747E0,2.287292480E-1
2.778488429E0,6.129608154E-1,9.883224487E0,2.071838379E-1
2.783432277E0,6.536560059E-1,9.907165527E0,2.191467285E-1
2.788406642E0,6.201324463E-1,9.902389526E0,2.454833984E-1
2.793350490E0,5.770416260E-1,9.926330566E0,2.694244385E-1
2.798324855E0,6.177368164E-1,9.923934937E0,2.382965088E-1
2.803268702E0,6.273193359E-1,9.928710938E0,2.406921387E-1
2.808243068E0,6.440734863E-1,9.926330566E0,2.526702881E-1
2.813186915E0,6.560516357E-1,9.933502197E0,2.263336182E-1
2.818161281E0,6.464691162E-1,9.943084717E0,1.952056885E-1
2.823105128E0,6.392822266E-1,9.923934937E0,2.191467285E-1
2.828079493E0,6.608428955E-1,9.883224487E0,1.640777588E-1
2.833023341E0,6.584472656E-1,9.888015747E0,1.664733887E-1
2.837997706E0,6.488647461E-1,9.899993896E0,1.784515381E-1
2.842941554E0,6.392822266E-1,9.888015747E0,1.401367188E-1
2.847885402E0,6.273193359E-1,9.892807007E0,1.640777588E-1
2.852859767E0,6.033782959E-1,9.928710938E0,1.688690186E-1
2.857834132E0,6.488647461E-1,9.919143677E0,1.928100586E-1
2.862777980E0,6.584472656E-1,9.938293457E0,1.976013184E-1
2.867721827E0,6.871795654E-1,9.962234497E0,2.526702881E-1
2.872696193E0,6.967468262E-1,9.933502197E0,2.909698486E-1
2.877640040E0,7.063293457E-1,9.938293457E0,2.335205078E-1
2.882614406E0,7.302703857E-1,9.967025757E0,2.191467285E-1
2.887558253E0,7.398529053E-1,9.962234497E0,2.430877686E-1
2.892532618E0,7.374572754E-1,9.931106567E0,1.760559082E-1
2.897506984E0,7.422332764E-1,9.928710938E0,1.640777588E-1
2.902481349E0,7.542114258E-1,9.945480347E0,1.832427979E-1
2.907455714E0,7.542114258E-1,9.959838867E0,1.928100586E-1
2.912399562E0,7.254791260E-1,9.935897827E0,2.071838379E-1
2.917373927E0,7.326660156E-1,9.938293457E0,2.502746582E-1
2.922317775E0,6.967468262E-1,9.919143677E0,2.287292480E-1
2.927292140E0,6.943511963E-1,9.892807007E0,2.550659180E-1
2.932235988E0,6.895751953E-1,9.880828857E0,2.766113281E-1
2.937179835E0,6.991424561E-1,9.854492188E0,3.220977783E-1
2.942123683E0,6.704101562E-1,9.864074707E0,3.077392578E-1
2.947098048E0,6.608428955E-1,9.864074707E0,3.244934082E-1
2.952041896E0,6.680145264E-1,9.864074707E0,3.292846680E-1
2.956985743E0,6.464691162E-1,9.883224487E0,3.149108887E-1
2.961960109E0,6.249237061E-1,9.892807007E0,3.268890381E-1
2.966903956E0,6.057739258E-1,9.885620117E0,3.388519287E-1
2.971878322E0,5.866241455E-1,9.868865967E0,3.651885986E-1
2.976852687E0,5.602874756E-1,9.868865967E0,4.130859375E-1
2.981796534E0,5.746459961E-1,9.873657227E0,4.130859375E-1
2.986740382E0,5.746459961E-1,9.840133667E0,3.987121582E-1
2.991714747E0,5.219726562E-1,9.837738037E0,4.274444580E-1
2.996658595E0,4.884490967E-1,9.844924927E0,3.580169678E-1
3.001632960E0,4.669036865E-1,9.873657227E0,3.723754883E-1
3.006576808E0,4.477539062E-1,9.876052856E0,3.987121582E-1
3.011551173E0,4.190216064E-1,9.878433228E0,3.795623779E-1
3.016495021E0,4.046630859E-1,9.911956787E0,3.699798584E-1
3.021469386E0,3.328247070E-1,9.945480347E0,3.412475586E-1
3.026443751E0,3.184661865E-1,9.979003906E0,3.316802979E-1
3.031387599E0,3.328247070E-1,9.943084717E0,3.244934082E-1
3.036331447E0,3.352203369E-1,9.952667236E0,3.125152588E-1
3.041305812E0,3.160705566E-1,9.974212646E0,2.718200684E-1
3.046280177E0,3.376159668E-1,9.938293457E0,2.574615479E-1
3.051224025E0,3.328247070E-1,9.904769897E0,2.790069580E-1
3.056167872E0,3.328247070E-1,9.907165527E0,2.598571777E-1
3.061111720E0,3.711395264E-1,9.890411377E0,2.382965088E-1
3.066116603E0,3.878936768E-1,9.909561157E0,2.191467285E-1
3.071060450E0,3.495941162E-1,9.897598267E0,1.856231689E-1
3.076034816E0,3.639526367E-1,9.902389526E0,1.616821289E-1
3.080978663E0,3.783264160E-1,9.904769897E0,1.640777588E-1
3.085953029E0,4.333953857E-1,9.883224487E0,2.143554688E-1
3.090927394E0,4.357757568E-1,9.864074707E0,1.760559082E-1
3.095871241E0,3.926849365E-1,9.868865967E0,2.382965088E-1
3.100815089E0,3.807220459E-1,9.864074707E0,1.760559082E-1
3.105758937E0,4.142303467E-1,9.895202637E0,1.784515381E-1
3.110702784E0,4.238128662E-1,9.883224487E0,1.999969482E-1
3.115677150E0,3.854980469E-1,9.878433228E0,2.047882080E-1
3.120620997E0,3.735351562E-1,9.871261597E0,1.999969482E-1
3.125595363E0,3.663482666E-1,9.885620117E0,2.406921387E-1
3.130539210E0,3.591613770E-1,9.880828857E0,2.837982178E-1
3.135513575E0,3.400115967E-1,9.873657227E0,2.574615479E-1
3.140487941E0,3.400115967E-1,9.892807007E0,2.095794678E-1
3.145431788E0,3.400115967E-1,9.899993896E0,2.670288086E-1
3.150406154E0,3.064880371E-1,9.892807007E0,2.766113281E-1
3.155380519E0,3.663482666E-1,9.880828857E0,2.526702881E-1
3.160354884E0,3.591613770E-1,9.868865967E0,2.837982178E-1
3.165298732E0,3.998718262E-1,9.914352417E0,3.077392578E-1
3.170242579E0,4.286041260E-1,9.921539307E0,3.173065186E-1
3.175186427E0,4.238128662E-1,9.933502197E0,3.340759277E-1
3.180160792E0,4.549407959E-1,9.959838867E0,3.412475586E-1
3.185104640E0,4.740905762E-1,9.947875977E0,3.268890381E-1
3.190079005E0,4.597320557E-1,9.974212646E0,3.149108887E-1
3.195022853E0,4.429626465E-1,9.940689087E0,2.957611084E-1
3.199997218E0,4.309997559E-1,9.914352417E0,3.292846680E-1
3.204941066E0,4.214172363E-1,9.931106567E0,3.412475586E-1
3.209915431E0,4.094390869E-1,9.899993896E0,3.268890381E-1
3.214859279E0,3.854980469E-1,9.885620117E0,3.532257080E-1
3.219833644E0,3.807220459E-1,9.895202637E0,3.173065186E-1
3.224777491E0,3.376159668E-1,9.914352417E0,2.981567383E-1
3.229751857E0,2.873382568E-1,9.933502197E0,2.981567383E-1
3.234695704E0,3.304443359E-1,9.967025757E0,3.197021484E-1
3.239639552E0,3.208618164E-1,9.976608276E0,3.005523682E-1
3.244613917E0,3.352203369E-1,9.967025757E0,2.574615479E-1
3.249557765E0,3.471984863E-1,9.995758057E0,2.215423584E-1
3.254532130E0,3.304443359E-1,9.981384277E0,2.406921387E-1
3.259506495E0,3.495941162E-1,9.995758057E0,1.688690186E-1
3.264450343E0,3.711395264E-1,1.002209473E1,1.353454590E-1
3.269424708E0,4.046630859E-1,1.001011658E1,1.976013184E-1
3.274368556E0,4.166259766E-1,9.976608276E0,1.976013184E-1
3.279342921E0,4.357757568E-1,9.967025757E0,2.119598389E-1
3.284317286E0,4.573364258E-1,9.952667236E0,2.406921387E-1
3.289291652E0,4.621124268E-1,9.962234497E0,2.143554688E-1
3.294235499E0,4.980316162E-1,9.955047607E0,2.215423584E-1
3.299209865E0,5.147857666E-1,9.923934937E0,1.904144287E-1
3.304153712E0,4.980316162E-1,9.909561157E0,2.191467285E-1
3.309128077E0,5.123901367E-1,9.909561157E0,1.640777588E-1
3.314071925E0,5.291595459E-1,9.914352417E0,1.952056885E-1
3.319046290E0,5.411224365E-1,9.909561157E0,1.928100586E-1
3.323990138E0,5.602874756E-1,9.873657227E0,1.856231689E-1
3.328964503E0,5.315551758E-1,9.914352417E0,1.497192383E-1
3.333908351E0,5.363464355E-1,9.916748047E0,1.425323486E-1
3.338882716E0,5.243682861E-1,9.904769897E0,1.090087891E-1
3.343826564E0,5.243682861E-1,9.921539307E0,1.209869385E-1
3.348800929E0,5.267639160E-1,9.962234497E0,1.640777588E-1
3.353744777E0,4.980316162E-1,9.947875977E0,1.688690186E-1
3.358719142E0,4.764862061E-1,9.935897827E0,1.784515381E-1
3.363662990E0,4.429626465E-1,9.931106567E0,2.047882080E-1
3.368606837E0,4.405670166E-1,9.947875977E0,1.999969482E-1
3.373550685E0,4.405670166E-1,9.974212646E0,1.592864990E-1
3.378525050E0,3.974761963E-1,9.988571167E0,2.023925781E-1
3.383468898E0,3.831024170E-1,9.959838867E0,2.167510986E-1
3.388443263E0,3.926849365E-1,9.983779907E0,2.263336182E-1
3.393387111E0,3.567810059E-1,9.995758057E0,2.095794678E-1
3.398361476E0,3.687438965E-1,1.001251221E1,2.335205078E-1
3.403305324E0,3.687438965E-1,9.981384277E0,1.904144287E-1
3.408279689E0,3.448028564E-1,9.967025757E0,1.880187988E-1
3.413223536E0,3.448028564E-1,9.940689087E0,1.808471680E-1
3.418167384E0,3.783264160E-1,9.957443237E0,1.736602783E-1
3.423172267E0,3.950805664E-1,9.957443237E0,2.095794678E-1
3.428146632E0,3.615570068E-1,9.940689087E0,2.119598389E-1
3.433090480E0,3.687438965E-1,9.919143677E0,1.090087891E-1
3.438064845E0,4.070587158E-1,9.919143677E0,1.090087891E-1
3.443008693E0,4.022674561E-1,9.883224487E0,1.114044189E-1
3.447952540E0,4.357757568E-1,9.856887817E0,1.114044189E-1
3.452896388E0,4.812774658E-1,9.842529297E0,6.831359863E-2
3.457840236E0,5.123901367E-1,9.849716187E0,7.310485840E-2
3.462814601E0,5.483093262E-1,9.820983887E0,1.257781982E-1
3.467758449E0,6.105651855E-1,9.804214478E0,1.257781982E-1
3.472732814E0,6.656188965E-1,9.837738037E0,1.305694580E-1
3.477707179E0,7.398529053E-1,9.820983887E0,1.497192383E-1
3.482651027E0,7.901306152E-1,9.811401367E0,1.161956787E-1
3.487625392E0,8.308258057E-1,9.794647217E0,8.746337891E-2
3.492569240E0,8.906860352E-1,9.765914917E0,1.018371582E-1
3.497543605E0,8.691253662E-1,9.782669067E0,1.281738281E-1
3.502487452E0,9.074401855E-1,9.789855957E0,1.185913086E-1
3.507461818E0,8.906860352E-1,9.763519287E0,1.712646484E-1
3.512405665E0,8.619537354E-1,9.773101807E0,1.760559082E-1
3.517380031E0,8.212432861E-1,9.801818848E0,1.760559082E-1
3.522323878E0,7.925109863E-1,9.849716187E0,1.760559082E-1
3.527298243E0,7.829437256E-1,9.849716187E0,1.808471680E-1
3.532242091E0,7.470245361E-1,9.888015747E0,2.143554688E-1
3.537216456E0,7.254791260E-1,9.911956787E0,2.215423584E-1
3.542160304E0,6.823883057E-1,9.931106567E0,2.790069580E-1
3.547134669E0,7.087249756E-1,9.919143677E0,3.005523682E-1
3.552078517E0,6.823883057E-1,9.914352417E0,3.316802979E-1
3.557022365E0,6.464691162E-1,9.921539307E0,3.819580078E-1
3.561996730E0,6.105651855E-1,9.947875977E0,3.867492676E-1
3.566971095E0,5.937957764E-1,9.907165527E0,4.322357178E-1
3.571914943E0,5.554962158E-1,9.880828857E0,4.633636475E-1
3.576889308E0,5.195770264E-1,9.866470337E0,5.112457275E-1
3.581833156E0,5.147857666E-1,9.835342407E0,5.375823975E-1
3.586807521E0,5.123901367E-1,9.828155518E0,4.920806885E-1
3.591751368E0,4.812774658E-1,9.809005737E0,5.543365479E-1
3.596725734E0,4.908447266E-1,9.794647217E0,6.237640381E-1
3.601669581E0,4.764862061E-1,9.799438477E0,6.716461182E-1
3.606643947E0,4.716949463E-1,9.792251587E0,7.530517578E-1
3.611587794E0,4.429626465E-1,9.818588257E0,7.554473877E-1
3.616562159E0,4.142303467E-1,9.832946777E0,7.315063477E-1
3.621506007E0,4.309997559E-1,9.866470337E0,7.315063477E-1
3.626480372E0,4.501495361E-1,9.907165527E0,7.674255371E-1
3.631424220E0,3.974761963E-1,9.911956787E0,7.458801270E-1
3.636368068E0,3.687438965E-1,9.892807007E0,7.458801270E-1
3.641342433E0,3.735351562E-1,9.919143677E0,7.602386475E-1
3.646316798E0,3.519897461E-1,9.899993896E0,7.530517578E-1
3.651260646E0,3.184661865E-1,9.907165527E0,7.075653076E-1
3.656204493E0,2.969207764E-1,9.899993896E0,6.884155273E-1
3.661178859E0,2.897338867E-1,9.897598267E0,7.027740479E-1
3.666153224E0,2.562103271E-1,9.885620117E0,7.147521973E-1
3.671097072E0,2.346649170E-1,9.856887817E0,7.530517578E-1
3.676071437E0,2.155151367E-1,9.856887817E0,7.315063477E-1
3.681015284E0,1.795959473E-1,9.873657227E0,7.650299072E-1
3.685989650E0,2.059326172E-1,9.892807007E0,7.554473877E-1
3.690933497E0,2.179107666E-1,9.919143677E0,7.339019775E-1
3.695877345E0,2.011566162E-1,9.907165527E0,7.458801270E-1
3.700851710E0,2.035522461E-1,9.957443237E0,7.243194580E-1
3.705795558E0,2.538299561E-1,9.945480347E0,7.075653076E-1
3.710769923E0,2.849426270E-1,9.988571167E0,6.740417480E-1
3.715744288E0,2.921295166E-1,9.957443237E0,6.956024170E-1
3.720688136E0,2.945251465E-1,9.940689087E0,6.620788574E-1
3.725662501E0,2.945251465E-1,9.962234497E0,5.950317383E-1
3.730606349E0,2.729797363E-1,9.926330566E0,7.051696777E-1
3.735580714E0,2.777709961E-1,9.907165527E0,8.081207275E-1
3.740555079E0,2.394561768E-1,9.868865967E0,7.482604980E-1
3.745498927E0,2.370605469E-1,9.852096558E0,7.339019775E-1
3.750473292E0,2.059326172E-1,9.835342407E0,7.506561279E-1
3.755417140E0,1.843872070E-1,9.806610107E0,7.793884277E-1
3.760391505E0,1.748199463E-1,9.792251587E0,7.554473877E-1
3.765335353E0,1.412963867E-1,9.816192627E0,7.913665771E-1
3.770309718E0,1.101684570E-1,9.809005737E0,8.057250977E-1
3.775253566E0,1.125640869E-1,9.801818848E0,7.865753174E-1
3.780227931E0,1.197509766E-1,9.832946777E0,8.200988770E-1
3.785171779E0,1.412963867E-1,9.844924927E0,8.009338379E-1
3.790146144E0,1.508789062E-1,9.813796997E0,7.817840576E-1
3.795089991E0,1.891784668E-1,9.813796997E0,7.530517578E-1
3.800064357E0,2.394561768E-1,9.818588257E0,7.578430176E-1
3.805008204E0,2.753753662E-1,9.832946777E0,7.554473877E-1
3.809982570E0,2.753753662E-1,9.806610107E0,7.386932373E-1
3.814926417E0,3.017120361E-1,9.832946777E0,6.812286377E-1
3.819900783E0,3.136749268E-1,9.868865967E0,6.501007080E-1
3.824844630E0,3.352203369E-1,9.847320557E0,6.477050781E-1
3.829818995E0,3.400115967E-1,9.878433228E0,5.926513672E-1
3.834762843E0,3.424072266E-1,9.876052856E0,6.094055176E-1
3.839706691E0,3.471984863E-1,9.866470337E0,6.118011475E-1
3.844650538E0,3.304443359E-1,9.892807007E0,5.782775879E-1
3.849624904E0,2.825469971E-1,9.902389526E0,5.686950684E-1
3.854599269E0,2.873382568E-1,9.911956787E0,5.758819580E-1
3.859543116E0,2.801666260E-1,9.933502197E0,5.710906982E-1
3.864517482E0,2.945251465E-1,9.926330566E0,5.974273682E-1
3.869491847E0,2.873382568E-1,9.943084717E0,6.022186279E-1
3.874435695E0,3.088836670E-1,9.926330566E0,5.830688477E-1
3.879410060E0,2.825469971E-1,9.909561157E0,6.381378174E-1
3.884353908E0,3.041076660E-1,9.919143677E0,6.572875977E-1
3.889328273E0,3.136749268E-1,9.897598267E0,6.357421875E-1
3.894272120E0,3.136749268E-1,9.890411377E0,6.237640381E-1
3.899246486E0,3.448028564E-1,9.871261597E0,6.333465576E-1
3.904220851E0,3.352203369E-1,9.883224487E0,6.094055176E-1
3.909164699E0,3.376159668E-1,9.880828857E0,5.758819580E-1
3.914108546E0,3.376159668E-1,9.916748047E0,5.854644775E-1
3.919082911E0,3.304443359E-1,9.931106567E0,6.070098877E-1
3.924026759E0,2.945251465E-1,9.950271606E0,5.591278076E-1
3.929001124E0,2.993164062E-1,9.943084717E0,4.873046875E-1
3.933944972E0,3.256530762E-1,9.950271606E0,5.208129883E-1
3.938919337E0,3.208618164E-1,9.926330566E0,5.303955078E-1
3.943863185E0,3.328247070E-1,9.926330566E0,5.519409180E-1
3.948837550E0,3.328247070E-1,9.931106567E0,5.279998779E-1
3.953781398E0,3.735351562E-1,9.921539307E0,5.447540283E-1
3.958755763E0,3.759307861E-1,9.916748047E0,5.136413574E-1
3.963699611E0,4.190216064E-1,9.883224487E0,5.064544678E-1
3.968643458E0,4.429626465E-1,9.880828857E0,4.777221680E-1
3.973587306E0,4.357757568E-1,9.856887817E0,4.561767578E-1
3.978561671E0,4.477539062E-1,9.842529297E0,4.250488281E-1
3.983505519E0,4.860534668E-1,9.852096558E0,4.035034180E-1
3.988479884E0,5.004272461E-1,9.864074707E0,3.556213379E-1
3.993423732E0,5.100097656E-1,9.856887817E0,3.364715576E-1
3.998398097E0,5.267639160E-1,9.837738037E0,3.508300781E-1
4.003341945E0,5.626678467E-1,9.830551147E0,3.340759277E-1
4.008316310E0,5.435180664E-1,9.832946777E0,3.388519287E-1
4.013260158E0,5.171813965E-1,9.847320557E0,3.173065186E-1
4.018204005E0,5.339508057E-1,9.873657227E0,3.747711182E-1
4.023178370E0,5.602874756E-1,9.876052856E0,3.843536377E-1
4.028152736E0,5.291595459E-1,9.909561157E0,4.082946777E-1
4.033127101E0,5.171813965E-1,9.923934937E0,3.915252686E-1
4.038101466E0,4.692993164E-1,9.947875977E0,4.202575684E-1
4.043045314E0,5.171813965E-1,9.981384277E0,3.795623779E-1
4.048019679E0,5.052185059E-1,9.995758057E0,3.388519287E-1
4.052963527E0,4.956359863E-1,9.962234497E0,3.292846680E-1
4.057907374E0,4.908447266E-1,9.950271606E0,3.268890381E-1
4.062851222E0,5.052185059E-1,9.928710938E0,3.053436279E-1
4.067825587E0,5.291595459E-1,9.890411377E0,3.101348877E-1
4.072769435E0,5.626678467E-1,9.866470337E0,3.173065186E-1
4.077743800E0,5.722503662E-1,9.852096558E0,2.622375488E-1
4.082687648E0,6.033782959E-1,9.847320557E0,2.622375488E-1
4.087662013E0,5.818328857E-1,9.868865967E0,2.526702881E-1
4.092605861E0,5.674591064E-1,9.849716187E0,2.119598389E-1
4.097549708E0,5.961914062E-1,9.868865967E0,1.497192383E-1
4.102524074E0,6.057739258E-1,9.868865967E0,1.928100586E-1
4.107498439E0,6.105651855E-1,9.883224487E0,2.478790283E-1
4.112442286E0,6.129608154E-1,9.926330566E0,2.359008789E-1
4.117416652E0,6.249237061E-1,9.907165527E0,2.718200684E-1
4.122360499E0,6.392822266E-1,9.923934937E0,2.670288086E-1
4.127334865E0,6.584472656E-1,9.938293457E0,2.598571777E-1
4.132309230E0,6.680145264E-1,9.938293457E0,2.502746582E-1
4.137283595E0,7.063293457E-1,9.976608276E0,2.430877686E-1
4.142257960E0,7.326660156E-1,9.967025757E0,2.526702881E-1
4.147201808E0,7.422332764E-1,9.974212646E0,2.335205078E-1
4.152145656E0,7.182922363E-1,9.928710938E0,1.999969482E-1
4.157120021E0,7.015380859E-1,9.911956787E0,2.502746582E-1
4.162063868E0,6.919555664E-1,9.876052856E0,2.646331787E-1
4.167038234E0,6.656188965E-1,9.880828857E0,2.814025879E-1
4.171982081E0,6.225280762E-1,9.878433228E0,3.077392578E-1
4.176956447E0,6.033782959E-1,9.861679077E0,2.957611084E-1
4.181930812E0,5.698547363E-1,9.880828857E0,3.244934082E-1
4.186874659E0,5.674591064E-1,9.871261597E0,3.197021484E-1
4.191818507E0,5.219726562E-1,9.861679077E0,3.268890381E-1
4.196792872E0,5.147857666E-1,9.876052856E0,3.388519287E-1
4.201736720E0,4.932403564E-1,9.895202637E0,3.436431885E-1
4.206680568E0,4.740905762E-1,9.890411377E0,3.628082275E-1
4.211624415E0,4.573364258E-1,9.916748047E0,3.484344482E-1
4.216598781E0,4.740905762E-1,9.914352417E0,3.316802979E-1
4.221542628E0,4.764862061E-1,9.928710938E0,3.604125977E-1
4.226516993E0,5.004272461E-1,9.952667236E0,3.604125977E-1
4.231460841E0,4.956359863E-1,9.959838867E0,3.316802979E-1
4.236404689E0,5.171813965E-1,9.959838867E0,3.029479980E-1
4.241379054E0,4.932403564E-1,9.957443237E0,3.220977783E-1
4.246322902E0,4.980316162E-1,9.976608276E0,3.604125977E-1
4.251297267E0,4.453582764E-1,9.976608276E0,3.532257080E-1
4.256271632E0,4.333953857E-1,9.959838867E0,3.244934082E-1
4.261215480E0,4.405670166E-1,9.933502197E0,4.011077881E-1
4.266189845E0,4.405670166E-1,9.957443237E0,3.723754883E-1
4.271164210E0,4.381713867E-1,9.945480347E0,3.915252686E-1
4.276138575E0,4.573364258E-1,9.911956787E0,3.747711182E-1
4.281082423E0,4.549407959E-1,9.923934937E0,4.058990479E-1
4.286056788E0,4.357757568E-1,9.957443237E0,4.058990479E-1
4.291000636E0,4.525451660E-1,9.938293457E0,4.035034180E-1
4.295944484E0,4.381713867E-1,9.940689087E0,3.699798584E-1
4.300918849E0,4.669036865E-1,9.950271606E0,3.795623779E-1
4.305862697E0,5.004272461E-1,9.962234497E0,3.723754883E-1
4.310837062E0,4.764862061E-1,9.933502197E0,3.436431885E-1
4.315780909E0,4.740905762E-1,9.895202637E0,3.508300781E-1
4.320724757E0,4.884490967E-1,9.847320557E0,3.556213379E-1
4.325699122E0,4.884490967E-1,9.818588257E0,3.699798584E-1
4.330642970E0,5.100097656E-1,9.804214478E0,3.699798584E-1
4.335586818E0,4.573364258E-1,9.811401367E0,3.651885986E-1
4.340561183E0,4.716949463E-1,9.820983887E0,3.843536377E-1
4.345505031E0,4.597320557E-1,9.840133667E0,3.771667480E-1
4.350448878E0,4.333953857E-1,9.842529297E0,3.364715576E-1
4.355423243E0,4.716949463E-1,9.883224487E0,3.364715576E-1
4.360397609E0,4.740905762E-1,9.935897827E0,3.556213379E-1
4.365341456E0,4.477539062E-1,9.969421387E0,2.981567383E-1
4.370315822E0,4.812774658E-1,9.971817017E0,2.742156982E-1
4.375259669E0,5.076141357E-1,1.000772095E1,2.430877686E-1
4.380234034E0,5.171813965E-1,1.003884888E1,2.263336182E-1
4.385177882E0,5.674591064E-1,1.004843140E1,1.904144287E-1
4.390152247E0,5.985870361E-1,1.001490784E1,1.736602783E-1
4.395126613E0,5.698547363E-1,1.000532532E1,1.832427979E-1
4.400070460E0,5.770416260E-1,1.000532532E1,1.545104980E-1
4.405044825E0,5.746459961E-1,9.979003906E0,1.497192383E-1
4.410019191E0,5.746459961E-1,9.998153687E0,1.712646484E-1
4.414963038E0,5.650634766E-1,9.955047607E0,1.904144287E-1
4.419937404E0,5.985870361E-1,9.957443237E0,1.736602783E-1
4.424867119E0,6.081695557E-1,9.957443237E0,1.497192383E-1
4.429841484E0,6.249237061E-1,9.955047607E0,1.185913086E-1
4.434785332E0,6.273193359E-1,9.964630127E0,9.704589844E-2
4.439729180E0,6.464691162E-1,9.957443237E0,6.831359863E-2
4.444703545E0,6.919555664E-1,9.926330566E0,6.352233887E-2
4.449647393E0,6.847839355E-1,9.907165527E0,7.310485840E-2
4.454621758E0,6.895751953E-1,9.885620117E0,9.704589844E-2
4.459565606E0,7.063293457E-1,9.885620117E0,6.591796875E-2
4.464509453E0,6.847839355E-1,9.864074707E0,4.197692871E-2
4.469483818E0,6.560516357E-1,9.844924927E0,4.197692871E-2
4.474458184E0,6.345062256E-1,9.828155518E0,1.185913086E-1
4.479432549E0,5.674591064E-1,9.825775146E0,1.664733887E-1
4.484406914E0,5.746459961E-1,9.849716187E0,1.904144287E-1
4.489350762E0,5.291595459E-1,9.849716187E0,2.406921387E-1
4.494294609E0,5.195770264E-1,9.854492188E0,2.837982178E-1
4.499268975E0,4.860534668E-1,9.871261597E0,3.244934082E-1
4.504212822E0,4.549407959E-1,9.861679077E0,3.508300781E-1
4.509187188E0,4.070587158E-1,9.911956787E0,3.771667480E-1
4.514131035E0,4.046630859E-1,9.892807007E0,3.819580078E-1
4.519105401E0,3.998718262E-1,9.888015747E0,3.795623779E-1
4.524049248E0,3.854980469E-1,9.895202637E0,4.226531982E-1
4.529023613E0,3.926849365E-1,9.871261597E0,3.939208984E-1
4.533967461E0,4.070587158E-1,9.885620117E0,3.556213379E-1
4.538941826E0,4.166259766E-1,9.916748047E0,3.675842285E-1
4.543885674E0,4.166259766E-1,9.885620117E0,3.987121582E-1
4.548860039E0,3.878936768E-1,9.873657227E0,4.058990479E-1
4.553803887E0,3.831024170E-1,9.880828857E0,4.346313477E-1
4.558778252E0,3.567810059E-1,9.885620117E0,3.963165283E-1
4.563722100E0,3.088836670E-1,9.847320557E0,4.106903076E-1
4.568665947E0,3.088836670E-1,9.854492188E0,3.891296387E-1
4.573609795E0,2.945251465E-1,9.844924927E0,4.250488281E-1
4.578584160E0,2.753753662E-1,9.832946777E0,4.322357178E-1
4.583528008E0,2.753753662E-1,9.864074707E0,4.633636475E-1
4.588502373E0,2.562103271E-1,9.876052856E0,4.729309082E-1
4.593446221E0,2.586059570E-1,9.856887817E0,5.112457275E-1
4.598420586E0,2.562103271E-1,9.847320557E0,5.663146973E-1
4.603364434E0,2.203063965E-1,9.868865967E0,6.118011475E-1
4.608338799E0,2.227020264E-1,9.883224487E0,6.333465576E-1
4.613282647E0,2.179107666E-1,9.852096558E0,6.477050781E-1
4.618257012E0,2.657928467E-1,9.852096558E0,6.477050781E-1
4.623200859E0,2.801666260E-1,9.842529297E0,6.716461182E-1
4.628175225E0,2.705841064E-1,9.830551147E0,6.788330078E-1
4.633149590E0,2.586059570E-1,9.842529297E0,6.812286377E-1
4.638123955E0,2.538299561E-1,9.835342407E0,6.788330078E-1
4.643067803E0,2.705841064E-1,9.844924927E0,6.572875977E-1
4.648011651E0,2.705841064E-1,9.880828857E0,6.477050781E-1
4.652955498E0,2.155151367E-1,9.854492188E0,6.548919678E-1
4.657929863E0,2.346649170E-1,9.909561157E0,6.788330078E-1
4.662873711E0,2.203063965E-1,9.938293457E0,6.884155273E-1
4.667848076E0,2.131195068E-1,9.950271606E0,7.027740479E-1
4.672791924E0,1.843872070E-1,9.971817017E0,7.123565674E-1
4.677766289E0,1.556549072E-1,9.943084717E0,7.099609375E-1
4.682710137E0,1.652374268E-1,9.943084717E0,7.075653076E-1
4.687684502E0,2.011566162E-1,9.938293457E0,7.147521973E-1
4.692658867E0,1.843872070E-1,9.919143677E0,7.243194580E-1
4.697602715E0,2.035522461E-1,9.907165527E0,6.979827881E-1
4.702546563E0,2.059326172E-1,9.904769897E0,7.027740479E-1
4.707490410E0,2.298736572E-1,9.888015747E0,6.692657471E-1
4.712464776E0,2.705841064E-1,9.878433228E0,6.740417480E-1
4.717439141E0,2.969207764E-1,9.883224487E0,6.572875977E-1
4.722382988E0,3.160705566E-1,9.856887817E0,6.141967773E-1
4.727357354E0,3.184661865E-1,9.830551147E0,6.285552979E-1
4.732331719E0,3.567810059E-1,9.830551147E0,6.285552979E-1
4.737306084E0,3.854980469E-1,9.830551147E0,6.022186279E-1
4.742249932E0,4.142303467E-1,9.835342407E0,5.782775879E-1
4.747224297E0,4.046630859E-1,9.820983887E0,5.998229980E-1
4.752168145E0,4.190216064E-1,9.785064697E0,6.213684082E-1
4.757142510E0,4.262084961E-1,9.775482178E0,5.758819580E-1
4.762116875E0,4.190216064E-1,9.777877808E0,5.830688477E-1
4.767060723E0,4.118347168E-1,9.825775146E0,5.902557373E-1
4.772004570E0,4.477539062E-1,9.849716187E0,5.639190674E-1
4.776978936E0,4.501495361E-1,9.830551147E0,5.710906982E-1
4.781922783E0,4.573364258E-1,9.859283447E0,5.782775879E-1
4.786897149E0,4.716949463E-1,9.888015747E0,5.782775879E-1
4.791840996E0,5.052185059E-1,9.883224487E0,5.232086182E-1
4.796784844E0,5.363464355E-1,9.955047607E0,4.992675781E-1
4.801728692E0,5.626678467E-1,9.940689087E0,4.465942383E-1
4.806672539E0,5.985870361E-1,9.945480347E0,4.250488281E-1
4.811646904E0,6.392822266E-1,9.962234497E0,3.699798584E-1
4.816621270E0,6.895751953E-1,9.959838867E0,3.244934082E-1
4.821565117E0,6.895751953E-1,9.950271606E0,3.173065186E-1
4.826539483E0,6.991424561E-1,9.935897827E0,2.790069580E-1
4.831483330E0,7.158966064E-1,9.923934937E0,2.814025879E-1
4.836457695E0,7.542114258E-1,9.947875977E0,2.957611084E-1
4.841401543E0,7.757568359E-1,9.971817017E0,2.143554688E-1
4.846345391E0,8.092803955E-1,9.995758057E0,2.287292480E-1
4.851319756E0,8.164672852E-1,9.979003906E0,2.454833984E-1
4.856263604E0,7.925109863E-1,9.926330566E0,2.670288086E-1
4.861237969E0,8.212432861E-1,9.911956787E0,2.790069580E-1
4.866181817E0,8.188476562E-1,9.921539307E0,2.047882080E-1
4.871156182E0,8.044891357E-1,9.940689087E0,2.454833984E-1
4.876100029E0,7.709655762E-1,9.923934937E0,2.885742188E-1
4.881074395E0,7.350616455E-1,9.923934937E0,2.598571777E-1
4.886048760E0,7.039337158E-1,9.916748047E0,2.909698486E-1
4.890992608E0,6.823883057E-1,9.911956787E0,3.005523682E-1
4.895966973E0,6.321105957E-1,9.899993896E0,2.957611084E-1
4.900910820E0,5.698547363E-1,9.880828857E0,3.436431885E-1
4.905885186E0,5.435180664E-1,9.866470337E0,3.436431885E-1
4.910829033E0,4.884490967E-1,9.823379517E0,3.532257080E-1
4.915803399E0,4.740905762E-1,9.797042847E0,3.843536377E-1
4.920747246E0,4.214172363E-1,9.794647217E0,3.795623779E-1
4.925721611E0,4.070587158E-1,9.859283447E0,4.130859375E-1
4.930665459E0,3.807220459E-1,9.832946777E0,4.250488281E-1
4.935639824E0,3.567810059E-1,9.852096558E0,4.130859375E-1
4.940583672E0,2.873382568E-1,9.866470337E0,4.178619385E-1
4.945558037E0,2.825469971E-1,9.866470337E0,3.699798584E-1
4.950532402E0,2.897338867E-1,9.885620117E0,4.106903076E-1
4.955476250E0,2.945251465E-1,9.885620117E0,4.202575684E-1
4.960420098E0,2.753753662E-1,9.883224487E0,4.178619385E-1
4.965394463E0,2.514343262E-1,9.873657227E0,4.609680176E-1
4.970368828E0,2.442474365E-1,9.897598267E0,4.777221680E-1
4.975312676E0,2.274932861E-1,9.955047607E0,5.088500977E-1
4.980256524E0,2.322692871E-1,9.938293457E0,4.944763184E-1
4.985230889E0,2.514343262E-1,9.921539307E0,5.495452881E-1
4.990205254E0,3.017120361E-1,9.864074707E0,5.686950684E-1
4.995149102E0,3.088836670E-1,9.880828857E0,5.615234375E-1
5.000123467E0,3.328247070E-1,9.859283447E0,5.974273682E-1
5.005067315E0,3.495941162E-1,9.864074707E0,6.022186279E-1
5.010011162E0,3.998718262E-1,9.931106567E0,5.519409180E-1
5.014985527E0,4.429626465E-1,9.931106567E0,5.351867676E-1
5.019929375E0,4.669036865E-1,9.952667236E0,4.968719482E-1
5.024903740E0,4.956359863E-1,9.943084717E0,4.753265381E-1
5.029878106E0,5.219726562E-1,9.931106567E0,4.633636475E-1
5.034821953E0,5.435180664E-1,9.916748047E0,4.729309082E-1
5.039765801E0,5.411224365E-1,9.945480347E0,4.609680176E-1
5.044740166E0,5.291595459E-1,9.892807007E0,4.777221680E-1
5.049684014E0,5.387268066E-1,9.866470337E0,4.561767578E-1
5.054658379E0,5.028228760E-1,9.880828857E0,4.753265381E-1
5.059602227E0,4.836730957E-1,9.885620117E0,4.489898682E-1
5.064576592E0,4.597320557E-1,9.885620117E0,4.441986084E-1
5.069550957E0,4.477539062E-1,9.885620117E0,4.657592773E-1
5.074494805E0,4.621124268E-1,9.880828857E0,4.537811279E-1
5.079438652E0,4.525451660E-1,9.933502197E0,4.418029785E-1
5.084413018E0,4.764862061E-1,9.902389526E0,4.322357178E-1
5.089387383E0,5.363464355E-1,9.921539307E0,4.609680176E-1
5.094331231E0,5.507049561E-1,9.940689087E0,4.106903076E-1
5.099305596E0,6.081695557E-1,9.902389526E0,3.891296387E-1
5.104249443E0,5.818328857E-1,9.852096558E0,3.987121582E-1
5.109223809E0,6.297149658E-1,9.873657227E0,3.891296387E-1
5.114167656E0,6.560516357E-1,9.866470337E0,3.460388184E-1
5.119142022E0,6.752014160E-1,9.840133667E0,3.556213379E-1
5.124085869E0,7.015380859E-1,9.844924927E0,3.819580078E-1
5.129060234E0,7.422332764E-1,9.830551147E0,3.292846680E-1
5.134004082E0,7.494201660E-1,9.813796997E0,3.340759277E-1
5.138978447E0,7.087249756E-1,9.825775146E0,3.532257080E-1
5.143922295E0,7.063293457E-1,9.866470337E0,3.173065186E-1
5.148896660E0,6.752014160E-1,9.866470337E0,3.053436279E-1
5.153840508E0,6.584472656E-1,9.856887817E0,3.125152588E-1
5.158814873E0,6.632385254E-1,9.849716187E0,3.053436279E-1
5.163789238E0,6.392822266E-1,9.871261597E0,3.101348877E-1
5.168763604E0,6.201324463E-1,9.878433228E0,3.939208984E-1
5.173707451E0,5.985870361E-1,9.873657227E0,3.939208984E-1
5.178651299E0,6.033782959E-1,9.921539307E0,3.651885986E-1
5.183595147E0,5.937957764E-1,9.947875977E0,3.915252686E-1
5.188569512E0,5.961914062E-1,9.993362427E0,3.628082275E-1
5.193513359E0,5.818328857E-1,1.000532532E1,3.604125977E-1
5.198457207E0,6.225280762E-1,9.969421387E0,3.628082275E-1
5.203401055E0,6.775970459E-1,9.971817017E0,3.747711182E-1
5.208405938E0,6.775970459E-1,9.969421387E0,4.011077881E-1
5.213349785E0,6.440734863E-1,9.926330566E0,3.867492676E-1
5.218293633E0,6.488647461E-1,9.883224487E0,3.532257080E-1
5.223237481E0,6.345062256E-1,9.866470337E0,3.077392578E-1
5.228242363E0,6.273193359E-1,9.840133667E0,2.933654785E-1
5.233186211E0,6.297149658E-1,9.828155518E0,2.766113281E-1
5.238160576E0,6.009826660E-1,9.832946777E0,2.909698486E-1
5.243104424E0,3.807220459E-1,9.928710938E0,2.790069580E-1
5.248078789E0,3.328247070E-1,9.969421387E0,2.095794678E-1
5.253022637E0,3.807220459E-1,9.938293457E0,2.670288086E-1
5.257997002E0,3.041076660E-1,9.947875977E0,3.053436279E-1
5.262940850E0,2.849426270E-1,9.957443237E0,2.861938477E-1
5.267884697E0,2.801666260E-1,9.950271606E0,2.885742188E-1
5.272859063E0,2.657928467E-1,9.943084717E0,2.861938477E-1
5.277833428E0,2.155151367E-1,9.947875977E0,2.478790283E-1
5.282777276E0,2.298736572E-1,9.957443237E0,2.814025879E-1
5.287721123E0,2.059326172E-1,9.911956787E0,3.220977783E-1
5.292695488E0,1.221466064E-1,9.866470337E0,3.292846680E-1
5.297639336E0,2.298736572E-1,9.849716187E0,3.316802979E-1
5.302583184E0,2.753753662E-1,9.873657227E0,3.412475586E-1
5.307588067E0,2.586059570E-1,9.871261597E0,4.035034180E-1
5.312531914E0,3.304443359E-1,9.837738037E0,3.532257080E-1
5.317506279E0,3.495941162E-1,9.811401367E0,3.580169678E-1
5.322450127E0,3.735351562E-1,9.799438477E0,3.628082275E-1
5.327424492E0,3.998718262E-1,9.787460327E0,3.723754883E-1
5.332368340E0,4.262084961E-1,9.809005737E0,4.154663086E-1
5.337342705E0,4.597320557E-1,9.844924927E0,3.843536377E-1
5.342286553E0,4.669036865E-1,9.911956787E0,3.604125977E-1
5.347260918E0,4.740905762E-1,9.945480347E0,3.340759277E-1
5.352204766E0,4.022674561E-1,9.998153687E0,3.029479980E-1
5.357179131E0,3.950805664E-1,1.005322266E1,3.220977783E-1
5.362153496E0,3.663482666E-1,1.006997681E1,3.340759277E-1
5.367127861E0,3.424072266E-1,1.005322266E1,2.622375488E-1
5.372041192E0,3.064880371E-1,1.001969910E1,2.646331787E-1
5.377015557E0,3.304443359E-1,9.998153687E0,2.646331787E-1
5.381959404E0,3.663482666E-1,9.974212646E0,2.430877686E-1
5.386933770E0,4.214172363E-1,9.957443237E0,2.191467285E-1
5.391877617E0,4.190216064E-1,9.938293457E0,1.880187988E-1
5.396851983E0,4.333953857E-1,9.916748047E0,1.449279785E-1
5.401795830E0,4.621124268E-1,9.892807007E0,1.185913086E-1
5.406770195E0,4.597320557E-1,9.883224487E0,1.042327881E-1
5.411714043E0,4.621124268E-1,9.844924927E0,8.985900879E-2
5.416657891E0,4.860534668E-1,9.844924927E0,9.944152832E-2
5.421632256E0,4.405670166E-1,9.849716187E0,1.353454590E-1
5.426576104E0,4.166259766E-1,9.818588257E0,2.263336182E-1
5.431519951E0,4.333953857E-1,9.811401367E0,2.359008789E-1
5.436494317E0,3.926849365E-1,9.823379517E0,3.005523682E-1
5.441438164E0,3.687438965E-1,9.849716187E0,3.101348877E-1
5.446443047E0,3.687438965E-1,9.878433228E0,3.268890381E-1
5.451386895E0,3.783264160E-1,9.916748047E0,3.029479980E-1
5.456330742E0,3.998718262E-1,9.950271606E0,2.718200684E-1
5.461274590E0,3.902893066E-1,1.000294495E1,2.622375488E-1
5.466248955E0,3.711395264E-1,1.002928162E1,2.071838379E-1
5.471223320E0,4.262084961E-1,9.990966797E0,1.353454590E-1
5.476167168E0,4.238128662E-1,9.952667236E0,1.233825684E-1
5.481111016E0,4.166259766E-1,9.967025757E0,1.090087891E-1
5.486115899E0,4.142303467E-1,9.955047607E0,7.789611816E-2
5.491059746E0,4.166259766E-1,9.940689087E0,9.944152832E-2
5.496034111E0,4.142303467E-1,9.928710938E0,8.267211914E-2
5.500977959E0,4.118347168E-1,9.919143677E0,9.944152832E-2
5.505952324E0,4.238128662E-1,9.904769897E0,8.746337891E-2
5.510926690E0,4.118347168E-1,9.928710938E0,1.425323486E-1
5.515870537E0,4.309997559E-1,9.957443237E0,1.760559082E-1
5.520844902E0,4.286041260E-1,9.947875977E0,1.473236084E-1
5.525788750E0,4.860534668E-1,9.969421387E0,1.664733887E-1
5.530732598E0,4.669036865E-1,9.981384277E0,1.999969482E-1
5.535676445E0,4.645080566E-1,9.998153687E0,2.071838379E-1
5.540620293E0,5.195770264E-1,1.000532532E1,1.856231689E-1
5.545594658E0,5.483093262E-1,1.000772095E1,1.880187988E-1
5.550538506E0,5.267639160E-1,1.002928162E1,2.263336182E-1
5.555512871E0,5.459136963E-1,1.002209473E1,1.999969482E-1
5.560456719E0,5.435180664E-1,1.002688599E1,2.382965088E-1
5.565431084E0,5.578918457E-1,1.002449036E1,2.502746582E-1
5.570405449E0,5.961914062E-1,9.983779907E0,3.101348877E-1
5.575349297E0,6.129608154E-1,9.957443237E0,3.651885986E-1
5.580323662E0,5.985870361E-1,9.950271606E0,4.154663086E-1
5.585298027E0,6.728057861E-1,9.974212646E0,5.351867676E-1
5.590272393E0,7.326660156E-1,9.967025757E0,6.477050781E-1
5.595216240E0,6.943511963E-1,9.979003906E0,6.524963379E-1
5.600190606E0,7.158966064E-1,9.931106567E0,6.668701172E-1
5.605164971E0,7.518157959E-1,9.962234497E0,7.195434570E-1
5.610108818E0,7.326660156E-1,1.011306763E1,6.381378174E-1
5.615052666E0,7.182922363E-1,1.021122742E1,4.753265381E-1
5.620027031E0,6.608428955E-1,1.020884705E1,3.077392578E-1
5.624970879E0,6.009826660E-1,1.012025452E1,2.574615479E-1
5.629945244E0,6.057739258E-1,1.003645325E1,3.340759277E-1
5.634889092E0,6.249237061E-1,9.979003906E0,4.465942383E-1
5.639863457E0,6.440734863E-1,9.943084717E0,5.256042480E-1
5.644807305E0,6.488647461E-1,9.902389526E0,5.878601074E-1
5.649751152E0,5.674591064E-1,9.904769897E0,6.548919678E-1
5.654695000E0,5.937957764E-1,9.883224487E0,5.974273682E-1
5.659638848E0,5.698547363E-1,9.847320557E0,6.860198975E-1
5.664613213E0,4.166259766E-1,9.880828857E0,6.884155273E-1
5.669557061E0,8.092803955E-1,9.914352417E0,-1.113891602E-3
5.674531426E0,7.805480957E-1,9.830551147E0,-1.902618408E-1
5.679475274E0,6.009826660E-1,9.727600098E0,5.873107910E-2
5.684449639E0,4.812774658E-1,9.650985718E0,2.502746582E-1
5.689424004E0,5.123901367E-1,9.526489258E0,4.082946777E-1
5.694367852E0,6.105651855E-1,9.454666138E0,4.585723877E-1
5.699342217E0,6.153411865E-1,9.387634277E0,5.758819580E-1
5.704286065E0,6.799926758E-1,9.411575317E0,6.979827881E-1
5.709260430E0,6.392822266E-1,9.476211548E0,8.392486572E-1
5.714204277E0,5.722503662E-1,9.552825928E0,9.517822266E-1
5.719178643E0,5.746459961E-1,9.691696167E0,9.062805176E-1
5.724122490E0,6.321105957E-1,9.698867798E0,9.900817871E-1
5.729096856E0,4.381713867E-1,9.792251587E0,1.107391357E0
5.734040703E0,2.945251465E-1,9.852096558E0,1.011627197E0
5.739015068E0,2.897338867E-1,9.938293457E0,9.517822266E-1
5.743958916E0,3.280487061E-1,9.945480347E0,9.230499268E-1
5.748933281E0,3.256530762E-1,9.983779907E0,8.799438477E-1
5.753877129E0,3.567810059E-1,1.000772095E1,7.386932373E-1
5.758851494E0,3.902893066E-1,9.981384277E0,6.429290771E-1
5.763795342E0,4.238128662E-1,9.950271606E0,5.543365479E-1
5.768769707E0,5.147857666E-1,9.964630127E0,5.256042480E-1
5.773713555E0,5.674591064E-1,1.000294495E1,4.968719482E-1
5.778657402E0,6.345062256E-1,1.001251221E1,3.532257080E-1
5.783631768E0,6.440734863E-1,9.945480347E0,2.406921387E-1
5.788606133E0,6.057739258E-1,9.933502197E0,2.311248779E-1
5.793549981E0,5.243682861E-1,9.904769897E0,3.220977783E-1
5.798524346E0,5.459136963E-1,9.890411377E0,4.705352783E-1
5.803468193E0,5.267639160E-1,9.952667236E0,6.094055176E-1
5.808442559E0,5.076141357E-1,9.969421387E0,6.644744873E-1
5.813386406E0,6.009826660E-1,1.000532532E1,7.147521973E-1
5.818360772E0,6.009826660E-1,9.986175537E0,7.291107178E-1
5.823304619E0,6.345062256E-1,9.955047607E0,7.147521973E-1
5.828278984E0,6.081695557E-1,9.964630127E0,6.860198975E-1
5.833222832E0,6.584472656E-1,9.943084717E0,6.644744873E-1
5.838166680E0,6.799926758E-1,9.940689087E0,6.333465576E-1
5.843141045E0,6.560516357E-1,9.921539307E0,6.141967773E-1
5.848115410E0,5.961914062E-1,9.907165527E0,6.740417480E-1
5.853059258E0,6.392822266E-1,9.876052856E0,7.291107178E-1
5.858033623E0,6.225280762E-1,9.876052856E0,7.123565674E-1
5.862977471E0,5.674591064E-1,9.840133667E0,7.793884277E-1
5.867921318E0,5.147857666E-1,9.801818848E0,7.937622070E-1
5.872895684E0,5.076141357E-1,9.806610107E0,7.937622070E-1
5.877870049E0,4.980316162E-1,9.820983887E0,8.105163574E-1
5.882813897E0,5.626678467E-1,9.780273438E0,7.410888672E-1
5.887788262E0,4.333953857E-1,9.799438477E0,7.865753174E-1
5.892732109E0,3.831024170E-1,9.806610107E0,7.578430176E-1
5.897675957E0,4.501495361E-1,9.830551147E0,7.123565674E-1
5.902650322E0,4.453582764E-1,9.856887817E0,6.213684082E-1
5.907624688E0,3.998718262E-1,9.868865967E0,4.657592773E-1
5.912568535E0,3.759307861E-1,9.861679077E0,4.944763184E-1
5.917542901E0,3.448028564E-1,9.840133667E0,5.399780273E-1
5.922486748E0,3.112792969E-1,9.837738037E0,5.519409180E-1
5.927461113E0,3.519897461E-1,9.823379517E0,5.519409180E-1
5.932404961E0,3.711395264E-1,9.840133667E0,5.686950684E-1
5.937379326E0,3.831024170E-1,9.876052856E0,6.022186279E-1
5.942323174E0,4.357757568E-1,9.916748047E0,6.118011475E-1
5.947297539E0,4.716949463E-1,9.904769897E0,6.644744873E-1
5.952241387E0,5.411224365E-1,9.940689087E0,6.357421875E-1
5.957185234E0,5.626678467E-1,9.979003906E0,6.094055176E-1
5.962159600E0,6.057739258E-1,1.000294495E1,6.022186279E-1
5.967133965E0,6.464691162E-1,9.998153687E0,5.256042480E-1
5.972077813E0,6.560516357E-1,9.957443237E0,4.777221680E-1
5.977021660E0,6.321105957E-1,9.928710938E0,4.729309082E-1
5.981996026E0,5.818328857E-1,9.899993896E0,4.753265381E-1
5.986939873E0,5.842285156E-1,9.844924927E0,4.801177979E-1
5.991914238E0,5.602874756E-1,9.820983887E0,4.058990479E-1
5.996858086E0,5.339508057E-1,9.816192627E0,4.657592773E-1
6.001832451E0,5.052185059E-1,9.775482178E0,4.585723877E-1
6.006776299E0,4.908447266E-1,9.818588257E0,4.681396484E-1
6.011750664E0,5.052185059E-1,9.820983887E0,4.968719482E-1
6.016694512E0,5.219726562E-1,9.842529297E0,4.609680176E-1
6.021668877E0,5.195770264E-1,9.849716187E0,5.088500977E-1
6.026612725E0,5.531005859E-1,9.907165527E0,5.303955078E-1
6.031587090E0,5.602874756E-1,9.947875977E0,5.926513672E-1
6.036561455E0,6.081695557E-1,9.967025757E0,6.453094482E-1
6.041505303E0,6.345062256E-1,1.000054932E1,6.309509277E-1
6.046449151E0,6.416778564E-1,1.001251221E1,5.878601074E-1
6.051423516E0,6.632385254E-1,9.971817017E0,5.160369873E-1
6.056367363E0,6.321105957E-1,9.950271606E0,5.639190674E-1
6.061341729E0,5.914001465E-1,9.947875977E0,6.477050781E-1
6.066285576E0,5.770416260E-1,9.904769897E0,6.524963379E-1
6.071259942E0,5.339508057E-1,9.880828857E0,6.405334473E-1
6.076203789E0,4.884490967E-1,9.895202637E0,6.333465576E-1
6.081178154E0,4.238128662E-1,9.876052856E0,6.118011475E-1
6.086152520E0,4.453582764E-1,9.866470337E0,6.716461182E-1
6.091096367E0,4.573364258E-1,9.866470337E0,7.961578369E-1
6.096040215E0,4.692993164E-1,9.840133667E0,8.703765869E-1
6.101014580E0,4.740905762E-1,9.880828857E0,8.895263672E-1
6.105988945E0,4.429626465E-1,9.868865967E0,9.110717773E-1
6.110932793E0,4.190216064E-1,9.873657227E0,8.679809570E-1
6.115907158E0,3.783264160E-1,9.883224487E0,7.841796875E-1
6.120851006E0,3.448028564E-1,9.868865967E0,7.602386475E-1
6.125794854E0,3.256530762E-1,9.849716187E0,7.865753174E-1
6.130769219E0,3.088836670E-1,9.859283447E0,8.560028076E-1
6.135743584E0,3.448028564E-1,9.847320557E0,8.823394775E-1
6.140687432E0,3.448028564E-1,9.840133667E0,8.607940674E-1
6.145631279E0,3.519897461E-1,9.871261597E0,8.440399170E-1
6.150605645E0,3.471984863E-1,9.890411377E0,8.727722168E-1
6.155549492E0,3.543853760E-1,9.916748047E0,8.129119873E-1
6.160493340E0,3.471984863E-1,9.899993896E0,7.267150879E-1
6.165467705E0,4.142303467E-1,9.914352417E0,7.458801270E-1
6.170442070E0,4.573364258E-1,9.904769897E0,7.602386475E-1
6.175385918E0,5.243682861E-1,9.904769897E0,7.267150879E-1
6.180360283E0,5.291595459E-1,9.911956787E0,7.410888672E-1
6.185304131E0,4.932403564E-1,9.952667236E0,7.913665771E-1
6.190278496E0,5.052185059E-1,9.919143677E0,8.512115479E-1
6.195222344E0,5.219726562E-1,9.888015747E0,9.254455566E-1
6.200196709E0,5.100097656E-1,9.856887817E0,9.661407471E-1
6.205171074E0,4.932403564E-1,9.847320557E0,9.709320068E-1
6.210145440E0,4.429626465E-1,9.837738037E0,9.421997070E-1
6.215089287E0,3.687438965E-1,9.859283447E0,9.661407471E-1
6.220063652E0,3.471984863E-1,9.847320557E0,1.037963867E0
6.225007500E0,3.232574463E-1,9.840133667E0,1.073883057E0
6.229981865E0,2.873382568E-1,9.876052856E0,1.045150757E0
6.234925713E0,2.849426270E-1,9.914352417E0,1.016418457E0
6.239900078E0,2.538299561E-1,9.892807007E0,9.469909668E-1
6.244843926E0,2.466430664E-1,9.883224487E0,8.823394775E-1
6.249818291E0,2.418518066E-1,9.859283447E0,8.464355469E-1
6.254762139E0,2.370605469E-1,9.854492188E0,8.200988770E-1
6.259705986E0,2.753753662E-1,9.837738037E0,8.751525879E-1
6.264649834E0,2.849426270E-1,9.794647217E0,8.967132568E-1
6.269593682E0,2.969207764E-1,9.813796997E0,9.086761475E-1
6.274568047E0,2.969207764E-1,9.837738037E0,9.661407471E-1
6.279542412E0,3.041076660E-1,9.782669067E0,1.023605347E0
6.284486260E0,2.993164062E-1,9.804214478E0,1.069091797E0
6.289430108E0,3.208618164E-1,9.837738037E0,1.061904907E0
6.294404473E0,2.610015869E-1,9.852096558E0,1.059509277E0
6.299378838E0,2.514343262E-1,9.835342407E0,9.972686768E-1
6.304322686E0,3.160705566E-1,9.861679077E0,1.042755127E0
6.309297051E0,3.615570068E-1,9.890411377E0,1.090637207E0
6.314240899E0,4.022674561E-1,9.885620117E0,1.057113647E0
6.319215264E0,4.333953857E-1,9.897598267E0,9.757232666E-1
6.324159111E0,3.831024170E-1,9.943084717E0,9.661407471E-1
6.329133477E0,3.448028564E-1,9.928710938E0,9.924774170E-1
6.334077324E0,3.041076660E-1,9.916748047E0,1.054718018E0
6.339051690E0,2.370605469E-1,9.897598267E0,1.119369507E0
6.343995537E0,1.939697266E-1,9.866470337E0,1.148101807E0
6.348969902E0,1.269378662E-1,9.818588257E0,1.071487427E0
6.353913750E0,1.460876465E-1,9.785064697E0,9.900817871E-1
6.358888115E0,1.508789062E-1,9.713241577E0,9.828948975E-1
6.363831963E0,1.460876465E-1,9.682113647E0,9.852905273E-1
6.368806328E0,1.173553467E-1,9.665359497E0,9.804992676E-1
6.373750176E0,1.269378662E-1,9.686904907E0,1.035568237E0
6.378724541E0,1.389007568E-1,9.749160767E0,1.061904907E0
6.383668389E0,1.436920166E-1,9.804214478E0,9.996643066E-1
6.388642754E0,1.173553467E-1,9.825775146E0,9.948730469E-1
6.393586602E0,8.383178711E-2,9.871261597E0,1.021209717E0
6.398560967E0,1.341094971E-1,9.888015747E0,1.045150757E0
6.403504815E0,1.293182373E-1,9.921539307E0,1.100219727E0
6.408479180E0,1.269378662E-1,9.921539307E0,1.174438477E0
6.413423027E0,1.412963867E-1,9.904769897E0,1.210342407E0
6.418397393E0,1.006011963E-1,9.957443237E0,1.227111816E0
6.423341240E0,1.819915771E-1,9.852096558E0,1.224716187E0
6.428315606E0,1.149597168E-1,9.813796997E0,1.255844116E0
6.433289971E0,6.468200684E-2,9.818588257E0,1.205566406E0
6.438264336E0,9.580993652E-2,9.794647217E0,1.164855957E0
6.443208184E0,9.820556641E-2,9.756332397E0,1.193588257E0
6.448182549E0,5.989074707E-2,9.749160767E0,1.152893066E0
6.453126397E0,1.200866699E-2,9.789855957E0,1.198379517E0
6.458100762E0,-5.741882324E-2,9.806610107E0,1.236679077E0
6.463044609E0,-5.981445312E-2,9.830551147E0,1.234283447E0
6.467988457E0,-1.911926270E-2,9.842529297E0,1.217529297E0
6.472932305E0,-7.141113281E-3,9.856887817E0,1.169647217E0
6.477906670E0,-7.418823242E-2,9.849716187E0,1.148101807E0
6.482850518E0,-1.076965332E-1,9.842529297E0,1.140914917E0
6.487824883E0,-8.375549316E-2,9.806610107E0,1.148101807E0
6.492768731E0,-7.179260254E-2,9.828155518E0,1.198379517E0
6.497712578E0,-7.418823242E-2,9.801818848E0,1.203170776E0
6.502686943E0,-3.347778320E-2,9.797042847E0,1.207946777E0
6.507630791E0,-4.785156250E-2,9.813796997E0,1.219924927E0
6.512605156E0,-3.108215332E-2,9.794647217E0,1.215133667E0
6.517579522E0,-3.826904297E-2,9.777877808E0,1.239074707E0
6.522523369E0,-5.502319336E-2,9.806610107E0,1.251052856E0
6.527467217E0,-4.306030273E-2,9.804214478E0,1.255844116E0
6.532441582E0,-3.826904297E-2,9.737182617E0,1.277389526E0
6.537415947E0,-2.349853516E-3,9.749160767E0,1.222320557E0
6.542359795E0,1.679992676E-2,9.797042847E0,1.193588257E0
6.547334160E0,7.217407227E-3,9.876052856E0,1.184005737E0
6.552278008E0,-2.349853516E-3,9.895202637E0,1.145706177E0
6.557252373E0,-1.432800293E-2,9.950271606E0,1.081054688E0
6.562196221E0,-4.306030273E-2,9.945480347E0,9.781036377E-1
6.567170586E0,3.355407715E-2,9.832946777E0,1.006835938E0
6.572114434E0,8.622741699E-2,9.727600098E0,1.052337646E0
6.577088799E0,1.221466064E-1,9.727600098E0,9.757232666E-1
6.582032647E0,1.436920166E-1,9.792251587E0,9.326171875E-1
6.587007012E0,1.556549072E-1,9.804214478E0,9.613494873E-1
6.591950859E0,2.394561768E-1,9.770706177E0,9.876861572E-1
6.596925225E0,2.825469971E-1,9.794647217E0,9.637451172E-1
6.601869072E0,3.376159668E-1,9.825775146E0,9.709320068E-1
6.606843438E0,3.519897461E-1,9.828155518E0,1.033172607E0
6.611787285E0,3.519897461E-1,9.830551147E0,1.016418457E0
6.616761651E0,3.424072266E-1,9.873657227E0,9.972686768E-1
6.621705498E0,3.950805664E-1,9.885620117E0,9.733276367E-1
6.626679863E0,3.711395264E-1,9.921539307E0,9.158630371E-1
6.631623711E0,3.304443359E-1,9.911956787E0,9.350128174E-1
6.636567559E0,3.112792969E-1,9.866470337E0,9.733276367E-1
6.641541924E0,3.280487061E-1,9.859283447E0,1.004440308E0
6.646485772E0,3.304443359E-1,9.823379517E0,1.037963867E0
6.651460137E0,3.519897461E-1,9.806610107E0,1.049942017E0
6.656403984E0,3.256530762E-1,9.842529297E0,1.059509277E0
6.661378350E0,3.783264160E-1,9.856887817E0,1.097824097E0
6.666322197E0,3.567810059E-1,9.856887817E0,1.071487427E0
6.671296563E0,3.136749268E-1,9.859283447E0,1.069091797E0
6.676240410E0,3.615570068E-1,9.868865967E0,1.045150757E0
6.681214776E0,3.950805664E-1,9.914352417E0,1.040359497E0
6.686189141E0,3.400115967E-1,9.914352417E0,1.040359497E0
6.691132988E0,2.969207764E-1,9.907165527E0,1.014022827E0
6.696076836E0,3.400115967E-1,9.897598267E0,1.023605347E0
6.701051201E0,3.136749268E-1,9.883224487E0,1.061904907E0
6.706025567E0,3.112792969E-1,9.844924927E0,1.069091797E0
6.710969414E0,3.112792969E-1,9.861679077E0,1.040359497E0
6.715943779E0,3.232574463E-1,9.809005737E0,1.066696167E0
6.720887627E0,3.543853760E-1,9.825775146E0,1.093032837E0
6.725831475E0,3.878936768E-1,9.830551147E0,1.114578247E0
6.730805840E0,4.597320557E-1,9.820983887E0,1.131332397E0
6.735780205E0,4.740905762E-1,9.861679077E0,1.114578247E0
6.740724053E0,4.621124268E-1,9.871261597E0,1.148101807E0
6.745698418E0,4.429626465E-1,9.849716187E0,1.136123657E0
6.750642266E0,4.046630859E-1,9.820983887E0,1.126556396E0
6.755616631E0,3.615570068E-1,9.852096558E0,1.116973877E0
6.760560479E0,3.950805664E-1,9.837738037E0,1.169647217E0
6.765504326E0,3.663482666E-1,9.818588257E0,1.131332397E0
6.770478692E0,3.448028564E-1,9.849716187E0,1.205566406E0
6.775422539E0,3.471984863E-1,9.897598267E0,1.224716187E0
6.780396904E0,3.471984863E-1,9.919143677E0,1.217529297E0
6.785340752E0,3.304443359E-1,9.938293457E0,1.176834106E0
6.790315117E0,3.112792969E-1,9.940689087E0,1.131332397E0
6.795258965E0,2.801666260E-1,9.938293457E0,1.035568237E0
6.800233330E0,2.825469971E-1,9.916748047E0,1.049942017E0
6.805177178E0,3.448028564E-1,9.921539307E0,1.059509277E0
6.810151543E0,3.448028564E-1,9.911956787E0,1.037963867E0
6.815095391E0,3.950805664E-1,9.895202637E0,1.069091797E0
6.820069756E0,4.118347168E-1,9.892807007E0,1.100219727E0
6.825013604E0,4.238128662E-1,9.871261597E0,1.148101807E0
6.829987969E0,4.453582764E-1,9.830551147E0,1.176834106E0
6.834962334E0,4.525451660E-1,9.792251587E0,1.188796997E0
6.839936699E0,4.262084961E-1,9.761123657E0,1.157669067E0
6.844880547E0,4.333953857E-1,9.768310547E0,1.124160767E0
6.849854912E0,4.046630859E-1,9.713241577E0,1.157669067E0
6.854798760E0,4.070587158E-1,9.696487427E0,1.116973877E0
6.859773125E0,3.926849365E-1,9.665359497E0,1.090637207E0
6.864716973E0,3.759307861E-1,9.682113647E0,1.119369507E0
6.869660820E0,3.878936768E-1,9.701263428E0,1.121765137E0
6.874635186E0,3.902893066E-1,9.741973877E0,1.116973877E0
6.879579033E0,4.262084961E-1,9.715637207E0,1.121765137E0
6.884553399E0,4.453582764E-1,9.737182617E0,1.107391357E0
6.889497246E0,4.908447266E-1,9.828155518E0,1.085845947E0
6.894471611E0,5.243682861E-1,9.840133667E0,1.083450317E0
6.899445977E0,5.052185059E-1,9.816192627E0,1.071487427E0
6.904389824E0,5.483093262E-1,9.840133667E0,1.040359497E0
6.909364190E0,5.578918457E-1,9.840133667E0,1.016418457E0
6.914308037E0,5.363464355E-1,9.823379517E0,1.011627197E0
6.919282402E0,5.291595459E-1,9.852096558E0,1.016418457E0
6.924226250E0,5.507049561E-1,9.847320557E0,9.996643066E-1
6.929200615E0,5.483093262E-1,9.842529297E0,1.004440308E0
6.934144463E0,5.052185059E-1,9.878433228E0,9.781036377E-1
6.939118828E0,5.076141357E-1,9.923934937E0,9.661407471E-1
6.944062676E0,5.052185059E-1,9.962234497E0,9.254455566E-1
6.949037041E0,5.195770264E-1,9.940689087E0,9.326171875E-1
6.953980889E0,4.980316162E-1,9.873657227E0,9.469909668E-1
6.958955254E0,4.788818359E-1,9.868865967E0,9.493865967E-1
6.963899102E0,4.956359863E-1,9.835342407E0,9.493865967E-1
6.968873467E0,5.004272461E-1,9.816192627E0,1.004440308E0
6.973817315E0,4.669036865E-1,9.799438477E0,9.781036377E-1
6.978761162E0,4.716949463E-1,9.837738037E0,1.011627197E0
6.983735527E0,4.932403564E-1,9.804214478E0,1.006835938E0
6.988679375E0,4.980316162E-1,9.820983887E0,1.059509277E0
6.993653740E0,5.028228760E-1,9.809005737E0,1.088241577E0
6.998597588E0,4.956359863E-1,9.849716187E0,1.095428467E0
7.003541436E0,4.621124268E-1,9.854492188E0,1.040359497E0
7.008515801E0,4.549407959E-1,9.820983887E0,1.045150757E0
7.013459649E0,4.525451660E-1,9.866470337E0,1.016418457E0
7.018434014E0,4.573364258E-1,9.849716187E0,1.016418457E0
7.023377861E0,4.597320557E-1,9.835342407E0,9.685363770E-1
7.028352227E0,4.645080566E-1,9.837738037E0,9.254455566E-1
7.033326592E0,4.381713867E-1,9.835342407E0,9.014892578E-1
7.038270440E0,4.262084961E-1,9.871261597E0,8.991088867E-1
7.043214287E0,4.453582764E-1,9.847320557E0,8.919219971E-1
7.048188652E0,4.549407959E-1,9.868865967E0,9.374084473E-1
7.053163018E0,4.477539062E-1,9.885620117E0,9.565582275E-1
7.058106865E0,4.453582764E-1,9.897598267E0,1.011627197E0
7.063081231E0,4.333953857E-1,9.892807007E0,1.016418457E0
7.068025078E0,4.214172363E-1,9.931106567E0,1.018814087E0
7.072999443E0,4.142303467E-1,9.921539307E0,1.076278687E0
7.077973809E0,3.783264160E-1,9.931106567E0,1.057113647E0
7.082917656E0,3.400115967E-1,9.950271606E0,1.095428467E0
7.087861504E0,3.256530762E-1,9.911956787E0,1.037963867E0
7.092835869E0,3.280487061E-1,9.888015747E0,9.924774170E-1
7.097779717E0,3.567810059E-1,9.854492188E0,1.018814087E0
7.102723565E0,3.926849365E-1,9.825775146E0,9.804992676E-1
7.107697930E0,3.376159668E-1,9.837738037E0,1.004440308E0
7.112672295E0,3.256530762E-1,9.797042847E0,9.852905273E-1
7.117616143E0,3.567810059E-1,9.744369507E0,9.709320068E-1
7.122559990E0,3.902893066E-1,9.732391357E0,1.004440308E0
7.127534356E0,4.118347168E-1,9.751541138E0,9.182586670E-1
7.132508721E0,4.621124268E-1,9.797042847E0,8.943176270E-1
7.137483086E0,4.190216064E-1,9.789855957E0,9.014892578E-1
7.142426934E0,4.166259766E-1,9.797042847E0,9.038848877E-1
7.147401299E0,4.094390869E-1,9.770706177E0,9.254455566E-1
7.152345147E0,5.818328857E-1,9.823379517E0,9.086761475E-1
7.157319512E0,5.100097656E-1,9.974212646E0,8.775482178E-1
7.162263359E0,4.764862061E-1,9.988571167E0,8.440399170E-1
7.167237725E0,5.387268066E-1,1.001011658E1,8.224945068E-1
7.172181572E0,5.602874756E-1,9.983779907E0,8.368530273E-1
7.177155938E0,5.243682861E-1,9.904769897E0,8.607940674E-1
7.182130303E0,5.339508057E-1,9.864074707E0,8.177032471E-1
7.187074151E0,5.411224365E-1,9.856887817E0,7.626342773E-1
7.192017998E0,5.459136963E-1,9.835342407E0,8.057250977E-1
7.196992363E0,6.081695557E-1,9.813796997E0,8.344573975E-1
7.201936211E0,6.081695557E-1,9.789855957E0,8.081207275E-1
7.206910576E0,6.009826660E-1,9.797042847E0,8.823394775E-1
7.211854424E0,5.961914062E-1,9.840133667E0,9.637451172E-1
7.216828789E0,5.626678467E-1,9.844924927E0,1.037963867E0
7.221772637E0,5.028228760E-1,9.897598267E0,1.064300537E0
7.226716484E0,4.501495361E-1,9.962234497E0,1.066696167E0
7.231660332E0,4.214172363E-1,9.986175537E0,9.900817871E-1
7.236634697E0,4.142303467E-1,9.976608276E0,9.900817871E-1
7.241578545E0,3.926849365E-1,9.947875977E0,1.011627197E0
7.246552910E0,3.878936768E-1,9.964630127E0,9.709320068E-1
7.251527276E0,4.262084961E-1,9.935897827E0,9.996643066E-1
7.256471123E0,4.645080566E-1,9.885620117E0,1.030776978E0
7.261414971E0,4.477539062E-1,9.866470337E0,1.069091797E0
7.266389336E0,4.286041260E-1,9.830551147E0,1.124160767E0
7.271363701E0,4.022674561E-1,9.816192627E0,1.116973877E0
7.276338067E0,3.926849365E-1,9.732391357E0,1.081054688E0
7.281281914E0,5.267639160E-1,9.607894897E0,1.069091797E0
7.286256279E0,4.956359863E-1,9.794647217E0,1.052337646E0
7.291200127E0,2.729797363E-1,1.000532532E1,9.709320068E-1
7.296143975E0,3.304443359E-1,9.943084717E0,9.469909668E-1
7.301087822E0,3.304443359E-1,9.849716187E0,9.972686768E-1
7.306062188E0,3.950805664E-1,9.792251587E0,1.026000977E0
7.311006035E0,4.309997559E-1,9.792251587E0,1.014022827E0
7.315949883E0,4.214172363E-1,9.782669067E0,1.002059937E0
7.320924248E0,4.549407959E-1,9.768310547E0,9.972686768E-1
7.325898613E0,4.357757568E-1,9.794647217E0,9.326171875E-1
7.330842461E0,4.286041260E-1,9.861679077E0,9.086761475E-1
7.335816826E0,4.453582764E-1,9.866470337E0,9.086761475E-1
7.340791192E0,5.100097656E-1,9.856887817E0,8.967132568E-1
7.345735039E0,5.267639160E-1,9.888015747E0,9.230499268E-1
7.350678887E0,5.483093262E-1,9.892807007E0,9.565582275E-1
7.355653252E0,5.674591064E-1,9.876052856E0,9.493865967E-1
7.360597100E0,5.291595459E-1,9.907165527E0,9.493865967E-1
7.365571465E0,5.459136963E-1,9.890411377E0,9.110717773E-1
7.370545830E0,5.602874756E-1,9.873657227E0,8.775482178E-1
7.375489678E0,5.387268066E-1,9.866470337E0,8.799438477E-1
7.380464043E0,5.554962158E-1,9.864074707E0,9.014892578E-1
7.385407891E0,5.674591064E-1,9.880828857E0,8.991088867E-1
7.390382256E0,5.626678467E-1,9.859283447E0,8.871307373E-1
7.395326104E0,5.554962158E-1,9.837738037E0,8.344573975E-1
7.400300469E0,5.818328857E-1,9.864074707E0,8.751525879E-1
7.405244317E0,5.914001465E-1,9.820983887E0,9.637451172E-1
7.410218682E0,5.459136963E-1,9.830551147E0,9.445953369E-1
7.415162529E0,5.219726562E-1,9.864074707E0,9.134674072E-1
7.420106377E0,4.716949463E-1,9.823379517E0,9.326171875E-1
7.425080742E0,4.716949463E-1,9.835342407E0,8.679809570E-1
7.430055108E0,5.291595459E-1,9.868865967E0,8.679809570E-1
7.434998955E0,5.123901367E-1,9.919143677E0,8.488311768E-1
7.439973320E0,5.650634766E-1,9.919143677E0,8.679809570E-1
7.444917168E0,5.770416260E-1,9.935897827E0,8.895263672E-1
7.449861016E0,5.674591064E-1,9.940689087E0,9.062805176E-1
7.454835381E0,5.626678467E-1,9.921539307E0,9.350128174E-1
7.459809746E0,5.698547363E-1,9.928710938E0,8.512115479E-1
7.464753594E0,5.842285156E-1,9.923934937E0,9.062805176E-1
7.469697442E0,5.746459961E-1,9.909561157E0,9.062805176E-1
7.474671807E0,5.315551758E-1,9.914352417E0,8.919219971E-1
7.479615654E0,4.884490967E-1,9.899993896E0,8.823394775E-1
7.484590020E0,4.238128662E-1,9.830551147E0,8.464355469E-1
7.489564385E0,3.783264160E-1,9.801818848E0,8.272705078E-1
7.494508233E0,3.998718262E-1,9.785064697E0,8.344573975E-1
7.499452080E0,4.046630859E-1,9.749160767E0,8.320617676E-1
7.504426445E0,4.046630859E-1,9.744369507E0,8.655853271E-1
7.509400811E0,3.926849365E-1,9.777877808E0,8.560028076E-1
7.514344658E0,4.022674561E-1,9.768310547E0,8.799438477E-1
7.519319024E0,3.926849365E-1,9.787460327E0,9.254455566E-1
7.524262871E0,3.998718262E-1,9.823379517E0,8.727722168E-1
7.529237236E0,4.022674561E-1,9.849716187E0,9.014892578E-1
7.534181084E0,3.854980469E-1,9.859283447E0,9.996643066E-1
7.539155449E0,3.854980469E-1,9.888015747E0,1.081054688E0
7.544099297E0,3.495941162E-1,9.916748047E0,1.064300537E0
7.549073662E0,3.735351562E-1,9.935897827E0,1.011627197E0
7.554017510E0,3.567810059E-1,9.931106567E0,1.061904907E0
7.558991875E0,3.304443359E-1,9.943084717E0,1.047546387E0
7.563935723E0,3.088836670E-1,9.923934937E0,1.047546387E0
7.568910088E0,3.519897461E-1,9.916748047E0,9.996643066E-1
7.573853936E0,3.304443359E-1,9.876052856E0,9.469909668E-1
7.578828301E0,3.280487061E-1,9.885620117E0,9.637451172E-1
7.583772149E0,2.969207764E-1,9.816192627E0,9.326171875E-1
7.588746514E0,3.304443359E-1,9.794647217E0,9.685363770E-1
7.593690361E0,3.687438965E-1,9.787460327E0,9.445953369E-1
7.598634209E0,3.878936768E-1,9.782669067E0,9.469909668E-1
7.603608574E0,4.262084961E-1,9.816192627E0,9.996643066E-1
7.608582940E0,4.333953857E-1,9.820983887E0,9.924774170E-1
7.613526787E0,4.597320557E-1,9.813796997E0,1.028396606E0
7.618470635E0,4.836730957E-1,9.864074707E0,1.028396606E0
7.623414483E0,4.908447266E-1,9.864074707E0,1.066696167E0
7.628419365E0,4.884490967E-1,9.880828857E0,1.073883057E0
7.633363213E0,4.046630859E-1,9.895202637E0,1.069091797E0
7.638337578E0,4.046630859E-1,9.923934937E0,1.069091797E0
7.643281426E0,3.926849365E-1,9.926330566E0,1.083450317E0
7.648255791E0,3.831024170E-1,9.935897827E0,1.030776978E0
7.653199639E0,3.902893066E-1,9.916748047E0,1.021209717E0
7.658143486E0,3.974761963E-1,9.909561157E0,1.030776978E0
7.663117852E0,3.926849365E-1,9.890411377E0,1.014022827E0
7.668061699E0,3.687438965E-1,9.885620117E0,1.028396606E0
7.673036065E0,4.046630859E-1,9.840133667E0,1.006835938E0
7.678010430E0,4.118347168E-1,9.816192627E0,1.023605347E0
7.682954277E0,4.309997559E-1,9.780273438E0,1.076278687E0
7.687928643E0,4.166259766E-1,9.763519287E0,1.076278687E0
7.692872490E0,4.357757568E-1,9.746765137E0,1.059509277E0
7.697846856E0,4.573364258E-1,9.758728027E0,1.026000977E0
7.702790703E0,4.405670166E-1,9.732391357E0,1.014022827E0
7.707765068E0,4.812774658E-1,9.785064697E0,9.876861572E-1
7.712708916E0,4.692993164E-1,9.811401367E0,9.757232666E-1
7.717652764E0,4.956359863E-1,9.823379517E0,9.828948975E-1
7.722627129E0,5.267639160E-1,9.825775146E0,9.541625977E-1
7.727570977E0,5.052185059E-1,9.866470337E0,9.517822266E-1
7.732545342E0,5.195770264E-1,9.859283447E0,9.804992676E-1
7.737489190E0,5.052185059E-1,9.885620117E0,1.028396606E0
7.742463555E0,4.908447266E-1,9.904769897E0,1.037963867E0
7.747437920E0,4.740905762E-1,9.916748047E0,1.035568237E0
7.752381768E0,4.190216064E-1,9.933502197E0,1.054718018E0
7.757356133E0,3.759307861E-1,9.921539307E0,1.071487427E0
7.762330498E0,3.376159668E-1,9.897598267E0,1.064300537E0
7.767304863E0,3.783264160E-1,9.876052856E0,1.028396606E0
7.772248711E0,3.878936768E-1,9.840133667E0,9.733276367E-1
7.777223076E0,4.214172363E-1,9.832946777E0,9.565582275E-1
7.782136406E0,4.573364258E-1,9.835342407E0,9.445953369E-1
7.787110772E0,4.884490967E-1,9.837738037E0,9.709320068E-1
7.792054619E0,5.052185059E-1,9.787460327E0,9.565582275E-1
7.797028984E0,5.267639160E-1,9.813796997E0,9.493865967E-1
7.801972832E0,5.674591064E-1,9.856887817E0,9.398040771E-1
7.806947197E0,5.339508057E-1,9.847320557E0,9.421997070E-1
7.811891045E0,5.674591064E-1,9.832946777E0,9.685363770E-1
7.816865410E0,5.602874756E-1,9.854492188E0,9.541625977E-1
7.821809258E0,5.076141357E-1,9.871261597E0,9.900817871E-1
7.826783623E0,4.525451660E-1,9.849716187E0,9.565582275E-1
7.831727471E0,4.309997559E-1,9.828155518E0,9.733276367E-1
7.836671318E0,4.262084961E-1,9.823379517E0,9.804992676E-1
7.841645684E0,4.716949463E-1,9.878433228E0,9.062805176E-1
7.846589531E0,4.669036865E-1,9.945480347E0,8.871307373E-1
7.851563897E0,4.453582764E-1,9.983779907E0,8.799438477E-1
7.856507744E0,4.788818359E-1,9.950271606E0,9.374084473E-1
7.861482109E0,4.692993164E-1,9.983779907E0,9.733276367E-1
7.866425957E0,4.405670166E-1,1.001730347E1,9.398040771E-1
7.871400322E0,4.645080566E-1,1.001730347E1,8.847351074E-1
7.876374688E0,3.974761963E-1,9.993362427E0,8.775482178E-1
7.881318535E0,3.878936768E-1,9.974212646E0,8.799438477E-1
7.886292901E0,3.926849365E-1,9.952667236E0,9.014892578E-1
7.891236748E0,3.878936768E-1,9.904769897E0,9.398040771E-1
7.896180596E0,3.711395264E-1,9.849716187E0,9.613494873E-1
7.901154961E0,3.519897461E-1,9.844924927E0,9.469909668E-1
7.906129326E0,3.304443359E-1,9.832946777E0,9.852905273E-1
7.911073174E0,3.088836670E-1,9.804214478E0,9.996643066E-1
7.916017022E0,2.921295166E-1,9.765914917E0,9.852905273E-1
7.920960869E0,2.777709961E-1,9.758728027E0,1.016418457E0
7.925935234E0,2.825469971E-1,9.765914917E0,9.613494873E-1
7.930879082E0,2.490386963E-1,9.780273438E0,9.685363770E-1
7.935853447E0,2.610015869E-1,9.789855957E0,9.350128174E-1
7.940827813E0,2.322692871E-1,9.797042847E0,9.637451172E-1
7.945771660E0,2.442474365E-1,9.770706177E0,9.158630371E-1
7.950715508E0,2.657928467E-1,9.770706177E0,9.398040771E-1
7.955689873E0,2.825469971E-1,9.756332397E0,9.302215576E-1
7.960633721E0,2.897338867E-1,9.751541138E0,9.014892578E-1
7.965608086E0,2.777709961E-1,9.799438477E0,8.895263672E-1
7.970551934E0,2.562103271E-1,9.837738037E0,8.823394775E-1
7.975526299E0,2.298736572E-1,9.859283447E0,8.919219971E-1
7.980470147E0,2.394561768E-1,9.876052856E0,8.919219971E-1
7.985444512E0,2.322692871E-1,9.921539307E0,9.086761475E-1
7.990418877E0,1.724243164E-1,9.935897827E0,9.302215576E-1
7.995362725E0,1.556549072E-1,9.935897827E0,8.823394775E-1
8.000337090E0,1.915740967E-1,9.904769897E0,8.392486572E-1
8.005280938E0,2.035522461E-1,9.888015747E0,8.033294678E-1
8.010255303E0,2.107238770E-1,9.878433228E0,8.512115479E-1
8.015199151E0,2.394561768E-1,9.878433228E0,8.009338379E-1
8.020142998E0,2.897338867E-1,9.840133667E0,7.937622070E-1
8.025117363E0,3.615570068E-1,9.835342407E0,8.129119873E-1
8.030061211E0,4.166259766E-1,9.864074707E0,7.985382080E-1
8.035035576E0,4.214172363E-1,9.840133667E0,8.727722168E-1
8.039979424E0,4.238128662E-1,9.828155518E0,9.230499268E-1
8.044953789E0,4.597320557E-1,9.830551147E0,9.517822266E-1
8.049897637E0,4.429626465E-1,9.823379517E0,9.900817871E-1
8.054872002E0,4.357757568E-1,9.835342407E0,1.004440308E0
8.059815850E0,4.309997559E-1,9.883224487E0,1.023605347E0
8.064790215E0,4.094390869E-1,9.871261597E0,1.045150757E0
8.069734063E0,4.214172363E-1,9.828155518E0,1.026000977E0
8.074708428E0,4.046630859E-1,9.842529297E0,9.781036377E-1
8.079652276E0,3.926849365E-1,9.818588257E0,9.781036377E-1
8.084626641E0,4.214172363E-1,9.813796997E0,9.733276367E-1
8.089570488E0,4.262084961E-1,9.809005737E0,9.637451172E-1
8.094544854E0,4.429626465E-1,9.813796997E0,9.900817871E-1
8.099488701E0,4.333953857E-1,9.806610107E0,9.852905273E-1
8.104463067E0,4.477539062E-1,9.789855957E0,9.733276367E-1
8.109437432E0,4.094390869E-1,9.789855957E0,9.900817871E-1
8.114381279E0,4.429626465E-1,9.775482178E0,9.326171875E-1
8.119325127E0,4.860534668E-1,9.825775146E0,9.541625977E-1
8.124299492E0,4.669036865E-1,9.832946777E0,9.733276367E-1
8.129273858E0,4.621124268E-1,9.835342407E0,9.733276367E-1
8.134217705E0,5.052185059E-1,9.840133667E0,9.804992676E-1
8.139161553E0,5.291595459E-1,9.876052856E0,9.804992676E-1
8.144135918E0,5.052185059E-1,9.888015747E0,9.685363770E-1
8.149079766E0,4.908447266E-1,9.911956787E0,9.852905273E-1
8.154054131E0,4.860534668E-1,9.892807007E0,9.757232666E-1
8.159028496E0,4.525451660E-1,9.892807007E0,9.852905273E-1
8.163972344E0,4.405670166E-1,9.899993896E0,9.876861572E-1
8.168916192E0,4.645080566E-1,9.890411377E0,9.637451172E-1
8.173890557E0,4.525451660E-1,9.847320557E0,9.781036377E-1
8.178864922E0,4.405670166E-1,9.828155518E0,9.589538574E-1
8.183808770E0,4.621124268E-1,9.856887817E0,9.613494873E-1
8.188783135E0,4.788818359E-1,9.840133667E0,9.134674072E-1
8.193757500E0,4.836730957E-1,9.852096558E0,9.182586670E-1
8.198731865E0,4.669036865E-1,9.861679077E0,9.014892578E-1
8.203675713E0,5.195770264E-1,9.888015747E0,9.374084473E-1
8.208650078E0,5.578918457E-1,9.866470337E0,9.781036377E-1
8.213593926E0,5.315551758E-1,9.897598267E0,9.948730469E-1
8.218537774E0,5.315551758E-1,9.868865967E0,9.469909668E-1
8.223481621E0,5.219726562E-1,9.892807007E0,9.517822266E-1
8.228455986E0,5.339508057E-1,9.890411377E0,9.326171875E-1
8.233399834E0,5.052185059E-1,9.873657227E0,9.062805176E-1
8.238374199E0,4.908447266E-1,9.876052856E0,8.631896973E-1
8.243318047E0,4.860534668E-1,9.871261597E0,8.607940674E-1
8.248292412E0,4.740905762E-1,9.842529297E0,8.775482178E-1
8.253236260E0,4.788818359E-1,9.871261597E0,8.679809570E-1
8.258210625E0,4.716949463E-1,9.916748047E0,8.991088867E-1
8.263154473E0,4.381713867E-1,9.911956787E0,8.631896973E-1
8.268128838E0,4.238128662E-1,9.897598267E0,8.679809570E-1
8.273072686E0,3.807220459E-1,9.880828857E0,9.278259277E-1
8.278047051E0,3.639526367E-1,9.835342407E0,9.709320068E-1
8.282990899E0,3.711395264E-1,9.840133667E0,9.350128174E-1
8.287965264E0,3.783264160E-1,9.832946777E0,9.134674072E-1
8.292909111E0,4.166259766E-1,9.813796997E0,9.110717773E-1
8.297883477E0,4.070587158E-1,9.844924927E0,9.254455566E-1
8.302827324E0,4.286041260E-1,9.840133667E0,9.374084473E-1
8.307801690E0,4.166259766E-1,9.866470337E0,9.014892578E-1
8.312745537E0,4.166259766E-1,9.892807007E0,8.871307373E-1
8.317719902E0,3.974761963E-1,9.904769897E0,8.296661377E-1
8.322663750E0,3.424072266E-1,9.909561157E0,8.224945068E-1
8.327607598E0,3.208618164E-1,9.864074707E0,8.392486572E-1
8.332581963E0,3.256530762E-1,9.868865967E0,7.865753174E-1
8.337556328E0,2.873382568E-1,9.876052856E0,7.841796875E-1
8.342500176E0,2.729797363E-1,9.892807007E0,8.081207275E-1
8.347444024E0,2.514343262E-1,9.873657227E0,7.674255371E-1
8.352418389E0,2.586059570E-1,9.856887817E0,8.368530273E-1
8.357392754E0,2.442474365E-1,9.840133667E0,8.631896973E-1
8.362336602E0,2.107238770E-1,9.885620117E0,8.057250977E-1
8.367280449E0,1.819915771E-1,9.885620117E0,8.248748779E-1
8.372254815E0,1.843872070E-1,9.899993896E0,7.937622070E-1
8.377229180E0,1.676330566E-1,9.926330566E0,8.368530273E-1
8.382173027E0,1.556549072E-1,9.911956787E0,9.014892578E-1
8.387147393E0,2.035522461E-1,9.933502197E0,9.541625977E-1
8.392091240E0,2.203063965E-1,9.959838867E0,8.775482178E-1
8.397065606E0,2.227020264E-1,9.947875977E0,8.871307373E-1
8.402009453E0,1.987609863E-1,9.940689087E0,8.943176270E-1
8.406983818E0,2.346649170E-1,9.928710938E0,8.823394775E-1
8.411927666E0,2.705841064E-1,9.923934937E0,8.799438477E-1
8.416902031E0,2.729797363E-1,9.873657227E0,8.560028076E-1
8.421845879E0,2.945251465E-1,9.823379517E0,7.817840576E-1
8.426820244E0,2.586059570E-1,9.797042847E0,7.841796875E-1
8.431764092E0,2.705841064E-1,9.775482178E0,7.626342773E-1
8.436707940E0,2.921295166E-1,9.746765137E0,7.626342773E-1
8.441682305E0,2.921295166E-1,9.761123657E0,7.410888672E-1
8.446656670E0,3.088836670E-1,9.770706177E0,6.884155273E-1
8.451600518E0,3.184661865E-1,9.811401367E0,6.453094482E-1
8.456544365E0,3.232574463E-1,9.828155518E0,6.429290771E-1
8.461518731E0,3.352203369E-1,9.823379517E0,6.501007080E-1
8.466462578E0,3.902893066E-1,9.868865967E0,6.189880371E-1
8.471436943E0,4.597320557E-1,9.911956787E0,6.261596680E-1
8.476411309E0,5.076141357E-1,9.916748047E0,6.932067871E-1
8.481385674E0,5.674591064E-1,9.899993896E0,6.908111572E-1
8.486360039E0,6.057739258E-1,9.940689087E0,6.884155273E-1
8.491303887E0,6.416778564E-1,9.923934937E0,6.501007080E-1
8.496247734E0,6.704101562E-1,9.911956787E0,6.141967773E-1
8.501191582E0,6.584472656E-1,9.911956787E0,6.285552979E-1
8.506165947E0,6.775970459E-1,9.892807007E0,6.429290771E-1
8.511109795E0,7.015380859E-1,9.904769897E0,6.429290771E-1
8.516053643E0,7.254791260E-1,9.919143677E0,5.686950684E-1
8.521028008E0,7.590026855E-1,9.902389526E0,5.710906982E-1
8.526002373E0,7.374572754E-1,9.914352417E0,5.782775879E-1
8.530946221E0,7.302703857E-1,9.926330566E0,5.184173584E-1
8.535890068E0,7.613983154E-1,9.873657227E0,5.495452881E-1
8.540864434E0,7.685699463E-1,9.828155518E0,5.160369873E-1
8.545808281E0,7.637939453E-1,9.842529297E0,5.830688477E-1
8.550782647E0,8.188476562E-1,9.840133667E0,6.118011475E-1
8.555757012E0,8.667449951E-1,9.823379517E0,6.237640381E-1
8.560700859E0,7.973022461E-1,9.835342407E0,6.477050781E-1
8.565644707E0,7.709655762E-1,9.849716187E0,7.027740479E-1
8.570619072E0,6.991424561E-1,9.878433228E0,7.339019775E-1
8.575562920E0,7.015380859E-1,9.947875977E0,6.836242676E-1
8.580537285E0,7.111206055E-1,1.002209473E1,6.788330078E-1
8.585481133E0,6.752014160E-1,1.004843140E1,6.596832275E-1
8.590455498E0,6.177368164E-1,1.005561829E1,6.764373779E-1
8.595399346E0,5.722503662E-1,1.002928162E1,6.884155273E-1
8.600373711E0,5.698547363E-1,9.969421387E0,6.524963379E-1
8.605348076E0,5.626678467E-1,9.969421387E0,6.141967773E-1
8.610322442E0,5.578918457E-1,9.926330566E0,6.261596680E-1
8.615266289E0,5.842285156E-1,9.911956787E0,6.213684082E-1
8.620240654E0,5.650634766E-1,9.837738037E0,6.189880371E-1
8.625184502E0,5.483093262E-1,9.813796997E0,6.309509277E-1
8.630158867E0,5.291595459E-1,9.765914917E0,6.405334473E-1
8.635102715E0,4.381713867E-1,9.756332397E0,6.668701172E-1
8.640077080E0,3.878936768E-1,9.751541138E0,6.477050781E-1
8.645020928E0,3.256530762E-1,9.761123657E0,6.285552979E-1
8.649995293E0,2.705841064E-1,9.770706177E0,6.692657471E-1
8.654939141E0,2.322692871E-1,9.780273438E0,6.333465576E-1
8.659913506E0,1.580505371E-1,9.799438477E0,6.477050781E-1
8.664857354E0,1.532592773E-1,9.792251587E0,6.501007080E-1
8.669831719E0,1.604461670E-1,9.758728027E0,6.908111572E-1
8.674775567E0,2.398681641E-2,9.809005737E0,7.123565674E-1
8.679749932E0,1.077728271E-1,9.878433228E0,6.094055176E-1
8.684693779E0,1.987609863E-1,9.864074707E0,6.453094482E-1
8.689668145E0,1.819915771E-1,9.871261597E0,6.501007080E-1
8.694611992E0,1.197509766E-1,9.885620117E0,6.716461182E-1
8.699586358E0,1.317138672E-1,9.880828857E0,6.309509277E-1
8.704530205E0,1.891784668E-1,9.835342407E0,6.979827881E-1
8.709474053E0,1.843872070E-1,9.825775146E0,8.200988770E-1
8.714417901E0,1.843872070E-1,9.832946777E0,8.344573975E-1
8.719392266E0,2.227020264E-1,9.847320557E0,8.823394775E-1
8.724336113E0,2.633972168E-1,9.859283447E0,9.110717773E-1
8.729310479E0,2.681884766E-1,9.907165527E0,9.374084473E-1
8.734254326E0,2.657928467E-1,9.988571167E0,8.655853271E-1
8.739228692E0,3.088836670E-1,1.005082703E1,6.956024170E-1
8.744172539E0,2.610015869E-1,1.006997681E1,7.410888672E-1
8.749146904E0,2.825469971E-1,1.007476807E1,7.793884277E-1
8.754090752E0,3.950805664E-1,1.008673096E1,7.027740479E-1
8.759065117E0,4.046630859E-1,1.010589600E1,7.171478271E-1
8.764008965E0,4.166259766E-1,1.004843140E1,6.668701172E-1
8.768983330E0,4.716949463E-1,1.001011658E1,5.806732178E-1
8.773927178E0,4.621124268E-1,9.926330566E0,5.256042480E-1
8.778901543E0,4.764862061E-1,9.832946777E0,4.489898682E-1
8.783845391E0,4.884490967E-1,9.770706177E0,3.915252686E-1
8.788819756E0,5.052185059E-1,9.734786987E0,3.915252686E-1
8.793763604E0,5.291595459E-1,9.670150757E0,3.963165283E-1
8.798737969E0,5.554962158E-1,9.662963867E0,4.035034180E-1
8.803681817E0,5.602874756E-1,9.710845947E0,4.394226074E-1
8.808656182E0,6.129608154E-1,9.720428467E0,4.897003174E-1
8.813600029E0,5.961914062E-1,9.763519287E0,4.441986084E-1
8.818574395E0,5.985870361E-1,9.832946777E0,4.705352783E-1
8.823518242E0,6.081695557E-1,9.888015747E0,5.112457275E-1
8.828492608E0,6.153411865E-1,9.931106567E0,4.968719482E-1
8.833436455E0,6.775970459E-1,9.981384277E0,4.633636475E-1
8.838410820E0,7.158966064E-1,1.001251221E1,4.849090576E-1
8.843385186E0,6.943511963E-1,1.002928162E1,5.184173584E-1
8.848359551E0,6.871795654E-1,1.000772095E1,5.256042480E-1
8.853303399E0,6.871795654E-1,1.000054932E1,4.920806885E-1
8.858277764E0,6.560516357E-1,9.979003906E0,4.657592773E-1
8.863221611E0,6.560516357E-1,9.964630127E0,4.657592773E-1
8.868165459E0,6.728057861E-1,9.933502197E0,4.489898682E-1
8.873109307E0,6.536560059E-1,9.904769897E0,4.130859375E-1
8.878083672E0,6.249237061E-1,9.878433228E0,3.675842285E-1
8.883027520E0,6.321105957E-1,9.832946777E0,3.987121582E-1
8.888001885E0,6.369018555E-1,9.823379517E0,3.939208984E-1
8.892945733E0,6.225280762E-1,9.777877808E0,4.322357178E-1
8.897920098E0,6.225280762E-1,9.744369507E0,4.106903076E-1
8.902863945E0,6.129608154E-1,9.756332397E0,4.154663086E-1
8.907838311E0,6.249237061E-1,9.780273438E0,4.035034180E-1
8.912782158E0,6.081695557E-1,9.799438477E0,3.939208984E-1
8.917756524E0,6.177368164E-1,9.820983887E0,4.106903076E-1
8.922700371E0,6.488647461E-1,9.835342407E0,4.202575684E-1
8.927674736E0,6.799926758E-1,9.854492188E0,4.250488281E-1
8.932618584E0,6.895751953E-1,9.876052856E0,4.298400879E-1
8.937562432E0,7.063293457E-1,9.861679077E0,4.035034180E-1
8.942536797E0,7.542114258E-1,9.866470337E0,4.011077881E-1
8.947511162E0,7.781524658E-1,9.892807007E0,4.106903076E-1
8.952455010E0,8.164672852E-1,9.873657227E0,3.580169678E-1
8.957398858E0,8.212432861E-1,9.888015747E0,3.675842285E-1
8.962373223E0,7.973022461E-1,9.907165527E0,3.771667480E-1
8.967347588E0,8.188476562E-1,9.890411377E0,3.651885986E-1
8.972321953E0,8.068847656E-1,9.911956787E0,3.819580078E-1
8.977296318E0,8.451843262E-1,9.933502197E0,3.460388184E-1
8.982240166E0,8.428039551E-1,9.892807007E0,3.077392578E-1
8.987214531E0,8.092803955E-1,9.928710938E0,3.484344482E-1
8.992158379E0,8.164672852E-1,9.947875977E0,3.675842285E-1
8.997132744E0,7.901306152E-1,9.921539307E0,3.675842285E-1
9.002076592E0,8.164672852E-1,9.897598267E0,3.364715576E-1
9.007050957E0,8.212432861E-1,9.899993896E0,2.646331787E-1
9.011994805E0,8.284301758E-1,9.885620117E0,2.861938477E-1
9.016938652E0,8.739166260E-1,9.859283447E0,2.909698486E-1
9.021882500E0,8.906860352E-1,9.854492188E0,3.292846680E-1
9.026826348E0,8.930816650E-1,9.868865967E0,2.814025879E-1
9.031800713E0,9.002532959E-1,9.837738037E0,2.837982178E-1
9.036775078E0,8.715209961E-1,9.835342407E0,2.718200684E-1
9.041718926E0,8.811035156E-1,9.804214478E0,2.263336182E-1
9.046693291E0,8.451843262E-1,9.835342407E0,2.335205078E-1
9.051637139E0,8.068847656E-1,9.809005737E0,2.239379883E-1
9.056611504E0,8.236389160E-1,9.768310547E0,1.425323486E-1
9.061555352E0,7.996978760E-1,9.758728027E0,1.760559082E-1
9.066529717E0,8.092803955E-1,9.768310547E0,2.287292480E-1
9.071504082E0,8.811035156E-1,9.813796997E0,2.071838379E-1
9.076478447E0,8.954620361E-1,9.830551147E0,2.095794678E-1
9.081422295E0,9.098358154E-1,9.854492188E0,1.497192383E-1
9.086396660E0,9.409637451E-1,9.883224487E0,8.985900879E-2
9.091340508E0,9.744720459E-1,9.935897827E0,4.197692871E-2
9.096314873E0,1.012786865E0,9.955047607E0,5.155944824E-2
9.101258721E0,1.031936646E0,9.974212646E0,2.282714844E-2
9.106233086E0,9.984130859E-1,9.988571167E0,-6.576538086E-2
9.111176934E0,1.029541016E0,9.983779907E0,-7.055664062E-2
9.116151299E0,1.051086426E0,9.933502197E0,-4.660034180E-2
9.121095147E0,1.034332275E0,9.885620117E0,1.324462891E-2
9.126069512E0,1.029541016E0,9.892807007E0,9.465026855E-2
9.131013359E0,1.017578125E0,9.892807007E0,1.569061279E-1
9.135957207E0,9.984130859E-1,9.871261597E0,1.928100586E-1
9.140901055E0,9.744720459E-1,9.899993896E0,1.952056885E-1
9.145875420E0,9.673004150E-1,9.945480347E0,2.933654785E-1
9.150819268E0,9.457550049E-1,9.892807007E0,3.412475586E-1
9.155793633E0,8.499755859E-1,9.885620117E0,3.268890381E-1
9.160737481E0,8.260345459E-1,9.888015747E0,3.077392578E-1
9.165711846E0,8.188476562E-1,9.904769897E0,3.220977783E-1
9.170655693E0,7.925109863E-1,9.916748047E0,2.598571777E-1
9.175630059E0,7.613983154E-1,9.962234497E0,2.885742188E-1
9.180573906E0,6.943511963E-1,9.952667236E0,2.814025879E-1
9.185548272E0,6.799926758E-1,9.928710938E0,3.292846680E-1
9.190492119E0,6.345062256E-1,9.957443237E0,3.197021484E-1
9.195435967E0,6.297149658E-1,9.919143677E0,3.029479980E-1
9.200410332E0,6.033782959E-1,9.883224487E0,3.101348877E-1
9.205354180E0,5.602874756E-1,9.864074707E0,3.077392578E-1
9.210359063E0,5.339508057E-1,9.820983887E0,3.173065186E-1
9.215302910E0,5.890045166E-1,9.758728027E0,3.125152588E-1
9.220246758E0,6.560516357E-1,9.770706177E0,3.604125977E-1
9.225221123E0,6.416778564E-1,9.761123657E0,4.082946777E-1
9.230164971E0,6.488647461E-1,9.799438477E0,4.370269775E-1
9.235139336E0,6.656188965E-1,9.823379517E0,4.609680176E-1
9.240113701E0,7.015380859E-1,9.861679077E0,4.777221680E-1
9.245057549E0,6.919555664E-1,9.890411377E0,4.609680176E-1
9.250001397E0,6.488647461E-1,9.909561157E0,4.801177979E-1
9.254975762E0,6.488647461E-1,9.940689087E0,4.944763184E-1
9.259919609E0,6.201324463E-1,9.950271606E0,4.657592773E-1
9.264893975E0,5.914001465E-1,9.990966797E0,5.232086182E-1
9.269868340E0,5.650634766E-1,9.983779907E0,5.112457275E-1
9.274812188E0,5.123901367E-1,9.969421387E0,4.849090576E-1
9.279756035E0,4.716949463E-1,9.979003906E0,4.753265381E-1
9.284730401E0,4.357757568E-1,9.993362427E0,4.681396484E-1
9.289704766E0,4.429626465E-1,9.964630127E0,4.705352783E-1
9.294648613E0,4.118347168E-1,9.959838867E0,4.346313477E-1
9.299592461E0,3.902893066E-1,9.943084717E0,4.394226074E-1
9.304566826E0,3.807220459E-1,9.899993896E0,4.633636475E-1
9.309541192E0,3.543853760E-1,9.871261597E0,4.226531982E-1
9.314485039E0,3.807220459E-1,9.842529297E0,3.747711182E-1
9.319459404E0,3.663482666E-1,9.849716187E0,3.651885986E-1
9.324403252E0,3.831024170E-1,9.825775146E0,3.819580078E-1
9.329377617E0,3.854980469E-1,9.806610107E0,4.011077881E-1
9.334321465E0,3.902893066E-1,9.832946777E0,3.867492676E-1
9.339295830E0,3.974761963E-1,9.832946777E0,4.178619385E-1
9.344239678E0,4.094390869E-1,9.859283447E0,4.513854980E-1
9.349214043E0,4.501495361E-1,9.904769897E0,4.705352783E-1
9.354157891E0,4.621124268E-1,9.933502197E0,5.327911377E-1
9.359132256E0,4.477539062E-1,9.943084717E0,5.806732178E-1
9.364076104E0,4.573364258E-1,9.974212646E0,5.088500977E-1
9.369050469E0,4.549407959E-1,9.986175537E0,5.016632080E-1
9.373994317E0,4.716949463E-1,9.976608276E0,4.585723877E-1
9.378968682E0,5.219726562E-1,9.974212646E0,3.675842285E-1
9.383912529E0,5.339508057E-1,9.935897827E0,3.388519287E-1
9.388886895E0,4.956359863E-1,9.914352417E0,3.460388184E-1
9.393830742E0,5.052185059E-1,9.878433228E0,3.340759277E-1
9.398805108E0,5.028228760E-1,9.911956787E0,2.909698486E-1
9.403748955E0,4.812774658E-1,9.916748047E0,2.957611084E-1
9.408692803E0,4.764862061E-1,9.890411377E0,2.933654785E-1
9.413667168E0,5.028228760E-1,9.885620117E0,2.957611084E-1
9.418611016E0,5.052185059E-1,9.897598267E0,2.814025879E-1
9.423585381E0,5.052185059E-1,9.859283447E0,2.861938477E-1
9.428559746E0,5.123901367E-1,9.866470337E0,2.622375488E-1
9.433503594E0,5.052185059E-1,9.866470337E0,2.406921387E-1
9.438477959E0,5.339508057E-1,9.880828857E0,2.191467285E-1
9.443421807E0,5.842285156E-1,9.883224487E0,2.478790283E-1
9.448396172E0,6.345062256E-1,9.923934937E0,2.047882080E-1
9.453340020E0,6.488647461E-1,9.950271606E0,2.646331787E-1
9.458314385E0,6.919555664E-1,9.967025757E0,2.502746582E-1
9.463258233E0,6.967468262E-1,9.974212646E0,1.545104980E-1
9.468202080E0,7.254791260E-1,1.000054932E1,1.377410889E-1
9.473176445E0,7.637939453E-1,1.002449036E1,2.071838379E-1
9.478150811E0,7.685699463E-1,1.003166199E1,2.335205078E-1
9.483094658E0,8.523712158E-1,1.002449036E1,2.023925781E-1
9.488069024E0,8.834991455E-1,1.003405762E1,1.760559082E-1
9.493012871E0,9.241943359E-1,1.004364014E1,1.880187988E-1
9.497987236E0,9.098358154E-1,1.002449036E1,1.257781982E-1
9.502961602E0,8.954620361E-1,1.002928162E1,1.233825684E-1
9.507935967E0,9.098358154E-1,9.959838867E0,1.281738281E-1
9.512849297E0,9.026489258E-1,9.950271606E0,1.736602783E-1
9.517823662E0,9.074401855E-1,9.890411377E0,1.233825684E-1
9.522767510E0,8.667449951E-1,9.878433228E0,1.329650879E-1
9.527741875E0,8.451843262E-1,9.794647217E0,1.161956787E-1
9.532685723E0,8.475799561E-1,9.763519287E0,8.985900879E-2
9.537629570E0,8.212432861E-1,9.756332397E0,1.353454590E-1
9.542603936E0,8.284301758E-1,9.749160767E0,1.521148682E-1
9.547547783E0,8.188476562E-1,9.768310547E0,1.856231689E-1
9.552522149E0,7.805480957E-1,9.801818848E0,2.047882080E-1
9.557465996E0,7.829437256E-1,9.809005737E0,2.167510986E-1
9.562440361E0,8.020935059E-1,9.840133667E0,2.095794678E-1
9.567414727E0,7.877349854E-1,9.878433228E0,2.215423584E-1
9.572358574E0,7.254791260E-1,9.899993896E0,2.335205078E-1
9.577332940E0,6.895751953E-1,9.902389526E0,2.382965088E-1
9.582276787E0,6.871795654E-1,9.880828857E0,1.952056885E-1
9.587251152E0,6.464691162E-1,9.871261597E0,1.688690186E-1
9.592195000E0,6.560516357E-1,9.864074707E0,1.784515381E-1
9.597169365E0,6.632385254E-1,9.888015747E0,1.712646484E-1
9.602143731E0,6.177368164E-1,9.864074707E0,1.664733887E-1
9.607118096E0,6.105651855E-1,9.888015747E0,1.688690186E-1
9.612031426E0,6.105651855E-1,9.878433228E0,1.664733887E-1
9.617005791E0,5.770416260E-1,9.864074707E0,1.880187988E-1
9.621949639E0,5.985870361E-1,9.849716187E0,1.353454590E-1
9.626924004E0,5.674591064E-1,9.873657227E0,1.928100586E-1
9.631867852E0,4.908447266E-1,9.904769897E0,3.939208984E-1
9.636842217E0,5.483093262E-1,9.888015747E0,2.646331787E-1
9.641786065E0,5.531005859E-1,9.876052856E0,3.053436279E-1
9.646760430E0,4.692993164E-1,9.883224487E0,3.484344482E-1
9.651704277E0,4.980316162E-1,9.880828857E0,3.843536377E-1
9.656678643E0,4.573364258E-1,9.895202637E0,4.178619385E-1
9.661622490E0,4.477539062E-1,9.892807007E0,3.699798584E-1
9.666566338E0,4.477539062E-1,9.959838867E0,3.819580078E-1
9.671510186E0,4.645080566E-1,9.945480347E0,3.723754883E-1
9.676484551E0,4.525451660E-1,9.947875977E0,3.843536377E-1
9.681428399E0,4.357757568E-1,9.957443237E0,3.867492676E-1
9.686433281E0,4.501495361E-1,9.931106567E0,4.226531982E-1
9.691377129E0,4.381713867E-1,9.914352417E0,4.465942383E-1
9.696351494E0,4.429626465E-1,9.871261597E0,4.226531982E-1
9.701325859E0,4.716949463E-1,9.844924927E0,4.657592773E-1
9.706269707E0,5.004272461E-1,9.871261597E0,4.944763184E-1
9.711213555E0,5.171813965E-1,9.861679077E0,4.705352783E-1
9.716187920E0,5.315551758E-1,9.823379517E0,4.825134277E-1
9.721131768E0,5.554962158E-1,9.794647217E0,5.016632080E-1
9.726106133E0,5.554962158E-1,9.792251587E0,4.705352783E-1
9.731049981E0,5.507049561E-1,9.811401367E0,4.418029785E-1
9.735993828E0,5.554962158E-1,9.820983887E0,4.537811279E-1
9.740937676E0,5.937957764E-1,9.818588257E0,4.178619385E-1
9.745942559E0,5.961914062E-1,9.852096558E0,4.106903076E-1
9.750886406E0,5.674591064E-1,9.871261597E0,3.939208984E-1
9.755830254E0,5.650634766E-1,9.852096558E0,4.202575684E-1
9.760774102E0,5.698547363E-1,9.854492188E0,4.537811279E-1
9.765748467E0,5.770416260E-1,9.866470337E0,4.394226074E-1
9.770692315E0,5.914001465E-1,9.883224487E0,4.370269775E-1
9.775697197E0,6.345062256E-1,9.914352417E0,4.633636475E-1
9.780641045E0,6.440734863E-1,9.945480347E0,4.609680176E-1
9.785584893E0,6.440734863E-1,9.998153687E0,4.657592773E-1
9.790559258E0,6.273193359E-1,9.995758057E0,4.394226074E-1
9.795503106E0,6.392822266E-1,9.976608276E0,4.585723877E-1
9.800446953E0,6.728057861E-1,9.952667236E0,4.537811279E-1
9.805421318E0,6.775970459E-1,9.950271606E0,4.537811279E-1
9.810395684E0,6.680145264E-1,9.923934937E0,4.130859375E-1
9.815339531E0,6.823883057E-1,9.911956787E0,4.370269775E-1
9.820313897E0,6.704101562E-1,9.950271606E0,4.178619385E-1
9.825257744E0,6.464691162E-1,9.923934937E0,4.513854980E-1
9.830232109E0,6.273193359E-1,9.945480347E0,4.465942383E-1
9.835175957E0,6.656188965E-1,9.933502197E0,4.394226074E-1
9.840119805E0,6.416778564E-1,9.899993896E0,4.489898682E-1
9.845094170E0,6.823883057E-1,9.866470337E0,4.082946777E-1
9.850068535E0,6.536560059E-1,9.849716187E0,3.987121582E-1
9.855012383E0,6.656188965E-1,9.816192627E0,3.723754883E-1
9.859986748E0,6.632385254E-1,9.761123657E0,3.747711182E-1
9.864930596E0,6.345062256E-1,9.737182617E0,3.675842285E-1
9.869904961E0,6.560516357E-1,9.715637207E0,3.364715576E-1
9.874848809E0,6.536560059E-1,9.698867798E0,3.173065186E-1
9.879823174E0,6.704101562E-1,9.713241577E0,3.292846680E-1
9.884797539E0,6.919555664E-1,9.741973877E0,3.029479980E-1
9.889771904E0,7.135162354E-1,9.797042847E0,2.981567383E-1
9.894715752E0,6.919555664E-1,9.866470337E0,2.574615479E-1
9.899659600E0,7.015380859E-1,9.899993896E0,2.454833984E-1
9.904603447E0,7.063293457E-1,9.952667236E0,2.430877686E-1
9.909577813E0,6.991424561E-1,9.962234497E0,2.191467285E-1
9.914521660E0,6.775970459E-1,9.990966797E0,1.616821289E-1
9.919465508E0,6.991424561E-1,9.995758057E0,1.185913086E-1
9.924439873E0,6.895751953E-1,9.976608276E0,1.257781982E-1
9.929414238E0,6.775970459E-1,9.923934937E0,1.281738281E-1
9.934358086E0,6.416778564E-1,9.880828857E0,1.832427979E-1
9.939332451E0,6.775970459E-1,9.866470337E0,1.616821289E-1
9.944276299E0,6.464691162E-1,9.849716187E0,1.784515381E-1
9.949250664E0,6.345062256E-1,9.823379517E0,1.736602783E-1
9.954194512E0,6.584472656E-1,9.844924927E0,1.592864990E-1
9.959138359E0,6.775970459E-1,9.823379517E0,1.712646484E-1
9.964112725E0,6.752014160E-1,9.823379517E0,2.023925781E-1
9.969087090E0,7.254791260E-1,9.895202637E0,1.353454590E-1
9.974030938E0,7.637939453E-1,9.904769897E0,1.569061279E-1
9.979005303E0,7.709655762E-1,9.938293457E0,1.928100586E-1
9.983949151E0,7.685699463E-1,9.945480347E0,2.287292480E-1
9.988923516E0,7.111206055E-1,9.964630127E0,2.191467285E-1
9.993867363E0,6.847839355E-1,1.001730347E1,2.359008789E-1
9.998841729E0,6.488647461E-1,1.003405762E1,1.784515381E-1
1.000378558E1,6.512603760E-1,1.004124451E1,2.430877686E-1
1.000875994E1,6.416778564E-1,1.003405762E1,2.335205078E-1
1.001370379E1,6.321105957E-1,1.003405762E1,2.742156982E-1
1.001867815E1,6.321105957E-1,1.001011658E1,2.526702881E-1
1.002362200E1,6.129608154E-1,9.971817017E0,2.598571777E-1
1.002856585E1,6.249237061E-1,9.957443237E0,2.885742188E-1
1.003354022E1,5.626678467E-1,9.911956787E0,2.766113281E-1
1.003848406E1,5.291595459E-1,9.818588257E0,2.694244385E-1
1.004345843E1,5.219726562E-1,9.820983887E0,2.502746582E-1
1.004843279E1,4.836730957E-1,9.840133667E0,3.316802979E-1
1.005337664E1,4.980316162E-1,9.859283447E0,3.340759277E-1
1.005835101E1,4.860534668E-1,9.897598267E0,3.316802979E-1
1.006329485E1,4.980316162E-1,9.871261597E0,3.484344482E-1
1.006823870E1,4.860534668E-1,9.852096558E0,3.460388184E-1
1.007321307E1,4.716949463E-1,9.866470337E0,3.005523682E-1
1.007818743E1,4.333953857E-1,9.876052856E0,3.556213379E-1
1.008313128E1,4.238128662E-1,9.861679077E0,3.412475586E-1
1.008810564E1,4.381713867E-1,9.820983887E0,3.220977783E-1
1.009304949E1,4.597320557E-1,9.820983887E0,3.149108887E-1
1.009802386E1,4.860534668E-1,9.888015747E0,2.574615479E-1
1.010296771E1,4.357757568E-1,9.854492188E0,2.814025879E-1
1.010794207E1,4.142303467E-1,9.770706177E0,4.202575684E-1
1.011288592E1,5.147857666E-1,9.809005737E0,3.747711182E-1
1.011786028E1,4.549407959E-1,9.890411377E0,3.340759277E-1
1.012280413E1,3.950805664E-1,9.892807007E0,3.532257080E-1
1.012777850E1,4.716949463E-1,9.859283447E0,3.987121582E-1
1.013272234E1,4.549407959E-1,9.897598267E0,3.843536377E-1
1.013769671E1,4.501495361E-1,9.945480347E0,3.651885986E-1
1.014264056E1,4.453582764E-1,9.950271606E0,3.843536377E-1
1.014758440E1,4.477539062E-1,9.959838867E0,3.915252686E-1
1.015255877E1,3.878936768E-1,9.947875977E0,4.154663086E-1
1.015750262E1,3.663482666E-1,9.921539307E0,4.011077881E-1
1.016247698E1,3.352203369E-1,9.876052856E0,3.987121582E-1
1.016742083E1,3.112792969E-1,9.868865967E0,4.513854980E-1
1.017239520E1,2.801666260E-1,9.780273438E0,4.346313477E-1
1.017736956E1,2.849426270E-1,9.744369507E0,4.298400879E-1
1.018231341E1,2.681884766E-1,9.780273438E0,4.035034180E-1
1.018728777E1,2.681884766E-1,9.818588257E0,3.867492676E-1
1.019223162E1,2.897338867E-1,9.828155518E0,4.537811279E-1
1.019720599E1,2.801666260E-1,9.852096558E0,5.040588379E-1
1.020214983E1,2.705841064E-1,9.897598267E0,4.729309082E-1
1.020712420E1,2.945251465E-1,9.943084717E0,4.729309082E-1
1.021206805E1,3.041076660E-1,1.001490784E1,4.777221680E-1
1.021704241E1,3.280487061E-1,1.004603577E1,4.058990479E-1
1.022198626E1,3.878936768E-1,1.008195496E1,3.699798584E-1
1.022696062E1,3.735351562E-1,1.010110474E1,3.460388184E-1
1.023190447E1,4.022674561E-1,1.008195496E1,3.675842285E-1
1.023684832E1,4.381713867E-1,1.005322266E1,2.933654785E-1
1.024182269E1,4.214172363E-1,1.002449036E1,2.622375488E-1
1.024679705E1,3.902893066E-1,9.967025757E0,3.053436279E-1
1.025177142E1,3.543853760E-1,9.979003906E0,2.119598389E-1
1.025671526E1,3.352203369E-1,9.964630127E0,1.688690186E-1
1.026165911E1,3.519897461E-1,9.959838867E0,1.138000488E-1
1.026660296E1,3.759307861E-1,9.983779907E0,1.066284180E-1
1.027157732E1,4.022674561E-1,1.004603577E1,9.465026855E-2
1.027655169E1,4.453582764E-1,1.008433533E1,1.084899902E-2
