"Time (s)","Gyroscope x (rad/s)","Gyroscope y (rad/s)","Gyroscope z (rad/s)"
2.128593790E-1,1.059414819E-1,-1.974141896E-1,1.953547001E-1
2.148921920E-1,-7.544534802E-1,-1.103501916E0,-9.424778074E-2
2.168921920E-1,-7.448541522E-1,-1.093919992E0,-1.102000922E-1
2.188921920E-1,-7.352722883E-1,-1.080079556E0,-1.272345036E-1
2.208921920E-1,-7.257078886E-1,-1.061980486E0,-1.442863643E-1
2.229078170E-1,-7.129321098E-1,-1.040704966E0,-1.613207757E-1
2.248921920E-1,-7.012034655E-1,-1.017265201E0,-1.804670393E-1
2.268921920E-1,-6.894923449E-1,-9.906488657E-1,-1.996307522E-1
2.288921920E-1,-6.767165065E-1,-9.608386755E-1,-2.187944800E-1
2.308921920E-1,-6.628760695E-1,-9.278344512E-1,-2.390228361E-1
2.328921920E-1,-6.490355730E-1,-8.937656283E-1,-2.581865489E-1
2.348921920E-1,-6.341479421E-1,-8.575675488E-1,-2.773677111E-1
2.368921920E-1,-6.203074455E-1,-8.203047514E-1,-2.954667807E-1
2.388921920E-1,-6.053848863E-1,-7.819772959E-1,-3.135483861E-1
2.408921920E-1,-5.915444493E-1,-7.436499000E-1,-3.284535110E-1
2.428921920E-1,-5.777039528E-1,-7.063871026E-1,-3.433586359E-1
2.448921920E-1,-5.627988577E-1,-6.701889634E-1,-3.561344445E-1
2.468921920E-1,-5.500230789E-1,-6.382494569E-1,-3.657162786E-1
2.492312540E-1,-5.372647047E-1,-6.084392071E-1,-3.731862903E-1
2.509312540E-1,-5.255360603E-1,-5.807583332E-1,-3.774274588E-1
2.528921920E-1,-5.149070621E-1,-5.573359728E-1,-3.785095513E-1
2.548921920E-1,-5.042605400E-1,-5.381722450E-1,-3.774448931E-1
2.568921920E-1,-4.968079627E-1,-5.211378336E-1,-3.731862903E-1
2.589093790E-1,-4.893554151E-1,-5.094441772E-1,-3.657337427E-1
2.608921920E-1,-4.829674959E-1,-5.009095073E-1,-3.572165370E-1
2.628921920E-1,-4.786914587E-1,-4.977155328E-1,-3.465525806E-1
2.648921920E-1,-4.765621424E-1,-4.987801909E-1,-3.348414302E-1
2.668921920E-1,-4.754975140E-1,-5.072973967E-1,-3.241949081E-1
2.688921920E-1,-4.787088931E-1,-5.211378336E-1,-3.114365637E-1
2.708921920E-1,-4.840147197E-1,-5.403015614E-1,-3.018372357E-1
2.728921920E-1,-4.925493598E-1,-5.658531785E-1,-2.922728360E-1
2.748921920E-1,-5.021312237E-1,-5.956808925E-1,-2.837556303E-1
2.768921920E-1,-5.170188546E-1,-6.307969093E-1,-2.762856185E-1
2.792312540E-1,-5.340533257E-1,-6.701889634E-1,-2.698977292E-1
2.812656290E-1,-5.542816520E-1,-7.127749920E-1,-2.645744681E-1
2.828921920E-1,-5.766393542E-1,-7.574903369E-1,-2.592512071E-1
2.848921920E-1,-6.011263132E-1,-8.053996563E-1,-2.549926043E-1
2.868921920E-1,-6.277600527E-1,-8.543735743E-1,-2.507514656E-1
2.892312540E-1,-6.565055847E-1,-9.044121504E-1,-2.464928478E-1
2.909312540E-1,-6.841865182E-1,-9.555153847E-1,-2.432989031E-1
2.928921920E-1,-7.129146457E-1,-1.004489303E0,-2.400874943E-1
2.948921920E-1,-7.405955791E-1,-1.053463221E0,-2.368935347E-1
2.968921920E-1,-7.661471963E-1,-1.099243283E0,-2.347642332E-1
2.988921920E-1,-7.906341553E-1,-1.141829252E0,-2.315702885E-1
3.008921920E-1,-8.119271398E-1,-1.181221366E0,-2.305056304E-1
3.028921920E-1,-8.289615512E-1,-1.215290189E0,-2.283763289E-1
3.048921920E-1,-8.438841701E-1,-1.245117903E0,-2.273291349E-1
3.068921920E-1,-8.534834385E-1,-1.268540144E0,-2.262644768E-1
3.088921920E-1,-8.598539233E-1,-1.285574675E0,-2.251998335E-1
3.108921920E-1,-8.630478382E-1,-1.298350453E0,-2.262644768E-1
3.128921920E-1,-8.630478382E-1,-1.304738283E0,-2.273291349E-1
3.148921920E-1,-8.609185815E-1,-1.306850195E0,-2.294584364E-1
3.168921920E-1,-8.566599488E-1,-1.303673625E0,-2.337170392E-1
3.188921920E-1,-8.502720594E-1,-1.294091821E0,-2.379756421E-1
3.208921920E-1,-8.449487686E-1,-1.278122067E0,-2.454282045E-1
3.228921920E-1,-8.406901956E-1,-1.257893682E0,-2.539454103E-1
3.248921920E-1,-8.375136852E-1,-1.232342124E0,-2.656565607E-1
3.268921920E-1,-8.364490271E-1,-1.202531815E0,-2.794970274E-1
3.292312540E-1,-8.364490271E-1,-1.168462992E0,-2.986607552E-1
3.309312540E-1,-8.374962211E-1,-1.129070997E0,-3.188891113E-1
3.328921920E-1,-8.374962211E-1,-1.086467505E0,-3.412467837E-1
3.348921920E-1,-8.385608792E-1,-1.041752100E0,-3.646690845E-1
3.368921920E-1,-8.406901956E-1,-9.970542192E-1,-3.902207017E-1
3.388921920E-1,-8.407076597E-1,-9.534035325E-1,-4.179016352E-1
3.408921920E-1,-8.396430016E-1,-9.097528458E-1,-4.455825686E-1
3.428921920E-1,-8.385783434E-1,-8.692961335E-1,-4.743281305E-1
3.448921920E-1,-8.353843689E-1,-8.309686780E-1,-5.030736923E-1
3.468921920E-1,-8.311257958E-1,-7.947705984E-1,-5.318192840E-1
3.488921920E-1,-8.247379065E-1,-7.607017756E-1,-5.584355593E-1
3.508921920E-1,-8.183499575E-1,-7.287622094E-1,-5.850518346E-1
3.528921920E-1,-8.108974099E-1,-7.010812759E-1,-6.074094772E-1
3.548921920E-1,-8.002334833E-1,-6.755296588E-1,-6.255085468E-1
3.568921920E-1,-7.896044254E-1,-6.531720161E-1,-6.393489838E-1
3.588921920E-1,-7.768285871E-1,-6.361376047E-1,-6.468015909E-1
3.608921920E-1,-7.629706860E-1,-6.233617663E-1,-6.489308476E-1
3.628921920E-1,-7.480655909E-1,-6.148445606E-1,-6.457369328E-1
3.648921920E-1,-7.320957780E-1,-6.105685234E-1,-6.372197270E-1
3.668921920E-1,-7.150613666E-1,-6.095213294E-1,-6.244438887E-1
3.692312540E-1,-6.958976984E-1,-6.127153039E-1,-6.063448191E-1
3.709312540E-1,-6.778334975E-1,-6.212325096E-1,-5.861164927E-1
3.728921920E-1,-6.607990861E-1,-6.318789721E-1,-5.648234487E-1
3.748921920E-1,-6.426826119E-1,-6.467841268E-1,-5.445950627E-1
3.768921920E-1,-6.277774572E-1,-6.659478545E-1,-5.243667364E-1
3.788921920E-1,-6.150016785E-1,-6.904348135E-1,-5.052030087E-1
3.808921920E-1,-6.022258401E-1,-7.181157470E-1,-4.871039391E-1
3.828921920E-1,-5.915793180E-1,-7.489905953E-1,-4.700695276E-1
3.848921920E-1,-5.841267705E-1,-7.830594182E-1,-4.540997744E-1
3.868937540E-1,-5.809328556E-1,-8.224514723E-1,-4.402593076E-1
3.888937540E-1,-5.788035393E-1,-8.650375605E-1,-4.274834991E-1
3.908937540E-1,-5.798507333E-1,-9.076235890E-1,-4.179016352E-1
3.928921920E-1,-5.841093659E-1,-9.534035325E-1,-4.104490876E-1
3.948921920E-1,-5.926439762E-1,-9.970542192E-1,-4.061904848E-1
3.968921920E-1,-6.043551564E-1,-1.042834282E0,-4.051258266E-1
3.988921920E-1,-6.181955934E-1,-1.088614225E0,-4.072551131E-1
4.008921920E-1,-6.352126002E-1,-1.133329511E0,-4.157723188E-1
4.028921920E-1,-6.543937325E-1,-1.179109573E0,-4.274834991E-1
4.048937540E-1,-6.746221185E-1,-1.227018833E0,-4.434532523E-1
4.068937540E-1,-6.969797611E-1,-1.274928093E0,-4.636816084E-1
4.092328170E-1,-7.225488424E-1,-1.323902011E0,-4.881685972E-1
4.109312540E-1,-7.481004596E-1,-1.371811390E0,-5.147848725E-1
4.128921920E-1,-7.757639289E-1,-1.422914624E0,-5.424658060E-1
4.148921920E-1,-8.045269847E-1,-1.474017859E0,-5.722759962E-1
4.168921920E-1,-8.343197107E-1,-1.524056435E0,-6.010215878E-1
4.188921920E-1,-8.651946187E-1,-1.575159669E0,-6.318964362E-1
4.208921920E-1,-8.981987834E-1,-1.623068929E0,-6.627713442E-1
4.228921920E-1,-9.312029481E-1,-1.668848872E0,-6.925815344E-1
4.248921920E-1,-9.652717710E-1,-1.711434960E0,-7.234564424E-1
4.268921920E-1,-9.993405938E-1,-1.748697758E0,-7.532666326E-1
4.288921920E-1,-1.031280160E0,-1.782766581E0,-7.841415405E-1
4.308921920E-1,-1.063219666E0,-1.809382796E0,-8.150163889E-1
4.328921920E-1,-1.094094515E0,-1.829611182E0,-8.469558954E-1
4.348921920E-1,-1.126034021E0,-1.844516277E0,-8.820893764E-1
4.368921920E-1,-1.156908989E0,-1.853033543E0,-9.182875156E-1
4.388921920E-1,-1.186719179E0,-1.857292175E0,-9.555503130E-1
4.408921920E-1,-1.216529369E0,-1.856227517E0,-9.938777685E-1
4.428921920E-1,-1.246339560E0,-1.849839568E0,-1.033269763E0
4.448921920E-1,-1.276149869E0,-1.840257645E0,-1.069467902E0
4.468921920E-1,-1.304895401E0,-1.829611182E0,-1.104601383E0
4.492312540E-1,-1.331511736E0,-1.817900062E0,-1.135476351E0
4.509312540E-1,-1.355998635E0,-1.802994967E0,-1.162092566E0
4.528921920E-1,-1.378356338E0,-1.787025213E0,-1.182320952E0
4.548921920E-1,-1.396455407E0,-1.768926144E0,-1.198290706E0
4.568921920E-1,-1.410313249E0,-1.745503783E0,-1.208937168E0
4.588921920E-1,-1.419895172E0,-1.717822909E0,-1.216389775E0
4.608921920E-1,-1.425200939E0,-1.686947942E0,-1.219583750E0
4.628921920E-1,-1.427330256E0,-1.651814461E0,-1.218519092E0
4.648921920E-1,-1.425218463E0,-1.609228492E0,-1.214260459E0
4.668921920E-1,-1.420942307E0,-1.562383890E0,-1.203613997E0
4.688921920E-1,-1.414554477E0,-1.513409853E0,-1.185514927E0
4.708921920E-1,-1.404990077E0,-1.468694568E0,-1.162092566E0
4.728921920E-1,-1.394326091E0,-1.430367112E0,-1.134411693E0
4.748921920E-1,-1.381550312E0,-1.403750896E0,-1.104601383E0
4.768921920E-1,-1.366645217E0,-1.390974998E0,-1.073726535E0
4.788921920E-1,-1.349610686E0,-1.392039657E0,-1.047110319E0
4.808921920E-1,-1.331511736E0,-1.403750896E0,-1.023687959E0
4.828937540E-1,-1.313412666E0,-1.425043821E0,-1.005588889E0
4.849000040E-1,-1.295313597E0,-1.455918789E0,-9.885544777E-1
4.869031290E-1,-1.278296590E0,-1.489987612E0,-9.757786989E-1
4.895796920E-1,-1.260197520E0,-1.526185751E0,-9.651321769E-1
4.913156290E-1,-1.241033792E0,-1.560254574E0,-9.566149712E-1
4.928937540E-1,-1.222934723E0,-1.596452713E0,-9.523563385E-1
4.948921920E-1,-1.204835653E0,-1.632668257E0,-9.512916803E-1
4.968921920E-1,-1.186719179E0,-1.667784214E0,-9.523563385E-1
4.988921920E-1,-1.168637514E0,-1.705047011E0,-9.555503130E-1
5.008921920E-1,-1.151603103E0,-1.744439125E0,-9.598088861E-1
5.028921920E-1,-1.134551287E0,-1.787025213E0,-9.651321769E-1
5.048921920E-1,-1.118581533E0,-1.832805157E0,-9.704554081E-1
5.068921920E-1,-1.101547122E0,-1.878585100E0,-9.757786989E-1
5.088921920E-1,-1.085577369E0,-1.923300505E0,-9.811019301E-1
5.108921920E-1,-1.070672274E0,-1.966951132E0,-9.832312465E-1
5.128921920E-1,-1.057896376E0,-2.007407904E0,-9.853605032E-1
5.148921920E-1,-1.045120597E0,-2.042541265E0,-9.864251614E-1
5.168921920E-1,-1.034474134E0,-2.073416233E0,-9.874898195E-1
5.188921920E-1,-1.024909735E0,-2.096856117E0,-9.874898195E-1
5.208921920E-1,-1.018521786E0,-2.116002321E0,-9.864251614E-1
5.228921920E-1,-1.016392469E0,-2.124519587E0,-9.874898195E-1
5.248921920E-1,-1.016392469E0,-2.135165930E0,-9.906837940E-1
5.268921920E-1,-1.020651102E0,-2.142618656E0,-9.970716834E-1
5.292312540E-1,-1.048331976E0,-2.182010651E0,-1.009847522E0
5.315734420E-1,-1.077060103E0,-2.215014696E0,-1.019429326E0
5.335937540E-1,-1.106870413E0,-2.245889664E0,-1.024752617E0
5.354578170E-1,-1.137762666E0,-2.269311905E0,-1.026881933E0
5.369937540E-1,-1.168637514E0,-2.286346436E0,-1.027946591E0
5.388921920E-1,-1.183542609E0,-2.291669607E0,-1.026881933E0
5.408921920E-1,-1.213352919E0,-2.298057556E0,-1.023687959E0
5.428921920E-1,-1.237839818E0,-2.298057556E0,-1.017300010E0
5.448921920E-1,-1.261262178E0,-2.291669607E0,-1.008782864E0
5.468921920E-1,-1.281473041E0,-2.281023264E0,-9.981363416E-1
5.488921920E-1,-1.298524976E0,-2.262924194E0,-9.853605032E-1
5.508921920E-1,-1.312365413E0,-2.236307859E0,-9.704554081E-1
5.528921920E-1,-1.323011875E0,-2.203303576E0,-9.534209967E-1
5.548921920E-1,-1.330447078E0,-2.162846804E0,-9.342572689E-1
5.568921920E-1,-1.334723115E0,-2.117066860E0,-9.150936007E-1
5.588921920E-1,-1.335787773E0,-2.068093061E0,-8.959298730E-1
5.608921920E-1,-1.333658457E0,-2.013795853E0,-8.735721707E-1
5.628921920E-1,-1.329382420E0,-1.956304669E0,-8.522791862E-1
5.648921920E-1,-1.321947336E0,-1.893490195E0,-8.299214840E-1
5.668921920E-1,-1.313430071E0,-1.829611182E0,-8.075638413E-1
5.692312540E-1,-1.296395659E0,-1.725275397E0,-7.703010440E-1
5.709281290E-1,-1.290007710E0,-1.688030124E0,-7.585899234E-1
5.728921920E-1,-1.276167274E0,-1.609228492E0,-7.362322211E-1
5.748921920E-1,-1.260197520E0,-1.530461788E0,-7.149392366E-1
5.769140670E-1,-1.242115974E0,-1.451677561E0,-6.947108507E-1
5.788937540E-1,-1.222934723E0,-1.375005245E0,-6.776764393E-1
5.808937540E-1,-1.204835653E0,-1.302609086E0,-6.638360023E-1
5.828937540E-1,-1.184589863E0,-1.234471321E0,-6.531894803E-1
5.848937540E-1,-1.163314342E0,-1.170592308E0,-6.468015909E-1
5.868937540E-1,-1.142021298E0,-1.110971928E0,-6.425429583E-1
5.888937540E-1,-1.119663596E0,-1.055610061E0,-6.414783001E-1
5.908937540E-1,-1.095176697E0,-1.005571485E0,-6.425429583E-1
5.928921920E-1,-1.070689678E0,-9.608560801E-1,-6.468015909E-1
5.948921920E-1,-1.045138001E0,-9.235933423E-1,-6.510601640E-1
5.968921920E-1,-1.018521786E0,-8.916537762E-1,-6.563833952E-1
5.988921920E-1,-9.908408523E-1,-8.650375605E-1,-6.606420279E-1
6.008921920E-1,-9.620953202E-1,-8.394859433E-1,-6.659652591E-1
6.028921920E-1,-9.322850704E-1,-8.171282411E-1,-6.702238917E-1
6.048921920E-1,-9.024748206E-1,-7.979645133E-1,-6.712885499E-1
6.068937540E-1,-8.715825081E-1,-7.788008451E-1,-6.712885499E-1
6.092328170E-1,-8.215613961E-1,-7.106631398E-1,-6.606420279E-1
6.109281290E-1,-8.034623265E-1,-6.808704138E-1,-6.542541385E-1
6.128921920E-1,-7.651348710E-1,-6.063448191E-1,-6.350904107E-1
6.148921920E-1,-7.246781588E-1,-4.988150895E-1,-5.999569297E-1
6.168921920E-1,-6.821095943E-1,-3.742509484E-1,-5.509830117E-1
6.188921920E-1,-6.384589076E-1,-2.507514656E-1,-4.945564866E-1
6.208921920E-1,-5.937435627E-1,-1.325752139E-1,-4.338713884E-1
6.228921920E-1,-5.522221923E-1,-2.291617356E-2,-3.699923456E-1
6.248921920E-1,-5.107007623E-1,8.246680349E-2,-3.061133027E-1
6.268921920E-1,-4.702266157E-1,1.846732944E-1,-2.422342449E-1
6.292312540E-1,-4.127354622E-1,3.358536959E-1,-1.464156657E-1
6.314140670E-1,-3.765373230E-1,4.348662496E-1,-8.360127360E-2
6.329187540E-1,-3.595029116E-1,4.827929735E-1,-5.166174471E-2
6.348921920E-1,-3.254340887E-1,5.722061992E-1,1.219985168E-2
6.368921920E-1,-2.945766747E-1,6.531196833E-1,7.394959778E-2
6.388921920E-1,-2.668957412E-1,7.212573290E-1,1.335700452E-1
6.408921920E-1,-2.423913330E-1,7.776837945E-1,1.899965405E-1
6.428921920E-1,-2.232276052E-1,8.192226291E-1,2.410997748E-1
6.448921920E-1,-2.104517967E-1,8.469035625E-1,2.847504616E-1
6.468921920E-1,-2.030166984E-1,8.596619368E-1,3.209486008E-1
6.492312540E-1,-2.040813416E-1,8.458214402E-1,3.528881073E-1
6.509281290E-1,-2.083399594E-1,8.330456614E-1,3.571467102E-1
6.528921920E-1,-2.232450694E-1,7.947182059E-1,3.571467102E-1
6.548921920E-1,-2.477145791E-1,7.393738031E-1,3.433062732E-1
6.568921920E-1,-2.785894573E-1,6.712361574E-1,3.177546561E-1
6.588921920E-1,-3.179640770E-1,5.956459641E-1,2.794272006E-1
6.608921920E-1,-3.605675697E-1,5.200557709E-1,2.283239663E-1
6.628921920E-1,-4.095415175E-1,4.465774000E-1,1.687035263E-1
6.648921920E-1,-4.627915025E-1,3.826983571E-1,1.005658731E-1
6.668921920E-1,-5.181359053E-1,3.294658065E-1,2.604031190E-2
6.688921920E-1,-5.745798349E-1,2.900737226E-1,-5.379104614E-2
6.708921920E-1,-6.309888959E-1,2.645221055E-1,-1.368338168E-1
6.728921920E-1,-6.874153614E-1,2.528283894E-1,-2.220058739E-1
6.748921920E-1,-7.427772284E-1,2.528109550E-1,-3.071779609E-1
6.768921920E-1,-7.960097790E-1,2.656041980E-1,-3.923500180E-1
6.788921920E-1,-8.471304774E-1,2.879444063E-1,-4.753927886E-1
6.808921920E-1,-8.950397372E-1,3.166899979E-1,-5.563062429E-1
6.828921920E-1,-9.408022761E-1,3.507588208E-1,-6.340257525E-1
6.848921920E-1,-9.833883047E-1,3.848451078E-1,-7.064220309E-1
6.868921920E-1,-1.021715760E0,4.188964665E-1,-7.756243348E-1
6.892312540E-1,-1.071754336E0,4.582885504E-1,-8.693135977E-1
6.909281290E-1,-1.085594773E0,4.689350724E-1,-8.969945312E-1
6.928921920E-1,-1.111146450E0,4.817108810E-1,-9.480977654E-1
6.948921920E-1,-1.133521557E0,4.849048257E-1,-9.938777685E-1
6.968921920E-1,-1.149473786E0,4.774522781E-1,-1.032205224E0
6.988921920E-1,-1.162267089E0,4.582885504E-1,-1.065209389E0
7.008921920E-1,-1.171831489E0,4.306076169E-1,-1.091825604E0
7.028921920E-1,-1.178219438E0,3.933448493E-1,-1.110989332E0
7.048921920E-1,-1.179284096E0,3.475823104E-1,-1.124829769E0
7.068921920E-1,-1.176107526E0,2.964616120E-1,-1.132282376E0
7.088921920E-1,-1.169702172E0,2.400351316E-1,-1.134411693E0
7.108921920E-1,-1.159073114E0,1.814793348E-1,-1.131217718E0
7.128921920E-1,-1.144150615E0,1.218588874E-1,-1.121635795E0
7.148921920E-1,-1.124986887E0,6.330309063E-2,-1.106730700E0
7.168921920E-1,-1.102629185E0,6.876597181E-3,-1.087566972E0
7.188921920E-1,-1.074948311E0,-4.846779257E-2,-1.063080072E0
7.208921920E-1,-1.044073462E0,-9.742427617E-2,-1.033269763E0
7.228921920E-1,-1.010004640E0,-1.421570629E-1,-9.992009997E-1
7.247234420E-1,-9.738064408E-1,-1.815491468E-1,-9.619382024E-1
7.268921920E-1,-9.344143867E-1,-2.156179696E-1,-9.204168320E-1
7.293984420E-1,-8.694881201E-1,-2.592686713E-1,-8.522791862E-1
7.310750040E-1,-8.460658193E-1,-2.720444798E-1,-8.277922273E-1
7.327234420E-1,-7.970918417E-1,-2.944021225E-1,-7.777535915E-1
7.348921920E-1,-7.470532656E-1,-3.125011921E-1,-7.255856991E-1
7.368921920E-1,-6.959325671E-1,-3.252770007E-1,-6.734178066E-1
7.388921920E-1,-6.427174807E-1,-3.327295780E-1,-6.191206574E-1
7.408921920E-1,-5.884028673E-1,-3.348588645E-1,-5.637587905E-1
7.428937540E-1,-5.351703167E-1,-3.316649199E-1,-5.094615817E-1
7.448921920E-1,-4.808905721E-1,-3.220830560E-1,-4.551644027E-1
7.468921920E-1,-4.276580215E-1,-3.082425892E-1,-4.019318819E-1
7.488921920E-1,-3.744254708E-1,-2.858849168E-1,-3.497639894E-1
7.508921920E-1,-3.211929500E-1,-2.560746968E-1,-2.986607552E-1
7.528937540E-1,-2.700896859E-1,-2.198765725E-1,-2.507514656E-1
7.548921920E-1,-2.189690024E-1,-1.783552021E-1,-2.049714625E-1
7.568921920E-1,-1.689304113E-1,-1.315105557E-1,-1.623854339E-1
7.588921920E-1,-1.199739352E-1,-8.040732145E-2,-1.208640486E-1
7.608921920E-1,-7.312929630E-2,-2.611012571E-2,-8.360127360E-2
7.628937540E-1,-2.734931000E-2,3.136356547E-2,-4.953244328E-2
7.648921920E-1,1.734857261E-2,8.991936594E-2,-1.865756884E-2
7.668921920E-1,6.099925563E-2,1.484751552E-1,1.113520097E-2
7.692312540E-1,1.057320461E-1,2.080956101E-1,3.562216833E-2
7.709281290E-1,1.483180821E-1,2.677160501E-1,5.797983706E-2
7.728937540E-1,1.898220032E-1,3.262718618E-1,7.714354992E-2
7.748921920E-1,2.302787453E-1,3.848276436E-1,9.204866737E-2
7.768921920E-1,2.696708143E-1,4.433834553E-1,1.026951745E-1
7.788921920E-1,3.069336116E-1,5.019392371E-1,1.090830788E-1
7.808921920E-1,3.420670927E-1,5.583657026E-1,1.133416817E-1
7.828937540E-1,3.761359155E-1,6.137275696E-1,1.133416817E-1
7.848921920E-1,4.080754220E-1,6.658954620E-1,1.090830788E-1
7.868921920E-1,4.368210137E-1,7.148693800E-1,1.005658731E-1
7.888921920E-1,4.623726308E-1,7.574554682E-1,8.885471523E-2
7.908921920E-1,4.857949317E-1,7.936535478E-1,7.288494706E-2
7.928937540E-1,5.049586296E-1,8.223991394E-1,5.372123420E-2
7.948921920E-1,5.219930410E-1,8.415628672E-1,2.923426405E-2
7.968921920E-1,5.358510017E-1,8.511447310E-1,1.553343027E-3
7.988921920E-1,5.443507433E-1,8.490154147E-1,-3.143338114E-2
8.008921920E-1,5.486267805E-1,8.330456614E-1,-6.976080686E-2
8.028937540E-1,5.486093163E-1,8.021707535E-1,-1.112821922E-1
8.048921920E-1,5.432860851E-1,7.585200667E-1,-1.581268311E-1
8.068921920E-1,5.326395631E-1,7.010289431E-1,-2.081654221E-1
8.092312540E-1,5.166698098E-1,6.296973228E-1,-2.603332996E-1
8.109281290E-1,4.975061119E-1,5.477192402E-1,-3.156951666E-1
8.128937540E-1,4.730191231E-1,4.561592638E-1,-3.710570037E-1
8.148921920E-1,4.464028478E-1,3.571467102E-1,-4.264188409E-1
8.168921920E-1,4.165926278E-1,2.560048997E-1,-4.796513915E-1
8.188921920E-1,3.846531212E-1,1.548630595E-1,-5.307546258E-1
8.208921920E-1,3.516489267E-1,5.585053563E-2,-5.797285438E-1
8.228937540E-1,3.175801039E-1,-4.101523757E-2,-6.255085468E-1
8.248921920E-1,2.835112810E-1,-1.325752139E-1,-6.691592336E-1
8.268921920E-1,2.515543103E-1,-2.188119292E-1,-7.074866891E-1
8.288921920E-1,2.196322381E-1,-2.997253835E-1,-7.436847687E-1
8.308921920E-1,1.887573600E-1,-3.753156066E-1,-7.766889930E-1
8.328937540E-1,1.589471400E-1,-4.455825686E-1,-8.064991832E-1
8.348921920E-1,1.323308647E-1,-5.115908980E-1,-8.309861422E-1
8.368921920E-1,1.089085415E-1,-5.722759962E-1,-8.522791862E-1
8.388921920E-1,8.655087650E-2,-6.297671795E-1,-8.693135977E-1
8.408921920E-1,6.632251292E-2,-6.829996705E-1,-8.831540346E-1
8.428937540E-1,4.928809777E-2,-7.341029048E-1,-8.916712403E-1
8.448921920E-1,3.438298777E-2,-7.820122242E-1,-8.948652148E-1
8.468921920E-1,2.267182618E-2,-8.299214840E-1,-8.927358985E-1
8.492312540E-1,1.415462047E-2,-8.757014871E-1,-8.863480091E-1
8.509281290E-1,7.766715251E-3,-9.193521738E-1,-8.725075722E-1
8.528937540E-1,4.572762642E-3,-9.630028605E-1,-8.512145281E-1
8.548921920E-1,2.443460980E-3,-1.003459573E0,-8.245982528E-1
8.568921920E-1,2.443460980E-3,-1.040722370E0,-7.915940881E-1
8.588921920E-1,2.443460980E-3,-1.073726535E0,-7.532666326E-1
8.608921920E-1,2.443460980E-3,-1.100342870E0,-7.096159458E-1
8.628937540E-1,5.637413356E-3,-1.119506598E0,-6.617066860E-1
8.648921920E-1,6.702064537E-3,-1.129088402E0,-6.106034517E-1
8.668921920E-1,7.766715251E-3,-1.129088402E0,-5.595002174E-1
8.688921920E-1,9.896016680E-3,-1.116312623E0,-5.062676668E-1
8.708921920E-1,9.896016680E-3,-1.092890263E0,-4.551644027E-1
8.728937540E-1,9.896016680E-3,-1.058821440E0,-4.051258266E-1
8.748921920E-1,8.831365965E-3,-1.014106154E0,-3.561518788E-1
8.768921920E-1,9.896016680E-3,-9.576796293E-1,-3.071779609E-1
8.788921920E-1,9.896016680E-3,-8.884773254E-1,-2.613979578E-1
8.808921920E-1,8.831365965E-3,-8.107578158E-1,-2.188119292E-1
8.828937540E-1,7.766715251E-3,-7.245211005E-1,-1.794198453E-1
8.848921920E-1,3.508111695E-3,-6.308317780E-1,-1.442863643E-1
8.868921920E-1,-6.073745899E-3,-5.318192840E-1,-1.176700965E-1
8.892312540E-1,-1.991420612E-2,-4.274834991E-1,-9.850638360E-2
8.909281290E-1,-3.586651757E-2,-3.167597950E-1,-8.360127360E-2
8.928937540E-1,-5.398303270E-2,-2.060361207E-1,-7.295475900E-2
8.948937540E-1,-7.208209485E-2,-9.424778074E-2,-6.763150543E-2
8.968921920E-1,-9.231046587E-2,1.219985168E-2,-6.337290257E-2
8.988921920E-1,-1.104095280E-1,1.101477295E-1,-6.124360487E-2
9.008921920E-1,-1.274439394E-1,1.995784044E-1,-6.017895415E-2
9.028937540E-1,-1.444609016E-1,2.772979140E-1,-5.911429971E-2
9.048921920E-1,-1.604306698E-1,3.454355597E-1,-5.698499829E-2
9.068921920E-1,-1.753357798E-1,4.007973969E-1,-5.379104614E-2
9.088921920E-1,-1.881115884E-1,4.444480836E-1,-4.846779257E-2
9.108921920E-1,-1.976934373E-1,4.774522781E-1,-3.888593614E-2
9.128937540E-1,-2.051459998E-1,5.019392371E-1,-2.611012571E-2
9.148937540E-1,-2.094220519E-1,5.179089904E-1,-1.120501384E-2
9.168937540E-1,-2.094046026E-1,5.296201706E-1,7.941247895E-3
9.188937540E-1,-2.072753012E-1,5.370727181E-1,2.816961333E-2
9.208921920E-1,-2.019695044E-1,5.413312912E-1,5.052728206E-2
9.228937540E-1,-1.944994926E-1,5.423959494E-1,7.288494706E-2
9.248921920E-1,-1.838704348E-1,5.402666926E-1,9.417796880E-2
9.268921920E-1,-1.721418202E-1,5.349434018E-1,1.154709831E-1
9.292312540E-1,-1.593660116E-1,5.253615379E-1,1.346347034E-1
9.309281290E-1,-1.444609016E-1,5.115211010E-1,1.527337581E-1
9.328937540E-1,-1.274264902E-1,4.934220314E-1,1.665742248E-1
9.348921920E-1,-1.114741787E-1,4.699997008E-1,1.793500334E-1
9.368921920E-1,-9.443976730E-2,4.412541389E-1,1.878672391E-1
9.388921920E-1,-7.632324845E-2,4.071853161E-1,1.921258420E-1
9.408921920E-1,-5.715953186E-2,3.688578904E-1,1.931905001E-1
9.428937540E-1,-3.906046972E-2,3.273364902E-1,1.889318973E-1
9.448921920E-1,-2.202605456E-2,2.815565169E-1,1.814793348E-1
9.468921920E-1,-4.991641734E-3,2.347118706E-1,1.708328277E-1
9.488921920E-1,1.308996975E-2,1.868025959E-1,1.559277177E-1
9.508921920E-1,2.905973233E-2,1.388933063E-1,1.367640048E-1
9.528937540E-1,4.396484420E-2,9.098401666E-2,1.154709831E-1
9.548921920E-1,5.886995420E-2,4.626867920E-2,9.098401666E-2
9.568921920E-1,7.271041721E-2,5.811946467E-3,6.436774135E-2
9.588921920E-1,8.548622578E-2,-3.249803185E-2,3.455751762E-2
9.608921920E-1,9.826203436E-2,-6.443755329E-2,2.617993858E-3
9.628937540E-1,1.089085415E-1,-9.211847931E-2,-3.036872856E-2
9.648921920E-1,1.206197068E-1,-1.144761443E-1,-6.337290257E-2
9.668921920E-1,1.312487572E-1,-1.325752139E-1,-9.744173288E-2
9.692312540E-1,1.397659630E-1,-1.464156657E-1,-1.304459125E-1
9.709281290E-1,1.472185254E-1,-1.570621729E-1,-1.634500772E-1
9.728937540E-1,1.536064297E-1,-1.634500772E-1,-1.943249553E-1
9.748921920E-1,1.599943340E-1,-1.677086800E-1,-2.230705321E-1
9.768921920E-1,1.642703861E-1,-1.666440368E-1,-2.518160939E-1
9.792312540E-1,1.685115397E-1,-1.623854339E-1,-2.752384245E-1
9.812656290E-1,1.717054844E-1,-1.570621729E-1,-2.965314388E-1
9.828921920E-1,1.727701426E-1,-1.474803239E-1,-3.135658503E-1
9.848921920E-1,1.727875918E-1,-1.357691586E-1,-3.274063170E-1
9.868921920E-1,1.717229486E-1,-1.229933500E-1,-3.369881809E-1
9.888921920E-1,1.717229486E-1,-1.091528907E-1,-3.433760703E-1
9.908921920E-1,1.717229486E-1,-9.211847931E-2,-3.465700150E-1
9.928921920E-1,1.727875918E-1,-7.614871860E-2,-3.455053866E-1
9.948921920E-1,1.727875918E-1,-5.804964900E-2,-3.412467837E-1
9.968921920E-1,1.749168932E-1,-3.782128543E-2,-3.348588645E-1
9.988921920E-1,1.770461947E-1,-1.652826741E-2,-3.263416588E-1
1.000892192E0,1.791754961E-1,6.876597181E-3,-3.146305084E-1
1.002892192E0,1.813047975E-1,2.923426405E-2,-3.018546999E-1
1.004892192E0,1.855634004E-1,5.372123420E-2,-2.858849168E-1
1.006892192E0,1.876927018E-1,7.714354992E-2,-2.699151635E-1
1.009231254E0,1.919513047E-1,1.005658731E-1,-2.539454103E-1
1.010928129E0,1.961924583E-1,1.239881888E-1,-2.379756421E-1
1.012892192E0,2.004685104E-1,1.484751552E-1,-2.230705321E-1
1.014892192E0,2.047271132E-1,1.697681695E-1,-2.071007639E-1
1.016892192E0,2.079210728E-1,1.931905001E-1,-1.911310107E-1
1.018892192E0,2.110975683E-1,2.134188563E-1,-1.772905439E-1
1.020892192E0,2.153561711E-1,2.325825691E-1,-1.634500772E-1
1.022892192E0,2.174854726E-1,2.485523373E-1,-1.506742686E-1
1.024892192E0,2.206794322E-1,2.623927891E-1,-1.378984600E-1
1.026892192E0,2.228087336E-1,2.741039693E-1,-1.261873096E-1
1.029231254E0,2.249380350E-1,2.815565169E-1,-1.144761443E-1
1.031409379E0,2.260026783E-1,2.847504616E-1,-1.048942879E-1
1.033301567E0,2.260201424E-1,2.847504616E-1,-9.531243145E-2
1.034892192E0,2.260026783E-1,2.815565169E-1,-8.785987645E-2
1.036892192E0,2.260026783E-1,2.741039693E-1,-8.147197217E-2
1.038892192E0,2.249380350E-1,2.623927891E-1,-7.721336931E-2
1.040892192E0,2.238733768E-1,2.474876940E-1,-7.401940972E-2
1.042892192E0,2.228087336E-1,2.293886244E-1,-7.189010829E-2
1.044892192E0,2.228261828E-1,2.091602534E-1,-7.295475900E-2
1.046892192E0,2.238733768E-1,1.857379377E-1,-7.401940972E-2
1.049231254E0,2.238733768E-1,1.612509638E-1,-7.614871860E-2
1.050928129E0,2.249380350E-1,1.346347034E-1,-7.934267074E-2
1.052892192E0,2.260201424E-1,1.058891267E-1,-8.147197217E-2
1.054892192E0,2.270673364E-1,7.714354992E-2,-8.466592431E-2
1.056892192E0,2.281319797E-1,4.839798063E-2,-8.892452717E-2
1.058892192E0,2.302612811E-1,1.645845547E-2,-9.318313003E-2
1.060892192E0,2.334552407E-1,-1.652826741E-2,-9.637708217E-2
1.062892192E0,2.366491854E-1,-4.953244328E-2,-9.957103431E-2
1.064892192E0,2.377138436E-1,-6.658431143E-2,-1.017003357E-1
1.066892192E0,2.409078032E-1,-1.027649865E-1,-1.048942879E-1
1.068892192E0,2.451664060E-1,-1.410924196E-1,-1.091528907E-1
1.070892192E0,2.494424582E-1,-1.815491468E-1,-1.123468429E-1
1.072892192E0,2.536835968E-1,-2.230705321E-1,-1.155407950E-1
1.074893754E0,2.579421997E-1,-2.656565607E-1,-1.197993979E-1
1.076893754E0,2.622008026E-1,-3.082425892E-1,-1.219286993E-1
1.078893754E0,2.664594054E-1,-3.487167954E-1,-1.240580007E-1
1.080893754E0,2.696533799E-1,-3.891735077E-1,-1.272519529E-1
1.082892192E0,2.717826664E-1,-4.306774437E-1,-1.304459125E-1
1.084892192E0,2.717826664E-1,-4.700695276E-1,-1.325752139E-1
1.086892192E0,2.717826664E-1,-5.083969831E-1,-1.357691586E-1
1.089231254E0,2.696533799E-1,-5.595002174E-1,-1.410924196E-1
1.090928129E0,2.643475533E-1,-5.893104076E-1,-1.442863643E-1
1.092892192E0,2.622182667E-1,-6.031509042E-1,-1.464156657E-1
1.094892192E0,2.568775713E-1,-6.255260110E-1,-1.506742686E-1
1.096892192E0,2.494250089E-1,-6.425429583E-1,-1.570621729E-1
1.098893754E0,2.419724464E-1,-6.521422863E-1,-1.623854339E-1
1.100893754E0,2.345198840E-1,-6.574480534E-1,-1.698379815E-1
1.102893754E0,2.228087336E-1,-6.531894803E-1,-1.783552021E-1
1.104892192E0,2.079036236E-1,-6.436250806E-1,-1.879370511E-1
1.106892192E0,1.908692122E-1,-6.287199259E-1,-1.975189149E-1
1.108892192E0,1.717054844E-1,-6.084915996E-1,-2.092300653E-1
1.110892192E0,1.504124701E-1,-5.871985555E-1,-2.198765725E-1
1.112892192E0,1.269901544E-1,-5.648234487E-1,-2.305230796E-1
1.114892192E0,9.930923581E-2,-5.445950627E-1,-2.411696017E-1
1.116892192E0,6.845181435E-2,-5.243667364E-1,-2.507514656E-1
1.118892192E0,3.543018550E-2,-5.062851310E-1,-2.592686713E-1
1.120892192E0,1.361356815E-3,-4.902978837E-1,-2.677858770E-1
1.122892192E0,-3.588397056E-2,-4.764574170E-1,-2.752384245E-1
1.124892192E0,-7.525859773E-2,-4.647462666E-1,-2.816263139E-1
1.126892192E0,-1.167974323E-1,-4.540997744E-1,-2.869495749E-1
1.129231254E0,-1.806764901E-1,-4.402593076E-1,-2.944021225E-1
1.130931254E0,-2.019695044E-1,-4.360181391E-1,-2.954667807E-1
1.132892192E0,-2.466848344E-1,-4.275009334E-1,-2.975960970E-1
1.134892192E0,-2.924473584E-1,-4.189662933E-1,-2.986607552E-1
1.136892192E0,-3.382273614E-1,-4.104490876E-1,-2.986607552E-1
1.138892192E0,-3.840247989E-1,-4.008672237E-1,-2.975960970E-1
1.140892192E0,-4.287401438E-1,-3.902381659E-1,-2.965314388E-1
1.142892192E0,-4.734554589E-1,-3.753330410E-1,-2.922728360E-1
1.144892192E0,-5.181707740E-1,-3.593458235E-1,-2.869495749E-1
1.146892192E0,-5.618214607E-1,-3.401995897E-1,-2.805616856E-1
1.148892192E0,-6.022956967E-1,-3.189065456E-1,-2.720444798E-1
1.150892192E0,-6.416877508E-1,-2.933549285E-1,-2.635272741E-1
1.152892192E0,-6.778858900E-1,-2.646093667E-1,-2.539454103E-1
1.154892192E0,-7.119372487E-1,-2.326698452E-1,-2.422342449E-1
1.156892192E0,-7.438767552E-1,-1.964717060E-1,-2.315877378E-1
1.158892192E0,-7.747516632E-1,-1.570621729E-1,-2.209412307E-1
1.160892192E0,-8.034797907E-1,-1.144761443E-1,-2.124240249E-1
1.162892192E0,-8.301134706E-1,-6.976080686E-2,-2.039068192E-1
1.164892192E0,-8.567297459E-1,-2.611012571E-2,-1.985835582E-1
1.166892192E0,-8.812167645E-1,1.537635084E-2,-1.943249553E-1
1.169231254E0,-9.153029919E-1,6.860889494E-2,-1.900663525E-1
1.170929692E0,-9.259320498E-1,8.244935423E-2,-1.900663525E-1
1.172892192E0,-9.440311193E-1,1.080009714E-1,-1.890017092E-1
1.174892192E0,-9.621301889E-1,1.261000335E-1,-1.900663525E-1
1.176892192E0,-9.781174064E-1,1.356818974E-1,-1.921956539E-1
1.178892192E0,-9.919404387E-1,1.388758421E-1,-1.943249553E-1
1.180892192E0,-1.003651619E0,1.367465407E-1,-1.975189149E-1
1.182892192E0,-1.014298081E0,1.282467991E-1,-1.996482164E-1
1.184892192E0,-1.021750689E0,1.154709831E-1,-2.017775178E-1
1.186892192E0,-1.026009202E0,1.016305238E-1,-2.039068192E-1
1.188892192E0,-1.027073860E0,8.672541380E-2,-2.039068192E-1
1.190892192E0,-1.026009202E0,6.969099492E-2,-2.039068192E-1
1.192892192E0,-1.022815347E0,5.265658349E-2,-2.039068192E-1
1.194892192E0,-1.015362740E0,3.562216833E-2,-2.017775178E-1
1.196892192E0,-1.005763412E0,2.178170905E-2,-2.007128596E-1
1.198892192E0,-9.940522909E-1,9.005898610E-3,-1.996482164E-1
1.200892192E0,-9.802117944E-1,-2.687806962E-3,-1.985835582E-1
1.202954692E0,-9.663713574E-1,-1.014036313E-2,-1.964542568E-1
1.204892192E0,-9.493369460E-1,-1.546361670E-2,-1.953896135E-1
1.206892192E0,-9.323199987E-1,-1.865756884E-2,-1.953896135E-1
1.209231254E0,-9.057037234E-1,-1.654572040E-2,-1.943249553E-1
1.210931254E0,-8.971865177E-1,-1.548107062E-2,-1.943249553E-1
1.212892192E0,-8.812167645E-1,-8.011061698E-3,-1.932603121E-1
1.214892192E0,-8.652469516E-1,3.682644805E-3,-1.932603121E-1
1.216892192E0,-8.514065146E-1,1.858775690E-2,-1.932603121E-1
1.218892192E0,-8.375660777E-1,3.668681905E-2,-1.943249553E-1
1.220892192E0,-8.269195557E-1,5.691518635E-2,-1.964542568E-1
1.222907817E0,-8.162730336E-1,7.820820063E-2,-1.975189149E-1
1.224892192E0,-8.066911697E-1,9.948376566E-2,-1.996482164E-1
1.226892192E0,-7.981914282E-1,1.197121367E-1,-2.028421611E-1
1.228892192E0,-7.907214165E-1,1.388933063E-1,-2.049714625E-1
1.230892192E0,-7.832688689E-1,1.559277177E-1,-2.092300653E-1
1.232892192E0,-7.790102363E-1,1.697507203E-1,-2.124240249E-1
1.234892192E0,-7.758163214E-1,1.825439930E-1,-2.177472711E-1
1.236892192E0,-7.715576887E-1,1.910611987E-1,-2.198765725E-1
1.238892192E0,-7.683637738E-1,1.974316388E-1,-2.230705321E-1
1.240892192E0,-7.641051412E-1,2.017077059E-1,-2.262644768E-1
1.242892192E0,-7.619758248E-1,2.059663087E-1,-2.283937782E-1
1.244892192E0,-7.566525936E-1,2.112895548E-1,-2.283937782E-1
1.246892192E0,-7.523939610E-1,2.198067605E-1,-2.273291349E-1
1.249231254E0,-7.449239492E-1,2.453583926E-1,-2.230705321E-1
1.250928129E0,-7.427946925E-1,2.581341863E-1,-2.209412307E-1
1.252892192E0,-7.364067435E-1,2.879444063E-1,-2.145533264E-1
1.254892192E0,-7.310835123E-1,3.273364902E-1,-2.071007639E-1
1.256892192E0,-7.246956229E-1,3.720518351E-1,-1.964542568E-1
1.258892192E0,-7.193723321E-1,4.220904112E-1,-1.836784482E-1
1.260892192E0,-7.161958814E-1,4.785169065E-1,-1.687733382E-1
1.262892192E0,-7.204544544E-1,5.360080600E-1,-1.602561325E-1
1.264892192E0,-7.406653762E-1,5.934991837E-1,-1.645147353E-1
1.266723442E0,-7.715576887E-1,6.552489400E-1,-1.740965992E-1
1.268892192E0,-8.066737056E-1,7.212573290E-1,-1.900663525E-1
1.270892192E0,-8.450011611E-1,7.862010002E-1,-2.092300653E-1
1.272892192E0,-8.876046538E-1,8.458214402E-1,-2.315877378E-1
1.274892192E0,-9.376432300E-1,8.958600760E-1,-2.592686713E-1
1.276893754E0,-9.930050969E-1,9.352346659E-1,-2.922728360E-1
1.278892192E0,-1.052642941E0,9.682388306E-1,-3.274063170E-1
1.280892192E0,-1.111198783E0,1.002307653E0,-3.625397980E-1
1.282892192E0,-1.167625308E0,1.041699767E0,-3.966086209E-1
1.284892192E0,-1.221904993E0,1.082156539E0,-4.285481572E-1
1.286893754E0,-1.273008227E0,1.122630715E0,-4.562290609E-1
1.289231254E0,-1.318788290E0,1.166281343E0,-4.807160199E-1
1.291075004E0,-1.357115626E0,1.203544140E0,-4.998797476E-1
1.292723442E0,-1.386925936E0,1.233354330E0,-5.137202144E-1
1.294892192E0,-1.409283519E0,1.253582716E0,-5.233020782E-1
1.296892192E0,-1.423123956E0,1.265293837E0,-5.275606513E-1
1.298892192E0,-1.427382588E0,1.271664381E0,-5.286253095E-1
1.300892192E0,-1.417800784E0,1.279116869E0,-5.275606513E-1
1.302893754E0,-1.397572398E0,1.286569476E0,-5.233020782E-1
1.304892192E0,-1.365632892E0,1.297215939E0,-5.179787874E-1
1.306892192E0,-1.321982145E0,1.306815267E0,-5.126555562E-1
1.308892192E0,-1.266620398E0,1.308944583E0,-5.062676668E-1
1.310892192E0,-1.203805923E0,1.299362659E0,-4.988150895E-1
1.312893754E0,-1.132474303E0,1.275940418E0,-4.924272001E-1
1.314892192E0,-1.056884170E0,1.235466242E0,-4.860392809E-1
1.316892192E0,-9.802292585E-1,1.176927924E0,-4.807160199E-1
1.318892192E0,-9.025097489E-1,1.102402329E0,-4.807160199E-1
1.320892192E0,-8.279842138E-1,1.019359589E0,-4.828453362E-1
1.322893754E0,-7.577172518E-1,9.331228137E-1,-4.871039391E-1
1.324892192E0,-6.938381791E-1,8.479507565E-1,-4.956211448E-1
1.326892192E0,-6.373942494E-1,7.681019306E-1,-5.073323250E-1
1.329231254E0,-5.895023942E-1,6.924942732E-1,-5.211727619E-1
1.331540629E0,-5.352051854E-1,5.924171209E-1,-5.456597209E-1
1.333442192E0,-5.107182264E-1,5.296201706E-1,-5.616294742E-1
1.334731254E0,-5.011363626E-1,4.976806343E-1,-5.690820813E-1
1.336892192E0,-4.872959256E-1,4.327369332E-1,-5.818578601E-1
1.338892192E0,-4.777140617E-1,3.613878787E-1,-5.893104076E-1
1.340892192E0,-4.723908007E-1,2.826037109E-1,-5.903750658E-1
1.342892192E0,-4.702615142E-1,1.985137463E-1,-5.850518346E-1
1.344893754E0,-4.713261724E-1,1.176002845E-1,-5.733406544E-1
1.346892192E0,-4.766319692E-1,4.307472706E-2,-5.541769266E-1
1.348892192E0,-4.872959256E-1,-1.865756884E-2,-5.296899676E-1
1.350892192E0,-5.000717640E-1,-6.976080686E-2,-4.934918582E-1
1.352892192E0,-5.160415173E-1,-1.123642996E-1,-4.434532523E-1
1.354893754E0,-5.352226496E-1,-1.485624313E-1,-3.806388676E-1
1.356892192E0,-5.586275458E-1,-1.730493903E-1,-3.103719056E-1
1.358892192E0,-5.863084793E-1,-1.858077496E-1,-2.358463407E-1
1.360892192E0,-6.193126440E-1,-1.900663525E-1,-1.591914743E-1
1.362892192E0,-6.533814669E-1,-1.900663525E-1,-7.934267074E-2
1.364893754E0,-6.917088628E-1,-1.858077496E-1,-5.585053586E-4
1.366892192E0,-7.332302928E-1,-1.751612425E-1,7.714354992E-2
1.369231254E0,-7.779281735E-1,-1.559975296E-1,1.506044567E-1
1.370928129E0,-8.258374333E-1,-1.219286993E-1,2.187421173E-1
1.372892192E0,-8.790699840E-1,-7.401940972E-2,2.826211751E-1
1.374893754E0,-9.344318509E-1,-1.546361670E-2,3.422416151E-1
1.376892192E0,-9.930050969E-1,4.946263134E-2,3.965387940E-1
1.378892192E0,-1.052625537E0,1.133416817E-1,4.465774000E-1
1.380892192E0,-1.111163855E0,1.729621291E-1,4.934220314E-1
1.382892192E0,-1.169737101E0,2.208539695E-1,5.381373763E-1
1.384893754E0,-1.224034309E0,2.570520937E-1,5.796587467E-1
1.386892192E0,-1.276202202E0,2.804918587E-1,6.169215441E-1
1.388893754E0,-1.324128985E0,2.921855748E-1,6.509903669E-1
1.390893754E0,-1.365650296E0,2.964441776E-1,6.786713004E-1
1.392893754E0,-1.399719119E0,2.964441776E-1,7.020936012E-1
1.394893754E0,-1.424206138E0,2.975088358E-1,7.169986963E-1
1.396892192E0,-1.439111233E0,2.975088358E-1,7.265805602E-1
1.398892192E0,-1.446563840E0,2.996381223E-1,7.319037914E-1
1.400892192E0,-1.445499182E0,3.017674387E-1,7.350977659E-1
1.402892192E0,-1.440175891E0,3.038967252E-1,7.372270823E-1
1.404893754E0,-1.431641221E0,3.092199862E-1,7.446796298E-1
1.406892192E0,-1.419930100E0,3.230778873E-1,7.563908100E-1
1.409231254E0,-1.409283519E0,3.433062732E-1,7.755544782E-1
1.410967192E0,-1.399701715E0,3.677932322E-1,8.043000698E-1
1.412893754E0,-1.390119791E0,3.901509047E-1,8.404982090E-1
1.414893754E0,-1.380537987E0,4.103618264E-1,8.852135539E-1
1.416893754E0,-1.368844271E0,4.252669215E-1,9.341874719E-1
1.418893754E0,-1.354986310E0,4.327194691E-1,9.863553643E-1
1.420892192E0,-1.337951899E0,4.338015914E-1,1.040652514E0
1.422892192E0,-1.315594316E0,4.274136722E-1,1.092820406E0
1.424892192E0,-1.287913322E0,4.082499743E-1,1.140729785E0
1.426892192E0,-1.254909158E0,3.784222901E-1,1.184380412E0
1.428892192E0,-1.216599226E0,3.369008899E-1,1.222707868E0
1.430892192E0,-1.172948480E0,2.889916301E-1,1.254647374E0
1.432892192E0,-1.123974562E0,2.357590795E-1,1.281263709E0
1.434892192E0,-1.070742011E0,1.825265288E-1,1.300427318E0
1.436892192E0,-1.012168765E0,1.314232945E-1,1.314267874E0
1.438892192E0,-9.472250938E-1,8.353145421E-2,1.324914336E0
1.440892192E0,-8.769581318E-1,3.775146976E-2,1.332366943E0
1.442892192E0,-7.992386222E-1,-8.011061698E-3,1.337690115E0
1.444892192E0,-7.119372487E-1,-5.485569686E-2,1.341948748E0
1.446892192E0,-6.225065589E-1,-8.466592431E-2,1.338754773E0
1.449231254E0,-5.330933928E-1,-9.745918214E-2,1.327043653E0
1.450928129E0,-4.372747838E-1,-1.070410460E-1,1.308944583E0
1.452892192E0,-3.329215646E-1,-1.166229025E-1,1.286586881E0
1.454892192E0,-2.190039158E-1,-1.336398572E-1,1.257841349E0
1.456892192E0,-9.232791513E-2,-1.592089385E-1,1.223772526E0
1.458892192E0,4.501204193E-2,-1.900838017E-1,1.186509728E0
1.460892192E0,1.908692122E-1,-2.262644768E-1,1.144988298E0
1.462892192E0,3.441789150E-1,-2.613979578E-1,1.103466988E0
1.464892192E0,5.006825924E-1,-2.880316973E-1,1.064074874E0
1.466892192E0,6.582509279E-1,-3.008075058E-1,1.025747418E0
1.468892192E0,8.126252890E-1,-2.944195867E-1,9.906139970E-1
1.470892192E0,9.648529291E-1,-2.688679695E-1,9.544158578E-1
1.472892192E0,1.112839341E0,-2.305405438E-1,9.171530604E-1
1.474892192E0,1.257631898E0,-1.794372946E-1,8.788256645E-1
1.476892192E0,1.398165822E0,-1.198168546E-1,8.415628672E-1
1.478892192E0,1.532329321E0,-3.570943698E-2,8.064293861E-1
1.480892192E0,1.663281322E0,8.990190923E-2,7.734252214E-1
1.482892192E0,1.791039467E0,2.709099948E-1,7.382917404E-1
1.484892192E0,1.915603518E0,4.870341122E-1,7.042229176E-1
1.486892192E0,2.033779860E0,6.957057118E-1,6.658954620E-1
1.489231254E0,2.141326904E0,8.639205098E-1,6.201154590E-1
1.490928129E0,2.238192797E0,9.767735004E-1,5.658183098E-1
1.492892192E0,2.324429512E0,1.040652514E0,5.030038953E-1
1.494892192E0,2.405343056E0,1.057686925E0,4.338015914E-1
1.496892192E0,2.480915785E0,1.037441134E0,3.582113683E-1
1.498892192E0,2.557570457E0,9.874025583E-1,2.826211751E-1
1.500892192E0,2.634225368E0,9.096830487E-1,2.123542130E-1
1.502892192E0,2.713009596E0,8.138644695E-1,1.516691148E-1
1.504892192E0,2.794987679E0,7.052701116E-1,1.016305238E-1
1.506892192E0,2.880159855E0,5.828352571E-1,6.330309063E-2
1.508892192E0,2.965331793E0,4.391073883E-1,3.562216833E-2
1.510892192E0,3.049439192E0,2.708925605E-1,1.965240762E-2
1.512892192E0,3.131417274E0,8.457865566E-2,1.326450240E-2
1.514892192E0,3.212330818E0,-1.166229025E-1,1.432915311E-2
1.516892192E0,3.288985729E0,-3.274237812E-1,2.282890677E-2
1.518892192E0,3.361382008E0,-5.435478687E-1,3.562216833E-2
1.520892192E0,3.431648970E0,-7.618013024E-1,5.052728206E-2
1.522892192E0,3.498721838E0,-9.789900780E-1,6.649704278E-2
1.524892192E0,3.561536312E0,-1.188726306E0,8.140215278E-2
1.526892192E0,3.611574888E0,-1.394203901E0,9.311331809E-2
1.529231254E0,3.647773027E0,-1.597552180E0,9.737192094E-2
1.531570317E0,3.665889502E0,-1.797706604E0,9.417796880E-2
1.533581254E0,3.658437014E0,-2.001055002E0,7.927285135E-2
1.535439067E0,3.621174097E0,-2.207579613E0,5.159193277E-2
1.536964067E0,3.548778057E0,-2.414139509E0,9.005898610E-3
1.538912504E0,3.434860229E0,-2.616423130E0,-4.740314186E-2
1.540892192E0,3.280485868E0,-2.801672220E0,-1.208640486E-1
1.542892192E0,3.085654736E0,-2.963499308E0,-2.145533264E-1
1.544892192E0,2.857819557E0,-3.091257334E0,-3.284709752E-1
1.546892192E0,2.604415178E0,-3.170041561E0,-4.572937191E-1
1.548892192E0,2.338252544E0,-3.184946537E0,-5.914397240E-1
1.550892192E0,2.067831278E0,-3.131714106E0,-7.223917842E-1
1.552892192E0,1.802750587E0,-3.010343790E0,-8.437619805E-1
1.554925004E0,1.550428271E0,-2.826159239E0,-9.491624236E-1
1.556967192E0,1.316205144E0,-2.596194744E0,-1.036463737E0
1.558892192E0,1.102192879E0,-2.339613914E0,-1.100342870E0
1.560892192E0,9.073617458E-1,-2.069192648E0,-1.143993497E0
1.562892192E0,7.285004258E-1,-1.797706604E0,-1.164221883E0
1.564892192E0,5.656088591E-1,-1.540061116E0,-1.163157225E0
1.566892192E0,4.186870456E-1,-1.302643895E0,-1.146122813E0
1.569231254E0,2.877349854E-1,-1.092907667E0,-1.110989332E0
1.570928129E0,1.759466380E-1,-9.129817486E-1,-1.057756782E0
1.572892192E0,8.866272867E-2,-7.575427294E-1,-9.917484522E-1
1.574892192E0,3.330088034E-2,-6.169913411E-1,-9.225461483E-1
1.576903129E0,1.200786512E-2,-5.009618402E-1,-8.533438444E-1
1.579092192E0,2.265437320E-2,-4.147251248E-1,-7.884001136E-1
1.580892192E0,6.415830553E-2,-3.593632877E-1,-7.266503572E-1
1.582893754E0,1.333780587E-1,-3.284884095E-1,-6.680945754E-1
1.584893754E0,2.291791886E-1,-3.210358620E-1,-6.148620248E-1
1.586893754E0,3.441614807E-1,-3.370056152E-1,-5.648234487E-1
1.588893754E0,4.719195664E-1,-3.795916438E-1,-5.190434456E-1
1.590893754E0,6.039537191E-1,-4.424060583E-1,-4.743281305E-1
1.592892192E0,7.285178900E-1,-5.083969831E-1,-4.264188409E-1
1.594892192E0,8.307243586E-1,-5.659055710E-1,-3.710570037E-1
1.596893754E0,9.041852951E-1,-6.138148308E-1,-3.071779609E-1
1.598892192E0,9.499652386E-1,-6.574655175E-1,-2.369109988E-1
1.600892192E0,9.669996500E-1,-7.021633983E-1,-1.613207757E-1
1.602892192E0,9.606117606E-1,-7.447494268E-1,-8.573057503E-2
1.604893754E0,9.510298967E-1,-7.649778128E-1,-4.953244328E-2
1.606893754E0,9.244136214E-1,-8.011759520E-1,1.645845547E-2
1.609232817E0,8.732929230E-1,-8.416501284E-1,1.016305238E-1
1.610928129E0,8.392241001E-1,-8.640077710E-1,1.495398134E-1
1.612893754E0,8.232543468E-1,-8.757189512E-1,1.708328277E-1
1.614892192E0,7.955908775E-1,-8.916887045E-1,2.080956101E-1
1.616893754E0,7.774918079E-1,-8.938005567E-1,2.400351316E-1
1.618892192E0,7.668452859E-1,-8.906240463E-1,2.666513920E-1
1.620892192E0,7.604399323E-1,-8.948826790E-1,2.879444063E-1
1.622892192E0,7.551167011E-1,-9.119170904E-1,3.039141893E-1
1.624892192E0,7.487288117E-1,-9.385333657E-1,3.156253397E-1
1.626893754E0,7.370176315E-1,-9.672788978E-1,3.209486008E-1
1.628892192E0,7.231771946E-1,-9.875072837E-1,3.220132589E-1
1.630892192E0,7.082720399E-1,-9.917659163E-1,3.166899979E-1
1.632892192E0,6.869790554E-1,-9.789900780E-1,3.039141893E-1
1.634892192E0,6.603627801E-1,-9.513091445E-1,2.794272006E-1
1.636893754E0,6.273586154E-1,-9.108524323E-1,2.432290763E-1
1.638892192E0,5.922251344E-1,-8.491026759E-1,1.985137463E-1
1.640892192E0,5.496391058E-1,-7.245385051E-1,1.569923609E-1
1.642892192E0,5.070530772E-1,-5.797460079E-1,1.207942367E-1
1.644892192E0,4.687256217E-1,-4.487939477E-1,8.885471523E-2
1.646893754E0,4.389154017E-1,-3.380702734E-1,5.478588492E-2
1.649231254E0,4.165751934E-1,-2.060361207E-1,4.886921961E-4
1.650928129E0,4.155105352E-1,-1.666440368E-1,-1.865756884E-2
1.652892192E0,4.208337963E-1,-9.320057929E-2,-5.911429971E-2
1.654892192E0,4.346742630E-1,-2.078687213E-2,-9.744173288E-2
1.656893754E0,4.506440163E-1,5.159193277E-2,-1.336398572E-1
1.658892192E0,4.676784277E-1,1.186649352E-1,-1.634500772E-1
1.660892192E0,4.825835228E-1,1.750739813E-1,-1.879370511E-1
1.662892192E0,4.985358417E-1,2.155307084E-1,-2.071007639E-1
1.664892192E0,5.155702829E-1,2.442762852E-1,-2.209412307E-1
1.666893754E0,5.347339511E-1,2.655692995E-1,-2.294584364E-1
1.668892192E0,5.560444593E-1,2.730218470E-1,-2.273291349E-1
1.670892192E0,5.794667602E-1,2.634399831E-1,-2.113593668E-1
1.672892192E0,6.060655713E-1,2.464055866E-1,-1.826138049E-1
1.674892192E0,6.326818466E-1,2.261772156E-1,-1.432217211E-1
1.676893754E0,6.614274383E-1,1.995609403E-1,-9.637708217E-2
1.679231254E0,7.050781250E-1,1.324879378E-1,-2.078687213E-2
1.681265629E0,7.327590585E-1,6.541494280E-2,3.028146178E-2
1.682892192E0,7.455348372E-1,2.495820820E-2,5.372123420E-2
1.684892192E0,7.710864544E-1,-6.871361285E-2,9.843657166E-2
1.686892192E0,7.945087552E-1,-1.741140485E-1,1.388933063E-1
1.689231254E0,8.275129795E-1,-3.391349316E-1,1.857379377E-1
1.690928129E0,8.370947838E-1,-3.955614269E-1,1.985137463E-1
1.692892192E0,8.488234282E-1,-5.084143877E-1,2.166128159E-1
1.694892192E0,8.562759757E-1,-6.084915996E-1,2.261946648E-1
1.696892192E0,8.658403754E-1,-6.947283149E-1,2.293886244E-1
1.698892192E0,8.711636662E-1,-7.724478245E-1,2.272418737E-1
1.700892192E0,8.754222393E-1,-8.405854702E-1,2.219360620E-1
1.702892192E0,8.775515556E-1,-8.980765939E-1,2.123542130E-1
1.704892192E0,8.775690198E-1,-9.491798282E-1,1.995784044E-1
1.706892192E0,8.743750453E-1,-9.960244894E-1,1.804146916E-1
1.708892192E0,8.669224977E-1,-1.035399079E0,1.580570191E-1
1.710892192E0,8.594699502E-1,-1.073726535E0,1.303761005E-1
1.712892192E0,8.488234282E-1,-1.113118649E0,1.005658731E-1
1.714892192E0,8.349829912E-1,-1.149334192E0,7.075564563E-2
1.716892192E0,8.221896887E-1,-1.166368604E0,4.307472706E-2
1.718892192E0,8.094139099E-1,-1.167433262E0,2.071705833E-2
1.720892192E0,7.977027297E-1,-1.158916116E0,6.876597181E-3
1.722892192E0,7.827976346E-1,-1.144010901E0,4.886921961E-4
1.724892192E0,7.700217962E-1,-1.122717977E0,-5.585053586E-4
1.726892192E0,7.572634816E-1,-1.098230958E0,3.682644805E-3
1.729231254E0,7.380997539E-1,-1.068403244E0,1.752310619E-2
1.730928129E0,7.338411212E-1,-1.062015414E0,2.391101047E-2
1.732892192E0,7.242592573E-1,-1.055644989E0,3.775146976E-2
1.734892192E0,7.167892456E-1,-1.059903502E0,5.265658349E-2
1.736892192E0,7.093366981E-1,-1.069485426E0,6.649704278E-2
1.738892192E0,6.976429820E-1,-1.083325863E0,7.820820063E-2
1.740892192E0,6.837850809E-1,-1.102489591E0,8.672541380E-2
1.742892192E0,6.656860113E-1,-1.124847293E0,8.991936594E-2
1.744892192E0,6.443930268E-1,-1.150398850E0,8.885471523E-2
1.746892192E0,6.220353246E-1,-1.177015185E0,8.140215278E-2
1.748892192E0,5.975658298E-1,-1.202566743E0,7.182029635E-2
1.750892192E0,5.730788708E-1,-1.223859787E0,6.010913849E-2
1.752892192E0,5.496391058E-1,-1.240894198E0,5.052728206E-2
1.754892192E0,5.283460617E-1,-1.250476003E0,4.307472706E-2
1.756892192E0,5.134409666E-1,-1.251540661E0,3.881612420E-2
1.758892192E0,5.059884191E-1,-1.243023515E0,3.775146976E-2
1.760892192E0,5.070530772E-1,-1.229183078E0,4.201007634E-2
1.762892192E0,5.155876875E-1,-1.215342522E0,5.052728206E-2
1.764892192E0,5.304928422E-1,-1.204678655E0,6.117378920E-2
1.766892192E0,5.496565104E-1,-1.198308110E0,7.288494706E-2
1.769231254E0,5.805314183E-1,-1.206807852E0,8.779006451E-2
1.770928129E0,5.922425985E-1,-1.214260459E0,9.311331809E-2
1.772892192E0,6.146002412E-1,-1.235570908E0,9.950122237E-2
1.774892192E0,6.369578838E-1,-1.263234377E0,1.037598252E-1
1.776892192E0,6.592981219E-1,-1.298385382E0,1.058891267E-1
1.778892192E0,6.795439124E-1,-1.337777376E0,1.080184281E-1
1.780892192E0,6.997722983E-1,-1.380363464E0,1.090830788E-1
1.782892192E0,7.189360261E-1,-1.424014091E0,1.112123802E-1
1.784892192E0,7.370350957E-1,-1.464470863E0,1.122770309E-1
1.786892192E0,7.551167011E-1,-1.501733661E0,1.133416817E-1
1.788892192E0,7.710864544E-1,-1.532608509E0,1.154709831E-1
1.790892192E0,7.859915495E-1,-1.553901553E0,1.186649352E-1
1.792892192E0,7.966555357E-1,-1.567741990E0,1.229235381E-1
1.794892192E0,8.019787669E-1,-1.570935965E0,1.271821409E-1
1.796892192E0,8.030434251E-1,-1.564548016E0,1.325054020E-1
1.798892192E0,7.966555357E-1,-1.545384288E0,1.367640048E-1
1.800892192E0,7.838796973E-1,-1.517703414E0,1.399579495E-1
1.802892192E0,7.636339068E-1,-1.479375958E0,1.431519091E-1
1.804892192E0,7.391644120E-1,-1.432513833E0,1.442165524E-1
1.806721879E0,7.093541622E-1,-1.376104832E0,1.420872509E-1
1.809398442E0,6.571862698E-1,-1.268557668E0,1.335700452E-1
1.811073442E0,6.390872002E-1,-1.225989103E0,1.314407438E-1
1.812721879E0,6.050183773E-1,-1.132299781E0,1.399579495E-1
1.814892192E0,5.730788708E-1,-1.029028654E0,1.655095667E-1
1.816892192E0,5.443332791E-1,-9.108524323E-1,2.017077059E-1
1.818892192E0,5.176995397E-1,-7.852236032E-1,2.421644330E-1
1.820892192E0,4.889539778E-1,-6.574655175E-1,2.719746530E-1
1.822893754E0,4.570144713E-1,-5.350306630E-1,2.847504616E-1
1.824892192E0,4.186870456E-1,-4.232423306E-1,2.783625722E-1
1.826892192E0,3.729070425E-1,-3.210358620E-1,2.528109550E-1
1.828892192E0,3.207391500E-1,-2.316051871E-1,2.144835144E-1
1.830892192E0,2.632479966E-1,-1.581442803E-1,1.644449234E-1
1.832893754E0,2.036275566E-1,-1.038470864E-1,1.090830788E-1
1.834892192E0,1.440071166E-1,-6.871361285E-2,5.157447979E-2
1.836892192E0,8.758062124E-2,-5.380849913E-2,-1.623156248E-3
1.838892192E0,3.541272879E-2,-5.913175642E-2,-4.740314186E-2
1.840892192E0,-7.155850064E-3,-8.148942143E-2,-7.934267074E-2
1.842893754E0,-4.016002640E-2,-1.134289503E-1,-1.006356850E-1
1.844892192E0,-6.358234584E-2,-1.517563760E-1,-1.102175415E-1
1.846892192E0,-7.422885299E-2,-1.932777613E-1,-1.112821922E-1
1.849231254E0,-7.531096041E-2,-2.379930913E-1,-1.081056967E-1
1.850928129E0,-6.784094870E-2,-2.859023809E-1,-9.957103431E-2
1.852893754E0,-5.825908855E-2,-3.444581926E-1,-9.424778074E-2
1.854892192E0,-5.293583497E-2,-4.189837277E-1,-8.785987645E-2
1.856892192E0,-5.080653355E-2,-4.935092926E-1,-8.466592431E-2
1.858892192E0,-4.548327997E-2,-5.595176220E-1,-8.360127360E-2
1.860892192E0,-3.696607426E-2,-6.148794889E-1,-8.466592431E-2
1.862893754E0,-2.631956525E-2,-6.627888083E-1,-8.785987645E-2
1.864892192E0,-1.672025397E-2,-7.032455206E-1,-9.211847931E-2
1.866892192E0,-3.944444004E-3,-7.394436598E-1,-9.424778074E-2
1.868892192E0,8.813912980E-3,-7.703010440E-1,-9.531243145E-2
1.870892192E0,2.263692021E-2,-7.948054671E-1,-9.211847931E-2
1.872893754E0,3.862413764E-2,-8.150163889E-1,-8.679522574E-2
1.874892192E0,5.459389836E-2,-8.299214840E-1,-7.721336931E-2
1.876892192E0,7.375761122E-2,-8.352622390E-1,-6.337290257E-2
1.878892192E0,9.077457339E-2,-8.331329226E-1,-4.740314186E-2
1.880892192E0,1.099382862E-1,-8.246157169E-1,-2.823942713E-2
1.882893754E0,1.280548126E-1,-8.086284995E-1,-8.011061698E-3
1.884892192E0,1.450892240E-1,-7.884001136E-1,1.326450240E-2
1.886892192E0,1.578650326E-1,-7.681717873E-1,3.455751762E-2
1.889231254E0,1.674468815E-1,-7.479608655E-1,5.585053563E-2
1.890928129E0,1.727526933E-1,-7.287971377E-1,7.820820063E-2
1.892893754E0,1.738173366E-1,-7.117627263E-1,1.016305238E-1
1.894892192E0,1.685115397E-1,-6.947283149E-1,1.250528395E-1
1.896893754E0,1.589122266E-1,-6.819524765E-1,1.474105120E-1
1.898892192E0,1.440071166E-1,-6.691766977E-1,1.687035263E-1
1.900892192E0,1.280373484E-1,-6.564008594E-1,1.910611987E-1
1.902893754E0,1.110029370E-1,-6.425604224E-1,2.123542130E-1
1.904892192E0,9.716247767E-2,-6.308492422E-1,2.347118706E-1
1.906892192E0,8.758062124E-2,-6.191381216E-1,2.581341863E-1
1.908892192E0,8.227481693E-2,-6.084915996E-1,2.836858034E-1
1.910892192E0,8.438666910E-2,-5.978450775E-1,3.103020787E-1
1.912893754E0,9.505063295E-2,-5.893278718E-1,3.390476704E-1
1.914892192E0,1.120850444E-1,-5.818753242E-1,3.688578904E-1
1.916893754E0,1.376192123E-1,-5.712288022E-1,3.997327685E-1
1.918893754E0,1.695761830E-1,-5.552590489E-1,4.316722751E-1
1.920893754E0,2.068389654E-1,-5.318367481E-1,4.636118114E-1
1.922893754E0,2.451664060E-1,-5.030736923E-1,4.944866896E-1
1.924893754E0,2.824291885E-1,-4.668755829E-1,5.211029649E-1
1.926893754E0,3.154333532E-1,-4.243069887E-1,5.434606075E-1
1.929231254E0,3.399203122E-1,-3.763802648E-1,5.604950190E-1
1.930928129E0,3.580193818E-1,-3.220830560E-1,5.711415410E-1
1.932893754E0,3.676012456E-1,-2.678033113E-1,5.764647722E-1
1.934892192E0,3.729070425E-1,-2.124414742E-1,5.785940886E-1
1.936892192E0,3.739891648E-1,-1.560149789E-1,5.785940886E-1
1.938892192E0,3.707951903E-1,-1.017003357E-1,5.743355155E-1
1.940892192E0,3.676012456E-1,-5.167919770E-2,5.647536516E-1
1.942893754E0,3.654719293E-1,-8.028514683E-3,5.487838984E-1
1.944892192E0,3.654719293E-1,2.282890677E-2,5.285555124E-1
1.946892192E0,3.686659038E-1,3.879866749E-2,4.998099506E-1
1.948892192E0,3.771656454E-1,4.092797264E-2,4.657410979E-1
1.950892192E0,3.920707703E-1,2.921681106E-2,4.242197275E-1
1.952893754E0,4.144284427E-1,5.794493016E-3,3.763104379E-1
1.954892192E0,4.421093464E-1,-2.719222941E-2,3.241425455E-1
1.956892192E0,4.772428274E-1,-6.658431143E-2,2.687807083E-1
1.958892192E0,5.123937726E-1,-1.017177850E-1,2.144835144E-1
1.960892192E0,5.411219001E-1,-1.219461560E-1,1.623156220E-1
1.962893754E0,5.602855682E-1,-1.230108067E-1,1.144063324E-1
1.964892192E0,5.666735172E-1,-1.049117446E-1,7.075564563E-2
1.966892192E0,5.581563115E-1,-7.297221571E-2,3.029891662E-2
1.969231254E0,5.368632674E-1,-3.251548484E-2,-6.946410518E-3
1.970928129E0,5.070530772E-1,1.218239777E-2,-4.101523757E-2
1.972893754E0,4.719195664E-1,5.583308265E-2,-7.082545757E-2
1.974892192E0,4.325274825E-1,9.416051209E-2,-9.637708217E-2
1.976892192E0,3.942000568E-1,1.282293350E-1,-1.176700965E-1
1.978892192E0,3.579844832E-1,1.569749117E-1,-1.336573064E-1
1.980892192E0,3.239156604E-1,1.814618856E-1,-1.464331299E-1
1.982893754E0,2.941228747E-1,2.048842013E-1,-1.559975296E-1
1.984892192E0,2.664419711E-1,2.240479141E-1,-1.613207757E-1
1.986892192E0,2.419549972E-1,2.389530241E-1,-1.634500772E-1
1.988892192E0,2.195973247E-1,2.453409284E-1,-1.623854339E-1
1.990892192E0,1.993689537E-1,2.432116270E-1,-1.581268311E-1
1.992893754E0,1.833817512E-1,2.368237227E-1,-1.528210342E-1
1.994892192E0,1.684940904E-1,2.251125723E-1,-1.464156657E-1
1.996892192E0,1.557182819E-1,2.091428041E-1,-1.378984600E-1
1.998892192E0,1.461364180E-1,1.921083927E-1,-1.272519529E-1
2.000892192E0,1.397485137E-1,1.729446799E-1,-1.144761443E-1
2.002893754E0,1.365545541E-1,1.537809670E-1,-1.006356850E-1
2.004892192E0,1.354899108E-1,1.335525960E-1,-8.573057503E-2
2.006892192E0,1.365545541E-1,1.122595742E-1,-6.869615614E-2
2.009231254E0,1.397485137E-1,8.990190923E-2,-4.953244328E-2
2.010928129E0,1.440071166E-1,6.860889494E-2,-2.611012571E-2
2.012893754E0,1.482657194E-1,4.838052765E-2,4.886921961E-4
2.014892192E0,1.535889804E-1,3.134611249E-2,3.029891662E-2
2.016892192E0,1.578475833E-1,2.069960535E-2,6.330309063E-2
2.018892192E0,1.610415280E-1,1.750565320E-2,9.737192094E-2
2.020892192E0,1.642354876E-1,2.282890677E-2,1.314407438E-1
2.022893754E0,1.674119830E-1,3.560471535E-2,1.654921174E-1
2.024892192E0,1.716880351E-1,5.263913050E-2,1.985137463E-1
2.026892192E0,1.759466380E-1,6.647959352E-2,2.325825691E-1
2.029231254E0,1.812698990E-1,7.393214852E-2,2.645221055E-1
2.031265629E0,1.866106093E-1,7.393214852E-2,2.953969836E-1
2.033418754E0,1.929985136E-1,6.647959352E-2,3.230778873E-1
2.035403129E0,1.993864179E-1,5.263913050E-2,3.486295044E-1
2.037570317E0,2.036275566E-1,3.666936606E-2,3.709871769E-1
2.038892192E0,2.046922147E-1,2.282890677E-2,3.912155628E-1
2.040892192E0,2.025629133E-1,1.218239777E-2,4.103792608E-1
2.042892192E0,1.993864179E-1,3.665191354E-3,4.274136722E-1
2.044892192E0,1.940631568E-1,-1.640609466E-3,4.423187971E-1
2.046892192E0,1.887224466E-1,-4.834562074E-3,4.540299475E-1
2.049231254E0,1.833992004E-1,-8.028514683E-3,4.614824951E-1
2.050928129E0,1.791405976E-1,-1.228711754E-2,4.646764696E-1
2.052892192E0,1.738173366E-1,-1.761037298E-2,4.625471532E-1
2.054892192E0,1.706408411E-1,-2.506292798E-2,4.540299475E-1
2.056892192E0,1.663647890E-1,-3.464478627E-2,4.412541389E-1
2.058892192E0,1.610415280E-1,-4.316199198E-2,4.231550694E-1
2.060892192E0,1.546536237E-1,-5.061454698E-2,4.018620551E-1
2.062892192E0,1.450717598E-1,-5.700245500E-2,3.773750961E-1
2.064892192E0,1.344252527E-1,-6.232570857E-2,3.496941626E-1
2.066892192E0,1.227141023E-1,-6.658431143E-2,3.209486008E-1
2.068892192E0,1.110203937E-1,-6.977826357E-2,2.922030091E-1
2.070892192E0,9.930923581E-2,-7.084291428E-2,2.634574473E-1
2.072892192E0,8.653342724E-2,-6.977826357E-2,2.347118706E-1
2.074893754E0,7.375761122E-2,-6.551966071E-2,2.059663087E-1
2.076893754E0,6.202900037E-2,-5.806710571E-2,1.772207320E-1
2.078893754E0,4.925319180E-2,-4.635594413E-2,1.463458538E-1
2.080892192E0,3.647737950E-2,-3.145083413E-2,1.165356338E-1
2.082892192E0,2.476622164E-2,-1.441641990E-2,8.459610492E-2
2.084892192E0,1.305506285E-2,5.794493016E-3,5.478588492E-2
2.086892192E0,2.792526793E-4,2.708750963E-2,2.710496262E-2
2.089231254E0,-1.141445339E-2,4.838052765E-2,1.553343027E-3
2.090928129E0,-2.312561311E-2,6.967354566E-2,-2.078687213E-2
2.092893754E0,-3.590142354E-2,8.883725852E-2,-3.995058686E-2
2.094893754E0,-4.867723212E-2,1.069363207E-1,-5.592034757E-2
2.096893754E0,-6.143558770E-2,1.218414381E-1,-7.189010829E-2
2.098893754E0,-7.635815442E-2,1.356818974E-1,-8.466592431E-2
2.100892192E0,-9.126326442E-2,1.495223492E-1,-9.531243145E-2
2.102892192E0,-1.051037237E-1,1.601688713E-1,-1.059589386E-1
2.104892192E0,-1.200088412E-1,1.718800217E-1,-1.155582517E-1
2.106892192E0,-1.327846497E-1,1.835911870E-1,-1.240580007E-1
2.108892192E0,-1.455604583E-1,1.953023374E-1,-1.304459125E-1
2.110892192E0,-1.583362669E-1,2.059488446E-1,-1.368338168E-1
2.112892192E0,-1.689827740E-1,2.155307084E-1,-1.432217211E-1
2.114892192E0,-1.796292812E-1,2.251125723E-1,-1.474803239E-1
2.116892192E0,-1.881290376E-1,2.336297780E-1,-1.517389268E-1
2.118892192E0,-1.955990493E-1,2.432116270E-1,-1.549328715E-1
2.120892192E0,-2.030516118E-1,2.517288327E-1,-1.581268311E-1
2.122892192E0,-2.094395161E-1,2.591813803E-1,-1.602561325E-1
2.124892192E0,-2.158274204E-1,2.676985860E-1,-1.613207757E-1
2.126892192E0,-2.211506665E-1,2.740865052E-1,-1.602561325E-1
2.129231254E0,-2.264739275E-1,2.794097662E-1,-1.581268311E-1
2.130928129E0,-2.307325304E-1,2.826037109E-1,-1.570621729E-1
2.132892192E0,-2.339264750E-1,2.847330272E-1,-1.528035700E-1
2.134892192E0,-2.371204346E-1,2.868623137E-1,-1.474803239E-1
2.136892192E0,-2.392497361E-1,2.868623137E-1,-1.421570629E-1
2.138892192E0,-2.413790375E-1,2.868623137E-1,-1.357691586E-1
2.140892192E0,-2.413790375E-1,2.868623137E-1,-1.283166111E-1
2.142892192E0,-2.403143793E-1,2.879269719E-1,-1.187347472E-1
2.144892192E0,-2.392671853E-1,2.879269719E-1,-1.134289503E-1
2.146892192E0,-2.360557765E-1,2.879269719E-1,-1.027649865E-1
2.148892192E0,-2.317797244E-1,2.868623137E-1,-9.105382860E-2
2.150892192E0,-2.264564633E-1,2.847330272E-1,-7.934267074E-2
2.152892192E0,-2.190039158E-1,2.794097662E-1,-6.550220400E-2
2.154892192E0,-2.105041593E-1,2.740865052E-1,-5.059709400E-2
2.156892192E0,-1.998576522E-1,2.645046413E-1,-3.569198400E-2
2.158892192E0,-1.891936958E-1,2.538581491E-1,-1.865756884E-2
2.160892192E0,-1.774999797E-1,2.432116270E-1,-1.623156248E-3
2.162892192E0,-1.625948697E-1,2.410823256E-1,1.858775690E-2
2.164892192E0,-1.444958150E-1,2.378883809E-1,4.094542563E-2
2.166892192E0,-1.285260469E-1,2.315004766E-1,6.328564137E-2
2.169231254E0,-1.083151326E-1,2.165953666E-1,9.096655995E-2
2.170929692E0,-9.871581942E-2,2.027548999E-1,1.058891267E-1
2.172892192E0,-9.447467327E-2,1.942376941E-1,1.122595742E-1
2.174892192E0,-8.915141970E-2,1.761386245E-1,1.197121367E-1
2.176892192E0,-8.489281684E-2,1.559102684E-1,1.207767874E-1
2.178892192E0,-8.487536013E-2,1.335525960E-1,1.165356338E-1
2.180892192E0,-8.592256159E-2,1.111949235E-1,1.069537774E-1
2.182892192E0,-8.911651373E-2,9.098401666E-2,9.417796880E-2
2.184892192E0,-9.124581516E-2,7.394959778E-2,8.246680349E-2
2.186892192E0,-9.124581516E-2,6.222098693E-2,7.927285135E-2
2.188892192E0,-8.913396299E-2,5.689773336E-2,7.714354992E-2
2.190892192E0,-8.594001085E-2,5.157447979E-2,6.969099492E-2
2.192892192E0,-8.381070942E-2,4.305727407E-2,5.583308265E-2
2.194892192E0,-8.166395873E-2,3.879866749E-2,4.094542563E-2
2.196892192E0,-8.274605870E-2,3.986331820E-2,2.284635976E-2
2.198892192E0,-8.592256159E-2,4.412192479E-2,4.747295752E-3
2.200939067E0,-9.019861370E-2,5.370378122E-2,-1.226966456E-2
2.202892192E0,-9.552186728E-2,6.328564137E-2,-2.611012571E-2
2.204892192E0,-9.978047013E-2,7.393214852E-2,-3.782128543E-2
2.206892192E0,-1.029744223E-1,8.457865566E-2,-4.635594413E-2
2.209231254E0,-1.051037237E-1,1.048070192E-1,-5.592034757E-2
2.210929692E0,-1.051037237E-1,1.133242249E-1,-5.698499829E-2
2.212892192E0,-1.072330326E-1,1.303586364E-1,-6.124360487E-2
2.214892192E0,-1.072155759E-1,1.441991031E-1,-6.443755329E-2
2.216892192E0,-1.082976833E-1,1.559102684E-1,-6.763150543E-2
2.218892192E0,-1.093623340E-1,1.644274741E-1,-6.976080686E-2
2.220892192E0,-1.104269847E-1,1.708153784E-1,-7.295475900E-2
2.222907817E0,-1.136209369E-1,1.772032827E-1,-7.508406043E-2
2.224892192E0,-1.168323383E-1,1.846558303E-1,-7.510151714E-2
2.226892192E0,-1.189616397E-1,1.942376941E-1,-7.297221571E-2
2.228892192E0,-1.210734919E-1,2.048842013E-1,-6.869615614E-2
2.230892192E0,-1.221381426E-1,2.134014070E-1,-6.339035928E-2
2.232892192E0,-1.210734919E-1,2.165953666E-1,-5.592034757E-2
2.234892192E0,-1.189441904E-1,2.165953666E-1,-4.953244328E-2
2.236892192E0,-1.157502383E-1,2.144660652E-1,-4.207988828E-2
2.238892192E0,-1.136209369E-1,2.134014070E-1,-3.464478627E-2
2.240892192E0,-1.104269847E-1,2.144660652E-1,-2.719222941E-2
2.242892192E0,-1.072330326E-1,2.165953666E-1,-1.865756884E-2
2.244892192E0,-1.040390730E-1,2.219186127E-1,-9.075712413E-3
2.246892192E0,-9.871581942E-2,2.272418737E-1,-5.585053586E-4
2.249231254E0,-8.913396299E-2,2.336297780E-1,1.219985168E-2
2.250929692E0,-8.594001085E-2,2.368237227E-1,1.645845547E-2
2.252892192E0,-7.637561113E-2,2.464055866E-1,2.282890677E-2
2.254892192E0,-6.784094870E-2,2.559874356E-1,3.029891662E-2
2.256892192E0,-6.038839370E-2,2.698279023E-1,3.668681905E-2
2.258892192E0,-5.080653355E-2,2.889916301E-1,4.307472706E-2
2.260892192E0,-4.228932783E-2,3.081553280E-1,4.839798063E-2
2.262892192E0,-3.377212211E-2,3.262543976E-1,5.372123420E-2
2.264892192E0,-2.417281084E-2,3.443534672E-1,5.585053563E-2
2.266892192E0,-1.459095255E-2,3.592585623E-1,5.691518635E-2
2.268892192E0,-5.044001620E-3,3.667111397E-1,5.476843193E-2
2.270892192E0,3.455751808E-3,3.656464815E-1,4.944517836E-2
2.272892192E0,1.090830751E-2,3.603232205E-1,3.986331820E-2
2.274892192E0,1.729621366E-2,3.528706729E-1,2.921681106E-2
2.276892192E0,1.944296807E-2,3.454181254E-1,1.645845547E-2
2.278892192E0,2.263692021E-2,3.390302062E-1,2.617993858E-3
2.280892192E0,2.263692021E-2,3.326422870E-1,-1.120501384E-2
2.282892192E0,2.157226950E-2,3.251897395E-1,-2.506292798E-2
2.284892192E0,2.049016580E-2,3.166725338E-1,-3.890338913E-2
2.286892192E0,2.157226950E-2,3.081553280E-1,-5.272639543E-2
2.289231254E0,2.583087236E-2,2.932502329E-1,-7.508406043E-2
2.290929692E0,2.794272080E-2,2.889916301E-1,-8.255407214E-2
2.292892192E0,3.328342736E-2,2.772804499E-1,-9.852383286E-2
2.294892192E0,3.860668465E-2,2.676985860E-1,-1.134289503E-1
2.296892192E0,4.497713596E-2,2.581167519E-1,-1.272694021E-1
2.298892192E0,5.030038953E-2,2.474702299E-1,-1.400452256E-1
2.300892192E0,5.562364310E-2,2.368237227E-1,-1.496270746E-1
2.302892192E0,5.989969894E-2,2.272418737E-1,-1.581268311E-1
2.304892192E0,6.627015024E-2,2.176600099E-1,-1.624028832E-1
2.306892192E0,7.267551124E-2,2.070135027E-1,-1.655793786E-1
2.308892192E0,7.904595882E-2,1.953023374E-1,-1.677261442E-1
2.310892192E0,8.438666910E-2,1.835911870E-1,-1.698554456E-1
2.312892192E0,8.756317198E-2,1.718800217E-1,-1.698554456E-1
2.314892192E0,9.077457339E-2,1.601688713E-1,-1.698379815E-1
2.316892192E0,9.182177484E-2,1.495223492E-1,-1.698554456E-1
2.318892192E0,9.075712413E-2,1.431344450E-1,-1.687907875E-1
2.320892192E0,9.075712413E-2,1.399405003E-1,-1.677261442E-1
2.322892192E0,8.862782270E-2,1.377937496E-1,-1.655968428E-1
2.324892192E0,8.756317198E-2,1.367465407E-1,-1.634675413E-1
2.326892192E0,8.545131981E-2,1.388758421E-1,-1.613382399E-1
2.329231254E0,8.119271696E-2,1.452637464E-1,-1.559975296E-1
2.330929692E0,8.012806624E-2,1.484577060E-1,-1.538682282E-1
2.332892192E0,7.799876481E-2,1.537809670E-1,-1.485449672E-1
2.334892192E0,7.586946338E-2,1.601688713E-1,-1.400277615E-1
2.336892192E0,7.267551124E-2,1.654921174E-1,-1.304459125E-1
2.338892192E0,7.052875310E-2,1.729446799E-1,-1.198168546E-1
2.340892192E0,7.054620981E-2,1.803972274E-1,-1.048942879E-1
2.342892192E0,6.949900836E-2,1.857204884E-1,-8.998917788E-2
2.344892192E0,6.948155910E-2,1.889144331E-1,-7.401940972E-2
2.346721879E0,6.948155910E-2,1.878497899E-1,-6.017895415E-2
2.348892192E0,6.948155910E-2,1.803972274E-1,-5.379104614E-2
2.350892192E0,6.841690838E-2,1.718800217E-1,-5.380849913E-2
2.352892192E0,6.309365481E-2,1.708153784E-1,-5.485569686E-2
2.354892192E0,5.775294453E-2,1.750739813E-1,-5.593780056E-2
2.356893754E0,5.244714394E-2,1.782679260E-1,-5.698499829E-2
2.358892192E0,4.605923966E-2,1.814618856E-1,-5.911429971E-2
2.360892192E0,4.073598608E-2,1.846558303E-1,-5.804964900E-2
2.362892192E0,3.645992652E-2,1.878497899E-1,-5.593780056E-2
2.364892192E0,3.434807807E-2,1.878497899E-1,-5.272639543E-2
2.366893754E0,3.328342736E-2,1.867851317E-1,-4.846779257E-2
2.369231254E0,3.541272879E-2,1.867851317E-1,-3.995058686E-2
2.371078129E0,3.860668465E-2,1.857204884E-1,-3.036872856E-2
2.372721879E0,4.286528751E-2,1.835911870E-1,-1.972221956E-2
2.374892192E0,4.818854108E-2,1.803972274E-1,-8.011061698E-3
2.376892192E0,5.457644537E-2,1.772032827E-1,5.811946467E-3
2.379231254E0,6.202900037E-2,1.740093231E-1,1.965240762E-2
2.381265629E0,7.052875310E-2,1.729446799E-1,3.560471535E-2
2.382892192E0,7.799876481E-2,1.708153784E-1,5.263913050E-2
2.384892192E0,8.864527196E-2,1.676214188E-1,7.075564563E-2
2.386893754E0,1.003564298E-1,1.612335145E-1,8.885471523E-2
2.388893754E0,1.141968891E-1,1.527163088E-1,1.048244759E-1
2.390893754E0,1.280373484E-1,1.431344450E-1,1.186649352E-1
2.392892192E0,1.440071166E-1,1.314232945E-1,1.314407438E-1
2.394892192E0,1.610415280E-1,1.186474785E-1,1.410226077E-1
2.396892192E0,1.791405976E-1,1.069363207E-1,1.505870074E-1
2.398892192E0,1.972396523E-1,9.841911495E-2,1.559277177E-1
2.400892192E0,2.153387219E-1,9.203121066E-2,1.601863205E-1
2.402892192E0,2.345024347E-1,8.777260780E-2,1.612335145E-1
2.404892192E0,2.515194118E-1,8.351400495E-2,1.612335145E-1
2.406893754E0,2.685712576E-1,7.925540209E-2,1.580570191E-1
2.409231254E0,2.834763825E-1,7.606144994E-2,1.527337581E-1
2.410931254E0,3.005107939E-1,7.393214852E-2,1.452812105E-1
2.412892192E0,3.175452054E-1,7.286749780E-2,1.356993467E-1
2.414892192E0,3.313856721E-1,7.286749780E-2,1.261174977E-1
2.416892192E0,3.452261388E-1,7.286749780E-2,1.165356338E-1
2.418892192E0,3.601312339E-1,7.499679923E-2,1.048244759E-1
2.420892192E0,3.739717007E-1,7.712610066E-2,9.417796880E-2
2.422892192E0,3.846181929E-1,8.138470352E-2,8.459610492E-2
2.424892192E0,3.942000568E-1,8.564330637E-2,7.394959778E-2
2.426892192E0,4.005879760E-1,8.990190923E-2,6.436774135E-2
2.428892192E0,4.027172625E-1,9.522516280E-2,5.372123420E-2
2.430892192E0,4.016351700E-1,9.841911495E-2,4.199262336E-2
2.432892192E0,3.952472508E-1,1.005309671E-1,2.921681106E-2
2.434892192E0,3.824714422E-1,1.026777178E-1,1.644100063E-2
2.436892192E0,3.643723726E-1,1.069363207E-1,2.600540640E-3
2.438892192E0,3.420147300E-1,1.122595742E-1,-1.122246683E-2
2.440892192E0,3.164631128E-1,1.229060888E-1,-2.506292798E-2
2.442892192E0,2.887821794E-1,1.356818974E-1,-3.890338913E-2
2.444892192E0,2.611187100E-1,1.495223492E-1,-5.166174471E-2
2.446892192E0,2.323731333E-1,1.601688713E-1,-6.126105785E-2
2.449231254E0,2.036275566E-1,1.697507203E-1,-6.656685472E-2
2.450929692E0,1.748819947E-1,1.814618856E-1,-7.190756500E-2
2.452892192E0,1.450717598E-1,1.953023374E-1,-7.827802002E-2
2.454892192E0,1.163261905E-1,2.080781460E-1,-8.679522574E-2
2.456892192E0,8.651597053E-2,2.187246680E-1,-9.637708217E-2
2.458892192E0,5.564109609E-2,2.251125723E-1,-1.091528907E-1
2.460892192E0,2.583087236E-2,2.293711752E-1,-1.229933500E-1
2.462892192E0,-3.961897455E-3,2.315004766E-1,-1.368338168E-1
2.464892192E0,-3.591887653E-2,2.304358184E-1,-1.506917328E-1
2.466892192E0,-6.892304868E-2,2.229832709E-1,-1.634675413E-1
2.468892192E0,-1.029918790E-1,2.208539695E-1,-1.741140485E-1
2.470892192E0,-1.349314004E-1,2.325651199E-1,-1.826312542E-1
2.472892192E0,-1.626123190E-1,2.517288327E-1,-1.868898571E-1
2.474892192E0,-1.849699914E-1,2.740865052E-1,-1.890191585E-1
2.476892192E0,-2.020044029E-1,2.996381223E-1,-1.890191585E-1
2.478892192E0,-2.137155682E-1,3.262543976E-1,-1.890191585E-1
2.480892192E0,-2.190388143E-1,3.549999595E-1,-1.890191585E-1
2.482892192E0,-2.201034725E-1,3.837455511E-1,-1.900838017E-1
2.484892192E0,-2.179567218E-1,4.114264548E-1,-1.900838017E-1
2.486892192E0,-2.126334608E-1,4.369780719E-1,-1.900663525E-1
2.489231254E0,-1.998576522E-1,4.614650607E-1,-1.900663525E-1
2.490929692E0,-1.817585826E-1,4.848873615E-1,-1.900663525E-1
2.492892192E0,-1.604830176E-1,4.997924864E-1,-1.890191585E-1
2.494892192E0,-1.370607018E-1,5.040510893E-1,-1.890191585E-1
2.496892192E0,-1.157676876E-1,4.976631701E-1,-1.890191585E-1
2.498892192E0,-9.553932399E-2,4.816934168E-1,-1.900838017E-1
2.500892192E0,-7.531096041E-2,4.561243355E-1,-1.890191585E-1
2.502892192E0,-5.721189082E-2,4.273962379E-1,-1.879545003E-1
2.504892192E0,-3.911282867E-2,3.954567015E-1,-1.868898571E-1
2.506892192E0,-2.099631168E-2,3.656464815E-1,-1.836958975E-1
2.508892192E0,-1.850049011E-3,3.400948644E-1,-1.805019528E-1
2.510892192E0,1.729621366E-2,3.177371919E-1,-1.773079932E-1
2.512892192E0,3.647737950E-2,2.996381223E-1,-1.719672978E-1
2.514892192E0,5.775294453E-2,2.826037109E-1,-1.666614860E-1
2.516892192E0,7.906341553E-2,2.655692995E-1,-1.602735817E-1
2.518892192E0,1.014385372E-1,2.506641746E-1,-1.517389268E-1
2.520892192E0,1.248608530E-1,2.368237227E-1,-1.432217211E-1
2.522892192E0,1.472010612E-1,2.219186127E-1,-1.336398572E-1
2.524892192E0,1.695587337E-1,2.080781460E-1,-1.208640486E-1
2.526892192E0,1.908517480E-1,1.942376941E-1,-1.080882400E-1
2.529231254E0,2.100154608E-1,1.793325841E-1,-9.318313003E-2
2.531573442E0,2.249380350E-1,1.644274741E-1,-7.614871860E-2
2.533593754E0,2.376963943E-1,1.441991031E-1,-5.592034757E-2
2.535456254E0,2.430196404E-1,1.197121367E-1,-2.823942713E-2
2.536990629E0,2.451489419E-1,9.841911495E-2,4.886921961E-4
2.538892192E0,2.408903390E-1,8.564330637E-2,2.602285892E-2
2.540892192E0,2.334377915E-1,7.925540209E-2,4.733332992E-2
2.542892192E0,2.227912843E-1,7.499679923E-2,6.223843992E-2
2.544892192E0,2.100154608E-1,6.967354566E-2,7.075564563E-2
2.546892192E0,1.940457076E-1,6.541494280E-2,7.394959778E-2
2.548892192E0,1.748819947E-1,5.902703479E-2,7.288494706E-2
2.550892192E0,1.525243223E-1,5.263913050E-2,6.543239206E-2
2.552892192E0,1.280373484E-1,4.731587693E-2,5.372123420E-2
2.554892192E0,1.003389806E-1,3.986331820E-2,3.986331820E-2
2.556892192E0,7.265805453E-2,3.454006463E-2,2.389355749E-2
2.558892192E0,4.604178667E-2,3.028146178E-2,6.859143730E-3
2.560892192E0,1.942551509E-2,2.708750963E-2,-1.015781611E-2
2.562892192E0,-6.108652335E-3,2.708750963E-2,-2.719222941E-2
2.564892192E0,-2.951351739E-2,3.241076320E-2,-4.314453900E-2
2.566892192E0,-5.293583497E-2,4.092797264E-2,-5.804964900E-2
2.569231254E0,-7.850491256E-2,5.050982907E-2,-7.297221571E-2
2.570929692E0,-1.029918790E-1,6.115633622E-2,-8.681267500E-2
2.572892192E0,-1.285260469E-1,6.754424423E-2,-9.957103431E-2
2.574892192E0,-1.551423222E-1,6.754424423E-2,-1.102175415E-1
2.576892192E0,-1.807113886E-1,5.902703479E-2,-1.166229025E-1
2.578892192E0,-2.062630057E-1,4.731587693E-2,-1.176875532E-1
2.580892192E0,-2.318146378E-1,4.199262336E-2,-1.155582517E-1
2.582892192E0,-2.552369535E-1,4.625122622E-2,-1.102349982E-1
2.584892192E0,-2.744006515E-1,6.222098693E-2,-1.017177850E-1
2.586892192E0,-2.903704345E-1,8.351400495E-2,-9.213592857E-2
2.588892192E0,-3.031287789E-1,1.101302728E-1,-8.255407214E-2
2.590892192E0,-3.116634488E-1,1.378111988E-1,-7.297221571E-2
2.592892192E0,-3.191159964E-1,1.654921174E-1,-6.445501000E-2
2.594892192E0,-3.244217932E-1,1.899790913E-1,-5.593780056E-2
2.596892192E0,-3.297450542E-1,2.112721056E-1,-4.953244328E-2
2.598892192E0,-3.340211213E-1,2.315004766E-1,-4.422664270E-2
2.600892192E0,-3.350857496E-1,2.506641746E-1,-3.890338913E-2
2.602892192E0,-3.350857496E-1,2.676811516E-1,-3.464478627E-2
2.604892192E0,-3.318918049E-1,2.826037109E-1,-3.145083413E-2
2.606892192E0,-3.265685439E-1,2.953795195E-1,-2.612757869E-2
2.609231254E0,-3.169867098E-1,3.060085773E-1,-1.973967440E-2
2.610929692E0,-3.042109013E-1,3.156078756E-1,-1.441641990E-2
2.612892192E0,-2.882236838E-1,3.219957948E-1,-1.120501384E-2
2.614892192E0,-2.690599561E-1,3.230604529E-1,-1.120501384E-2
2.616892192E0,-2.488490492E-1,3.209311366E-1,-1.548107062E-2
2.618892192E0,-2.275385708E-1,3.145432472E-1,-2.078687213E-2
2.620892192E0,-2.051809132E-1,3.038967252E-1,-2.611012571E-2
2.622892192E0,-1.806939393E-1,2.879269719E-1,-2.930407785E-2
2.624892192E0,-1.530304700E-1,2.655692995E-1,-2.825688012E-2
2.626892192E0,-1.242848933E-1,2.357590795E-1,-2.293362655E-2
2.628892192E0,-9.445721656E-2,2.016902417E-1,-1.441641990E-2
2.630892192E0,-6.145304441E-2,1.665567756E-1,-3.752457909E-3
2.632892192E0,-2.740166895E-2,1.324879378E-1,1.218239777E-2
2.634892192E0,1.090830751E-2,1.080009714E-1,2.921681106E-2
2.636892192E0,5.242969096E-2,8.883725852E-2,4.838052765E-2
2.638892192E0,9.822712839E-2,6.967354566E-2,6.969099492E-2
2.640892192E0,1.461364180E-1,4.838052765E-2,9.098401666E-2
2.642892192E0,1.950929016E-1,2.495820820E-2,1.111949235E-1
2.644892192E0,2.419375330E-1,1.535889693E-3,1.292939931E-1
2.646892192E0,2.845235765E-1,-1.867502369E-2,1.441991031E-1
2.649231254E0,3.207217157E-1,-3.677408770E-2,1.569749117E-1
2.650929692E0,3.515965641E-1,-4.848524556E-2,1.676214188E-1
2.652892192E0,3.760835528E-1,-5.806710571E-2,1.761386245E-1
2.654892192E0,3.941826224E-1,-6.551966071E-2,1.814618856E-1
2.656892192E0,4.059112370E-1,-7.510151714E-2,1.846732944E-1
2.658892192E0,4.101698399E-1,-8.574802428E-2,1.868025959E-1
2.660892192E0,4.059112370E-1,-9.532988071E-2,1.878672391E-1
2.662892192E0,3.931353986E-1,-9.852383286E-2,1.878672391E-1
2.664892192E0,3.739717007E-1,-9.958848357E-2,1.878672391E-1
2.666892192E0,3.494672775E-1,-1.017177850E-1,1.867851317E-1
2.668892192E0,3.218038082E-1,-1.049117446E-1,1.846732944E-1
2.670892192E0,2.898642719E-1,-1.102349982E-1,1.825439930E-1
2.672892192E0,2.547133565E-1,-1.176875532E-1,1.782679260E-1
2.674892192E0,2.195798755E-1,-1.240754575E-1,1.761386245E-1
2.676892192E0,1.844463944E-1,-1.283340603E-1,1.718800217E-1
2.678892192E0,1.493303776E-1,-1.293987036E-1,1.676214188E-1
2.680892192E0,1.173908487E-1,-1.262047589E-1,1.633802652E-1
2.682892192E0,8.864527196E-2,-1.176875532E-1,1.580570191E-1
2.684892192E0,6.202900037E-2,-1.049117446E-1,1.516691148E-1
2.686892192E0,4.925319180E-2,-9.532988071E-2,1.484751552E-1
2.689231254E0,1.729621366E-2,-6.232570857E-2,1.346172392E-1
2.690929692E0,-1.832595677E-3,-3.570943698E-2,1.218588874E-1
2.692892192E0,-1.034980267E-2,-2.080432512E-2,1.144063324E-1
2.694892192E0,-2.844886668E-2,8.988445625E-3,9.950122237E-2
2.696892192E0,-4.441862926E-2,3.666936606E-2,8.246680349E-2
2.698892192E0,-5.827654526E-2,6.222098693E-2,6.541494280E-2
2.700892192E0,-7.211700082E-2,8.564330637E-2,4.944517836E-2
2.702892192E0,-8.382816613E-2,1.080009714E-1,3.454006463E-2
2.704892192E0,-9.341002256E-2,1.282293350E-1,2.069960535E-2
2.706892192E0,-1.029918790E-1,1.473930478E-1,8.988445625E-3
2.708892192E0,-1.104444340E-1,1.665567756E-1,-1.640609466E-3
2.710892192E0,-1.146855876E-1,1.835911870E-1,-1.120501384E-2
2.712892192E0,-1.168323383E-1,1.984962970E-1,-1.973967440E-2
2.714892192E0,-1.168323383E-1,2.134014070E-1,-2.719222941E-2
2.716892192E0,-1.136209369E-1,2.272418737E-1,-3.462733328E-2
2.718892192E0,-1.061683744E-1,2.389530241E-1,-4.209734127E-2
2.720892192E0,-9.658651799E-2,2.485348880E-1,-4.954989627E-2
2.722892192E0,-8.487536013E-2,2.559874356E-1,-5.698499829E-2
2.724892192E0,-6.890559942E-2,2.623753548E-1,-6.443755329E-2
2.726892192E0,-4.974188283E-2,2.687632442E-1,-7.190756500E-2
2.729231254E0,-1.888446324E-2,2.740865052E-1,-8.574802428E-2
2.731267192E0,4.537856206E-3,2.730218470E-1,-9.424778074E-2
2.733243754E0,2.687807009E-2,2.708925605E-1,-1.027824357E-1
2.734892192E0,3.965387866E-2,2.698279023E-1,-1.070410460E-1
2.736892192E0,6.201154739E-2,2.687632442E-1,-1.166229025E-1
2.738892192E0,8.223991096E-2,2.666339576E-1,-1.240754575E-1
2.740892192E0,1.003389806E-1,2.666339576E-1,-1.293987036E-1
2.742892192E0,1.131147891E-1,2.655692995E-1,-1.325926632E-1
2.744892192E0,1.237612963E-1,2.623753548E-1,-1.347219646E-1
2.746892192E0,1.312138587E-1,2.591813803E-1,-1.347219646E-1
2.748892192E0,1.312313080E-1,2.549227774E-1,-1.336398572E-1
2.750892192E0,1.259080470E-1,2.517288327E-1,-1.304459125E-1
2.752892192E0,1.141968891E-1,2.549227774E-1,-1.251226515E-1
2.754892192E0,9.503317624E-2,2.623753548E-1,-1.197993979E-1
2.756892192E0,6.948155910E-2,2.730218470E-1,-1.144761443E-1
2.758892192E0,3.967133537E-2,2.879269719E-1,-1.102349982E-1
2.760892192E0,8.796459064E-3,3.070906699E-1,-1.059589386E-1
2.762892192E0,-2.419026382E-2,3.273190558E-1,-1.048942879E-1
2.764892192E0,-5.614724010E-2,3.464827538E-1,-1.049117446E-1
2.766892192E0,-8.808676898E-2,3.677757680E-1,-1.091703475E-1
2.769231254E0,-1.327846497E-1,4.029092491E-1,-1.197993979E-1
2.770929692E0,-1.466251165E-1,4.156850576E-1,-1.229933500E-1
2.772892192E0,-1.711120754E-1,4.391073883E-1,-1.304459125E-1
2.774892192E0,-1.924050897E-1,4.582710862E-1,-1.378984600E-1
2.776892192E0,-2.094395161E-1,4.763701558E-1,-1.453510225E-1
2.778892192E0,-2.232799679E-1,4.912752807E-1,-1.506742686E-1
2.780892192E0,-2.296678722E-1,5.040510893E-1,-1.549328715E-1
2.782892192E0,-2.307325304E-1,5.146976113E-1,-1.570621729E-1
2.784892192E0,-2.264739275E-1,5.232148170E-1,-1.591914743E-1
2.786892192E0,-2.168920636E-1,5.285380483E-1,-1.602561325E-1
2.788892192E0,-2.020044029E-1,5.296027064E-1,-1.592089385E-1
2.790892192E0,-1.817585826E-1,5.296027064E-1,-1.581268311E-1
2.792892192E0,-1.562069654E-1,5.253440738E-1,-1.549328715E-1
2.794892192E0,-1.274613887E-1,5.157622695E-1,-1.528035700E-1
2.796892192E0,-9.552186728E-2,5.019217730E-1,-1.485449672E-1
2.798892192E0,-6.038839370E-2,4.838227332E-1,-1.432217211E-1
2.800892192E0,-2.523746155E-2,4.604004025E-1,-1.347045153E-1
2.802892192E0,1.092576142E-2,4.327194691E-1,-1.251226515E-1
2.804892192E0,4.605923966E-2,3.986506462E-1,-1.134114936E-1
2.806892192E0,8.011060953E-2,3.613878787E-1,-1.017177850E-1
2.809231254E0,1.258905977E-1,2.964441776E-1,-8.255407214E-2
2.810929692E0,1.397310644E-1,2.730218470E-1,-7.616616786E-2
2.812892192E0,1.663473248E-1,2.240479141E-1,-6.339035928E-2
2.814892192E0,1.887049973E-1,1.793325841E-1,-5.167919770E-2
2.816892192E0,2.089333683E-1,1.378111988E-1,-4.103269055E-2
2.818892192E0,2.249031216E-1,9.948376566E-2,-2.932153083E-2
2.820892192E0,2.355496287E-1,6.328564137E-2,-1.867502369E-2
2.822892192E0,2.419375330E-1,2.815216035E-2,-9.093165398E-3
2.824892192E0,2.430021912E-1,-4.834562074E-3,1.535889693E-3
2.826892192E0,2.344849855E-1,-3.145083413E-2,1.005309634E-2
2.828892192E0,2.121273130E-1,-5.167919770E-2,1.857030392E-2
2.830892192E0,1.823170930E-1,-6.764896214E-2,2.708750963E-2
2.832892192E0,1.461364180E-1,-7.936012000E-2,3.668681905E-2
2.834892192E0,1.067443341E-1,-8.468337357E-2,4.839798063E-2
2.836892192E0,6.841690838E-2,-8.255407214E-2,6.117378920E-2
2.838892192E0,2.691297606E-2,-7.297221571E-2,7.607889920E-2
2.840892192E0,-1.139700040E-2,-5.806710571E-2,9.311331809E-2
2.842892192E0,-4.654793069E-2,-4.209734127E-2,1.112123802E-1
2.844892192E0,-8.061675727E-2,-2.399827726E-2,1.293114424E-1
2.846892192E0,-1.115090847E-1,-6.963863503E-3,1.452637464E-1
2.849231254E0,-1.519483626E-1,1.431170013E-2,1.644449234E-1
2.850929692E0,-1.647241712E-1,1.963495463E-2,1.687035263E-1
2.852892192E0,-1.870818436E-1,3.028146178E-2,1.750914305E-1
2.854892192E0,-2.051809132E-1,3.986331820E-2,1.793500334E-1
2.856892192E0,-2.190213650E-1,5.476843193E-2,1.804146916E-1
2.858892192E0,-2.254267186E-1,8.457865566E-2,1.835911870E-1
2.860892192E0,-2.264913768E-1,1.250353903E-1,1.889144331E-1
2.862892192E0,-2.286206782E-1,1.580395699E-1,1.910437346E-1
2.864892192E0,-2.318146378E-1,1.835911870E-1,1.889144331E-1
2.866892192E0,-2.392671853E-1,2.027548999E-1,1.814618856E-1
2.868892192E0,-2.488490492E-1,2.165953666E-1,1.708153784E-1
2.870892192E0,-2.584308982E-1,2.240479141E-1,1.569749117E-1
2.872892192E0,-2.658834457E-1,2.240479141E-1,1.410051435E-1
2.874892192E0,-2.701420486E-1,2.176600099E-1,1.218414381E-1
2.876892192E0,-2.722713649E-1,2.080781460E-1,1.037423685E-1
2.878892192E0,-2.712067068E-1,1.974316388E-1,8.457865566E-2
2.880892192E0,-2.669481039E-1,1.857204884E-1,6.754424423E-2
2.882892192E0,-2.616248429E-1,1.740093231E-1,5.050982907E-2
2.884892192E0,-2.541722953E-1,1.622981727E-1,3.560471535E-2
2.886721879E0,-2.435257882E-1,1.516516656E-1,2.282890677E-2
2.889398442E0,-2.286206782E-1,1.410051435E-1,5.794493016E-3
2.891085942E0,-2.222327739E-1,1.388758421E-1,1.535889693E-3
2.892721879E0,-2.115862668E-1,1.356818974E-1,-5.899212789E-3
2.894892192E0,-2.020044029E-1,1.356818974E-1,-1.122246683E-2
2.896892192E0,-1.902757883E-1,1.378111988E-1,-1.546361670E-2
2.898892192E0,-1.806939393E-1,1.431344450E-1,-1.759291813E-2
2.900892192E0,-1.689827740E-1,1.473930478E-1,-1.759291813E-2
2.902893754E0,-1.583362669E-1,1.505870074E-1,-1.548107062E-2
2.904892192E0,-1.476897597E-1,1.516516656E-1,-1.120501384E-2
2.906892192E0,-1.381078959E-1,1.495223492E-1,-4.817108624E-3
2.908892192E0,-1.274613887E-1,1.431344450E-1,4.747295752E-3
2.910892192E0,-1.157502383E-1,1.335525960E-1,1.432915311E-2
2.912893754E0,-1.029744223E-1,1.186474785E-1,2.604031190E-2
2.914892192E0,-9.019861370E-2,9.841911495E-2,3.881612420E-2
2.916892192E0,-7.635815442E-2,7.286749780E-2,5.159193277E-2
2.918892192E0,-6.145304441E-2,4.305727407E-2,6.436774135E-2
2.920892192E0,-4.440117627E-2,8.988445625E-3,7.607889920E-2
2.922893754E0,-2.844886668E-2,-2.506292798E-2,8.991936594E-2
2.924892192E0,-1.143190637E-2,-5.913175642E-2,1.037423685E-1
2.926892192E0,4.520402756E-3,-9.213592857E-2,1.197121367E-1
2.929231254E0,2.263692021E-2,-1.230108067E-1,1.378286481E-1
2.930929692E0,3.752457723E-2,-1.506917328E-1,1.569749117E-1
2.932893754E0,5.136504024E-2,-1.751786917E-1,1.772032827E-1
2.934892192E0,5.988224596E-2,-1.986010075E-1,1.984962970E-1
2.936892192E0,6.520549953E-2,-2.188293785E-1,2.197893113E-1
2.938892192E0,6.839945167E-2,-2.358637899E-1,2.389530241E-1
2.940892192E0,6.948155910E-2,-2.475749552E-1,2.560048997E-1
2.942893754E0,6.733480096E-2,-2.539628446E-1,2.719571888E-1
2.944892192E0,6.414084882E-2,-2.550275028E-1,2.868623137E-1
2.946892192E0,5.883504823E-2,-2.528982162E-1,2.996555865E-1
2.948892192E0,5.138249323E-2,-2.465102971E-1,3.113667369E-1
2.950892192E0,4.073598608E-2,-2.326698452E-1,3.241250813E-1
2.952893754E0,3.113667294E-2,-2.156354338E-1,3.539353311E-1
2.954892192E0,2.261946723E-2,-2.007303238E-1,4.029092491E-1
2.956892192E0,1.199041214E-2,-1.858251989E-1,4.582710862E-1
2.958892192E0,-7.679448463E-4,-1.719847471E-1,5.115211010E-1
2.960892192E0,-1.354375482E-2,-1.602735817E-1,5.551717877E-1
2.962893754E0,-2.738421597E-2,-1.538856775E-1,5.881759524E-1
2.964892192E0,-4.122467712E-2,-1.517563760E-1,6.126629114E-1
2.966892192E0,-5.506513640E-2,-1.517563760E-1,6.275506020E-1
2.969231254E0,-6.998769939E-2,-1.538856775E-1,6.339384913E-1
2.970929692E0,-8.595746756E-2,-1.538856775E-1,6.328738332E-1
2.972893754E0,-1.029918790E-1,-1.528210342E-1,6.275506020E-1
2.974892192E0,-1.200262904E-1,-1.464331299E-1,6.158394217E-1
2.976892192E0,-1.359960586E-1,-1.336573064E-1,5.998696685E-1
2.978892192E0,-1.487544179E-1,-1.198168546E-1,5.785940886E-1
2.980892192E0,-1.562069654E-1,-1.038470864E-1,5.530424714E-1
2.982893754E0,-1.551597714E-1,-7.936012000E-2,5.274733901E-1
2.984892192E0,-1.487718672E-1,-4.954989627E-2,4.997924864E-1
2.986892192E0,-1.381253600E-1,-2.186897583E-2,4.657236636E-1
2.988892192E0,-1.263967454E-1,1.535889693E-3,4.252669215E-1
2.990892192E0,-1.136209369E-1,2.069960535E-2,3.805690408E-1
2.992893754E0,-9.978047013E-2,3.773401678E-2,3.315950930E-1
2.994892192E0,-8.274605870E-2,5.370378122E-2,2.804918587E-1
2.996892192E0,-6.251769513E-2,6.860889494E-2,2.283239663E-1
2.998892192E0,-3.909537569E-2,8.457865566E-2,1.761560738E-1
3.000892192E0,-1.247910410E-2,1.016130671E-1,1.239881888E-1
3.002893754E0,1.624901593E-2,1.207767874E-1,7.499679923E-2
3.004892192E0,4.710643739E-2,1.399405003E-1,2.921681106E-2
3.006892192E0,7.906341553E-2,1.591042131E-1,-1.120501384E-2
3.009231254E0,1.099382862E-1,1.761386245E-1,-4.848524556E-2
3.010929692E0,1.418778151E-1,1.889144331E-1,-8.042477071E-2
3.012893754E0,1.727526933E-1,1.984962970E-1,-1.070235893E-1
3.014892192E0,1.993689537E-1,2.048842013E-1,-1.283166111E-1
3.016892192E0,2.249205858E-1,2.091428041E-1,-1.432391703E-1
3.018892192E0,2.472782433E-1,2.123367488E-1,-1.517389268E-1
3.020892192E0,2.685712576E-1,2.123367488E-1,-1.549328715E-1
3.022893754E0,2.866703272E-1,2.112721056E-1,-1.528035700E-1
3.024892192E0,3.015928864E-1,2.070135027E-1,-1.464156657E-1
3.026892192E0,3.143512607E-1,2.016902417E-1,-1.347045153E-1
3.029229692E0,3.249977529E-1,1.931730360E-1,-1.219286993E-1
3.031414067E0,3.324503005E-1,1.867851317E-1,-1.059589386E-1
3.033309379E0,3.377561271E-1,1.697507203E-1,-8.894197643E-2
3.034892192E0,3.388207555E-1,1.441991031E-1,-7.297221571E-2
3.036892192E0,3.334975243E-1,1.250353903E-1,-5.806710571E-2
3.038892192E0,3.218038082E-1,1.207767874E-1,-4.209734127E-2
3.040892192E0,3.068812490E-1,1.250353903E-1,-2.825688012E-2
3.042892192E0,2.898468375E-1,1.292939931E-1,-1.441641990E-2
3.044892192E0,2.738770545E-1,1.292939931E-1,-3.769911127E-3
3.046892192E0,2.568426430E-1,1.250353903E-1,3.665191354E-3
3.049231254E0,2.366317362E-1,1.175828278E-1,4.729842301E-3
3.050929692E0,2.163859159E-1,1.133242249E-1,-4.834562074E-3
3.052892192E0,1.972222030E-1,1.080009714E-1,-2.293362655E-2
3.054892192E0,1.791405976E-1,1.026777178E-1,-4.527384043E-2
3.056892192E0,1.663473248E-1,9.735446423E-2,-6.977826357E-2
3.058892192E0,1.535715163E-1,8.670795709E-2,-9.000662714E-2
3.060892192E0,1.407957077E-1,7.286749780E-2,-1.038470864E-1
3.062892192E0,1.290845573E-1,5.157447979E-2,-1.112996489E-1
3.064892192E0,1.163261905E-1,2.495820820E-2,-1.123468429E-1
3.066892192E0,1.046150327E-1,-5.899212789E-3,-1.091528907E-1
3.068892192E0,9.608037770E-2,-3.890338913E-2,-1.017177850E-1
3.070892192E0,8.970992267E-2,-6.977826357E-2,-8.894197643E-2
3.072892192E0,8.649851382E-2,-9.958848357E-2,-7.403686643E-2
3.074892192E0,8.543386310E-2,-1.251401007E-1,-5.593780056E-2
3.076892192E0,8.969247341E-2,-1.474977732E-1,-3.570943698E-2
3.079231254E0,9.608037770E-2,-1.666614860E-1,-1.335176919E-2
3.081265629E0,1.045975834E-1,-1.847605556E-1,1.005309634E-2
3.082892192E0,1.173908487E-1,-2.017949671E-1,3.560471535E-2
3.084892192E0,1.301666498E-1,-2.188293785E-1,6.223843992E-2
3.086892192E0,1.439896673E-1,-2.358637899E-1,9.203121066E-2
3.089231254E0,1.599768847E-1,-2.550275028E-1,1.239707395E-1
3.090929692E0,1.759466380E-1,-2.752558887E-1,1.559277177E-1
3.092892192E0,1.929636002E-1,-2.933549285E-1,1.878497899E-1
3.094892192E0,2.121447772E-1,-3.146479428E-1,2.134188563E-1
3.096892192E0,2.355496287E-1,-3.316823840E-1,2.293711752E-1
3.098892192E0,2.611012459E-1,-3.380702734E-1,2.410823256E-1
3.100892192E0,2.877349854E-1,-3.359409869E-1,2.496169955E-1
3.102892192E0,3.164805472E-1,-3.284884095E-1,2.560048997E-1
3.104892192E0,3.452261388E-1,-3.199712038E-1,2.613281608E-1
3.106892192E0,3.729070425E-1,-3.125186563E-1,2.645221055E-1
3.108892192E0,3.995233178E-1,-3.082600534E-1,2.645221055E-1
3.110892192E0,4.218635261E-1,-3.040014505E-1,2.623753548E-1
3.112892192E0,4.420919120E-1,-3.029367924E-1,2.591813803E-1
3.114892192E0,4.580616653E-1,-3.040014505E-1,2.559874356E-1
3.116892192E0,4.708374739E-1,-3.093247116E-1,2.485348880E-1
3.118892192E0,4.793546796E-1,-3.167772591E-1,2.400176823E-1
3.120892192E0,4.868246913E-1,-3.199712038E-1,2.315179259E-1
3.122892192E0,4.942772388E-1,-3.167772591E-1,2.219360620E-1
3.124892192E0,5.027944446E-1,-3.061307371E-1,2.134188563E-1
3.126892192E0,5.102469921E-1,-2.912256420E-1,2.038195431E-1
3.129231254E0,5.166348815E-1,-2.720619142E-1,1.942551434E-1
3.130929692E0,5.208760500E-1,-2.497042567E-1,1.835911870E-1
3.132892192E0,5.219407082E-1,-2.294758856E-1,1.718800217E-1
3.134892192E0,5.219407082E-1,-2.092475295E-1,1.601688713E-1
3.136893754E0,5.187641978E-1,-1.890191585E-1,1.474105120E-1
3.138892192E0,5.145056248E-1,-1.709200889E-1,1.335700452E-1
3.140892192E0,5.081176758E-1,-1.528210342E-1,1.207942367E-1
3.142892192E0,4.964065552E-1,-1.357866228E-1,1.080184281E-1
3.144892192E0,4.846953750E-1,-1.198168546E-1,9.417796880E-2
3.146892192E0,4.708549380E-1,-1.049117446E-1,8.140215278E-2
3.148892192E0,4.548851550E-1,-9.320057929E-2,7.075564563E-2
3.150892192E0,4.378507435E-1,-8.255407214E-2,6.010913849E-2
3.152892192E0,4.186870456E-1,-7.297221571E-2,5.052728206E-2
3.154892192E0,3.984586596E-1,-6.445501000E-2,4.305727407E-2
3.156892192E0,3.771482110E-1,-5.806710571E-2,3.454006463E-2
3.158892192E0,3.537084162E-1,-5.169665068E-2,2.921681106E-2
3.160892192E0,3.303035498E-1,-4.635594413E-2,2.282890677E-2
3.162892192E0,3.036872745E-1,-4.316199198E-2,1.644100063E-2
3.164892192E0,2.760063708E-1,-3.783873841E-2,1.218239777E-2
3.166892192E0,2.493900955E-1,-3.358013555E-2,7.923794910E-3
3.169231254E0,2.227912843E-1,-3.145083413E-2,3.682644805E-3
3.170928129E0,1.951103508E-1,-2.825688012E-2,4.886921961E-4
3.172892192E0,1.695587337E-1,-2.612757869E-2,-1.623156248E-3
3.174892192E0,1.429424584E-1,-2.506292798E-2,-3.752457909E-3
3.176892192E0,1.152440906E-1,-2.293362655E-2,-4.834562074E-3
3.178892192E0,8.862782270E-2,-2.401573025E-2,-6.963863503E-3
3.180892192E0,6.412339956E-2,-2.508038096E-2,-8.028514683E-3
3.182892192E0,3.858922794E-2,-2.827433310E-2,-1.015781611E-2
3.184892192E0,1.410226058E-2,-3.251548484E-2,-1.015781611E-2
3.186892192E0,-1.036725566E-2,-3.677408770E-2,-9.093165398E-3
3.188892192E0,-3.378957510E-2,-4.103269055E-2,-8.028514683E-3
3.190892192E0,-5.721189082E-2,-4.635594413E-2,-5.899212789E-3
3.192892192E0,-7.956956327E-2,-5.167919770E-2,-2.705260413E-3
3.194892192E0,-1.008451208E-1,-5.700245500E-2,1.535889693E-3
3.196954692E0,-1.232202426E-1,-6.126105785E-2,4.729842301E-3
3.198892192E0,-1.445132643E-1,-6.658431143E-2,8.988445625E-3
3.200892192E0,-1.658062786E-1,-7.297221571E-2,1.324704941E-2
3.202892192E0,-1.860346496E-1,-7.936012000E-2,1.857030392E-2
3.204892192E0,-2.051983625E-1,-8.574802428E-2,2.389355749E-2
3.206892192E0,-2.254092693E-1,-9.426523000E-2,2.815216035E-2
3.209231254E0,-2.435083389E-1,-1.006531343E-1,3.242821619E-2
3.210926567E0,-2.605252862E-1,-1.059763953E-1,3.881612420E-2
3.212892192E0,-2.765125036E-1,-1.091703475E-1,4.413937777E-2
3.214892192E0,-2.935469151E-1,-1.102349982E-1,4.946263134E-2
3.216892192E0,-3.084520400E-1,-1.091703475E-1,5.585053563E-2
3.218892192E0,-3.223099411E-1,-1.081056967E-1,6.328564137E-2
3.220892192E0,-3.350857496E-1,-1.049117446E-1,6.967354566E-2
3.222904692E0,-3.457322717E-1,-1.038470864E-1,7.712610066E-2
3.224892192E0,-3.553141356E-1,-1.017177850E-1,8.564330637E-2
3.226892192E0,-3.595552742E-1,-1.006531343E-1,8.991936594E-2
3.228892192E0,-3.670252860E-1,-1.006531343E-1,9.948376566E-2
3.230892192E0,-3.733957410E-1,-1.017177850E-1,1.090656221E-1
3.232892192E0,-3.798010945E-1,-1.049117446E-1,1.186474785E-1
3.234892192E0,-3.851243556E-1,-1.081056967E-1,1.282293350E-1
3.236892192E0,-3.893654943E-1,-1.123642996E-1,1.378286481E-1
3.238892192E0,-3.936240971E-1,-1.155582517E-1,1.495398134E-1
3.240892192E0,-3.968180716E-1,-1.176875532E-1,1.612335145E-1
3.242892192E0,-3.968355060E-1,-1.198168546E-1,1.708153784E-1
3.244892192E0,-3.957534134E-1,-1.219461560E-1,1.825439930E-1
3.246892192E0,-3.936240971E-1,-1.230108067E-1,1.942551434E-1
3.249231254E0,-3.872187436E-1,-1.251401007E-1,2.112895548E-1
3.250926567E0,-3.808482885E-1,-1.262047589E-1,2.219360620E-1
3.252892192E0,-3.776543438E-1,-1.262047589E-1,2.272593230E-1
3.254892192E0,-3.702017963E-1,-1.262047589E-1,2.379058301E-1
3.256892192E0,-3.627492189E-1,-1.240754575E-1,2.485523373E-1
3.258892192E0,-3.542494774E-1,-1.230108067E-1,2.591813803E-1
3.260892192E0,-3.446501791E-1,-1.208815053E-1,2.698453665E-1
3.262892192E0,-3.340211213E-1,-1.187522039E-1,2.804744244E-1
3.264892192E0,-3.244392574E-1,-1.176875532E-1,2.921855748E-1
3.266892192E0,-3.127281070E-1,-1.155757010E-1,3.038967252E-1
3.268892192E0,-3.020815849E-1,-1.144936010E-1,3.166725338E-1
3.270892192E0,-2.903704345E-1,-1.144936010E-1,3.294483423E-1
3.272892192E0,-2.775946259E-1,-1.134289503E-1,3.422241509E-1
3.274892192E0,-2.658834457E-1,-1.144936010E-1,3.560646176E-1
3.276892192E0,-2.531076372E-1,-1.176875532E-1,3.688404262E-1
3.278892192E0,-2.403318435E-1,-1.198168546E-1,3.837455511E-1
3.280892192E0,-2.275560200E-1,-1.240754575E-1,3.986506462E-1
3.282892192E0,-2.147802114E-1,-1.283340603E-1,4.124911129E-1
3.284892192E0,-2.009572089E-1,-1.326101124E-1,4.273962379E-1
3.286892192E0,-1.860346496E-1,-1.379159242E-1,4.412366748E-1
3.289231254E0,-1.626123190E-1,-1.453684717E-1,4.657236636E-1
3.290928129E0,-1.551597714E-1,-1.485624313E-1,4.731762111E-1
3.292892192E0,-1.402372122E-1,-1.549503356E-1,4.891634285E-1
3.294892192E0,-1.253320873E-1,-1.602735817E-1,5.040510893E-1
3.296892192E0,-1.093797833E-1,-1.655968428E-1,5.200208426E-1
3.298892192E0,-9.341002256E-2,-1.709200889E-1,5.338613391E-1
3.300892192E0,-7.744026184E-2,-1.751786917E-1,5.487664342E-1
3.302892192E0,-6.040584669E-2,-1.794372946E-1,5.626068711E-1
3.304892192E0,-4.337143153E-2,-1.815665960E-1,5.764473677E-1
3.306892192E0,-2.953097038E-2,-1.836958975E-1,5.892231464E-1
3.308892192E0,-1.354375482E-2,-1.858251989E-1,6.019989848E-1
3.310892192E0,1.326450263E-3,-1.847605556E-1,6.137101054E-1
3.312892192E0,1.623156108E-2,-1.836958975E-1,6.254212856E-1
3.314892192E0,3.113667294E-2,-1.826312542E-1,6.371324658E-1
3.316892192E0,4.605923966E-2,-1.805019528E-1,6.467317343E-1
3.318892192E0,6.202900037E-2,-1.773079932E-1,6.573782563E-1
3.320892192E0,7.906341553E-2,-1.751786917E-1,6.680073142E-1
3.322892192E0,9.503317624E-2,-1.719847471E-1,6.786713004E-1
3.324892192E0,1.120501384E-1,-1.687907875E-1,6.882357001E-1
3.326892192E0,1.301492006E-1,-1.645321846E-1,6.967529058E-1
3.329231254E0,1.567654759E-1,-1.581442803E-1,7.084640265E-1
3.330928129E0,1.663473248E-1,-1.570796371E-1,7.127226591E-1
3.332892192E0,1.855110526E-1,-1.538856775E-1,7.223045230E-1
3.334892192E0,2.046747655E-1,-1.517563760E-1,7.297570705E-1
3.336892192E0,2.227738202E-1,-1.496270746E-1,7.382742763E-1
3.338892192E0,2.430021912E-1,-1.464331299E-1,7.457268238E-1
3.340892192E0,2.621659040E-1,-1.443038285E-1,7.531793714E-1
3.342892192E0,2.813296318E-1,-1.432391703E-1,7.585026622E-1
3.344892192E0,3.015579879E-1,-1.432391703E-1,7.638258934E-1
3.346892192E0,3.228510022E-1,-1.453684717E-1,7.680844665E-1
3.348892192E0,3.462907672E-1,-1.464331299E-1,7.734252214E-1
3.350892192E0,3.686484396E-1,-1.485624313E-1,7.766016722E-1
3.352892192E0,3.920533061E-1,-1.506917328E-1,7.787309885E-1
3.354892192E0,4.165402651E-1,-1.528210342E-1,7.808603048E-1
3.356892192E0,4.420919120E-1,-1.549503356E-1,7.829896212E-1
3.358892192E0,4.676435292E-1,-1.570796371E-1,7.851189375E-1
3.360892192E0,4.931951463E-1,-1.592089385E-1,7.872481942E-1
3.362892192E0,5.208760500E-1,-1.624028832E-1,7.904421687E-1
3.364892192E0,5.475097895E-1,-1.666614860E-1,7.936535478E-1
3.366892192E0,5.741260648E-1,-1.730493903E-1,7.979121804E-1
3.369231254E0,6.145827770E-1,-1.868898571E-1,8.085587025E-1
3.370928129E0,6.284232736E-1,-1.922131032E-1,8.128172755E-1
3.372892192E0,6.550395489E-1,-2.028596252E-1,8.223991394E-1
3.374892192E0,6.795265079E-1,-2.167000771E-1,8.341103196E-1
3.376892192E0,7.039960027E-1,-2.316051871E-1,8.479332924E-1
3.378892192E0,7.274183035E-1,-2.475749552E-1,8.649677038E-1
3.380892192E0,7.518878579E-1,-2.646268308E-1,8.820021152E-1
3.382892192E0,7.742455006E-1,-2.827258706E-1,9.011658430E-1
3.384892192E0,7.966032028E-1,-2.997603118E-1,9.224588871E-1
3.386892192E0,8.178961873E-1,-3.189240098E-1,9.458811879E-1
3.388892192E0,8.381245732E-1,-3.380877376E-1,9.703681469E-1
3.390892192E0,8.583528996E-1,-3.561868072E-1,9.959197640E-1
3.392892192E0,8.764694333E-1,-3.753330410E-1,1.023600698E0
3.394892192E0,8.945685029E-1,-3.944967687E-1,1.051281571E0
3.396892192E0,9.105382562E-1,-4.136604965E-1,1.078962564E0
3.398892192E0,9.243787527E-1,-4.349535108E-1,1.105578780E0
3.400892192E0,9.382191896E-1,-4.551818669E-1,1.133259773E0
3.402892192E0,9.509950280E-1,-4.764748812E-1,1.160940647E0
3.404892192E0,9.627061486E-1,-4.977678955E-1,1.188621521E0
3.406892192E0,9.744173288E-1,-5.158669949E-1,1.217367172E0
3.409231254E0,9.914517403E-1,-5.392892957E-1,1.259953141E0
3.410926567E0,9.978396297E-1,-5.456771851E-1,1.274858236E0
3.412892192E0,1.009533286E0,-5.574058294E-1,1.302539229E0
3.414892192E0,1.022326589E0,-5.669876337E-1,1.331284761E0
3.416892192E0,1.032973170E0,-5.755048394E-1,1.358965755E0
3.418892192E0,1.044684291E0,-5.829574466E-1,1.383452654E0
3.420892192E0,1.055330753E0,-5.903925300E-1,1.409004331E0
3.422892192E0,1.065977335E0,-5.957157612E-1,1.432426572E0
3.424892192E0,1.076623797E0,-6.021211147E-1,1.454784274E0
3.426892192E0,1.086188197E0,-6.063797474E-1,1.476077318E0
3.429231254E0,1.097899318E0,-6.095737219E-1,1.496305704E0
3.431414067E0,1.116015911E0,-6.106383204E-1,1.522921920E0
3.432918754E0,1.122403741E0,-6.106383204E-1,1.530374527E0
3.434721879E0,1.135179639E0,-6.084915996E-1,1.546344280E0
3.436892192E0,1.149020076E0,-6.063622832E-1,1.561249375E0
3.438892192E0,1.162877917E0,-6.042329669E-1,1.575107336E0
3.440892192E0,1.176718473E0,-5.999743938E-1,1.586818457E0
3.442892192E0,1.189476728E0,-5.978450775E-1,1.597447515E0
3.444893754E0,1.202270031E0,-5.946511030E-1,1.605982184E0
3.446892192E0,1.215028405E0,-5.935865045E-1,1.614481926E0
3.449231254E0,1.227804184E0,-5.914571881E-1,1.622999072E0
3.451075004E0,1.241644621E0,-5.903925300E-1,1.629387021E0
3.452721879E0,1.255467653E0,-5.893453360E-1,1.635774970E0
3.454892192E0,1.269325614E0,-5.882632136E-1,1.641098142E0
3.456892192E0,1.285312772E0,-5.882632136E-1,1.645374298E0
3.458892192E0,1.301265121E0,-5.903925300E-1,1.648550749E0
3.460892192E0,1.318316936E0,-5.935865045E-1,1.650697470E0
3.462893754E0,1.335333943E0,-5.978450775E-1,1.652809381E0
3.464892192E0,1.352368355E0,-6.010390520E-1,1.653874040E0
3.466892192E0,1.367273450E0,-6.021037102E-1,1.654938698E0
3.468892192E0,1.383243203E0,-6.010390520E-1,1.654938698E0
3.470892192E0,1.398148298E0,-5.999743938E-1,1.656003237E0
3.472893754E0,1.411971331E0,-5.978625417E-1,1.656003237E0
3.474892192E0,1.422635317E0,-5.957332253E-1,1.657067895E0
3.476892192E0,1.431135058E0,-5.946685672E-1,1.658132553E0
3.478892192E0,1.437523007E0,-5.925392509E-1,1.658132553E0
3.480892192E0,1.440734386E0,-5.882806778E-1,1.659197211E0
3.482893754E0,1.439669728E0,-5.861338973E-1,1.660261869E0
3.484892192E0,1.435411096E0,-5.818753242E-1,1.659197211E0
3.486892192E0,1.427958608E0,-5.776166916E-1,1.657067895E0
3.489231254E0,1.416247368E0,-5.744227767E-1,1.656003237E0
3.490928129E0,1.400277615E0,-5.733581185E-1,1.654938698E0
3.492893754E0,1.380049229E0,-5.744227767E-1,1.650680065E0
3.494892192E0,1.356644392E0,-5.744227767E-1,1.646438837E0
3.496892192E0,1.331075311E0,-5.754874349E-1,1.640033484E0
3.498892192E0,1.300200462E0,-5.744227767E-1,1.631516337E0
3.500892192E0,1.269325614E0,-5.733581185E-1,1.622999072E0
3.502893754E0,1.236303926E0,-5.744402409E-1,1.611287951E0
3.504892192E0,1.204381943E0,-5.776166916E-1,1.598512173E0
3.506892192E0,1.171377778E0,-5.850692987E-1,1.584671736E0
3.508892192E0,1.141567469E0,-5.935865045E-1,1.568701982E0
3.510892192E0,1.113886595E0,-6.021037102E-1,1.551667571E0
3.512893754E0,1.088334918E0,-6.116855145E-1,1.534633040E0
3.514892192E0,1.064912677E0,-6.212673783E-1,1.517598629E0
3.516892192E0,1.043637037E0,-6.287199259E-1,1.501646399E0
3.518892192E0,1.027649879E0,-6.361725330E-1,1.485659122E0
3.520892192E0,1.011680126E0,-6.425604224E-1,1.470754027E0
3.522893754E0,9.999689460E-1,-6.500129700E-1,1.457978249E0
3.524892192E0,9.893224239E-1,-6.553362012E-1,1.445202470E0
3.526892192E0,9.818698764E-1,-6.617241502E-1,1.433491230E0
3.529231254E0,9.754994512E-1,-6.691766977E-1,1.423909426E0
3.531570317E0,9.701586962E-1,-6.830171347E-1,1.410068989E0
3.533871879E0,9.701586962E-1,-6.947457790E-1,1.402616382E0
3.535332817E0,9.701412320E-1,-7.011336684E-1,1.398357749E0
3.536925004E0,9.722880125E-1,-7.128448486E-1,1.391969919E0
3.538892192E0,9.765466452E-1,-7.234913111E-1,1.385581970E0
3.540892192E0,9.829170704E-1,-7.309438586E-1,1.379194021E0
3.542892192E0,9.914342761E-1,-7.373318076E-1,1.372806191E0
3.544892192E0,1.001033545E0,-7.415729165E-1,1.366418242E0
3.546892192E0,1.013791919E0,-7.437196970E-1,1.360030413E0
3.548892192E0,1.028697014E0,-7.437196970E-1,1.354707122E0
3.550892192E0,1.045731425E0,-7.415903807E-1,1.350448489E0
3.552892192E0,1.064895153E0,-7.405257225E-1,1.345125198E0
3.554892192E0,1.086205602E0,-7.383790016E-1,1.341931343E0
3.556892192E0,1.108563304E0,-7.351850271E-1,1.338737369E0
3.558892192E0,1.130921006E0,-7.298617959E-1,1.336608052E0
3.560892192E0,1.155407906E0,-7.266678214E-1,1.335543394E0
3.562892192E0,1.180976987E0,-7.234739065E-1,1.336608052E0
3.564892192E0,1.207593322E0,-7.192152739E-1,1.338754773E0
3.566892192E0,1.233127475E0,-7.160212994E-1,1.341931343E0
3.569231254E0,1.258679152E0,-7.138920426E-1,1.346189857E0
3.570926567E0,1.285295367E0,-7.117627263E-1,1.351513147E0
3.572892192E0,1.309782386E0,-7.096334100E-1,1.354707122E0
3.574892192E0,1.334269285E0,-7.075040936E-1,1.356836438E0
3.576925004E0,1.357674122E0,-7.032629848E-1,1.358965755E0
3.578893754E0,1.381113887E0,-6.979222298E-1,1.357901096E0
3.580893754E0,1.401342273E0,-6.925989985E-1,1.354707122E0
3.582893754E0,1.419441342E0,-6.862111092E-1,1.350448489E0
3.584893754E0,1.434346437E0,-6.787760258E-1,1.345125198E0
3.586892192E0,1.444993019E0,-6.691766977E-1,1.336608052E0
3.588892192E0,1.451380849E0,-6.574655175E-1,1.328090787E0
3.590892192E0,1.454574823E0,-6.468189955E-1,1.317444324E0
3.592892192E0,1.454574823E0,-6.361725330E-1,1.304668546E0
3.594892192E0,1.449234128E0,-6.276727319E-1,1.291892767E0
3.596893754E0,1.441781640E0,-6.212848425E-1,1.275922894E0
3.598893754E0,1.432217121E0,-6.159441471E-1,1.257823825E0
3.600893754E0,1.421570659E0,-6.127501726E-1,1.238660216E0
3.602893754E0,1.409859538E0,-6.116855145E-1,1.215237856E0
3.604892192E0,1.397083759E0,-6.084915996E-1,1.189686179E0
3.606892192E0,1.384307861E0,-6.063797474E-1,1.164134622E0
3.609231254E0,1.368338108E0,-6.031683087E-1,1.135389090E0
3.610928129E0,1.352368355E0,-5.999743938E-1,1.104514122E0
3.612892192E0,1.337463260E0,-5.957157612E-1,1.071509957E0
3.614892192E0,1.321493506E0,-5.914746523E-1,1.037441134E0
3.616892192E0,1.303377032E0,-5.850867033E-1,1.001242995E0
3.618892192E0,1.286360025E0,-5.776341558E-1,9.639802575E-1
3.620892192E0,1.269325614E0,-5.691169500E-1,9.245881438E-1
3.622892192E0,1.251209140E0,-5.584704280E-1,8.851960897E-1
3.624892192E0,1.233110070E0,-5.478239655E-1,8.447393775E-1
3.626892192E0,1.215011001E0,-5.371774435E-1,8.032179475E-1
3.628892192E0,1.200105786E0,-5.265309215E-1,7.606319189E-1
3.630892192E0,1.186282873E0,-5.148197412E-1,7.169812322E-1
3.632892192E0,1.173506975E0,-5.030911565E-1,6.754598618E-1
3.634892192E0,1.166054487E0,-4.913800061E-1,6.328738332E-1
3.636892192E0,1.160731196E0,-4.807334840E-1,5.913524628E-1
3.638892192E0,1.158601880E0,-4.668930173E-1,5.519603491E-1
3.640892192E0,1.157537222E0,-4.530525804E-1,5.146976113E-1
3.642892192E0,1.157537222E0,-4.402767420E-1,4.774348140E-1
3.644892192E0,1.161795855E0,-4.243069887E-1,4.412366748E-1
3.646892192E0,1.167119145E0,-4.094193280E-1,4.082325101E-1
3.649231254E0,1.173506975E0,-3.944967687E-1,3.752283454E-1
3.650926567E0,1.182024240E0,-3.827856183E-1,3.454181254E-1
3.652892192E0,1.190541387E0,-3.710744381E-1,3.177371919E-1
3.654892192E0,1.200123310E0,-3.604279459E-1,2.921855748E-1
3.656892192E0,1.209705114E0,-3.519281745E-1,2.698279023E-1
3.658892192E0,1.219269514E0,-3.434109688E-1,2.506641746E-1
3.660892192E0,1.228851438E0,-3.359584212E-1,2.346944213E-1
3.662892192E0,1.238433242E0,-3.285058737E-1,2.208539695E-1
3.664892192E0,1.249097228E0,-3.221179545E-1,2.123367488E-1
3.666892192E0,1.257614493E0,-3.167947233E-1,2.059488446E-1
3.668892192E0,1.264002323E0,-3.136007488E-1,2.027548999E-1
3.670892192E0,1.268243551E0,-3.114714622E-1,2.006255984E-1
3.672892192E0,1.271437407E0,-3.093421459E-1,2.016902417E-1
3.674892192E0,1.273566723E0,-3.082775176E-1,2.038195431E-1
3.676892192E0,1.272519588E0,-3.082775176E-1,2.080781460E-1
3.678892192E0,1.268243551E0,-3.082775176E-1,2.134014070E-1
3.680892192E0,1.262920260E0,-3.061482012E-1,2.208539695E-1
3.682892192E0,1.255467653E0,-3.040189147E-1,2.272418737E-1
3.684892192E0,1.244838595E0,-3.018721342E-1,2.357590795E-1
3.686892192E0,1.234192133E0,-3.008075058E-1,2.442762852E-1
3.689231254E0,1.219287038E0,-3.008075058E-1,2.527934909E-1
3.690926567E0,1.204381943E0,-3.018721342E-1,2.613106966E-1
3.692892192E0,1.188412189E0,-3.029367924E-1,2.698279023E-1
3.694892192E0,1.171395183E0,-3.061307371E-1,2.794272006E-1
3.696892192E0,1.153278708E0,-3.093247116E-1,2.879269719E-1
3.698892192E0,1.135179639E0,-3.146479428E-1,2.975088358E-1
3.700892192E0,1.118145227E0,-3.210358620E-1,3.070906699E-1
3.702892192E0,1.101110816E0,-3.295530677E-1,3.177371919E-1
3.704892192E0,1.084076405E0,-3.391523659E-1,3.294483423E-1
3.706892192E0,1.068106651E0,-3.519281745E-1,3.422241509E-1
3.708892192E0,1.054266095E0,-3.636218905E-1,3.581939340E-1
3.710892192E0,1.040425658E0,-3.764151633E-1,3.741636872E-1
3.712892192E0,1.027632356E0,-3.902556300E-1,3.911980987E-1
3.714892192E0,1.014856577E0,-4.051607251E-1,4.082325101E-1
3.716892192E0,1.003145456E0,-4.200658500E-1,4.263315797E-1
3.718892192E0,9.924989343E-1,-4.339063168E-1,4.433659911E-1
3.720892192E0,9.818524122E-1,-4.488114119E-1,4.604004025E-1
3.722892192E0,9.733352065E-1,-4.637165368E-1,4.774348140E-1
3.724892192E0,9.648180008E-1,-4.775569737E-1,4.923399389E-1
3.726892192E0,9.563007951E-1,-4.903328121E-1,5.072450638E-1
3.729231254E0,9.477835894E-1,-4.999146461E-1,5.200208426E-1
3.730928129E0,9.403310418E-1,-5.084318519E-1,5.317320228E-1
3.732892192E0,9.318138361E-1,-5.158843994E-1,5.413138866E-1
3.734892192E0,9.254259467E-1,-5.222723484E-1,5.487664342E-1
3.736892192E0,9.201026559E-1,-5.275955796E-1,5.540896654E-1
3.738892192E0,9.137322307E-1,-5.329014063E-1,5.572836399E-1
3.740892192E0,9.083915353E-1,-5.371774435E-1,5.583482981E-1
3.742892192E0,9.041329026E-1,-5.425006747E-1,5.583482981E-1
3.744892192E0,8.998917341E-1,-5.467593074E-1,5.551543236E-1
3.746892192E0,8.956331611E-1,-5.499358177E-1,5.508957505E-1
3.748892192E0,8.924391866E-1,-5.531297326E-1,5.455724597E-1
3.750892192E0,8.913571239E-1,-5.552765131E-1,5.370552540E-1
3.752892192E0,8.913745284E-1,-5.563411713E-1,5.274733901E-1
3.754892192E0,8.902924657E-1,-5.574058294E-1,5.168268681E-1
3.756892192E0,8.913571239E-1,-5.552765131E-1,5.061804056E-1
3.758892192E0,8.924217224E-1,-5.531471968E-1,4.944692254E-1
3.760892192E0,8.945510387E-1,-5.488886237E-1,4.816934168E-1
3.762892192E0,8.977450132E-1,-5.435653329E-1,4.678529501E-1
3.764892192E0,8.998743296E-1,-5.361127853E-1,4.529478550E-1
3.766892192E0,9.009389281E-1,-5.318541527E-1,4.454952776E-1
3.769231254E0,9.041329026E-1,-5.190783739E-1,4.210083187E-1
3.770928129E0,9.073268771E-1,-5.105611682E-1,4.029092491E-1
3.772892192E0,9.083915353E-1,-5.063025355E-1,3.933273852E-1
3.774892192E0,9.115854502E-1,-4.977853596E-1,3.730990291E-1
3.776892192E0,9.137147665E-1,-4.882034957E-1,3.507413566E-1
3.779231254E0,9.169087410E-1,-4.754276872E-1,3.156078756E-1
3.781414067E0,9.201201200E-1,-4.647811651E-1,2.911209166E-1
3.782917192E0,9.243612885E-1,-4.530700147E-1,2.676985860E-1
3.784892192E0,9.254259467E-1,-4.477467537E-1,2.549227774E-1
3.786892192E0,9.275552034E-1,-4.371002614E-1,2.315004766E-1
3.788892192E0,9.275552034E-1,-4.264537394E-1,2.080781460E-1
3.790892192E0,9.286198616E-1,-4.168718755E-1,1.846558303E-1
3.792892192E0,9.286198616E-1,-4.083546698E-1,1.644274741E-1
3.794892192E0,9.286198616E-1,-3.998374641E-1,1.441991031E-1
3.796892192E0,9.286198616E-1,-3.923849165E-1,1.261000335E-1
3.798892192E0,9.286198616E-1,-3.849323690E-1,1.101302728E-1
3.800892192E0,9.296845198E-1,-3.764151633E-1,9.628981352E-2
3.802892192E0,9.296845198E-1,-3.668332994E-1,8.244935423E-2
3.804892192E0,9.296670556E-1,-3.572514355E-1,7.073819637E-2
3.806892192E0,9.296845198E-1,-3.466049433E-1,6.009168550E-2
3.809231254E0,9.286198616E-1,-3.285058737E-1,4.518657550E-2
3.810926567E0,9.275552034E-1,-3.231826127E-1,4.092797264E-2
3.812892192E0,9.243612885E-1,-3.114714622E-1,3.134611249E-2
3.814892192E0,9.222319722E-1,-2.997603118E-1,2.176425606E-2
3.816892192E0,9.179733992E-1,-2.880491316E-1,1.324704941E-2
3.818892192E0,9.126501083E-1,-2.774026394E-1,4.729842301E-3
3.820892192E0,9.051975608E-1,-2.699500620E-1,-3.769911127E-3
3.822892192E0,8.966803551E-1,-2.699500620E-1,-1.335176919E-2
3.824892192E0,8.870984912E-1,-2.752733231E-1,-2.399827726E-2
3.826892192E0,8.775166273E-1,-2.816612422E-1,-3.358013555E-2
3.828892192E0,8.679347634E-1,-2.869844735E-1,-4.209734127E-2
3.830892192E0,8.594175577E-1,-2.891137898E-1,-5.167919770E-2
3.832892192E0,8.519650102E-1,-2.891137898E-1,-5.913175642E-2
3.834892192E0,8.466417789E-1,-2.869844735E-1,-6.551966071E-2
3.836892192E0,8.413184881E-1,-2.848551869E-1,-7.190756500E-2
3.838892192E0,8.359952569E-1,-2.816612422E-1,-7.723081857E-2
3.840892192E0,8.296073675E-1,-2.795319259E-1,-8.148942143E-2
3.842892192E0,8.253487349E-1,-2.742086649E-1,-8.574802428E-2
3.844892192E0,8.200255036E-1,-2.688854337E-1,-9.000662714E-2
3.846892192E0,8.146848083E-1,-2.614328563E-1,-9.426523000E-2
3.849231254E0,8.082968593E-1,-2.486570626E-1,-1.006531343E-1
3.850928129E0,8.061676025E-1,-2.443984598E-1,-1.027824357E-1
3.852892192E0,8.029736280E-1,-2.348165959E-1,-1.070410460E-1
3.854892192E0,7.987149954E-1,-2.209761292E-1,-1.112996489E-1
3.856892192E0,7.944564223E-1,-2.060710192E-1,-1.166229025E-1
3.858892192E0,7.912624478E-1,-1.890366077E-1,-1.219461560E-1
3.860892192E0,7.870038748E-1,-1.666789502E-1,-1.272694021E-1
3.862892192E0,7.827627063E-1,-1.421919763E-1,-1.325926632E-1
3.864892192E0,7.795513272E-1,-1.145110503E-1,-1.368512660E-1
3.866892192E0,7.774220109E-1,-8.576548100E-2,-1.411098689E-1
3.868892192E0,7.763573527E-1,-5.595525727E-2,-1.443038285E-1
3.870892192E0,7.774394751E-1,-2.827433310E-2,-1.474977732E-1
3.872892192E0,7.785041332E-1,-2.722713631E-3,-1.474977732E-1
3.874892192E0,7.816980481E-1,1.961750165E-2,-1.474977732E-1
3.876892192E0,7.838273644E-1,3.984586522E-2,-1.464331299E-1
3.878892192E0,7.859566808E-1,5.688028038E-2,-1.443038285E-1
3.880892192E0,7.880859971E-1,7.178539038E-2,-1.411098689E-1
3.882892192E0,7.912799120E-1,8.669050038E-2,-1.368512660E-1
3.884892192E0,7.944564223E-1,9.840166569E-2,-1.325926632E-1
3.886892192E0,8.008443117E-1,1.079835221E-1,-1.283340603E-1
3.889231254E0,8.115082979E-1,1.175653785E-1,-1.230108067E-1
3.890928129E0,8.157668710E-1,1.196946800E-1,-1.219461560E-1
3.892893754E0,8.253487349E-1,1.218239814E-1,-1.208815053E-1
3.894893754E0,8.370599151E-1,1.196946800E-1,-1.208815053E-1
3.896893754E0,8.487710953E-1,1.175653785E-1,-1.208815053E-1
3.898892192E0,8.615294099E-1,1.154360771E-1,-1.198168546E-1
3.900892192E0,8.732580543E-1,1.133067757E-1,-1.187522039E-1
3.902892192E0,8.860338330E-1,1.111774743E-1,-1.176875532E-1
3.904892192E0,8.988096714E-1,1.079835221E-1,-1.176875532E-1
3.906892192E0,9.115679860E-1,1.058542207E-1,-1.155582517E-1
3.908892192E0,9.243438244E-1,1.047895700E-1,-1.144936010E-1
3.910892192E0,9.371370673E-1,1.047895700E-1,-1.144936010E-1
3.912892192E0,9.488307834E-1,1.037249193E-1,-1.144936010E-1
3.914893754E0,9.594773054E-1,1.058542207E-1,-1.166229025E-1
3.916893754E0,9.722530842E-1,1.079835221E-1,-1.198168546E-1
3.918893754E0,9.839642644E-1,1.101128235E-1,-1.251401007E-1
3.920892192E0,9.967401028E-1,1.132893190E-1,-1.315280050E-1
3.922892192E0,1.009515882E0,1.165007278E-1,-1.389805675E-1
3.924892192E0,1.021227002E0,1.207593307E-1,-1.464331299E-1
3.926892192E0,1.030808926E0,1.260825843E-1,-1.549503356E-1
3.929231254E0,1.045714021E0,1.345823407E-1,-1.687907875E-1
3.930928129E0,1.049972653E0,1.367290914E-1,-1.730493903E-1
3.932892192E0,1.057442665E0,1.431169957E-1,-1.826312542E-1
3.934892192E0,1.065942407E0,1.484402567E-1,-1.900838017E-1
3.936892192E0,1.072330236E0,1.548281610E-1,-1.975363642E-1
3.938892192E0,1.079782844E0,1.622807086E-1,-2.039242685E-1
3.940892192E0,1.086170793E0,1.707979143E-1,-2.103121728E-1
3.942892192E0,1.091493964E0,1.814444214E-1,-2.145707756E-1
3.944892192E0,1.095752597E0,1.920909435E-1,-2.167000771E-1
3.946892192E0,1.100011230E0,2.038020939E-1,-2.177647352E-1
3.948892192E0,1.103205204E0,2.123192996E-1,-2.188293785E-1
3.950892192E0,1.105334520E0,2.197718620E-1,-2.156354338E-1
3.952892192E0,1.105334520E0,2.250951082E-1,-2.103121728E-1
3.954892192E0,1.104269862E0,2.293537110E-1,-2.017949671E-1
3.956892192E0,1.102140546E0,2.325476706E-1,-1.911484599E-1
3.958892192E0,1.097881913E0,2.336123139E-1,-1.783726513E-1
3.960892192E0,1.092558622E0,2.325476706E-1,-1.624028832E-1
3.962892192E0,1.085106134E0,2.304183692E-1,-1.453684717E-1
3.964892192E0,1.077653527E0,2.250951082E-1,-1.240754575E-1
3.966892192E0,1.068071723E0,2.187072039E-1,-1.017177850E-1
3.969231254E0,1.058489799E0,2.101899981E-1,-7.829546928E-2
3.970928129E0,1.049972653E0,2.006081492E-1,-5.380849913E-2
3.972723442E0,1.040390730E0,1.910088360E-1,-2.825688012E-2
3.974892192E0,1.031873584E0,1.814444214E-1,-2.705260413E-3
3.976892192E0,1.023356318E0,1.718625724E-1,2.495820820E-2
3.978892192E0,1.015903831E0,1.643925607E-1,5.370378122E-2
3.980892192E0,1.009515882E0,1.590867639E-1,8.244935423E-2
3.982893754E0,1.004192591E0,1.548281610E-1,1.111949235E-1
3.984892192E0,9.999340177E-1,1.537635028E-1,1.410051435E-1
3.986892192E0,9.967401028E-1,1.537635028E-1,1.729446799E-1
3.988892192E0,9.967401028E-1,1.526813954E-1,2.048842013E-1
3.990892192E0,9.988693595E-1,1.516342014E-1,2.389530241E-1
3.992893754E0,1.003127933E0,1.516342014E-1,2.740865052E-1
3.994892192E0,1.011645198E0,1.516342014E-1,3.092199862E-1
3.996892192E0,1.023356318E0,1.505695581E-1,3.422241509E-1
3.998892192E0,1.036132216E0,1.495049000E-1,3.752283454E-1
4.000892192E0,1.052101970E0,1.473581493E-1,4.071678519E-1
4.002893754E0,1.071265578E0,1.452462971E-1,4.369780719E-1
4.004892192E0,1.094687939E0,1.399055868E-1,4.667882919E-1
4.006892192E0,1.119174957E0,1.356469840E-1,4.955338836E-1
4.009231254E0,1.144726515E0,1.324704885E-1,5.200208426E-1
4.010928129E0,1.173472166E0,1.303411871E-1,5.413138866E-1
4.012893754E0,1.204329491E0,1.292590797E-1,5.615422130E-1
4.014892192E0,1.236286521E0,1.292765439E-1,5.785766244E-1
4.016892192E0,1.270355344E0,1.281944364E-1,5.934817791E-1
4.018892192E0,1.304424167E0,1.271297783E-1,6.051928997E-1
4.020892192E0,1.337428331E0,1.260651350E-1,6.126454473E-1
4.022893754E0,1.370432496E0,1.228711754E-1,6.169040799E-1
4.024892192E0,1.402354598E0,1.196772233E-1,6.169040799E-1
4.026892192E0,1.432164788E0,1.154186204E-1,6.137101054E-1
4.029229692E0,1.459845781E0,1.111600175E-1,6.073222160E-1
4.031407817E0,1.494996667E0,1.058367640E-1,5.913524628E-1
4.033300004E0,1.504561067E0,1.047721133E-1,5.838999152E-1
4.034892192E0,1.521595478E0,1.037074625E-1,5.689947605E-1
4.036892192E0,1.534388781E0,1.047721133E-1,5.508957505E-1
4.038892192E0,1.542905927E0,1.090307161E-1,5.317320228E-1
4.040892192E0,1.545035243E0,1.154360771E-1,5.104389787E-1
4.042892192E0,1.542905927E0,1.207593307E-1,4.891459644E-1
4.044892192E0,1.536518097E0,1.239532828E-1,4.667882919E-1
4.046892192E0,1.524806857E0,1.250179410E-1,4.476245940E-1
4.049231254E0,1.509901762E0,1.228886321E-1,4.305901825E-1
4.050926567E0,1.492867351E0,1.165007278E-1,4.167497158E-1
4.052892192E0,1.472638965E0,1.058542207E-1,4.082325101E-1
4.054892192E0,1.448152065E0,9.094911069E-2,4.029092491E-1
4.056892192E0,1.419389009E0,7.283259183E-2,4.029092491E-1
4.058892192E0,1.388531566E0,5.155702680E-2,4.061032236E-1
4.060892192E0,1.352316022E0,2.918190509E-2,4.135557711E-1
4.062892192E0,1.312923908E0,4.694935866E-3,4.242022634E-1
4.064892192E0,1.271402597E0,-1.658062823E-2,4.369780719E-1
4.066892192E0,1.228833914E0,-3.680899367E-2,4.540124834E-1
4.068892192E0,1.186247945E0,-5.701990798E-2,4.731762111E-1
4.070892192E0,1.143661857E0,-7.511897385E-2,4.944692254E-1
4.072892192E0,1.102140546E0,-9.321803600E-2,5.189561844E-1
4.074892192E0,1.060619116E0,-1.123817489E-1,5.455724597E-1
4.076892192E0,1.021227002E0,-1.304982603E-1,5.711240768E-1
4.078892192E0,9.839642644E-1,-1.464680284E-1,5.966756940E-1
4.080892192E0,9.456194043E-1,-1.592438370E-1,6.222273111E-1
4.082892192E0,9.104859233E-1,-1.698903441E-1,6.445850134E-1
4.084892192E0,8.764171004E-1,-1.752136052E-1,6.658779979E-1
4.086892192E0,8.434128761E-1,-1.773429066E-1,6.850417256E-1
4.089231254E0,8.136026859E-1,-1.773429066E-1,7.042054534E-1
4.090926567E0,7.859392166E-1,-1.794722080E-1,7.244338393E-1
4.092892192E0,7.603701353E-1,-1.858601123E-1,7.467914820E-1
4.094892192E0,7.358831763E-1,-2.018298805E-1,7.712784410E-1
4.096892192E0,7.124608755E-1,-2.263168395E-1,7.989593744E-1
4.098892192E0,6.879738569E-1,-2.625149786E-1,8.287695646E-1
4.100892192E0,6.656162143E-1,-3.093596101E-1,8.617737889E-1
4.102892192E0,6.432585716E-1,-3.647214472E-1,8.958426118E-1
4.104892192E0,6.187715530E-1,-4.243418872E-1,9.320407510E-1
4.106892192E0,5.974960327E-1,-4.892855883E-1,9.693034887E-1
4.108892192E0,5.783323050E-1,-5.552765131E-1,1.006566286E0
4.110892192E0,5.602332354E-1,-6.202376485E-1,1.047023058E0
4.112892192E0,5.463927984E-1,-6.809052825E-1,1.087479711E0
4.114892192E0,5.325523019E-1,-7.394611239E-1,1.127936482E0
4.116892192E0,5.197590590E-1,-7.916464210E-1,1.167328596E0
4.118892192E0,5.091125369E-1,-8.384910822E-1,1.205655932E0
4.120892192E0,4.984660447E-1,-8.789477944E-1,1.242918730E0
4.122892192E0,4.878195226E-1,-9.140812755E-1,1.276987553E0
4.124892192E0,4.771730304E-1,-9.502794147E-1,1.306797862E0
4.126892192E0,4.707851112E-1,-9.928654432E-1,1.324896932E0
4.129231254E0,4.718497694E-1,-1.033322215E0,1.330220103E0
4.131414067E0,4.782376587E-1,-1.061003089E0,1.328090787E0
4.133485942E0,4.899488389E-1,-1.070585012E0,1.314250350E0
4.134892192E0,5.080478787E-1,-1.056744456E0,1.291892767E0
4.136892192E0,5.293409228E-1,-1.024804950E0,1.265276432E0
4.138892192E0,5.506339073E-1,-9.875422120E-1,1.239724874E0
4.140892192E0,5.655564666E-1,-9.577319622E-1,1.217367172E0
4.142892192E0,5.729916096E-1,-9.417622089E-1,1.199268103E0
4.144892192E0,5.740736723E-1,-9.396154284E-1,1.183298349E0
4.146892192E0,5.708797574E-1,-9.438740611E-1,1.166263938E0
4.148892192E0,5.655564666E-1,-9.481326342E-1,1.146035552E0
4.150892192E0,5.612804294E-1,-9.438915253E-1,1.120483875E0
4.152892192E0,5.612804294E-1,-9.268571138E-1,1.089609027E0
4.154892192E0,5.697976351E-1,-8.970468640E-1,1.051281571E0
4.156892192E0,5.836380720E-1,-8.555254936E-1,1.007630944E0
4.158892192E0,6.028017998E-1,-7.980343699E-1,9.565277100E-1
4.160892192E0,6.283359528E-1,-7.288320661E-1,9.022305012E-1
4.162892192E0,6.581636667E-1,-6.489832401E-1,8.458039761E-1
4.164892192E0,6.911678314E-1,-5.659404397E-1,7.872481942E-1
4.166892192E0,7.263013124E-1,-4.850269854E-1,7.308217287E-1
4.169231254E0,7.603875995E-1,-4.126307368E-1,6.765245199E-1
4.170928129E0,7.955036163E-1,-3.508809805E-1,6.264859438E-1
4.172892192E0,8.306370974E-1,-2.987130880E-1,5.796412826E-1
4.174892192E0,8.657705784E-1,-2.539977729E-1,5.370552540E-1
4.176892192E0,9.019687176E-1,-2.167349905E-1,4.955338836E-1
4.178892192E0,9.381668568E-1,-1.858601123E-1,4.550771415E-1
4.180892192E0,9.733002782E-1,-1.571145356E-1,4.146204293E-1
4.182892192E0,1.008433819E0,-1.262396574E-1,3.730990291E-1
4.184892192E0,1.043567300E0,-9.217083454E-2,3.315776587E-1
4.186892192E0,1.076571465E0,-5.384340882E-2,2.900562584E-1
4.189043754E0,1.108510971E0,-1.232202444E-2,2.506641746E-1
4.190892192E0,1.139385819E0,3.024655581E-2,2.134014070E-1
