"Time (s)","Acceleration x (m/s^2)","Acceleration y (m/s^2)","Acceleration z (m/s^2)"
4.852988000E-3,-6.919242740E-1,9.519346237E0,1.912967205E0
6.897666000E-3,-7.015010715E-1,9.497797966E0,1.960851192E0
8.881309000E-3,-7.038952708E-1,9.478644371E0,2.003946781E0
1.086495100E-2,-7.015010715E-1,9.452308655E0,2.039859772E0
1.287911200E-2,-7.158663273E-1,9.414001465E0,2.070984364E0
1.486275400E-2,-7.350199223E-1,9.370905876E0,2.092532396E0
1.684639700E-2,-7.493851185E-1,9.330204010E0,2.092532396E0
1.886055700E-2,-7.613561153E-1,9.272743225E0,2.066195965E0
2.084419900E-2,-7.685387731E-1,9.169792175E0,2.037465572E0
2.282784200E-2,-7.422025204E-1,9.028534889E0,1.994369984E0
2.484200200E-2,-5.650315881E-1,8.688557625E0,1.857900500E0
2.682564500E-2,-5.075707436E-1,8.346187592E0,1.683123827E0
2.880928700E-2,-6.560112834E-1,8.243236542E0,1.702277422E0
3.079293000E-2,-8.595184088E-1,8.293514252E0,1.908178806E0
3.277657200E-2,-1.041477680E0,8.365341187E0,2.094926596E0
3.479073300E-2,-1.163581967E0,8.394071579E0,2.161964178E0
3.677437500E-2,-1.213860273E0,8.389283180E0,2.159569979E0
3.875801800E-2,-1.304839969E0,8.353369713E0,2.140416384E0
4.077217800E-2,-1.371877551E0,8.307879448E0,2.154781580E0
4.275582100E-2,-1.410184860E0,8.262390137E0,2.152387381E0
4.473946300E-2,-1.438915253E0,8.190564156E0,2.111685991E0
4.672310600E-2,-1.438915253E0,8.082824707E0,2.027888775E0
4.873726600E-2,-1.417367458E0,7.900865555E0,1.903390408E0
5.075142600E-2,-1.367089152E0,7.690176010E0,1.788468719E0
5.273506900E-2,-1.314416766E0,7.580042362E0,1.742978811E0
5.474922900E-2,-1.312022567E0,7.524975777E0,1.697489023E0
5.676338900E-2,-1.086967587E0,7.340622425E0,1.790862918E0
5.874703100E-2,-1.197100803E-2,6.435614109E0,2.820369720E0
6.073067400E-2,1.199495077E0,5.355829239E0,3.210624456E0
6.274483400E-2,1.362300754E0,4.987122059E0,2.315192938E0
6.472847700E-2,9.241618514E-1,4.944026470E0,1.501164436E0
6.671211900E-2,3.734954596E-1,4.922478676E0,1.187524080E0
6.869576200E-2,-2.873042040E-2,4.829104900E0,1.230619669E0
7.067940500E-2,-2.825157940E-1,4.599261284E0,1.264138460E0
7.266304700E-2,-5.482721925E-1,4.378994942E0,1.235408068E0
7.467720700E-2,-7.876923680E-1,4.232948780E0,1.213860273E0
7.669136700E-2,-9.792284966E-1,4.094084740E0,1.185129881E0
7.867501000E-2,-1.161187768E0,3.974374771E0,1.206677675E0
8.068917000E-2,-1.321599364E0,3.816357613E0,9.864110947E-1
8.270333000E-2,-1.343147159E0,3.663128614E0,5.674257874E-1
8.468697300E-2,-1.259350061E0,3.579331636E0,2.992752194E-1
8.670113300E-2,-1.192312479E0,3.462015629E0,1.436521020E-2
8.871529300E-2,-1.158793569E0,3.356670856E0,-3.998316824E-1
9.069893600E-2,-1.070208192E0,3.330334663E0,-9.744400978E-1
9.268257800E-2,-1.015141487E0,3.315969467E0,-1.604115129E0
9.469673800E-2,-1.003170490E0,3.320757866E0,-2.037465572E0
9.671089900E-2,-1.067813993E0,3.471592426E0,-2.114080191E0
9.869454100E-2,-1.185129881E0,3.672705412E0,-2.255337954E0
1.007087010E-1,-1.367089152E0,4.041412354E0,-2.679111719E0
1.027228620E-1,-1.635239720E0,4.723760128E0,-3.007117271E0
1.047065040E-1,-1.905784607E0,5.652710438E0,-3.153163671E0
1.067206640E-1,-2.152387381E0,6.658275127E0,-3.308786631E0
1.087043070E-1,-2.341529369E0,7.644686222E0,-3.481169224E0
1.106879490E-1,-2.470816135E0,8.674192429E0,-3.277662039E0
1.127021100E-1,-2.360682964E0,9.648633003E0,-2.743755102E0
1.146857520E-1,-2.209848166E0,1.050336266E1,-2.521094322E0
1.166693950E-1,-2.250549555E0,1.133654499E1,-2.667140722E0
1.186835550E-1,-2.300827742E0,1.227267838E1,-2.784456491E0
1.206977150E-1,-2.243366957E0,1.344344234E1,-2.671929121E0
1.226813580E-1,-2.018311977E0,1.484883881E1,-2.094926596E0
1.246955180E-1,-1.707065821E0,1.599326706E1,-1.338358760E0
1.266791600E-1,-1.568202138E0,1.697010231E1,-7.637503147E-1
1.286933210E-1,-1.393425345E0,1.800439644E1,-1.963245422E-1
1.307074810E-1,-1.007958889E0,1.902432632E1,5.099649429E-1
1.326911230E-1,-5.051765442E-1,1.984793282E1,1.077390790E0
1.347052830E-1,1.101332754E-1,2.045366478E1,1.462857246E0
1.367194440E-1,9.816226959E-1,2.087265015E1,1.714248419E0
1.387030860E-1,1.857900500E0,2.114080048E1,1.831564307E0
1.407477640E-1,2.892195702E0,2.127966499E1,2.030282974E0
1.427314060E-1,3.962403774E0,2.130600166E1,2.346317768E0
1.447455670E-1,4.965574265E0,2.115277290E1,2.839523315E0
1.467292090E-1,6.062118530E0,2.076730537E1,3.335123062E0
1.487128520E-1,7.050923824E0,2.012087059E1,3.509899616E0
1.507270120E-1,7.635109425E0,1.920389175E1,3.399766445E0
1.527106550E-1,7.663839817E0,1.803073311E1,3.112462282E0
1.546942970E-1,7.007828236E0,1.670195198E1,2.636016130E0
1.567084570E-1,5.781997204E0,1.539232254E1,1.987187386E0
1.586921000E-1,4.288015366E0,1.420958710E1,1.170764685E0
1.606757420E-1,2.808398485E0,1.316810894E1,3.040636182E-1
1.626899030E-1,1.556231141E0,1.227028370E1,-4.596867263E-1
1.647040630E-1,5.650315881E-1,1.150653362E1,-1.089361787E0
1.666877050E-1,-1.795651317E-1,1.085770512E1,-1.520318031E0
1.686713480E-1,-7.350199223E-1,1.032619190E1,-1.742978811E0
1.706549900E-1,-1.125274777E0,9.900024414E0,-1.800439715E0
1.726691510E-1,-1.343147159E0,9.557653427E0,-1.752555609E0
1.746833110E-1,-1.429338455E0,9.291896820E0,-1.625662923E0
1.766669530E-1,-1.441309452E0,9.097966194E0,-1.446097851E0
1.786811130E-1,-1.438915253E0,8.966285706E0,-1.235408068E0
1.806952740E-1,-1.379060149E0,8.868123055E0,-9.768342972E-1
1.826789160E-1,-1.295263171E0,8.784325600E0,-6.847416759E-1
1.846625590E-1,-1.242590666E0,8.738836288E0,-3.663128614E-1
1.866462010E-1,-1.173158884E0,8.719682693E0,-6.943184882E-2
1.886603620E-1,-1.043871999E0,8.702922821E0,1.987187415E-1
1.906745220E-1,-8.044517636E-1,8.662221909E0,4.596867263E-1
1.926581640E-1,-5.626373887E-1,8.621520042E0,6.823474765E-1
1.946418070E-1,-3.256114423E-1,8.595184326E0,8.523358107E-1
1.966559670E-1,-6.224924326E-2,8.578424454E0,9.648633003E-1
1.986396100E-1,1.795651317E-1,8.571242332E0,1.022324085E0
2.006232520E-1,3.519476354E-1,8.585607529E0,1.022324085E0
2.026374120E-1,4.189853072E-1,8.640673637E0,9.792284966E-1
2.046515720E-1,3.351882398E-1,8.760383606E0,8.906430602E-1
2.066352150E-1,1.292868853E-1,8.935160637E0,7.733271718E-1
2.086188580E-1,-1.029506698E-1,9.112331390E0,6.464344859E-1
2.106025000E-1,-3.112462163E-1,9.279925346E0,5.099649429E-1
2.126166600E-1,-4.692635238E-1,9.435548782E0,3.758896589E-1
2.146003030E-1,-5.793967843E-1,9.581595421E0,2.633621991E-1
2.165839460E-1,-6.512228847E-1,9.708487511E0,1.651999205E-1
2.185981060E-1,-6.823474765E-1,9.811438560E0,7.900865376E-2
2.205817480E-1,-6.655880809E-1,9.883264542E0,-1.436521020E-2
2.225959080E-1,-6.224924326E-1,9.935936928E0,-1.005564705E-1
2.245795510E-1,-5.602431893E-1,9.974244118E0,-1.867477298E-1
2.265631940E-1,-5.315127969E-1,9.986215591E0,-2.346317619E-1
2.285468360E-1,-4.764461517E-1,1.000536919E1,-3.112462163E-1
2.305304790E-1,-4.285621047E-1,1.001733971E1,-3.782838583E-1
2.325141210E-1,-3.902548850E-1,1.001015759E1,-4.620809257E-1
2.345282810E-1,-3.615244627E-1,9.988609314E0,-5.602431893E-1
2.365119240E-1,-3.280056417E-1,9.947908401E0,-6.440402865E-1
2.384955670E-1,-2.896983922E-1,9.900024414E0,-7.015010715E-1
2.405097270E-1,-2.561795712E-1,9.854534149E0,-7.517793179E-1
2.425238870E-1,-2.059013397E-1,9.813833237E0,-7.948749661E-1
2.445075300E-1,-1.340752989E-1,9.765948296E0,-8.307880163E-1
2.465216900E-1,-7.182604820E-2,9.727641106E0,-8.355764151E-1
2.485053320E-1,-4.548983276E-2,9.684545517E0,-8.236053586E-1
2.505194920E-1,-5.027823523E-2,9.641449928E0,-7.948749661E-1
2.525336530E-1,-5.506663769E-2,9.600749016E0,-7.422025204E-1
2.545172950E-1,-7.661445439E-2,9.555258751E0,-6.703764796E-1
2.565314550E-1,-1.101332754E-1,9.509769440E0,-5.937620401E-1
2.585150980E-1,-1.436520964E-1,9.461885452E0,-5.195417404E-1
2.604987400E-1,-1.867477298E-1,9.418789864E0,-4.357447028E-1
2.625129010E-1,-2.322375625E-1,9.385271072E0,-3.375824392E-1
2.645270610E-1,-2.920926213E-1,9.361329079E0,-2.370259613E-1
2.665107030E-1,-3.447650373E-1,9.344569206E0,-1.388636976E-1
2.684943460E-1,-3.806780577E-1,9.334992409E0,-4.548983276E-2
2.704779880E-1,-4.141969085E-1,9.332598686E0,5.746084079E-2
2.724616310E-1,-4.405331016E-1,9.332598686E0,1.508347094E-1
2.744757910E-1,-4.501099288E-1,9.349357605E0,2.466027737E-1
2.764594340E-1,-4.381389022E-1,9.380482674E0,3.519476354E-1
2.784430760E-1,-4.261679053E-1,9.423578262E0,4.620809257E-1
2.804572370E-1,-4.094084799E-1,9.469067574E0,5.602431893E-1
2.824408790E-1,-3.878606856E-1,9.519346237E0,6.584054828E-1
2.844245220E-1,-3.663128614E-1,9.581595421E0,7.422025204E-1
2.864081640E-1,-3.519476354E-1,9.651026726E0,8.116343617E-1
2.883918070E-1,-3.495534360E-1,9.722852707E0,8.667010069E-1
2.903754490E-1,-3.639186621E-1,9.792284966E0,8.978256583E-1
2.923590920E-1,-3.782838583E-1,9.868899345E0,9.121908545E-1
2.943732520E-1,-3.974374831E-1,9.935936928E0,9.121908545E-1
2.963568950E-1,-4.189853072E-1,9.995792389E0,8.930372596E-1
2.983405370E-1,-4.189853072E-1,1.003888798E1,8.475474119E-1
3.003546970E-1,-4.118026793E-1,1.007001209E1,7.924807668E-1
3.023383400E-1,-3.998316824E-1,1.009395409E1,7.302315235E-1
3.043525000E-1,-3.854664862E-1,1.010592556E1,6.488286853E-1
3.063361430E-1,-3.758896589E-1,1.011071396E1,5.650315881E-1
3.083197850E-1,-3.615244627E-1,1.013226128E1,4.692635238E-1
3.103339460E-1,-3.447650373E-1,1.015141487E1,3.734954596E-1
3.123175880E-1,-3.351882398E-1,1.016099167E1,2.753331959E-1
3.143012310E-1,-3.112462163E-1,1.016578007E1,1.699883193E-1
3.163153910E-1,-2.873041928E-1,1.016338634E1,7.182604820E-2
3.182990330E-1,-2.633621991E-1,1.016099167E1,-2.633621916E-2
3.202826760E-1,-2.274491638E-1,1.014902115E1,-1.149216816E-1
3.222968360E-1,-1.939303428E-1,1.012986755E1,-1.939303428E-1
3.242804790E-1,-1.532289088E-1,1.011550236E1,-2.513911724E-1
3.262641210E-1,-1.101332754E-1,1.009156036E1,-2.968810201E-1
3.282477640E-1,-6.224924326E-2,1.006522369E1,-3.375824392E-1
3.302314060E-1,-1.675941236E-2,1.004367638E1,-3.782838583E-1
3.322455670E-1,1.197100803E-2,1.001733971E1,-4.165911078E-1
3.342292090E-1,2.873042040E-2,9.986215591E0,-4.453215301E-1
3.362128520E-1,3.830722719E-2,9.955090523E0,-4.596867263E-1
3.382270120E-1,5.267243832E-2,9.921571732E0,-4.644751251E-1
3.402411720E-1,6.703764945E-2,9.888052940E0,-4.812345505E-1
3.422248150E-1,5.985504389E-2,9.856928825E0,-4.955997467E-1
3.442389750E-1,4.788403213E-2,9.825803757E0,-5.099649429E-1
3.462226170E-1,2.633621916E-2,9.789890289E0,-5.147533417E-1
3.482062600E-1,2.394201700E-3,9.756371498E0,-5.267243981E-1
3.502204200E-1,-1.915361360E-2,9.734824181E0,-5.315127969E-1
3.522040630E-1,-4.548983276E-2,9.715670586E0,-5.219359994E-1
3.541877050E-1,-7.182604820E-2,9.696516991E0,-5.051765442E-1
3.562018650E-1,-9.576806426E-2,9.674968719E0,-4.764461517E-1
3.581855080E-1,-1.029506698E-1,9.662998199E0,-4.429273009E-1
3.601691510E-1,-1.077390760E-1,9.653421402E0,-4.046200812E-1
3.621833110E-1,-1.077390760E-1,9.651026726E0,-3.591302633E-1
3.641974710E-1,-1.101332754E-1,9.660603523E0,-2.968810201E-1
3.661811130E-1,-1.173158810E-1,9.670180321E0,-2.418143749E-1
3.681342380E-1,-1.221042871E-1,9.674968719E0,-2.154781520E-1
3.701483990E-1,-1.316810995E-1,9.682151794E0,-1.580173075E-1
3.721320410E-1,-1.388636976E-1,9.682151794E0,-1.005564705E-1
3.741156840E-1,-1.388636976E-1,9.689333916E0,-5.027823523E-2
3.761298440E-1,-1.388636976E-1,9.706093788E0,-1.915361360E-2
3.781134870E-1,-1.412578970E-1,9.720458984E0,2.394201700E-3
3.800971290E-1,-1.436520964E-1,9.734824181E0,2.633621916E-2
3.821112890E-1,-1.436520964E-1,9.756371498E0,4.788403213E-2
3.841254490E-1,-1.316810995E-1,9.775525093E0,6.943184882E-2
3.861090920E-1,-1.173158810E-1,9.775525093E0,8.140286058E-2
3.880927350E-1,-1.029506698E-1,9.770736694E0,8.379705995E-2
3.900763770E-1,-9.337386489E-2,9.768342972E0,8.379705995E-2
3.920600200E-1,-9.337386489E-2,9.765948296E0,7.661445439E-2
3.940741800E-1,-9.576806426E-2,9.765948296E0,5.985504389E-2
3.960578220E-1,-9.097966552E-2,9.765948296E0,3.112462163E-2
3.980414650E-1,-9.816227108E-2,9.763554573E0,1.436521020E-2
4.000556250E-1,-1.077390760E-1,9.746794701E0,7.182605099E-3
4.020697850E-1,-1.221042871E-1,9.732429504E0,-9.576806799E-3
4.040534280E-1,-1.388636976E-1,9.725247383E0,-3.591302410E-2
4.060675880E-1,-1.508347094E-1,9.718064308E0,-5.985504389E-2
4.080207130E-1,-1.532289088E-1,9.718064308E0,-8.619125932E-2
4.100348730E-1,-1.651999205E-1,9.713275909E0,-1.125274822E-1
4.120185160E-1,-1.651999205E-1,9.696516991E0,-1.268926859E-1
4.140021580E-1,-1.628057212E-1,9.682151794E0,-1.508347094E-1
4.160163190E-1,-1.628057212E-1,9.682151794E0,-1.747767180E-1
4.180304790E-1,-1.675941199E-1,9.691728592E0,-1.891419291E-1
4.200141210E-1,-1.747767180E-1,9.701305389E0,-2.082955539E-1
4.219977640E-1,-1.771709323E-1,9.708487511E0,-2.346317619E-1
4.239814060E-1,-1.819593310E-1,9.713275909E0,-2.609679997E-1
4.259955670E-1,-1.819593310E-1,9.720458984E0,-2.801215947E-1
4.279792090E-1,-1.843535304E-1,9.730035782E0,-3.040636182E-1
4.299933690E-1,-1.915361285E-1,9.749189377E0,-3.256114423E-1
4.319770120E-1,-2.035071403E-1,9.768342972E0,-3.423708379E-1
4.339911720E-1,-2.106897533E-1,9.794678688E0,-3.543418646E-1
4.360053320E-1,-2.106897533E-1,9.818621635E0,-3.663128614E-1
4.379889750E-1,-2.154781520E-1,9.830592155E0,-3.806780577E-1
4.400031350E-1,-2.250549644E-1,9.847352028E0,-3.854664862E-1
4.420172950E-1,-2.322375625E-1,9.864110947E0,-3.878606856E-1
4.440009380E-1,-2.394201756E-1,9.888052940E0,-3.878606856E-1
4.459845800E-1,-2.442085743E-1,9.904812813E0,-3.782838583E-1
4.479682230E-1,-2.466027737E-1,9.914389610E0,-3.758896589E-1
4.499518650E-1,-2.466027737E-1,9.921571732E0,-3.711012602E-1
4.519355080E-1,-2.561795712E-1,9.935936928E0,-3.711012602E-1
4.539496680E-1,-2.633621991E-1,9.947908401E0,-3.615244627E-1
4.559333110E-1,-2.633621991E-1,9.967061996E0,-3.471592367E-1
4.579169530E-1,-2.633621991E-1,9.979032516E0,-3.375824392E-1
4.599311130E-1,-2.705447972E-1,9.979032516E0,-3.256114423E-1
4.619147560E-1,-2.849099934E-1,9.971850395E0,-3.112462163E-1
4.638983990E-1,-2.896983922E-1,9.957485199E0,-2.968810201E-1
4.658820410E-1,-2.896983922E-1,9.945513725E0,-2.896983922E-1
4.678656840E-1,-2.944868207E-1,9.940725327E0,-2.896983922E-1
4.698493260E-1,-2.968810201E-1,9.931148529E0,-2.801215947E-1
4.718634870E-1,-3.088520169E-1,9.919178009E0,-2.681505978E-1
4.738471290E-1,-3.280056417E-1,9.909601212E0,-2.609679997E-1
4.758307720E-1,-3.447650373E-1,9.895236015E0,-2.561795712E-1
4.778449320E-1,-3.543418646E-1,9.873687744E0,-2.561795712E-1
4.798590920E-1,-3.663128614E-1,9.849745750E0,-2.537853718E-1
4.818427350E-1,-3.734954596E-1,9.832986832E0,-2.370259613E-1
4.838263770E-1,-3.854664862E-1,9.806650162E0,-2.274491638E-1
4.858100200E-1,-3.926490843E-1,9.777919769E0,-2.298433632E-1
4.878241800E-1,-3.998316824E-1,9.758766174E0,-2.370259613E-1
4.898078220E-1,-4.094084799E-1,9.734824181E0,-2.466027737E-1
4.918219830E-1,-4.141969085E-1,9.701305389E0,-2.489969730E-1
4.938056250E-1,-4.141969085E-1,9.677363396E0,-2.633621991E-1
4.957892680E-1,-4.046200812E-1,9.660603523E0,-2.873041928E-1
4.978034280E-1,-4.022258818E-1,9.641449928E0,-2.992752194E-1
4.997870710E-1,-3.998316824E-1,9.622296333E0,-3.088520169E-1
5.017707130E-1,-3.926490843E-1,9.615114212E0,-3.208230138E-1
5.037848730E-1,-3.806780577E-1,9.603142738E0,-3.399766386E-1
5.057685160E-1,-3.806780577E-1,9.593565941E0,-3.687070608E-1
5.077521580E-1,-3.878606856E-1,9.581595421E0,-3.926490843E-1
5.097663190E-1,-4.022258818E-1,9.569623947E0,-4.022258818E-1
5.117499610E-1,-4.094084799E-1,9.564835548E0,-4.094084799E-1
5.137336040E-1,-4.189853072E-1,9.564835548E0,-4.213795066E-1
5.157477640E-1,-4.237737060E-1,9.564835548E0,-4.261679053E-1
5.177314060E-1,-4.141969085E-1,9.557653427E0,-4.381389022E-1
5.197150490E-1,-4.022258818E-1,9.560047150E0,-4.501099288E-1
5.217292090E-1,-3.830722570E-1,9.564835548E0,-4.644751251E-1
5.237128520E-1,-3.567360640E-1,9.572018623E0,-4.812345505E-1
5.256964940E-1,-3.160346150E-1,9.579200745E0,-4.788403511E-1
5.276496190E-1,-2.968810201E-1,9.588777542E0,-4.740519226E-1
5.296637800E-1,-2.873041928E-1,9.598354340E0,-4.740519226E-1
5.316474220E-1,-2.849099934E-1,9.617507935E0,-4.668693244E-1
5.336310650E-1,-2.753331959E-1,9.643844604E0,-4.740519226E-1
5.356452250E-1,-2.633621991E-1,9.665391922E0,-4.692635238E-1
5.376288670E-1,-2.609679997E-1,9.677363396E0,-4.525041282E-1
5.396125100E-1,-2.513911724E-1,9.686940193E0,-4.429273009E-1
5.415961530E-1,-2.418143749E-1,9.691728592E0,-4.357447028E-1
5.435797950E-1,-2.298433632E-1,9.703699112E0,-4.213795066E-1
5.455939550E-1,-2.202665508E-1,9.720458984E0,-4.094084799E-1
5.475775980E-1,-2.202665508E-1,9.732429504E0,-4.094084799E-1
5.495612400E-1,-2.202665508E-1,9.730035782E0,-4.070142806E-1
5.515448830E-1,-2.202665508E-1,9.725247383E0,-4.022258818E-1
5.535590430E-1,-2.202665508E-1,9.727641106E0,-4.070142806E-1
5.555732030E-1,-2.130839527E-1,9.730035782E0,-4.141969085E-1
5.575568460E-1,-2.226607651E-1,9.734824181E0,-4.189853072E-1
5.595404880E-1,-2.394201756E-1,9.744400978E0,-4.285621047E-1
5.615241310E-1,-2.561795712E-1,9.756371498E0,-4.405331016E-1
5.635382910E-1,-2.681505978E-1,9.773131371E0,-4.644751251E-1
5.655219340E-1,-2.681505978E-1,9.799467087E0,-4.860229492E-1
5.675360940E-1,-2.753331959E-1,9.813833237E0,-5.003881454E-1
5.695197370E-1,-2.873041928E-1,9.828198433E0,-5.075707436E-1
5.715033790E-1,-2.968810201E-1,9.847352028E0,-5.219359994E-1
5.735175390E-1,-3.136404157E-1,9.861717224E0,-5.363011956E-1
5.755011820E-1,-3.256114423E-1,9.873687744E0,-5.506663918E-1
5.774848240E-1,-3.375824392E-1,9.890447617E0,-5.578489900E-1
5.794989850E-1,-3.423708379E-1,9.909601212E0,-5.554547906E-1
5.815131450E-1,-3.543418646E-1,9.916783333E0,-5.434837937E-1
5.834967870E-1,-3.615244627E-1,9.909601212E0,-5.267243981E-1
5.855109470E-1,-3.687070608E-1,9.902418137E0,-5.195417404E-1
5.874945900E-1,-3.878606856E-1,9.914389610E0,-4.979939461E-1
5.894782330E-1,-3.974374831E-1,9.923966408E0,-4.788403511E-1
5.914923930E-1,-4.118026793E-1,9.921571732E0,-4.644751251E-1
5.934760350E-1,-4.309563041E-1,9.921571732E0,-4.429273009E-1
5.954596780E-1,-4.357447028E-1,9.911994934E0,-4.261679053E-1
5.974738380E-1,-4.405331016E-1,9.890447617E0,-4.118026793E-1
5.994574810E-1,-4.596867263E-1,9.876082420E0,-3.950432837E-1
6.014411230E-1,-4.764461517E-1,9.864110947E0,-3.687070608E-1
6.034552830E-1,-4.908113480E-1,9.849745750E0,-3.471592367E-1
6.054389260E-1,-5.075707436E-1,9.842563629E0,-3.375824392E-1
6.074530860E-1,-5.171475410E-1,9.835380554E0,-3.351882398E-1
6.094672460E-1,-5.291185975E-1,9.818621635E0,-3.232172430E-1
6.114814060E-1,-5.434837937E-1,9.809044838E0,-3.064578176E-1
6.134650490E-1,-5.578489900E-1,9.794678688E0,-3.064578176E-1
6.154486920E-1,-5.674257874E-1,9.785101891E0,-3.136404157E-1
6.174323340E-1,-5.770025849E-1,9.787496567E0,-3.184288144E-1
6.194464940E-1,-5.865794420E-1,9.773131371E0,-3.112462163E-1
6.214301370E-1,-5.937620401E-1,9.758766174E0,-3.160346150E-1
6.234137800E-1,-6.009446383E-1,9.744400978E0,-3.160346150E-1
6.254279400E-1,-6.153098345E-1,9.730035782E0,-3.208230138E-1
6.274115820E-1,-6.248866320E-1,9.713275909E0,-3.303998411E-1
6.294257420E-1,-6.272808313E-1,9.694122314E0,-3.327940404E-1
6.314093850E-1,-6.224924326E-1,9.670180321E0,-3.327940404E-1
6.334235450E-1,-6.272808313E-1,9.658209801E0,-3.351882398E-1
6.354071880E-1,-6.177040339E-1,9.653421402E0,-3.399766386E-1
6.374213480E-1,-5.961562395E-1,9.641449928E0,-3.423708379E-1
6.394049900E-1,-5.698199868E-1,9.627084732E0,-3.519476354E-1
6.413886330E-1,-5.506663918E-1,9.622296333E0,-3.711012602E-1
6.434027930E-1,-5.674257874E-1,9.629479408E0,-3.926490843E-1
6.453864360E-1,-6.153098345E-1,9.643844604E0,-4.261679053E-1
6.473700780E-1,-6.536170840E-1,9.660603523E0,-4.501099288E-1
6.493537210E-1,-6.607996821E-1,9.672574997E0,-4.572925270E-1
6.513373630E-1,-6.727706790E-1,9.696516991E0,-4.740519226E-1
6.533515240E-1,-6.871358752E-1,9.722852707E0,-4.932055473E-1
6.553351660E-1,-6.919242740E-1,9.734824181E0,-5.051765442E-1
6.573188090E-1,-6.895300746E-1,9.753977776E0,-5.243301988E-1
6.593329690E-1,-6.703764796E-1,9.780313492E0,-5.267243981E-1
6.613166120E-1,-5.578489900E-1,9.758766174E0,-4.548983276E-1
6.633002540E-1,-4.429273009E-1,9.722852707E0,-4.094084799E-1
6.653144140E-1,-4.955997467E-1,9.727641106E0,-5.027823448E-1
6.672980570E-1,-6.224924326E-1,9.751583099E0,-6.129156351E-1
6.692816990E-1,-6.847416759E-1,9.777919769E0,-6.488286853E-1
6.712958600E-1,-6.991068721E-1,9.818621635E0,-6.464344859E-1
6.732795020E-1,-6.799532771E-1,9.864110947E0,-6.344634295E-1
6.752631450E-1,-6.488286853E-1,9.892841339E0,-6.153098345E-1
6.772773050E-1,-6.153098345E-1,9.895236015E0,-5.913678408E-1
6.792609470E-1,-5.865794420E-1,9.878476143E0,-5.770025849E-1
6.812445900E-1,-5.650315881E-1,9.854534149E0,-5.626373887E-1
6.832587500E-1,-5.482721925E-1,9.830592155E0,-5.506663918E-1
6.852423930E-1,-5.386953950E-1,9.818621635E0,-5.410895944E-1
6.872565530E-1,-5.291185975E-1,9.797073364E0,-5.363011956E-1
6.892401960E-1,-5.291185975E-1,9.770736694E0,-5.315127969E-1
6.912543560E-1,-5.219359994E-1,9.751583099E0,-5.410895944E-1
6.932379980E-1,-5.123591423E-1,9.744400978E0,-5.458779931E-1
6.952216410E-1,-5.099649429E-1,9.732429504E0,-5.339069963E-1
6.972358010E-1,-5.147533417E-1,9.715670586E0,-5.291185975E-1
6.992194440E-1,-5.219359994E-1,9.701305389E0,-5.363011956E-1
7.012030860E-1,-5.267243981E-1,9.686940193E0,-5.410895944E-1
7.031867290E-1,-5.291185975E-1,9.684545517E0,-5.602431893E-1
7.051703710E-1,-5.386953950E-1,9.684545517E0,-5.722141862E-1
7.071845310E-1,-5.506663918E-1,9.682151794E0,-5.746083856E-1
7.091681740E-1,-5.674257874E-1,9.684545517E0,-5.698199868E-1
7.111823340E-1,-5.793967843E-1,9.689333916E0,-5.674257874E-1
7.131964940E-1,-5.985504389E-1,9.698910713E0,-5.770025849E-1
7.151801370E-1,-6.177040339E-1,9.710882187E0,-5.865794420E-1
7.171942970E-1,-6.224924326E-1,9.715670586E0,-5.865794420E-1
7.192084570E-1,-6.296750307E-1,9.718064308E0,-5.865794420E-1
7.211921000E-1,-6.416460276E-1,9.725247383E0,-5.865794420E-1
7.232062600E-1,-6.536170840E-1,9.737217903E0,-5.865794420E-1
7.251899030E-1,-6.679822803E-1,9.744400978E0,-5.889736414E-1
7.272040630E-1,-6.871358752E-1,9.751583099E0,-5.913678408E-1
7.292182230E-1,-7.015010715E-1,9.753977776E0,-5.889736414E-1
7.312018650E-1,-7.134721279E-1,9.761159897E0,-5.889736414E-1
7.332160260E-1,-7.206547260E-1,9.775525093E0,-5.913678408E-1
7.352301860E-1,-7.182605267E-1,9.782708168E0,-5.961562395E-1
7.372138280E-1,-7.230489254E-1,9.794678688E0,-6.009446383E-1
7.392279880E-1,-7.254431248E-1,9.811438560E0,-5.937620401E-1
7.412421490E-1,-7.230489254E-1,9.830592155E0,-6.009446383E-1
7.432257910E-1,-7.278373241E-1,9.842563629E0,-5.961562395E-1
7.452399510E-1,-7.374141216E-1,9.849745750E0,-5.913678408E-1
7.472235940E-1,-7.398083210E-1,9.866505623E0,-5.865794420E-1
7.492072370E-1,-7.469909191E-1,9.888052940E0,-5.865794420E-1
7.512213970E-1,-7.685387731E-1,9.904812813E0,-5.961562395E-1
7.532050390E-1,-7.900865674E-1,9.911994934E0,-5.985504389E-1
7.551886820E-1,-7.924807668E-1,9.919178009E0,-6.033388376E-1
7.572028420E-1,-7.781155705E-1,9.931148529E0,-6.129156351E-1
7.591864850E-1,-7.709329724E-1,9.940725327E0,-6.296750307E-1
7.611701270E-1,-7.805097699E-1,9.945513725E0,-6.464344859E-1
7.631842870E-1,-7.876923680E-1,9.952696800E0,-6.464344859E-1
7.651679300E-1,-7.972691655E-1,9.955090523E0,-6.536170840E-1
7.671820900E-1,-8.020575643E-1,9.955090523E0,-6.607996821E-1
7.691962500E-1,-7.924807668E-1,9.955090523E0,-6.631938815E-1
7.711798930E-1,-7.757213712E-1,9.962273598E0,-6.823474765E-1
7.731940530E-1,-7.709329724E-1,9.964667320E0,-7.015010715E-1
7.752082130E-1,-7.733271718E-1,9.971850395E0,-7.110779285E-1
7.771918560E-1,-7.637503147E-1,9.969455719E0,-7.182605267E-1
7.792060160E-1,-7.398083210E-1,9.967061996E0,-7.254431248E-1
7.811896580E-1,-7.182605267E-1,9.967061996E0,-7.254431248E-1
7.832038190E-1,-7.158663273E-1,9.959878922E0,-7.278373241E-1
7.851874610E-1,-7.110779285E-1,9.945513725E0,-7.422025204E-1
7.871711040E-1,-7.015010715E-1,9.931148529E0,-7.469909191E-1
7.891547460E-1,-6.871358752E-1,9.911994934E0,-7.541735172E-1
7.911689060E-1,-6.703764796E-1,9.902418137E0,-7.637503147E-1
7.931830670E-1,-6.488286853E-1,9.888052940E0,-7.805097699E-1
7.951667090E-1,-6.296750307E-1,9.878476143E0,-8.068459630E-1
7.971808690E-1,-6.129156351E-1,9.859322548E0,-8.403648138E-1
7.991950300E-1,-6.129156351E-1,9.825803757E0,-8.643068075E-1
8.011786720E-1,-6.057330370E-1,9.797073364E0,-8.834604025E-1
8.031928320E-1,-5.841852427E-1,9.780313492E0,-9.074024558E-1
8.051764750E-1,-5.674257874E-1,9.756371498E0,-9.169792533E-1
8.071906350E-1,-5.410895944E-1,9.734824181E0,-9.313444495E-1
8.091742780E-1,-5.291185975E-1,9.710882187E0,-9.481038451E-1
8.111579200E-1,-5.147533417E-1,9.696516991E0,-9.552865028E-1
8.131720800E-1,-4.955997467E-1,9.686940193E0,-9.744400978E-1
8.151862400E-1,-4.812345505E-1,9.672574997E0,-9.816226959E-1
8.171698830E-1,-4.644751251E-1,9.643844604E0,-9.840168953E-1
8.191840430E-1,-4.405331016E-1,9.634267807E0,-9.840168953E-1
8.211982030E-1,-4.213795066E-1,9.634267807E0,-9.935936928E-1
8.231818460E-1,-3.974374831E-1,9.622296333E0,-9.911994934E-1
8.251960060E-1,-3.758896589E-1,9.612719536E0,-9.792284966E-1
8.271796490E-1,-3.495534360E-1,9.605537415E0,-9.744400978E-1
8.291632910E-1,-3.399766386E-1,9.600749016E0,-9.672574997E-1
8.311774510E-1,-3.447650373E-1,9.598354340E0,-9.600749016E-1
8.331610940E-1,-3.375824392E-1,9.598354340E0,-9.481038451E-1
8.351447370E-1,-3.160346150E-1,9.600749016E0,-9.337386489E-1
8.371588970E-1,-2.968810201E-1,9.610325813E0,-9.121908545E-1
8.391425390E-1,-2.920926213E-1,9.612719536E0,-9.026140571E-1
8.411261820E-1,-2.896983922E-1,9.617507935E0,-8.978256583E-1
8.431403420E-1,-2.873041928E-1,9.631873131E0,-8.858546019E-1
8.451239850E-1,-2.729389966E-1,9.636661530E0,-8.643068075E-1
8.471381450E-1,-2.489969730E-1,9.631873131E0,-8.667010069E-1
8.491217870E-1,-2.178723514E-1,9.631873131E0,-8.714894056E-1
8.511054300E-1,-1.963245422E-1,9.639056206E0,-8.714894056E-1
8.531195900E-1,-1.915361285E-1,9.643844604E0,-8.882488012E-1
8.551032330E-1,-1.915361285E-1,9.655815125E0,-9.074024558E-1
8.570868750E-1,-1.675941199E-1,9.667786598E0,-9.074024558E-1
8.591010350E-1,-1.221042871E-1,9.670180321E0,-9.121908545E-1
8.610846780E-1,-8.858546615E-2,9.672574997E0,-9.313444495E-1
8.630988380E-1,-7.422025502E-2,9.677363396E0,-9.457096457E-1
8.650824810E-1,-6.943184882E-2,9.686940193E0,-9.696516991E-1
8.670661230E-1,-6.703764945E-2,9.689333916E0,-9.959878922E-1
8.690497660E-1,-3.112462163E-2,9.682151794E0,-1.019929886E0
8.710639260E-1,0.000000000E0,9.686940193E0,-1.060631394E0
8.730780860E-1,-1.197100803E-2,9.694122314E0,-1.089361787E0
8.750617290E-1,-1.675941236E-2,9.701305389E0,-1.091755986E0
8.770758890E-1,0.000000000E0,9.696516991E0,-1.091755986E0
8.790900490E-1,2.394201607E-2,9.694122314E0,-1.106121182E0
8.810736920E-1,5.746084079E-2,9.696516991E0,-1.132457376E0
8.830573340E-1,8.140286058E-2,9.701305389E0,-1.163581967E0
8.850409770E-1,1.053448766E-1,9.708487511E0,-1.187524080E0
8.870551370E-1,1.221042871E-1,9.708487511E0,-1.204283476E0
8.890387800E-1,1.340752989E-1,9.713275909E0,-1.233013868E0
8.910529400E-1,1.460463107E-1,9.720458984E0,-1.254561663E0
8.930365820E-1,1.651999205E-1,9.725247383E0,-1.264138460E0
8.950202250E-1,1.843535304E-1,9.734824181E0,-1.280897856E0
8.970343850E-1,1.987187415E-1,9.742006302E0,-1.292868972E0
8.990180280E-1,2.059013397E-1,9.749189377E0,-1.288080573E0
9.010016700E-1,2.106897533E-1,9.758766174E0,-1.278503656E0
9.030158300E-1,2.082955539E-1,9.758766174E0,-1.268926859E0
9.049994730E-1,2.274491638E-1,9.770736694E0,-1.252167463E0
9.069831150E-1,2.609679997E-1,9.782708168E0,-1.237802267E0
9.089972760E-1,2.777273953E-1,9.789890289E0,-1.235408068E0
9.109809180E-1,2.920926213E-1,9.792284966E0,-1.235408068E0
9.129645610E-1,2.896983922E-1,9.801861763E0,-1.225831270E0
9.149787210E-1,2.729389966E-1,9.806650162E0,-1.218648672E0
9.169623630E-1,2.537853718E-1,9.806650162E0,-1.221042871E0
9.189460060E-1,2.513911724E-1,9.799467087E0,-1.221042871E0
9.209601660E-1,2.705447972E-1,9.787496567E0,-1.206677675E0
9.229438090E-1,2.681505978E-1,9.787496567E0,-1.187524080E0
9.249274510E-1,2.394201756E-1,9.799467087E0,-1.163581967E0
9.268805760E-1,2.442085743E-1,9.811438560E0,-1.144428372E0
9.288947370E-1,2.729389966E-1,9.816226959E0,-1.120486379E0
9.308783790E-1,2.968810201E-1,9.821015358E0,-1.091755986E0
9.328620220E-1,3.184288144E-1,9.818621635E0,-1.079784989E0
9.348761820E-1,3.232172430E-1,9.818621635E0,-1.067813993E0
9.368598240E-1,3.112462163E-1,9.809044838E0,-1.036689281E0
9.388434670E-1,3.088520169E-1,9.801861763E0,-1.000776291E0
9.408271100E-1,3.040636182E-1,9.794678688E0,-9.720458984E-1
9.428107520E-1,2.992752194E-1,9.792284966E0,-9.433154464E-1
9.448249120E-1,3.088520169E-1,9.804255486E0,-9.097966552E-1
9.468085550E-1,3.543418646E-1,9.811438560E0,-8.762778044E-1
9.488227150E-1,3.926490843E-1,9.806650162E0,-8.523358107E-1
9.508063580E-1,3.950432837E-1,9.816226959E0,-8.331822157E-1
9.528205180E-1,3.878606856E-1,9.830592155E0,-8.092401624E-1
9.548346780E-1,4.094084799E-1,9.835380554E0,-7.829039693E-1
9.568183210E-1,4.381389022E-1,9.849745750E0,-7.661445141E-1
9.588324810E-1,4.572925270E-1,9.856928825E0,-7.613561153E-1
9.608466410E-1,4.908113480E-1,9.849745750E0,-7.733271718E-1
9.628302830E-1,5.003881454E-1,9.849745750E0,-8.068459630E-1
9.648139260E-1,4.908113480E-1,9.852140427E0,-8.427590132E-1
9.667975690E-1,4.860229492E-1,9.852140427E0,-8.786720037E-1
9.687812110E-1,5.051765442E-1,9.840168953E0,-9.241618514E-1
9.707648540E-1,5.267243981E-1,9.825803757E0,-9.720458984E-1
9.727790140E-1,5.243301988E-1,9.816226959E0,-1.015141487E0
9.747626560E-1,5.051765442E-1,9.801861763E0,-1.046266198E0
9.767462990E-1,5.195417404E-1,9.794678688E0,-1.077390790E0
9.787604590E-1,5.434837937E-1,9.792284966E0,-1.125274777E0
9.807441020E-1,5.410895944E-1,9.799467087E0,-1.149216771E0
9.827277440E-1,5.147533417E-1,9.821015358E0,-1.180341482E0
9.847419050E-1,5.123591423E-1,9.837775230E0,-1.192312479E0
9.867255470E-1,5.291185975E-1,9.835380554E0,-1.211466074E0
9.887091900E-1,5.674257874E-1,9.811438560E0,-1.228225470E0
9.907233500E-1,6.320692301E-1,9.775525093E0,-1.247379065E0
9.927069920E-1,7.062895298E-1,9.732429504E0,-1.266532660E0
9.946906350E-1,7.517793179E-1,9.694122314E0,-1.278503656E0
9.967047950E-1,7.565677166E-1,9.665391922E0,-1.268926859E0
9.986884380E-1,7.829039693E-1,9.648633003E0,-1.254561663E0
1.000672080E0,8.259995580E-1,9.622296333E0,-1.264138460E0
1.002686240E0,8.212111592E-1,9.595960617E0,-1.266532660E0
1.004669883E0,8.283938169E-1,9.581595421E0,-1.230619669E0
1.006684043E0,8.571242094E-1,9.574412346E0,-1.182735682E0
1.008667686E0,8.834604025E-1,9.564835548E0,-1.154005170E0
1.010651328E0,9.145850539E-1,9.550470352E0,-1.151610970E0
1.012665488E0,9.385270476E-1,9.540893555E0,-1.154005170E0
1.014649131E0,9.504981041E-1,9.540893555E0,-1.158793569E0
1.016632774E0,9.768342972E-1,9.538499832E0,-1.173158884E0
1.018646934E0,9.744400978E-1,9.543288231E0,-1.182735682E0
1.020630576E0,9.169792533E-1,9.557653427E0,-1.201889277E0
1.022614219E0,8.810662031E-1,9.572018623E0,-1.233013868E0
1.024628379E0,8.786720037E-1,9.586383820E0,-1.271321058E0
1.026612022E0,8.810662031E-1,9.612719536E0,-1.314416766E0
1.028595664E0,8.834604025E-1,9.627084732E0,-1.347935557E0
1.030609824E0,8.667010069E-1,9.655815125E0,-1.374271750E0
1.032593467E0,8.068459630E-1,9.684545517E0,-1.417367458E0
1.034577110E0,7.541735172E-1,9.708487511E0,-1.448492050E0
1.036591270E0,7.086837292E-1,9.727641106E0,-1.462857246E0
1.038574912E0,6.847416759E-1,9.742006302E0,-1.465251446E0
1.040558555E0,6.703764796E-1,9.756371498E0,-1.467645645E0
1.042572715E0,6.440402865E-1,9.770736694E0,-1.460463047E0
1.044556358E0,6.224924326E-1,9.789890289E0,-1.429338455E0
1.046570518E0,6.033388376E-1,9.801861763E0,-1.403002143E0
1.048584678E0,5.482721925E-1,9.806650162E0,-1.383848548E0
1.050568321E0,5.051765442E-1,9.806650162E0,-1.333570361E0
1.052582481E0,5.219359994E-1,9.813833237E0,-1.276109457E0
1.054596641E0,5.267243981E-1,9.821015358E0,-1.249773264E0
1.056580283E0,5.195417404E-1,9.830592155E0,-1.233013868E0
1.058594444E0,4.979939461E-1,9.837775230E0,-1.216254473E0
1.060578086E0,4.740519226E-1,9.837775230E0,-1.192312479E0
1.062561729E0,4.548983276E-1,9.837775230E0,-1.170764685E0
1.064575889E0,4.453215301E-1,9.840168953E0,-1.161187768E0
1.066559531E0,4.477157295E-1,9.840168953E0,-1.144428372E0
1.068543174E0,4.453215301E-1,9.832986832E0,-1.110909581E0
1.070557334E0,4.213795066E-1,9.821015358E0,-1.096544385E0
1.072540977E0,3.878606856E-1,9.816226959E0,-1.086967587E0
1.074524619E0,3.687070608E-1,9.818621635E0,-1.065419793E0
1.076538780E0,3.615244627E-1,9.816226959E0,-1.053448796E0
1.078522422E0,3.495534360E-1,9.811438560E0,-1.041477680E0
1.080506065E0,3.471592367E-1,9.804255486E0,-1.024718285E0
1.082520225E0,3.447650373E-1,9.794678688E0,-1.019929886E0
1.084503867E0,3.399766386E-1,9.773131371E0,-1.024718285E0
1.086518028E0,3.495534360E-1,9.751583099E0,-1.015141487E0
1.088501670E0,3.639186621E-1,9.739612579E0,-1.017535686E0
1.090515830E0,3.711012602E-1,9.727641106E0,-1.015141487E0
1.092499473E0,3.902548850E-1,9.715670586E0,-1.017535686E0
1.094483115E0,3.950432837E-1,9.703699112E0,-1.027112484E0
1.096497276E0,4.213795066E-1,9.689333916E0,-1.024718285E0
1.098450401E0,4.477157295E-1,9.682151794E0,-1.015141487E0
1.100464561E0,4.548983276E-1,9.679757118E0,-1.019929886E0
1.102448203E0,4.501099288E-1,9.682151794E0,-1.039083481E0
1.104431846E0,4.429273009E-1,9.677363396E0,-1.053448796E0
1.106446006E0,4.357447028E-1,9.682151794E0,-1.053448796E0
1.108460166E0,4.429273009E-1,9.694122314E0,-1.063025594E0
1.110443809E0,4.596867263E-1,9.696516991E0,-1.082179189E0
1.112427451E0,4.548983276E-1,9.696516991E0,-1.115697980E0
1.114441612E0,4.453215301E-1,9.703699112E0,-1.149216771E0
1.116425254E0,4.501099288E-1,9.710882187E0,-1.177947283E0
1.118408897E0,4.572925270E-1,9.715670586E0,-1.213860273E0
1.120423057E0,4.596867263E-1,9.727641106E0,-1.254561663E0
1.122437217E0,4.764461517E-1,9.737217903E0,-1.280897856E0
1.124420860E0,4.955997467E-1,9.737217903E0,-1.297657371E0
1.126404502E0,5.195417404E-1,9.732429504E0,-1.309628367E0
1.128388145E0,5.482721925E-1,9.727641106E0,-1.321599364E0
1.130371787E0,5.602431893E-1,9.725247383E0,-1.321599364E0
1.132355430E0,5.937620401E-1,9.713275909E0,-1.314416766E0
1.134369590E0,6.368576288E-1,9.710882187E0,-1.316810966E0
1.136353233E0,6.871358752E-1,9.710882187E0,-1.321599364E0
1.138336875E0,7.326257229E-1,9.701305389E0,-1.321599364E0
1.140351035E0,7.781155705E-1,9.684545517E0,-1.316810966E0
1.142334678E0,8.188169599E-1,9.670180321E0,-1.326387763E0
1.144318321E0,8.499416113E-1,9.667786598E0,-1.340752959E0
1.146301963E0,8.762778044E-1,9.665391922E0,-1.355118155E0
1.148285606E0,8.978256583E-1,9.660603523E0,-1.364694953E0
1.150269248E0,9.145850539E-1,9.660603523E0,-1.369483352E0
1.152283408E0,9.361328483E-1,9.651026726E0,-1.379060149E0
1.154267051E0,9.457096457E-1,9.634267807E0,-1.398213744E0
1.156250694E0,9.528923035E-1,9.624691010E0,-1.422155857E0
1.158264854E0,9.481038451E-1,9.615114212E0,-1.446097851E0
1.160279014E0,9.481038451E-1,9.603142738E0,-1.465251446E0
1.162262656E0,9.576807022E-1,9.595960617E0,-1.484405041E0
1.164276817E0,9.648633003E-1,9.600749016E0,-1.508347034E0
1.166260459E0,9.624691010E-1,9.610325813E0,-1.532289028E0
1.168244102E0,9.552865028E-1,9.619902611E0,-1.549048543E0
1.170227744E0,9.504981041E-1,9.634267807E0,-1.563413739E0
1.172241905E0,9.576807022E-1,9.646238327E0,-1.568202138E0
1.174225547E0,9.648633003E-1,9.646238327E0,-1.568202138E0
1.176209190E0,9.624691010E-1,9.643844604E0,-1.575384736E0
1.178223350E0,9.648633003E-1,9.636661530E0,-1.584961534E0
1.180206992E0,9.744400978E-1,9.627084732E0,-1.580173135E0
1.182190635E0,9.840168953E-1,9.615114212E0,-1.561019540E0
1.184204795E0,9.959878922E-1,9.595960617E0,-1.551442742E0
1.186188438E0,1.007958889E0,9.574412346E0,-1.527500629E0
1.188172080E0,1.005564690E0,9.548076630E0,-1.505952835E0
1.190186240E0,9.935936928E-1,9.526528358E0,-1.493981838E0
1.192169883E0,9.720458984E-1,9.514557838E0,-1.484405041E0
1.194153526E0,9.528923035E-1,9.500192642E0,-1.470039845E0
1.196167686E0,9.337386489E-1,9.490615845E0,-1.455674648E0
1.198151328E0,9.097966552E-1,9.500192642E0,-1.443703651E0
1.200134971E0,8.762778044E-1,9.500192642E0,-1.429338455E0
1.202149131E0,8.547300100E-1,9.493009567E0,-1.405396342E0
1.204132774E0,8.427590132E-1,9.495404243E0,-1.376665950E0
1.206146934E0,8.283938169E-1,9.509769440E0,-1.352723956E0
1.208130576E0,8.188169599E-1,9.526528358E0,-1.333570361E0
1.210114219E0,8.068459630E-1,9.538499832E0,-1.314416766E0
1.212128379E0,7.900865674E-1,9.552865028E0,-1.302445769E0
1.214112022E0,7.805097699E-1,9.550470352E0,-1.295263171E0
1.216095664E0,7.661445141E-1,9.545681953E0,-1.290474772E0
1.218109824E0,7.493851185E-1,9.564835548E0,-1.295263171E0
1.220093467E0,7.493851185E-1,9.581595421E0,-1.300051570E0
1.222077110E0,7.422025204E-1,9.583989143E0,-1.314416766E0
1.224091270E0,7.350199223E-1,9.591172218E0,-1.326387763E0
1.226074912E0,7.469909191E-1,9.603142738E0,-1.345541358E0
1.228058555E0,7.517793179E-1,9.619902611E0,-1.364694953E0
1.230072715E0,7.565677166E-1,9.641449928E0,-1.383848548E0
1.232056358E0,7.422025204E-1,9.662998199E0,-1.407790542E0
1.234040000E0,7.254431248E-1,9.672574997E0,-1.426944256E0
1.236054160E0,7.158663273E-1,9.672574997E0,-1.443703651E0
1.238037803E0,7.134721279E-1,9.670180321E0,-1.455674648E0
1.240021446E0,7.158663273E-1,9.672574997E0,-1.467645645E0
1.242035606E0,7.158663273E-1,9.679757118E0,-1.484405041E0
1.244019248E0,7.182605267E-1,9.679757118E0,-1.493981838E0
1.246033408E0,7.038952708E-1,9.682151794E0,-1.508347034E0
1.248047569E0,6.919242740E-1,9.682151794E0,-1.525106430E0
1.250031211E0,6.775590777E-1,9.689333916E0,-1.534683347E0
1.252045371E0,6.679822803E-1,9.694122314E0,-1.527500629E0
1.254059531E0,6.560112834E-1,9.698910713E0,-1.515529633E0
1.256043174E0,6.464344859E-1,9.703699112E0,-1.503558636E0
1.258057334E0,6.512228847E-1,9.710882187E0,-1.498770237E0
1.260071494E0,6.536170840E-1,9.718064308E0,-1.498770237E0
1.262055137E0,6.607996821E-1,9.713275909E0,-1.491587639E0
1.264038780E0,6.703764796E-1,9.715670586E0,-1.474828243E0
1.266022422E0,6.751648784E-1,9.725247383E0,-1.455674648E0
1.268006065E0,6.727706790E-1,9.727641106E0,-1.441309452E0
1.270020225E0,6.703764796E-1,9.710882187E0,-1.438915253E0
1.272003867E0,6.799532771E-1,9.696516991E0,-1.431732655E0
1.273987510E0,7.086837292E-1,9.696516991E0,-1.419761658E0
1.276001670E0,7.398083210E-1,9.689333916E0,-1.407790542E0
1.277985313E0,7.565677166E-1,9.682151794E0,-1.403002143E0
1.279999473E0,7.781155705E-1,9.662998199E0,-1.407790542E0
1.281983115E0,7.900865674E-1,9.648633003E0,-1.407790542E0
1.283966758E0,7.948749661E-1,9.636661530E0,-1.403002143E0
1.285980918E0,7.924807668E-1,9.622296333E0,-1.407790542E0
1.287964561E0,7.972691655E-1,9.600749016E0,-1.407790542E0
1.289978721E0,8.140285611E-1,9.591172218E0,-1.412579060E0
1.291962363E0,8.307880163E-1,9.583989143E0,-1.417367458E0
1.293946006E0,8.379706144E-1,9.569623947E0,-1.422155857E0
1.295960166E0,8.547300100E-1,9.560047150E0,-1.412579060E0
1.297943809E0,8.595184088E-1,9.543288231E0,-1.410184860E0
1.299927451E0,8.714894056E-1,9.521739960E0,-1.405396342E0
1.301941612E0,8.786720037E-1,9.514557838E0,-1.398213744E0
1.303925254E0,8.834604025E-1,9.504981041E0,-1.400607944E0
1.305908897E0,8.906430602E-1,9.495404243E0,-1.403002143E0
1.307923057E0,9.026140571E-1,9.488221169E0,-1.395819545E0
1.309906699E0,9.121908545E-1,9.478644371E0,-1.386242747E0
1.311890342E0,9.169792533E-1,9.469067574E0,-1.383848548E0
1.313904502E0,9.169792533E-1,9.464279175E0,-1.388636947E0
1.315888145E0,9.097966552E-1,9.473855972E0,-1.398213744E0
1.317871787E0,9.002198577E-1,9.478644371E0,-1.403002143E0
1.319885947E0,9.002198577E-1,9.471462250E0,-1.403002143E0
1.321869590E0,9.026140571E-1,9.464279175E0,-1.403002143E0
1.323853233E0,8.930372596E-1,9.469067574E0,-1.419761658E0
1.325806358E0,8.810662031E-1,9.481039047E0,-1.434126854E0
1.327820518E0,8.714894056E-1,9.483432770E0,-1.450886250E0
1.329804160E0,8.643068075E-1,9.481039047E0,-1.462857246E0
1.331787803E0,8.547300100E-1,9.485827446E0,-1.460463047E0
1.333801963E0,8.475474119E-1,9.500192642E0,-1.458068848E0
1.335785606E0,8.331822157E-1,9.519346237E0,-1.462857246E0
1.337769248E0,8.212111592E-1,9.536105156E0,-1.465251446E0
1.339783408E0,8.092401624E-1,9.545681953E0,-1.467645645E0
1.341797569E0,8.092401624E-1,9.555258751E0,-1.467645645E0
1.343781211E0,8.068459630E-1,9.569623947E0,-1.462857246E0
1.345764854E0,8.044517636E-1,9.574412346E0,-1.467645645E0
1.347748496E0,7.900865674E-1,9.574412346E0,-1.462857246E0
1.349732139E0,7.852981687E-1,9.581595421E0,-1.462857246E0
1.351746299E0,7.948749661E-1,9.588777542E0,-1.472434044E0
1.353729942E0,8.044517636E-1,9.593565941E0,-1.484405041E0
1.355713584E0,8.020575643E-1,9.588777542E0,-1.489193439E0
1.357727744E0,7.948749661E-1,9.586383820E0,-1.491587639E0
1.359741905E0,7.900865674E-1,9.598354340E0,-1.493981838E0
1.361725547E0,7.733271718E-1,9.598354340E0,-1.486799240E0
1.363739707E0,7.565677166E-1,9.600749016E0,-1.472434044E0
1.365723350E0,7.517793179E-1,9.612719536E0,-1.458068848E0
1.367737510E0,7.541735172E-1,9.622296333E0,-1.446097851E0
1.369751670E0,7.445967197E-1,9.629479408E0,-1.422155857E0
1.371735313E0,7.350199223E-1,9.629479408E0,-1.381454349E0
1.373749473E0,7.422025204E-1,9.636661530E0,-1.345541358E0
1.375763633E0,7.469909191E-1,9.646238327E0,-1.309628367E0
1.377747276E0,7.565677166E-1,9.643844604E0,-1.273715258E0
1.379761436E0,7.661445141E-1,9.639056206E0,-1.244984865E0
1.381775596E0,7.757213712E-1,9.631873131E0,-1.223437071E0
1.383759238E0,7.805097699E-1,9.627084732E0,-1.206677675E0
1.385742881E0,7.900865674E-1,9.627084732E0,-1.194706678E0
1.387726524E0,7.972691655E-1,9.634267807E0,-1.182735682E0
1.389710166E0,8.068459630E-1,9.643844604E0,-1.175553083E0
1.391724326E0,8.164227605E-1,9.639056206E0,-1.173158884E0
1.393707969E0,8.259995580E-1,9.639056206E0,-1.173158884E0
1.395691612E0,8.379706144E-1,9.653421402E0,-1.168370485E0
1.397705772E0,8.451532125E-1,9.667786598E0,-1.161187768E0
1.399719932E0,8.475474119E-1,9.679757118E0,-1.158793569E0
1.401703574E0,8.523358107E-1,9.684545517E0,-1.158793569E0
1.403717735E0,8.643068075E-1,9.684545517E0,-1.154005170E0
1.405670860E0,8.738836050E-1,9.691728592E0,-1.149216771E0
1.407685020E0,8.667010069E-1,9.708487511E0,-1.165976286E0
1.409668662E0,8.643068075E-1,9.722852707E0,-1.180341482E0
1.411652305E0,8.619126081E-1,9.734824181E0,-1.197100878E0
1.413666465E0,8.643068075E-1,9.744400978E0,-1.213860273E0
1.415680625E0,8.643068075E-1,9.749189377E0,-1.225831270E0
1.417664268E0,8.595184088E-1,9.749189377E0,-1.235408068E0
1.419647910E0,8.595184088E-1,9.763554573E0,-1.244984865E0
1.421631553E0,8.595184088E-1,9.777919769E0,-1.252167463E0
1.423645713E0,8.547300100E-1,9.775525093E0,-1.259350061E0
1.425629356E0,8.475474119E-1,9.765948296E0,-1.261744261E0
1.427612998E0,8.379706144E-1,9.758766174E0,-1.266532660E0
1.429596641E0,8.188169599E-1,9.744400978E0,-1.266532660E0
1.431610801E0,8.044517636E-1,9.734824181E0,-1.254561663E0
1.433594444E0,7.876923680E-1,9.730035782E0,-1.249773264E0
1.435578086E0,7.589619160E-1,9.739612579E0,-1.244984865E0
1.437592246E0,7.230489254E-1,9.744400978E0,-1.230619669E0
1.439606406E0,7.062895298E-1,9.744400978E0,-1.216254473E0
1.441590049E0,6.967126727E-1,9.742006302E0,-1.199495077E0
1.443604209E0,6.895300746E-1,9.739612579E0,-1.185129881E0
1.445587852E0,6.919242740E-1,9.739612579E0,-1.177947283E0
1.447602012E0,6.991068721E-1,9.742006302E0,-1.165976286E0
1.449616172E0,7.015010715E-1,9.732429504E0,-1.158793569E0
1.451599815E0,6.967126727E-1,9.718064308E0,-1.158793569E0
1.453613975E0,6.943184733E-1,9.708487511E0,-1.151610970E0
1.455628135E0,7.015010715E-1,9.713275909E0,-1.146822572E0
1.457611778E0,7.158663273E-1,9.715670586E0,-1.144428372E0
1.459625938E0,7.374141216E-1,9.715670586E0,-1.139639974E0
1.461609580E0,7.445967197E-1,9.703699112E0,-1.134851575E0
1.463623740E0,7.445967197E-1,9.701305389E0,-1.130063176E0
1.465607383E0,7.493851185E-1,9.703699112E0,-1.125274777E0
1.467591026E0,7.637503147E-1,9.703699112E0,-1.108515382E0
1.469574668E0,7.757213712E-1,9.703699112E0,-1.094150186E0
1.471588828E0,7.900865674E-1,9.706093788E0,-1.077390790E0
1.473572471E0,7.996633649E-1,9.708487511E0,-1.065419793E0
1.475556113E0,8.140285611E-1,9.708487511E0,-1.058237195E0
1.477570274E0,8.331822157E-1,9.708487511E0,-1.048660398E0
1.479553916E0,8.571242094E-1,9.706093788E0,-1.051054597E0
1.481568076E0,8.834604025E-1,9.696516991E0,-1.051054597E0
1.483551719E0,9.026140571E-1,9.689333916E0,-1.048660398E0
1.485535362E0,9.265560508E-1,9.686940193E0,-1.055842996E0
1.487519004E0,9.504981041E-1,9.679757118E0,-1.070208192E0
1.489502647E0,9.576807022E-1,9.674968719E0,-1.089361787E0
1.491516807E0,9.624691010E-1,9.670180321E0,-1.106121182E0
1.493500449E0,9.672574997E-1,9.665391922E0,-1.122880578E0
1.495484092E0,9.696516991E-1,9.658209801E0,-1.137245774E0
1.497498252E0,9.648633003E-1,9.648633003E0,-1.151610970E0
1.499481895E0,9.648633003E-1,9.646238327E0,-1.168370485E0
1.501496055E0,9.576807022E-1,9.641449928E0,-1.182735682E0
1.503479697E0,9.481038451E-1,9.622296333E0,-1.194706678E0
1.505463340E0,9.385270476E-1,9.607931137E0,-1.206677675E0
1.507446983E0,9.265560508E-1,9.595960617E0,-1.216254473E0
1.509461143E0,9.217676520E-1,9.593565941E0,-1.228225470E0
1.511444785E0,9.145850539E-1,9.598354340E0,-1.242590666E0
1.513428428E0,9.002198577E-1,9.591172218E0,-1.252167463E0
1.515442588E0,8.858546019E-1,9.591172218E0,-1.252167463E0
1.517456748E0,8.834604025E-1,9.593565941E0,-1.256955862E0
1.519440391E0,8.810662031E-1,9.598354340E0,-1.249773264E0
1.521454551E0,8.906430602E-1,9.598354340E0,-1.225831270E0
1.523438194E0,9.097966552E-1,9.600749016E0,-1.211466074E0
1.525452354E0,9.121908545E-1,9.595960617E0,-1.199495077E0
1.527466514E0,8.978256583E-1,9.593565941E0,-1.197100878E0
1.529450156E0,8.882488012E-1,9.595960617E0,-1.189918280E0
1.531464317E0,8.906430602E-1,9.598354340E0,-1.189918280E0
1.533478477E0,8.954314590E-1,9.603142738E0,-1.182735682E0
1.535462119E0,8.930372596E-1,9.612719536E0,-1.170764685E0
1.537445762E0,8.738836050E-1,9.624691010E0,-1.180341482E0
1.539429405E0,8.619126081E-1,9.629479408E0,-1.192312479E0
1.541443565E0,9.074024558E-1,9.639056206E0,-1.204283476E0
1.543457725E0,9.504981041E-1,9.641449928E0,-1.201889277E0
1.545441367E0,9.481038451E-1,9.655815125E0,-1.187524080E0
1.547425010E0,9.145850539E-1,9.686940193E0,-1.165976286E0
1.549439170E0,8.930372596E-1,9.708487511E0,-1.154005170E0
1.551453330E0,9.026140571E-1,9.730035782E0,-1.154005170E0
1.553436973E0,9.289502501E-1,9.744400978E0,-1.151610970E0
1.555451133E0,9.361328483E-1,9.758766174E0,-1.142034173E0
1.557465293E0,9.337386489E-1,9.770736694E0,-1.127668977E0
1.559448936E0,9.193734527E-1,9.777919769E0,-1.108515382E0
1.561463096E0,9.074024558E-1,9.785101891E0,-1.086967587E0
1.563446738E0,8.954314590E-1,9.792284966E0,-1.067813993E0
1.565460899E0,9.002198577E-1,9.792284966E0,-1.055842996E0
1.567475059E0,9.169792533E-1,9.801861763E0,-1.039083481E0
1.569458701E0,9.265560508E-1,9.809044838E0,-1.007958889E0
1.571472862E0,9.265560508E-1,9.813833237E0,-9.768342972E-1
1.573487022E0,9.265560508E-1,9.813833237E0,-9.672574997E-1
1.575470664E0,9.313444495E-1,9.809044838E0,-9.672574997E-1
1.577484824E0,9.337386489E-1,9.804255486E0,-9.648633003E-1
1.579468467E0,9.265560508E-1,9.794678688E0,-9.672574997E-1
1.581482627E0,9.241618514E-1,9.787496567E0,-9.672574997E-1
1.583466270E0,9.217676520E-1,9.780313492E0,-9.672574997E-1
1.585449912E0,9.169792533E-1,9.777919769E0,-9.672574997E-1
1.587433555E0,9.074024558E-1,9.770736694E0,-9.696516991E-1
1.589447715E0,9.002198577E-1,9.765948296E0,-9.792284966E-1
1.591461875E0,8.906430602E-1,9.763554573E0,-9.840168953E-1
1.593445518E0,8.906430602E-1,9.756371498E0,-9.983820915E-1
1.595459678E0,8.954314590E-1,9.744400978E0,-1.010353088E0
1.597473838E0,8.930372596E-1,9.737217903E0,-1.024718285E0
1.599457481E0,8.738836050E-1,9.730035782E0,-1.043871999E0
1.601471641E0,8.595184088E-1,9.722852707E0,-1.055842996E0
1.603455283E0,8.499416113E-1,9.715670586E0,-1.060631394E0
1.605469444E0,8.451532125E-1,9.713275909E0,-1.072602391E0
1.607453086E0,8.403648138E-1,9.708487511E0,-1.089361787E0
1.609436729E0,8.331822157E-1,9.706093788E0,-1.096544385E0
1.611450889E0,8.331822157E-1,9.715670586E0,-1.096544385E0
1.613434531E0,8.355764151E-1,9.722852707E0,-1.094150186E0
1.615418174E0,8.355764151E-1,9.720458984E0,-1.094150186E0
1.617432334E0,8.451532125E-1,9.722852707E0,-1.089361787E0
1.619415977E0,8.547300100E-1,9.720458984E0,-1.091755986E0
1.621399619E0,8.619126081E-1,9.715670586E0,-1.094150186E0
1.623413780E0,8.619126081E-1,9.710882187E0,-1.091755986E0
1.625397422E0,8.786720037E-1,9.713275909E0,-1.094150186E0
1.627381065E0,8.906430602E-1,9.713275909E0,-1.096544385E0
1.629395225E0,8.978256583E-1,9.701305389E0,-1.101332784E0
1.631378867E0,9.026140571E-1,9.686940193E0,-1.115697980E0
1.633362510E0,9.097966552E-1,9.684545517E0,-1.127668977E0
1.635376670E0,9.121908545E-1,9.677363396E0,-1.137245774E0
1.637360313E0,9.145850539E-1,9.672574997E0,-1.142034173E0
1.639343955E0,9.169792533E-1,9.674968719E0,-1.156399369E0
1.641358115E0,9.097966552E-1,9.679757118E0,-1.163581967E0
1.643341758E0,9.002198577E-1,9.677363396E0,-1.165976286E0
1.645355918E0,9.002198577E-1,9.672574997E0,-1.170764685E0
1.647339561E0,8.954314590E-1,9.667786598E0,-1.175553083E0
1.649323203E0,8.834604025E-1,9.660603523E0,-1.185129881E0
1.651337363E0,8.738836050E-1,9.655815125E0,-1.187524080E0
1.653351524E0,8.643068075E-1,9.653421402E0,-1.185129881E0
1.655335166E0,8.523358107E-1,9.651026726E0,-1.185129881E0
1.657318809E0,8.427590132E-1,9.658209801E0,-1.182735682E0
1.659302451E0,8.379706144E-1,9.665391922E0,-1.182735682E0
1.661316612E0,8.283938169E-1,9.677363396E0,-1.177947283E0
1.663300254E0,8.164227605E-1,9.682151794E0,-1.170764685E0
1.665314414E0,7.996633649E-1,9.689333916E0,-1.163581967E0
1.667298057E0,7.876923680E-1,9.694122314E0,-1.161187768E0
1.669312217E0,7.757213712E-1,9.698910713E0,-1.151610970E0
1.671295860E0,7.613561153E-1,9.703699112E0,-1.134851575E0
1.673310020E0,7.493851185E-1,9.708487511E0,-1.115697980E0
1.675293662E0,7.445967197E-1,9.701305389E0,-1.106121182E0
1.677277305E0,7.350199223E-1,9.686940193E0,-1.098938584E0
1.679291465E0,7.326257229E-1,9.682151794E0,-1.096544385E0
1.681275108E0,7.374141216E-1,9.677363396E0,-1.094150186E0
1.683258750E0,7.445967197E-1,9.655815125E0,-1.089361787E0
1.685242393E0,7.493851185E-1,9.636661530E0,-1.084573388E0
1.687226035E0,7.541735172E-1,9.627084732E0,-1.091755986E0
1.689240196E0,7.613561153E-1,9.617507935E0,-1.091755986E0
1.691254356E0,7.541735172E-1,9.607931137E0,-1.091755986E0
1.693237998E0,7.469909191E-1,9.595960617E0,-1.094150186E0
1.695252158E0,7.541735172E-1,9.574412346E0,-1.096544385E0
1.697235801E0,7.661445141E-1,9.555258751E0,-1.103726983E0
1.699219444E0,7.757213712E-1,9.540893555E0,-1.113303781E0
1.701233604E0,7.829039693E-1,9.528923035E0,-1.137245774E0
1.703217246E0,7.852981687E-1,9.514557838E0,-1.165976286E0
1.705231406E0,7.852981687E-1,9.512163162E0,-1.192312479E0
1.707215049E0,7.829039693E-1,9.514557838E0,-1.213860273E0
1.709229209E0,7.805097699E-1,9.521739960E0,-1.235408068E0
1.711212852E0,7.733271718E-1,9.526528358E0,-1.244984865E0
1.713196494E0,7.613561153E-1,9.536105156E0,-1.249773264E0
1.715210655E0,7.517793179E-1,9.552865028E0,-1.259350061E0
1.717194297E0,7.493851185E-1,9.576807022E0,-1.276109457E0
1.719177940E0,7.302315235E-1,9.586383820E0,-1.285686255E0
1.721192100E0,7.086837292E-1,9.598354340E0,-1.280897856E0
1.723175742E0,6.871358752E-1,9.629479408E0,-1.266532660E0
1.725189903E0,6.751648784E-1,9.655815125E0,-1.256955862E0
1.727173545E0,6.560112834E-1,9.672574997E0,-1.244984865E0
1.729187705E0,6.344634295E-1,9.698910713E0,-1.233013868E0
1.731171348E0,6.105214357E-1,9.730035782E0,-1.225831270E0
1.733154990E0,6.033388376E-1,9.756371498E0,-1.218648672E0
1.735169151E0,5.961562395E-1,9.785101891E0,-1.209071875E0
1.737152793E0,5.841852427E-1,9.811438560E0,-1.199495077E0
1.739136436E0,5.746083856E-1,9.828198433E0,-1.197100878E0
1.741150596E0,5.722141862E-1,9.828198433E0,-1.197100878E0
1.743134238E0,5.746083856E-1,9.832986832E0,-1.194706678E0
1.745117881E0,5.793967843E-1,9.837775230E0,-1.189918280E0
1.747132041E0,5.841852427E-1,9.832986832E0,-1.182735682E0
1.749115684E0,5.865794420E-1,9.835380554E0,-1.175553083E0
1.751099326E0,5.817909837E-1,9.837775230E0,-1.173158884E0
1.753113487E0,5.817909837E-1,9.830592155E0,-1.168370485E0
1.755097129E0,5.937620401E-1,9.821015358E0,-1.165976286E0
1.757080772E0,5.937620401E-1,9.813833237E0,-1.165976286E0
1.759094932E0,5.913678408E-1,9.806650162E0,-1.161187768E0
1.761109092E0,5.889736414E-1,9.804255486E0,-1.149216771E0
1.763092735E0,5.865794420E-1,9.799467087E0,-1.142034173E0
1.765076377E0,5.889736414E-1,9.785101891E0,-1.139639974E0
1.767060020E0,5.913678408E-1,9.777919769E0,-1.139639974E0
1.769043662E0,5.937620401E-1,9.765948296E0,-1.132457376E0
1.771027305E0,5.913678408E-1,9.765948296E0,-1.125274777E0
1.773041465E0,6.009446383E-1,9.768342972E0,-1.115697980E0
1.775025108E0,6.057330370E-1,9.765948296E0,-1.106121182E0
1.777008750E0,6.081272364E-1,9.751583099E0,-1.103726983E0
1.779022910E0,6.153098345E-1,9.739612579E0,-1.094150186E0
1.781006553E0,6.129156351E-1,9.730035782E0,-1.089361787E0
1.782990196E0,6.081272364E-1,9.720458984E0,-1.089361787E0
1.784973838E0,6.105214357E-1,9.715670586E0,-1.091755986E0
1.786957481E0,6.153098345E-1,9.698910713E0,-1.101332784E0
1.788941123E0,6.224924326E-1,9.684545517E0,-1.122880578E0
1.790955283E0,6.296750307E-1,9.672574997E0,-1.139639974E0
1.792938926E0,6.296750307E-1,9.646238327E0,-1.151610970E0
1.794922569E0,6.392518282E-1,9.624691010E0,-1.163581967E0
1.796936729E0,6.488286853E-1,9.615114212E0,-1.189918280E0
1.798950889E0,6.536170840E-1,9.605537415E0,-1.225831270E0
1.800934531E0,6.560112834E-1,9.595960617E0,-1.252167463E0
1.802918174E0,6.584054828E-1,9.569623947E0,-1.278503656E0
1.804901817E0,6.607996821E-1,9.552865028E0,-1.302445769E0
1.806915977E0,6.584054828E-1,9.540893555E0,-1.321599364E0
1.808899619E0,6.536170840E-1,9.528923035E0,-1.343147159E0
1.810883262E0,6.464344859E-1,9.519346237E0,-1.355118155E0
1.812897422E0,6.344634295E-1,9.521739960E0,-1.359906554E0
1.814911582E0,6.344634295E-1,9.531316757E0,-1.362300754E0
1.816895225E0,6.392518282E-1,9.536105156E0,-1.369483352E0
1.818878867E0,6.416460276E-1,9.536105156E0,-1.364694953E0
1.820862510E0,6.512228847E-1,9.533711433E0,-1.352723956E0
1.822876670E0,6.536170840E-1,9.531316757E0,-1.345541358E0
1.824860313E0,6.416460276E-1,9.531316757E0,-1.340752959E0
1.826843955E0,6.320692301E-1,9.533711433E0,-1.340752959E0
1.828827598E0,6.248866320E-1,9.545681953E0,-1.340752959E0
1.830841758E0,6.296750307E-1,9.562441826E0,-1.333570361E0
1.832825401E0,6.296750307E-1,9.569623947E0,-1.328781962E0
1.834809043E0,6.248866320E-1,9.591172218E0,-1.331176162E0
1.836823203E0,6.272808313E-1,9.617507935E0,-1.323993564E0
1.838837363E0,6.320692301E-1,9.639056206E0,-1.326387763E0
1.840821006E0,6.344634295E-1,9.662998199E0,-1.326387763E0
1.842835166E0,6.392518282E-1,9.677363396E0,-1.312022567E0
1.844818809E0,6.512228847E-1,9.686940193E0,-1.300051570E0
1.846832969E0,6.536170840E-1,9.703699112E0,-1.292868972E0
1.848816612E0,6.584054828E-1,9.720458984E0,-1.292868972E0
1.850800254E0,6.631938815E-1,9.739612579E0,-1.290474772E0
1.852814414E0,6.655880809E-1,9.756371498E0,-1.292868972E0
1.854828574E0,6.607996821E-1,9.765948296E0,-1.292868972E0
1.856812217E0,6.536170840E-1,9.770736694E0,-1.288080573E0
1.858826377E0,6.488286853E-1,9.770736694E0,-1.283292055E0
1.860840537E0,6.488286853E-1,9.773131371E0,-1.297657371E0
1.862824180E0,6.464344859E-1,9.780313492E0,-1.302445769E0
1.864807822E0,6.392518282E-1,9.787496567E0,-1.292868972E0
1.866791465E0,6.368576288E-1,9.789890289E0,-1.280897856E0
1.868775108E0,6.296750307E-1,9.794678688E0,-1.268926859E0
1.870789268E0,6.200982332E-1,9.794678688E0,-1.261744261E0
1.872803428E0,6.057330370E-1,9.797073364E0,-1.252167463E0
1.874787071E0,5.889736414E-1,9.799467087E0,-1.247379065E0
1.876801231E0,5.817909837E-1,9.794678688E0,-1.242590666E0
1.878784873E0,5.841852427E-1,9.785101891E0,-1.244984865E0
1.880799033E0,5.722141862E-1,9.773131371E0,-1.247379065E0
1.882782676E0,5.650315881E-1,9.761159897E0,-1.247379065E0
1.884766319E0,5.602431893E-1,9.751583099E0,-1.247379065E0
1.886749961E0,5.506663918E-1,9.739612579E0,-1.242590666E0
1.888733604E0,5.482721925E-1,9.720458984E0,-1.242590666E0
1.890747764E0,5.482721925E-1,9.708487511E0,-1.247379065E0
1.892731406E0,5.386953950E-1,9.698910713E0,-1.249773264E0
1.894715049E0,5.339069963E-1,9.686940193E0,-1.254561663E0
1.896729209E0,5.315127969E-1,9.677363396E0,-1.247379065E0
1.898743369E0,5.291185975E-1,9.674968719E0,-1.244984865E0
1.900727012E0,5.339069963E-1,9.677363396E0,-1.254561663E0
1.902741172E0,5.434837937E-1,9.667786598E0,-1.266532660E0
1.904724815E0,5.434837937E-1,9.660603523E0,-1.266532660E0
1.906708457E0,5.291185975E-1,9.655815125E0,-1.266532660E0
1.908722617E0,5.267243981E-1,9.646238327E0,-1.276109457E0
1.910706260E0,5.315127969E-1,9.631873131E0,-1.288080573E0
1.912689903E0,5.386953950E-1,9.627084732E0,-1.297657371E0
1.914704063E0,5.458779931E-1,9.636661530E0,-1.297657371E0
1.916687705E0,5.482721925E-1,9.641449928E0,-1.297657371E0
1.918671348E0,5.578489900E-1,9.636661530E0,-1.295263171E0
1.920685508E0,5.626373887E-1,9.634267807E0,-1.302445769E0
1.922669151E0,5.530605912E-1,9.631873131E0,-1.307234168E0
1.924683311E0,5.578489900E-1,9.631873131E0,-1.302445769E0
1.926697471E0,5.650315881E-1,9.634267807E0,-1.300051570E0
1.928681113E0,5.650315881E-1,9.636661530E0,-1.300051570E0
1.930695274E0,5.674257874E-1,9.646238327E0,-1.304839969E0
1.932709434E0,5.698199868E-1,9.665391922E0,-1.302445769E0
1.934693076E0,5.746083856E-1,9.682151794E0,-1.295263171E0
1.936676719E0,5.722141862E-1,9.696516991E0,-1.297657371E0
1.938660362E0,5.722141862E-1,9.708487511E0,-1.292868972E0
1.940674522E0,5.674257874E-1,9.713275909E0,-1.285686255E0
1.942688682E0,5.674257874E-1,9.718064308E0,-1.278503656E0
1.944672324E0,5.698199868E-1,9.722852707E0,-1.280897856E0
1.946655967E0,5.674257874E-1,9.734824181E0,-1.280897856E0
1.948670127E0,5.626373887E-1,9.749189377E0,-1.288080573E0
1.950653770E0,5.650315881E-1,9.758766174E0,-1.288080573E0
1.952637412E0,5.626373887E-1,9.768342972E0,-1.273715258E0
1.954651572E0,5.578489900E-1,9.773131371E0,-1.261744261E0
1.956665733E0,5.602431893E-1,9.775525093E0,-1.261744261E0
1.958649375E0,5.626373887E-1,9.770736694E0,-1.264138460E0
1.960663535E0,5.626373887E-1,9.763554573E0,-1.264138460E0
1.962647178E0,5.578489900E-1,9.768342972E0,-1.268926859E0
1.964661338E0,5.578489900E-1,9.770736694E0,-1.276109457E0
1.966675498E0,5.530605912E-1,9.768342972E0,-1.271321058E0
1.968659141E0,5.554547906E-1,9.768342972E0,-1.266532660E0
1.970673301E0,5.602431893E-1,9.763554573E0,-1.259350061E0
1.972687461E0,5.602431893E-1,9.746794701E0,-1.256955862E0
1.974671104E0,5.674257874E-1,9.737217903E0,-1.254561663E0
1.976685264E0,5.746083856E-1,9.725247383E0,-1.259350061E0
1.978668906E0,5.865794420E-1,9.706093788E0,-1.268926859E0
1.980683067E0,6.009446383E-1,9.696516991E0,-1.280897856E0
1.982636192E0,6.081272364E-1,9.686940193E0,-1.273715258E0
1.984650352E0,6.129156351E-1,9.672574997E0,-1.261744261E0
1.986633994E0,6.105214357E-1,9.653421402E0,-1.264138460E0
1.988648155E0,6.153098345E-1,9.639056206E0,-1.278503656E0
1.990662315E0,6.153098345E-1,9.627084732E0,-1.292868972E0
1.992645957E0,6.129156351E-1,9.624691010E0,-1.297657371E0
1.994660117E0,6.081272364E-1,9.624691010E0,-1.300051570E0
1.996674278E0,5.961562395E-1,9.617507935E0,-1.300051570E0
1.998657920E0,6.033388376E-1,9.607931137E0,-1.295263171E0
2.000641563E0,6.177040339E-1,9.603142738E0,-1.288080573E0
2.002625205E0,6.320692301E-1,9.598354340E0,-1.278503656E0
2.004639365E0,6.392518282E-1,9.591172218E0,-1.273715258E0
2.006623008E0,6.392518282E-1,9.581595421E0,-1.264138460E0
2.008606651E0,6.368576288E-1,9.572018623E0,-1.256955862E0
2.010620811E0,6.392518282E-1,9.562441826E0,-1.264138460E0
2.012634971E0,6.560112834E-1,9.552865028E0,-1.268926859E0
2.014618613E0,6.655880809E-1,9.548076630E0,-1.271321058E0
2.016632774E0,6.727706790E-1,9.548076630E0,-1.278503656E0
2.018616416E0,6.895300746E-1,9.552865028E0,-1.283292055E0
2.020600059E0,7.038952708E-1,9.560047150E0,-1.288080573E0
2.022583701E0,7.110779285E-1,9.562441826E0,-1.295263171E0
2.024567344E0,6.991068721E-1,9.569623947E0,-1.300051570E0
2.026550987E0,6.991068721E-1,9.583989143E0,-1.307234168E0
2.028565147E0,7.038952708E-1,9.603142738E0,-1.314416766E0
2.030548789E0,7.015010715E-1,9.622296333E0,-1.312022567E0
2.032532432E0,6.991068721E-1,9.634267807E0,-1.312022567E0
2.034546592E0,6.967126727E-1,9.646238327E0,-1.312022567E0
2.036560752E0,7.062895298E-1,9.665391922E0,-1.304839969E0
2.038544395E0,7.110779285E-1,9.686940193E0,-1.295263171E0
2.040558555E0,7.110779285E-1,9.708487511E0,-1.288080573E0
2.042542197E0,7.038952708E-1,9.737217903E0,-1.280897856E0
2.044556358E0,7.062895298E-1,9.751583099E0,-1.264138460E0
2.046570518E0,7.134721279E-1,9.758766174E0,-1.256955862E0
2.048554160E0,7.158663273E-1,9.780313492E0,-1.254561663E0
2.050568321E0,7.206547260E-1,9.799467087E0,-1.240196466E0
2.052582481E0,7.278373241E-1,9.809044838E0,-1.225831270E0
2.054566123E0,7.326257229E-1,9.818621635E0,-1.218648672E0
2.056549766E0,7.374141216E-1,9.832986832E0,-1.209071875E0
2.058533408E0,7.398083210E-1,9.847352028E0,-1.201889277E0
2.060547569E0,7.374141216E-1,9.856928825E0,-1.197100878E0
2.062531211E0,7.278373241E-1,9.859322548E0,-1.189918280E0
2.064545371E0,7.182605267E-1,9.864110947E0,-1.185129881E0
2.066529014E0,7.182605267E-1,9.866505623E0,-1.180341482E0
2.068543174E0,7.158663273E-1,9.871294022E0,-1.177947283E0
2.070557334E0,7.206547260E-1,9.873687744E0,-1.170764685E0
2.072540977E0,7.182605267E-1,9.876082420E0,-1.158793569E0
2.074524619E0,7.206547260E-1,9.871294022E0,-1.149216771E0
2.076508262E0,7.254431248E-1,9.852140427E0,-1.142034173E0
2.078522422E0,7.302315235E-1,9.835380554E0,-1.137245774E0
2.080506065E0,7.422025204E-1,9.813833237E0,-1.137245774E0
2.082489707E0,7.541735172E-1,9.792284966E0,-1.142034173E0
2.084473350E0,7.517793179E-1,9.770736694E0,-1.144428372E0
2.086456992E0,7.469909191E-1,9.751583099E0,-1.149216771E0
2.088471153E0,7.445967197E-1,9.725247383E0,-1.154005170E0
2.090454795E0,7.445967197E-1,9.696516991E0,-1.165976286E0
2.092438438E0,7.445967197E-1,9.677363396E0,-1.182735682E0
2.094452598E0,7.517793179E-1,9.660603523E0,-1.189918280E0
2.096466758E0,7.541735172E-1,9.653421402E0,-1.189918280E0
2.098450401E0,7.493851185E-1,9.634267807E0,-1.192312479E0
2.100464561E0,7.422025204E-1,9.617507935E0,-1.199495077E0
2.102448203E0,7.350199223E-1,9.610325813E0,-1.201889277E0
2.104431846E0,7.326257229E-1,9.598354340E0,-1.204283476E0
2.106446006E0,7.350199223E-1,9.593565941E0,-1.216254473E0
2.108429649E0,7.422025204E-1,9.586383820E0,-1.223437071E0
2.110413291E0,7.422025204E-1,9.572018623E0,-1.223437071E0
2.112427451E0,7.493851185E-1,9.548076630E0,-1.221042871E0
2.114411094E0,7.541735172E-1,9.533711433E0,-1.223437071E0
2.116394737E0,7.565677166E-1,9.533711433E0,-1.228225470E0
2.118408897E0,7.589619160E-1,9.528923035E0,-1.230619669E0
2.120423057E0,7.589619160E-1,9.531316757E0,-1.230619669E0
2.122406699E0,7.541735172E-1,9.528923035E0,-1.228225470E0
2.124359824E0,7.541735172E-1,9.526528358E0,-1.225831270E0
2.126373985E0,7.565677166E-1,9.528923035E0,-1.223437071E0
2.128357627E0,7.517793179E-1,9.538499832E0,-1.221042871E0
2.130341270E0,7.445967197E-1,9.540893555E0,-1.230619669E0
2.132355430E0,7.374141216E-1,9.555258751E0,-1.230619669E0
2.134339072E0,7.326257229E-1,9.574412346E0,-1.230619669E0
2.136322715E0,7.302315235E-1,9.588777542E0,-1.240196466E0
2.138306358E0,7.302315235E-1,9.605537415E0,-1.244984865E0
2.140290000E0,7.326257229E-1,9.629479408E0,-1.244984865E0
2.142304160E0,7.350199223E-1,9.651026726E0,-1.247379065E0
2.144287803E0,7.398083210E-1,9.665391922E0,-1.259350061E0
2.146271446E0,7.469909191E-1,9.672574997E0,-1.271321058E0
2.148255088E0,7.493851185E-1,9.689333916E0,-1.273715258E0
2.150269248E0,7.493851185E-1,9.710882187E0,-1.273715258E0
2.152283408E0,7.493851185E-1,9.720458984E0,-1.271321058E0
2.154267051E0,7.541735172E-1,9.710882187E0,-1.259350061E0
2.156281211E0,7.565677166E-1,9.713275909E0,-1.256955862E0
2.158295371E0,7.541735172E-1,9.715670586E0,-1.252167463E0
2.160279014E0,7.589619160E-1,9.715670586E0,-1.240196466E0
2.162293174E0,7.565677166E-1,9.710882187E0,-1.237802267E0
2.164276817E0,7.541735172E-1,9.710882187E0,-1.230619669E0
2.166290977E0,7.541735172E-1,9.710882187E0,-1.221042871E0
2.168305137E0,7.422025204E-1,9.713275909E0,-1.216254473E0
2.170288780E0,7.302315235E-1,9.718064308E0,-1.206677675E0
2.172302940E0,7.254431248E-1,9.715670586E0,-1.194706678E0
2.174317100E0,7.134721279E-1,9.713275909E0,-1.180341482E0
2.176300742E0,7.015010715E-1,9.713275909E0,-1.165976286E0
2.178314903E0,6.919242740E-1,9.710882187E0,-1.154005170E0
2.180298545E0,6.799532771E-1,9.703699112E0,-1.132457376E0
2.182312705E0,6.655880809E-1,9.696516991E0,-1.110909581E0
2.184296348E0,6.584054828E-1,9.691728592E0,-1.101332784E0
2.186279990E0,6.512228847E-1,9.691728592E0,-1.098938584E0
2.188263633E0,6.272808313E-1,9.686940193E0,-1.084573388E0
2.190277793E0,6.033388376E-1,9.679757118E0,-1.077390790E0
2.192261436E0,5.913678408E-1,9.679757118E0,-1.077390790E0
2.194245078E0,5.793967843E-1,9.677363396E0,-1.074996591E0
2.196228721E0,5.626373887E-1,9.679757118E0,-1.063025594E0
2.198212363E0,5.578489900E-1,9.684545517E0,-1.055842996E0
2.200226524E0,5.578489900E-1,9.682151794E0,-1.060631394E0
2.202179649E0,5.530605912E-1,9.677363396E0,-1.058237195E0
2.204193809E0,5.386953950E-1,9.672574997E0,-1.055842996E0
2.206207969E0,5.339069963E-1,9.670180321E0,-1.051054597E0
2.208222129E0,5.363011956E-1,9.670180321E0,-1.046266198E0
2.210205772E0,5.363011956E-1,9.662998199E0,-1.048660398E0
2.212219932E0,5.267243981E-1,9.660603523E0,-1.051054597E0
2.214234092E0,5.291185975E-1,9.667786598E0,-1.055842996E0
2.216217735E0,5.267243981E-1,9.672574997E0,-1.065419793E0
2.218201377E0,5.219359994E-1,9.674968719E0,-1.074996591E0
2.220185020E0,5.291185975E-1,9.682151794E0,-1.082179189E0
2.222199180E0,5.315127969E-1,9.682151794E0,-1.082179189E0
2.224182822E0,5.339069963E-1,9.677363396E0,-1.086967587E0
2.226166465E0,5.458779931E-1,9.682151794E0,-1.094150186E0
2.228150108E0,5.530605912E-1,9.689333916E0,-1.094150186E0
2.230164268E0,5.626373887E-1,9.691728592E0,-1.086967587E0
2.232178428E0,5.817909837E-1,9.689333916E0,-1.086967587E0
2.234162071E0,5.937620401E-1,9.694122314E0,-1.089361787E0
2.236176231E0,5.913678408E-1,9.701305389E0,-1.096544385E0
2.238190391E0,5.937620401E-1,9.701305389E0,-1.103726983E0
2.240174033E0,5.961562395E-1,9.703699112E0,-1.113303781E0
2.242157676E0,5.961562395E-1,9.718064308E0,-1.127668977E0
2.244141319E0,5.889736414E-1,9.734824181E0,-1.134851575E0
2.246124961E0,5.817909837E-1,9.744400978E0,-1.134851575E0
2.248108604E0,5.889736414E-1,9.744400978E0,-1.137245774E0
2.250122764E0,5.937620401E-1,9.744400978E0,-1.132457376E0
2.252106406E0,5.913678408E-1,9.746794701E0,-1.127668977E0
2.254090049E0,5.961562395E-1,9.749189377E0,-1.122880578E0
2.256104209E0,6.081272364E-1,9.751583099E0,-1.125274777E0
2.258118369E0,6.129156351E-1,9.763554573E0,-1.130063176E0
2.260102012E0,6.105214357E-1,9.775525093E0,-1.130063176E0
2.262116172E0,6.009446383E-1,9.775525093E0,-1.130063176E0
2.264099815E0,5.865794420E-1,9.770736694E0,-1.122880578E0
2.266083457E0,5.674257874E-1,9.765948296E0,-1.122880578E0
2.268097617E0,5.578489900E-1,9.758766174E0,-1.132457376E0
2.270081260E0,5.530605912E-1,9.756371498E0,-1.127668977E0
2.272064903E0,5.482721925E-1,9.756371498E0,-1.122880578E0
2.274079063E0,5.386953950E-1,9.746794701E0,-1.125274777E0
2.276093223E0,5.291185975E-1,9.730035782E0,-1.130063176E0
2.278076865E0,5.195417404E-1,9.715670586E0,-1.130063176E0
2.280091026E0,5.195417404E-1,9.703699112E0,-1.127668977E0
2.282074668E0,5.147533417E-1,9.698910713E0,-1.122880578E0
2.284088828E0,5.027823448E-1,9.689333916E0,-1.113303781E0
2.286102988E0,4.908113480E-1,9.684545517E0,-1.110909581E0
2.288086631E0,4.812345505E-1,9.691728592E0,-1.108515382E0
2.290100791E0,4.716577232E-1,9.701305389E0,-1.108515382E0
2.292114951E0,4.716577232E-1,9.703699112E0,-1.103726983E0
2.294098594E0,4.716577232E-1,9.706093788E0,-1.094150186E0
2.296112754E0,4.740519226E-1,9.703699112E0,-1.084573388E0
2.298096397E0,4.836287498E-1,9.701305389E0,-1.074996591E0
2.300110557E0,5.003881454E-1,9.691728592E0,-1.065419793E0
2.302094199E0,5.171475410E-1,9.679757118E0,-1.055842996E0
2.304077842E0,5.291185975E-1,9.665391922E0,-1.055842996E0
2.306061485E0,5.386953950E-1,9.651026726E0,-1.065419793E0
2.308075645E0,5.482721925E-1,9.641449928E0,-1.079784989E0
2.310089805E0,5.506663918E-1,9.641449928E0,-1.101332784E0
2.312073447E0,5.434837937E-1,9.636661530E0,-1.120486379E0
2.314087608E0,5.410895944E-1,9.639056206E0,-1.130063176E0
2.316101768E0,5.386953950E-1,9.648633003E0,-1.134851575E0
2.318085410E0,5.410895944E-1,9.660603523E0,-1.142034173E0
2.320069053E0,5.458779931E-1,9.665391922E0,-1.139639974E0
2.322052696E0,5.434837937E-1,9.662998199E0,-1.134851575E0
2.324066856E0,5.554547906E-1,9.665391922E0,-1.127668977E0
2.326050498E0,5.698199868E-1,9.674968719E0,-1.120486379E0
2.328064658E0,5.770025849E-1,9.686940193E0,-1.110909581E0
2.330048301E0,5.817909837E-1,9.689333916E0,-1.094150186E0
2.332031944E0,5.841852427E-1,9.691728592E0,-1.082179189E0
2.334046104E0,5.889736414E-1,9.694122314E0,-1.072602391E0
2.336029746E0,5.841852427E-1,9.701305389E0,-1.065419793E0
2.338013389E0,5.817909837E-1,9.703699112E0,-1.055842996E0
2.340027549E0,5.793967843E-1,9.708487511E0,-1.041477680E0
2.342011192E0,5.841852427E-1,9.718064308E0,-1.024718285E0
2.343994834E0,5.913678408E-1,9.725247383E0,-1.010353088E0
2.346008994E0,6.033388376E-1,9.739612579E0,-9.959878922E-1
2.347992637E0,6.129156351E-1,9.746794701E0,-9.816226959E-1
2.349976280E0,6.248866320E-1,9.749189377E0,-9.720458984E-1
2.351990440E0,6.440402865E-1,9.751583099E0,-9.744400978E-1
2.353974082E0,6.607996821E-1,9.746794701E0,-9.816226959E-1
2.355957725E0,6.751648784E-1,9.737217903E0,-9.792284966E-1
2.357971885E0,6.895300746E-1,9.727641106E0,-9.840168953E-1
2.359955528E0,6.943184733E-1,9.727641106E0,-9.840168953E-1
2.361939170E0,7.062895298E-1,9.722852707E0,-9.864110947E-1
2.363892295E0,7.134721279E-1,9.710882187E0,-9.983820915E-1
2.365906455E0,7.254431248E-1,9.696516991E0,-1.012747288E0
2.367890098E0,7.374141216E-1,9.684545517E0,-1.022324085E0
2.369873740E0,7.493851185E-1,9.679757118E0,-1.024718285E0
2.371887901E0,7.541735172E-1,9.674968719E0,-1.022324085E0
2.373871543E0,7.445967197E-1,9.665391922E0,-1.022324085E0
2.375855186E0,7.517793179E-1,9.658209801E0,-1.029506683E0
2.377838828E0,7.613561153E-1,9.655815125E0,-1.024718285E0
2.379822471E0,7.637503147E-1,9.662998199E0,-1.017535686E0
2.381836631E0,7.685387731E-1,9.670180321E0,-1.015141487E0
2.383820274E0,7.685387731E-1,9.672574997E0,-1.010353088E0
2.385834434E0,7.709329724E-1,9.672574997E0,-1.015141487E0
2.387818076E0,7.661445141E-1,9.679757118E0,-1.022324085E0
2.389832237E0,7.685387731E-1,9.686940193E0,-1.027112484E0
2.391815879E0,7.733271718E-1,9.689333916E0,-1.034295082E0
2.393830039E0,7.805097699E-1,9.686940193E0,-1.043871999E0
2.395813682E0,7.829039693E-1,9.686940193E0,-1.058237195E0
2.397797324E0,7.781155705E-1,9.689333916E0,-1.074996591E0
2.399811485E0,7.829039693E-1,9.694122314E0,-1.094150186E0
2.401795127E0,7.900865674E-1,9.696516991E0,-1.108515382E0
2.403809287E0,7.924807668E-1,9.703699112E0,-1.113303781E0
2.405823447E0,7.948749661E-1,9.710882187E0,-1.113303781E0
2.407807090E0,7.876923680E-1,9.713275909E0,-1.113303781E0
2.409790733E0,7.805097699E-1,9.713275909E0,-1.113303781E0
2.411804893E0,7.781155705E-1,9.710882187E0,-1.122880578E0
2.413819053E0,7.805097699E-1,9.708487511E0,-1.134851575E0
2.415802696E0,7.781155705E-1,9.708487511E0,-1.132457376E0
2.417816856E0,7.757213712E-1,9.715670586E0,-1.115697980E0
2.419800498E0,7.757213712E-1,9.720458984E0,-1.106121182E0
2.421784141E0,7.709329724E-1,9.715670586E0,-1.094150186E0
2.423767783E0,7.805097699E-1,9.710882187E0,-1.091755986E0
2.425751426E0,7.900865674E-1,9.718064308E0,-1.089361787E0
2.427735069E0,7.948749661E-1,9.722852707E0,-1.089361787E0
2.429749229E0,7.972691655E-1,9.710882187E0,-1.086967587E0
2.431732871E0,8.020575643E-1,9.708487511E0,-1.077390790E0
2.433716514E0,8.092401624E-1,9.708487511E0,-1.065419793E0
2.435730674E0,8.116343617E-1,9.710882187E0,-1.055842996E0
2.437714317E0,8.164227605E-1,9.708487511E0,-1.046266198E0
2.439697959E0,8.259995580E-1,9.710882187E0,-1.041477680E0
2.441712119E0,8.259995580E-1,9.713275909E0,-1.031900883E0
2.443695762E0,8.283938169E-1,9.710882187E0,-1.024718285E0
2.445709922E0,8.331822157E-1,9.708487511E0,-1.022324085E0
2.447724082E0,8.355764151E-1,9.706093788E0,-1.010353088E0
2.449707725E0,8.355764151E-1,9.706093788E0,-1.010353088E0
2.451691367E0,8.379706144E-1,9.703699112E0,-1.024718285E0
2.453675010E0,8.355764151E-1,9.696516991E0,-1.029506683E0
2.455689170E0,8.355764151E-1,9.686940193E0,-1.039083481E0
2.457672813E0,8.307880163E-1,9.682151794E0,-1.046266198E0
2.459656455E0,8.212111592E-1,9.677363396E0,-1.043871999E0
2.461670615E0,8.188169599E-1,9.670180321E0,-1.048660398E0
2.463654258E0,8.164227605E-1,9.672574997E0,-1.051054597E0
2.465637901E0,8.188169599E-1,9.674968719E0,-1.046266198E0
2.467652061E0,8.188169599E-1,9.674968719E0,-1.043871999E0
2.469635703E0,8.164227605E-1,9.679757118E0,-1.034295082E0
2.471619346E0,8.188169599E-1,9.689333916E0,-1.022324085E0
2.473633506E0,8.140285611E-1,9.689333916E0,-1.017535686E0
2.475617149E0,8.116343617E-1,9.689333916E0,-1.017535686E0
2.477600791E0,8.116343617E-1,9.701305389E0,-1.010353088E0
2.479614951E0,8.116343617E-1,9.715670586E0,-9.911994934E-1
2.481598594E0,8.092401624E-1,9.720458984E0,-9.768342972E-1
2.483612754E0,8.068459630E-1,9.718064308E0,-9.696516991E-1
2.485626914E0,8.116343617E-1,9.718064308E0,-9.624691010E-1
2.487610557E0,8.212111592E-1,9.722852707E0,-9.576807022E-1
2.489624717E0,8.164227605E-1,9.732429504E0,-9.552865028E-1
2.491638877E0,8.188169599E-1,9.746794701E0,-9.600749016E-1
2.493622520E0,8.188169599E-1,9.753977776E0,-9.552865028E-1
2.495636680E0,8.140285611E-1,9.758766174E0,-9.504981041E-1
2.497620322E0,8.236053586E-1,9.770736694E0,-9.528923035E-1
2.499603965E0,8.283938169E-1,9.782708168E0,-9.528923035E-1
2.501618125E0,8.236053586E-1,9.789890289E0,-9.600749016E-1
2.503601768E0,8.259995580E-1,9.792284966E0,-9.648633003E-1
2.505585410E0,8.259995580E-1,9.801861763E0,-9.720458984E-1
2.507599571E0,8.259995580E-1,9.804255486E0,-9.816226959E-1
2.509583213E0,8.188169599E-1,9.801861763E0,-9.911994934E-1
2.511566856E0,8.140285611E-1,9.794678688E0,-9.959878922E-1
2.513581016E0,8.068459630E-1,9.780313492E0,-9.983820915E-1
2.515564658E0,8.068459630E-1,9.770736694E0,-1.000776291E0
2.517548301E0,8.068459630E-1,9.765948296E0,-1.000776291E0
2.519562461E0,8.044517636E-1,9.758766174E0,-1.005564690E0
2.521546104E0,7.900865674E-1,9.746794701E0,-1.010353088E0
2.523560264E0,7.757213712E-1,9.727641106E0,-1.019929886E0
2.525574424E0,7.661445141E-1,9.713275909E0,-1.019929886E0
2.527558067E0,7.589619160E-1,9.708487511E0,-1.015141487E0
2.529572227E0,7.517793179E-1,9.710882187E0,-1.015141487E0
2.531555869E0,7.493851185E-1,9.703699112E0,-1.015141487E0
2.533570030E0,7.469909191E-1,9.698910713E0,-1.015141487E0
2.535553672E0,7.445967197E-1,9.689333916E0,-1.019929886E0
2.537537315E0,7.422025204E-1,9.691728592E0,-1.019929886E0
2.539551475E0,7.374141216E-1,9.696516991E0,-1.015141487E0
2.541535117E0,7.254431248E-1,9.694122314E0,-1.019929886E0
2.543549278E0,7.206547260E-1,9.686940193E0,-1.029506683E0
2.545532920E0,7.182605267E-1,9.679757118E0,-1.031900883E0
2.547516563E0,7.182605267E-1,9.674968719E0,-1.027112484E0
2.549500205E0,7.134721279E-1,9.670180321E0,-1.024718285E0
2.551514365E0,7.110779285E-1,9.672574997E0,-1.024718285E0
2.553498008E0,7.134721279E-1,9.674968719E0,-1.024718285E0
2.555481651E0,7.134721279E-1,9.674968719E0,-1.022324085E0
2.557495811E0,7.206547260E-1,9.665391922E0,-1.015141487E0
2.559479453E0,7.278373241E-1,9.658209801E0,-1.010353088E0
2.561463096E0,7.326257229E-1,9.660603523E0,-1.015141487E0
2.563446738E0,7.374141216E-1,9.665391922E0,-1.015141487E0
2.565430381E0,7.422025204E-1,9.665391922E0,-1.010353088E0
2.567444541E0,7.445967197E-1,9.665391922E0,-1.007958889E0
2.569458701E0,7.422025204E-1,9.660603523E0,-1.005564690E0
2.571442344E0,7.469909191E-1,9.660603523E0,-1.003170490E0
2.573456504E0,7.493851185E-1,9.674968719E0,-1.003170490E0
2.575470664E0,7.493851185E-1,9.684545517E0,-1.003170490E0
2.577454307E0,7.469909191E-1,9.696516991E0,-9.983820915E-1
2.579468467E0,7.469909191E-1,9.706093788E0,-9.840168953E-1
2.581452110E0,7.493851185E-1,9.710882187E0,-9.768342972E-1
2.583466270E0,7.493851185E-1,9.715670586E0,-9.744400978E-1
2.585449912E0,7.517793179E-1,9.727641106E0,-9.696516991E-1
2.587433555E0,7.589619160E-1,9.727641106E0,-9.672574997E-1
2.589417197E0,7.613561153E-1,9.727641106E0,-9.648633003E-1
2.591431358E0,7.589619160E-1,9.730035782E0,-9.696516991E-1
2.593415000E0,7.589619160E-1,9.727641106E0,-9.816226959E-1
2.595398643E0,7.613561153E-1,9.725247383E0,-9.816226959E-1
2.597412803E0,7.613561153E-1,9.720458984E0,-9.792284966E-1
2.599396446E0,7.565677166E-1,9.720458984E0,-9.792284966E-1
2.601380088E0,7.422025204E-1,9.715670586E0,-9.840168953E-1
2.603363731E0,7.302315235E-1,9.718064308E0,-9.888052940E-1
2.605347373E0,7.182605267E-1,9.715670586E0,-9.888052940E-1
2.607361533E0,7.134721279E-1,9.715670586E0,-9.864110947E-1
2.609345176E0,7.134721279E-1,9.715670586E0,-9.816226959E-1
2.611328819E0,7.110779285E-1,9.713275909E0,-9.744400978E-1
2.613342979E0,7.110779285E-1,9.713275909E0,-9.696516991E-1
2.615326621E0,7.038952708E-1,9.710882187E0,-9.672574997E-1
2.617310264E0,6.919242740E-1,9.718064308E0,-9.648633003E-1
2.619324424E0,6.871358752E-1,9.722852707E0,-9.600749016E-1
2.621277549E0,6.871358752E-1,9.718064308E0,-9.552865028E-1
2.623291709E0,6.895300746E-1,9.703699112E0,-9.504981041E-1
2.625275352E0,7.062895298E-1,9.696516991E0,-9.528923035E-1
2.627289512E0,7.086837292E-1,9.696516991E0,-9.600749016E-1
2.629303672E0,7.038952708E-1,9.694122314E0,-9.648633003E-1
2.631287315E0,7.086837292E-1,9.684545517E0,-9.720458984E-1
2.633301475E0,7.038952708E-1,9.677363396E0,-9.816226959E-1
2.635315635E0,6.991068721E-1,9.670180321E0,-9.888052940E-1
2.637299278E0,6.991068721E-1,9.665391922E0,-9.983820915E-1
2.639313438E0,7.038952708E-1,9.662998199E0,-1.010353088E0
2.641297080E0,7.062895298E-1,9.665391922E0,-1.019929886E0
2.643311240E0,6.991068721E-1,9.662998199E0,-1.024718285E0
2.645294883E0,6.967126727E-1,9.660603523E0,-1.027112484E0
2.647278526E0,7.038952708E-1,9.667786598E0,-1.036689281E0
2.649292686E0,6.967126727E-1,9.674968719E0,-1.043871999E0
2.651306846E0,6.871358752E-1,9.674968719E0,-1.046266198E0
2.653290488E0,6.895300746E-1,9.674968719E0,-1.046266198E0
2.655304649E0,6.991068721E-1,9.677363396E0,-1.036689281E0
2.657318809E0,7.086837292E-1,9.677363396E0,-1.029506683E0
2.659302451E0,7.182605267E-1,9.684545517E0,-1.019929886E0
2.661316612E0,7.230489254E-1,9.686940193E0,-1.022324085E0
2.663300254E0,7.206547260E-1,9.677363396E0,-1.027112484E0
2.665283897E0,7.206547260E-1,9.670180321E0,-1.034295082E0
2.667298057E0,7.230489254E-1,9.677363396E0,-1.036689281E0
2.669281699E0,7.206547260E-1,9.686940193E0,-1.039083481E0
2.671265342E0,7.206547260E-1,9.684545517E0,-1.043871999E0
2.673279502E0,7.182605267E-1,9.684545517E0,-1.048660398E0
2.675293662E0,7.206547260E-1,9.691728592E0,-1.053448796E0
2.677277305E0,7.206547260E-1,9.696516991E0,-1.058237195E0
2.679291465E0,7.134721279E-1,9.701305389E0,-1.060631394E0
2.681275108E0,7.062895298E-1,9.710882187E0,-1.058237195E0
2.683289268E0,6.991068721E-1,9.725247383E0,-1.058237195E0
2.685272910E0,6.919242740E-1,9.732429504E0,-1.055842996E0
2.687256553E0,6.871358752E-1,9.737217903E0,-1.043871999E0
2.689270713E0,6.847416759E-1,9.737217903E0,-1.039083481E0
2.691284873E0,6.799532771E-1,9.737217903E0,-1.039083481E0
2.693268516E0,6.847416759E-1,9.737217903E0,-1.029506683E0
2.695282676E0,6.991068721E-1,9.734824181E0,-1.024718285E0
2.697266319E0,7.015010715E-1,9.720458984E0,-1.015141487E0
2.699280479E0,6.943184733E-1,9.701305389E0,-1.010353088E0
2.701233604E0,6.943184733E-1,9.691728592E0,-1.000776291E0
2.703217246E0,6.919242740E-1,9.691728592E0,-9.911994934E-1
2.705231406E0,6.847416759E-1,9.691728592E0,-9.840168953E-1
2.707215049E0,6.751648784E-1,9.682151794E0,-9.888052940E-1
2.709198692E0,6.703764796E-1,9.670180321E0,-9.911994934E-1
2.711212852E0,6.775590777E-1,9.653421402E0,-9.888052940E-1
2.713227012E0,6.799532771E-1,9.639056206E0,-9.840168953E-1
2.715210655E0,6.775590777E-1,9.639056206E0,-9.744400978E-1
2.717224815E0,6.703764796E-1,9.643844604E0,-9.672574997E-1
2.719208457E0,6.727706790E-1,9.651026726E0,-9.600749016E-1
2.721222617E0,6.751648784E-1,9.653421402E0,-9.504981041E-1
2.723206260E0,6.727706790E-1,9.648633003E0,-9.457096457E-1
2.725220420E0,6.631938815E-1,9.651026726E0,-9.361328483E-1
2.727234580E0,6.631938815E-1,9.660603523E0,-9.337386489E-1
2.729218223E0,6.823474765E-1,9.667786598E0,-9.241618514E-1
2.731201865E0,7.015010715E-1,9.679757118E0,-9.145850539E-1
2.733185508E0,7.110779285E-1,9.689333916E0,-9.074024558E-1
2.735199668E0,7.110779285E-1,9.701305389E0,-9.097966552E-1
2.737183311E0,7.158663273E-1,9.708487511E0,-9.193734527E-1
2.739166953E0,7.182605267E-1,9.720458984E0,-9.265560508E-1
2.741181113E0,7.230489254E-1,9.734824181E0,-9.217676520E-1
2.743164756E0,7.278373241E-1,9.742006302E0,-9.217676520E-1
2.745148399E0,7.469909191E-1,9.751583099E0,-9.241618514E-1
2.747132041E0,7.637503147E-1,9.761159897E0,-9.265560508E-1
2.749146201E0,7.757213712E-1,9.770736694E0,-9.265560508E-1
2.751160362E0,7.924807668E-1,9.775525093E0,-9.337386489E-1
2.753144004E0,8.020575643E-1,9.780313492E0,-9.457096457E-1
2.755158164E0,8.140285611E-1,9.782708168E0,-9.528923035E-1
2.757172324E0,8.259995580E-1,9.785101891E0,-9.696516991E-1
2.759155967E0,8.379706144E-1,9.785101891E0,-9.911994934E-1
2.761170127E0,8.499416113E-1,9.780313492E0,-1.012747288E0
2.763153770E0,8.667010069E-1,9.765948296E0,-1.029506683E0
2.765167930E0,8.738836050E-1,9.753977776E0,-1.036689281E0
2.767151572E0,8.786720037E-1,9.742006302E0,-1.034295082E0
2.769165733E0,8.858546019E-1,9.739612579E0,-1.034295082E0
2.771149375E0,8.954314590E-1,9.727641106E0,-1.046266198E0
2.773133018E0,8.954314590E-1,9.722852707E0,-1.043871999E0
2.775147178E0,8.930372596E-1,9.730035782E0,-1.043871999E0
2.777161338E0,8.810662031E-1,9.727641106E0,-1.046266198E0
2.779144981E0,8.690952063E-1,9.722852707E0,-1.039083481E0
2.781159141E0,8.667010069E-1,9.730035782E0,-1.029506683E0
2.783142783E0,8.667010069E-1,9.737217903E0,-1.022324085E0
2.785126426E0,8.619126081E-1,9.739612579E0,-1.010353088E0
2.787140586E0,8.523358107E-1,9.739612579E0,-1.010353088E0
2.789124229E0,8.379706144E-1,9.739612579E0,-1.012747288E0
2.791107871E0,8.331822157E-1,9.744400978E0,-1.012747288E0
2.793122031E0,8.307880163E-1,9.749189377E0,-1.010353088E0
2.795105674E0,8.212111592E-1,9.749189377E0,-1.010353088E0
2.797089317E0,8.188169599E-1,9.742006302E0,-1.019929886E0
2.799103477E0,8.188169599E-1,9.730035782E0,-1.029506683E0
2.801087119E0,8.140285611E-1,9.722852707E0,-1.031900883E0
2.803101280E0,8.020575643E-1,9.720458984E0,-1.039083481E0
2.805115440E0,7.900865674E-1,9.713275909E0,-1.046266198E0
2.807129600E0,7.781155705E-1,9.708487511E0,-1.039083481E0
2.809113242E0,7.757213712E-1,9.703699112E0,-1.043871999E0
2.811127403E0,7.685387731E-1,9.691728592E0,-1.055842996E0
2.813141563E0,7.541735172E-1,9.684545517E0,-1.063025594E0
2.815125205E0,7.398083210E-1,9.682151794E0,-1.063025594E0
2.817139365E0,7.302315235E-1,9.679757118E0,-1.053448796E0
2.819153526E0,7.230489254E-1,9.679757118E0,-1.053448796E0
2.821137168E0,7.134721279E-1,9.682151794E0,-1.053448796E0
2.823120811E0,6.991068721E-1,9.686940193E0,-1.034295082E0
2.825104453E0,6.871358752E-1,9.691728592E0,-1.015141487E0
2.827088096E0,6.895300746E-1,9.701305389E0,-1.000776291E0
2.829102256E0,6.871358752E-1,9.706093788E0,-9.864110947E-1
2.831085899E0,6.727706790E-1,9.701305389E0,-9.720458984E-1
2.833069541E0,6.631938815E-1,9.691728592E0,-9.624691010E-1
2.835083701E0,6.631938815E-1,9.698910713E0,-9.481038451E-1
2.837097862E0,6.655880809E-1,9.710882187E0,-9.433154464E-1
2.839081504E0,6.679822803E-1,9.708487511E0,-9.433154464E-1
2.841065147E0,6.655880809E-1,9.698910713E0,-9.433154464E-1
2.843048789E0,6.631938815E-1,9.694122314E0,-9.385270476E-1
2.845032432E0,6.703764796E-1,9.696516991E0,-9.361328483E-1
2.847016074E0,6.703764796E-1,9.703699112E0,-9.409212470E-1
2.849030235E0,6.727706790E-1,9.710882187E0,-9.433154464E-1
2.851013877E0,6.847416759E-1,9.718064308E0,-9.385270476E-1
2.852997520E0,6.943184733E-1,9.722852707E0,-9.337386489E-1
2.855011680E0,7.110779285E-1,9.718064308E0,-9.337386489E-1
2.856995322E0,7.134721279E-1,9.722852707E0,-9.361328483E-1
2.859009483E0,7.110779285E-1,9.727641106E0,-9.385270476E-1
2.860962608E0,7.134721279E-1,9.730035782E0,-9.433154464E-1
2.862976768E0,7.230489254E-1,9.737217903E0,-9.481038451E-1
2.864960410E0,7.302315235E-1,9.732429504E0,-9.481038451E-1
2.866974571E0,7.374141216E-1,9.727641106E0,-9.481038451E-1
2.868988731E0,7.445967197E-1,9.727641106E0,-9.576807022E-1
2.870972373E0,7.541735172E-1,9.730035782E0,-9.672574997E-1
2.872986533E0,7.637503147E-1,9.730035782E0,-9.696516991E-1
2.875000694E0,7.661445141E-1,9.725247383E0,-9.816226959E-1
2.876984336E0,7.613561153E-1,9.718064308E0,-9.864110947E-1
2.878998496E0,7.589619160E-1,9.722852707E0,-9.911994934E-1
2.880982139E0,7.589619160E-1,9.722852707E0,-1.005564690E0
2.882996299E0,7.637503147E-1,9.715670586E0,-1.007958889E0
2.885010459E0,7.709329724E-1,9.708487511E0,-1.000776291E0
2.886994102E0,7.757213712E-1,9.701305389E0,-9.959878922E-1
2.889008262E0,7.829039693E-1,9.686940193E0,-1.000776291E0
2.890991905E0,7.852981687E-1,9.670180321E0,-1.012747288E0
2.892975547E0,7.900865674E-1,9.662998199E0,-1.017535686E0
2.894989707E0,7.948749661E-1,9.653421402E0,-1.031900883E0
2.897003867E0,7.972691655E-1,9.648633003E0,-1.048660398E0
2.898987510E0,7.924807668E-1,9.641449928E0,-1.060631394E0
2.901001670E0,7.805097699E-1,9.636661530E0,-1.060631394E0
2.902985313E0,7.685387731E-1,9.627084732E0,-1.053448796E0
2.904968955E0,7.637503147E-1,9.619902611E0,-1.051054597E0
2.906983115E0,7.565677166E-1,9.622296333E0,-1.046266198E0
2.908966758E0,7.541735172E-1,9.617507935E0,-1.043871999E0
2.910950401E0,7.613561153E-1,9.605537415E0,-1.041477680E0
2.912964561E0,7.685387731E-1,9.607931137E0,-1.039083481E0
2.914978721E0,7.709329724E-1,9.610325813E0,-1.022324085E0
2.916962363E0,7.589619160E-1,9.610325813E0,-1.010353088E0
2.918976524E0,7.541735172E-1,9.610325813E0,-9.983820915E-1
2.920960166E0,7.493851185E-1,9.605537415E0,-9.911994934E-1
2.922974326E0,7.422025204E-1,9.598354340E0,-9.959878922E-1
2.924988487E0,7.374141216E-1,9.600749016E0,-9.935936928E-1
2.926972129E0,7.350199223E-1,9.605537415E0,-9.864110947E-1
2.928986289E0,7.254431248E-1,9.615114212E0,-9.888052940E-1
2.930969932E0,7.206547260E-1,9.631873131E0,-9.935936928E-1
2.932984092E0,7.182605267E-1,9.631873131E0,-9.959878922E-1
2.934967735E0,7.134721279E-1,9.631873131E0,-9.935936928E-1
2.936951377E0,7.110779285E-1,9.641449928E0,-9.911994934E-1
2.938965537E0,7.134721279E-1,9.653421402E0,-9.959878922E-1
2.940979697E0,7.230489254E-1,9.660603523E0,-9.935936928E-1
2.942963340E0,7.230489254E-1,9.665391922E0,-9.959878922E-1
2.944946983E0,7.206547260E-1,9.672574997E0,-1.005564690E0
2.946961143E0,7.230489254E-1,9.679757118E0,-1.003170490E0
2.948944785E0,7.302315235E-1,9.684545517E0,-9.959878922E-1
2.950928428E0,7.326257229E-1,9.694122314E0,-9.959878922E-1
2.952942588E0,7.350199223E-1,9.706093788E0,-9.959878922E-1
2.954956748E0,7.374141216E-1,9.708487511E0,-9.911994934E-1
2.956940391E0,7.493851185E-1,9.713275909E0,-9.840168953E-1
2.958954551E0,7.565677166E-1,9.720458984E0,-9.768342972E-1
2.960938194E0,7.637503147E-1,9.718064308E0,-9.696516991E-1
2.962952354E0,7.709329724E-1,9.710882187E0,-9.600749016E-1
2.964966514E0,7.852981687E-1,9.701305389E0,-9.457096457E-1
2.966950156E0,7.948749661E-1,9.703699112E0,-9.337386489E-1
2.968964317E0,8.092401624E-1,9.710882187E0,-9.361328483E-1
2.970978477E0,8.116343617E-1,9.710882187E0,-9.337386489E-1
2.972962119E0,8.092401624E-1,9.713275909E0,-9.313444495E-1
2.974976280E0,8.092401624E-1,9.715670586E0,-9.313444495E-1
2.976959922E0,8.140285611E-1,9.715670586E0,-9.289502501E-1
2.978974082E0,8.188169599E-1,9.722852707E0,-9.313444495E-1
2.980957725E0,8.259995580E-1,9.732429504E0,-9.385270476E-1
2.982941367E0,8.307880163E-1,9.730035782E0,-9.457096457E-1
2.984925010E0,8.355764151E-1,9.725247383E0,-9.552865028E-1
2.986939170E0,8.523358107E-1,9.734824181E0,-9.624691010E-1
2.988953330E0,8.523358107E-1,9.753977776E0,-9.672574997E-1
2.990936973E0,8.523358107E-1,9.758766174E0,-9.672574997E-1
2.992920615E0,8.427590132E-1,9.761159897E0,-9.744400978E-1
2.994904258E0,8.307880163E-1,9.765948296E0,-9.911994934E-1
2.996887901E0,8.283938169E-1,9.768342972E0,-1.010353088E0
2.998902061E0,8.307880163E-1,9.761159897E0,-1.010353088E0
3.000855186E0,8.283938169E-1,9.744400978E0,-1.010353088E0
3.002869346E0,8.307880163E-1,9.732429504E0,-1.015141487E0
3.004883506E0,8.283938169E-1,9.720458984E0,-1.029506683E0
3.006897666E0,8.331822157E-1,9.710882187E0,-1.036689281E0
3.008881309E0,8.212111592E-1,9.703699112E0,-1.029506683E0
3.010895469E0,8.020575643E-1,9.689333916E0,-1.031900883E0
3.012909629E0,7.876923680E-1,9.682151794E0,-1.043871999E0
3.014893272E0,7.781155705E-1,9.684545517E0,-1.046266198E0
3.016876914E0,7.709329724E-1,9.677363396E0,-1.046266198E0
3.018891074E0,7.613561153E-1,9.672574997E0,-1.039083481E0
3.020874717E0,7.565677166E-1,9.665391922E0,-1.041477680E0
3.022858360E0,7.541735172E-1,9.662998199E0,-1.043871999E0
3.024842002E0,7.517793179E-1,9.658209801E0,-1.039083481E0
3.026825645E0,7.541735172E-1,9.653421402E0,-1.036689281E0
3.028839805E0,7.541735172E-1,9.646238327E0,-1.029506683E0
3.030823447E0,7.637503147E-1,9.648633003E0,-1.024718285E0
3.032807090E0,7.709329724E-1,9.653421402E0,-1.019929886E0
3.034821250E0,7.709329724E-1,9.658209801E0,-1.017535686E0
3.036804893E0,7.637503147E-1,9.658209801E0,-1.010353088E0
3.038819053E0,7.565677166E-1,9.658209801E0,-1.003170490E0
3.040802696E0,7.445967197E-1,9.662998199E0,-1.000776291E0
3.042786338E0,7.398083210E-1,9.672574997E0,-9.983820915E-1
3.044769981E0,7.350199223E-1,9.679757118E0,-9.983820915E-1
3.046753623E0,7.326257229E-1,9.686940193E0,-9.935936928E-1
3.048767783E0,7.326257229E-1,9.701305389E0,-9.864110947E-1
3.050751426E0,7.350199223E-1,9.710882187E0,-9.768342972E-1
3.052735069E0,7.374141216E-1,9.713275909E0,-9.720458984E-1
3.054749229E0,7.374141216E-1,9.715670586E0,-9.672574997E-1
3.056763389E0,7.422025204E-1,9.720458984E0,-9.648633003E-1
3.058747031E0,7.493851185E-1,9.725247383E0,-9.648633003E-1
3.060761192E0,7.517793179E-1,9.727641106E0,-9.600749016E-1
3.062744834E0,7.565677166E-1,9.730035782E0,-9.433154464E-1
3.064728477E0,7.637503147E-1,9.739612579E0,-9.337386489E-1
3.066742637E0,7.637503147E-1,9.746794701E0,-9.313444495E-1
3.068726280E0,7.565677166E-1,9.749189377E0,-9.265560508E-1
3.070709922E0,7.541735172E-1,9.746794701E0,-9.217676520E-1
3.072724082E0,7.589619160E-1,9.753977776E0,-9.265560508E-1
3.074707725E0,7.565677166E-1,9.751583099E0,-9.289502501E-1
3.076691367E0,7.517793179E-1,9.758766174E0,-9.193734527E-1
3.078705528E0,7.517793179E-1,9.758766174E0,-9.265560508E-1
3.080689170E0,7.541735172E-1,9.756371498E0,-9.409212470E-1
3.082703330E0,7.493851185E-1,9.758766174E0,-9.409212470E-1
3.084686973E0,7.493851185E-1,9.761159897E0,-9.385270476E-1
3.086670615E0,7.469909191E-1,9.763554573E0,-9.433154464E-1
3.088684776E0,7.422025204E-1,9.756371498E0,-9.433154464E-1
3.090698936E0,7.445967197E-1,9.744400978E0,-9.385270476E-1
3.092682578E0,7.398083210E-1,9.746794701E0,-9.409212470E-1
3.094696738E0,7.445967197E-1,9.744400978E0,-9.457096457E-1
3.096680381E0,7.517793179E-1,9.744400978E0,-9.457096457E-1
3.098694541E0,7.445967197E-1,9.753977776E0,-9.361328483E-1
3.100678184E0,7.422025204E-1,9.758766174E0,-9.313444495E-1
3.102661826E0,7.493851185E-1,9.765948296E0,-9.337386489E-1
3.104645469E0,7.589619160E-1,9.761159897E0,-9.409212470E-1
3.106659629E0,7.637503147E-1,9.758766174E0,-9.481038451E-1
3.108673789E0,7.661445141E-1,9.758766174E0,-9.552865028E-1
3.110657432E0,7.709329724E-1,9.761159897E0,-9.624691010E-1
3.112641074E0,7.685387731E-1,9.756371498E0,-9.768342972E-1
3.114624717E0,7.589619160E-1,9.749189377E0,-9.840168953E-1
3.116638877E0,7.589619160E-1,9.751583099E0,-9.840168953E-1
3.118622520E0,7.685387731E-1,9.756371498E0,-9.888052940E-1
3.120606162E0,7.709329724E-1,9.758766174E0,-9.888052940E-1
3.122589805E0,7.685387731E-1,9.763554573E0,-9.864110947E-1
3.124573447E0,7.613561153E-1,9.765948296E0,-9.911994934E-1
3.126587608E0,7.589619160E-1,9.768342972E0,-9.935936928E-1
3.128601768E0,7.541735172E-1,9.770736694E0,-9.983820915E-1
3.130585410E0,7.493851185E-1,9.770736694E0,-1.003170490E0
3.132599571E0,7.493851185E-1,9.765948296E0,-9.911994934E-1
3.134613731E0,7.517793179E-1,9.768342972E0,-9.911994934E-1
3.136597373E0,7.469909191E-1,9.770736694E0,-9.840168953E-1
3.138611533E0,7.469909191E-1,9.763554573E0,-9.768342972E-1
3.140595176E0,7.541735172E-1,9.761159897E0,-9.696516991E-1
3.142578819E0,7.613561153E-1,9.753977776E0,-9.576807022E-1
3.144592979E0,7.589619160E-1,9.744400978E0,-9.528923035E-1
3.146576621E0,7.565677166E-1,9.737217903E0,-9.457096457E-1
3.148560264E0,7.541735172E-1,9.737217903E0,-9.433154464E-1
3.150574424E0,7.541735172E-1,9.737217903E0,-9.433154464E-1
3.152558067E0,7.517793179E-1,9.732429504E0,-9.361328483E-1
3.154541709E0,7.469909191E-1,9.720458984E0,-9.313444495E-1
3.156555869E0,7.493851185E-1,9.715670586E0,-9.361328483E-1
3.158539512E0,7.541735172E-1,9.715670586E0,-9.481038451E-1
3.160523155E0,7.613561153E-1,9.718064308E0,-9.528923035E-1
3.162476280E0,7.661445141E-1,9.710882187E0,-9.504981041E-1
3.164490440E0,7.685387731E-1,9.713275909E0,-9.528923035E-1
3.166474082E0,7.685387731E-1,9.708487511E0,-9.624691010E-1
3.168457725E0,7.661445141E-1,9.706093788E0,-9.744400978E-1
3.170471885E0,7.613561153E-1,9.710882187E0,-9.816226959E-1
3.172455528E0,7.565677166E-1,9.703699112E0,-9.768342972E-1
3.174439170E0,7.613561153E-1,9.691728592E0,-9.792284966E-1
3.176453330E0,7.757213712E-1,9.689333916E0,-9.840168953E-1
3.178467490E0,7.829039693E-1,9.694122314E0,-9.864110947E-1
3.180451133E0,7.852981687E-1,9.696516991E0,-9.840168953E-1
3.182434776E0,7.757213712E-1,9.686940193E0,-9.768342972E-1
3.184418418E0,7.637503147E-1,9.679757118E0,-9.720458984E-1
3.186402061E0,7.613561153E-1,9.672574997E0,-9.696516991E-1
3.188416221E0,7.613561153E-1,9.667786598E0,-9.672574997E-1
3.190399863E0,7.661445141E-1,9.667786598E0,-9.648633003E-1
3.192383506E0,7.685387731E-1,9.660603523E0,-9.624691010E-1
3.194397666E0,7.685387731E-1,9.660603523E0,-9.624691010E-1
3.196411826E0,7.709329724E-1,9.653421402E0,-9.672574997E-1
3.198395469E0,7.829039693E-1,9.651026726E0,-9.696516991E-1
3.200409629E0,7.805097699E-1,9.653421402E0,-9.840168953E-1
3.202362754E0,7.757213712E-1,9.660603523E0,-9.983820915E-1
3.204376914E0,7.733271718E-1,9.655815125E0,-1.003170490E0
3.206360557E0,7.757213712E-1,9.646238327E0,-1.005564690E0
3.208344199E0,7.805097699E-1,9.643844604E0,-1.010353088E0
3.210358360E0,7.805097699E-1,9.636661530E0,-1.022324085E0
3.212342002E0,7.852981687E-1,9.627084732E0,-1.029506683E0
3.214325645E0,7.876923680E-1,9.619902611E0,-1.039083481E0
3.216339805E0,7.876923680E-1,9.619902611E0,-1.051054597E0
3.218323447E0,7.829039693E-1,9.622296333E0,-1.055842996E0
3.220307090E0,7.757213712E-1,9.612719536E0,-1.055842996E0
3.222290733E0,7.709329724E-1,9.612719536E0,-1.055842996E0
3.224274375E0,7.637503147E-1,9.622296333E0,-1.043871999E0
3.226258018E0,7.517793179E-1,9.627084732E0,-1.039083481E0
3.228272178E0,7.445967197E-1,9.634267807E0,-1.031900883E0
3.230255821E0,7.469909191E-1,9.641449928E0,-1.022324085E0
3.232239463E0,7.517793179E-1,9.646238327E0,-1.022324085E0
3.234253623E0,7.589619160E-1,9.655815125E0,-1.019929886E0
3.236267783E0,7.541735172E-1,9.658209801E0,-1.007958889E0
3.238251426E0,7.541735172E-1,9.658209801E0,-1.003170490E0
3.240235069E0,7.541735172E-1,9.667786598E0,-1.000776291E0
3.242218711E0,7.589619160E-1,9.674968719E0,-9.983820915E-1
3.244202354E0,7.685387731E-1,9.689333916E0,-1.003170490E0
3.246185996E0,7.709329724E-1,9.701305389E0,-1.015141487E0
3.248200156E0,7.661445141E-1,9.706093788E0,-1.017535686E0
3.250183799E0,7.685387731E-1,9.710882187E0,-1.010353088E0
3.252167442E0,7.757213712E-1,9.725247383E0,-1.003170490E0
3.254181602E0,7.781155705E-1,9.732429504E0,-1.005564690E0
3.256195762E0,7.709329724E-1,9.734824181E0,-1.010353088E0
3.258179405E0,7.637503147E-1,9.742006302E0,-9.983820915E-1
3.260163047E0,7.637503147E-1,9.746794701E0,-9.864110947E-1
3.262146690E0,7.661445141E-1,9.751583099E0,-9.816226959E-1
3.264130332E0,7.637503147E-1,9.761159897E0,-9.696516991E-1
3.266144492E0,7.661445141E-1,9.758766174E0,-9.720458984E-1
3.268128135E0,7.661445141E-1,9.753977776E0,-9.792284966E-1
3.270111778E0,7.637503147E-1,9.746794701E0,-9.816226959E-1
3.272125938E0,7.613561153E-1,9.744400978E0,-9.792284966E-1
3.274140098E0,7.613561153E-1,9.744400978E0,-9.696516991E-1
3.276123740E0,7.685387731E-1,9.737217903E0,-9.624691010E-1
3.278137901E0,7.757213712E-1,9.739612579E0,-9.672574997E-1
3.280121543E0,7.733271718E-1,9.737217903E0,-9.768342972E-1
3.282135703E0,7.661445141E-1,9.727641106E0,-9.816226959E-1
3.284149863E0,7.661445141E-1,9.718064308E0,-9.816226959E-1
3.286133506E0,7.637503147E-1,9.710882187E0,-9.768342972E-1
3.288147666E0,7.589619160E-1,9.703699112E0,-9.816226959E-1
3.290161826E0,7.517793179E-1,9.696516991E0,-9.888052940E-1
3.292145469E0,7.422025204E-1,9.686940193E0,-9.935936928E-1
3.294159629E0,7.302315235E-1,9.672574997E0,-9.888052940E-1
3.296173789E0,7.206547260E-1,9.665391922E0,-9.864110947E-1
3.298157432E0,7.134721279E-1,9.665391922E0,-9.864110947E-1
3.300141074E0,7.062895298E-1,9.658209801E0,-9.983820915E-1
3.302124717E0,7.015010715E-1,9.646238327E0,-1.005564690E0
3.304108360E0,7.015010715E-1,9.631873131E0,-1.019929886E0
3.306122520E0,6.991068721E-1,9.627084732E0,-1.036689281E0
3.308136680E0,6.943184733E-1,9.629479408E0,-1.039083481E0
3.310120322E0,6.919242740E-1,9.627084732E0,-1.048660398E0
3.312134483E0,6.847416759E-1,9.622296333E0,-1.058237195E0
3.314148643E0,6.847416759E-1,9.615114212E0,-1.063025594E0
3.316132285E0,6.847416759E-1,9.617507935E0,-1.060631394E0
3.318146446E0,6.823474765E-1,9.615114212E0,-1.063025594E0
3.320130088E0,6.775590777E-1,9.615114212E0,-1.070208192E0
3.322144248E0,6.799532771E-1,9.615114212E0,-1.074996591E0
3.324158408E0,6.823474765E-1,9.624691010E0,-1.079784989E0
3.326142051E0,6.847416759E-1,9.634267807E0,-1.084573388E0
3.328156211E0,6.871358752E-1,9.643844604E0,-1.084573388E0
3.330170371E0,6.871358752E-1,9.648633003E0,-1.079784989E0
3.332154014E0,6.775590777E-1,9.651026726E0,-1.082179189E0
3.334168174E0,6.703764796E-1,9.658209801E0,-1.086967587E0
3.336151817E0,6.655880809E-1,9.667786598E0,-1.086967587E0
3.338165977E0,6.655880809E-1,9.677363396E0,-1.079784989E0
3.340149619E0,6.751648784E-1,9.694122314E0,-1.074996591E0
3.342133262E0,6.799532771E-1,9.703699112E0,-1.074996591E0
3.344116905E0,6.799532771E-1,9.715670586E0,-1.070208192E0
3.346131065E0,6.823474765E-1,9.730035782E0,-1.055842996E0
3.348145225E0,6.895300746E-1,9.742006302E0,-1.053448796E0
3.350128867E0,6.919242740E-1,9.753977776E0,-1.048660398E0
3.352143028E0,6.943184733E-1,9.763554573E0,-1.041477680E0
3.354157188E0,6.991068721E-1,9.775525093E0,-1.036689281E0
3.356140830E0,6.991068721E-1,9.785101891E0,-1.029506683E0
3.358154990E0,7.015010715E-1,9.794678688E0,-1.022324085E0
3.360138633E0,6.991068721E-1,9.818621635E0,-1.010353088E0
3.362152793E0,6.991068721E-1,9.835380554E0,-9.816226959E-1
3.364166953E0,6.919242740E-1,9.837775230E0,-9.672574997E-1
3.366150596E0,6.943184733E-1,9.840168953E0,-9.744400978E-1
3.368164756E0,7.086837292E-1,9.837775230E0,-9.792284966E-1
3.370178916E0,7.230489254E-1,9.837775230E0,-9.672574997E-1
3.372162559E0,7.326257229E-1,9.835380554E0,-9.504981041E-1
3.374146201E0,7.326257229E-1,9.835380554E0,-9.457096457E-1
3.376129844E0,7.398083210E-1,9.830592155E0,-9.409212470E-1
3.378144004E0,7.445967197E-1,9.825803757E0,-9.385270476E-1
3.380097129E0,7.422025204E-1,9.823410034E0,-9.481038451E-1
3.382111289E0,7.469909191E-1,9.809044838E0,-9.624691010E-1
3.384094932E0,7.589619160E-1,9.794678688E0,-9.648633003E-1
3.386109092E0,7.637503147E-1,9.789890289E0,-9.624691010E-1
3.388123252E0,7.637503147E-1,9.780313492E0,-9.768342972E-1
3.390106895E0,7.709329724E-1,9.768342972E0,-1.000776291E0
3.392090537E0,7.900865674E-1,9.749189377E0,-1.015141487E0
3.394074180E0,8.020575643E-1,9.730035782E0,-1.017535686E0
3.396088340E0,7.948749661E-1,9.708487511E0,-1.024718285E0
3.398071983E0,7.876923680E-1,9.689333916E0,-1.031900883E0
3.400055625E0,7.924807668E-1,9.670180321E0,-1.039083481E0
3.402039268E0,7.924807668E-1,9.651026726E0,-1.051054597E0
3.404053428E0,7.924807668E-1,9.629479408E0,-1.060631394E0
3.406037071E0,7.924807668E-1,9.610325813E0,-1.058237195E0
3.408020713E0,7.900865674E-1,9.595960617E0,-1.053448796E0
3.410004356E0,7.733271718E-1,9.588777542E0,-1.051054597E0
3.412018516E0,7.661445141E-1,9.581595421E0,-1.048660398E0
3.414002158E0,7.637503147E-1,9.576807022E0,-1.046266198E0
3.415985801E0,7.589619160E-1,9.572018623E0,-1.043871999E0
3.417999961E0,7.637503147E-1,9.567230225E0,-1.039083481E0
3.419983604E0,7.637503147E-1,9.562441826E0,-1.039083481E0
3.421997764E0,7.613561153E-1,9.557653427E0,-1.036689281E0
3.423981406E0,7.613561153E-1,9.557653427E0,-1.024718285E0
3.425995567E0,7.589619160E-1,9.555258751E0,-1.019929886E0
3.428009727E0,7.613561153E-1,9.555258751E0,-1.017535686E0
3.429993369E0,7.685387731E-1,9.557653427E0,-1.015141487E0
3.431977012E0,7.661445141E-1,9.562441826E0,-1.024718285E0
3.433960655E0,7.565677166E-1,9.564835548E0,-1.036689281E0
3.435974815E0,7.493851185E-1,9.574412346E0,-1.039083481E0
3.437958457E0,7.398083210E-1,9.583989143E0,-1.039083481E0
3.439942100E0,7.302315235E-1,9.598354340E0,-1.034295082E0
3.441925742E0,7.206547260E-1,9.615114212E0,-1.043871999E0
3.443909385E0,7.182605267E-1,9.624691010E0,-1.053448796E0
3.445923545E0,7.158663273E-1,9.631873131E0,-1.053448796E0
3.447907188E0,7.134721279E-1,9.646238327E0,-1.055842996E0
3.449890830E0,7.086837292E-1,9.660603523E0,-1.058237195E0
3.451904990E0,7.015010715E-1,9.665391922E0,-1.053448796E0
3.453919151E0,6.943184733E-1,9.670180321E0,-1.046266198E0
3.455902793E0,6.919242740E-1,9.672574997E0,-1.036689281E0
3.457916953E0,6.919242740E-1,9.686940193E0,-1.029506683E0
3.459900596E0,6.919242740E-1,9.701305389E0,-1.029506683E0
3.461884238E0,6.847416759E-1,9.713275909E0,-1.029506683E0
3.463898399E0,6.775590777E-1,9.720458984E0,-1.022324085E0
3.465882041E0,6.703764796E-1,9.718064308E0,-1.015141487E0
3.467865684E0,6.655880809E-1,9.722852707E0,-1.003170490E0
3.469879844E0,6.607996821E-1,9.730035782E0,-9.983820915E-1
3.471863487E0,6.607996821E-1,9.734824181E0,-1.003170490E0
3.473847129E0,6.631938815E-1,9.732429504E0,-1.005564690E0
3.475861289E0,6.536170840E-1,9.739612579E0,-1.007958889E0
3.477844932E0,6.464344859E-1,9.751583099E0,-1.012747288E0
3.479828574E0,6.392518282E-1,9.758766174E0,-1.015141487E0
3.481781699E0,6.296750307E-1,9.765948296E0,-1.017535686E0
3.483795860E0,6.320692301E-1,9.780313492E0,-1.027112484E0
3.485779502E0,6.320692301E-1,9.789890289E0,-1.027112484E0
3.487763145E0,6.296750307E-1,9.794678688E0,-1.015141487E0
3.489777305E0,6.320692301E-1,9.797073364E0,-1.010353088E0
3.491760947E0,6.272808313E-1,9.806650162E0,-1.007958889E0
3.493744590E0,6.320692301E-1,9.806650162E0,-1.007958889E0
3.495758750E0,6.464344859E-1,9.811438560E0,-1.005564690E0
3.497772910E0,6.536170840E-1,9.804255486E0,-9.983820915E-1
3.499756553E0,6.584054828E-1,9.804255486E0,-1.007958889E0
3.501740196E0,6.727706790E-1,9.801861763E0,-1.017535686E0
3.503723838E0,6.703764796E-1,9.787496567E0,-1.024718285E0
3.505707481E0,6.727706790E-1,9.782708168E0,-1.031900883E0
3.507721641E0,6.775590777E-1,9.780313492E0,-1.031900883E0
3.509705283E0,6.871358752E-1,9.765948296E0,-1.029506683E0
3.511688926E0,6.943184733E-1,9.749189377E0,-1.024718285E0
3.513703086E0,6.871358752E-1,9.742006302E0,-1.017535686E0
3.515686729E0,6.871358752E-1,9.737217903E0,-1.015141487E0
3.517700889E0,6.943184733E-1,9.727641106E0,-1.012747288E0
3.519684531E0,6.991068721E-1,9.718064308E0,-1.019929886E0
3.521668174E0,7.038952708E-1,9.710882187E0,-1.024718285E0
3.523651817E0,7.134721279E-1,9.696516991E0,-1.027112484E0
3.525635459E0,7.230489254E-1,9.694122314E0,-1.029506683E0
3.527649619E0,7.302315235E-1,9.698910713E0,-1.024718285E0
3.529633262E0,7.374141216E-1,9.694122314E0,-1.029506683E0
3.531616905E0,7.422025204E-1,9.686940193E0,-1.024718285E0
3.533631065E0,7.517793179E-1,9.672574997E0,-1.029506683E0
3.535614707E0,7.613561153E-1,9.672574997E0,-1.039083481E0
3.537598350E0,7.685387731E-1,9.674968719E0,-1.048660398E0
3.539612510E0,7.781155705E-1,9.667786598E0,-1.055842996E0
3.541596153E0,7.876923680E-1,9.667786598E0,-1.060631394E0
3.543579795E0,7.876923680E-1,9.670180321E0,-1.070208192E0
3.545593955E0,7.876923680E-1,9.672574997E0,-1.077390790E0
3.547577598E0,7.852981687E-1,9.672574997E0,-1.082179189E0
3.549561240E0,7.781155705E-1,9.674968719E0,-1.077390790E0
3.551575401E0,7.709329724E-1,9.672574997E0,-1.072602391E0
3.553559043E0,7.733271718E-1,9.667786598E0,-1.082179189E0
3.555542686E0,7.781155705E-1,9.662998199E0,-1.094150186E0
3.557556846E0,7.757213712E-1,9.660603523E0,-1.089361787E0
3.559540488E0,7.757213712E-1,9.658209801E0,-1.094150186E0
3.561554649E0,7.733271718E-1,9.660603523E0,-1.096544385E0
3.563568809E0,7.757213712E-1,9.665391922E0,-1.098938584E0
3.565552451E0,7.805097699E-1,9.662998199E0,-1.103726983E0
3.567566612E0,7.829039693E-1,9.670180321E0,-1.101332784E0
3.569580772E0,7.781155705E-1,9.672574997E0,-1.091755986E0
3.571564414E0,7.757213712E-1,9.670180321E0,-1.082179189E0
3.573548057E0,7.805097699E-1,9.677363396E0,-1.079784989E0
3.575531699E0,7.852981687E-1,9.696516991E0,-1.079784989E0
3.577545860E0,7.733271718E-1,9.715670586E0,-1.070208192E0
3.579529502E0,7.565677166E-1,9.722852707E0,-1.067813993E0
3.581543662E0,7.469909191E-1,9.720458984E0,-1.063025594E0
3.583527305E0,7.541735172E-1,9.720458984E0,-1.063025594E0
3.585510947E0,7.685387731E-1,9.730035782E0,-1.065419793E0
3.587494590E0,7.661445141E-1,9.742006302E0,-1.060631394E0
3.589508750E0,7.613561153E-1,9.749189377E0,-1.063025594E0
3.591492393E0,7.469909191E-1,9.751583099E0,-1.065419793E0
3.593476035E0,7.374141216E-1,9.753977776E0,-1.060631394E0
3.595490196E0,7.182605267E-1,9.753977776E0,-1.055842996E0
3.597473838E0,7.038952708E-1,9.753977776E0,-1.063025594E0
3.599457481E0,6.943184733E-1,9.753977776E0,-1.072602391E0
3.601441123E0,6.871358752E-1,9.749189377E0,-1.074996591E0
3.603424766E0,6.727706790E-1,9.746794701E0,-1.067813993E0
3.605438926E0,6.607996821E-1,9.744400978E0,-1.053448796E0
3.607422569E0,6.536170840E-1,9.746794701E0,-1.046266198E0
3.609406211E0,6.464344859E-1,9.744400978E0,-1.041477680E0
3.611420371E0,6.416460276E-1,9.742006302E0,-1.034295082E0
3.613404014E0,6.368576288E-1,9.744400978E0,-1.031900883E0
3.615387656E0,6.416460276E-1,9.749189377E0,-1.017535686E0
3.617401817E0,6.416460276E-1,9.749189377E0,-1.003170490E0
3.619385459E0,6.344634295E-1,9.749189377E0,-9.911994934E-1
3.621369102E0,6.224924326E-1,9.751583099E0,-9.744400978E-1
3.623383262E0,6.153098345E-1,9.758766174E0,-9.600749016E-1
3.625366905E0,6.177040339E-1,9.753977776E0,-9.696516991E-1
3.627350547E0,6.296750307E-1,9.749189377E0,-9.816226959E-1
3.629364707E0,6.344634295E-1,9.746794701E0,-9.816226959E-1
3.631348350E0,6.392518282E-1,9.734824181E0,-9.840168953E-1
3.633331992E0,6.416460276E-1,9.722852707E0,-9.888052940E-1
3.635346153E0,6.488286853E-1,9.720458984E0,-9.935936928E-1
3.637360313E0,6.536170840E-1,9.720458984E0,-9.935936928E-1
3.639343955E0,6.584054828E-1,9.720458984E0,-9.959878922E-1
3.641327598E0,6.727706790E-1,9.720458984E0,-1.000776291E0
3.643311240E0,6.871358752E-1,9.718064308E0,-1.003170490E0
3.645325401E0,6.919242740E-1,9.720458984E0,-1.000776291E0
3.647309043E0,6.919242740E-1,9.715670586E0,-1.005564690E0
3.649323203E0,6.991068721E-1,9.708487511E0,-1.017535686E0
3.651306846E0,7.062895298E-1,9.703699112E0,-1.027112484E0
3.653290488E0,7.086837292E-1,9.703699112E0,-1.024718285E0
3.655304649E0,7.158663273E-1,9.703699112E0,-1.015141487E0
3.657318809E0,7.254431248E-1,9.710882187E0,-1.015141487E0
3.659302451E0,7.350199223E-1,9.708487511E0,-1.019929886E0
3.661286094E0,7.422025204E-1,9.706093788E0,-1.019929886E0
3.663269737E0,7.422025204E-1,9.713275909E0,-1.015141487E0
3.665253379E0,7.517793179E-1,9.710882187E0,-1.007958889E0
3.667267539E0,7.613561153E-1,9.713275909E0,-1.012747288E0
3.669251182E0,7.613561153E-1,9.713275909E0,-1.010353088E0
3.671234824E0,7.613561153E-1,9.720458984E0,-1.015141487E0
3.673248985E0,7.565677166E-1,9.730035782E0,-1.010353088E0
3.675232627E0,7.541735172E-1,9.730035782E0,-1.005564690E0
3.677216270E0,7.541735172E-1,9.730035782E0,-1.007958889E0
3.679230430E0,7.469909191E-1,9.734824181E0,-1.007958889E0
3.681214072E0,7.517793179E-1,9.734824181E0,-1.010353088E0
3.683228233E0,7.565677166E-1,9.734824181E0,-1.017535686E0
3.685242393E0,7.541735172E-1,9.725247383E0,-1.024718285E0
3.687226035E0,7.469909191E-1,9.710882187E0,-1.031900883E0
3.689240196E0,7.398083210E-1,9.698910713E0,-1.036689281E0
3.691254356E0,7.230489254E-1,9.701305389E0,-1.041477680E0
3.693237998E0,7.110779285E-1,9.706093788E0,-1.043871999E0
3.695221641E0,7.038952708E-1,9.701305389E0,-1.046266198E0
3.697205283E0,6.991068721E-1,9.689333916E0,-1.043871999E0
3.699219444E0,6.967126727E-1,9.682151794E0,-1.043871999E0
3.701203086E0,6.895300746E-1,9.672574997E0,-1.051054597E0
3.703186729E0,6.799532771E-1,9.667786598E0,-1.063025594E0
3.705170371E0,6.751648784E-1,9.667786598E0,-1.070208192E0
3.707184531E0,6.679822803E-1,9.662998199E0,-1.067813993E0
3.709168174E0,6.536170840E-1,9.653421402E0,-1.070208192E0
3.711151817E0,6.440402865E-1,9.653421402E0,-1.079784989E0
3.713165977E0,6.368576288E-1,9.646238327E0,-1.082179189E0
3.715149619E0,6.224924326E-1,9.629479408E0,-1.079784989E0
3.717133262E0,6.200982332E-1,9.615114212E0,-1.074996591E0
3.719147422E0,6.177040339E-1,9.610325813E0,-1.074996591E0
3.721131065E0,6.105214357E-1,9.607931137E0,-1.079784989E0
3.723114707E0,6.105214357E-1,9.612719536E0,-1.079784989E0
3.725098350E0,6.105214357E-1,9.610325813E0,-1.077390790E0
3.727112510E0,6.153098345E-1,9.605537415E0,-1.065419793E0
3.729096153E0,6.200982332E-1,9.603142738E0,-1.046266198E0
3.731079795E0,6.272808313E-1,9.610325813E0,-1.036689281E0
3.733093955E0,6.272808313E-1,9.619902611E0,-1.022324085E0
3.735077598E0,6.200982332E-1,9.622296333E0,-1.000776291E0
3.737061240E0,6.153098345E-1,9.631873131E0,-9.864110947E-1
3.739075401E0,6.177040339E-1,9.643844604E0,-9.768342972E-1
3.741059043E0,6.296750307E-1,9.651026726E0,-9.648633003E-1
3.743042686E0,6.464344859E-1,9.653421402E0,-9.457096457E-1
3.745056846E0,6.560112834E-1,9.660603523E0,-9.337386489E-1
3.747040488E0,6.560112834E-1,9.670180321E0,-9.265560508E-1
3.749024131E0,6.536170840E-1,9.677363396E0,-9.145850539E-1
3.751038291E0,6.584054828E-1,9.689333916E0,-9.074024558E-1
3.753021934E0,6.703764796E-1,9.701305389E0,-9.074024558E-1
3.755005576E0,6.751648784E-1,9.708487511E0,-9.050082564E-1
3.757019737E0,6.727706790E-1,9.725247383E0,-9.026140571E-1
3.759003379E0,6.703764796E-1,9.742006302E0,-9.026140571E-1
3.761017539E0,6.799532771E-1,9.749189377E0,-9.002198577E-1
3.763031699E0,6.871358752E-1,9.756371498E0,-8.978256583E-1
3.765015342E0,6.895300746E-1,9.756371498E0,-9.002198577E-1
3.767029502E0,6.943184733E-1,9.765948296E0,-9.026140571E-1
3.769043662E0,6.991068721E-1,9.773131371E0,-8.954314590E-1
3.771027305E0,6.967126727E-1,9.775525093E0,-8.930372596E-1
3.773041465E0,7.015010715E-1,9.777919769E0,-8.954314590E-1
3.775055625E0,7.134721279E-1,9.777919769E0,-8.930372596E-1
3.777039268E0,7.182605267E-1,9.782708168E0,-8.954314590E-1
3.779053428E0,7.206547260E-1,9.787496567E0,-9.074024558E-1
3.781037071E0,7.182605267E-1,9.789890289E0,-9.193734527E-1
3.783020713E0,7.182605267E-1,9.787496567E0,-9.313444495E-1
3.785034873E0,7.206547260E-1,9.777919769E0,-9.433154464E-1
3.787018516E0,7.254431248E-1,9.775525093E0,-9.552865028E-1
3.789002158E0,7.182605267E-1,9.770736694E0,-9.720458984E-1
3.791016319E0,7.015010715E-1,9.761159897E0,-9.911994934E-1
3.792999961E0,6.871358752E-1,9.756371498E0,-9.935936928E-1
3.794983604E0,6.823474765E-1,9.751583099E0,-1.003170490E0
3.796997764E0,6.799532771E-1,9.739612579E0,-1.019929886E0
3.798981406E0,6.727706790E-1,9.732429504E0,-1.031900883E0
3.800995567E0,6.655880809E-1,9.722852707E0,-1.036689281E0
3.802979209E0,6.607996821E-1,9.710882187E0,-1.039083481E0
3.804962852E0,6.584054828E-1,9.703699112E0,-1.043871999E0
3.806977012E0,6.536170840E-1,9.686940193E0,-1.041477680E0
3.808960655E0,6.512228847E-1,9.674968719E0,-1.046266198E0
3.810944297E0,6.440402865E-1,9.672574997E0,-1.048660398E0
3.812958457E0,6.440402865E-1,9.674968719E0,-1.046266198E0
3.814942100E0,6.488286853E-1,9.679757118E0,-1.046266198E0
3.816925742E0,6.440402865E-1,9.674968719E0,-1.039083481E0
3.818939903E0,6.464344859E-1,9.672574997E0,-1.024718285E0
3.820923545E0,6.536170840E-1,9.665391922E0,-1.015141487E0
3.822907188E0,6.560112834E-1,9.658209801E0,-1.003170490E0
3.824921348E0,6.536170840E-1,9.658209801E0,-1.003170490E0
3.826904990E0,6.536170840E-1,9.651026726E0,-1.005564690E0
3.828888633E0,6.560112834E-1,9.643844604E0,-1.012747288E0
3.830902793E0,6.560112834E-1,9.639056206E0,-1.019929886E0
3.832886436E0,6.584054828E-1,9.639056206E0,-1.022324085E0
3.834870078E0,6.536170840E-1,9.643844604E0,-1.024718285E0
3.836884238E0,6.512228847E-1,9.646238327E0,-1.029506683E0
3.838867881E0,6.488286853E-1,9.643844604E0,-1.041477680E0
3.840882041E0,6.488286853E-1,9.643844604E0,-1.046266198E0
3.842896201E0,6.512228847E-1,9.643844604E0,-1.051054597E0
3.844879844E0,6.560112834E-1,9.653421402E0,-1.048660398E0
3.846894004E0,6.607996821E-1,9.662998199E0,-1.039083481E0
3.848908164E0,6.631938815E-1,9.677363396E0,-1.024718285E0
3.850891807E0,6.631938815E-1,9.684545517E0,-1.015141487E0
3.852875449E0,6.703764796E-1,9.689333916E0,-1.010353088E0
3.854859092E0,6.703764796E-1,9.696516991E0,-1.010353088E0
3.856873252E0,6.775590777E-1,9.706093788E0,-1.007958889E0
3.858826377E0,6.847416759E-1,9.720458984E0,-1.000776291E0
3.860840537E0,6.919242740E-1,9.732429504E0,-9.983820915E-1
3.862824180E0,6.895300746E-1,9.732429504E0,-9.864110947E-1
3.864838340E0,6.847416759E-1,9.739612579E0,-9.696516991E-1
3.866852500E0,6.871358752E-1,9.744400978E0,-9.600749016E-1
3.868836143E0,6.967126727E-1,9.744400978E0,-9.528923035E-1
3.870850303E0,7.038952708E-1,9.746794701E0,-9.457096457E-1
3.872864463E0,7.110779285E-1,9.753977776E0,-9.457096457E-1
3.874848106E0,7.182605267E-1,9.758766174E0,-9.457096457E-1
3.876862266E0,7.134721279E-1,9.758766174E0,-9.433154464E-1
3.878845908E0,7.086837292E-1,9.763554573E0,-9.409212470E-1
3.880860069E0,7.038952708E-1,9.765948296E0,-9.433154464E-1
3.882874229E0,6.991068721E-1,9.765948296E0,-9.528923035E-1
3.884857871E0,7.110779285E-1,9.773131371E0,-9.552865028E-1
3.886841514E0,7.206547260E-1,9.775525093E0,-9.528923035E-1
3.888825156E0,7.206547260E-1,9.770736694E0,-9.528923035E-1
3.890839317E0,7.158663273E-1,9.773131371E0,-9.576807022E-1
3.892822959E0,7.110779285E-1,9.777919769E0,-9.672574997E-1
3.894806602E0,7.110779285E-1,9.785101891E0,-9.696516991E-1
3.896820762E0,7.134721279E-1,9.782708168E0,-9.816226959E-1
3.898804405E0,7.015010715E-1,9.768342972E0,-9.911994934E-1
3.900788047E0,6.943184733E-1,9.758766174E0,-9.911994934E-1
3.902802207E0,6.895300746E-1,9.756371498E0,-9.983820915E-1
3.904785850E0,6.847416759E-1,9.758766174E0,-1.010353088E0
3.906769492E0,6.799532771E-1,9.768342972E0,-1.012747288E0
3.908783653E0,6.775590777E-1,9.770736694E0,-1.007958889E0
3.910797813E0,6.703764796E-1,9.763554573E0,-1.007958889E0
3.912781455E0,6.655880809E-1,9.763554573E0,-1.005564690E0
3.914795615E0,6.655880809E-1,9.770736694E0,-1.005564690E0
3.916809776E0,6.607996821E-1,9.765948296E0,-1.007958889E0
3.918793418E0,6.607996821E-1,9.751583099E0,-1.015141487E0
3.920777061E0,6.607996821E-1,9.739612579E0,-1.017535686E0
3.922760703E0,6.679822803E-1,9.734824181E0,-1.010353088E0
3.924744346E0,6.703764796E-1,9.737217903E0,-9.959878922E-1
3.926727988E0,6.751648784E-1,9.732429504E0,-9.911994934E-1
3.928742149E0,6.847416759E-1,9.727641106E0,-9.888052940E-1
3.930725791E0,6.775590777E-1,9.722852707E0,-9.864110947E-1
3.932709434E0,6.775590777E-1,9.715670586E0,-9.864110947E-1
3.934723594E0,6.847416759E-1,9.725247383E0,-9.840168953E-1
3.936707237E0,6.871358752E-1,9.730035782E0,-9.911994934E-1
3.938690879E0,6.847416759E-1,9.730035782E0,-9.959878922E-1
3.940674522E0,6.871358752E-1,9.730035782E0,-9.983820915E-1
3.942688682E0,6.871358752E-1,9.727641106E0,-9.959878922E-1
3.944702842E0,6.919242740E-1,9.725247383E0,-9.983820915E-1
3.946686485E0,6.967126727E-1,9.718064308E0,-1.003170490E0
3.948700645E0,6.943184733E-1,9.715670586E0,-9.959878922E-1
3.950714805E0,6.847416759E-1,9.718064308E0,-9.840168953E-1
3.952698447E0,6.799532771E-1,9.722852707E0,-9.696516991E-1
3.954712608E0,6.775590777E-1,9.718064308E0,-9.648633003E-1
3.956726768E0,6.799532771E-1,9.710882187E0,-9.696516991E-1
3.958710410E0,6.823474765E-1,9.701305389E0,-9.696516991E-1
3.960663535E0,6.775590777E-1,9.694122314E0,-9.672574997E-1
3.962677696E0,6.679822803E-1,9.689333916E0,-9.552865028E-1
3.964661338E0,6.679822803E-1,9.694122314E0,-9.576807022E-1
3.966644981E0,6.679822803E-1,9.694122314E0,-9.648633003E-1
3.968659141E0,6.703764796E-1,9.689333916E0,-9.672574997E-1
3.970642783E0,6.655880809E-1,9.689333916E0,-9.696516991E-1
3.972626426E0,6.655880809E-1,9.691728592E0,-9.672574997E-1
3.974640586E0,6.703764796E-1,9.694122314E0,-9.696516991E-1
3.976654746E0,6.655880809E-1,9.696516991E0,-9.744400978E-1
3.978638389E0,6.560112834E-1,9.696516991E0,-9.744400978E-1
3.980622031E0,6.584054828E-1,9.691728592E0,-9.744400978E-1
3.982605674E0,6.679822803E-1,9.691728592E0,-9.768342972E-1
3.984589317E0,6.703764796E-1,9.686940193E0,-9.768342972E-1
3.986603477E0,6.655880809E-1,9.682151794E0,-9.744400978E-1
3.988587119E0,6.560112834E-1,9.679757118E0,-9.744400978E-1
3.990570762E0,6.488286853E-1,9.679757118E0,-9.720458984E-1
3.992584922E0,6.464344859E-1,9.674968719E0,-9.744400978E-1
3.994568565E0,6.464344859E-1,9.672574997E0,-9.720458984E-1
3.996552207E0,6.440402865E-1,9.674968719E0,-9.768342972E-1
3.998535850E0,6.440402865E-1,9.677363396E0,-9.768342972E-1
4.000519492E0,6.512228847E-1,9.682151794E0,-9.720458984E-1
4.002533653E0,6.464344859E-1,9.677363396E0,-9.792284966E-1
4.004517295E0,6.464344859E-1,9.679757118E0,-9.864110947E-1
4.006500938E0,6.464344859E-1,9.682151794E0,-9.840168953E-1
4.008515098E0,6.464344859E-1,9.682151794E0,-9.888052940E-1
4.010529258E0,6.512228847E-1,9.679757118E0,-9.959878922E-1
4.012512901E0,6.536170840E-1,9.682151794E0,-1.007958889E0
4.014527061E0,6.536170840E-1,9.677363396E0,-1.015141487E0
4.016541221E0,6.440402865E-1,9.674968719E0,-1.010353088E0
4.018524863E0,6.416460276E-1,9.682151794E0,-1.012747288E0
4.020508506E0,6.560112834E-1,9.689333916E0,-1.017535686E0
4.022492149E0,6.679822803E-1,9.694122314E0,-1.017535686E0
4.024475791E0,6.631938815E-1,9.698910713E0,-1.022324085E0
4.026489951E0,6.560112834E-1,9.701305389E0,-1.027112484E0
4.028473594E0,6.607996821E-1,9.696516991E0,-1.027112484E0
4.030457237E0,6.727706790E-1,9.701305389E0,-1.022324085E0
4.032471397E0,6.799532771E-1,9.710882187E0,-1.019929886E0
4.034485557E0,6.823474765E-1,9.708487511E0,-1.017535686E0
4.036469199E0,6.895300746E-1,9.703699112E0,-1.019929886E0
4.038452842E0,6.943184733E-1,9.696516991E0,-1.017535686E0
4.040436485E0,7.038952708E-1,9.694122314E0,-1.017535686E0
4.042420127E0,7.086837292E-1,9.691728592E0,-1.019929886E0
4.044403770E0,7.086837292E-1,9.696516991E0,-1.034295082E0
4.046417930E0,7.086837292E-1,9.703699112E0,-1.041477680E0
4.048401572E0,7.134721279E-1,9.701305389E0,-1.031900883E0
4.050385215E0,7.182605267E-1,9.696516991E0,-1.029506683E0
4.052399375E0,7.134721279E-1,9.696516991E0,-1.027112484E0
4.054383018E0,7.086837292E-1,9.691728592E0,-1.022324085E0
4.056397178E0,7.134721279E-1,9.691728592E0,-1.024718285E0
4.058350303E0,7.086837292E-1,9.694122314E0,-1.017535686E0
4.060364463E0,7.062895298E-1,9.698910713E0,-1.005564690E0
4.062348106E0,7.086837292E-1,9.701305389E0,-1.003170490E0
4.064362266E0,7.134721279E-1,9.694122314E0,-1.003170490E0
4.066376426E0,7.062895298E-1,9.686940193E0,-9.935936928E-1
4.068360069E0,6.967126727E-1,9.679757118E0,-9.864110947E-1
4.070374229E0,6.871358752E-1,9.677363396E0,-9.792284966E-1
4.072357871E0,6.775590777E-1,9.667786598E0,-9.744400978E-1
4.074372031E0,6.799532771E-1,9.660603523E0,-9.696516991E-1
4.076355674E0,6.727706790E-1,9.662998199E0,-9.696516991E-1
