"Time (s)","Gyroscope x (rad/s)","Gyroscope y (rad/s)","Gyroscope z (rad/s)"
2.719852100E-2,-9.279800206E-2,-8.199999866E-5,-1.100990027E-1
2.973811600E-2,-9.279800206E-2,-8.199999866E-5,-1.100990027E-1
3.227767900E-2,-9.279800206E-2,-8.199999866E-5,-1.100990027E-1
3.481701900E-2,-9.279800206E-2,-8.199999866E-5,-1.100990027E-1
3.735637200E-2,-9.279800206E-2,-8.199999866E-5,-1.100990027E-1
3.989547200E-2,-9.279800206E-2,-8.199999866E-5,-1.100990027E-1
4.243458700E-2,-9.279800206E-2,-8.199999866E-5,-1.100990027E-1
4.497366500E-2,-9.279800206E-2,-8.199999866E-5,-1.100990027E-1
4.751274200E-2,-9.279800206E-2,-8.199999866E-5,-1.100990027E-1
5.005254900E-2,-9.279800206E-2,-8.199999866E-5,-1.100990027E-1
5.259235600E-2,-9.279800206E-2,-8.199999866E-5,-1.100990027E-1
5.513177800E-2,-9.279800206E-2,-8.199999866E-5,-1.100990027E-1
5.767120300E-2,-9.279800206E-2,-8.199999866E-5,-1.100990027E-1
6.021090400E-2,-9.279800206E-2,-8.199999866E-5,-1.100990027E-1
6.275059500E-2,-9.279800206E-2,-8.199999866E-5,-1.100990027E-1
6.529009500E-2,-9.279800206E-2,-8.199999866E-5,-1.100990027E-1
6.782959600E-2,-9.279800206E-2,-8.199999866E-5,-1.100990027E-1
7.036931700E-2,-9.279800206E-2,-8.199999866E-5,-1.100990027E-1
7.290904800E-2,-9.279800206E-2,-8.199999866E-5,-1.100990027E-1
7.544858500E-2,-9.279800206E-2,-8.199999866E-5,-1.100990027E-1
7.798812400E-2,-9.279800206E-2,-8.199999866E-5,-1.100990027E-1
8.052839400E-2,-9.279800206E-2,-8.199999866E-5,-1.100990027E-1
8.306866300E-2,-9.279800206E-2,-8.199999866E-5,-1.100990027E-1
8.560804600E-2,-2.566429973E-1,6.861730218E-1,-1.521099955E-1
8.814743300E-2,-2.566429973E-1,6.861730218E-1,-1.521099955E-1
9.068733000E-2,-2.566429973E-1,6.861730218E-1,-1.521099955E-1
9.322721500E-2,-2.566429973E-1,6.861730218E-1,-1.521099955E-1
9.576629000E-2,-2.566429973E-1,6.861730218E-1,-1.521099955E-1
9.830536900E-2,-2.566429973E-1,6.861730218E-1,-1.521099955E-1
1.008454650E-1,-2.566429973E-1,6.861730218E-1,-1.521099955E-1
1.033855800E-1,-2.566429973E-1,6.861730218E-1,-1.521099955E-1
1.059248090E-1,-2.856209874E-1,9.563239813E-1,-3.666059971E-1
1.084640420E-1,-2.856209874E-1,9.563239813E-1,-3.666059971E-1
1.110032770E-1,-2.856209874E-1,9.563239813E-1,-3.666059971E-1
1.135425080E-1,-2.856209874E-1,9.563239813E-1,-3.666059971E-1
1.160817380E-1,-2.856209874E-1,9.563239813E-1,-3.666059971E-1
1.186209690E-1,-2.856209874E-1,9.563239813E-1,-3.666059971E-1
1.211616150E-1,-2.016559988E-1,8.989850283E-1,-5.658890009E-1
1.237022680E-1,-2.016559988E-1,8.989850283E-1,-5.658890009E-1
1.262414580E-1,-2.016559988E-1,8.989850283E-1,-5.658890009E-1
1.287806510E-1,-2.016559988E-1,8.989850283E-1,-5.658890009E-1
1.313200740E-1,-2.016559988E-1,8.989850283E-1,-5.658890009E-1
1.338594970E-1,-2.016559988E-1,8.989850283E-1,-5.658890009E-1
1.363985730E-1,-2.016559988E-1,8.989850283E-1,-5.658890009E-1
1.389376500E-1,-2.016559988E-1,8.989850283E-1,-5.658890009E-1
1.414771950E-1,-9.449499846E-2,7.217289805E-1,-7.048630118E-1
1.440167320E-1,-9.449499846E-2,7.217289805E-1,-7.048630118E-1
1.465565400E-1,-9.449499846E-2,7.217289805E-1,-7.048630118E-1
1.490963490E-1,-9.449499846E-2,7.217289805E-1,-7.048630118E-1
1.516363760E-1,-9.449499846E-2,7.217289805E-1,-7.048630118E-1
1.541764150E-1,-9.449499846E-2,7.217289805E-1,-7.048630118E-1
1.567164150E-1,-9.449499846E-2,7.217289805E-1,-7.048630118E-1
1.592564160E-1,-9.449499846E-2,7.217289805E-1,-7.048630118E-1
1.617960880E-1,-1.206300035E-2,5.279979706E-1,-7.535390258E-1
1.643357410E-1,-1.206300035E-2,5.279979706E-1,-7.535390258E-1
1.668755880E-1,-1.206300035E-2,5.279979706E-1,-7.535390258E-1
1.694154350E-1,-1.206300035E-2,5.279979706E-1,-7.535390258E-1
1.719551260E-1,-1.206300035E-2,5.279979706E-1,-7.535390258E-1
1.744948190E-1,-1.206300035E-2,5.279979706E-1,-7.535390258E-1
1.770348190E-1,-1.206300035E-2,5.279979706E-1,-7.535390258E-1
1.795748180E-1,-1.206300035E-2,5.279979706E-1,-7.535390258E-1
1.821145480E-1,4.501299933E-2,3.647139966E-1,-7.644850016E-1
1.846542810E-1,4.501299933E-2,3.647139966E-1,-7.644850016E-1
1.871940980E-1,4.501299933E-2,3.647139966E-1,-7.644850016E-1
1.897339050E-1,4.501299933E-2,3.647139966E-1,-7.644850016E-1
1.922731360E-1,4.501299933E-2,3.647139966E-1,-7.644850016E-1
1.948123670E-1,4.501299933E-2,3.647139966E-1,-7.644850016E-1
1.973517610E-1,4.501299933E-2,3.647139966E-1,-7.644850016E-1
1.998911460E-1,4.501299933E-2,3.647139966E-1,-7.644850016E-1
2.024306830E-1,6.123299897E-2,2.790699899E-1,-7.658810019E-1
2.049702220E-1,6.123299897E-2,2.790699899E-1,-7.658810019E-1
2.075096600E-1,6.123299897E-2,2.790699899E-1,-7.658810019E-1
2.100490830E-1,6.123299897E-2,2.790699899E-1,-7.658810019E-1
2.125887760E-1,6.123299897E-2,2.790699899E-1,-7.658810019E-1
2.151284690E-1,6.123299897E-2,2.790699899E-1,-7.658810019E-1
2.176685890E-1,6.123299897E-2,2.790699899E-1,-7.658810019E-1
2.202087040E-1,6.123299897E-2,2.790699899E-1,-7.658810019E-1
2.227482800E-1,8.874099702E-2,1.958830059E-1,-8.344799876E-1
2.252878570E-1,8.874099702E-2,1.958830059E-1,-8.344799876E-1
2.278272180E-1,8.874099702E-2,1.958830059E-1,-8.344799876E-1
2.303665650E-1,8.874099702E-2,1.958830059E-1,-8.344799876E-1
2.329062960E-1,8.874099702E-2,1.958830059E-1,-8.344799876E-1
2.354460250E-1,8.874099702E-2,1.958830059E-1,-8.344799876E-1
2.379862890E-1,8.874099702E-2,1.958830059E-1,-8.344799876E-1
2.405265600E-1,8.874099702E-2,1.958830059E-1,-8.344799876E-1
2.430661350E-1,1.255879998E-1,1.052530035E-1,-9.233040214E-1
2.456057140E-1,1.255879998E-1,1.052530035E-1,-9.233040214E-1
2.481455650E-1,1.255879998E-1,1.052530035E-1,-9.233040214E-1
2.506854100E-1,1.255879998E-1,1.052530035E-1,-9.233040214E-1
2.532249090E-1,1.255879998E-1,1.052530035E-1,-9.233040214E-1
2.557644100E-1,1.255879998E-1,1.052530035E-1,-9.233040214E-1
2.583044310E-1,1.255879998E-1,1.052530035E-1,-9.233040214E-1
2.608444680E-1,1.255879998E-1,1.052530035E-1,-9.233040214E-1
2.633846220E-1,1.259330064E-1,8.228000253E-3,-9.126719832E-1
2.659247770E-1,1.259330064E-1,8.228000253E-3,-9.126719832E-1
2.684641350E-1,1.259330064E-1,8.228000253E-3,-9.126719832E-1
2.710034820E-1,1.259330064E-1,8.228000253E-3,-9.126719832E-1
2.735433290E-1,1.259330064E-1,8.228000253E-3,-9.126719832E-1
2.760831740E-1,1.259330064E-1,8.228000253E-3,-9.126719832E-1
2.786227610E-1,1.259330064E-1,8.228000253E-3,-9.126719832E-1
2.811623380E-1,1.259330064E-1,8.228000253E-3,-9.126719832E-1
2.837018390E-1,6.726899743E-2,-1.046350002E-1,-7.349500060E-1
2.862413380E-1,6.726899743E-2,-1.046350002E-1,-7.349500060E-1
2.887807570E-1,6.726899743E-2,-1.046350002E-1,-7.349500060E-1
2.913201800E-1,6.726899743E-2,-1.046350002E-1,-7.349500060E-1
2.938598720E-1,6.726899743E-2,-1.046350002E-1,-7.349500060E-1
2.963995650E-1,6.726899743E-2,-1.046350002E-1,-7.349500060E-1
2.989385870E-1,6.726899743E-2,-1.046350002E-1,-7.349500060E-1
3.014776260E-1,6.726899743E-2,-1.046350002E-1,-7.349500060E-1
3.040165880E-1,-3.516000137E-2,-1.692750007E-1,-5.217710137E-1
3.065555490E-1,-3.516000137E-2,-1.692750007E-1,-5.217710137E-1
3.090949150E-1,-3.516000137E-2,-1.692750007E-1,-5.217710137E-1
3.116342600E-1,-3.516000137E-2,-1.692750007E-1,-5.217710137E-1
3.141736450E-1,-3.516000137E-2,-1.692750007E-1,-5.217710137E-1
3.167130300E-1,-3.516000137E-2,-1.692750007E-1,-5.217710137E-1
3.192533810E-1,-3.516000137E-2,-1.692750007E-1,-5.217710137E-1
3.217937280E-1,-3.516000137E-2,-1.692750007E-1,-5.217710137E-1
3.243334190E-1,-9.038499743E-2,-1.726119965E-1,-4.987069964E-1
3.268731120E-1,-9.038499743E-2,-1.726119965E-1,-4.987069964E-1
3.294132360E-1,-9.038499743E-2,-1.726119965E-1,-4.987069964E-1
3.319533510E-1,-9.038499743E-2,-1.726119965E-1,-4.987069964E-1
3.344925810E-1,-9.038499743E-2,-1.726119965E-1,-4.987069964E-1
3.370318140E-1,-9.038499743E-2,-1.726119965E-1,-4.987069964E-1
3.395714150E-1,-9.038499743E-2,-1.726119965E-1,-4.987069964E-1
3.421109920E-1,-9.038499743E-2,-1.726119965E-1,-4.987069964E-1
3.446502210E-1,-1.692930013E-1,-1.320849955E-1,-4.758209884E-1
3.471894520E-1,-1.692930013E-1,-1.320849955E-1,-4.758209884E-1
3.497286700E-1,-1.692930013E-1,-1.320849955E-1,-4.758209884E-1
3.522679010E-1,-1.692930013E-1,-1.320849955E-1,-4.758209884E-1
3.548066700E-1,-1.692930013E-1,-1.320849955E-1,-4.758209884E-1
3.573454390E-1,-1.692930013E-1,-1.320849955E-1,-4.758209884E-1
3.598847850E-1,-1.692930013E-1,-1.320849955E-1,-4.758209884E-1
3.624241320E-1,-1.692930013E-1,-1.320849955E-1,-4.758209884E-1
3.649634000E-1,-2.394459993E-1,-1.002919972E-1,-4.559519887E-1
3.675026690E-1,-2.394459993E-1,-1.002919972E-1,-4.559519887E-1
3.700424820E-1,-2.394459993E-1,-1.002919972E-1,-4.559519887E-1
3.725822890E-1,-2.394459993E-1,-1.002919972E-1,-4.559519887E-1
3.751225970E-1,-2.394459993E-1,-1.002919972E-1,-4.559519887E-1
3.776629060E-1,-2.394459993E-1,-1.002919972E-1,-4.559519887E-1
3.802026300E-1,-2.394459993E-1,-1.002919972E-1,-4.559519887E-1
3.827423610E-1,-2.394459993E-1,-1.002919972E-1,-4.559519887E-1
3.852827860E-1,-2.945809960E-1,-9.478999674E-2,-4.253450036E-1
3.878232090E-1,-2.945809960E-1,-9.478999674E-2,-4.253450036E-1
3.903633610E-1,-2.945809960E-1,-9.478999674E-2,-4.253450036E-1
3.929035160E-1,-2.945809960E-1,-9.478999674E-2,-4.253450036E-1
3.954441310E-1,-2.945809960E-1,-9.478999674E-2,-4.253450036E-1
3.979847460E-1,-2.945809960E-1,-9.478999674E-2,-4.253450036E-1
4.005256880E-1,-2.945809960E-1,-9.478999674E-2,-4.253450036E-1
4.030666110E-1,-2.945809960E-1,-9.478999674E-2,-4.253450036E-1
4.056069570E-1,-3.369610012E-1,-1.043120027E-1,-4.050650001E-1
4.081473040E-1,-3.369610012E-1,-1.043120027E-1,-4.050650001E-1
4.106879010E-1,-3.369610012E-1,-1.043120027E-1,-4.050650001E-1
4.132285160E-1,-3.369610012E-1,-1.043120027E-1,-4.050650001E-1
4.157702080E-1,-3.369610012E-1,-1.043120027E-1,-4.050650001E-1
4.183119010E-1,-3.369610012E-1,-1.043120027E-1,-4.050650001E-1
4.208519130E-1,-3.369610012E-1,-1.043120027E-1,-4.050650001E-1
4.233919140E-1,-3.369610012E-1,-1.043120027E-1,-4.050650001E-1
4.259322220E-1,-3.602249920E-1,-1.219160035E-1,-4.183570147E-1
4.284725290E-1,-3.602249920E-1,-1.219160035E-1,-4.183570147E-1
4.310131300E-1,-3.602249920E-1,-1.219160035E-1,-4.183570147E-1
4.335537470E-1,-3.602249920E-1,-1.219160035E-1,-4.183570147E-1
4.360933990E-1,-3.602249920E-1,-1.219160035E-1,-4.183570147E-1
4.386330540E-1,-3.602249920E-1,-1.219160035E-1,-4.183570147E-1
4.411730740E-1,-4.115859866E-1,-1.156100035E-1,-3.918769956E-1
4.437130730E-1,-4.115859866E-1,-1.156100035E-1,-3.918769956E-1
4.462530730E-1,-4.115859866E-1,-1.156100035E-1,-3.918769956E-1
4.487930740E-1,-4.115859866E-1,-1.156100035E-1,-3.918769956E-1
4.513332460E-1,-4.115859866E-1,-1.156100035E-1,-3.918769956E-1
4.538734010E-1,-4.115859866E-1,-1.156100035E-1,-3.918769956E-1
4.564132840E-1,-4.115859866E-1,-1.156100035E-1,-3.918769956E-1
4.589531690E-1,-4.115859866E-1,-1.156100035E-1,-3.918769956E-1
4.614931750E-1,-4.674470127E-1,-1.012639999E-1,-3.603489995E-1
4.640331740E-1,-4.674470127E-1,-1.012639999E-1,-3.603489995E-1
4.665732890E-1,-4.674470127E-1,-1.012639999E-1,-3.603489995E-1
4.691134060E-1,-4.674470127E-1,-1.012639999E-1,-3.603489995E-1
4.716531160E-1,-4.674470127E-1,-1.012639999E-1,-3.603489995E-1
4.741928470E-1,-4.674470127E-1,-1.012639999E-1,-3.603489995E-1
4.767326560E-1,-4.674470127E-1,-1.012639999E-1,-3.603489995E-1
4.792724630E-1,-4.674470127E-1,-1.012639999E-1,-3.603489995E-1
4.818121970E-1,-4.642620087E-1,-1.207040027E-1,-4.181100130E-1
4.843519280E-1,-4.642620087E-1,-1.207040027E-1,-4.181100130E-1
4.868916210E-1,-4.642620087E-1,-1.207040027E-1,-4.181100130E-1
4.894313140E-1,-4.642620087E-1,-1.207040027E-1,-4.181100130E-1
4.919706800E-1,-4.642620087E-1,-1.207040027E-1,-4.181100130E-1
4.945100250E-1,-4.642620087E-1,-1.207040027E-1,-4.181100130E-1
4.970497180E-1,-4.642620087E-1,-1.207040027E-1,-4.181100130E-1
4.995894110E-1,-4.642620087E-1,-1.207040027E-1,-4.181100130E-1
5.021289480E-1,-4.402210116E-1,-1.539119929E-1,-4.963180125E-1
5.046684870E-1,-4.402210116E-1,-1.539119929E-1,-4.963180125E-1
5.072081600E-1,-4.402210116E-1,-1.539119929E-1,-4.963180125E-1
5.097478510E-1,-4.402210116E-1,-1.539119929E-1,-4.963180125E-1
5.122872740E-1,-4.402210116E-1,-1.539119929E-1,-4.963180125E-1
5.148266970E-1,-4.402210116E-1,-1.539119929E-1,-4.963180125E-1
5.173672800E-1,-4.402210116E-1,-1.539119929E-1,-4.963180125E-1
5.199078570E-1,-4.402210116E-1,-1.539119929E-1,-4.963180125E-1
5.224474320E-1,-4.155650139E-1,-1.842669994E-1,-5.492929816E-1
5.249870110E-1,-4.155650139E-1,-1.842669994E-1,-5.492929816E-1
5.275277430E-1,-4.155650139E-1,-1.842669994E-1,-5.492929816E-1
5.300684720E-1,-4.155650139E-1,-1.842669994E-1,-5.492929816E-1
5.326088170E-1,-4.155650139E-1,-1.842669994E-1,-5.492929816E-1
5.351491640E-1,-4.155650139E-1,-1.842669994E-1,-5.492929816E-1
5.376897420E-1,-4.155650139E-1,-1.842669994E-1,-5.492929816E-1
5.402303190E-1,-4.155650139E-1,-1.842669994E-1,-5.492929816E-1
5.427703560E-1,-4.179289937E-1,-1.900029927E-1,-5.575209856E-1
5.453103950E-1,-4.179289937E-1,-1.900029927E-1,-5.575209856E-1
5.478507130E-1,-4.179289937E-1,-1.900029927E-1,-5.575209856E-1
5.503910200E-1,-4.179289937E-1,-1.900029927E-1,-5.575209856E-1
5.529312890E-1,-4.179289937E-1,-1.900029927E-1,-5.575209856E-1
5.554715600E-1,-4.179289937E-1,-1.900029927E-1,-5.575209856E-1
5.580112800E-1,-4.179289937E-1,-1.900029927E-1,-5.575209856E-1
5.605510110E-1,-4.179289937E-1,-1.900029927E-1,-5.575209856E-1
5.630908570E-1,-4.038110077E-1,-1.944860071E-1,-5.819810033E-1
5.656307040E-1,-4.038110077E-1,-1.944860071E-1,-5.819810033E-1
5.681709670E-1,-4.038110077E-1,-1.944860071E-1,-5.819810033E-1
5.707112360E-1,-4.038110077E-1,-1.944860071E-1,-5.819810033E-1
5.732511200E-1,-4.038110077E-1,-1.944860071E-1,-5.819810033E-1
5.757910050E-1,-4.038110077E-1,-1.944860071E-1,-5.819810033E-1
5.783306750E-1,-4.038110077E-1,-1.944860071E-1,-5.819810033E-1
5.808703280E-1,-4.038110077E-1,-1.944860071E-1,-5.819810033E-1
5.834098670E-1,-3.867290020E-1,-1.950359941E-1,-6.014360189E-1
5.859494060E-1,-3.867290020E-1,-1.950359941E-1,-6.014360189E-1
5.884895690E-1,-3.867290020E-1,-1.950359941E-1,-6.014360189E-1
5.910297220E-1,-3.867290020E-1,-1.950359941E-1,-6.014360189E-1
5.935702220E-1,-3.867290020E-1,-1.950359941E-1,-6.014360189E-1
5.961107230E-1,-3.867290020E-1,-1.950359941E-1,-6.014360189E-1
5.986511400E-1,-3.867290020E-1,-1.950359941E-1,-6.014360189E-1
6.011915630E-1,-3.867290020E-1,-1.950359941E-1,-6.014360189E-1
6.037306790E-1,-3.365480006E-1,-2.075109929E-1,-6.650959849E-1
6.062697940E-1,-3.365480006E-1,-2.075109929E-1,-6.650959849E-1
6.088093190E-1,-3.365480006E-1,-2.075109929E-1,-6.650959849E-1
6.113488560E-1,-3.365480006E-1,-2.075109929E-1,-6.650959849E-1
6.138883940E-1,-3.365480006E-1,-2.075109929E-1,-6.650959849E-1
6.164279330E-1,-3.365480006E-1,-2.075109929E-1,-6.650959849E-1
6.189683800E-1,-3.365480006E-1,-2.075109929E-1,-6.650959849E-1
6.215088410E-1,-3.365480006E-1,-2.075109929E-1,-6.650959849E-1
6.240485330E-1,-3.035579920E-1,-2.305800021E-1,-6.545810103E-1
6.265882260E-1,-3.035579920E-1,-2.305800021E-1,-6.545810103E-1
6.291282520E-1,-3.035579920E-1,-2.305800021E-1,-6.545810103E-1
6.316682510E-1,-3.035579920E-1,-2.305800021E-1,-6.545810103E-1
6.342082510E-1,-3.035579920E-1,-2.305800021E-1,-6.545810103E-1
6.367482520E-1,-3.035579920E-1,-2.305800021E-1,-6.545810103E-1
6.392882270E-1,-3.035579920E-1,-2.305800021E-1,-6.545810103E-1
6.418281900E-1,-3.035579920E-1,-2.305800021E-1,-6.545810103E-1
6.443677670E-1,-2.447399944E-1,-2.488290071E-1,-6.985139847E-1
6.469073440E-1,-2.447399944E-1,-2.488290071E-1,-6.985139847E-1
6.494471360E-1,-2.447399944E-1,-2.488290071E-1,-6.985139847E-1
6.519869430E-1,-2.447399944E-1,-2.488290071E-1,-6.985139847E-1
6.545265200E-1,-2.447399944E-1,-2.488290071E-1,-6.985139847E-1
6.570660970E-1,-2.447399944E-1,-2.488290071E-1,-6.985139847E-1
6.596061940E-1,-2.447399944E-1,-2.488290071E-1,-6.985139847E-1
6.621463090E-1,-2.447399944E-1,-2.488290071E-1,-6.985139847E-1
6.646861550E-1,-2.013799995E-1,-2.587139904E-1,-7.070199847E-1
6.672260020E-1,-2.013799995E-1,-2.587139904E-1,-7.070199847E-1
6.697655920E-1,-2.013799995E-1,-2.587139904E-1,-7.070199847E-1
6.723051690E-1,-2.013799995E-1,-2.587139904E-1,-7.070199847E-1
6.748445160E-1,-2.013799995E-1,-2.587139904E-1,-7.070199847E-1
6.773838630E-1,-2.013799995E-1,-2.587139904E-1,-7.070199847E-1
6.799234120E-1,-2.013799995E-1,-2.587139904E-1,-7.070199847E-1
6.824629490E-1,-2.013799995E-1,-2.587139904E-1,-7.070199847E-1
6.850029490E-1,-7.536000013E-2,-2.681849897E-1,-9.085010290E-1
6.875429500E-1,-7.536000013E-2,-2.681849897E-1,-9.085010290E-1
6.900834050E-1,-7.536000013E-2,-2.681849897E-1,-9.085010290E-1
6.926238680E-1,-7.536000013E-2,-2.681849897E-1,-9.085010290E-1
6.951641740E-1,-7.536000013E-2,-2.681849897E-1,-9.085010290E-1
6.977044830E-1,-7.536000013E-2,-2.681849897E-1,-9.085010290E-1
7.002441990E-1,-7.536000013E-2,-2.681849897E-1,-9.085010290E-1
7.027839300E-1,-7.536000013E-2,-2.681849897E-1,-9.085010290E-1
7.053239310E-1,-1.305999979E-2,-2.616449893E-1,-9.868450165E-1
7.078639300E-1,-1.305999979E-2,-2.616449893E-1,-9.868450165E-1
7.104037320E-1,-1.305999979E-2,-2.616449893E-1,-9.868450165E-1
7.129435410E-1,-1.305999979E-2,-2.616449893E-1,-9.868450165E-1
7.154832330E-1,-1.305999979E-2,-2.616449893E-1,-9.868450165E-1
7.180229260E-1,-1.305999979E-2,-2.616449893E-1,-9.868450165E-1
7.205622090E-1,-1.305999979E-2,-2.616449893E-1,-9.868450165E-1
7.231014780E-1,-1.305999979E-2,-2.616449893E-1,-9.868450165E-1
7.256413240E-1,9.472999722E-3,-2.596879900E-1,-9.661120176E-1
7.281811690E-1,9.472999722E-3,-2.596879900E-1,-9.661120176E-1
7.307209970E-1,9.472999722E-3,-2.596879900E-1,-9.661120176E-1
7.332608060E-1,9.472999722E-3,-2.596879900E-1,-9.661120176E-1
7.358008060E-1,9.472999722E-3,-2.596879900E-1,-9.661120176E-1
7.383408050E-1,9.472999722E-3,-2.596879900E-1,-9.661120176E-1
7.408803760E-1,9.472999722E-3,-2.596879900E-1,-9.661120176E-1
7.434199550E-1,9.472999722E-3,-2.596879900E-1,-9.661120176E-1
7.459602630E-1,6.473000348E-2,-1.688179970E-1,-1.234519005E0
7.485005700E-1,6.473000348E-2,-1.688179970E-1,-1.234519005E0
7.510402260E-1,6.473000348E-2,-1.688179970E-1,-1.234519005E0
7.535798810E-1,6.473000348E-2,-1.688179970E-1,-1.234519005E0
7.561203440E-1,6.473000348E-2,-1.688179970E-1,-1.234519005E0
7.586608050E-1,6.473000348E-2,-1.688179970E-1,-1.234519005E0
7.612009540E-1,1.160610020E-1,-1.579989940E-1,-1.311228991E0
7.637411090E-1,1.160610020E-1,-1.579989940E-1,-1.311228991E0
7.662811470E-1,1.160610020E-1,-1.579989940E-1,-1.311228991E0
7.688211860E-1,1.160610020E-1,-1.579989940E-1,-1.311228991E0
7.713617620E-1,1.160610020E-1,-1.579989940E-1,-1.311228991E0
7.739023390E-1,1.160610020E-1,-1.579989940E-1,-1.311228991E0
7.764423370E-1,1.160610020E-1,-1.579989940E-1,-1.311228991E0
7.789823380E-1,1.160610020E-1,-1.579989940E-1,-1.311228991E0
7.815221940E-1,3.646779954E-1,-1.925839931E-1,-1.708112001E0
7.840620410E-1,3.646779954E-1,-1.925839931E-1,-1.708112001E0
7.866014640E-1,3.646779954E-1,-1.925839931E-1,-1.708112001E0
7.891408870E-1,3.646779954E-1,-1.925839931E-1,-1.708112001E0
7.916812800E-1,3.646779954E-1,-1.925839931E-1,-1.708112001E0
7.942217030E-1,3.646779954E-1,-1.925839931E-1,-1.708112001E0
7.967618940E-1,3.646779954E-1,-1.925839931E-1,-1.708112001E0
7.993020870E-1,3.646779954E-1,-1.925839931E-1,-1.708112001E0
8.018423810E-1,2.951610088E-1,-1.739279926E-1,-1.541784048E0
8.043826880E-1,2.951610088E-1,-1.739279926E-1,-1.541784048E0
8.069226880E-1,2.951610088E-1,-1.739279926E-1,-1.541784048E0
8.094626890E-1,2.951610088E-1,-1.739279926E-1,-1.541784048E0
8.120025250E-1,2.951610088E-1,-1.739279926E-1,-1.541784048E0
8.145423320E-1,2.951610088E-1,-1.739279926E-1,-1.541784048E0
8.170834100E-1,2.951610088E-1,-1.739279926E-1,-1.541784048E0
8.196244870E-1,2.951610088E-1,-1.739279926E-1,-1.541784048E0
8.221644850E-1,2.351229936E-1,-1.306349933E-1,-1.488137960E0
8.247044860E-1,2.351229936E-1,-1.306349933E-1,-1.488137960E0
8.272440530E-1,2.351229936E-1,-1.306349933E-1,-1.488137960E0
8.297836300E-1,2.351229936E-1,-1.306349933E-1,-1.488137960E0
8.323234780E-1,2.351229936E-1,-1.306349933E-1,-1.488137960E0
8.348633230E-1,2.351229936E-1,-1.306349933E-1,-1.488137960E0
8.374033040E-1,2.351229936E-1,-1.306349933E-1,-1.488137960E0
8.399433050E-1,2.351229936E-1,-1.306349933E-1,-1.488137960E0
8.424834570E-1,2.307209969E-1,-1.250679940E-1,-1.455117941E0
8.450236120E-1,2.307209969E-1,-1.250679940E-1,-1.455117941E0
8.475637260E-1,2.307209969E-1,-1.250679940E-1,-1.455117941E0
8.501038430E-1,2.307209969E-1,-1.250679940E-1,-1.455117941E0
8.526439970E-1,2.307209969E-1,-1.250679940E-1,-1.455117941E0
8.551841500E-1,2.307209969E-1,-1.250679940E-1,-1.455117941E0
8.577243230E-1,2.307209969E-1,-1.250679940E-1,-1.455117941E0
8.602645160E-1,2.307209969E-1,-1.250679940E-1,-1.455117941E0
8.628046690E-1,2.337190062E-1,-1.138300002E-1,-1.477699995E0
8.653448240E-1,2.337190062E-1,-1.138300002E-1,-1.477699995E0
8.678847800E-1,2.337190062E-1,-1.138300002E-1,-1.477699995E0
8.704247410E-1,2.337190062E-1,-1.138300002E-1,-1.477699995E0
8.729652030E-1,2.337190062E-1,-1.138300002E-1,-1.477699995E0
8.755056640E-1,2.337190062E-1,-1.138300002E-1,-1.477699995E0
8.780456870E-1,2.337190062E-1,-1.138300002E-1,-1.477699995E0
8.805857260E-1,2.337190062E-1,-1.138300002E-1,-1.477699995E0
8.831260350E-1,2.734889984E-1,-6.042199954E-2,-1.749014974E0
8.856663420E-1,2.734889984E-1,-6.042199954E-2,-1.749014974E0
8.882066110E-1,2.734889984E-1,-6.042199954E-2,-1.749014974E0
8.907468800E-1,2.734889984E-1,-6.042199954E-2,-1.749014974E0
8.932870730E-1,2.734889984E-1,-6.042199954E-2,-1.749014974E0
8.958272660E-1,2.734889984E-1,-6.042199954E-2,-1.749014974E0
8.983675400E-1,2.734889984E-1,-6.042199954E-2,-1.749014974E0
9.009078470E-1,2.734889984E-1,-6.042199954E-2,-1.749014974E0
9.034482700E-1,3.491469920E-1,-2.243299969E-2,-2.071439981E0
9.059886930E-1,3.491469920E-1,-2.243299969E-2,-2.071439981E0
9.085297790E-1,3.491469920E-1,-2.243299969E-2,-2.071439981E0
9.110708560E-1,3.491469920E-1,-2.243299969E-2,-2.071439981E0
9.136116640E-1,3.491469920E-1,-2.243299969E-2,-2.071439981E0
9.161524730E-1,3.491469920E-1,-2.243299969E-2,-2.071439981E0
9.186919960E-1,3.491469920E-1,-2.243299969E-2,-2.071439981E0
9.212315350E-1,3.491469920E-1,-2.243299969E-2,-2.071439981E0
9.237708810E-1,3.773559928E-1,2.703199908E-2,-2.393697023E0
9.263102280E-1,3.773559928E-1,2.703199908E-2,-2.393697023E0
9.288496310E-1,3.773559928E-1,2.703199908E-2,-2.393697023E0
9.313890160E-1,3.773559928E-1,2.703199908E-2,-2.393697023E0
9.339287460E-1,3.773559928E-1,2.703199908E-2,-2.393697023E0
9.364684770E-1,3.773559928E-1,2.703199908E-2,-2.393697023E0
9.390085730E-1,3.773559928E-1,2.703199908E-2,-2.393697023E0
9.415486880E-1,3.773559928E-1,2.703199908E-2,-2.393697023E0
9.440888420E-1,3.668250144E-1,4.212899879E-2,-2.522377014E0
9.466289970E-1,3.668250144E-1,4.212899879E-2,-2.522377014E0
9.491694470E-1,3.668250144E-1,4.212899879E-2,-2.522377014E0
9.517099100E-1,3.668250144E-1,4.212899879E-2,-2.522377014E0
9.542499470E-1,3.668250144E-1,4.212899879E-2,-2.522377014E0
9.567899860E-1,3.668250144E-1,4.212899879E-2,-2.522377014E0
9.593303190E-1,3.668250144E-1,4.212899879E-2,-2.522377014E0
9.618706260E-1,3.668250144E-1,4.212899879E-2,-2.522377014E0
9.644109340E-1,4.952250123E-1,5.948299915E-2,-2.884898901E0
9.669512430E-1,4.952250123E-1,5.948299915E-2,-2.884898901E0
9.694914250E-1,4.952250123E-1,5.948299915E-2,-2.884898901E0
9.720315800E-1,4.952250123E-1,5.948299915E-2,-2.884898901E0
9.745713870E-1,4.952250123E-1,5.948299915E-2,-2.884898901E0
9.771111940E-1,4.952250123E-1,5.948299915E-2,-2.884898901E0
9.796513730E-1,4.952250123E-1,5.948299915E-2,-2.884898901E0
9.821915660E-1,4.952250123E-1,5.948299915E-2,-2.884898901E0
9.847312570E-1,5.277140141E-1,9.058199823E-2,-3.138504028E0
9.872709500E-1,5.277140141E-1,9.058199823E-2,-3.138504028E0
9.898112670E-1,5.277140141E-1,9.058199823E-2,-3.138504028E0
9.923515740E-1,5.277140141E-1,9.058199823E-2,-3.138504028E0
9.948913810E-1,5.277140141E-1,9.058199823E-2,-3.138504028E0
9.974311900E-1,5.277140141E-1,9.058199823E-2,-3.138504028E0
9.999709390E-1,5.277140141E-1,9.058199823E-2,-3.138504028E0
1.002510670E0,5.277140141E-1,9.058199823E-2,-3.138504028E0
1.005050517E0,4.080320001E-1,1.171379983E-1,-3.176475048E0
1.007590362E0,4.080320001E-1,1.171379983E-1,-3.176475048E0
1.010130464E0,4.080320001E-1,1.171379983E-1,-3.176475048E0
1.012670579E0,4.080320001E-1,1.171379983E-1,-3.176475048E0
1.015211694E0,4.080320001E-1,1.171379983E-1,-3.176475048E0
1.017752809E0,4.080320001E-1,1.171379983E-1,-3.176475048E0
1.020292967E0,4.080320001E-1,1.171379983E-1,-3.176475048E0
1.022833122E0,4.080320001E-1,1.171379983E-1,-3.176475048E0
1.025373738E0,3.284159899E-1,1.244549975E-1,-3.000952005E0
1.027914353E0,3.284159899E-1,1.244549975E-1,-3.000952005E0
1.030454944E0,3.284159899E-1,1.244549975E-1,-3.000952005E0
1.032995521E0,3.284159899E-1,1.244549975E-1,-3.000952005E0
1.035535560E0,3.284159899E-1,1.244549975E-1,-3.000952005E0
1.038075599E0,3.284159899E-1,1.244549975E-1,-3.000952005E0
1.040615560E0,3.284159899E-1,1.244549975E-1,-3.000952005E0
1.043155521E0,3.284159899E-1,1.244549975E-1,-3.000952005E0
1.045695213E0,2.037840039E-1,1.308349967E-1,-2.739578962E0
1.048234906E0,2.037840039E-1,1.308349967E-1,-2.739578962E0
1.050774498E0,2.037840039E-1,1.308349967E-1,-2.739578962E0
1.053314075E0,2.037840039E-1,1.308349967E-1,-2.739578962E0
1.055853883E0,2.037840039E-1,1.308349967E-1,-2.739578962E0
1.058393690E0,2.037840039E-1,1.308349967E-1,-2.739578962E0
1.060932977E0,2.037840039E-1,1.308349967E-1,-2.739578962E0
1.063472248E0,2.037840039E-1,1.308349967E-1,-2.739578962E0
1.066011479E0,2.508500032E-2,1.322319955E-1,-2.426903963E0
1.068550710E0,2.508500032E-2,1.322319955E-1,-2.426903963E0
1.071090710E0,2.508500032E-2,1.322319955E-1,-2.426903963E0
1.073630709E0,2.508500032E-2,1.322319955E-1,-2.426903963E0
1.076170709E0,2.508500032E-2,1.322319955E-1,-2.426903963E0
1.078710710E0,2.508500032E-2,1.322319955E-1,-2.426903963E0
1.081250670E0,-1.768680066E-1,1.211349964E-1,-2.066714048E0
1.083790633E0,-1.768680066E-1,1.211349964E-1,-2.066714048E0
1.086329863E0,-1.768680066E-1,1.211349964E-1,-2.066714048E0
1.088869094E0,-1.768680066E-1,1.211349964E-1,-2.066714048E0
1.091408353E0,-1.768680066E-1,1.211349964E-1,-2.066714048E0
1.093947622E0,-1.768680066E-1,1.211349964E-1,-2.066714048E0
1.096486506E0,-1.768680066E-1,1.211349964E-1,-2.066714048E0
1.099025391E0,-1.768680066E-1,1.211349964E-1,-2.066714048E0
1.101564479E0,-5.426260233E-1,9.269099683E-2,-1.624325037E0
1.104103556E0,-5.426260233E-1,9.269099683E-2,-1.624325037E0
1.106642516E0,-5.426260233E-1,9.269099683E-2,-1.624325037E0
1.109181479E0,-5.426260233E-1,9.269099683E-2,-1.624325037E0
1.111722057E0,-5.426260233E-1,9.269099683E-2,-1.624325037E0
1.114262632E0,-5.426260233E-1,9.269099683E-2,-1.624325037E0
1.116802208E0,-5.426260233E-1,9.269099683E-2,-1.624325037E0
1.119341787E0,-5.426260233E-1,9.269099683E-2,-1.624325037E0
1.121881430E0,-6.562389731E-1,7.789599895E-2,-1.296332002E0
1.124421083E0,-6.562389731E-1,7.789599895E-2,-1.296332002E0
1.126961083E0,-6.562389731E-1,7.789599895E-2,-1.296332002E0
1.129501084E0,-6.562389731E-1,7.789599895E-2,-1.296332002E0
1.132040746E0,-6.562389731E-1,7.789599895E-2,-1.296332002E0
1.134580439E0,-6.562389731E-1,7.789599895E-2,-1.296332002E0
1.137119671E0,-6.562389731E-1,7.789599895E-2,-1.296332002E0
1.139658902E0,-6.562389731E-1,7.789599895E-2,-1.296332002E0
1.142199056E0,-7.159780264E-1,6.346199661E-2,-1.017040014E0
1.144739209E0,-7.159780264E-1,6.346199661E-2,-1.017040014E0
1.147278895E0,-7.159780264E-1,6.346199661E-2,-1.017040014E0
1.149818588E0,-7.159780264E-1,6.346199661E-2,-1.017040014E0
1.152358012E0,-7.159780264E-1,6.346199661E-2,-1.017040014E0
1.154897435E0,-7.159780264E-1,6.346199661E-2,-1.017040014E0
1.157437127E0,-7.159780264E-1,6.346199661E-2,-1.017040014E0
1.159976820E0,-7.159780264E-1,6.346199661E-2,-1.017040014E0
1.162516776E0,-7.268620133E-1,2.639600076E-2,-6.564890146E-1
1.165056737E0,-7.268620133E-1,2.639600076E-2,-6.564890146E-1
1.167596429E0,-7.268620133E-1,2.639600076E-2,-6.564890146E-1
1.170136122E0,-7.268620133E-1,2.639600076E-2,-6.564890146E-1
1.172675377E0,-7.268620133E-1,2.639600076E-2,-6.564890146E-1
1.175214646E0,-7.268620133E-1,2.639600076E-2,-6.564890146E-1
1.177753685E0,-7.268620133E-1,2.639600076E-2,-6.564890146E-1
1.180292724E0,-7.268620133E-1,2.639600076E-2,-6.564890146E-1
1.182832738E0,-7.811869979E-1,-3.467000090E-3,-3.953190148E-1
1.185372737E0,-7.811869979E-1,-3.467000090E-3,-3.953190148E-1
1.187912121E0,-7.811869979E-1,-3.467000090E-3,-3.953190148E-1
1.190451506E0,-7.811869979E-1,-3.467000090E-3,-3.953190148E-1
1.192990762E0,-7.811869979E-1,-3.467000090E-3,-3.953190148E-1
1.195530031E0,-7.811869979E-1,-3.467000090E-3,-3.953190148E-1
1.198068916E0,-7.811869979E-1,-3.467000090E-3,-3.953190148E-1
1.200607801E0,-7.811869979E-1,-3.467000090E-3,-3.953190148E-1
1.203146911E0,-8.565649986E-1,-3.926699981E-2,-1.506640017E-1
1.205686026E0,-8.565649986E-1,-3.926699981E-2,-1.506640017E-1
1.208225526E0,-8.565649986E-1,-3.926699981E-2,-1.506640017E-1
1.210765027E0,-8.565649986E-1,-3.926699981E-2,-1.506640017E-1
1.213305511E0,-8.565649986E-1,-3.926699981E-2,-1.506640017E-1
1.215845974E0,-8.565649986E-1,-3.926699981E-2,-1.506640017E-1
1.218385703E0,-8.565649986E-1,-3.926699981E-2,-1.506640017E-1
1.220925434E0,-8.565649986E-1,-3.926699981E-2,-1.506640017E-1
1.223465560E0,-8.644120097E-1,-5.207699910E-2,-2.764300071E-2
1.226005713E0,-8.644120097E-1,-5.207699910E-2,-2.764300071E-2
1.228546790E0,-8.644120097E-1,-5.207699910E-2,-2.764300071E-2
1.231087867E0,-8.644120097E-1,-5.207699910E-2,-2.764300071E-2
1.233628020E0,-8.644120097E-1,-5.207699910E-2,-2.764300071E-2
1.236168175E0,-8.644120097E-1,-5.207699910E-2,-2.764300071E-2
1.238708445E0,-8.644120097E-1,-5.207699910E-2,-2.764300071E-2
1.241248714E0,-8.644120097E-1,-5.207699910E-2,-2.764300071E-2
1.243788900E0,-8.465790153E-1,-4.497300088E-2,2.339600027E-2
1.246329093E0,-8.465790153E-1,-4.497300088E-2,2.339600027E-2
1.248868940E0,-8.465790153E-1,-4.497300088E-2,2.339600027E-2
1.251408785E0,-8.465790153E-1,-4.497300088E-2,2.339600027E-2
1.253948488E0,-8.465790153E-1,-4.497300088E-2,2.339600027E-2
1.256488181E0,-8.465790153E-1,-4.497300088E-2,2.339600027E-2
1.259028181E0,-8.465790153E-1,-4.497300088E-2,2.339600027E-2
1.261568180E0,-8.465790153E-1,-4.497300088E-2,2.339600027E-2
1.264107867E0,-7.501059771E-1,-2.639099956E-2,4.044999927E-2
1.266647560E0,-7.501059771E-1,-2.639099956E-2,4.044999927E-2
1.269187252E0,-7.501059771E-1,-2.639099956E-2,4.044999927E-2
1.271726945E0,-7.501059771E-1,-2.639099956E-2,4.044999927E-2
1.274266498E0,-7.501059771E-1,-2.639099956E-2,4.044999927E-2
1.276806035E0,-7.501059771E-1,-2.639099956E-2,4.044999927E-2
1.279345227E0,-7.501059771E-1,-2.639099956E-2,4.044999927E-2
1.281884420E0,-7.501059771E-1,-2.639099956E-2,4.044999927E-2
1.284424007E0,-6.953099966E-1,3.872999921E-3,5.036500096E-2
1.286963584E0,-6.953099966E-1,3.872999921E-3,5.036500096E-2
1.289502621E0,-6.953099966E-1,3.872999921E-3,5.036500096E-2
1.292041660E0,-6.953099966E-1,3.872999921E-3,5.036500096E-2
1.294581934E0,-6.953099966E-1,3.872999921E-3,5.036500096E-2
1.297122241E0,-6.953099966E-1,3.872999921E-3,5.036500096E-2
1.299661471E0,-6.953099966E-1,3.872999921E-3,5.036500096E-2
1.302200702E0,-6.953099966E-1,3.872999921E-3,5.036500096E-2
1.304740241E0,-6.583819985E-1,1.692689955E-1,-2.798500061E-1
1.307279780E0,-6.583819985E-1,1.692689955E-1,-2.798500061E-1
1.309819779E0,-6.583819985E-1,1.692689955E-1,-2.798500061E-1
1.312359780E0,-6.583819985E-1,1.692689955E-1,-2.798500061E-1
1.314899938E0,-6.583819985E-1,1.692689955E-1,-2.798500061E-1
1.317440093E0,-6.583819985E-1,1.692689955E-1,-2.798500061E-1
1.319979822E0,-6.583819985E-1,1.692689955E-1,-2.798500061E-1
1.322519553E0,-6.583819985E-1,1.692689955E-1,-2.798500061E-1
1.325058944E0,-9.390519857E-1,2.457599938E-1,-3.110780120E-1
1.327598329E0,-9.390519857E-1,2.457599938E-1,-3.110780120E-1
1.330137675E0,-9.390519857E-1,2.457599938E-1,-3.110780120E-1
1.332677020E0,-9.390519857E-1,2.457599938E-1,-3.110780120E-1
1.335216424E0,-9.390519857E-1,2.457599938E-1,-3.110780120E-1
1.337755809E0,-9.390519857E-1,2.457599938E-1,-3.110780120E-1
1.340295231E0,-9.390519857E-1,2.457599938E-1,-3.110780120E-1
1.342834654E0,-9.390519857E-1,2.457599938E-1,-3.110780120E-1
1.345374601E0,-1.142150044E0,1.903710067E-1,8.735100180E-2
1.347914564E0,-1.142150044E0,1.903710067E-1,8.735100180E-2
1.350453986E0,-1.142150044E0,1.903710067E-1,8.735100180E-2
1.352993411E0,-1.142150044E0,1.903710067E-1,8.735100180E-2
1.355532771E0,-1.142150044E0,1.903710067E-1,8.735100180E-2
1.358072116E0,-1.142150044E0,1.903710067E-1,8.735100180E-2
1.360611540E0,-1.142150044E0,1.903710067E-1,8.735100180E-2
1.363150963E0,-1.142150044E0,1.903710067E-1,8.735100180E-2
1.365690351E0,-1.185232997E0,3.886629939E-1,-2.202250063E-1
1.368229736E0,-1.185232997E0,3.886629939E-1,-2.202250063E-1
1.370768506E0,-1.185232997E0,3.886629939E-1,-2.202250063E-1
1.373307275E0,-1.185232997E0,3.886629939E-1,-2.202250063E-1
1.375846901E0,-1.185232997E0,3.886629939E-1,-2.202250063E-1
1.378386554E0,-1.185232997E0,3.886629939E-1,-2.202250063E-1
1.380926246E0,-1.185232997E0,3.886629939E-1,-2.202250063E-1
1.383465939E0,-1.185232997E0,3.886629939E-1,-2.202250063E-1
1.386005384E0,-9.257760048E-1,6.993529797E-1,-8.637930155E-1
1.388544809E0,-9.257760048E-1,6.993529797E-1,-8.637930155E-1
1.391084347E0,-9.257760048E-1,6.993529797E-1,-8.637930155E-1
1.393623886E0,-9.257760048E-1,6.993529797E-1,-8.637930155E-1
1.396163525E0,-9.257760048E-1,6.993529797E-1,-8.637930155E-1
1.398703180E0,-9.257760048E-1,6.993529797E-1,-8.637930155E-1
1.401242448E0,-7.597039938E-1,9.617639780E-1,-1.379369974E0
1.403781717E0,-7.597039938E-1,9.617639780E-1,-1.379369974E0
1.406321670E0,-7.597039938E-1,9.617639780E-1,-1.379369974E0
1.408861631E0,-7.597039938E-1,9.617639780E-1,-1.379369974E0
1.411402708E0,-7.597039938E-1,9.617639780E-1,-1.379369974E0
1.413943785E0,-7.597039938E-1,9.617639780E-1,-1.379369974E0
1.416483437E0,-7.597039938E-1,9.617639780E-1,-1.379369974E0
1.419023130E0,-7.597039938E-1,9.617639780E-1,-1.379369974E0
1.421563131E0,-3.788590133E-1,1.373729944E0,-2.307101965E0
1.424103130E0,-3.788590133E-1,1.373729944E0,-2.307101965E0
1.426643620E0,-3.788590133E-1,1.373729944E0,-2.307101965E0
1.429184083E0,-3.788590133E-1,1.373729944E0,-2.307101965E0
1.431724582E0,-3.788590133E-1,1.373729944E0,-2.307101965E0
1.434265083E0,-3.788590133E-1,1.373729944E0,-2.307101965E0
1.436805043E0,-3.788590133E-1,1.373729944E0,-2.307101965E0
1.439345006E0,-3.788590133E-1,1.373729944E0,-2.307101965E0
1.441885467E0,-1.000823975E0,1.103011966E0,-1.166396976E0
1.444425928E0,-1.000823975E0,1.103011966E0,-1.166396976E0
1.446966269E0,-1.000823975E0,1.103011966E0,-1.166396976E0
1.449506616E0,-1.000823975E0,1.103011966E0,-1.166396976E0
1.452046732E0,-1.000823975E0,1.103011966E0,-1.166396976E0
1.454586847E0,-1.000823975E0,1.103011966E0,-1.166396976E0
1.457127338E0,-1.000823975E0,1.103011966E0,-1.166396976E0
1.459667799E0,-1.000823975E0,1.103011966E0,-1.166396976E0
1.462208107E0,-1.098345041E0,1.209465027E0,-8.572710156E-1
1.464748416E0,-1.098345041E0,1.209465027E0,-8.572710156E-1
1.467288738E0,-1.098345041E0,1.209465027E0,-8.572710156E-1
1.469829045E0,-1.098345041E0,1.209465027E0,-8.572710156E-1
1.472369200E0,-1.098345041E0,1.209465027E0,-8.572710156E-1
1.474909353E0,-1.098345041E0,1.209465027E0,-8.572710156E-1
1.477449218E0,-1.098345041E0,1.209465027E0,-8.572710156E-1
1.479989103E0,-1.098345041E0,1.209465027E0,-8.572710156E-1
1.482529526E0,-1.193081021E0,1.231608033E0,-4.896619916E-1
1.485069949E0,-1.193081021E0,1.231608033E0,-4.896619916E-1
1.487610106E0,-1.193081021E0,1.231608033E0,-4.896619916E-1
1.490150261E0,-1.193081021E0,1.231608033E0,-4.896619916E-1
1.492690454E0,-1.193081021E0,1.231608033E0,-4.896619916E-1
1.495230647E0,-1.193081021E0,1.231608033E0,-4.896619916E-1
1.497771248E0,-1.193081021E0,1.231608033E0,-4.896619916E-1
1.500311863E0,-1.193081021E0,1.231608033E0,-4.896619916E-1
1.502852439E0,-1.529396057E0,1.008419991E0,2.712599933E-1
1.505393016E0,-1.529396057E0,1.008419991E0,2.712599933E-1
1.507933025E0,-1.529396057E0,1.008419991E0,2.712599933E-1
1.510473026E0,-1.529396057E0,1.008419991E0,2.712599933E-1
1.513014142E0,-1.529396057E0,1.008419991E0,2.712599933E-1
1.515555257E0,-1.529396057E0,1.008419991E0,2.712599933E-1
1.518095289E0,-1.529396057E0,1.008419991E0,2.712599933E-1
1.520635290E0,-1.529396057E0,1.008419991E0,2.712599933E-1
1.523175406E0,-2.112517118E0,5.341020226E-1,1.470653057E0
1.525715521E0,-2.112517118E0,5.341020226E-1,1.470653057E0
1.528255507E0,-2.112517118E0,5.341020226E-1,1.470653057E0
1.530795508E0,-2.112517118E0,5.341020226E-1,1.470653057E0
1.533335200E0,-2.112517118E0,5.341020226E-1,1.470653057E0
1.535874893E0,-2.112517118E0,5.341020226E-1,1.470653057E0
1.538415219E0,-2.112517118E0,5.341020226E-1,1.470653057E0
1.540955526E0,-2.112517118E0,5.341020226E-1,1.470653057E0
1.543495834E0,-2.320015907E0,1.804070026E-1,2.148818970E0
1.546036141E0,-2.320015907E0,1.804070026E-1,2.148818970E0
1.548576771E0,-2.320015907E0,1.804070026E-1,2.148818970E0
1.551117426E0,-2.320015907E0,1.804070026E-1,2.148818970E0
1.553657694E0,-2.320015907E0,1.804070026E-1,2.148818970E0
1.556197965E0,-2.320015907E0,1.804070026E-1,2.148818970E0
1.558737974E0,-2.320015907E0,1.804070026E-1,2.148818970E0
1.561277973E0,-2.320015907E0,1.804070026E-1,2.148818970E0
1.563818436E0,-2.265497923E0,6.073300168E-2,2.358294010E0
1.566358897E0,-2.265497923E0,6.073300168E-2,2.358294010E0
1.568898910E0,-2.265497923E0,6.073300168E-2,2.358294010E0
1.571438911E0,-2.265497923E0,6.073300168E-2,2.358294010E0
1.573978796E0,-2.265497923E0,6.073300168E-2,2.358294010E0
1.576518681E0,-2.265497923E0,6.073300168E-2,2.358294010E0
1.579058867E0,-2.265497923E0,6.073300168E-2,2.358294010E0
1.581599020E0,-2.265497923E0,6.073300168E-2,2.358294010E0
1.584139135E0,-2.138540030E0,1.472200006E-1,2.291551113E0
1.586679250E0,-2.138540030E0,1.472200006E-1,2.291551113E0
1.589219410E0,-2.138540030E0,1.472200006E-1,2.291551113E0
1.591759563E0,-2.138540030E0,1.472200006E-1,2.291551113E0
1.594299447E0,-2.138540030E0,1.472200006E-1,2.291551113E0
1.596839332E0,-2.138540030E0,1.472200006E-1,2.291551113E0
1.599379598E0,-2.138540030E0,1.472200006E-1,2.291551113E0
1.601919867E0,-2.138540030E0,1.472200006E-1,2.291551113E0
1.604459134E0,-1.930451035E0,3.151949942E-1,2.138233900E0
1.606998405E0,-1.930451035E0,3.151949942E-1,2.138233900E0
1.609538843E0,-1.930451035E0,3.151949942E-1,2.138233900E0
1.612079266E0,-1.930451035E0,3.151949942E-1,2.138233900E0
1.614618995E0,-1.930451035E0,3.151949942E-1,2.138233900E0
1.617158728E0,-1.930451035E0,3.151949942E-1,2.138233900E0
1.619698372E0,-1.930451035E0,3.151949942E-1,2.138233900E0
1.622238025E0,-1.930451035E0,3.151949942E-1,2.138233900E0
1.624777603E0,-1.775488973E0,3.581109941E-1,2.062834024E0
1.627317180E0,-1.775488973E0,3.581109941E-1,2.062834024E0
1.629856853E0,-1.775488973E0,3.581109941E-1,2.062834024E0
1.632396544E0,-1.775488973E0,3.581109941E-1,2.062834024E0
1.634935736E0,-1.775488973E0,3.581109941E-1,2.062834024E0
1.637474929E0,-1.775488973E0,3.581109941E-1,2.062834024E0
1.640014814E0,-1.775488973E0,3.581109941E-1,2.062834024E0
1.642554699E0,-1.775488973E0,3.581109941E-1,2.062834024E0
1.645094044E0,-1.605414033E0,5.916540027E-1,1.857153058E0
1.647633391E0,-1.605414033E0,5.916540027E-1,1.857153058E0
1.650172650E0,-1.605414033E0,5.916540027E-1,1.857153058E0
1.652711919E0,-1.605414033E0,5.916540027E-1,1.857153058E0
1.655251266E0,-1.605414033E0,5.916540027E-1,1.857153058E0
1.657790611E0,-1.605414033E0,5.916540027E-1,1.857153058E0
1.660330352E0,-1.605414033E0,5.916540027E-1,1.857153058E0
1.662870083E0,-1.605414033E0,5.916540027E-1,1.857153058E0
1.665410506E0,-1.496358037E0,9.897180200E-1,1.540786982E0
1.667950929E0,-1.496358037E0,9.897180200E-1,1.540786982E0
1.670490934E0,-1.496358037E0,9.897180200E-1,1.540786982E0
1.673030935E0,-1.496358037E0,9.897180200E-1,1.540786982E0
1.675570935E0,-1.496358037E0,9.897180200E-1,1.540786982E0
1.678110934E0,-1.496358037E0,9.897180200E-1,1.540786982E0
1.680650444E0,-1.496358037E0,9.897180200E-1,1.540786982E0
1.683189983E0,-1.496358037E0,9.897180200E-1,1.540786982E0
1.685729829E0,-1.406187057E0,1.356917977E0,1.218183994E0
1.688269674E0,-1.406187057E0,1.356917977E0,1.218183994E0
1.690809577E0,-1.406187057E0,1.356917977E0,1.218183994E0
1.693349462E0,-1.406187057E0,1.356917977E0,1.218183994E0
1.695889732E0,-1.406187057E0,1.356917977E0,1.218183994E0
1.698430001E0,-1.406187057E0,1.356917977E0,1.218183994E0
1.700970140E0,-1.406187057E0,1.356917977E0,1.218183994E0
1.703510295E0,-1.406187057E0,1.356917977E0,1.218183994E0
1.706050333E0,-1.397847056E0,1.616984010E0,9.629120231E-1
1.708590372E0,-1.397847056E0,1.616984010E0,9.629120231E-1
1.711130694E0,-1.397847056E0,1.616984010E0,9.629120231E-1
1.713671001E0,-1.397847056E0,1.616984010E0,9.629120231E-1
1.716211155E0,-1.397847056E0,1.616984010E0,9.629120231E-1
1.718751310E0,-1.397847056E0,1.616984010E0,9.629120231E-1
1.721291155E0,-1.380640984E0,1.826931953E0,7.244129777E-1
1.723831002E0,-1.380640984E0,1.826931953E0,7.244129777E-1
1.726371310E0,-1.380640984E0,1.826931953E0,7.244129777E-1
1.728911617E0,-1.380640984E0,1.826931953E0,7.244129777E-1
1.731452039E0,-1.380640984E0,1.826931953E0,7.244129777E-1
1.733992464E0,-1.380640984E0,1.826931953E0,7.244129777E-1
1.736532501E0,-1.380640984E0,1.826931953E0,7.244129777E-1
1.739072540E0,-1.380640984E0,1.826931953E0,7.244129777E-1
1.741611544E0,-1.393416047E0,1.860926986E0,5.833640099E-1
1.744150583E0,-1.393416047E0,1.860926986E0,5.833640099E-1
1.746690314E0,-1.393416047E0,1.860926986E0,5.833640099E-1
1.749230045E0,-1.393416047E0,1.860926986E0,5.833640099E-1
1.751769399E0,-1.393416047E0,1.860926986E0,5.833640099E-1
1.754308784E0,-1.393416047E0,1.860926986E0,5.833640099E-1
1.756848939E0,-1.393416047E0,1.860926986E0,5.833640099E-1
1.759389092E0,-1.393416047E0,1.860926986E0,5.833640099E-1
1.761928948E0,-1.461704016E0,1.563897014E0,6.191220284E-1
1.764468795E0,-1.461704016E0,1.563897014E0,6.191220284E-1
1.767008179E0,-1.461704016E0,1.563897014E0,6.191220284E-1
1.769547564E0,-1.461704016E0,1.563897014E0,6.191220284E-1
1.772087102E0,-1.461704016E0,1.563897014E0,6.191220284E-1
1.774626641E0,-1.461704016E0,1.563897014E0,6.191220284E-1
1.777165986E0,-1.461704016E0,1.563897014E0,6.191220284E-1
1.779705333E0,-1.461704016E0,1.563897014E0,6.191220284E-1
1.782245488E0,-1.430879951E0,1.385907054E0,5.914909840E-1
1.784785641E0,-1.430879951E0,1.385907054E0,5.914909840E-1
1.787324924E0,-1.430879951E0,1.385907054E0,5.914909840E-1
1.789864195E0,-1.430879951E0,1.385907054E0,5.914909840E-1
1.792404349E0,-1.430879951E0,1.385907054E0,5.914909840E-1
1.794944502E0,-1.430879951E0,1.385907054E0,5.914909840E-1
1.797484160E0,-1.430879951E0,1.385907054E0,5.914909840E-1
1.800023815E0,-1.430879951E0,1.385907054E0,5.914909840E-1
1.802562776E0,-1.596902966E0,1.222587943E0,4.990690053E-1
1.805101737E0,-1.596902966E0,1.222587943E0,4.990690053E-1
1.807642196E0,-1.596902966E0,1.222587943E0,4.990690053E-1
1.810182619E0,-1.596902966E0,1.222587943E0,4.990690053E-1
1.812722002E0,-1.596902966E0,1.222587943E0,4.990690053E-1
1.815261387E0,-1.596902966E0,1.222587943E0,4.990690053E-1
1.817800989E0,-1.596902966E0,1.222587943E0,4.990690053E-1
1.820340566E0,-1.596902966E0,1.222587943E0,4.990690053E-1
1.822880218E0,-1.414234042E0,1.102607965E0,3.828020096E-1
1.825419873E0,-1.414234042E0,1.102607965E0,3.828020096E-1
1.827959539E0,-1.414234042E0,1.102607965E0,3.828020096E-1
1.830499232E0,-1.414234042E0,1.102607965E0,3.828020096E-1
1.833038347E0,-1.414234042E0,1.102607965E0,3.828020096E-1
1.835577464E0,-1.414234042E0,1.102607965E0,3.828020096E-1
1.838116175E0,-1.414234042E0,1.102607965E0,3.828020096E-1
1.840654906E0,-1.414234042E0,1.102607965E0,3.828020096E-1
1.843193867E0,-1.193259954E0,1.001657963E0,2.514669895E-1
1.845732828E0,-1.193259954E0,1.001657963E0,2.514669895E-1
1.848271621E0,-1.193259954E0,1.001657963E0,2.514669895E-1
1.850810392E0,-1.193259954E0,1.001657963E0,2.514669895E-1
1.853349161E0,-1.193259954E0,1.001657963E0,2.514669895E-1
1.855887930E0,-1.193259954E0,1.001657963E0,2.514669895E-1
1.858426801E0,-1.193259954E0,1.001657963E0,2.514669895E-1
1.860965686E0,-1.193259954E0,1.001657963E0,2.514669895E-1
1.863505108E0,-1.011693001E0,8.896380067E-1,1.662109941E-1
1.866044531E0,-1.011693001E0,8.896380067E-1,1.662109941E-1
1.868584848E0,-1.011693001E0,8.896380067E-1,1.662109941E-1
1.871125155E0,-1.011693001E0,8.896380067E-1,1.662109941E-1
1.873664963E0,-1.011693001E0,8.896380067E-1,1.662109941E-1
1.876204772E0,-1.011693001E0,8.896380067E-1,1.662109941E-1
1.878744310E0,-1.011693001E0,8.896380067E-1,1.662109941E-1
1.881283847E0,-1.011693001E0,8.896380067E-1,1.662109941E-1
1.883823117E0,-9.285479784E-1,7.839300036E-1,9.252899885E-2
1.886362386E0,-9.285479784E-1,7.839300036E-1,9.252899885E-2
1.888901724E0,-9.285479784E-1,7.839300036E-1,9.252899885E-2
1.891441069E0,-9.285479784E-1,7.839300036E-1,9.252899885E-2
1.893980608E0,-9.285479784E-1,7.839300036E-1,9.252899885E-2
1.896520147E0,-9.285479784E-1,7.839300036E-1,9.252899885E-2
1.899059395E0,-9.285479784E-1,7.839300036E-1,9.252899885E-2
1.901598666E0,-9.285479784E-1,7.839300036E-1,9.252899885E-2
1.904138512E0,-1.066712022E0,5.629940033E-1,-3.416199982E-2
1.906678357E0,-1.066712022E0,5.629940033E-1,-3.416199982E-2
1.909219286E0,-1.066712022E0,5.629940033E-1,-3.416199982E-2
1.911760171E0,-1.066712022E0,5.629940033E-1,-3.416199982E-2
1.914299900E0,-1.066712022E0,5.629940033E-1,-3.416199982E-2
1.916839633E0,-1.066712022E0,5.629940033E-1,-3.416199982E-2
1.919379493E0,-1.066712022E0,5.629940033E-1,-3.416199982E-2
1.921919338E0,-1.066712022E0,5.629940033E-1,-3.416199982E-2
1.924458992E0,-1.205979943E0,6.997489929E-1,-2.704420090E-1
1.926998647E0,-1.205979943E0,6.997489929E-1,-2.704420090E-1
1.929537892E0,-1.205979943E0,6.997489929E-1,-2.704420090E-1
1.932077161E0,-1.205979943E0,6.997489929E-1,-2.704420090E-1
1.934616353E0,-1.205979943E0,6.997489929E-1,-2.704420090E-1
1.937155546E0,-1.205979943E0,6.997489929E-1,-2.704420090E-1
1.939694950E0,-1.205979943E0,6.997489929E-1,-2.704420090E-1
1.942234373E0,-1.205979943E0,6.997489929E-1,-2.704420090E-1
1.944773294E0,-1.185750008E0,8.253660202E-1,-4.317030013E-1
1.947312219E0,-1.185750008E0,8.253660202E-1,-4.317030013E-1
1.949852357E0,-1.185750008E0,8.253660202E-1,-4.317030013E-1
1.952392510E0,-1.185750008E0,8.253660202E-1,-4.317030013E-1
1.954932009E0,-1.185750008E0,8.253660202E-1,-4.317030013E-1
1.957471510E0,-1.185750008E0,8.253660202E-1,-4.317030013E-1
1.960011266E0,-1.185750008E0,8.253660202E-1,-4.317030013E-1
1.962550997E0,-1.185750008E0,8.253660202E-1,-4.317030013E-1
1.965090842E0,-9.039750099E-1,1.036856055E0,-4.500569999E-1
1.967630689E0,-9.039750099E-1,1.036856055E0,-4.500569999E-1
1.970170467E0,-9.039750099E-1,1.036856055E0,-4.500569999E-1
1.972710274E0,-9.039750099E-1,1.036856055E0,-4.500569999E-1
1.975249659E0,-9.039750099E-1,1.036856055E0,-4.500569999E-1
1.977789044E0,-9.039750099E-1,1.036856055E0,-4.500569999E-1
1.980328280E0,-9.039750099E-1,1.036856055E0,-4.500569999E-1
1.982867549E0,-9.039750099E-1,1.036856055E0,-4.500569999E-1
1.985406319E0,-7.394250035E-1,1.527338982E0,-5.958359838E-1
1.987945088E0,-7.394250035E-1,1.527338982E0,-5.958359838E-1
1.990484607E0,-7.394250035E-1,1.527338982E0,-5.958359838E-1
1.993024106E0,-7.394250035E-1,1.527338982E0,-5.958359838E-1
1.995563529E0,-7.394250035E-1,1.527338982E0,-5.958359838E-1
1.998102954E0,-7.394250035E-1,1.527338982E0,-5.958359838E-1
2.000642362E0,-7.394250035E-1,1.527338982E0,-5.958359838E-1
2.003181747E0,-7.394250035E-1,1.527338982E0,-5.958359838E-1
2.005721554E0,-6.770700216E-1,1.702304959E0,-7.099639773E-1
2.008261361E0,-6.770700216E-1,1.702304959E0,-7.099639773E-1
2.010800746E0,-6.770700216E-1,1.702304959E0,-7.099639773E-1
2.013340131E0,-6.770700216E-1,1.702304959E0,-7.099639773E-1
2.015879555E0,-6.770700216E-1,1.702304959E0,-7.099639773E-1
2.018418978E0,-6.770700216E-1,1.702304959E0,-7.099639773E-1
2.020958525E0,-6.770700216E-1,1.702304959E0,-7.099639773E-1
2.023498064E0,-6.770700216E-1,1.702304959E0,-7.099639773E-1
2.026037448E0,-8.183900118E-1,1.327837944E0,-7.663019896E-1
2.028576833E0,-8.183900118E-1,1.327837944E0,-7.663019896E-1
2.031116988E0,-8.183900118E-1,1.327837944E0,-7.663019896E-1
2.033657141E0,-8.183900118E-1,1.327837944E0,-7.663019896E-1
2.036196948E0,-8.183900118E-1,1.327837944E0,-7.663019896E-1
2.038736757E0,-8.183900118E-1,1.327837944E0,-7.663019896E-1
2.041277088E0,-8.504220247E-1,1.051715016E0,-8.087390065E-1
2.043817433E0,-8.504220247E-1,1.051715016E0,-8.087390065E-1
2.046357856E0,-8.504220247E-1,1.051715016E0,-8.087390065E-1
2.048898279E0,-8.504220247E-1,1.051715016E0,-8.087390065E-1
2.051437990E0,-8.504220247E-1,1.051715016E0,-8.087390065E-1
2.053977723E0,-8.504220247E-1,1.051715016E0,-8.087390065E-1
2.056517261E0,-8.504220247E-1,1.051715016E0,-8.087390065E-1
2.059056800E0,-8.504220247E-1,1.051715016E0,-8.087390065E-1
2.061595895E0,-7.243229747E-1,9.379299879E-1,-8.080319762E-1
2.064134972E0,-7.243229747E-1,9.379299879E-1,-8.080319762E-1
2.066674781E0,-7.243229747E-1,9.379299879E-1,-8.080319762E-1
2.069214588E0,-7.243229747E-1,9.379299879E-1,-8.080319762E-1
2.071754409E0,-7.243229747E-1,9.379299879E-1,-8.080319762E-1
2.074294256E0,-7.243229747E-1,9.379299879E-1,-8.080319762E-1
2.076833947E0,-7.243229747E-1,9.379299879E-1,-8.080319762E-1
2.079373640E0,-7.243229747E-1,9.379299879E-1,-8.080319762E-1
2.081913506E0,-5.163450241E-1,9.617369771E-1,-7.793530226E-1
2.084453391E0,-5.163450241E-1,9.617369771E-1,-7.793530226E-1
2.086993851E0,-5.163450241E-1,9.617369771E-1,-7.793530226E-1
2.089534314E0,-5.163450241E-1,9.617369771E-1,-7.793530226E-1
2.092073711E0,-5.163450241E-1,9.617369771E-1,-7.793530226E-1
2.094613098E0,-5.163450241E-1,9.617369771E-1,-7.793530226E-1
2.097152752E0,-5.163450241E-1,9.617369771E-1,-7.793530226E-1
2.099692405E0,-5.163450241E-1,9.617369771E-1,-7.793530226E-1
2.102231980E0,-4.533849955E-1,8.505510092E-1,-8.002740145E-1
2.104771559E0,-4.533849955E-1,8.505510092E-1,-8.002740145E-1
2.107312146E0,-4.533849955E-1,8.505510092E-1,-8.002740145E-1
2.109852723E0,-4.533849955E-1,8.505510092E-1,-8.002740145E-1
2.112391798E0,-4.533849955E-1,8.505510092E-1,-8.002740145E-1
2.114930877E0,-4.533849955E-1,8.505510092E-1,-8.002740145E-1
2.117470469E0,-4.533849955E-1,8.505510092E-1,-8.002740145E-1
2.120010046E0,-4.533849955E-1,8.505510092E-1,-8.002740145E-1
2.122549584E0,-9.006440043E-1,1.860760003E-1,-1.075266957E0
2.125089123E0,-9.006440043E-1,1.860760003E-1,-1.075266957E0
2.127628757E0,-9.006440043E-1,1.860760003E-1,-1.075266957E0
2.130168410E0,-9.006440043E-1,1.860760003E-1,-1.075266957E0
2.132708256E0,-9.006440043E-1,1.860760003E-1,-1.075266957E0
2.135248103E0,-9.006440043E-1,1.860760003E-1,-1.075266957E0
2.137787795E0,-9.006440043E-1,1.860760003E-1,-1.075266957E0
2.140327488E0,-9.006440043E-1,1.860760003E-1,-1.075266957E0
2.142867026E0,-1.243886948E0,1.155410036E-1,-1.323812962E0
2.145406565E0,-1.243886948E0,1.155410036E-1,-1.323812962E0
2.147945334E0,-1.243886948E0,1.155410036E-1,-1.323812962E0
2.150484103E0,-1.243886948E0,1.155410036E-1,-1.323812962E0
2.153023219E0,-1.243886948E0,1.155410036E-1,-1.323812962E0
2.155562334E0,-1.243886948E0,1.155410036E-1,-1.323812962E0
2.158101709E0,-1.243886948E0,1.155410036E-1,-1.323812962E0
2.160641094E0,-1.243886948E0,1.155410036E-1,-1.323812962E0
2.163180593E0,-1.251001000E0,-3.703480065E-1,-1.379858971E0
2.165720094E0,-1.251001000E0,-3.703480065E-1,-1.379858971E0
2.168259184E0,-1.251001000E0,-3.703480065E-1,-1.379858971E0
2.170798301E0,-1.251001000E0,-3.703480065E-1,-1.379858971E0
2.173337993E0,-1.251001000E0,-3.703480065E-1,-1.379858971E0
2.175877684E0,-1.251001000E0,-3.703480065E-1,-1.379858971E0
2.178417059E0,-1.251001000E0,-3.703480065E-1,-1.379858971E0
2.180956444E0,-1.251001000E0,-3.703480065E-1,-1.379858971E0
2.183495829E0,-1.012454987E0,-5.385010242E-1,-1.320198059E0
2.186035214E0,-1.012454987E0,-5.385010242E-1,-1.320198059E0
2.188574767E0,-1.012454987E0,-5.385010242E-1,-1.320198059E0
2.191114306E0,-1.012454987E0,-5.385010242E-1,-1.320198059E0
2.193653535E0,-1.012454987E0,-5.385010242E-1,-1.320198059E0
2.196192766E0,-1.012454987E0,-5.385010242E-1,-1.320198059E0
2.198731844E0,-1.012454987E0,-5.385010242E-1,-1.320198059E0
2.201270921E0,-1.012454987E0,-5.385010242E-1,-1.320198059E0
2.203809652E0,-9.757530093E-1,-6.464359760E-1,-1.354573011E0
2.206348383E0,-9.757530093E-1,-6.464359760E-1,-1.354573011E0
2.208887820E0,-9.757530093E-1,-6.464359760E-1,-1.354573011E0
2.211427243E0,-9.757530093E-1,-6.464359760E-1,-1.354573011E0
2.213965972E0,-9.757530093E-1,-6.464359760E-1,-1.354573011E0
2.216504703E0,-9.757530093E-1,-6.464359760E-1,-1.354573011E0
2.219043656E0,-9.757530093E-1,-6.464359760E-1,-1.354573011E0
2.221582579E0,-9.757530093E-1,-6.464359760E-1,-1.354573011E0
2.224121694E0,-1.385645032E0,-9.083579779E-1,-1.605466008E0
2.226660809E0,-1.385645032E0,-9.083579779E-1,-1.605466008E0
2.229200002E0,-1.385645032E0,-9.083579779E-1,-1.605466008E0
2.231739195E0,-1.385645032E0,-9.083579779E-1,-1.605466008E0
2.234277539E0,-1.385645032E0,-9.083579779E-1,-1.605466008E0
2.236815886E0,-1.385645032E0,-9.083579779E-1,-1.605466008E0
2.239355079E0,-1.385645032E0,-9.083579779E-1,-1.605466008E0
2.241894272E0,-1.385645032E0,-9.083579779E-1,-1.605466008E0
2.244433194E0,-1.899860024E0,-1.700651050E0,-1.957679987E0
2.246972117E0,-1.899860024E0,-1.700651050E0,-1.957679987E0
2.249511368E0,-1.899860024E0,-1.700651050E0,-1.957679987E0
2.252050599E0,-1.899860024E0,-1.700651050E0,-1.957679987E0
2.254589559E0,-1.899860024E0,-1.700651050E0,-1.957679987E0
2.257128522E0,-1.899860024E0,-1.700651050E0,-1.957679987E0
2.259667233E0,-1.899860024E0,-1.700651050E0,-1.957679987E0
2.262205964E0,-1.899860024E0,-1.700651050E0,-1.957679987E0
2.264744887E0,-2.193130970E0,-1.840378046E0,-2.077023029E0
2.267283810E0,-2.193130970E0,-1.840378046E0,-2.077023029E0
2.269823338E0,-2.193130970E0,-1.840378046E0,-2.077023029E0
2.272362877E0,-2.193130970E0,-1.840378046E0,-2.077023029E0
2.274902299E0,-2.193130970E0,-1.840378046E0,-2.077023029E0
2.277441724E0,-2.193130970E0,-1.840378046E0,-2.077023029E0
2.279980934E0,-2.193130970E0,-1.840378046E0,-2.077023029E0
2.282520165E0,-2.193130970E0,-1.840378046E0,-2.077023029E0
2.285058780E0,-2.128292084E0,-1.722615004E0,-2.084367037E0
2.287597395E0,-2.128292084E0,-1.722615004E0,-2.084367037E0
2.290136021E0,-2.128292084E0,-1.722615004E0,-2.084367037E0
2.292674636E0,-2.128292084E0,-1.722615004E0,-2.084367037E0
2.295213867E0,-2.128292084E0,-1.722615004E0,-2.084367037E0
2.297753098E0,-2.128292084E0,-1.722615004E0,-2.084367037E0
2.300292495E0,-2.128292084E0,-1.722615004E0,-2.084367037E0
2.302831880E0,-2.128292084E0,-1.722615004E0,-2.084367037E0
2.305371880E0,-8.294969797E-1,-1.424749970E0,-1.906211019E0
2.307911881E0,-8.294969797E-1,-1.424749970E0,-1.906211019E0
2.310450822E0,-8.294969797E-1,-1.424749970E0,-1.906211019E0
2.312989747E0,-8.294969797E-1,-1.424749970E0,-1.906211019E0
2.315528477E0,-8.294969797E-1,-1.424749970E0,-1.906211019E0
2.318067208E0,-8.294969797E-1,-1.424749970E0,-1.906211019E0
2.320606785E0,-8.294969797E-1,-1.424749970E0,-1.906211019E0
2.323146362E0,-8.294969797E-1,-1.424749970E0,-1.906211019E0
2.325685437E0,-8.784819841E-1,-1.182765007E0,-2.023365974E0
2.328224516E0,-8.784819841E-1,-1.182765007E0,-2.023365974E0
2.330763713E0,-8.784819841E-1,-1.182765007E0,-2.023365974E0
2.333302904E0,-8.784819841E-1,-1.182765007E0,-2.023365974E0
2.335841866E0,-8.784819841E-1,-1.182765007E0,-2.023365974E0
2.338380829E0,-8.784819841E-1,-1.182765007E0,-2.023365974E0
2.340920824E0,-8.784819841E-1,-1.182765007E0,-2.023365974E0
2.343460823E0,-8.784819841E-1,-1.182765007E0,-2.023365974E0
2.346000361E0,-9.259049892E-1,-5.037000179E-1,-1.955574036E0
2.348539900E0,-9.259049892E-1,-5.037000179E-1,-1.955574036E0
2.351079425E0,-9.259049892E-1,-5.037000179E-1,-1.955574036E0
2.353618962E0,-9.259049892E-1,-5.037000179E-1,-1.955574036E0
2.356157886E0,-9.259049892E-1,-5.037000179E-1,-1.955574036E0
2.358696809E0,-9.259049892E-1,-5.037000179E-1,-1.955574036E0
2.361235261E0,-6.868919730E-1,2.581700087E-1,-1.736436963E0
2.363773722E0,-6.868919730E-1,2.581700087E-1,-1.736436963E0
2.366312915E0,-6.868919730E-1,2.581700087E-1,-1.736436963E0
2.368852106E0,-6.868919730E-1,2.581700087E-1,-1.736436963E0
2.371391939E0,-6.868919730E-1,2.581700087E-1,-1.736436963E0
2.373931786E0,-6.868919730E-1,2.581700087E-1,-1.736436963E0
2.376471669E0,-6.868919730E-1,2.581700087E-1,-1.736436963E0
2.379011554E0,-6.868919730E-1,2.581700087E-1,-1.736436963E0
2.381550898E0,-2.829770148E-1,9.189590216E-1,-1.495484948E0
2.384090245E0,-2.829770148E-1,9.189590216E-1,-1.495484948E0
2.386630400E0,-2.829770148E-1,9.189590216E-1,-1.495484948E0
2.389170553E0,-2.829770148E-1,9.189590216E-1,-1.495484948E0
2.391710447E0,-2.829770148E-1,9.189590216E-1,-1.495484948E0
2.394250332E0,-2.829770148E-1,9.189590216E-1,-1.495484948E0
2.396790333E0,-2.829770148E-1,9.189590216E-1,-1.495484948E0
2.399330332E0,-2.829770148E-1,9.189590216E-1,-1.495484948E0
2.401870014E0,9.783300012E-2,1.519716978E0,-1.283661962E0
2.404409669E0,9.783300012E-2,1.519716978E0,-1.283661962E0
2.406950747E0,9.783300012E-2,1.519716978E0,-1.283661962E0
2.409491824E0,9.783300012E-2,1.519716978E0,-1.283661962E0
2.412031399E0,9.783300012E-2,1.519716978E0,-1.283661962E0
2.414570978E0,9.783300012E-2,1.519716978E0,-1.283661962E0
2.417110208E0,9.783300012E-2,1.519716978E0,-1.283661962E0
2.419649439E0,9.783300012E-2,1.519716978E0,-1.283661962E0
2.422189593E0,3.382990062E-1,1.733312964E0,-1.179679990E0
2.424729746E0,3.382990062E-1,1.733312964E0,-1.179679990E0
2.427269605E0,3.382990062E-1,1.733312964E0,-1.179679990E0
2.429809452E0,3.382990062E-1,1.733312964E0,-1.179679990E0
2.432349414E0,3.382990062E-1,1.733312964E0,-1.179679990E0
2.434889375E0,3.382990062E-1,1.733312964E0,-1.179679990E0
2.437429568E0,3.382990062E-1,1.733312964E0,-1.179679990E0
2.439969761E0,3.382990062E-1,1.733312964E0,-1.179679990E0
2.442509759E0,4.606739879E-1,1.583974004E0,-1.180840969E0
2.445049760E0,4.606739879E-1,1.583974004E0,-1.180840969E0
2.447589160E0,4.606739879E-1,1.583974004E0,-1.180840969E0
2.450128545E0,4.606739879E-1,1.583974004E0,-1.180840969E0
2.452667621E0,4.606739879E-1,1.583974004E0,-1.180840969E0
2.455206698E0,4.606739879E-1,1.583974004E0,-1.180840969E0
2.457746357E0,4.606739879E-1,1.583974004E0,-1.180840969E0
2.460286010E0,4.606739879E-1,1.583974004E0,-1.180840969E0
2.462826010E0,3.047640026E-1,1.876773953E0,-1.135362029E0
2.465366011E0,3.047640026E-1,1.876773953E0,-1.135362029E0
2.467905727E0,3.047640026E-1,1.876773953E0,-1.135362029E0
2.470445458E0,3.047640026E-1,1.876773953E0,-1.135362029E0
2.472985267E0,3.047640026E-1,1.876773953E0,-1.135362029E0
2.475525074E0,3.047640026E-1,1.876773953E0,-1.135362029E0
2.478064343E0,3.047640026E-1,1.876773953E0,-1.135362029E0
2.480603612E0,3.047640026E-1,1.876773953E0,-1.135362029E0
2.483143113E0,3.731569946E-1,1.680359960E0,-1.115321994E0
2.485682612E0,3.731569946E-1,1.680359960E0,-1.115321994E0
2.488221722E0,3.731569946E-1,1.680359960E0,-1.115321994E0
2.490760839E0,3.731569946E-1,1.680359960E0,-1.115321994E0
2.493300339E0,3.731569946E-1,1.680359960E0,-1.115321994E0
2.495839838E0,3.731569946E-1,1.680359960E0,-1.115321994E0
2.498379266E0,3.731569946E-1,1.680359960E0,-1.115321994E0
2.500918689E0,3.731569946E-1,1.680359960E0,-1.115321994E0
2.503458536E0,3.095490038E-1,1.241389036E0,-1.245210052E0
2.505998381E0,3.095490038E-1,1.241389036E0,-1.245210052E0
2.508537778E0,3.095490038E-1,1.241389036E0,-1.245210052E0
2.511077165E0,3.095490038E-1,1.241389036E0,-1.245210052E0
2.513616972E0,3.095490038E-1,1.241389036E0,-1.245210052E0
2.516156779E0,3.095490038E-1,1.241389036E0,-1.245210052E0
2.518697386E0,3.095490038E-1,1.241389036E0,-1.245210052E0
2.521238001E0,3.095490038E-1,1.241389036E0,-1.245210052E0
2.523778347E0,1.909600049E-1,5.904920101E-1,-1.467968941E0
2.526318694E0,1.909600049E-1,5.904920101E-1,-1.467968941E0
2.528858805E0,1.909600049E-1,5.904920101E-1,-1.467968941E0
2.531398920E0,1.909600049E-1,5.904920101E-1,-1.467968941E0
2.533938959E0,1.909600049E-1,5.904920101E-1,-1.467968941E0
2.536478998E0,1.909600049E-1,5.904920101E-1,-1.467968941E0
2.539018871E0,1.909600049E-1,5.904920101E-1,-1.467968941E0
2.541558718E0,1.909600049E-1,5.904920101E-1,-1.467968941E0
2.544098526E0,1.504299939E-1,2.113620043E-1,-1.528372049E0
2.546638333E0,1.504299939E-1,2.113620043E-1,-1.528372049E0
2.549177914E0,1.504299939E-1,2.113620043E-1,-1.528372049E0
2.551717491E0,1.504299939E-1,2.113620043E-1,-1.528372049E0
2.554257183E0,1.504299939E-1,2.113620043E-1,-1.528372049E0
2.556796876E0,1.504299939E-1,2.113620043E-1,-1.528372049E0
2.559336564E0,1.504299939E-1,2.113620043E-1,-1.528372049E0
2.561876257E0,1.504299939E-1,2.113620043E-1,-1.528372049E0
2.564415794E0,1.484050006E-1,-1.469810009E-1,-1.560489058E0
2.566955333E0,1.484050006E-1,-1.469810009E-1,-1.560489058E0
2.569495306E0,1.484050006E-1,-1.469810009E-1,-1.560489058E0
2.572035305E0,1.484050006E-1,-1.469810009E-1,-1.560489058E0
2.574575266E0,1.484050006E-1,-1.469810009E-1,-1.560489058E0
2.577115229E0,1.484050006E-1,-1.469810009E-1,-1.560489058E0
2.579654647E0,1.484050006E-1,-1.469810009E-1,-1.560489058E0
2.582194070E0,1.484050006E-1,-1.469810009E-1,-1.560489058E0
2.584733877E0,1.624590009E-1,-3.420430124E-1,-1.527176023E0
2.587273684E0,1.624590009E-1,-3.420430124E-1,-1.527176023E0
2.589813410E0,1.624590009E-1,-3.420430124E-1,-1.527176023E0
2.592353141E0,1.624590009E-1,-3.420430124E-1,-1.527176023E0
2.594892796E0,1.624590009E-1,-3.420430124E-1,-1.527176023E0
2.597432449E0,1.624590009E-1,-3.420430124E-1,-1.527176023E0
2.599971878E0,1.624590009E-1,-3.420430124E-1,-1.527176023E0
2.602511301E0,1.624590009E-1,-3.420430124E-1,-1.527176023E0
2.605051917E0,1.685660034E-1,-2.999339998E-1,-1.412456989E0
2.607592532E0,1.685660034E-1,-2.999339998E-1,-1.412456989E0
2.610132073E0,1.685660034E-1,-2.999339998E-1,-1.412456989E0
2.612671612E0,1.685660034E-1,-2.999339998E-1,-1.412456989E0
2.615211113E0,1.685660034E-1,-2.999339998E-1,-1.412456989E0
2.617750612E0,1.685660034E-1,-2.999339998E-1,-1.412456989E0
2.620290593E0,1.685660034E-1,-2.999339998E-1,-1.412456989E0
2.622830592E0,1.685660034E-1,-2.999339998E-1,-1.412456989E0
2.625370477E0,1.426330060E-1,-2.505730093E-1,-1.309589028E0
2.627910362E0,1.426330060E-1,-2.505730093E-1,-1.309589028E0
2.630450170E0,1.426330060E-1,-2.505730093E-1,-1.309589028E0
2.632989977E0,1.426330060E-1,-2.505730093E-1,-1.309589028E0
2.635529247E0,1.426330060E-1,-2.505730093E-1,-1.309589028E0
2.638068516E0,1.426330060E-1,-2.505730093E-1,-1.309589028E0
2.640608324E0,1.426330060E-1,-2.505730093E-1,-1.309589028E0
2.643148131E0,1.426330060E-1,-2.505730093E-1,-1.309589028E0
2.645687708E0,-3.164739907E-1,2.074660063E-1,-1.200945020E0
2.648227285E0,-3.164739907E-1,2.074660063E-1,-1.200945020E0
2.650766690E0,-3.164739907E-1,2.074660063E-1,-1.200945020E0
2.653306075E0,-3.164739907E-1,2.074660063E-1,-1.200945020E0
2.655845729E0,-3.164739907E-1,2.074660063E-1,-1.200945020E0
2.658385382E0,-3.164739907E-1,2.074660063E-1,-1.200945020E0
2.660924030E0,-3.164739907E-1,2.074660063E-1,-1.200945020E0
2.663462685E0,-3.164739907E-1,2.074660063E-1,-1.200945020E0
2.666002186E0,-1.096739992E-1,7.215330005E-1,-8.552569747E-1
2.668541685E0,-1.096739992E-1,7.215330005E-1,-8.552569747E-1
2.671080006E0,-1.096739992E-1,7.215330005E-1,-8.552569747E-1
2.673618353E0,-1.096739992E-1,7.215330005E-1,-8.552569747E-1
2.676157277E0,-1.096739992E-1,7.215330005E-1,-8.552569747E-1
2.678696200E0,-1.096739992E-1,7.215330005E-1,-8.552569747E-1
2.681235747E0,2.375669926E-1,-8.672899753E-2,-9.808949828E-1
2.683775286E0,2.375669926E-1,-8.672899753E-2,-9.808949828E-1
2.686315092E0,2.375669926E-1,-8.672899753E-2,-9.808949828E-1
2.688854901E0,2.375669926E-1,-8.672899753E-2,-9.808949828E-1
2.691394756E0,2.375669926E-1,-8.672899753E-2,-9.808949828E-1
2.693934603E0,2.375669926E-1,-8.672899753E-2,-9.808949828E-1
2.696474487E0,2.375669926E-1,-8.672899753E-2,-9.808949828E-1
2.699014372E0,2.375669926E-1,-8.672899753E-2,-9.808949828E-1
2.701555126E0,-3.464300185E-2,8.185369968E-1,-6.221240163E-1
2.704095895E0,-3.464300185E-2,8.185369968E-1,-6.221240163E-1
2.706636202E0,-3.464300185E-2,8.185369968E-1,-6.221240163E-1
2.709176511E0,-3.464300185E-2,8.185369968E-1,-6.221240163E-1
2.711715843E0,-3.464300185E-2,8.185369968E-1,-6.221240163E-1
2.714255190E0,-3.464300185E-2,8.185369968E-1,-6.221240163E-1
2.716794574E0,-3.464300185E-2,8.185369968E-1,-6.221240163E-1
2.719333959E0,-3.464300185E-2,8.185369968E-1,-6.221240163E-1
2.721873184E0,-7.396300137E-2,9.186869860E-1,-5.054299831E-1
2.724412415E0,-7.396300137E-2,9.186869860E-1,-5.054299831E-1
2.726951685E0,-7.396300137E-2,9.186869860E-1,-5.054299831E-1
2.729490954E0,-7.396300137E-2,9.186869860E-1,-5.054299831E-1
2.732030353E0,-7.396300137E-2,9.186869860E-1,-5.054299831E-1
2.734569738E0,-7.396300137E-2,9.186869860E-1,-5.054299831E-1
2.737108968E0,-7.396300137E-2,9.186869860E-1,-5.054299831E-1
2.739648199E0,-7.396300137E-2,9.186869860E-1,-5.054299831E-1
2.742187238E0,-1.248610020E-1,8.447430134E-1,-4.674830139E-1
2.744726277E0,-1.248610020E-1,8.447430134E-1,-4.674830139E-1
2.747265531E0,-1.248610020E-1,8.447430134E-1,-4.674830139E-1
2.749804800E0,-1.248610020E-1,8.447430134E-1,-4.674830139E-1
2.752344184E0,-1.248610020E-1,8.447430134E-1,-4.674830139E-1
2.754883569E0,-1.248610020E-1,8.447430134E-1,-4.674830139E-1
2.757423103E0,-1.248610020E-1,8.447430134E-1,-4.674830139E-1
2.759962642E0,-1.248610020E-1,8.447430134E-1,-4.674830139E-1
2.762502487E0,-1.549669951E-1,8.479520082E-1,-3.882240057E-1
2.765042334E0,-1.549669951E-1,8.479520082E-1,-3.882240057E-1
2.767581578E0,-1.549669951E-1,8.479520082E-1,-3.882240057E-1
2.770120811E0,-1.549669951E-1,8.479520082E-1,-3.882240057E-1
2.772660503E0,-1.549669951E-1,8.479520082E-1,-3.882240057E-1
2.775200194E0,-1.549669951E-1,8.479520082E-1,-3.882240057E-1
2.777739524E0,-1.549669951E-1,8.479520082E-1,-3.882240057E-1
2.780278871E0,-1.549669951E-1,8.479520082E-1,-3.882240057E-1
2.782817679E0,-1.357059926E-1,7.681990266E-1,-3.400020003E-1
2.785356486E0,-1.357059926E-1,7.681990266E-1,-3.400020003E-1
2.787895574E0,-1.357059926E-1,7.681990266E-1,-3.400020003E-1
2.790434651E0,-1.357059926E-1,7.681990266E-1,-3.400020003E-1
2.792973880E0,-1.357059926E-1,7.681990266E-1,-3.400020003E-1
2.795513111E0,-1.357059926E-1,7.681990266E-1,-3.400020003E-1
2.798052774E0,-1.357059926E-1,7.681990266E-1,-3.400020003E-1
2.800592429E0,-1.357059926E-1,7.681990266E-1,-3.400020003E-1
2.803132466E0,2.054020017E-1,5.298359990E-1,-2.290699929E-1
2.805672505E0,2.054020017E-1,5.298359990E-1,-2.290699929E-1
2.808212043E0,2.054020017E-1,5.298359990E-1,-2.290699929E-1
2.810751582E0,2.054020017E-1,5.298359990E-1,-2.290699929E-1
2.813290621E0,2.054020017E-1,5.298359990E-1,-2.290699929E-1
2.815829660E0,2.054020017E-1,5.298359990E-1,-2.290699929E-1
2.818368583E0,2.054020017E-1,5.298359990E-1,-2.290699929E-1
2.820907506E0,2.054020017E-1,5.298359990E-1,-2.290699929E-1
2.823447545E0,5.074499920E-2,5.312029719E-1,-2.472060025E-1
2.825987582E0,5.074499920E-2,5.312029719E-1,-2.472060025E-1
2.828527895E0,5.074499920E-2,5.312029719E-1,-2.472060025E-1
2.831068202E0,5.074499920E-2,5.312029719E-1,-2.472060025E-1
2.833607894E0,5.074499920E-2,5.312029719E-1,-2.472060025E-1
2.836147587E0,5.074499920E-2,5.312029719E-1,-2.472060025E-1
2.838687103E0,5.074499920E-2,5.312029719E-1,-2.472060025E-1
2.841226602E0,5.074499920E-2,5.312029719E-1,-2.472060025E-1
2.843766180E0,-2.857249975E-1,1.447414994E0,1.272310019E-1
2.846305757E0,-2.857249975E-1,1.447414994E0,1.272310019E-1
2.848845721E0,-2.857249975E-1,1.447414994E0,1.272310019E-1
2.851385684E0,-2.857249975E-1,1.447414994E0,1.272310019E-1
2.853925414E0,-2.857249975E-1,1.447414994E0,1.272310019E-1
2.856465145E0,-2.857249975E-1,1.447414994E0,1.272310019E-1
2.859004968E0,-2.857249975E-1,1.447414994E0,1.272310019E-1
2.861544775E0,-2.857249975E-1,1.447414994E0,1.272310019E-1
2.864084468E0,6.601999700E-2,4.269329906E-1,-2.005210072E-1
2.866624161E0,6.601999700E-2,4.269329906E-1,-2.005210072E-1
2.869163891E0,6.601999700E-2,4.269329906E-1,-2.005210072E-1
2.871703622E0,6.601999700E-2,4.269329906E-1,-2.005210072E-1
2.874243121E0,6.601999700E-2,4.269329906E-1,-2.005210072E-1
2.876782622E0,6.601999700E-2,4.269329906E-1,-2.005210072E-1
2.879322357E0,6.601999700E-2,4.269329906E-1,-2.005210072E-1
2.881862088E0,6.601999700E-2,4.269329906E-1,-2.005210072E-1
2.884401625E0,1.571680009E-1,3.244209886E-1,-1.652390063E-1
2.886941164E0,1.571680009E-1,3.244209886E-1,-1.652390063E-1
2.889480665E0,1.571680009E-1,3.244209886E-1,-1.652390063E-1
2.892020164E0,1.571680009E-1,3.244209886E-1,-1.652390063E-1
2.894559088E0,1.571680009E-1,3.244209886E-1,-1.652390063E-1
2.897098011E0,1.571680009E-1,3.244209886E-1,-1.652390063E-1
2.899638357E0,1.571680009E-1,3.244209886E-1,-1.652390063E-1
2.902178702E0,1.571680009E-1,3.244209886E-1,-1.652390063E-1
2.904717932E0,1.598819941E-1,2.773900032E-1,-1.467690021E-1
2.907257165E0,1.598819941E-1,2.773900032E-1,-1.467690021E-1
2.909796838E0,1.598819941E-1,2.773900032E-1,-1.467690021E-1
2.912336491E0,1.598819941E-1,2.773900032E-1,-1.467690021E-1
2.914875144E0,1.598819941E-1,2.773900032E-1,-1.467690021E-1
2.917413799E0,1.598819941E-1,2.773900032E-1,-1.467690021E-1
2.919952732E0,1.598819941E-1,2.773900032E-1,-1.467690021E-1
2.922491655E0,1.598819941E-1,2.773900032E-1,-1.467690021E-1
2.925030230E0,1.798039973E-1,2.026010007E-1,-1.370970011E-1
2.927568809E0,1.798039973E-1,2.026010007E-1,-1.370970011E-1
2.930107905E0,1.798039973E-1,2.026010007E-1,-1.370970011E-1
2.932647020E0,1.798039973E-1,2.026010007E-1,-1.370970011E-1
2.935185789E0,1.798039973E-1,2.026010007E-1,-1.370970011E-1
2.937724558E0,1.798039973E-1,2.026010007E-1,-1.370970011E-1
2.940263338E0,1.798039973E-1,2.026010007E-1,-1.370970011E-1
2.942802107E0,1.798039973E-1,2.026010007E-1,-1.370970011E-1
2.945340838E0,1.920229942E-1,1.299879998E-1,-1.344670057E-1
2.947879569E0,1.920229942E-1,1.299879998E-1,-1.344670057E-1
2.950418223E0,1.920229942E-1,1.299879998E-1,-1.344670057E-1
2.952956876E0,1.920229942E-1,1.299879998E-1,-1.344670057E-1
2.955495761E0,1.920229942E-1,1.299879998E-1,-1.344670057E-1
2.958034646E0,1.920229942E-1,1.299879998E-1,-1.344670057E-1
2.960573443E0,1.920229942E-1,1.299879998E-1,-1.344670057E-1
2.963112252E0,1.920229942E-1,1.299879998E-1,-1.344670057E-1
2.965651598E0,1.611070037E-1,1.026630029E-1,-1.336580068E-1
2.968190943E0,1.611070037E-1,1.026630029E-1,-1.336580068E-1
2.970730352E0,1.611070037E-1,1.026630029E-1,-1.336580068E-1
2.973269775E0,1.611070037E-1,1.026630029E-1,-1.336580068E-1
2.975808659E0,1.611070037E-1,1.026630029E-1,-1.336580068E-1
2.978347544E0,1.611070037E-1,1.026630029E-1,-1.336580068E-1
2.980886603E0,1.611070037E-1,1.026630029E-1,-1.336580068E-1
2.983425680E0,1.611070037E-1,1.026630029E-1,-1.336580068E-1
2.985965064E0,1.548130065E-1,2.930999920E-2,-1.507070065E-1
2.988504449E0,1.548130065E-1,2.930999920E-2,-1.507070065E-1
2.991043828E0,1.548130065E-1,2.930999920E-2,-1.507070065E-1
2.993583213E0,1.548130065E-1,2.930999920E-2,-1.507070065E-1
2.996122598E0,1.548130065E-1,2.930999920E-2,-1.507070065E-1
2.998661983E0,1.548130065E-1,2.930999920E-2,-1.507070065E-1
3.001202137E0,1.291339993E-1,-3.181700036E-2,-1.699720025E-1
3.003742290E0,1.291339993E-1,-3.181700036E-2,-1.699720025E-1
3.006281828E0,1.291339993E-1,-3.181700036E-2,-1.699720025E-1
3.008821367E0,1.291339993E-1,-3.181700036E-2,-1.699720025E-1
3.011360282E0,1.291339993E-1,-3.181700036E-2,-1.699720025E-1
3.013899205E0,1.291339993E-1,-3.181700036E-2,-1.699720025E-1
3.016438166E0,1.291339993E-1,-3.181700036E-2,-1.699720025E-1
3.018977127E0,1.291339993E-1,-3.181700036E-2,-1.699720025E-1
3.021516771E0,7.329799980E-2,-4.061200097E-2,-1.742489934E-1
3.024056426E0,7.329799980E-2,-4.061200097E-2,-1.742489934E-1
3.026596117E0,7.329799980E-2,-4.061200097E-2,-1.742489934E-1
3.029135810E0,7.329799980E-2,-4.061200097E-2,-1.742489934E-1
3.031675025E0,7.329799980E-2,-4.061200097E-2,-1.742489934E-1
3.034214258E0,7.329799980E-2,-4.061200097E-2,-1.742489934E-1
3.036753527E0,7.329799980E-2,-4.061200097E-2,-1.742489934E-1
3.039292796E0,7.329799980E-2,-4.061200097E-2,-1.742489934E-1
3.041831880E0,-3.002820015E-1,1.809639931E-1,-2.304670066E-1
3.044370959E0,-3.002820015E-1,1.809639931E-1,-2.304670066E-1
3.046909998E0,-3.002820015E-1,1.809639931E-1,-2.304670066E-1
3.049449035E0,-3.002820015E-1,1.809639931E-1,-2.304670066E-1
3.051988277E0,-3.002820015E-1,1.809639931E-1,-2.304670066E-1
3.054527508E0,-3.002820015E-1,1.809639931E-1,-2.304670066E-1
3.057066314E0,-3.002820015E-1,1.809639931E-1,-2.304670066E-1
3.059605123E0,-3.002820015E-1,1.809639931E-1,-2.304670066E-1
3.062144469E0,-4.220620096E-1,3.220950067E-1,-2.197789997E-1
3.064683814E0,-4.220620096E-1,3.220950067E-1,-2.197789997E-1
3.067222780E0,-4.220620096E-1,3.220950067E-1,-2.197789997E-1
3.069761743E0,-4.220620096E-1,3.220950067E-1,-2.197789997E-1
3.072301743E0,-4.220620096E-1,3.220950067E-1,-2.197789997E-1
3.074841742E0,-4.220620096E-1,3.220950067E-1,-2.197789997E-1
3.077380972E0,-4.220620096E-1,3.220950067E-1,-2.197789997E-1
3.079920205E0,-4.220620096E-1,3.220950067E-1,-2.197789997E-1
3.082459705E0,-4.057770073E-1,3.747690022E-1,-1.839379966E-1
3.084999204E0,-4.057770073E-1,3.747690022E-1,-1.839379966E-1
3.087539512E0,-4.057770073E-1,3.747690022E-1,-1.839379966E-1
3.090079819E0,-4.057770073E-1,3.747690022E-1,-1.839379966E-1
3.092619703E0,-4.057770073E-1,3.747690022E-1,-1.839379966E-1
3.095159590E0,-4.057770073E-1,3.747690022E-1,-1.839379966E-1
3.097699868E0,-4.057770073E-1,3.747690022E-1,-1.839379966E-1
3.100240137E0,-4.057770073E-1,3.747690022E-1,-1.839379966E-1
3.102781521E0,-4.244680107E-1,4.661119878E-1,-1.532739997E-1
3.105322906E0,-4.244680107E-1,4.661119878E-1,-1.532739997E-1
3.107862779E0,-4.244680107E-1,4.661119878E-1,-1.532739997E-1
3.110402666E0,-4.244680107E-1,4.661119878E-1,-1.532739997E-1
3.112942319E0,-4.244680107E-1,4.661119878E-1,-1.532739997E-1
3.115481972E0,-4.244680107E-1,4.661119878E-1,-1.532739997E-1
3.118021088E0,-4.244680107E-1,4.661119878E-1,-1.532739997E-1
3.120560203E0,-4.244680107E-1,4.661119878E-1,-1.532739997E-1
3.123099742E0,-4.553509951E-1,5.249559879E-1,-1.444810033E-1
3.125639281E0,-4.553509951E-1,5.249559879E-1,-1.444810033E-1
3.128179871E0,-4.553509951E-1,5.249559879E-1,-1.444810033E-1
3.130720448E0,-4.553509951E-1,5.249559879E-1,-1.444810033E-1
3.133260948E0,-4.553509951E-1,5.249559879E-1,-1.444810033E-1
3.135801449E0,-4.553509951E-1,5.249559879E-1,-1.444810033E-1
3.138341613E0,-4.553509951E-1,5.249559879E-1,-1.444810033E-1
3.140881766E0,-4.553509951E-1,5.249559879E-1,-1.444810033E-1
3.143421766E0,-4.806559980E-1,5.474539995E-1,-1.498740017E-1
3.145961767E0,-4.806559980E-1,5.474539995E-1,-1.498740017E-1
3.148502083E0,-4.806559980E-1,5.474539995E-1,-1.498740017E-1
3.151042390E0,-4.806559980E-1,5.474539995E-1,-1.498740017E-1
3.153582544E0,-4.806559980E-1,5.474539995E-1,-1.498740017E-1
3.156122699E0,-4.806559980E-1,5.474539995E-1,-1.498740017E-1
3.158662857E0,-4.806559980E-1,5.474539995E-1,-1.498740017E-1
3.161203010E0,-4.806559980E-1,5.474539995E-1,-1.498740017E-1
3.163744358E0,-4.466440082E-1,5.169309974E-1,-1.417430043E-1
3.166285703E0,-4.466440082E-1,5.169309974E-1,-1.417430043E-1
3.168825573E0,-4.466440082E-1,5.169309974E-1,-1.417430043E-1
3.171365458E0,-4.466440082E-1,5.169309974E-1,-1.417430043E-1
3.173905728E0,-4.466440082E-1,5.169309974E-1,-1.417430043E-1
3.176445997E0,-4.466440082E-1,5.169309974E-1,-1.417430043E-1
3.178985991E0,-4.466440082E-1,5.169309974E-1,-1.417430043E-1
3.181525992E0,-4.466440082E-1,5.169309974E-1,-1.417430043E-1
3.184066454E0,-3.632139862E-1,4.137690067E-1,-1.344940066E-1
3.186606915E0,-3.632139862E-1,4.137690067E-1,-1.344940066E-1
3.189147116E0,-3.632139862E-1,4.137690067E-1,-1.344940066E-1
3.191687309E0,-3.632139862E-1,4.137690067E-1,-1.344940066E-1
3.194227309E0,-3.632139862E-1,4.137690067E-1,-1.344940066E-1
3.196767308E0,-3.632139862E-1,4.137690067E-1,-1.344940066E-1
3.199309002E0,-3.632139862E-1,4.137690067E-1,-1.344940066E-1
3.201850693E0,-3.632139862E-1,4.137690067E-1,-1.344940066E-1
3.204391154E0,-2.189729959E-1,2.216019928E-1,-1.315789968E-1
3.206931617E0,-2.189729959E-1,2.216019928E-1,-1.315789968E-1
3.209471540E0,-2.189729959E-1,2.216019928E-1,-1.315789968E-1
3.212011501E0,-2.189729959E-1,2.216019928E-1,-1.315789968E-1
3.214551348E0,-2.189729959E-1,2.216019928E-1,-1.315789968E-1
3.217091193E0,-2.189729959E-1,2.216019928E-1,-1.315789968E-1
3.219630925E0,-2.189729959E-1,2.216019928E-1,-1.315789968E-1
3.222170656E0,-2.189729959E-1,2.216019928E-1,-1.315789968E-1
3.224710617E0,1.659760028E-1,-3.523719907E-1,-1.874939948E-1
3.227250578E0,1.659760028E-1,-3.523719907E-1,-1.874939948E-1
3.229790558E0,1.659760028E-1,-3.523719907E-1,-1.874939948E-1
3.232330559E0,1.659760028E-1,-3.523719907E-1,-1.874939948E-1
3.234870250E0,1.659760028E-1,-3.523719907E-1,-1.874939948E-1
3.237409943E0,1.659760028E-1,-3.523719907E-1,-1.874939948E-1
3.239949160E0,1.659760028E-1,-3.523719907E-1,-1.874939948E-1
3.242488391E0,1.659760028E-1,-3.523719907E-1,-1.874939948E-1
3.245027968E0,3.278050125E-1,-7.600610256E-1,-3.047010005E-1
3.247567545E0,3.278050125E-1,-7.600610256E-1,-3.047010005E-1
3.250107227E0,3.278050125E-1,-7.600610256E-1,-3.047010005E-1
3.252646920E0,3.278050125E-1,-7.600610256E-1,-3.047010005E-1
3.255186457E0,3.278050125E-1,-7.600610256E-1,-3.047010005E-1
3.257725996E0,3.278050125E-1,-7.600610256E-1,-3.047010005E-1
3.260265655E0,3.278050125E-1,-7.600610256E-1,-3.047010005E-1
3.262805308E0,3.278050125E-1,-7.600610256E-1,-3.047010005E-1
3.265345154E0,4.223209918E-1,-9.198030233E-1,-3.350799978E-1
3.267885001E0,4.223209918E-1,-9.198030233E-1,-3.350799978E-1
3.270424723E0,4.223209918E-1,-9.198030233E-1,-3.350799978E-1
3.272964416E0,4.223209918E-1,-9.198030233E-1,-3.350799978E-1
3.275504916E0,4.223209918E-1,-9.198030233E-1,-3.350799978E-1
3.278045415E0,4.223209918E-1,-9.198030233E-1,-3.350799978E-1
3.280585429E0,4.223209918E-1,-9.198030233E-1,-3.350799978E-1
3.283125430E0,4.223209918E-1,-9.198030233E-1,-3.350799978E-1
3.285664814E0,4.595830142E-1,-9.083799720E-1,-3.087320030E-1
3.288204199E0,4.595830142E-1,-9.083799720E-1,-3.087320030E-1
3.290744002E0,4.595830142E-1,-9.083799720E-1,-3.087320030E-1
3.293283809E0,4.595830142E-1,-9.083799720E-1,-3.087320030E-1
3.295823539E0,4.595830142E-1,-9.083799720E-1,-3.087320030E-1
3.298363270E0,4.595830142E-1,-9.083799720E-1,-3.087320030E-1
3.300903724E0,4.595830142E-1,-9.083799720E-1,-3.087320030E-1
3.303444185E0,4.595830142E-1,-9.083799720E-1,-3.087320030E-1
3.305983876E0,5.800380111E-1,-1.018579006E0,-3.085170090E-1
3.308523569E0,5.800380111E-1,-1.018579006E0,-3.085170090E-1
3.311063373E0,5.800380111E-1,-1.018579006E0,-3.085170090E-1
3.313603180E0,5.800380111E-1,-1.018579006E0,-3.085170090E-1
3.316142256E0,5.800380111E-1,-1.018579006E0,-3.085170090E-1
3.318681333E0,5.800380111E-1,-1.018579006E0,-3.085170090E-1
3.321220748E0,7.410719991E-1,-1.291915059E0,-3.757089972E-1
3.323760171E0,7.410719991E-1,-1.291915059E0,-3.757089972E-1
3.326299554E0,7.410719991E-1,-1.291915059E0,-3.757089972E-1
3.328838939E0,7.410719991E-1,-1.291915059E0,-3.757089972E-1
3.331378608E0,7.410719991E-1,-1.291915059E0,-3.757089972E-1
3.333918261E0,7.410719991E-1,-1.291915059E0,-3.757089972E-1
3.336458146E0,7.410719991E-1,-1.291915059E0,-3.757089972E-1
3.338998031E0,7.410719991E-1,-1.291915059E0,-3.757089972E-1
3.341537241E0,7.774180174E-1,-1.419603944E0,-4.047459960E-1
3.344076472E0,7.774180174E-1,-1.419603944E0,-4.047459960E-1
3.346616011E0,7.774180174E-1,-1.419603944E0,-4.047459960E-1
3.349155550E0,7.774180174E-1,-1.419603944E0,-4.047459960E-1
3.351695815E0,7.774180174E-1,-1.419603944E0,-4.047459960E-1
3.354236084E0,7.774180174E-1,-1.419603944E0,-4.047459960E-1
3.356776122E0,7.774180174E-1,-1.419603944E0,-4.047459960E-1
3.359316161E0,7.774180174E-1,-1.419603944E0,-4.047459960E-1
3.361856157E0,7.595149875E-1,-1.436560035E0,-3.910439909E-1
3.364396156E0,7.595149875E-1,-1.436560035E0,-3.910439909E-1
3.366936002E0,7.595149875E-1,-1.436560035E0,-3.910439909E-1
3.369475849E0,7.595149875E-1,-1.436560035E0,-3.910439909E-1
3.372015435E0,7.595149875E-1,-1.436560035E0,-3.910439909E-1
3.374554974E0,7.595149875E-1,-1.436560035E0,-3.910439909E-1
3.377094781E0,7.595149875E-1,-1.436560035E0,-3.910439909E-1
3.379634588E0,7.595149875E-1,-1.436560035E0,-3.910439909E-1
3.382174627E0,8.137680292E-1,-1.379585028E0,-3.370350003E-1
3.384714666E0,8.137680292E-1,-1.379585028E0,-3.370350003E-1
3.387254597E0,8.137680292E-1,-1.379585028E0,-3.370350003E-1
3.389794560E0,8.137680292E-1,-1.379585028E0,-3.370350003E-1
3.392334714E0,8.137680292E-1,-1.379585028E0,-3.370350003E-1
3.394874867E0,8.137680292E-1,-1.379585028E0,-3.370350003E-1
3.397415958E0,8.137680292E-1,-1.379585028E0,-3.370350003E-1
3.399957035E0,8.137680292E-1,-1.379585028E0,-3.370350003E-1
3.402497535E0,7.841479778E-1,-1.067492962E0,-1.916799992E-1
3.405038036E0,7.841479778E-1,-1.067492962E0,-1.916799992E-1
3.407578035E0,7.841479778E-1,-1.067492962E0,-1.916799992E-1
3.410118036E0,7.841479778E-1,-1.067492962E0,-1.916799992E-1
3.412658498E0,7.841479778E-1,-1.067492962E0,-1.916799992E-1
3.415198959E0,7.841479778E-1,-1.067492962E0,-1.916799992E-1
3.417739265E0,7.841479778E-1,-1.067492962E0,-1.916799992E-1
3.420279574E0,7.841479778E-1,-1.067492962E0,-1.916799992E-1
3.422819073E0,6.389240026E-1,-4.016009867E-1,9.210699797E-2
3.425358574E0,6.389240026E-1,-4.016009867E-1,9.210699797E-2
3.427898925E0,6.389240026E-1,-4.016009867E-1,9.210699797E-2
3.430439272E0,6.389240026E-1,-4.016009867E-1,9.210699797E-2
3.432979694E0,6.389240026E-1,-4.016009867E-1,9.210699797E-2
3.435520117E0,6.389240026E-1,-4.016009867E-1,9.210699797E-2
3.438060432E0,6.389240026E-1,-4.016009867E-1,9.210699797E-2
3.440600779E0,6.389240026E-1,-4.016009867E-1,9.210699797E-2
3.443141241E0,3.715189993E-1,2.246980071E-1,3.168750107E-1
3.445681702E0,3.715189993E-1,2.246980071E-1,3.168750107E-1
3.448221693E0,3.715189993E-1,2.246980071E-1,3.168750107E-1
3.450761694E0,3.715189993E-1,2.246980071E-1,3.168750107E-1
3.453301540E0,3.715189993E-1,2.246980071E-1,3.168750107E-1
3.455841387E0,3.715189993E-1,2.246980071E-1,3.168750107E-1
3.458381516E0,3.715189993E-1,2.246980071E-1,3.168750107E-1
3.460921631E0,3.715189993E-1,2.246980071E-1,3.168750107E-1
3.463461322E0,1.685760021E-1,7.021949887E-1,4.697610140E-1
3.466001015E0,1.685760021E-1,7.021949887E-1,4.697610140E-1
3.468540593E0,1.685760021E-1,7.021949887E-1,4.697610140E-1
3.471080170E0,1.685760021E-1,7.021949887E-1,4.697610140E-1
3.473620439E0,1.685760021E-1,7.021949887E-1,4.697610140E-1
3.476160708E0,1.685760021E-1,7.021949887E-1,4.697610140E-1
3.478700548E0,1.685760021E-1,7.021949887E-1,4.697610140E-1
3.481240395E0,1.685760021E-1,7.021949887E-1,4.697610140E-1
3.483780704E0,-5.900000106E-4,1.006852984E0,5.361499786E-1
3.486321011E0,-5.900000106E-4,1.006852984E0,5.361499786E-1
3.488861067E0,-5.900000106E-4,1.006852984E0,5.361499786E-1
3.491401106E0,-5.900000106E-4,1.006852984E0,5.361499786E-1
3.493941530E0,-5.900000106E-4,1.006852984E0,5.361499786E-1
3.496481953E0,-5.900000106E-4,1.006852984E0,5.361499786E-1
3.499022731E0,-5.900000106E-4,1.006852984E0,5.361499786E-1
3.501563502E0,-5.900000106E-4,1.006852984E0,5.361499786E-1
3.504103962E0,-1.454039961E-1,1.190534949E0,5.312719941E-1
3.506644425E0,-1.454039961E-1,1.190534949E0,5.312719941E-1
3.509184616E0,-1.454039961E-1,1.190534949E0,5.312719941E-1
3.511724769E0,-1.454039961E-1,1.190534949E0,5.312719941E-1
3.514265732E0,-1.454039961E-1,1.190534949E0,5.312719941E-1
3.516806693E0,-1.454039961E-1,1.190534949E0,5.312719941E-1
3.519346963E0,-1.454039961E-1,1.190534949E0,5.312719941E-1
3.521887232E0,-1.454039961E-1,1.190534949E0,5.312719941E-1
3.524427232E0,-2.046889961E-1,1.442572951E0,5.798490047E-1
3.526967233E0,-2.046889961E-1,1.442572951E0,5.798490047E-1
3.529507098E0,-2.046889961E-1,1.442572951E0,5.798490047E-1
3.532046943E0,-2.046889961E-1,1.442572951E0,5.798490047E-1
3.534586367E0,-2.046889961E-1,1.442572951E0,5.798490047E-1
3.537125790E0,-2.046889961E-1,1.442572951E0,5.798490047E-1
3.539665882E0,-2.046889961E-1,1.442572951E0,5.798490047E-1
3.542205997E0,-2.046889961E-1,1.442572951E0,5.798490047E-1
3.544745226E0,-3.101490140E-1,1.811669946E0,5.954859853E-1
3.547284459E0,-3.101490140E-1,1.811669946E0,5.954859853E-1
3.549823896E0,-3.101490140E-1,1.811669946E0,5.954859853E-1
3.552363319E0,-3.101490140E-1,1.811669946E0,5.954859853E-1
3.554903434E0,-3.101490140E-1,1.811669946E0,5.954859853E-1
3.557443549E0,-3.101490140E-1,1.811669946E0,5.954859853E-1
3.559983423E0,-3.101490140E-1,1.811669946E0,5.954859853E-1
3.562523308E0,-3.101490140E-1,1.811669946E0,5.954859853E-1
3.565063770E0,-2.705410123E-1,1.806512952E0,4.837560058E-1
3.567604231E0,-2.705410123E-1,1.806512952E0,4.837560058E-1
3.570144236E0,-2.705410123E-1,1.806512952E0,4.837560058E-1
3.572684237E0,-2.705410123E-1,1.806512952E0,4.837560058E-1
3.575224698E0,-2.705410123E-1,1.806512952E0,4.837560058E-1
3.577765159E0,-2.705410123E-1,1.806512952E0,4.837560058E-1
3.580305135E0,-2.705410123E-1,1.806512952E0,4.837560058E-1
3.582845098E0,-2.705410123E-1,1.806512952E0,4.837560058E-1
3.585384983E0,-6.983300298E-2,1.056380033E0,1.425420046E-1
3.587924868E0,-6.983300298E-2,1.056380033E0,1.425420046E-1
3.590464343E0,-6.983300298E-2,1.056380033E0,1.425420046E-1
3.593003844E0,-6.983300298E-2,1.056380033E0,1.425420046E-1
3.595544614E0,-6.983300298E-2,1.056380033E0,1.425420046E-1
3.598085381E0,-6.983300298E-2,1.056380033E0,1.425420046E-1
3.600625088E0,-6.983300298E-2,1.056380033E0,1.425420046E-1
3.603164781E0,-6.983300298E-2,1.056380033E0,1.425420046E-1
3.605704473E0,3.034810126E-1,1.422599982E-2,-1.615740061E-1
3.608244166E0,3.034810126E-1,1.422599982E-2,-1.615740061E-1
3.610783445E0,3.034810126E-1,1.422599982E-2,-1.615740061E-1
3.613322714E0,3.034810126E-1,1.422599982E-2,-1.615740061E-1
3.615862254E0,3.034810126E-1,1.422599982E-2,-1.615740061E-1
3.618401791E0,3.034810126E-1,1.422599982E-2,-1.615740061E-1
3.620941622E0,3.034810126E-1,1.422599982E-2,-1.615740061E-1
3.623481469E0,3.034810126E-1,1.422599982E-2,-1.615740061E-1
3.626021122E0,6.340289712E-1,-6.170099974E-1,-2.911460102E-1
3.628560777E0,6.340289712E-1,-6.170099974E-1,-2.911460102E-1
3.631100796E0,6.340289712E-1,-6.170099974E-1,-2.911460102E-1
3.633640795E0,6.340289712E-1,-6.170099974E-1,-2.911460102E-1
3.636180833E0,6.340289712E-1,-6.170099974E-1,-2.911460102E-1
3.638720872E0,6.340289712E-1,-6.170099974E-1,-2.911460102E-1
3.641260733E0,8.983719945E-1,-8.214979768E-1,-2.732880116E-1
3.643800580E0,8.983719945E-1,-8.214979768E-1,-2.732880116E-1
3.646340234E0,8.983719945E-1,-8.214979768E-1,-2.732880116E-1
3.648879887E0,8.983719945E-1,-8.214979768E-1,-2.732880116E-1
3.651419714E0,8.983719945E-1,-8.214979768E-1,-2.732880116E-1
3.653959559E0,8.983719945E-1,-8.214979768E-1,-2.732880116E-1
3.656499443E0,8.983719945E-1,-8.214979768E-1,-2.732880116E-1
3.659039328E0,8.983719945E-1,-8.214979768E-1,-2.732880116E-1
3.661579020E0,1.024657965E0,-7.524009943E-1,-1.942349970E-1
3.664118713E0,1.024657965E0,-7.524009943E-1,-1.942349970E-1
3.666658651E0,1.024657965E0,-7.524009943E-1,-1.942349970E-1
3.669198612E0,1.024657965E0,-7.524009943E-1,-1.942349970E-1
3.671739112E0,1.024657965E0,-7.524009943E-1,-1.942349970E-1
3.674279613E0,1.024657965E0,-7.524009943E-1,-1.942349970E-1
3.676820026E0,1.024657965E0,-7.524009943E-1,-1.942349970E-1
3.679360449E0,1.024657965E0,-7.524009943E-1,-1.942349970E-1
3.681900911E0,9.856709838E-1,-6.594060063E-1,-1.539310068E-1
3.684441372E0,9.856709838E-1,-6.594060063E-1,-1.539310068E-1
3.686981097E0,9.856709838E-1,-6.594060063E-1,-1.539310068E-1
3.689520830E0,9.856709838E-1,-6.594060063E-1,-1.539310068E-1
3.692060637E0,9.856709838E-1,-6.594060063E-1,-1.539310068E-1
3.694600444E0,9.856709838E-1,-6.594060063E-1,-1.539310068E-1
3.697141248E0,9.856709838E-1,-6.594060063E-1,-1.539310068E-1
3.699682055E0,9.856709838E-1,-6.594060063E-1,-1.539310068E-1
3.702222208E0,9.986169934E-1,-6.375420094E-1,-1.168219969E-1
3.704762363E0,9.986169934E-1,-6.375420094E-1,-1.168219969E-1
3.707302204E0,9.986169934E-1,-6.375420094E-1,-1.168219969E-1
3.709842051E0,9.986169934E-1,-6.375420094E-1,-1.168219969E-1
3.712381589E0,9.986169934E-1,-6.375420094E-1,-1.168219969E-1
3.714921128E0,9.986169934E-1,-6.375420094E-1,-1.168219969E-1
3.717459541E0,9.986169934E-1,-6.375420094E-1,-1.168219969E-1
3.719997964E0,9.986169934E-1,-6.375420094E-1,-1.168219969E-1
3.722537350E0,9.402409792E-1,-6.302149892E-1,-1.091419980E-1
3.725076733E0,9.402409792E-1,-6.302149892E-1,-1.091419980E-1
3.727616319E0,9.402409792E-1,-6.302149892E-1,-1.091419980E-1
3.730155896E0,9.402409792E-1,-6.302149892E-1,-1.091419980E-1
3.732695704E0,9.402409792E-1,-6.302149892E-1,-1.091419980E-1
3.735235511E0,9.402409792E-1,-6.302149892E-1,-1.091419980E-1
3.737775362E0,9.402409792E-1,-6.302149892E-1,-1.091419980E-1
3.740315209E0,9.402409792E-1,-6.302149892E-1,-1.091419980E-1
3.742854439E0,8.157699704E-1,-5.542860031E-1,-1.025979966E-1
3.745393670E0,8.157699704E-1,-5.542860031E-1,-1.025979966E-1
3.747933666E0,8.157699704E-1,-5.542860031E-1,-1.025979966E-1
3.750473665E0,8.157699704E-1,-5.542860031E-1,-1.025979966E-1
3.753013549E0,8.157699704E-1,-5.542860031E-1,-1.025979966E-1
3.755553434E0,8.157699704E-1,-5.542860031E-1,-1.025979966E-1
3.758093295E0,8.157699704E-1,-5.542860031E-1,-1.025979966E-1
3.760633142E0,8.157699704E-1,-5.542860031E-1,-1.025979966E-1
3.763172834E0,6.875500083E-1,-4.538640082E-1,-8.463200182E-2
3.765712525E0,6.875500083E-1,-4.538640082E-1,-8.463200182E-2
3.768252834E0,6.875500083E-1,-4.538640082E-1,-8.463200182E-2
3.770793141E0,6.875500083E-1,-4.538640082E-1,-8.463200182E-2
3.773333294E0,6.875500083E-1,-4.538640082E-1,-8.463200182E-2
3.775873449E0,6.875500083E-1,-4.538640082E-1,-8.463200182E-2
3.778413233E0,6.875500083E-1,-4.538640082E-1,-8.463200182E-2
3.780953040E0,6.875500083E-1,-4.538640082E-1,-8.463200182E-2
3.783492771E0,4.693250060E-1,-1.378499996E-2,1.959200017E-2
3.786032502E0,4.693250060E-1,-1.378499996E-2,1.959200017E-2
3.788572199E0,4.693250060E-1,-1.378499996E-2,1.959200017E-2
3.791111892E0,4.693250060E-1,-1.378499996E-2,1.959200017E-2
3.793652508E0,4.693250060E-1,-1.378499996E-2,1.959200017E-2
3.796193123E0,4.693250060E-1,-1.378499996E-2,1.959200017E-2
3.798732650E0,4.693250060E-1,-1.378499996E-2,1.959200017E-2
3.801272189E0,4.693250060E-1,-1.378499996E-2,1.959200017E-2
3.803811074E0,3.866539896E-1,6.376600266E-2,5.236500129E-2
3.806349959E0,3.866539896E-1,6.376600266E-2,5.236500129E-2
3.808888920E0,3.866539896E-1,6.376600266E-2,5.236500129E-2
3.811427881E0,3.866539896E-1,6.376600266E-2,5.236500129E-2
3.813966650E0,3.866539896E-1,6.376600266E-2,5.236500129E-2
3.816505419E0,3.866539896E-1,6.376600266E-2,5.236500129E-2
3.819045133E0,3.866539896E-1,6.376600266E-2,5.236500129E-2
3.821584824E0,3.866539896E-1,6.376600266E-2,5.236500129E-2
3.824124324E0,3.486819863E-1,2.055799961E-2,5.724199861E-2
3.826663825E0,3.486819863E-1,2.055799961E-2,5.724199861E-2
3.829203728E0,3.486819863E-1,2.055799961E-2,5.724199861E-2
3.831743613E0,3.486819863E-1,2.055799961E-2,5.724199861E-2
3.834282535E0,3.486819863E-1,2.055799961E-2,5.724199861E-2
3.836821460E0,3.486819863E-1,2.055799961E-2,5.724199861E-2
3.839360536E0,3.486819863E-1,2.055799961E-2,5.724199861E-2
3.841899613E0,3.486819863E-1,2.055799961E-2,5.724199861E-2
3.844438689E0,3.144870102E-1,-6.173000205E-3,5.649600178E-2
3.846977766E0,3.144870102E-1,-6.173000205E-3,5.649600178E-2
3.849516698E0,3.144870102E-1,-6.173000205E-3,5.649600178E-2
3.852055621E0,3.144870102E-1,-6.173000205E-3,5.649600178E-2
3.854594853E0,3.144870102E-1,-6.173000205E-3,5.649600178E-2
3.857134084E0,3.144870102E-1,-6.173000205E-3,5.649600178E-2
3.859673011E0,3.144870102E-1,-6.173000205E-3,5.649600178E-2
3.862211934E0,3.144870102E-1,-6.173000205E-3,5.649600178E-2
3.864751435E0,2.468169928E-1,-5.840000231E-4,4.555200040E-2
3.867290934E0,2.468169928E-1,-5.840000231E-4,4.555200040E-2
3.869829717E0,2.468169928E-1,-5.840000231E-4,4.555200040E-2
3.872368488E0,2.468169928E-1,-5.840000231E-4,4.555200040E-2
3.874907757E0,2.468169928E-1,-5.840000231E-4,4.555200040E-2
3.877447026E0,2.468169928E-1,-5.840000231E-4,4.555200040E-2
3.879986694E0,2.468169928E-1,-5.840000231E-4,4.555200040E-2
3.882526349E0,2.468169928E-1,-5.840000231E-4,4.555200040E-2
3.885066194E0,1.368840039E-1,6.724900007E-2,3.198799863E-2
3.887606041E0,1.368840039E-1,6.724900007E-2,3.198799863E-2
3.890146035E0,1.368840039E-1,6.724900007E-2,3.198799863E-2
3.892686036E0,1.368840039E-1,6.724900007E-2,3.198799863E-2
3.895226535E0,1.368840039E-1,6.724900007E-2,3.198799863E-2
3.897767036E0,1.368840039E-1,6.724900007E-2,3.198799863E-2
3.900307040E0,1.368840039E-1,6.724900007E-2,3.198799863E-2
3.902847041E0,1.368840039E-1,6.724900007E-2,3.198799863E-2
3.905387156E0,9.371899813E-2,9.428600222E-2,2.554599941E-2
3.907927271E0,9.371899813E-2,9.428600222E-2,2.554599941E-2
3.910467467E0,9.371899813E-2,9.428600222E-2,2.554599941E-2
3.913007660E0,9.371899813E-2,9.428600222E-2,2.554599941E-2
3.915547621E0,9.371899813E-2,9.428600222E-2,2.554599941E-2
3.918087584E0,9.371899813E-2,9.428600222E-2,2.554599941E-2
3.920627122E0,9.371899813E-2,9.428600222E-2,2.554599941E-2
3.923166661E0,9.371899813E-2,9.428600222E-2,2.554599941E-2
3.925706199E0,7.250399888E-2,1.020380035E-1,1.789999940E-2
3.928245738E0,7.250399888E-2,1.020380035E-1,1.789999940E-2
3.930784991E0,7.250399888E-2,1.020380035E-1,1.789999940E-2
3.933324260E0,7.250399888E-2,1.020380035E-1,1.789999940E-2
3.935863492E0,7.250399888E-2,1.020380035E-1,1.789999940E-2
3.938402723E0,7.250399888E-2,1.020380035E-1,1.789999940E-2
3.940941467E0,7.250399888E-2,1.020380035E-1,1.789999940E-2
3.943480198E0,7.250399888E-2,1.020380035E-1,1.789999940E-2
3.946019775E0,6.761500239E-2,9.014199674E-2,9.498000145E-3
3.948559352E0,6.761500239E-2,9.014199674E-2,9.498000145E-3
3.951098399E0,6.761500239E-2,9.014199674E-2,9.498000145E-3
3.953637438E0,6.761500239E-2,9.014199674E-2,9.498000145E-3
3.956177285E0,6.761500239E-2,9.014199674E-2,9.498000145E-3
3.958717130E0,6.761500239E-2,9.014199674E-2,9.498000145E-3
3.961256350E0,6.242800131E-2,9.493999928E-2,6.169999950E-3
3.963795583E0,6.242800131E-2,9.493999928E-2,6.169999950E-3
3.966335160E0,6.242800131E-2,9.493999928E-2,6.169999950E-3
3.968874737E0,6.242800131E-2,9.493999928E-2,6.169999950E-3
3.971414375E0,6.242800131E-2,9.493999928E-2,6.169999950E-3
3.973954030E0,6.242800131E-2,9.493999928E-2,6.169999950E-3
3.976493606E0,6.242800131E-2,9.493999928E-2,6.169999950E-3
3.979033183E0,6.242800131E-2,9.493999928E-2,6.169999950E-3
3.981572717E0,6.173799932E-2,9.845799953E-2,6.341999862E-3
3.984112256E0,6.173799932E-2,9.845799953E-2,6.341999862E-3
3.986651294E0,6.173799932E-2,9.845799953E-2,6.341999862E-3
3.989190333E0,6.173799932E-2,9.845799953E-2,6.341999862E-3
3.991728962E0,6.173799932E-2,9.845799953E-2,6.341999862E-3
3.994267617E0,6.173799932E-2,9.845799953E-2,6.341999862E-3
3.996807156E0,6.173799932E-2,9.845799953E-2,6.341999862E-3
3.999346693E0,6.173799932E-2,9.845799953E-2,6.341999862E-3
4.001885307E0,6.250599772E-2,1.104720011E-1,1.053700037E-2
4.004423924E0,6.250599772E-2,1.104720011E-1,1.053700037E-2
4.006963732E0,6.250599772E-2,1.104720011E-1,1.053700037E-2
4.009503539E0,6.250599772E-2,1.104720011E-1,1.053700037E-2
4.012043097E0,6.250599772E-2,1.104720011E-1,1.053700037E-2
4.014582674E0,6.250599772E-2,1.104720011E-1,1.053700037E-2
4.017122021E0,6.250599772E-2,1.104720011E-1,1.053700037E-2
4.019661366E0,6.250599772E-2,1.104720011E-1,1.053700037E-2
4.022200482E0,5.928999931E-2,1.100720018E-1,1.118999999E-2
4.024739597E0,5.928999931E-2,1.100720018E-1,1.118999999E-2
4.027278929E0,5.928999931E-2,1.100720018E-1,1.118999999E-2
4.029818274E0,5.928999931E-2,1.100720018E-1,1.118999999E-2
4.032358428E0,5.928999931E-2,1.100720018E-1,1.118999999E-2
4.034898583E0,5.928999931E-2,1.100720018E-1,1.118999999E-2
4.037438568E0,5.928999931E-2,1.100720018E-1,1.118999999E-2
4.039978569E0,5.928999931E-2,1.100720018E-1,1.118999999E-2
4.042518299E0,1.281059980E-1,3.467699885E-2,2.251599915E-2
4.045058030E0,1.281059980E-1,3.467699885E-2,2.251599915E-2
4.047597978E0,1.281059980E-1,3.467699885E-2,2.251599915E-2
4.050137939E0,1.281059980E-1,3.467699885E-2,2.251599915E-2
4.052677631E0,1.281059980E-1,3.467699885E-2,2.251599915E-2
4.055217324E0,1.281059980E-1,3.467699885E-2,2.251599915E-2
4.057757347E0,1.281059980E-1,3.467699885E-2,2.251599915E-2
4.060297386E0,1.281059980E-1,3.467699885E-2,2.251599915E-2
4.062837500E0,1.894070059E-1,8.611000143E-3,4.313600063E-2
4.065377617E0,1.894070059E-1,8.611000143E-3,4.313600063E-2
4.067917649E0,1.894070059E-1,8.611000143E-3,4.313600063E-2
4.070457688E0,1.894070059E-1,8.611000143E-3,4.313600063E-2
4.072997842E0,1.894070059E-1,8.611000143E-3,4.313600063E-2
4.075537995E0,1.894070059E-1,8.611000143E-3,4.313600063E-2
4.078078260E0,1.894070059E-1,8.611000143E-3,4.313600063E-2
4.080618531E0,1.894070059E-1,8.611000143E-3,4.313600063E-2
4.083158261E0,2.301910073E-1,4.524699971E-2,7.146199793E-2
4.085697992E0,2.301910073E-1,4.524699971E-2,7.146199793E-2
4.088238146E0,2.301910073E-1,4.524699971E-2,7.146199793E-2
4.090778299E0,2.301910073E-1,4.524699971E-2,7.146199793E-2
4.093318414E0,2.301910073E-1,4.524699971E-2,7.146199793E-2
4.095858531E0,2.301910073E-1,4.524699971E-2,7.146199793E-2
4.098398256E0,2.301910073E-1,4.524699971E-2,7.146199793E-2
4.100937987E0,2.301910073E-1,4.524699971E-2,7.146199793E-2
4.103478257E0,2.197799981E-1,1.375059932E-1,9.470999986E-2
4.106018526E0,2.197799981E-1,1.375059932E-1,9.470999986E-2
4.108558504E0,2.197799981E-1,1.375059932E-1,9.470999986E-2
4.111098505E0,2.197799981E-1,1.375059932E-1,9.470999986E-2
4.113638390E0,2.197799981E-1,1.375059932E-1,9.470999986E-2
4.116178275E0,2.197799981E-1,1.375059932E-1,9.470999986E-2
4.118718882E0,2.197799981E-1,1.375059932E-1,9.470999986E-2
4.121259497E0,2.197799981E-1,1.375059932E-1,9.470999986E-2
4.123799765E0,1.951600015E-1,2.012400031E-1,1.042639986E-1
4.126340036E0,1.951600015E-1,2.012400031E-1,1.042639986E-1
4.128880074E0,1.951600015E-1,2.012400031E-1,1.042639986E-1
4.131420111E0,1.951600015E-1,2.012400031E-1,1.042639986E-1
4.133960227E0,1.951600015E-1,2.012400031E-1,1.042639986E-1
4.136500342E0,1.951600015E-1,2.012400031E-1,1.042639986E-1
4.139040707E0,1.951600015E-1,2.012400031E-1,1.042639986E-1
4.141581054E0,1.951600015E-1,2.012400031E-1,1.042639986E-1
4.144121054E0,1.289650053E-1,2.160069942E-1,8.359500021E-2
4.146661055E0,1.289650053E-1,2.160069942E-1,8.359500021E-2
4.149201497E0,1.289650053E-1,2.160069942E-1,8.359500021E-2
4.151741920E0,1.289650053E-1,2.160069942E-1,8.359500021E-2
4.154281341E0,1.289650053E-1,2.160069942E-1,8.359500021E-2
4.156820766E0,1.289650053E-1,2.160069942E-1,8.359500021E-2
4.159360886E0,1.289650053E-1,2.160069942E-1,8.359500021E-2
4.161901001E0,1.289650053E-1,2.160069942E-1,8.359500021E-2
4.164441809E0,7.188899815E-2,2.683809996E-1,7.638300210E-2
4.166982616E0,7.188899815E-2,2.683809996E-1,7.638300210E-2
4.169523529E0,7.188899815E-2,2.683809996E-1,7.638300210E-2
4.172064452E0,7.188899815E-2,2.683809996E-1,7.638300210E-2
4.174604451E0,7.188899815E-2,2.683809996E-1,7.638300210E-2
4.177144452E0,7.188899815E-2,2.683809996E-1,7.638300210E-2
4.179684886E0,7.188899815E-2,2.683809996E-1,7.638300210E-2
4.182225309E0,7.188899815E-2,2.683809996E-1,7.638300210E-2
4.184764884E0,-6.802300364E-2,5.296180248E-1,8.246199787E-2
4.187304463E0,-6.802300364E-2,5.296180248E-1,8.246199787E-2
4.189844146E0,-6.802300364E-2,5.296180248E-1,8.246199787E-2
4.192383799E0,-6.802300364E-2,5.296180248E-1,8.246199787E-2
4.194923683E0,-6.802300364E-2,5.296180248E-1,8.246199787E-2
4.197463568E0,-6.802300364E-2,5.296180248E-1,8.246199787E-2
4.200002658E0,-6.802300364E-2,5.296180248E-1,8.246199787E-2
4.202541737E0,-6.802300364E-2,5.296180248E-1,8.246199787E-2
4.205081391E0,-2.393240035E-1,9.478939772E-1,1.046079993E-1
4.207621044E0,-2.393240035E-1,9.478939772E-1,1.046079993E-1
4.210161222E0,-2.393240035E-1,9.478939772E-1,1.046079993E-1
4.212701377E0,-2.393240035E-1,9.478939772E-1,1.046079993E-1
4.215241222E0,-2.393240035E-1,9.478939772E-1,1.046079993E-1
4.217781069E0,-2.393240035E-1,9.478939772E-1,1.046079993E-1
4.220320665E0,-2.393240035E-1,9.478939772E-1,1.046079993E-1
4.222860242E0,-2.393240035E-1,9.478939772E-1,1.046079993E-1
4.225400205E0,-3.308880031E-1,1.079246998E0,8.727300167E-2
4.227940166E0,-3.308880031E-1,1.079246998E0,8.727300167E-2
4.230479693E0,-3.308880031E-1,1.079246998E0,8.727300167E-2
4.233019232E0,-3.308880031E-1,1.079246998E0,8.727300167E-2
4.235558771E0,-3.308880031E-1,1.079246998E0,8.727300167E-2
4.238098310E0,-3.308880031E-1,1.079246998E0,8.727300167E-2
4.240638141E0,-3.308880031E-1,1.079246998E0,8.727300167E-2
4.243177986E0,-3.308880031E-1,1.079246998E0,8.727300167E-2
4.245717562E0,-4.571590126E-1,1.224918008E0,4.791900143E-2
4.248257141E0,-4.571590126E-1,1.224918008E0,4.791900143E-2
4.250796319E0,-4.571590126E-1,1.224918008E0,4.791900143E-2
4.253335510E0,-4.571590126E-1,1.224918008E0,4.791900143E-2
4.255874780E0,-4.571590126E-1,1.224918008E0,4.791900143E-2
4.258414049E0,-4.571590126E-1,1.224918008E0,4.791900143E-2
4.260953453E0,-4.571590126E-1,1.224918008E0,4.791900143E-2
4.263492838E0,-4.571590126E-1,1.224918008E0,4.791900143E-2
4.266032338E0,-5.865600109E-1,1.350399971E0,-6.521000061E-3
4.268571839E0,-5.865600109E-1,1.350399971E0,-6.521000061E-3
4.271110833E0,-5.865600109E-1,1.350399971E0,-6.521000061E-3
4.273649796E0,-5.865600109E-1,1.350399971E0,-6.521000061E-3
4.276188834E0,-5.865600109E-1,1.350399971E0,-6.521000061E-3
4.278727873E0,-5.865600109E-1,1.350399971E0,-6.521000061E-3
4.281266487E0,-7.515289783E-1,1.579861999E0,-7.412900031E-2
4.283805104E0,-7.515289783E-1,1.579861999E0,-7.412900031E-2
4.286344181E0,-7.515289783E-1,1.579861999E0,-7.412900031E-2
4.288883258E0,-7.515289783E-1,1.579861999E0,-7.412900031E-2
4.291423426E0,-7.515289783E-1,1.579861999E0,-7.412900031E-2
4.293963579E0,-7.515289783E-1,1.579861999E0,-7.412900031E-2
4.296502693E0,-7.515289783E-1,1.579861999E0,-7.412900031E-2
4.299041810E0,-7.515289783E-1,1.579861999E0,-7.412900031E-2
4.301581036E0,-8.821190000E-1,1.831122041E0,-1.260849983E-1
4.304120267E0,-8.821190000E-1,1.831122041E0,-1.260849983E-1
4.306659920E0,-8.821190000E-1,1.831122041E0,-1.260849983E-1
4.309199575E0,-8.821190000E-1,1.831122041E0,-1.260849983E-1
4.311739560E0,-8.821190000E-1,1.831122041E0,-1.260849983E-1
4.314279561E0,-8.821190000E-1,1.831122041E0,-1.260849983E-1
4.316819406E0,-8.821190000E-1,1.831122041E0,-1.260849983E-1
4.319359253E0,-8.821190000E-1,1.831122041E0,-1.260849983E-1
4.321898632E0,-9.301319718E-1,1.866449952E0,-1.706800014E-1
4.324438017E0,-9.301319718E-1,1.866449952E0,-1.706800014E-1
4.326977286E0,-9.301319718E-1,1.866449952E0,-1.706800014E-1
4.329516555E0,-9.301319718E-1,1.866449952E0,-1.706800014E-1
4.332055800E0,-9.301319718E-1,1.866449952E0,-1.706800014E-1
4.334595031E0,-9.301319718E-1,1.866449952E0,-1.706800014E-1
4.337134262E0,-9.301319718E-1,1.866449952E0,-1.706800014E-1
4.339673493E0,-9.301319718E-1,1.866449952E0,-1.706800014E-1
4.342213453E0,-8.638679981E-1,1.679239035E0,-1.574629992E-1
4.344753416E0,-8.638679981E-1,1.679239035E0,-1.574629992E-1
4.347292804E0,-8.638679981E-1,1.679239035E0,-1.574629992E-1
4.349832189E0,-8.638679981E-1,1.679239035E0,-1.574629992E-1
4.352371305E0,-8.638679981E-1,1.679239035E0,-1.574629992E-1
4.354910420E0,-8.638679981E-1,1.679239035E0,-1.574629992E-1
4.357449498E0,-8.638679981E-1,1.679239035E0,-1.574629992E-1
4.359988575E0,-8.638679981E-1,1.679239035E0,-1.574629992E-1
4.362527960E0,-8.202940226E-1,1.292600989E0,-2.153880000E-1
4.365067343E0,-8.202940226E-1,1.292600989E0,-2.153880000E-1
4.367607021E0,-8.202940226E-1,1.292600989E0,-2.153880000E-1
4.370146714E0,-8.202940226E-1,1.292600989E0,-2.153880000E-1
4.372685944E0,-8.202940226E-1,1.292600989E0,-2.153880000E-1
4.375225175E0,-8.202940226E-1,1.292600989E0,-2.153880000E-1
4.377763902E0,-8.202940226E-1,1.292600989E0,-2.153880000E-1
4.380302633E0,-8.202940226E-1,1.292600989E0,-2.153880000E-1
4.382841710E0,-8.166459799E-1,8.009070158E-1,-3.278729916E-1
4.385380787E0,-8.166459799E-1,8.009070158E-1,-3.278729916E-1
4.387919862E0,-8.166459799E-1,8.009070158E-1,-3.278729916E-1
4.390458939E0,-8.166459799E-1,8.009070158E-1,-3.278729916E-1
4.392998786E0,-8.166459799E-1,8.009070158E-1,-3.278729916E-1
4.395538633E0,-8.166459799E-1,8.009070158E-1,-3.278729916E-1
4.398078055E0,-8.166459799E-1,8.009070158E-1,-3.278729916E-1
4.400617478E0,-8.166459799E-1,8.009070158E-1,-3.278729916E-1
4.403156671E0,-7.949960232E-1,4.244009852E-1,-3.783670068E-1
4.405695864E0,-7.949960232E-1,4.244009852E-1,-3.783670068E-1
4.408235421E0,-7.949960232E-1,4.244009852E-1,-3.783670068E-1
4.410774958E0,-7.949960232E-1,4.244009852E-1,-3.783670068E-1
4.413313919E0,-7.949960232E-1,4.244009852E-1,-3.783670068E-1
4.415852882E0,-7.949960232E-1,4.244009852E-1,-3.783670068E-1
4.418392450E0,-7.949960232E-1,4.244009852E-1,-3.783670068E-1
4.420931987E0,-7.949960232E-1,4.244009852E-1,-3.783670068E-1
4.423471218E0,-7.304440141E-1,1.371340007E-1,-3.597660065E-1
4.426010449E0,-7.304440141E-1,1.371340007E-1,-3.597660065E-1
4.428549988E0,-7.304440141E-1,1.371340007E-1,-3.597660065E-1
4.431089527E0,-7.304440141E-1,1.371340007E-1,-3.597660065E-1
4.433628602E0,-7.304440141E-1,1.371340007E-1,-3.597660065E-1
4.436167681E0,-7.304440141E-1,1.371340007E-1,-3.597660065E-1
4.438707166E0,-7.304440141E-1,1.371340007E-1,-3.597660065E-1
4.441246665E0,-7.304440141E-1,1.371340007E-1,-3.597660065E-1
4.443786857E0,-6.623820066E-1,-1.569560021E-1,-3.374629915E-1
4.446327050E0,-6.623820066E-1,-1.569560021E-1,-3.374629915E-1
4.448866395E0,-6.623820066E-1,-1.569560021E-1,-3.374629915E-1
4.451405742E0,-6.623820066E-1,-1.569560021E-1,-3.374629915E-1
4.453945627E0,-6.623820066E-1,-1.569560021E-1,-3.374629915E-1
4.456485512E0,-6.623820066E-1,-1.569560021E-1,-3.374629915E-1
4.459025372E0,-6.623820066E-1,-1.569560021E-1,-3.374629915E-1
4.461565219E0,-6.623820066E-1,-1.569560021E-1,-3.374629915E-1
4.464104719E0,-5.998849869E-1,-3.754430115E-1,-3.007709980E-1
4.466644218E0,-5.998849869E-1,-3.754430115E-1,-3.007709980E-1
4.469183170E0,-5.998849869E-1,-3.754430115E-1,-3.007709980E-1
4.471722131E0,-5.998849869E-1,-3.754430115E-1,-3.007709980E-1
4.474261478E0,-5.998849869E-1,-3.754430115E-1,-3.007709980E-1
4.476800825E0,-5.998849869E-1,-3.754430115E-1,-3.007709980E-1
4.479339612E0,-5.998849869E-1,-3.754430115E-1,-3.007709980E-1
4.481878421E0,-5.998849869E-1,-3.754430115E-1,-3.007709980E-1
4.484417305E0,-5.410150290E-1,-5.515390038E-1,-2.584800124E-1
4.486956190E0,-5.410150290E-1,-5.515390038E-1,-2.584800124E-1
4.489496382E0,-5.410150290E-1,-5.515390038E-1,-2.584800124E-1
4.492036575E0,-5.410150290E-1,-5.515390038E-1,-2.584800124E-1
4.494575766E0,-5.410150290E-1,-5.515390038E-1,-2.584800124E-1
4.497114959E0,-5.410150290E-1,-5.515390038E-1,-2.584800124E-1
4.499654522E0,-5.410150290E-1,-5.515390038E-1,-2.584800124E-1
4.502194099E0,-5.410150290E-1,-5.515390038E-1,-2.584800124E-1
4.504733328E0,-5.011579990E-1,-6.688200235E-1,-2.186809927E-1
4.507272559E0,-5.011579990E-1,-6.688200235E-1,-2.186809927E-1
4.509812089E0,-5.011579990E-1,-6.688200235E-1,-2.186809927E-1
4.512351628E0,-5.011579990E-1,-6.688200235E-1,-2.186809927E-1
4.514890703E0,-5.011579990E-1,-6.688200235E-1,-2.186809927E-1
4.517429782E0,-5.011579990E-1,-6.688200235E-1,-2.186809927E-1
4.519968512E0,-5.011579990E-1,-6.688200235E-1,-2.186809927E-1
4.522507243E0,-5.011579990E-1,-6.688200235E-1,-2.186809927E-1
4.525046167E0,-4.893310070E-1,-7.321190238E-1,-1.860069931E-1
4.527585090E0,-4.893310070E-1,-7.321190238E-1,-1.860069931E-1
4.530124497E0,-4.893310070E-1,-7.321190238E-1,-1.860069931E-1
4.532663920E0,-4.893310070E-1,-7.321190238E-1,-1.860069931E-1
4.535203112E0,-4.893310070E-1,-7.321190238E-1,-1.860069931E-1
4.537742305E0,-4.893310070E-1,-7.321190238E-1,-1.860069931E-1
4.540280646E0,-4.893310070E-1,-7.321190238E-1,-1.860069931E-1
4.542818993E0,-4.893310070E-1,-7.321190238E-1,-1.860069931E-1
4.545357762E0,-4.711759984E-1,-8.260660172E-1,-1.610170007E-1
4.547896531E0,-4.711759984E-1,-8.260660172E-1,-1.610170007E-1
4.550435414E0,-4.711759984E-1,-8.260660172E-1,-1.610170007E-1
4.552974299E0,-4.711759984E-1,-8.260660172E-1,-1.610170007E-1
4.555513222E0,-4.711759984E-1,-8.260660172E-1,-1.610170007E-1
4.558052147E0,-4.711759984E-1,-8.260660172E-1,-1.610170007E-1
4.560591281E0,-4.711759984E-1,-8.260660172E-1,-1.610170007E-1
4.563130396E0,-4.711759984E-1,-8.260660172E-1,-1.610170007E-1
4.565669896E0,-4.348140061E-1,-9.600870013E-1,-1.411000043E-1
4.568209397E0,-4.348140061E-1,-9.600870013E-1,-1.411000043E-1
4.570748929E0,-4.348140061E-1,-9.600870013E-1,-1.411000043E-1
4.573288468E0,-4.348140061E-1,-9.600870013E-1,-1.411000043E-1
4.575827391E0,-4.348140061E-1,-9.600870013E-1,-1.411000043E-1
4.578366314E0,-4.348140061E-1,-9.600870013E-1,-1.411000043E-1
4.580905555E0,-4.348140061E-1,-9.600870013E-1,-1.411000043E-1
4.583444824E0,-4.348140061E-1,-9.600870013E-1,-1.411000043E-1
4.585984324E0,-3.802919984E-1,-1.108122945E0,-1.230639964E-1
4.588523825E0,-3.802919984E-1,-1.108122945E0,-1.230639964E-1
4.591063842E0,-3.802919984E-1,-1.108122945E0,-1.230639964E-1
4.593603881E0,-3.802919984E-1,-1.108122945E0,-1.230639964E-1
4.596143573E0,-3.802919984E-1,-1.108122945E0,-1.230639964E-1
4.598683266E0,-3.802919984E-1,-1.108122945E0,-1.230639964E-1
4.601222608E0,-3.229939938E-1,-1.230939984E0,-1.074329987E-1
4.603761953E0,-3.229939938E-1,-1.230939984E0,-1.074329987E-1
4.606300761E0,-3.229939938E-1,-1.230939984E0,-1.074329987E-1
4.608839568E0,-3.229939938E-1,-1.230939984E0,-1.074329987E-1
4.611378150E0,-3.229939938E-1,-1.230939984E0,-1.074329987E-1
4.613916727E0,-3.229939938E-1,-1.230939984E0,-1.074329987E-1
4.616455189E0,-3.229939938E-1,-1.230939984E0,-1.074329987E-1
4.618993650E0,-3.229939938E-1,-1.230939984E0,-1.074329987E-1
4.621533156E0,-2.715399861E-1,-1.328125954E0,-9.538999945E-2
4.624072693E0,-2.715399861E-1,-1.328125954E0,-9.538999945E-2
4.626612385E0,-2.715399861E-1,-1.328125954E0,-9.538999945E-2
4.629152078E0,-2.715399861E-1,-1.328125954E0,-9.538999945E-2
4.631691308E0,-2.715399861E-1,-1.328125954E0,-9.538999945E-2
4.634230539E0,-2.715399861E-1,-1.328125954E0,-9.538999945E-2
4.636769809E0,-2.715399861E-1,-1.328125954E0,-9.538999945E-2
4.639309078E0,-2.715399861E-1,-1.328125954E0,-9.538999945E-2
4.641847996E0,-2.310120016E-1,-1.392091036E0,-8.644100279E-2
4.644386881E0,-2.310120016E-1,-1.392091036E0,-8.644100279E-2
4.646925843E0,-2.310120016E-1,-1.392091036E0,-8.644100279E-2
4.649464804E0,-2.310120016E-1,-1.392091036E0,-8.644100279E-2
4.652003692E0,-2.310120016E-1,-1.392091036E0,-8.644100279E-2
4.654542577E0,-2.310120016E-1,-1.392091036E0,-8.644100279E-2
4.657081693E0,-2.310120016E-1,-1.392091036E0,-8.644100279E-2
4.659620808E0,-2.310120016E-1,-1.392091036E0,-8.644100279E-2
4.662159539E0,-1.849880069E-1,-1.463835955E0,-8.470799774E-2
4.664698270E0,-1.849880069E-1,-1.463835955E0,-8.470799774E-2
4.667237204E0,-1.849880069E-1,-1.463835955E0,-8.470799774E-2
4.669776127E0,-1.849880069E-1,-1.463835955E0,-8.470799774E-2
4.672315203E0,-1.849880069E-1,-1.463835955E0,-8.470799774E-2
4.674854280E0,-1.849880069E-1,-1.463835955E0,-8.470799774E-2
4.677393544E0,-1.849880069E-1,-1.463835955E0,-8.470799774E-2
4.679932813E0,-1.849880069E-1,-1.463835955E0,-8.470799774E-2
4.682471736E0,-1.045230031E-1,-1.562487006E0,-8.499400318E-2
4.685010659E0,-1.045230031E-1,-1.562487006E0,-8.499400318E-2
4.687550488E0,-1.045230031E-1,-1.562487006E0,-8.499400318E-2
4.690090333E0,-1.045230031E-1,-1.562487006E0,-8.499400318E-2
4.692629524E0,-1.045230031E-1,-1.562487006E0,-8.499400318E-2
4.695168717E0,-1.045230031E-1,-1.562487006E0,-8.499400318E-2
4.697707401E0,-1.045230031E-1,-1.562487006E0,-8.499400318E-2
4.700246054E0,-1.045230031E-1,-1.562487006E0,-8.499400318E-2
4.702784939E0,-1.265999954E-2,-1.666843057E0,-9.109999985E-2
4.705323824E0,-1.265999954E-2,-1.666843057E0,-9.109999985E-2
4.707862885E0,-1.265999954E-2,-1.666843057E0,-9.109999985E-2
4.710401962E0,-1.265999954E-2,-1.666843057E0,-9.109999985E-2
4.712940461E0,-1.265999954E-2,-1.666843057E0,-9.109999985E-2
4.715478962E0,-1.265999954E-2,-1.666843057E0,-9.109999985E-2
4.718017881E0,-1.265999954E-2,-1.666843057E0,-9.109999985E-2
4.720556804E0,-1.265999954E-2,-1.666843057E0,-9.109999985E-2
4.723095379E0,4.582300037E-2,-1.759996057E0,-1.104940027E-1
4.725633958E0,4.582300037E-2,-1.759996057E0,-1.104940027E-1
4.728172877E0,4.582300037E-2,-1.759996057E0,-1.104940027E-1
4.730711800E0,4.582300037E-2,-1.759996057E0,-1.104940027E-1
4.733250722E0,4.582300037E-2,-1.759996057E0,-1.104940027E-1
4.735789645E0,4.582300037E-2,-1.759996057E0,-1.104940027E-1
4.738328302E0,4.582300037E-2,-1.759996057E0,-1.104940027E-1
4.740866957E0,4.582300037E-2,-1.759996057E0,-1.104940027E-1
4.743405727E0,5.659899861E-2,-1.812831998E0,-1.317989975E-1
4.745944496E0,5.659899861E-2,-1.812831998E0,-1.317989975E-1
4.748483601E0,5.659899861E-2,-1.812831998E0,-1.317989975E-1
4.751022678E0,5.659899861E-2,-1.812831998E0,-1.317989975E-1
4.753561871E0,5.659899861E-2,-1.812831998E0,-1.317989975E-1
4.756101064E0,5.659899861E-2,-1.812831998E0,-1.317989975E-1
4.758639990E0,5.659899861E-2,-1.812831998E0,-1.317989975E-1
4.761178915E0,5.659899861E-2,-1.812831998E0,-1.317989975E-1
4.763718300E0,5.686900020E-2,-1.769569993E0,-1.242489964E-1
4.766257685E0,5.686900020E-2,-1.769569993E0,-1.242489964E-1
4.768797068E0,5.686900020E-2,-1.769569993E0,-1.242489964E-1
4.771336453E0,5.686900020E-2,-1.769569993E0,-1.242489964E-1
4.773875837E0,5.686900020E-2,-1.769569993E0,-1.242489964E-1
4.776415222E0,5.686900020E-2,-1.769569993E0,-1.242489964E-1
4.778954756E0,5.686900020E-2,-1.769569993E0,-1.242489964E-1
4.781494295E0,5.686900020E-2,-1.769569993E0,-1.242489964E-1
4.784033062E0,5.609000102E-2,-1.729853988E0,-1.173050031E-1
4.786571833E0,5.609000102E-2,-1.729853988E0,-1.173050031E-1
4.789111429E0,5.609000102E-2,-1.729853988E0,-1.173050031E-1
4.791651006E0,5.609000102E-2,-1.729853988E0,-1.173050031E-1
4.794189927E0,5.609000102E-2,-1.729853988E0,-1.173050031E-1
4.796728852E0,5.609000102E-2,-1.729853988E0,-1.173050031E-1
4.799267175E0,5.609000102E-2,-1.729853988E0,-1.173050031E-1
4.801805482E0,5.609000102E-2,-1.729853988E0,-1.173050031E-1
4.804344367E0,5.140699819E-2,-1.698614955E0,-1.116530001E-1
4.806883252E0,5.140699819E-2,-1.698614955E0,-1.116530001E-1
4.809421390E0,5.140699819E-2,-1.698614955E0,-1.116530001E-1
4.811959545E0,5.140699819E-2,-1.698614955E0,-1.116530001E-1
4.814497737E0,5.140699819E-2,-1.698614955E0,-1.116530001E-1
4.817035928E0,5.140699819E-2,-1.698614955E0,-1.116530001E-1
4.819574548E0,5.140699819E-2,-1.698614955E0,-1.116530001E-1
4.822113165E0,5.140699819E-2,-1.698614955E0,-1.116530001E-1
4.824651934E0,5.577600002E-2,-1.682963014E0,-1.071389988E-1
4.827190703E0,5.577600002E-2,-1.682963014E0,-1.071389988E-1
4.829730347E0,5.577600002E-2,-1.682963014E0,-1.071389988E-1
4.832270000E0,5.577600002E-2,-1.682963014E0,-1.071389988E-1
4.834808653E0,5.577600002E-2,-1.682963014E0,-1.071389988E-1
4.837347308E0,5.577600002E-2,-1.682963014E0,-1.071389988E-1
4.839885900E0,5.577600002E-2,-1.682963014E0,-1.071389988E-1
4.842424477E0,5.577600002E-2,-1.682963014E0,-1.071389988E-1
4.844963132E0,4.040300101E-2,-1.716532946E0,-1.194159985E-1
4.847501785E0,4.040300101E-2,-1.716532946E0,-1.194159985E-1
4.850040669E0,4.040300101E-2,-1.716532946E0,-1.194159985E-1
4.852579554E0,4.040300101E-2,-1.716532946E0,-1.194159985E-1
4.855118823E0,4.040300101E-2,-1.716532946E0,-1.194159985E-1
4.857658092E0,4.040300101E-2,-1.716532946E0,-1.194159985E-1
4.860196663E0,4.040300101E-2,-1.716532946E0,-1.194159985E-1
4.862735242E0,4.040300101E-2,-1.716532946E0,-1.194159985E-1
4.865273588E0,-2.201999910E-2,-1.692800999E0,-1.120639965E-1
4.867811935E0,-2.201999910E-2,-1.692800999E0,-1.120639965E-1
4.870350714E0,-2.201999910E-2,-1.692800999E0,-1.120639965E-1
4.872889483E0,-2.201999910E-2,-1.692800999E0,-1.120639965E-1
4.875428251E0,-2.201999910E-2,-1.692800999E0,-1.120639965E-1
4.877967020E0,-2.201999910E-2,-1.692800999E0,-1.120639965E-1
4.880505952E0,-2.201999910E-2,-1.692800999E0,-1.120639965E-1
4.883044877E0,-2.201999910E-2,-1.692800999E0,-1.120639965E-1
4.885583452E0,-9.862700105E-2,-1.675433040E0,-1.032970026E-1
4.888122031E0,-9.862700105E-2,-1.675433040E0,-1.032970026E-1
4.890661454E0,-9.862700105E-2,-1.675433040E0,-1.032970026E-1
4.893200877E0,-9.862700105E-2,-1.675433040E0,-1.032970026E-1
4.895739914E0,-9.862700105E-2,-1.675433040E0,-1.032970026E-1
4.898278953E0,-9.862700105E-2,-1.675433040E0,-1.032970026E-1
4.900818025E0,-9.862700105E-2,-1.675433040E0,-1.032970026E-1
4.903357102E0,-9.862700105E-2,-1.675433040E0,-1.032970026E-1
4.905896063E0,-1.377010047E-1,-1.684700012E0,-9.884200245E-2
4.908435026E0,-1.377010047E-1,-1.684700012E0,-9.884200245E-2
4.910974825E0,-1.377010047E-1,-1.684700012E0,-9.884200245E-2
4.913514632E0,-1.377010047E-1,-1.684700012E0,-9.884200245E-2
4.916053438E0,-1.377010047E-1,-1.684700012E0,-9.884200245E-2
4.918592247E0,-1.377010047E-1,-1.684700012E0,-9.884200245E-2
4.921131627E0,-1.373990029E-1,-1.696426988E0,-9.736400098E-2
4.923671012E0,-1.373990029E-1,-1.696426988E0,-9.736400098E-2
4.926209934E0,-1.373990029E-1,-1.696426988E0,-9.736400098E-2
4.928748857E0,-1.373990029E-1,-1.696426988E0,-9.736400098E-2
4.931287896E0,-1.373990029E-1,-1.696426988E0,-9.736400098E-2
4.933826935E0,-1.373990029E-1,-1.696426988E0,-9.736400098E-2
4.936366010E0,-1.373990029E-1,-1.696426988E0,-9.736400098E-2
4.938905089E0,-1.373990029E-1,-1.696426988E0,-9.736400098E-2
4.941444049E0,-1.089610010E-1,-1.697082043E0,-9.710899740E-2
4.943983012E0,-1.089610010E-1,-1.697082043E0,-9.710899740E-2
4.946521935E0,-1.089610010E-1,-1.697082043E0,-9.710899740E-2
4.949060858E0,-1.089610010E-1,-1.697082043E0,-9.710899740E-2
4.951599881E0,-1.089610010E-1,-1.697082043E0,-9.710899740E-2
4.954138920E0,-1.089610010E-1,-1.697082043E0,-9.710899740E-2
4.956677572E0,-1.089610010E-1,-1.697082043E0,-9.710899740E-2
4.959216227E0,-1.089610010E-1,-1.697082043E0,-9.710899740E-2
4.961755319E0,-6.246199831E-2,-1.744760036E0,-1.213139966E-1
4.964294396E0,-6.246199831E-2,-1.744760036E0,-1.213139966E-1
4.966833280E0,-6.246199831E-2,-1.744760036E0,-1.213139966E-1
4.969372165E0,-6.246199831E-2,-1.744760036E0,-1.213139966E-1
4.971910940E0,-6.246199831E-2,-1.744760036E0,-1.213139966E-1
4.974449709E0,-6.246199831E-2,-1.744760036E0,-1.213139966E-1
4.976988824E0,-6.246199831E-2,-1.744760036E0,-1.213139966E-1
4.979527939E0,-6.246199831E-2,-1.744760036E0,-1.213139966E-1
4.982066236E0,7.477799803E-2,-1.934981942E0,-2.248480022E-1
4.984604545E0,7.477799803E-2,-1.934981942E0,-2.248480022E-1
4.987144507E0,7.477799803E-2,-1.934981942E0,-2.248480022E-1
4.989684468E0,7.477799803E-2,-1.934981942E0,-2.248480022E-1
4.992223394E0,7.477799803E-2,-1.934981942E0,-2.248480022E-1
4.994762319E0,7.477799803E-2,-1.934981942E0,-2.248480022E-1
4.997300973E0,7.477799803E-2,-1.934981942E0,-2.248480022E-1
4.999839626E0,7.477799803E-2,-1.934981942E0,-2.248480022E-1
5.002378862E0,1.508699954E-1,-1.938910007E0,-2.592709959E-1
5.004918093E0,1.508699954E-1,-1.938910007E0,-2.592709959E-1
5.007456822E0,1.508699954E-1,-1.938910007E0,-2.592709959E-1
5.009995553E0,1.508699954E-1,-1.938910007E0,-2.592709959E-1
5.012535098E0,1.508699954E-1,-1.938910007E0,-2.592709959E-1
5.015074635E0,1.508699954E-1,-1.938910007E0,-2.592709959E-1
5.017614019E0,1.508699954E-1,-1.938910007E0,-2.592709959E-1
5.020153404E0,1.508699954E-1,-1.938910007E0,-2.592709959E-1
5.022692323E0,2.254599929E-1,-1.903527975E0,-2.867200077E-1
5.025231246E0,2.254599929E-1,-1.903527975E0,-2.867200077E-1
5.027770477E0,2.254599929E-1,-1.903527975E0,-2.867200077E-1
5.030309708E0,2.254599929E-1,-1.903527975E0,-2.867200077E-1
5.032848668E0,2.254599929E-1,-1.903527975E0,-2.867200077E-1
5.035387631E0,2.254599929E-1,-1.903527975E0,-2.867200077E-1
5.037927015E0,2.254599929E-1,-1.903527975E0,-2.867200077E-1
5.040466400E0,2.254599929E-1,-1.903527975E0,-2.867200077E-1
5.043006342E0,3.031480014E-1,-1.776581049E0,-2.871749997E-1
5.045546305E0,3.031480014E-1,-1.776581049E0,-2.871749997E-1
5.048086034E0,3.031480014E-1,-1.776581049E0,-2.871749997E-1
5.050625765E0,3.031480014E-1,-1.776581049E0,-2.871749997E-1
5.053165252E0,3.031480014E-1,-1.776581049E0,-2.871749997E-1
5.055704751E0,3.031480014E-1,-1.776581049E0,-2.871749997E-1
5.058243828E0,3.031480014E-1,-1.776581049E0,-2.871749997E-1
5.060782905E0,3.031480014E-1,-1.776581049E0,-2.871749997E-1
5.063321814E0,3.957360089E-1,-1.521554947E0,-2.433840036E-1
5.065860737E0,3.957360089E-1,-1.521554947E0,-2.433840036E-1
5.068400121E0,3.957360089E-1,-1.521554947E0,-2.433840036E-1
5.070939506E0,3.957360089E-1,-1.521554947E0,-2.433840036E-1
5.073478615E0,3.957360089E-1,-1.521554947E0,-2.433840036E-1
