"Time (s)","Gyroscope x (rad/s)","Gyroscope y (rad/s)","Gyroscope z (rad/s)"
7.192819100E-2,-1.870815456E-1,-1.083874628E-1,1.069227681E-1
7.441881600E-2,-1.870815456E-1,-1.073222235E-1,1.133141592E-1
7.690944100E-2,-1.966686398E-1,-1.051917598E-1,1.165098622E-1
7.940006600E-2,-2.041252851E-1,-9.986559302E-2,1.165098622E-1
8.189063900E-2,-2.105166763E-1,-9.560466558E-2,1.186403260E-1
8.438131600E-2,-2.232994735E-1,-9.240896255E-2,1.207707971E-1
8.687188900E-2,-2.318213433E-1,-8.282186836E-2,1.207707971E-1
8.936251400E-2,-2.414084375E-1,-8.175663650E-2,1.207707971E-1
9.185313900E-2,-2.499302924E-1,-8.601756394E-2,1.229012609E-1
9.413725300E-2,-2.552564740E-1,-8.708280325E-2,1.239664927E-1
9.662782600E-2,-2.637783289E-1,-8.495233208E-2,1.250317246E-1
9.911845100E-2,-2.712349594E-1,-8.921326697E-2,1.239664927E-1
1.016090760E-1,-2.786915898E-1,-9.347419441E-2,1.218360290E-1
1.040997010E-1,-2.904091477E-1,-9.560466558E-2,1.229012609E-1
1.065903260E-1,-2.978657782E-1,-9.880036116E-2,1.250317246E-1
1.090809510E-1,-3.106485903E-1,-1.062569916E-1,1.250317246E-1
1.115715240E-1,-3.255618513E-1,-1.094526947E-1,1.260969639E-1
1.140621490E-1,-3.340837061E-1,-1.137136221E-1,1.260969639E-1
1.165527740E-1,-3.404751122E-1,-1.264964193E-1,1.282274276E-1
1.190433990E-1,-3.489969671E-1,-1.382139921E-1,1.335535944E-1
1.215340240E-1,-3.521926701E-1,-1.520620137E-1,1.367492825E-1
1.240246490E-1,-3.532578945E-1,-1.605838835E-1,1.388797611E-1
1.262638680E-1,-3.532578945E-1,-1.669752747E-1,1.452711523E-1
1.287544410E-1,-3.521926701E-1,-1.733666807E-1,1.495320797E-1
1.312450660E-1,-3.500621915E-1,-1.850842386E-1,1.484668553E-1
1.337356910E-1,-3.436708152E-1,-1.957365721E-1,1.474016160E-1
1.362263160E-1,-3.340837061E-1,-2.031932026E-1,1.463363916E-1
1.387169410E-1,-3.244965971E-1,-2.063889056E-1,1.452711523E-1
1.412075660E-1,-3.127790391E-1,-2.031932026E-1,1.452711523E-1
1.436981390E-1,-3.010614812E-1,-1.957365721E-1,1.399449855E-1
1.461887640E-1,-2.914743721E-1,-1.850842386E-1,1.399449855E-1
1.486793890E-1,-2.776263654E-1,-1.733666807E-1,1.410102248E-1
1.511700140E-1,-2.627131045E-1,-1.605838835E-1,1.388797611E-1
1.536606390E-1,-2.488650680E-1,-1.456706226E-1,1.367492825E-1
1.561512640E-1,-2.339518070E-1,-1.328878254E-1,1.346188188E-1
1.583839200E-1,-2.201037705E-1,-1.201050207E-1,1.356840581E-1
1.608744930E-1,-2.073209733E-1,-1.051917598E-1,1.378145218E-1
1.633651180E-1,-1.924077123E-1,-9.347419441E-2,1.367492825E-1
1.658557430E-1,-1.796249151E-1,-8.069140464E-2,1.367492825E-1
1.683463680E-1,-1.711030602E-1,-7.003907114E-2,1.356840581E-1
1.708369930E-1,-1.551245600E-1,-5.938674137E-2,1.346188188E-1
1.733276180E-1,-1.455374658E-1,-4.979964346E-2,1.356840581E-1
1.758181910E-1,-1.391460598E-1,-4.553871229E-2,1.367492825E-1
1.783088160E-1,-1.316894293E-1,-4.340824485E-2,1.356840581E-1
1.807994410E-1,-1.284937263E-1,-4.340824485E-2,1.335535944E-1
1.832900660E-1,-1.263632625E-1,-4.660394415E-2,1.346188188E-1
1.857806910E-1,-1.263632625E-1,-4.979964346E-2,1.314231306E-1
1.882713160E-1,-1.263632625E-1,-5.512581021E-2,1.292926520E-1
1.905230860E-1,-1.316894293E-1,-6.364767253E-2,1.282274276E-1
1.930136590E-1,-1.370155960E-1,-7.323476672E-2,1.250317246E-1
1.955042840E-1,-1.402112991E-1,-8.069140464E-2,1.218360290E-1
1.979949090E-1,-1.476679295E-1,-9.240896255E-2,1.207707971E-1
2.004855340E-1,-1.551245600E-1,-1.051917598E-1,1.218360290E-1
2.029761590E-1,-1.604507267E-1,-1.158440933E-1,1.239664927E-1
2.054667840E-1,-1.679073572E-1,-1.275616586E-1,1.260969639E-1
2.079573570E-1,-1.785596907E-1,-1.435401440E-1,1.271621883E-1
2.104479820E-1,-1.881467849E-1,-1.552577168E-1,1.314231306E-1
2.129386070E-1,-2.009295821E-1,-1.637795717E-1,1.335535944E-1
2.154292320E-1,-2.115819156E-1,-1.691057384E-1,1.367492825E-1
2.179198570E-1,-2.211690098E-1,-1.786928326E-1,1.431406885E-1
2.204104820E-1,-2.350170314E-1,-1.840189993E-1,1.463363916E-1
2.226409510E-1,-2.403431982E-1,-1.893451661E-1,1.516625583E-1
2.251315240E-1,-2.446041405E-1,-1.936061084E-1,1.548582464E-1
2.276221490E-1,-2.477998286E-1,-1.989322603E-1,1.537930220E-1
2.301127740E-1,-2.467346042E-1,-2.042584270E-1,1.580539495E-1
2.326033990E-1,-2.456693649E-1,-2.074541301E-1,1.623148769E-1
2.350940240E-1,-2.424736619E-1,-2.063889056E-1,1.623148769E-1
2.375846490E-1,-2.403431982E-1,-2.053236663E-1,1.633801162E-1
2.400752220E-1,-2.350170314E-1,-2.021279633E-1,1.676410437E-1
2.425658470E-1,-2.296908647E-1,-1.968017966E-1,1.655105799E-1
2.450565240E-1,-2.243647128E-1,-1.872147024E-1,1.633801162E-1
2.475470970E-1,-2.158428431E-1,-1.797580719E-1,1.633801162E-1
2.500377220E-1,-2.083862126E-1,-1.680405140E-1,1.633801162E-1
2.525283470E-1,-2.030600458E-1,-1.573881805E-1,1.612496525E-1
2.547691280E-1,-1.945381761E-1,-1.446053833E-1,1.623148769E-1
2.572597010E-1,-1.860163212E-1,-1.286268830E-1,1.644453406E-1
2.597503260E-1,-1.785596907E-1,-1.137136221E-1,1.655105799E-1
2.622409510E-1,-1.711030602E-1,-9.986559302E-2,1.708367467E-1
2.647315760E-1,-1.615159512E-1,-8.601756394E-2,1.729672104E-1
2.672222010E-1,-1.583202630E-1,-7.536523789E-2,1.782933772E-1
2.697128260E-1,-1.508636326E-1,-6.684337556E-2,1.857500076E-1
2.722033990E-1,-1.487331539E-1,-6.151720881E-2,1.921414137E-1
2.746940240E-1,-1.466026902E-1,-5.619104207E-2,2.027937323E-1
2.771846490E-1,-1.444722265E-1,-5.193011090E-2,2.123808414E-1
2.796752740E-1,-1.455374658E-1,-4.873441160E-2,2.198374718E-1
2.821658990E-1,-1.487331539E-1,-4.979964346E-2,2.315550297E-1
2.846565240E-1,-1.572550237E-1,-5.086487532E-2,2.411421239E-1
2.869083990E-1,-1.604507267E-1,-4.979964346E-2,2.507292330E-1
2.893989720E-1,-1.689725816E-1,-5.406057462E-2,2.635120153E-1
2.918895970E-1,-1.774944514E-1,-5.938674137E-2,2.773600519E-1
2.943802220E-1,-1.892120093E-1,-7.110430300E-2,2.869471312E-1
2.968708470E-1,-1.987991184E-1,-8.601756394E-2,3.007951677E-1
2.993614720E-1,-2.083862126E-1,-9.453943372E-2,3.167736828E-1
3.018520970E-1,-2.222342342E-1,-1.062569916E-1,3.295564651E-1
3.043427220E-1,-2.318213433E-1,-1.190397888E-1,3.412740231E-1
3.068332950E-1,-2.414084375E-1,-1.339530498E-1,3.540568352E-1
3.093239200E-1,-2.531259954E-1,-1.531272531E-1,3.679048419E-1
3.118145450E-1,-2.584521770E-1,-1.733666807E-1,3.796224296E-1
3.143051700E-1,-2.648435533E-1,-1.925408691E-1,3.913399875E-1
3.167957950E-1,-2.744306624E-1,-2.127802968E-1,4.041227698E-1
3.190183470E-1,-2.840177417E-1,-2.330197245E-1,4.179708064E-1
3.215089200E-1,-2.882786989E-1,-2.521939278E-1,4.296883643E-1
3.239995450E-1,-2.978657782E-1,-2.703028917E-1,4.414059222E-1
3.264901700E-1,-3.053224087E-1,-2.820204496E-1,4.541887343E-1
3.289807950E-1,-3.191704452E-1,-2.937380075E-1,4.637758136E-1
3.314714200E-1,-3.276923001E-1,-3.001294136E-1,4.765586257E-1
3.339620450E-1,-3.330184817E-1,-3.033251166E-1,4.904066622E-1
3.364526180E-1,-3.415403366E-1,-3.033251166E-1,4.999937415E-1
3.389432430E-1,-3.500621915E-1,-2.969337106E-1,5.127765536E-1
3.414338680E-1,-3.596493006E-1,-2.841508985E-1,5.298202634E-1
3.439244930E-1,-3.692364097E-1,-2.671071887E-1,5.372769237E-1
3.464151180E-1,-3.777582645E-1,-2.468677461E-1,5.479292274E-1
3.489057430E-1,-3.852148950E-1,-2.223673910E-1,5.585815907E-1
3.511427220E-1,-3.873453438E-1,-1.978670359E-1,5.702991486E-1
3.536332950E-1,-3.884105980E-1,-1.733666807E-1,5.809514523E-1
3.561239200E-1,-3.905410469E-1,-1.509967744E-1,5.873428583E-1
3.586145450E-1,-3.884105980E-1,-1.286268830E-1,5.947995186E-1
3.611051700E-1,-3.873453438E-1,-1.115831584E-1,5.958647132E-1
3.635957950E-1,-3.820191920E-1,-9.134373069E-2,5.979951620E-1
3.660864200E-1,-3.798887134E-1,-8.069140464E-2,6.001256704E-1
3.685769930E-1,-3.766930401E-1,-6.471290439E-2,6.022561193E-1
3.710676180E-1,-3.756277859E-1,-5.086487532E-2,5.979951620E-1
3.735582430E-1,-3.745625615E-1,-4.127778113E-2,5.969299674E-1
3.760488680E-1,-3.671059310E-1,-3.382114694E-2,5.979951620E-1
3.785394930E-1,-3.649754524E-1,-3.169068322E-2,5.926690102E-1
3.810301180E-1,-3.639102280E-1,-3.275591508E-2,5.884081125E-1
3.831647530E-1,-3.607145250E-1,-3.169068322E-2,5.820167065E-1
3.856553260E-1,-3.585840762E-1,-3.808208182E-2,5.734948516E-1
3.881459510E-1,-3.543231487E-1,-4.873441160E-2,5.639077425E-1
3.906365760E-1,-3.553883731E-1,-5.832150951E-2,5.553858876E-1
3.931272010E-1,-3.500621915E-1,-6.897383928E-2,5.447335243E-1
3.956178260E-1,-3.468665183E-1,-8.069140464E-2,5.362116694E-1
3.981084510E-1,-3.447360396E-1,-9.773512930E-2,5.287550688E-1
4.005990240E-1,-3.436708152E-1,-1.126483902E-1,5.181027055E-1
4.030896490E-1,-3.404751122E-1,-1.328878254E-1,5.095808506E-1
4.055802740E-1,-3.394098580E-1,-1.488663107E-1,5.010589957E-1
4.080708990E-1,-3.372794092E-1,-1.648448110E-1,4.914718866E-1
4.105615240E-1,-3.340837061E-1,-1.754971445E-1,4.808195531E-1
4.130521490E-1,-3.351489305E-1,-1.861494780E-1,4.733629227E-1
4.154013680E-1,-3.372794092E-1,-1.989322603E-1,4.648410678E-1
4.178919410E-1,-3.415403366E-1,-2.042584270E-1,4.531235099E-1
4.203825660E-1,-3.468665183E-1,-2.085193694E-1,4.446016252E-1
4.228731910E-1,-3.511274457E-1,-2.106498331E-1,4.403406978E-1
4.253638160E-1,-3.553883731E-1,-2.127802968E-1,4.339492917E-1
4.278544410E-1,-3.585840762E-1,-2.074541301E-1,4.232969582E-1
4.303450660E-1,-3.596493006E-1,-1.936061084E-1,4.147751033E-1
4.328356390E-1,-3.649754524E-1,-1.786928326E-1,4.062532485E-1
4.353262640E-1,-3.660407066E-1,-1.616491079E-1,3.977313936E-1
4.378168890E-1,-3.639102280E-1,-1.382139921E-1,3.881442845E-1
4.403075140E-1,-3.607145250E-1,-1.094526947E-1,3.764267266E-1
4.427981390E-1,-3.553883731E-1,-7.962616533E-2,3.689700961E-1
4.452887640E-1,-3.468665183E-1,-4.553871229E-2,3.604482114E-1
4.475312640E-1,-3.404751122E-1,-1.145125460E-2,3.508611321E-1
4.500218360E-1,-3.276923001E-1,2.689713426E-2,3.476654291E-1
4.525124610E-1,-3.181052208E-1,7.057169080E-2,3.444697261E-1
4.550030860E-1,-3.063876629E-1,1.089200750E-1,3.391435742E-1
4.574937110E-1,-2.925396264E-1,1.462032348E-1,3.338173926E-1
4.599843360E-1,-2.744306624E-1,1.866820902E-1,3.274259865E-1
4.624749610E-1,-2.616478503E-1,2.250304818E-1,3.210346103E-1
4.649655860E-1,-2.446041405E-1,2.612484097E-1,3.157084286E-1
4.674561590E-1,-2.275604010E-1,2.942706347E-1,3.061213493E-1
4.699467840E-1,-2.083862126E-1,3.187709749E-1,2.954690158E-1
4.724374090E-1,-1.913424879E-1,3.368799388E-1,2.858819067E-1
4.749280340E-1,-1.753639877E-1,3.507279754E-1,2.752295732E-1
4.774186590E-1,-1.615159512E-1,3.624455333E-1,2.624467909E-1
4.796599610E-1,-1.476679295E-1,3.677717149E-1,2.485987544E-1
4.821505340E-1,-1.338198930E-1,3.645760119E-1,2.379464209E-1
4.846411590E-1,-1.210371032E-1,3.624455333E-1,2.240983993E-1
4.871317840E-1,-1.125152409E-1,3.571193814E-1,2.123808414E-1
4.896224090E-1,-1.071890742E-1,3.475322723E-1,2.038589716E-1
4.921130340E-1,-9.866721183E-2,3.326190114E-1,1.985328048E-1
4.946036590E-1,-9.440627694E-2,3.134448230E-1,1.932066381E-1
4.970942320E-1,-9.334104508E-2,2.889444530E-1,1.868152469E-1
4.995849090E-1,-8.694964647E-2,2.601831555E-1,1.804238409E-1
5.020754820E-1,-8.481918275E-2,2.271609455E-1,1.772281379E-1
5.045661070E-1,-8.268871158E-2,1.920082569E-1,1.740324497E-1
5.070567320E-1,-8.375394344E-2,1.579207927E-1,1.729672104E-1
5.095473570E-1,-8.908011019E-2,1.217028722E-1,1.687062830E-1
5.117847530E-1,-9.014534205E-2,8.335448056E-2,1.676410437E-1
5.142753780E-1,-9.866721183E-2,4.713656008E-2,1.676410437E-1
5.167659510E-1,-1.093195379E-1,8.788172156E-3,1.676410437E-1
5.192565760E-1,-1.210371032E-1,-3.275591508E-2,1.708367467E-1
5.217472010E-1,-1.338198930E-1,-6.897383928E-2,1.761629134E-1
5.242378260E-1,-1.497983932E-1,-1.073222235E-1,1.761629134E-1
5.267284510E-1,-1.679073572E-1,-1.392792165E-1,1.782933772E-1
5.292190240E-1,-1.870815456E-1,-1.712362021E-1,1.846847683E-1
5.317096490E-1,-2.083862126E-1,-1.978670359E-1,1.900109351E-1
5.342002740E-1,-2.286256403E-1,-2.138455361E-1,1.974675655E-1
5.366908990E-1,-2.541912198E-1,-2.234326303E-1,2.017285079E-1
5.391815240E-1,-2.776263654E-1,-2.287587970E-1,2.091851383E-1
5.416721490E-1,-2.989310026E-1,-2.244978547E-1,2.177069932E-1
5.439298570E-1,-3.181052208E-1,-2.138455361E-1,2.272941023E-1
5.464166280E-1,-3.372794092E-1,-1.978670359E-1,2.390116602E-1
5.489035030E-1,-3.511274457E-1,-1.765623689E-1,2.496639937E-1
5.513903260E-1,-3.639102280E-1,-1.541924775E-1,2.581858635E-1
5.538771490E-1,-3.766930401E-1,-1.328878254E-1,2.677729428E-1
5.563640240E-1,-3.862801194E-1,-1.051917598E-1,2.762948275E-1
5.588508470E-1,-3.958672285E-1,-8.069140464E-2,2.848166823E-1
5.613377220E-1,-4.033238590E-1,-4.979964346E-2,2.901428342E-1
5.638245450E-1,-4.182371199E-1,-1.890788600E-2,2.933385372E-1
5.663113680E-1,-4.267589748E-1,9.853405878E-3,2.997299433E-1
5.687982430E-1,-4.352808297E-1,3.541899845E-2,3.039908707E-1
5.712850660E-1,-4.438027143E-1,5.991935730E-2,3.093170524E-1
5.737719410E-1,-4.416722357E-1,7.802832127E-2,3.146432042E-1
5.760470970E-1,-4.395417869E-1,9.294158220E-2,3.157084286E-1
5.785338680E-1,-4.331503808E-1,9.933298081E-2,3.210346103E-1
5.810206910E-1,-4.288894534E-1,1.003982127E-1,3.210346103E-1
5.835075660E-1,-4.203675687E-1,9.826774895E-2,3.242303133E-1
5.859943890E-1,-4.086500108E-1,8.761541545E-2,3.252955377E-1
5.884812640E-1,-3.958672285E-1,7.802832127E-2,3.284912407E-1
5.909680860E-1,-3.841496706E-1,6.098458916E-2,3.316869438E-1
5.934549090E-1,-3.681711555E-1,3.861469775E-2,3.316869438E-1
5.959417840E-1,-3.521926701E-1,9.853405878E-3,3.359478712E-1
5.984286070E-1,-3.372794092E-1,-1.571218669E-2,3.402087986E-1
6.009154820E-1,-3.213009238E-1,-4.447348043E-2,3.380783200E-1
6.034023050E-1,-3.031919599E-1,-7.749570161E-2,3.391435742E-1
6.058891280E-1,-2.872134447E-1,-1.083874628E-1,3.423392773E-1
6.081712110E-1,-2.712349594E-1,-1.371487528E-1,3.455349505E-1
6.106579820E-1,-2.552564740E-1,-1.648448110E-1,3.508611321E-1
6.131448050E-1,-2.403431982E-1,-1.893451661E-1,3.561872840E-1
6.156316800E-1,-2.286256403E-1,-2.106498331E-1,3.583177626E-1
6.181185030E-1,-2.179733068E-1,-2.266283184E-1,3.636439145E-1
6.206053780E-1,-2.105166763E-1,-2.394111156E-1,3.668396175E-1
6.230922010E-1,-2.009295821E-1,-2.489982247E-1,3.732310236E-1
6.255790240E-1,-1.977338791E-1,-2.553896308E-1,3.753614724E-1
6.280658990E-1,-1.913424879E-1,-2.468677461E-1,3.774919510E-1
6.305527220E-1,-1.902772486E-1,-2.330197245E-1,3.828181326E-1
6.330395970E-1,-1.934729517E-1,-2.159759998E-1,3.881442845E-1
6.355264200E-1,-1.998643428E-1,-1.957365721E-1,3.892095089E-1
6.380132430E-1,-2.051905096E-1,-1.744319052E-1,3.902747631E-1
6.403055860E-1,-2.126471400E-1,-1.467358470E-1,3.956009150E-1
6.427923570E-1,-2.211690098E-1,-1.201050207E-1,3.987966180E-1
6.452791800E-1,-2.275604010E-1,-9.347419441E-2,3.977313936E-1
6.477660550E-1,-2.392779738E-1,-6.684337556E-2,4.019923210E-1
6.502528780E-1,-2.488650680E-1,-4.340824485E-2,4.041227698E-1
6.527397530E-1,-2.563216984E-1,-7.190322969E-3,4.019923210E-1
6.552265760E-1,-2.669740319E-1,5.246272683E-2,3.774919510E-1
6.577133990E-1,-2.765611112E-1,1.067896113E-1,3.370130956E-1
6.602002740E-1,-2.840177417E-1,1.312899739E-1,3.018604219E-1
6.626870970E-1,-2.914743721E-1,1.312899739E-1,2.762948275E-1
6.651739720E-1,-3.021267056E-1,1.227681041E-1,2.645772398E-1
6.676607950E-1,-3.095833361E-1,1.334204376E-1,2.645772398E-1
6.701476180E-1,-3.149095178E-1,1.589860320E-1,2.720338702E-1
6.724314200E-1,-3.095833361E-1,1.983996481E-1,2.826862037E-1
6.749181910E-1,-2.968005538E-1,2.388785034E-1,2.975994647E-1
6.774050140E-1,-2.765611112E-1,2.825530469E-1,3.135779798E-1
6.798918890E-1,-2.531259954E-1,3.304885328E-1,3.359478712E-1
6.823787110E-1,-2.339518070E-1,3.699021637E-1,3.604482114E-1
6.848655340E-1,-2.137123793E-1,4.146419466E-1,3.913399875E-1
6.873524090E-1,-1.945381761E-1,4.465989470E-1,4.158403277E-1
6.898392320E-1,-1.817553788E-1,4.455337226E-1,4.360797703E-1
6.923261070E-1,-1.647116542E-1,4.615122080E-1,4.435364008E-1
6.948129300E-1,-1.444722265E-1,4.860125780E-1,4.360797703E-1
6.972998050E-1,-1.274285018E-1,5.126433969E-1,4.254274368E-1
6.997866280E-1,-1.082543060E-1,5.360785127E-1,4.190360308E-1
7.022734510E-1,-9.121058136E-2,5.573831797E-1,4.083836973E-1
7.044315760E-1,-7.736254483E-2,5.776225924E-1,4.019923210E-1
7.069184510E-1,-6.351451576E-2,6.031882167E-1,3.924052119E-1
7.094052740E-1,-4.966649041E-2,6.298190355E-1,3.892095089E-1
7.118920970E-1,-3.688369319E-2,6.511237025E-1,3.934704363E-1
7.143789720E-1,-2.516612969E-2,6.809502244E-1,3.934704363E-1
7.168657950E-1,-1.131810062E-2,7.086462975E-1,3.956009150E-1
7.193526700E-1,2.529928461E-3,7.310161591E-1,3.998618424E-1
7.218394930E-1,9.986559860E-3,7.587122321E-1,4.019923210E-1
7.243263160E-1,1.957365684E-2,7.842777967E-1,4.073184729E-1
7.268131910E-1,3.448691964E-2,8.023867607E-1,4.137098789E-1
7.293000140E-1,4.407401755E-2,8.204957247E-1,4.179708064E-1
7.317868890E-1,5.366111174E-2,8.428656459E-1,4.232969582E-1
7.342161070E-1,5.792204663E-2,8.684312105E-1,4.275579154E-1
7.367028780E-1,6.963960826E-2,8.844097257E-1,4.392754734E-1
7.391897010E-1,8.348763734E-2,8.918663263E-1,4.627105892E-1
7.416765760E-1,9.094426781E-2,9.014534354E-1,4.733629227E-1
7.441633990E-1,1.005313694E-1,8.982577324E-1,4.733629227E-1
7.466502740E-1,1.165098622E-1,8.748226166E-1,4.541887343E-1
7.491370970E-1,1.335535944E-1,8.396699429E-1,4.275579154E-1
7.516239200E-1,1.474016160E-1,7.842777967E-1,3.956009150E-1
7.541107950E-1,1.569887102E-1,7.224943042E-1,3.668396175E-1
7.565976180E-1,1.559234858E-1,6.607108116E-1,3.423392773E-1
7.590844930E-1,1.474016160E-1,5.936011076E-1,3.210346103E-1
7.615713160E-1,1.324883550E-1,5.403394699E-1,3.029256463E-1
7.640581390E-1,1.101184636E-1,5.094476938E-1,2.816209793E-1
7.662290760E-1,8.455286920E-2,4.849473238E-1,2.624467909E-1
7.687158470E-1,5.579157919E-2,4.593817294E-1,2.443378270E-1
7.712026700E-1,1.637795754E-2,4.348813891E-1,2.240983993E-1
7.736895450E-1,-1.983996481E-2,4.050548673E-1,2.038589716E-1
7.761763680E-1,-5.818835273E-2,3.741630912E-1,1.846847683E-1
7.786632430E-1,-9.653674066E-2,3.400756419E-1,1.591191888E-1
7.811500660E-1,-1.274285018E-1,3.059881926E-1,1.271621883E-1
7.836368890E-1,-1.572550237E-1,2.687050402E-1,9.200949967E-2
7.861237640E-1,-1.817553788E-1,2.303566486E-1,5.898727849E-2
7.886105860E-1,-2.019948065E-1,1.824211627E-1,2.596505545E-2
7.910974610E-1,-2.190385461E-1,1.387466043E-1,-5.991935730E-3
7.935842840E-1,-2.350170314E-1,1.099853069E-1,-3.155753016E-2
7.960711070E-1,-2.477998286E-1,9.826774895E-2,-5.392742157E-2
7.984739720E-1,-2.616478503E-1,1.078548431E-1,-7.203638554E-2
8.009607430E-1,-2.754958868E-1,1.366161406E-1,-8.694964647E-2
8.034475660E-1,-2.808220685E-1,1.643121988E-1,-9.973244369E-2
8.059344410E-1,-2.712349594E-1,1.962691844E-1,-1.274285018E-1
8.084212640E-1,-2.627131045E-1,2.399437428E-1,-1.519288570E-1
8.109081390E-1,-2.488650680E-1,2.804225981E-1,-1.700378209E-1
8.133949610E-1,-2.360822707E-1,3.198362291E-1,-1.785596907E-1
8.158817840E-1,-2.264951766E-1,3.581846058E-1,-1.796249151E-1
8.183686590E-1,-2.169080675E-1,4.050548673E-1,-1.689725816E-1
8.208554820E-1,-2.126471400E-1,4.647079110E-1,-1.529940963E-1
8.233423570E-1,-2.137123793E-1,5.286219120E-1,-1.348851323E-1
8.258291800E-1,-2.211690098E-1,6.021229625E-1,-1.103847697E-1
8.283160030E-1,-2.328865677E-1,6.788197160E-1,-8.481918275E-2
8.306011070E-1,-2.467346042E-1,7.523208261E-1,-6.457975507E-2
8.330878780E-1,-2.627131045E-1,8.258218765E-1,-5.179695413E-2
8.355747010E-1,-2.754958868E-1,8.971925378E-1,-3.794892505E-2
8.380615760E-1,-2.946700752E-1,9.600412846E-1,-2.623136342E-2
8.405483990E-1,-3.138442934E-1,1.013302922E0,-2.090519853E-2
8.430352740E-1,-3.319532275E-1,1.069760323E0,-1.557903271E-2
8.455220970E-1,-3.553883731E-1,1.129413366E0,-1.238333434E-2
8.480089200E-1,-3.745625615E-1,1.199718714E0,-1.451379992E-2
8.504957950E-1,-3.905410469E-1,1.271089315E0,-2.197043039E-2
8.529826180E-1,-4.054543078E-1,1.346720815E0,-3.475322574E-2
8.554694930E-1,-4.214328229E-1,1.423417687E0,-5.818835273E-2
8.579563160E-1,-4.363460839E-1,1.503310084E0,-8.055824786E-2
8.604431390E-1,-4.448679388E-1,1.576811194E0,-1.071890742E-1
8.625954300E-1,-4.565854967E-1,1.637529492E0,-1.423417628E-1
8.650822530E-1,-4.704335332E-1,1.687595367E0,-1.796249151E-1
8.675691280E-1,-4.874772727E-1,1.715291500E0,-2.201037705E-1
8.700559510E-1,-5.098471642E-1,1.728074312E0,-2.627131045E-1
8.725428260E-1,-5.268908739E-1,1.732335210E0,-3.031919599E-1
8.750296490E-1,-5.449998379E-1,1.731269956E0,-3.447360396E-1
8.775164720E-1,-5.652392507E-1,1.727009058E0,-3.820191920E-1
8.800033470E-1,-5.844134688E-1,1.725943804E0,-4.246285260E-1
8.824901700E-1,-5.971962810E-1,1.723813295E0,-4.619116783E-1
8.849769930E-1,-6.110442877E-1,1.720617652E0,-4.938686490E-1
8.874638680E-1,-6.270228028E-1,1.714226246E0,-5.204994678E-1
8.899506910E-1,-6.398055553E-1,1.700378180E0,-5.418041348E-1
8.923855860E-1,-6.579145193E-1,1.684399724E0,-5.524564981E-1
8.948723570E-1,-6.792191863E-1,1.670551658E0,-5.236951709E-1
8.973591800E-1,-6.994586587E-1,1.627942324E0,-4.991948307E-1
8.998460550E-1,-7.271546721E-1,1.581072092E0,-4.853467941E-1
9.023328780E-1,-7.580464482E-1,1.525679946E0,-4.714987576E-1
9.048197010E-1,-7.974600792E-1,1.450048447E0,-4.651073813E-1
9.073065760E-1,-8.390041590E-1,1.350981832E0,-4.597811997E-1
9.097933990E-1,-8.869396448E-1,1.241262794E0,-4.512593448E-1
9.122802740E-1,-9.412665367E-1,1.141130924E0,-4.512593448E-1
9.147670970E-1,-9.955934286E-1,1.032477140E0,-4.555202723E-1
9.172539720E-1,-1.048855066E0,9.067795873E-1,-4.672378302E-1
9.197407950E-1,-1.112769008E0,7.736254930E-1,-4.821510911E-1
9.222276180E-1,-1.183074474E0,6.426018476E-1,-5.023905039E-1
9.243841280E-1,-1.249118924E0,5.179695487E-1,-5.364779830E-1
9.268710030E-1,-1.321554661E0,4.007939398E-1,-5.748263597E-1
9.293578260E-1,-1.395055771E0,2.974663079E-1,-6.131747365E-1
9.318446490E-1,-1.468556881E0,2.090519816E-1,-6.461969614E-1
9.343315240E-1,-1.539927483E0,1.430075318E-1,-6.749582887E-1
9.368183470E-1,-1.613428593E0,1.078548431E-1,-7.005238533E-1
9.393052220E-1,-1.681603432E0,1.067896113E-1,-7.250242233E-1
9.417920450E-1,-1.735930324E0,1.323551983E-1,-7.484593391E-1
9.442788680E-1,-1.792387724E0,1.760297567E-1,-7.825468183E-1
9.467657430E-1,-1.843518853E0,2.239652425E-1,-8.176994920E-1
9.492525660E-1,-1.882932544E0,3.006620109E-1,-8.549826741E-1
9.517394410E-1,-1.907432914E0,4.199681282E-1,-9.029181600E-1
9.541712640E-1,-1.922346115E0,5.200999975E-1,-9.551145434E-1
9.566580340E-1,-1.927672267E0,6.031882167E-1,-1.007310987E0
9.591448570E-1,-1.919150472E0,7.192986012E-1,-1.056311727E0
9.616317320E-1,-1.901041508E0,8.354089856E-1,-1.105312467E0
9.641185550E-1,-1.869084477E0,9.238233566E-1,-1.153247952E0
9.666054300E-1,-1.825409889E0,1.018629074E0,-1.203313828E0
9.690922530E-1,-1.770017862E0,1.107043386E0,-1.248053670E0
9.715790760E-1,-1.705038667E0,1.175218344E0,-1.282141089E0
9.740659510E-1,-1.633667946E0,1.232740879E0,-1.315163374E0
9.765527740E-1,-1.549514532E0,1.307307243E0,-1.344989896E0
9.790396490E-1,-1.458969831E0,1.382938743E0,-1.371620655E0
9.815264720E-1,-1.363098860E0,1.436200380E0,-1.391860127E0
9.840132950E-1,-1.266162634E0,1.474548817E0,-1.407838583E0
9.863012110E-1,-1.172422051E0,1.541658521E0,-1.421686649E0
9.887879820E-1,-1.078681588E0,1.646051288E0,-1.430208445E0
9.912748050E-1,-9.764192104E-1,1.749378920E0,-1.439795613E0
9.937616800E-1,-8.816134930E-1,1.848445654E0,-1.441926003E0
9.962485030E-1,-7.868077159E-1,1.966686487E0,-1.453643560E0
9.987353780E-1,-6.941324472E-1,2.089188337E0,-1.465361238E0
1.001222201E0,-6.046528816E-1,2.214885712E0,-1.477078795E0
1.003709024E0,-5.194342732E-1,2.340583324E0,-1.498383403E0
1.006195899E0,-4.384765327E-1,2.457758904E0,-1.519688010E0
1.008682722E0,-3.681711555E-1,2.557890892E0,-1.543123245E0
1.011169597E0,-3.021267056E-1,2.645239830E0,-1.570819259E0
1.013656420E0,-2.477998286E-1,2.712349653E0,-1.610232830E0
1.016143243E0,-2.051905096E-1,2.752828360E0,-1.652842164E0
1.018432409E0,-1.721682847E-1,2.775198221E0,-1.699712396E0
1.020919180E0,-1.604507267E-1,2.772002697E0,-1.751908898E0
1.023406003E0,-1.615159512E-1,2.741110802E0,-1.803040028E0
1.025892878E0,-1.806901544E-1,2.693175316E0,-1.852040768E0
1.028379701E0,-2.179733068E-1,2.612217665E0,-1.889323950E0
1.030866576E0,-2.765611112E-1,2.522738218E0,-1.922346115E0
1.033353399E0,-3.564535975E-1,2.438584805E0,-1.948976994E0
1.035840222E0,-4.608464241E-1,2.367214203E0,-1.979868770E0
1.038327097E0,-5.865439177E-1,2.308626175E0,-2.006499529E0
1.040813920E0,-7.218285203E-1,2.257495165E0,-2.033130407E0
1.043300795E0,-8.720263839E-1,2.211689949E0,-2.061891556E0
1.045787618E0,-1.027550459E0,2.175472260E0,-2.092783451E0
1.048274441E0,-1.188400626E0,2.145645618E0,-2.132330179E0
1.050568972E0,-1.342859387E0,2.119014740E0,-2.169613361E0
1.053052670E0,-1.484535336E0,2.093449116E0,-2.205831289E0
1.055536472E0,-1.620885253E0,2.071079254E0,-2.246310234E0
1.058020222E0,-1.741256475E0,2.055100918E0,-2.289984703E0
1.060503972E0,-1.848845124E0,2.048709393E0,-2.337920189E0
1.062987722E0,-1.944716096E0,2.046578884E0,-2.383725166E0
1.065471472E0,-2.026738882E0,2.054035664E0,-2.435921669E0
1.067955222E0,-2.094913960E0,2.076405525E0,-2.495574713E0
1.070438972E0,-2.147110224E0,2.111558199E0,-2.553097248E0
1.072922722E0,-2.189719677E0,2.161624193E0,-2.618076563E0
1.075406524E0,-2.219546080E0,2.221277237E0,-2.686251402E0
1.077890274E0,-2.238720417E0,2.301169634E0,-2.753360987E0
1.080374024E0,-2.247242212E0,2.397040606E0,-2.827927351E0
1.082686941E0,-2.245111704E0,2.505694389E0,-2.900363207E0
1.085170639E0,-2.230198383E0,2.627130985E0,-2.970668554E0
1.087654441E0,-2.208893776E0,2.759219885E0,-3.049495935E0
1.090138191E0,-2.176936865E0,2.895569563E0,-3.125127316E0
1.092621941E0,-2.133262396E0,3.034049988E0,-3.193302393E0
1.095105691E0,-2.083196402E0,3.149095058E0,-3.261477232E0
1.097589441E0,-2.037391424E0,3.241770506E0,-3.327521563E0
1.100073191E0,-1.993716717E0,3.306749582E0,-3.391435623E0
1.102556941E0,-1.951107383E0,3.350424051E0,-3.454284430E0
1.105040743E0,-1.923411369E0,3.379185438E0,-3.517133236E0
1.107524493E0,-1.902106762E0,3.396229267E0,-3.577851534E0
1.110008243E0,-1.891454339E0,3.401555300E0,-3.642830610E0
1.112491993E0,-1.887193441E0,3.394098759E0,-3.701418400E0
1.114815430E0,-1.892519593E0,3.370663643E0,-3.757875681E0
1.117299128E0,-1.904237151E0,3.331249952E0,-3.809006929E0
1.119782930E0,-1.924476624E0,3.273727417E0,-3.855877161E0
1.122266680E0,-1.944716096E0,3.203422070E0,-3.895290852E0
1.124750430E0,-1.968151212E0,3.120333910E0,-3.932574034E0
1.127234180E0,-1.999042869E0,3.025528193E0,-3.966661453E0
1.129717930E0,-2.030999899E0,2.919004679E0,-3.995422840E0
1.132201680E0,-2.061891556E0,2.803959608E0,-4.016727448E0
1.134685430E0,-2.097044468E0,2.695305824E0,-4.035901546E0
1.137169180E0,-2.137523174E0,2.595173836E0,-4.054010391E0
1.139652982E0,-2.183328152E0,2.512085676E0,-4.066793442E0
1.142136732E0,-2.224872351E0,2.453497887E0,-4.075315475E0
1.144620482E0,-2.267481565E0,2.414084435E0,-4.081706524E0
1.146944128E0,-2.302634239E0,2.391714334E0,-4.085967541E0
1.149427826E0,-2.327134609E0,2.386388302E0,-4.085967541E0
1.151911628E0,-2.342047930E0,2.395975351E0,-4.083837032E0
1.154395378E0,-2.342047930E0,2.423671484E0,-4.080641270E0
1.156879128E0,-2.328199863E0,2.464150190E0,-4.078510761E0
1.159362878E0,-2.296242952E0,2.516346693E0,-4.075315475E0
1.161846628E0,-2.249372721E0,2.588782549E0,-4.076380253E0
1.164330430E0,-2.188654423E0,2.674001217E0,-4.078510761E0
1.166814128E0,-2.110892296E0,2.781589746E0,-4.078510761E0
1.169297878E0,-2.017151833E0,2.909417629E0,-4.082771778E0
1.171781680E0,-1.913824320E0,3.062811136E0,-4.083837032E0
1.174265430E0,-1.793452978E0,3.233248472E0,-4.082771778E0
1.176749180E0,-1.662429333E0,3.419664383E0,-4.088098049E0
1.179072566E0,-1.514361858E0,3.628449917E0,-4.085967541E0
1.181556264E0,-1.350316048E0,3.845757484E0,-4.083837032E0
1.184040066E0,-1.173487306E0,4.067459106E0,-4.082771778E0
1.186523816E0,-9.817453623E-1,4.287962437E0,-4.081706524E0
1.189007566E0,-7.814815640E-1,4.505270004E0,-4.081706524E0
1.191491316E0,-5.748263597E-1,4.735360146E0,-4.085967541E0
1.193975066E0,-3.628450036E-1,4.977168083E0,-4.087032795E0
1.196458816E0,-1.466026902E-1,5.207258701E0,-4.089163303E0
1.198942566E0,6.857437640E-2,5.417109489E0,-4.083837032E0
1.201426316E0,2.784252763E-1,5.605655670E0,-4.083837032E0
1.203910118E0,4.776238501E-1,5.772897243E0,-4.082771778E0
1.206393868E0,6.640396118E-1,5.912442684E0,-4.079576015E0
1.208877618E0,8.312812448E-1,6.031748772E0,-4.082771778E0
1.211201941E0,9.782834053E-1,6.121228218E0,-4.091293812E0
1.213685639E0,1.106244445E0,6.180881500E0,-4.105141640E0
1.216169441E0,1.213832974E0,6.218164444E0,-4.115794182E0
1.218653191E0,1.301182151E0,6.230947495E0,-4.128576756E0
1.221136941E0,1.375748396E0,6.222425461E0,-4.139229298E0
1.223620691E0,1.432205796E0,6.191533566E0,-4.154142380E0
1.226104441E0,1.480141282E0,6.141468048E0,-4.164794922E0
1.228588191E0,1.515293956E0,6.075423241E0,-4.162664413E0
1.231071941E0,1.537663817E0,6.002987385E0,-4.162664413E0
1.233555691E0,1.554707646E0,5.920964718E0,-4.158403397E0
1.236039493E0,1.563229442E0,5.831485271E0,-4.153077126E0
1.238523243E0,1.567490339E0,5.746266365E0,-4.144555569E0
1.241006993E0,1.572816610E0,5.665308475E0,-4.131772518E0
1.243221211E0,1.581338406E0,5.593937874E0,-4.112598419E0
1.245704909E0,1.590925574E0,5.530024052E0,-4.094489574E0
1.248188711E0,1.607969284E0,5.475697041E0,-4.073184967E0
1.250672461E0,1.638861060E0,5.432022572E0,-4.047619343E0
1.253156211E0,1.683600783E0,5.403261185E0,-4.019923210E0
1.255639961E0,1.740058184E0,5.388348103E0,-3.989031315E0
1.258123711E0,1.803972125E0,5.385152340E0,-3.959204912E0
1.260607461E0,1.879603624E0,5.396870136E0,-3.921921730E0
1.263091264E0,1.965887547E0,5.416044235E0,-3.877182007E0
1.265574961E0,2.060693264E0,5.436283588E0,-3.830311537E0
1.268058764E0,2.159759998E0,5.460783958E0,-3.779180527E0
1.270542514E0,2.266283274E0,5.485284328E0,-3.728049278E0
1.273026264E0,2.373871803E0,5.505523682E0,-3.673722506E0
1.275459753E0,2.483590841E0,5.518306732E0,-3.621526003E0
1.277943451E0,2.594375134E0,5.533219814E0,-3.566133738E0
1.280427253E0,2.706224442E0,5.531089306E0,-3.506480694E0
1.282911003E0,2.809552193E0,5.509784698E0,-3.446827650E0
1.285394753E0,2.908618689E0,5.469305992E0,-3.383979082E0
1.287878503E0,3.001294136E0,5.406456947E0,-3.321130276E0
1.290362253E0,3.080121279E0,5.318042755E0,-3.260411978E0
1.292846003E0,3.133383036E0,5.195540905E0,-3.205019951E0
1.295329753E0,3.171731234E0,5.050669193E0,-3.148562431E0
1.297813503E0,3.187709808E0,4.886623383E0,-3.092105150E0
1.300297305E0,3.177057505E0,4.701272964E0,-3.044169664E0
1.302781055E0,3.145100594E0,4.493552208E0,-2.999429941E0
1.305264805E0,3.095034599E0,4.262396812E0,-2.947233438E0
1.307596472E0,3.027924776E0,4.007806301E0,-2.901428461E0
1.310080170E0,2.943771362E0,3.730712414E0,-2.849231958E0
1.312563972E0,2.855357170E0,3.432447195E0,-2.801296473E0
1.315047722E0,2.753094673E0,3.122464418E0,-2.751230478E0
1.317531472E0,2.655093193E0,2.807155371E0,-2.703294992E0
1.320015222E0,2.566679001E0,2.496107340E0,-2.653229237E0
1.322498972E0,2.471873283E0,2.194646358E0,-2.592510939E0
1.324982774E0,2.368545532E0,1.891054869E0,-2.519009829E0
1.327466472E0,2.265218019E0,1.598115802E0,-2.443378210E0
1.329950222E0,2.158694744E0,1.315829039E0,-2.367746592E0
1.332434024E0,2.057497501E0,1.049520850E0,-2.289984703E0
1.334917774E0,1.965887547E0,8.013215661E-1,-2.215418339E0
1.337401524E0,1.883864641E0,5.712311864E-1,-2.138588428E0
1.339730222E0,1.812494040E0,3.592498302E-1,-2.068283081E0
1.342213920E0,1.748579979E0,1.557903290E-1,-1.994781971E0
1.344697722E0,1.694253087E0,-4.553871229E-2,-1.923411369E0
1.347181472E0,1.651643753E0,-2.404763550E-1,-1.850975513E0
1.349665222E0,1.627143502E0,-4.311530590E-1,-1.785996318E0
1.352148972E0,1.609034538E0,-6.207645535E-1,-1.725278020E0
1.354632722E0,1.602643132E0,-8.093107939E-1,-1.666690230E0
1.357116472E0,1.602643132E0,-9.882699251E-1,-1.609167695E0
1.359600222E0,1.606904030E0,-1.169359565E0,-1.556971192E0
1.362083972E0,1.618621588E0,-1.336734295E0,-1.512231469E0
1.364567774E0,1.638861060E0,-1.481606007E0,-1.463230729E0
1.367051524E0,1.668687582E0,-1.617955804E0,-1.416360497E0
1.369535274E0,1.697448850E0,-1.760697007E0,-1.365229249E0
1.371860326E0,1.732601523E0,-1.894916415E0,-1.315163374E0
1.374344024E0,1.770949960E0,-2.009961605E0,-1.264032125E0
1.376827826E0,1.807167768E0,-2.096245527E0,-1.205444336E0
1.379311576E0,1.843385696E0,-2.152702808E0,-1.147921681E0
1.381795326E0,1.892386436E0,-2.164420366E0,-1.078681588E0
1.384279128E0,1.944582939E0,-2.132463455E0,-1.004115224E0
1.386762826E0,1.999974966E0,-2.072810411E0,-9.220923185E-1
1.389246576E0,2.062823772E0,-1.991852641E0,-8.400694132E-1
1.391730326E0,2.127802849E0,-1.891720653E0,-7.559159994E-1
1.394214076E0,2.186390877E0,-1.772414565E0,-6.738930345E-1
1.396697878E0,2.226869583E0,-1.606238246E0,-5.812177658E-1
1.399181628E0,2.239652395E0,-1.394256830E0,-4.821510911E-1
1.401665378E0,2.220478296E0,-1.158707261E0,-3.841496706E-1
1.403966732E0,2.167216539E0,-8.966599107E-1,-2.904091477E-1
1.406450430E0,2.058562756E0,-6.111774445E-1,-1.924077123E-1
1.408934180E0,1.880668879E0,-2.958684862E-1,-9.653674066E-2
1.411417930E0,1.616491079E0,5.885412544E-2,8.921326138E-3
1.413901680E0,1.303312659E0,3.890763521E-1,9.946613014E-2
1.416385430E0,9.559134841E-1,6.713631153E-1,8.987903595E-2
1.418869180E0,6.342130899E-1,7.949301600E-1,5.792204663E-2
1.421352930E0,3.860138059E-1,7.278204560E-1,4.300878197E-2
1.423836732E0,2.145113051E-1,5.318176150E-1,3.448691964E-2
1.426320482E0,1.037270650E-1,2.260957062E-1,3.342168778E-2
1.428804232E0,4.407401755E-2,-1.350182891E-1,6.218297780E-2
1.431287982E0,1.637795754E-2,-5.163717270E-1,1.047922969E-1
1.433771732E0,2.529928461E-3,-8.828118443E-1,1.431406885E-1
1.436101003E0,2.529928461E-3,-1.232208252E0,1.889457107E-1
1.438584701E0,-2.090519853E-2,-1.525280595E0,2.209026963E-1
1.441068503E0,-7.310161740E-2,-1.759631753E0,2.198374718E-1
1.443552253E0,-1.348851323E-1,-1.930069089E0,2.155765295E-1
1.446036003E0,-1.987991184E-1,-2.045114279E0,2.187722325E-1
1.448519753E0,-2.403431982E-1,-2.104767323E0,2.187722325E-1
1.451003503E0,-2.541912198E-1,-2.144181013E0,2.390116602E-1
1.453487253E0,-2.286256403E-1,-2.154833317E0,2.741643488E-1
1.455971003E0,-1.657768935E-1,-2.122876167E0,3.125127256E-1
1.458454753E0,-5.392742157E-2,-2.073875427E0,3.561872840E-1
1.460938555E0,9.307473898E-2,-2.025939941E0,4.147751033E-1
1.463422305E0,2.571206093E-1,-1.985461235E0,4.339492917E-1
1.465906055E0,4.137098789E-1,-1.985461235E0,3.924052119E-1
1.468238764E0,5.319507122E-1,-2.063223124E0,3.476654291E-1
1.470722461E0,6.139736772E-1,-2.201703548E0,3.370130956E-1
1.473206264E0,6.842790842E-1,-2.347640514E0,3.721657991E-1
1.475690014E0,7.524539828E-1,-2.468011856E0,4.275579154E-1
1.478173764E0,8.238245845E-1,-2.539382458E0,4.850804806E-1
1.480657514E0,9.005213380E-1,-2.534056187E0,5.532553792E-1
1.483141264E0,9.761528969E-1,-2.506360054E0,6.320826411E-1
1.485625014E0,1.053914905E0,-2.456294298E0,6.991923451E-1
1.488108764E0,1.149919033E0,-2.376401663E0,7.513887286E-1
1.490592514E0,1.252181411E0,-2.302900553E0,8.078460693E-1
1.493076316E0,1.354443789E0,-2.196377277E0,8.557815552E-1
1.495560066E0,1.442858100E0,-2.044049025E0,9.026518464E-1
1.498043816E0,1.528076768E0,-1.852307081E0,9.708267450E-1
1.500355691E0,1.605838776E0,-1.615825295E0,1.028349280E0
1.502839441E0,1.666557074E0,-1.400648236E0,1.065632463E0
1.505323191E0,1.670817971E0,-1.302513719E0,1.077350020E0
1.507806941E0,1.675078988E0,-1.265230536E0,1.106111288E0
1.510290691E0,1.716623068E0,-1.240730166E0,1.162568688E0
1.512774441E0,1.776276112E0,-1.218360305E0,1.210504174E0
1.515258191E0,1.852972865E0,-1.134206891E0,1.243526459E0
1.517741941E0,1.953104734E0,-1.057510138E0,1.261635303E0
1.520225691E0,2.017018795E0,-9.616391063E-1,1.240330696E0
1.522709441E0,2.022344828E0,-8.828118443E-1,1.178547144E0
1.525193243E0,1.995714068E0,-8.135717511E-1,1.130611658E0
1.527676993E0,1.945648074E0,-7.667014599E-1,1.115698457E0
1.530160743E0,1.873212218E0,-7.720276117E-1,1.110372305E0
1.532486055E0,1.821015835E0,-8.178326488E-1,1.094393730E0
1.534969753E0,1.818885446E0,-8.732247949E-1,1.068828225E0
1.537453555E0,1.832733393E0,-9.168993235E-1,1.023023129E0
1.539937305E0,1.839124799E0,-9.211602807E-1,9.868052602E-1
1.542421055E0,1.848711967E0,-8.966599107E-1,9.548482299E-1
1.544904805E0,1.848711967E0,-8.071803451E-1,9.122389555E-1
1.547388555E0,1.857233763E0,-4.716319144E-1,9.686962962E-1
1.549872305E0,1.768819451E0,-1.733666807E-1,9.410002232E-1
1.552356055E0,1.604773521E0,-6.151720881E-2,6.970618367E-1
1.554839805E0,1.553642392E0,-7.962616533E-2,5.681686401E-1
1.557323607E0,1.561099052E0,-1.904104054E-1,4.382102489E-1
1.559807357E0,1.531272531E0,-4.151745737E-1,2.986647189E-1
1.562291107E0,1.563229442E0,-6.548519731E-1,3.391435742E-1
1.564488399E0,1.616491079E0,-8.188979030E-1,3.913399875E-1
1.566969545E0,1.631404400E0,-8.977251053E-1,3.966661394E-1
1.569450743E0,1.601577878E0,-8.178326488E-1,3.902747631E-1
1.571931889E0,1.537663817E0,-6.644390821E-1,3.870790601E-1
1.574413034E0,1.508902550E0,-5.525896549E-1,3.764267266E-1
1.576894180E0,1.457771420E0,-3.171731234E-1,2.954690158E-1
1.579375326E0,1.353378534E0,3.754946589E-2,1.633801162E-1
1.581856472E0,1.337400079E0,1.994648874E-1,1.399449855E-1
1.584337618E0,1.407705426E0,9.507204592E-2,1.388797611E-1
1.586818764E0,1.440727711E0,-6.577813625E-2,1.644453406E-1
1.589299961E0,1.394922614E0,-9.986559302E-2,2.059894353E-1
1.591781107E0,1.304377794E0,-8.388710022E-2,2.166417688E-1
1.594290066E0,1.222354889E0,-1.467358470E-1,2.081198990E-1
1.596771159E0,1.199985027E0,-2.660419345E-1,2.113156021E-1
1.599252305E0,1.208506823E0,-3.416734934E-1,2.187722325E-1
1.601733451E0,1.223420143E0,-4.034570158E-1,2.379464209E-1
1.604214597E0,1.223420143E0,-4.748276174E-1,2.603163123E-1
1.606695743E0,1.191463113E0,-4.194355011E-1,2.773600519E-1
1.609176889E0,1.141397238E0,-3.565867543E-1,2.773600519E-1
1.611658086E0,1.171223760E0,-4.822842479E-1,3.093170524E-1
1.614139232E0,1.375748396E0,-8.391373158E-1,3.881442845E-1
1.616620378E0,1.611164927E0,-1.116097927E0,4.424711764E-1
1.619101524E0,1.686796546E0,-1.106510758E0,4.477973282E-1
1.621582670E0,1.556838036E0,-8.082455397E-1,4.328840673E-1
1.624063816E0,1.278812289E0,-4.077179432E-1,4.073184729E-1
1.626417722E0,9.367392659E-1,-5.406057462E-2,3.870790601E-1
1.628898816E0,6.182346344E-1,2.410089672E-1,3.615134656E-1
1.631379961E0,2.358159572E-1,7.161028981E-1,1.910761744E-1
1.633861107E0,-3.861469682E-3,8.236914277E-1,8.242240548E-2
1.636342253E0,4.051880240E-1,-1.669752747E-1,1.505973190E-1
1.638823399E0,1.727275372E0,-2.399836779E0,2.709686458E-1
1.641304545E0,2.528330564E0,-2.907953024E0,2.880123854E-1
1.643785743E0,2.450568676E0,-2.323140144E0,2.858819067E-1
1.646266889E0,2.334458113E0,-2.094115019E0,3.497959077E-1
1.648748034E0,2.659354210E0,-2.444576740E0,4.403406978E-1
1.651229180E0,3.234580040E0,-2.979323626E0,4.499278069E-1
1.653710326E0,3.417800188E0,-2.676797390E0,4.009270668E-1
1.656191472E0,2.976793766E0,-1.557237506E0,4.967980385E-1
1.658544284E0,2.291848898E0,-4.684362113E-1,7.077142000E-1
1.661025378E0,1.679339886E0,1.952039450E-1,8.834776282E-1
1.663506524E0,1.253246665E0,3.411408663E-1,9.665657878E-1
1.665987670E0,1.035805941E0,5.885412544E-2,9.559134841E-1
1.668468816E0,9.452611804E-1,-3.491301239E-1,8.493902087E-1
1.670949961E0,8.856080770E-1,-7.294183373E-1,6.917356849E-1
1.673431107E0,8.259550333E-1,-1.066031933E0,5.415378213E-1
1.675912305E0,7.364754677E-1,-1.342060447E0,4.169055820E-1
1.678393451E0,6.086475253E-1,-1.580672622E0,3.242303133E-1
1.680874597E0,4.435364008E-1,-1.725544333E0,2.475335300E-1
1.683355743E0,2.528596818E-1,-1.724479079E0,1.719019860E-1
1.685836889E0,6.963960826E-2,-1.626477718E0,9.413997084E-2
1.688318034E0,-9.227581322E-2,-1.421952963E0,2.596505545E-2
1.690676211E0,-1.838858575E-1,-1.205577493E0,-2.836182900E-2
1.693157305E0,-1.806901544E-1,-1.028748751E0,-6.671021879E-2
1.695638451E0,-1.146457046E-1,-8.508548737E-1,-9.866721183E-2
1.698119597E0,-3.688369319E-2,-6.463301182E-1,-1.348851323E-1
1.700600743E0,1.850842312E-2,-3.938699067E-1,-1.668421179E-1
1.703081889E0,6.324820966E-2,-1.829537749E-1,-1.924077123E-1
1.705563034E0,1.154446304E-1,-5.832150951E-2,-2.169080675E-1
1.708044232E0,1.846847683E-1,-1.784265228E-2,-2.499302924E-1
1.710525378E0,2.571206093E-1,-3.382114694E-2,-2.893439233E-1
1.713006524E0,2.975994647E-1,-4.447348043E-2,-3.372794092E-1
1.715487670E0,3.029256463E-1,-5.619104207E-2,-3.788234890E-1
1.717968816E0,2.837514579E-1,-6.471290439E-2,-4.182371199E-1
1.720449961E0,2.145113051E-1,-2.423405088E-2,-4.565854967E-1
1.722801732E0,9.307473898E-2,5.033225939E-2,-4.906729758E-1
1.725282826E0,-4.540555924E-2,1.078548431E-1,-5.215647221E-1
1.727763972E0,-1.668421179E-1,1.174419373E-1,-5.396736860E-1
1.730245118E0,-2.509955168E-1,9.294158220E-2,-5.524564981E-1
1.732726264E0,-3.095833361E-1,6.098458916E-2,-5.663045049E-1
1.735207409E0,-3.468665183E-1,3.222329915E-2,-5.844134688E-1
1.737688555E0,-3.543231487E-1,-8.255556226E-3,-6.078485847E-1
1.740169753E0,-3.383446336E-1,-4.553871229E-2,-6.355446577E-1
1.742650899E0,-3.159747422E-1,-5.086487532E-2,-6.600450277E-1
1.745132045E0,-2.999962568E-1,-2.529928461E-2,-6.792191863E-1
1.747613191E0,-2.882786989E-1,1.517957076E-2,-6.951977015E-1
1.750094336E0,-2.754958868E-1,7.163692266E-2,-7.111762166E-1
1.752575482E0,-2.659088075E-1,1.302247345E-1,-7.207632661E-1
1.754930482E0,-2.563216984E-1,1.909430176E-1,-7.356765866E-1
1.757411576E0,-2.488650680E-1,2.516613007E-1,-7.505898476E-1
1.759892722E0,-2.414084375E-1,3.017272651E-1,-7.633726001E-1
1.762373868E0,-2.477998286E-1,3.528584540E-1,-7.846772671E-1
1.764855014E0,-2.520607710E-1,3.901416063E-1,-8.113080859E-1
1.767336159E0,-2.701697350E-1,3.944025338E-1,-8.294170499E-1
1.769817305E0,-2.914743721E-1,3.965329826E-1,-8.421998620E-1
1.772298503E0,-3.106485903E-1,4.274247587E-1,-8.762873411E-1
1.774779649E0,-3.234313726E-1,4.732297659E-1,-9.188966155E-1
1.777260795E0,-3.372794092E-1,5.339480639E-1,-9.647016525E-1
1.779741941E0,-3.543231487E-1,6.042534113E-1,-1.019028544E0
1.782223086E0,-3.873453438E-1,6.649717093E-1,-1.058442116E0
1.784704232E0,-4.757596850E-1,7.299509048E-1,-1.038202763E0
1.787024649E0,-5.407389402E-1,8.045172691E-1,-1.014767647E0
1.789505743E0,-5.524564981E-1,9.270190597E-1,-1.032876611E0
1.791986941E0,-5.481955409E-1,1.034607530E0,-1.075485945E0
1.794468086E0,-5.290213227E-1,1.068695068E0,-1.151117444E0
1.796949232E0,-5.045210123E-1,1.101717234E0,-1.262966871E0
1.799430378E0,-5.077167153E-1,1.156044126E0,-1.359903097E0
1.801911524E0,-4.906729758E-1,1.237001896E0,-1.452578425E0
1.804392670E0,-4.725640118E-1,1.354177475E0,-1.507970452E0
1.806873816E0,-4.736292362E-1,1.426613331E0,-1.499448657E0
1.809354961E0,-4.853467941E-1,1.456439853E0,-1.465361238E0
1.811836159E0,-4.938686490E-1,1.469222665E0,-1.432338953E0
1.814317305E0,-4.938686490E-1,1.489462018E0,-1.416360497E0
1.816798451E0,-4.938686490E-1,1.520353794E0,-1.425947547E0
1.819186264E0,-5.087819099E-1,1.562963128E0,-1.452578425E0
1.821667357E0,-5.290213227E-1,1.616224766E0,-1.479209185E0
1.824148503E0,-5.407389402E-1,1.668421268E0,-1.505840063E0
1.826629649E0,-5.492607951E-1,1.702508688E0,-1.530340433E0
1.829110795E0,-5.695002079E-1,1.729139447E0,-1.570819259E0
1.831591941E0,-5.961310267E-1,1.760031223E0,-1.620885253E0
1.834073086E0,-6.121095419E-1,1.791988254E0,-1.664559722E0
1.836554284E0,-6.174356937E-1,1.823945284E0,-1.698647261E0
1.839035430E0,-6.248922944E-1,1.845249891E0,-1.727408528E0
1.841516576E0,-6.195661426E-1,1.866554618E0,-1.738060832E0
1.843997722E0,-6.089138389E-1,1.874011159E0,-1.743386984E0
1.846478868E0,-6.153052449E-1,1.895315886E0,-1.778539658E0
1.848960014E0,-6.451317668E-1,1.964555979E0,-1.841388464E0
1.851313764E0,-6.834801435E-1,2.050839901E0,-1.912759066E0
1.853794857E0,-7.228937745E-1,2.130732298E0,-1.986260176E0
1.856276003E0,-7.569811940E-1,2.197842121E0,-2.053369761E0
1.858757149E0,-7.729597092E-1,2.231929541E0,-2.097044468E0
1.861238295E0,-7.836120725E-1,2.256429911E0,-2.117283821E0
1.863719493E0,-7.985253334E-1,2.287321568E0,-2.132330179E0
1.866200586E0,-8.123733401E-1,2.338452816E0,-2.152436495E0
1.868681784E0,-8.368737102E-1,2.381062031E0,-2.181330919E0
1.871162930E0,-8.720263839E-1,2.417279959E0,-2.221809864E0
1.873644076E0,-9.146357179E-1,2.468411207E0,-2.271875620E0
1.876125222E0,-9.583102465E-1,2.513150930E0,-2.331528664E0
1.878606368E0,-9.892020226E-1,2.547238350E0,-2.390116692E0
1.881087514E0,-1.006245732E0,2.565347433E0,-2.431660652E0
1.883296628E0,-1.014767647E0,2.580260754E0,-2.448704481E0
1.885777722E0,-1.025419950E0,2.589847803E0,-2.444443464E0
1.888258920E0,-1.041398406E0,2.603695869E0,-2.440182447E0
1.890740066E0,-1.059507370E0,2.623935223E0,-2.447639227E0
1.893221211E0,-1.072290182E0,2.648435593E0,-2.464682817E0
1.895702357E0,-1.079746842E0,2.672935963E0,-2.489183187E0
1.898183503E0,-1.085072994E0,2.694240570E0,-2.522205591E0
1.900664649E0,-1.081877232E0,2.696371078E0,-2.549901485E0
1.903145795E0,-1.066964030E0,2.694240570E0,-2.580793381E0
1.905626941E0,-1.046724558E0,2.654827118E0,-2.610619783E0
1.908108139E0,-1.030746102E0,2.551499367E0,-2.630859375E0
1.910589284E0,-1.058442116E0,2.413019180E0,-2.650033474E0
1.913070430E0,-1.105312467E0,2.350170374E0,-2.673468590E0
1.915571003E0,-1.142595530E0,2.401301622E0,-2.703294992E0
1.918052097E0,-1.151117444E0,2.491846323E0,-2.734186888E0
1.920533243E0,-1.133008480E0,2.556825638E0,-2.759752512E0
1.923014389E0,-1.099986196E0,2.596239090E0,-2.770404816E0
1.925495534E0,-1.063768387E0,2.619674206E0,-2.771470070E0
1.927976680E0,-1.020093799E0,2.635652781E0,-2.781057119E0
1.930457826E0,-9.806801677E-1,2.653761864E0,-2.795970440E0
1.932939024E0,-9.497883916E-1,2.649500847E0,-2.817275047E0
1.935420170E0,-9.220923185E-1,2.620739460E0,-2.828992605E0
1.937901316E0,-8.986572027E-1,2.574934483E0,-2.836449146E0
1.940382461E0,-8.784177899E-1,2.535520792E0,-2.858819246E0
1.942863607E0,-8.635045290E-1,2.498237848E0,-2.885449886E0
1.945344753E0,-8.496564627E-1,2.466280699E0,-2.901428461E0
1.947699232E0,-8.336780071E-1,2.444976091E0,-2.914211273E0
1.950180326E0,-8.113080859E-1,2.435389042E0,-2.925928831E0
1.952661472E0,-7.900034189E-1,2.421540976E0,-2.931254864E0
1.955142618E0,-7.527202964E-1,2.425801992E0,-2.937646389E0
1.957623764E0,-7.090457082E-1,2.422606230E0,-2.938711643E0
1.960104909E0,-6.696321368E-1,2.407692909E0,-2.924863577E0
1.962586055E0,-6.344794035E-1,2.401301622E0,-2.904624224E0
1.965067253E0,-6.025224328E-1,2.392779589E0,-2.881189108E0
1.967548399E0,-5.716306567E-1,2.384257793E0,-2.865210533E0
1.970029545E0,-5.407389402E-1,2.378931761E0,-2.852427721E0
1.972510691E0,-5.098471642E-1,2.385323048E0,-2.840710163E0
1.974991836E0,-4.789553881E-1,2.387453556E0,-2.823666334E0
1.977472982E0,-4.512593448E-1,2.377866507E0,-2.793839931E0
1.979830847E0,-4.320851564E-1,2.356561661E0,-2.762948275E0
1.982311941E0,-4.193023443E-1,2.319278717E0,-2.723534584E0
1.984793086E0,-4.075847864E-1,2.281995535E0,-2.677729607E0
1.987274232E0,-3.979976773E-1,2.209559679E0,-2.619141579E0
1.989755378E0,-3.884105980E-1,2.123275757E0,-2.559488535E0
1.992236524E0,-3.713668585E-1,2.042318106E0,-2.505161762E0
1.994717670E0,-3.617797792E-1,1.952838421E0,-2.442312956E0
1.997198868E0,-3.511274457E-1,1.863358855E0,-2.376268625E0
1.999680014E0,-3.298227787E-1,1.770683646E0,-2.311289310E0
2.002161159E0,-3.149095178E-1,1.654573202E0,-2.238853455E0
2.004642305E0,-3.085181117E-1,1.507570982E0,-2.155765295E0
2.007123451E0,-3.127790391E-1,1.362699389E0,-2.074674368E0
2.009604597E0,-3.191704452E-1,1.234871387E0,-1.995847225E0
2.011959597E0,-3.244965971E-1,1.098521590E0,-1.928737521E0
2.014440691E0,-3.127790391E-1,9.483237267E-1,-1.866953969E0
2.016921836E0,-2.978657782E-1,8.045172691E-1,-1.810496688E0
2.019402982E0,-2.904091477E-1,6.777545214E-1,-1.766822100E0
2.021884128E0,-2.818872929E-1,5.573831797E-1,-1.714625716E0
2.024365274E0,-2.829525173E-1,4.316856861E-1,-1.660298824E0
2.026846420E0,-2.904091477E-1,3.145100474E-1,-1.604906678E0
2.029327618E0,-3.031919599E-1,2.303566486E-1,-1.556971192E0
2.031808764E0,-3.127790391E-1,1.611164957E-1,-1.509035707E0
2.034289909E0,-3.127790391E-1,9.613727778E-2,-1.439795613E0
2.036771107E0,-3.202356696E-1,2.689713426E-2,-1.331141829E0
2.039252201E0,-3.287575543E-1,-2.742975019E-2,-1.225683689E0
2.041733347E0,-3.362141848E-1,-4.979964346E-2,-1.140465140E0
2.044071420E0,-3.479317427E-1,-6.151720881E-2,-1.066964030E0
2.046552461E0,-3.489969671E-1,-8.601756394E-2,-1.016898036E0
2.049033659E0,-3.458012640E-1,-1.286268830E-1,-9.902672768E-1
2.051514805E0,-3.404751122E-1,-1.786928326E-1,-9.678973556E-1
2.053995951E0,-3.394098580E-1,-2.149107605E-1,-9.540493488E-1
2.056477097E0,-3.458012640E-1,-2.170412242E-1,-9.615059495E-1
2.058958243E0,-3.532578945E-1,-2.138455361E-1,-9.668321013E-1
2.061439389E0,-3.575188220E-1,-2.106498331E-1,-9.604407549E-1
2.063920534E0,-3.585840762E-1,-2.095845938E-1,-9.476579428E-1
2.066401680E0,-3.692364097E-1,-1.701709777E-1,-9.433969855E-1
2.068882878E0,-3.916063011E-1,-1.211702600E-1,-9.306141734E-1
2.071364024E0,-4.075847864E-1,-7.430000603E-2,-9.231575727E-1
2.073845170E0,-4.235632718E-1,-2.316881903E-2,-9.178314209E-1
2.076217618E0,-4.459331632E-1,5.139749497E-2,-9.135704637E-1
2.078696889E0,-4.651073813E-1,1.291595101E-1,-9.125052094E-1
2.081176264E0,-4.810858667E-1,1.813559234E-1,-9.125052094E-1
2.083655586E0,-5.045210123E-1,2.133129090E-1,-9.125052094E-1
2.086134961E0,-5.322170258E-1,2.388785034E-1,-9.007876515E-1
2.088614284E0,-5.971962810E-1,2.697702646E-1,-8.528521657E-1
2.091093659E0,-6.685668826E-1,2.868140042E-1,-8.240908980E-1
2.093572982E0,-7.314156294E-1,3.091838956E-1,-8.326127529E-1
2.096052357E0,-8.038514853E-1,3.155752718E-1,-8.571131229E-1
2.098531680E0,-8.752220869E-1,2.910749316E-1,-9.018529058E-1
2.101011055E0,-9.327446818E-1,2.452699095E-1,-9.742887616E-1
2.103490378E0,-9.678973556E-1,2.015953511E-1,-1.050985575E0
2.105969753E0,-9.785496593E-1,1.664426625E-1,-1.103181958E0
2.108343191E0,-9.657669067E-1,1.355509013E-1,-1.113834262E0
2.110822461E0,-9.508536458E-1,1.099853069E-1,-1.093594909E0
2.113301836E0,-9.583102465E-1,1.003982127E-1,-1.058442116E0
2.115781159E0,-9.657669067E-1,6.418029219E-2,-1.020093799E0
2.118260534E0,-9.647016525E-1,1.331541222E-3,-9.966586232E-1
2.120739857E0,-9.647016525E-1,-1.358172111E-2,-9.828106165E-1
2.123219232E0,-9.625712037E-1,-2.849498391E-2,-9.838758707E-1
2.125698555E0,-9.732235074E-1,1.331541222E-3,-1.000919580E0
2.128177930E0,-9.923977256E-1,1.944050193E-2,-9.998543262E-1
2.130657253E0,-1.024354696E0,-1.784265228E-2,-9.710930586E-1
2.133136628E0,-1.063768387E0,-9.027849883E-2,-9.476579428E-1
2.135615951E0,-1.109573364E0,-1.904104054E-1,-9.359403849E-1
2.138095326E0,-1.171356916E0,-2.564548552E-1,-9.402012825E-1
2.140469805E0,-1.217161894E0,-2.905423045E-1,-9.508536458E-1
2.142949076E0,-1.226748943E0,-3.970656097E-1,-9.593755007E-1
2.145428451E0,-1.272554040E0,-4.247616827E-1,-9.721583128E-1
2.147907774E0,-1.362033606E0,-3.960003853E-1,-9.806801677E-1
2.150387149E0,-1.421686649E0,-4.119788706E-1,-9.892020226E-1
2.152866472E0,-1.428078055E0,-5.153064728E-1,-9.881367683E-1
2.155345847E0,-1.468556881E0,-5.643072128E-1,-9.913324714E-1
2.157825170E0,-1.536731839E0,-5.770899653E-1,-1.007310987E0
2.160304545E0,-1.556971192E0,-6.165035963E-1,-9.700278044E-1
2.162783920E0,-1.553775549E0,-6.527215242E-1,-8.794830441E-1
2.165263243E0,-1.598515272E0,-5.025236607E-1,-7.772206664E-1
2.167742566E0,-1.643255115E0,-3.672390878E-1,-6.749582887E-1
2.170221941E0,-1.616624236E0,-3.651086092E-1,-5.844134688E-1
2.172603711E0,-1.536731839E0,-4.151745737E-1,-5.247604251E-1
2.175082982E0,-1.521818519E0,-3.214340508E-1,-4.800206423E-1
2.177562357E0,-1.559101701E0,-1.584534049E-1,-4.448679388E-1
2.180041680E0,-1.548449397E0,-9.666989744E-2,-4.118457139E-1
2.182521055E0,-1.464295983E0,-1.350182891E-1,-3.905410469E-1
2.185000378E0,-1.274684429E0,-1.307573467E-1,-3.884105980E-1
2.187479753E0,-7.378070354E-1,7.802832127E-2,-3.681711555E-1
2.189959076E0,-3.042571843E-1,2.037258148E-1,-2.531259954E-1
2.192438451E0,-5.002600551E-1,4.114462435E-1,-1.742987484E-1
2.194917774E0,-7.963948250E-1,7.278204560E-1,-1.615159512E-1
2.197397149E0,-9.252880216E-1,8.726921678E-1,-1.114500016E-1
2.199876472E0,-8.997224569E-1,1.107043386E0,-5.712312087E-2
2.202355847E0,-8.880048990E-1,1.621550918E0,1.744319126E-2
2.204583086E0,-9.689626098E-1,2.067883492E0,8.774857223E-2
2.207062409E0,-1.065898776E0,2.134993315E0,1.484668553E-1
2.209541784E0,-1.164965510E0,2.022078514E0,2.549901605E-1
2.212021107E0,-1.234205604E0,1.993317246E0,3.742962480E-1
2.214500482E0,-1.284271598E0,1.985860705E0,4.701672196E-1
2.216979805E0,-1.323685169E0,1.924077153E0,4.946675897E-1
2.219459180E0,-1.368425012E0,1.818619132E0,4.371449947E-1
2.221938503E0,-1.397186279E0,1.630072832E0,3.242303133E-1
2.224417878E0,-1.400381923E0,1.345655560E0,1.814890802E-1
2.226897201E0,-1.379077315E0,1.004781008E0,2.916075476E-2
2.229376576E0,-1.338598490E0,6.319494843E-1,-1.157109365E-1
2.231855899E0,-1.282141089E0,2.505960763E-1,-2.456693649E-1
2.234386055E0,-1.215031385E0,-4.553871229E-2,-3.468665183E-1
2.236865326E0,-1.146856546E0,-1.946713328E-1,-4.331503808E-1
2.239344701E0,-1.079746842E0,-2.532591522E-1,-4.928034246E-1
2.241824024E0,-1.014767647E0,-3.033251166E-1,-5.236951709E-1
2.244303347E0,-9.497883916E-1,-3.406082690E-1,-5.300865769E-1
2.246782722E0,-8.826786876E-1,-3.480648994E-1,-5.236951709E-1
2.249262097E0,-8.166342378E-1,-3.182383776E-1,-5.151733160E-1
2.251741420E0,-7.495245934E-1,-2.511286736E-1,-5.109124184E-1
2.254220795E0,-6.866758466E-1,-1.637795717E-1,-5.119776130E-1
2.256700118E0,-6.270228028E-1,-9.027849883E-2,-5.130428672E-1
2.259179493E0,-5.790873170E-1,-4.553871229E-2,-5.109124184E-1
2.261658816E0,-5.460650921E-1,-4.447348043E-2,-5.087819099E-1
2.264138191E0,-5.332822800E-1,-6.364767253E-2,-5.055862069E-1
2.266482409E0,-5.204994678E-1,-6.258244067E-2,-5.013253093E-1
2.268961732E0,-5.162385702E-1,-8.708280325E-2,-5.098471642E-1
2.271441055E0,-5.268908739E-1,-1.765623689E-1,-5.204994678E-1
2.273920430E0,-5.588479042E-1,-3.331516385E-1,-5.396736860E-1
2.276399753E0,-5.876091719E-1,-4.524577260E-1,-5.812177658E-1
2.278879128E0,-5.961310267E-1,-5.280892849E-1,-6.451317668E-1
2.281358451E0,-5.886744261E-1,-5.653724074E-1,-7.101109624E-1
2.283837826E0,-5.918700695E-1,-6.037208438E-1,-7.686987519E-1
2.286317149E0,-5.961310267E-1,-6.324821115E-1,-8.251561522E-1
2.288796524E0,-5.950657725E-1,-6.090469956E-1,-8.848091960E-1
2.291275847E0,-5.897396207E-1,-5.621767044E-1,-9.455274343E-1
2.293755222E0,-5.673697591E-1,-4.705666900E-1,-1.004115224E0
2.296234545E0,-5.364779830E-1,-3.416734934E-1,-1.052050710E0
2.298642774E0,-5.077167153E-1,-2.117150575E-1,-1.078681588E0
2.301122045E0,-4.821510911E-1,-7.643046975E-2,-1.093594909E0
2.303601420E0,-4.683030546E-1,5.246272683E-2,-1.110638618E0
2.306080743E0,-4.619116783E-1,1.856168509E-1,-1.140465140E0
2.308560118E0,-4.672378302E-1,3.006620109E-1,-1.180943966E0
2.311039441E0,-4.970643520E-1,3.720326424E-1,-1.216096640E0
2.313518816E0,-5.375432372E-1,4.146419466E-1,-1.244857907E0
2.315998139E0,-5.737611651E-1,4.434032440E-1,-1.262966871E0
2.318477514E0,-6.110442877E-1,4.061200917E-1,-1.258705974E0
2.320956836E0,-6.568493247E-1,2.516613007E-1,-1.215031385E0
2.323436211E0,-6.994586587E-1,8.974587917E-2,-1.143660784E0
2.325915534E0,-7.367417812E-1,-7.749570161E-2,-1.042463660E0
2.328394909E0,-7.633726001E-1,-2.298240215E-1,-9.231575727E-1
2.330766107E0,-7.782858610E-1,-3.374125659E-1,-7.931991220E-1
2.333245378E0,-7.761554122E-1,-3.906742036E-1,-6.749582887E-1
2.335724753E0,-7.580464482E-1,-3.960003853E-1,-5.812177658E-1
2.338204076E0,-7.228937745E-1,-3.640433848E-1,-5.023905039E-1
2.340683451E0,-6.792191863E-1,-2.958684862E-1,-4.374113083E-1
2.343162774E0,-6.270228028E-1,-2.106498331E-1,-3.948020041E-1
2.345642149E0,-5.695002079E-1,-1.179745570E-1,-3.724320829E-1
2.348121472E0,-5.141080618E-1,-2.316881903E-2,-3.713668585E-1
2.350600847E0,-4.629769027E-1,5.565842614E-2,-3.788234890E-1
2.353080170E0,-4.171718955E-1,1.089200750E-1,-3.958672285E-1
2.355559545E0,-3.703016341E-1,1.462032348E-1,-4.193023443E-1
2.358038868E0,-3.255618513E-1,1.738992929E-1,-4.512593448E-1
2.360518243E0,-2.776263654E-1,1.994648874E-1,-4.896077216E-1
2.362741889E0,-2.350170314E-1,2.143781483E-1,-5.386084318E-1
2.365221211E0,-2.009295821E-1,2.378132790E-1,-5.950657725E-1
2.367700586E0,-1.700378209E-1,2.687050402E-1,-6.589797735E-1
2.370179909E0,-1.444722265E-1,2.889444530E-1,-7.228937745E-1
2.372659284E0,-1.157109365E-1,3.006620109E-1,-7.772206664E-1
2.375138607E0,-9.121058136E-2,2.921401560E-1,-8.315475583E-1
2.377617982E0,-7.097115368E-2,2.708354890E-1,-8.720263839E-1
2.380097305E0,-5.179695413E-2,2.612484097E-1,-9.029181600E-1
2.382576680E0,-4.220985994E-2,2.633788586E-1,-9.263532758E-1
2.385056003E0,-4.114462435E-2,2.900096774E-1,-9.433969855E-1
2.387535378E0,-4.860125855E-2,3.464670479E-1,-9.561797976E-1
2.390014701E0,-5.286218971E-2,4.082505703E-1,-9.561797976E-1
2.392557097E0,-6.244928762E-2,4.732297659E-1,-9.455274343E-1
2.395036368E0,-7.523208112E-2,5.595136285E-1,-9.348751307E-1
2.397515743E0,-9.760197252E-2,6.692326665E-1,-9.306141734E-1
2.399995066E0,-1.252980381E-1,7.906692028E-1,-9.306141734E-1
2.402474441E0,-1.466026902E-1,9.099752903E-1,-9.252880216E-1
2.404953764E0,-1.636464298E-1,1.019694328E0,-9.114400148E-1
2.407433139E0,-1.721682847E-1,1.103847742E0,-8.912006021E-1
2.409912461E0,-1.764292270E-1,1.162435532E0,-8.709611297E-1
2.412391836E0,-1.753639877E-1,1.205044866E0,-8.453955650E-1
2.414871159E0,-1.721682847E-1,1.240197539E0,-8.251561522E-1
2.417350534E0,-1.636464298E-1,1.257241249E0,-7.974600792E-1
2.419829857E0,-1.529940963E-1,1.259371758E0,-7.655031085E-1
2.422309232E0,-1.402112991E-1,1.247654200E0,-7.303503752E-1
2.424535170E0,-1.263632625E-1,1.224219084E0,-6.930672526E-1
2.427014493E0,-1.071890742E-1,1.197588205E0,-6.536536217E-1
2.429493868E0,-8.908011019E-2,1.159239888E0,-6.163704395E-1
2.431973191E0,-6.990591437E-2,1.104912996E0,-5.790873170E-1
2.434452566E0,-4.753602296E-2,1.033542395E0,-5.332822800E-1
2.436931889E0,-2.942706272E-2,9.525846243E-1,-4.874772727E-1
2.439411264E0,-1.238333434E-2,8.652355075E-1,-4.384765327E-1
2.441890586E0,-6.657706108E-4,7.821473479E-1,-3.820191920E-1
2.444369961E0,7.856093347E-3,6.937330365E-1,-3.244965971E-1
2.446849284E0,1.424749196E-2,6.053186655E-1,-2.584521770E-1
2.449328659E0,1.850842312E-2,5.200999975E-1,-1.913424879E-1
2.451807982E0,1.637795754E-2,4.402075410E-1,-1.263632625E-1
2.454340899E0,1.424749196E-2,3.805544972E-1,-5.818835273E-2
2.456820170E0,3.595161485E-3,3.230319023E-1,3.595161485E-3
2.459299545E0,-1.731003635E-3,2.697702646E-1,6.218297780E-2
2.461778868E0,-7.057168987E-3,2.133129090E-1,1.186403260E-1
2.464258243E0,-1.344856713E-2,1.632469594E-1,1.708367467E-1
2.466737566E0,-2.197043039E-2,1.238333359E-1,2.155765295E-1
2.469216941E0,-2.623136342E-2,8.655018359E-2,2.507292330E-1
2.471696264E0,-3.049229458E-2,5.033225939E-2,2.816209793E-1
2.474175639E0,-3.901416063E-2,2.157096937E-2,3.114475012E-1
2.476654961E0,-4.434032366E-2,9.853405878E-3,3.444697261E-1
2.479134336E0,-5.392742157E-2,1.411433797E-2,3.700353205E-1
2.481613659E0,-7.203638554E-2,2.476666868E-2,3.870790601E-1
2.484093034E0,-9.014534205E-2,5.672365800E-2,3.987966180E-1
2.486466159E0,-1.231675670E-1,1.035939083E-1,3.828181326E-1
2.488945430E0,-1.668421179E-1,1.600512564E-1,3.412740231E-1
2.491424805E0,-2.094514370E-1,2.154433727E-1,2.741643488E-1
2.493904128E0,-2.477998286E-1,2.591179311E-1,1.868152469E-1
2.496383503E0,-2.776263654E-1,2.932053804E-1,9.200949967E-2
2.498862826E0,-3.031919599E-1,3.155752718E-1,-7.057168987E-3
2.501342201E0,-3.223661482E-1,3.283580840E-1,-1.018629074E-1
2.503821524E0,-3.351489305E-1,3.347494900E-1,-1.934729517E-1
2.506300899E0,-3.447360396E-1,3.368799388E-1,-2.733654380E-1
2.508780222E0,-3.511274457E-1,3.209014535E-1,-3.351489305E-1
2.511259597E0,-3.319532275E-1,2.761616707E-1,-3.703016341E-1
2.513738920E0,-2.978657782E-1,2.111824453E-1,-3.788234890E-1
2.516218295E0,-2.584521770E-1,1.376813650E-1,-3.713668585E-1
2.518596889E0,-2.211690098E-1,7.376738638E-2,-3.479317427E-1
2.521076159E0,-1.934729517E-1,2.689713426E-2,-3.191704452E-1
2.523555534E0,-1.668421179E-1,-2.742975019E-2,-2.925396264E-1
2.526034857E0,-9.334104508E-2,-1.573881805E-1,-2.882786989E-1
2.528514232E0,-1.025286783E-2,-2.862813771E-1,-2.925396264E-1
2.530993555E0,4.194355011E-2,-3.896089792E-1,-2.999962568E-1
2.533472930E0,7.816147059E-2,-4.865451753E-1,-3.095833361E-1
2.535952253E0,1.101184636E-1,-5.824161768E-1,-3.202356696E-1
2.538431628E0,1.484668553E-1,-6.718957424E-1,-3.330184817E-1
2.540910951E0,1.708367467E-1,-7.443315983E-1,-3.489969671E-1
2.543390326E0,1.868152469E-1,-7.965279818E-1,-3.617797792E-1
2.545869649E0,1.910761744E-1,-8.306154609E-1,-3.713668585E-1
2.548349024E0,1.814890802E-1,-8.316806555E-1,-3.830844164E-1
2.550728034E0,1.623148769E-1,-8.146369457E-1,-3.969324529E-1
2.553207305E0,1.410102248E-1,-8.007889390E-1,-4.129109383E-1
2.555686680E0,1.133141592E-1,-7.667014599E-1,-4.278241992E-1
2.558166003E0,8.135717362E-2,-7.166355252E-1,-4.406070113E-1
2.560645378E0,7.070484012E-2,-6.836133003E-1,-4.448679388E-1
2.563124753E0,7.283531129E-2,-6.633738875E-1,-4.480636418E-1
2.565604076E0,4.513924941E-2,-6.665695906E-1,-4.363460839E-1
2.568083399E0,1.424749196E-2,-6.591129303E-1,-4.107804894E-1
2.570562774E0,-9.187635034E-3,-6.346125603E-1,-3.820191920E-1
2.573042097E0,-4.540555924E-2,-6.218297482E-1,-3.521926701E-1
2.575521472E0,-8.481918275E-2,-6.026555896E-1,-3.191704452E-1
2.578000795E0,-1.231675670E-1,-5.856118798E-1,-2.840177417E-1
2.580480170E0,-1.625811905E-1,-5.973294377E-1,-2.488650680E-1
2.582855274E0,-2.030600458E-1,-6.516563296E-1,-2.296908647E-1
2.585332982E0,-2.424736619E-1,-7.368749380E-1,-2.147776037E-1
2.587810743E0,-2.882786989E-1,-8.732247949E-1,-2.030600458E-1
2.590288503E0,-3.458012640E-1,-1.072423339E0,-1.998643428E-1
2.592766264E0,-4.054543078E-1,-1.302513719E0,-2.030600458E-1
2.595244024E0,-4.416722357E-1,-1.519954324E0,-2.073209733E-1
2.597721784E0,-4.597811997E-1,-1.682934999E0,-2.179733068E-1
2.600199545E0,-4.672378302E-1,-1.787327886E0,-2.382127345E-1
2.602677305E0,-4.619116783E-1,-1.842720032E0,-2.648435533E-1
2.605155066E0,-4.235632718E-1,-1.845915675E0,-2.914743721E-1
2.607632826E0,-3.671059310E-1,-1.836328626E0,-3.181052208E-1
2.610110586E0,-3.234313726E-1,-1.853372335E0,-3.479317427E-1
2.612588347E0,-2.733654380E-1,-1.895981669E0,-3.852148950E-1
2.614985639E0,-2.190385461E-1,-1.943917155E0,-4.363460839E-1
2.617463347E0,-1.455374658E-1,-1.990787387E0,-4.970643520E-1
2.619941107E0,-6.138405204E-2,-2.019548655E0,-5.535216928E-1
2.622418868E0,2.529928461E-3,-2.011026859E0,-6.067833900E-1
2.624896628E0,4.726971686E-2,-1.947112799E0,-6.589797735E-1
2.627374389E0,8.348763734E-2,-1.820350051E0,-7.015891075E-1
2.629852149E0,1.079879999E-1,-1.640325665E0,-7.495245934E-1
2.632329909E0,1.292926520E-1,-1.419822454E0,-8.038514853E-1
2.634807670E0,1.452711523E-1,-1.153381109E0,-8.592435718E-1
2.637285430E0,1.548582464E-1,-8.487244248E-1,-9.615059495E-1
2.639763191E0,1.708367467E-1,-5.248935819E-1,-1.115964770E0
2.642240951E0,1.793586165E-1,-1.999974996E-1,-1.322619915E0
2.644718711E0,1.782933772E-1,1.078548431E-1,-1.552710295E0
2.647102201E0,1.665758193E-1,3.709673882E-1,-1.778539658E0
2.649579909E0,1.399449855E-1,5.691007376E-1,-1.978803515E0
2.652057670E0,1.026618332E-1,7.299509048E-1,-2.141917229E0
2.654535430E0,6.537867337E-2,8.588441014E-1,-2.243114471E0
2.657013191E0,3.235645220E-2,9.621717334E-1,-2.262288570E0
2.659490951E0,2.529928461E-3,1.055912256E0,-2.181330919E0
2.661968711E0,-2.729659714E-2,1.160305023E0,-2.013956070E0
2.664446420E0,-6.457975507E-2,1.270024061E0,-1.812627196E0
2.666924232E0,-1.199718714E-1,1.363764524E0,-1.630472302E0
2.669401993E0,-1.785596907E-1,1.436200380E0,-1.477078795E0
2.671879753E0,-2.211690098E-1,1.499049187E0,-1.356707454E0
2.674357514E0,-2.435389012E-1,1.532071352E0,-1.260836482E0
2.676835274E0,-2.435389012E-1,1.518223405E0,-1.183074474E0
2.679226472E0,-2.062557489E-1,1.447917938E0,-1.113834262E0
2.681704180E0,-1.434070021E-1,1.309437752E0,-1.054181218E0
2.684181941E0,-6.671021879E-2,1.131543756E0,-9.977238774E-1
2.686659701E0,1.850842312E-2,9.334104657E-1,-9.380708337E-1
2.689137461E0,9.627043456E-2,7.310161591E-1,-8.720263839E-1
2.691615222E0,1.612496525E-1,5.318176150E-1,-8.038514853E-1
2.694092982E0,2.113156021E-1,3.464670479E-1,-7.303503752E-1
2.696570743E0,2.432725877E-1,1.792254597E-1,-6.472622156E-1
2.699048503E0,2.592510879E-1,3.115806542E-2,-5.599130988E-1
2.701526264E0,2.624467909E-1,-8.601756394E-2,-4.672378302E-1
2.704004024E0,2.571206093E-1,-1.723014414E-1,-3.681711555E-1
2.706481784E0,2.496639937E-1,-2.330197245E-1,-2.669740319E-1
2.708959545E0,2.347507328E-1,-2.766942680E-1,-1.679073572E-1
2.711361368E0,2.219679356E-1,-3.139774203E-1,-6.990591437E-2
2.713839076E0,2.123808414E-1,-3.459344208E-1,1.744319126E-2
2.716316836E0,2.059894353E-1,-3.523258269E-1,7.496577501E-2
2.718794597E0,2.070546746E-1,-3.246297538E-1,1.005313694E-1
2.721272357E0,2.059894353E-1,-2.639114857E-1,8.987903595E-2
2.723750118E0,2.017285079E-1,-1.861494780E-1,5.792204663E-2
2.726227878E0,1.868152469E-1,-1.019960642E-1,1.637795754E-2
2.728705639E0,1.537930220E-1,-2.210358530E-2,-2.197043039E-2
2.731183399E0,1.015966013E-1,4.394086078E-2,-5.179695413E-2
2.733661159E0,4.407401755E-2,9.187635034E-2,-8.588441461E-2
2.736138920E0,-2.729659714E-2,1.003982127E-1,-1.125152409E-1
2.738616680E0,-1.039933711E-1,8.335448056E-2,-1.274285018E-1
2.741094441E0,-1.774944514E-1,7.802832127E-2,-1.327546686E-1
2.743376524E0,-2.392779738E-1,1.014634445E-1,-1.316894293E-1
2.745854232E0,-2.797568142E-1,1.547250897E-1,-1.327546686E-1
2.748331993E0,-3.031919599E-1,2.122476846E-1,-1.359503716E-1
2.750809753E0,-3.191704452E-1,2.729659677E-1,-1.434070021E-1
2.753287514E0,-3.106485903E-1,3.336842358E-1,-1.508636326E-1
2.755765274E0,-2.786915898E-1,3.890763521E-1,-1.497983932E-1
2.758243034E0,-2.158428431E-1,4.689688385E-1,-1.338198930E-1
2.760720795E0,-1.572550237E-1,5.232957006E-1,-1.093195379E-1
2.763198555E0,-1.263632625E-1,4.870778024E-1,-8.588441461E-2
2.765676316E0,-1.210371032E-1,3.720326424E-1,-5.605788901E-2
2.768154076E0,-1.125152409E-1,2.729659677E-1,-1.238333434E-2
2.770631836E0,-9.973244369E-2,2.058562785E-1,1.744319126E-2
2.773109597E0,-1.018629074E-1,1.387466043E-1,3.022598661E-2
2.775609180E0,-1.252980381E-1,5.885412544E-2,2.063889056E-2
2.778086889E0,-1.572550237E-1,-8.255556226E-3,-1.731003635E-3
2.780564649E0,-1.796249151E-1,-6.364767253E-2,-1.770949923E-2
2.783042409E0,-1.849510819E-1,-8.601756394E-2,-2.729659714E-2
2.785520170E0,-1.892120093E-1,-1.083874628E-1,-3.368799388E-2
2.787997930E0,-1.838858575E-1,-1.094526947E-1,-4.007939249E-2
2.790475691E0,-1.732335240E-1,-1.062569916E-1,-4.220985994E-2
2.792953451E0,-1.540593207E-1,-9.666989744E-2,-3.688369319E-2
2.795431211E0,-1.380808353E-1,-7.643046975E-2,-3.368799388E-2
2.797908972E0,-1.167761683E-1,-4.979964346E-2,-2.836182900E-2
2.800386732E0,-8.694964647E-2,-7.190322969E-3,-2.623136342E-2
2.802864493E0,-6.138405204E-2,4.074516147E-2,-2.410089783E-2
2.805342253E0,-3.688369319E-2,8.974587917E-2,-2.623136342E-2
2.807737566E0,3.994623839E-4,1.653774232E-1,-2.410089783E-2
2.810215274E0,3.129122034E-2,2.335523367E-1,-2.623136342E-2
2.812693034E0,4.940018058E-2,2.857487500E-1,-3.049229458E-2
2.815170795E0,6.857437640E-2,3.251623809E-1,-2.942706272E-2
2.817648555E0,8.135717362E-2,3.539236784E-1,-3.581846133E-2
2.820126316E0,1.133141592E-1,4.199681282E-1,-3.049229458E-2
2.822604076E0,1.495320797E-1,5.083824396E-1,-2.516612969E-2
2.825081836E0,1.761629134E-1,5.967968106E-1,-1.877473295E-2
2.827559597E0,1.921414137E-1,6.596455574E-1,-1.451379992E-2
2.830037357E0,1.932066381E-1,6.830806732E-1,-1.451379992E-2
2.832515118E0,1.772281379E-1,6.702978611E-1,-2.090519853E-2
2.834992878E0,1.495320797E-1,6.255580783E-1,-2.410089783E-2
2.837470639E0,1.197055578E-1,5.701659918E-1,-2.197043039E-2
2.839882774E0,8.348763734E-2,5.169043541E-1,-2.197043039E-2
2.842360482E0,5.472634733E-2,4.604469836E-1,-1.983996481E-2
2.844838243E0,3.022598661E-2,4.146419466E-1,-1.770949923E-2
2.847316003E0,1.211702544E-2,3.784240186E-1,-2.197043039E-2
2.849793764E0,-1.731003635E-3,3.475322723E-1,-2.516612969E-2
2.852271524E0,-1.131810062E-2,3.294233084E-1,-2.942706272E-2
2.854749284E0,-1.238333434E-2,3.177057505E-1,-3.049229458E-2
2.857227045E0,-1.238333434E-2,2.995967865E-1,-3.155753016E-2
2.859704805E0,-1.131810062E-2,2.825530469E-1,-3.155753016E-2
2.862182566E0,-1.770949923E-2,2.676397860E-1,-2.942706272E-2
2.864660326E0,-1.983996481E-2,2.580527067E-1,-2.942706272E-2
2.867138086E0,-1.983996481E-2,2.505960763E-1,-2.836182900E-2
2.869615847E0,-2.197043039E-2,2.367480397E-1,-3.368799388E-2
2.872011680E0,-2.303566411E-2,2.292914093E-1,-3.475322574E-2
2.874489389E0,-2.303566411E-2,2.346175760E-1,-2.729659714E-2
2.876967149E0,-2.090519853E-2,2.474003732E-1,-2.090519853E-2
2.879444909E0,-1.877473295E-2,2.559222281E-1,-1.877473295E-2
2.881922670E0,-8.122402243E-3,2.676397860E-1,-2.197043039E-2
2.884400430E0,-5.991935730E-3,2.665745616E-1,-2.410089783E-2
2.886878191E0,-5.991935730E-3,2.708354890E-1,-1.983996481E-2
2.889355951E0,-3.861469682E-3,2.804225981E-1,-1.770949923E-2
2.891833711E0,-1.731003635E-3,2.846835256E-1,-1.451379992E-2
2.894311472E0,2.529928461E-3,2.900096774E-1,-1.131810062E-2
2.896789232E0,4.660394508E-3,2.964010835E-1,-1.131810062E-2
2.899266993E0,3.595161485E-3,2.985315621E-1,-1.344856713E-2
2.901744753E0,2.529928461E-3,2.974663079E-1,-1.664426550E-2
2.904118347E0,5.725627299E-3,2.921401560E-1,-1.770949923E-2
2.906596055E0,8.921326138E-3,2.878792286E-1,-2.090519853E-2
2.909073816E0,1.211702544E-2,2.804225981E-1,-2.410089783E-2
2.911551576E0,1.424749196E-2,2.804225981E-1,-2.303566411E-2
2.914029336E0,1.531272475E-2,2.825530469E-1,-2.516612969E-2
2.916507045E0,2.383458801E-2,2.825530469E-1,-2.836182900E-2
2.918984805E0,2.276935615E-2,2.900096774E-1,-3.049229458E-2
2.921462566E0,2.383458801E-2,2.964010835E-1,-3.155753016E-2
2.923940326E0,2.383458801E-2,3.038577139E-1,-2.942706272E-2
2.926418086E0,1.744319126E-2,3.166405261E-1,-2.942706272E-2
2.928895847E0,1.531272475E-2,3.262276053E-1,-3.368799388E-2
2.931373607E0,1.637795754E-2,3.315537870E-1,-4.007939249E-2
2.933851368E0,1.744319126E-2,3.358147144E-1,-4.220985994E-2
2.936269232E0,1.531272475E-2,3.422061205E-1,-4.434032366E-2
2.938746941E0,1.211702544E-2,3.549889028E-1,-4.434032366E-2
2.941224701E0,9.986559860E-3,3.677717149E-1,-4.753602296E-2
2.943702461E0,7.856093347E-3,3.741630912E-1,-4.647079110E-2
2.946180222E0,3.595161485E-3,3.805544972E-1,-4.966649041E-2
2.948657982E0,-2.796236658E-3,3.912068307E-1,-5.179695413E-2
2.951135691E0,-6.657706108E-4,3.933372796E-1,-5.392742157E-2
2.953613503E0,-7.057168987E-3,3.954677582E-1,-5.925358832E-2
2.956091264E0,-1.238333434E-2,4.018591642E-1,-5.925358832E-2
2.958569024E0,-1.877473295E-2,4.125114977E-1,-5.925358832E-2
2.961046784E0,-3.262276202E-2,4.178376496E-1,-5.712312087E-2
2.963524493E0,-4.220985994E-2,4.274247587E-1,-5.499265343E-2
2.966002305E0,-4.860125855E-2,4.316856861E-1,-5.605788901E-2
2.968364024E0,-5.073172227E-2,4.316856861E-1,-6.031882018E-2
2.970841732E0,-5.179695413E-2,4.220985770E-1,-5.925358832E-2
2.973319493E0,-5.605788901E-2,4.103810191E-1,-6.244928762E-2
2.975797253E0,-5.605788901E-2,3.975982368E-1,-6.351451576E-2
2.978275014E0,-5.179695413E-2,3.816197217E-1,-6.244928762E-2
2.980752774E0,-5.499265343E-2,3.677717149E-1,-6.244928762E-2
2.983230482E0,-5.286218971E-2,3.571193814E-1,-6.564498693E-2
2.985708243E0,-5.179695413E-2,3.422061205E-1,-6.457975507E-2
2.988186003E0,-4.966649041E-2,3.283580840E-1,-6.457975507E-2
2.990663764E0,-4.966649041E-2,3.102491200E-1,-6.457975507E-2
2.993141524E0,-5.499265343E-2,2.921401560E-1,-5.925358832E-2
2.995619284E0,-5.286218971E-2,2.740311921E-1,-5.605788901E-2
2.998097045E0,-5.392742157E-2,2.644441128E-1,-5.286218971E-2
3.000527566E0,-5.605788901E-2,2.410089672E-1,-4.966649041E-2
3.003005274E0,-6.031882018E-2,2.197043151E-1,-4.327509180E-2
3.005483034E0,-6.564498693E-2,2.005301118E-1,-3.688369319E-2
3.007960795E0,-6.671021879E-2,1.781602204E-1,-2.836182900E-2
3.010438555E0,-7.416684926E-2,1.568555683E-1,-2.942706272E-2
3.012916316E0,-7.736254483E-2,1.355509013E-1,-4.007939249E-2
3.015394076E0,-8.268871158E-2,1.131810099E-1,-4.327509180E-2
3.017871836E0,-9.014534205E-2,9.400681406E-2,-3.688369319E-2
3.020349597E0,-9.866721183E-2,7.483261824E-2,-2.303566411E-2
3.022827305E0,-1.071890742E-1,5.565842614E-2,2.529928461E-3
3.025305118E0,-1.189066395E-1,3.754946589E-2,3.129122034E-2
3.027782878E0,-1.263632625E-1,1.198387146E-2,5.579157919E-2
3.030260639E0,-1.284937263E-1,-8.255556226E-3,7.709623873E-2
3.032654024E0,-1.338198930E-1,-2.849498391E-2,8.881380409E-2
3.035131732E0,-1.402112991E-1,-5.193011090E-2,9.733566642E-2
3.037609493E0,-1.444722265E-1,-6.897383928E-2,1.058575287E-1
3.040087253E0,-1.434070021E-1,-7.749570161E-2,1.058575287E-1
3.042565014E0,-1.370155960E-1,-9.453943372E-2,1.005313694E-1
3.045042774E0,-1.338198930E-1,-1.158440933E-1,8.561810106E-2
3.047520534E0,-1.338198930E-1,-1.392792165E-1,6.963960826E-2
3.049998295E0,-1.359503716E-1,-1.723014414E-1,5.046541616E-2
3.052476055E0,-1.412765235E-1,-2.159759998E-1,2.703028731E-2
3.054953816E0,-1.561897993E-1,-2.596505582E-1,-4.926702939E-3
3.057431576E0,-1.838858575E-1,-3.054555655E-1,-4.966649041E-2
3.059909336E0,-2.190385461E-1,-3.746957183E-1,-1.029281393E-1
3.062387097E0,-2.563216984E-1,-4.705666900E-1,-1.679073572E-1
3.064772045E0,-2.999962568E-1,-5.824161768E-1,-2.403431982E-1
3.067249753E0,-3.394098580E-1,-6.985265613E-1,-3.085181117E-1
3.069727514E0,-3.681711555E-1,-8.007889390E-1,-3.628450036E-1
3.072205274E0,-3.724320829E-1,-8.604419827E-1,-3.894758224E-1
3.074683034E0,-3.543231487E-1,-8.828118443E-1,-3.788234890E-1
3.077160795E0,-3.372794092E-1,-8.902685046E-1,-3.319532275E-1
3.079638555E0,-3.362141848E-1,-9.137036204E-1,-2.712349594E-1
3.082116316E0,-3.489969671E-1,-9.328778386E-1,-2.414084375E-1
3.084594024E0,-3.681711555E-1,-9.403344393E-1,-2.477998286E-1
3.087071836E0,-3.798887134E-1,-9.680305123E-1,-2.669740319E-1
3.089549597E0,-3.713668585E-1,-9.967917800E-1,-2.829525173E-1
3.092027357E0,-3.436708152E-1,-9.946613312E-1,-3.031919599E-1
3.094505118E0,-3.095833361E-1,-9.456605911E-1,-3.170399666E-1
3.096908972E0,-2.744306624E-1,-8.647028804E-1,-3.213009238E-1
3.099385430E0,-2.403431982E-1,-7.453967929E-1,-3.202356696E-1
3.101861941E0,-2.115819156E-1,-5.941337347E-1,-2.989310026E-1
3.104338399E0,-1.881467849E-1,-4.141093493E-1,-2.637783289E-1
3.106814909E0,-1.636464298E-1,-2.319544852E-1,-2.275604010E-1
3.109291368E0,-1.327546686E-1,-4.447348043E-2,-1.945381761E-1
3.111767878E0,-8.908011019E-2,1.493989378E-1,-1.583202630E-1
3.114244389E0,-3.688369319E-2,3.422061205E-1,-1.274285018E-1
3.116720847E0,1.531272475E-2,5.083824396E-1,-9.440627694E-2
3.119197357E0,6.324820966E-2,6.447322965E-1,-5.605788901E-2
3.121673816E0,1.090532318E-1,7.374075651E-1,-1.131810062E-2
3.124150378E0,1.814890802E-1,7.970606089E-1,3.874785081E-2
3.126626836E0,2.880123854E-1,8.503222466E-1,8.135717362E-2
3.129041264E0,4.509930313E-1,9.429975152E-1,1.154446304E-1
3.131517722E0,7.332797647E-1,1.194392562E0,1.218360290E-1
3.133994232E0,9.857400060E-1,1.573615432E0,8.029194176E-2
3.136470691E0,1.117962003E0,1.842054248E0,1.744319126E-2
3.138947201E0,1.162701845E0,1.883598328E0,-1.451379992E-2
3.141423659E0,1.154179931E0,1.867619753E0,-3.049229458E-2
3.143900170E0,1.090265989E0,1.749378920E0,-4.220985994E-2
3.146376680E0,9.910661578E-1,1.561897874E0,-4.114462435E-2
3.148853139E0,8.504554033E-1,1.361634135E0,-1.983996481E-2
3.151329649E0,6.864095330E-1,1.148587465E0,1.105179265E-2
3.153806107E0,5.138418078E-1,9.131709933E-1,4.407401755E-2
3.156282618E0,3.412740231E-1,6.447322965E-1,7.709623873E-2
3.158759128E0,1.740324497E-1,3.571193814E-1,1.037270650E-1
3.161167253E0,2.170412242E-2,9.081111848E-2,1.101184636E-1
3.163643711E0,-1.029281393E-1,-1.286268830E-1,1.111836955E-1
3.166120222E0,-2.041252851E-1,-3.065207899E-1,1.026618332E-1
3.168596680E0,-2.754958868E-1,-4.481967986E-1,8.881380409E-2
3.171073191E0,-3.149095178E-1,-5.600462556E-1,8.242240548E-2
3.173549649E0,-3.319532275E-1,-6.537867785E-1,7.922670245E-2
3.176026159E0,-3.308880031E-1,-7.230269313E-1,7.816147059E-2
3.178502670E0,-3.170399666E-1,-7.730928659E-1,7.709623873E-2
3.180979128E0,-2.999962568E-1,-8.050498366E-1,8.029194176E-2
3.183455639E0,-2.797568142E-1,-8.135717511E-1,8.348763734E-2
3.185932097E0,-2.563216984E-1,-8.125064969E-1,8.348763734E-2
3.188408607E0,-2.339518070E-1,-8.082455397E-1,8.455286920E-2
3.190885118E0,-2.105166763E-1,-7.933322787E-1,8.987903595E-2
3.193295847E0,-1.870815456E-1,-7.656362653E-1,9.627043456E-2
3.195772305E0,-1.679073572E-1,-7.294183373E-1,1.005313694E-1
3.198248816E0,-1.529940963E-1,-6.889394522E-1,1.079879999E-1
3.200725274E0,-1.455374658E-1,-6.580476761E-1,1.165098622E-1
3.203201784E0,-1.412765235E-1,-6.378082633E-1,1.239664927E-1
3.205678243E0,-1.466026902E-1,-6.314168572E-1,1.260969639E-1
3.208154753E0,-1.497983932E-1,-6.378082633E-1,1.260969639E-1
3.210631264E0,-1.497983932E-1,-6.505910754E-1,1.250317246E-1
3.213107722E0,-1.508636326E-1,-6.761566401E-1,1.111836955E-1
3.215584232E0,-1.444722265E-1,-6.985265613E-1,9.627043456E-2
3.218060691E0,-1.295589656E-1,-7.091788650E-1,7.603100687E-2
3.220537201E0,-1.114500016E-1,-7.113093734E-1,5.153064802E-2
3.223013711E0,-9.440627694E-2,-7.102441192E-1,2.596505545E-2
3.225418139E0,-7.736254483E-2,-7.113093734E-1,5.725627299E-3
3.227894597E0,-5.925358832E-2,-7.049179673E-1,-1.770949923E-2
3.230371107E0,-4.434032366E-2,-7.049179673E-1,-3.581846133E-2
3.232847566E0,-3.368799388E-2,-7.113093734E-1,-5.179695413E-2
3.235324076E0,-2.623136342E-2,-7.240921259E-1,-6.138405204E-2
3.237800534E0,-2.090519853E-2,-7.432663441E-1,-7.523208112E-2
3.240277045E0,-1.877473295E-2,-7.667014599E-1,-9.014534205E-2
3.242753555E0,-1.983996481E-2,-7.890713811E-1,-9.973244369E-2
3.245230014E0,-2.623136342E-2,-8.157021999E-1,-1.167761683E-1
3.247706524E0,-3.688369319E-2,-8.465939164E-1,-1.380808353E-1
3.250182982E0,-4.220985994E-2,-8.817466497E-1,-1.540593207E-1
3.252659493E0,-5.179695413E-2,-9.243559837E-1,-1.732335240E-1
3.255136003E0,-6.564498693E-2,-9.701609612E-1,-1.892120093E-1
3.257551368E0,-7.949301600E-2,-1.015965939E0,-1.987991184E-1
3.260027826E0,-8.694964647E-2,-1.068162441E0,-2.126471400E-1
3.262504336E0,-9.760197252E-2,-1.119293571E0,-2.190385461E-1
3.264980795E0,-1.082543060E-1,-1.171490073E0,-2.211690098E-1
3.267457305E0,-1.125152409E-1,-1.221555948E0,-2.137123793E-1
3.269933764E0,-1.114500016E-1,-1.273752332E0,-2.041252851E-1
3.272410274E0,-1.061238423E-1,-1.314231277E0,-1.956034154E-1
3.274886784E0,-9.334104508E-2,-1.329277635E0,-1.860163212E-1
3.277363243E0,-7.203638554E-2,-1.312100768E0,-1.774944514E-1
3.279839753E0,-4.966649041E-2,-1.265230536E0,-1.742987484E-1
3.282316211E0,-3.368799388E-2,-1.186403275E0,-1.679073572E-1
3.284792722E0,-1.344856713E-2,-1.092662811E0,-1.647116542E-1
3.287269232E0,6.790860556E-3,-9.904004335E-1,-1.625811905E-1
3.289682201E0,2.276935615E-2,-8.838770986E-1,-1.647116542E-1
3.292158659E0,3.874785081E-2,-7.773538232E-1,-1.721682847E-1
3.294635170E0,5.366111174E-2,-6.708304882E-1,-1.838858575E-1
3.297111628E0,6.857437640E-2,-5.706986189E-1,-1.966686398E-1
3.299588139E0,8.242240548E-2,-4.790885448E-1,-2.147776037E-1
3.302064597E0,9.307473898E-2,-3.874785006E-1,-2.360822707E-1
3.304541107E0,9.946613014E-2,-3.011946380E-1,-2.563216984E-1
3.307017618E0,1.069227681E-1,-2.181064636E-1,-2.776263654E-1
3.309494076E0,1.101184636E-1,-1.350182891E-1,-3.021267056E-1
3.311970586E0,1.090532318E-1,-5.406057462E-2,-3.244965971E-1
3.314447045E0,1.047922969E-1,2.796236612E-2,-3.479317427E-1
3.316923555E0,1.015966013E-1,1.131810099E-1,-3.671059310E-1
3.319400066E0,9.307473898E-2,1.973344237E-1,-3.798887134E-1
3.321802097E0,8.455286920E-2,2.836183012E-1,-3.926715255E-1
3.324278555E0,7.283531129E-2,3.709673882E-1,-4.033238590E-1
3.326755066E0,5.685681105E-2,4.529903531E-1,-4.118457139E-1
3.329231524E0,4.407401755E-2,5.328828096E-1,-4.171718955E-1
3.331708034E0,2.703028731E-2,6.085143685E-1,-4.182371199E-1
3.334184493E0,9.986559860E-3,6.756240726E-1,-4.203675687E-1
3.336661003E0,-8.122402243E-3,7.310161591E-1,-4.203675687E-1
3.339137514E0,-1.983996481E-2,7.736254930E-1,-4.182371199E-1
3.341613972E0,-3.475322574E-2,8.034520149E-1,-4.150414169E-1
3.344090482E0,-4.753602296E-2,8.236914277E-1,-4.107804894E-1
3.346566941E0,-6.031882018E-2,8.332785368E-1,-4.001281559E-1
3.349043451E0,-6.990591437E-2,8.311480880E-1,-3.905410469E-1
3.351519961E0,-7.736254483E-2,8.109086156E-1,-3.809539676E-1
3.353935534E0,-7.736254483E-2,7.746906877E-1,-3.660407066E-1
3.356411993E0,-7.949301600E-2,7.246247530E-1,-3.532578945E-1
3.358888503E0,-8.375394344E-2,6.671021581E-1,-3.340837061E-1
3.361364961E0,-8.375394344E-2,5.967968106E-1,-3.170399666E-1
3.363841472E0,-8.268871158E-2,5.200999975E-1,-2.957353294E-1
3.366317930E0,-7.523208112E-2,4.412727654E-1,-2.723001838E-1
3.368794441E0,-7.416684926E-2,3.581846058E-1,-2.477998286E-1
3.371270951E0,-6.884068251E-2,2.772268951E-1,-2.169080675E-1
3.373747409E0,-6.244928762E-2,1.994648874E-1,-1.913424879E-1
3.376223920E0,-5.818835273E-2,1.312899739E-1,-1.711030602E-1
3.378700378E0,-4.540555924E-2,6.524552405E-2,-1.561897993E-1
3.381176889E0,-3.049229458E-2,1.198387146E-2,-1.455374658E-1
3.383653399E0,-1.557903271E-2,-3.808208182E-2,-1.370155960E-1
3.386062878E0,-5.991935730E-3,-8.175663650E-2,-1.306242049E-1
3.388539336E0,1.464695437E-3,-1.275616586E-1,-1.242327988E-1
3.391015847E0,1.105179265E-2,-1.648448110E-1,-1.231675670E-1
3.393492305E0,1.744319126E-2,-1.914756298E-1,-1.167761683E-1
3.395968816E0,2.063889056E-2,-2.095845938E-1,-1.093195379E-1
3.398445274E0,2.063889056E-2,-2.202369273E-1,-1.029281393E-1
3.400921784E0,1.850842312E-2,-2.074541301E-1,-9.653674066E-2
3.403398295E0,1.211702544E-2,-1.744319052E-1,-9.014534205E-2
3.405874753E0,2.529928461E-3,-1.264964193E-1,-8.268871158E-2
3.408351264E0,-1.025286783E-2,-6.684337556E-2,-7.736254483E-2
3.410827722E0,-2.090519853E-2,-2.929390874E-3,-6.777545065E-2
3.413304232E0,-3.049229458E-2,5.778888986E-2,-6.457975507E-2
3.415780743E0,-3.581846133E-2,1.078548431E-1,-6.138405204E-2
3.418196576E0,-3.475322574E-2,1.334204376E-1,-5.925358832E-2
3.420673034E0,-3.155753016E-2,1.398118287E-1,-5.818835273E-2
3.423149545E0,-1.770949923E-2,1.259638071E-1,-5.392742157E-2
3.425626003E0,3.994623839E-4,9.826774895E-2,-5.179695413E-2
3.428102514E0,1.744319126E-2,6.737598777E-2,-4.753602296E-2
3.430578972E0,3.555215150E-2,3.648423031E-2,-4.540555924E-2
3.433055482E0,5.898727849E-2,2.663082560E-4,-3.688369319E-2
3.435531993E0,8.029194176E-2,-3.914731368E-2,-3.155753016E-2
3.438008451E0,9.307473898E-2,-7.536523789E-2,-2.836182900E-2
3.440484961E0,1.069227681E-1,-9.560466558E-2,-1.770949923E-2
3.442961420E0,1.186403260E-1,-1.137136221E-1,-1.344856713E-2
3.445437930E0,1.303578913E-1,-1.328878254E-1,-1.131810062E-2
3.447914441E0,1.388797611E-1,-1.446053833E-1,-8.122402243E-3
3.450322878E0,1.431406885E-1,-1.403444558E-1,-2.796236658E-3
3.452799336E0,1.484668553E-1,-1.062569916E-1,1.464695437E-3
3.455275847E0,1.463363916E-1,-4.447348043E-2,4.660394508E-3
3.457752305E0,1.410102248E-1,3.541899845E-2,7.856093347E-3
3.460228816E0,1.399449855E-1,1.089200750E-1,1.105179265E-2
3.462705326E0,1.388797611E-1,1.760297567E-1,1.424749196E-2
3.465181784E0,1.378145218E-1,2.292914093E-1,1.531272475E-2
3.467658295E0,1.335535944E-1,2.814878225E-1,1.850842312E-2
3.470134753E0,1.292926520E-1,3.283580840E-1,1.744319126E-2
3.472611264E0,1.239664927E-1,3.624455333E-1,1.850842312E-2
3.475087722E0,1.207707971E-1,3.965329826E-1,1.531272475E-2
3.477564232E0,1.186403260E-1,4.242290556E-1,1.105179265E-2
3.480040743E0,1.229012609E-1,4.519250989E-1,8.921326138E-3
3.482452201E0,1.165098622E-1,4.732297659E-1,7.856093347E-3
3.484928659E0,1.143793985E-1,4.838820994E-1,6.790860556E-3
3.487405170E0,1.133141592E-1,4.870778024E-1,6.790860556E-3
3.489881628E0,1.047922969E-1,4.881430268E-1,1.464695437E-3
3.492358139E0,9.946613014E-2,4.849473238E-1,-2.796236658E-3
3.494834597E0,9.733566642E-2,4.838820994E-1,-7.057168987E-3
3.497311107E0,9.413997084E-2,4.742949903E-1,-1.131810062E-2
3.499787618E0,8.668334037E-2,4.604469836E-1,-1.451379992E-2
3.502264076E0,8.774857223E-2,4.529903531E-1,-1.557903271E-2
3.504740586E0,8.348763734E-2,4.423380196E-1,-2.090519853E-2
3.507217045E0,7.922670245E-2,4.327509105E-1,-2.303566411E-2
3.509693555E0,7.390054315E-2,4.284899831E-1,-2.942706272E-2
3.512170066E0,7.390054315E-2,4.338161349E-1,-3.368799388E-2
3.514549076E0,6.963960826E-2,4.434032440E-1,-4.007939249E-2
3.517025534E0,6.537867337E-2,4.508598745E-1,-4.860125855E-2
3.519502045E0,6.218297780E-2,4.423380196E-1,-5.179695413E-2
3.521978503E0,5.898727849E-2,4.167724252E-1,-4.753602296E-2
3.524455014E0,6.111774594E-2,3.677717149E-1,-5.179695413E-2
3.526931472E0,6.431344151E-2,3.102491200E-1,-5.499265343E-2
3.529407982E0,6.111774594E-2,2.601831555E-1,-5.605788901E-2
3.531884493E0,5.472634733E-2,2.186390758E-1,-4.860125855E-2
3.534360951E0,5.046541616E-2,2.005301118E-1,-4.753602296E-2
3.536837461E0,4.087831825E-2,1.983996481E-1,-5.073172227E-2
3.539313920E0,2.703028731E-2,2.015953511E-1,-5.286218971E-2
3.541790430E0,1.957365684E-2,2.079867423E-1,-5.286218971E-2
3.544266941E0,1.531272475E-2,2.037258148E-1,-5.286218971E-2
3.546692514E0,9.986559860E-3,1.962691844E-1,-5.925358832E-2
3.549168972E0,8.921326138E-3,1.888125539E-1,-6.031882018E-2
3.551645482E0,4.660394508E-3,1.802906841E-1,-5.925358832E-2
3.554121941E0,-1.731003635E-3,1.738992929E-1,-5.818835273E-2
3.556598451E0,-8.122402243E-3,1.685731262E-1,-5.818835273E-2
3.559074909E0,-1.131810062E-2,1.536598653E-1,-5.712312087E-2
3.561551420E0,-1.344856713E-2,1.195724085E-1,-5.499265343E-2
3.564027930E0,-1.877473295E-2,7.802832127E-2,-5.499265343E-2
3.566504389E0,-2.516612969E-2,4.926702753E-2,-5.392742157E-2
3.568980899E0,-3.049229458E-2,2.476666868E-2,-4.540555924E-2
3.571457357E0,-3.581846133E-2,2.396774245E-3,-4.860125855E-2
3.573933868E0,-4.434032366E-2,-1.997311972E-2,-5.818835273E-2
3.576410378E0,-5.286218971E-2,-4.127778113E-2,-5.499265343E-2
3.578817045E0,-6.138405204E-2,-5.193011090E-2,-4.540555924E-2
3.581293503E0,-7.097115368E-2,-5.193011090E-2,-4.007939249E-2
3.583770014E0,-8.162347972E-2,-4.447348043E-2,-3.794892505E-2
3.586246472E0,-8.588441461E-2,-2.636451647E-2,-3.475322574E-2
3.588722982E0,-8.694964647E-2,-7.190322969E-3,-3.475322574E-2
3.591199441E0,-8.694964647E-2,9.853405878E-3,-3.475322574E-2
3.593675951E0,-8.481918275E-2,2.050573565E-2,-3.581846133E-2
3.596152461E0,-8.375394344E-2,3.648423031E-2,-3.262276202E-2
3.598628920E0,-7.949301600E-2,4.181039706E-2,-2.836182900E-2
3.601105430E0,-7.416684926E-2,4.713656008E-2,-2.836182900E-2
3.603581889E0,-6.990591437E-2,5.033225939E-2,-2.303566411E-2
3.606058399E0,-6.990591437E-2,5.352795869E-2,-1.983996481E-2
3.608534909E0,-6.457975507E-2,5.672365800E-2,-1.557903271E-2
3.610950586E0,-6.138405204E-2,5.885412544E-2,-1.131810062E-2
3.613426003E0,-6.031882018E-2,5.565842614E-2,-5.991935730E-3
3.615901420E0,-6.244928762E-2,5.139749497E-2,-1.731003635E-3
3.618376889E0,-6.244928762E-2,5.139749497E-2,3.994623839E-4
3.620852357E0,-6.244928762E-2,5.139749497E-2,6.790860556E-3
3.623327826E0,-6.457975507E-2,5.246272683E-2,1.531272475E-2
3.625803295E0,-6.884068251E-2,5.565842614E-2,2.170412242E-2
3.628278764E0,-7.097115368E-2,6.311506033E-2,2.596505545E-2
3.630754232E0,-7.416684926E-2,7.163692266E-2,3.235645220E-2
3.633229649E0,-7.736254483E-2,8.761541545E-2,3.981308267E-2
3.635705118E0,-7.842778414E-2,1.067896113E-1,4.620448127E-2
3.638180586E0,-8.481918275E-2,1.248985752E-1,5.472634733E-2
3.640656055E0,-8.801487833E-2,1.398118287E-1,6.218297780E-2
3.643075482E0,-8.801487833E-2,1.557903290E-1,6.431344151E-2
3.645550899E0,-8.588441461E-2,1.696383655E-1,7.070484012E-2
3.648026316E0,-8.908011019E-2,1.834863871E-1,7.390054315E-2
3.650501784E0,-9.014534205E-2,2.090519816E-1,7.816147059E-2
3.652977253E0,-9.121058136E-2,2.314218730E-1,7.816147059E-2
3.655452722E0,-9.334104508E-2,2.505960763E-1,7.922670245E-2
3.657928191E0,-9.334104508E-2,2.633788586E-1,7.816147059E-2
3.660403659E0,-9.227581322E-2,2.708354890E-1,7.709623873E-2
3.662879076E0,-9.334104508E-2,2.729659677E-1,7.390054315E-2
3.665354545E0,-9.227581322E-2,2.665745616E-1,6.750914454E-2
3.667830014E0,-8.908011019E-2,2.580527067E-1,5.898727849E-2
3.670305482E0,-8.694964647E-2,2.420742065E-1,5.685681105E-2
3.672780951E0,-8.268871158E-2,2.175738513E-1,5.579157919E-2
3.675207826E0,-8.162347972E-2,1.877473146E-1,5.046541616E-2
3.677683243E0,-7.949301600E-2,1.483336985E-1,4.513924941E-2
3.680158659E0,-7.523208112E-2,1.057243794E-1,4.407401755E-2
3.682634128E0,-7.097115368E-2,6.631075591E-2,4.300878197E-2
3.685109597E0,-6.244928762E-2,3.009283356E-2,3.981308267E-2
3.687585066E0,-5.712312087E-2,-5.059856921E-3,3.768261895E-2
3.690060534E0,-5.179695413E-2,-3.275591508E-2,3.874785081E-2
3.692536003E0,-5.179695413E-2,-5.619104207E-2,4.194355011E-2
3.695011472E0,-5.605788901E-2,-7.216953486E-2,4.513924941E-2
3.697486889E0,-6.244928762E-2,-8.495233208E-2,4.833494872E-2
3.699962357E0,-6.457975507E-2,-8.175663650E-2,4.940018058E-2
3.702437826E0,-6.884068251E-2,-6.790860742E-2,4.833494872E-2
3.704913295E0,-7.842778414E-2,-3.701684624E-2,5.046541616E-2
3.707333139E0,-8.055824786E-2,7.722939365E-3,4.833494872E-2
3.709808555E0,-8.481918275E-2,5.885412544E-2,4.087831825E-2
3.712283972E0,-8.694964647E-2,1.067896113E-1,3.448691964E-2
3.714759441E0,-9.014534205E-2,1.568555683E-1,3.022598661E-2
3.717234909E0,-9.760197252E-2,2.058562785E-1,2.703028731E-2
3.719710378E0,-1.039933711E-1,2.452699095E-1,2.809552103E-2
3.722185847E0,-1.050586104E-1,2.772268951E-1,2.703028731E-2
3.724661316E0,-1.071890742E-1,3.027924895E-1,2.916075476E-2
3.727136784E0,-1.082543060E-1,3.209014535E-1,3.022598661E-2
3.729612201E0,-1.114500016E-1,3.400756419E-1,2.916075476E-2
3.732087670E0,-1.125152409E-1,3.517931998E-1,3.129122034E-2
3.734563139E0,-1.125152409E-1,3.581846058E-1,3.235645220E-2
3.737038607E0,-1.146457046E-1,3.517931998E-1,3.555215150E-2
3.739462774E0,-1.135804728E-1,3.411408663E-1,3.981308267E-2
3.741938191E0,-1.082543060E-1,3.177057505E-1,3.981308267E-2
3.744413607E0,-1.050586104E-1,2.846835256E-1,3.661738336E-2
3.746889076E0,-1.018629074E-1,2.410089672E-1,3.448691964E-2
3.749364545E0,-9.760197252E-2,1.781602204E-1,3.342168778E-2
3.751840014E0,-9.334104508E-2,9.613727778E-2,2.809552103E-2
3.754315482E0,-9.014534205E-2,-6.125089712E-3,2.703028731E-2
3.756790951E0,-8.908011019E-2,-1.169093251E-1,2.703028731E-2
3.759266420E0,-9.014534205E-2,-2.213021666E-1,2.489982173E-2
3.761741836E0,-9.227581322E-2,-3.193036020E-1,2.489982173E-2
3.764217305E0,-1.007976755E-1,-4.045222402E-1,2.383458801E-2
3.766692774E0,-1.071890742E-1,-4.716319144E-1,2.596505545E-2
3.769168243E0,-1.146457046E-1,-5.216978788E-1,2.596505545E-2
3.771591316E0,-1.221023351E-1,-5.493939519E-1,2.383458801E-2
3.774066732E0,-1.284937263E-1,-5.536548495E-1,2.063889056E-2
3.776542149E0,-1.306242049E-1,-5.398068428E-1,1.850842312E-2
3.779017618E0,-1.338198930E-1,-5.035889149E-1,8.921326138E-3
3.781493086E0,-1.370155960E-1,-4.567186534E-1,3.994623839E-4
3.783968555E0,-1.359503716E-1,-4.151745737E-1,-1.025286783E-2
3.786444024E0,-1.412765235E-1,-3.853480518E-1,-1.664426550E-2
3.788919493E0,-1.508636326E-1,-3.640433848E-1,-2.516612969E-2
3.791394961E0,-1.551245600E-1,-3.565867543E-1,-3.581846133E-2
3.793870378E0,-1.615159512E-1,-3.587172329E-1,-4.327509180E-2
3.796345847E0,-1.647116542E-1,-3.629781604E-1,-5.179695413E-2
3.798821316E0,-1.625811905E-1,-3.651086092E-1,-5.925358832E-2
3.801296784E0,-1.572550237E-1,-3.565867543E-1,-6.777545065E-2
3.803614389E0,-1.519288570E-1,-3.416734934E-1,-7.629731297E-2
3.806089805E0,-1.455374658E-1,-3.203688264E-1,-7.310161740E-2
3.808565274E0,-1.348851323E-1,-2.894770801E-1,-7.310161740E-2
3.811040743E0,-1.274285018E-1,-2.575200796E-1,-7.416684926E-2
3.813516211E0,-1.231675670E-1,-2.255630940E-1,-7.097115368E-2
3.815991680E0,-1.189066395E-1,-2.106498331E-1,-6.884068251E-2
3.818467149E0,-1.157109365E-1,-2.053236663E-1,-6.564498693E-2
3.820942618E0,-1.135804728E-1,-2.074541301E-1,-6.244928762E-2
3.823418034E0,-1.093195379E-1,-2.117150575E-1,-5.392742157E-2
3.825893503E0,-1.061238423E-1,-2.170412242E-1,-4.753602296E-2
3.828368972E0,-9.973244369E-2,-2.181064636E-1,-4.114462435E-2
3.830844441E0,-9.440627694E-2,-2.095845938E-1,-3.049229458E-2
3.833319909E0,-9.334104508E-2,-2.042584270E-1,-2.516612969E-2
3.835861264E0,-8.588441461E-2,-2.095845938E-1,-1.877473295E-2
3.838336680E0,-7.949301600E-2,-2.159759998E-1,-1.238333434E-2
3.840812097E0,-7.736254483E-2,-2.181064636E-1,-2.796236658E-3
3.843287566E0,-6.884068251E-2,-2.106498331E-1,3.994623839E-4
3.845763034E0,-7.097115368E-2,-1.872147024E-1,8.921326138E-3
3.848238503E0,-8.055824786E-2,-1.254311949E-1,1.957365684E-2
3.850713972E0,-9.334104508E-2,-5.086487532E-2,2.916075476E-2
3.853189441E0,-9.866721183E-2,2.796236612E-2,3.022598661E-2
3.855664909E0,-1.114500016E-1,1.121157780E-1,3.448691964E-2
3.858140326E0,-1.221023351E-1,2.026605755E-1,3.342168778E-2
3.860615795E0,-1.295589656E-1,2.836183012E-1,3.555215150E-2
3.863091316E0,-1.295589656E-1,3.379451632E-1,4.194355011E-2
3.865566732E0,-1.221023351E-1,3.656412363E-1,4.407401755E-2
3.867995691E0,-1.061238423E-1,3.592498302E-1,4.300878197E-2
3.870471107E0,-8.908011019E-2,3.315537870E-1,3.661738336E-2
3.872946524E0,-6.777545065E-2,2.942706347E-1,1.957365684E-2
3.875421993E0,-4.860125855E-2,2.495308369E-1,2.529928461E-3
3.877897461E0,-2.836182900E-2,1.909430176E-1,3.994623839E-4
3.880372930E0,-1.344856713E-2,1.291595101E-1,1.105179265E-2
3.882848399E0,-3.861469682E-3,7.270215452E-2,2.703028731E-2
3.885323868E0,3.994623839E-4,1.517957076E-2,4.513924941E-2
3.887799336E0,2.529928461E-3,-2.636451647E-2,6.218297780E-2
3.890274753E0,1.464695437E-3,-4.127778113E-2,6.005251035E-2
3.892750222E0,1.464695437E-3,-4.127778113E-2,5.046541616E-2
3.895225691E0,5.725627299E-3,-2.210358530E-2,4.513924941E-2
3.897701159E0,4.660394508E-3,-7.989247679E-4,3.661738336E-2
3.900122357E0,8.921326138E-3,2.583190054E-2,3.022598661E-2
3.902597774E0,1.531272475E-2,5.033225939E-2,2.383458801E-2
3.905073191E0,1.531272475E-2,6.311506033E-2,1.850842312E-2
3.907548659E0,1.850842312E-2,7.376738638E-2,1.318225823E-2
3.910024128E0,2.170412242E-2,7.163692266E-2,1.105179265E-2
3.912499597E0,2.276935615E-2,6.737598777E-2,5.725627299E-3
3.914975066E0,2.063889056E-2,5.991935730E-2,5.725627299E-3
3.917450534E0,2.063889056E-2,5.352795869E-2,4.660394508E-3
3.919926003E0,1.531272475E-2,4.181039706E-2,-6.657706108E-4
3.922401420E0,1.211702544E-2,2.796236612E-2,-4.926702939E-3
3.924876941E0,4.660394508E-3,2.050573565E-2,-1.025286783E-2
3.927352357E0,-5.991935730E-3,2.050573565E-2,-1.983996481E-2
3.929827826E0,-9.187635034E-3,2.050573565E-2,-2.623136342E-2
3.932215586E0,-8.122402243E-3,3.009283356E-2,-3.155753016E-2
3.934691003E0,-9.187635034E-3,5.352795869E-2,-5.073172227E-2
3.937166472E0,-7.057168987E-3,7.802832127E-2,-6.671021879E-2
3.939641941E0,-5.991935730E-3,9.826774895E-2,-7.629731297E-2
3.942117357E0,-7.057168987E-3,1.153114736E-1,-7.842778414E-2
3.944592878E0,-7.057168987E-3,1.227681041E-1,-7.523208112E-2
3.947068295E0,-5.991935730E-3,1.206376404E-1,-6.990591437E-2
3.949543764E0,-9.187635034E-3,1.131810099E-1,-6.457975507E-2
3.952019232E0,-1.025286783E-2,1.035939083E-1,-6.031882018E-2
3.954494701E0,-1.238333434E-2,8.868064731E-2,-4.647079110E-2
3.956970170E0,-1.344856713E-2,7.057169080E-2,-3.368799388E-2
3.959445639E0,-1.557903271E-2,4.926702753E-2,-2.942706272E-2
3.961921055E0,-2.197043039E-2,3.009283356E-2,-3.262276202E-2
3.964258191E0,-3.049229458E-2,9.853405878E-3,-3.262276202E-2
3.966733659E0,-3.901416063E-2,-8.255556226E-3,-3.155753016E-2
3.969209128E0,-4.647079110E-2,-1.890788600E-2,-3.262276202E-2
3.971684597E0,-5.286218971E-2,-2.956021577E-2,-3.581846133E-2
3.974160066E0,-5.499265343E-2,-4.127778113E-2,-3.688369319E-2
3.976635534E0,-5.818835273E-2,-3.275591508E-2,-3.155753016E-2
3.979110951E0,-5.392742157E-2,-1.997311972E-2,-3.049229458E-2
3.981586420E0,-4.753602296E-2,-5.059856921E-3,-2.729659714E-2
3.984061889E0,-3.794892505E-2,5.592473317E-3,-2.197043039E-2
3.986537357E0,-3.475322574E-2,1.731003635E-2,-2.197043039E-2
3.989012826E0,-2.623136342E-2,3.222329915E-2,-2.410089783E-2
3.991488295E0,-1.877473295E-2,4.181039706E-2,-2.197043039E-2
3.994037930E0,-1.451379992E-2,5.672365800E-2,-2.090519853E-2
3.996513347E0,-9.187635034E-3,7.376738638E-2,-2.090519853E-2
3.998988764E0,-6.657706108E-4,8.974587917E-2,-2.197043039E-2
4.001464232E0,4.660394508E-3,9.826774895E-2,-1.877473295E-2
4.003939701E0,7.856093347E-3,1.014634445E-1,-1.557903271E-2
4.006415170E0,9.986559860E-3,1.046591476E-1,-1.451379992E-2
4.008890639E0,7.856093347E-3,1.003982127E-1,-1.664426550E-2
4.011366107E0,6.790860556E-3,9.826774895E-2,-1.664426550E-2
4.013841576E0,4.660394508E-3,1.025286764E-1,-1.451379992E-2
4.016316993E0,1.464695437E-3,1.035939083E-1,-1.238333434E-2
4.018792461E0,3.595161485E-3,1.046591476E-1,-1.238333434E-2
4.021267930E0,5.725627299E-3,1.057243794E-1,-7.057168987E-3
4.023743399E0,8.921326138E-3,1.057243794E-1,3.994623839E-4
4.026157670E0,1.211702544E-2,1.078548431E-1,-1.731003635E-3
4.028633086E0,1.531272475E-2,1.153114736E-1,-1.731003635E-3
4.031108503E0,1.744319126E-2,1.163767055E-1,1.464695437E-3
4.033583972E0,2.063889056E-2,1.163767055E-1,3.994623839E-4
4.036059441E0,1.957365684E-2,1.217028722E-1,2.529928461E-3
4.038534909E0,1.531272475E-2,1.323551983E-1,3.595161485E-3
4.041010378E0,1.531272475E-2,1.376813650E-1,6.790860556E-3
4.043485847E0,1.424749196E-2,1.408770680E-1,7.856093347E-3
4.045961316E0,1.105179265E-2,1.398118287E-1,9.986559860E-3
4.048436732E0,7.856093347E-3,1.334204376E-1,1.318225823E-2
4.050912201E0,8.921326138E-3,1.248985752E-1,1.957365684E-2
4.053387670E0,5.725627299E-3,1.163767055E-1,2.489982173E-2
4.055863139E0,-2.796236658E-3,1.035939083E-1,3.022598661E-2
4.058292201E0,-9.187635034E-3,9.081111848E-2,3.555215150E-2
4.060767618E0,-1.238333434E-2,8.441971987E-2,3.768261895E-2
4.063243034E0,-2.197043039E-2,7.802832127E-2,3.448691964E-2
4.065718503E0,-2.729659714E-2,7.057169080E-2,3.129122034E-2
4.068193972E0,-3.049229458E-2,6.737598777E-2,3.129122034E-2
4.070669441E0,-3.475322574E-2,6.418029219E-2,3.022598661E-2
4.073144909E0,-3.794892505E-2,5.991935730E-2,2.809552103E-2
4.075620378E0,-4.114462435E-2,5.672365800E-2,2.596505545E-2
4.078095847E0,-4.647079110E-2,5.885412544E-2,2.276935615E-2
4.080571264E0,-5.179695413E-2,5.991935730E-2,1.637795754E-2
4.083046732E0,-5.712312087E-2,6.098458916E-2,1.424749196E-2
4.085522201E0,-5.605788901E-2,5.991935730E-2,9.986559860E-3
4.087997670E0,-6.031882018E-2,5.459319428E-2,4.660394508E-3
4.090422305E0,-6.564498693E-2,4.500609636E-2,4.660394508E-3
4.092897722E0,-6.671021879E-2,3.541899845E-2,1.464695437E-3
4.095373139E0,-6.671021879E-2,2.370143496E-2,-2.796236658E-3
4.097848607E0,-6.564498693E-2,1.091863867E-2,-2.796236658E-3
4.100324076E0,-6.457975507E-2,3.462007269E-3,1.464695437E-3
4.102799545E0,-6.564498693E-2,-1.864157850E-3,5.725627299E-3
4.105275014E0,-6.031882018E-2,-5.059856921E-3,8.921326138E-3
4.107750482E0,-5.605788901E-2,-9.320789017E-3,7.856093347E-3
4.110225951E0,-5.392742157E-2,-1.038602181E-2,6.790860556E-3
4.112701368E0,-5.073172227E-2,-1.038602181E-2,7.856093347E-3
4.115176836E0,-4.647079110E-2,-3.994623665E-3,8.921326138E-3
4.117652305E0,-4.647079110E-2,5.592473317E-3,4.660394508E-3
4.120127774E0,-4.647079110E-2,2.157096937E-2,2.529928461E-3
4.122552305E0,-4.540555924E-2,4.181039706E-2,-6.657706108E-4
4.125026941E0,-4.860125855E-2,6.418029219E-2,-8.122402243E-3
4.127501576E0,-5.179695413E-2,8.335448056E-2,-8.122402243E-3
4.129976264E0,-5.605788901E-2,1.057243794E-1,-1.731003635E-3
4.132450899E0,-5.925358832E-2,1.248985752E-1,1.464695437E-3
4.134925586E0,-6.031882018E-2,1.408770680E-1,-1.731003635E-3
4.137400274E0,-5.818835273E-2,1.579207927E-1,-1.731003635E-3
4.139874909E0,-5.605788901E-2,1.717688292E-1,-2.796236658E-3
4.142349597E0,-5.605788901E-2,1.930734813E-1,3.994623839E-4
4.144824284E0,-5.286218971E-2,2.111824453E-1,-3.861469682E-3
4.147298920E0,-4.860125855E-2,2.324871123E-1,-3.861469682E-3
4.149773607E0,-4.434032366E-2,2.442046702E-1,-3.861469682E-3
4.152248295E0,-4.434032366E-2,2.442046702E-1,-8.122402243E-3
4.154674909E0,-4.114462435E-2,2.420742065E-1,-8.122402243E-3
4.157149493E0,-3.475322574E-2,2.292914093E-1,-7.057168987E-3
4.159624180E0,-3.155753016E-2,2.111824453E-1,-5.991935730E-3
4.162098868E0,-2.516612969E-2,1.920082569E-1,-7.057168987E-3
4.164573503E0,-1.983996481E-2,1.760297567E-1,-9.187635034E-3
4.167048191E0,-1.770949923E-2,1.685731262E-1,-1.451379992E-2
4.169522878E0,-1.664426550E-2,1.600512564E-1,-2.303566411E-2
4.171997514E0,-2.090519853E-2,1.515294015E-1,-2.623136342E-2
4.174472201E0,-2.197043039E-2,1.430075318E-1,-2.942706272E-2
4.176946889E0,-2.410089783E-2,1.398118287E-1,-2.836182900E-2
4.179421524E0,-2.623136342E-2,1.376813650E-1,-2.303566411E-2
4.181896211E0,-2.197043039E-2,1.366161406E-1,-1.770949923E-2
4.184370899E0,-1.983996481E-2,1.344856620E-1,-1.770949923E-2
4.186804649E0,-1.025286783E-2,1.302247345E-1,-1.770949923E-2
4.189279232E0,-6.657706108E-4,1.238333359E-1,-1.451379992E-2
4.191753920E0,6.790860556E-3,1.142462417E-1,-1.557903271E-2
4.194228607E0,1.637795754E-2,1.131810099E-1,-1.344856713E-2
4.196703243E0,2.916075476E-2,1.174419373E-1,-1.344856713E-2
4.199177930E0,3.448691964E-2,1.270290315E-1,-1.557903271E-2
4.201652618E0,4.300878197E-2,1.355509013E-1,-1.557903271E-2
4.204127253E0,4.726971686E-2,1.451379955E-1,-1.344856713E-2
4.206601941E0,5.153064802E-2,1.515294015E-1,-1.131810062E-2
4.209076628E0,5.579157919E-2,1.621817350E-1,-1.131810062E-2
4.211551264E0,5.898727849E-2,1.717688292E-1,-1.238333434E-2
4.214025951E0,6.005251035E-2,1.845516264E-1,-1.344856713E-2
4.216500639E0,5.685681105E-2,1.941387206E-1,-1.557903271E-2
4.218936732E0,5.898727849E-2,1.994648874E-1,-1.770949923E-2
4.221411316E0,5.685681105E-2,2.015953511E-1,-1.877473295E-2
4.223886003E0,4.940018058E-2,2.047910541E-1,-2.197043039E-2
4.226360691E0,4.513924941E-2,2.133129090E-1,-3.262276202E-2
4.228835326E0,3.874785081E-2,2.207695395E-1,-4.434032366E-2
4.231310014E0,3.661738336E-2,2.324871123E-1,-5.712312087E-2
4.233784701E0,3.661738336E-2,2.431394309E-1,-6.031882018E-2
4.236259336E0,3.555215150E-2,2.537917793E-1,-6.031882018E-2
4.238734024E0,2.809552103E-2,2.527265251E-1,-5.925358832E-2
4.241208711E0,2.703028731E-2,2.474003732E-1,-5.605788901E-2
4.243683347E0,2.703028731E-2,2.442046702E-1,-5.605788901E-2
4.246158034E0,2.276935615E-2,2.303566486E-1,-5.073172227E-2
4.248632722E0,2.063889056E-2,2.133129090E-1,-4.966649041E-2
4.251066107E0,1.637795754E-2,1.983996481E-1,-4.753602296E-2
4.253540691E0,1.211702544E-2,1.834863871E-1,-4.220985994E-2
4.256015378E0,6.790860556E-3,1.643121988E-1,-4.114462435E-2
4.258490066E0,3.595161485E-3,1.440727711E-1,-3.901416063E-2
4.260964701E0,-1.731003635E-3,1.238333359E-1,-3.155753016E-2
4.263439389E0,-8.122402243E-3,1.089200750E-1,-3.262276202E-2
4.265914076E0,-9.187635034E-3,9.826774895E-2,-3.794892505E-2
4.268388711E0,-1.344856713E-2,9.081111848E-2,-4.220985994E-2
4.270863399E0,-1.557903271E-2,8.655018359E-2,-4.540555924E-2
4.273338086E0,-1.664426550E-2,8.335448056E-2,-4.966649041E-2
4.275812722E0,-1.770949923E-2,8.228924870E-2,-5.073172227E-2
4.278287409E0,-2.303566411E-2,8.228924870E-2,-5.286218971E-2
4.280762097E0,-2.623136342E-2,8.015878499E-2,-5.925358832E-2
4.283189076E0,-2.729659714E-2,8.122401685E-2,-6.138405204E-2
4.285663711E0,-2.410089783E-2,8.441971987E-2,-6.564498693E-2
4.288138347E0,-2.516612969E-2,8.548495173E-2,-6.990591437E-2
4.290613034E0,-2.942706272E-2,8.761541545E-2,-7.203638554E-2
4.293087722E0,-3.475322574E-2,8.974587917E-2,-7.203638554E-2
4.295562357E0,-3.475322574E-2,8.868064731E-2,-7.629731297E-2
4.298037045E0,-3.262276202E-2,9.081111848E-2,-8.268871158E-2
4.300511732E0,-3.901416063E-2,9.081111848E-2,-8.481918275E-2
4.302986368E0,-4.114462435E-2,9.081111848E-2,-8.908011019E-2
4.305461055E0,-4.114462435E-2,9.081111848E-2,-9.547150880E-2
4.307935743E0,-4.007939249E-2,9.294158220E-2,-9.973244369E-2
4.310410378E0,-4.220985994E-2,8.974587917E-2,-9.866721183E-2
4.312885066E0,-4.860125855E-2,8.655018359E-2,-9.014534205E-2
4.315289076E0,-4.966649041E-2,8.122401685E-2,-8.908011019E-2
4.317763711E0,-5.073172227E-2,7.270215452E-2,-9.121058136E-2
4.320238399E0,-5.179695413E-2,6.844121963E-2,-8.588441461E-2
4.322713034E0,-5.179695413E-2,5.991935730E-2,-7.949301600E-2
4.325187722E0,-5.179695413E-2,5.139749497E-2,-7.736254483E-2
4.327662409E0,-5.499265343E-2,4.500609636E-2,-7.310161740E-2
4.330137045E0,-5.392742157E-2,4.181039706E-2,-6.884068251E-2
4.332611732E0,-5.179695413E-2,3.754946589E-2,-6.457975507E-2
4.335086420E0,-4.647079110E-2,3.648423031E-2,-6.244928762E-2
4.337561055E0,-4.540555924E-2,3.222329915E-2,-6.564498693E-2
4.340035743E0,-4.753602296E-2,3.541899845E-2,-6.457975507E-2
4.342510430E0,-4.540555924E-2,3.648423031E-2,-6.244928762E-2
4.344985066E0,-4.540555924E-2,3.967992961E-2,-5.712312087E-2
4.347440534E0,-4.647079110E-2,4.713656008E-2,-5.179695413E-2
4.349915118E0,-4.434032366E-2,5.246272683E-2,-4.434032366E-2
4.352389805E0,-4.327509180E-2,5.991935730E-2,-3.901416063E-2
4.354864493E0,-4.007939249E-2,7.163692266E-2,-3.794892505E-2
4.357339128E0,-3.475322574E-2,8.228924870E-2,-3.581846133E-2
4.359813816E0,-3.049229458E-2,9.187635034E-2,-3.368799388E-2
4.362288503E0,-2.516612969E-2,9.720251709E-2,-2.942706272E-2
4.364763191E0,-2.090519853E-2,9.613727778E-2,-2.410089783E-2
4.367237826E0,-1.770949923E-2,9.294158220E-2,-2.303566411E-2
4.369712514E0,-1.664426550E-2,8.655018359E-2,-2.303566411E-2
4.372187149E0,-1.238333434E-2,8.122401685E-2,-2.516612969E-2
4.374661836E0,-1.344856713E-2,7.909355313E-2,-2.197043039E-2
4.377136524E0,-1.344856713E-2,8.655018359E-2,-2.303566411E-2
4.379576889E0,-1.025286783E-2,9.826774895E-2,-2.303566411E-2
4.382051472E0,-7.057168987E-3,1.121157780E-1,-2.410089783E-2
4.384526159E0,-2.796236658E-3,1.344856620E-1,-2.090519853E-2
4.387000847E0,5.725627299E-3,1.621817350E-1,-2.623136342E-2
4.389475482E0,1.318225823E-2,1.856168509E-1,-3.049229458E-2
4.391950170E0,2.063889056E-2,2.101172209E-1,-3.368799388E-2
4.394424857E0,2.063889056E-2,2.207695395E-1,-3.368799388E-2
4.396899493E0,2.276935615E-2,2.197043151E-1,-3.049229458E-2
4.399374180E0,1.957365684E-2,2.122476846E-1,-2.729659714E-2
4.401848868E0,1.531272475E-2,2.005301118E-1,-2.623136342E-2
4.404323503E0,8.921326138E-3,1.834863871E-1,-2.836182900E-2
4.406798191E0,4.660394508E-3,1.664426625E-1,-3.049229458E-2
4.409272878E0,-6.657706108E-4,1.483336985E-1,-3.155753016E-2
4.411708034E0,-4.926702939E-3,1.334204376E-1,-3.581846133E-2
4.414182618E0,-1.131810062E-2,1.227681041E-1,-3.581846133E-2
4.416657305E0,-1.770949923E-2,1.153114736E-1,-3.794892505E-2
4.419131993E0,-2.197043039E-2,1.089200750E-1,-4.007939249E-2
4.421606628E0,-3.155753016E-2,1.057243794E-1,-4.114462435E-2
4.424081316E0,-3.794892505E-2,1.025286764E-1,-3.688369319E-2
4.426556003E0,-4.220985994E-2,9.294158220E-2,-3.475322574E-2
4.429030639E0,-4.540555924E-2,8.761541545E-2,-3.155753016E-2
4.431505326E0,-4.647079110E-2,7.909355313E-2,-2.410089783E-2
4.433980014E0,-4.647079110E-2,6.631075591E-2,-1.877473295E-2
4.436454649E0,-4.753602296E-2,5.778888986E-2,-1.664426550E-2
4.438929336E0,-4.647079110E-2,5.352795869E-2,-1.238333434E-2
4.441404024E0,-4.327509180E-2,4.926702753E-2,-1.451379992E-2
4.443811055E0,-4.327509180E-2,4.926702753E-2,-1.451379992E-2
4.446285639E0,-4.114462435E-2,5.246272683E-2,-1.664426550E-2
4.448760326E0,-4.114462435E-2,5.459319428E-2,-1.877473295E-2
4.451235014E0,-4.220985994E-2,5.565842614E-2,-1.983996481E-2
4.453709649E0,-4.114462435E-2,5.672365800E-2,-2.197043039E-2
4.456184336E0,-4.327509180E-2,5.885412544E-2,-2.942706272E-2
4.458659024E0,-4.114462435E-2,5.991935730E-2,-3.475322574E-2
4.461133659E0,-4.007939249E-2,6.524552405E-2,-4.114462435E-2
4.463608399E0,-4.114462435E-2,7.163692266E-2,-4.220985994E-2
4.466083034E0,-4.114462435E-2,7.376738638E-2,-4.860125855E-2
4.468557670E0,-3.901416063E-2,7.057169080E-2,-5.286218971E-2
4.471032357E0,-3.794892505E-2,6.631075591E-2,-5.818835273E-2
4.473507045E0,-3.475322574E-2,6.524552405E-2,-6.138405204E-2
4.475928034E0,-3.368799388E-2,5.565842614E-2,-6.457975507E-2
4.478402670E0,-3.262276202E-2,4.607132822E-2,-6.884068251E-2
4.480877357E0,-3.155753016E-2,4.181039706E-2,-7.416684926E-2
4.483351993E0,-3.155753016E-2,3.435376659E-2,-7.629731297E-2
4.485826680E0,-3.155753016E-2,2.902759984E-2,-7.842778414E-2
4.488301368E0,-3.475322574E-2,2.157096937E-2,-8.375394344E-2
4.490776003E0,-3.581846133E-2,1.517957076E-2,-8.588441461E-2
4.493250691E0,-3.262276202E-2,1.411433797E-2,-8.801487833E-2
4.495725378E0,-3.155753016E-2,9.853405878E-3,-8.588441461E-2
4.498200014E0,-3.155753016E-2,5.592473317E-3,-8.694964647E-2
4.500674701E0,-2.836182900E-2,5.592473317E-3,-9.014534205E-2
4.503149389E0,-2.410089783E-2,6.657706574E-3,-8.908011019E-2
4.505624024E0,-2.303566411E-2,6.657706574E-3,-8.908011019E-2
4.508088920E0,-2.090519853E-2,7.722939365E-3,-8.908011019E-2
4.510563503E0,-1.877473295E-2,6.657706574E-3,-9.227581322E-2
4.513038191E0,-1.770949923E-2,9.853405878E-3,-9.334104508E-2
4.515512878E0,-1.877473295E-2,9.853405878E-3,-9.440627694E-2
4.517987514E0,-2.090519853E-2,1.517957076E-2,-9.760197252E-2
4.520462201E0,-2.090519853E-2,3.328853101E-2,-9.973244369E-2
4.522936889E0,-2.623136342E-2,5.565842614E-2,-1.029281393E-1
4.525411524E0,-3.475322574E-2,7.483261824E-2,-1.071890742E-1
4.527886211E0,-3.794892505E-2,9.187635034E-2,-1.093195379E-1
4.530360899E0,-3.901416063E-2,1.142462417E-1,-1.050586104E-1
4.532835534E0,-4.434032366E-2,1.323551983E-1,-9.866721183E-2
4.535310222E0,-5.286218971E-2,1.483336985E-1,-8.801487833E-2
4.537784909E0,-5.712312087E-2,1.632469594E-1,-8.268871158E-2
4.540199961E0,-5.605788901E-2,1.728340536E-1,-7.523208112E-2
4.542674545E0,-5.712312087E-2,1.685731262E-1,-6.457975507E-2
4.545149232E0,-5.818835273E-2,1.568555683E-1,-5.605788901E-2
4.547623920E0,-6.138405204E-2,1.344856620E-1,-4.753602296E-2
4.550098555E0,-5.818835273E-2,1.099853069E-1,-3.475322574E-2
4.552573243E0,-5.392742157E-2,9.081111848E-2,-2.303566411E-2
4.555047930E0,-4.434032366E-2,7.802832127E-2,-1.344856713E-2
4.557522566E0,-3.368799388E-2,7.057169080E-2,-1.557903271E-2
4.559997253E0,-2.836182900E-2,7.376738638E-2,-2.623136342E-2
4.562471941E0,-2.410089783E-2,7.163692266E-2,-3.475322574E-2
4.564946576E0,-2.410089783E-2,5.778888986E-2,-4.007939249E-2
4.567421264E0,-2.942706272E-2,2.902759984E-2,-3.475322574E-2
4.569895951E0,-3.581846133E-2,-1.571218669E-2,-2.090519853E-2
4.572337149E0,-4.434032366E-2,-6.258244067E-2,-4.926702939E-3
4.574811732E0,-5.392742157E-2,-1.030612960E-1,1.105179265E-2
4.577286420E0,-6.244928762E-2,-1.350182891E-1,2.489982173E-2
4.579761107E0,-6.564498693E-2,-1.328878254E-1,2.703028731E-2
4.582235743E0,-5.818835273E-2,-9.560466558E-2,1.637795754E-2
4.584710482E0,-4.434032366E-2,-4.340824485E-2,4.660394508E-3
4.587185118E0,-3.049229458E-2,1.331541222E-3,-1.731003635E-3
4.589659753E0,-1.983996481E-2,2.902759984E-2,-1.238333434E-2
4.592134441E0,-7.057168987E-3,4.181039706E-2,-2.090519853E-2
4.594609128E0,1.464695437E-3,3.328853101E-2,-2.410089783E-2
4.597083764E0,-4.926702939E-3,9.853405878E-3,-1.557903271E-2
4.599558451E0,-9.187635034E-3,-1.784265228E-2,-1.731003635E-3
4.602033139E0,-1.131810062E-2,-3.914731368E-2,7.856093347E-3
4.604312670E0,-1.557903271E-2,-5.299534276E-2,1.850842312E-2
4.606787357E0,-1.877473295E-2,-6.897383928E-2,2.383458801E-2
4.609261993E0,-2.410089783E-2,-8.708280325E-2,3.235645220E-2
4.611736680E0,-2.623136342E-2,-1.094526947E-1,3.661738336E-2
4.614211368E0,-2.623136342E-2,-1.392792165E-1,4.194355011E-2
4.616686003E0,-2.623136342E-2,-1.723014414E-1,4.407401755E-2
4.619160691E0,-2.516612969E-2,-2.021279633E-1,4.620448127E-2
4.621635378E0,-2.303566411E-2,-2.276935577E-1,4.620448127E-2
4.624110014E0,-2.197043039E-2,-2.372806519E-1,4.300878197E-2
4.626584701E0,-2.197043039E-2,-2.351501882E-1,3.661738336E-2
4.629059389E0,-1.664426550E-2,-2.244978547E-1,2.383458801E-2
4.631534024E0,-1.451379992E-2,-2.170412242E-1,1.850842312E-2
4.634114336E0,-1.877473295E-2,-2.117150575E-1,2.170412242E-2
4.636588295E0,-2.090519853E-2,-1.957365721E-1,2.276935615E-2
4.639062305E0,-2.197043039E-2,-1.659100503E-1,2.063889056E-2
4.641536264E0,-2.516612969E-2,-1.360835135E-1,1.637795754E-2
4.644010274E0,-3.262276202E-2,-1.169093251E-1,9.986559860E-3
4.646484284E0,-3.475322574E-2,-1.062569916E-1,3.595161485E-3
4.648958295E0,-3.475322574E-2,-9.986559302E-2,-3.861469682E-3
4.651432305E0,-3.368799388E-2,-9.134373069E-2,-7.057168987E-3
4.653906264E0,-3.262276202E-2,-8.388710022E-2,-7.057168987E-3
4.656380274E0,-2.836182900E-2,-7.856093347E-2,-1.238333434E-2
4.658854284E0,-2.197043039E-2,-7.110430300E-2,-1.664426550E-2
4.661328295E0,-1.877473295E-2,-6.364767253E-2,-1.770949923E-2
4.663802253E0,-1.770949923E-2,-5.725627393E-2,-1.877473295E-2
4.666245222E0,-1.877473295E-2,-4.979964346E-2,-2.516612969E-2
4.668719180E0,-1.983996481E-2,-3.808208182E-2,-3.262276202E-2
4.671193191E0,-1.770949923E-2,-2.636451647E-2,-3.262276202E-2
4.673667149E0,-1.877473295E-2,-1.251648832E-2,-3.155753016E-2
4.676141159E0,-2.197043039E-2,7.722939365E-3,-2.836182900E-2
4.678615170E0,-2.516612969E-2,2.902759984E-2,-2.942706272E-2
4.681089180E0,-2.836182900E-2,4.287562892E-2,-3.581846133E-2
4.683563191E0,-3.049229458E-2,5.459319428E-2,-4.007939249E-2
4.686037149E0,-3.049229458E-2,6.524552405E-2,-4.860125855E-2
4.688511159E0,-3.581846133E-2,7.483261824E-2,-5.499265343E-2
4.690985170E0,-3.581846133E-2,8.335448056E-2,-6.457975507E-2
4.693459180E0,-3.688369319E-2,8.868064731E-2,-7.736254483E-2
4.695933139E0,-4.007939249E-2,9.187635034E-2,-8.162347972E-2
4.698384076E0,-4.007939249E-2,9.400681406E-2,-8.588441461E-2
4.700858034E0,-3.794892505E-2,9.720251709E-2,-9.014534205E-2
4.703332045E0,-3.581846133E-2,9.400681406E-2,-9.547150880E-2
4.705806003E0,-3.155753016E-2,8.761541545E-2,-1.039933711E-1
4.708280014E0,-3.049229458E-2,8.548495173E-2,-1.114500016E-1
4.710754024E0,-3.581846133E-2,9.081111848E-2,-1.114500016E-1
4.713228034E0,-4.434032366E-2,1.014634445E-1,-1.146457046E-1
4.715702045E0,-4.753602296E-2,1.121157780E-1,-1.242327988E-1
4.718176003E0,-5.605788901E-2,1.248985752E-1,-1.295589656E-1
4.720650014E0,-6.244928762E-2,1.323551983E-1,-1.348851323E-1
4.723124024E0,-6.884068251E-2,1.387466043E-1,-1.370155960E-1
4.725598034E0,-7.523208112E-2,1.430075318E-1,-1.402112991E-1
4.728071993E0,-7.416684926E-2,1.472684592E-1,-1.391460598E-1
4.730506472E0,-7.310161740E-2,1.483336985E-1,-1.380808353E-1
4.732980430E0,-7.416684926E-2,1.451379955E-1,-1.338198930E-1
4.735454441E0,-7.523208112E-2,1.430075318E-1,-1.252980381E-1
4.737928399E0,-7.416684926E-2,1.387466043E-1,-1.167761683E-1
4.740402409E0,-6.884068251E-2,1.355509013E-1,-1.061238423E-1
4.742876420E0,-6.351451576E-2,1.302247345E-1,-9.866721183E-2
4.745350430E0,-5.605788901E-2,1.217028722E-1,-8.694964647E-2
4.747824441E0,-5.605788901E-2,1.131810099E-1,-7.523208112E-2
4.750298399E0,-5.073172227E-2,1.067896113E-1,-6.671021879E-2
4.752772409E0,-4.434032366E-2,9.826774895E-2,-6.244928762E-2
4.755246420E0,-3.581846133E-2,9.933298081E-2,-6.457975507E-2
4.757720430E0,-3.368799388E-2,1.035939083E-1,-6.671021879E-2
4.760194389E0,-3.049229458E-2,1.035939083E-1,-6.351451576E-2
4.762499336E0,-3.155753016E-2,1.078548431E-1,-6.244928762E-2
4.764973295E0,-2.836182900E-2,1.142462417E-1,-6.457975507E-2
4.767447305E0,-2.942706272E-2,1.195724085E-1,-6.777545065E-2
4.769921264E0,-2.942706272E-2,1.217028722E-1,-6.564498693E-2
4.772395274E0,-2.942706272E-2,1.217028722E-1,-6.671021879E-2
4.774869284E0,-2.729659714E-2,1.270290315E-1,-6.671021879E-2
4.777343295E0,-2.516612969E-2,1.376813650E-1,-7.203638554E-2
4.779817305E0,-2.836182900E-2,1.504641622E-1,-7.842778414E-2
4.782291264E0,-2.942706272E-2,1.728340536E-1,-8.481918275E-2
4.784765274E0,-3.155753016E-2,1.866820902E-1,-9.014534205E-2
4.787239284E0,-3.262276202E-2,2.101172209E-1,-1.114500016E-1
4.789713295E0,-3.262276202E-2,2.484655976E-1,-1.412765235E-1
4.792187253E0,-3.155753016E-2,2.814878225E-1,-1.572550237E-1
4.794756628E0,-3.049229458E-2,3.038577139E-1,-1.700378209E-1
4.797230586E0,-2.623136342E-2,3.304885328E-1,-1.753639877E-1
4.799704597E0,-2.410089783E-2,3.464670479E-1,-1.785596907E-1
4.802178555E0,-1.877473295E-2,3.592498302E-1,-1.838858575E-1
4.804652566E0,-1.451379992E-2,3.720326424E-1,-1.860163212E-1
4.807126576E0,-1.025286783E-2,3.816197217E-1,-1.881467849E-1
4.809600586E0,-1.731003635E-3,3.880111277E-1,-1.902772486E-1
4.812074597E0,-3.861469682E-3,3.912068307E-1,-1.902772486E-1
4.814548555E0,-4.926702939E-3,3.975982368E-1,-1.956034154E-1
4.817022566E0,-7.057168987E-3,3.986634612E-1,-1.998643428E-1
4.819496576E0,-1.238333434E-2,3.954677582E-1,-2.009295821E-1
4.821970586E0,-1.557903271E-2,3.848154247E-1,-1.934729517E-1
4.824444597E0,-2.090519853E-2,3.741630912E-1,-1.796249151E-1
4.826901055E0,-2.197043039E-2,3.581846058E-1,-1.711030602E-1
4.829374961E0,-2.729659714E-2,3.507279754E-1,-1.711030602E-1
4.831848972E0,-2.410089783E-2,3.432713449E-1,-1.668421179E-1
4.834322982E0,-1.664426550E-2,3.326190114E-1,-1.615159512E-1
4.836796993E0,-1.238333434E-2,3.209014535E-1,-1.508636326E-1
4.839271003E0,-8.122402243E-3,3.145100474E-1,-1.455374658E-1
4.841744961E0,-3.861469682E-3,3.070534170E-1,-1.444722265E-1
4.844219024E0,3.994623839E-4,2.995967865E-1,-1.327546686E-1
4.846692982E0,6.790860556E-3,2.985315621E-1,-1.252980381E-1
4.849166993E0,1.424749196E-2,2.974663079E-1,-1.221023351E-1
4.851640951E0,2.063889056E-2,2.932053804E-1,-1.178414002E-1
4.854114961E0,2.596505545E-2,2.921401560E-1,-1.146457046E-1
4.856588972E0,3.981308267E-2,3.038577139E-1,-1.306242049E-1
4.859031472E0,4.940018058E-2,3.283580840E-1,-1.455374658E-1
4.861505430E0,5.259587988E-2,3.528584540E-1,-1.476679295E-1
4.863979389E0,5.046541616E-2,3.752283454E-1,-1.466026902E-1
4.866453399E0,3.768261895E-2,4.029243886E-1,-1.380808353E-1
4.868927409E0,2.170412242E-2,4.391423166E-1,-1.274285018E-1
4.871401420E0,3.994623839E-4,4.828168750E-1,-1.157109365E-1
4.873875430E0,-1.664426550E-2,5.307523608E-1,-1.103847697E-1
4.876349441E0,-3.155753016E-2,5.786878467E-1,-1.082543060E-1
4.878823399E0,-3.794892505E-2,6.191666722E-1,-1.135804728E-1
4.881297409E0,-3.794892505E-2,6.340799332E-1,-1.210371032E-1
4.883771420E0,-2.836182900E-2,6.181014776E-1,-1.252980381E-1
4.886245430E0,-1.770949923E-2,5.861444473E-1,-1.252980381E-1
4.888719389E0,-8.122402243E-3,5.414046645E-1,-1.252980381E-1
4.891162201E0,-1.731003635E-3,4.977301359E-1,-1.189066395E-1
4.893636159E0,2.529928461E-3,4.583165050E-1,-1.221023351E-1
4.896110170E0,1.464695437E-3,4.295552075E-1,-1.210371032E-1
4.898584128E0,-7.057168987E-3,4.029243886E-1,-1.135804728E-1
4.901058139E0,-1.983996481E-2,3.816197217E-1,-1.061238423E-1
4.903532149E0,-3.475322574E-2,3.624455333E-1,-9.547150880E-2
4.906006159E0,-5.073172227E-2,3.454017937E-1,-8.375394344E-2
4.908480170E0,-6.990591437E-2,3.326190114E-1,-7.310161740E-2
4.910954128E0,-8.908011019E-2,3.198362291E-1,-6.671021879E-2
4.913428139E0,-1.050586104E-1,3.070534170E-1,-5.818835273E-2
4.915902149E0,-1.189066395E-1,2.985315621E-1,-6.031882018E-2
4.918376159E0,-1.295589656E-1,2.825530469E-1,-5.712312087E-2
4.920850118E0,-1.391460598E-1,2.612484097E-1,-5.818835273E-2
4.923138243E0,-1.455374658E-1,2.346175760E-1,-5.712312087E-2
4.925612201E0,-1.519288570E-1,2.037258148E-1,-5.392742157E-2
4.928086159E0,-1.657768935E-1,1.760297567E-1,-4.647079110E-2
4.930560170E0,-1.817553788E-1,1.611164957E-1,-3.688369319E-2
4.933034180E0,-2.030600458E-1,1.579207927E-1,-2.836182900E-2
4.935508191E0,-2.232994735E-1,1.600512564E-1,-2.090519853E-2
4.937982201E0,-2.467346042E-1,1.632469594E-1,-1.025286783E-2
4.940456159E0,-2.627131045E-1,1.664426625E-1,-5.991935730E-3
4.942930170E0,-2.861482203E-1,1.653774232E-1,1.464695437E-3
4.945404180E0,-3.074528873E-1,1.611164957E-1,5.725627299E-3
4.947878191E0,-3.234313726E-1,1.547250897E-1,5.725627299E-3
4.950352149E0,-3.383446336E-1,1.472684592E-1,5.725627299E-3
4.952826159E0,-3.585840762E-1,1.430075318E-1,5.725627299E-3
4.955419024E0,-3.745625615E-1,1.419423074E-1,3.595161485E-3
4.957892982E0,-3.948020041E-1,1.472684592E-1,2.529928461E-3
4.960366993E0,-4.139761925E-1,1.557903290E-1,-1.731003635E-3
4.962840951E0,-4.352808297E-1,1.621817350E-1,3.994623839E-4
4.965314961E0,-4.544550478E-1,1.760297567E-1,5.725627299E-3
4.967788972E0,-4.736292362E-1,1.866820902E-1,2.529928461E-3
4.970262982E0,-4.928034246E-1,1.962691844E-1,1.464695437E-3
4.972736993E0,-5.109124184E-1,2.015953511E-1,3.994623839E-4
