"Time (s)","Gyroscope x (rad/s)","Gyroscope y (rad/s)","Gyroscope z (rad/s)"
1.397314630E-1,-6.261184346E-3,6.551336497E-2,-1.252236869E-2
1.422617750E-1,-7.482878864E-3,6.306997687E-2,-8.857285604E-3
1.447919840E-1,-8.704573847E-3,6.062658876E-2,-7.635590620E-3
1.473221400E-1,-7.482878864E-3,5.818320066E-2,-7.635590620E-3
1.498522960E-1,-5.039489828E-3,5.573981255E-2,-6.413896102E-3
1.523824000E-1,-3.817795310E-3,5.207473040E-2,-3.970507067E-3
1.549124000E-1,-1.374406274E-3,5.085303262E-2,-2.748812549E-3
1.574423480E-1,-1.374406274E-3,4.718795046E-2,-3.054236295E-4
1.599722960E-1,2.290677279E-3,4.230117425E-2,2.137965523E-3
1.625021920E-1,4.734066315E-3,3.741439432E-2,5.803049076E-3
1.650319840E-1,8.399149403E-3,3.130592033E-2,8.246437646E-3
1.675617230E-1,1.084253844E-2,2.397575416E-2,1.191152167E-2
1.700728170E-1,1.450762246E-2,1.542389300E-2,1.313321572E-2
1.725515150E-1,1.817270555E-2,9.315420873E-3,1.679829881E-2
1.750295360E-1,2.183778957E-2,3.206948051E-3,1.924168877E-2
1.775083380E-1,2.550287358E-2,-4.123218823E-3,1.924168877E-2
1.799879210E-1,2.794626169E-2,-1.023169141E-2,2.290677279E-2
1.824667230E-1,3.038965166E-2,-1.389677543E-2,2.657185495E-2
1.849446920E-1,3.283303976E-2,-1.878355257E-2,2.779355086E-2
1.874234940E-1,3.283303976E-2,-2.244863659E-2,2.779355086E-2
1.899030770E-1,3.405473381E-2,-2.000524849E-2,3.023693897E-2
1.923818800E-1,3.527642787E-2,-2.244863659E-2,3.145863488E-2
1.948598480E-1,3.405473381E-2,-1.634016447E-2,3.268032894E-2
1.973386500E-1,3.283303976E-2,-1.511846948E-2,3.634541109E-2
1.998182340E-1,3.038965166E-2,-1.023169141E-2,3.756710514E-2
2.022970360E-1,2.672456764E-2,-7.788302377E-3,3.878879920E-2
2.047750050E-1,2.428117767E-2,-4.123218823E-3,4.245388508E-2
2.072538070E-1,2.305948362E-2,7.635590737E-4,4.367557913E-2
2.097333900E-1,2.183778957E-2,1.985253533E-3,4.611896724E-2
2.122121920E-1,1.817270555E-2,1.985253533E-3,5.100574717E-2
2.146901610E-1,1.450762246E-2,-4.581354442E-4,5.344913527E-2
2.171689630E-1,1.450762246E-2,-5.344913341E-3,5.467082933E-2
2.196486500E-1,1.328592747E-2,-1.023169141E-2,5.467082933E-2
2.221273480E-1,1.206423342E-2,-1.511846948E-2,5.711421743E-2
2.246053690E-1,1.206423342E-2,-2.244863659E-2,5.955760926E-2
2.270841190E-1,1.328592747E-2,-2.977880463E-2,6.077930331E-2
2.295638070E-1,1.206423342E-2,-4.199574888E-2,6.077930331E-2
2.320425570E-1,1.328592747E-2,-5.176930502E-2,6.200099736E-2
2.345205250E-1,1.328592747E-2,-6.398624927E-2,6.444438547E-2
2.369993270E-1,1.572931744E-2,-7.620319724E-2,6.444438547E-2
2.394789630E-1,1.572931744E-2,-8.842013776E-2,6.444438547E-2
2.419577130E-1,1.695101149E-2,-9.819369763E-2,6.444438547E-2
2.444356820E-1,1.939439960E-2,-1.104106456E-1,6.444438547E-2
2.469144840E-1,2.183778957E-2,-1.201841980E-1,6.444438547E-2
2.493941190E-1,2.305948362E-2,-1.299577504E-1,6.444438547E-2
2.518728690E-1,2.672456764E-2,-1.409530044E-1,6.444438547E-2
2.543508380E-1,2.794626169E-2,-1.482831687E-1,6.322269142E-2
2.568296400E-1,3.038965166E-2,-1.543916464E-1,6.322269142E-2
2.593092750E-1,3.283303976E-2,-1.617218107E-1,6.077930331E-2
2.617880250E-1,3.649812192E-2,-1.653869003E-1,5.833591148E-2
2.642659940E-1,3.894151375E-2,-1.702736765E-1,5.589252338E-2
2.667447960E-1,4.260659590E-2,-1.727170646E-1,5.344913527E-2
2.692244320E-1,4.260659590E-2,-1.751604527E-1,4.978405312E-2
2.717031820E-1,4.504998401E-2,-1.763821393E-1,4.978405312E-2
2.741812020E-1,4.871506989E-2,-1.739387512E-1,4.734066129E-2
2.766600050E-1,5.115845799E-2,-1.739387512E-1,4.367557913E-2
2.791396400E-1,5.238015205E-2,-1.702736765E-1,4.001049697E-2
2.816183900E-1,5.360184610E-2,-1.678302884E-1,3.878879920E-2
2.840963590E-1,5.482354015E-2,-1.629435122E-1,3.512371704E-2
2.865751610E-1,5.604523420E-2,-1.568350345E-1,3.145863488E-2
2.890547960E-1,5.604523420E-2,-1.495048702E-1,2.901524492E-2
2.915335460E-1,5.726693198E-2,-1.421747059E-1,2.535016090E-2
2.940115150E-1,5.726693198E-2,-1.348445266E-1,2.290677279E-2
2.964903170E-1,5.604523420E-2,-1.275143623E-1,2.046338283E-2
2.989699520E-1,5.482354015E-2,-1.226275861E-1,1.679829881E-2
3.014487020E-1,5.360184610E-2,-1.140757278E-1,1.435491070E-2
3.039266710E-1,5.360184610E-2,-1.030804738E-1,1.191152167E-2
3.064054730E-1,5.238015205E-2,-9.452861547E-2,9.468132630E-3
3.088851090E-1,5.115845799E-2,-8.597674966E-2,7.024743594E-3
3.113638590E-1,4.993676394E-2,-7.864658535E-2,3.359660041E-3
3.138418270E-1,4.871506989E-2,-7.009471953E-2,9.162708884E-4
3.163206300E-1,4.749337584E-2,-6.154286116E-2,-3.054236295E-4
3.188002650E-1,4.749337584E-2,-5.299099907E-2,-2.748812549E-3
3.212790150E-1,4.749337584E-2,-4.688252881E-2,-5.192201585E-3
3.237569840E-1,4.749337584E-2,-4.199574888E-2,-6.413896102E-3
3.262357860E-1,4.627167806E-2,-3.588727489E-2,-8.857285604E-3
3.287154730E-1,4.749337584E-2,-3.100049868E-2,-1.007897966E-2
3.311941710E-1,4.749337584E-2,-2.855710872E-2,-1.130067464E-2
3.336721920E-1,4.627167806E-2,-2.367033064E-2,-1.252236869E-2
3.361509940E-1,4.627167806E-2,-2.367033064E-2,-1.496575773E-2
3.386306300E-1,4.504998401E-2,-2.244863659E-2,-1.496575773E-2
3.411093800E-1,4.504998401E-2,-2.000524849E-2,-1.618745178E-2
3.435873480E-1,4.260659590E-2,-2.000524849E-2,-1.740914769E-2
3.460661500E-1,4.138490185E-2,-1.878355257E-2,-1.740914769E-2
3.485457860E-1,3.771981969E-2,-1.756185852E-2,-1.618745178E-2
3.510245360E-1,3.771981969E-2,-2.000524849E-2,-1.863084175E-2
3.535025050E-1,3.405473381E-2,-2.367033064E-2,-1.863084175E-2
3.559813070E-1,3.283303976E-2,-2.122694254E-2,-1.496575773E-2
3.584609420E-1,3.161134571E-2,-2.367033064E-2,-1.496575773E-2
3.609396920E-1,2.916795574E-2,-2.489202656E-2,-1.496575773E-2
3.634176610E-1,2.794626169E-2,-2.977880463E-2,-1.374406368E-2
3.658964630E-1,2.672456764E-2,-3.344388679E-2,-1.374406368E-2
3.683760980E-1,2.550287358E-2,-3.955236077E-2,-1.130067464E-2
3.708548480E-1,2.428117767E-2,-4.443913698E-2,-1.130067464E-2
3.733328170E-1,2.305948362E-2,-4.810422286E-2,-1.007897966E-2
3.758116190E-1,2.183778957E-2,-5.421269313E-2,-8.857285604E-3
3.782913070E-1,1.939439960E-2,-6.154286116E-2,-8.857285604E-3
3.807700050E-1,1.939439960E-2,-6.642963737E-2,-6.413896102E-3
3.832480250E-1,1.817270555E-2,-7.131642103E-2,-3.970507067E-3
3.857267750E-1,1.817270555E-2,-7.620319724E-2,-2.748812549E-3
3.882064630E-1,1.572931744E-2,-8.231166750E-2,-3.970507067E-3
3.906851610E-1,1.572931744E-2,-8.842013776E-2,-3.970507067E-3
3.931631820E-1,1.572931744E-2,-9.208522737E-2,-2.748812549E-3
3.956419840E-1,1.572931744E-2,-9.452861547E-2,-3.970507067E-3
3.981216190E-1,1.572931744E-2,-9.575030953E-2,-3.970507067E-3
4.006003690E-1,1.572931744E-2,-1.006370857E-1,-5.192201585E-3
4.030783380E-1,1.695101149E-2,-1.006370857E-1,-5.192201585E-3
4.055571400E-1,1.695101149E-2,-9.819369763E-2,-5.192201585E-3
4.080367750E-1,1.817270555E-2,-9.330692142E-2,-8.857285604E-3
4.105155250E-1,1.939439960E-2,-8.964183182E-2,-1.007897966E-2
4.129934940E-1,1.939439960E-2,-8.475505561E-2,-1.252236869E-2
4.154722960E-1,1.939439960E-2,-7.986827940E-2,-1.374406368E-2
4.179519320E-1,1.939439960E-2,-7.498150319E-2,-1.496575773E-2
4.204306820E-1,1.939439960E-2,-7.009471953E-2,-1.740914769E-2
4.229086500E-1,1.817270555E-2,-6.398624927E-2,-1.985253580E-2
4.253874520E-1,1.572931744E-2,-6.032116711E-2,-2.107422985E-2
4.278670880E-1,1.206423342E-2,-5.787777901E-2,-2.229592577E-2
4.303458380E-1,8.399149403E-3,-5.421269313E-2,-2.473931387E-2
4.328238070E-1,5.955760833E-3,-5.421269313E-2,-2.473931387E-2
4.353026090E-1,-1.527118147E-4,-5.299099907E-2,-2.596100792E-2
4.377822960E-1,-3.817795310E-3,-5.421269313E-2,-2.596100792E-2
4.402609940E-1,-9.926267900E-3,-5.421269313E-2,-2.596100792E-2
4.427390150E-1,-1.603474095E-2,-5.421269313E-2,-2.718270384E-2
4.452178170E-1,-2.336490713E-2,-5.665608495E-2,-2.596100792E-2
4.476974520E-1,-3.191677108E-2,-5.909947306E-2,-2.351761982E-2
4.501762020E-1,-4.291202128E-2,-6.276455522E-2,-2.351761982E-2
4.526541710E-1,-5.390727147E-2,-6.765133142E-2,-2.107422985E-2
4.551329730E-1,-6.490252167E-2,-7.498150319E-2,-1.863084175E-2
4.576126090E-1,-7.589777559E-2,-8.108997345E-2,-1.863084175E-2
4.600913590E-1,-8.933641016E-2,-9.452861547E-2,-1.740914769E-2
4.625693270E-1,-1.027750522E-1,-1.079672500E-1,-1.618745178E-2
4.650481300E-1,-1.174353883E-1,-1.214058921E-1,-1.374406368E-2
4.675277650E-1,-1.296523362E-1,-1.385096163E-1,-1.252236869E-2
4.700065150E-1,-1.406475753E-1,-1.543916464E-1,-1.007897966E-2
4.724844840E-1,-1.516428292E-1,-1.690519750E-1,-6.413896102E-3
4.749632860E-1,-1.638597846E-1,-1.861557066E-1,-5.192201585E-3
4.774429210E-1,-1.760767251E-1,-2.020377368E-1,-3.970507067E-3
4.799216710E-1,-1.870719790E-1,-2.191414535E-1,-2.748812549E-3
4.823996400E-1,-1.968455315E-1,-2.338017821E-1,-1.527118147E-3
4.848784420E-1,-2.053973973E-1,-2.435753495E-1,9.162708884E-4
4.873581300E-1,-2.115058601E-1,-2.521272004E-1,9.162708884E-4
4.898368270E-1,-2.188360244E-1,-2.582356930E-1,2.137965523E-3
4.923148480E-1,-2.261662036E-1,-2.619007528E-1,9.162708884E-4
4.947935980E-1,-2.298312783E-1,-2.594573796E-1,2.137965523E-3
4.972732860E-1,-2.310529798E-1,-2.557922900E-1,2.137965523E-3
4.997519840E-1,-2.334963679E-1,-2.496838123E-1,2.137965523E-3
5.022300050E-1,-2.322746664E-1,-2.411319613E-1,-3.054236295E-4
5.047088070E-1,-2.298312783E-1,-2.289150059E-1,-1.527118147E-3
5.071884420E-1,-2.261662036E-1,-2.130329758E-1,-3.970507067E-3
5.096671920E-1,-2.176143378E-1,-1.995943487E-1,-7.635590620E-3
5.121451610E-1,-2.078407854E-1,-1.776038408E-1,-8.857285604E-3
5.146239630E-1,-1.968455315E-1,-1.592784226E-1,-1.130067464E-2
5.171035980E-1,-1.821851879E-1,-1.385096163E-1,-1.496575773E-2
5.195823480E-1,-1.687465608E-1,-1.189625040E-1,-1.618745178E-2
5.220603170E-1,-1.528645307E-1,-9.941539168E-2,-2.351761982E-2
5.245391190E-1,-1.369825006E-1,-7.742489129E-2,-2.718270384E-2
5.270187550E-1,-1.186570823E-1,-5.909947306E-2,-3.329117596E-2
5.294975050E-1,-1.015533581E-1,-4.077405483E-2,-3.817795217E-2
5.319754730E-1,-8.567132801E-2,-2.611372061E-2,-4.428642616E-2
5.344542750E-1,-6.856760383E-2,-7.788302377E-3,-4.795150831E-2
5.369339110E-1,-5.268557742E-2,6.872031838E-3,-5.405998230E-2
5.394126610E-1,-3.680354729E-2,2.153236605E-2,-6.139015034E-2
5.418906820E-1,-2.092151903E-2,3.863608837E-2,-6.627693027E-2
5.443694320E-1,-6.261184346E-3,4.840964451E-2,-6.872031838E-2
5.468491190E-1,9.620844387E-3,5.696150661E-2,-7.482878864E-2
5.493278170E-1,2.428117767E-2,6.306997687E-2,-7.727217674E-2
5.518058380E-1,3.894151375E-2,7.040014863E-2,-8.215895295E-2
5.542845880E-1,5.360184610E-2,7.895200700E-2,-8.338065445E-2
5.567642750E-1,6.704048812E-2,8.506047726E-2,-8.704573661E-2
5.592430250E-1,8.170082420E-2,8.872556686E-2,-8.948912472E-2
5.617209940E-1,9.391776472E-2,9.483403713E-2,-9.071081877E-2
5.641997960E-1,1.061347127E-1,1.009425074E-1,-8.948912472E-2
5.666794320E-1,1.171299592E-1,1.070509851E-1,-8.826743066E-2
5.691581820E-1,1.293469071E-1,1.107160673E-1,-8.826743066E-2
5.716361500E-1,1.403421611E-1,1.107160673E-1,-8.704573661E-2
5.741149520E-1,1.513374150E-1,1.082726792E-1,-8.826743066E-2
5.765945880E-1,1.611109674E-1,1.082726792E-1,-8.704573661E-2
5.790733380E-1,1.708845198E-1,1.058292910E-1,-8.582404256E-2
5.815513070E-1,1.794363856E-1,1.009425074E-1,-8.582404256E-2
5.840301090E-1,1.855448484E-1,9.361234307E-2,-8.582404256E-2
5.865097440E-1,1.928750277E-1,8.506047726E-2,-8.215895295E-2
5.889884940E-1,2.002051920E-1,7.650861889E-2,-7.971556485E-2
5.914664630E-1,2.063136548E-1,6.673506647E-2,-7.727217674E-2
5.939452650E-1,2.124221325E-1,5.329642445E-2,-7.605048269E-2
5.964249520E-1,2.148655206E-1,3.619270027E-2,-7.116370648E-2
5.989036500E-1,2.173089087E-1,2.031067200E-2,-6.749862432E-2
6.013816710E-1,2.160872221E-1,3.206948051E-3,-6.261184067E-2
6.038604210E-1,2.148655206E-1,-1.511846948E-2,-5.894676223E-2
6.063401090E-1,2.124221325E-1,-3.344388679E-2,-5.283828825E-2
6.088188590E-1,2.063136548E-1,-5.543438718E-2,-4.917320609E-2
6.112968270E-1,1.977618039E-1,-7.620319724E-2,-4.428642616E-2
6.137756300E-1,1.879882365E-1,-9.575030953E-2,-3.817795217E-2
6.162552650E-1,1.757712960E-1,-1.152974218E-1,-3.206948191E-2
6.187340150E-1,1.623326540E-1,-1.348445266E-1,-2.962609194E-2
6.212119840E-1,1.476723254E-1,-1.507265568E-1,-2.351761982E-2
6.236907860E-1,1.305686086E-1,-1.641651988E-1,-1.985253580E-2
6.261704210E-1,1.159082651E-1,-1.727170646E-1,-1.618745178E-2
6.286491710E-1,1.000262350E-1,-1.788255423E-1,-1.252236869E-2
6.311271400E-1,8.414421231E-2,-1.788255423E-1,-1.007897966E-2
6.336059420E-1,6.826218218E-2,-1.739387512E-1,-6.413896102E-3
6.360855770E-1,5.238015205E-2,-1.653869003E-1,-5.192201585E-3
6.385643270E-1,3.771981969E-2,-1.531699449E-1,-1.527118147E-3
6.410422960E-1,2.305948362E-2,-1.372879148E-1,9.162708884E-4
6.435210980E-1,1.084253844E-2,-1.189625040E-1,4.581354558E-3
6.460007340E-1,-1.527118147E-4,-9.819369763E-2,4.581354558E-3
6.484794840E-1,-1.114796288E-2,-7.742489129E-2,7.024743594E-3
6.509575050E-1,-2.092151903E-2,-5.543438718E-2,8.246437646E-3
6.534362550E-1,-2.947338112E-2,-3.588727489E-2,1.068982668E-2
6.559158900E-1,-3.802524135E-2,-1.511846948E-2,1.191152167E-2
6.583946400E-1,-4.413371533E-2,3.206948051E-3,1.313321572E-2
6.608726610E-1,-5.146388337E-2,1.908897609E-2,1.435491070E-2
6.633514630E-1,-5.635065958E-2,3.252761811E-2,1.435491070E-2
6.658310980E-1,-6.001574174E-2,4.718795046E-2,1.557660475E-2
6.683098480E-1,-6.490252167E-2,5.696150661E-2,1.801999472E-2
6.707878170E-1,-6.734590977E-2,6.306997687E-2,1.679829881E-2
6.732666190E-1,-6.734590977E-2,7.284353673E-2,2.046338283E-2
6.757462550E-1,-6.734590977E-2,7.773031294E-2,2.168507688E-2
6.782250050E-1,-6.612421572E-2,8.017370105E-2,2.168507688E-2
6.807029730E-1,-6.368082762E-2,8.261708915E-2,2.168507688E-2
6.831817750E-1,-6.245913357E-2,8.506047726E-2,2.290677279E-2
6.856614110E-1,-6.001574174E-2,8.628217876E-2,2.290677279E-2
6.881401610E-1,-5.635065958E-2,8.383878320E-2,2.290677279E-2
6.906181300E-1,-5.146388337E-2,8.017370105E-2,2.412846684E-2
6.930969320E-1,-4.779879749E-2,7.773031294E-2,2.290677279E-2
6.955765670E-1,-4.291202128E-2,7.406523079E-2,2.535016090E-2
6.980553170E-1,-3.924693540E-2,7.040014863E-2,2.779355086E-2
7.005332860E-1,-3.558185324E-2,6.551336497E-2,2.779355086E-2
7.030120880E-1,-3.069507517E-2,5.940489471E-2,2.779355086E-2
7.054917750E-1,-2.580829710E-2,5.329642445E-2,2.779355086E-2
7.079704730E-1,-2.214321308E-2,4.718795046E-2,2.901524492E-2
7.104484940E-1,-1.969982497E-2,4.230117425E-2,3.145863488E-2
7.129272440E-1,-1.725643501E-2,3.619270027E-2,3.268032894E-2
7.154069320E-1,-1.359135192E-2,2.764083818E-2,3.390202299E-2
7.178856820E-1,-9.926267900E-3,2.153236605E-2,3.512371704E-2
7.203636500E-1,-7.482878864E-3,1.786728203E-2,3.512371704E-2
7.228424520E-1,-5.039489828E-3,1.298050396E-2,3.512371704E-2
7.253220880E-1,-2.596100792E-3,9.315420873E-3,3.634541109E-2
7.278008380E-1,-1.527118147E-4,6.872031838E-3,3.634541109E-2
7.302788070E-1,3.512371797E-3,3.206948051E-3,3.634541109E-2
7.327576090E-1,5.955760833E-3,4.428642802E-3,3.512371704E-2
7.352372440E-1,7.177455351E-3,4.428642802E-3,3.390202299E-2
7.377159940E-1,8.399149403E-3,4.428642802E-3,3.634541109E-2
7.401939630E-1,1.206423342E-2,6.872031838E-3,3.756710514E-2
7.426727650E-1,1.450762246E-2,8.093725890E-3,3.634541109E-2
7.451524000E-1,1.450762246E-2,1.175880991E-2,3.512371704E-2
7.476311500E-1,1.695101149E-2,1.420219894E-2,3.268032894E-2
7.501091190E-1,1.939439960E-2,1.786728203E-2,3.268032894E-2
7.525879210E-1,1.939439960E-2,2.031067200E-2,3.145863488E-2
7.550675570E-1,1.939439960E-2,2.519745007E-2,3.023693897E-2
7.575463070E-1,2.183778957E-2,3.252761811E-2,2.901524492E-2
7.600243270E-1,2.305948362E-2,3.863608837E-2,2.779355086E-2
7.625030770E-1,2.428117767E-2,4.230117425E-2,2.657185495E-2
7.649827650E-1,2.428117767E-2,4.718795046E-2,2.535016090E-2
7.674615150E-1,2.550287358E-2,5.207473040E-2,2.535016090E-2
7.699394840E-1,2.550287358E-2,5.451811850E-2,2.290677279E-2
7.724182860E-1,2.428117767E-2,5.696150661E-2,2.412846684E-2
7.748979210E-1,2.428117767E-2,5.940489471E-2,2.168507688E-2
7.773766710E-1,2.305948362E-2,5.940489471E-2,2.046338283E-2
7.798546400E-1,2.183778957E-2,6.062658876E-2,2.046338283E-2
7.823334420E-1,2.183778957E-2,5.940489471E-2,2.168507688E-2
7.848130770E-1,1.939439960E-2,5.329642445E-2,2.046338283E-2
7.872918270E-1,1.695101149E-2,4.840964451E-2,2.168507688E-2
7.897697960E-1,1.572931744E-2,4.352286831E-2,2.290677279E-2
7.922485980E-1,1.328592747E-2,3.741439432E-2,2.412846684E-2
7.947282340E-1,1.084253844E-2,2.886253223E-2,2.535016090E-2
7.972069840E-1,9.620844387E-3,2.031067200E-2,2.779355086E-2
7.996849520E-1,7.177455351E-3,1.053711493E-2,3.023693897E-2
8.021637550E-1,4.734066315E-3,3.206948051E-3,3.145863488E-2
8.046433900E-1,2.290677279E-3,-7.788302377E-3,3.390202299E-2
8.071221400E-1,2.290677279E-3,-1.511846948E-2,3.878879920E-2
8.096001610E-1,-1.527118147E-4,-2.244863659E-2,4.123219103E-2
8.120789110E-1,-1.527118147E-4,-3.344388679E-2,4.367557913E-2
8.145585980E-1,-1.374406274E-3,-4.077405483E-2,4.734066129E-2
8.170372960E-1,-1.374406274E-3,-4.688252881E-2,4.734066129E-2
8.195153170E-1,-2.596100792E-3,-5.421269313E-2,4.978405312E-2
8.219940670E-1,-3.817795310E-3,-6.032116711E-2,5.344913527E-2
8.244737550E-1,-1.374406274E-3,-6.642963737E-2,5.344913527E-2
8.269524520E-1,2.290677279E-3,-7.009471953E-2,5.467082933E-2
8.294304730E-1,3.512371797E-3,-7.498150319E-2,5.589252338E-2
8.319092750E-1,4.734066315E-3,-7.986827940E-2,5.589252338E-2
8.343889110E-1,7.177455351E-3,-8.353336155E-2,5.589252338E-2
8.368676610E-1,1.084253844E-2,-9.086353332E-2,5.344913527E-2
8.393456300E-1,1.328592747E-2,-9.452861547E-2,5.344913527E-2
8.418244320E-1,1.572931744E-2,-9.697200358E-2,5.100574717E-2
8.443040670E-1,1.572931744E-2,-9.941539168E-2,4.856235534E-2
8.467828170E-1,1.939439960E-2,-1.006370857E-1,4.734066129E-2
8.492607860E-1,1.939439960E-2,-1.018587798E-1,4.489727318E-2
8.517395880E-1,2.183778957E-2,-1.006370857E-1,4.245388508E-2
8.542192230E-1,2.183778957E-2,-9.819369763E-2,4.001049697E-2
8.566979730E-1,2.061609551E-2,-9.941539168E-2,3.878879920E-2
8.591759420E-1,2.183778957E-2,-9.330692142E-2,3.756710514E-2
8.616547440E-1,2.061609551E-2,-9.086353332E-2,3.390202299E-2
8.641344320E-1,1.817270555E-2,-8.719844371E-2,3.268032894E-2
8.666131300E-1,1.572931744E-2,-7.986827940E-2,3.023693897E-2
8.690911500E-1,1.450762246E-2,-7.375980914E-2,2.901524492E-2
8.715699000E-1,1.206423342E-2,-7.375980914E-2,3.023693897E-2
8.740495880E-1,8.399149403E-3,-7.009471953E-2,3.023693897E-2
8.765283380E-1,5.955760833E-3,-6.642963737E-2,2.901524492E-2
8.790063070E-1,4.734066315E-3,-6.765133142E-2,3.145863488E-2
8.814851090E-1,1.068982761E-3,-6.765133142E-2,3.268032894E-2
8.839647440E-1,1.068982761E-3,-7.009471953E-2,3.268032894E-2
8.864434940E-1,-1.527118147E-4,-7.498150319E-2,3.512371704E-2
8.889214630E-1,-3.817795310E-3,-7.620319724E-2,3.634541109E-2
8.914002650E-1,-2.596100792E-3,-8.231166750E-2,3.756710514E-2
8.938799000E-1,-2.596100792E-3,-8.719844371E-2,3.878879920E-2
8.963586500E-1,-5.039489828E-3,-9.208522737E-2,4.123219103E-2
8.988366190E-1,-3.817795310E-3,-9.575030953E-2,4.245388508E-2
9.013154210E-1,-1.374406274E-3,-9.941539168E-2,4.367557913E-2
9.037950570E-1,1.068982761E-3,-1.030804738E-1,4.489727318E-2
9.062738070E-1,2.290677279E-3,-1.079672500E-1,4.489727318E-2
9.087517750E-1,4.734066315E-3,-1.116323397E-1,4.611896724E-2
9.112305770E-1,7.177455351E-3,-1.140757278E-1,4.611896724E-2
9.137102130E-1,1.206423342E-2,-1.177408099E-1,4.611896724E-2
9.161889630E-1,1.572931744E-2,-1.201841980E-1,4.734066129E-2
9.186669840E-1,1.817270555E-2,-1.201841980E-1,4.856235534E-2
9.211457340E-1,2.305948362E-2,-1.189625040E-1,4.611896724E-2
9.236254210E-1,2.794626169E-2,-1.189625040E-1,4.611896724E-2
9.261041190E-1,3.038965166E-2,-1.177408099E-1,4.611896724E-2
9.285821400E-1,3.527642787E-2,-1.177408099E-1,4.245388508E-2
9.310609420E-1,3.894151375E-2,-1.165191159E-1,4.123219103E-2
9.335405770E-1,4.260659590E-2,-1.152974218E-1,4.123219103E-2
9.360193270E-1,4.504998401E-2,-1.140757278E-1,3.878879920E-2
9.384972960E-1,4.871506989E-2,-1.104106456E-1,3.634541109E-2
9.409760980E-1,5.115845799E-2,-1.104106456E-1,3.512371704E-2
9.434557340E-1,5.360184610E-2,-1.091889441E-1,3.268032894E-2
9.459344840E-1,5.482354015E-2,-1.067455560E-1,3.268032894E-2
9.484124520E-1,5.604523420E-2,-1.043021679E-1,3.145863488E-2
9.508912550E-1,5.848862603E-2,-1.079672500E-1,3.023693897E-2
9.533708900E-1,5.971032009E-2,-1.091889441E-1,2.901524492E-2
9.558496400E-1,6.093201414E-2,-1.079672500E-1,2.901524492E-2
9.583276090E-1,5.971032009E-2,-1.104106456E-1,2.901524492E-2
9.608064110E-1,5.848862603E-2,-1.140757278E-1,2.657185495E-2
9.632860460E-1,5.848862603E-2,-1.177408099E-1,2.779355086E-2
9.657647960E-1,5.726693198E-2,-1.226275861E-1,2.901524492E-2
9.682427650E-1,5.604523420E-2,-1.287360638E-1,3.023693897E-2
9.707215670E-1,5.360184610E-2,-1.372879148E-1,3.023693897E-2
9.732012550E-1,5.238015205E-2,-1.433963925E-1,3.145863488E-2
9.756799520E-1,4.993676394E-2,-1.507265568E-1,3.268032894E-2
9.781579730E-1,4.871506989E-2,-1.592784226E-1,3.268032894E-2
9.806367750E-1,4.504998401E-2,-1.666085869E-1,3.512371704E-2
9.831164110E-1,4.382828996E-2,-1.727170646E-1,3.756710514E-2
9.855951610E-1,4.260659590E-2,-1.800472289E-1,3.878879920E-2
9.880731300E-1,4.016320780E-2,-1.849340051E-1,3.878879920E-2
9.905519320E-1,3.894151375E-2,-1.885990947E-1,3.878879920E-2
9.930315670E-1,3.771981969E-2,-1.922641695E-1,4.001049697E-2
9.955103170E-1,3.894151375E-2,-1.959292591E-1,4.245388508E-2
9.979882860E-1,3.894151375E-2,-2.020377368E-1,4.123219103E-2
1.000467088E0,3.649812192E-2,-2.069245130E-1,4.123219103E-2
1.002946723E0,3.894151375E-2,-2.093679011E-1,4.245388508E-2
1.005425473E0,3.894151375E-2,-2.105895877E-1,4.367557913E-2
1.007903442E0,3.894151375E-2,-2.130329758E-1,4.489727318E-2
1.010382244E0,4.016320780E-2,-2.130329758E-1,4.367557913E-2
1.012861880E0,4.138490185E-2,-2.130329758E-1,4.245388508E-2
1.015340630E0,4.382828996E-2,-2.142546773E-1,4.123219103E-2
1.017818598E0,4.504998401E-2,-2.118112892E-1,4.245388508E-2
1.020297400E0,4.504998401E-2,-2.105895877E-1,4.245388508E-2
1.022777036E0,4.627167806E-2,-2.105895877E-1,4.123219103E-2
1.025255786E0,4.627167806E-2,-2.081461996E-1,4.001049697E-2
1.027733807E0,4.871506989E-2,-2.069245130E-1,3.878879920E-2
1.030212557E0,4.871506989E-2,-2.032594234E-1,3.756710514E-2
1.032692244E0,5.115845799E-2,-1.995943487E-1,3.756710514E-2
1.035170942E0,5.238015205E-2,-1.971509457E-1,3.512371704E-2
1.037648963E0,5.238015205E-2,-1.947075576E-1,3.634541109E-2
1.040127765E0,5.360184610E-2,-1.934858710E-1,3.512371704E-2
1.042607400E0,5.482354015E-2,-1.922641695E-1,3.512371704E-2
1.045086150E0,5.604523420E-2,-1.922641695E-1,3.390202299E-2
1.047564119E0,5.604523420E-2,-1.910424829E-1,3.390202299E-2
1.050042921E0,5.848862603E-2,-1.910424829E-1,3.268032894E-2
1.052522557E0,5.848862603E-2,-1.898207814E-1,3.390202299E-2
1.055001307E0,6.093201414E-2,-1.910424829E-1,3.145863488E-2
1.057479275E0,6.215370819E-2,-1.898207814E-1,3.145863488E-2
1.059958077E0,6.459710002E-2,-1.898207814E-1,3.145863488E-2
1.062437713E0,6.337540597E-2,-1.861557066E-1,3.145863488E-2
1.064916463E0,6.459710002E-2,-1.873773932E-1,3.145863488E-2
1.067394432E0,6.581879407E-2,-1.922641695E-1,3.023693897E-2
1.069873234E0,6.581879407E-2,-1.959292591E-1,3.023693897E-2
1.072352869E0,6.704048812E-2,-1.983726472E-1,3.268032894E-2
1.074831619E0,6.704048812E-2,-1.995943487E-1,3.268032894E-2
1.077309588E0,6.826218218E-2,-2.044811249E-1,3.145863488E-2
1.079788390E0,6.581879407E-2,-2.093679011E-1,3.268032894E-2
1.082268077E0,6.581879407E-2,-2.130329758E-1,3.390202299E-2
1.084746775E0,6.337540597E-2,-2.154763639E-1,3.390202299E-2
1.087224796E0,6.337540597E-2,-2.166980654E-1,3.145863488E-2
1.089703598E0,6.337540597E-2,-2.191414535E-1,3.268032894E-2
1.092183234E0,6.093201414E-2,-2.191414535E-1,3.268032894E-2
1.094661984E0,5.971032009E-2,-2.203631550E-1,3.145863488E-2
1.097139952E0,6.093201414E-2,-2.203631550E-1,2.901524492E-2
1.099618755E0,5.971032009E-2,-2.191414535E-1,3.023693897E-2
1.102098390E0,5.971032009E-2,-2.203631550E-1,2.901524492E-2
1.104577140E0,5.971032009E-2,-2.191414535E-1,2.901524492E-2
1.107055109E0,5.848862603E-2,-2.154763639E-1,2.535016090E-2
1.109533911E0,5.971032009E-2,-2.142546773E-1,2.290677279E-2
1.112013546E0,5.971032009E-2,-2.105895877E-1,2.290677279E-2
1.114492296E0,5.848862603E-2,-2.069245130E-1,1.924168877E-2
1.116970265E0,5.971032009E-2,-2.057028115E-1,1.679829881E-2
1.119449067E0,5.726693198E-2,-1.983726472E-1,1.313321572E-2
1.121928702E0,5.604523420E-2,-1.947075576E-1,1.068982668E-2
1.124407452E0,5.360184610E-2,-1.873773932E-1,8.246437646E-3
1.126885421E0,4.993676394E-2,-1.824906170E-1,7.024743594E-3
1.129364223E0,4.749337584E-2,-1.739387512E-1,4.581354558E-3
1.131843911E0,4.504998401E-2,-1.653869003E-1,2.137965523E-3
1.134322609E0,4.138490185E-2,-1.568350345E-1,-1.527118147E-3
1.136800630E0,3.771981969E-2,-1.495048702E-1,-3.970507067E-3
1.139279380E0,3.405473381E-2,-1.397313178E-1,-6.413896102E-3
1.141759067E0,3.038965166E-2,-1.324011385E-1,-7.635590620E-3
1.144237765E0,2.672456764E-2,-1.238492802E-1,-1.007897966E-2
1.146715786E0,2.183778957E-2,-1.165191159E-1,-1.130067464E-2
1.149194588E0,1.939439960E-2,-1.091889441E-1,-1.252236869E-2
1.151674223E0,1.695101149E-2,-1.006370857E-1,-1.252236869E-2
1.154152973E0,1.206423342E-2,-9.697200358E-2,-1.496575773E-2
1.156630942E0,8.399149403E-3,-9.330692142E-2,-1.740914769E-2
1.159109744E0,4.734066315E-3,-8.842013776E-2,-1.496575773E-2
1.161589380E0,1.068982761E-3,-8.108997345E-2,-1.374406368E-2
1.164068130E0,-2.596100792E-3,-7.986827940E-2,-1.496575773E-2
1.166546098E0,-6.261184346E-3,-7.986827940E-2,-1.374406368E-2
1.169024900E0,-6.261184346E-3,-7.864658535E-2,-1.374406368E-2
1.171504536E0,-8.704573847E-3,-7.620319724E-2,-1.252236869E-2
1.173983286E0,-1.114796288E-2,-7.864658535E-2,-1.130067464E-2
1.176461255E0,-1.236965694E-2,-7.986827940E-2,-1.007897966E-2
1.178940057E0,-1.359135192E-2,-8.231166750E-2,-8.857285604E-3
1.181419744E0,-1.603474095E-2,-8.231166750E-2,-7.635590620E-3
1.183898442E0,-1.847812906E-2,-8.719844371E-2,-5.192201585E-3
1.186376463E0,-1.725643501E-2,-8.842013776E-2,-6.413896102E-3
1.188855213E0,-1.847812906E-2,-9.208522737E-2,-3.970507067E-3
1.191334900E0,-1.847812906E-2,-9.452861547E-2,-2.748812549E-3
1.193813598E0,-1.969982497E-2,-9.575030953E-2,-2.748812549E-3
1.196291619E0,-1.969982497E-2,-9.697200358E-2,-1.527118147E-3
1.198770421E0,-1.847812906E-2,-9.819369763E-2,9.162708884E-4
1.201250057E0,-1.725643501E-2,-9.697200358E-2,9.162708884E-4
1.203728807E0,-1.725643501E-2,-9.330692142E-2,2.137965523E-3
1.206206775E0,-1.603474095E-2,-8.964183182E-2,9.162708884E-4
1.208685577E0,-1.359135192E-2,-8.475505561E-2,2.137965523E-3
1.211165213E0,-1.236965694E-2,-7.620319724E-2,3.359660041E-3
1.213643963E0,-1.114796288E-2,-7.253811508E-2,3.359660041E-3
1.216121932E0,-9.926267900E-3,-6.520794332E-2,4.581354558E-3
1.218600734E0,-7.482878864E-3,-5.665608495E-2,3.359660041E-3
1.221080369E0,-6.261184346E-3,-4.810422286E-2,3.359660041E-3
1.223559119E0,-5.039489828E-3,-3.955236077E-2,2.137965523E-3
1.226037088E0,-3.817795310E-3,-2.977880463E-2,2.137965523E-3
1.228515890E0,-2.596100792E-3,-2.122694254E-2,9.162708884E-4
1.230995525E0,-1.374406274E-3,-1.511846948E-2,-3.054236295E-4
1.233474275E0,-1.527118147E-4,-7.788302377E-3,2.137965523E-3
1.235952296E0,-1.374406274E-3,7.635590737E-4,9.162708884E-4
1.238431046E0,-1.527118147E-4,8.093725890E-3,9.162708884E-4
1.240910734E0,2.290677279E-3,1.420219894E-2,9.162708884E-4
1.243389432E0,2.290677279E-3,2.397575416E-2,2.137965523E-3
1.245867452E0,3.512371797E-3,2.764083818E-2,9.162708884E-4
1.248346255E0,2.290677279E-3,2.886253223E-2,2.137965523E-3
1.250825890E0,2.290677279E-3,3.130592033E-2,2.137965523E-3
1.253304640E0,2.290677279E-3,3.374931216E-2,2.137965523E-3
1.255782609E0,2.290677279E-3,3.619270027E-2,9.162708884E-4
1.258261411E0,2.290677279E-3,3.619270027E-2,3.359660041E-3
1.260741046E0,2.290677279E-3,3.619270027E-2,3.359660041E-3
1.263219796E0,2.290677279E-3,3.374931216E-2,3.359660041E-3
1.265697765E0,1.068982761E-3,3.252761811E-2,3.359660041E-3
1.268176567E0,1.068982761E-3,3.008422814E-2,4.581354558E-3
1.270656202E0,1.068982761E-3,2.764083818E-2,4.581354558E-3
1.273134952E0,2.290677279E-3,2.519745007E-2,3.359660041E-3
1.275612921E0,2.290677279E-3,2.397575416E-2,4.581354558E-3
1.278091723E0,1.068982761E-3,1.908897609E-2,5.803049076E-3
1.280571359E0,1.068982761E-3,1.664558798E-2,4.581354558E-3
1.283050109E0,1.068982761E-3,1.542389300E-2,4.581354558E-3
1.285528130E0,-1.527118147E-4,1.420219894E-2,5.803049076E-3
1.288006880E0,-1.374406274E-3,1.175880991E-2,4.581354558E-3
1.290486567E0,-1.374406274E-3,9.315420873E-3,4.581354558E-3
1.292965265E0,-2.596100792E-3,1.053711493E-2,8.246437646E-3
1.295443286E0,-1.374406274E-3,8.093725890E-3,7.024743594E-3
1.297922036E0,-1.374406274E-3,6.872031838E-3,7.024743594E-3
1.300401723E0,-2.596100792E-3,4.428642802E-3,7.024743594E-3
1.302880473E0,-1.374406274E-3,5.650337320E-3,7.024743594E-3
1.305358442E0,-2.596100792E-3,5.650337320E-3,9.468132630E-3
1.307837244E0,-2.596100792E-3,4.428642802E-3,9.468132630E-3
1.310316880E0,-2.596100792E-3,3.206948051E-3,9.468132630E-3
1.312795630E0,-1.374406274E-3,3.206948051E-3,9.468132630E-3
1.315273598E0,-1.527118147E-4,1.985253533E-3,9.468132630E-3
1.317752400E0,-1.374406274E-3,3.206948051E-3,1.068982668E-2
1.320232036E0,-1.527118147E-4,4.428642802E-3,1.068982668E-2
1.322710786E0,1.068982761E-3,4.428642802E-3,1.191152167E-2
1.325188755E0,2.290677279E-3,4.428642802E-3,1.068982668E-2
1.327667557E0,3.512371797E-3,4.428642802E-3,1.191152167E-2
1.330147192E0,3.512371797E-3,3.206948051E-3,1.068982668E-2
1.332625942E0,5.955760833E-3,-4.581354442E-4,9.468132630E-3
1.335103911E0,4.734066315E-3,7.635590737E-4,1.191152167E-2
1.337582713E0,7.177455351E-3,-2.901524538E-3,1.068982668E-2
1.340062348E0,8.399149403E-3,-4.123218823E-3,1.068982668E-2
1.342541098E0,7.177455351E-3,-5.344913341E-3,1.068982668E-2
1.345019119E0,9.620844387E-3,-6.566607859E-3,1.313321572E-2
1.347497869E0,9.620844387E-3,-1.023169141E-2,1.313321572E-2
1.349977557E0,1.084253844E-2,-1.023169141E-2,1.435491070E-2
1.352456307E0,1.328592747E-2,-1.267508045E-2,1.313321572E-2
1.354934275E0,1.328592747E-2,-1.267508045E-2,1.435491070E-2
1.357413077E0,1.572931744E-2,-1.389677543E-2,1.435491070E-2
1.359892713E0,1.572931744E-2,-1.389677543E-2,1.435491070E-2
1.362371463E0,1.572931744E-2,-1.878355257E-2,1.557660475E-2
1.364849432E0,1.817270555E-2,-1.634016447E-2,1.801999472E-2
1.367328234E0,1.939439960E-2,-1.756185852E-2,1.679829881E-2
1.369807869E0,2.061609551E-2,-1.878355257E-2,1.679829881E-2
1.372286619E0,2.183778957E-2,-1.756185852E-2,1.679829881E-2
1.374764588E0,2.183778957E-2,-1.756185852E-2,1.801999472E-2
1.377243390E0,2.305948362E-2,-1.511846948E-2,1.924168877E-2
1.379723025E0,2.550287358E-2,-1.511846948E-2,1.924168877E-2
1.382201775E0,2.672456764E-2,-1.389677543E-2,1.801999472E-2
1.384679744E0,2.794626169E-2,-1.389677543E-2,1.801999472E-2
1.387158546E0,2.794626169E-2,-1.145338640E-2,1.679829881E-2
1.389638234E0,2.916795574E-2,-6.566607859E-3,1.435491070E-2
1.392116932E0,3.038965166E-2,-6.566607859E-3,1.435491070E-2
1.394594952E0,3.161134571E-2,-4.123218823E-3,1.191152167E-2
1.397073702E0,3.405473381E-2,-1.679830020E-3,1.191152167E-2
1.399553390E0,3.161134571E-2,7.635590737E-4,1.313321572E-2
1.402032088E0,3.405473381E-2,3.206948051E-3,8.246437646E-3
1.404510109E0,3.405473381E-2,4.428642802E-3,7.024743594E-3
1.406988911E0,3.527642787E-2,5.650337320E-3,3.359660041E-3
1.409468546E0,3.527642787E-2,8.093725890E-3,3.359660041E-3
1.411947296E0,3.649812192E-2,1.175880991E-2,9.162708884E-4
1.414425265E0,3.527642787E-2,1.542389300E-2,-3.054236295E-4
1.416904067E0,3.527642787E-2,1.786728203E-2,-2.748812549E-3
1.419383702E0,3.405473381E-2,1.786728203E-2,-2.748812549E-3
1.421862452E0,3.405473381E-2,1.908897609E-2,-3.970507067E-3
1.424340421E0,3.283303976E-2,2.275406010E-2,-3.970507067E-3
1.426819223E0,3.283303976E-2,2.275406010E-2,-5.192201585E-3
1.429298859E0,3.161134571E-2,2.275406010E-2,-5.192201585E-3
1.431777609E0,3.038965166E-2,2.275406010E-2,-3.970507067E-3
1.434255577E0,2.916795574E-2,1.786728203E-2,-5.192201585E-3
1.436734380E0,2.672456764E-2,1.542389300E-2,-3.970507067E-3
1.439214067E0,2.305948362E-2,1.420219894E-2,-2.748812549E-3
1.441692765E0,2.183778957E-2,8.093725890E-3,-3.054236295E-4
1.444170786E0,2.061609551E-2,4.428642802E-3,2.137965523E-3
1.446649536E0,1.695101149E-2,1.985253533E-3,9.162708884E-4
1.449129223E0,1.450762246E-2,7.635590737E-4,9.162708884E-4
1.451607973E0,1.206423342E-2,-6.566607859E-3,3.359660041E-3
1.454085942E0,8.399149403E-3,-1.267508045E-2,7.024743594E-3
1.456564744E0,4.734066315E-3,-1.878355257E-2,8.246437646E-3
1.459044380E0,3.512371797E-3,-2.489202656E-2,9.468132630E-3
1.461523130E0,-1.527118147E-4,-2.611372061E-2,1.068982668E-2
1.464001098E0,-1.374406274E-3,-2.977880463E-2,1.068982668E-2
1.466479900E0,-3.817795310E-3,-2.977880463E-2,1.191152167E-2
1.468959536E0,-6.261184346E-3,-3.100049868E-2,1.435491070E-2
1.471438286E0,-6.261184346E-3,-3.344388679E-2,1.313321572E-2
1.473916255E0,-7.482878864E-3,-3.466558084E-2,1.557660475E-2
1.476395057E0,-8.704573847E-3,-3.466558084E-2,1.557660475E-2
1.478874692E0,-1.114796288E-2,-3.222219273E-2,1.557660475E-2
1.481353442E0,-1.114796288E-2,-3.222219273E-2,1.801999472E-2
1.483831411E0,-1.114796288E-2,-3.100049868E-2,1.801999472E-2
1.486310213E0,-1.114796288E-2,-2.855710872E-2,1.679829881E-2
1.488789848E0,-1.236965694E-2,-2.367033064E-2,1.924168877E-2
1.491268598E0,-9.926267900E-3,-2.489202656E-2,1.924168877E-2
1.493746619E0,-8.704573847E-3,-1.756185852E-2,1.924168877E-2
1.496225369E0,-7.482878864E-3,-1.267508045E-2,1.924168877E-2
1.498705057E0,-7.482878864E-3,-1.023169141E-2,1.924168877E-2
1.501183755E0,-3.817795310E-3,-5.344913341E-3,1.924168877E-2
1.503661775E0,-2.596100792E-3,-1.679830020E-3,1.801999472E-2
1.506140577E0,-1.527118147E-4,1.985253533E-3,1.924168877E-2
1.508620213E0,3.512371797E-3,5.650337320E-3,1.801999472E-2
1.511098963E0,5.955760833E-3,9.315420873E-3,1.679829881E-2
1.513576932E0,8.399149403E-3,1.298050396E-2,1.801999472E-2
1.516055734E0,1.328592747E-2,1.542389300E-2,1.801999472E-2
1.518535369E0,1.572931744E-2,1.786728203E-2,1.679829881E-2
1.521014119E0,1.817270555E-2,1.664558798E-2,1.679829881E-2
1.523492088E0,2.183778957E-2,1.420219894E-2,1.801999472E-2
1.525970890E0,2.428117767E-2,1.298050396E-2,1.801999472E-2
1.528450525E0,2.794626169E-2,1.053711493E-2,1.801999472E-2
1.530929275E0,3.161134571E-2,5.650337320E-3,1.924168877E-2
1.533407244E0,3.161134571E-2,-4.581354442E-4,1.924168877E-2
1.535886046E0,3.283303976E-2,-6.566607859E-3,2.046338283E-2
1.538365682E0,3.283303976E-2,-1.267508045E-2,2.168507688E-2
1.540844432E0,3.405473381E-2,-1.878355257E-2,2.290677279E-2
1.543322452E0,3.405473381E-2,-2.611372061E-2,2.290677279E-2
1.545801202E0,3.405473381E-2,-3.344388679E-2,2.412846684E-2
1.548280890E0,3.527642787E-2,-3.710897267E-2,2.657185495E-2
1.550759588E0,3.283303976E-2,-4.199574888E-2,2.779355086E-2
1.553237609E0,3.283303976E-2,-4.566083103E-2,2.901524492E-2
1.555716411E0,3.405473381E-2,-4.932591692E-2,2.901524492E-2
1.558196046E0,3.283303976E-2,-4.932591692E-2,3.023693897E-2
1.560674796E0,3.161134571E-2,-5.054761097E-2,3.145863488E-2
1.563152765E0,3.161134571E-2,-4.932591692E-2,3.268032894E-2
1.565631567E0,3.161134571E-2,-4.810422286E-2,3.268032894E-2
1.568111202E0,3.038965166E-2,-4.688252881E-2,3.512371704E-2
1.570589952E0,3.038965166E-2,-4.810422286E-2,3.390202299E-2
1.573067921E0,2.916795574E-2,-4.566083103E-2,3.390202299E-2
1.575546723E0,2.916795574E-2,-4.443913698E-2,3.512371704E-2
1.578026359E0,2.794626169E-2,-4.443913698E-2,3.390202299E-2
1.580505109E0,2.672456764E-2,-4.321744293E-2,3.512371704E-2
1.582983077E0,2.672456764E-2,-4.321744293E-2,3.512371704E-2
1.585461880E0,2.428117767E-2,-4.077405483E-2,3.634541109E-2
1.587941515E0,2.305948362E-2,-4.077405483E-2,3.634541109E-2
1.590420265E0,2.305948362E-2,-3.955236077E-2,3.512371704E-2
1.592898234E0,2.305948362E-2,-3.955236077E-2,3.512371704E-2
1.595377036E0,2.061609551E-2,-3.588727489E-2,3.512371704E-2
1.597856723E0,1.939439960E-2,-3.833066672E-2,3.268032894E-2
1.600335421E0,1.817270555E-2,-3.466558084E-2,3.512371704E-2
1.602813442E0,1.695101149E-2,-3.344388679E-2,3.268032894E-2
1.605292192E0,1.450762246E-2,-3.222219273E-2,3.268032894E-2
1.607771880E0,1.328592747E-2,-2.977880463E-2,3.145863488E-2
1.610250630E0,1.206423342E-2,-2.733541466E-2,2.901524492E-2
1.612728598E0,1.206423342E-2,-2.855710872E-2,3.268032894E-2
1.615207400E0,1.084253844E-2,-2.733541466E-2,3.145863488E-2
1.617687036E0,1.084253844E-2,-2.611372061E-2,3.145863488E-2
1.620165786E0,1.328592747E-2,-2.367033064E-2,3.145863488E-2
1.622643755E0,1.206423342E-2,-2.244863659E-2,3.145863488E-2
1.625122557E0,1.206423342E-2,-2.489202656E-2,2.779355086E-2
1.627602192E0,1.328592747E-2,-2.244863659E-2,2.779355086E-2
1.630080942E0,1.450762246E-2,-2.367033064E-2,2.779355086E-2
1.632558911E0,1.572931744E-2,-2.611372061E-2,2.657185495E-2
1.635037713E0,1.572931744E-2,-2.611372061E-2,2.535016090E-2
1.637517348E0,1.695101149E-2,-2.977880463E-2,2.657185495E-2
1.639996098E0,1.695101149E-2,-3.222219273E-2,2.657185495E-2
1.642474119E0,1.695101149E-2,-3.222219273E-2,2.535016090E-2
1.644952869E0,1.817270555E-2,-3.588727489E-2,2.535016090E-2
1.647432557E0,1.817270555E-2,-3.710897267E-2,2.535016090E-2
1.649911255E0,1.939439960E-2,-3.710897267E-2,2.657185495E-2
1.652389275E0,1.817270555E-2,-3.833066672E-2,2.535016090E-2
1.654868025E0,1.939439960E-2,-4.321744293E-2,2.535016090E-2
1.657347713E0,1.695101149E-2,-4.199574888E-2,2.657185495E-2
1.659826463E0,1.695101149E-2,-4.199574888E-2,2.779355086E-2
1.662304432E0,1.695101149E-2,-4.321744293E-2,2.901524492E-2
1.664783234E0,1.572931744E-2,-4.443913698E-2,2.657185495E-2
1.667262869E0,1.695101149E-2,-4.321744293E-2,2.657185495E-2
1.669741619E0,1.328592747E-2,-4.199574888E-2,2.779355086E-2
1.672219588E0,1.450762246E-2,-4.199574888E-2,2.657185495E-2
1.674698390E0,1.328592747E-2,-3.710897267E-2,2.779355086E-2
1.677178025E0,1.450762246E-2,-3.710897267E-2,2.901524492E-2
1.679656775E0,1.206423342E-2,-3.466558084E-2,2.901524492E-2
1.682134744E0,1.084253844E-2,-3.344388679E-2,2.779355086E-2
1.684613546E0,1.084253844E-2,-3.222219273E-2,2.779355086E-2
1.687093182E0,1.084253844E-2,-2.855710872E-2,2.779355086E-2
1.689571932E0,8.399149403E-3,-3.100049868E-2,2.535016090E-2
1.692049952E0,8.399149403E-3,-3.100049868E-2,2.535016090E-2
1.694528702E0,5.955760833E-3,-2.977880463E-2,2.657185495E-2
1.697008390E0,8.399149403E-3,-2.733541466E-2,2.535016090E-2
1.699487088E0,9.620844387E-3,-2.855710872E-2,2.535016090E-2
1.701965109E0,7.177455351E-3,-2.611372061E-2,2.412846684E-2
1.704443911E0,7.177455351E-3,-2.611372061E-2,2.168507688E-2
1.706923546E0,7.177455351E-3,-2.367033064E-2,2.168507688E-2
1.709402296E0,8.399149403E-3,-2.489202656E-2,2.168507688E-2
1.711880265E0,8.399149403E-3,-2.489202656E-2,1.924168877E-2
1.714359067E0,7.177455351E-3,-2.244863659E-2,1.924168877E-2
1.716838702E0,7.177455351E-3,-2.244863659E-2,1.924168877E-2
1.719317452E0,8.399149403E-3,-1.756185852E-2,1.801999472E-2
1.721795421E0,8.399149403E-3,-1.756185852E-2,1.557660475E-2
1.724274223E0,7.177455351E-3,-1.511846948E-2,1.557660475E-2
1.726753859E0,8.399149403E-3,-1.634016447E-2,1.191152167E-2
1.729232609E0,8.399149403E-3,-1.267508045E-2,1.313321572E-2
1.731710577E0,8.399149403E-3,-9.009997360E-3,1.191152167E-2
1.734189380E0,8.399149403E-3,-9.009997360E-3,8.246437646E-3
1.736669015E0,1.084253844E-2,-5.344913341E-3,8.246437646E-3
1.739147765E0,1.084253844E-2,-2.901524538E-3,4.581354558E-3
1.741625786E0,1.084253844E-2,-2.901524538E-3,2.137965523E-3
1.744104536E0,1.206423342E-2,-4.581354442E-4,2.137965523E-3
1.746584223E0,1.206423342E-2,4.428642802E-3,9.162708884E-4
1.749062921E0,1.206423342E-2,3.206948051E-3,-2.748812549E-3
1.751540942E0,1.328592747E-2,6.872031838E-3,-3.970507067E-3
1.754019692E0,1.328592747E-2,9.315420873E-3,-5.192201585E-3
1.756499380E0,1.328592747E-2,1.053711493E-2,-6.413896102E-3
1.758978130E0,1.328592747E-2,1.175880991E-2,-6.413896102E-3
1.761456098E0,1.450762246E-2,1.175880991E-2,-8.857285604E-3
1.763934900E0,1.450762246E-2,1.298050396E-2,-1.007897966E-2
1.766414536E0,1.328592747E-2,1.298050396E-2,-8.857285604E-3
1.768893286E0,1.450762246E-2,1.420219894E-2,-1.007897966E-2
1.771371255E0,1.206423342E-2,1.175880991E-2,-1.007897966E-2
1.773850057E0,1.084253844E-2,1.053711493E-2,-1.252236869E-2
1.776329692E0,8.399149403E-3,9.315420873E-3,-1.252236869E-2
1.778808442E0,7.177455351E-3,9.315420873E-3,-1.130067464E-2
1.781286411E0,5.955760833E-3,5.650337320E-3,-1.252236869E-2
1.783765213E0,4.734066315E-3,7.635590737E-4,-1.130067464E-2
1.786244848E0,3.512371797E-3,-4.581354442E-4,-1.252236869E-2
1.788723598E0,1.068982761E-3,-2.901524538E-3,-1.252236869E-2
1.791201567E0,-1.374406274E-3,-5.344913341E-3,-1.252236869E-2
1.793680369E0,-2.596100792E-3,-6.566607859E-3,-1.374406368E-2
1.796160005E0,-5.039489828E-3,-4.123218823E-3,-1.374406368E-2
1.798638755E0,-7.482878864E-3,-5.344913341E-3,-1.007897966E-2
1.801116775E0,-8.704573847E-3,-4.123218823E-3,-1.252236869E-2
1.803595577E0,-1.114796288E-2,-2.901524538E-3,-1.374406368E-2
1.806075213E0,-1.236965694E-2,7.635590737E-4,-1.374406368E-2
1.808553911E0,-1.603474095E-2,4.428642802E-3,-1.496575773E-2
1.811031932E0,-1.725643501E-2,6.872031838E-3,-1.374406368E-2
1.813510734E0,-1.847812906E-2,1.175880991E-2,-1.374406368E-2
1.815990369E0,-2.092151903E-2,1.908897609E-2,-1.618745178E-2
1.818469119E0,-2.336490713E-2,2.397575416E-2,-1.496575773E-2
1.820947088E0,-2.458660305E-2,3.374931216E-2,-1.740914769E-2
1.823425890E0,-2.458660305E-2,3.863608837E-2,-1.740914769E-2
1.825905525E0,-2.580829710E-2,4.474456236E-2,-2.107422985E-2
1.828384275E0,-2.702999115E-2,5.085303262E-2,-1.985253580E-2
1.830862244E0,-2.825168520E-2,5.573981255E-2,-2.229592577E-2
1.833341046E0,-2.825168520E-2,5.940489471E-2,-2.107422985E-2
1.835820682E0,-2.702999115E-2,6.306997687E-2,-2.229592577E-2
1.838299432E0,-2.825168520E-2,6.917845458E-2,-2.229592577E-2
1.840777400E0,-2.825168520E-2,7.284353673E-2,-2.229592577E-2
1.843256202E0,-2.825168520E-2,7.650861889E-2,-2.473931387E-2
1.845735890E0,-2.702999115E-2,7.650861889E-2,-2.596100792E-2
1.848214588E0,-2.580829710E-2,7.895200700E-2,-2.596100792E-2
1.850692609E0,-2.458660305E-2,7.895200700E-2,-2.596100792E-2
1.853171359E0,-2.336490713E-2,7.773031294E-2,-2.351761982E-2
1.855651046E0,-2.214321308E-2,7.528692484E-2,-2.351761982E-2
1.858129744E0,-1.969982497E-2,7.528692484E-2,-2.473931387E-2
1.860607765E0,-1.969982497E-2,7.284353673E-2,-2.229592577E-2
1.863086567E0,-1.969982497E-2,6.917845458E-2,-2.351761982E-2
1.865566202E0,-1.847812906E-2,6.306997687E-2,-2.229592577E-2
1.868044952E0,-1.603474095E-2,5.818320066E-2,-2.107422985E-2
1.870522921E0,-1.481304597E-2,5.207473040E-2,-1.985253580E-2
1.873001723E0,-1.359135192E-2,4.963133857E-2,-1.863084175E-2
1.875481359E0,-1.359135192E-2,4.352286831E-2,-1.740914769E-2
1.877960109E0,-1.481304597E-2,4.107947648E-2,-1.740914769E-2
1.880438077E0,-1.481304597E-2,3.741439432E-2,-1.618745178E-2
1.882916880E0,-1.359135192E-2,3.497100621E-2,-1.374406368E-2
1.885396515E0,-1.236965694E-2,3.130592033E-2,-1.374406368E-2
1.887875265E0,-1.481304597E-2,2.764083818E-2,-1.374406368E-2
1.890353286E0,-1.481304597E-2,2.641914412E-2,-1.252236869E-2
1.892832036E0,-1.481304597E-2,2.641914412E-2,-1.252236869E-2
1.895311671E0,-1.481304597E-2,2.397575416E-2,-1.130067464E-2
1.897790421E0,-1.603474095E-2,2.397575416E-2,-1.130067464E-2
1.900268442E0,-1.725643501E-2,2.519745007E-2,-1.130067464E-2
1.902747192E0,-1.847812906E-2,2.519745007E-2,-1.130067464E-2
1.905226880E0,-1.725643501E-2,2.764083818E-2,-1.130067464E-2
1.907705630E0,-1.847812906E-2,3.130592033E-2,-1.130067464E-2
1.910183598E0,-1.847812906E-2,3.252761811E-2,-8.857285604E-3
1.912662400E0,-1.847812906E-2,3.497100621E-2,-8.857285604E-3
1.915142036E0,-1.969982497E-2,3.741439432E-2,-8.857285604E-3
1.917620786E0,-1.969982497E-2,4.107947648E-2,-1.130067464E-2
1.920098755E0,-1.969982497E-2,4.474456236E-2,-1.130067464E-2
1.922577557E0,-2.214321308E-2,4.718795046E-2,-1.007897966E-2
1.925057192E0,-2.214321308E-2,4.963133857E-2,-1.130067464E-2
1.927535942E0,-2.092151903E-2,5.329642445E-2,-1.252236869E-2
1.930013911E0,-2.092151903E-2,5.573981255E-2,-1.130067464E-2
1.932492713E0,-2.214321308E-2,5.696150661E-2,-1.374406368E-2
1.934972348E0,-2.214321308E-2,5.818320066E-2,-1.252236869E-2
1.937451098E0,-2.336490713E-2,5.818320066E-2,-1.374406368E-2
1.939929119E0,-2.092151903E-2,6.062658876E-2,-1.496575773E-2
1.942407869E0,-2.092151903E-2,6.062658876E-2,-1.496575773E-2
1.944887557E0,-2.092151903E-2,6.062658876E-2,-1.618745178E-2
1.947366255E0,-2.214321308E-2,5.940489471E-2,-1.618745178E-2
1.949844275E0,-2.214321308E-2,5.818320066E-2,-1.618745178E-2
1.952323025E0,-2.092151903E-2,5.573981255E-2,-1.740914769E-2
1.954802713E0,-1.847812906E-2,5.207473040E-2,-1.618745178E-2
1.957281463E0,-1.725643501E-2,5.085303262E-2,-1.740914769E-2
1.959759432E0,-1.603474095E-2,4.840964451E-2,-1.863084175E-2
1.962238234E0,-1.481304597E-2,4.352286831E-2,-1.863084175E-2
1.964717869E0,-1.481304597E-2,4.230117425E-2,-1.740914769E-2
1.967196619E0,-1.359135192E-2,3.741439432E-2,-1.740914769E-2
1.969674588E0,-1.114796288E-2,3.374931216E-2,-1.618745178E-2
1.972153390E0,-1.114796288E-2,2.886253223E-2,-1.496575773E-2
1.974633025E0,-9.926267900E-3,2.886253223E-2,-1.496575773E-2
1.977111775E0,-7.482878864E-3,2.764083818E-2,-1.252236869E-2
1.979589744E0,-7.482878864E-3,2.275406010E-2,-1.374406368E-2
1.982068546E0,-6.261184346E-3,1.908897609E-2,-1.374406368E-2
1.984548182E0,-3.817795310E-3,1.786728203E-2,-1.252236869E-2
1.987026932E0,-5.039489828E-3,1.542389300E-2,-1.130067464E-2
1.989504900E0,-5.039489828E-3,1.298050396E-2,-1.130067464E-2
1.991983702E0,-1.374406274E-3,1.298050396E-2,-8.857285604E-3
1.994463390E0,-1.374406274E-3,9.315420873E-3,-7.635590620E-3
1.996942088E0,-1.527118147E-4,8.093725890E-3,-8.857285604E-3
1.999420109E0,1.068982761E-3,6.872031838E-3,-8.857285604E-3
2.001898859E0,1.068982761E-3,5.650337320E-3,-7.635590620E-3
2.004378546E0,2.290677279E-3,5.650337320E-3,-8.857285604E-3
2.006857296E0,2.290677279E-3,5.650337320E-3,-6.413896102E-3
2.009335265E0,1.068982761E-3,5.650337320E-3,-7.635590620E-3
2.011814067E0,1.068982761E-3,5.650337320E-3,-8.857285604E-3
2.014293702E0,2.290677279E-3,6.872031838E-3,-7.635590620E-3
2.016772452E0,3.512371797E-3,8.093725890E-3,-8.857285604E-3
2.019250421E0,3.512371797E-3,8.093725890E-3,-7.635590620E-3
2.021729223E0,3.512371797E-3,9.315420873E-3,-8.857285604E-3
2.024208859E0,2.290677279E-3,1.420219894E-2,-8.857285604E-3
2.026687609E0,2.290677279E-3,1.175880991E-2,-8.857285604E-3
2.029165577E0,4.734066315E-3,1.175880991E-2,-7.635590620E-3
2.031644380E0,3.512371797E-3,1.420219894E-2,-7.635590620E-3
2.034124015E0,3.512371797E-3,1.420219894E-2,-7.635590620E-3
2.036602765E0,4.734066315E-3,1.298050396E-2,-6.413896102E-3
2.039080734E0,3.512371797E-3,1.298050396E-2,-7.635590620E-3
2.041559536E0,3.512371797E-3,1.175880991E-2,-7.635590620E-3
2.044039223E0,3.512371797E-3,1.298050396E-2,-8.857285604E-3
2.046517921E0,3.512371797E-3,9.315420873E-3,-6.413896102E-3
2.048995942E0,3.512371797E-3,6.872031838E-3,-6.413896102E-3
2.051474692E0,2.290677279E-3,6.872031838E-3,-7.635590620E-3
2.053954380E0,1.068982761E-3,3.206948051E-3,-6.413896102E-3
2.056433130E0,1.068982761E-3,3.206948051E-3,-5.192201585E-3
2.058911098E0,-1.527118147E-4,-1.679830020E-3,-5.192201585E-3
2.061389900E0,-1.374406274E-3,-2.901524538E-3,-2.748812549E-3
2.063869536E0,-1.527118147E-4,-4.123218823E-3,-3.970507067E-3
2.066348286E0,-2.596100792E-3,-6.566607859E-3,-3.970507067E-3
2.068826255E0,-3.817795310E-3,-9.009997360E-3,-3.970507067E-3
2.071305057E0,-5.039489828E-3,-1.267508045E-2,-2.748812549E-3
2.073784692E0,-5.039489828E-3,-1.145338640E-2,-2.748812549E-3
2.076263442E0,-6.261184346E-3,-1.267508045E-2,-1.527118147E-3
2.078741411E0,-8.704573847E-3,-1.389677543E-2,-1.527118147E-3
2.081220213E0,-7.482878864E-3,-1.389677543E-2,-3.054236295E-4
2.083699848E0,-8.704573847E-3,-1.389677543E-2,-1.527118147E-3
2.086178598E0,-9.926267900E-3,-1.267508045E-2,-1.527118147E-3
2.088656619E0,-1.114796288E-2,-1.267508045E-2,-2.748812549E-3
2.091135369E0,-9.926267900E-3,-1.267508045E-2,-2.748812549E-3
2.093615057E0,-1.114796288E-2,-1.145338640E-2,-2.748812549E-3
2.096093755E0,-1.114796288E-2,-1.145338640E-2,-2.748812549E-3
2.098571775E0,-1.114796288E-2,-7.788302377E-3,-3.970507067E-3
2.101050577E0,-1.236965694E-2,-7.788302377E-3,-3.970507067E-3
2.103530213E0,-1.359135192E-2,-5.344913341E-3,-5.192201585E-3
2.106008963E0,-1.359135192E-2,-5.344913341E-3,-5.192201585E-3
2.108486932E0,-1.359135192E-2,-4.123218823E-3,-5.192201585E-3
2.110965734E0,-1.359135192E-2,-2.901524538E-3,-6.413896102E-3
2.113445369E0,-1.236965694E-2,-1.679830020E-3,-6.413896102E-3
2.115924119E0,-1.359135192E-2,-1.679830020E-3,-8.857285604E-3
2.118402088E0,-1.359135192E-2,-4.581354442E-4,-7.635590620E-3
2.120880890E0,-1.359135192E-2,7.635590737E-4,-7.635590620E-3
2.123360525E0,-1.359135192E-2,7.635590737E-4,-8.857285604E-3
2.125839275E0,-1.359135192E-2,7.635590737E-4,-8.857285604E-3
2.128317244E0,-1.359135192E-2,7.635590737E-4,-1.007897966E-2
2.130796046E0,-1.359135192E-2,7.635590737E-4,-8.857285604E-3
2.133275682E0,-1.359135192E-2,1.985253533E-3,-7.635590620E-3
2.135754432E0,-1.114796288E-2,-4.581354442E-4,-8.857285604E-3
2.138232452E0,-1.114796288E-2,1.985253533E-3,-7.635590620E-3
2.140711202E0,-1.114796288E-2,3.206948051E-3,-7.635590620E-3
2.143190890E0,-1.236965694E-2,-4.581354442E-4,-8.857285604E-3
2.145669588E0,-1.236965694E-2,-1.679830020E-3,-8.857285604E-3
2.148147609E0,-1.236965694E-2,-2.901524538E-3,-8.857285604E-3
2.150626411E0,-1.236965694E-2,-4.123218823E-3,-6.413896102E-3
2.153106046E0,-1.236965694E-2,-6.566607859E-3,-7.635590620E-3
2.155584796E0,-1.236965694E-2,-5.344913341E-3,-1.007897966E-2
2.158062765E0,-1.236965694E-2,-7.788302377E-3,-8.857285604E-3
2.160541567E0,-1.236965694E-2,-7.788302377E-3,-7.635590620E-3
2.163021202E0,-1.236965694E-2,-9.009997360E-3,-7.635590620E-3
2.165499952E0,-1.114796288E-2,-9.009997360E-3,-7.635590620E-3
2.167977921E0,-1.236965694E-2,-9.009997360E-3,-1.007897966E-2
2.170456723E0,-1.236965694E-2,-1.023169141E-2,-8.857285604E-3
2.172936359E0,-1.114796288E-2,-9.009997360E-3,-7.635590620E-3
2.175415109E0,-1.236965694E-2,-1.023169141E-2,-1.007897966E-2
2.177893077E0,-1.236965694E-2,-9.009997360E-3,-1.007897966E-2
2.180371880E0,-1.236965694E-2,-7.788302377E-3,-1.007897966E-2
2.182851515E0,-1.236965694E-2,-5.344913341E-3,-1.252236869E-2
2.185330265E0,-1.114796288E-2,-1.679830020E-3,-1.252236869E-2
2.187808286E0,-1.114796288E-2,7.635590737E-4,-1.252236869E-2
2.190287036E0,-1.236965694E-2,3.206948051E-3,-1.496575773E-2
2.192766723E0,-1.359135192E-2,8.093725890E-3,-1.618745178E-2
2.195245473E0,-1.236965694E-2,9.315420873E-3,-1.740914769E-2
2.197723442E0,-1.236965694E-2,1.420219894E-2,-1.740914769E-2
2.200202244E0,-1.359135192E-2,1.298050396E-2,-1.618745178E-2
2.202681880E0,-1.236965694E-2,1.664558798E-2,-1.863084175E-2
2.205160630E0,-1.359135192E-2,1.908897609E-2,-1.740914769E-2
2.207638598E0,-1.481304597E-2,2.397575416E-2,-1.985253580E-2
2.210117400E0,-1.481304597E-2,2.275406010E-2,-1.863084175E-2
2.212597036E0,-1.481304597E-2,2.397575416E-2,-1.863084175E-2
2.215075786E0,-1.481304597E-2,2.519745007E-2,-1.985253580E-2
2.217553755E0,-1.481304597E-2,2.397575416E-2,-1.985253580E-2
2.220032557E0,-1.359135192E-2,2.519745007E-2,-1.863084175E-2
2.222512192E0,-1.481304597E-2,2.764083818E-2,-1.863084175E-2
2.224990942E0,-1.359135192E-2,2.397575416E-2,-1.985253580E-2
2.227468911E0,-1.236965694E-2,2.275406010E-2,-1.985253580E-2
2.229947713E0,-1.236965694E-2,2.275406010E-2,-1.863084175E-2
2.232427348E0,-1.359135192E-2,2.153236605E-2,-1.863084175E-2
2.234906098E0,-1.236965694E-2,1.908897609E-2,-1.496575773E-2
2.237384119E0,-1.236965694E-2,1.908897609E-2,-1.740914769E-2
2.239862869E0,-1.236965694E-2,1.420219894E-2,-1.618745178E-2
2.242342557E0,-1.236965694E-2,1.175880991E-2,-1.374406368E-2
2.244821307E0,-1.236965694E-2,9.315420873E-3,-1.374406368E-2
2.247299275E0,-1.359135192E-2,6.872031838E-3,-1.007897966E-2
2.249778077E0,-1.359135192E-2,4.428642802E-3,-1.007897966E-2
2.252257713E0,-1.481304597E-2,7.635590737E-4,-1.007897966E-2
2.254736463E0,-1.359135192E-2,-2.901524538E-3,-6.413896102E-3
2.257214432E0,-1.236965694E-2,-2.901524538E-3,-3.970507067E-3
2.259693234E0,-1.359135192E-2,-2.901524538E-3,-5.192201585E-3
2.262172869E0,-1.359135192E-2,-4.123218823E-3,-5.192201585E-3
2.264651619E0,-1.236965694E-2,-4.123218823E-3,-3.970507067E-3
2.267129588E0,-1.236965694E-2,-5.344913341E-3,-3.970507067E-3
2.269608390E0,-1.236965694E-2,-4.123218823E-3,-3.970507067E-3
2.272088025E0,-1.359135192E-2,-4.581354442E-4,-2.748812549E-3
2.274566775E0,-1.359135192E-2,3.206948051E-3,-3.970507067E-3
2.277044744E0,-1.236965694E-2,4.428642802E-3,-2.748812549E-3
2.279523546E0,-1.359135192E-2,8.093725890E-3,-3.970507067E-3
2.282003234E0,-1.359135192E-2,9.315420873E-3,-2.748812549E-3
2.284481932E0,-1.236965694E-2,1.420219894E-2,-1.527118147E-3
2.286959952E0,-1.359135192E-2,1.420219894E-2,-3.970507067E-3
2.289438702E0,-1.236965694E-2,1.664558798E-2,-3.970507067E-3
2.291918390E0,-1.236965694E-2,2.031067200E-2,-5.192201585E-3
2.294397140E0,-9.926267900E-3,2.275406010E-2,-5.192201585E-3
2.296875109E0,-1.114796288E-2,2.641914412E-2,-6.413896102E-3
2.299353911E0,-9.926267900E-3,2.886253223E-2,-7.635590620E-3
2.301833546E0,-8.704573847E-3,3.130592033E-2,-6.413896102E-3
2.304312296E0,-8.704573847E-3,3.252761811E-2,-7.635590620E-3
2.306790265E0,-7.482878864E-3,3.497100621E-2,-7.635590620E-3
2.309269067E0,-7.482878864E-3,3.374931216E-2,-7.635590620E-3
2.311748702E0,-5.039489828E-3,3.619270027E-2,-7.635590620E-3
2.314227452E0,-5.039489828E-3,3.741439432E-2,-7.635590620E-3
2.316705421E0,-1.374406274E-3,3.497100621E-2,-7.635590620E-3
2.319184223E0,-2.596100792E-3,3.252761811E-2,-6.413896102E-3
2.321663859E0,-1.374406274E-3,3.252761811E-2,-5.192201585E-3
2.324142609E0,-1.374406274E-3,2.886253223E-2,-5.192201585E-3
2.326620577E0,-1.527118147E-4,2.641914412E-2,-2.748812549E-3
2.329099380E0,-1.527118147E-4,2.153236605E-2,-5.192201585E-3
2.331579067E0,-1.527118147E-4,1.908897609E-2,-3.970507067E-3
2.334057765E0,1.068982761E-3,1.175880991E-2,-3.970507067E-3
2.336535786E0,-1.527118147E-4,9.315420873E-3,-1.527118147E-3
2.339014588E0,-2.596100792E-3,3.206948051E-3,-3.054236295E-4
2.341494223E0,-1.374406274E-3,-4.581354442E-4,-3.054236295E-4
2.343972973E0,-1.374406274E-3,-4.123218823E-3,9.162708884E-4
2.346450942E0,-1.374406274E-3,-9.009997360E-3,9.162708884E-4
2.348929744E0,-2.596100792E-3,-1.267508045E-2,3.359660041E-3
2.351409380E0,-2.596100792E-3,-1.389677543E-2,3.359660041E-3
2.353888130E0,-3.817795310E-3,-1.756185852E-2,4.581354558E-3
2.356366098E0,-5.039489828E-3,-1.511846948E-2,7.024743594E-3
2.358844900E0,-3.817795310E-3,-1.878355257E-2,5.803049076E-3
2.361324536E0,-3.817795310E-3,-1.511846948E-2,5.803049076E-3
2.363803286E0,-3.817795310E-3,-1.511846948E-2,7.024743594E-3
2.366281255E0,-5.039489828E-3,-1.145338640E-2,5.803049076E-3
2.368760057E0,-5.039489828E-3,-9.009997360E-3,5.803049076E-3
2.371239692E0,-5.039489828E-3,-4.123218823E-3,5.803049076E-3
2.373718442E0,-5.039489828E-3,-4.581354442E-4,5.803049076E-3
2.376196463E0,-6.261184346E-3,4.428642802E-3,4.581354558E-3
2.378675213E0,-6.261184346E-3,5.650337320E-3,4.581354558E-3
2.381154900E0,-7.482878864E-3,1.053711493E-2,4.581354558E-3
2.383633598E0,-6.261184346E-3,1.420219894E-2,3.359660041E-3
2.386111619E0,-3.817795310E-3,1.664558798E-2,3.359660041E-3
2.388590421E0,-3.817795310E-3,1.786728203E-2,9.162708884E-4
2.391070057E0,-3.817795310E-3,1.908897609E-2,9.162708884E-4
2.393548807E0,-3.817795310E-3,2.153236605E-2,-1.527118147E-3
2.396026775E0,-1.374406274E-3,2.275406010E-2,-3.054236295E-4
2.398505577E0,-2.596100792E-3,2.275406010E-2,9.162708884E-4
2.400985213E0,-1.374406274E-3,2.153236605E-2,-3.054236295E-4
2.403463963E0,-1.527118147E-4,2.275406010E-2,-3.054236295E-4
2.405941932E0,-1.527118147E-4,1.908897609E-2,-2.748812549E-3
2.408420734E0,-1.527118147E-4,1.786728203E-2,-2.748812549E-3
2.410900369E0,-1.527118147E-4,1.420219894E-2,-3.970507067E-3
2.413379119E0,-1.527118147E-4,1.175880991E-2,-2.748812549E-3
2.415857088E0,1.068982761E-3,9.315420873E-3,-3.970507067E-3
2.418335890E0,-1.527118147E-4,4.428642802E-3,-2.748812549E-3
2.420815525E0,-1.374406274E-3,7.635590737E-4,-2.748812549E-3
2.423294275E0,1.068982761E-3,-4.581354442E-4,-2.748812549E-3
2.425772296E0,-1.374406274E-3,-6.566607859E-3,-2.748812549E-3
2.428251046E0,-1.527118147E-4,-1.145338640E-2,-1.527118147E-3
2.430730734E0,-1.374406274E-3,-1.511846948E-2,-1.527118147E-3
2.433209432E0,-2.596100792E-3,-2.000524849E-2,-2.748812549E-3
2.435687452E0,-2.596100792E-3,-2.244863659E-2,9.162708884E-4
2.438166255E0,-3.817795310E-3,-2.733541466E-2,-3.054236295E-4
2.440645890E0,-5.039489828E-3,-2.977880463E-2,2.137965523E-3
2.443124640E0,-2.596100792E-3,-3.344388679E-2,9.162708884E-4
2.445602609E0,-3.817795310E-3,-3.344388679E-2,9.162708884E-4
2.448081411E0,-3.817795310E-3,-3.466558084E-2,-3.054236295E-4
2.450561046E0,-6.261184346E-3,-3.710897267E-2,2.137965523E-3
2.453039796E0,-6.261184346E-3,-3.955236077E-2,2.137965523E-3
2.455517765E0,-5.039489828E-3,-3.833066672E-2,2.137965523E-3
2.457996567E0,-7.482878864E-3,-3.710897267E-2,2.137965523E-3
2.460476202E0,-7.482878864E-3,-3.588727489E-2,2.137965523E-3
2.462954952E0,-8.704573847E-3,-3.588727489E-2,9.162708884E-4
2.465432921E0,-1.114796288E-2,-3.100049868E-2,-3.054236295E-4
2.467911723E0,-9.926267900E-3,-2.977880463E-2,9.162708884E-4
2.470391411E0,-9.926267900E-3,-2.733541466E-2,-3.054236295E-4
2.472870109E0,-1.236965694E-2,-2.611372061E-2,-1.527118147E-3
2.475348130E0,-1.236965694E-2,-2.367033064E-2,-2.748812549E-3
2.477826880E0,-1.359135192E-2,-2.244863659E-2,-3.970507067E-3
2.480306567E0,-1.359135192E-2,-2.000524849E-2,-3.970507067E-3
2.482785265E0,-1.236965694E-2,-1.878355257E-2,-3.970507067E-3
2.485263286E0,-1.359135192E-2,-1.634016447E-2,-6.413896102E-3
2.487742088E0,-1.359135192E-2,-1.389677543E-2,-8.857285604E-3
2.490221723E0,-1.481304597E-2,-1.145338640E-2,-8.857285604E-3
2.492700473E0,-1.359135192E-2,-6.566607859E-3,-1.007897966E-2
2.495178442E0,-1.481304597E-2,-2.901524538E-3,-8.857285604E-3
2.497657244E0,-1.236965694E-2,-4.581354442E-4,-8.857285604E-3
2.500136880E0,-1.236965694E-2,-1.679830020E-3,-1.130067464E-2
2.502615630E0,-1.114796288E-2,-4.581354442E-4,-1.252236869E-2
2.505093598E0,-9.926267900E-3,-2.901524538E-3,-1.130067464E-2
2.507572400E0,-1.114796288E-2,-5.344913341E-3,-1.252236869E-2
2.510052036E0,-1.114796288E-2,-7.788302377E-3,-1.130067464E-2
2.512530786E0,-7.482878864E-3,-1.023169141E-2,-1.007897966E-2
2.515008807E0,-9.926267900E-3,-1.878355257E-2,-1.130067464E-2
2.517487557E0,-9.926267900E-3,-2.244863659E-2,-8.857285604E-3
2.519967244E0,-9.926267900E-3,-2.733541466E-2,-8.857285604E-3
2.522445942E0,-7.482878864E-3,-3.222219273E-2,-8.857285604E-3
2.524923963E0,-8.704573847E-3,-3.833066672E-2,-7.635590620E-3
2.527402765E0,-8.704573847E-3,-4.199574888E-2,-6.413896102E-3
2.529882400E0,-9.926267900E-3,-4.566083103E-2,-5.192201585E-3
2.532361150E0,-1.114796288E-2,-4.810422286E-2,-5.192201585E-3
2.534839119E0,-1.114796288E-2,-5.054761097E-2,-5.192201585E-3
2.537317921E0,-1.236965694E-2,-5.176930502E-2,-3.970507067E-3
2.539797557E0,-1.481304597E-2,-4.932591692E-2,-2.748812549E-3
2.542276307E0,-1.603474095E-2,-5.176930502E-2,-1.527118147E-3
2.544754275E0,-1.603474095E-2,-4.932591692E-2,-1.527118147E-3
2.547233077E0,-1.725643501E-2,-4.810422286E-2,-3.054236295E-4
2.549712713E0,-1.847812906E-2,-4.688252881E-2,-3.054236295E-4
2.552191463E0,-1.847812906E-2,-4.688252881E-2,9.162708884E-4
2.554669432E0,-1.969982497E-2,-4.077405483E-2,9.162708884E-4
2.557148234E0,-1.847812906E-2,-4.077405483E-2,9.162708884E-4
2.559627869E0,-1.969982497E-2,-3.955236077E-2,2.137965523E-3
2.562106619E0,-1.847812906E-2,-3.833066672E-2,3.359660041E-3
2.564584640E0,-1.603474095E-2,-3.710897267E-2,9.162708884E-4
2.567063390E0,-1.725643501E-2,-3.466558084E-2,2.137965523E-3
2.569543077E0,-1.603474095E-2,-3.222219273E-2,9.162708884E-4
2.572021775E0,-1.603474095E-2,-2.977880463E-2,3.359660041E-3
2.574499796E0,-1.603474095E-2,-2.855710872E-2,3.359660041E-3
2.576978598E0,-1.603474095E-2,-2.977880463E-2,9.162708884E-4
2.579458234E0,-1.359135192E-2,-2.489202656E-2,2.137965523E-3
2.581936984E0,-1.359135192E-2,-2.122694254E-2,9.162708884E-4
2.584414952E0,-1.359135192E-2,-2.000524849E-2,9.162708884E-4
2.586893755E0,-1.236965694E-2,-1.756185852E-2,-3.054236295E-4
2.589373390E0,-1.236965694E-2,-1.389677543E-2,-3.054236295E-4
2.591852140E0,-1.114796288E-2,-1.267508045E-2,-3.054236295E-4
2.594330109E0,-1.236965694E-2,-1.023169141E-2,-1.527118147E-3
2.596808911E0,-1.114796288E-2,-7.788302377E-3,-2.748812549E-3
2.599288546E0,-9.926267900E-3,-6.566607859E-3,-1.527118147E-3
2.601767296E0,-7.482878864E-3,-9.009997360E-3,-2.748812549E-3
2.604245265E0,-7.482878864E-3,-1.023169141E-2,-3.970507067E-3
2.606724067E0,-6.261184346E-3,-1.145338640E-2,-3.970507067E-3
2.609203755E0,-5.039489828E-3,-1.634016447E-2,-3.970507067E-3
2.611682452E0,-3.817795310E-3,-1.756185852E-2,-2.748812549E-3
2.614160473E0,-3.817795310E-3,-2.244863659E-2,-5.192201585E-3
2.616639223E0,-3.817795310E-3,-2.367033064E-2,-2.748812549E-3
2.619118911E0,-1.374406274E-3,-2.855710872E-2,-2.748812549E-3
2.621597609E0,-2.596100792E-3,-3.344388679E-2,-3.054236295E-4
2.624075630E0,-2.596100792E-3,-3.588727489E-2,-2.748812549E-3
2.626554432E0,-3.817795310E-3,-4.077405483E-2,-1.527118147E-3
2.629034067E0,-2.596100792E-3,-4.321744293E-2,-3.054236295E-4
2.631512817E0,-3.817795310E-3,-4.566083103E-2,-3.054236295E-4
2.633990786E0,-2.596100792E-3,-4.688252881E-2,-3.054236295E-4
2.636469588E0,-3.817795310E-3,-5.054761097E-2,2.137965523E-3
2.638949223E0,-5.039489828E-3,-5.299099907E-2,9.162708884E-4
2.641427973E0,-5.039489828E-3,-5.665608495E-2,9.162708884E-4
2.643905942E0,-5.039489828E-3,-5.909947306E-2,3.359660041E-3
2.646384744E0,-6.261184346E-3,-5.665608495E-2,3.359660041E-3
2.648864380E0,-7.482878864E-3,-6.032116711E-2,3.359660041E-3
2.651343130E0,-6.261184346E-3,-5.665608495E-2,4.581354558E-3
2.653821098E0,-7.482878864E-3,-5.787777901E-2,7.024743594E-3
2.656299900E0,-7.482878864E-3,-5.665608495E-2,5.803049076E-3
2.658779588E0,-8.704573847E-3,-5.665608495E-2,7.024743594E-3
2.661258286E0,-9.926267900E-3,-5.299099907E-2,5.803049076E-3
2.663736307E0,-8.704573847E-3,-5.176930502E-2,7.024743594E-3
2.666215057E0,-1.114796288E-2,-5.054761097E-2,8.246437646E-3
2.668694744E0,-9.926267900E-3,-4.810422286E-2,7.024743594E-3
2.671173442E0,-9.926267900E-3,-4.443913698E-2,5.803049076E-3
2.673651463E0,-1.114796288E-2,-4.199574888E-2,7.024743594E-3
2.676130265E0,-1.114796288E-2,-3.955236077E-2,7.024743594E-3
2.678609900E0,-1.114796288E-2,-3.955236077E-2,8.246437646E-3
2.681088650E0,-1.114796288E-2,-3.588727489E-2,7.024743594E-3
2.683566619E0,-9.926267900E-3,-3.344388679E-2,7.024743594E-3
2.686045421E0,-1.114796288E-2,-3.100049868E-2,5.803049076E-3
2.688525057E0,-8.704573847E-3,-2.733541466E-2,3.359660041E-3
2.691003807E0,-8.704573847E-3,-2.244863659E-2,3.359660041E-3
2.693481775E0,-8.704573847E-3,-1.878355257E-2,2.137965523E-3
2.695960577E0,-6.261184346E-3,-1.634016447E-2,2.137965523E-3
2.698440213E0,-6.261184346E-3,-1.267508045E-2,3.359660041E-3
2.700918963E0,-5.039489828E-3,-1.023169141E-2,9.162708884E-4
2.703396984E0,-2.596100792E-3,-1.145338640E-2,9.162708884E-4
2.705875734E0,-1.374406274E-3,-9.009997360E-3,-3.054236295E-4
2.708355421E0,-1.527118147E-4,-7.788302377E-3,-3.054236295E-4
2.710834119E0,1.068982761E-3,-1.145338640E-2,-3.054236295E-4
2.713312140E0,3.512371797E-3,-1.145338640E-2,-1.527118147E-3
2.715790890E0,4.734066315E-3,-1.878355257E-2,-2.748812549E-3
2.718270577E0,4.734066315E-3,-2.000524849E-2,-1.527118147E-3
2.720749327E0,5.955760833E-3,-2.244863659E-2,9.162708884E-4
2.723227296E0,8.399149403E-3,-2.611372061E-2,9.162708884E-4
2.725706098E0,9.620844387E-3,-2.855710872E-2,9.162708884E-4
2.728185734E0,1.084253844E-2,-2.977880463E-2,2.137965523E-3
2.730664484E0,1.084253844E-2,-3.466558084E-2,9.162708884E-4
2.733142452E0,1.206423342E-2,-3.955236077E-2,2.137965523E-3
2.735621255E0,1.206423342E-2,-4.566083103E-2,3.359660041E-3
2.738100890E0,1.328592747E-2,-4.810422286E-2,3.359660041E-3
2.740579640E0,1.084253844E-2,-5.176930502E-2,5.803049076E-3
2.743057609E0,1.084253844E-2,-5.543438718E-2,4.581354558E-3
2.745536411E0,9.620844387E-3,-5.909947306E-2,5.803049076E-3
2.748016046E0,9.620844387E-3,-6.276455522E-2,5.803049076E-3
2.750494796E0,9.620844387E-3,-6.520794332E-2,5.803049076E-3
2.752972817E0,9.620844387E-3,-6.520794332E-2,7.024743594E-3
2.755451567E0,8.399149403E-3,-6.398624927E-2,8.246437646E-3
2.757931255E0,8.399149403E-3,-6.398624927E-2,8.246437646E-3
2.760409952E0,8.399149403E-3,-6.276455522E-2,9.468132630E-3
2.762887973E0,8.399149403E-3,-6.276455522E-2,8.246437646E-3
2.765366775E0,8.399149403E-3,-6.032116711E-2,7.024743594E-3
2.767846411E0,8.399149403E-3,-5.543438718E-2,7.024743594E-3
2.770325161E0,7.177455351E-3,-5.176930502E-2,7.024743594E-3
2.772803130E0,7.177455351E-3,-5.176930502E-2,7.024743594E-3
2.775281932E0,8.399149403E-3,-4.443913698E-2,8.246437646E-3
2.777761567E0,8.399149403E-3,-4.199574888E-2,8.246437646E-3
2.780240317E0,8.399149403E-3,-4.077405483E-2,4.581354558E-3
2.782718286E0,7.177455351E-3,-3.466558084E-2,5.803049076E-3
2.785197088E0,4.734066315E-3,-3.100049868E-2,7.024743594E-3
2.787676723E0,7.177455351E-3,-2.855710872E-2,5.803049076E-3
2.790155473E0,7.177455351E-3,-2.611372061E-2,2.137965523E-3
2.792633442E0,5.955760833E-3,-2.122694254E-2,2.137965523E-3
2.795112244E0,7.177455351E-3,-1.389677543E-2,2.137965523E-3
2.797591880E0,7.177455351E-3,-1.145338640E-2,-3.054236295E-4
2.800070630E0,7.177455351E-3,-6.566607859E-3,2.137965523E-3
2.802548650E0,7.177455351E-3,-4.123218823E-3,-3.054236295E-4
2.805027400E0,5.955760833E-3,-1.679830020E-3,-1.527118147E-3
2.807507088E0,5.955760833E-3,-2.901524538E-3,-3.970507067E-3
2.809985838E0,7.177455351E-3,-2.901524538E-3,-2.748812549E-3
2.812463807E0,8.399149403E-3,-2.901524538E-3,-2.748812549E-3
2.814942609E0,9.620844387E-3,-4.123218823E-3,-2.748812549E-3
2.817422244E0,1.084253844E-2,-5.344913341E-3,-2.748812549E-3
2.819900994E0,1.206423342E-2,-9.009997360E-3,-3.970507067E-3
2.822378963E0,1.206423342E-2,-1.267508045E-2,-3.970507067E-3
2.824857765E0,1.328592747E-2,-1.878355257E-2,-1.527118147E-3
2.827337400E0,1.328592747E-2,-2.367033064E-2,-2.748812549E-3
2.829816150E0,1.206423342E-2,-2.977880463E-2,-1.527118147E-3
2.832294119E0,1.328592747E-2,-3.344388679E-2,-3.054236295E-4
2.834772921E0,1.450762246E-2,-3.833066672E-2,-3.054236295E-4
2.837252557E0,1.328592747E-2,-4.443913698E-2,9.162708884E-4
2.839731307E0,1.206423342E-2,-5.054761097E-2,-3.054236295E-4
2.842209275E0,1.206423342E-2,-5.543438718E-2,9.162708884E-4
2.844688077E0,1.084253844E-2,-5.909947306E-2,9.162708884E-4
2.847167765E0,9.620844387E-3,-6.032116711E-2,2.137965523E-3
2.849646463E0,9.620844387E-3,-6.398624927E-2,9.162708884E-4
2.852124484E0,9.620844387E-3,-6.520794332E-2,9.162708884E-4
2.854603234E0,7.177455351E-3,-6.642963737E-2,2.137965523E-3
2.857082921E0,8.399149403E-3,-6.276455522E-2,9.162708884E-4
2.859561671E0,7.177455351E-3,-6.032116711E-2,-3.054236295E-4
2.862039640E0,8.399149403E-3,-5.909947306E-2,-3.054236295E-4
2.864518442E0,7.177455351E-3,-5.665608495E-2,-1.527118147E-3
2.866998077E0,5.955760833E-3,-5.421269313E-2,-1.527118147E-3
2.869476827E0,5.955760833E-3,-4.810422286E-2,-2.748812549E-3
2.871954796E0,4.734066315E-3,-4.321744293E-2,-3.970507067E-3
2.874433598E0,3.512371797E-3,-4.077405483E-2,-5.192201585E-3
2.876913234E0,4.734066315E-3,-3.344388679E-2,-6.413896102E-3
2.879391984E0,3.512371797E-3,-2.977880463E-2,-8.857285604E-3
2.881869952E0,3.512371797E-3,-2.244863659E-2,-7.635590620E-3
2.884348755E0,3.512371797E-3,-1.756185852E-2,-1.007897966E-2
2.886828390E0,3.512371797E-3,-1.267508045E-2,-1.130067464E-2
2.889307140E0,3.512371797E-3,-6.566607859E-3,-1.252236869E-2
2.891785161E0,2.290677279E-3,-1.679830020E-3,-1.374406368E-2
2.894263911E0,2.290677279E-3,1.985253533E-3,-1.618745178E-2
2.896743598E0,1.068982761E-3,9.315420873E-3,-1.374406368E-2
2.899222296E0,2.290677279E-3,1.053711493E-2,-1.740914769E-2
2.901700317E0,2.290677279E-3,1.053711493E-2,-1.618745178E-2
2.904179119E0,1.068982761E-3,1.175880991E-2,-1.618745178E-2
2.906658755E0,1.068982761E-3,1.298050396E-2,-1.740914769E-2
2.909137505E0,-1.527118147E-4,1.175880991E-2,-1.618745178E-2
2.911615473E0,-1.374406274E-3,9.315420873E-3,-1.740914769E-2
2.914094275E0,-1.374406274E-3,8.093725890E-3,-1.618745178E-2
2.916573911E0,-2.596100792E-3,5.650337320E-3,-1.618745178E-2
2.919052661E0,-5.039489828E-3,-1.679830020E-3,-1.740914769E-2
2.921530630E0,-5.039489828E-3,-4.123218823E-3,-1.740914769E-2
2.924009432E0,-8.704573847E-3,-6.566607859E-3,-1.496575773E-2
2.926489067E0,-9.926267900E-3,-1.023169141E-2,-1.496575773E-2
2.928967817E0,-1.114796288E-2,-1.389677543E-2,-1.496575773E-2
2.931445786E0,-1.236965694E-2,-1.511846948E-2,-1.496575773E-2
2.933924588E0,-1.603474095E-2,-1.756185852E-2,-1.374406368E-2
2.936404223E0,-1.603474095E-2,-1.756185852E-2,-1.374406368E-2
2.938882973E0,-1.603474095E-2,-1.878355257E-2,-1.496575773E-2
2.941360994E0,-1.603474095E-2,-1.878355257E-2,-1.496575773E-2
2.943839744E0,-1.847812906E-2,-1.634016447E-2,-1.374406368E-2
2.946319432E0,-1.847812906E-2,-1.389677543E-2,-1.496575773E-2
2.948798130E0,-1.969982497E-2,-1.145338640E-2,-1.374406368E-2
2.951276150E0,-2.092151903E-2,-6.566607859E-3,-1.618745178E-2
2.953754952E0,-2.092151903E-2,-6.566607859E-3,-1.618745178E-2
2.956234588E0,-2.092151903E-2,-1.679830020E-3,-1.618745178E-2
2.958713338E0,-1.969982497E-2,1.985253533E-3,-1.740914769E-2
2.961191307E0,-2.092151903E-2,8.093725890E-3,-1.740914769E-2
2.963670109E0,-2.092151903E-2,1.053711493E-2,-1.863084175E-2
2.966149744E0,-2.214321308E-2,1.542389300E-2,-1.863084175E-2
2.968628494E0,-2.214321308E-2,1.786728203E-2,-1.985253580E-2
2.971106463E0,-2.092151903E-2,2.275406010E-2,-1.985253580E-2
2.973585265E0,-2.092151903E-2,2.519745007E-2,-1.985253580E-2
2.976064900E0,-1.969982497E-2,2.886253223E-2,-2.107422985E-2
2.978543650E0,-1.969982497E-2,2.886253223E-2,-2.229592577E-2
2.981021671E0,-1.847812906E-2,3.130592033E-2,-2.229592577E-2
2.983500421E0,-1.847812906E-2,3.374931216E-2,-2.229592577E-2
2.985980109E0,-1.969982497E-2,3.741439432E-2,-2.229592577E-2
2.988458807E0,-1.969982497E-2,3.497100621E-2,-2.473931387E-2
2.990936827E0,-1.847812906E-2,3.619270027E-2,-2.473931387E-2
2.993415630E0,-1.725643501E-2,3.497100621E-2,-2.351761982E-2
2.995895265E0,-1.725643501E-2,3.252761811E-2,-2.351761982E-2
2.998374015E0,-1.725643501E-2,3.130592033E-2,-2.351761982E-2
3.000851984E0,-1.847812906E-2,2.764083818E-2,-2.473931387E-2
3.003330786E0,-1.603474095E-2,2.641914412E-2,-2.107422985E-2
3.005810421E0,-1.603474095E-2,2.031067200E-2,-1.985253580E-2
3.008289171E0,-1.603474095E-2,2.031067200E-2,-1.985253580E-2
3.010767140E0,-1.603474095E-2,1.420219894E-2,-1.740914769E-2
3.013245942E0,-1.481304597E-2,9.315420873E-3,-1.618745178E-2
3.015725577E0,-1.359135192E-2,8.093725890E-3,-1.374406368E-2
3.018204327E0,-1.359135192E-2,4.428642802E-3,-1.374406368E-2
3.020682296E0,-1.114796288E-2,1.985253533E-3,-1.252236869E-2
3.023161098E0,-9.926267900E-3,-4.581354442E-4,-8.857285604E-3
3.025640734E0,-9.926267900E-3,-1.679830020E-3,-1.007897966E-2
3.028119484E0,-1.114796288E-2,-2.901524538E-3,-1.007897966E-2
3.030597505E0,-8.704573847E-3,-5.344913341E-3,-8.857285604E-3
3.033076255E0,-8.704573847E-3,-6.566607859E-3,-5.192201585E-3
3.035555942E0,-8.704573847E-3,-5.344913341E-3,-5.192201585E-3
3.038034640E0,-7.482878864E-3,-7.788302377E-3,-2.748812549E-3
3.040512661E0,-7.482878864E-3,-7.788302377E-3,-2.748812549E-3
3.042991463E0,-7.482878864E-3,-9.009997360E-3,-2.748812549E-3
3.045471098E0,-8.704573847E-3,-6.566607859E-3,-3.054236295E-4
3.047949848E0,-7.482878864E-3,-5.344913341E-3,9.162708884E-4
3.050427817E0,-7.482878864E-3,-2.901524538E-3,-3.054236295E-4
3.052906619E0,-6.261184346E-3,-1.679830020E-3,9.162708884E-4
3.055386255E0,-7.482878864E-3,-1.679830020E-3,-1.527118147E-3
3.057865005E0,-7.482878864E-3,1.985253533E-3,-3.054236295E-4
3.060342973E0,-6.261184346E-3,4.428642802E-3,-3.054236295E-4
3.062821775E0,-3.817795310E-3,8.093725890E-3,9.162708884E-4
3.065301411E0,-3.817795310E-3,1.053711493E-2,-1.527118147E-3
3.067780161E0,-3.817795310E-3,1.542389300E-2,-3.054236295E-4
3.070258130E0,-3.817795310E-3,2.153236605E-2,-1.527118147E-3
3.072736932E0,-3.817795310E-3,2.397575416E-2,-1.527118147E-3
3.075216567E0,-2.596100792E-3,2.519745007E-2,-3.054236295E-4
3.077695317E0,-2.596100792E-3,2.886253223E-2,-3.054236295E-4
3.080173338E0,-2.596100792E-3,3.130592033E-2,-2.748812549E-3
3.082652140E0,-2.596100792E-3,3.374931216E-2,-3.970507067E-3
3.085131775E0,-1.374406274E-3,3.741439432E-2,-3.970507067E-3
3.087610525E0,-1.527118147E-4,3.863608837E-2,-3.970507067E-3
3.090088494E0,-1.527118147E-4,3.985778242E-2,-3.970507067E-3
3.092567296E0,1.068982761E-3,3.985778242E-2,-3.970507067E-3
3.095046932E0,-1.527118147E-4,4.230117425E-2,-2.748812549E-3
3.097525682E0,1.068982761E-3,4.107947648E-2,-5.192201585E-3
3.100003650E0,2.290677279E-3,3.863608837E-2,-3.970507067E-3
3.102482452E0,2.290677279E-3,3.863608837E-2,-2.748812549E-3
3.104962088E0,2.290677279E-3,3.741439432E-2,-5.192201585E-3
3.107440838E0,3.512371797E-3,3.374931216E-2,-3.970507067E-3
3.109918807E0,2.290677279E-3,3.374931216E-2,-3.970507067E-3
3.112397609E0,3.512371797E-3,3.008422814E-2,-2.748812549E-3
3.114877244E0,3.512371797E-3,2.764083818E-2,-1.527118147E-3
3.117355994E0,4.734066315E-3,2.275406010E-2,-3.054236295E-4
3.119834015E0,4.734066315E-3,1.908897609E-2,-3.054236295E-4
3.122312765E0,3.512371797E-3,1.664558798E-2,9.162708884E-4
3.124792452E0,2.290677279E-3,1.420219894E-2,2.137965523E-3
3.127271150E0,3.512371797E-3,1.175880991E-2,2.137965523E-3
3.129749171E0,4.734066315E-3,9.315420873E-3,9.162708884E-4
3.132227973E0,4.734066315E-3,1.175880991E-2,3.359660041E-3
3.134707609E0,4.734066315E-3,1.175880991E-2,3.359660041E-3
3.137186359E0,3.512371797E-3,1.053711493E-2,3.359660041E-3
3.139664327E0,4.734066315E-3,1.542389300E-2,3.359660041E-3
3.142143130E0,3.512371797E-3,1.420219894E-2,3.359660041E-3
3.144622765E0,3.512371797E-3,1.786728203E-2,3.359660041E-3
3.147101515E0,3.512371797E-3,1.908897609E-2,2.137965523E-3
3.149579484E0,3.512371797E-3,2.153236605E-2,9.162708884E-4
3.152058286E0,4.734066315E-3,2.764083818E-2,2.137965523E-3
3.154537921E0,3.512371797E-3,2.764083818E-2,2.137965523E-3
3.157016671E0,3.512371797E-3,3.130592033E-2,9.162708884E-4
3.159494640E0,3.512371797E-3,3.497100621E-2,-3.054236295E-4
3.161973442E0,3.512371797E-3,3.619270027E-2,-3.054236295E-4
3.164453130E0,2.290677279E-3,3.619270027E-2,-1.527118147E-3
3.166931827E0,2.290677279E-3,3.741439432E-2,-2.748812549E-3
3.169409848E0,1.068982761E-3,3.985778242E-2,-3.970507067E-3
3.171888598E0,1.068982761E-3,4.107947648E-2,-2.748812549E-3
3.174368286E0,1.068982761E-3,4.474456236E-2,-2.748812549E-3
3.176847036E0,1.068982761E-3,4.718795046E-2,-5.192201585E-3
3.179325005E0,-1.527118147E-4,4.596625641E-2,-6.413896102E-3
3.181803807E0,-1.527118147E-4,4.840964451E-2,-5.192201585E-3
3.184283442E0,-1.374406274E-3,4.840964451E-2,-6.413896102E-3
3.186762192E0,-2.596100792E-3,4.963133857E-2,-6.413896102E-3
3.189240161E0,-2.596100792E-3,5.085303262E-2,-6.413896102E-3
3.191718963E0,-3.817795310E-3,4.840964451E-2,-6.413896102E-3
3.194198598E0,-3.817795310E-3,5.085303262E-2,-6.413896102E-3
3.196677348E0,-3.817795310E-3,4.840964451E-2,-6.413896102E-3
3.199155317E0,-2.596100792E-3,4.718795046E-2,-6.413896102E-3
3.201634119E0,-5.039489828E-3,4.352286831E-2,-5.192201585E-3
3.204113755E0,-6.261184346E-3,3.863608837E-2,-5.192201585E-3
3.206592505E0,-5.039489828E-3,3.497100621E-2,-5.192201585E-3
3.209070525E0,-7.482878864E-3,2.886253223E-2,-3.970507067E-3
3.211549275E0,-6.261184346E-3,2.519745007E-2,-1.527118147E-3
3.214028963E0,-7.482878864E-3,2.031067200E-2,-3.970507067E-3
3.216507661E0,-6.261184346E-3,1.664558798E-2,-2.748812549E-3
3.218985682E0,-7.482878864E-3,1.298050396E-2,-1.527118147E-3
3.221464484E0,-8.704573847E-3,1.175880991E-2,-1.527118147E-3
3.223944119E0,-9.926267900E-3,9.315420873E-3,-3.054236295E-4
3.226422869E0,-8.704573847E-3,5.650337320E-3,-3.054236295E-4
3.228900838E0,-8.704573847E-3,8.093725890E-3,-3.054236295E-4
3.231379640E0,-9.926267900E-3,6.872031838E-3,9.162708884E-4
3.233859275E0,-1.114796288E-2,8.093725890E-3,-3.054236295E-4
3.236338025E0,-1.114796288E-2,9.315420873E-3,-3.054236295E-4
3.238815994E0,-9.926267900E-3,1.053711493E-2,-1.527118147E-3
3.241294796E0,-8.704573847E-3,1.175880991E-2,-2.748812549E-3
3.243774432E0,-7.482878864E-3,1.542389300E-2,-3.054236295E-4
3.246253182E0,-7.482878864E-3,1.908897609E-2,-3.054236295E-4
3.248731150E0,-8.704573847E-3,2.031067200E-2,-1.527118147E-3
3.251209952E0,-7.482878864E-3,2.031067200E-2,-2.748812549E-3
3.253689588E0,-7.482878864E-3,2.275406010E-2,-1.527118147E-3
3.256168338E0,-6.261184346E-3,2.275406010E-2,-1.527118147E-3
3.258646359E0,-6.261184346E-3,2.519745007E-2,-1.527118147E-3
3.261125109E0,-6.261184346E-3,2.641914412E-2,-3.970507067E-3
3.263604796E0,-6.261184346E-3,3.008422814E-2,-3.970507067E-3
3.266083546E0,-6.261184346E-3,3.008422814E-2,-2.748812549E-3
3.268561515E0,-5.039489828E-3,3.130592033E-2,-2.748812549E-3
3.271040317E0,-3.817795310E-3,3.130592033E-2,-2.748812549E-3
3.273519952E0,-5.039489828E-3,3.130592033E-2,-2.748812549E-3
3.275998702E0,-3.817795310E-3,3.252761811E-2,-3.970507067E-3
3.278476671E0,-2.596100792E-3,3.252761811E-2,-2.748812549E-3
3.280955473E0,-2.596100792E-3,3.130592033E-2,-3.970507067E-3
3.283435109E0,-1.374406274E-3,3.008422814E-2,-3.054236295E-4
3.285913859E0,-1.374406274E-3,3.252761811E-2,-2.748812549E-3
3.288391827E0,-1.527118147E-4,3.008422814E-2,-1.527118147E-3
3.290870630E0,-1.527118147E-4,3.130592033E-2,-3.054236295E-4
3.293350265E0,-1.527118147E-4,2.764083818E-2,-1.527118147E-3
3.295829015E0,-1.527118147E-4,2.519745007E-2,9.162708884E-4
3.298306984E0,-1.374406274E-3,2.397575416E-2,-1.527118147E-3
3.300785786E0,-3.817795310E-3,2.153236605E-2,-3.054236295E-4
3.303265473E0,-2.596100792E-3,2.153236605E-2,9.162708884E-4
3.305744171E0,-2.596100792E-3,2.031067200E-2,2.137965523E-3
3.308222192E0,-3.817795310E-3,1.542389300E-2,9.162708884E-4
3.310700994E0,-3.817795310E-3,1.420219894E-2,-3.054236295E-4
3.313180630E0,-5.039489828E-3,1.298050396E-2,2.137965523E-3
3.315659380E0,-5.039489828E-3,1.298050396E-2,2.137965523E-3
3.318137348E0,-6.261184346E-3,1.053711493E-2,2.137965523E-3
3.320616150E0,-8.704573847E-3,8.093725890E-3,2.137965523E-3
3.323095786E0,-8.704573847E-3,6.872031838E-3,3.359660041E-3
3.325574536E0,-9.926267900E-3,6.872031838E-3,2.137965523E-3
3.328052505E0,-9.926267900E-3,5.650337320E-3,2.137965523E-3
3.330531307E0,-1.114796288E-2,3.206948051E-3,-3.054236295E-4
3.333010942E0,-1.236965694E-2,5.650337320E-3,2.137965523E-3
3.335489692E0,-1.114796288E-2,3.206948051E-3,2.137965523E-3
3.337967661E0,-1.114796288E-2,3.206948051E-3,2.137965523E-3
3.340446463E0,-1.114796288E-2,3.206948051E-3,2.137965523E-3
3.342926098E0,-1.236965694E-2,7.635590737E-4,9.162708884E-4
3.345404848E0,-1.114796288E-2,1.985253533E-3,9.162708884E-4
3.347882869E0,-1.114796288E-2,-4.581354442E-4,-2.748812549E-3
3.350361619E0,-1.114796288E-2,1.985253533E-3,-2.748812549E-3
3.352841307E0,-9.926267900E-3,7.635590737E-4,-2.748812549E-3
3.355320057E0,-9.926267900E-3,1.985253533E-3,-3.970507067E-3
3.357798025E0,-8.704573847E-3,7.635590737E-4,-3.970507067E-3
3.360276827E0,-8.704573847E-3,1.985253533E-3,-5.192201585E-3
3.362756463E0,-8.704573847E-3,7.635590737E-4,-7.635590620E-3
3.365235213E0,-8.704573847E-3,7.635590737E-4,-7.635590620E-3
3.367713182E0,-8.704573847E-3,7.635590737E-4,-7.635590620E-3
3.370191984E0,-9.926267900E-3,1.985253533E-3,-7.635590620E-3
3.372671619E0,-8.704573847E-3,7.635590737E-4,-1.130067464E-2
3.375150369E0,-8.704573847E-3,7.635590737E-4,-1.252236869E-2
3.377628338E0,-8.704573847E-3,1.985253533E-3,-1.130067464E-2
3.380107140E0,-9.926267900E-3,7.635590737E-4,-1.007897966E-2
3.382586775E0,-9.926267900E-3,7.635590737E-4,-1.130067464E-2
3.385065525E0,-1.114796288E-2,7.635590737E-4,-1.252236869E-2
3.387543494E0,-1.236965694E-2,7.635590737E-4,-1.252236869E-2
3.390022296E0,-1.359135192E-2,-4.581354442E-4,-1.374406368E-2
3.392501932E0,-1.603474095E-2,-2.901524538E-3,-1.252236869E-2
3.394980682E0,-1.847812906E-2,-4.123218823E-3,-1.252236869E-2
3.397458702E0,-2.092151903E-2,-4.123218823E-3,-1.374406368E-2
3.399937452E0,-2.214321308E-2,-4.123218823E-3,-1.252236869E-2
3.402417140E0,-2.458660305E-2,-6.566607859E-3,-1.252236869E-2
3.404895890E0,-2.580829710E-2,-6.566607859E-3,-1.252236869E-2
3.407373859E0,-2.702999115E-2,-9.009997360E-3,-1.252236869E-2
3.409852661E0,-2.825168520E-2,-1.023169141E-2,-1.252236869E-2
3.412332296E0,-3.069507517E-2,-9.009997360E-3,-1.130067464E-2
3.414811046E0,-3.191677108E-2,-1.023169141E-2,-8.857285604E-3
3.417289015E0,-3.191677108E-2,-1.267508045E-2,-1.007897966E-2
3.419767817E0,-3.313846514E-2,-1.145338640E-2,-8.857285604E-3
3.422247452E0,-3.436015919E-2,-1.145338640E-2,-7.635590620E-3
3.424726202E0,-3.680354729E-2,-1.267508045E-2,-6.413896102E-3
3.427204171E0,-3.802524135E-2,-1.145338640E-2,-6.413896102E-3
3.429682973E0,-3.802524135E-2,-1.634016447E-2,-3.970507067E-3
3.432162609E0,-3.924693540E-2,-1.389677543E-2,-5.192201585E-3
3.434641359E0,-3.924693540E-2,-1.389677543E-2,-3.970507067E-3
3.437119380E0,-3.802524135E-2,-1.511846948E-2,-2.748812549E-3
3.439598130E0,-3.802524135E-2,-1.634016447E-2,-2.748812549E-3
3.442077817E0,-3.802524135E-2,-1.756185852E-2,-1.527118147E-3
3.444556515E0,-3.558185324E-2,-1.878355257E-2,-3.054236295E-4
3.447034536E0,-3.436015919E-2,-1.634016447E-2,-1.527118147E-3
3.449513338E0,-3.191677108E-2,-1.634016447E-2,-3.054236295E-4
3.451992973E0,-2.825168520E-2,-1.389677543E-2,9.162708884E-4
3.454471723E0,-2.702999115E-2,-1.389677543E-2,2.137965523E-3
3.456949692E0,-2.458660305E-2,-1.389677543E-2,2.137965523E-3
3.459428494E0,-2.092151903E-2,-1.389677543E-2,9.162708884E-4
3.461908130E0,-1.969982497E-2,-1.511846948E-2,9.162708884E-4
3.464386880E0,-1.603474095E-2,-1.634016447E-2,-3.054236295E-4
3.466864848E0,-1.236965694E-2,-1.634016447E-2,2.137965523E-3
3.469343650E0,-9.926267900E-3,-2.000524849E-2,2.137965523E-3
3.471823286E0,-7.482878864E-3,-2.244863659E-2,3.359660041E-3
3.474302036E0,-5.039489828E-3,-2.244863659E-2,4.581354558E-3
3.476780005E0,-2.596100792E-3,-2.733541466E-2,3.359660041E-3
3.479258807E0,-1.527118147E-4,-2.977880463E-2,3.359660041E-3
3.481738442E0,3.512371797E-3,-3.222219273E-2,2.137965523E-3
3.484217192E0,5.955760833E-3,-3.588727489E-2,4.581354558E-3
3.486695213E0,8.399149403E-3,-3.955236077E-2,5.803049076E-3
3.489173963E0,1.084253844E-2,-4.199574888E-2,5.803049076E-3
3.491653650E0,1.328592747E-2,-4.566083103E-2,5.803049076E-3
3.494132400E0,1.450762246E-2,-4.810422286E-2,5.803049076E-3
3.496610369E0,1.572931744E-2,-4.932591692E-2,5.803049076E-3
3.499089171E0,1.695101149E-2,-5.299099907E-2,8.246437646E-3
3.501568807E0,1.939439960E-2,-5.543438718E-2,7.024743594E-3
3.504047557E0,1.695101149E-2,-5.787777901E-2,9.468132630E-3
3.506525525E0,1.817270555E-2,-5.787777901E-2,1.068982668E-2
3.509004327E0,1.695101149E-2,-6.276455522E-2,1.191152167E-2
3.511483963E0,1.695101149E-2,-6.398624927E-2,1.191152167E-2
3.513962713E0,1.695101149E-2,-6.520794332E-2,1.313321572E-2
3.516440682E0,1.572931744E-2,-6.765133142E-2,1.435491070E-2
3.518919484E0,1.572931744E-2,-6.765133142E-2,1.435491070E-2
3.521399171E0,1.328592747E-2,-6.765133142E-2,1.557660475E-2
3.523877869E0,1.328592747E-2,-6.887302548E-2,1.679829881E-2
3.526355890E0,1.450762246E-2,-7.009471953E-2,1.801999472E-2
3.528834640E0,1.450762246E-2,-7.131642103E-2,1.924168877E-2
3.531314327E0,1.328592747E-2,-7.131642103E-2,2.046338283E-2
3.533793025E0,1.572931744E-2,-7.253811508E-2,2.290677279E-2
3.536271046E0,1.450762246E-2,-7.375980914E-2,2.290677279E-2
3.538749848E0,1.695101149E-2,-7.253811508E-2,2.290677279E-2
3.541229484E0,1.817270555E-2,-7.253811508E-2,2.412846684E-2
3.543708234E0,1.817270555E-2,-7.253811508E-2,2.535016090E-2
3.546186202E0,2.061609551E-2,-7.131642103E-2,2.412846684E-2
3.548665005E0,2.183778957E-2,-6.887302548E-2,2.535016090E-2
3.551144640E0,2.305948362E-2,-6.642963737E-2,2.657185495E-2
3.553623390E0,2.550287358E-2,-6.398624927E-2,2.779355086E-2
3.556101359E0,2.794626169E-2,-6.032116711E-2,2.779355086E-2
3.558580161E0,3.161134571E-2,-5.909947306E-2,2.779355086E-2
3.561059796E0,3.405473381E-2,-5.665608495E-2,2.901524492E-2
3.563538546E0,3.527642787E-2,-5.421269313E-2,2.901524492E-2
3.566016515E0,4.016320780E-2,-5.299099907E-2,3.023693897E-2
3.568495317E0,4.627167806E-2,-5.054761097E-2,2.901524492E-2
3.570974952E0,4.749337584E-2,-4.932591692E-2,3.268032894E-2
3.573453702E0,4.871506989E-2,-4.566083103E-2,3.268032894E-2
3.575931723E0,5.360184610E-2,-4.566083103E-2,3.023693897E-2
3.578410473E0,5.604523420E-2,-4.321744293E-2,3.390202299E-2
3.580890161E0,5.848862603E-2,-4.443913698E-2,3.390202299E-2
3.583368911E0,5.971032009E-2,-4.321744293E-2,3.390202299E-2
3.585846880E0,6.093201414E-2,-4.443913698E-2,3.512371704E-2
3.588325682E0,6.459710002E-2,-4.566083103E-2,3.512371704E-2
3.590805317E0,6.459710002E-2,-4.810422286E-2,3.512371704E-2
3.593284067E0,6.704048812E-2,-5.299099907E-2,3.634541109E-2
3.595762036E0,6.826218218E-2,-5.665608495E-2,3.634541109E-2
3.598240838E0,6.948387623E-2,-6.032116711E-2,3.634541109E-2
3.600720473E0,6.948387623E-2,-6.520794332E-2,3.756710514E-2
3.603199223E0,6.826218218E-2,-7.009471953E-2,3.756710514E-2
3.605677192E0,6.826218218E-2,-7.498150319E-2,3.878879920E-2
3.608155994E0,6.826218218E-2,-8.108997345E-2,3.634541109E-2
3.610635630E0,6.704048812E-2,-8.719844371E-2,3.634541109E-2
3.613114380E0,6.581879407E-2,-9.208522737E-2,3.512371704E-2
3.615592400E0,6.459710002E-2,-9.575030953E-2,3.512371704E-2
3.618071150E0,6.093201414E-2,-1.018587798E-1,3.512371704E-2
3.620550838E0,5.848862603E-2,-1.055238619E-1,3.390202299E-2
3.623029536E0,5.482354015E-2,-1.091889441E-1,3.268032894E-2
3.625507557E0,5.115845799E-2,-1.128540337E-1,3.023693897E-2
3.627986359E0,4.627167806E-2,-1.140757278E-1,2.901524492E-2
3.630465994E0,4.382828996E-2,-1.140757278E-1,2.779355086E-2
3.632944744E0,3.894151375E-2,-1.189625040E-1,2.657185495E-2
3.635422713E0,3.649812192E-2,-1.189625040E-1,2.412846684E-2
3.637901515E0,3.161134571E-2,-1.189625040E-1,2.046338283E-2
3.640381150E0,2.672456764E-2,-1.177408099E-1,1.801999472E-2
3.642859900E0,2.061609551E-2,-1.165191159E-1,1.801999472E-2
3.645337869E0,1.817270555E-2,-1.128540337E-1,1.557660475E-2
3.647816671E0,1.450762246E-2,-1.104106456E-1,1.435491070E-2
3.650296307E0,9.620844387E-3,-1.043021679E-1,1.313321572E-2
3.652775057E0,4.734066315E-3,-9.330692142E-2,1.191152167E-2
3.655253025E0,1.068982761E-3,-8.475505561E-2,9.468132630E-3
3.657731827E0,-2.596100792E-3,-7.375980914E-2,9.468132630E-3
3.660211515E0,-8.704573847E-3,-6.398624927E-2,4.581354558E-3
3.662690213E0,-1.236965694E-2,-5.054761097E-2,2.137965523E-3
3.665168234E0,-1.603474095E-2,-3.955236077E-2,-3.054236295E-4
3.667646984E0,-2.092151903E-2,-2.733541466E-2,-5.192201585E-3
3.670126671E0,-2.336490713E-2,-1.267508045E-2,-7.635590620E-3
3.672605421E0,-2.580829710E-2,-1.679830020E-3,-1.007897966E-2
3.675083390E0,-2.825168520E-2,9.315420873E-3,-1.374406368E-2
3.677562192E0,-3.191677108E-2,1.908897609E-2,-1.740914769E-2
3.680041827E0,-3.436015919E-2,2.886253223E-2,-2.107422985E-2
3.682520577E0,-3.558185324E-2,3.619270027E-2,-2.473931387E-2
3.684998546E0,-3.680354729E-2,4.107947648E-2,-2.962609194E-2
3.687477348E0,-3.924693540E-2,5.085303262E-2,-3.084778599E-2
3.689956984E0,-3.802524135E-2,5.818320066E-2,-3.206948191E-2
3.692435734E0,-4.046862945E-2,6.429167092E-2,-3.573456407E-2
3.694913702E0,-4.046862945E-2,6.795676053E-2,-4.062134400E-2
3.697392505E0,-4.169032723E-2,7.284353673E-2,-4.306473210E-2
3.699872140E0,-4.046862945E-2,7.895200700E-2,-4.550812021E-2
3.702350890E0,-3.924693540E-2,8.139539510E-2,-4.917320609E-2
3.704828911E0,-3.802524135E-2,8.139539510E-2,-5.283828825E-2
3.707307661E0,-3.680354729E-2,8.383878320E-2,-5.528167635E-2
3.709787348E0,-3.680354729E-2,8.506047726E-2,-5.650337040E-2
3.712266046E0,-3.680354729E-2,8.506047726E-2,-6.139015034E-2
3.714744067E0,-3.680354729E-2,8.383878320E-2,-6.505523622E-2
3.717222869E0,-3.680354729E-2,8.139539510E-2,-6.749862432E-2
3.719702505E0,-3.802524135E-2,7.895200700E-2,-7.116370648E-2
3.722181255E0,-4.046862945E-2,7.528692484E-2,-7.360709459E-2
3.724659223E0,-4.046862945E-2,7.406523079E-2,-7.605048269E-2
3.727138025E0,-4.291202128E-2,7.162184268E-2,-7.727217674E-2
3.729617661E0,-4.535540938E-2,6.795676053E-2,-7.971556485E-2
3.732096411E0,-4.657710344E-2,6.306997687E-2,-8.338065445E-2
3.734574380E0,-5.024218559E-2,6.062658876E-2,-8.460234851E-2
3.737053182E0,-5.390727147E-2,5.940489471E-2,-8.582404256E-2
3.739532817E0,-5.635065958E-2,5.940489471E-2,-8.582404256E-2
3.742011567E0,-6.001574174E-2,5.696150661E-2,-8.826743066E-2
3.744489588E0,-6.368082762E-2,5.573981255E-2,-9.315420687E-2
3.746968338E0,-6.856760383E-2,5.329642445E-2,-9.681928903E-2
3.749448025E0,-7.223268598E-2,4.963133857E-2,-9.559759498E-2
3.751926723E0,-7.834116369E-2,4.596625641E-2,-9.437590092E-2
3.754404744E0,-8.444963396E-2,4.352286831E-2,-9.804098308E-2
3.756883494E0,-9.055810422E-2,4.107947648E-2,-9.804098308E-2
3.759363182E0,-9.788827598E-2,3.619270027E-2,-9.804098308E-2
3.761841932E0,-1.027750522E-1,3.252761811E-2,-9.804098308E-2
3.764319900E0,-1.113269106E-1,2.764083818E-2,-9.926267713E-2
3.766798702E0,-1.174353883E-1,3.008422814E-2,-1.004843712E-1
3.769278338E0,-1.223221645E-1,2.764083818E-2,-9.926267713E-2
3.771757088E0,-1.308740228E-1,2.397575416E-2,-1.017060652E-1
3.774235057E0,-1.382041872E-1,2.275406010E-2,-1.017060652E-1
3.776713859E0,-1.479777545E-1,1.786728203E-2,-1.004843712E-1
3.779193494E0,-1.553079188E-1,1.420219894E-2,-9.926267713E-2
3.781672244E0,-1.638597846E-1,1.175880991E-2,-9.804098308E-2
3.784150213E0,-1.711899489E-1,8.093725890E-3,-9.926267713E-2
3.786629015E0,-1.809635013E-1,4.428642802E-3,-9.804098308E-2
3.789108650E0,-1.895153672E-1,1.985253533E-3,-9.559759498E-2
3.791587400E0,-1.992889196E-1,-1.679830020E-3,-9.437590092E-2
3.794065421E0,-2.090624720E-1,-4.123218823E-3,-9.071081877E-2
3.796544171E0,-2.188360244E-1,-1.023169141E-2,-8.582404256E-2
3.799023859E0,-2.286095917E-1,-1.267508045E-2,-8.338065445E-2
3.801502557E0,-2.371614426E-1,-1.389677543E-2,-8.215895295E-2
3.803980577E0,-2.469350100E-1,-1.267508045E-2,-8.093725890E-2
3.806459380E0,-2.567085624E-1,-1.145338640E-2,-7.971556485E-2
3.808939015E0,-2.664821148E-1,-1.267508045E-2,-7.849387079E-2
3.811417765E0,-2.750339806E-1,-1.267508045E-2,-7.482878864E-2
3.813895734E0,-2.823641598E-1,-1.023169141E-2,-7.482878864E-2
3.816374536E0,-2.884726226E-1,-7.788302377E-3,-7.238540053E-2
3.818854171E0,-2.945810854E-1,-5.344913341E-3,-7.116370648E-2
3.821332921E0,-2.982461751E-1,-5.344913341E-3,-6.872031838E-2
3.823810890E0,-3.019112647E-1,-6.566607859E-3,-6.749862432E-2
3.826289692E0,-3.043546379E-1,-6.566607859E-3,-6.627693027E-2
3.828769327E0,-3.055763543E-1,-6.566607859E-3,-6.749862432E-2
3.831248077E0,-3.067980409E-1,-1.145338640E-2,-6.872031838E-2
3.833726098E0,-3.055763543E-1,-1.145338640E-2,-6.994201243E-2
3.836204848E0,-3.019112647E-1,-1.511846948E-2,-7.116370648E-2
3.838684536E0,-2.982461751E-1,-2.000524849E-2,-7.605048269E-2
3.841163234E0,-2.909159958E-1,-2.489202656E-2,-7.849387079E-2
3.843641255E0,-2.848075330E-1,-3.100049868E-2,-8.582404256E-2
3.846120005E0,-2.738122940E-1,-3.588727489E-2,-9.193251282E-2
3.848599692E0,-2.615953386E-1,-3.833066672E-2,-9.926267713E-2
3.851078390E0,-2.469350100E-1,-4.199574888E-2,-1.017060652E-1
3.853556411E0,-2.310529798E-1,-4.566083103E-2,-1.078145429E-1
3.856035213E0,-2.127275616E-1,-4.810422286E-2,-1.127013192E-1
3.858514848E0,-1.931804419E-1,-5.054761097E-2,-1.188097894E-1
3.860993598E0,-1.736333370E-1,-5.054761097E-2,-1.212531775E-1
3.863471567E0,-1.540862173E-1,-4.566083103E-2,-1.236965731E-1
3.865950369E0,-1.320957243E-1,-4.199574888E-2,-1.249182671E-1
3.868430005E0,-1.125486046E-1,-3.710897267E-2,-1.236965731E-1
3.870908755E0,-8.933641016E-2,-2.977880463E-2,-1.261399537E-1
3.873386723E0,-7.101099193E-2,-1.634016447E-2,-1.273616552E-1
3.875865525E0,-5.024218559E-2,-9.009997360E-3,-1.298050433E-1
3.878345161E0,-2.825168520E-2,3.206948051E-3,-1.346918195E-1
3.880823911E0,-8.704573847E-3,1.175880991E-2,-1.395785958E-1
3.883301932E0,1.206423342E-2,2.397575416E-2,-1.432436854E-1
3.885780682E0,3.405473381E-2,3.863608837E-2,-1.493521482E-1
3.888260369E0,4.993676394E-2,5.940489471E-2,-1.554606259E-1
3.890739067E0,6.948387623E-2,7.895200700E-2,-1.591257155E-1
3.893217088E0,8.658760041E-2,1.033858955E-1,-1.640124917E-1
3.895695890E0,1.024696305E-1,1.253764033E-1,-1.676775664E-1
3.898175525E0,1.159082651E-1,1.473668963E-1,-1.713426560E-1
3.900654275E0,1.281252056E-1,1.705790907E-1,-1.737860441E-1
3.903132244E0,1.391204596E-1,1.950129867E-1,-1.737860441E-1
3.905611046E0,1.488940120E-1,2.157817930E-1,-1.750077456E-1
3.908090682E0,1.574458778E-1,2.328855246E-1,-1.725643575E-1
3.910569432E0,1.659977436E-1,2.487675399E-1,-1.688992679E-1
3.913047400E0,1.733279079E-1,2.597627938E-1,-1.664558798E-1
3.915526202E0,1.782146841E-1,2.683146596E-1,-1.603474021E-1
3.918005838E0,1.818797737E-1,2.744231224E-1,-1.542389393E-1
3.920484588E0,1.855448484E-1,2.793098986E-1,-1.456870735E-1
3.922962609E0,1.855448484E-1,2.829749882E-1,-1.359135211E-1
3.925441359E0,1.855448484E-1,2.890834510E-1,-1.261399537E-1
3.927921046E0,1.843231618E-1,2.939702570E-1,-1.139230132E-1
3.930399744E0,1.818797737E-1,3.025220931E-1,-1.053711548E-1
3.932877765E0,1.769929975E-1,3.122956753E-1,-9.437590092E-2
3.935356567E0,1.745496094E-1,3.232909143E-1,-8.582404256E-2
3.937836202E0,1.696628332E-1,3.379512429E-1,-7.605048269E-2
3.940314952E0,1.647760421E-1,3.550549746E-1,-6.872031838E-2
3.942792921E0,1.598892659E-1,3.721587062E-1,-6.383354217E-2
3.945271723E0,1.574458778E-1,3.880407214E-1,-6.139015034E-2
3.947751359E0,1.537808031E-1,4.063661397E-1,-6.016845629E-2
3.950230109E0,1.537808031E-1,4.246915579E-1,-6.261184067E-2
3.952708077E0,1.550024897E-1,4.369085133E-1,-6.383354217E-2
3.955186880E0,1.550024897E-1,4.430169761E-1,-6.505523622E-2
3.957666515E0,1.586675793E-1,4.491254389E-1,-6.383354217E-2
3.960145265E0,1.623326540E-1,4.417952895E-1,-6.261184067E-2
3.962623234E0,1.659977436E-1,4.369085133E-1,-6.016845629E-2
3.965102036E0,1.708845198E-1,4.271349311E-1,-5.528167635E-2
3.967581671E0,1.757712960E-1,4.149180055E-1,-5.039490014E-2
3.970060421E0,1.818797737E-1,4.014793634E-1,-4.672981426E-2
3.972538442E0,1.843231618E-1,3.917058110E-1,-4.550812021E-2
3.975017192E0,1.892099380E-1,3.843756318E-1,-4.550812021E-2
3.977496880E0,1.916533262E-1,3.746020794E-1,-4.184303805E-2
3.979975630E0,1.965401024E-1,3.660502136E-1,-4.062134400E-2
3.982453598E0,1.989834905E-1,3.623851240E-1,-3.939964995E-2
3.984932400E0,2.014268786E-1,3.648285270E-1,-3.939964995E-2
3.987412036E0,2.038702667E-1,3.636068404E-1,-4.062134400E-2
3.989890786E0,2.063136548E-1,3.684936166E-1,-4.306473210E-2
3.992368755E0,2.099787444E-1,3.721587062E-1,-4.306473210E-2
3.994847557E0,2.148655206E-1,3.782671690E-1,-4.550812021E-2
3.997327192E0,2.185306102E-1,3.831539452E-1,-4.672981426E-2
3.999805942E0,2.246390730E-1,3.904841244E-1,-4.917320609E-2
4.002283911E0,2.331909388E-1,3.990359604E-1,-5.039490014E-2
4.004762713E0,2.405211031E-1,4.063661397E-1,-5.161659420E-2
4.007242348E0,2.502946556E-1,4.100312293E-1,-5.161659420E-2
4.009721098E0,2.637332976E-1,4.063661397E-1,-4.917320609E-2
4.012199067E0,2.747285664E-1,4.063661397E-1,-5.161659420E-2
4.014677869E0,2.881672084E-1,4.075878263E-1,-4.795150831E-2
4.017157557E0,3.003841341E-1,4.063661397E-1,-4.306473210E-2
4.019636255E0,3.126010895E-1,4.002576768E-1,-4.184303805E-2
4.022114275E0,3.223746419E-1,3.941491842E-1,-3.817795217E-2
4.024593077E0,3.297048211E-1,3.794888556E-1,-3.451287001E-2
4.027072713E0,3.358132839E-1,3.623851240E-1,-2.962609194E-2
4.029551463E0,3.394783735E-1,3.403946459E-1,-2.718270384E-2
4.032029432E0,3.407000601E-1,3.037438095E-1,-2.107422985E-2
4.034508234E0,3.382566571E-1,2.609844804E-1,-1.618745178E-2
4.036987869E0,3.333698809E-1,2.096733153E-1,-8.857285604E-3
4.039466619E0,3.235963285E-1,1.510319859E-1,9.162708884E-4
4.041944588E0,3.138227761E-1,8.628217876E-2,8.246437646E-3
4.044423390E0,3.028275371E-1,2.153236605E-2,1.801999472E-2
4.046903025E0,2.942756712E-1,-4.688252881E-2,3.023693897E-2
4.049381775E0,2.845021188E-1,-1.116323397E-1,4.245388508E-2
4.051859744E0,2.783936262E-1,-1.727170646E-1,5.467082933E-2
4.054338546E0,2.710634768E-1,-2.264716178E-1,6.566607952E-2
4.056818182E0,2.649549842E-1,-2.753393948E-1,7.543963939E-2
4.059296932E0,2.612899244E-1,-3.156553209E-1,8.276980370E-2
4.061774952E0,2.600682080E-1,-3.449759781E-1,9.132166207E-2
4.064253755E0,2.576248348E-1,-3.706315756E-1,9.743013978E-2
4.066733390E0,2.600682080E-1,-3.877353072E-1,1.023169160E-1
4.069212140E0,2.637332976E-1,-3.962871730E-1,1.072036922E-1
4.071690109E0,2.698417902E-1,-3.962871730E-1,1.120904684E-1
4.074168911E0,2.735068500E-1,-3.877353072E-1,1.145338640E-1
4.076648546E0,2.808370292E-1,-3.779617548E-1,1.145338640E-1
4.079127296E0,2.893888950E-1,-3.584146202E-1,1.120904684E-1
4.081605265E0,2.979407609E-1,-3.376458287E-1,1.084253863E-1
4.084084067E0,3.089359999E-1,-3.132119179E-1,1.023169160E-1
4.086563702E0,3.187095523E-1,-2.875563502E-1,9.865183383E-2
4.089042452E0,3.309265077E-1,-2.643441558E-1,9.254335612E-2
4.091520421E0,3.419217467E-1,-2.447970361E-1,8.643488586E-2
4.093999223E0,3.541387022E-1,-2.264716178E-1,8.032641560E-2
4.096478859E0,3.626905680E-1,-2.057028115E-1,7.666133344E-2
4.098957609E0,3.749074936E-1,-1.898207814E-1,7.299624383E-2
4.101435630E0,3.834593594E-1,-1.788255423E-1,6.810946763E-2
4.103914380E0,3.920112252E-1,-1.678302884E-1,6.566607952E-2
4.106394067E0,3.993414044E-1,-1.592784226E-1,6.200099736E-2
4.108872765E0,4.054498672E-1,-1.495048702E-1,5.833591148E-2
4.111350786E0,4.115583301E-1,-1.421747059E-1,5.711421743E-2
4.113829588E0,4.140017331E-1,-1.397313178E-1,5.589252338E-2
4.116309223E0,4.164451063E-1,-1.409530044E-1,5.589252338E-2
4.118787973E0,4.188885093E-1,-1.482831687E-1,5.467082933E-2
4.121265942E0,4.201101959E-1,-1.531699449E-1,5.711421743E-2
4.123744744E0,4.237752855E-1,-1.592784226E-1,5.467082933E-2
4.126224380E0,4.274403751E-1,-1.641651988E-1,5.344913527E-2
4.128703130E0,4.311054647E-1,-1.678302884E-1,5.344913527E-2
4.131181098E0,4.323271513E-1,-1.739387512E-1,5.222744122E-2
4.133659900E0,4.372139275E-1,-1.788255423E-1,5.100574717E-2
4.136139536E0,4.433223903E-1,-1.824906170E-1,4.978405312E-2
4.138618286E0,4.482091665E-1,-1.824906170E-1,4.856235534E-2
4.141096255E0,4.530959427E-1,-1.837123185E-1,4.611896724E-2
4.143575057E0,4.579827189E-1,-1.837123185E-1,4.245388508E-2
4.146054692E0,4.628695250E-1,-1.849340051E-1,3.878879920E-2
4.148533442E0,4.701996744E-1,-1.788255423E-1,3.756710514E-2
4.151011463E0,4.750864506E-1,-1.714953631E-1,3.634541109E-2
4.153490265E0,4.811949134E-1,-1.617218107E-1,3.023693897E-2
4.155969900E0,4.860817194E-1,-1.482831687E-1,2.779355086E-2
4.158448598E0,4.934118688E-1,-1.348445266E-1,2.657185495E-2
4.160926619E0,5.019637346E-1,-1.128540337E-1,2.535016090E-2
4.163405421E0,5.068505406E-1,-8.842013776E-2,2.657185495E-2
4.165885057E0,5.166240931E-1,-6.032116711E-2,2.535016090E-2
4.168363807E0,5.251759291E-1,-3.222219273E-2,2.657185495E-2
4.170841775E0,5.337277651E-1,-4.123218823E-3,2.657185495E-2
4.173320577E0,5.435013771E-1,2.886253223E-2,2.901524492E-2
4.175800213E0,5.508314967E-1,5.818320066E-2,3.268032894E-2
4.178278963E0,5.593833923E-1,8.750387281E-2,3.634541109E-2
4.180756932E0,5.654918551E-1,1.156028435E-1,4.245388508E-2
4.183235734E0,5.728220344E-1,1.424801201E-1,4.978405312E-2
4.185715369E0,5.789304972E-1,1.656923145E-1,5.467082933E-2
4.188194119E0,5.801522136E-1,1.864611208E-1,6.200099736E-2
4.190672140E0,5.801522136E-1,2.108950168E-1,7.055285573E-2
4.193150890E0,5.764871240E-1,2.328855246E-1,7.910472155E-2
4.195630577E0,5.679352283E-1,2.597627938E-1,8.765657991E-2
4.198109275E0,5.544965863E-1,2.890834510E-1,9.743013978E-2
4.200587296E0,5.398362875E-1,3.220692277E-1,1.084253863E-1
4.203066098E0,5.251759291E-1,3.465031087E-1,1.194206402E-1
4.205545734E0,5.105155706E-1,3.709369898E-1,1.291942000E-1
4.208024484E0,4.970769584E-1,3.917058110E-1,1.377460510E-1
4.210502452E0,4.824166298E-1,4.063661397E-1,1.475196183E-1
4.212981255E0,4.665345848E-1,4.246915579E-1,1.548497826E-1
4.215460890E0,4.506525695E-1,4.369085133E-1,1.646233350E-1
4.217939640E0,4.359922409E-1,4.515688419E-1,1.756185889E-1
4.220417609E0,4.201101959E-1,4.650074840E-1,1.817270666E-1
4.222896411E0,4.054498672E-1,4.784461260E-1,1.890572309E-1
4.225376046E0,3.944546282E-1,4.918847680E-1,1.988307834E-1
4.227854796E0,3.834593594E-1,5.004366040E-1,2.073826492E-1
4.230332765E0,3.736858070E-1,5.053234100E-1,2.171562016E-1
4.232811567E0,3.626905680E-1,5.053234100E-1,2.293731421E-1
4.235291255E0,3.529170156E-1,5.053234100E-1,2.403683960E-1
4.237769952E0,3.407000601E-1,4.992149174E-1,2.513636351E-1
4.240247973E0,3.284831047E-1,4.931064546E-1,2.660239935E-1
4.242726775E0,3.162661791E-1,4.845545888E-1,2.806843221E-1
4.245206411E0,3.016058207E-1,4.747810364E-1,2.916795611E-1
4.247685161E0,2.881672084E-1,4.625640810E-1,3.038965166E-1
4.250163130E0,2.735068500E-1,4.503471553E-1,3.136700690E-1
4.252641932E0,2.588465214E-1,4.393518865E-1,3.210002482E-1
4.255121567E0,2.454078794E-1,4.283566475E-1,3.246653080E-1
4.257600317E0,2.307475507E-1,4.112529159E-1,3.271087110E-1
4.260078286E0,2.124221325E-1,3.953709006E-1,3.295520842E-1
4.262557088E0,1.940967143E-1,3.782671690E-1,3.319954872E-1
4.265036723E0,1.782146841E-1,3.611634374E-1,3.283303976E-1
4.267515473E0,1.623326540E-1,3.428380191E-1,3.222219348E-1
4.269993442E0,1.464506239E-1,3.245126009E-1,3.173351586E-1
4.272472244E0,1.305686086E-1,3.074088693E-1,3.100049794E-1
4.274951880E0,1.171299592E-1,2.939702570E-1,2.990097404E-1
4.277430630E0,1.049130186E-1,2.768665254E-1,2.880144715E-1
4.279908650E0,9.513945878E-2,2.634278834E-1,2.770192325E-1
4.282387400E0,8.536590636E-2,2.475458533E-1,2.672456801E-1
4.284867088E0,7.681404054E-2,2.292204350E-1,2.586938143E-1
4.287345838E0,7.192726433E-2,2.133384049E-1,2.513636351E-1
4.289823807E0,6.704048812E-2,1.962346882E-1,2.452551723E-1
4.292302609E0,6.337540597E-2,1.742441803E-1,2.415900975E-1
4.294782244E0,6.093201414E-2,1.534753740E-1,2.403683960E-1
4.297260994E0,5.971032009E-2,1.253764033E-1,2.415900975E-1
4.299738963E0,5.971032009E-2,9.483403713E-2,2.452551723E-1
4.302217765E0,6.093201414E-2,6.429167092E-2,2.513636351E-1
4.304697400E0,6.215370819E-2,3.497100621E-2,2.586938143E-1
4.307176150E0,6.581879407E-2,4.428642802E-3,2.648022771E-1
4.309654119E0,6.826218218E-2,-2.489202656E-2,2.757975459E-1
4.312132921E0,7.192726433E-2,-5.543438718E-2,2.867927849E-1
4.314612557E0,7.192726433E-2,-8.353336155E-2,2.977880239E-1
4.317091307E0,7.681404054E-2,-1.079672500E-1,3.124483824E-1
4.319569327E0,8.047912270E-2,-1.275143623E-1,3.234436214E-1
4.322048077E0,8.292251825E-2,-1.385096163E-1,3.307738006E-1
4.324527765E0,8.658760041E-2,-1.409530044E-1,3.344388604E-1
4.327006463E0,8.903098851E-2,-1.409530044E-1,3.356605768E-1
4.329484484E0,9.025268257E-2,-1.324011385E-1,3.381039500E-1
4.331963286E0,9.269607067E-2,-1.214058921E-1,3.381039500E-1
4.334442921E0,9.513945878E-2,-1.055238619E-1,3.405473530E-1
4.336921671E0,1.012479365E-1,-8.719844371E-2,3.405473530E-1
4.339399640E0,1.073564067E-1,-6.765133142E-2,3.442124426E-1
4.341878442E0,1.097997949E-1,-4.810422286E-2,3.442124426E-1
4.344358077E0,1.146865711E-1,-2.855710872E-2,3.466558158E-1
4.346836827E0,1.159082651E-1,-4.123218823E-3,3.478775024E-1
4.349314796E0,1.183516532E-1,1.542389300E-2,3.490992188E-1
4.351793598E0,1.207950488E-1,4.107947648E-2,3.515425920E-1
4.354273234E0,1.244601309E-1,6.673506647E-2,3.552076817E-1
4.356751984E0,1.256818175E-1,9.116895497E-2,3.564293683E-1
4.359229952E0,1.244601309E-1,1.131594554E-1,3.552076817E-1
4.361708755E0,1.244601309E-1,1.339282542E-1,3.503209054E-1
4.364188442E0,1.207950488E-1,1.485885978E-1,3.478775024E-1
4.366667140E0,1.146865711E-1,1.571404636E-1,3.454341292E-1
4.369145161E0,1.110214889E-1,1.681357026E-1,3.429907262E-1
4.371623911E0,1.085781008E-1,1.730224788E-1,3.381039500E-1
4.374103598E0,1.049130186E-1,1.791309565E-1,3.356605768E-1
4.376582348E0,1.000262350E-1,1.827960461E-1,3.295520842E-1
4.379060317E0,9.636115283E-2,1.840177327E-1,3.258870244E-1
4.381539119E0,9.147437662E-2,1.779092699E-1,3.185568452E-1
4.384018755E0,8.903098851E-2,1.718007922E-1,3.124483824E-1
4.386497505E0,8.536590636E-2,1.644706279E-1,3.087832928E-1
4.388975473E0,8.536590636E-2,1.559187621E-1,3.026748300E-1
4.391454275E0,8.658760041E-2,1.510319859E-1,2.965663373E-1
4.393933911E0,8.658760041E-2,1.485885978E-1,2.880144715E-1
4.396412661E0,9.147437662E-2,1.473668963E-1,2.843494117E-1
4.398890630E0,9.391776472E-2,1.461452097E-1,2.757975459E-1
4.401369432E0,9.513945878E-2,1.498102844E-1,2.696890533E-1
4.403849119E0,1.012479365E-1,1.583621502E-1,2.635805905E-1
4.406327817E0,1.024696305E-1,1.644706279E-1,2.562504113E-1
4.408805838E0,1.073564067E-1,1.766875684E-1,2.476985604E-1
4.411284588E0,1.122431830E-1,1.901262105E-1,2.428117841E-1
4.413764275E0,1.159082651E-1,2.060082406E-1,2.354816198E-1
4.416242973E0,1.207950488E-1,2.218902707E-1,2.281514555E-1
4.418720994E0,1.244601309E-1,2.377723008E-1,2.220429778E-1
4.421199796E0,1.256818175E-1,2.573194206E-1,2.183778882E-1
4.423679432E0,1.281252056E-1,2.780882120E-1,2.134911120E-1
4.426158182E0,1.305686086E-1,3.000787199E-1,2.086043358E-1
4.428636150E0,1.305686086E-1,3.208475113E-1,2.049392611E-1
4.431114952E0,1.293469071E-1,3.465031087E-1,2.024958730E-1
4.433594588E0,1.330119967E-1,3.672719002E-1,2.012741715E-1
4.436073338E0,1.342336833E-1,3.880407214E-1,2.037175596E-1
4.438551307E0,1.342336833E-1,4.075878263E-1,2.061609477E-1
4.441030109E0,1.354553849E-1,4.222481549E-1,2.110477239E-1
4.443509744E0,1.342336833E-1,4.320217371E-1,2.147128135E-1
4.445988494E0,1.317902952E-1,4.442386627E-1,2.220429778E-1
4.448466515E0,1.281252056E-1,4.527905285E-1,2.257080674E-1
4.450945265E0,1.256818175E-1,4.650074840E-1,2.281514555E-1
4.453424952E0,1.220167428E-1,4.674508572E-1,2.269297540E-1
4.455903702E0,1.171299592E-1,4.650074840E-1,2.281514555E-1
4.458381671E0,1.110214889E-1,4.637857676E-1,2.281514555E-1
4.460860473E0,1.036913246E-1,4.613423944E-1,2.257080674E-1
4.463340109E0,9.269607067E-2,4.515688419E-1,2.195995897E-1
4.465818859E0,7.681404054E-2,4.393518865E-1,2.134911120E-1
4.468296827E0,6.215370819E-2,4.246915579E-1,2.049392611E-1
4.470775630E0,4.504998401E-2,4.027010500E-1,1.963873953E-1
4.473255265E0,2.428117767E-2,3.782671690E-1,1.841704547E-1
4.475734015E0,3.512371797E-3,3.513898849E-1,1.719534993E-1
4.478211984E0,-1.969982497E-2,3.257342875E-1,1.548497826E-1
4.480690786E0,-4.169032723E-2,3.025220931E-1,1.377460510E-1
4.483170421E0,-6.856760383E-2,2.841966748E-1,1.181989461E-1
4.485649171E0,-9.788827598E-2,2.670929730E-1,9.987352788E-2
4.488127140E0,-1.284306347E-1,2.487675399E-1,8.032641560E-2
4.490605942E0,-1.650814712E-1,2.304421216E-1,6.077930331E-2
4.493085630E0,-2.041756958E-1,2.084516287E-1,4.489727318E-2
4.495564327E0,-2.469350100E-1,1.864611208E-1,2.901524492E-2
4.498042348E0,-2.909159958E-1,1.620272398E-1,1.068982668E-2
4.500521150E0,-3.373403847E-1,1.388150454E-1,-3.970507067E-3
4.503000786E0,-3.874298632E-1,1.094943732E-1,-2.351761982E-2
4.505479536E0,-4.350759685E-1,8.261708915E-2,-4.550812021E-2
4.507957505E0,-4.779879749E-1,5.573981255E-2,-6.872031838E-2
4.510436307E0,-5.207473040E-1,3.619270027E-2,-9.559759498E-2
4.512915942E0,-5.598415136E-1,1.908897609E-2,-1.249182671E-1
4.515394692E0,-5.977140665E-1,4.428642802E-3,-1.554606259E-1
4.517872661E0,-6.368082762E-1,-7.788302377E-3,-1.847812980E-1
4.520351463E0,-6.710157394E-1,-2.000524849E-2,-2.153236568E-1
4.522831098E0,-7.052231431E-1,-3.344388679E-2,-2.458660156E-1
4.525309848E0,-7.394306064E-1,-5.299099907E-2,-2.764083743E-1
4.527787817E0,-7.724163532E-1,-6.887302548E-2,-3.069507480E-1
4.530266619E0,-8.078454733E-1,-8.475505561E-2,-3.362714052E-1
4.532746255E0,-8.432746530E-1,-9.697200358E-2,-3.655920923E-1
4.535225005E0,-8.787037730E-1,-1.055238619E-1,-3.936910629E-1
4.537702973E0,-9.165763259E-1,-1.104106456E-1,-4.217900336E-1
4.540181775E0,-9.581139088E-1,-1.079672500E-1,-4.498890042E-1
4.542661463E0,-1.000873208E0,-9.819369763E-2,-4.792096615E-1
4.545140213E0,-1.044854283E0,-8.597674966E-2,-5.097520351E-1
4.547618182E0,-1.087613583E0,-5.909947306E-2,-5.402944088E-1
4.550096984E0,-1.130372882E0,-2.733541466E-2,-5.720584393E-1
4.552576619E0,-1.173132181E0,1.053711493E-2,-6.050441861E-1
4.555055369E0,-1.213448048E0,5.085303262E-2,-6.368082762E-1
4.557533338E0,-1.247655511E0,9.116895497E-2,-6.673506498E-1
4.560012140E0,-1.281862974E0,1.375933439E-1,-6.954495907E-1
4.562491775E0,-1.308740258E0,1.791309565E-1,-7.198835015E-1
4.564970525E0,-1.333174109E0,2.133384049E-1,-7.406523228E-1
4.567448494E0,-1.355164647E0,2.328855246E-1,-7.614210844E-1
4.569927296E0,-1.377155185E0,2.426590770E-1,-7.797465324E-1
4.572406932E0,-1.397923946E0,2.463241518E-1,-7.956285477E-1
4.574885682E0,-1.419914484E0,2.414373755E-1,-8.127322793E-1
4.577363702E0,-1.441904902E0,2.328855246E-1,-8.273926377E-1
4.579842452E0,-1.465117097E0,2.182251811E-1,-8.408312798E-1
4.582322140E0,-1.487107635E0,2.023431510E-1,-8.554915786E-1
4.584800838E0,-1.511541486E0,1.815743446E-1,-8.689302206E-1
4.587278859E0,-1.537197113E0,1.632489264E-1,-8.848122358E-1
4.589757661E0,-1.562852740E0,1.437018216E-1,-8.994725943E-1
4.592237296E0,-1.589730024E0,1.302631795E-1,-9.129112363E-1
4.594716046E0,-1.615385532E0,1.131594554E-1,-9.287932515E-1
4.597194015E0,-1.642262816E0,1.033858955E-1,-9.422318935E-1
4.599672817E0,-1.670361876E0,8.872556686E-2,-9.593356252E-1
4.602152452E0,-1.697239161E0,7.650861889E-2,-9.764393568E-1
4.604631202E0,-1.729003191E0,6.184828654E-2,-9.972081780E-1
4.607109171E0,-1.763210654E0,4.352286831E-2,-1.016755223E0
4.609587973E0,-1.797418118E0,2.764083818E-2,-1.041189194E0
4.612067609E0,-1.831625462E0,8.093725890E-3,-1.064401388E0
4.614546359E0,-1.864611268E0,-1.389677543E-2,-1.087613583E0
4.617024327E0,-1.895153642E0,-4.321744293E-2,-1.115712523E0
4.619503130E0,-1.922030926E0,-7.253811508E-2,-1.141368151E0
4.621982765E0,-1.947686434E0,-1.030804738E-1,-1.171910524E0
4.624461515E0,-1.968455315E0,-1.348445266E-1,-1.206117868E0
4.626939536E0,-1.975785494E0,-1.739387512E-1,-1.243990421E0
4.629418338E0,-1.975785494E0,-2.142546773E-1,-1.284306407E0
4.631897973E0,-1.964790225E0,-2.545706034E-1,-1.327065706E0
4.634376723E0,-1.944021344E0,-2.924431264E-1,-1.361273170E0
4.636854692E0,-1.915922403E0,-3.180987239E-1,-1.385707021E0
4.639333494E0,-1.884158373E0,-3.290939629E-1,-1.399145603E0
4.641813130E0,-1.843842506E0,-3.315373361E-1,-1.401589036E0
4.644291880E0,-1.797418118E0,-3.229855001E-1,-1.386928678E0
4.646769848E0,-1.742441773E0,-3.107685447E-1,-1.355164647E0
4.649248650E0,-1.677692056E0,-2.985515893E-1,-1.308740258E0
4.651728286E0,-1.604390383E0,-2.838912606E-1,-1.245212078E0
4.654207036E0,-1.518871665E0,-2.655658424E-1,-1.167023659E0
4.656685005E0,-1.423579574E0,-2.521272004E-1,-1.074174881E0
4.659163807E0,-1.318513751E0,-2.362451702E-1,-9.678874612E-1
4.661643494E0,-1.204896212E0,-2.313583940E-1,-8.542698622E-1
4.664122192E0,-1.082726717E0,-2.289150059E-1,-7.345438004E-1
4.666600213E0,-9.520054460E-1,-2.411319613E-1,-6.160394549E-1
4.669079015E0,-8.200624585E-1,-2.716743052E-1,-4.987567961E-1
4.671558650E0,-6.868977547E-1,-3.132119179E-1,-3.888042867E-1
4.674037348E0,-5.561764240E-1,-3.730749488E-1,-2.812951505E-1
4.676515369E0,-4.265241027E-1,-4.585935771E-1,-1.860029846E-1
4.678994171E0,-3.019112647E-1,-5.563291311E-1,-1.065928489E-1
4.681473807E0,-1.797417998E-1,-6.699467301E-1,-4.184303805E-2
4.683952557E0,-6.245913357E-2,-8.031114340E-1,9.162708884E-4
4.686430525E0,4.382828996E-2,-9.411629438E-1,2.412846684E-2
4.688909327E0,1.415638477E-1,-1.077992678E0,2.779355086E-2
4.691388963E0,2.258607745E-1,-1.206270576E0,1.557660475E-2
4.693867713E0,2.991624475E-1,-1.316223145E0,-7.635590620E-3
4.696345682E0,3.626905680E-1,-1.401741743E0,-4.428642616E-2
4.698824484E0,4.164451063E-1,-1.450609565E0,-9.071081877E-2
4.701304171E0,4.567610323E-1,-1.455496311E0,-1.420219839E-1
4.703782869E0,4.811949134E-1,-1.429840684E0,-1.957765520E-1
4.706260838E0,4.848600030E-1,-1.385859728E0,-2.458660156E-1
4.708739640E0,4.689779878E-1,-1.319888234E0,-2.935121059E-1
4.711219327E0,4.372139275E-1,-1.241699815E0,-3.350497186E-1
4.713698025E0,3.981196880E-1,-1.151294351E0,-3.655920923E-1
4.716176046E0,3.455868363E-1,-1.046228647E0,-3.912476599E-1
4.718654848E0,2.857238054E-1,-9.301676750E-1,-3.997995257E-1
4.721134484E0,2.197522968E-1,-8.067765236E-1,-4.034646153E-1
4.723613234E0,1.488940120E-1,-6.919372082E-1,-4.022429287E-1
4.726091202E0,7.437065244E-2,-5.783196688E-1,-3.961344361E-1
4.728570005E0,1.068982761E-3,-4.708105326E-1,-3.924693763E-1
4.731049640E0,-7.101099193E-2,-3.669664860E-1,-3.924693763E-1
4.733528390E0,-1.406475753E-1,-2.643441558E-1,-3.949127495E-1
4.736006359E0,-2.029540092E-1,-1.629435122E-1,-3.961344361E-1
4.738485161E0,-2.554868758E-1,-7.498150319E-2,-3.997995257E-1
4.740964796E0,-2.994678617E-1,-4.581354442E-4,-4.022429287E-1
4.743443546E0,-3.361186981E-1,5.329642445E-2,-4.010212123E-1
4.745921567E0,-3.605526090E-1,9.605573118E-2,-4.022429287E-1
4.748400317E0,-3.715478480E-1,1.339282542E-1,-4.022429287E-1
4.750880005E0,-3.727695346E-1,1.681357026E-1,-4.022429287E-1
4.753358702E0,-3.605526090E-1,1.998997629E-1,-4.022429287E-1
4.755836723E0,-3.410054743E-1,2.279987335E-1,-4.022429287E-1
4.758315473E0,-3.141281903E-1,2.560977042E-1,-4.022429287E-1
4.760795161E0,-2.884726226E-1,2.793098986E-1,-4.034646153E-1
4.763273911E0,-2.640387416E-1,2.988570333E-1,-4.120164812E-1
4.765751880E0,-2.371614426E-1,3.220692277E-1,-4.254551232E-1
4.768230682E0,-2.139492482E-1,3.428380191E-1,-4.474456310E-1
4.770710317E0,-1.980672181E-1,3.697153032E-1,-4.669927359E-1
4.773189067E0,-1.846285909E-1,3.929274976E-1,-4.865398407E-1
4.775667036E0,-1.748550236E-1,4.124746025E-1,-5.012001991E-1
4.778145838E0,-1.724116355E-1,4.222481549E-1,-5.134171247E-1
4.780625473E0,-1.724116355E-1,4.259132445E-1,-5.256340504E-1
4.783104223E0,-1.760767251E-1,4.185830951E-1,-5.354076028E-1
4.785582192E0,-1.846285909E-1,4.027010500E-1,-5.439594984E-1
4.788060994E0,-1.944021434E-1,3.782671690E-1,-5.500679612E-1
4.790540682E0,-2.029540092E-1,3.513898849E-1,-5.573981404E-1
4.793019380E0,-2.139492482E-1,3.245126009E-1,-5.647283196E-1
4.795497400E0,-2.225011140E-1,2.927485406E-1,-5.732801557E-1
4.797976150E0,-2.298312783E-1,2.658712566E-1,-5.806103349E-1
4.800455838E0,-2.334963679E-1,2.426590770E-1,-5.879405141E-1
4.802934588E0,-2.383831441E-1,2.255553454E-1,-5.903838873E-1
4.805412557E0,-2.396048307E-1,2.170034945E-1,-5.916055441E-1
4.807891359E0,-2.420482337E-1,2.121167034E-1,-5.964923501E-1
4.810370994E0,-2.444916219E-1,2.157817930E-1,-6.001574397E-1
4.812849744E0,-2.432699203E-1,2.145601064E-1,-6.087092757E-1
4.815327713E0,-2.420482337E-1,2.133384049E-1,-6.160394549E-1
4.817806515E0,-2.396048307E-1,2.108950168E-1,-6.209262609E-1
4.820286150E0,-2.371614426E-1,2.072299272E-1,-6.184828281E-1
4.822764900E0,-2.347180545E-1,1.986780763E-1,-6.123743653E-1
4.825242869E0,-2.310529798E-1,1.876828223E-1,-5.977140665E-1
4.827721671E0,-2.286095917E-1,1.766875684E-1,-5.769452453E-1
4.830201307E0,-2.261662036E-1,1.571404636E-1,-5.549547076E-1
4.832680057E0,-2.237228155E-1,1.327065676E-1,-5.317425132E-1
4.835158077E0,-2.225011140E-1,1.033858955E-1,-5.097520351E-1
4.837636827E0,-2.212794125E-1,6.917845458E-2,-4.865398407E-1
4.840116515E0,-2.151709497E-1,3.374931216E-2,-4.621059597E-1
4.842595213E0,-2.053973973E-1,-1.679830020E-3,-4.388937652E-1
4.845073234E0,-1.956238300E-1,-3.466558084E-2,-4.156815708E-1
4.847552036E0,-1.858502775E-1,-6.520794332E-2,-3.924693763E-1
4.850031671E0,-1.699682474E-1,-9.086353332E-2,-3.729222417E-1
4.852510421E0,-1.565296054E-1,-1.104106456E-1,-3.497100472E-1
4.854988390E0,-1.382041872E-1,-1.275143623E-1,-3.277195692E-1
4.857467192E0,-1.174353883E-1,-1.397313178E-1,-3.020639718E-1
4.859946827E0,-9.422318637E-2,-1.482831687E-1,-2.776300907E-1
4.862425577E0,-7.101099193E-2,-1.568350345E-1,-2.568612695E-1
4.864903546E0,-4.413371533E-2,-1.605001241E-1,-2.373141646E-1
4.867382348E0,-1.725643501E-2,-1.605001241E-1,-2.202104330E-1
4.869861984E0,1.084253844E-2,-1.556133330E-1,-2.043284029E-1
4.872340734E0,3.894151375E-2,-1.495048702E-1,-1.945548505E-1
4.874818702E0,6.581879407E-2,-1.397313178E-1,-1.860029846E-1
4.877297505E0,9.391776472E-2,-1.299577504E-1,-1.798945218E-1
4.879777192E0,1.207950488E-1,-1.177408099E-1,-1.750077456E-1
4.882255890E0,1.440072358E-1,-1.055238619E-1,-1.701209545E-1
4.884733911E0,1.684411317E-1,-9.086353332E-2,-1.664558798E-1
4.887212713E0,1.940967143E-1,-7.375980914E-2,-1.652341783E-1
4.889692348E0,2.148655206E-1,-5.299099907E-2,-1.640124917E-1
4.892171098E0,2.368560284E-1,-3.344388679E-2,-1.615691036E-1
4.894649067E0,2.551814318E-1,-1.023169141E-2,-1.542389393E-1
4.897127869E0,2.747285664E-1,1.420219894E-2,-1.469087601E-1
4.899607505E0,2.893888950E-1,3.619270027E-2,-1.383569092E-1
4.902086255E0,3.003841341E-1,5.940489471E-2,-1.298050433E-1
4.904564223E0,3.077143133E-1,8.628217876E-2,-1.200314835E-1
4.907043025E0,3.113794029E-1,1.131594554E-1,-1.102579311E-1
4.909522661E0,3.101576865E-1,1.412584335E-1,-1.029277667E-1
4.912001411E0,3.077143133E-1,1.669140160E-1,-9.804098308E-2
4.914479380E0,3.028275371E-1,1.937913001E-1,-9.193251282E-2
4.916958182E0,2.942756712E-1,2.182251811E-1,-8.460234851E-2
4.919437869E0,2.869454920E-1,2.426590770E-1,-7.727217674E-2
4.921916567E0,2.771719396E-1,2.658712566E-1,-6.627693027E-2
4.924394588E0,2.686200738E-1,2.854183912E-1,-5.405998230E-2
4.926873390E0,2.576248348E-1,3.037438095E-1,-4.062134400E-2
4.929353025E0,2.454078794E-1,3.147390485E-1,-3.084778599E-2
4.931831775E0,2.307475507E-1,3.135173619E-1,-2.229592577E-2
4.934309744E0,2.160872221E-1,3.098522723E-1,-1.496575773E-2
4.936788546E0,2.014268786E-1,2.976353168E-1,-8.857285604E-3
4.939268182E0,1.843231618E-1,2.805316150E-1,-2.748812549E-3
4.941746932E0,1.672194302E-1,2.573194206E-1,-1.527118147E-3
4.944224900E0,1.464506239E-1,2.243336588E-1,-6.413896102E-3
4.946703702E0,1.269035190E-1,1.803526580E-1,-1.130067464E-2
4.949183338E0,1.110214889E-1,1.351499557E-1,-1.496575773E-2
4.951662088E0,9.391776472E-2,8.994726092E-2,-1.985253580E-2
4.954140057E0,7.437065244E-2,4.474456236E-2,-2.718270384E-2
4.956618859E0,5.238015205E-2,-4.123218823E-3,-3.573456407E-2
4.959098546E0,3.038965166E-2,-5.665608495E-2,-4.550812021E-2
4.961577244E0,7.177455351E-3,-1.006370857E-1,-5.650337040E-2
4.964055265E0,-1.603474095E-2,-1.421747059E-1,-7.116370648E-2
4.966534067E0,-3.680354729E-2,-1.763821393E-1,-8.704573661E-2
4.969013702E0,-5.146388337E-2,-2.008160353E-1,-1.041494608E-1
4.971492400E0,-5.635065958E-2,-2.154763639E-1,-1.175880954E-1
4.973970421E0,-6.123743951E-2,-2.252499312E-1,-1.273616552E-1
4.976449223E0,-6.001574174E-2,-2.338017821E-1,-1.383569092E-1
4.978928859E0,-5.512896553E-2,-2.435753495E-1,-1.530172378E-1
4.981407609E0,-4.169032723E-2,-2.509055138E-1,-1.713426560E-1
4.983885577E0,-2.336490713E-2,-2.557922900E-1,-1.908897758E-1
4.986364380E0,-3.817795310E-3,-2.582356930E-1,-2.092151791E-1
4.988844015E0,2.305948362E-2,-2.619007528E-1,-2.263189107E-1
4.991322765E0,5.482354015E-2,-2.643441558E-1,-2.409792393E-1
4.993800734E0,9.025268257E-2,-2.704526186E-1,-2.568612695E-1
4.996279536E0,1.232384369E-1,-2.838912606E-1,-2.690782249E-1
4.998759171E0,1.550024897E-1,-2.985515893E-1,-2.788517773E-1
5.001237921E0,1.867665499E-1,-3.180987239E-1,-2.898470163E-1
5.003715942E0,2.173089087E-1,-3.400892019E-1,-2.983988822E-1
5.006194692E0,2.441861928E-1,-3.633013964E-1,-2.996205688E-1
5.008674380E0,2.759502530E-1,-3.975088596E-1,-2.971771955E-1
5.011153130E0,3.089359999E-1,-4.366030693E-1,-2.898470163E-1
5.013631098E0,3.419217467E-1,-4.818057716E-1,-2.800734639E-1
5.016109900E0,3.773508966E-1,-5.245651007E-1,-2.678565085E-1
5.018589536E0,4.115583301E-1,-5.673243999E-1,-2.507528067E-1
5.021068286E0,4.445441067E-1,-6.076403260E-1,-2.312056869E-1
5.023546255E0,4.738647640E-1,-6.442911625E-1,-2.055501044E-1
5.026025057E0,5.007420182E-1,-6.723901033E-1,-1.725643575E-1
5.028504692E0,5.227325559E-1,-6.956022978E-1,-1.346918195E-1
5.030983442E0,5.373928547E-1,-7.017107606E-1,-9.681928903E-2
5.033461411E0,5.447230339E-1,-6.943806410E-1,-6.872031838E-2
