"Time (s)","Acceleration x (m/s^2)","Acceleration y (m/s^2)","Acceleration z (m/s^2)"
2.371863900E-2,-4.041580200E0,2.475234985E0,6.612075806E0
2.622108100E-2,-4.120590210E0,2.477630615E0,6.633621216E0
2.869300400E-2,-4.125381470E0,2.489593506E0,6.621658325E0
3.116492800E-2,-4.154113770E0,2.482421875E0,6.626449585E0
3.360633400E-2,-4.201995850E0,2.456085205E0,6.561798096E0
3.607825800E-2,-4.228332520E0,2.432144165E0,6.580947876E0
3.851966500E-2,-4.283401489E0,2.403411865E0,6.619262695E0
4.099158800E-2,-4.340866089E0,2.427352905E0,6.647994995E0
4.343299500E-2,-4.393539429E0,2.391433716E0,6.640808105E0
4.590491800E-2,-4.364807129E0,2.343551636E0,6.777282715E0
4.840736000E-2,-4.405502319E0,2.326797485E0,6.760513306E0
5.087928400E-2,-4.393539429E0,2.329193115E0,6.853897095E0
5.335120700E-2,-4.405502319E0,2.245391846E0,6.949661255E0
5.582313100E-2,-4.400711060E0,2.199905396E0,7.059799194E0
5.829505500E-2,-4.374374390E0,2.178359985E0,7.150772095E0
6.073646100E-2,-4.395935059E0,2.199905396E0,7.306396484E0
6.320838500E-2,-4.326492310E0,2.135253906E0,7.452438354E0
6.568030900E-2,-4.333679199E0,2.044281006E0,7.584121704E0
6.815223300E-2,-4.331283569E0,1.924560547E0,7.780456543E0
7.059363900E-2,-4.271423340E0,1.919784546E0,7.936080933E0
7.306556300E-2,-4.233123779E0,1.838378906E0,8.249710083E0
7.553748700E-2,-4.170867920E0,1.764160156E0,8.453216553E0
7.797889300E-2,-4.048767090E0,1.713882446E0,8.697433472E0
8.045081700E-2,-3.964965820E0,1.654022217E0,8.817138672E0
8.292274100E-2,-3.852447510E0,1.560653687E0,8.817138672E0
8.536414700E-2,-3.766250610E0,1.522338867E0,8.956008911E0
8.780555300E-2,-3.672882080E0,1.388259888E0,9.104446411E0
9.027747700E-2,-3.634567261E0,1.323623657E0,9.260070801E0
9.274940100E-2,-3.601058960E0,1.072235107E0,9.331893921E0
9.522132500E-2,-3.656112671E0,6.173400879E-1,9.152328491E0
9.769324900E-2,-3.730346680E0,2.653808594E-1,9.023040771E0
1.001651720E-1,-3.704010010E0,4.760742188E-1,9.001495361E0
1.026065790E-1,-3.732727051E0,7.609863281E-1,8.987121582E0
1.050785020E-1,-3.718368530E0,1.021957397E0,8.915298462E0
1.075504260E-1,-3.749496460E0,1.148849487E0,8.934448242E0
1.099918320E-1,-3.878784180E0,1.213485718E0,9.075714111E0
1.124637560E-1,-4.024826050E0,1.203918457E0,9.307952881E0
1.149356800E-1,-4.130172729E0,1.184753418E0,9.516250610E0
1.173770860E-1,-4.173263550E0,1.194335938E0,9.631164551E0
1.198490100E-1,-4.170867920E0,1.084197998E0,9.729324341E0
1.223209340E-1,-4.182846069E0,1.021957397E0,9.841857910E0
1.247623400E-1,-4.209182739E0,9.429473877E-1,9.937622070E0
1.272342640E-1,-4.194808960E0,8.854827881E-1,1.001902771E1
1.297061880E-1,-4.233123779E0,8.160552979E-1,9.980728149E0
1.321475940E-1,-4.276214600E0,7.992858887E-1,9.949600220E0
1.346195180E-1,-4.269027710E0,8.136596680E-1,9.987899780E0
1.370914420E-1,-4.300155640E0,7.801361084E-1,1.001663208E1
1.395633660E-1,-4.283401489E0,7.849273682E-1,1.003100586E1
1.420047720E-1,-4.281005859E0,8.040771484E-1,1.008845520E1
1.444766960E-1,-4.297760010E0,8.160552979E-1,1.006451416E1
1.469486200E-1,-4.307342529E0,7.992858887E-1,1.012916565E1
1.493900260E-1,-4.336074829E0,8.591461182E-1,1.010043335E1
1.518619500E-1,-4.319320679E0,9.166107178E-1,1.000466919E1
1.543338740E-1,-4.302551270E0,8.902740479E-1,1.002621460E1
1.567752800E-1,-4.269027710E0,8.854827881E-1,1.001184082E1
1.592472040E-1,-4.206787109E0,9.261932373E-1,9.987899780E0
1.617191270E-1,-4.154113770E0,9.812469482E-1,9.894531250E0
1.641605340E-1,-4.173263550E0,1.100967407E0,9.817916870E0
1.666324570E-1,-4.156509399E0,1.096176147E0,9.683837891E0
1.691043810E-1,-4.190032959E0,1.132080078E0,9.595260620E0
1.715763050E-1,-4.230728149E0,1.213485718E0,9.528213501E0
1.740177110E-1,-4.281005859E0,1.247009277E0,9.480331421E0
1.764896350E-1,-4.257064819E0,1.304473877E0,9.437240601E0
1.789615590E-1,-4.261856079E0,1.316436768E0,9.384567261E0
1.814029650E-1,-4.307342529E0,1.337982178E0,9.336685181E0
1.838748890E-1,-4.304946899E0,1.388259888E0,9.305557251E0
1.863468130E-1,-4.283401489E0,1.385879517E0,9.346252441E0
1.887882190E-1,-4.333679199E0,1.395446777E0,9.293579102E0
1.912601430E-1,-4.319320679E0,1.361923218E0,9.185852051E0
1.937320670E-1,-4.307342529E0,1.397842407E0,9.197814941E0
1.961734730E-1,-4.345642090E0,1.359542847E0,9.116409302E0
1.986453970E-1,-4.331283569E0,1.371505737E0,9.125991821E0
2.011173210E-1,-4.331283569E0,1.357147217E0,9.197814941E0
2.035892450E-1,-4.269027710E0,1.345169067E0,9.279220581E0
2.060306510E-1,-4.307342529E0,1.244613647E0,9.303161621E0
2.085025750E-1,-4.288192749E0,1.223068237E0,9.343856812E0
2.109744990E-1,-4.297760010E0,1.247009277E0,9.331893921E0
2.134159050E-1,-4.302551270E0,1.220672607E0,9.374984741E0
2.158878290E-1,-4.300155640E0,1.206314087E0,9.367813110E0
2.183597520E-1,-4.316925049E0,1.206314087E0,9.274429321E0
2.208011590E-1,-4.383956909E0,1.151245117E0,9.346252441E0
2.232730820E-1,-4.367202759E0,1.132080078E0,9.439636230E0
2.257450060E-1,-4.374374390E0,1.105743408E0,9.482727051E0
2.281864130E-1,-4.381561279E0,1.105743408E0,9.506668091E0
2.306583360E-1,-4.436630249E0,1.069839478E0,9.525817871E0
2.331302600E-1,-4.460571289E0,1.026748657E0,9.554550171E0
2.355716660E-1,-4.453384399E0,9.980163574E-1,9.501876831E0
2.380435900E-1,-4.501266479E0,1.031524658E0,9.511459351E0
2.405155140E-1,-4.546768188E0,1.041107178E0,9.506668091E0
2.429874380E-1,-4.577880859E0,1.029129028E0,9.513854980E0
2.454288440E-1,-4.594650269E0,1.002807617E0,9.556945801E0
2.479007680E-1,-4.630554199E0,9.956207275E-1,9.602432251E0
2.503726920E-1,-4.661682129E0,1.014770508E0,9.506668091E0
2.528140980E-1,-4.666473389E0,1.014770508E0,9.487518311E0
2.552860220E-1,-4.678436279E0,9.764709473E-1,9.518646240E0
2.577579460E-1,-4.656890869E0,9.333648682E-1,9.494705200E0
2.601993520E-1,-4.632949829E0,9.405517578E-1,9.480331421E0
2.626712760E-1,-4.630554199E0,9.118194580E-1,9.473144531E0
2.651432000E-1,-4.553939819E0,8.854827881E-1,9.468368530E0
2.675846060E-1,-4.570709229E0,8.830871582E-1,9.398925781E0
2.700565300E-1,-4.549163818E0,8.687286377E-1,9.413299561E0
2.725284540E-1,-4.532394409E0,8.759002686E-1,9.410903931E0
2.749698600E-1,-4.486907959E0,8.543548584E-1,9.396530151E0
2.774417840E-1,-4.482116699E0,8.160552979E-1,9.372589111E0
2.799137070E-1,-4.486907959E0,7.969055176E-1,9.300765991E0
2.823551140E-1,-4.455780029E0,7.921142578E-1,9.288803101E0
2.848270380E-1,-4.498886108E0,7.753448486E-1,9.257675171E0
2.872989610E-1,-4.513244629E0,7.202911377E-1,9.245697021E0
2.897708850E-1,-4.525207520E0,7.154998779E-1,9.200210571E0
2.922122910E-1,-4.508453369E0,7.346496582E-1,9.121200562E0
2.946842150E-1,-4.532394409E0,7.011260986E-1,9.152328491E0
2.971561390E-1,-4.558731079E0,6.628265381E-1,9.054168701E0
2.995975450E-1,-4.597045898E0,6.221160889E-1,9.042190552E0
3.020694690E-1,-4.616195679E0,6.436767578E-1,9.035018921E0
3.045413930E-1,-4.647323608E0,6.771850586E-1,8.965576172E0
3.069827990E-1,-4.685623169E0,6.915588379E-1,8.910507202E0
3.094547230E-1,-4.731109619E0,6.436767578E-1,8.917694092E0
3.119266470E-1,-4.747879028E0,6.652221680E-1,8.960784912E0
3.143985710E-1,-4.762237549E0,6.269073486E-1,8.896148682E0
3.168399770E-1,-4.822097778E0,6.388854980E-1,8.872207642E0
3.193119010E-1,-4.800552368E0,6.484527588E-1,8.905731201E0
3.217838250E-1,-4.786178589E0,6.125488281E-1,8.867416382E0
3.242252310E-1,-4.783782959E0,5.814208984E-1,8.881790161E0
3.266971550E-1,-4.774215698E0,6.125488281E-1,8.862625122E0
3.291385610E-1,-4.800552368E0,5.862121582E-1,8.876998901E0
3.316104850E-1,-4.790969849E0,5.790252686E-1,8.857833862E0
3.340824090E-1,-4.817306519E0,5.646667480E-1,8.838684082E0
3.365543320E-1,-4.810119629E0,5.790252686E-1,8.833892822E0
3.389957390E-1,-4.824493408E0,5.886077881E-1,8.857833862E0
3.414676630E-1,-4.814910889E0,5.287475586E-1,8.874603271E0
3.439395860E-1,-4.795761108E0,5.550842285E-1,8.860229492E0
3.464115100E-1,-4.774215698E0,5.646667480E-1,8.853057861E0
3.488529160E-1,-4.771820068E0,5.526885986E-1,8.826721191E0
3.513248400E-1,-4.714355469E0,5.239562988E-1,8.867416382E0
3.537662470E-1,-4.726333618E0,5.694427490E-1,8.920089722E0
3.562381700E-1,-4.680831909E0,5.598754883E-1,8.970367432E0
3.587100940E-1,-4.618591309E0,5.862121582E-1,9.037399292E0
3.611820180E-1,-4.616195679E0,5.718383789E-1,9.030227661E0
3.636234240E-1,-4.606613159E0,5.814208984E-1,9.023040771E0
3.660953480E-1,-4.575500488E0,5.886077881E-1,9.104446411E0
3.685672720E-1,-4.553939819E0,5.694427490E-1,9.157119751E0
3.710086780E-1,-4.532394409E0,6.149444580E-1,9.140350342E0
3.734806020E-1,-4.470153809E0,5.886077881E-1,9.154724121E0
3.759525260E-1,-4.417480469E0,5.933990479E-1,9.214584351E0
3.783939320E-1,-4.405502319E0,6.221160889E-1,9.188247681E0
3.808658560E-1,-4.376770020E0,6.316986084E-1,9.178665161E0
3.833377800E-1,-4.367202759E0,6.556396484E-1,9.164306641E0
3.858097040E-1,-4.324096680E0,6.819763184E-1,9.205001831E0
3.882511100E-1,-4.316925049E0,6.771850586E-1,9.264862061E0
3.907230340E-1,-4.283401489E0,7.059173584E-1,9.300765991E0
3.931644400E-1,-4.240310669E0,7.226715088E-1,9.288803101E0
3.956363640E-1,-4.218750000E0,7.107086182E-1,9.310348511E0
3.981082880E-1,-4.146926880E0,7.011260986E-1,9.353439331E0
4.005802110E-1,-4.115798950E0,7.035217285E-1,9.329498291E0
4.030216180E-1,-4.132568359E0,7.298583984E-1,9.250488281E0
4.054935410E-1,-4.087081909E0,7.202911377E-1,9.245697021E0
4.079654650E-1,-4.087081909E0,7.633819580E-1,9.205001831E0
4.104068720E-1,-4.082290649E0,7.274627686E-1,9.216964722E0
4.128787950E-1,-4.067916870E0,7.825317383E-1,9.164306641E0
4.153507190E-1,-4.053558350E0,8.232421875E-1,9.154724121E0
4.177921250E-1,-4.055953979E0,7.825317383E-1,9.123596191E0
4.202640490E-1,-4.024826050E0,7.705688477E-1,9.188247681E0
4.227359730E-1,-4.058349609E0,8.399963379E-1,9.185852051E0
4.252078970E-1,-4.079895020E0,8.471832275E-1,9.066131592E0
4.276493030E-1,-4.089477539E0,7.969055176E-1,9.061355591E0
4.301212270E-1,-4.065521240E0,8.232421875E-1,9.023040771E0
4.325626330E-1,-4.055953979E0,8.639373779E-1,8.996704102E0
4.350345570E-1,-4.036804199E0,8.519592285E-1,8.991912842E0
4.375064810E-1,-4.003280640E0,8.376007080E-1,8.989517212E0
4.399784050E-1,-3.967361450E0,8.399963379E-1,8.958404541E0
4.424198110E-1,-3.972152710E0,8.447875977E-1,8.960784912E0
4.448917350E-1,-3.933853149E0,8.280181885E-1,8.975158691E0
4.473636590E-1,-3.885955811E0,7.801361084E-1,9.018249512E0
4.498355820E-1,-3.854843140E0,7.657775879E-1,9.116409302E0
4.522769890E-1,-3.802169800E0,7.777404785E-1,9.149932861E0
4.547489130E-1,-3.708786011E0,7.490081787E-1,9.195419312E0
4.572208360E-1,-3.572326660E0,7.035217285E-1,9.233734131E0
4.596622430E-1,-3.526840210E0,6.795806885E-1,9.207397461E0
4.621341660E-1,-3.490921021E0,6.532440186E-1,9.193023682E0
4.645755730E-1,-3.435852051E0,6.652221680E-1,9.106842041E0
4.670474970E-1,-3.450225830E0,7.083129883E-1,9.078109741E0
4.695194200E-1,-3.375991821E0,6.747894287E-1,9.032623291E0
4.719913440E-1,-3.385574341E0,6.556396484E-1,9.042190552E0
4.744327500E-1,-3.447830200E0,6.723937988E-1,9.032623291E0
4.769046740E-1,-3.426269531E0,7.035217285E-1,9.018249512E0
4.793765980E-1,-3.409515381E0,7.107086182E-1,8.987121582E0
4.818180040E-1,-3.383178711E0,7.298583984E-1,9.018249512E0
4.842899280E-1,-3.392761230E0,7.705688477E-1,8.956008911E0
4.867618520E-1,-3.411911011E0,7.466278076E-1,8.984741211E0
4.892337760E-1,-3.428665161E0,7.561950684E-1,8.960784912E0
4.916751820E-1,-3.428665161E0,8.064727783E-1,8.982345581E0
4.941471060E-1,-3.435852051E0,8.352050781E-1,9.044586182E0
4.966190300E-1,-3.455001831E0,8.088684082E-1,9.042190552E0
4.990604360E-1,-3.438247681E0,8.376007080E-1,9.125991821E0
5.015323600E-1,-3.488525391E0,8.543548584E-1,9.224151611E0
5.040042840E-1,-3.505279541E0,8.711242676E-1,9.226547241E0
5.064456900E-1,-3.536407471E0,8.519592285E-1,9.341476440E0
5.089176140E-1,-3.534011841E0,9.094238281E-1,9.470764160E0
5.113895380E-1,-3.601058960E0,9.429473877E-1,9.547378540E0
5.138309440E-1,-3.639358521E0,9.309692383E-1,9.607223511E0
5.163028680E-1,-3.732727051E0,1.024353027E0,9.671875000E0
5.187747910E-1,-3.739913940E0,1.033920288E0,9.695816040E0
5.212467150E-1,-3.739913940E0,1.036315918E0,9.650329590E0
5.236881220E-1,-3.735122681E0,1.079421997E0,9.643142700E0
5.261600450E-1,-3.751892090E0,1.167999268E0,9.647933960E0
5.286319690E-1,-3.747100830E0,1.189544678E0,9.595260620E0
5.310733750E-1,-3.704010010E0,1.218276978E0,9.635955811E0
5.335452990E-1,-3.718368530E0,1.242218018E0,9.621597290E0
5.360172230E-1,-3.689636230E0,1.223068237E0,9.528213501E0
5.384586290E-1,-3.730346680E0,1.203918457E0,9.501876831E0
5.409305530E-1,-3.627395630E0,1.151245117E0,9.528213501E0
5.434024770E-1,-3.495712280E0,1.057861328E0,9.552154541E0
5.458438830E-1,-3.246704102E0,8.495635986E-1,9.473144531E0
5.483158070E-1,-2.772659302E0,5.526885986E-1,9.427658081E0
5.507877310E-1,-2.717590332E0,5.886077881E-1,9.489913940E0
5.532596550E-1,-2.765472412E0,5.646667480E-1,9.595260620E0
5.557010610E-1,-2.758300781E0,5.072021484E-1,9.707778931E0
5.581729850E-1,-2.727172852E0,5.095977783E-1,9.849044800E0
5.606449090E-1,-2.657730103E0,5.359344482E-1,9.963958740E0
5.630863150E-1,-2.593093872E0,5.574798584E-1,9.997482300E0
5.655582390E-1,-2.576339722E0,5.886077881E-1,9.961563110E0
5.680301630E-1,-2.554794312E0,6.604309082E-1,9.884948730E0
5.704715690E-1,-2.564361572E0,7.274627686E-1,9.774826050E0
5.729434930E-1,-2.581115723E0,8.016815186E-1,9.714965820E0
5.754154160E-1,-2.638580322E0,8.304138184E-1,9.638351440E0
5.778568230E-1,-2.643371582E0,8.806915283E-1,9.511459351E0
5.803287470E-1,-2.736740112E0,8.663330078E-1,9.322311401E0
5.828006700E-1,-2.736740112E0,8.926696777E-1,9.166687012E0
5.852420770E-1,-2.765472412E0,8.782958984E-1,9.039794922E0
5.877140000E-1,-2.863632202E0,8.591461182E-1,8.855453491E0
5.901859240E-1,-2.899551392E0,8.064727783E-1,8.735733032E0
5.926578480E-1,-2.973770142E0,7.825317383E-1,8.592086792E0
5.950992540E-1,-3.045593262E0,7.107086182E-1,8.441253662E0
5.975711780E-1,-3.153335571E0,6.460571289E-1,8.362243652E0
6.000431020E-1,-3.246704102E0,5.933990479E-1,8.273651123E0
6.024845080E-1,-3.373611450E0,6.245117188E-1,8.201828003E0
6.049564320E-1,-3.447830200E0,6.388854980E-1,8.213806152E0
6.074283560E-1,-3.567535400E0,6.125488281E-1,8.249710083E0
6.098697620E-1,-3.656112671E0,6.556396484E-1,8.280838013E0
6.123416860E-1,-3.725555420E0,6.197204590E-1,8.465194702E0
6.148136100E-1,-3.732727051E0,6.364898682E-1,8.623214722E0
6.172550160E-1,-3.749496460E0,5.981750488E-1,8.831512451E0
6.197269400E-1,-3.735122681E0,6.125488281E-1,9.027832031E0
6.221988640E-1,-3.708786011E0,5.933990479E-1,9.257675171E0
6.246707880E-1,-3.646545410E0,5.526885986E-1,9.451599121E0
6.271121940E-1,-3.593872070E0,5.718383789E-1,9.583282471E0
6.295841180E-1,-3.581893921E0,5.766296387E-1,9.679046631E0
6.320560410E-1,-3.565139771E0,6.005706787E-1,9.789184570E0
6.344974480E-1,-3.596267700E0,5.694427490E-1,9.786788940E0
6.369693720E-1,-3.675277710E0,5.981750488E-1,9.810729980E0
6.394412950E-1,-3.742309570E0,6.508483887E-1,9.868194580E0
6.418827020E-1,-3.806961060E0,6.915588379E-1,1.000466919E1
6.443546250E-1,-3.900329590E0,6.747894287E-1,1.000227356E1
6.468265490E-1,-3.931457520E0,6.269073486E-1,9.908889771E0
6.492679560E-1,-3.988906860E0,5.311431885E-1,9.784393311E0
6.517398790E-1,-4.067916870E0,5.287475586E-1,9.734115601E0
6.542118030E-1,-4.003280640E0,4.617156982E-1,9.700607300E0
6.566837270E-1,-3.862014771E0,3.252410889E-1,9.612014771E0
6.591251330E-1,-3.625000000E0,2.438354492E-1,9.468368530E0
6.615970570E-1,-3.399932861E0,3.252410889E-1,9.384567261E0
6.640689810E-1,-3.304168701E0,2.965087891E-1,9.386962891E0
6.665103870E-1,-3.395156860E0,9.539794922E-2,9.336685181E0
6.689823110E-1,-3.488525391E0,-7.698059082E-2,9.216964722E0
6.714542350E-1,-3.565139771E0,-2.326049805E-1,9.161911011E0
6.738956410E-1,-3.708786011E0,-4.744262695E-1,9.272033691E0
6.763675650E-1,-3.665695190E0,-7.042694092E-1,9.248092651E0
6.788394890E-1,-3.565139771E0,-8.622894287E-1,9.142745972E0
6.812808950E-1,-3.522048950E0,-9.867858887E-1,9.078109741E0
6.837528190E-1,-3.466979980E0,-1.077758789E0,9.013458252E0
6.862247430E-1,-3.316146851E0,-1.230987549E0,8.908126831E0
6.886966660E-1,-3.222763062E0,-1.396194458E0,8.850662231E0
6.911380730E-1,-3.093475342E0,-1.532653809E0,8.979949951E0
6.936099970E-1,-3.057571411E0,-1.558990479E0,9.013458252E0
6.960819200E-1,-2.966583252E0,-1.547027588E0,9.068527222E0
6.985233270E-1,-2.949829102E0,-1.578155518E0,9.226547241E0
7.009952500E-1,-2.930679321E0,-1.525482178E0,9.418090820E0
7.034366570E-1,-2.854064941E0,-1.427307129E0,9.647933960E0
7.059085810E-1,-2.775054932E0,-1.262115479E0,1.010282898E1
7.083805040E-1,-2.796600342E0,-1.094528198E0,1.044758606E1
7.108524280E-1,-2.839691162E0,-8.431243896E-1,1.071574402E1
7.132938340E-1,-2.870819092E0,-5.534362793E-1,1.103416443E1
7.157657580E-1,-2.976165771E0,-2.397918701E-1,1.140527344E1
7.182376820E-1,-3.117431641E0,2.597045898E-2,1.167103577E1
7.206790880E-1,-3.136581421E0,2.558135986E-1,1.200621033E1
7.231510120E-1,-3.129394531E0,4.425506592E-1,1.212593079E1
7.256229360E-1,-2.923492432E0,4.808654785E-1,1.214987183E1
7.280948600E-1,-2.617034912E0,5.119934082E-1,1.230070496E1
7.305362660E-1,-2.243545532E0,4.114379883E-1,1.234619141E1
7.330081900E-1,-1.831741333E0,2.270812988E-1,1.228633118E1
7.354495960E-1,-1.460632324E0,4.751586914E-2,1.209959412E1
7.379215200E-1,-1.111083984E0,-1.535949707E-1,1.181947327E1
7.403934440E-1,-7.471618652E-1,-3.331604004E-1,1.158244324E1
7.428653680E-1,-4.742279053E-1,-5.318756104E-1,1.128317261E1
7.453067740E-1,-3.952178955E-1,-7.066650391E-1,1.094319153E1
7.477786980E-1,-2.994537354E-1,-8.383483887E-1,1.061039734E1
7.502506220E-1,-2.443847656E-1,-1.020294189E0,1.037576294E1
7.527225450E-1,-2.467803955E-1,-1.082550049E0,1.004536438E1
7.551639520E-1,-3.233947754E-1,-1.202255249E0,9.786788940E0
7.576358750E-1,-4.478912354E-1,-1.278869629E0,9.547378540E0
7.601077990E-1,-5.412597656E-1,-1.307601929E0,9.365417480E0
7.625492060E-1,-6.825256348E-1,-1.305206299E0,9.102050781E0
7.650211290E-1,-8.022308350E-1,-1.312393188E0,8.994308472E0
7.674930530E-1,-9.291229248E-1,-1.274078369E0,8.912902832E0
7.699344590E-1,-1.072769165E0,-1.257324219E0,8.860229492E0
7.724063830E-1,-1.206848145E0,-1.202255249E0,8.989517212E0
7.748783070E-1,-1.261917114E0,-1.185501099E0,9.030227661E0
7.773197130E-1,-1.331344604E0,-1.161560059E0,9.188247681E0
7.797916370E-1,-1.374450684E0,-1.106491089E0,9.439636230E0
7.822635610E-1,-1.427124023E0,-1.104095459E0,9.633560181E0
7.847049670E-1,-1.427124023E0,-1.142410278E0,9.916076660E0
7.871768910E-1,-1.443878174E0,-1.068191528E0,1.014831543E1
7.896488150E-1,-1.455841064E0,-1.128036499E0,1.049069214E1
7.921207390E-1,-1.525283813E0,-1.302810669E0,1.078756714E1
7.945621450E-1,-1.731185913E0,-1.597305298E0,1.124006653E1
7.970340690E-1,-1.929901123E0,-1.812774658E0,1.178115845E1
7.995059930E-1,-1.910751343E0,-1.915725708E0,1.214268494E1
8.019473990E-1,-1.817367554E0,-2.035446167E0,1.217620850E1
8.044193230E-1,-1.649780273E0,-2.004318237E0,1.208282471E1
8.068912470E-1,-1.556411743E0,-1.966003418E0,1.201100159E1
8.093326530E-1,-1.532455444E0,-1.932495117E0,1.205888367E1
8.118045770E-1,-1.606689453E0,-1.891784668E0,1.209240723E1
8.142765000E-1,-1.781463623E0,-1.807998657E0,1.217141724E1
8.167179070E-1,-2.152557373E0,-1.690673828E0,1.227197266E1
8.191898310E-1,-2.538024902E0,-1.578155518E0,1.251379395E1
8.216617540E-1,-2.705627441E0,-1.403366089E0,1.261912537E1
8.241336780E-1,-2.700836182E0,-1.192687988E0,1.275320435E1
8.265750840E-1,-2.432678223E0,-1.140014648E0,1.285375977E1
8.290470080E-1,-1.714416504E0,-1.252532959E0,1.282981873E1
8.315189320E-1,-1.247558594E0,-1.432098389E0,1.246112061E1
8.339603380E-1,-1.285858154E0,-1.482376099E0,1.187454224E1
8.364322620E-1,-1.249954224E0,-1.616455078E0,1.106768799E1
8.389041860E-1,-1.180511475E0,-1.752929688E0,1.021774292E1
8.413455920E-1,-8.884277344E-1,-1.738555908E0,9.647933960E0
8.438175160E-1,-3.688812256E-1,-1.724197388E0,9.209793091E0
8.462894400E-1,-1.678466797E-4,-1.599700928E0,8.659118652E0
8.487308460E-1,1.770019531E-1,-1.429702759E0,8.101272583E0
8.512027700E-1,2.751617432E-1,-1.159164429E0,7.509902954E0
8.536746940E-1,3.038940430E-1,-9.772033691E-1,6.992752075E0
8.561161000E-1,2.847290039E-1,-7.880554199E-1,6.621658325E0
8.585880240E-1,2.584075928E-1,-6.707458496E-1,6.370269775E0
8.610599480E-1,1.985473633E-1,-5.653991699E-1,6.221832275E0
8.635318720E-1,9.799194336E-2,-4.744262695E-1,6.195495605E0
8.659732780E-1,-6.721496582E-2,-3.379516602E-1,6.339141846E0
8.684452020E-1,-1.605834961E-1,-3.188018799E-1,6.633621216E0
8.709171250E-1,-1.510009766E-1,-2.876739502E-1,7.031066895E0
8.733585320E-1,-2.228393555E-1,-2.469787598E-1,7.383010864E0
8.758304560E-1,-2.587432861E-1,-2.828826904E-1,7.904953003E0
8.783023790E-1,-2.826843262E-1,-2.565460205E-1,8.292816162E0
8.807437860E-1,-2.228393555E-1,-2.326049805E-1,8.594482422E0
8.832157090E-1,-1.366424561E-1,-2.900695801E-1,8.805175781E0
8.856876330E-1,-7.200622559E-2,-3.116149902E-1,8.944030762E0
8.881290400E-1,1.458740234E-1,-3.978118896E-1,8.924880981E0
8.906009630E-1,3.445892334E-1,-4.792175293E-1,8.850662231E0
8.930728870E-1,5.313415527E-1,-5.582122803E-1,8.692642212E0
8.955448110E-1,6.582336426E-1,-6.085052490E-1,8.556167603E0
8.979862170E-1,7.252655029E-1,-7.401733398E-1,8.517868042E0
9.004581410E-1,6.438598633E-1,-7.880554199E-1,8.472381592E0
9.029300650E-1,6.342926025E-1,-8.024291992E-1,8.469985962E0
9.054019890E-1,6.199188232E-1,-8.239746094E-1,8.314361572E0
9.078433950E-1,4.930267334E-1,-7.880554199E-1,8.204223633E0
9.103153190E-1,3.948669434E-1,-7.784881592E-1,8.201828003E0
9.127567250E-1,3.685302734E-1,-7.401733398E-1,8.019866943E0
9.152286490E-1,2.272796631E-1,-6.515960693E-1,7.802001953E0
9.177005730E-1,1.267242432E-1,-6.515960693E-1,7.797210693E0
9.201419790E-1,-1.629791260E-1,-4.456939697E-1,7.881011963E0
9.226139030E-1,-3.856353760E-1,-2.637329102E-1,7.904953003E0
9.250858270E-1,-6.346435547E-1,-1.296539307E-1,8.041412354E0
9.275272330E-1,-8.237762451E-1,5.470275879E-2,7.849884033E0
9.299991570E-1,-1.058410645E0,2.462310791E-1,7.380615234E0
9.324405630E-1,-9.578552246E-1,3.659362793E-1,6.975997925E0
9.349124870E-1,-8.812408447E-1,4.688873291E-1,6.499557495E0
9.373844110E-1,-9.841918945E-1,6.604309082E-1,6.173934937E0
9.398563340E-1,-1.494155884E0,8.304138184E-1,6.348724365E0
9.423282580E-1,-2.289031982E0,1.014770508E0,6.710235596E0
9.447696650E-1,-2.880401611E0,1.220672607E0,6.865859985E0
9.472415880E-1,-3.124603271E0,1.443328857E0,6.765304565E0
9.497135120E-1,-2.643371582E0,1.531921387E0,6.427719116E0
9.521549180E-1,-1.882019043E0,1.491210938E0,5.989593506E0
9.546268420E-1,-1.532455444E0,1.541488647E0,5.675949097E0
9.570987660E-1,-1.467819214E0,1.584594727E0,5.675949097E0
9.595706900E-1,-1.132629395E0,1.498397827E0,5.589752197E0
9.620120960E-1,-6.849212646E-1,1.388259888E0,5.438919067E0
9.644840200E-1,-7.064666748E-1,1.306869507E0,5.244995117E0
9.669559440E-1,-4.430999756E-1,1.153640747E0,5.127670288E0
9.693973500E-1,-2.659301758E-1,1.057861328E0,4.967269897E0
9.718692740E-1,-1.510009766E-1,8.950653076E-1,4.782913208E0
9.743106800E-1,-2.650451660E-2,7.705688477E-1,4.699111938E0
9.767826040E-1,8.601379395E-2,6.819763184E-1,4.586578369E0
9.792545280E-1,2.272796631E-1,5.814208984E-1,4.421386719E0
9.817264520E-1,4.235992432E-1,4.641113281E-1,4.296890259E0
9.841678580E-1,5.289459229E-1,3.994598389E-1,4.220275879E0
9.866397820E-1,7.635803223E-1,3.156585693E-1,4.129287720E0
9.891117060E-1,9.910278320E-1,2.222900391E-1,4.088592529E0
9.915531120E-1,1.149047852E0,2.127075195E-1,3.849166870E0
9.940250360E-1,1.297485352E0,2.390441895E-1,3.707916260E0
9.964969590E-1,1.450714111E0,2.558135986E-1,3.643264771E0
9.989688830E-1,1.647033691E0,2.294769287E-1,3.640869141E0
1.001410290E0,1.845748901E0,1.815948486E-1,3.798889160E0
1.003882213E0,2.159393311E0,1.360931396E-1,3.942550659E0
1.006354137E0,2.441909790E0,2.836608887E-2,4.095779419E0
1.008795543E0,2.722030640E0,-7.458496094E-2,4.294494629E0
1.011267467E0,2.980606079E0,-1.919097900E-1,4.457305908E0
1.013739391E0,3.318191528E0,-3.403472900E-1,4.572219849E0
1.016180797E0,3.526489258E0,-4.696350098E-1,4.763763428E0
1.018652721E0,3.694076538E0,-5.366668701E-1,4.943328857E0
1.021124645E0,3.837738037E0,-6.252593994E-1,5.130065918E0
1.023566051E0,4.002929688E0,-7.162322998E-1,5.247390747E0
1.026037975E0,4.132217407E0,-8.000335693E-1,5.388641357E0
1.028509899E0,4.297424316E0,-8.311614990E-1,5.534683228E0
1.030951305E0,4.553604126E0,-8.814392090E-1,5.572998047E0
1.033423229E0,4.704437256E0,-8.910064697E-1,5.611297607E0
1.035895153E0,4.807388306E0,-9.221343994E-1,5.673553467E0
1.038367077E0,4.927093506E0,-9.748077393E-1,5.759750366E0
1.040808483E0,5.003707886E0,-1.005935669E0,5.687911987E0
1.043280407E0,5.140182495E0,-1.070571899E0,5.692703247E0
1.045752331E0,5.243133545E0,-1.120849609E0,5.584960938E0
1.048193737E0,5.386779785E0,-1.178314209E0,5.513137817E0
1.050665661E0,5.528045654E0,-1.187896729E0,5.412582397E0
1.053137584E0,5.659713745E0,-1.257324219E0,5.285690308E0
1.055578991E0,5.767456055E0,-1.329147339E0,5.118103027E0
1.058050915E0,5.820129395E0,-1.391403198E0,5.029510498E0
1.060522838E0,5.834503174E0,-1.484771729E0,4.960083008E0
1.062994762E0,5.958999634E0,-1.544631958E0,4.756576538E0
1.065436168E0,5.990112305E0,-1.621246338E0,4.596160889E0
1.067908092E0,6.107437134E0,-1.721801758E0,4.490814209E0
1.070380016E0,6.049972534E0,-1.738555908E0,4.344772339E0
1.072821422E0,5.975753784E0,-1.764892578E0,4.158020020E0
1.075293346E0,5.935058594E0,-1.796020508E0,3.920989990E0
1.077765270E0,5.908721924E0,-1.831939697E0,3.712707520E0
1.080206676E0,5.872802734E0,-1.798416138E0,3.482864380E0
1.082678600E0,5.868011475E0,-1.829544067E0,3.334411621E0
1.085150524E0,5.812942505E0,-1.807998657E0,3.255416870E0
1.087591930E0,5.777038574E0,-1.810394287E0,3.097396851E0
1.090063854E0,5.731552124E0,-1.860671997E0,2.963317871E0
1.092535778E0,5.635772705E0,-1.853485107E0,2.946563721E0
1.094977184E0,5.563949585E0,-1.920516968E0,2.948944092E0
1.097449108E0,5.513671875E0,-1.927703857E0,2.860366821E0
1.099921032E0,5.463394165E0,-1.977981567E0,2.819671631E0
1.102392956E0,5.489730835E0,-2.059387207E0,2.750228882E0
1.104834362E0,5.494522095E0,-2.078536987E0,2.735870361E0
1.107306286E0,5.556762695E0,-2.119232178E0,2.776565552E0
1.109778209E0,5.676483154E0,-2.145568848E0,2.824447632E0
1.112219616E0,5.839279175E0,-2.198242188E0,2.920227051E0
1.114691540E0,6.038009644E0,-2.236557007E0,3.044723511E0
1.117163463E0,6.263061523E0,-2.313171387E0,3.147674561E0
1.119604870E0,6.509658813E0,-2.375411987E0,3.296112061E0
1.122076793E0,6.662887573E0,-2.413726807E0,3.430191040E0
1.124548717E0,6.919067383E0,-2.475967407E0,3.581024170E0
1.126990124E0,7.129760742E0,-2.612442017E0,3.614532471E0
1.129462047E0,7.369186401E0,-2.758483887E0,3.626510620E0
1.131933971E0,7.615783691E0,-2.904541016E0,3.715103149E0
1.134405895E0,7.838439941E0,-3.038619995E0,3.707916260E0
1.136847301E0,8.032379150E0,-3.222961426E0,3.734252930E0
1.139319225E0,8.144897461E0,-3.333099365E0,3.712707520E0
1.141791149E0,8.355590820E0,-3.519851685E0,3.712707520E0
1.144232555E0,8.537551880E0,-3.723358154E0,3.731857300E0
1.146704479E0,8.659652710E0,-3.857421875E0,3.724670410E0
1.149176403E0,8.717117310E0,-4.013046265E0,3.624114990E0
1.151617809E0,8.743453979E0,-4.151916504E0,3.521163940E0
1.154089733E0,8.642898560E0,-4.355422974E0,3.490036011E0
1.156561657E0,8.575851440E0,-4.477523804E0,3.408645630E0
1.159003063E0,8.475296021E0,-4.647521973E0,3.296112061E0
1.161474987E0,8.386718750E0,-4.841445923E0,3.257797241E0
1.163946911E0,8.247848511E0,-4.918060303E0,3.178802490E0
1.166418834E0,8.108993530E0,-5.143112183E0,3.097396851E0
1.168860241E0,7.982101440E0,-5.289169312E0,2.893890381E0
1.171332165E0,8.192779541E0,-5.540557861E0,2.929794312E0
1.173773571E0,8.781753540E0,-6.045730591E0,3.528350830E0
1.176245495E0,8.439392090E0,-6.254028320E0,2.956130981E0
1.178717418E0,7.797744751E0,-6.402465820E0,2.836425781E0
1.181189342E0,7.244674683E0,-6.526962280E0,3.006408691E0
1.183630749E0,6.796966553E0,-6.613159180E0,3.133300781E0
1.186102672E0,6.478530884E0,-6.766387939E0,3.241043091E0
1.188574596E0,6.095458984E0,-6.883697510E0,3.169219971E0
1.191016002E0,5.774642944E0,-7.010589600E0,3.116546631E0
1.193487926E0,5.609436035E0,-7.171005249E0,3.420608521E0
1.195959850E0,5.652542114E0,-7.470275879E0,4.112533569E0
1.198431774E0,5.789001465E0,-7.728851318E0,4.816421509E0
1.200873180E0,5.875198364E0,-7.886871338E0,5.551452637E0
1.203345104E0,5.925476074E0,-8.073623657E0,6.207458496E0
1.205817028E0,5.978149414E0,-8.169387817E0,6.662353516E0
1.208258434E0,5.994903564E0,-8.293884277E0,7.119644165E0
1.210730358E0,5.956604004E0,-8.377685547E0,7.603286743E0
1.213202282E0,5.918289185E0,-8.475845337E0,8.106063843E0
1.215643688E0,5.918289185E0,-8.521331787E0,8.647155762E0
1.218115612E0,5.968566895E0,-8.609924316E0,9.205001831E0
1.220587536E0,6.117004395E0,-8.691329956E0,9.765243530E0
1.223028942E0,6.251083374E0,-8.763153076E0,1.018663025E1
1.225500866E0,6.442626953E0,-8.894836426E0,1.066786194E1
1.227972790E0,6.643737793E0,-9.012145996E0,1.105572510E1
1.230414196E0,6.780212402E0,-9.155792236E0,1.143400574E1
1.232886120E0,6.799362183E0,-9.309020996E0,1.164469910E1
1.235358043E0,6.638946533E0,-9.409576416E0,1.175961304E1
1.237799450E0,6.423461914E0,-9.529296875E0,1.184101868E1
1.240271374E0,6.622192383E0,-9.517318726E0,1.208044434E1
1.242743297E0,6.789779663E0,-9.431137085E0,1.207804871E1
1.245215221E0,6.682037354E0,-9.407196045E0,1.197270203E1
1.247656627E0,6.543182373E0,-9.455078125E0,1.187931824E1
1.250128551E0,6.397140503E0,-9.555633545E0,1.170933533E1
1.252600475E0,6.387557983E0,-9.739990234E0,1.171891785E1
1.255041881E0,6.454589844E0,-9.924331665E0,1.170693970E1
1.257513805E0,6.588668823E0,-1.010629272E1,1.168539429E1
1.259985729E0,6.835266113E0,-1.029064941E1,1.171412659E1
1.262427135E0,6.990890503E0,-1.039120483E1,1.162313843E1
1.264899059E0,7.093841553E0,-1.045106506E1,1.158244324E1
1.267370983E0,7.110610962E0,-1.050134277E1,1.152737427E1
1.269812389E0,7.103424072E0,-1.047261047E1,1.154652405E1
1.272284313E0,7.048355103E0,-1.038880920E1,1.156089783E1
1.274756237E0,6.969345093E0,-1.024755859E1,1.160159302E1
1.277228161E0,6.914276123E0,-1.007516479E1,1.169018555E1
1.279669567E0,6.849639893E0,-9.996170044E0,1.178594971E1
1.282141491E0,6.887939453E0,-9.866882324E0,1.191763306E1
1.284613415E0,7.084274292E0,-9.644210815E0,1.232704163E1
1.287054821E0,7.227920532E0,-9.512527466E0,1.290164185E1
1.289526745E0,7.390731812E0,-9.419158936E0,1.337330627E1
1.291998668E0,7.354812622E0,-9.390426636E0,1.324641418E1
1.294440075E0,7.062728882E0,-9.400009155E0,1.284179688E1
1.296911999E0,6.940612793E0,-9.404800415E0,1.252575684E1
1.299383922E0,7.024414062E0,-9.414367676E0,1.231266785E1
1.301855846E0,7.323684692E0,-9.474227905E0,1.224563599E1
1.304297252E0,7.596633911E0,-9.507751465E0,1.233900452E1
1.306769176E0,7.795349121E0,-9.560424805E0,1.239886475E1
1.309241100E0,7.929428101E0,-9.601119995E0,1.234619141E1
1.311682506E0,7.986877441E0,-9.625061035E0,1.227436829E1
1.314154430E0,8.111389160E0,-9.641815186E0,1.227915955E1
1.316626354E0,8.269393921E0,-9.656188965E0,1.229351807E1
1.319067760E0,8.417846680E0,-9.644210815E0,1.221929932E1
1.321539684E0,8.468124390E0,-9.584365845E0,1.222888184E1
1.324011608E0,8.441787720E0,-9.512527466E0,1.225042725E1
1.326453014E0,8.458541870E0,-9.519714355E0,1.225521851E1
1.328924938E0,8.401077271E0,-9.455078125E0,1.222888184E1
1.331396862E0,8.446563721E0,-9.371276855E0,1.237492371E1
1.333868786E0,8.516006470E0,-9.316207886E0,1.256884766E1
1.336310192E0,8.609375000E0,-9.287475586E0,1.282263184E1
1.338782116E0,8.642898560E0,-9.304244995E0,1.315782166E1
1.341254040E0,8.712326050E0,-9.285079956E0,1.343077087E1
1.343695446E0,8.726684570E0,-9.268325806E0,1.374201965E1
1.346167370E0,8.781753540E0,-9.234802246E0,1.405085754E1
1.348639293E0,8.891891479E0,-9.275512695E0,1.436929321E1
1.351080700E0,9.011596680E0,-9.270721436E0,1.466378784E1
1.353552624E0,9.104980469E0,-9.191711426E0,1.489840698E1
1.356024547E0,9.265380859E0,-9.146224976E0,1.519050598E1
1.358465954E0,9.380310059E0,-9.129455566E0,1.541795349E1
1.360937877E0,9.600570679E0,-9.074401855E0,1.562145996E1
1.363409801E0,9.784927368E0,-9.009750366E0,1.581060791E1
1.365851207E0,9.887878418E0,-8.978622437E0,1.597340393E1
1.368323131E0,1.002195740E1,-8.909194946E0,1.601411438E1
1.370795055E0,1.009617615E1,-8.916381836E0,1.607635498E1
1.373266979E0,1.019673157E1,-8.849334717E0,1.601411438E1
1.375708385E0,1.023265076E1,-8.782302856E0,1.598059082E1
1.378180309E0,1.032362366E1,-8.741607666E0,1.587284851E1
1.380652233E0,1.032122803E1,-8.679351807E0,1.570286560E1
1.383093639E0,1.027813721E1,-8.605133057E0,1.554724121E1
1.385565563E0,1.022785950E1,-8.468658447E0,1.537725830E1
1.388037487E0,1.019194031E1,-8.298675537E0,1.516896057E1
1.390478893E0,1.023503113E1,-8.159805298E0,1.491995239E1
1.392950817E0,1.014166260E1,-8.052078247E0,1.469729614E1
1.395422741E0,1.006504822E1,-7.874893188E0,1.444830322E1
1.397864147E0,9.981246948E0,-7.712097168E0,1.422564697E1
1.400336071E0,9.930969238E0,-7.573226929E0,1.400297546E1
1.402807995E0,9.897460938E0,-7.427185059E0,1.379229736E1
1.405249401E0,9.832809448E0,-7.293106079E0,1.357920837E1
1.407721325E0,9.768173218E0,-7.130310059E0,1.339245605E1
1.410193249E0,9.717895508E0,-7.053695679E0,1.318894958E1
1.412665172E0,9.725067139E0,-6.948348999E0,1.300938416E1
1.415106579E0,9.710708618E0,-6.847793579E0,1.292558289E1
1.417578502E0,9.715499878E0,-6.682586670E0,1.279391479E1
1.420050426E0,9.708312988E0,-6.613159180E0,1.267179871E1
1.422491832E0,9.732254028E0,-6.558090210E0,1.258322144E1
1.424963756E0,9.677185059E0,-6.433593750E0,1.258082581E1
1.427435680E0,9.751403809E0,-6.304306030E0,1.245153809E1
1.429877086E0,9.816055298E0,-6.256423950E0,1.240844727E1
1.432349010E0,9.899856567E0,-6.182205200E0,1.233422852E1
1.434820934E0,9.995620728E0,-6.074462891E0,1.227676392E1
1.437292858E0,1.014645386E1,-6.038543701E0,1.220494080E1
1.439734264E0,1.018475342E1,-6.016998291E0,1.212593079E1
1.442206188E0,1.025180054E1,-5.954742432E0,1.200860596E1
1.444678112E0,1.031643677E1,-5.952362061E0,1.189369202E1
1.447119518E0,1.037629700E1,-5.937988281E0,1.176679993E1
1.449591442E0,1.047924805E1,-5.983474731E0,1.177159119E1
1.452032848E0,1.051516724E1,-6.062484741E0,1.162792969E1
1.454504772E0,1.051754761E1,-5.978698730E0,1.138133240E1
1.456976696E0,1.057022095E1,-5.957138062E0,1.118022156E1
1.459448620E0,1.060614014E1,-5.993057251E0,1.092164612E1
1.461890026E0,1.057022095E1,-5.961929321E0,1.067982483E1
1.464361950E0,1.054867554E1,-5.926025391E0,1.045477295E1
1.466833874E0,1.052233887E1,-5.863769531E0,1.013635254E1
1.469305797E0,1.053910828E1,-5.858978271E0,9.841857910E0
1.471747204E0,1.047924805E1,-5.799133301E0,9.592864990E0
1.474219127E0,1.041938782E1,-5.760818481E0,9.272033691E0
1.476691051E0,1.039544678E1,-5.710540771E0,8.941635132E0
1.479132457E0,1.026136780E1,-5.645904541E0,8.639968872E0
1.481604381E0,1.023025513E1,-5.621963501E0,8.367034912E0
1.484076305E0,1.018714905E1,-5.602798462E0,8.046203613E0
1.486517711E0,1.007223511E1,-5.535766602E0,7.727783203E0
1.488989635E0,9.981246948E0,-5.497451782E0,7.435684204E0
1.491461559E0,9.926193237E0,-5.461547852E0,7.193878174E0
1.493902965E0,9.811264038E0,-5.360992432E0,6.925720215E0
1.496374889E0,9.722686768E0,-5.349014282E0,6.715026855E0
1.498846813E0,9.698730469E0,-5.286773682E0,6.501953125E0
1.501318737E0,9.610153198E0,-5.253250122E0,6.336746216E0
1.503760143E0,9.521560669E0,-5.186218262E0,6.233795166E0
1.506232067E0,9.442550659E0,-5.202972412E0,6.049438477E0
1.508703991E0,9.327636719E0,-5.145507812E0,5.891418457E0
1.511145397E0,9.289321899E0,-5.111984253E0,5.788467407E0
1.513617321E0,9.270172119E0,-5.090438843E0,5.652008057E0
1.516089245E0,9.253417969E0,-5.052139282E0,5.505966187E0
1.518530651E0,9.157653809E0,-4.965942383E0,5.417373657E0
1.521002575E0,9.126525879E0,-4.956375122E0,5.376678467E0
1.523474499E0,9.188766479E0,-4.889328003E0,5.264144897E0
1.525915905E0,9.138488770E0,-4.810317993E0,5.218658447E0
1.528387829E0,9.037933350E0,-4.733703613E0,5.307235718E0
1.530859752E0,8.906250000E0,-4.666671753E0,5.359909058E0
1.533301159E0,8.767395020E0,-4.611602783E0,5.405395508E0
1.535773082E0,8.640502930E0,-4.556533813E0,5.527511597E0
1.538245006E0,8.480087280E0,-4.554138184E0,5.594543457E0
1.540716930E0,8.372344971E0,-4.467956543E0,5.575393677E0
1.543158336E0,8.343612671E0,-4.343444824E0,5.515533447E0
1.545630260E0,8.346008301E0,-4.278808594E0,5.345550537E0
1.548102184E0,8.276580811E0,-4.293167114E0,5.017547607E0
1.550543590E0,8.233489990E0,-4.264450073E0,4.754180908E0
1.553015514E0,8.204757690E0,-4.300354004E0,4.495605469E0
1.555487438E0,8.132934570E0,-4.276412964E0,4.292098999E0
1.557928844E0,8.032379150E0,-4.312332153E0,4.153228760E0
1.560400768E0,7.879150391E0,-4.281204224E0,4.050277710E0
1.562872692E0,7.718734741E0,-4.300354004E0,3.909027100E0
1.565314098E0,7.558319092E0,-4.317123413E0,3.880294800E0
1.567786022E0,7.460159302E0,-4.300354004E0,3.691146851E0
1.570257946E0,7.326080322E0,-4.183044434E0,3.609756470E0
1.572729870E0,7.184829712E0,-4.144729614E0,3.518768311E0
1.575171276E0,7.060333252E0,-4.096847534E0,3.411026001E0
1.577643200E0,6.962158203E0,-4.025024414E0,3.379913330E0
1.580115124E0,6.878372192E0,-3.943618774E0,3.212310791E0
1.582556530E0,6.794570923E0,-3.931655884E0,3.099792480E0
1.585028454E0,6.686828613E0,-3.893341064E0,2.999237061E0
1.587500377E0,6.631759644E0,-3.931655884E0,2.903457642E0
1.589941784E0,6.643737793E0,-3.955596924E0,2.800506592E0
1.592413707E0,6.646133423E0,-3.950805664E0,2.745437622E0
1.594885631E0,6.667678833E0,-4.003479004E0,2.678405762E0
1.597327038E0,6.660491943E0,-4.065719604E0,2.628128052E0
1.599798961E0,6.653320312E0,-4.223739624E0,2.556304932E0
1.602270885E0,6.650924683E0,-4.333877563E0,2.608978271E0
1.604742809E0,6.638946533E0,-4.417678833E0,2.556304932E0
1.607184215E0,6.648529053E0,-4.539779663E0,2.558700562E0
1.609656139E0,6.665283203E0,-4.647521973E0,2.611373901E0
1.612128063E0,6.686828613E0,-4.752853394E0,2.640106201E0
1.614569469E0,6.670074463E0,-4.843841553E0,2.659255981E0
1.617041393E0,6.643737793E0,-4.910873413E0,2.664047241E0
1.619513317E0,6.641342163E0,-5.073684692E0,2.697555542E0
1.621954723E0,6.598251343E0,-5.147903442E0,2.678405762E0
1.624426647E0,6.543182373E0,-5.255645752E0,2.613769531E0
1.626898571E0,6.528808594E0,-5.389724731E0,2.692779541E0
1.629339977E0,6.471359253E0,-5.497451782E0,2.661651611E0
1.631811901E0,6.375579834E0,-5.621963501E0,2.628128052E0
1.634283825E0,6.308547974E0,-5.768005371E0,2.568267822E0
1.636725231E0,6.138565063E0,-5.976303101E0,2.484481812E0
1.639197155E0,6.083496094E0,-6.067276001E0,2.498840332E0
1.641669079E0,5.913497925E0,-6.170227051E0,2.391098022E0
1.644141002E0,5.808166504E0,-6.337829590E0,2.259414673E0
1.646582409E0,5.724365234E0,-6.402465820E0,2.163650513E0
1.649054332E0,5.607040405E0,-6.519775391E0,2.094223022E0
1.651526256E0,5.398757935E0,-6.663436890E0,1.940994263E0
1.653967663E0,5.293411255E0,-6.783142090E0,1.921844482E0
1.656439586E0,5.149749756E0,-6.905242920E0,1.838043213E0
1.658911510E0,5.037231445E0,-7.020172119E0,1.763824463E0
1.661352916E0,4.884002686E0,-7.113540649E0,1.727905273E0
1.663824840E0,4.723587036E0,-7.230865479E0,1.687210083E0
1.666296764E0,4.572753906E0,-7.317047119E0,1.732696533E0
1.668738170E0,4.472198486E0,-7.427185059E0,1.735092163E0
1.671210094E0,4.402755737E0,-7.465484619E0,1.766220093E0
1.673682018E0,4.309387207E0,-7.611541748E0,1.895507812E0
1.676153942E0,4.278259277E0,-7.716888428E0,1.996063232E0
1.678595348E0,4.333328247E0,-7.841384888E0,2.082244873E0
1.681067272E0,4.340515137E0,-8.016159058E0,2.233078003E0
1.683539196E0,4.350097656E0,-8.111923218E0,2.367156982E0
1.685980602E0,4.397979736E0,-8.222061157E0,2.577850342E0
1.688452526E0,4.476989746E0,-8.317825317E0,2.695159912E0
1.690924450E0,4.565567017E0,-8.408813477E0,2.867553711E0
1.693365856E0,4.613449097E0,-8.478240967E0,2.963317871E0
1.695837780E0,4.675704956E0,-8.526123047E0,3.133300781E0
1.698309704E0,4.749923706E0,-8.585983276E0,3.205123901E0
1.700751110E0,4.845687866E0,-8.667373657E0,3.348785400E0
1.703223034E0,4.963012695E0,-8.712875366E0,3.473281860E0
1.705694957E0,5.025253296E0,-8.789489746E0,3.547500610E0
1.708136364E0,5.039627075E0,-8.830184937E0,3.533142090E0
1.710608288E0,5.092300415E0,-8.854125977E0,3.552291870E0
1.713080211E0,5.111450195E0,-8.921173096E0,3.540313721E0
1.715552135E0,5.118637085E0,-9.026504517E0,3.468490601E0
1.717993541E0,5.053985596E0,-9.088760376E0,3.363143921E0
1.720465465E0,5.121017456E0,-9.172561646E0,3.363143921E0
1.722937389E0,5.097076416E0,-9.239593506E0,3.229080200E0
1.725378795E0,5.006103516E0,-9.318603516E0,3.111755371E0
1.727850719E0,4.934280396E0,-9.455078125E0,3.013595581E0
1.730322643E0,4.888778687E0,-9.538864136E0,2.917831421E0
1.732764049E0,4.802597046E0,-9.598724365E0,2.819671631E0
1.735235973E0,4.678100586E0,-9.677734375E0,2.723892212E0
1.737707897E0,4.627822876E0,-9.792648315E0,2.661651611E0
1.740179821E0,4.539230347E0,-9.924331665E0,2.544326782E0
1.742621227E0,4.414733887E0,-1.000334167E1,2.455749512E0
1.745093151E0,4.230377197E0,-1.010389709E1,2.407867432E0
1.747534557E0,4.005325317E0,-1.029544067E1,2.319274902E0
1.750006481E0,3.816177368E0,-1.041275024E1,2.295333862E0
1.752478405E0,3.624649048E0,-1.049176025E1,2.228302002E0
1.754950329E0,3.457046509E0,-1.054682922E1,2.223510742E0
1.757391735E0,3.258331299E0,-1.066413879E1,2.122955322E0
1.759863659E0,3.042861938E0,-1.079582214E1,2.103805542E0
1.762335582E0,2.793853760E0,-1.079342651E1,2.082244873E0
1.764776989E0,2.623870850E0,-1.084609985E1,2.110977173E0
1.767248913E0,2.504165649E0,-1.088920593E1,2.108581543E0
1.769720836E0,2.346145630E0,-1.099215698E1,2.106185913E0
1.772192760E0,2.164184570E0,-1.106877136E1,2.180419922E0
1.774634166E0,2.049270630E0,-1.109748840E1,2.225906372E0
1.777106090E0,1.927154541E0,-1.122200012E1,2.225906372E0
1.779578014E0,1.795471191E0,-1.129382324E1,2.278579712E0
1.782019420E0,1.663803101E0,-1.136564636E1,2.395889282E0
1.784491344E0,1.524932861E0,-1.141592407E1,2.395889282E0
1.786932750E0,1.421981812E0,-1.143507385E1,2.400680542E0
1.789404674E0,1.280731201E0,-1.145184326E1,2.525177002E0
1.791876598E0,1.177780151E0,-1.147817993E1,2.549118042E0
1.794348522E0,1.041305542E0,-1.143986511E1,2.544326782E0
1.796789928E0,9.431457520E-1,-1.143507385E1,2.711929321E0
1.799261852E0,8.760986328E-1,-1.141592407E1,2.814880371E0
1.801733776E0,7.970886230E-1,-1.140873718E1,2.891494751E0
1.804175182E0,7.875213623E-1,-1.135606384E1,3.042327881E0
1.806647106E0,7.851257324E-1,-1.137283325E1,3.157241821E0
1.809119030E0,8.162536621E-1,-1.138240051E1,3.272171021E0
1.811590954E0,8.186492920E-1,-1.139677429E1,3.379913330E0
1.814032360E0,8.665313721E-1,-1.138000488E1,3.499618530E0
1.816504284E0,9.311676025E-1,-1.138719177E1,3.552291870E0
1.818945690E0,1.031723022E0,-1.141352844E1,3.643264771E0
1.821417614E0,1.074829102E0,-1.148774719E1,3.748611450E0
1.823889538E0,1.122711182E0,-1.144705200E1,3.851562500E0
1.826361461E0,1.237625122E0,-1.146620178E1,3.899444580E0
1.828802868E0,1.345367432E0,-1.145184326E1,3.923385620E0
1.831274791E0,1.433959961E0,-1.143028259E1,3.964096069E0
1.833746715E0,1.472259521E0,-1.140156555E1,4.038314819E0
1.836188122E0,1.584793091E0,-1.131057739E1,4.035919189E0
1.838660045E0,1.740417480E0,-1.128903198E1,3.956909180E0
1.841131969E0,1.881668091E0,-1.126269531E1,3.978454590E0
1.843573375E0,1.991806030E0,-1.118847656E1,4.047897339E0
1.846045299E0,2.080383301E0,-1.116932678E1,4.043106079E0
1.848517223E0,2.166580200E0,-1.114299011E1,3.985641479E0
1.850989147E0,2.250381470E0,-1.112622070E1,3.935363770E0
1.853430553E0,2.317413330E0,-1.105439758E1,3.956909180E0
1.855902477E0,2.374877930E0,-1.099932861E1,3.861145020E0
1.858374401E0,2.413177490E0,-1.095384216E1,3.868331909E0
1.860815807E0,2.451492310E0,-1.093469238E1,3.839599609E0
1.863287731E0,2.461059570E0,-1.082695007E1,3.810867310E0
1.865759655E0,2.463455200E0,-1.073597717E1,3.772552490E0
1.868201061E0,2.477828979E0,-1.074314880E1,3.700729370E0
1.870672985E0,2.458663940E0,-1.069287109E1,3.681579590E0
1.873144909E0,2.485000610E0,-1.064498901E1,3.679183960E0
1.875616832E0,2.477828979E0,-1.057316589E1,3.662429810E0
1.878058239E0,2.429946899E0,-1.056358337E1,3.619323730E0
1.880530163E0,2.384445190E0,-1.053485107E1,3.597778320E0
1.883002086E0,2.348541260E0,-1.052528381E1,3.602569580E0
1.885443493E0,2.365295410E0,-1.053964233E1,3.573837280E0
1.887915416E0,2.336563110E0,-1.057316589E1,3.466094971E0
1.890387340E0,2.279113770E0,-1.059710693E1,3.446945190E0
1.892828747E0,2.219253540E0,-1.063302612E1,3.442153931E0
1.895300670E0,2.147430420E0,-1.064019775E1,3.456527710E0
1.897772594E0,2.147430420E0,-1.063302612E1,3.387084961E0
1.900214000E0,2.133056641E0,-1.065457153E1,3.399063110E0
1.902685924E0,2.099548340E0,-1.065936279E1,3.365539551E0
1.905157848E0,2.087570190E0,-1.065457153E1,3.470886230E0
1.907599254E0,2.092361450E0,-1.065936279E1,3.540313721E0
1.910071178E0,2.161788940E0,-1.068330383E1,3.600173950E0
1.912543102E0,2.156997681E0,-1.072160339E1,3.645660400E0
1.915015026E0,2.085174561E0,-1.075991821E1,3.662429810E0
1.917456432E0,2.034896851E0,-1.079582214E1,3.758193970E0
1.919928356E0,1.998977661E0,-1.088681030E1,3.753402710E0
1.922400280E0,1.888854980E0,-1.092750549E1,3.822830200E0
1.924841686E0,1.802658081E0,-1.095863342E1,3.844375610E0
1.927313610E0,1.711685181E0,-1.097538757E1,3.832412720E0
1.929785534E0,1.603942871E0,-1.092271423E1,3.815658569E0
1.932226940E0,1.544082642E0,-1.089877319E1,3.789321899E0
1.934698864E0,1.448318481E0,-1.090835571E1,3.846771240E0
1.937170788E0,1.390853882E0,-1.080540466E1,3.868331909E0
1.939612194E0,1.357345581E0,-1.077667236E1,3.887481689E0
1.942084118E0,1.350158691E0,-1.072160339E1,3.880294800E0
1.944556041E0,1.338180542E0,-1.070724487E1,4.038314819E0
1.947027965E0,1.331008911E0,-1.062104797E1,4.112533569E0
1.949469372E0,1.328613281E0,-1.054922485E1,4.181961060E0
1.951941295E0,1.283111572E0,-1.050373840E1,4.272949219E0
1.954413219E0,1.323822021E0,-1.045106506E1,4.414199829E0
1.956854625E0,1.371704102E0,-1.042233276E1,4.529129028E0
1.959326549E0,1.364517212E0,-1.043908691E1,4.612915039E0
1.961798473E0,1.386062622E0,-1.039599609E1,4.713485718E0
1.964239879E0,1.460296631E0,-1.038641357E1,4.770935059E0
1.966711803E0,1.534515381E0,-1.032417297E1,4.881072998E0
1.969183727E0,1.611129761E0,-1.033374023E1,5.003173828E0
1.971625133E0,1.663803101E0,-1.032894897E1,5.118103027E0
1.974097057E0,1.783508301E0,-1.032417297E1,5.216262817E0
1.976568981E0,1.915191650E0,-1.039360046E1,5.347946167E0
1.979040905E0,1.951095581E0,-1.036965942E1,5.479629517E0
1.981482311E0,2.013351440E0,-1.033853149E1,5.572998047E0
1.983954235E0,2.104324341E0,-1.039360046E1,5.659194946E0
1.986426159E0,2.145034790E0,-1.037445068E1,5.742980957E0
1.988867565E0,2.190521240E0,-1.040078735E1,5.824386597E0
1.991339489E0,2.178543091E0,-1.038401794E1,5.877059937E0
1.993811413E0,2.204879761E0,-1.035768127E1,5.889038086E0
1.996252819E0,2.226440430E0,-1.040078735E1,5.901000977E0
1.998724743E0,2.226440430E0,-1.040795898E1,6.006347656E0
2.001196666E0,2.173767090E0,-1.034811401E1,5.984802246E0
2.003638073E0,2.183334351E0,-1.031219482E1,5.953674316E0
2.006109997E0,2.118698120E0,-1.031698608E1,5.934524536E0
2.008581920E0,2.020538330E0,-1.027389526E1,5.932128906E0
2.011053844E0,2.015747070E0,-1.021163940E1,5.874664307E0
2.013495250E0,1.893646240E0,-1.019488525E1,5.771713257E0
2.015967174E0,1.795471191E0,-1.018769836E1,5.709472656E0
2.018439098E0,1.678161621E0,-1.019248962E1,5.570602417E0
2.020880504E0,1.577606201E0,-1.017333984E1,5.474838257E0
2.023352428E0,1.450714111E0,-1.018769836E1,5.381454468E0
2.025824352E0,1.331008911E0,-1.013262939E1,5.211471558E0
2.028265758E0,1.235229492E0,-1.018769836E1,5.115707397E0
2.030737682E0,1.098770142E0,-1.016854858E1,5.005569458E0
2.033209606E0,1.043701172E0,-1.020924377E1,4.955291748E0
2.035651012E0,9.838409424E-1,-1.017333984E1,4.852340698E0
2.038122936E0,9.622955322E-1,-1.011587524E1,4.744598389E0
2.040594860E0,9.311676025E-1,-1.013262939E1,4.636856079E0
2.043066784E0,8.928680420E-1,-1.013502502E1,4.641647339E0
2.045508190E0,9.263763428E-1,-1.005122375E1,4.615310669E0
2.047980114E0,9.838409424E-1,-1.009910583E1,4.548278809E0
2.050452038E0,1.072433472E0,-1.008474731E1,4.610534668E0
2.052893444E0,1.077224731E0,-1.007756042E1,4.622497559E0
2.055365368E0,1.165802002E0,-1.015657043E1,4.641647339E0
2.057837291E0,1.172988892E0,-1.017572021E1,4.656021118E0
2.060278698E0,1.230453491E0,-1.013981628E1,4.696716309E0
2.062750622E0,1.340576172E0,-1.011347961E1,4.778121948E0
2.065222545E0,1.371704102E0,-1.007995605E1,4.852340698E0
2.067663952E0,1.417190552E0,-1.004644775E1,4.826004028E0
2.070135875E0,1.438735962E0,-1.004644775E1,4.919372559E0
2.072607799E0,1.503387451E0,-1.001771545E1,4.974441528E0
2.075079723E0,1.515350342E0,-9.998550415E0,4.957687378E0
2.077521129E0,1.536911011E0,-9.931518555E0,5.015151978E0
2.079993053E0,1.568023682E0,-9.921936035E0,5.115707397E0
2.082434459E0,1.599151611E0,-9.943496704E0,5.161193848E0
2.084906383E0,1.575210571E0,-9.914764404E0,5.252166748E0
2.087378307E0,1.544082642E0,-9.912368774E0,5.230621338E0
2.089850231E0,1.565628052E0,-9.847717285E0,5.235412598E0
2.092291637E0,1.522537231E0,-9.816604614E0,5.254562378E0
2.094763561E0,1.462677002E0,-9.866882324E0,5.252166748E0
2.097235485E0,1.419586182E0,-9.857299805E0,5.256958008E0
2.099676891E0,1.386062622E0,-9.830963135E0,5.244995117E0
2.102148815E0,1.273544312E0,-9.845321655E0,5.252166748E0
2.104590221E0,1.206497192E0,-9.871658325E0,5.254562378E0
2.107062145E0,1.151443481E0,-9.869262695E0,5.225830078E0
2.109534069E0,1.074829102E0,-9.871658325E0,5.199508667E0
2.112005993E0,9.718780518E-1,-9.876449585E0,5.144439697E0
2.114477916E0,9.239807129E-1,-9.917160034E0,5.077392578E0
2.116888805E0,8.210449219E-1,-9.888427734E0,5.053451538E0
2.119330211E0,7.324523926E-1,-9.886032104E0,4.921768188E0
2.121802135E0,7.180938721E-1,-9.878845215E0,4.902618408E0
2.124274059E0,6.582336426E-1,-9.907577515E0,4.847549438E0
2.126745983E0,6.558380127E-1,-9.917160034E0,4.797271729E0
2.129217907E0,6.127471924E-1,-9.912368774E0,4.718261719E0
2.131689831E0,5.696411133E-1,-9.931518555E0,4.646438599E0
2.134161754E0,5.002136230E-1,-9.921936035E0,4.629684448E0
2.136633678E0,4.666900635E-1,-9.921936035E0,4.636856079E0
2.139075084E0,4.571228027E-1,-9.909973145E0,4.617706299E0
2.141547008E0,4.283905029E-1,-9.888427734E0,4.612915039E0
2.144018932E0,4.259948730E-1,-9.840545654E0,4.612915039E0
2.146490856E0,3.900756836E-1,-9.840545654E0,4.644042969E0
2.148932262E0,3.350219727E-1,-9.785476685E0,4.617706299E0
2.151404186E0,3.541717529E-1,-9.749557495E0,4.641647339E0
2.153876110E0,2.919158936E-1,-9.728012085E0,4.632080078E0
2.156317516E0,3.014984131E-1,-9.689697266E0,4.653625488E0
2.158789440E0,2.607879639E-1,-9.603515625E0,4.663192749E0
2.161261364E0,2.967071533E-1,-9.553237915E0,4.684753418E0
2.163702770E0,2.895202637E-1,-9.546051025E0,4.667984009E0
2.166174694E0,2.560119629E-1,-9.486190796E0,4.641647339E0
2.168646618E0,2.392425537E-1,-9.474227905E0,4.667984009E0
2.171088024E0,2.440338135E-1,-9.426345825E0,4.694320679E0
2.173559948E0,2.296752930E-1,-9.426345825E0,4.703903198E0
2.176031872E0,2.631835938E-1,-9.414367676E0,4.785308838E0
2.178503795E0,2.560119629E-1,-9.380859375E0,4.787704468E0
2.180945202E0,2.751617432E-1,-9.404800415E0,4.799667358E0
2.183417125E0,3.134613037E-1,-9.431137085E0,4.818817139E0
2.185889049E0,3.397979736E-1,-9.397613525E0,4.818817139E0
2.188330456E0,3.038940430E-1,-9.344940186E0,4.799667358E0
2.190802379E0,3.206481934E-1,-9.361694336E0,4.780517578E0
2.193274303E0,3.397979736E-1,-9.313812256E0,4.770935059E0
2.195715709E0,3.445892334E-1,-9.340148926E0,4.723052979E0
2.198187633E0,3.852996826E-1,-9.318603516E0,4.706298828E0
2.200659557E0,3.278350830E-1,-9.275512695E0,4.723052979E0
2.203131481E0,3.637390137E-1,-9.258743286E0,4.634475708E0
2.205572887E0,4.020538330E-1,-9.292266846E0,4.538696289E0
2.208044811E0,3.829040527E-1,-9.218048096E0,4.517150879E0
2.210486217E0,3.805084229E-1,-9.208465576E0,4.560241699E0
2.212958141E0,3.781127930E-1,-9.182128906E0,4.562637329E0
2.215430065E0,4.092407227E-1,-9.174957275E0,4.505187988E0
2.217901989E0,4.044494629E-1,-9.146224976E0,4.474060059E0
2.220343395E0,3.326263428E-1,-9.115097046E0,4.507583618E0
2.222815319E0,3.948669434E-1,-9.112701416E0,4.541091919E0
2.225287243E0,4.116363525E-1,-9.043273926E0,4.498001099E0
2.227728649E0,3.996582031E-1,-9.083969116E0,4.483627319E0
2.230200573E0,4.020538330E-1,-9.064819336E0,4.603347778E0
2.232672497E0,4.906311035E-1,-9.074401855E0,4.696716309E0
2.235113903E0,5.193634033E-1,-9.012145996E0,4.730239868E0
2.237585827E0,5.026092529E-1,-9.014541626E0,4.746994019E0
2.240057750E0,5.241546631E-1,-8.995391846E0,4.799667358E0
2.242529674E0,5.696411133E-1,-8.952285767E0,4.837982178E0
2.244971081E0,5.648651123E-1,-8.942718506E0,4.826004028E0
2.247443004E0,5.241546631E-1,-8.952285767E0,4.852340698E0
2.249914928E0,4.978179932E-1,-8.978622437E0,4.900222778E0
2.252356334E0,4.786682129E-1,-8.961868286E0,4.945709229E0
2.254828258E0,4.786682129E-1,-8.913986206E0,4.948104858E0
2.257269665E0,3.565673828E-1,-8.961868286E0,4.943328857E0
2.259741588E0,2.943115234E-1,-8.937927246E0,4.902618408E0
2.262213512E0,2.272796631E-1,-8.940322876E0,4.907409668E0
2.264685436E0,1.386871338E-1,-8.969055176E0,4.912200928E0
2.267126842E0,6.207275391E-2,-9.000167847E0,4.888259888E0
2.269598766E0,-4.327392578E-2,-9.014541626E0,4.837982178E0
2.272070690E0,-1.797332764E-1,-9.050445557E0,4.833190918E0
2.274512096E0,-2.826843262E-1,-9.100738525E0,4.737426758E0
2.276984020E0,-4.119720459E-1,-9.110305786E0,4.675170898E0
2.279455944E0,-5.388641357E-1,-9.117492676E0,4.663192749E0
2.281927868E0,-6.059112549E-1,-9.179733276E0,4.627288818E0
2.284369274E0,-6.825256348E-1,-9.182128906E0,4.565032959E0
2.286841198E0,-8.237762451E-1,-9.191711426E0,4.634475708E0
2.289313122E0,-9.363098145E-1,-9.215652466E0,4.610534668E0
2.291754528E0,-9.722137451E-1,-9.222839355E0,4.550674438E0
2.294226452E0,-1.032073975E0,-9.241989136E0,4.629684448E0
2.296698375E0,-1.041656494E0,-9.182128906E0,4.624893188E0
2.299139782E0,-1.067993164E0,-9.158187866E0,4.591369629E0
2.301611706E0,-1.154174805E0,-9.160583496E0,4.577011108E0
2.304083629E0,-1.175720215E0,-9.158187866E0,4.663192749E0
2.306525036E0,-1.166152954E0,-9.134246826E0,4.706298828E0
2.308996959E0,-1.125442505E0,-9.088760376E0,4.768539429E0
2.311468883E0,-1.108688354E0,-9.067214966E0,4.806854248E0
2.313910290E0,-1.065597534E0,-8.995391846E0,4.857131958E0
2.316382213E0,-1.044052124E0,-8.978622437E0,4.979232788E0
2.318854137E0,-1.036865234E0,-8.923553467E0,4.995986938E0
2.321326061E0,-9.578552246E-1,-8.880462646E0,5.029510498E0
2.323767467E0,-9.003906250E-1,-8.906799316E0,5.158798218E0
2.326239391E0,-8.405456543E-1,-8.880462646E0,5.189926147E0
2.328711315E0,-7.902526855E-1,-8.878067017E0,5.173171997E0
2.331152721E0,-7.974395752E-1,-8.899612427E0,5.199508667E0
2.333624645E0,-7.375946045E-1,-8.911590576E0,5.256958008E0
2.336096569E0,-7.304077148E-1,-8.942718506E0,5.292877197E0
2.338568493E0,-7.016754150E-1,-8.983413696E0,5.328781128E0
2.341009899E0,-6.705474854E-1,-9.009750366E0,5.290481567E0
2.343481823E0,-7.591400146E-1,-9.052841187E0,5.326400757E0
2.345953747E0,-8.285675049E-1,-9.122283936E0,5.324005127E0
2.348395153E0,-8.501129150E-1,-9.117492676E0,5.297668457E0
2.350867077E0,-8.884277344E-1,-9.110305786E0,5.276123047E0
2.353339000E0,-9.626464844E-1,-9.131851196E0,5.321609497E0
2.355780407E0,-1.072769165E0,-9.115097046E0,5.285690308E0
2.358252331E0,-1.149383545E0,-9.165374756E0,5.312026978E0
2.360724254E0,-1.166152954E0,-9.179733276E0,5.292877197E0
2.363165661E0,-1.185302734E0,-9.213256836E0,5.256958008E0
2.365637584E0,-1.305007935E0,-9.282684326E0,5.338363647E0
2.368109508E0,-1.362472534E0,-9.318603516E0,5.254562378E0
2.370550915E0,-1.388809204E0,-9.325790405E0,5.216262817E0
2.373022838E0,-1.436691284E0,-9.361694336E0,5.264144897E0
2.375494762E0,-1.465423584E0,-9.352127075E0,5.271331787E0
2.377936168E0,-1.494155884E0,-9.311416626E0,5.340759277E0
2.380408092E0,-1.556411743E0,-9.270721436E0,5.359909058E0
2.382880016E0,-1.613861084E0,-9.261138916E0,5.419769287E0
2.385351940E0,-1.637802124E0,-9.263534546E0,5.453292847E0
2.387793346E0,-1.702453613E0,-9.232406616E0,5.520324707E0
2.390265270E0,-1.783859253E0,-9.189315796E0,5.596939087E0
2.392737194E0,-1.762298584E0,-9.117492676E0,5.625671387E0
2.395178600E0,-1.826950073E0,-9.079177856E0,5.642425537E0
2.397650524E0,-1.860473633E0,-9.052841187E0,5.640029907E0
2.400122448E0,-1.817367554E0,-8.981018066E0,5.611297607E0
2.402563854E0,-1.824554443E0,-8.916381836E0,5.613693237E0
2.405035778E0,-1.812591553E0,-8.925949097E0,5.596939087E0
2.407507702E0,-1.769485474E0,-8.894836426E0,5.563415527E0
2.409949108E0,-1.745544434E0,-8.827789307E0,5.505966187E0
2.412421032E0,-1.721603394E0,-8.902008057E0,5.541870117E0
2.414892956E0,-1.633026123E0,-8.875671387E0,5.501174927E0
2.417364879E0,-1.640197754E0,-8.878067017E0,5.513137817E0
2.419806286E0,-1.652175903E0,-8.916381836E0,5.498779297E0
2.422278209E0,-1.580352783E0,-8.885253906E0,5.470046997E0
2.424719616E0,-1.510910034E0,-8.882858276E0,5.426956177E0
2.427191540E0,-1.546829224E0,-8.902008057E0,5.434127808E0
2.429663463E0,-1.582748413E0,-8.870880127E0,5.482009888E0
2.432135387E0,-1.582748413E0,-8.811035156E0,5.381454468E0
2.434576793E0,-1.589920044E0,-8.811035156E0,5.347946167E0
2.437048717E0,-1.642593384E0,-8.808639526E0,5.453292847E0
2.439520641E0,-1.652175903E0,-8.767944336E0,5.565811157E0
2.441962047E0,-1.704849243E0,-8.784698486E0,5.630462646E0
2.444433971E0,-1.791030884E0,-8.746383667E0,5.692703247E0
2.446905895E0,-1.838912964E0,-8.660202026E0,5.726226807E0
2.449377819E0,-1.858078003E0,-8.574005127E0,5.553848267E0
2.451819225E0,-1.858078003E0,-8.454299927E0,5.369491577E0
2.454291149E0,-1.877227783E0,-8.408813477E0,5.221054077E0
2.456763073E0,-1.870040894E0,-8.418380737E0,5.036697388E0
2.459204479E0,-1.824554443E0,-8.384857178E0,4.888259888E0
2.461676403E0,-1.831741333E0,-8.485427856E0,4.818817139E0
2.464148327E0,-1.764694214E0,-8.535705566E0,4.792480469E0
2.466589733E0,-1.740753174E0,-8.605133057E0,4.816421509E0
2.469061657E0,-1.697662354E0,-8.691329956E0,4.866714478E0
2.471533581E0,-1.640197754E0,-8.796661377E0,4.940933228E0
2.473974987E0,-1.659362793E0,-8.904403687E0,5.091766357E0
2.476446911E0,-1.683303833E0,-8.909194946E0,5.280899048E0
2.478918834E0,-1.767089844E0,-8.923553467E0,5.383850098E0
2.481360241E0,-1.848495483E0,-8.866104126E0,5.532287598E0
2.483832165E0,-1.903564453E0,-8.834976196E0,5.707077026E0
2.486304088E0,-1.989761353E0,-8.827789307E0,5.826782227E0
2.488776012E0,-2.071151733E0,-8.799057007E0,5.912979126E0
2.491217418E0,-2.123825073E0,-8.806243896E0,6.080566406E0
2.493689342E0,-2.178894043E0,-8.806243896E0,6.157180786E0
2.496161266E0,-2.207626343E0,-8.787094116E0,6.274490356E0
2.498602672E0,-2.193267822E0,-8.789489746E0,6.401397705E0
2.501074596E0,-2.128616333E0,-8.777511597E0,6.533065796E0
2.503546520E0,-2.099884033E0,-8.772720337E0,6.595321655E0
2.505987926E0,-2.059188843E0,-8.770324707E0,6.662353516E0
2.508459850E0,-2.075942993E0,-8.806243896E0,6.755737305E0
2.510931774E0,-2.080734253E0,-8.808639526E0,6.856292725E0
2.513373180E0,-2.068771362E0,-8.820602417E0,6.999938965E0
2.515845104E0,-2.190872192E0,-8.890045166E0,7.201049805E0
2.518317028E0,-2.363250732E0,-8.959472656E0,7.627227783E0
2.520788952E0,-2.451843262E0,-9.014541626E0,8.017471313E0
2.523230358E0,-2.463806152E0,-8.983413696E0,8.127609253E0
2.525702282E0,-2.427886963E0,-8.832580566E0,8.144363403E0
2.528174206E0,-2.425506592E0,-8.624282837E0,8.091690063E0
2.530615612E0,-2.413528442E0,-8.518936157E0,8.211410522E0
2.533087536E0,-2.274658203E0,-8.346557617E0,8.333511353E0
2.535559459E0,-2.183685303E0,-8.255584717E0,8.474761963E0
2.538000866E0,-2.047210693E0,-8.210083008E0,8.575332642E0
2.540472790E0,-1.989761353E0,-8.178970337E0,8.517868042E0
2.542944713E0,-1.915542603E0,-8.176574707E0,8.393371582E0
2.545386120E0,-1.829345703E0,-8.198120117E0,8.304779053E0
2.547858043E0,-1.807800293E0,-8.231628418E0,8.173095703E0
2.550329967E0,-1.738357544E0,-8.353744507E0,8.158737183E0
2.552801891E0,-1.680908203E0,-8.509368896E0,8.048599243E0
2.555243297E0,-1.621047974E0,-8.569213867E0,7.988739014E0
2.557715221E0,-1.506134033E0,-8.590759277E0,7.811569214E0
2.560187145E0,-1.424728394E0,-8.547668457E0,7.483566284E0
2.562628551E0,-1.395996094E0,-8.552459717E0,7.292037964E0
2.565100475E0,-1.405563354E0,-8.540481567E0,7.114868164E0
2.567572399E0,-1.482177734E0,-8.571609497E0,6.937698364E0
2.570013805E0,-1.568374634E0,-8.629074097E0,6.940078735E0
2.572485729E0,-1.685684204E0,-8.617095947E0,6.844314575E0
2.574957653E0,-1.870040894E0,-8.578796387E0,6.671936035E0
2.577399059E0,-2.006515503E0,-8.511764526E0,6.585739136E0
2.579870983E0,-2.116653442E0,-8.325012207E0,6.595321655E0
2.582342907E0,-2.231567383E0,-8.174179077E0,6.633621216E0
2.584814831E0,-2.305786133E0,-8.068832397E0,6.631240845E0
2.587256237E0,-2.451843262E0,-7.915603638E0,6.750946045E0
2.589728161E0,-2.518875122E0,-7.762374878E0,6.925720215E0
2.592200084E0,-2.585906982E0,-7.702514648E0,7.033462524E0
2.594641491E0,-2.504501343E0,-7.630691528E0,7.148376465E0
2.597113415E0,-2.444656372E0,-7.580413818E0,7.272872925E0
2.599585338E0,-2.370437622E0,-7.522949219E0,7.327941895E0
2.602026745E0,-2.202835083E0,-7.506195068E0,7.342315674E0
2.604498668E0,-2.090316772E0,-7.494216919E0,7.378219604E0
2.606970592E0,-1.956237793E0,-7.501403809E0,7.402160645E0
2.609411999E0,-1.896377563E0,-7.525344849E0,7.512298584E0
2.611883922E0,-1.829345703E0,-7.551681519E0,7.660736084E0
2.614355846E0,-1.666534424E0,-7.520553589E0,7.766082764E0
2.616827770E0,-1.527679443E0,-7.446334839E0,7.888183594E0
2.619269176E0,-1.395996094E0,-7.388870239E0,7.928894043E0
2.621741100E0,-1.168548584E0,-7.214096069E0,7.976776123E0
2.624213024E0,-1.010528564E0,-7.058471680E0,7.962402344E0
2.626654430E0,-8.955993652E-1,-6.926788330E0,7.943252563E0
2.629126354E0,-7.591400146E-1,-6.845397949E0,8.015075684E0
2.631598278E0,-6.370239258E-1,-6.763992310E0,8.012695312E0
2.634039684E0,-5.628051758E-1,-6.716110229E0,7.907348633E0
2.636511608E0,-4.742279053E-1,-6.656250000E0,7.869033813E0
2.638983532E0,-4.071807861E-1,-6.625122070E0,7.754119873E0
2.641424938E0,-3.305664062E-1,-6.656250000E0,7.615249634E0
2.643896862E0,-2.491760254E-1,-6.627517700E0,7.435684204E0
2.646368786E0,-2.659301758E-1,-6.603576660E0,7.126831055E0
2.648840709E0,-2.826843262E-1,-6.591613770E0,6.851501465E0
2.651282116E0,-2.635345459E-1,-6.598785400E0,6.547439575E0
2.653754040E0,-3.329620361E-1,-6.603576660E0,6.305618286E0
2.656225963E0,-3.305664062E-1,-6.670623779E0,5.848327637E0
2.658667370E0,-3.377532959E-1,-6.653854370E0,5.379058838E0
2.661139293E0,-3.449401855E-1,-6.625122070E0,4.663192749E0
2.663611217E0,-3.162078857E-1,-6.673004150E0,3.789321899E0
2.666052624E0,-2.395935059E-1,-6.747238159E0,2.486877441E0
2.668524547E0,-7.917785645E-2,-6.929183960E0,6.936187744E-1
2.670996471E0,1.554565430E-1,-7.252410889E0,-1.501876831E0
2.673437877E0,9.192047119E-1,-8.119110107E0,-6.388427734E0
2.675909801E0,2.793853760E0,-9.680130005E0,-1.456703186E1
2.678381725E0,2.971023560E0,-1.036247253E1,-1.943443298E1
2.680823131E0,-3.736724854E-1,-9.479019165E0,-1.764356995E1
2.683295055E0,-4.656890869E0,-8.600341797E0,-1.198368835E1
2.685766979E0,-6.605773926E0,-8.277130127E0,-6.079589844E0
2.688238903E0,-6.545913696E0,-8.001785278E0,-1.365402222E0
2.690680309E0,-5.640914917E0,-7.700119019E0,2.450958252E0
2.693152233E0,-4.364807129E0,-7.771942139E0,5.410186768E0
2.695593639E0,-3.155731201E0,-8.157409668E0,7.586517334E0
2.698065563E0,-2.248321533E0,-8.825393677E0,8.915298462E0
2.700537487E0,-1.424728394E0,-9.826171875E0,9.619201660E0
2.703009411E0,-7.734985352E-1,-1.069766235E1,9.640747070E0
2.705481334E0,-5.077514648E-1,-1.121481323E1,9.295974731E0
2.707922741E0,-7.256164551E-1,-1.132733154E1,8.671096802E0
2.710394665E0,-1.314590454E0,-1.102087402E1,7.864242554E0
2.712836071E0,-1.795822144E0,-1.048936462E1,6.954452515E0
2.715307995E0,-2.016098022E0,-1.002249146E1,6.075775146E0
2.717779918E0,-2.183685303E0,-9.632247925E0,5.601730347E0
2.720251842E0,-2.382400513E0,-9.268325806E0,5.316818237E0
2.722693249E0,-2.396774292E0,-9.007354736E0,5.082183838E0
2.725165172E0,-2.236358643E0,-8.906799316E0,4.780517578E0
2.727637096E0,-2.044815063E0,-8.890045166E0,4.593765259E0
2.730078502E0,-1.913146973E0,-8.887649536E0,4.519546509E0
2.732550426E0,-1.740753174E0,-8.832580566E0,4.608139038E0
2.735022350E0,-1.585128784E0,-8.748779297E0,4.723052979E0
2.737463756E0,-1.537246704E0,-8.681747437E0,4.893035889E0
2.739935680E0,-1.439086914E0,-8.753570557E0,5.244995117E0
2.742407604E0,-1.489364624E0,-8.753570557E0,5.553848267E0
2.744849010E0,-1.700057983E0,-9.021728516E0,6.214645386E0
2.747320934E0,-1.735977173E0,-9.119888306E0,6.516311646E0
2.749792858E0,-1.398391724E0,-9.182128906E0,6.214645386E0
2.752264782E0,-1.348114014E0,-9.306625366E0,6.085357666E0
2.754706188E0,-1.290649414E0,-9.423950195E0,6.032684326E0
2.757178112E0,-1.290649414E0,-9.502960205E0,6.018310547E0
2.759619518E0,-1.297836304E0,-9.586761475E0,5.980010986E0
2.762091442E0,-1.319381714E0,-9.617874146E0,5.917755127E0
2.764563366E0,-1.448669434E0,-9.656188965E0,5.929733276E0
2.767035290E0,-1.503738403E0,-9.675338745E0,6.171554565E0
2.769476696E0,-1.671325684E0,-9.615478516E0,6.513916016E0
2.771948620E0,-1.903564453E0,-9.605911255E0,6.987976074E0
2.774420543E0,-2.056793213E0,-9.625061035E0,7.488357544E0
2.776861950E0,-2.052001953E0,-9.598724365E0,8.170700073E0
2.779333874E0,-1.767089844E0,-9.356903076E0,8.402938843E0
2.781805797E0,-1.678512573E0,-9.352127075E0,8.362243652E0
2.784277721E0,-1.743148804E0,-9.519714355E0,8.752502441E0
2.786719127E0,-1.853286743E0,-9.498168945E0,9.516250610E0
2.789191051E0,-1.865249634E0,-9.261138916E0,1.000706482E1
2.791662975E0,-1.769485474E0,-9.210861206E0,1.039730835E1
2.794104381E0,-1.621047974E0,-9.320999146E0,1.104853821E1
2.796576305E0,-1.731185913E0,-9.069610596E0,1.116105652E1
2.799048229E0,-1.925109863E0,-8.985809326E0,1.127359009E1
2.801520153E0,-2.013702393E0,-8.693710327E0,1.090966797E1
2.803961559E0,-2.063980103E0,-8.593154907E0,1.036619568E1
2.806433483E0,-2.145385742E0,-8.624282837E0,1.002621460E1
2.808874889E0,-2.154953003E0,-8.439926147E0,9.518646240E0
2.811346813E0,-2.255508423E0,-8.269943237E0,8.881790161E0
2.813818737E0,-2.214813232E0,-8.123901367E0,8.434066772E0
2.816290661E0,-2.154953003E0,-7.939544678E0,7.809173584E0
2.818732067E0,-2.245941162E0,-7.609146118E0,6.870651245E0
2.821203991E0,-2.396774292E0,-7.345779419E0,6.123657227E0
2.823675915E0,-2.339309692E0,-7.171005249E0,5.094161987E0
2.826117321E0,-2.236358643E0,-7.056076050E0,4.258575439E0
2.828589245E0,-1.956237793E0,-6.965103149E0,3.607360840E0
2.831061168E0,-1.807800293E0,-6.912429810E0,3.320053101E0
2.833502575E0,-1.678512573E0,-6.785537720E0,3.097396851E0
2.835974499E0,-1.427124023E0,-6.804687500E0,3.461303711E0
2.838446422E0,-1.403182983E0,-6.634704590E0,3.353576660E0
2.840887829E0,-1.348114014E0,-6.450347900E0,3.291320801E0
2.843359752E0,-1.290649414E0,-6.340209961E0,3.322448730E0
2.845831676E0,-1.178115845E0,-6.306701660E0,3.408645630E0
2.848303600E0,-1.067993164E0,-6.407257080E0,3.947326660E0
2.850745006E0,-1.333740234E0,-6.244445801E0,3.691146851E0
2.853216930E0,-1.087142944E0,-6.452743530E0,4.220275879E0
2.855688854E0,-1.058410645E0,-6.591613770E0,4.727844238E0
2.858130260E0,-1.297836304E0,-6.450347900E0,4.600952148E0
2.860602184E0,-1.137420654E0,-6.577239990E0,5.106124878E0
2.863074108E0,-1.024887085E0,-6.761596680E0,5.936920166E0
2.865515514E0,-1.333740234E0,-6.749618530E0,6.059020996E0
2.867987438E0,-1.544433594E0,-6.680191040E0,6.238586426E0
2.870459362E0,-1.709640503E0,-6.625122070E0,6.351104736E0
2.872900768E0,-1.774276733E0,-6.634704590E0,6.590530396E0
2.875372692E0,-2.035247803E0,-6.536544800E0,6.379837036E0
2.877844616E0,-2.047210693E0,-6.622726440E0,6.461242676E0
2.880286022E0,-2.344100952E0,-6.565277100E0,6.157180786E0
2.882757946E0,-2.499725342E0,-6.517395020E0,5.702285767E0
2.885229870E0,-2.382400513E0,-6.658645630E0,5.750167847E0
2.887701793E0,-2.348892212E0,-6.802291870E0,5.812423706E0
2.890143200E0,-2.633789062E0,-6.783142090E0,5.563415527E0
2.892615124E0,-2.712799072E0,-6.677795410E0,5.273727417E0
2.895087047E0,-2.664916992E0,-6.673004150E0,5.007965088E0
2.897528454E0,-2.545211792E0,-6.720901489E0,5.029510498E0
2.900000377E0,-2.442260742E0,-6.780746460E0,4.948104858E0
2.902472301E0,-2.621826172E0,-6.706527710E0,4.639251709E0
2.904913707E0,-2.593093872E0,-6.766387939E0,4.538696289E0
2.907385631E0,-2.609848022E0,-6.814270020E0,4.275344849E0
2.909857555E0,-2.899551392E0,-6.792724609E0,3.674392700E0
2.912298961E0,-3.213195801E0,-6.816665649E0,3.200347900E0
2.914770885E0,-3.203613281E0,-6.972290039E0,3.128509521E0
2.917242809E0,-3.256286621E0,-7.147064209E0,3.171615601E0
2.919714733E0,-3.282623291E0,-7.391265869E0,3.389480591E0
2.922156139E0,-3.270660400E0,-7.640274048E0,3.731857300E0
2.924628063E0,-3.330505371E0,-7.819839478E0,3.992828369E0
2.927099987E0,-3.610626221E0,-7.951507568E0,4.167602539E0
2.929541393E0,-3.929061890E0,-7.968276978E0,4.304077148E0
2.932013317E0,-4.161300659E0,-8.071228027E0,4.452514648E0
2.934485241E0,-4.431838989E0,-8.080795288E0,4.598556519E0
2.936926647E0,-4.529998779E0,-8.241210938E0,4.746994019E0
2.939398571E0,-4.520431519E0,-8.447113037E0,4.849945068E0
2.941870495E0,-4.290588379E0,-8.732025146E0,5.165985107E0
2.944311901E0,-4.024826050E0,-9.143829346E0,5.352737427E0
2.946783825E0,-3.936248779E0,-9.435913086E0,5.498779297E0
2.949255749E0,-3.893142700E0,-9.651397705E0,5.584960938E0
2.951727672E0,-3.862014771E0,-9.742370605E0,5.601730347E0
2.954169079E0,-3.780624390E0,-9.682525635E0,5.580184937E0
2.956641002E0,-3.725555420E0,-9.670547485E0,5.472442627E0
2.959112926E0,-3.675277710E0,-9.591537476E0,5.345550537E0
2.961554332E0,-3.605834961E0,-9.565200806E0,5.108520508E0
2.964026256E0,-3.545989990E0,-9.560424805E0,4.950500488E0
2.966498180E0,-3.536407471E0,-9.560424805E0,4.770935059E0
2.968939586E0,-3.522048950E0,-9.581970215E0,4.550674438E0
2.971411510E0,-3.586685181E0,-9.584365845E0,4.454910278E0
2.973883434E0,-3.890747070E0,-9.603515625E0,4.435745239E0
2.976324840E0,-4.625778198E0,-9.625061035E0,4.687149048E0
2.978796764E0,-5.202774048E0,-9.639419556E0,4.943328857E0
2.981268688E0,-5.554718018E0,-9.711257935E0,5.177947998E0
2.983710094E0,-5.724716187E0,-9.900390625E0,5.340759277E0
2.986182018E0,-5.988067627E0,-1.000813293E1,5.424560547E0
2.988653942E0,-6.177215576E0,-1.018051147E1,5.515533447E0
2.991095348E0,-6.198760986E0,-1.030262756E1,5.482009888E0
2.993567272E0,-6.174819946E0,-1.038162231E1,5.594543457E0
2.996039196E0,-6.124542236E0,-1.038641357E1,5.704681396E0
2.998511120E0,-5.791748047E0,-1.036486816E1,5.860305786E0
3.000952526E0,-5.494873047E0,-1.032177734E1,5.999160767E0
3.003424450E0,-5.193191528E0,-1.026431274E1,5.963256836E0
3.005896374E0,-4.819702148E0,-1.019248962E1,6.092544556E0
3.008337780E0,-4.467758179E0,-1.018530273E1,6.487579346E0
3.010809704E0,-4.199600220E0,-1.012066650E1,6.750946045E0
3.013281627E0,-3.936248779E0,-9.991378784E0,6.794036865E0
3.015723034E0,-4.022430420E0,-9.862091064E0,7.126831055E0
3.018194957E0,-3.984130859E0,-9.718429565E0,7.612854004E0
3.020666881E0,-3.426269531E0,-9.613082886E0,7.476379395E0
3.023138805E0,-3.210800171E0,-9.510147095E0,7.284851074E0
3.025580211E0,-3.251495361E0,-9.234802246E0,7.845092773E0
3.028052135E0,-3.122207642E0,-9.019332886E0,8.225769043E0
3.030524059E0,-3.165313721E0,-8.815826416E0,8.783615112E0
3.032965465E0,-3.565139771E0,-8.480636597E0,9.647933960E0
3.035437389E0,-3.644149780E0,-8.389648438E0,9.683837891E0
3.037909313E0,-3.282623291E0,-8.404022217E0,8.812347412E0
3.040350719E0,-3.452606201E0,-8.363311768E0,8.860229492E0
3.042822643E0,-3.907516479E0,-8.109527588E0,9.370193481E0
3.045294567E0,-4.644927979E0,-7.513381958E0,1.131428528E1
3.047766491E0,-5.803710938E0,-6.316268921E0,1.604045105E1
3.050207897E0,-5.918640137E0,-5.224517822E0,1.736204529E1
3.052679821E0,-4.544372559E0,-5.377746582E0,1.559512329E1
3.055151745E0,-2.856460571E0,-6.184600830E0,1.277714539E1
3.057593151E0,-1.199661255E0,-7.075241089E0,9.702987671E0
3.060065075E0,1.410827637E-1,-7.640274048E0,6.418151855E0
3.062536999E0,1.388458252E0,-7.680969238E0,3.205123901E0
3.064978405E0,3.028488159E0,-7.178192139E0,1.493270874E0
3.067450329E0,4.299819946E0,-6.222900391E0,-2.137908936E-1
3.069891735E0,4.737945557E0,-5.035369873E0,-1.504257202E0
3.072363659E0,3.416351318E0,-4.142333984E0,-2.002258301E0
3.074835582E0,1.728439331E0,-3.500686646E0,-1.401306152E0
3.077307506E0,1.841735840E-1,-3.115234375E0,-4.268798828E-1
3.079748913E0,-5.747833252E-1,-3.088897705E0,5.499572754E-1
3.082220836E0,-1.629791260E-1,-3.196624756E0,1.244277954E0
3.084692760E0,4.666900635E-1,-3.515060425E0,1.840438843E0
3.087164684E0,1.029327393E0,-3.895736694E0,2.563491821E0
3.089606090E0,1.149047852E0,-4.283599854E0,3.451736450E0
3.092078014E0,1.249603271E0,-4.647521973E0,4.579406738E0
3.094549938E0,1.479446411E0,-4.865386963E0,5.666366577E0
3.096991344E0,1.441131592E0,-5.207763672E0,6.643203735E0
3.099463268E0,8.449859619E-1,-5.516616821E0,7.335128784E0
3.101935192E0,5.648651123E-1,-5.688995361E0,7.727783203E0
3.104376598E0,4.427490234E-1,-5.720123291E0,7.976776123E0
3.106848522E0,4.283905029E-1,-5.705749512E0,7.919311523E0
3.109320446E0,3.206481934E-1,-5.559707642E0,7.885787964E0
3.111761852E0,3.062896729E-1,-5.514221191E0,7.711013794E0
3.114233776E0,3.757171631E-1,-5.600402832E0,7.344711304E0
3.116705700E0,5.864105225E-1,-5.700958252E0,6.794036865E0
3.119177624E0,4.642944336E-1,-5.605194092E0,6.262527466E0
3.121619030E0,3.421936035E-1,-5.463943481E0,5.680740356E0
3.124090954E0,2.943115234E-1,-5.423233032E0,5.216262817E0
3.126562877E0,3.852996826E-1,-5.545349121E0,4.790100098E0
3.129004284E0,3.589630127E-1,-5.710540771E0,4.323226929E0
3.131476207E0,8.840942383E-2,-5.796737671E0,3.691146851E0
3.133917614E0,-2.650451660E-2,-5.966720581E0,3.130905151E0
3.136389538E0,-1.270599365E-1,-6.112762451E0,2.855575562E0
3.138861461E0,-3.449401855E-1,-6.249237061E0,2.860366821E0
3.141333385E0,-3.904266357E-1,-6.445556641E0,3.054290771E0
3.143774791E0,-3.760681152E-1,-6.941162109E0,3.250625610E0
3.146246715E0,-5.077514648E-1,-7.242828369E0,3.140487671E0
3.148718639E0,-8.501129150E-1,-7.300292969E0,2.927398682E0
3.151190563E0,-1.053619385E0,-7.281143188E0,2.901062012E0
3.153631969E0,-9.865875244E-1,-7.515762329E0,3.121337891E0
3.156103893E0,-1.005737305E0,-7.724060059E0,3.188369751E0
3.158575817E0,-1.202056885E0,-7.659423828E0,3.025558472E0
3.161017223E0,-1.257125854E0,-7.692947388E0,3.169219971E0
3.163489147E0,-1.120666504E0,-7.937149048E0,3.394271851E0
3.165930553E0,-1.225997925E0,-7.951507568E0,3.387084961E0
3.168402477E0,-1.369659424E0,-7.829406738E0,3.279357910E0
3.170874401E0,-1.379226685E0,-7.906021118E0,3.387084961E0
3.173346325E0,-1.357681274E0,-7.929962158E0,3.432586670E0
3.175787731E0,-1.537246704E0,-7.668991089E0,3.370330811E0
3.178259655E0,-1.422332764E0,-7.654632568E0,3.660034180E0
3.180731579E0,-1.173339844E0,-7.798278809E0,3.767761230E0
3.183172985E0,-1.312194824E0,-7.764770508E0,3.652847290E0
3.185644909E0,-1.218826294E0,-8.080795288E0,3.676788330E0
3.188116832E0,-1.147003174E0,-8.396835327E0,3.679183960E0
3.190588756E0,-1.214035034E0,-8.521331787E0,3.542709351E0
3.193030163E0,-1.170944214E0,-8.727233887E0,3.473281860E0
3.195502086E0,-1.084747314E0,-8.839767456E0,3.451736450E0
3.197943493E0,-1.022491455E0,-8.966659546E0,3.679183960E0
3.200415416E0,-1.063201904E0,-9.139038086E0,4.277740479E0
3.202887340E0,-1.072769165E0,-9.459854126E0,5.398223877E0
3.205359264E0,-1.604293823E0,-9.850112915E0,6.901779175E0
3.207800670E0,-1.305007935E0,-1.150212097E1,7.342315674E0
3.210272594E0,-9.291229248E-1,-1.278062439E1,6.837127686E0
3.212744518E0,-9.171600342E-1,-1.331692505E1,6.161972046E0
3.215185924E0,-1.228393555E0,-1.312777710E1,5.391036987E0
3.217657848E0,-1.791030884E0,-1.255078125E1,4.756576538E0
3.220129772E0,-2.447052002E0,-1.184927368E1,4.203506470E0
3.222601696E0,-2.995315552E0,-1.114059448E1,3.930572510E0
3.225043102E0,-3.325714111E0,-1.054922485E1,4.014373779E0
3.227515026E0,-3.306564331E0,-1.047740173E1,4.359130859E0
3.229986950E0,-2.789413452E0,-1.070245361E1,4.581802368E0
3.232428356E0,-1.965820312E0,-1.130578613E1,5.022323608E0
3.234900280E0,-1.180511475E0,-1.204559326E1,5.357513428E0
3.237372204E0,-6.178741455E-1,-1.229699707E1,5.352737427E0
3.239813610E0,-5.939331055E-1,-1.209109497E1,5.350341797E0
3.242285534E0,-2.156524658E-1,-1.220840454E1,5.606521606E0
3.244757457E0,5.488586426E-2,-1.249571228E1,5.671157837E0
3.247198864E0,2.655792236E-1,-1.255555725E1,5.580184937E0
3.249670788E0,1.602325439E-1,-1.236642456E1,5.663970947E0
3.252142711E0,1.147460938E-1,-1.218685913E1,5.819595337E0
3.254614635E0,1.362915039E-1,-1.220361328E1,5.972824097E0
3.257056041E0,-2.324066162E-1,-1.219882202E1,5.795654297E0
3.259527965E0,-8.046264648E-1,-1.200250244E1,5.635238647E0
3.261969372E0,-7.830810547E-1,-1.168168640E1,5.529907227E0
3.264441295E0,-4.885864258E-1,-1.128184509E1,5.350341797E0
3.266913219E0,-3.281860352E-1,-1.084849548E1,5.213867188E0
3.269385143E0,-7.678222656E-2,-1.040795898E1,5.314422607E0
3.271826549E0,5.026092529E-1,-1.010629272E1,5.307235718E0
3.274298473E0,1.223266602E0,-1.001052856E1,4.988815308E0
3.276770397E0,1.606338501E0,-1.001292419E1,4.950500488E0
3.279211803E0,1.733230591E0,-9.953063965E0,5.072601318E0
3.281683727E0,2.324600220E0,-1.002011108E1,5.118103027E0
3.284155651E0,2.760345459E0,-9.931518555E0,5.328781128E0
3.286597057E0,3.006942749E0,-9.744766235E0,5.386245728E0
3.289068981E0,3.172149658E0,-9.526901245E0,5.407791138E0
3.291540905E0,3.401992798E0,-9.565200806E0,5.498779297E0
3.294012829E0,3.399597168E0,-9.749557495E0,5.450897217E0
3.296454235E0,3.179321289E0,-9.850112915E0,5.376678467E0
3.298926159E0,2.834564209E0,-9.979400635E0,5.264144897E0
3.301398082E0,2.427551270E0,-1.014939880E1,5.156402588E0
3.303839489E0,1.766754150E0,-1.010150146E1,4.981628418E0
3.306311413E0,1.345367432E0,-1.013023376E1,4.902618408E0
3.308783336E0,9.838409424E-1,-1.020445251E1,4.821212769E0
3.311224743E0,6.869659424E-1,-1.017572021E1,4.826004028E0
3.313696666E0,4.523315430E-1,-1.018769836E1,4.735031128E0
3.316168590E0,3.326263428E-1,-1.009910583E1,4.739807129E0
3.318609997E0,3.757171631E-1,-1.004644775E1,4.881072998E0
3.321081920E0,4.499359131E-1,-9.912368774E0,4.960083008E0
3.323553844E0,4.164123535E-1,-9.601119995E0,4.950500488E0
3.326025768E0,2.248840332E-1,-9.359298706E0,4.955291748E0
3.328467174E0,1.338958740E-1,-9.251571655E0,5.010360718E0
3.330939098E0,1.027832031E-1,-9.330581665E0,5.086975098E0
3.333411022E0,1.937561035E-1,-9.428741455E0,5.156402588E0
3.335852428E0,3.014984131E-1,-9.553237915E0,5.122879028E0
3.338324352E0,2.536163330E-1,-9.660980225E0,5.067825317E0
3.340796276E0,2.296752930E-1,-9.799835205E0,4.960083008E0
3.343237682E0,2.392425537E-1,-1.004644775E1,5.039093018E0
3.345709606E0,2.943115234E-1,-1.035768127E1,4.792480469E0
3.348181530E0,3.086853027E-1,-1.043669128E1,4.505187988E0
3.350653454E0,8.122253418E-2,-1.031219482E1,4.141265869E0
3.353094860E0,-3.592987061E-1,-1.012544250E1,3.983245850E0
3.355566784E0,-8.333587646E-1,-9.974609375E0,4.263366699E0
3.358038707E0,-1.123046875E0,-9.888427734E0,4.617706299E0
3.360480114E0,-1.309799194E0,-9.907577515E0,4.787704468E0
3.362952038E0,-1.331344604E0,-9.909973145E0,4.957687378E0
3.365423961E0,-1.271499634E0,-9.986587524E0,5.201889038E0
3.367865368E0,-1.077560425E0,-1.007278442E1,5.197113037E0
3.370337291E0,-9.506683350E-1,-1.010389709E1,5.173171997E0
3.372809215E0,-7.711029053E-1,-1.017572021E1,5.362304688E0
3.375250622E0,-6.370239258E-1,-1.027629089E1,5.434127808E0
3.377722545E0,-6.130828857E-1,-1.032894897E1,5.314422607E0
3.380194469E0,-6.490020752E-1,-1.033613586E1,5.256958008E0
3.382666393E0,-6.657562256E-1,-1.026191711E1,5.252166748E0
3.385107799E0,-7.088623047E-1,-1.017094421E1,5.175552368E0
3.387579723E0,-7.663116455E-1,-1.005122375E1,5.132461548E0
3.390051647E0,-8.165893555E-1,-9.953063965E0,5.125274658E0
3.392493053E0,-7.902526855E-1,-9.840545654E0,5.027114868E0
3.394964977E0,-6.466064453E-1,-9.677734375E0,4.672775269E0
3.397436901E0,-4.598541260E-1,-9.569992065E0,4.418991089E0
3.399878307E0,-3.281860352E-1,-9.534088135E0,4.442932129E0
3.402350231E0,-9.355163574E-2,-9.555633545E0,4.332794189E0
3.404822155E0,1.841735840E-1,-9.593933105E0,3.990432739E0
3.407263561E0,4.403533936E-1,-9.598724365E0,3.612152100E0
3.409735485E0,7.492065430E-1,-9.572387695E0,3.109359741E0
3.412207409E0,9.958190918E-1,-9.593933105E0,3.051895142E0
3.414648815E0,1.407623291E0,-9.517318726E0,2.676010132E0
3.417120739E0,1.917587280E0,-9.421554565E0,1.794952393E0
3.419592663E0,2.331771851E0,-9.400009155E0,1.316101074E0
3.422064586E0,3.143417358E0,-9.311416626E0,4.925079346E-1
3.424505993E0,4.055603027E0,-9.230010986E0,-1.371765137E-1
3.426977916E0,4.831329346E0,-9.206069946E0,-3.502655029E-1
3.429419323E0,6.291793823E0,-9.222839355E0,-1.334274292E0
3.431891247E0,7.601409912E0,-9.038482666E0,-2.411666870E0
3.434363170E0,8.525573730E0,-8.684143066E0,-2.701370239E0
3.436835094E0,1.132440186E1,-8.363311768E0,-3.577636719E0
3.439276500E0,1.459008789E1,-7.834197998E0,-4.219284058E0
3.441748424E0,1.857882690E1,-6.778350830E0,-4.468292236E0
3.444220348E0,2.265855408E1,-4.807922363E0,-5.507369995E0
3.446661754E0,2.386763000E1,-2.016281128E0,-6.328582764E0
3.449133678E0,2.163143921E1,-2.230377197E-1,-6.670944214E0
3.451605602E0,1.760438538E1,-1.607818604E-1,-6.287872314E0
3.454047008E0,1.299555969E1,-1.195083618E0,-4.801086426E0
3.456518932E0,8.712326050E0,-2.526260376E0,-2.919235229E0
3.458990856E0,6.200805664E0,-3.953201294E0,-2.126754761E0
3.461432262E0,6.224746704E0,-5.770401001E0,-3.422546387E-2
3.463904186E0,6.224746704E0,-7.810256958E0,6.659957886E0
3.466376110E0,3.545639038E0,-1.049655151E1,1.237492371E1
3.468848034E0,1.113128662E0,-1.294342041E1,1.449378967E1
3.471289440E0,-2.004119873E0,-1.411657715E1,1.653126526E1
3.473761364E0,-4.455780029E0,-1.394659424E1,1.802763367E1
3.476233288E0,-8.569015503E0,-1.270878601E1,1.893025208E1
3.478674694E0,-1.250747681E1,-1.110467529E1,1.937316895E1
3.481146618E0,-1.465029907E1,-9.751953125E0,1.894221497E1
3.483618541E0,-1.433186340E1,-9.490982056E0,1.822395325E1
3.486059948E0,-1.292646790E1,-1.031698608E1,1.814494324E1
3.488531872E0,-1.313476562E1,-1.140394592E1,1.802763367E1
3.491003795E0,-1.382669067E1,-1.204798889E1,1.643069458E1
3.493475719E0,-1.184428406E1,-1.233050537E1,1.458238220E1
3.495917125E0,-8.135665894E0,-1.280456543E1,1.235816956E1
3.498389049E0,-4.891525269E0,-1.356112671E1,9.078109741E0
3.500860973E0,-5.138137817E0,-1.509341431E1,5.719039917E0
3.503302379E0,-6.253829956E0,-1.569436646E1,3.209915161E0
3.505774303E0,-6.732666016E0,-1.571591187E1,1.531585693E0
3.508246227E0,-7.151657104E0,-1.566323853E1,6.576995850E-1
3.510687633E0,-8.147644043E0,-1.568238831E1,5.882720947E-1
3.513159557E0,-8.750976562E0,-1.597209167E1,4.350433350E-1
3.515631481E0,-8.609725952E0,-1.637910461E1,4.661712646E-1
3.518072887E0,-8.190734863E0,-1.668316650E1,7.151641846E-1
3.520544811E0,-7.453323364E0,-1.652754211E1,9.545745850E-1
3.523016735E0,-6.392684937E0,-1.596730042E1,1.057525635E0
3.525458141E0,-5.303329468E0,-1.523947144E1,1.232315063E0
3.527930065E0,-4.283401489E0,-1.439431763E1,1.323287964E0
3.530401989E0,-3.352050781E0,-1.353239441E1,1.632141113E0
3.532843395E0,-2.518875122E0,-1.271118164E1,2.072677612E0
3.535315319E0,-1.834136963E0,-1.188040161E1,2.522781372E0
3.537787243E0,-1.391204834E0,-1.101609802E1,2.766998291E0
3.540259166E0,-1.197280884E0,-1.026910400E1,2.972900391E0
3.542700573E0,-1.144607544E0,-9.565200806E0,3.231460571E0
3.545172497E0,-1.142211914E0,-8.911590576E0,3.425399780E0
3.547644420E0,-1.154174805E0,-8.339370728E0,3.705520630E0
3.550085827E0,-1.111083984E0,-7.850952148E0,3.755798340E0
3.552557750E0,-1.135025024E0,-7.518157959E0,3.760589600E0
3.555029674E0,-1.285858154E0,-7.259582520E0,3.758193970E0
3.557501598E0,-1.496551514E0,-7.022567749E0,3.571441650E0
3.559943004E0,-2.052001953E0,-6.605972290E0,3.224288940E0
3.562414928E0,-2.901947021E0,-5.890106201E0,2.683197021E0
3.564886852E0,-3.213195801E0,-5.459152222E0,2.472503662E0
3.567328258E0,-3.282623291E0,-5.389724731E0,2.350402832E0
3.569800182E0,-3.170089722E0,-5.243667603E0,2.216323853E0
3.572272106E0,-2.672103882E0,-5.023406982E0,2.146896362E0
3.574713512E0,-1.807800293E0,-4.649917603E0,2.000854492E0
3.577185436E0,-1.137420654E0,-4.551742554E0,1.948181152E0
3.579657360E0,-3.688812256E-1,-4.731307983E0,2.271392822E0
3.582098766E0,3.685302734E-1,-4.889328003E0,2.546722412E0
3.584570690E0,1.335784912E0,-5.420837402E0,2.915435791E0
3.587042614E0,2.010955811E0,-6.079254150E0,3.219497681E0
3.589484020E0,2.269531250E0,-6.354583740E0,3.365539551E0
3.591955944E0,2.575988770E0,-6.749618530E0,3.456527710E0
3.594427868E0,2.726821899E0,-7.132690430E0,3.308074951E0
3.596899791E0,2.654998779E0,-7.530136108E0,3.291320801E0
3.599341198E0,2.391632080E0,-7.882080078E0,3.195556641E0
3.601813122E0,2.173767090E0,-8.274734497E0,3.152465820E0
3.604285045E0,1.924758911E0,-8.672164917E0,3.209915161E0
3.606726452E0,1.608734131E0,-9.086364746E0,2.793334961E0
3.609198375E0,1.481842041E0,-9.395217896E0,2.441375732E0
3.611670299E0,1.474655151E0,-9.751953125E0,2.278579712E0
3.614111706E0,1.314239502E0,-1.017333984E1,2.189987183E0
3.616583629E0,1.158615112E0,-1.059231567E1,2.058303833E0
3.619055553E0,9.790496826E-1,-1.091075134E1,1.940994263E0
3.621496959E0,8.138580322E-1,-1.132733154E1,2.065490723E0
3.623968883E0,5.624694824E-1,-1.156915283E1,2.065490723E0
3.626440807E0,3.230438232E-1,-1.162661743E1,2.132522583E0
3.628912731E0,1.985473633E-1,-1.179420471E1,2.249847412E0
3.631354137E0,2.536163330E-1,-1.202883911E1,2.491653442E0
3.633826061E0,2.488250732E-1,-1.225628662E1,2.470108032E0
3.636297985E0,2.392425537E-1,-1.246218872E1,2.460540771E0
3.638739391E0,4.954223633E-1,-1.277583313E1,2.664047241E0
3.641211315E0,8.114624023E-1,-1.307989502E1,2.745437622E0
3.643683239E0,9.192047119E-1,-1.309904480E1,2.728683472E0
3.646124645E0,1.137069702E0,-1.301524353E1,2.644882202E0
3.648596569E0,1.374099731E0,-1.292187500E1,2.802902222E0
3.651068493E0,1.608734131E0,-1.294102478E1,2.853179932E0
3.653509899E0,1.809844971E0,-1.285005188E1,2.714324951E0
3.655981823E0,1.919982910E0,-1.267288208E1,2.790939331E0
3.658453747E0,2.200103760E0,-1.262260437E1,2.970504761E0
3.660925670E0,2.528106689E0,-1.258668518E1,2.891494751E0
3.663367077E0,2.678939819E0,-1.249571228E1,2.819671631E0
3.665839000E0,2.779495239E0,-1.246697998E1,2.745437622E0
3.668310924E0,2.872863770E0,-1.249092102E1,2.690383911E0
3.670752331E0,2.860900879E0,-1.238078308E1,2.508422852E0
3.673224254E0,2.832168579E0,-1.231614685E1,2.429412842E0
3.675696178E0,2.875259399E0,-1.225628662E1,2.362365723E0
3.678137584E0,2.844131470E0,-1.215573120E1,2.264205933E0
3.680609508E0,2.734008789E0,-1.168646240E1,2.376739502E0
3.683081432E0,2.798645020E0,-1.130099487E1,2.747833252E0
3.685522838E0,2.793853760E0,-1.111186218E1,1.964935303E0
3.687994762E0,2.049270630E0,-1.128184509E1,7.462921143E-1
3.690466686E0,1.831390381E0,-1.130339050E1,3.320922852E-1
3.692938610E0,2.429946899E0,-1.107115173E1,7.247314453E-1
3.695380016E0,2.839355469E0,-1.102087402E1,1.304138184E0
3.697851940E0,3.160171509E0,-1.129621887E1,2.194778442E0
3.700323864E0,3.449874878E0,-1.172238159E1,3.205123901E0
3.702765270E0,3.382827759E0,-1.201925659E1,3.858749390E0
3.705237194E0,3.119476318E0,-1.230177307E1,4.090988159E0
3.707709118E0,2.781890869E0,-1.230895996E1,3.935363770E0
3.710150524E0,2.367691040E0,-1.197856140E1,3.681579590E0
3.712622448E0,1.967864990E0,-1.164337158E1,3.492431641E0
3.715094372E0,1.745193481E0,-1.128424072E1,3.384689331E0
3.717535778E0,1.675765991E0,-1.113101196E1,3.391876221E0
3.720007702E0,1.611129761E0,-1.102806091E1,3.379913330E0
3.722479625E0,1.589569092E0,-1.089398193E1,3.439758301E0
3.724951549E0,1.565628052E0,-1.088201904E1,3.535537720E0
3.727392956E0,1.536911011E0,-1.084370422E1,3.655242920E0
3.729864879E0,1.342971802E0,-1.072399902E1,3.707916260E0
3.732336803E0,6.223144531E-1,-1.089637756E1,3.698333740E0
3.734778209E0,5.002136230E-1,-1.113340759E1,3.892272949E0
3.737250133E0,8.593444824E-1,-1.116932678E1,3.877899170E0
3.739691540E0,9.742736816E-1,-1.113819885E1,3.681579590E0
3.742163463E0,9.144134521E-1,-1.102326965E1,3.415817261E0
3.744635387E0,8.617401123E-1,-1.082695007E1,3.310470581E0
3.747107311E0,7.300567627E-1,-1.072160339E1,3.279357910E0
3.749548717E0,4.164123535E-1,-1.067372131E1,3.334411621E0
3.752020641E0,5.488586426E-2,-1.058512878E1,3.382308960E0
3.754492565E0,-1.965026855E-1,-1.036247253E1,3.403854370E0
3.756964489E0,-4.191589355E-1,-1.028825378E1,3.351181030E0
3.759405895E0,-5.628051758E-1,-1.030500793E1,3.190765381E0
3.761877819E0,-5.699920654E-1,-1.028346252E1,3.092605591E0
3.764349743E0,-5.747833252E-1,-1.030979919E1,2.925003052E0
3.766791149E0,-5.795745850E-1,-1.025712585E1,2.819671631E0
3.769263073E0,-6.681518555E-1,-1.017572021E1,2.719100952E0
3.771704479E0,-8.237762451E-1,-9.945877075E0,2.565872192E0
3.774176403E0,-1.537246704E0,-8.995391846E0,2.273788452E0
3.776648327E0,-1.728790283E0,-8.940322876E0,2.503631592E0
3.779120250E0,-1.692871094E0,-9.151016235E0,2.623336792E0
3.781561657E0,-1.702453613E0,-9.129455566E0,2.506027222E0
3.784033581E0,-1.745544434E0,-9.055236816E0,2.328857422E0
3.786505504E0,-1.633026123E0,-9.016937256E0,2.156463623E0
3.788946911E0,-1.599502563E0,-9.009750366E0,2.168441772E0
3.791418834E0,-1.623443604E0,-8.890045166E0,2.101409912E0
3.793890758E0,-1.604293823E0,-8.866104126E0,2.067886353E0
3.796362682E0,-1.482177734E0,-8.904403687E0,2.046340942E0
3.798804088E0,-1.235580444E0,-8.947509766E0,2.000854492E0
3.801276012E0,-1.135025024E0,-8.921173096E0,2.070281982E0
3.803747936E0,-1.048828125E0,-8.849334717E0,2.053512573E0
3.806189342E0,-7.639312744E-1,-8.784698486E0,2.103805542E0
3.808661266E0,-4.502868652E-1,-8.789489746E0,2.242660522E0
3.811133190E0,-1.933288574E-2,-8.751174927E0,2.295333862E0
3.813574596E0,4.259948730E-1,-8.779907227E0,2.290542603E0
3.816046520E0,7.276611328E-1,-8.645828247E0,2.379135132E0
3.818518444E0,9.311676025E-1,-8.442321777E0,2.264205933E0
3.820959850E0,1.180160522E0,-8.406417847E0,2.192382812E0
3.823431774E0,1.328613281E0,-8.432754517E0,2.163650513E0
3.825903698E0,1.426773071E0,-8.504577637E0,2.072677612E0
3.828375622E0,1.342971802E0,-8.550064087E0,2.024795532E0
3.830817028E0,1.161010742E0,-8.554855347E0,1.984085083E0
3.833288952E0,9.287719727E-1,-8.332199097E0,1.864379883E0
3.835760875E0,6.007690430E-1,-7.834197998E0,1.737487793E0
3.838202282E0,4.690856934E-1,-7.290710449E0,1.505249023E0
3.840674206E0,6.103515625E-1,-6.562881470E0,1.232315063E0
3.843146129E0,6.031646729E-1,-5.863769531E0,9.737396240E-1
3.845587536E0,2.967071533E-1,-5.550125122E0,7.271270752E-1
3.848059459E0,9.320068359E-2,-5.358596802E0,4.326477051E-1
3.850531383E0,4.531860352E-2,-5.167053223E0,2.387084961E-1
3.852972790E0,-3.369140625E-2,-4.891723633E0,4.957580566E-2
3.855444713E0,-1.150970459E-1,-4.544570923E0,-4.858398438E-2
3.857916637E0,-2.012939453E-1,-4.230926514E0,-3.901672363E-2
3.860388561E0,-2.826843262E-1,-3.874191284E0,8.865356445E-3
3.862829967E0,-3.425445557E-1,-3.613220215E0,7.351684570E-2
3.865301891E0,-4.311370850E-1,-3.436050415E0,8.547973633E-2
3.867773815E0,-5.723876953E-1,-3.301971436E0,1.693725586E-3
3.870215221E0,-6.609802246E-1,-3.203811646E0,3.042602539E-2
3.872687145E0,-8.189849854E-1,-3.069732666E0,3.042602539E-2
3.875128551E0,-9.722137451E-1,-2.918899536E0,6.632995605E-2
3.877600475E0,-1.147003174E0,-2.806381226E0,1.525268555E-1
3.880072399E0,-1.297836304E0,-2.794403076E0,1.022491455E-1
3.882544323E0,-1.520492554E0,-2.787216187E0,1.932220459E-1
3.884985729E0,-1.685684204E0,-2.739334106E0,3.344879150E-1
3.887457653E0,-1.860473633E0,-2.746520996E0,5.906677246E-1
3.889929577E0,-1.958633423E0,-2.844680786E0,9.833068848E-1
3.892370983E0,-2.004119873E0,-2.942840576E0,1.634536743E0
3.894842907E0,-1.793426514E0,-3.148742676E0,2.522781372E0
3.897314831E0,-1.549224854E0,-3.301971436E0,3.279357910E0
3.899786754E0,-1.305007935E0,-3.481536865E0,3.992828369E0
3.902228161E0,-1.065597534E0,-3.637161255E0,4.859527588E0
3.904700084E0,-8.932037354E-1,-3.764053345E0,5.807632446E0
3.907172008E0,-8.142089844E-1,-3.922073364E0,6.748550415E0
3.909613415E0,-7.136383057E-1,-4.089660645E0,7.524276733E0
3.912085338E0,-6.322479248E-1,-4.154312134E0,8.110855103E0
3.914557262E0,-5.987243652E-1,-4.281204224E0,8.695037842E0
3.916998668E0,-5.867462158E-1,-4.333877563E0,9.233734131E0
3.919470592E0,-5.963287354E-1,-4.307540894E0,9.212188721E0
3.921942516E0,-7.543487549E-1,-4.300354004E0,9.104446411E0
3.924414440E0,-7.663116455E-1,-4.295562744E0,8.944030762E0
3.926855846E0,-9.003906250E-1,-4.269226074E0,8.776443481E0
3.929327770E0,-9.458770752E-1,-4.281204224E0,8.558563232E0
3.931799694E0,-1.060806274E0,-4.355422974E0,8.259292603E0
3.934241100E0,-1.094329834E0,-4.350631714E0,7.828338623E0
3.936713024E0,-1.135025024E0,-4.384155273E0,7.459625244E0
3.939184948E0,-1.288253784E0,-4.633148193E0,7.213027954E0
3.941626354E0,-1.381622314E0,-4.819900513E0,7.062194824E0
3.944098278E0,-1.101501465E0,-5.672241211E0,7.160354614E0
3.946570202E0,-9.099731445E-1,-7.269165039E0,7.598495483E0
3.949011608E0,-4.933776855E-1,-9.684921265E0,8.012695312E0
3.951483532E0,-2.890014648E-2,-9.787872314E0,8.687850952E0
3.953955456E0,6.446838379E-2,-1.066653442E1,8.809951782E0
3.956396862E0,2.607879639E-1,-1.055641174E1,8.220977783E0
3.958868786E0,-8.070220947E-1,-9.313812256E0,8.113250732E0
3.961340709E0,-1.510910034E0,-8.593154907E0,7.672714233E0
3.963812633E0,-2.006515503E0,-7.951507568E0,6.889801025E0
3.966254040E0,-2.492538452E0,-7.264373779E0,6.214645386E0
3.968725963E0,-1.831741333E0,-6.871734619E0,5.060638428E0
3.971197887E0,-1.058410645E0,-6.529357910E0,3.868331909E0
3.973639293E0,-8.932037354E-1,-5.949966431E0,2.661651611E0
3.976111217E0,-9.889831543E-1,-5.626739502E0,1.749450684E0
3.978583141E0,-1.460632324E0,-5.238876343E0,1.416656494E0
3.981024547E0,-1.764694214E0,-4.827087402E0,1.258651733E0
3.983496471E0,-1.668930054E0,-4.455978394E0,6.457366943E-1
3.985968395E0,-1.506134033E0,-3.972351074E0,-7.764282227E-1
3.988409801E0,-4.383087158E-1,-3.582092285E0,-6.591033936E-1
3.990881725E0,1.099548340E-1,-3.220565796E0,-9.105072021E-1
3.993353649E0,3.781127930E-1,-3.606033325E0,-1.736495972E0
3.995825573E0,3.206481934E-1,-4.039382935E0,-2.526580811E0
3.998266979E0,-8.157348633E-2,-4.855804443E0,-3.931991577E0
4.000738903E0,-1.597106934E0,-9.323394775E0,-1.930516052E1
4.003210827E0,9.910278320E-1,-1.476541138E1,-1.653985596E1
4.005652233E0,7.687606812E0,-2.381069946E1,-8.327743530E0
4.008124157E0,1.329003906E1,-3.314570618E1,-4.741226196E0
4.010596081E0,1.582310486E1,-4.411593628E1,-1.802673340E-1
4.013037487E0,1.437461853E1,-4.981413269E1,2.625732422E0
4.015509411E0,1.107301331E1,-5.163851929E1,5.216262817E0
4.017981334E0,7.654083252E0,-5.480604553E1,7.885787964E0
4.020422741E0,4.503326416E0,-5.516996765E1,8.833892822E0
4.022894665E0,1.256774902E0,-5.322348022E1,8.735733032E0
4.025366588E0,-1.843704224E0,-4.941430664E1,8.994308472E0
4.027807995E0,-2.942642212E0,-4.436492920E1,8.469985962E0
4.030279918E0,-1.649780273E0,-3.895881653E1,7.071762085E0
4.032751842E0,9.144134521E-1,-3.352159119E1,5.872268677E0
4.035193249E0,2.949478149E0,-2.845545959E1,4.356735229E0
4.037665172E0,3.670135498E0,-2.378675842E1,3.581024170E0
4.040137096E0,3.696472168E0,-1.959690857E1,3.250625610E0
4.042609020E0,3.459442139E0,-1.616362000E1,2.632919312E0
4.045050426E0,3.344528198E0,-1.340310669E1,2.046340942E0
4.047522350E0,2.925537109E0,-1.126269531E1,1.766220093E0
4.049994274E0,2.140243530E0,-9.538864136E0,1.469329834E0
4.052435680E0,1.304672241E0,-8.329803467E0,1.220336914E0
4.054907604E0,4.714813232E-1,-7.422393799E0,1.136535645E0
4.057379528E0,-2.683258057E-1,-6.811874390E0,1.229919434E0
4.059851452E0,-8.836364746E-1,-6.268386841E0,1.538772583E0
4.062292858E0,-1.312194824E0,-5.959533691E0,1.866775513E0
4.064764782E0,-1.372055054E0,-5.914047241E0,2.067886353E0
4.067236706E0,-1.214035034E0,-6.014602661E0,2.194778442E0
4.069678112E0,-9.027862549E-1,-6.273178101E0,2.302520752E0
4.072150036E0,-4.885864258E-1,-6.603576660E0,2.247451782E0
4.074621959E0,-1.693725586E-2,-7.056076050E0,1.993667603E0
4.077063366E0,3.350219727E-1,-7.415206909E0,1.826065063E0
4.079535290E0,5.121917725E-1,-7.683364868E0,1.888320923E0
4.082007213E0,5.457000732E-1,-7.862930298E0,2.125350952E0
4.084448620E0,4.523315430E-1,-7.982635498E0,2.482086182E0
4.086920543E0,2.607879639E-1,-7.989822388E0,2.731079102E0
4.089392467E0,-2.172851562E-2,-8.064041138E0,3.004013062E0
4.091864391E0,-3.186035156E-1,-8.087982178E0,3.190765381E0
4.094305797E0,-5.819702148E-1,-8.085586548E0,3.382308960E0
4.096777721E0,-9.315185547E-1,-8.111923218E0,3.518768311E0
4.099249645E0,-1.293045044E0,-8.147842407E0,3.566650391E0
4.101691051E0,-1.532455444E0,-8.267547607E0,3.516372681E0
4.104162975E0,-1.697662354E0,-8.370498657E0,3.458923340E0
4.106634899E0,-1.776672363E0,-8.454299927E0,3.411026001E0
4.109076305E0,-1.714416504E0,-8.521331787E0,3.308074951E0
4.111548229E0,-1.551620483E0,-8.593154907E0,3.164428711E0
4.114020153E0,-1.319381714E0,-8.550064087E0,3.078231812E0
4.116461559E0,-1.087142944E0,-8.289093018E0,3.006408691E0
4.118933483E0,-9.434967041E-1,-8.353744507E0,2.831634521E0
4.121405407E0,-8.118133545E-1,-8.380081177E0,2.721496582E0
4.123846813E0,-7.328033447E-1,-8.504577637E0,2.601791382E0
4.126318737E0,-5.819702148E-1,-8.516540527E0,2.517990112E0
4.128790661E0,-4.933776855E-1,-8.533309937E0,2.697555542E0
4.131262584E0,-2.890014648E-2,-8.401626587E0,3.736648560E0
4.133703991E0,-1.366424561E-1,-8.370498657E0,4.284912109E0
4.136175915E0,-6.226654053E-1,-8.755966187E0,3.976058960E0
4.138647838E0,-5.963287354E-1,-9.237197876E0,4.160415649E0
4.141089245E0,-5.125274658E-1,-9.574783325E0,4.265762329E0
4.143561168E0,-4.359130859E-1,-9.816604614E0,4.258575439E0
4.146033092E0,-4.478912354E-1,-1.003446960E1,4.184356689E0
4.148474499E0,-4.119720459E-1,-1.029783630E1,4.150848389E0
4.150946422E0,-3.569030762E-1,-1.040795898E1,4.071838379E0
4.153418346E0,-3.233947754E-1,-1.051809692E1,4.011978149E0
4.155859752E0,-2.611389160E-1,-1.058512878E1,3.964096069E0
4.158331676E0,-2.371978760E-1,-1.062104797E1,3.839599609E0
4.160803600E0,-1.557922363E-1,-1.066413879E1,3.758193970E0
4.163275524E0,-2.410888672E-2,-1.077906799E1,3.698333740E0
4.165716930E0,1.147460938E-1,-1.086526489E1,3.619323730E0
4.168188854E0,1.793975830E-1,-1.091075134E1,3.300903320E0
4.170630260E0,2.919158936E-1,-1.099215698E1,3.226684570E0
4.173102184E0,4.427490234E-1,-1.111904907E1,3.126129150E0
4.175574108E0,5.002136230E-1,-1.115734863E1,3.195556641E0
4.178046032E0,5.121917725E-1,-1.118847656E1,3.193161011E0
4.180487438E0,4.690856934E-1,-1.120762634E1,3.066268921E0
4.182959362E0,4.571228027E-1,-1.119805908E1,2.999237061E0
4.185431286E0,4.690856934E-1,-1.116932678E1,2.951339722E0
4.187872692E0,3.852996826E-1,-1.114059448E1,2.898666382E0
4.190344616E0,3.781127930E-1,-1.097059631E1,2.850784302E0
4.192816540E0,3.541717529E-1,-1.093229675E1,2.824447632E0
4.195288463E0,3.852996826E-1,-1.082455444E1,2.781356812E0
4.197729870E0,3.589630127E-1,-1.066653442E1,2.676010132E0
4.200201793E0,3.014984131E-1,-1.060189819E1,2.496444702E0
4.202673717E0,2.584075928E-1,-1.052049255E1,2.278579712E0
4.205115124E0,2.344512939E-1,-1.037445068E1,2.046340942E0
4.207587047E0,2.631835938E-1,-1.031938171E1,1.943389893E0
4.210058971E0,1.889648438E-1,-1.024516296E1,1.859588623E0
4.212500377E0,1.410827637E-1,-1.011827087E1,1.768615723E0
4.214972301E0,9.799194336E-2,-1.008714294E1,1.706359863E0
4.217444225E0,2.227783203E-3,-1.006559753E1,1.641723633E0
4.219885631E0,-1.414337158E-1,-9.996170044E0,1.617782593E0
4.222357555E0,-2.802886963E-1,-9.979400635E0,1.646499634E0
4.224829479E0,-4.143676758E-1,-1.001052856E1,1.646499634E0
4.227301403E0,-5.604095459E-1,-9.986587524E0,1.675231934E0
4.229742809E0,-6.035156250E-1,-1.005361938E1,1.763824463E0
4.232214733E0,-6.130828857E-1,-1.015657043E1,1.818893433E0
4.234656139E0,-6.107025146E-1,-1.020205688E1,1.828460693E0
4.237128063E0,-6.130828857E-1,-1.008474731E1,1.854797363E0
4.239599987E0,-5.580291748E-1,-9.972213745E0,1.840438843E0
4.242071911E0,-4.311370850E-1,-9.950668335E0,1.826065063E0
4.244513317E0,-4.024047852E-1,-9.972213745E0,1.787765503E0
4.246985241E0,-3.401489258E-1,-1.001531982E1,1.917053223E0
4.249457165E0,-4.215545654E-1,-9.998550415E0,2.012817383E0
4.251898571E0,-4.359130859E-1,-9.967437744E0,2.046340942E0
4.254370495E0,-4.622497559E-1,-9.965042114E0,2.065490723E0
4.256842418E0,-3.545227051E-1,-9.986587524E0,2.118164062E0
4.259283825E0,-2.707214355E-1,-9.993774414E0,2.161254883E0
4.261755749E0,-2.300109863E-1,-1.000573730E1,2.242660522E0
4.264227672E0,-1.845245361E-1,-1.002488708E1,2.328857422E0
4.266699596E0,-1.270599365E-1,-1.005601501E1,2.458145142E0
4.269141002E0,-9.594726562E-2,-1.009193420E1,2.580245972E0
4.271612926E0,4.608154297E-3,-1.006320190E1,2.728683472E0
4.274084850E0,5.967712402E-2,-1.009910583E1,2.834030151E0
4.276526256E0,9.559631348E-2,-1.009193420E1,2.925003052E0
4.278998180E0,1.578369141E-1,-1.013742065E1,3.013595581E0
4.281470104E0,1.889648438E-1,-1.017094421E1,3.133300781E0
4.283911510E0,1.770019531E-1,-1.013742065E1,3.224288940E0
4.286383434E0,1.746063232E-1,-1.016136169E1,3.243438721E0
4.288855358E0,1.913604736E-1,-1.017094421E1,3.200347900E0
4.291296764E0,2.368469238E-1,-1.021403503E1,3.185974121E0
4.293768688E0,2.224884033E-1,-1.026431274E1,3.195556641E0
4.296240612E0,2.607879639E-1,-1.031219482E1,3.114151001E0
4.298712536E0,2.679748535E-1,-1.028106689E1,3.059082031E0
4.301153942E0,2.631835938E-1,-1.030262756E1,2.992050171E0
4.303625866E0,2.775573730E-1,-1.033134460E1,2.936981201E0
4.306097790E0,2.703704834E-1,-1.030262756E1,2.853179932E0
4.308539196E0,3.326263428E-1,-1.030500793E1,2.781356812E0
4.311011120E0,3.278350830E-1,-1.029783630E1,2.678405762E0
4.313483043E0,3.062896729E-1,-1.035528564E1,2.575454712E0
4.315954967E0,2.775573730E-1,-1.029783630E1,2.494049072E0
4.318396374E0,2.703704834E-1,-1.030979919E1,2.446166992E0
4.320868297E0,2.871246338E-1,-1.023558044E1,2.422225952E0
4.323309704E0,2.607879639E-1,-1.022122192E1,2.338424683E0
4.325781627E0,2.320709229E-1,-1.017811584E1,2.343215942E0
4.328253551E0,2.296752930E-1,-1.017333984E1,2.230697632E0
4.330694957E0,2.153015137E-1,-1.015896606E1,2.242660522E0
4.333166881E0,2.200927734E-1,-1.009910583E1,2.245056152E0
4.335638805E0,2.272796631E-1,-1.016375732E1,2.228302002E0
4.338080211E0,1.770019531E-1,-1.010150146E1,2.178024292E0
4.340552135E0,1.602325439E-1,-1.006320190E1,2.230697632E0
4.343024059E0,1.770019531E-1,-1.007995605E1,2.211532593E0
4.345495983E0,1.482696533E-1,-1.007038879E1,2.213928223E0
4.347937389E0,1.482696533E-1,-1.005841064E1,2.209136963E0
4.350409313E0,1.291198730E-1,-1.003446960E1,2.230697632E0
4.352881237E0,1.267242432E-1,-1.005601501E1,2.233078003E0
4.355322643E0,1.650238037E-1,-1.011347961E1,2.254638672E0
4.357794567E0,1.674194336E-1,-1.007756042E1,2.266601562E0
4.360266491E0,1.530609131E-1,-1.008953857E1,2.285751343E0
4.362738415E0,1.458740234E-1,-1.015896606E1,2.273788452E0
4.365179821E0,1.578369141E-1,-1.014700317E1,2.206756592E0
4.367651745E0,1.482696533E-1,-1.017094421E1,2.273788452E0
4.370123668E0,1.315002441E-1,-1.024755859E1,2.314483643E0
4.372565075E0,1.554565430E-1,-1.026191711E1,2.228302002E0
4.375036999E0,1.746063232E-1,-1.023797607E1,2.259414673E0
4.377508922E0,1.913604736E-1,-1.027867126E1,2.271392822E0
4.379950329E0,1.937561035E-1,-1.021882629E1,2.221115112E0
4.382422252E0,1.961517334E-1,-1.028346252E1,2.252243042E0
4.384894176E0,1.961517334E-1,-1.032417297E1,2.233078003E0
4.387335582E0,2.153015137E-1,-1.028825378E1,2.285751343E0
4.389807506E0,2.272796631E-1,-1.028346252E1,2.328857422E0
4.392279430E0,2.607879639E-1,-1.029783630E1,2.321670532E0
4.394751354E0,2.655792236E-1,-1.027867126E1,2.338424683E0
4.397192760E0,3.230438232E-1,-1.027149963E1,2.379135132E0
4.399664684E0,3.134613037E-1,-1.024037170E1,2.422225952E0
4.402136608E0,3.254394531E-1,-1.024516296E1,2.484481812E0
4.404578014E0,3.781127930E-1,-1.021882629E1,2.472503662E0
4.407049938E0,3.900756836E-1,-1.026910400E1,2.527572632E0
4.409521862E0,3.709259033E-1,-1.020924377E1,2.544326782E0
4.411963268E0,3.996582031E-1,-1.021643066E1,2.570663452E0
4.414435192E0,4.355773926E-1,-1.023558044E1,2.556304932E0
4.416907116E0,4.499359131E-1,-1.020924377E1,2.544326782E0
4.419379040E0,4.882507324E-1,-1.018530273E1,2.553909302E0
4.421820446E0,5.289459229E-1,-1.015896606E1,2.587432861E0
4.424292370E0,5.074005127E-1,-1.012783813E1,2.546722412E0
4.426733776E0,4.714813232E-1,-1.012066650E1,2.520385742E0
4.429205700E0,5.074005127E-1,-1.012066650E1,2.534759521E0
4.431677624E0,4.978179932E-1,-1.013502502E1,2.522781372E0
4.434149547E0,5.097961426E-1,-1.011347961E1,2.534759521E0
4.436590954E0,5.385284424E-1,-1.009672546E1,2.508422852E0
4.439062877E0,5.313415527E-1,-1.012066650E1,2.460540771E0
4.441534801E0,4.666900635E-1,-1.013023376E1,2.422225952E0
4.443976207E0,4.690856934E-1,-1.013262939E1,2.379135132E0
4.446448131E0,4.451446533E-1,-1.014460754E1,2.429412842E0
4.448920055E0,4.044494629E-1,-1.011827087E1,2.371948242E0
4.451361461E0,3.900756836E-1,-1.011587524E1,2.400680542E0
4.453833385E0,3.781127930E-1,-1.014939880E1,2.376739502E0
4.456305309E0,4.020538330E-1,-1.015657043E1,2.379135132E0
4.458777233E0,3.876800537E-1,-1.017333984E1,2.376739502E0
4.461218639E0,3.110656738E-1,-1.015177917E1,2.381530762E0
4.463690563E0,3.182525635E-1,-1.015896606E1,2.350402832E0
4.466162487E0,3.206481934E-1,-1.019009399E1,2.352798462E0
4.468603893E0,2.991027832E-1,-1.021163940E1,2.357589722E0
4.471075817E0,3.014984131E-1,-1.018051147E1,2.371948242E0
4.473547741E0,2.607879639E-1,-1.016375732E1,2.348007202E0
4.475989147E0,2.105102539E-1,-1.017094421E1,2.343215942E0
4.478461071E0,2.464294434E-1,-1.015896606E1,2.357589722E0
4.480932995E0,2.272796631E-1,-1.016136169E1,2.357589722E0
4.483374401E0,2.320709229E-1,-1.011347961E1,2.388702393E0
4.485846325E0,2.488250732E-1,-1.013262939E1,2.415039062E0
4.488318249E0,2.176971436E-1,-1.009910583E1,2.407867432E0
4.490759655E0,2.176971436E-1,-1.007756042E1,2.434204102E0
4.493231579E0,2.176971436E-1,-1.005122375E1,2.472503662E0
4.495703502E0,2.248840332E-1,-1.004882812E1,2.465316772E0
4.498175426E0,2.009429932E-1,-1.006320190E1,2.474899292E0
4.500616832E0,1.746063232E-1,-1.004165649E1,2.510818481E0
4.503088756E0,2.176971436E-1,-1.003207397E1,2.558700562E0
4.505560680E0,2.105102539E-1,-9.981796265E0,2.594604492E0
4.508002086E0,2.105102539E-1,-9.986587524E0,2.570663452E0
4.510474010E0,2.392425537E-1,-9.998550415E0,2.585037231E0
4.512945934E0,1.937561035E-1,-1.001052856E1,2.632919312E0
4.515387340E0,2.224884033E-1,-1.005122375E1,2.668823242E0
4.517859264E0,2.488250732E-1,-1.003686523E1,2.745437622E0
4.520331188E0,2.320709229E-1,-1.005361938E1,2.721496582E0
4.522772594E0,1.889648438E-1,-1.003926086E1,2.680801392E0
4.525244518E0,2.105102539E-1,-1.007038879E1,2.676010132E0
4.527716442E0,2.033386230E-1,-1.007516479E1,2.702346802E0
4.530157848E0,1.961517334E-1,-1.008953857E1,2.731079102E0
4.532629772E0,1.865692139E-1,-1.008235168E1,2.738265991E0
4.535101696E0,1.770019531E-1,-1.010150146E1,2.723892212E0
4.537573620E0,1.626281738E-1,-1.013742065E1,2.683197021E0
4.540015026E0,1.602325439E-1,-1.012783813E1,2.680801392E0
4.542486950E0,1.267242432E-1,-1.016615295E1,2.733474731E0
4.544958874E0,1.458740234E-1,-1.020205688E1,2.680801392E0
4.547400280E0,7.884216309E-2,-1.020924377E1,2.652069092E0
4.549872204E0,4.292297363E-2,-1.024995422E1,2.656860352E0
4.552344127E0,5.967712402E-2,-1.025712585E1,2.620941162E0
4.554785534E0,3.334045410E-2,-1.031219482E1,2.577850342E0
4.557257457E0,1.179504395E-2,-1.032894897E1,2.616149902E0
4.559729381E0,-1.933288574E-2,-1.029783630E1,2.565872192E0
4.562201305E0,-3.848266602E-2,-1.031698608E1,2.515594482E0
4.564642711E0,-1.174926758E-1,-1.029304504E1,2.527572632E0
4.567114635E0,-7.917785645E-2,-1.027867126E1,2.541931152E0
4.569586559E0,-1.701660156E-1,-1.031459045E1,2.427017212E0
4.572027965E0,-1.581878662E-1,-1.032417297E1,2.446166992E0
4.574499889E0,-1.486206055E-1,-1.023318481E1,2.474899292E0
4.576971813E0,-1.797332764E-1,-1.022122192E1,2.462921143E0
4.579413219E0,-1.869201660E-1,-1.023318481E1,2.427017212E0
4.581885143E0,-1.893157959E-1,-1.021163940E1,2.395889282E0
4.584357067E0,-1.965026855E-1,-1.021163940E1,2.391098022E0
4.586798473E0,-2.611389160E-1,-1.020924377E1,2.403076172E0
4.589270397E0,-2.611389160E-1,-1.018769836E1,2.383926392E0
4.591742321E0,-2.731170654E-1,-1.015177917E1,2.395889282E0
4.594214245E0,-2.611389160E-1,-1.017811584E1,2.431808472E0
4.596655651E0,-2.707214355E-1,-1.015657043E1,2.415039062E0
4.599127575E0,-2.539520264E-1,-1.014221191E1,2.405471802E0
4.601599499E0,-2.419891357E-1,-1.013262939E1,2.407867432E0
4.604040905E0,-2.491760254E-1,-1.012306213E1,2.359985352E0
4.606512829E0,-2.779083252E-1,-1.010629272E1,2.374343872E0
4.608984752E0,-2.587432861E-1,-1.009193420E1,2.446166992E0
4.611426159E0,-2.371978760E-1,-1.009672546E1,2.417434692E0
4.613898082E0,-2.228393555E-1,-1.006559753E1,2.438980103E0
4.616370006E0,-2.563476562E-1,-1.007995605E1,2.467712402E0
4.618811413E0,-2.252349854E-1,-1.008474731E1,2.489257812E0
4.621283336E0,-2.228393555E-1,-1.005841064E1,2.491653442E0
4.623755260E0,-2.012939453E-1,-1.006799316E1,2.498840332E0
4.626227184E0,-2.060699463E-1,-1.007995605E1,2.510818481E0
4.628668590E0,-1.797332764E-1,-1.007995605E1,2.532363892E0
4.631140514E0,-1.917114258E-1,-1.011108398E1,2.541931152E0
4.633612438E0,-1.941070557E-1,-1.010389709E1,2.537155151E0
4.636053844E0,-1.533966064E-1,-1.010868835E1,2.623336792E0
4.638525768E0,-2.012939453E-1,-1.015177917E1,2.673614502E0
4.640967174E0,-1.677703857E-1,-1.017572021E1,2.685592651E0
4.643439098E0,-1.941070557E-1,-1.019967651E1,2.644882202E0
4.645911022E0,-2.036743164E-1,-1.021643066E1,2.716720581E0
4.648382946E0,-2.060699463E-1,-1.020924377E1,2.695159912E0
4.650824352E0,-1.917114258E-1,-1.024516296E1,2.685592651E0
4.653296276E0,-2.252349854E-1,-1.024516296E1,2.687988281E0
4.655768200E0,-2.324066162E-1,-1.023318481E1,2.680801392E0
4.658240124E0,-2.132568359E-1,-1.028346252E1,2.659255981E0
4.660681530E0,-2.300109863E-1,-1.024516296E1,2.652069092E0
4.663153454E0,-2.395935059E-1,-1.023797607E1,2.692779541E0
4.665625377E0,-2.731170654E-1,-1.026191711E1,2.652069092E0
4.668066784E0,-2.371978760E-1,-1.023797607E1,2.673614502E0
4.670538707E0,-1.988983154E-1,-1.026191711E1,2.654464722E0
4.673010631E0,-2.443847656E-1,-1.019728088E1,2.647277832E0
4.675452038E0,-2.276153564E-1,-1.022122192E1,2.632919312E0
4.677923961E0,-1.845245361E-1,-1.020445251E1,2.589828491E0
4.680395885E0,-1.845245361E-1,-1.020445251E1,2.592208862E0
4.682837291E0,-2.084655762E-1,-1.013023376E1,2.608978271E0
4.685309215E0,-1.701660156E-1,-1.013742065E1,2.601791382E0
4.687781139E0,-1.701660156E-1,-1.013262939E1,2.558700562E0
4.690253063E0,-1.270599365E-1,-1.014700317E1,2.534759521E0
4.692694469E0,-1.079101562E-1,-1.011587524E1,2.573059082E0
4.695166393E0,-1.342468262E-1,-1.006080627E1,2.529968262E0
4.697638317E0,-1.007232666E-1,-1.003446960E1,2.484481812E0
4.700079723E0,-7.200622559E-2,-1.009193420E1,2.438980103E0
4.702551647E0,-9.115600586E-2,-1.002249146E1,2.479690552E0
4.705023571E0,-8.396911621E-2,-1.007756042E1,2.568267822E0
4.707464977E0,2.227783203E-3,-1.007516479E1,2.599395752E0
4.709936901E0,2.137756348E-2,-1.004405212E1,2.587432861E0
4.712408825E0,-4.959106445E-3,-1.006799316E1,2.604187012E0
4.714850231E0,-4.959106445E-3,-1.000334167E1,2.611373901E0
4.717322155E0,-2.563476562E-3,-9.998550415E0,2.644882202E0
4.719794079E0,-2.563476562E-3,-1.003686523E1,2.604187012E0
4.722266002E0,1.179504395E-2,-1.002249146E1,2.608978271E0
4.724707409E0,-1.678466797E-4,-1.002967834E1,2.582641602E0
4.727179332E0,-4.959106445E-3,-1.000573730E1,2.565872192E0
4.729651256E0,2.854919434E-2,-1.002728271E1,2.613769531E0
4.732092663E0,4.531860352E-2,-1.005601501E1,2.625732422E0
4.734564586E0,8.840942383E-2,-1.007038879E1,2.601791382E0
4.737036510E0,8.601379395E-2,-1.010150146E1,2.630523682E0
4.739477916E0,9.559631348E-2,-1.005841064E1,2.585037231E0
4.741949840E0,1.027832031E-1,-1.004405212E1,2.556304932E0
4.744421764E0,9.559631348E-2,-1.001531982E1,2.580245972E0
4.746863170E0,1.219329834E-1,-1.002488708E1,2.549118042E0
4.749335094E0,9.320068359E-2,-1.005361938E1,2.568267822E0
4.751807018E0,1.147460938E-1,-1.008714294E1,2.613769531E0
4.754248424E0,1.147460938E-1,-1.008474731E1,2.613769531E0
4.756720348E0,9.320068359E-2,-1.016854858E1,2.613769531E0
4.759192272E0,1.123504639E-1,-1.013023376E1,2.642486572E0
4.761664196E0,1.267242432E-1,-1.013742065E1,2.637710571E0
4.764105602E0,1.746063232E-1,-1.020924377E1,2.570663452E0
4.766577526E0,1.817932129E-1,-1.017572021E1,2.599395752E0
4.769018932E0,1.506652832E-1,-1.020205688E1,2.683197021E0
4.771490856E0,1.530609131E-1,-1.023558044E1,2.668823242E0
4.773962780E0,1.746063232E-1,-1.018769836E1,2.594604492E0
4.776434704E0,1.506652832E-1,-1.021403503E1,2.644882202E0
4.778876110E0,1.362915039E-1,-1.024516296E1,2.592208862E0
4.781348034E0,1.674194336E-1,-1.020684814E1,2.628128052E0
4.783819957E0,1.506652832E-1,-1.019728088E1,2.606582642E0
4.786261364E0,1.722106934E-1,-1.024276733E1,2.577850342E0
4.788733288E0,1.171417236E-1,-1.019488525E1,2.558700562E0
4.791205211E0,1.291198730E-1,-1.016854858E1,2.599395752E0
4.793677135E0,1.434783936E-1,-1.019009399E1,2.573059082E0
4.796118541E0,1.075592041E-1,-1.021403503E1,2.565872192E0
4.798590465E0,7.644653320E-2,-1.018530273E1,2.551513672E0
4.801031872E0,1.315002441E-1,-1.016854858E1,2.594604492E0
4.803503795E0,1.458740234E-1,-1.013502502E1,2.618545532E0
4.805975719E0,9.559631348E-2,-1.019009399E1,2.580245972E0
4.808447643E0,1.219329834E-1,-1.018051147E1,2.644882202E0
4.810889049E0,1.003875732E-1,-1.017094421E1,2.673614502E0
4.813360973E0,1.051788330E-1,-1.016136169E1,2.695159912E0
4.815832897E0,1.051788330E-1,-1.015417480E1,2.647277832E0
4.818274303E0,6.207275391E-2,-1.015177917E1,2.642486572E0
4.820746227E0,7.644653320E-2,-1.015417480E1,2.606582642E0
4.823218151E0,7.644653320E-2,-1.013742065E1,2.664047241E0
4.825690075E0,9.080505371E-2,-1.015896606E1,2.683197021E0
4.828131481E0,6.686401367E-2,-1.017094421E1,2.642486572E0
4.830603405E0,6.925964355E-2,-1.016136169E1,2.647277832E0
4.833075329E0,5.488586426E-2,-1.012783813E1,2.613769531E0
4.835516735E0,7.165527344E-2,-1.014460754E1,2.573059082E0
4.837988659E0,5.728149414E-2,-1.008714294E1,2.601791382E0
4.840460582E0,5.250549316E-2,-1.010389709E1,2.580245972E0
4.842901989E0,3.094482422E-2,-1.014221191E1,2.544326782E0
4.845373913E0,5.010986328E-2,-1.012783813E1,2.573059082E0
4.847845836E0,5.010986328E-2,-1.011347961E1,2.549118042E0
4.850287243E0,1.898193359E-2,-1.008714294E1,2.508422852E0
4.852759166E0,2.377319336E-2,-1.006559753E1,2.503631592E0
4.855231090E0,5.010986328E-2,-1.007756042E1,2.494049072E0
4.857672497E0,5.488586426E-2,-1.008235168E1,2.474899292E0
4.860144420E0,2.377319336E-2,-1.005841064E1,2.474899292E0
4.862616344E0,3.094482422E-2,-1.007278442E1,2.419830322E0
4.865088268E0,3.813171387E-2,-1.009672546E1,2.479690552E0
4.867529674E0,4.771423340E-2,-1.005601501E1,2.484481812E0
4.870001598E0,4.292297363E-2,-1.006559753E1,2.494049072E0
4.872473522E0,3.094482422E-2,-1.009432983E1,2.498840332E0
4.874914928E0,7.003784180E-3,-1.006559753E1,2.520385742E0
4.877386852E0,3.813171387E-2,-1.007756042E1,2.503631592E0
4.879858776E0,6.207275391E-2,-1.014221191E1,2.546722412E0
4.882300182E0,4.052734375E-2,-1.005122375E1,2.546722412E0
4.884772106E0,2.377319336E-2,-1.006320190E1,2.558700562E0
4.887244030E0,2.616882324E-2,-1.007278442E1,2.537155151E0
4.889685436E0,2.854919434E-2,-1.009910583E1,2.580245972E0
4.892157360E0,4.292297363E-2,-1.008235168E1,2.582641602E0
4.894629284E0,3.094482422E-2,-1.006080627E1,2.558700562E0
4.897101207E0,3.334045410E-2,-1.008714294E1,2.664047241E0
4.899542614E0,3.813171387E-2,-1.007995605E1,2.661651611E0
4.902014538E0,1.658630371E-2,-1.005361938E1,2.597000122E0
4.904486461E0,7.003784180E-3,-1.007038879E1,2.659255981E0
4.906927868E0,-1.214599609E-2,-1.006320190E1,2.640106201E0
4.909399791E0,1.179504395E-2,-1.010629272E1,2.618545532E0
4.911871715E0,-4.806518555E-2,-1.008235168E1,2.668823242E0
4.914313122E0,-4.959106445E-3,-1.006080627E1,2.690383911E0
4.916785045E0,-9.750366211E-3,-1.007995605E1,2.671218872E0
4.919256969E0,-3.369140625E-2,-1.011108398E1,2.656860352E0
4.921698375E0,-4.566955566E-2,-1.008714294E1,2.616149902E0
4.924170299E0,-5.284118652E-2,-1.009193420E1,2.613769531E0
4.926642223E0,-6.961059570E-2,-1.011587524E1,2.618545532E0
4.929114147E0,-7.678222656E-2,-1.006320190E1,2.573059082E0
4.931555553E0,-9.355163574E-2,-1.006559753E1,2.628128052E0
4.934027477E0,-7.917785645E-2,-1.014700317E1,2.632919312E0
4.936499401E0,-1.055145264E-1,-1.011108398E1,2.592208862E0
4.938940807E0,-1.174926758E-1,-1.008953857E1,2.592208862E0
4.941412731E0,-1.127014160E-1,-1.015657043E1,2.551513672E0
4.943884655E0,-1.150970459E-1,-1.013981628E1,2.568267822E0
4.946326061E0,-1.127014160E-1,-1.013262939E1,2.515594482E0
4.948797985E0,-1.342468262E-1,-1.012544250E1,2.561096191E0
4.951269909E0,-1.055145264E-1,-1.014460754E1,2.537155151E0
4.953711315E0,-9.594726562E-2,-1.017572021E1,2.565872192E0
4.956183239E0,-1.150970459E-1,-1.015657043E1,2.601791382E0
4.958655163E0,-1.581878662E-1,-1.016615295E1,2.561096191E0
4.961127086E0,-1.342468262E-1,-1.015417480E1,2.525177002E0
4.963568493E0,-1.653747559E-1,-1.014221191E1,2.546722412E0
4.966040416E0,-1.127014160E-1,-1.015896606E1,2.520385742E0
4.968512340E0,-8.876037598E-2,-1.015177917E1,2.553909302E0
4.970953747E0,-1.198883057E-1,-1.015417480E1,2.556304932E0
4.973425670E0,-1.318511963E-1,-1.012783813E1,2.544326782E0
4.975897594E0,-1.510009766E-1,-1.015896606E1,2.508422852E0
4.978339000E0,-1.725616455E-1,-1.015417480E1,2.491653442E0
4.980810924E0,-1.773376465E-1,-1.017572021E1,2.525177002E0
4.983282848E0,-1.486206055E-1,-1.017094421E1,2.489257812E0
4.985724254E0,-2.108612061E-1,-1.013502502E1,2.462921143E0
4.988196178E0,-2.156524658E-1,-1.013023376E1,2.486877441E0
4.990668102E0,-1.462249756E-1,-1.014939880E1,2.460540771E0
4.993140026E0,-1.773376465E-1,-1.016375732E1,2.422225952E0
4.995581432E0,-1.845245361E-1,-1.014939880E1,2.470108032E0
4.998053356E0,-1.893157959E-1,-1.017572021E1,2.434204102E0
5.000525280E0,-1.581878662E-1,-1.017572021E1,2.443771362E0
5.002966686E0,-1.581878662E-1,-1.015417480E1,2.412643433E0
5.005438610E0,-1.701660156E-1,-1.013023376E1,2.393493652E0
5.007910534E0,-1.988983154E-1,-1.016375732E1,2.405471802E0
5.010351940E0,-1.701660156E-1,-1.014700317E1,2.441375732E0
5.012823864E0,-1.510009766E-1,-1.009910583E1,2.431808472E0
5.015295788E0,-1.198883057E-1,-1.014460754E1,2.400680542E0
5.017737194E0,-1.677703857E-1,-1.014221191E1,2.343215942E0
5.020209118E0,-1.342468262E-1,-1.012306213E1,2.369552612E0
5.022681041E0,-8.876037598E-2,-1.008474731E1,2.479690552E0
5.025152965E0,-1.246795654E-1,-1.013262939E1,2.474899292E0
5.027594372E0,-1.366424561E-1,-1.012783813E1,2.450958252E0
5.030066295E0,-1.246795654E-1,-1.014221191E1,2.453353882E0
5.032538219E0,-1.270599365E-1,-1.013502502E1,2.448562622E0
5.034979625E0,-1.007232666E-1,-1.013023376E1,2.450958252E0
5.037451549E0,-9.834289551E-2,-1.010389709E1,2.391098022E0
5.039923473E0,-1.055145264E-1,-1.013742065E1,2.446166992E0
5.042364879E0,-8.876037598E-2,-1.013742065E1,2.448562622E0
5.044836803E0,-1.007232666E-1,-1.013502502E1,2.477294922E0
5.047308727E0,-1.079101562E-1,-1.012066650E1,2.455749512E0
5.049750133E0,-7.678222656E-2,-1.016375732E1,2.441375732E0
5.052222057E0,-9.834289551E-2,-1.015657043E1,2.458145142E0
5.054693981E0,-1.079101562E-1,-1.016854858E1,2.410263062E0
5.057135387E0,-1.605834961E-1,-1.023558044E1,2.460540771E0
5.059607311E0,-1.031188965E-1,-1.023318481E1,2.503631592E0
5.062079235E0,-9.834289551E-2,-1.022601318E1,2.448562622E0
5.064551159E0,-1.510009766E-1,-1.025233459E1,2.453353882E0
5.066992565E0,-1.486206055E-1,-1.025233459E1,2.417434692E0
5.069464489E0,-1.127014160E-1,-1.024995422E1,2.486877441E0
5.071936413E0,-1.318511963E-1,-1.025233459E1,2.427017212E0
5.074377819E0,-1.150970459E-1,-1.029304504E1,2.429412842E0
5.076849743E0,-1.270599365E-1,-1.025233459E1,2.417434692E0
5.079321666E0,-1.270599365E-1,-1.028106689E1,2.369552612E0
5.081763073E0,-8.396911621E-2,-1.020924377E1,2.336029053E0
5.084234997E0,-1.007232666E-1,-1.024755859E1,2.355194092E0
5.086706920E0,-9.115600586E-2,-1.023797607E1,2.324066162E0
5.089148327E0,-7.438659668E-2,-1.019728088E1,2.333648682E0
5.091620250E0,-4.566955566E-2,-1.018769836E1,2.357589722E0
5.094092174E0,-1.103057861E-1,-1.019728088E1,2.321670532E0
5.096564098E0,-9.355163574E-2,-1.017572021E1,2.321670532E0
5.099005504E0,-9.115600586E-2,-1.020684814E1,2.364761353E0
5.101477428E0,-1.294555664E-1,-1.020924377E1,2.319274902E0
