Time (s),Gyroscope x (rad/s),Gyroscope y (rad/s),Gyroscope z (rad/s)
19.00,-1.76,-1.30,1.44
19.00,-1.74,-1.30,1.49
19.00,-1.71,-1.31,1.53
19.00,-1.67,-1.32,1.57
19.01,-1.64,-1.34,1.60
19.01,-1.61,-1.38,1.63
19.01,-1.61,-1.44,1.64
19.01,-1.60,-1.50,1.63
19.02,-1.59,-1.54,1.61
19.02,-1.58,-1.58,1.58
19.02,-1.58,-1.60,1.55
19.02,-1.57,-1.62,1.51
19.03,-1.56,-1.63,1.48
19.03,-1.56,-1.65,1.45
19.03,-1.55,-1.67,1.41
19.03,-1.54,-1.68,1.38
19.04,-1.53,-1.67,1.35
19.04,-1.53,-1.66,1.31
19.04,-1.53,-1.63,1.27
19.04,-1.53,-1.61,1.23
19.05,-1.54,-1.57,1.18
19.05,-1.56,-1.53,1.14
19.05,-1.59,-1.47,1.10
19.05,-1.62,-1.40,1.06
19.06,-1.66,-1.32,1.03
19.06,-1.71,-1.24,1.01
19.06,-1.76,-1.17,0.98
19.06,-1.81,-1.12,0.96
19.07,-1.87,-1.06,0.93
19.07,-1.94,-1.01,0.90
19.07,-2.00,-0.94,0.86
19.07,-2.07,-0.89,0.82
19.08,-2.14,-0.86,0.77
19.08,-2.21,-0.83,0.73
19.08,-2.28,-0.81,0.69
19.08,-2.35,-0.79,0.65
19.09,-2.41,-0.77,0.60
19.09,-2.48,-0.75,0.56
19.09,-2.53,-0.72,0.52
19.09,-2.57,-0.69,0.48
19.10,-2.61,-0.67,0.45
19.10,-2.64,-0.66,0.42
19.10,-2.65,-0.66,0.41
19.10,-2.66,-0.66,0.40
19.11,-2.67,-0.67,0.39
19.11,-2.67,-0.68,0.40
19.11,-2.65,-0.69,0.41
19.11,-2.65,-0.71,0.43
19.12,-2.64,-0.72,0.45
19.12,-2.63,-0.72,0.49
19.12,-2.61,-0.73,0.54
19.12,-2.60,-0.74,0.59
19.13,-2.59,-0.74,0.65
19.13,-2.59,-0.73,0.71
19.13,-2.58,-0.73,0.77
19.13,-2.57,-0.72,0.84
19.14,-2.55,-0.72,0.92
19.14,-2.54,-0.71,1.00
19.14,-2.52,-0.71,1.08
19.14,-2.50,-0.71,1.14
19.15,-2.48,-0.71,1.19
19.15,-2.45,-0.71,1.22
19.15,-2.43,-0.70,1.23
19.15,-2.41,-0.71,1.23
19.16,-2.38,-0.71,1.23
19.16,-2.35,-0.70,1.21
19.16,-2.32,-0.67,1.21
19.16,-2.30,-0.64,1.19
19.17,-2.27,-0.64,1.18
19.17,-2.24,-0.64,1.16
19.17,-2.20,-0.66,1.15
19.17,-2.17,-0.69,1.14
19.18,-2.13,-0.72,1.13
19.18,-2.10,-0.76,1.12
19.18,-2.07,-0.80,1.11
19.18,-2.04,-0.84,1.11
19.19,-2.02,-0.89,1.10
19.19,-1.99,-0.93,1.09
19.19,-1.97,-0.97,1.08
19.19,-1.94,-1.01,1.07
19.20,-1.92,-1.05,1.05
19.20,-1.90,-1.08,1.04
19.20,-1.87,-1.12,1.02
19.20,-1.85,-1.15,1.00
19.21,-1.84,-1.19,0.98
19.21,-1.82,-1.22,0.96
19.21,-1.81,-1.26,0.94
19.21,-1.81,-1.30,0.92
19.22,-1.81,-1.33,0.90
19.22,-1.81,-1.36,0.89
19.22,-1.82,-1.38,0.87
19.22,-1.82,-1.40,0.85
19.23,-1.83,-1.41,0.85
19.23,-1.84,-1.41,0.84
19.23,-1.85,-1.41,0.84
19.23,-1.86,-1.41,0.83
19.24,-1.87,-1.40,0.83
19.24,-1.88,-1.39,0.83
19.24,-1.89,-1.36,0.83
19.24,-1.90,-1.34,0.83
19.25,-1.91,-1.32,0.83
19.25,-1.92,-1.30,0.83
19.25,-1.92,-1.29,0.84
19.25,-1.93,-1.29,0.84
19.26,-1.93,-1.29,0.85
19.26,-1.93,-1.27,0.85
19.26,-1.92,-1.26,0.86
19.26,-1.91,-1.25,0.86
19.27,-1.90,-1.23,0.86
19.27,-1.88,-1.22,0.85
19.27,-1.86,-1.21,0.85
19.27,-1.84,-1.21,0.85
19.28,-1.82,-1.21,0.85
19.28,-1.80,-1.21,0.85
19.28,-1.78,-1.21,0.85
19.28,-1.76,-1.24,0.86
19.29,-1.73,-1.35,0.87
19.29,-1.71,-1.36,0.86
19.29,-1.68,-1.34,0.83
19.29,-1.65,-1.33,0.81
19.30,-1.61,-1.30,0.79
19.30,-1.58,-1.26,0.77
19.30,-1.56,-1.22,0.75
19.30,-1.53,-1.19,0.73
19.31,-1.50,-1.16,0.72
19.31,-1.48,-1.12,0.70
19.31,-1.45,-1.09,0.68
19.31,-1.43,-1.05,0.67
19.32,-1.41,-1.02,0.65
19.32,-1.39,-1.00,0.63
19.32,-1.37,-0.98,0.61
19.32,-1.35,-0.96,0.58
19.33,-1.33,-0.94,0.56
19.33,-1.31,-0.93,0.54
19.33,-1.29,-0.91,0.51
19.33,-1.27,-0.88,0.48
19.34,-1.24,-0.86,0.46
19.34,-1.22,-0.84,0.43
19.34,-1.20,-0.82,0.40
19.34,-1.18,-0.81,0.37
19.35,-1.16,-0.80,0.35
19.35,-1.14,-0.78,0.33
19.35,-1.13,-0.77,0.32
19.35,-1.11,-0.76,0.30
19.36,-1.10,-0.75,0.28
19.36,-1.08,-0.74,0.25
19.36,-1.07,-0.73,0.23
19.36,-1.06,-0.72,0.21
19.37,-1.04,-0.71,0.19
19.37,-1.03,-0.69,0.17
19.37,-1.02,-0.68,0.15
19.37,-1.01,-0.67,0.14
19.38,-0.99,-0.66,0.12
19.38,-0.98,-0.65,0.11
19.38,-0.97,-0.63,0.10
19.38,-0.95,-0.61,0.09
19.39,-0.93,-0.58,0.08
19.39,-0.92,-0.56,0.07
19.39,-0.91,-0.54,0.06
19.39,-0.90,-0.52,0.06
19.40,-0.88,-0.50,0.05
19.40,-0.87,-0.48,0.04
19.40,-0.86,-0.46,0.02
19.40,-0.84,-0.44,0.02
19.41,-0.83,-0.43,0.01
19.41,-0.81,-0.40,0.00
19.41,-0.80,-0.38,0.00
19.41,-0.79,-0.36,-0.01
19.42,-0.78,-0.34,-0.02
19.42,-0.77,-0.33,-0.03
19.42,-0.75,-0.32,-0.04
19.42,-0.74,-0.31,-0.05
19.43,-0.73,-0.29,-0.06
19.43,-0.73,-0.28,-0.07
19.43,-0.72,-0.28,-0.08
19.43,-0.71,-0.26,-0.09
19.44,-0.71,-0.25,-0.10
19.44,-0.70,-0.23,-0.11
19.44,-0.70,-0.22,-0.12
19.44,-0.70,-0.21,-0.13
19.45,-0.69,-0.19,-0.15
19.45,-0.68,-0.17,-0.16
19.45,-0.67,-0.14,-0.17
19.45,-0.67,-0.11,-0.18
19.46,-0.67,-0.09,-0.19
19.46,-0.65,-0.06,-0.20
19.46,-0.65,-0.03,-0.20
19.46,-0.63,0.01,-0.21
19.47,-0.62,0.04,-0.22
19.47,-0.61,0.07,-0.23
19.47,-0.60,0.10,-0.25
19.47,-0.58,0.12,-0.26
19.48,-0.57,0.14,-0.27
19.48,-0.55,0.16,-0.28
19.48,-0.53,0.18,-0.28
19.48,-0.51,0.19,-0.27
19.49,-0.48,0.21,-0.27
19.49,-0.46,0.22,-0.28
19.49,-0.44,0.23,-0.30
19.49,-0.42,0.23,-0.31
19.50,-0.39,0.22,-0.32
19.50,-0.37,0.21,-0.33
19.50,-0.35,0.20,-0.33
19.50,-0.34,0.19,-0.34
19.51,-0.32,0.17,-0.34
19.51,-0.30,0.15,-0.34
19.51,-0.28,0.13,-0.35
19.51,-0.26,0.11,-0.35
19.52,-0.24,0.08,-0.35
19.52,-0.22,0.06,-0.35
19.52,-0.20,0.04,-0.35
19.52,-0.18,0.02,-0.35
19.53,-0.16,-0.01,-0.35
19.53,-0.14,-0.03,-0.35
19.53,-0.12,-0.05,-0.35
19.53,-0.10,-0.07,-0.34
19.54,-0.08,-0.09,-0.34
19.54,-0.06,-0.11,-0.34
19.54,-0.04,-0.12,-0.34
19.54,-0.03,-0.13,-0.34
19.55,-0.02,-0.14,-0.34
19.55,-0.01,-0.16,-0.34
19.55,0.00,-0.17,-0.35
19.55,0.01,-0.17,-0.35
19.56,0.01,-0.18,-0.35
19.56,0.01,-0.19,-0.36
19.56,0.02,-0.19,-0.36
19.56,0.02,-0.20,-0.37
19.57,0.01,-0.21,-0.38
19.57,0.02,-0.21,-0.40
19.57,0.02,-0.22,-0.41
19.57,0.03,-0.22,-0.43
19.58,0.03,-0.23,-0.44
19.58,0.04,-0.24,-0.46
19.58,0.05,-0.25,-0.48
19.58,0.06,-0.26,-0.50
19.59,0.07,-0.27,-0.52
19.59,0.08,-0.28,-0.54
19.59,0.10,-0.29,-0.56
19.59,0.11,-0.30,-0.58
19.60,0.12,-0.32,-0.60
19.60,0.13,-0.33,-0.62
19.60,0.13,-0.34,-0.63
19.60,0.13,-0.35,-0.64
19.61,0.13,-0.36,-0.65
19.61,0.13,-0.37,-0.66
19.61,0.12,-0.38,-0.67
19.61,0.11,-0.39,-0.66
19.62,0.09,-0.39,-0.65
19.62,0.07,-0.40,-0.64
19.62,0.04,-0.40,-0.62
19.62,0.01,-0.40,-0.59
19.63,-0.03,-0.40,-0.55
19.63,-0.05,-0.40,-0.51
19.63,-0.10,-0.40,-0.47
19.63,-0.13,-0.41,-0.42
19.64,-0.16,-0.41,-0.37
19.64,-0.18,-0.42,-0.31
19.64,-0.21,-0.44,-0.26
19.64,-0.23,-0.45,-0.20
19.65,-0.24,-0.46,-0.14
19.65,-0.25,-0.48,-0.08
19.65,-0.24,-0.52,-0.02
19.65,-0.23,-0.56,0.04
19.66,-0.20,-0.59,0.10
19.66,-0.18,-0.63,0.15
19.66,-0.15,-0.67,0.20
19.66,-0.12,-0.68,0.24
19.67,-0.08,-0.68,0.28
19.67,-0.04,-0.66,0.31
19.67,0.00,-0.62,0.34
19.67,0.04,-0.56,0.34
19.68,0.08,-0.49,0.33
19.68,0.11,-0.41,0.31
19.68,0.15,-0.32,0.28
19.68,0.20,-0.25,0.25
19.69,0.25,-0.18,0.21
19.69,0.30,-0.13,0.17
19.69,0.35,-0.08,0.12
19.69,0.41,-0.04,0.07
19.70,0.46,0.00,0.02
19.70,0.51,0.04,-0.03
19.70,0.56,0.09,-0.08
19.70,0.59,0.14,-0.12
19.71,0.62,0.20,-0.15
19.71,0.65,0.26,-0.19
19.71,0.67,0.34,-0.22
19.71,0.68,0.42,-0.26
19.72,0.69,0.49,-0.29
19.72,0.69,0.56,-0.31
19.72,0.69,0.63,-0.33
19.72,0.69,0.68,-0.35
19.73,0.68,0.72,-0.37
19.73,0.66,0.75,-0.40
19.73,0.65,0.76,-0.43
19.73,0.64,0.76,-0.46
19.74,0.62,0.74,-0.50
19.74,0.59,0.72,-0.54
19.74,0.56,0.70,-0.59
19.74,0.51,0.67,-0.65
19.75,0.47,0.63,-0.70
19.75,0.42,0.59,-0.74
19.75,0.38,0.56,-0.79
19.75,0.34,0.51,-0.82
19.76,0.32,0.47,-0.85
19.76,0.29,0.42,-0.87
19.76,0.28,0.38,-0.89
19.76,0.26,0.34,-0.90
19.77,0.26,0.30,-0.90
19.77,0.27,0.26,-0.90
19.77,0.28,0.23,-0.90
19.77,0.30,0.19,-0.89
19.78,0.32,0.18,-0.88
19.78,0.34,0.18,-0.86
19.78,0.35,0.22,-0.84
19.78,0.35,0.29,-0.82
19.79,0.35,0.38,-0.80
19.79,0.33,0.49,-0.78
19.79,0.31,0.61,-0.76
19.79,0.29,0.73,-0.74
19.80,0.28,0.85,-0.72
19.80,0.27,0.96,-0.71
19.80,0.26,1.05,-0.70
19.80,0.26,1.13,-0.69
19.81,0.27,1.19,-0.69
19.81,0.28,1.24,-0.68
19.81,0.31,1.27,-0.67
19.81,0.33,1.29,-0.65
19.82,0.37,1.30,-0.63
19.82,0.41,1.29,-0.61
19.82,0.45,1.27,-0.59
19.82,0.51,1.23,-0.56
19.83,0.56,1.19,-0.54
19.83,0.61,1.14,-0.51
19.83,0.67,1.07,-0.48
19.83,0.73,1.01,-0.45
19.84,0.78,0.93,-0.41
19.84,0.83,0.85,-0.38
19.84,0.88,0.78,-0.35
19.84,0.92,0.71,-0.33
19.85,0.96,0.65,-0.31
19.85,0.99,0.60,-0.29
19.85,1.01,0.55,-0.28
19.85,1.02,0.52,-0.27
19.86,1.02,0.50,-0.26
19.86,1.01,0.50,-0.25
19.86,0.99,0.49,-0.25
19.86,0.96,0.51,-0.25
19.87,0.93,0.54,-0.25
19.87,0.87,0.58,-0.25
19.87,0.82,0.63,-0.25
19.87,0.76,0.68,-0.25
19.88,0.69,0.73,-0.26
19.88,0.63,0.78,-0.27
19.88,0.57,0.84,-0.28
19.88,0.51,0.90,-0.29
19.89,0.45,0.95,-0.30
19.89,0.40,1.00,-0.31
19.89,0.36,1.04,-0.32
19.89,0.32,1.07,-0.34
19.90,0.30,1.09,-0.36
19.90,0.28,1.10,-0.38
19.90,0.27,1.10,-0.40
19.90,0.26,1.10,-0.42
19.91,0.26,1.10,-0.44
19.91,0.27,1.10,-0.46
19.91,0.27,1.10,-0.46
19.91,0.27,1.10,-0.47
19.92,0.27,1.11,-0.47
19.92,0.28,1.13,-0.47
19.92,0.28,1.15,-0.48
19.92,0.28,1.17,-0.47
19.93,0.29,1.20,-0.47
19.93,0.29,1.23,-0.48
19.93,0.29,1.27,-0.48
19.93,0.29,1.32,-0.49
19.94,0.29,1.37,-0.50
19.94,0.29,1.43,-0.50
19.94,0.30,1.48,-0.51
19.94,0.30,1.53,-0.51
19.95,0.31,1.57,-0.51
19.95,0.32,1.60,-0.50
19.95,0.34,1.61,-0.49
19.95,0.35,1.62,-0.48
19.96,0.37,1.63,-0.47
19.96,0.39,1.62,-0.47
19.96,0.41,1.62,-0.46
19.96,0.44,1.60,-0.46
19.97,0.48,1.58,-0.45
19.97,0.51,1.54,-0.44
19.97,0.54,1.48,-0.42
19.97,0.58,1.43,-0.41
19.98,0.61,1.39,-0.40
19.98,0.63,1.35,-0.39
19.98,0.66,1.30,-0.39
19.98,0.68,1.23,-0.38
19.99,0.69,1.16,-0.39
19.99,0.70,1.10,-0.40
19.99,0.70,1.05,-0.40
19.99,0.71,1.03,-0.39
20.00,0.72,1.02,-0.38
20.00,0.72,1.01,-0.36
20.00,0.73,0.99,-0.35
20.00,0.73,0.95,-0.33
20.01,0.75,0.87,-0.31
20.01,0.76,0.78,-0.30
20.01,0.75,0.76,-0.31
20.01,0.73,0.79,-0.32
20.02,0.72,0.81,-0.33
20.02,0.71,0.81,-0.34
20.02,0.72,0.81,-0.33
20.02,0.72,0.81,-0.33
20.03,0.74,0.82,-0.32
20.03,0.75,0.85,-0.33
20.03,0.75,0.90,-0.34
20.03,0.76,0.96,-0.36
20.04,0.77,1.01,-0.39
20.04,0.78,1.04,-0.41
20.04,0.80,1.05,-0.42
20.04,0.83,1.02,-0.42
20.05,0.87,0.99,-0.42
20.05,0.90,0.96,-0.41
20.05,0.93,0.94,-0.39
20.05,0.95,0.93,-0.38
20.06,0.96,0.94,-0.37
20.06,0.97,0.95,-0.36
20.06,0.97,0.97,-0.36
20.06,0.96,0.99,-0.35
20.07,0.94,1.02,-0.34
20.07,0.93,1.04,-0.33
20.07,0.91,1.05,-0.32
20.07,0.88,1.05,-0.32
20.08,0.86,1.04,-0.30
20.08,0.84,1.04,-0.29
20.08,0.83,1.03,-0.28
20.08,0.81,1.02,-0.28
20.09,0.79,1.02,-0.28
20.09,0.76,1.04,-0.27
20.09,0.74,1.07,-0.26
20.09,0.72,1.10,-0.24
20.10,0.70,1.14,-0.23
20.10,0.69,1.17,-0.21
20.10,0.69,1.19,-0.20
20.10,0.69,1.21,-0.19
20.11,0.69,1.22,-0.19
20.11,0.69,1.23,-0.20
20.11,0.68,1.25,-0.20
20.11,0.67,1.27,-0.20
20.12,0.68,1.23,-0.21
20.12,0.69,1.20,-0.23
20.12,0.68,1.21,-0.23
20.12,0.67,1.24,-0.24
20.13,0.65,1.29,-0.24
20.13,0.64,1.34,-0.24
20.13,0.62,1.38,-0.23
20.13,0.60,1.40,-0.23
20.14,0.58,1.41,-0.23
20.14,0.56,1.43,-0.24
20.14,0.54,1.46,-0.24
20.14,0.52,1.48,-0.24
20.15,0.51,1.51,-0.23
20.15,0.49,1.54,-0.22
20.15,0.48,1.57,-0.21
20.15,0.46,1.59,-0.21
20.16,0.45,1.61,-0.22
20.16,0.44,1.64,-0.23
20.16,0.41,1.64,-0.24
20.16,0.39,1.64,-0.25
20.17,0.37,1.65,-0.25
20.17,0.35,1.68,-0.23
20.17,0.35,1.71,-0.21
20.17,0.34,1.75,-0.18
20.18,0.33,1.77,-0.16
20.18,0.32,1.77,-0.14
20.18,0.30,1.77,-0.13
20.18,0.29,1.76,-0.11
20.19,0.28,1.74,-0.11
20.19,0.27,1.72,-0.09
20.19,0.26,1.70,-0.08
20.19,0.25,1.68,-0.06
20.20,0.24,1.66,-0.03
20.20,0.24,1.66,0.03
20.20,0.25,1.67,0.08
20.20,0.25,1.64,0.14
20.21,0.26,1.61,0.18
20.21,0.27,1.57,0.21
20.21,0.28,1.53,0.23
20.21,0.29,1.48,0.25
20.22,0.29,1.44,0.27
20.22,0.30,1.41,0.28
20.22,0.30,1.39,0.30
20.22,0.30,1.37,0.31
20.23,0.30,1.35,0.31
20.23,0.30,1.32,0.32
20.23,0.31,1.29,0.32
20.23,0.30,1.27,0.32
20.24,0.30,1.24,0.32
20.24,0.30,1.21,0.31
20.24,0.30,1.18,0.31
20.24,0.31,1.15,0.30
20.25,0.31,1.12,0.29
20.25,0.32,1.08,0.29
20.25,0.32,1.04,0.28
20.25,0.33,1.01,0.27
20.26,0.34,0.99,0.25
20.26,0.36,0.95,0.25
20.26,0.36,0.93,0.24
20.26,0.37,0.90,0.22
20.27,0.38,0.88,0.21
20.27,0.38,0.85,0.20
20.27,0.39,0.83,0.19
20.27,0.39,0.81,0.18
20.28,0.40,0.79,0.17
20.28,0.40,0.78,0.17
20.28,0.40,0.77,0.16
20.28,0.40,0.75,0.15
20.29,0.41,0.74,0.14
20.29,0.41,0.73,0.13
20.29,0.42,0.72,0.12
20.29,0.42,0.71,0.11
20.30,0.43,0.69,0.11
20.30,0.44,0.67,0.10
20.30,0.44,0.66,0.08
20.30,0.45,0.64,0.07
20.31,0.45,0.62,0.07
20.31,0.45,0.60,0.06
20.31,0.45,0.59,0.04
20.31,0.46,0.57,0.03
20.32,0.46,0.55,0.02
20.32,0.47,0.53,0.01
20.32,0.48,0.52,0.00
20.32,0.48,0.50,-0.01
20.33,0.48,0.48,-0.03
20.33,0.48,0.48,-0.04
20.33,0.48,0.47,-0.06
20.33,0.48,0.45,-0.09
20.34,0.48,0.45,-0.12
20.34,0.48,0.47,-0.12
20.34,0.50,0.49,-0.10
20.34,0.51,0.51,-0.09
20.35,0.52,0.52,-0.08
20.35,0.54,0.54,-0.06
20.35,0.56,0.55,-0.05
20.35,0.58,0.57,-0.04
20.36,0.60,0.58,-0.02
20.36,0.62,0.60,-0.01
20.36,0.65,0.61,0.00
20.36,0.67,0.62,0.01
20.37,0.69,0.63,0.00
20.37,0.71,0.65,0.01
20.37,0.73,0.67,0.01
20.37,0.74,0.68,0.02
20.38,0.76,0.71,0.03
20.38,0.77,0.74,0.05
20.38,0.78,0.75,0.05
20.38,0.78,0.75,0.05
20.39,0.78,0.74,0.05
20.39,0.77,0.74,0.04
20.39,0.78,0.78,0.05
20.39,0.78,0.81,0.09
20.40,0.78,0.81,0.10
20.40,0.79,0.82,0.12
20.40,0.79,0.83,0.12
20.40,0.79,0.84,0.13
20.41,0.80,0.85,0.14
20.41,0.81,0.85,0.14
20.41,0.82,0.86,0.15
20.41,0.83,0.86,0.16
20.42,0.84,0.86,0.17
20.42,0.85,0.87,0.16
20.42,0.87,0.88,0.15
20.42,0.89,0.90,0.14
20.43,0.91,0.90,0.13
20.43,0.93,0.90,0.13
20.43,0.95,0.90,0.13
20.43,0.96,0.90,0.13
20.44,0.98,0.91,0.13
20.44,1.00,0.93,0.14
20.44,1.01,0.94,0.15
20.44,1.02,0.94,0.16
20.45,1.03,0.94,0.16
20.45,1.03,0.95,0.16
20.45,1.02,0.95,0.17
20.45,1.01,0.95,0.18
20.46,0.99,0.96,0.18
20.46,0.96,0.97,0.18
20.46,0.94,0.99,0.19
20.46,0.91,1.01,0.19
20.47,0.87,1.02,0.20
20.47,0.85,1.04,0.19
20.47,0.86,1.12,0.18
20.47,1.01,1.38,0.11
20.48,0.97,1.32,0.16
20.48,0.82,1.10,0.26
20.48,0.71,1.06,0.25
20.48,0.63,1.06,0.23
20.49,0.53,0.99,0.27
20.49,0.43,0.92,0.28
20.49,0.36,0.88,0.28
20.49,0.29,0.83,0.29
20.50,0.23,0.77,0.30
20.50,0.17,0.72,0.30
20.50,0.12,0.69,0.30
20.50,0.09,0.65,0.30
20.51,0.06,0.61,0.30
20.51,0.05,0.58,0.32
20.51,0.03,0.54,0.32
20.51,0.04,0.51,0.31
20.52,0.04,0.48,0.32
20.52,0.06,0.44,0.32
20.52,0.08,0.41,0.32
20.52,0.10,0.37,0.32
20.53,0.11,0.34,0.31
20.53,0.12,0.31,0.30
20.53,0.13,0.29,0.28
20.53,0.14,0.27,0.26
20.54,0.13,0.25,0.24
20.54,0.13,0.23,0.21
20.54,0.11,0.21,0.18
20.54,0.10,0.20,0.16
20.55,0.08,0.19,0.14
20.55,0.06,0.19,0.12
20.55,0.04,0.20,0.10
20.55,0.03,0.20,0.09
20.56,0.01,0.20,0.09
20.56,-0.01,0.19,0.09
20.56,-0.02,0.19,0.09
20.56,-0.04,0.18,0.10
20.57,-0.05,0.16,0.10
20.57,-0.06,0.14,0.11
20.57,-0.09,0.11,0.13
20.57,-0.12,0.08,0.14
20.58,-0.14,0.05,0.15
20.58,-0.17,0.01,0.15
20.58,-0.20,-0.04,0.17
20.58,-0.24,-0.09,0.18
20.59,-0.28,-0.14,0.19
20.59,-0.33,-0.20,0.19
20.59,-0.37,-0.26,0.20
20.59,-0.43,-0.31,0.21
20.60,-0.48,-0.37,0.22
20.60,-0.53,-0.44,0.22
20.60,-0.59,-0.50,0.24
20.60,-0.65,-0.57,0.25
20.61,-0.71,-0.65,0.26
20.61,-0.77,-0.72,0.28
20.61,-0.84,-0.80,0.29
20.61,-0.90,-0.86,0.30
20.62,-0.96,-0.93,0.31
20.62,-1.02,-1.01,0.33
20.62,-1.07,-1.07,0.34
20.62,-1.12,-1.14,0.36
20.63,-1.17,-1.20,0.38
20.63,-1.22,-1.26,0.40
20.63,-1.26,-1.31,0.42
20.63,-1.30,-1.34,0.43
20.64,-1.34,-1.38,0.45
20.64,-1.38,-1.43,0.49
20.64,-1.41,-1.46,0.52
20.64,-1.44,-1.49,0.55
20.65,-1.46,-1.52,0.59
20.65,-1.48,-1.56,0.63
20.65,-1.51,-1.60,0.69
20.65,-1.54,-1.65,0.74
20.66,-1.59,-1.70,0.80
20.66,-1.63,-1.75,0.86
20.66,-1.67,-1.80,0.93
20.66,-1.71,-1.86,1.00
20.67,-1.76,-1.93,1.06
20.67,-1.81,-2.01,1.13
20.67,-1.85,-2.08,1.20
20.67,-1.90,-2.15,1.27
20.68,-1.94,-2.22,1.34
20.68,-1.97,-2.28,1.42
20.68,-2.00,-2.34,1.50
20.68,-2.04,-2.39,1.57
20.69,-2.06,-2.44,1.65
20.69,-2.08,-2.48,1.73
20.69,-2.09,-2.51,1.80
20.69,-2.09,-2.53,1.87
20.70,-2.08,-2.53,1.95
20.70,-2.06,-2.50,2.02
20.70,-2.04,-2.47,2.08
20.70,-2.01,-2.41,2.14
20.71,-1.97,-2.33,2.18
20.71,-1.92,-2.24,2.23
20.71,-1.87,-2.14,2.27
20.71,-1.81,-2.02,2.30
20.72,-1.75,-1.89,2.34
20.72,-1.68,-1.77,2.38
20.72,-1.62,-1.66,2.41
20.72,-1.56,-1.56,2.45
20.73,-1.51,-1.48,2.47
20.73,-1.46,-1.42,2.50
20.73,-1.43,-1.37,2.52
20.73,-1.41,-1.33,2.53
20.74,-1.40,-1.31,2.54
20.74,-1.40,-1.30,2.54
20.74,-1.41,-1.30,2.55
20.74,-1.43,-1.30,2.54
20.75,-1.46,-1.30,2.53
20.75,-1.50,-1.28,2.52
20.75,-1.55,-1.26,2.49
20.75,-1.61,-1.24,2.45
20.76,-1.68,-1.21,2.41
20.76,-1.75,-1.18,2.36
20.76,-1.84,-1.17,2.32
20.76,-1.92,-1.16,2.28
20.77,-2.00,-1.14,2.24
20.77,-2.09,-1.13,2.20
20.77,-2.17,-1.13,2.15
20.77,-2.24,-1.12,2.09
20.78,-2.31,-1.11,2.03
20.78,-2.37,-1.10,1.96
20.78,-2.42,-1.09,1.89
20.78,-2.46,-1.08,1.82
20.79,-2.49,-1.08,1.76
20.79,-2.51,-1.08,1.70
20.79,-2.52,-1.09,1.65
20.79,-2.52,-1.10,1.60
20.80,-2.50,-1.11,1.55
20.80,-2.48,-1.11,1.51
20.80,-2.45,-1.10,1.48
20.80,-2.41,-1.09,1.46
20.81,-2.37,-1.08,1.43
20.81,-2.32,-1.06,1.42
20.81,-2.26,-1.03,1.41
20.81,-2.20,-1.01,1.41
20.82,-2.14,-0.98,1.41
20.82,-2.07,-0.95,1.40
20.82,-1.99,-0.92,1.40
20.82,-1.92,-0.87,1.38
20.83,-1.85,-0.83,1.36
20.83,-1.80,-0.76,1.35
20.83,-1.74,-0.69,1.33
20.83,-1.69,-0.61,1.33
20.84,-1.66,-0.53,1.33
20.84,-1.63,-0.45,1.33
20.84,-1.62,-0.37,1.33
20.84,-1.63,-0.29,1.34
20.85,-1.64,-0.23,1.37
20.85,-1.65,-0.19,1.40
20.85,-1.63,-0.20,1.43
20.85,-1.61,-0.22,1.46
20.86,-1.60,-0.23,1.49
20.86,-1.60,-0.23,1.51
20.86,-1.61,-0.23,1.54
20.86,-1.63,-0.22,1.56
20.87,-1.65,-0.23,1.58
20.87,-1.66,-0.25,1.59
20.87,-1.68,-0.28,1.59
20.87,-1.71,-0.32,1.58
20.88,-1.73,-0.36,1.57
20.88,-1.75,-0.39,1.56
20.88,-1.77,-0.43,1.54
20.88,-1.79,-0.47,1.53
20.89,-1.80,-0.50,1.51
20.89,-1.81,-0.54,1.48
20.89,-1.81,-0.56,1.45
20.89,-1.82,-0.59,1.42
20.90,-1.81,-0.62,1.38
20.90,-1.81,-0.65,1.34
20.90,-1.79,-0.67,1.30
20.90,-1.78,-0.70,1.26
20.91,-1.76,-0.72,1.22
20.91,-1.74,-0.73,1.19
20.91,-1.72,-0.75,1.15
20.91,-1.70,-0.76,1.12
20.92,-1.67,-0.77,1.10
20.92,-1.66,-0.78,1.08
20.92,-1.63,-0.79,1.06
20.92,-1.62,-0.79,1.04
20.93,-1.60,-0.79,1.03
20.93,-1.58,-0.78,1.01
20.93,-1.56,-0.77,1.00
20.93,-1.54,-0.76,0.98
20.94,-1.52,-0.74,0.96
20.94,-1.51,-0.73,0.94
20.94,-1.49,-0.72,0.93
20.94,-1.47,-0.71,0.91
20.95,-1.45,-0.69,0.90
20.95,-1.44,-0.68,0.89
20.95,-1.43,-0.66,0.88
20.95,-1.42,-0.65,0.88
20.96,-1.40,-0.64,0.87
20.96,-1.38,-0.63,0.85
20.96,-1.37,-0.62,0.84
20.96,-1.35,-0.62,0.82
20.97,-1.32,-0.62,0.80
20.97,-1.29,-0.63,0.79
20.97,-1.27,-0.65,0.77
20.97,-1.23,-0.66,0.75
20.98,-1.20,-0.68,0.74
20.98,-1.17,-0.69,0.73
20.98,-1.13,-0.70,0.71
20.98,-1.09,-0.69,0.69
20.99,-1.06,-0.70,0.67
20.99,-1.02,-0.70,0.66
20.99,-0.98,-0.69,0.63
20.99,-0.95,-0.68,0.61
21.00,-0.92,-0.66,0.59
21.00,-0.90,-0.64,0.57
21.00,-0.87,-0.62,0.54
21.00,-0.84,-0.58,0.52
21.01,-0.82,-0.55,0.50
21.01,-0.81,-0.51,0.48
21.01,-0.79,-0.47,0.45
21.01,-0.78,-0.44,0.42
21.02,-0.78,-0.39,0.39
21.02,-0.78,-0.36,0.36
21.02,-0.78,-0.31,0.33
21.02,-0.79,-0.27,0.30
21.03,-0.79,-0.23,0.27
21.03,-0.80,-0.18,0.24
21.03,-0.81,-0.13,0.21
21.03,-0.82,-0.09,0.18
21.04,-0.83,-0.05,0.15
21.04,-0.84,-0.01,0.13
21.04,-0.85,0.04,0.10
21.04,-0.85,0.07,0.07
21.05,-0.85,0.11,0.04
21.05,-0.85,0.14,0.02
21.05,-0.84,0.17,0.00
21.05,-0.84,0.19,-0.03
21.06,-0.82,0.21,-0.05
21.06,-0.80,0.21,-0.07
21.06,-0.77,0.21,-0.09
21.06,-0.74,0.20,-0.11
21.07,-0.70,0.17,-0.13
21.07,-0.66,0.14,-0.15
21.07,-0.61,0.11,-0.17
21.07,-0.56,0.08,-0.19
21.08,-0.51,0.03,-0.20
21.08,-0.46,-0.02,-0.22
21.08,-0.41,-0.06,-0.24
21.08,-0.35,-0.11,-0.25
21.09,-0.30,-0.16,-0.26
21.09,-0.24,-0.21,-0.27
21.09,-0.19,-0.25,-0.29
21.09,-0.14,-0.28,-0.30
21.10,-0.09,-0.32,-0.32
21.10,-0.04,-0.35,-0.33
21.10,0.01,-0.38,-0.34
21.10,0.05,-0.42,-0.35
21.11,0.10,-0.45,-0.37
21.11,0.14,-0.47,-0.38
21.11,0.18,-0.49,-0.38
21.11,0.21,-0.51,-0.39
21.12,0.24,-0.53,-0.40
21.12,0.27,-0.54,-0.40
21.12,0.30,-0.54,-0.40
21.12,0.32,-0.54,-0.40
21.13,0.34,-0.53,-0.41
21.13,0.35,-0.52,-0.41
21.13,0.36,-0.51,-0.40
21.13,0.36,-0.49,-0.40
21.14,0.36,-0.46,-0.41
21.14,0.36,-0.43,-0.41
21.14,0.36,-0.39,-0.42
21.14,0.35,-0.36,-0.42
21.15,0.34,-0.32,-0.43
21.15,0.33,-0.28,-0.44
21.15,0.32,-0.25,-0.46
21.15,0.32,-0.22,-0.47
21.16,0.31,-0.18,-0.48
21.16,0.30,-0.15,-0.50
21.16,0.29,-0.13,-0.51
21.16,0.29,-0.10,-0.53
21.17,0.29,-0.08,-0.54
21.17,0.29,-0.06,-0.56
21.17,0.28,-0.04,-0.57
21.17,0.28,-0.03,-0.59
21.18,0.28,-0.02,-0.61
21.18,0.28,-0.01,-0.63
21.18,0.29,0.00,-0.64
21.18,0.30,0.00,-0.66
21.19,0.31,0.01,-0.68
21.19,0.32,0.01,-0.70
21.19,0.34,0.01,-0.71
21.19,0.35,0.01,-0.73
21.20,0.36,0.01,-0.74
21.20,0.36,0.01,-0.76
21.20,0.37,0.01,-0.78
21.20,0.37,0.00,-0.80
21.21,0.37,0.00,-0.81
21.21,0.36,0.00,-0.81
21.21,0.33,-0.01,-0.80
21.21,0.31,-0.03,-0.77
21.22,0.28,-0.05,-0.74
21.22,0.23,-0.08,-0.69
21.22,0.18,-0.11,-0.66
21.22,0.14,-0.14,-0.62
21.23,0.11,-0.18,-0.59
21.23,0.08,-0.21,-0.55
21.23,0.07,-0.24,-0.51
21.23,0.05,-0.28,-0.46
21.24,0.03,-0.31,-0.40
21.24,0.00,-0.35,-0.35
21.24,-0.03,-0.38,-0.29
21.25,-0.06,-0.39,-0.25
21.25,-0.10,-0.40,-0.21
21.25,-0.14,-0.40,-0.18
21.25,-0.17,-0.38,-0.16
21.26,-0.21,-0.35,-0.15
21.26,-0.23,-0.31,-0.15
21.26,-0.25,-0.25,-0.17
21.26,-0.26,-0.18,-0.19
21.26,-0.27,-0.09,-0.21
21.27,-0.27,0.01,-0.22
21.27,-0.26,0.12,-0.24
21.27,-0.25,0.23,-0.27
21.27,-0.22,0.33,-0.29
21.28,-0.20,0.43,-0.33
21.28,-0.19,0.51,-0.36
21.28,-0.17,0.58,-0.41
21.28,-0.14,0.63,-0.45
21.29,-0.12,0.67,-0.49
21.29,-0.09,0.68,-0.54
21.29,-0.06,0.69,-0.59
21.29,-0.02,0.68,-0.64
21.30,0.03,0.66,-0.69
21.30,0.09,0.62,-0.75
21.30,0.16,0.57,-0.80
21.30,0.24,0.50,-0.85
21.31,0.33,0.42,-0.88
21.31,0.43,0.33,-0.91
21.31,0.52,0.24,-0.92
21.31,0.60,0.15,-0.92
21.32,0.69,0.06,-0.91
21.32,0.76,-0.02,-0.90
21.32,0.83,-0.10,-0.89
21.32,0.88,-0.17,-0.87
21.33,0.92,-0.24,-0.87
21.33,0.94,-0.30,-0.86
21.33,0.95,-0.35,-0.86
21.33,0.94,-0.38,-0.87
21.34,0.92,-0.39,-0.88
21.34,0.88,-0.38,-0.89
21.34,0.83,-0.36,-0.89
21.34,0.78,-0.33,-0.90
21.35,0.71,-0.29,-0.90
21.35,0.65,-0.25,-0.91
21.35,0.58,-0.20,-0.93
21.35,0.51,-0.16,-0.94
21.36,0.45,-0.11,-0.94
21.36,0.38,-0.06,-0.94
21.36,0.33,-0.01,-0.94
21.36,0.28,0.04,-0.94
21.37,0.23,0.10,-0.94
21.37,0.19,0.15,-0.94
21.37,0.17,0.21,-0.94
21.37,0.16,0.27,-0.94
21.38,0.15,0.32,-0.94
21.38,0.17,0.37,-0.94
21.38,0.19,0.41,-0.94
21.38,0.23,0.44,-0.93
21.39,0.28,0.46,-0.91
21.39,0.33,0.48,-0.90
21.39,0.39,0.49,-0.89
21.39,0.45,0.50,-0.86
21.40,0.52,0.49,-0.85
21.40,0.57,0.48,-0.83
21.40,0.62,0.46,-0.81
21.40,0.67,0.43,-0.79
21.41,0.71,0.40,-0.77
21.41,0.74,0.36,-0.75
21.41,0.76,0.33,-0.73
21.41,0.78,0.31,-0.72
21.42,0.78,0.28,-0.71
21.42,0.78,0.26,-0.69
21.42,0.76,0.24,-0.69
21.42,0.75,0.22,-0.68
21.43,0.71,0.20,-0.67
21.43,0.68,0.17,-0.66
21.43,0.65,0.14,-0.65
21.43,0.61,0.11,-0.64
21.44,0.56,0.11,-0.65
21.44,0.50,0.13,-0.67
21.44,0.44,0.19,-0.71
21.44,0.37,0.22,-0.74
21.45,0.33,0.25,-0.76
21.45,0.28,0.27,-0.79
21.45,0.22,0.32,-0.82
21.45,0.17,0.39,-0.85
21.46,0.13,0.46,-0.87
21.46,0.09,0.52,-0.89
21.46,0.08,0.56,-0.89
21.46,0.08,0.57,-0.89
21.47,0.08,0.57,-0.88
21.47,0.10,0.57,-0.88
21.47,0.13,0.57,-0.87
21.47,0.16,0.57,-0.85
21.48,0.20,0.59,-0.84
21.48,0.25,0.61,-0.83
21.48,0.30,0.65,-0.81
21.48,0.36,0.68,-0.79
21.49,0.42,0.72,-0.76
21.49,0.47,0.77,-0.73
21.49,0.52,0.85,-0.70
21.49,0.57,0.95,-0.67
21.50,0.61,1.04,-0.64
21.50,0.64,1.13,-0.60
21.50,0.67,1.21,-0.56
21.50,0.68,1.27,-0.53
21.51,0.70,1.31,-0.49
21.51,0.71,1.33,-0.45
21.51,0.73,1.34,-0.39
21.51,0.74,1.33,-0.33
21.52,0.75,1.30,-0.26
21.52,0.77,1.23,-0.20
21.52,0.79,1.17,-0.15
21.52,0.77,1.17,-0.13
21.53,0.74,1.21,-0.12
21.53,0.72,1.26,-0.13
21.53,0.70,1.31,-0.12
21.53,0.68,1.35,-0.12
21.54,0.66,1.38,-0.12
21.54,0.66,1.40,-0.13
21.54,0.65,1.40,-0.13
21.54,0.65,1.40,-0.14
21.55,0.65,1.38,-0.14
21.55,0.66,1.35,-0.16
21.55,0.66,1.32,-0.17
21.55,0.67,1.29,-0.16
21.56,0.69,1.26,-0.17
21.56,0.70,1.22,-0.18
21.56,0.72,1.19,-0.19
21.56,0.73,1.17,-0.20
21.57,0.74,1.15,-0.21
21.57,0.75,1.13,-0.22
21.57,0.76,1.11,-0.22
21.57,0.77,1.10,-0.23
21.58,0.78,1.09,-0.23
21.58,0.78,1.08,-0.23
21.58,0.79,1.09,-0.23
21.58,0.80,1.09,-0.22
21.59,0.81,1.11,-0.21
21.59,0.82,1.12,-0.20
21.59,0.82,1.14,-0.19
21.59,0.83,1.17,-0.18
21.60,0.84,1.19,-0.17
21.60,0.85,1.21,-0.17
21.60,0.85,1.22,-0.17
21.60,0.85,1.22,-0.16
21.61,0.85,1.23,-0.15
21.61,0.84,1.24,-0.14
21.61,0.84,1.25,-0.14
21.61,0.82,1.26,-0.12
21.62,0.81,1.25,-0.12
21.62,0.78,1.25,-0.11
21.62,0.76,1.25,-0.11
21.62,0.72,1.25,-0.10
21.63,0.68,1.25,-0.09
21.63,0.65,1.25,-0.09
21.63,0.60,1.25,-0.08
21.63,0.56,1.26,-0.08
21.64,0.52,1.27,-0.07
21.64,0.48,1.27,-0.06
21.64,0.45,1.27,-0.06
21.64,0.41,1.27,-0.07
21.65,0.38,1.26,-0.07
21.65,0.35,1.27,-0.06
21.65,0.32,1.28,-0.05
21.65,0.29,1.29,-0.03
21.66,0.27,1.30,-0.02
21.66,0.25,1.30,-0.01
21.66,0.23,1.32,-0.01
21.66,0.22,1.33,0.00
21.67,0.20,1.35,0.00
21.67,0.18,1.38,0.01
21.67,0.18,1.41,0.03
21.67,0.16,1.43,0.04
21.68,0.15,1.46,0.05
21.68,0.14,1.49,0.07
21.68,0.14,1.51,0.07
21.68,0.14,1.52,0.06
21.69,0.14,1.52,0.07
21.69,0.15,1.52,0.07
21.69,0.15,1.51,0.07
21.69,0.16,1.49,0.08
21.70,0.17,1.47,0.08
21.70,0.18,1.45,0.07
21.70,0.19,1.42,0.07
21.70,0.21,1.38,0.06
21.71,0.22,1.35,0.05
21.71,0.23,1.32,0.05
21.71,0.23,1.29,0.04
21.71,0.24,1.26,0.04
21.72,0.25,1.23,0.04
21.72,0.27,1.21,0.04
21.72,0.27,1.19,0.03
21.72,0.28,1.15,0.02
21.73,0.28,1.12,0.01
21.73,0.28,1.07,-0.01
21.73,0.28,1.02,-0.03
21.73,0.28,0.98,-0.05
21.74,0.28,0.93,-0.08
21.74,0.27,0.89,-0.10
21.74,0.25,0.85,-0.11
21.74,0.25,0.81,-0.13
21.75,0.23,0.78,-0.14
21.75,0.22,0.75,-0.15
21.75,0.21,0.70,-0.16
21.75,0.20,0.67,-0.17
21.76,0.18,0.63,-0.17
21.76,0.17,0.60,-0.17
21.76,0.17,0.55,-0.17
21.76,0.15,0.51,-0.18
21.77,0.15,0.46,-0.17
21.77,0.15,0.42,-0.16
21.77,0.15,0.39,-0.15
21.77,0.15,0.35,-0.13
21.78,0.15,0.31,-0.11
21.78,0.16,0.26,-0.09
21.78,0.18,0.22,-0.07
21.78,0.19,0.17,-0.05
21.79,0.21,0.14,-0.04
21.79,0.22,0.12,-0.03
21.79,0.24,0.09,-0.01
21.79,0.25,0.08,0.00
21.80,0.27,0.05,0.02
21.80,0.28,0.04,0.03
21.80,0.30,0.02,0.04
21.80,0.31,0.01,0.05
21.81,0.33,-0.01,0.06
21.81,0.34,-0.01,0.07
21.81,0.35,-0.02,0.07
21.81,0.35,-0.02,0.08
21.82,0.36,-0.03,0.10
21.82,0.36,-0.02,0.11
21.82,0.36,-0.01,0.11
21.82,0.36,-0.01,0.11
21.83,0.37,-0.01,0.12
21.83,0.37,-0.01,0.12
21.83,0.36,-0.01,0.12
21.83,0.36,-0.01,0.11
21.84,0.36,-0.01,0.11
21.84,0.35,-0.01,0.10
21.84,0.34,-0.01,0.10
21.84,0.33,-0.01,0.09
21.85,0.32,-0.01,0.08
21.85,0.31,-0.01,0.08
21.85,0.30,0.00,0.07
21.85,0.30,0.00,0.07
21.86,0.29,0.01,0.06
21.86,0.28,0.01,0.05
21.86,0.28,0.02,0.04
21.86,0.28,0.03,0.03
21.87,0.28,0.04,0.03
21.87,0.28,0.05,0.02
21.87,0.29,0.06,0.01
21.87,0.30,0.06,-0.01
21.88,0.31,0.07,-0.02
21.88,0.33,0.07,-0.03
21.88,0.34,0.08,-0.05
21.88,0.36,0.08,-0.06
21.89,0.37,0.09,-0.07
21.89,0.38,0.10,-0.08
21.89,0.39,0.11,-0.09
21.89,0.40,0.12,-0.10
21.90,0.40,0.15,-0.11
21.90,0.39,0.18,-0.11
21.90,0.38,0.22,-0.12
21.90,0.37,0.25,-0.13
21.91,0.35,0.28,-0.14
21.91,0.33,0.31,-0.14
21.91,0.30,0.34,-0.14
21.91,0.27,0.37,-0.13
21.92,0.25,0.39,-0.12
21.92,0.22,0.40,-0.09
21.92,0.20,0.40,-0.06
21.92,0.18,0.39,-0.03
21.93,0.17,0.38,0.00
21.93,0.16,0.38,0.03
21.93,0.15,0.37,0.06
21.93,0.15,0.37,0.09
21.94,0.14,0.36,0.11
21.94,0.13,0.36,0.13
21.94,0.13,0.35,0.14
21.94,0.13,0.33,0.15
21.95,0.13,0.31,0.16
21.95,0.13,0.28,0.18
21.95,0.13,0.24,0.20
21.95,0.13,0.20,0.23
21.96,0.12,0.15,0.26
21.96,0.12,0.11,0.28
21.96,0.11,0.06,0.29
21.96,0.11,0.00,0.31
21.97,0.10,-0.04,0.33
21.97,0.08,-0.10,0.34
21.97,0.05,-0.16,0.34
21.97,0.03,-0.22,0.35
21.98,0.01,-0.28,0.35
21.98,-0.01,-0.35,0.35
21.98,-0.04,-0.41,0.35
21.98,-0.07,-0.48,0.34
21.99,-0.11,-0.54,0.33
21.99,-0.12,-0.60,0.33
21.99,-0.15,-0.66,0.32
21.99,-0.17,-0.71,0.32
22.00,-0.20,-0.76,0.32
22.00,-0.22,-0.80,0.32
22.00,-0.25,-0.83,0.32
22.00,-0.28,-0.85,0.32
22.01,-0.31,-0.87,0.33
22.01,-0.34,-0.88,0.33
22.01,-0.38,-0.88,0.35
22.01,-0.42,-0.88,0.36
22.02,-0.47,-0.88,0.38
22.02,-0.51,-0.89,0.40
22.02,-0.57,-0.89,0.42
22.02,-0.63,-0.89,0.45
22.03,-0.69,-0.90,0.48
22.03,-0.76,-0.92,0.52
22.03,-0.83,-0.94,0.55
22.03,-0.90,-0.96,0.59
22.04,-0.98,-0.99,0.63
22.04,-1.05,-1.03,0.67
22.04,-1.13,-1.05,0.71
22.04,-1.20,-1.08,0.76
22.05,-1.29,-1.11,0.80
22.05,-1.38,-1.14,0.85
22.05,-1.46,-1.16,0.90
22.05,-1.54,-1.17,0.95
22.06,-1.62,-1.19,1.00
22.06,-1.70,-1.20,1.05
22.06,-1.76,-1.21,1.10
22.06,-1.82,-1.23,1.16
22.07,-1.89,-1.26,1.22
22.07,-1.94,-1.29,1.28
22.07,-1.99,-1.33,1.34
22.07,-2.04,-1.35,1.41
22.08,-2.07,-1.38,1.48
22.08,-2.09,-1.40,1.54
22.08,-2.11,-1.43,1.61
22.08,-2.12,-1.46,1.68
22.09,-2.13,-1.48,1.75
22.09,-2.13,-1.51,1.82
22.09,-2.13,-1.53,1.90
22.09,-2.12,-1.56,1.98
22.10,-2.11,-1.58,2.06
22.10,-2.10,-1.61,2.14
22.10,-2.08,-1.63,2.21
22.10,-2.05,-1.63,2.29
22.11,-2.01,-1.62,2.36
22.11,-1.97,-1.61,2.42
22.11,-1.92,-1.60,2.48
22.11,-1.86,-1.57,2.52
22.12,-1.80,-1.54,2.54
22.12,-1.73,-1.49,2.55
22.12,-1.65,-1.43,2.55
22.12,-1.58,-1.36,2.54
22.13,-1.51,-1.29,2.52
22.13,-1.44,-1.22,2.49
22.13,-1.38,-1.17,2.46
22.13,-1.33,-1.12,2.42
22.14,-1.30,-1.06,2.38
22.14,-1.27,-1.00,2.33
22.14,-1.26,-0.92,2.27
22.14,-1.26,-0.84,2.21
22.15,-1.28,-0.77,2.14
22.15,-1.31,-0.70,2.08
22.15,-1.36,-0.64,2.01
22.15,-1.41,-0.58,1.95
22.16,-1.47,-0.53,1.89
22.16,-1.53,-0.48,1.84
22.16,-1.59,-0.44,1.80
22.16,-1.66,-0.42,1.76
22.17,-1.71,-0.41,1.72
22.17,-1.77,-0.41,1.69
22.17,-1.83,-0.41,1.66
22.17,-1.88,-0.42,1.62
22.18,-1.92,-0.42,1.58
22.18,-1.96,-0.42,1.54
22.18,-1.99,-0.42,1.50
22.18,-2.02,-0.41,1.46
22.19,-2.04,-0.40,1.43
22.19,-2.04,-0.40,1.40
22.19,-2.03,-0.40,1.38
22.19,-2.01,-0.40,1.36
22.20,-1.97,-0.41,1.35
22.20,-1.94,-0.41,1.33
22.20,-1.88,-0.41,1.32
22.20,-1.82,-0.42,1.31
22.21,-1.76,-0.42,1.31
22.21,-1.69,-0.43,1.29
22.21,-1.63,-0.44,1.28
22.21,-1.57,-0.45,1.27
22.22,-1.51,-0.45,1.26
22.22,-1.45,-0.46,1.25
22.22,-1.41,-0.46,1.25
22.22,-1.37,-0.48,1.24
22.23,-1.35,-0.50,1.23
22.23,-1.34,-0.51,1.23
22.23,-1.34,-0.52,1.24
22.23,-1.33,-0.52,1.26
22.24,-1.32,-0.53,1.29
22.24,-1.30,-0.55,1.33
22.24,-1.29,-0.58,1.35
22.25,-1.27,-0.61,1.37
22.25,-1.25,-0.65,1.38
22.25,-1.23,-0.69,1.39
22.25,-1.22,-0.74,1.40
22.26,-1.21,-0.78,1.40
22.26,-1.21,-0.83,1.39
22.26,-1.19,-0.87,1.38
22.26,-1.18,-0.90,1.38
22.26,-1.18,-0.92,1.37
22.27,-1.18,-0.93,1.37
22.27,-1.17,-0.94,1.37
22.27,-1.17,-0.95,1.36
22.27,-1.17,-0.97,1.35
22.28,-1.16,-0.99,1.34
22.28,-1.17,-1.00,1.32
22.28,-1.17,-1.00,1.31
22.28,-1.17,-1.01,1.29
22.29,-1.18,-1.00,1.27
22.29,-1.18,-1.00,1.25
22.29,-1.18,-0.98,1.24
22.29,-1.19,-0.96,1.22
22.30,-1.19,-0.93,1.20
22.30,-1.19,-0.89,1.18
22.30,-1.20,-0.85,1.16
22.30,-1.20,-0.81,1.13
22.31,-1.20,-0.77,1.12
22.31,-1.21,-0.72,1.10
22.31,-1.21,-0.68,1.09
22.31,-1.22,-0.63,1.08
22.32,-1.23,-0.59,1.07
22.32,-1.24,-0.54,1.06
22.32,-1.25,-0.50,1.06
22.32,-1.26,-0.45,1.05
22.33,-1.27,-0.40,1.05
22.33,-1.28,-0.35,1.05
22.33,-1.28,-0.30,1.05
22.33,-1.29,-0.24,1.06
22.34,-1.30,-0.19,1.07
22.34,-1.30,-0.14,1.08
22.34,-1.31,-0.09,1.07
22.34,-1.31,-0.06,1.07
22.35,-1.32,-0.03,1.06
22.35,-1.32,-0.02,1.05
22.35,-1.31,-0.01,1.04
22.35,-1.31,-0.02,1.03
22.36,-1.31,-0.02,1.02
22.36,-1.30,-0.04,1.01
22.36,-1.29,-0.06,1.00
22.36,-1.27,-0.08,0.99
22.37,-1.25,-0.11,0.97
22.37,-1.23,-0.13,0.95
22.37,-1.21,-0.16,0.92
22.37,-1.18,-0.18,0.90
22.38,-1.16,-0.20,0.87
22.38,-1.13,-0.20,0.85
22.38,-1.10,-0.20,0.82
22.38,-1.07,-0.21,0.80
22.39,-1.03,-0.20,0.77
22.39,-1.00,-0.20,0.75
22.39,-0.97,-0.20,0.71
22.39,-0.94,-0.18,0.69
22.40,-0.91,-0.17,0.66
22.40,-0.89,-0.16,0.63
22.40,-0.86,-0.15,0.60
22.40,-0.83,-0.13,0.56
22.41,-0.80,-0.12,0.54
22.41,-0.77,-0.11,0.50
22.41,-0.74,-0.11,0.47
22.41,-0.71,-0.11,0.44
22.42,-0.68,-0.11,0.40
22.42,-0.65,-0.12,0.37
22.42,-0.61,-0.13,0.33
22.42,-0.57,-0.14,0.30
22.43,-0.54,-0.15,0.28
22.43,-0.50,-0.16,0.25
22.43,-0.46,-0.18,0.22
22.43,-0.43,-0.18,0.19
22.44,-0.38,-0.18,0.16
22.44,-0.34,-0.18,0.14
22.44,-0.31,-0.18,0.11
22.44,-0.28,-0.18,0.09
22.45,-0.24,-0.18,0.07
22.45,-0.21,-0.17,0.05
22.45,-0.18,-0.16,0.02
22.45,-0.16,-0.15,0.00
22.46,-0.13,-0.14,-0.02
22.46,-0.11,-0.13,-0.04
22.46,-0.09,-0.11,-0.05
22.46,-0.07,-0.10,-0.07
22.47,-0.06,-0.09,-0.09
22.47,-0.05,-0.08,-0.10
22.47,-0.04,-0.08,-0.11
22.47,-0.04,-0.06,-0.13
22.48,-0.03,-0.06,-0.14
22.48,-0.03,-0.06,-0.16
22.48,-0.03,-0.05,-0.17
22.48,-0.03,-0.05,-0.18
22.49,-0.03,-0.04,-0.19
22.49,-0.03,-0.03,-0.21
22.49,-0.03,-0.03,-0.22
22.49,-0.03,-0.02,-0.23
22.50,-0.03,-0.02,-0.25
22.50,-0.03,-0.01,-0.27
22.50,-0.02,-0.01,-0.28
22.50,-0.02,0.00,-0.30
22.51,-0.01,0.00,-0.31
22.51,-0.01,0.01,-0.33
22.51,0.00,0.01,-0.35
22.51,0.02,0.01,-0.36
22.52,0.02,0.00,-0.37
22.52,0.04,-0.01,-0.39
22.52,0.06,-0.02,-0.40
22.52,0.08,-0.02,-0.41
22.53,0.10,-0.03,-0.42
22.53,0.12,-0.04,-0.43
22.53,0.15,-0.03,-0.45
22.53,0.17,-0.03,-0.47
22.54,0.20,-0.03,-0.48
22.54,0.22,-0.03,-0.49
22.54,0.25,-0.03,-0.51
22.54,0.27,-0.02,-0.52
22.55,0.30,-0.01,-0.53
22.55,0.32,0.00,-0.54
22.55,0.35,0.00,-0.54
22.55,0.37,0.01,-0.55
22.56,0.39,0.02,-0.56
22.56,0.42,0.03,-0.56
22.56,0.44,0.03,-0.56
22.56,0.47,0.04,-0.57
22.57,0.49,0.05,-0.57
22.57,0.51,0.05,-0.58
22.57,0.54,0.06,-0.59
22.57,0.57,0.06,-0.59
22.58,0.60,0.07,-0.60
22.58,0.62,0.08,-0.61
22.58,0.65,0.08,-0.63
22.58,0.68,0.09,-0.64
22.59,0.71,0.09,-0.66
22.59,0.74,0.11,-0.67
22.59,0.76,0.12,-0.69
22.59,0.78,0.13,-0.71
22.60,0.78,0.13,-0.74
22.60,0.78,0.13,-0.78
22.60,0.76,0.13,-0.80
22.60,0.73,0.12,-0.82
22.61,0.69,0.10,-0.82
22.61,0.62,0.06,-0.79
22.61,0.55,0.03,-0.74
22.61,0.45,-0.01,-0.69
22.62,0.36,-0.03,-0.64
22.62,0.26,-0.04,-0.59
22.62,0.18,-0.06,-0.56
22.62,0.10,-0.06,-0.53
22.63,0.04,-0.04,-0.50
22.63,-0.02,-0.02,-0.46
22.63,-0.08,0.00,-0.42
22.63,-0.14,0.01,-0.36
22.64,-0.18,0.02,-0.30
22.64,-0.22,0.02,-0.24
22.64,-0.24,0.02,-0.19
22.64,-0.24,0.01,-0.14
22.65,-0.25,0.02,-0.10
22.65,-0.25,0.05,-0.07
22.65,-0.25,0.09,-0.05
22.65,-0.25,0.15,-0.04
22.66,-0.25,0.23,-0.03
22.66,-0.25,0.33,-0.04
22.66,-0.25,0.45,-0.05
22.66,-0.25,0.57,-0.07
22.67,-0.24,0.70,-0.09
22.67,-0.22,0.82,-0.12
22.67,-0.21,0.93,-0.16
22.67,-0.20,1.03,-0.20
22.68,-0.18,1.11,-0.24
22.68,-0.17,1.17,-0.30
22.68,-0.13,1.21,-0.37
22.68,-0.10,1.22,-0.44
22.69,-0.05,1.22,-0.52
22.69,0.02,1.20,-0.59
22.69,0.10,1.16,-0.66
22.69,0.20,1.09,-0.72
22.70,0.32,1.01,-0.75
22.70,0.45,0.92,-0.77
22.70,0.58,0.81,-0.77
22.70,0.73,0.69,-0.77
22.71,0.87,0.57,-0.76
22.71,1.00,0.45,-0.74
22.71,1.11,0.34,-0.74
22.71,1.21,0.24,-0.74
22.72,1.29,0.15,-0.74
22.72,1.33,0.08,-0.74
22.72,1.35,0.02,-0.75
22.72,1.34,0.00,-0.75
22.73,1.30,-0.02,-0.76
22.73,1.26,-0.03,-0.76
22.73,1.19,-0.03,-0.78
22.73,1.11,-0.03,-0.79
22.74,1.03,-0.02,-0.79
22.74,0.94,-0.01,-0.80
22.74,0.84,0.01,-0.81
22.74,0.73,0.02,-0.82
22.75,0.62,0.04,-0.82
22.75,0.52,0.06,-0.83
22.75,0.41,0.09,-0.84
22.75,0.30,0.14,-0.84
22.76,0.21,0.19,-0.84
22.76,0.13,0.25,-0.83
22.76,0.07,0.31,-0.82
22.76,0.02,0.37,-0.81
22.77,-0.01,0.44,-0.79
22.77,-0.03,0.49,-0.78
22.77,-0.02,0.55,-0.77
22.77,-0.01,0.60,-0.74
22.78,0.01,0.64,-0.72
22.78,0.05,0.68,-0.70
22.78,0.09,0.70,-0.67
22.78,0.15,0.74,-0.65
22.79,0.20,0.76,-0.62
22.79,0.26,0.79,-0.60
22.79,0.32,0.80,-0.57
22.79,0.37,0.80,-0.55
22.80,0.43,0.80,-0.53
22.80,0.48,0.79,-0.51
22.80,0.52,0.78,-0.50
22.80,0.56,0.76,-0.48
22.81,0.60,0.74,-0.48
22.81,0.63,0.71,-0.47
22.81,0.65,0.67,-0.46
22.81,0.66,0.64,-0.46
22.82,0.68,0.60,-0.45
22.82,0.69,0.57,-0.45
22.82,0.70,0.53,-0.44
22.82,0.71,0.47,-0.42
22.83,0.72,0.42,-0.40
22.83,0.73,0.38,-0.39
22.83,0.73,0.36,-0.39
22.83,0.72,0.39,-0.41
22.84,0.69,0.44,-0.43
22.84,0.67,0.49,-0.46
22.84,0.65,0.52,-0.48
22.84,0.63,0.53,-0.50
22.85,0.60,0.56,-0.53
22.85,0.58,0.61,-0.57
22.85,0.54,0.69,-0.61
22.85,0.50,0.79,-0.65
22.86,0.47,0.90,-0.67
22.86,0.45,1.01,-0.68
22.86,0.43,1.11,-0.68
22.86,0.43,1.19,-0.67
22.87,0.44,1.24,-0.66
22.87,0.45,1.28,-0.64
22.87,0.48,1.31,-0.61
22.87,0.52,1.32,-0.58
22.88,0.55,1.34,-0.54
22.88,0.58,1.37,-0.51
22.88,0.61,1.40,-0.49
22.88,0.63,1.43,-0.47
22.89,0.65,1.46,-0.44
22.89,0.66,1.48,-0.42
22.89,0.66,1.48,-0.40
22.89,0.66,1.47,-0.39
22.90,0.66,1.46,-0.38
22.90,0.66,1.45,-0.36
22.90,0.66,1.44,-0.35
22.90,0.66,1.41,-0.33
22.91,0.66,1.37,-0.31
22.91,0.65,1.34,-0.29
22.91,0.65,1.32,-0.27
22.91,0.64,1.30,-0.26
22.92,0.63,1.28,-0.25
22.92,0.62,1.25,-0.24
22.92,0.62,1.21,-0.24
22.92,0.63,1.18,-0.24
22.93,0.63,1.17,-0.24
22.93,0.63,1.16,-0.24
22.93,0.63,1.15,-0.24
22.93,0.62,1.16,-0.24
22.94,0.62,1.17,-0.25
22.94,0.62,1.19,-0.25
22.94,0.61,1.21,-0.26
22.94,0.61,1.23,-0.26
22.95,0.61,1.24,-0.26
22.95,0.61,1.25,-0.26
22.95,0.61,1.25,-0.25
22.95,0.62,1.26,-0.24
22.96,0.63,1.27,-0.24
22.96,0.63,1.28,-0.25
22.96,0.64,1.31,-0.25
22.96,0.64,1.35,-0.24
22.97,0.65,1.40,-0.23
22.97,0.65,1.46,-0.23
22.97,0.66,1.50,-0.23
22.97,0.66,1.55,-0.23
22.98,0.66,1.61,-0.24
22.98,0.65,1.65,-0.24
22.98,0.65,1.69,-0.23
22.98,0.65,1.71,-0.23
22.99,0.65,1.72,-0.24
22.99,0.65,1.73,-0.23
22.99,0.65,1.72,-0.22
22.99,0.64,1.71,-0.22
23.00,0.62,1.70,-0.21
23.00,0.61,1.69,-0.21
23.00,0.58,1.70,-0.19
23.00,0.55,1.71,-0.18
23.01,0.53,1.73,-0.17
23.01,0.49,1.73,-0.16
23.01,0.46,1.73,-0.16
23.01,0.43,1.74,-0.15
23.02,0.40,1.74,-0.14
23.02,0.37,1.75,-0.13
23.02,0.33,1.77,-0.12
23.02,0.30,1.80,-0.11
23.03,0.26,1.84,-0.09
23.03,0.22,1.87,-0.08
23.03,0.19,1.87,-0.08
23.03,0.17,1.86,-0.08
23.04,0.14,1.87,-0.08
23.04,0.10,1.90,-0.07
23.04,0.07,1.93,-0.06
23.04,0.03,1.99,-0.05
23.05,0.01,2.00,-0.05
23.05,0.01,1.95,-0.04
23.05,0.02,1.90,-0.03
23.06,0.02,1.85,-0.02
23.06,0.03,1.81,0.01
23.06,0.05,1.78,0.03
23.06,0.08,1.75,0.06
23.07,0.09,1.75,0.10
23.07,0.11,1.75,0.14
23.07,0.13,1.74,0.18
23.07,0.16,1.73,0.22
23.08,0.18,1.73,0.28
23.08,0.21,1.73,0.33
23.08,0.23,1.75,0.39
23.08,0.25,1.75,0.43
23.09,0.27,1.72,0.45
23.09,0.28,1.69,0.46
23.09,0.30,1.64,0.47
23.09,0.32,1.60,0.47
23.10,0.32,1.56,0.47
23.10,0.32,1.52,0.46
23.10,0.32,1.48,0.45
23.10,0.31,1.44,0.43
23.11,0.29,1.39,0.41
23.11,0.28,1.35,0.40
23.11,0.26,1.32,0.38
23.11,0.25,1.29,0.37
23.12,0.23,1.26,0.36
23.12,0.21,1.24,0.34
23.12,0.20,1.22,0.33
23.12,0.18,1.19,0.32
23.13,0.17,1.17,0.31
23.13,0.17,1.15,0.30
23.13,0.16,1.12,0.29
23.13,0.17,1.09,0.28
23.14,0.18,1.05,0.27
23.14,0.19,1.01,0.27
23.14,0.20,0.96,0.28
23.14,0.22,0.92,0.28
23.15,0.24,0.89,0.27
23.15,0.26,0.85,0.28
23.15,0.28,0.80,0.28
23.15,0.30,0.77,0.28
23.16,0.32,0.73,0.27
23.16,0.34,0.69,0.27
23.16,0.37,0.66,0.28
23.16,0.39,0.64,0.28
23.17,0.40,0.61,0.29
23.17,0.42,0.58,0.30
23.17,0.43,0.56,0.30
23.17,0.44,0.53,0.31
23.18,0.45,0.50,0.30
23.18,0.45,0.48,0.31
23.18,0.45,0.46,0.32
23.18,0.46,0.43,0.32
23.19,0.45,0.41,0.32
23.19,0.45,0.39,0.32
23.19,0.45,0.38,0.32
23.19,0.44,0.39,0.33
23.20,0.44,0.38,0.33
23.20,0.43,0.38,0.34
23.20,0.43,0.37,0.34
23.20,0.44,0.37,0.35
23.21,0.44,0.37,0.35
23.21,0.44,0.37,0.34
23.21,0.44,0.38,0.33
23.21,0.45,0.39,0.31
23.22,0.47,0.38,0.28
23.22,0.48,0.36,0.23
23.22,0.49,0.38,0.19
23.22,0.51,0.42,0.17
23.23,0.52,0.44,0.17
23.23,0.54,0.47,0.17
23.23,0.55,0.48,0.18
23.23,0.55,0.49,0.19
23.24,0.54,0.50,0.21
23.24,0.52,0.53,0.21
23.24,0.52,0.56,0.23
23.24,0.52,0.59,0.24
23.25,0.51,0.61,0.26
23.25,0.51,0.62,0.27
23.25,0.51,0.63,0.27
23.25,0.51,0.64,0.28
23.26,0.50,0.65,0.27
23.26,0.50,0.65,0.26
23.26,0.51,0.66,0.26
23.26,0.50,0.67,0.25
23.27,0.49,0.66,0.23
23.27,0.48,0.66,0.21
23.27,0.48,0.70,0.22
23.27,0.48,0.72,0.25
23.28,0.48,0.72,0.27
23.28,0.49,0.72,0.30
23.28,0.50,0.72,0.32
23.28,0.51,0.72,0.33
23.29,0.52,0.71,0.34
23.29,0.53,0.72,0.35
23.29,0.55,0.72,0.36
23.29,0.56,0.72,0.37
23.30,0.57,0.72,0.38
23.30,0.58,0.73,0.38
23.30,0.59,0.73,0.38
23.30,0.62,0.74,0.39
23.31,0.63,0.74,0.41
23.31,0.65,0.74,0.43
23.31,0.67,0.73,0.46
23.31,0.70,0.73,0.48
23.32,0.73,0.73,0.50
23.32,0.75,0.73,0.52
23.32,0.77,0.72,0.54
23.32,0.80,0.71,0.56
23.33,0.82,0.70,0.58
23.33,0.84,0.69,0.60
23.33,0.86,0.68,0.61
23.33,0.88,0.67,0.62
23.34,0.89,0.66,0.64
23.34,0.91,0.64,0.65
23.34,0.91,0.62,0.67
23.34,0.92,0.60,0.67
23.35,0.93,0.59,0.68
23.35,0.92,0.57,0.69
23.35,0.91,0.55,0.70
23.35,0.91,0.55,0.71
23.36,0.89,0.54,0.72
23.36,0.88,0.54,0.74
23.36,0.86,0.54,0.75
23.36,0.84,0.57,0.76
23.37,1.02,0.81,0.90
23.37,1.02,0.72,0.97
23.37,0.94,0.61,0.78
23.37,0.87,0.73,0.78
23.38,0.78,0.72,0.77
23.38,0.69,0.71,0.75
23.38,0.60,0.70,0.74
23.38,0.52,0.69,0.73
23.39,0.44,0.68,0.71
23.39,0.37,0.65,0.69
23.39,0.31,0.62,0.67
23.39,0.25,0.59,0.66
23.40,0.20,0.57,0.64
23.40,0.17,0.56,0.61
23.40,0.15,0.55,0.59
23.40,0.15,0.55,0.57
23.41,0.17,0.54,0.56
23.41,0.19,0.53,0.54
23.41,0.21,0.52,0.52
23.41,0.24,0.51,0.50
23.42,0.28,0.49,0.49
23.42,0.31,0.46,0.47
23.42,0.35,0.43,0.45
23.42,0.39,0.38,0.43
23.43,0.43,0.34,0.42
23.43,0.47,0.29,0.39
23.43,0.50,0.24,0.37
23.43,0.53,0.19,0.33
23.44,0.55,0.14,0.30
23.44,0.57,0.09,0.27
23.44,0.59,0.04,0.24
23.44,0.60,0.01,0.21
23.45,0.60,-0.03,0.19
23.45,0.61,-0.06,0.16
23.45,0.61,-0.08,0.14
23.45,0.61,-0.07,0.12
23.46,0.61,-0.06,0.11
23.46,0.60,-0.04,0.10
23.46,0.60,-0.02,0.09
23.46,0.59,0.00,0.09
23.47,0.58,0.02,0.09
23.47,0.57,0.03,0.10
23.47,0.57,0.05,0.10
23.47,0.56,0.08,0.10
23.48,0.56,0.10,0.12
23.48,0.56,0.11,0.14
23.48,0.56,0.11,0.16
23.48,0.56,0.10,0.17
23.49,0.55,0.09,0.19
23.49,0.55,0.06,0.20
23.49,0.54,0.03,0.22
23.49,0.52,-0.03,0.23
23.50,0.49,-0.08,0.26
23.50,0.46,-0.15,0.26
23.50,0.43,-0.22,0.26
23.50,0.41,-0.29,0.26
23.51,0.39,-0.38,0.25
23.51,0.35,-0.47,0.23
23.51,0.32,-0.55,0.23
23.51,0.27,-0.62,0.23
23.52,0.19,-0.73,0.22
23.52,0.09,-0.83,0.20
23.52,-0.02,-0.89,0.20
23.52,-0.14,-0.96,0.18
23.53,-0.27,-1.05,0.15
23.53,-0.43,-1.13,0.12
23.53,-0.58,-1.19,0.10
23.53,-0.76,-1.27,0.06
23.54,-0.92,-1.32,0.03
23.54,-1.07,-1.33,0.04
23.54,-1.22,-1.36,0.05
23.54,-1.36,-1.39,0.05
23.55,-1.49,-1.41,0.06
23.55,-1.60,-1.43,0.08
23.55,-1.71,-1.46,0.09
23.55,-1.80,-1.49,0.10
23.56,-1.88,-1.52,0.12
23.56,-1.95,-1.54,0.13
23.56,-2.01,-1.58,0.15
23.56,-2.05,-1.62,0.16
23.57,-2.09,-1.66,0.19
23.57,-2.12,-1.70,0.21
23.57,-2.14,-1.75,0.23
23.57,-2.16,-1.81,0.25
23.58,-2.17,-1.86,0.28
23.58,-2.17,-1.92,0.31
23.58,-2.17,-1.99,0.33
23.58,-2.17,-2.05,0.34
23.59,-2.17,-2.12,0.36
23.59,-2.17,-2.18,0.36
23.59,-2.16,-2.23,0.37
23.59,-2.17,-2.28,0.37
23.60,-2.17,-2.32,0.36
23.60,-2.18,-2.35,0.36
23.60,-2.19,-2.37,0.35
23.60,-2.20,-2.39,0.35
23.61,-2.22,-2.40,0.34
23.61,-2.24,-2.39,0.33
23.61,-2.26,-2.38,0.31
23.61,-2.27,-2.36,0.30
23.62,-2.28,-2.34,0.29
23.62,-2.29,-2.33,0.27
23.62,-2.30,-2.31,0.27
23.62,-2.30,-2.30,0.25
23.63,-2.29,-2.27,0.24
23.63,-2.29,-2.22,0.24
23.63,-2.28,-2.17,0.24
23.63,-2.27,-2.13,0.25
23.64,-2.26,-2.09,0.26
23.64,-2.24,-2.04,0.29
23.64,-2.22,-1.99,0.32
23.64,-2.21,-1.92,0.37
23.65,-2.19,-1.86,0.42
23.65,-2.17,-1.80,0.49
23.65,-2.15,-1.76,0.56
23.65,-2.14,-1.73,0.64
23.66,-2.13,-1.70,0.72
23.66,-2.12,-1.68,0.80
23.66,-2.11,-1.67,0.89
23.66,-2.11,-1.66,0.97
23.67,-2.11,-1.67,1.06
23.67,-2.10,-1.68,1.15
23.67,-2.10,-1.68,1.25
23.67,-2.10,-1.68,1.33
23.68,-2.09,-1.70,1.42
23.68,-2.09,-1.70,1.49
23.68,-2.08,-1.71,1.56
23.68,-2.07,-1.71,1.62
23.69,-2.07,-1.69,1.67
23.69,-2.06,-1.66,1.70
23.69,-2.05,-1.63,1.72
23.69,-2.04,-1.61,1.75
23.70,-2.03,-1.57,1.75
23.70,-2.02,-1.55,1.74
23.70,-2.01,-1.52,1.72
23.70,-1.99,-1.51,1.70
23.71,-1.98,-1.49,1.67
23.71,-1.96,-1.47,1.65
23.71,-1.95,-1.46,1.62
23.71,-1.93,-1.45,1.59
23.72,-1.91,-1.44,1.55
23.72,-1.89,-1.43,1.51
23.72,-1.87,-1.42,1.48
23.72,-1.85,-1.41,1.45
23.73,-1.83,-1.42,1.42
23.73,-1.80,-1.43,1.41
23.73,-1.78,-1.45,1.40
23.73,-1.76,-1.47,1.40
23.74,-1.73,-1.49,1.41
23.74,-1.70,-1.51,1.41
23.74,-1.68,-1.52,1.41
23.74,-1.66,-1.54,1.41
23.75,-1.64,-1.55,1.41
23.75,-1.62,-1.56,1.41
23.75,-1.59,-1.57,1.40
23.75,-1.58,-1.57,1.40
23.76,-1.56,-1.57,1.40
23.76,-1.54,-1.57,1.39
23.76,-1.52,-1.57,1.39
23.76,-1.51,-1.56,1.38
23.77,-1.49,-1.54,1.36
23.77,-1.48,-1.50,1.34
23.77,-1.48,-1.47,1.31
23.77,-1.51,-1.43,1.27
23.78,-1.54,-1.40,1.22
23.78,-1.59,-1.38,1.18
23.78,-1.67,-1.36,1.14
23.78,-1.75,-1.32,1.12
23.79,-1.82,-1.28,1.14
23.79,-1.88,-1.20,1.17
23.79,-1.93,-1.11,1.20
23.79,-1.96,-1.00,1.25
23.80,-1.99,-0.89,1.31
23.80,-2.01,-0.77,1.37
23.80,-2.03,-0.65,1.41
23.80,-2.05,-0.54,1.46
23.81,-2.07,-0.45,1.49
23.81,-2.09,-0.35,1.51
23.81,-2.11,-0.27,1.52
23.81,-2.14,-0.19,1.51
23.82,-2.16,-0.11,1.51
23.82,-2.19,-0.03,1.49
23.82,-2.22,0.06,1.47
23.82,-2.27,0.17,1.45
23.83,-2.32,0.29,1.43
23.83,-2.37,0.38,1.42
23.83,-2.40,0.44,1.41
23.83,-2.42,0.47,1.41
23.84,-2.43,0.49,1.40
23.84,-2.43,0.48,1.38
23.84,-2.43,0.47,1.36
23.84,-2.42,0.45,1.33
23.85,-2.41,0.41,1.31
23.85,-2.38,0.35,1.29
23.85,-2.35,0.27,1.26
23.85,-2.32,0.19,1.23
23.86,-2.27,0.09,1.20
23.86,-2.24,0.01,1.17
23.86,-2.20,-0.07,1.14
23.86,-2.16,-0.14,1.12
23.87,-2.13,-0.21,1.10
23.87,-2.10,-0.28,1.08
23.87,-2.06,-0.35,1.06
23.87,-2.03,-0.41,1.05
23.88,-1.99,-0.47,1.03
23.88,-1.95,-0.54,1.02
23.88,-1.91,-0.60,1.00
23.88,-1.87,-0.67,0.98
23.89,-1.82,-0.74,0.96
23.89,-1.77,-0.81,0.95
23.89,-1.72,-0.88,0.93
23.89,-1.66,-0.95,0.92
23.90,-1.61,-1.02,0.92
23.90,-1.55,-1.08,0.91
23.90,-1.49,-1.14,0.90
23.90,-1.44,-1.19,0.89
23.91,-1.38,-1.24,0.88
23.91,-1.32,-1.29,0.87
23.91,-1.26,-1.32,0.87
23.91,-1.21,-1.35,0.86
23.92,-1.16,-1.37,0.85
23.92,-1.12,-1.37,0.84
23.92,-1.07,-1.36,0.83
23.92,-1.03,-1.33,0.82
23.93,-1.00,-1.31,0.81
23.93,-0.96,-1.27,0.80
23.93,-0.93,-1.23,0.80
23.93,-0.90,-1.19,0.79
23.94,-0.86,-1.14,0.79
23.94,-0.83,-1.08,0.79
23.94,-0.80,-1.02,0.79
23.94,-0.77,-0.97,0.79
23.95,-0.74,-0.92,0.78
23.95,-0.71,-0.86,0.78
23.95,-0.69,-0.81,0.79
23.95,-0.67,-0.75,0.79
23.96,-0.66,-0.70,0.79
23.96,-0.65,-0.65,0.78
23.96,-0.64,-0.59,0.78
23.96,-0.63,-0.54,0.77
23.97,-0.64,-0.48,0.76
23.97,-0.65,-0.43,0.74
23.97,-0.66,-0.37,0.72
23.97,-0.67,-0.32,0.70
23.98,-0.68,-0.27,0.68
23.98,-0.70,-0.23,0.65
23.98,-0.73,-0.19,0.63
23.98,-0.76,-0.16,0.60
23.99,-0.78,-0.13,0.57
23.99,-0.80,-0.10,0.53
23.99,-0.82,-0.08,0.50
23.99,-0.84,-0.07,0.45
24.00,-0.86,-0.05,0.41
24.00,-0.87,-0.04,0.37
24.00,-0.88,-0.04,0.32
24.00,-0.89,-0.03,0.29
24.01,-0.90,-0.03,0.25
24.01,-0.90,-0.03,0.21
24.01,-0.90,-0.03,0.18
24.01,-0.90,-0.03,0.14
24.02,-0.89,-0.03,0.10
24.02,-0.89,-0.02,0.07
24.02,-0.88,-0.02,0.04
24.02,-0.87,-0.01,0.01
24.03,-0.85,-0.01,-0.02
24.03,-0.83,-0.01,-0.05
24.03,-0.81,-0.02,-0.08
24.03,-0.79,-0.02,-0.10
24.04,-0.76,-0.04,-0.12
24.04,-0.73,-0.05,-0.14
24.04,-0.70,-0.06,-0.16
24.04,-0.67,-0.08,-0.17
24.05,-0.63,-0.10,-0.19
24.05,-0.60,-0.11,-0.20
24.05,-0.56,-0.13,-0.21
24.05,-0.52,-0.15,-0.21
24.06,-0.49,-0.17,-0.22
24.06,-0.44,-0.19,-0.23
24.06,-0.40,-0.21,-0.23
24.06,-0.37,-0.22,-0.24
24.07,-0.33,-0.24,-0.25
24.07,-0.29,-0.26,-0.26
24.07,-0.25,-0.28,-0.26
24.07,-0.21,-0.29,-0.26
24.08,-0.17,-0.31,-0.26
24.08,-0.12,-0.32,-0.26
24.08,-0.09,-0.33,-0.25
24.08,-0.05,-0.33,-0.25
24.09,-0.02,-0.34,-0.24
24.09,0.01,-0.34,-0.24
24.09,0.05,-0.33,-0.23
24.09,0.07,-0.32,-0.22
24.10,0.10,-0.31,-0.22
24.10,0.12,-0.28,-0.21
24.10,0.13,-0.26,-0.21
24.10,0.15,-0.24,-0.21
24.11,0.17,-0.21,-0.21
24.11,0.18,-0.18,-0.21
24.11,0.19,-0.16,-0.22
24.11,0.20,-0.13,-0.22
24.12,0.20,-0.10,-0.23
24.12,0.21,-0.08,-0.25
24.12,0.21,-0.05,-0.26
24.12,0.21,-0.03,-0.28
24.13,0.21,0.00,-0.31
24.13,0.21,0.01,-0.33
24.13,0.21,0.03,-0.36
24.13,0.22,0.05,-0.39
24.14,0.23,0.05,-0.42
24.14,0.24,0.05,-0.45
24.14,0.25,0.06,-0.48
24.14,0.27,0.06,-0.51
24.15,0.29,0.05,-0.54
24.15,0.32,0.03,-0.57
24.15,0.35,0.02,-0.60
24.15,0.37,0.00,-0.63
24.16,0.40,-0.03,-0.66
24.16,0.43,-0.07,-0.69
24.16,0.44,-0.10,-0.72
24.16,0.45,-0.14,-0.74
24.17,0.46,-0.16,-0.77
24.17,0.46,-0.19,-0.80
24.17,0.45,-0.21,-0.80
24.17,0.43,-0.23,-0.78
24.18,0.41,-0.26,-0.73
24.18,0.37,-0.30,-0.67
24.18,0.34,-0.34,-0.59
24.18,0.30,-0.37,-0.53
24.19,0.26,-0.40,-0.48
24.19,0.23,-0.41,-0.42
24.19,0.19,-0.43,-0.36
24.19,0.15,-0.45,-0.30
24.20,0.12,-0.47,-0.24
24.20,0.08,-0.49,-0.18
24.20,0.03,-0.51,-0.13
24.20,-0.01,-0.52,-0.08
24.21,-0.06,-0.51,-0.05
24.21,-0.09,-0.49,-0.03
24.21,-0.12,-0.45,-0.02
24.21,-0.15,-0.39,-0.03
24.22,-0.16,-0.32,-0.02
24.22,-0.17,-0.24,-0.02
24.22,-0.17,-0.17,-0.01
24.22,-0.17,-0.10,-0.01
24.23,-0.15,-0.02,-0.02
24.23,-0.12,0.05,-0.03
24.23,-0.09,0.13,-0.06
24.23,-0.06,0.20,-0.09
24.24,-0.02,0.28,-0.13
24.24,0.02,0.35,-0.17
24.24,0.05,0.44,-0.21
24.24,0.08,0.53,-0.26
24.25,0.10,0.63,-0.29
24.25,0.12,0.74,-0.33
24.25,0.15,0.84,-0.38
24.25,0.18,0.94,-0.42
24.26,0.23,1.03,-0.47
24.26,0.28,1.10,-0.52
24.26,0.35,1.15,-0.56
24.26,0.41,1.18,-0.60
24.27,0.49,1.18,-0.63
24.27,0.58,1.16,-0.67
24.27,0.67,1.11,-0.70
24.27,0.76,1.04,-0.72
24.28,0.84,0.96,-0.75
24.28,0.93,0.88,-0.76
24.28,1.00,0.79,-0.78
24.28,1.06,0.71,-0.80
24.29,1.11,0.62,-0.82
24.29,1.15,0.53,-0.84
24.29,1.17,0.45,-0.86
24.29,1.17,0.36,-0.87
24.30,1.15,0.29,-0.87
24.30,1.12,0.22,-0.88
24.30,1.07,0.17,-0.89
24.30,1.01,0.13,-0.89
24.31,0.93,0.10,-0.89
24.31,0.85,0.08,-0.89
24.31,0.76,0.06,-0.89
24.31,0.68,0.04,-0.88
24.32,0.59,0.03,-0.87
24.32,0.51,0.01,-0.86
24.32,0.44,0.00,-0.84
24.32,0.38,0.00,-0.83
24.33,0.33,0.01,-0.81
24.33,0.29,0.02,-0.80
24.33,0.25,0.05,-0.79
24.33,0.23,0.10,-0.79
24.34,0.22,0.15,-0.78
24.34,0.22,0.21,-0.77
24.34,0.23,0.27,-0.76
24.34,0.25,0.32,-0.74
24.35,0.28,0.37,-0.72
24.35,0.31,0.42,-0.71
24.35,0.34,0.46,-0.69
24.35,0.38,0.49,-0.67
24.36,0.41,0.50,-0.65
24.36,0.44,0.50,-0.63
24.36,0.47,0.49,-0.61
24.36,0.50,0.49,-0.59
24.37,0.51,0.49,-0.57
24.37,0.52,0.49,-0.55
24.37,0.53,0.51,-0.54
24.37,0.53,0.55,-0.53
24.38,0.52,0.58,-0.52
24.38,0.50,0.63,-0.51
24.38,0.48,0.68,-0.50
24.38,0.46,0.73,-0.50
24.39,0.43,0.77,-0.50
24.39,0.41,0.81,-0.50
24.39,0.39,0.82,-0.51
24.39,0.37,0.82,-0.51
24.40,0.36,0.80,-0.52
24.40,0.35,0.76,-0.52
24.40,0.35,0.70,-0.52
24.40,0.35,0.63,-0.52
24.41,0.36,0.58,-0.53
24.41,0.38,0.52,-0.54
24.41,0.40,0.48,-0.54
24.41,0.43,0.44,-0.54
24.42,0.47,0.41,-0.54
24.42,0.51,0.40,-0.55
24.42,0.55,0.40,-0.56
24.42,0.59,0.43,-0.56
24.43,0.63,0.49,-0.57
24.43,0.67,0.57,-0.59
24.43,0.71,0.66,-0.60
24.43,0.73,0.76,-0.61
24.44,0.76,0.85,-0.63
24.44,0.78,0.94,-0.64
24.44,0.80,1.02,-0.65
24.44,0.82,1.08,-0.66
24.45,0.84,1.14,-0.66
24.45,0.86,1.17,-0.66
24.45,0.88,1.19,-0.66
24.45,0.90,1.21,-0.66
24.46,0.91,1.21,-0.65
24.46,0.92,1.19,-0.64
24.46,0.93,1.18,-0.64
24.46,0.93,1.17,-0.63
24.47,0.94,1.17,-0.62
24.47,0.94,1.19,-0.61
24.47,0.93,1.23,-0.60
24.47,0.93,1.27,-0.59
24.48,0.91,1.33,-0.59
24.48,0.90,1.38,-0.59
24.48,0.89,1.44,-0.59
24.48,0.87,1.50,-0.59
24.49,0.84,1.54,-0.58
24.49,0.81,1.58,-0.59
24.49,0.79,1.61,-0.59
24.49,0.76,1.64,-0.59
24.50,0.74,1.66,-0.58
24.50,0.72,1.68,-0.57
24.50,0.69,1.69,-0.56
24.50,0.67,1.68,-0.55
24.51,0.65,1.66,-0.53
24.51,0.63,1.65,-0.51
24.51,0.62,1.64,-0.49
24.51,0.60,1.63,-0.46
24.52,0.59,1.62,-0.44
24.52,0.58,1.61,-0.43
24.52,0.58,1.61,-0.41
24.52,0.58,1.59,-0.39
24.53,0.58,1.58,-0.37
24.53,0.58,1.57,-0.35
24.53,0.59,1.55,-0.32
24.53,0.60,1.53,-0.30
24.54,0.61,1.51,-0.28
24.54,0.62,1.48,-0.26
24.54,0.63,1.46,-0.25
24.54,0.65,1.43,-0.23
24.55,0.66,1.42,-0.22
24.55,0.66,1.41,-0.21
24.55,0.65,1.41,-0.20
24.55,0.65,1.41,-0.18
24.56,0.65,1.41,-0.17
24.56,0.65,1.41,-0.14
24.56,0.64,1.42,-0.12
24.56,0.64,1.43,-0.10
24.57,0.64,1.43,-0.07
24.57,0.64,1.44,-0.05
24.57,0.64,1.44,-0.03
24.57,0.64,1.44,0.00
24.58,0.65,1.44,0.03
24.58,0.64,1.44,0.05
24.58,0.65,1.43,0.06
24.58,0.65,1.42,0.08
24.59,0.66,1.41,0.09
24.59,0.67,1.39,0.11
24.59,0.67,1.37,0.12
24.59,0.68,1.37,0.14
24.60,0.68,1.37,0.15
24.60,0.68,1.37,0.16
24.60,0.68,1.37,0.18
24.60,0.69,1.37,0.20
24.61,0.68,1.35,0.21
24.61,0.68,1.31,0.21
24.61,0.69,1.28,0.21
24.61,0.69,1.28,0.21
24.62,0.68,1.30,0.23
24.62,0.67,1.33,0.25
24.62,0.65,1.34,0.25
24.62,0.63,1.34,0.26
24.63,0.62,1.34,0.26
24.63,0.60,1.32,0.27
24.63,0.58,1.31,0.27
24.63,0.56,1.29,0.28
24.64,0.53,1.27,0.27
24.64,0.51,1.24,0.26
24.64,0.48,1.21,0.25
24.64,0.45,1.19,0.25
24.65,0.43,1.17,0.24
24.65,0.40,1.14,0.23
24.65,0.38,1.12,0.22
24.65,0.35,1.09,0.21
24.66,0.33,1.07,0.20
24.66,0.30,1.06,0.19
24.66,0.28,1.04,0.17
24.66,0.26,1.01,0.15
24.67,0.24,0.99,0.14
24.67,0.23,0.96,0.12
24.67,0.21,0.93,0.11
24.67,0.20,0.91,0.09
24.68,0.19,0.89,0.08
24.68,0.18,0.88,0.07
24.68,0.18,0.85,0.06
24.68,0.18,0.83,0.04
24.69,0.18,0.81,0.04
24.69,0.19,0.79,0.03
24.69,0.20,0.77,0.02
24.69,0.21,0.76,0.01
24.70,0.21,0.74,0.01
24.70,0.23,0.72,0.00
24.70,0.24,0.71,0.00
24.70,0.25,0.69,-0.01
24.71,0.27,0.67,-0.01
24.71,0.28,0.66,0.00
24.71,0.30,0.64,0.00
24.71,0.31,0.62,0.00
24.72,0.33,0.59,0.01
24.72,0.34,0.57,0.01
24.72,0.36,0.54,0.02
24.72,0.37,0.52,0.02
24.73,0.38,0.49,0.03
24.73,0.40,0.46,0.04
24.73,0.41,0.43,0.04
24.73,0.42,0.40,0.05
24.74,0.43,0.36,0.05
24.74,0.44,0.33,0.05
24.74,0.44,0.29,0.06
24.74,0.44,0.25,0.06
24.75,0.44,0.22,0.06
24.75,0.44,0.19,0.05
24.75,0.44,0.15,0.05
24.75,0.43,0.15,0.04
24.76,0.43,0.14,0.05
24.76,0.43,0.11,0.06
24.76,0.43,0.09,0.06
24.76,0.43,0.07,0.05
24.77,0.42,0.07,0.05
24.77,0.42,0.07,0.05
24.77,0.41,0.07,0.04
24.77,0.41,0.07,0.04
24.78,0.41,0.08,0.04
24.78,0.40,0.09,0.03
24.78,0.40,0.10,0.03
24.78,0.40,0.12,0.02
24.79,0.39,0.13,0.01
24.79,0.38,0.14,0.01
24.79,0.38,0.16,0.01
24.79,0.38,0.16,0.00
24.80,0.38,0.18,-0.01
24.80,0.38,0.19,-0.02
24.80,0.38,0.20,-0.03
24.80,0.38,0.21,-0.03
24.81,0.38,0.22,-0.04
24.81,0.38,0.23,-0.05
24.81,0.38,0.23,-0.06
24.81,0.39,0.24,-0.07
24.82,0.39,0.24,-0.08
24.82,0.40,0.24,-0.08
24.82,0.40,0.23,-0.09
24.82,0.42,0.23,-0.09
24.83,0.43,0.23,-0.09
24.83,0.43,0.22,-0.10
24.83,0.44,0.21,-0.10
24.83,0.45,0.22,-0.11
24.84,0.44,0.24,-0.11
24.84,0.44,0.26,-0.11
24.84,0.44,0.28,-0.11
24.84,0.43,0.30,-0.12
24.85,0.41,0.33,-0.12
24.85,0.39,0.36,-0.11
24.85,0.38,0.37,-0.10
24.85,0.36,0.39,-0.09
24.86,0.34,0.40,-0.08
24.86,0.33,0.41,-0.07
24.86,0.32,0.40,-0.05
24.86,0.32,0.40,-0.03
24.87,0.31,0.38,0.00
24.87,0.32,0.37,0.02
24.87,0.32,0.36,0.04
24.87,0.32,0.36,0.05
24.88,0.33,0.35,0.07
24.88,0.34,0.36,0.08
24.88,0.34,0.36,0.09
24.88,0.35,0.36,0.10
24.89,0.35,0.35,0.10
24.89,0.35,0.34,0.11
24.89,0.35,0.32,0.12
24.89,0.34,0.30,0.12
24.90,0.33,0.27,0.14
24.90,0.32,0.24,0.16
24.90,0.31,0.20,0.17
24.90,0.29,0.16,0.19
24.91,0.27,0.12,0.21
24.91,0.26,0.07,0.22
24.91,0.24,0.02,0.23
24.91,0.22,-0.03,0.24
24.92,0.19,-0.07,0.25
24.92,0.17,-0.11,0.25
24.92,0.14,-0.16,0.26
24.92,0.12,-0.21,0.26
24.93,0.10,-0.26,0.27
24.93,0.07,-0.30,0.27
24.93,0.05,-0.33,0.27
24.93,0.03,-0.37,0.27
24.94,0.02,-0.39,0.27
24.94,0.01,-0.42,0.27
24.94,-0.01,-0.44,0.28
24.94,-0.02,-0.45,0.28
24.95,-0.04,-0.46,0.28
24.95,-0.05,-0.47,0.28
24.95,-0.07,-0.48,0.28
24.95,-0.08,-0.50,0.28
24.96,-0.10,-0.51,0.28
24.96,-0.12,-0.53,0.28
24.96,-0.14,-0.55,0.28
24.96,-0.16,-0.57,0.29
24.97,-0.19,-0.60,0.29
24.97,-0.23,-0.63,0.30
24.97,-0.27,-0.66,0.30
24.97,-0.32,-0.70,0.31
24.98,-0.37,-0.74,0.32
24.98,-0.42,-0.77,0.33
24.98,-0.49,-0.81,0.34
24.98,-0.55,-0.83,0.36
24.99,-0.62,-0.86,0.38
24.99,-0.69,-0.89,0.40
24.99,-0.77,-0.91,0.43
24.99,-0.84,-0.92,0.46
25.00,-0.92,-0.94,0.49
25.00,-1.00,-0.95,0.53
25.00,-1.09,-0.97,0.58
25.00,-1.18,-0.98,0.63
25.01,-1.26,-0.99,0.69
25.01,-1.35,-1.01,0.75
25.01,-1.43,-1.02,0.81
25.01,-1.52,-1.05,0.88
25.02,-1.60,-1.07,0.94
25.02,-1.69,-1.11,1.00
25.02,-1.77,-1.17,1.08
25.02,-1.87,-1.24,1.17
25.03,-1.96,-1.31,1.25
25.03,-2.04,-1.37,1.32
25.03,-2.11,-1.44,1.39
25.03,-2.18,-1.51,1.46
25.04,-2.25,-1.57,1.52
25.04,-2.32,-1.64,1.58
25.04,-2.39,-1.71,1.65
25.04,-2.44,-1.77,1.72
25.05,-2.49,-1.83,1.79
25.05,-2.52,-1.87,1.87
25.05,-2.54,-1.90,1.95
25.05,-2.54,-1.93,2.03
25.06,-2.53,-1.94,2.11
25.06,-2.49,-1.93,2.18
25.06,-2.44,-1.91,2.25
25.06,-2.38,-1.88,2.32
25.07,-2.30,-1.85,2.39
25.07,-2.21,-1.80,2.44
25.07,-2.12,-1.73,2.49
25.07,-2.00,-1.66,2.53
25.08,-1.89,-1.60,2.56
25.08,-1.77,-1.54,2.58
25.08,-1.66,-1.50,2.59
25.08,-1.55,-1.46,2.58
25.09,-1.45,-1.43,2.56
25.09,-1.37,-1.39,2.53
25.09,-1.30,-1.37,2.50
25.09,-1.24,-1.37,2.48
25.10,-1.20,-1.40,2.45
25.10,-1.18,-1.43,2.42
25.10,-1.19,-1.47,2.39
25.10,-1.20,-1.50,2.35
25.11,-1.23,-1.51,2.30
25.11,-1.26,-1.50,2.24
25.11,-1.31,-1.46,2.19
25.11,-1.38,-1.39,2.14
25.12,-1.44,-1.30,2.08
25.12,-1.51,-1.19,2.01
25.12,-1.59,-1.08,1.95
25.12,-1.66,-0.97,1.88
25.13,-1.73,-0.86,1.80
25.13,-1.78,-0.75,1.72
25.13,-1.84,-0.65,1.64
25.13,-1.88,-0.58,1.56
25.14,-1.90,-0.52,1.50
25.14,-1.91,-0.48,1.45
25.14,-1.91,-0.45,1.41
25.14,-1.90,-0.44,1.38
25.15,-1.87,-0.44,1.37
25.15,-1.84,-0.44,1.36
25.15,-1.80,-0.44,1.36
25.15,-1.76,-0.45,1.36
25.16,-1.71,-0.47,1.37
25.16,-1.66,-0.49,1.38
25.16,-1.60,-0.51,1.40
25.16,-1.54,-0.53,1.42
25.17,-1.49,-0.57,1.44
25.17,-1.43,-0.61,1.47
25.17,-1.37,-0.65,1.50
25.17,-1.31,-0.68,1.53
25.18,-1.26,-0.71,1.55
25.18,-1.21,-0.75,1.57
25.18,-1.16,-0.79,1.56
25.18,-1.12,-0.82,1.56
25.19,-1.10,-0.86,1.55
25.19,-1.07,-0.89,1.51
25.19,-1.05,-0.91,1.47
25.19,-1.05,-0.93,1.42
25.20,-1.07,-0.94,1.37
25.20,-1.11,-0.95,1.30
25.20,-1.19,-0.95,1.24
25.20,-1.28,-0.92,1.19
25.21,-1.36,-0.86,1.17
25.21,-1.44,-0.78,1.17
25.21,-1.51,-0.71,1.20
25.21,-1.57,-0.64,1.23
25.22,-1.62,-0.60,1.26
25.22,-1.66,-0.56,1.30
25.22,-1.70,-0.54,1.33
25.22,-1.72,-0.52,1.35
25.23,-1.72,-0.51,1.35
25.23,-1.72,-0.52,1.35
25.23,-1.72,-0.53,1.34
25.23,-1.70,-0.55,1.34
25.24,-1.68,-0.57,1.33
25.24,-1.66,-0.56,1.31
25.24,-1.63,-0.54,1.28
25.24,-1.61,-0.52,1.24
25.25,-1.58,-0.49,1.21
25.25,-1.56,-0.45,1.18
25.25,-1.54,-0.39,1.15
25.25,-1.52,-0.33,1.12
25.26,-1.50,-0.26,1.10
25.26,-1.49,-0.18,1.07
25.26,-1.48,-0.10,1.06
25.26,-1.47,0.00,1.05
25.27,-1.46,0.09,1.04
25.27,-1.46,0.17,1.03
25.27,-1.46,0.25,1.02
25.27,-1.45,0.31,1.02
25.28,-1.44,0.35,1.02
25.28,-1.44,0.39,1.02
25.28,-1.43,0.40,1.02
25.28,-1.42,0.41,1.02
25.29,-1.42,0.41,1.02
25.29,-1.40,0.41,1.01
25.29,-1.40,0.39,1.00
25.29,-1.38,0.36,0.99
25.30,-1.37,0.32,0.98
25.30,-1.36,0.27,0.97
25.30,-1.34,0.22,0.96
25.30,-1.32,0.15,0.95
25.31,-1.30,0.08,0.94
25.31,-1.28,0.00,0.93
25.31,-1.25,-0.07,0.91
25.31,-1.22,-0.15,0.90
25.32,-1.19,-0.23,0.89
25.32,-1.16,-0.30,0.88
25.32,-1.12,-0.37,0.87
25.32,-1.08,-0.43,0.86
25.33,-1.04,-0.49,0.85
25.33,-1.00,-0.53,0.84
25.33,-0.97,-0.57,0.83
25.33,-0.93,-0.59,0.81
25.34,-0.88,-0.60,0.79
25.34,-0.84,-0.61,0.77
25.34,-0.80,-0.61,0.76
25.34,-0.75,-0.60,0.74
25.35,-0.71,-0.58,0.71
25.35,-0.67,-0.56,0.69
25.35,-0.63,-0.54,0.66
25.35,-0.58,-0.51,0.63
25.36,-0.54,-0.48,0.60
25.36,-0.50,-0.45,0.57
25.36,-0.46,-0.42,0.54
25.36,-0.43,-0.39,0.50
25.37,-0.40,-0.36,0.47
25.37,-0.37,-0.34,0.43
25.37,-0.34,-0.31,0.40
25.37,-0.31,-0.28,0.37
25.38,-0.29,-0.26,0.34
25.38,-0.26,-0.24,0.31
25.38,-0.25,-0.21,0.28
25.38,-0.23,-0.19,0.25
25.39,-0.21,-0.16,0.22
25.39,-0.20,-0.14,0.19
25.39,-0.18,-0.11,0.16
25.39,-0.17,-0.09,0.13
25.40,-0.16,-0.07,0.11
25.40,-0.15,-0.05,0.08
25.40,-0.15,-0.03,0.05
25.40,-0.15,-0.02,0.03
25.41,-0.13,-0.01,0.01
25.41,-0.12,0.00,-0.01
25.41,-0.13,0.01,-0.04
25.41,-0.13,0.02,-0.06
25.42,-0.13,0.03,-0.08
25.42,-0.13,0.03,-0.11
25.42,-0.13,0.03,-0.12
25.42,-0.13,0.03,-0.15
25.43,-0.13,0.03,-0.17
25.43,-0.14,0.02,-0.19
25.43,-0.13,0.02,-0.22
25.43,-0.13,0.01,-0.24
25.44,-0.13,0.00,-0.26
25.44,-0.12,0.00,-0.28
25.44,-0.11,-0.01,-0.30
25.44,-0.10,-0.02,-0.33
25.45,-0.08,-0.03,-0.35
25.45,-0.07,-0.04,-0.37
25.45,-0.05,-0.04,-0.39
25.45,-0.04,-0.05,-0.41
25.46,-0.02,-0.06,-0.43
25.46,0.00,-0.07,-0.44
25.46,0.02,-0.07,-0.46
25.46,0.04,-0.08,-0.48
25.47,0.07,-0.08,-0.49
25.47,0.09,-0.08,-0.50
25.47,0.11,-0.09,-0.51
25.47,0.14,-0.09,-0.53
25.48,0.16,-0.08,-0.54
25.48,0.18,-0.07,-0.55
25.48,0.21,-0.06,-0.56
25.48,0.23,-0.05,-0.58
25.49,0.25,-0.04,-0.59
25.49,0.27,-0.03,-0.60
25.49,0.29,-0.01,-0.61
25.49,0.30,0.01,-0.62
25.50,0.32,0.02,-0.63
25.50,0.34,0.04,-0.64
25.50,0.35,0.07,-0.65
25.50,0.37,0.09,-0.66
25.51,0.39,0.11,-0.66
25.51,0.41,0.13,-0.67
25.51,0.43,0.15,-0.67
25.51,0.45,0.17,-0.68
25.52,0.47,0.19,-0.69
25.52,0.50,0.20,-0.70
25.52,0.53,0.22,-0.70
25.52,0.55,0.24,-0.71
25.53,0.59,0.26,-0.72
25.53,0.61,0.27,-0.73
25.53,0.63,0.27,-0.75
25.53,0.65,0.27,-0.78
25.54,0.66,0.26,-0.80
25.54,0.67,0.24,-0.82
25.54,0.66,0.21,-0.84
25.54,0.65,0.17,-0.84
25.55,0.62,0.11,-0.82
25.55,0.57,0.05,-0.78
25.55,0.51,-0.01,-0.73
25.55,0.44,-0.07,-0.68
25.56,0.37,-0.13,-0.65
25.56,0.29,-0.18,-0.61
25.56,0.22,-0.22,-0.58
25.56,0.13,-0.24,-0.55
25.57,0.05,-0.25,-0.51
25.57,-0.04,-0.25,-0.48
25.57,-0.14,-0.24,-0.44
25.57,-0.22,-0.24,-0.39
25.58,-0.30,-0.23,-0.34
25.58,-0.35,-0.22,-0.28
25.58,-0.39,-0.20,-0.24
25.58,-0.41,-0.19,-0.20
25.59,-0.43,-0.18,-0.16
25.59,-0.43,-0.16,-0.14
25.59,-0.43,-0.12,-0.13
25.59,-0.41,-0.08,-0.13
25.60,-0.40,-0.01,-0.14
25.60,-0.37,0.07,-0.16
25.60,-0.35,0.17,-0.18
25.60,-0.33,0.28,-0.21
25.61,-0.31,0.41,-0.25
25.61,-0.30,0.53,-0.28
25.61,-0.28,0.63,-0.32
25.61,-0.27,0.73,-0.35
25.62,-0.26,0.80,-0.40
25.62,-0.24,0.84,-0.45
25.62,-0.21,0.85,-0.51
25.62,-0.16,0.82,-0.57
25.63,-0.09,0.77,-0.63
25.63,0.00,0.70,-0.68
25.63,0.11,0.62,-0.72
25.63,0.24,0.54,-0.75
25.64,0.37,0.45,-0.76
25.64,0.49,0.38,-0.74
25.64,0.62,0.32,-0.73
25.64,0.75,0.26,-0.72
25.65,0.89,0.18,-0.72
25.65,1.02,0.10,-0.72
25.65,1.14,0.03,-0.72
25.65,1.24,-0.03,-0.72
25.66,1.32,-0.09,-0.71
25.66,1.39,-0.14,-0.70
25.66,1.43,-0.19,-0.70
25.66,1.44,-0.22,-0.69
25.67,1.43,-0.24,-0.70
25.67,1.41,-0.24,-0.70
25.67,1.37,-0.24,-0.71
25.67,1.31,-0.23,-0.72
25.68,1.23,-0.22,-0.74
25.68,1.15,-0.19,-0.75
25.68,1.04,-0.16,-0.76
25.68,0.93,-0.12,-0.78
25.69,0.81,-0.08,-0.78
25.69,0.69,-0.04,-0.79
25.69,0.56,0.00,-0.80
25.69,0.44,0.04,-0.81
25.70,0.33,0.09,-0.81
25.70,0.22,0.15,-0.82
25.70,0.13,0.20,-0.83
25.70,0.06,0.25,-0.83
25.71,0.01,0.31,-0.83
25.71,-0.03,0.37,-0.82
25.71,-0.05,0.42,-0.82
25.71,-0.06,0.47,-0.81
25.72,-0.05,0.51,-0.79
25.72,-0.04,0.55,-0.78
25.72,-0.01,0.58,-0.76
25.72,0.02,0.60,-0.74
25.73,0.06,0.61,-0.72
25.73,0.09,0.63,-0.69
25.73,0.13,0.64,-0.68
25.73,0.16,0.63,-0.66
25.74,0.20,0.62,-0.63
25.74,0.24,0.59,-0.61
25.74,0.28,0.56,-0.58
25.74,0.31,0.52,-0.56
25.75,0.33,0.48,-0.54
25.75,0.36,0.46,-0.53
25.75,0.37,0.44,-0.52
25.75,0.38,0.41,-0.51
25.76,0.40,0.37,-0.50
25.76,0.40,0.33,-0.49
25.76,0.40,0.29,-0.49
25.76,0.40,0.27,-0.49
25.77,0.39,0.26,-0.50
25.77,0.37,0.28,-0.52
25.77,0.34,0.36,-0.56
25.77,0.30,0.50,-0.60
25.78,0.26,0.67,-0.64
25.78,0.22,0.84,-0.68
25.78,0.20,0.99,-0.71
25.78,0.19,1.09,-0.73
25.79,0.20,1.15,-0.75
25.79,0.22,1.17,-0.75
25.79,0.25,1.16,-0.75
25.79,0.29,1.13,-0.74
25.80,0.33,1.10,-0.72
25.80,0.37,1.06,-0.70
25.80,0.42,1.03,-0.67
25.80,0.46,1.01,-0.64
25.81,0.50,1.00,-0.61
25.81,0.54,1.00,-0.57
25.81,0.58,1.00,-0.54
25.81,0.61,1.01,-0.50
25.82,0.64,1.01,-0.45
25.82,0.67,0.99,-0.40
25.82,0.69,1.01,-0.37
25.82,0.70,1.04,-0.34
25.83,0.71,1.08,-0.31
25.83,0.72,1.11,-0.29
25.83,0.73,1.14,-0.27
25.83,0.74,1.17,-0.25
25.84,0.75,1.18,-0.23
25.84,0.75,1.18,-0.23
25.84,0.75,1.16,-0.22
25.84,0.75,1.14,-0.21
25.85,0.74,1.11,-0.21
25.85,0.74,1.08,-0.20
25.85,0.73,1.06,-0.21
25.85,0.72,1.06,-0.21
25.86,0.71,1.05,-0.21
25.86,0.70,1.03,-0.21
25.86,0.68,1.00,-0.21
25.86,0.67,0.98,-0.21
25.87,0.66,0.95,-0.21
25.87,0.65,0.93,-0.21
25.87,0.64,0.90,-0.21
25.87,0.64,0.88,-0.21
25.88,0.64,0.87,-0.22
25.88,0.64,0.86,-0.21
25.88,0.64,0.85,-0.22
25.88,0.64,0.84,-0.22
25.89,0.65,0.84,-0.22
25.89,0.65,0.84,-0.22
25.89,0.66,0.83,-0.21
25.89,0.67,0.84,-0.21
25.90,0.67,0.84,-0.21
25.90,0.68,0.86,-0.21
25.90,0.68,0.88,-0.20
25.90,0.68,0.91,-0.19
25.91,0.68,0.93,-0.18
25.91,0.68,0.95,-0.17
25.91,0.68,0.96,-0.17
25.91,0.69,0.98,-0.18
25.92,0.68,1.02,-0.19
25.92,0.68,1.06,-0.19
25.92,0.67,1.10,-0.19
25.92,0.65,1.15,-0.19
25.93,0.64,1.19,-0.19
25.93,0.63,1.23,-0.19
25.93,0.61,1.27,-0.19
25.93,0.59,1.30,-0.19
25.94,0.57,1.33,-0.19
25.94,0.56,1.34,-0.18
25.94,0.55,1.36,-0.16
25.94,0.53,1.37,-0.16
25.95,0.51,1.39,-0.15
25.95,0.49,1.40,-0.15
25.95,0.48,1.39,-0.15
25.95,0.47,1.38,-0.15
25.96,0.45,1.37,-0.15
25.96,0.44,1.35,-0.15
25.96,0.43,1.33,-0.14
25.96,0.42,1.32,-0.12
25.97,0.40,1.31,-0.10
25.97,0.39,1.30,-0.08
25.97,0.37,1.30,-0.07
25.97,0.36,1.29,-0.06
25.98,0.35,1.28,-0.04
25.98,0.34,1.28,-0.02
25.98,0.32,1.28,0.00
25.98,0.31,1.28,0.02
25.99,0.30,1.28,0.04
25.99,0.27,1.28,0.06
25.99,0.26,1.29,0.08
25.99,0.24,1.30,0.10
26.00,0.22,1.30,0.11
26.00,0.20,1.30,0.12
26.00,0.18,1.30,0.14
26.00,0.16,1.29,0.15
26.01,0.14,1.28,0.16
26.01,0.13,1.28,0.18
26.01,0.11,1.27,0.18
26.01,0.09,1.23,0.18
26.02,0.09,1.16,0.17
26.02,0.10,1.12,0.18
26.02,0.09,1.12,0.19
26.02,0.09,1.12,0.20
26.03,0.09,1.11,0.22
26.03,0.09,1.10,0.24
26.03,0.09,1.09,0.25
26.03,0.10,1.06,0.26
26.04,0.11,1.04,0.26
26.04,0.11,1.00,0.25
26.04,0.13,0.97,0.24
26.04,0.13,0.94,0.23
26.05,0.14,0.90,0.21
26.05,0.14,0.87,0.20
26.05,0.15,0.83,0.19
26.05,0.15,0.80,0.18
26.06,0.15,0.77,0.17
26.06,0.16,0.72,0.15
26.06,0.16,0.68,0.14
26.06,0.15,0.65,0.12
26.07,0.15,0.62,0.11
26.07,0.14,0.59,0.10
26.07,0.14,0.56,0.09
26.07,0.13,0.53,0.09
26.08,0.13,0.50,0.08
26.08,0.13,0.46,0.08
26.08,0.14,0.43,0.07
26.08,0.14,0.39,0.07
26.09,0.15,0.36,0.06
26.09,0.16,0.33,0.06
26.09,0.17,0.29,0.05
26.09,0.17,0.25,0.05
26.10,0.18,0.22,0.05
26.10,0.19,0.19,0.05
26.10,0.20,0.17,0.05
26.10,0.21,0.15,0.05
26.11,0.22,0.14,0.06
26.11,0.23,0.12,0.06
26.11,0.24,0.11,0.06
26.11,0.24,0.10,0.07
26.12,0.25,0.09,0.07
26.12,0.25,0.08,0.08
26.12,0.26,0.07,0.08
26.12,0.26,0.07,0.09
26.13,0.27,0.07,0.09
26.13,0.27,0.07,0.10
26.13,0.28,0.08,0.10
26.13,0.29,0.08,0.10
26.14,0.29,0.08,0.10
26.14,0.30,0.08,0.10
26.14,0.30,0.08,0.10
26.14,0.31,0.08,0.09
26.15,0.32,0.09,0.08
26.15,0.32,0.09,0.07
26.15,0.32,0.09,0.07
26.15,0.33,0.10,0.07
26.16,0.33,0.11,0.06
26.16,0.34,0.12,0.05
26.16,0.34,0.12,0.05
26.16,0.34,0.13,0.05
26.17,0.35,0.14,0.04
26.17,0.36,0.15,0.04
26.17,0.37,0.16,0.02
26.17,0.37,0.18,0.01
26.18,0.38,0.22,0.02
26.18,0.39,0.24,0.03
26.18,0.41,0.25,0.02
26.18,0.43,0.25,0.02
26.19,0.44,0.27,0.02
26.19,0.45,0.30,0.01
26.19,0.46,0.32,0.00
26.19,0.47,0.35,0.00
26.20,0.47,0.39,-0.01
26.20,0.48,0.42,-0.01
26.20,0.47,0.46,-0.02
26.20,0.47,0.49,-0.02
26.21,0.46,0.52,-0.02
26.21,0.44,0.55,-0.02
26.21,0.42,0.58,-0.02
26.21,0.41,0.60,-0.01
26.22,0.39,0.62,0.01
26.22,0.38,0.63,0.02
26.22,0.36,0.63,0.05
26.22,0.35,0.63,0.06
26.23,0.34,0.61,0.08
26.23,0.33,0.59,0.09
26.23,0.32,0.57,0.10
26.23,0.32,0.56,0.11
26.24,0.31,0.54,0.11
26.24,0.30,0.53,0.11
26.24,0.31,0.52,0.10
26.24,0.30,0.50,0.10
26.25,0.30,0.49,0.09
26.25,0.30,0.48,0.08
26.25,0.30,0.47,0.08
26.25,0.30,0.46,0.08
26.26,0.31,0.46,0.08
26.26,0.31,0.46,0.09
26.26,0.32,0.46,0.09
26.26,0.32,0.45,0.10
26.27,0.32,0.43,0.11
26.27,0.32,0.42,0.12
26.27,0.32,0.40,0.13
26.27,0.32,0.38,0.15
26.28,0.32,0.35,0.16
26.28,0.32,0.31,0.19
26.28,0.32,0.27,0.21
26.28,0.31,0.22,0.23
26.29,0.31,0.17,0.24
26.29,0.30,0.11,0.26
26.29,0.30,0.05,0.28
26.29,0.29,0.00,0.29
26.30,0.28,-0.05,0.30
26.30,0.27,-0.10,0.31
26.30,0.26,-0.15,0.33
26.30,0.25,-0.19,0.33
26.31,0.25,-0.23,0.34
26.31,0.24,-0.26,0.34
26.31,0.23,-0.28,0.34
26.31,0.23,-0.30,0.35
26.32,0.22,-0.32,0.35
26.32,0.22,-0.34,0.36
26.32,0.21,-0.36,0.36
26.32,0.20,-0.38,0.36
26.33,0.19,-0.40,0.36
26.33,0.17,-0.42,0.37
26.33,0.15,-0.44,0.37
26.33,0.13,-0.47,0.38
26.34,0.10,-0.50,0.38
26.34,0.07,-0.53,0.39
26.34,0.03,-0.56,0.40
26.34,-0.01,-0.59,0.41
26.35,-0.05,-0.61,0.42
26.35,-0.10,-0.63,0.43
26.35,-0.16,-0.64,0.44
26.35,-0.21,-0.65,0.46
26.36,-0.28,-0.67,0.48
26.36,-0.34,-0.68,0.49
26.36,-0.41,-0.70,0.50
26.36,-0.49,-0.72,0.52
26.37,-0.57,-0.75,0.54
26.37,-0.65,-0.77,0.57
26.37,-0.75,-0.79,0.59
26.37,-0.84,-0.82,0.63
26.38,-0.95,-0.85,0.65
26.38,-1.06,-0.87,0.69
26.38,-1.17,-0.90,0.72
26.38,-1.28,-0.92,0.76
26.39,-1.38,-0.95,0.80
26.39,-1.49,-0.97,0.84
26.39,-1.59,-0.99,0.88
26.39,-1.68,-1.02,0.92
26.40,-1.76,-1.06,0.96
26.40,-1.84,-1.10,0.99
26.40,-1.92,-1.14,1.03
26.40,-1.98,-1.18,1.08
26.41,-2.05,-1.24,1.14
26.41,-2.10,-1.29,1.19
26.41,-2.15,-1.34,1.23
26.41,-2.18,-1.39,1.27
26.42,-2.22,-1.44,1.32
26.42,-2.25,-1.47,1.36
26.42,-2.27,-1.50,1.41
26.42,-2.28,-1.53,1.45
26.43,-2.29,-1.54,1.50
26.43,-2.29,-1.54,1.54
26.43,-2.27,-1.54,1.58
26.43,-2.25,-1.53,1.62
26.44,-2.22,-1.51,1.66
26.44,-2.17,-1.49,1.71
26.44,-2.12,-1.47,1.74
26.44,-2.07,-1.44,1.78
26.45,-2.00,-1.41,1.82
26.45,-1.93,-1.37,1.85
26.45,-1.85,-1.32,1.89
26.45,-1.77,-1.29,1.91
26.46,-1.69,-1.26,1.93
26.46,-1.61,-1.24,1.95
26.46,-1.54,-1.22,1.97
26.46,-1.48,-1.20,1.97
26.47,-1.42,-1.18,1.97
26.47,-1.37,-1.16,1.98
26.47,-1.33,-1.14,1.97
26.47,-1.29,-1.14,1.97
26.48,-1.27,-1.14,1.96
26.48,-1.27,-1.15,1.94
26.48,-1.28,-1.16,1.93
26.48,-1.30,-1.18,1.92
26.49,-1.32,-1.20,1.92
26.49,-1.35,-1.21,1.91
26.49,-1.38,-1.23,1.90
26.49,-1.43,-1.24,1.87
26.50,-1.47,-1.22,1.84
26.50,-1.51,-1.19,1.81
26.50,-1.56,-1.15,1.77
26.50,-1.61,-1.10,1.73
26.51,-1.66,-1.05,1.69
26.51,-1.70,-1.00,1.65
26.51,-1.74,-0.95,1.62
26.51,-1.77,-0.90,1.58
26.52,-1.80,-0.85,1.55
26.52,-1.82,-0.80,1.51
26.52,-1.83,-0.74,1.48
26.52,-1.83,-0.68,1.45
26.53,-1.82,-0.62,1.43
26.53,-1.81,-0.56,1.42
26.53,-1.78,-0.50,1.40
26.53,-1.75,-0.44,1.39
26.54,-1.71,-0.38,1.38
26.54,-1.67,-0.34,1.38
26.54,-1.62,-0.31,1.38
26.54,-1.57,-0.30,1.40
26.55,-1.52,-0.31,1.40
26.55,-1.46,-0.35,1.41
26.55,-1.40,-0.38,1.41
26.55,-1.35,-0.42,1.42
26.56,-1.30,-0.46,1.41
26.56,-1.24,-0.50,1.41
26.56,-1.18,-0.55,1.40
26.56,-1.14,-0.60,1.39
26.57,-1.09,-0.66,1.38
26.57,-1.06,-0.71,1.37
26.57,-1.02,-0.76,1.35
26.57,-0.99,-0.82,1.33
26.58,-0.98,-0.87,1.31
26.58,-0.98,-0.92,1.28
26.58,-0.98,-0.98,1.25
26.58,-1.00,-1.01,1.22
26.59,-1.01,-1.03,1.19
26.59,-1.05,-1.04,1.16
26.59,-1.10,-1.05,1.12
26.59,-1.16,-1.05,1.10
26.60,-1.22,-1.04,1.10
26.60,-1.27,-1.01,1.11
26.60,-1.32,-0.98,1.13
26.60,-1.37,-0.95,1.17
26.61,-1.40,-0.92,1.20
26.61,-1.44,-0.89,1.24
26.61,-1.46,-0.87,1.27
26.61,-1.48,-0.84,1.29
26.62,-1.49,-0.81,1.31
26.62,-1.50,-0.77,1.31
26.62,-1.50,-0.71,1.30
26.62,-1.50,-0.67,1.28
26.63,-1.50,-0.63,1.26
26.63,-1.49,-0.59,1.24
26.63,-1.48,-0.56,1.23
26.63,-1.46,-0.51,1.21
26.64,-1.45,-0.46,1.19
26.64,-1.44,-0.40,1.17
26.64,-1.42,-0.33,1.16
26.64,-1.42,-0.26,1.15
26.65,-1.42,-0.21,1.13
26.65,-1.42,-0.15,1.12
26.65,-1.43,-0.10,1.12
26.65,-1.44,-0.05,1.11
26.66,-1.45,0.00,1.11
26.66,-1.47,0.04,1.11
26.66,-1.49,0.07,1.11
26.66,-1.50,0.11,1.11
26.67,-1.52,0.14,1.11
26.67,-1.53,0.15,1.10
26.67,-1.55,0.17,1.10
26.67,-1.56,0.18,1.09
26.68,-1.56,0.18,1.09
26.68,-1.57,0.18,1.09
26.68,-1.57,0.16,1.09
26.68,-1.58,0.14,1.08
26.69,-1.58,0.12,1.08
26.69,-1.58,0.09,1.08
26.69,-1.57,0.06,1.07
26.69,-1.57,0.02,1.06
26.70,-1.56,-0.02,1.06
26.70,-1.55,-0.07,1.05
26.70,-1.53,-0.12,1.04
26.70,-1.51,-0.16,1.03
26.71,-1.49,-0.22,1.02
26.71,-1.47,-0.26,1.02
26.71,-1.44,-0.31,1.01
26.71,-1.41,-0.35,1.01
26.72,-1.37,-0.38,1.01
26.72,-1.33,-0.41,1.00
26.72,-1.29,-0.44,0.99
26.72,-1.24,-0.46,0.99
26.73,-1.19,-0.48,0.99
26.73,-1.15,-0.49,0.98
26.73,-1.10,-0.50,0.98
26.73,-1.05,-0.50,0.97
26.74,-0.99,-0.50,0.95
26.74,-0.94,-0.50,0.93
26.74,-0.90,-0.49,0.92
26.74,-0.84,-0.48,0.90
26.75,-0.80,-0.48,0.88
26.75,-0.76,-0.48,0.86
26.75,-0.71,-0.47,0.84
26.75,-0.66,-0.47,0.82
26.76,-0.61,-0.47,0.81
26.76,-0.57,-0.47,0.79
26.76,-0.53,-0.47,0.77
26.76,-0.49,-0.46,0.75
26.77,-0.45,-0.46,0.73
26.77,-0.42,-0.45,0.72
26.77,-0.38,-0.44,0.70
26.77,-0.36,-0.43,0.68
26.78,-0.33,-0.42,0.66
26.78,-0.31,-0.41,0.65
26.78,-0.29,-0.38,0.63
26.78,-0.27,-0.36,0.61
26.79,-0.26,-0.34,0.58
26.79,-0.25,-0.31,0.57
26.79,-0.25,-0.27,0.54
26.79,-0.24,-0.24,0.52
26.80,-0.24,-0.20,0.49
26.80,-0.25,-0.15,0.47
26.80,-0.26,-0.11,0.45
26.80,-0.27,-0.07,0.43
26.81,-0.28,-0.02,0.40
26.81,-0.29,0.02,0.37
26.81,-0.31,0.07,0.35
26.81,-0.33,0.11,0.32
26.82,-0.35,0.16,0.29
26.82,-0.37,0.20,0.26
26.82,-0.39,0.23,0.24
26.82,-0.41,0.27,0.21
26.83,-0.42,0.30,0.18
26.83,-0.43,0.32,0.15
26.83,-0.45,0.34,0.13
26.83,-0.45,0.36,0.10
26.84,-0.45,0.37,0.08
26.84,-0.44,0.38,0.06
26.84,-0.44,0.38,0.03
26.84,-0.43,0.38,0.01
26.85,-0.42,0.36,-0.01
26.85,-0.40,0.35,-0.04
26.85,-0.38,0.34,-0.07
26.85,-0.36,0.32,-0.09
26.86,-0.33,0.30,-0.11
26.86,-0.30,0.27,-0.14
26.86,-0.26,0.25,-0.16
26.86,-0.23,0.23,-0.19
26.87,-0.20,0.21,-0.22
26.87,-0.17,0.19,-0.23
26.87,-0.13,0.17,-0.26
26.87,-0.09,0.15,-0.28
26.88,-0.05,0.12,-0.31
26.88,0.00,0.10,-0.33
26.88,0.04,0.07,-0.35
26.88,0.08,0.05,-0.38
26.89,0.12,0.03,-0.40
26.89,0.17,0.01,-0.42
26.89,0.21,-0.01,-0.44
26.89,0.25,-0.03,-0.45
26.90,0.29,-0.06,-0.47
26.90,0.34,-0.08,-0.48
26.90,0.38,-0.10,-0.50
26.90,0.41,-0.11,-0.51
26.91,0.45,-0.13,-0.52
26.91,0.49,-0.13,-0.53
26.91,0.51,-0.14,-0.55
26.91,0.53,-0.14,-0.56
26.92,0.56,-0.14,-0.57
26.92,0.58,-0.14,-0.58
26.92,0.59,-0.14,-0.59
26.92,0.60,-0.14,-0.61
26.93,0.61,-0.13,-0.61
26.93,0.61,-0.12,-0.63
26.93,0.62,-0.11,-0.64
26.93,0.61,-0.10,-0.66
26.94,0.61,-0.08,-0.67
26.94,0.60,-0.05,-0.68
26.94,0.59,-0.02,-0.70
26.94,0.58,0.00,-0.72
26.95,0.57,0.03,-0.74
26.95,0.56,0.04,-0.76
26.95,0.54,0.06,-0.78
26.95,0.51,0.08,-0.80
26.96,0.48,0.10,-0.81
26.96,0.45,0.11,-0.82
26.96,0.40,0.11,-0.81
26.96,0.34,0.11,-0.78
26.97,0.28,0.12,-0.74
26.97,0.21,0.12,-0.69
26.97,0.14,0.13,-0.63
26.97,0.07,0.14,-0.57
26.98,0.00,0.14,-0.51
26.98,-0.07,0.14,-0.46
26.98,-0.14,0.12,-0.40
26.98,-0.19,0.09,-0.34
26.99,-0.24,0.05,-0.29
26.99,-0.28,0.00,-0.23
26.99,-0.32,-0.06,-0.18
26.99,-0.36,-0.13,-0.15
27.00,-0.38,-0.22,-0.11
27.00,-0.39,-0.32,-0.08
27.00,-0.39,-0.42,-0.05
27.00,-0.37,-0.51,-0.03
27.01,-0.33,-0.60,-0.01
27.01,-0.29,-0.66,0.01
27.01,-0.24,-0.70,0.02
27.01,-0.20,-0.73,0.03
27.02,-0.15,-0.72,0.04
27.02,-0.10,-0.69,0.05
27.02,-0.05,-0.64,0.05
27.02,0.00,-0.56,0.05
27.03,0.06,-0.46,0.05
27.03,0.12,-0.35,0.03
27.03,0.18,-0.23,0.01
27.03,0.24,-0.10,-0.02
27.04,0.30,0.04,-0.05
27.04,0.37,0.17,-0.08
27.04,0.42,0.29,-0.12
27.04,0.47,0.40,-0.15
27.05,0.52,0.51,-0.19
27.05,0.56,0.61,-0.23
27.05,0.59,0.70,-0.27
27.05,0.61,0.79,-0.32
27.06,0.62,0.87,-0.36
27.06,0.62,0.94,-0.41
27.06,0.61,0.99,-0.47
27.06,0.60,1.02,-0.53
27.07,0.58,1.04,-0.59
27.07,0.56,1.03,-0.65
27.07,0.55,0.99,-0.71
27.07,0.53,0.93,-0.76
27.08,0.50,0.85,-0.80
27.08,0.48,0.75,-0.83
27.08,0.46,0.63,-0.86
27.08,0.45,0.49,-0.88
27.09,0.44,0.34,-0.90
27.09,0.44,0.18,-0.90
27.09,0.43,0.01,-0.91
27.09,0.43,-0.15,-0.91
27.10,0.43,-0.31,-0.91
27.10,0.41,-0.46,-0.91
27.10,0.40,-0.60,-0.91
27.10,0.40,-0.73,-0.91
27.11,0.39,-0.83,-0.91
27.11,0.37,-0.92,-0.91
27.11,0.36,-0.98,-0.90
27.11,0.34,-1.00,-0.90
27.12,0.33,-1.01,-0.89
27.12,0.30,-0.99,-0.88
27.12,0.28,-0.95,-0.87
27.12,0.26,-0.89,-0.85
27.13,0.23,-0.82,-0.84
27.13,0.21,-0.73,-0.83
27.13,0.18,-0.63,-0.81
27.13,0.15,-0.53,-0.79
27.14,0.13,-0.42,-0.77
27.14,0.11,-0.32,-0.75
27.14,0.10,-0.22,-0.73
27.14,0.09,-0.13,-0.71
27.15,0.08,-0.06,-0.70
27.15,0.08,0.01,-0.68
27.15,0.09,0.08,-0.67
27.15,0.09,0.13,-0.65
27.16,0.11,0.17,-0.65
27.16,0.12,0.21,-0.64
27.16,0.14,0.25,-0.63
27.16,0.17,0.29,-0.62
27.17,0.19,0.32,-0.60
27.17,0.22,0.35,-0.59
27.17,0.24,0.37,-0.57
27.17,0.27,0.39,-0.55
27.18,0.30,0.39,-0.53
27.18,0.32,0.39,-0.51
27.18,0.34,0.37,-0.49
27.18,0.35,0.35,-0.47
27.19,0.37,0.32,-0.46
27.19,0.37,0.28,-0.45
27.19,0.38,0.24,-0.45
27.19,0.38,0.18,-0.45
27.20,0.37,0.12,-0.45
27.20,0.36,0.06,-0.45
27.20,0.35,0.00,-0.45
27.20,0.33,-0.06,-0.45
27.21,0.31,-0.10,-0.46
27.21,0.28,-0.15,-0.46
27.21,0.24,-0.19,-0.46
27.21,0.21,-0.22,-0.46
27.22,0.16,-0.24,-0.47
27.22,0.13,-0.26,-0.47
27.22,0.09,-0.28,-0.47
27.22,0.06,-0.29,-0.47
27.23,0.03,-0.28,-0.48
27.23,0.01,-0.27,-0.48
27.23,-0.02,-0.25,-0.48
27.23,-0.03,-0.21,-0.48
27.24,-0.05,-0.17,-0.49
27.24,-0.05,-0.14,-0.49
27.24,-0.06,-0.08,-0.49
27.24,-0.06,0.00,-0.50
27.25,-0.07,0.07,-0.50
27.25,-0.07,0.14,-0.50
27.25,-0.06,0.19,-0.51
27.25,-0.04,0.23,-0.51
27.26,-0.02,0.27,-0.51
27.26,0.01,0.29,-0.51
27.26,0.05,0.32,-0.51
27.26,0.08,0.35,-0.50
27.27,0.11,0.37,-0.49
27.27,0.13,0.39,-0.49
27.27,0.15,0.41,-0.48
27.27,0.17,0.44,-0.47
27.28,0.19,0.47,-0.47
27.28,0.20,0.51,-0.47
27.28,0.21,0.55,-0.47
27.28,0.22,0.59,-0.47
27.29,0.22,0.64,-0.47
27.29,0.23,0.67,-0.47
27.29,0.23,0.70,-0.47
27.29,0.23,0.73,-0.47
27.30,0.23,0.74,-0.47
27.30,0.22,0.75,-0.47
27.30,0.22,0.77,-0.47
27.30,0.22,0.77,-0.47
27.31,0.23,0.78,-0.46
27.31,0.23,0.80,-0.45
27.31,0.24,0.83,-0.45
27.31,0.24,0.85,-0.44
27.32,0.24,0.87,-0.44
27.32,0.25,0.88,-0.45
27.32,0.26,0.90,-0.45
27.32,0.27,0.91,-0.44
27.33,0.28,0.92,-0.44
27.33,0.30,0.93,-0.44
27.33,0.31,0.93,-0.44
27.33,0.32,0.93,-0.43
27.34,0.33,0.93,-0.43
27.34,0.34,0.93,-0.42
27.34,0.35,0.92,-0.42
27.34,0.36,0.90,-0.41
27.35,0.37,0.87,-0.41
27.35,0.38,0.86,-0.40
27.35,0.38,0.85,-0.40
27.35,0.39,0.84,-0.39
27.36,0.40,0.84,-0.39
27.36,0.39,0.83,-0.39
27.36,0.40,0.83,-0.39
27.36,0.40,0.82,-0.39
27.37,0.40,0.82,-0.38
27.37,0.40,0.82,-0.38
27.37,0.40,0.82,-0.38
27.37,0.40,0.82,-0.38
27.38,0.40,0.81,-0.37
27.38,0.40,0.81,-0.37
27.38,0.40,0.80,-0.37
27.38,0.40,0.80,-0.37
27.39,0.41,0.79,-0.37
27.39,0.41,0.79,-0.38
27.39,0.41,0.78,-0.38
27.39,0.41,0.78,-0.37
27.40,0.40,0.78,-0.37
27.40,0.40,0.77,-0.37
27.40,0.40,0.75,-0.36
27.40,0.40,0.74,-0.36
27.41,0.40,0.73,-0.37
27.41,0.40,0.72,-0.38
27.41,0.40,0.70,-0.39
27.41,0.40,0.69,-0.39
27.42,0.40,0.68,-0.39
27.42,0.40,0.67,-0.38
27.42,0.40,0.67,-0.38
27.42,0.40,0.67,-0.37
27.43,0.40,0.67,-0.36
27.43,0.40,0.67,-0.35
27.43,0.40,0.67,-0.34
27.43,0.40,0.67,-0.33
27.44,0.40,0.66,-0.32
27.44,0.40,0.65,-0.31
27.44,0.40,0.64,-0.29
27.44,0.40,0.63,-0.28
27.45,0.41,0.62,-0.26
27.45,0.41,0.61,-0.26
27.45,0.41,0.60,-0.24
27.45,0.41,0.60,-0.23
27.46,0.41,0.59,-0.21
27.46,0.41,0.59,-0.19
27.46,0.41,0.59,-0.18
27.46,0.41,0.59,-0.16
27.47,0.41,0.59,-0.14
27.47,0.42,0.59,-0.11
27.47,0.42,0.60,-0.09
27.47,0.42,0.60,-0.08
27.48,0.42,0.60,-0.06
27.48,0.42,0.61,-0.04
27.48,0.43,0.61,-0.02
27.48,0.43,0.62,0.00
27.49,0.43,0.63,0.03
27.49,0.42,0.63,0.05
27.49,0.42,0.64,0.08
27.49,0.42,0.64,0.10
27.50,0.41,0.65,0.12
27.50,0.41,0.65,0.14
27.50,0.40,0.64,0.16
27.50,0.40,0.64,0.18
27.51,0.39,0.63,0.20
27.51,0.39,0.63,0.21
27.51,0.38,0.63,0.23
27.51,0.37,0.62,0.24
27.52,0.37,0.61,0.26
27.52,0.36,0.59,0.27
27.52,0.36,0.58,0.29
27.52,0.36,0.57,0.30
27.53,0.36,0.56,0.31
27.53,0.35,0.55,0.32
27.53,0.35,0.54,0.33
27.53,0.35,0.53,0.33
27.54,0.35,0.51,0.33
27.54,0.36,0.50,0.33
27.54,0.35,0.48,0.33
27.54,0.35,0.47,0.32
27.55,0.36,0.46,0.32
27.55,0.37,0.45,0.31
27.55,0.37,0.45,0.31
27.55,0.37,0.45,0.31
27.56,0.38,0.45,0.30
27.56,0.38,0.44,0.30
27.56,0.39,0.45,0.30
27.56,0.39,0.45,0.31
27.57,0.40,0.45,0.31
27.57,0.40,0.44,0.32
27.57,0.40,0.44,0.32
27.57,0.41,0.44,0.33
27.58,0.41,0.43,0.33
27.58,0.41,0.43,0.34
27.58,0.42,0.44,0.34
27.58,0.42,0.43,0.35
27.59,0.42,0.42,0.35
27.59,0.43,0.42,0.36
27.59,0.43,0.43,0.36
27.59,0.43,0.43,0.37
27.60,0.44,0.44,0.37
27.60,0.44,0.45,0.37
27.60,0.45,0.46,0.37
27.60,0.45,0.48,0.38
27.61,0.46,0.49,0.39
27.61,0.47,0.50,0.39
27.61,0.48,0.51,0.39
27.61,0.49,0.52,0.40
27.62,0.49,0.53,0.40
27.62,0.50,0.53,0.41
27.62,0.51,0.54,0.41
27.62,0.52,0.55,0.42
27.63,0.53,0.56,0.42
27.63,0.54,0.58,0.43
27.63,0.55,0.60,0.43
27.63,0.56,0.61,0.44
27.64,0.56,0.62,0.44
27.64,0.57,0.64,0.44
27.64,0.58,0.65,0.45
27.64,0.59,0.66,0.45
27.65,0.59,0.67,0.45
27.65,0.60,0.69,0.45
27.65,0.60,0.70,0.46
27.65,0.60,0.72,0.46
27.66,0.61,0.72,0.45
27.66,0.63,0.73,0.44
27.66,0.63,0.75,0.44
27.66,0.63,0.78,0.45
27.67,0.62,0.83,0.46
27.67,0.62,0.86,0.46
27.67,0.62,0.87,0.46
27.67,0.61,0.88,0.46
27.68,0.61,0.88,0.46
27.68,0.59,0.88,0.45
27.68,0.58,0.87,0.45
27.68,0.56,0.86,0.44
27.69,0.55,0.86,0.43
27.69,0.53,0.85,0.42
27.69,0.51,0.84,0.41
27.69,0.49,0.84,0.40
27.70,0.46,0.85,0.39
27.70,0.43,0.86,0.38
27.70,0.40,0.87,0.37
27.70,0.38,0.88,0.36
27.71,0.34,0.90,0.35
27.71,0.31,0.91,0.34
27.71,0.27,0.93,0.33
27.71,0.22,0.95,0.32
27.72,0.18,0.98,0.30
27.72,0.13,1.00,0.28
27.72,0.08,1.01,0.26
27.72,0.04,1.03,0.25
27.73,-0.01,1.04,0.24
27.73,-0.05,1.05,0.23
27.73,-0.10,1.05,0.22
27.73,-0.13,1.05,0.22
27.74,-0.16,1.05,0.21
27.74,-0.19,1.04,0.21
27.74,-0.21,1.04,0.21
27.74,-0.22,1.03,0.22
27.75,-0.23,1.01,0.23
27.75,-0.23,1.00,0.23
27.75,-0.23,0.98,0.23
27.75,-0.24,0.97,0.24
27.76,-0.23,0.94,0.24
27.76,-0.23,0.92,0.25
27.76,-0.23,0.89,0.25
27.76,-0.22,0.86,0.25
27.77,-0.21,0.83,0.26
27.77,-0.21,0.79,0.27
27.77,-0.21,0.76,0.27
27.77,-0.20,0.73,0.28
27.78,-0.20,0.69,0.29
27.78,-0.19,0.65,0.30
27.78,-0.19,0.62,0.31
27.78,-0.18,0.58,0.32
27.79,-0.18,0.54,0.34
27.79,-0.17,0.51,0.34
27.79,-0.16,0.47,0.36
27.79,-0.16,0.44,0.38
27.80,-0.15,0.41,0.39
27.80,-0.14,0.38,0.41
27.80,-0.13,0.36,0.43
27.80,-0.12,0.35,0.45
27.81,-0.10,0.33,0.47
27.81,-0.10,0.31,0.49
27.81,-0.09,0.29,0.51
27.81,-0.08,0.28,0.53
27.82,-0.07,0.29,0.55
27.82,-0.06,0.29,0.58
27.82,-0.04,0.30,0.60
27.82,-0.03,0.31,0.63
27.83,-0.01,0.32,0.65
27.83,0.01,0.33,0.68
27.83,0.02,0.34,0.70
27.83,0.04,0.36,0.73
27.84,0.06,0.37,0.75
27.84,0.08,0.38,0.77
27.84,0.10,0.40,0.79
27.84,0.12,0.41,0.81
27.85,0.13,0.43,0.82
27.85,0.15,0.45,0.82
27.85,0.17,0.47,0.82
27.85,0.18,0.48,0.83
27.86,0.19,0.50,0.83
27.86,0.21,0.50,0.82
27.86,0.22,0.51,0.81
27.86,0.22,0.52,0.80
27.87,0.23,0.53,0.79
27.87,0.23,0.54,0.77
27.87,0.23,0.54,0.75
27.87,0.22,0.54,0.72
27.88,0.22,0.55,0.70
27.88,0.22,0.54,0.68
27.88,0.20,0.53,0.65
27.88,0.19,0.52,0.62
27.89,0.17,0.51,0.59
27.89,0.15,0.50,0.56
27.89,0.13,0.48,0.52
27.89,0.11,0.46,0.49
27.90,0.09,0.44,0.45
27.90,0.06,0.42,0.42
27.90,0.02,0.41,0.38
27.90,0.00,0.39,0.35
27.91,-0.03,0.36,0.31
27.91,-0.06,0.34,0.28
27.91,-0.09,0.33,0.25
27.91,-0.12,0.31,0.22
27.92,-0.15,0.29,0.19
27.92,-0.17,0.27,0.17
27.92,-0.18,0.25,0.15
27.92,-0.20,0.24,0.13
27.93,-0.22,0.22,0.11
27.93,-0.23,0.21,0.10
27.93,-0.24,0.20,0.09
27.93,-0.25,0.19,0.07
27.94,-0.27,0.17,0.07
27.94,-0.27,0.16,0.06
27.94,-0.28,0.15,0.06
27.94,-0.28,0.14,0.06
27.95,-0.29,0.13,0.06
27.95,-0.29,0.13,0.06
27.95,-0.30,0.12,0.07
27.95,-0.30,0.12,0.08
27.96,-0.30,0.11,0.09
27.96,-0.30,0.11,0.10
27.96,-0.30,0.10,0.11
27.96,-0.30,0.09,0.13
27.97,-0.29,0.09,0.14
27.97,-0.28,0.09,0.16
27.97,-0.28,0.08,0.18
27.97,-0.28,0.08,0.19
27.98,-0.27,0.08,0.21
27.98,-0.26,0.07,0.23
27.98,-0.25,0.07,0.24
27.98,-0.25,0.06,0.26
27.99,-0.24,0.06,0.27
27.99,-0.22,0.06,0.29
27.99,-0.21,0.06,0.30
27.99,-0.20,0.06,0.32
28.00,-0.19,0.07,0.33
28.00,-0.18,0.06,0.34
28.00,-0.16,0.06,0.35
28.00,-0.16,0.05,0.36
