"Time (s)","Acceleration x (m/s^2)","Acceleration y (m/s^2)","Acceleration z (m/s^2)"
4.132048620E-1,-1.656838179E0,-1.045579815E1,5.411061049E-1
4.152048620E-1,-1.656838179E0,-1.045579815E1,5.411061049E-1
4.172048620E-1,-1.656838179E0,-1.045579815E1,5.411061049E-1
4.192048620E-1,-1.656838179E0,-1.045579815E1,5.411061049E-1
4.212048620E-1,-2.288926601E0,-9.622590065E0,1.024749637E0
4.232048620E-1,-2.300898075E0,-9.603436470E0,1.024749637E0
4.252050280E-1,-2.324840784E0,-9.601041794E0,1.007989645E0
4.272051700E-1,-2.336812258E0,-9.596253395E0,1.005595446E0
4.292052950E-1,-2.329629421E0,-9.574705124E0,1.000806928E0
4.312054060E-1,-2.341600657E0,-9.555550575E0,9.840469360E-1
4.332055060E-1,-2.346389294E0,-9.548367500E0,9.768640995E-1
4.352055960E-1,-2.355966330E0,-9.529213905E0,1.000806928E0
4.372056790E-1,-2.360754967E0,-9.502876282E0,1.005595446E0
4.392057550E-1,-2.365543604E0,-9.490905762E0,1.007989645E0
4.412057550E-1,-2.375120640E0,-9.474145889E0,9.840469360E-1
4.432057550E-1,-2.372726440E0,-9.454991341E0,9.792584181E-1
4.452057550E-1,-2.360754967E0,-9.445414543E0,9.816526771E-1
4.472057550E-1,-2.332023621E0,-9.440625191E0,1.005595446E0
4.492057550E-1,-2.303292274E0,-9.433443069E0,1.012778282E0
4.512057550E-1,-2.291321039E0,-9.431048393E0,1.019961119E0
4.532057550E-1,-2.257801056E0,-9.431048393E0,1.029538155E0
4.552057550E-1,-2.250618219E0,-9.419076920E0,1.024749637E0
4.572057550E-1,-2.238646984E0,-9.407105446E0,1.041509509E0
4.592057550E-1,-2.202732801E0,-9.419076920E0,1.048692346E0
4.612057550E-1,-2.188367128E0,-9.419076920E0,1.051086664E0
4.632057550E-1,-2.154847383E0,-9.421471596E0,1.065452337E0
4.652057550E-1,-2.133298874E0,-9.428654671E0,1.087000728E0
4.672057550E-1,-2.121327400E0,-9.431048393E0,1.094183564E0
4.692057550E-1,-2.116539001E0,-9.445414543E0,1.113337755E0
4.712057550E-1,-2.102173328E0,-9.452596664E0,1.120520592E0
4.732057880E-1,-2.097384691E0,-9.466962814E0,1.130097747E0
4.752058210E-1,-2.085413456E0,-9.478934288E0,1.142069101E0
4.772058540E-1,-2.083019018E0,-9.517242432E0,1.173194647E0
4.792058870E-1,-2.092596292E0,-9.526819229E0,1.204320192E0
4.812059200E-1,-2.111750364E0,-9.531607628E0,1.352765322E0
4.832059530E-1,-2.315263748E0,-9.562733650E0,1.503604531E0
4.852059530E-1,-2.324840784E0,-9.565128326E0,1.458113313E0
4.872059530E-1,-2.051893473E0,-9.548367500E0,1.268965602E0
4.892059190E-1,-1.776551962E0,-9.531607628E0,1.103760719E0
4.912058850E-1,-1.692752242E0,-9.553156853E0,1.065452337E0
4.932058510E-1,-1.647261024E0,-9.615407944E0,1.003201127E0
4.952058170E-1,-1.608952641E0,-9.680052757E0,9.840469360E-1
4.972057830E-1,-1.587404251E0,-9.703995705E0,1.000806928E0
4.992057490E-1,-1.561067224E0,-9.763853073E0,9.912297726E-1
5.012057490E-1,-1.549095750E0,-9.797372818E0,9.672870040E-1
5.032057490E-1,-1.510787368E0,-9.857229233E0,9.529213905E-1
5.052057490E-1,-1.460507631E0,-9.897932053E0,9.361614585E-1
5.072057490E-1,-1.434170604E0,-9.893143654E0,9.265843630E-1
5.092057490E-1,-1.352765322E0,-9.890748978E0,9.337671995E-1
5.112057490E-1,-1.261782765E0,-9.869200706E0,9.912297726E-1
5.132057490E-1,-1.218685865E0,-9.850046158E0,9.936240315E-1
5.152057490E-1,-1.142069101E0,-9.833286285E0,1.024749637E0
5.172057490E-1,-1.096577883E0,-9.794978142E0,1.106154919E0
5.192057820E-1,-1.094183564E0,-9.780612946E0,1.144463301E0
5.212058150E-1,-1.072635174E0,-9.737515450E0,1.180377483E0
5.232058480E-1,-1.082212210E0,-9.718361855E0,1.166011810E0
5.252058810E-1,-1.101366401E0,-9.715967178E0,1.170800328E0
5.272059140E-1,-1.101366401E0,-9.694418907E0,1.187560320E0
5.292059470E-1,-1.125309110E0,-9.663292885E0,1.161223292E0
5.312059800E-1,-1.144463301E0,-9.644139290E0,1.168406129E0
5.332059800E-1,-1.194743156E0,-9.615407944E0,1.182771802E0
5.352059460E-1,-1.278542757E0,-9.593858719E0,1.142069101E0
5.372059120E-1,-1.312062621E0,-9.579493523E0,1.134886265E0
5.392058780E-1,-1.383890867E0,-9.560338974E0,1.118126392E0
5.412058440E-1,-1.477267504E0,-9.560338974E0,1.098972082E0
5.432058100E-1,-1.553884387E0,-9.545973778E0,1.063058019E0
5.452057760E-1,-1.685569525E0,-9.553156853E0,1.043903828E0
5.472057420E-1,-1.745426297E0,-9.567522049E0,1.031932473E0
5.492057420E-1,-1.884294271E0,-9.567522049E0,9.888355136E-1
5.512057420E-1,-1.999219418E0,-9.572310448E0,9.816526771E-1
5.532057420E-1,-2.039922237E0,-9.572310448E0,9.840469360E-1
5.552057420E-1,-2.181184292E0,-9.596253395E0,9.672870040E-1
5.572057420E-1,-2.231464148E0,-9.615407944E0,9.720755816E-1
5.592057420E-1,-2.279349566E0,-9.634561539E0,9.696813226E-1
5.612057420E-1,-2.336812258E0,-9.670475960E0,9.577099085E-1
5.632057420E-1,-2.411034822E0,-9.696812630E0,9.241901040E-1
5.652057420E-1,-2.451737404E0,-9.718361855E0,9.217957854E-1
5.672057420E-1,-2.497228622E0,-9.744698524E0,9.170072675E-1
5.692057420E-1,-2.511594296E0,-9.756669998E0,9.050358534E-1
5.712057420E-1,-2.506805658E0,-9.763853073E0,8.834874034E-1
5.732057420E-1,-2.492439985E0,-9.785401344E0,8.451790214E-1
5.752057420E-1,-2.458920240E0,-9.771035194E0,8.523618579E-1
5.772057420E-1,-2.456526041E0,-9.783006668E0,8.403904438E-1
5.792057080E-1,-2.439765930E0,-9.804554939E0,8.140534163E-1
5.812057080E-1,-2.396669149E0,-9.806949615E0,7.948992252E-1
5.832057080E-1,-2.387091875E0,-9.804554939E0,7.829278708E-1
5.852057080E-1,-2.355966330E0,-9.785401344E0,7.661679387E-1
5.872057080E-1,-2.315263748E0,-9.775823593E0,7.661679387E-1
5.892057080E-1,-2.305686712E0,-9.780612946E0,7.781392932E-1
5.912057080E-1,-2.272166729E0,-9.794978142E0,8.092648983E-1
5.932057080E-1,-2.253012657E0,-9.783006668E0,8.164477348E-1
5.952057410E-1,-2.209915638E0,-9.751881599E0,8.332076073E-1
5.972057410E-1,-2.154847383E0,-9.720755577E0,8.691217303E-1
5.992057410E-1,-2.138087511E0,-9.706390381E0,8.858816624E-1
6.012057410E-1,-2.116539001E0,-9.699207306E0,9.194015265E-1
6.032057410E-1,-2.037527800E0,-9.663292885E0,9.744698405E-1
6.052057410E-1,-2.013585091E0,-9.634561539E0,9.936240315E-1
6.072057410E-1,-1.956122518E0,-9.589070320E0,1.039115310E0
6.092057410E-1,-1.915419817E0,-9.579493523E0,1.103760719E0
6.112057410E-1,-1.889082789E0,-9.574705124E0,1.134886265E0
6.132057410E-1,-1.819648862E0,-9.538790703E0,1.185166001E0
6.152059070E-1,-1.745426297E0,-9.510059357E0,1.235445857E0
6.172059070E-1,-1.719089270E0,-9.498087883E0,1.261782765E0
6.192059070E-1,-1.659232497E0,-9.454991341E0,1.300091267E0
6.212059070E-1,-1.606558442E0,-9.433443069E0,1.357553840E0
6.232059070E-1,-1.587404251E0,-9.431048393E0,1.383890867E0
6.252059070E-1,-1.532335877E0,-9.419076920E0,1.429382086E0
6.272059070E-1,-1.494027495E0,-9.378374100E0,1.489238977E0
6.292059400E-1,-1.479661822E0,-9.364008904E0,1.508393168E0
6.312059730E-1,-1.446141958E0,-9.342460632E0,1.568249941E0
6.332060060E-1,-1.415016413E0,-9.344854355E0,1.587404251E0
6.352060390E-1,-1.410227895E0,-9.332882881E0,1.604164124E0
6.372060720E-1,-1.393467903E0,-9.332882881E0,1.661626697E0
6.392061050E-1,-1.381496549E0,-9.340065956E0,1.695146561E0
6.412061050E-1,-1.364736676E0,-9.352037430E0,1.747820616E0
6.432061050E-1,-1.359948039E0,-9.349642754E0,1.805283189E0
6.452060710E-1,-1.343188167E0,-9.356825829E0,1.831620216E0
6.472060370E-1,-1.331216812E0,-9.373585701E0,1.872322917E0
6.492060030E-1,-1.316851139E0,-9.395133972E0,1.913025618E0
6.512059690E-1,-1.326428294E0,-9.411893845E0,1.927391171E0
6.532059350E-1,-1.319245458E0,-9.440625191E0,1.941756845E0
6.552059010E-1,-1.324033976E0,-9.471751213E0,1.956122518E0
6.572059010E-1,-1.316851139E0,-9.486116409E0,1.960911036E0
6.592059010E-1,-1.307274103E0,-9.514847755E0,1.965699673E0
6.612059010E-1,-1.295302629E0,-9.536396980E0,1.963305354E0
6.632059010E-1,-1.300091267E0,-9.545973778E0,1.948939681E0
6.652059010E-1,-1.292908430E0,-9.569916725E0,1.920208454E0
6.672059010E-1,-1.302485466E0,-9.593858719E0,1.893871427E0
6.692059010E-1,-1.302485466E0,-9.615407944E0,1.874717116E0
6.712059010E-1,-1.297696948E0,-9.636956215E0,1.831620216E0
6.732059010E-1,-1.300091267E0,-9.646533012E0,1.800494671E0
6.752057670E-1,-1.309668303E0,-9.646533012E0,1.755003452E0
6.772057670E-1,-1.307274103E0,-9.636956215E0,1.716695070E0
6.792058000E-1,-1.312062621E0,-9.636956215E0,1.680780888E0
6.812058330E-1,-1.307274103E0,-9.639349937E0,1.632895470E0
6.832058660E-1,-1.295302629E0,-9.634561539E0,1.594586968E0
6.852058990E-1,-1.309668303E0,-9.629773140E0,1.573038578E0
6.872059320E-1,-1.336005330E0,-9.613013268E0,1.517970204E0
6.892059320E-1,-1.357553840E0,-9.610619545E0,1.474873304E0
6.912058980E-1,-1.371919513E0,-9.613013268E0,1.450930476E0
6.932058640E-1,-1.400650740E0,-9.613013268E0,1.386285067E0
6.952058300E-1,-1.405439258E0,-9.620196342E0,1.304879785E0
6.972057960E-1,-1.403045058E0,-9.622590065E0,1.278542757E0
6.992057620E-1,-1.400650740E0,-9.622590065E0,1.254600048E0
7.012057280E-1,-1.398256540E0,-9.634561539E0,1.225868702E0
7.032056940E-1,-1.403045058E0,-9.656110764E0,1.204320192E0
7.052056940E-1,-1.403045058E0,-9.675264359E0,1.149251938E0
7.072056940E-1,-1.412622094E0,-9.656110764E0,1.110943556E0
7.092056940E-1,-1.405439258E0,-9.646533012E0,1.108549237E0
7.112056940E-1,-1.395862222E0,-9.653716087E0,1.094183564E0
7.132056940E-1,-1.393467903E0,-9.663292885E0,1.046298146E0
7.152056940E-1,-1.398256540E0,-9.672870636E0,1.029538155E0
7.172056940E-1,-1.381496549E0,-9.675264359E0,9.984126091E-1
7.192056940E-1,-1.391073704E0,-9.684841156E0,9.792584181E-1
7.212056940E-1,-1.383890867E0,-9.684841156E0,9.505270720E-1
7.232056940E-1,-1.371919513E0,-9.665687561E0,9.409499764E-1
7.252056940E-1,-1.359948039E0,-9.658504486E0,9.337671995E-1
7.272056940E-1,-1.352765322E0,-9.636956215E0,9.098244309E-1
7.292056940E-1,-1.333611012E0,-9.636956215E0,8.858816624E-1
7.312056940E-1,-1.336005330E0,-9.622590065E0,8.810931444E-1
7.332056940E-1,-1.350371003E0,-9.608224869E0,8.595446348E-1
7.352056600E-1,-1.350371003E0,-9.569916725E0,8.451790214E-1
7.372056600E-1,-1.350371003E0,-9.569916725E0,8.451790214E-1
7.392056600E-1,-1.333611012E0,-9.524425507E0,8.403904438E-1
7.412056600E-1,-1.333611012E0,-9.514847755E0,8.332076073E-1
7.432056600E-1,-1.328822494E0,-9.507665634E0,8.356019258E-1
7.452056600E-1,-1.304879785E0,-9.469356537E0,8.308133483E-1
7.472056600E-1,-1.280937076E0,-9.459779739E0,8.164477348E-1
7.492056600E-1,-1.264177084E0,-9.454991341E0,8.260248303E-1
7.512056930E-1,-1.235445857E0,-9.440625191E0,8.523618579E-1
7.532056930E-1,-1.209108829E0,-9.431048393E0,8.858816624E-1
7.552056930E-1,-1.187560320E0,-9.426259995E0,8.763045669E-1
7.572056930E-1,-1.139674783E0,-9.387951851E0,8.786988258E-1
7.592056930E-1,-1.079817891E0,-9.340065956E0,9.074301720E-1
7.612056930E-1,-1.058269501E0,-9.320911407E0,9.313728809E-1
7.632056930E-1,-1.024749637E0,-9.270631790E0,9.816526771E-1
7.652056930E-1,-9.936240315E-1,-9.229928970E0,1.019961119E0
7.672056930E-1,-9.768640995E-1,-9.217958450E0,1.029538155E0
7.692056930E-1,-9.385557175E-1,-9.191620827E0,1.034326673E0
7.712056930E-1,-9.194015265E-1,-9.174860954E0,1.039115310E0
7.732056930E-1,-9.170072675E-1,-9.150918007E0,1.027143836E0
7.752056930E-1,-9.313728809E-1,-9.112609863E0,1.034326673E0
7.772056930E-1,-9.194015265E-1,-9.105426788E0,1.024749637E0
7.792056930E-1,-8.858816624E-1,-9.071907043E0,1.041509509E0
7.812056930E-1,-8.763045669E-1,-9.083878517E0,1.017566800E0
7.832056930E-1,-8.356019258E-1,-9.074301720E0,1.031932473E0
7.852057260E-1,-7.637736797E-1,-9.033598900E0,1.101366401E0
7.872057590E-1,-7.805336118E-1,-9.021627426E0,1.218685865E0
7.892057920E-1,-7.996878028E-1,-9.033598900E0,1.276148438E0
7.912058250E-1,-8.786988258E-1,-9.050358772E0,1.345582485E0
7.932058580E-1,-9.720755816E-1,-9.057541847E0,1.359948039E0
7.952058910E-1,-1.019961119E0,-9.050358772E0,1.364736676E0
7.972059240E-1,-1.048692346E0,-9.052753448E0,1.352765322E0
7.992059240E-1,-1.067846537E0,-9.064723969E0,1.343188167E0
8.012058900E-1,-1.067846537E0,-9.074301720E0,1.343188167E0
8.032058560E-1,-1.067846537E0,-9.086273193E0,1.362342358E0
8.052058220E-1,-1.089395046E0,-9.112609863E0,1.429382086E0
8.072057880E-1,-1.089395046E0,-9.134158134E0,1.470084786E0
8.092057540E-1,-1.122914910E0,-9.194015503E0,1.522758722E0
8.112057200E-1,-1.173194647E0,-9.265843391E0,1.558672905E0
8.132057200E-1,-1.204320192E0,-9.294574738E0,1.563461423E0
8.152057200E-1,-1.271359921E0,-9.366402626E0,1.585009933E0
8.172057200E-1,-1.338399649E0,-9.416683197E0,1.587404251E0
8.192057200E-1,-1.357553840E0,-9.466962814E0,1.592192769E0
8.212057200E-1,-1.417410731E0,-9.529213905E0,1.599375606E0
8.232057200E-1,-1.438959122E0,-9.557945251E0,1.616135478E0
8.252057200E-1,-1.450930476E0,-9.598648071E0,1.649655342E0
8.272057200E-1,-1.455719113E0,-9.651321411E0,1.695146561E0
8.292057200E-1,-1.458113313E0,-9.672870636E0,1.702329397E0
8.312057530E-1,-1.436564922E0,-9.701601982E0,1.702329397E0
8.332057860E-1,-1.431776285E0,-9.739910126E0,1.656838179E0
8.352058190E-1,-1.441353440E0,-9.747093201E0,1.618529797E0
8.372058520E-1,-1.448536277E0,-9.773429871E0,1.577827096E0
8.392058850E-1,-1.431776285E0,-9.790189743E0,1.568249941E0
8.412059180E-1,-1.434170604E0,-9.804554939E0,1.553884387E0
8.432059510E-1,-1.388679385E0,-9.828497887E0,1.515576005E0
8.452059510E-1,-1.297696948E0,-9.830892563E0,1.491633177E0
8.472059170E-1,-1.247417212E0,-9.823709488E0,1.482056141E0
8.492058830E-1,-1.182771802E0,-9.835680962E0,1.434170604E0
8.512058490E-1,-1.125309110E0,-9.876383781E0,1.347976685E0
8.532058150E-1,-1.106154919E0,-9.883566856E0,1.316851139E0
8.552057810E-1,-1.039115310E0,-9.917086601E0,1.321639657E0
8.572058470E-1,-1.003201127E0,-9.926663399E0,1.319245458E0
8.592058130E-1,-9.888355136E-1,-9.941028595E0,1.292908430E0
8.612058130E-1,-9.505270720E-1,-9.969759941E0,1.266571403E0
8.632058130E-1,-9.194015265E-1,-9.979337692E0,1.273754239E0
8.652058130E-1,-9.074301720E-1,-1.001285744E1,1.271359921E0
8.672058130E-1,-9.361614585E-1,-1.005356026E1,1.256994247E0
8.692058130E-1,-9.122186899E-1,-1.007750225E1,1.242628574E0
8.712058130E-1,-8.691217303E-1,-1.012778282E1,1.189954638E0
8.732058130E-1,-8.212362528E-1,-1.019242764E1,1.134886265E0
8.752058130E-1,-8.044763207E-1,-1.022594738E1,1.108549237E0
8.772058130E-1,-7.757450342E-1,-1.029538155E1,1.087000728E0
8.792058130E-1,-7.326480746E-1,-1.039115238E1,1.048692346E0
8.812058130E-1,-7.039167881E-1,-1.042467213E1,1.022355318E0
8.832058130E-1,-6.680026650E-1,-1.047974110E1,9.648927450E-1
8.852058130E-1,-6.488484740E-1,-1.054678059E1,9.337671995E-1
8.872058130E-1,-6.488484740E-1,-1.059706020E1,9.002473354E-1
8.892058130E-1,-6.249057055E-1,-1.068085957E1,8.308133483E-1
8.912057790E-1,-6.153286099E-1,-1.079099655E1,7.805336118E-1
8.932057450E-1,-5.937801600E-1,-1.082451630E1,7.685621977E-1
8.952057450E-1,-5.147690773E-1,-1.083888245E1,7.254652381E-1
8.972057450E-1,-4.333637357E-1,-1.087719059E1,6.608198285E-1
8.992057450E-1,-3.926610649E-1,-1.090592194E1,6.320885420E-1
9.012057450E-1,-2.921015322E-1,-1.095141315E1,6.105400920E-1
9.032057450E-1,-2.322446555E-1,-1.098253822E1,6.105400920E-1
9.052057450E-1,-1.843591630E-1,-1.098972130E1,6.225114465E-1
9.072057780E-1,-8.140534163E-2,-1.099690437E1,6.416656375E-1
9.092057780E-1,2.154847234E-2,-1.099211597E1,6.225114465E-1
9.112057780E-1,7.182824612E-2,-1.096817303E1,6.225114465E-1
9.132057780E-1,1.867534369E-1,-1.092986488E1,6.464542150E-1
9.152057780E-1,3.112557232E-1,-1.087719059E1,6.775797606E-1
9.172056440E-1,3.759011328E-1,-1.084127617E1,6.967339516E-1
9.192056440E-1,5.363175869E-1,-1.077184200E1,7.901107073E-1
9.212056440E-1,6.153286099E-1,-1.074790001E1,8.451790214E-1
9.232056440E-1,6.967339516E-1,-1.073832226E1,9.505270720E-1
9.252056440E-1,6.536370516E-1,-1.077184200E1,1.079817891E0
9.272056440E-1,6.488484740E-1,-1.078141975E1,1.154040456E0
9.292056440E-1,6.344828010E-1,-1.078860188E1,1.283331275E0
9.312056440E-1,5.602602959E-1,-1.082930470E1,1.376708031E0
9.332056440E-1,5.171633363E-1,-1.083888245E1,1.426987767E0
9.352056440E-1,4.142095447E-1,-1.087479591E1,1.537124395E0
9.372056440E-1,2.873129845E-1,-1.092028713E1,1.620923996E0
9.392056440E-1,2.370332032E-1,-1.095380688E1,1.656838179E0
9.412056770E-1,1.580221355E-1,-1.098253822E1,1.733454943E0
9.432057100E-1,4.549122229E-2,-1.102802944E1,1.814860344E0
9.452057430E-1,-1.197137404E-2,-1.105676079E1,1.848380208E0
9.472057760E-1,-1.268965602E-1,-1.106873226E1,1.913025618E0
9.492058090E-1,-2.035133541E-1,-1.104478931E1,2.013585091E0
9.512058420E-1,-2.106961906E-1,-1.103281784E1,2.068653345E0
9.532058750E-1,-2.274561077E-1,-1.099929810E1,2.197944164E0
9.552058750E-1,-2.849186957E-1,-1.095380688E1,2.276955366E0
9.572058410E-1,-3.304099143E-1,-1.094423008E1,2.315263748E0
9.592058070E-1,-3.567469418E-1,-1.087479591E1,2.391880512E0
9.612057730E-1,-3.495641351E-1,-1.085085297E1,2.413429022E0
9.632057390E-1,-3.495641351E-1,-1.078381348E1,2.485257149E0
9.652057050E-1,-3.902668059E-1,-1.071677399E1,2.511594296E0
9.672056710E-1,-4.118152559E-1,-1.068564892E1,2.511594296E0
9.692056710E-1,-4.740664065E-1,-1.061142635E1,2.530748367E0
9.712056710E-1,-5.219519138E-1,-1.049410629E1,2.535537004E0
9.732056710E-1,-5.291347504E-1,-1.045340347E1,2.525959969E0
9.752056710E-1,-5.554717779E-1,-1.035284424E1,2.502017260E0
9.772057040E-1,-5.626545548E-1,-1.029538155E1,2.490045786E0
9.792057040E-1,-5.746259689E-1,-1.022355366E1,2.458920240E0
9.812057040E-1,-6.081457734E-1,-1.010383987E1,2.408640385E0
9.832057040E-1,-6.177229285E-1,-9.976943016E0,2.372726440E0
9.852057040E-1,-6.225114465E-1,-9.924268723E0,2.346389294E0
9.872057040E-1,-6.225114465E-1,-9.799766541E0,2.269772530E0
9.892057370E-1,-5.961744189E-1,-9.675264359E0,2.214704275E0
9.912057700E-1,-5.913859010E-1,-9.613013268E0,2.176395893E0
9.932058030E-1,-5.842030644E-1,-9.495694160E0,2.087807655E0
9.952058360E-1,-5.818088055E-1,-9.407105446E0,2.004008055E0
9.972058690E-1,-5.865973234E-1,-9.364008904E0,1.951334000E0
9.992059020E-1,-5.722316504E-1,-9.277814865E0,1.855562925E0
1.001205902E0,-5.626545548E-1,-9.246688843E0,1.735849261E0
1.003205868E0,-5.674431324E-1,-9.184437752E0,1.671203852E0
1.005205834E0,-5.698373914E-1,-9.122186661E0,1.537124395E0
1.007205800E0,-5.650488734E-1,-9.095849991E0,1.472478986E0
1.009205766E0,-5.530774593E-1,-9.031204224E0,1.347976685E0
1.011205732E0,-5.435003638E-1,-9.009655952E0,1.204320192E0
1.013205698E0,-5.602602959E-1,-8.997684479E0,1.137280583E0
1.015205664E0,-5.626545548E-1,-8.968953133E0,1.027143836E0
1.017205664E0,-5.794144869E-1,-8.947404861E0,9.313728809E-1
1.019205664E0,-5.913859010E-1,-8.945011139E0,8.786988258E-1
1.021205664E0,-6.081457734E-1,-8.961771011E0,7.518022656E-1
1.023205664E0,-6.105400920E-1,-8.956981659E0,6.488484740E-1
1.025205664E0,-6.057515144E-1,-8.964164734E0,5.937801600E-1
1.027205664E0,-6.320885420E-1,-8.976136208E0,4.980091453E-1
1.029205664E0,-6.009629965E-1,-8.995290756E0,3.902668059E-1
1.031205664E0,-5.842030644E-1,-9.007262230E0,3.495641351E-1
1.033205664E0,-5.554717779E-1,-9.035993576E0,3.088614643E-1
1.035205664E0,-5.195576549E-1,-9.067118645E0,2.585816681E-1
1.037205664E0,-5.195576549E-1,-9.079090118E0,2.226675600E-1
1.039205664E0,-4.980091453E-1,-9.131764412E0,1.987248063E-1
1.041205664E0,-4.429408312E-1,-9.165284157E0,1.891477108E-1
1.043205664E0,-4.261809289E-1,-9.179649353E0,1.963305324E-1
1.045205664E0,-4.022381604E-1,-9.229928970E0,2.035133541E-1
1.047205664E0,-3.782954216E-1,-9.234718323E0,2.298503816E-1
1.049205630E0,-3.663240373E-1,-9.249083519E0,2.370332032E-1
1.051205630E0,-3.399870098E-1,-9.268238068E0,2.537931204E-1
1.053205630E0,-3.256213665E-1,-9.292180061E0,2.657645047E-1
1.055205630E0,-2.944957912E-1,-9.328094482E0,2.921015322E-1
1.057205630E0,-2.561874092E-1,-9.318517685E0,3.351984620E-1
1.059205630E0,-2.585816681E-1,-9.323306084E0,3.591412306E-1
1.061205630E0,-2.561874092E-1,-9.318517685E0,3.950553536E-1
1.063205663E0,-2.442160249E-1,-9.323306084E0,4.429408312E-1
1.065205696E0,-2.490045726E-1,-9.306546211E0,4.573064744E-1
1.067205696E0,-2.537931204E-1,-9.282603264E0,5.147690773E-1
1.069205696E0,-2.561874092E-1,-9.268238068E0,5.865973234E-1
1.071205696E0,-2.609759569E-1,-9.261054993E0,6.273000240E-1
1.073205696E0,-2.753416002E-1,-9.244295120E0,7.254652381E-1
1.075205696E0,-2.992843390E-1,-9.246688843E0,8.068706393E-1
1.077205696E0,-3.160442710E-1,-9.246688843E0,8.499675393E-1
1.079205696E0,-3.423812985E-1,-9.229928970E0,9.553156495E-1
1.081205696E0,-3.663240373E-1,-9.239506721E0,1.065452337E0
1.083205696E0,-3.735068738E-1,-9.237112045E0,1.125309110E0
1.085205696E0,-3.974496126E-1,-9.261054993E0,1.235445857E0
1.087205696E0,-4.477293789E-1,-9.296969414E0,1.340793848E0
1.089205696E0,-4.764606953E-1,-9.320911407E0,1.388679385E0
1.091205696E0,-5.291347504E-1,-9.368797302E0,1.501210332E0
1.093205696E0,-5.698373914E-1,-9.395133972E0,1.582615614E0
1.095205696E0,-6.201171875E-1,-9.447808266E0,1.680780888E0
1.097205729E0,-6.440598965E-1,-9.469356537E0,1.726272106E0
1.099205762E0,-6.608198285E-1,-9.490905762E0,1.766974807E0
1.101205795E0,-6.871568561E-1,-9.548367500E0,1.834014535E0
1.103205828E0,-7.063110471E-1,-9.615407944E0,1.889082789E0
1.105205861E0,-7.039167881E-1,-9.646533012E0,1.910631299E0
1.107205894E0,-6.727912426E-1,-9.694418907E0,1.944151163E0
1.109205927E0,-6.584255695E-1,-9.732727051E0,1.977671027E0
1.111205927E0,-6.608198285E-1,-9.751881599E0,1.994430900E0
1.113205893E0,-6.608198285E-1,-9.783006668E0,2.013585091E0
1.115205859E0,-6.584255695E-1,-9.828497887E0,2.011190891E0
1.117205825E0,-6.536370516E-1,-9.852440834E0,2.008796453E0
1.119205791E0,-6.560313106E-1,-9.907508850E0,2.008796453E0
1.121205757E0,-6.703969240E-1,-9.948211670E0,1.984853864E0
1.123205723E0,-6.608198285E-1,-9.964971542E0,1.958516836E0
1.125205689E0,-6.584255695E-1,-9.979337692E0,1.910631299E0
1.127205689E0,-6.536370516E-1,-1.000088596E1,1.867534399E0
1.129205689E0,-6.560313106E-1,-1.000806904E1,1.845985889E0
1.131205655E0,-6.703969240E-1,-1.001764584E1,1.774157643E0
1.133205655E0,-6.703969240E-1,-1.003919411E1,1.695146561E0
1.135205655E0,-6.632141471E-1,-1.003919411E1,1.659232497E0
1.137205655E0,-6.656084061E-1,-1.001764584E1,1.582615614E0
1.139205655E0,-6.656084061E-1,-1.002243423E1,1.501210332E0
1.141205655E0,-6.608198285E-1,-1.002722263E1,1.460507631E0
1.143205655E0,-6.536370516E-1,-1.000806904E1,1.376708031E0
1.145205688E0,-6.368771195E-1,-1.000327969E1,1.338399649E0
1.147205721E0,-6.201171875E-1,-9.984126091E0,1.271359921E0
1.149205754E0,-6.153286099E-1,-9.979337692E0,1.201925993E0
1.151205787E0,-6.177229285E-1,-9.976943016E0,1.161223292E0
1.153205820E0,-6.177229285E-1,-9.962577820E0,1.077423692E0
1.155205853E0,-6.273000240E-1,-9.955394745E0,1.017566800E0
1.157205853E0,-6.273000240E-1,-9.955394745E0,1.017566800E0
1.159205819E0,-6.273000240E-1,-9.931451797E0,9.409499764E-1
1.161205785E0,-6.416656375E-1,-9.914691925E0,9.002473354E-1
1.163205751E0,-6.368771195E-1,-9.907508850E0,8.715160489E-1
1.165205717E0,-6.344828010E-1,-9.907508850E0,8.068706393E-1
1.167205683E0,-6.440598965E-1,-9.907508850E0,7.709565163E-1
1.169205649E0,-6.464542150E-1,-9.912297249E0,7.494080067E-1
1.171205615E0,-6.249057055E-1,-9.912297249E0,7.110996246E-1
1.173205615E0,-6.225114465E-1,-9.909903526E0,6.680026650E-1
1.175205615E0,-6.177229285E-1,-9.895537376E0,6.512427330E-1
1.177205615E0,-5.985686779E-1,-9.909903526E0,6.273000240E-1
1.179205615E0,-5.698373914E-1,-9.905115128E0,6.081457734E-1
1.181205615E0,-5.674431324E-1,-9.902720451E0,5.985686779E-1
1.183205615E0,-5.554717779E-1,-9.905115128E0,5.913859010E-1
1.185205615E0,-5.147690773E-1,-9.914691925E0,5.889915824E-1
1.187205615E0,-4.956148863E-1,-9.912297249E0,5.818088055E-1
1.189205615E0,-4.644893110E-1,-9.897932053E0,5.961744189E-1
1.191205648E0,-4.381522834E-1,-9.900326729E0,6.009629965E-1
1.193205648E0,-3.926610649E-1,-9.900326729E0,6.009629965E-1
1.195205648E0,-3.543526828E-1,-9.897932053E0,5.985686779E-1
1.197205648E0,-3.304099143E-1,-9.895537376E0,6.057515144E-1
1.199205648E0,-2.873129845E-1,-9.895537376E0,6.368771195E-1
1.201205648E0,-2.466102988E-1,-9.897932053E0,6.656084061E-1
1.203205648E0,-2.178790122E-1,-9.883566856E0,6.775797606E-1
1.205205614E0,-1.795706153E-1,-9.871595383E0,7.039167881E-1
1.207205614E0,-1.628106833E-1,-9.866806030E0,7.182824612E-1
1.209205614E0,-1.508393139E-1,-9.864412308E0,7.158881426E-1
1.211205614E0,-1.053480953E-1,-9.876383781E0,7.110996246E-1
1.213205614E0,-7.661679387E-2,-9.883566856E0,7.278595567E-1
1.215205614E0,-7.901106775E-2,-9.909903526E0,7.374366522E-1
1.217205614E0,-7.661679387E-2,-9.902720451E0,7.589851022E-1
1.219205647E0,-6.225114316E-2,-9.900326729E0,7.853221297E-1
1.221205680E0,-6.703969836E-2,-9.914691925E0,7.901107073E-1
1.223205680E0,-6.943397224E-2,-9.945817947E0,7.901107073E-1
1.225205680E0,-7.182824612E-2,-9.976943016E0,7.996878028E-1
1.227205680E0,-8.619388938E-2,-9.988914490E0,8.116591573E-1
1.229205680E0,-1.197137386E-1,-1.000567436E1,8.260248303E-1
1.231205680E0,-1.388679445E-1,-1.002243423E1,8.451790214E-1
1.233205680E0,-1.484450400E-1,-1.003919411E1,8.427847624E-1
1.235205680E0,-1.699935049E-1,-1.005595398E1,8.523618579E-1
1.237205680E0,-1.795706153E-1,-1.006313705E1,8.715160489E-1
1.239205680E0,-2.106961906E-1,-1.007989693E1,8.954587579E-1
1.241205680E0,-2.178790122E-1,-1.008229160E1,9.241901040E-1
1.243205680E0,-2.106961906E-1,-1.007750225E1,9.385557175E-1
1.245205680E0,-1.963305324E-1,-1.009905148E1,9.385557175E-1
1.247205680E0,-1.891477108E-1,-1.011581135E1,9.720755816E-1
1.249205680E0,-1.891477108E-1,-1.012538815E1,9.792584181E-1
1.251205680E0,-1.987248063E-1,-1.014454269E1,1.010383964E0
1.253205713E0,-2.011190802E-1,-1.017806244E1,1.034326673E0
1.255205746E0,-2.035133541E-1,-1.019003391E1,1.051086664E0
1.257205779E0,-2.178790122E-1,-1.020679379E1,1.067846537E0
1.259205812E0,-2.250618339E-1,-1.023073673E1,1.060663700E0
1.261205845E0,-2.250618339E-1,-1.024031353E1,1.060663700E0
1.263205878E0,-2.083019018E-1,-1.025228500E1,1.082212210E0
1.265205911E0,-2.059076279E-1,-1.025707340E1,1.120520592E0
1.267205911E0,-1.963305324E-1,-1.025228500E1,1.122914910E0
1.269205877E0,-1.819648892E-1,-1.026186180E1,1.154040456E0
1.271205843E0,-1.628106833E-1,-1.024031353E1,1.175588965E0
1.273205809E0,-1.628106833E-1,-1.023073673E1,1.192348838E0
1.275205775E0,-1.245022863E-1,-1.019242764E1,1.256994247E0
1.277205741E0,-1.245022863E-1,-1.019242764E1,1.266571403E0
1.279205707E0,-1.029538140E-1,-1.015651417E1,1.280937076E0
1.281205673E0,-1.029538140E-1,-1.011341667E1,1.316851139E0
1.283205673E0,-9.816526622E-2,-1.010383987E1,1.336005330E0
1.285205673E0,-7.901106775E-2,-1.007271385E1,1.352765322E0
1.287205673E0,-7.661679387E-2,-1.004398251E1,1.345582485E0
1.289205673E0,-8.379961550E-2,-1.001764584E1,1.355159521E0
1.291205673E0,-7.661679387E-2,-9.993702888E0,1.388679385E0
1.293205673E0,-8.379961550E-2,-9.962577820E0,1.381496549E0
1.295205673E0,-7.901106775E-2,-9.957788467E0,1.381496549E0
1.297205673E0,-1.101366431E-1,-9.936240196E0,1.376708031E0
1.299205673E0,-1.436564922E-1,-9.909903526E0,1.379102230E0
1.301205706E0,-1.484450400E-1,-9.907508850E0,1.381496549E0
1.303205739E0,-1.580221355E-1,-9.888355255E0,1.388679385E0
1.305205772E0,-1.747820675E-1,-9.876383781E0,1.407833576E0
1.307205805E0,-1.963305324E-1,-9.864412308E0,1.410227895E0
1.309205838E0,-2.202732861E-1,-9.866806030E0,1.438959122E0
1.311205871E0,-2.202732861E-1,-9.864412308E0,1.489238977E0
1.313205871E0,-2.202732861E-1,-9.862017632E0,1.513181686E0
1.315205871E0,-2.226675600E-1,-9.840469360E0,1.537124395E0
1.317205837E0,-2.130904645E-1,-9.833286285E0,1.549095750E0
1.319205803E0,-2.011190802E-1,-9.828497887E0,1.563461423E0
1.321205769E0,-1.939362586E-1,-9.840469360E0,1.582615614E0
1.323205735E0,-1.699935049E-1,-9.845257759E0,1.592192769E0
1.325205701E0,-1.580221355E-1,-9.840469360E0,1.608952641E0
1.327205667E0,-1.604164094E-1,-9.835680962E0,1.606558442E0
1.329205667E0,-1.556278616E-1,-9.847652435E0,1.604164124E0
1.331205667E0,-1.292908341E-1,-9.857229233E0,1.620923996E0
1.333205667E0,-1.101366431E-1,-9.866806030E0,1.596981287E0
1.335205667E0,-1.197137386E-1,-9.893143654E0,1.553884387E0
1.337205667E0,-1.268965602E-1,-9.902720451E0,1.527547359E0
1.339205667E0,-1.221080124E-1,-9.909903526E0,1.517970204E0
1.341205667E0,-1.077423692E-1,-9.919480324E0,1.508393168E0
1.343205667E0,-9.577099234E-2,-9.926663399E0,1.486844659E0
1.345205667E0,-7.422251999E-2,-9.941028595E0,1.472478986E0
1.347205667E0,-6.464541703E-2,-9.941028595E0,1.470084786E0
1.349205667E0,-2.873129770E-2,-9.926663399E0,1.455719113E0
1.351205667E0,0.000000000E0,-9.905115128E0,1.446141958E0
1.353205667E0,2.154847234E-2,-9.885960579E0,1.455719113E0
1.355205667E0,6.464541703E-2,-9.866806030E0,1.448536277E0
1.357205667E0,8.379961550E-2,-9.847652435E0,1.417410731E0
1.359205667E0,9.816526622E-2,-9.828497887E0,1.417410731E0
1.361205633E0,1.245022863E-1,-9.790189743E0,1.429382086E0
1.363205633E0,1.388679445E-1,-9.783006668E0,1.412622094E0
1.365205633E0,1.484450400E-1,-9.785401344E0,1.400650740E0
1.367205633E0,1.532335877E-1,-9.775823593E0,1.391073704E0
1.369205633E0,1.580221355E-1,-9.768641472E0,1.364736676E0
1.371205633E0,1.723877788E-1,-9.754275322E0,1.347976685E0
1.373205633E0,1.699935049E-1,-9.749486923E0,1.336005330E0
1.375205633E0,1.795706153E-1,-9.747093201E0,1.328822494E0
1.377205666E0,1.915419847E-1,-9.751881599E0,1.300091267E0
1.379205666E0,2.130904645E-1,-9.725543976E0,1.278542757E0
1.381205666E0,2.346389294E-1,-9.715967178E0,1.266571403E0
1.383205666E0,2.561874092E-1,-9.706390381E0,1.254600048E0
1.385205666E0,2.585816681E-1,-9.687235832E0,1.249811411E0
1.387205666E0,2.537931204E-1,-9.689630508E0,1.254600048E0
1.389205666E0,2.418217510E-1,-9.680052757E0,1.233051538E0
1.391205666E0,2.322446555E-1,-9.677659035E0,1.223474383E0
1.393205666E0,2.322446555E-1,-9.675264359E0,1.230657220E0
1.395205666E0,1.819648892E-1,-9.706390381E0,1.247417212E0
1.397205666E0,1.699935049E-1,-9.708784103E0,1.268965602E0
1.399205666E0,1.604164094E-1,-9.723150253E0,1.292908430E0
1.401205666E0,1.484450400E-1,-9.754275322E0,1.292908430E0
1.403205666E0,1.532335877E-1,-9.751881599E0,1.314456820E0
1.405205666E0,1.580221355E-1,-9.749486923E0,1.328822494E0
1.407205666E0,1.652049571E-1,-9.756669998E0,1.352765322E0
1.409205699E0,1.532335877E-1,-9.763853073E0,1.352765322E0
1.411205732E0,1.316851079E-1,-9.778218269E0,1.357553840E0
1.413205765E0,7.901106775E-2,-9.823709488E0,1.376708031E0
1.415205798E0,2.633702382E-2,-9.854835510E0,1.391073704E0
1.417205831E0,1.675992459E-2,-9.936240196E0,1.393467903E0
1.419205864E0,2.154847234E-2,-9.998491287E0,1.415016413E0
1.421205897E0,2.873129770E-2,-1.004158878E1,1.407833576E0
1.423205897E0,3.112557158E-2,-1.010862827E1,1.419804931E0
1.425205863E0,3.112557158E-2,-1.017806244E1,1.403045058E0
1.427205829E0,3.830839694E-2,-1.022355366E1,1.398256540E0
1.429205795E0,3.591412306E-2,-1.030735302E1,1.383890867E0
1.431205761E0,5.746259540E-2,-1.038875866E1,1.374313712E0
1.433205727E0,7.422251999E-2,-1.042467213E1,1.379102230E0
1.435205693E0,1.173194647E-1,-1.048213482E1,1.350371003E0
1.437205659E0,1.508393139E-1,-1.053720379E1,1.307274103E0
1.439205659E0,1.771763414E-1,-1.056114578E1,1.288119793E0
1.441205659E0,2.250618339E-1,-1.058748341E1,1.245022893E0
1.443205659E0,2.729473412E-1,-1.054917526E1,1.185166001E0
1.445205659E0,3.016786277E-1,-1.053002071E1,1.142069101E0
1.447205659E0,3.112557232E-1,-1.053002071E1,1.065452337E0
1.449205659E0,3.184385598E-1,-1.052283764E1,9.098244309E-1
1.451205659E0,3.256213665E-1,-1.051565456E1,8.260248303E-1
1.453205659E0,3.806896806E-1,-1.051326084E1,6.823683381E-1
1.455205659E0,4.573064744E-1,-1.051804924E1,5.698373914E-1
1.457205692E0,4.836435020E-1,-1.050128937E1,5.339232683E-1
1.459205725E0,5.267404318E-1,-1.047495270E1,5.435003638E-1
1.461205758E0,5.889915824E-1,-1.046537495E1,6.584255695E-1
1.463205791E0,6.081457734E-1,-1.048931789E1,7.182824612E-1
1.465205824E0,5.123748183E-1,-1.053480911E1,6.512427330E-1
1.467205857E0,4.501236677E-1,-1.051804924E1,5.650488734E-1
1.469205857E0,4.573064744E-1,-1.046298122E1,4.405465722E-1
1.471205857E0,5.458946824E-1,-1.045340347E1,4.644893110E-1
1.473205823E0,5.554717779E-1,-1.047495270E1,4.932205975E-1
1.475205789E0,5.051919818E-1,-1.053480911E1,5.554717779E-1
1.477205755E0,4.309694767E-1,-1.060903168E1,5.842030644E-1
1.479205721E0,3.950553536E-1,-1.065931129E1,5.746259689E-1
1.481205687E0,3.375927508E-1,-1.075029373E1,5.554717779E-1
1.483205653E0,2.921015322E-1,-1.080296803E1,5.051919818E-1
1.485205653E0,2.705530524E-1,-1.083169937E1,4.764606953E-1
1.487205653E0,2.035133541E-1,-1.092986488E1,4.022381604E-1
1.489205653E0,1.867534369E-1,-1.100648117E1,3.351984620E-1
1.491205653E0,1.891477108E-1,-1.103281784E1,2.944957912E-1
1.493205653E0,2.059076279E-1,-1.107352066E1,2.298503816E-1
1.495205653E0,2.035133541E-1,-1.110464668E1,1.723877788E-1
1.497205619E0,2.106961906E-1,-1.110943508E1,1.532335877E-1
1.499205619E0,2.298503816E-1,-1.110704041E1,1.101366431E-1
1.501205619E0,1.795706153E-1,-1.108549213E1,3.112557158E-2
1.503205619E0,1.388679445E-1,-1.105197239E1,-2.154847234E-2
1.505205619E0,1.723877788E-1,-1.095859623E1,-8.619388938E-2
1.507205619E0,2.801301479E-1,-1.091071033E1,-4.788549617E-2
1.509205619E0,3.304099143E-1,-1.084127617E1,2.394274808E-3
1.511205619E0,4.261809289E-1,-1.075747681E1,1.245022863E-1
1.513205619E0,4.573064744E-1,-1.073353386E1,1.652049571E-1
1.515205619E0,4.836435020E-1,-1.065452290E1,2.801301479E-1
1.517205585E0,4.884320498E-1,-1.060663700E1,3.160442710E-1
1.519205585E0,4.956148863E-1,-1.056114578E1,3.519583941E-1
1.521205585E0,5.027977228E-1,-1.048213482E1,3.567469418E-1
1.523205585E0,5.027977228E-1,-1.037678719E1,3.639297783E-1
1.525205585E0,5.051919818E-1,-1.032650757E1,3.543526828E-1
1.527205585E0,5.123748183E-1,-1.023791885E1,3.351984620E-1
1.529205585E0,5.171633363E-1,-1.013735962E1,3.208328187E-1
1.531205585E0,5.051919818E-1,-1.008708000E1,3.351984620E-1
1.533205618E0,4.908263385E-1,-9.976943016E0,3.687183261E-1
1.535205618E0,4.932205975E-1,-9.847652435E0,3.974496126E-1
1.537205618E0,4.884320498E-1,-9.785401344E0,4.309694767E-1
1.539205618E0,5.411061049E-1,-9.646533012E0,5.722316504E-1
1.541205618E0,5.937801600E-1,-9.476539612E0,7.087053657E-1
1.543205618E0,5.961744189E-1,-9.407105446E0,7.661679387E-1
1.545205618E0,5.889915824E-1,-9.289786339E0,8.715160489E-1
1.547205618E0,5.889915824E-1,-9.167677879E0,9.672870040E-1
1.549205618E0,5.865973234E-1,-9.098244667E0,1.005595446E0
1.551205618E0,5.865973234E-1,-8.959376335E0,1.036720991E0
1.553205618E0,5.698373914E-1,-8.892336845E0,1.082212210E0
1.555205618E0,5.674431324E-1,-8.763046265E0,1.110943556E0
1.557205651E0,5.482889414E-1,-8.633754730E0,1.180377483E0
1.559205651E0,5.363175869E-1,-8.571503639E0,1.237840056E0
1.561205651E0,5.051919818E-1,-8.444606781E0,1.324033976E0
1.563205651E0,5.027977228E-1,-8.315316200E0,1.400650740E0
1.565205651E0,4.884320498E-1,-8.272219658E0,1.438959122E0
1.567205684E0,4.477293789E-1,-8.152505875E0,1.489238977E0
1.569205717E0,4.237866402E-1,-8.037580490E0,1.565855742E0
1.571205750E0,3.950553536E-1,-7.965752125E0,1.608952641E0
1.573205783E0,3.519583941E-1,-7.869981289E0,1.661626697E0
1.575205816E0,2.298503816E-1,-7.764633179E0,1.661626697E0
1.577205849E0,2.298503816E-1,-7.764633179E0,1.661626697E0
1.579205849E0,2.083019018E-1,-7.673650742E0,1.656838179E0
1.581205815E0,1.915419847E-1,-7.594639778E0,1.652049661E0
1.583205781E0,1.604164094E-1,-7.573091030E0,1.644866824E0
1.585205747E0,1.245022863E-1,-7.510839939E0,1.625712633E0
1.587205713E0,9.577099234E-2,-7.434223175E0,1.620923996E0
1.589205679E0,8.619388938E-2,-7.405491829E0,1.630501151E0
1.591205645E0,6.464541703E-2,-7.395915031E0,1.687963724E0
1.593205611E0,6.703969836E-2,-7.417463303E0,1.675992370E0
1.595205611E0,8.858817071E-2,-7.436617374E0,1.659232497E0
1.597205611E0,6.703969836E-2,-7.477320194E0,1.573038578E0
1.599205611E0,8.858817071E-2,-7.474925995E0,1.551490068E0
1.601205611E0,1.101366431E-1,-7.489291668E0,1.558672905E0
1.603205611E0,9.098244458E-2,-7.556331158E0,1.537124395E0
1.605205611E0,5.267404765E-2,-7.587456703E0,1.532335877E0
1.607205611E0,-4.309694469E-2,-7.640130997E0,1.546701550E0
1.609205611E0,-6.943397224E-2,-7.697593689E0,1.534730196E0
1.611205611E0,-8.140534163E-2,-7.707170486E0,1.556278586E0
1.613205644E0,-1.340793967E-1,-7.745479107E0,1.613741279E0
1.615205677E0,-1.604164094E-1,-7.776604652E0,1.637683988E0
1.617205710E0,-1.675992310E-1,-7.790970325E0,1.661626697E0
1.619205743E0,-1.747820675E-1,-7.836461544E0,1.702329397E0
1.621205776E0,-1.604164094E-1,-7.862798691E0,1.723877907E0
1.623205809E0,-1.532335877E-1,-7.884346962E0,1.750214934E0
1.625205842E0,-1.340793967E-1,-7.927443981E0,1.834014535E0
1.627205842E0,-1.029538140E-1,-7.946598053E0,1.855562925E0
1.629205808E0,-1.005595401E-1,-7.960963726E0,1.879505754E0
1.631205774E0,-9.337671846E-2,-8.001666069E0,1.922602654E0
1.633205740E0,-7.422251999E-2,-8.013637543E0,2.032739401E0
1.635205706E0,-7.661679387E-2,-8.032792091E0,2.195549965E0
1.637205672E0,-6.464541703E-2,-8.030397415E0,2.272166729E0
1.639205638E0,-4.549122229E-2,-8.032792091E0,2.434977531E0
1.641205638E0,-4.788549617E-2,-8.037580490E0,2.530748367E0
1.643205638E0,-6.943397224E-2,-8.042368889E0,2.669616461E0
1.645205638E0,-1.149251908E-1,-8.047157288E0,2.842004299E0
1.647205638E0,-1.388679445E-1,-8.056735039E0,2.928198099E0
1.649205638E0,-1.628106833E-1,-8.090254784E0,3.110162973E0
1.651205638E0,-1.867534369E-1,-8.126168251E0,3.203539610E0
1.653205638E0,-2.346389294E-1,-8.178842545E0,3.402264595E0
1.655205638E0,-3.208328187E-1,-8.229122162E0,3.577046633E0
1.657205638E0,-3.663240373E-1,-8.262641907E0,3.665634632E0
1.659205638E0,-4.860377908E-1,-8.344047546E0,3.847599506E0
1.661205638E0,-6.177229285E-1,-8.435029984E0,4.019987583E0
1.663205638E0,-6.703969240E-1,-8.466156006E0,4.110970020E0
1.665205638E0,-7.972934842E-1,-8.564320564E0,4.266597748E0
1.667205638E0,-9.601042271E-1,-8.650514603E0,4.422225475E0
1.669205638E0,-1.046298146E0,-8.705583572E0,4.496448040E0
1.671205638E0,-1.245022893E0,-8.815719604E0,4.635315895E0
1.673205604E0,-1.448536277E0,-8.904308319E0,4.781366825E0
1.675205604E0,-1.723877907E0,-9.016839027E0,4.948966026E0
1.677205604E0,-1.862745762E0,-9.081484795E0,5.030371189E0
1.679205604E0,-2.183578730E0,-9.277814865E0,5.154873848E0
1.681205604E0,-2.353572130E0,-9.368797302E0,5.195576191E0
1.683205604E0,-2.676799297E0,-9.541185379E0,5.286558628E0
1.685205604E0,-3.028757572E0,-9.730332375E0,5.358386993E0
1.687205604E0,-3.227482557E0,-9.809344292E0,5.439792156E0
1.689205637E0,-3.608172178E0,-9.941028595E0,5.616968632E0
1.691205637E0,-3.998438835E0,-9.981731415E0,5.758230686E0
1.693205637E0,-4.144489765E0,-1.003440571E1,5.846818924E0
1.695205637E0,-4.474899769E0,-1.014693642E1,6.265817165E0
1.697205637E0,-4.474899769E0,-1.014693642E1,6.265817165E0
1.699205637E0,-4.656864643E0,-1.036481571E1,6.560312748E0
1.701205637E0,-4.905869007E0,-1.056593513E1,6.852414608E0
1.703205637E0,-5.049525738E0,-1.064973450E1,6.986494064E0
1.705205637E0,-5.327261448E0,-1.084367085E1,7.273807049E0
1.707205637E0,-5.566689014E0,-1.097535610E1,7.513234138E0
1.709205637E0,-5.691191196E0,-1.102802944E1,7.637736797E0
1.711205637E0,-5.842030525E0,-1.109746361E1,7.726325035E0
1.713205637E0,-5.918647289E0,-1.111901188E1,7.644919395E0
1.715205637E0,-5.973715782E0,-1.111422348E1,7.606611252E0
1.717205637E0,-6.076669693E0,-1.107352066E1,7.482108593E0
1.719205637E0,-6.150891781E0,-1.101605797E1,7.264229774E0
1.721205637E0,-6.174834728E0,-1.095620155E1,7.166064739E0
1.723205670E0,-6.227508545E0,-1.081493950E1,6.993676662E0
1.725205703E0,-6.261028767E0,-1.060424328E1,6.840443134E0
1.727205736E0,-6.261028767E0,-1.047016335E1,6.761432171E0
1.729205769E0,-6.299336910E0,-1.023791885E1,6.639324188E0
1.731205802E0,-6.342433929E0,-9.996097565E0,6.557918549E0
1.733205835E0,-6.316096783E0,-9.862017632E0,6.510033131E0
1.735205835E0,-6.265817165E0,-9.596253395E0,6.371165276E0
1.737205835E0,-6.095823765E0,-9.445414543E0,6.263422966E0
1.739205801E0,-6.016812801E0,-9.141341209E0,6.225114346E0
1.741205767E0,-5.849213123E0,-8.796566010E0,6.150891781E0
1.743205733E0,-5.743865490E0,-8.607418060E0,6.136526108E0
1.745205699E0,-5.552323341E0,-8.257853508E0,6.165257454E0
1.747205665E0,-5.391906738E0,-7.977723598E0,6.105400562E0
1.749205631E0,-5.296135902E0,-7.838855743E0,6.095823765E0
1.751205631E0,-5.087833881E0,-7.606611252E0,6.117372036E0
1.753205631E0,-4.869955063E0,-7.386337757E0,6.069486618E0
1.755205631E0,-4.637710094E0,-7.216344357E0,5.995264053E0
1.757205631E0,-4.486870766E0,-7.127756119E0,5.944984436E0
1.759205631E0,-4.134912491E0,-6.933819771E0,5.854001999E0
1.761205631E0,-3.940976381E0,-6.835654736E0,5.796539307E0
1.763205631E0,-3.553103924E0,-6.634535313E0,5.739076614E0
1.765205631E0,-3.141288519E0,-6.407079220E0,5.655277252E0
1.767205631E0,-2.942563772E0,-6.301731110E0,5.542746067E0
1.769205664E0,-2.528354168E0,-6.079063892E0,5.300924301E0
1.771205697E0,-2.174001455E0,-5.889915943E0,5.008822918E0
1.773205730E0,-2.006402254E0,-5.810904980E0,4.867560863E0
1.775205763E0,-1.690358043E0,-5.667248249E0,4.616161823E0
1.777205796E0,-1.371919513E0,-5.525986195E0,4.268991947E0
1.779205829E0,-1.223474383E0,-5.475706577E0,4.091815472E0
1.781205862E0,-9.098244309E-1,-5.365570068E0,3.723097324E0
1.783205862E0,-5.937801600E-1,-5.312895775E0,3.316070557E0
1.785205828E0,-4.788549542E-1,-5.248250484E0,3.136499882E0
1.787205794E0,-2.849186957E-1,-5.176422119E0,2.758204460E0
1.789205760E0,-2.130904645E-1,-5.176422119E0,2.569056988E0
1.791205726E0,-9.337671846E-2,-5.238673210E0,2.245829821E0
1.793205692E0,-1.197137404E-2,-5.348809719E0,1.927391171E0
1.795205658E0,1.197137404E-2,-5.403878212E0,1.800494671E0
1.797205624E0,2.633702382E-2,-5.537957668E0,1.623318315E0
1.799205624E0,-1.197137404E-2,-5.693585396E0,1.503604531E0
1.801205624E0,-7.661679387E-2,-5.806116581E0,1.460507631E0
1.803205624E0,-2.513988614E-1,-6.064698219E0,1.462901950E0
1.805205624E0,-4.022381604E-1,-6.383136749E0,1.501210332E0
1.807205624E0,-4.932205975E-1,-6.548341751E0,1.589798450E0
1.809205624E0,-6.632141471E-1,-6.883540154E0,1.750214934E0
1.811205624E0,-7.302538157E-1,-7.245075703E0,1.982459545E0
1.813205624E0,-7.182824612E-1,-7.412674904E0,2.123721838E0
1.815205624E0,-6.273000240E-1,-7.972935200E0,2.490045786E0
1.817205624E0,-5.674431324E-1,-8.186025620E0,2.576239586E0
1.819205624E0,-5.075862408E-1,-8.415876389E0,2.640885115E0
1.821205624E0,-3.950553536E-1,-8.923461914E0,2.679193497E0
1.823205624E0,-2.897072434E-1,-9.488511086E0,2.676799297E0
1.825205624E0,-2.490045726E-1,-9.787795067E0,2.657644987E0
1.827205624E0,-9.577099234E-2,-1.033129597E1,2.509200096E0
1.829205590E0,1.436564922E-1,-1.058508873E1,2.250618219E0
1.831205590E0,2.777358890E-1,-1.115492630E1,2.169213057E0
1.833205590E0,5.219519138E-1,-1.182532310E1,2.054287672E0
1.835205590E0,6.512427330E-1,-1.215094471E1,2.006402254E0
1.837205590E0,8.427847624E-1,-1.281655312E1,1.893871427E0
1.839205590E0,9.864411950E-1,-1.345582485E1,1.774157643E0
1.841205590E0,1.063058019E0,-1.374553204E1,1.695146561E0
1.843205590E0,1.192348838E0,-1.426748371E1,1.580221415E0
1.845205623E0,1.213897347E0,-1.472239590E1,1.513181686E0
1.847205623E0,1.223474383E0,-1.493069744E1,1.510787368E0
1.849205623E0,1.280937076E0,-1.528265572E1,1.462901950E0
1.851205623E0,1.369525194E0,-1.568010616E1,1.472478986E0
1.853205623E0,1.388679385E0,-1.591235065E1,1.460507631E0
1.855205623E0,1.448536277E0,-1.638162804E1,1.443747759E0
1.857205623E0,1.644866824E0,-1.679583740E1,1.417410731E0
1.859205623E0,1.781340480E0,-1.700892830E1,1.474873304E0
1.861205623E0,2.104567528E0,-1.737285805E1,1.479661822E0
1.863205623E0,2.303292274E0,-1.770566177E1,1.561067224E0
1.865205623E0,2.339206457E0,-1.784213638E1,1.568249941E0
1.867205623E0,2.324840784E0,-1.807198715E1,1.424593568E0
1.869205623E0,2.748627424E0,-1.819888306E1,8.954587579E-1
1.871205623E0,2.863552570E0,-1.834732819E1,6.895511150E-1
1.873205623E0,2.485257149E0,-1.870407486E1,1.201925993E0
1.875205623E0,1.230657220E0,-1.932898140E1,2.324840784E0
1.877205623E0,6.703969240E-1,-1.954446602E1,2.748627424E0
1.879205656E0,1.675992310E-1,-1.972403526E1,3.498035431E0
1.881205689E0,-2.394274808E-3,-1.980544090E1,3.782954216E0
1.883205722E0,-2.490045726E-1,-1.998261833E1,4.307300568E0
1.885205755E0,-4.477293789E-1,-2.006402206E1,4.446168423E0
1.887205788E0,-5.674431324E-1,-2.007360077E1,4.403071404E0
1.889205821E0,-8.834874034E-1,-2.008796501E1,4.149278164E0
1.891205821E0,-1.082212210E0,-1.992754936E1,3.778165579E0
1.893205821E0,-1.149251938E0,-1.976952744E1,3.529160976E0
1.895205787E0,-1.340793848E0,-1.935531807E1,2.681587696E0
1.897205753E0,-1.628106833E0,-1.899378204E1,1.697540879E0
1.899205719E0,-1.778946161E0,-1.886927986E1,1.300091267E0
1.901205685E0,-2.205127001E0,-1.872083473E1,6.105400920E-1
1.903205651E0,-2.607365370E0,-1.863224602E1,-1.125309169E-1
1.905205617E0,-2.734261751E0,-1.858914948E1,-4.764606953E-1
1.907205617E0,-2.856369734E0,-1.840000153E1,-1.089395046E0
1.909205617E0,-2.937775135E0,-1.811747742E1,-1.599375606E0
1.911205617E0,-2.956929445E0,-1.796903229E1,-1.764580488E0
1.913205617E0,-3.045517445E0,-1.762904549E1,-1.948939681E0
1.915205617E0,-3.210722446E0,-1.737285805E1,-2.090201855E0
1.917205617E0,-3.311282158E0,-1.726511574E1,-2.190761566E0
1.919205617E0,-3.435784340E0,-1.700413895E1,-2.312869549E0
1.921205617E0,-3.517189741E0,-1.674555779E1,-2.370332003E0
1.923205617E0,-3.536343813E0,-1.662105560E1,-2.434977531E0
1.925205650E0,-3.591412306E0,-1.630501175E1,-2.552296877E0
1.927205683E0,-3.598595142E0,-1.613741302E1,-2.650462151E0
1.929205716E0,-3.531555414E0,-1.582615662E1,-2.830032825E0
1.931205749E0,-3.380716085E0,-1.548377514E1,-3.134105682E0
1.933205782E0,-3.308887720E0,-1.529702187E1,-3.294522047E0
1.935205815E0,-3.014391899E0,-1.476309872E1,-3.859570980E0
1.937205848E0,-2.932986736E0,-1.459789371E1,-4.034353256E0
1.939205848E0,-2.865947008E0,-1.441832256E1,-4.225894928E0
1.941205814E0,-2.774964571E0,-1.404481602E1,-4.585036278E0
1.943205780E0,-2.662433624E0,-1.367609787E1,-4.889109135E0
1.945205746E0,-2.564268351E0,-1.346300697E1,-5.039948463E0
1.947205712E0,-2.808484316E0,-1.321400261E1,-4.960937500E0
1.949205678E0,-3.019180536E0,-1.276387882E1,-4.283357620E0
1.951205644E0,-2.956929445E0,-1.249332619E1,-4.022381783E0
1.953205610E0,-2.698347807E0,-1.200010490E1,-3.524372578E0
1.955205610E0,-2.262589693E0,-1.156434727E1,-3.112557173E0
1.957205610E0,-1.968093872E0,-1.138956547E1,-3.059883118E0
1.959205610E0,-1.946545362E0,-1.106394386E1,-2.705530643E0
1.961205610E0,-2.358360767E0,-1.073832226E1,-2.195549965E0
1.963205610E0,-2.628913641E0,-1.060424328E1,-1.929785490E0
1.965205610E0,-3.141288519E0,-1.035284424E1,-1.558672905E0
1.967205610E0,-3.380716085E0,-9.979337692E0,-1.084606528E0
1.969205610E0,-3.493247032E0,-9.792584419E0,-5.674431324E-1
1.971205610E0,-3.754222870E0,-9.431048393E0,3.160442710E-1
1.973205610E0,-3.873936653E0,-9.265843391E0,5.674431324E-1
1.975205610E0,-4.170826912E0,-8.954587936E0,7.087053657E-1
1.977205610E0,-4.565882206E0,-8.705583572E0,7.350423932E-1
1.979205610E0,-4.750241280E0,-8.595446587E0,7.972934842E-1
1.981205610E0,-4.925023079E0,-8.375173569E0,9.217957854E-1
1.983205610E0,-4.711932659E0,-8.083071709E0,8.954587579E-1
1.985205576E0,-4.393494129E0,-7.944203854E0,8.260248303E-1
1.987205542E0,-3.641691923E0,-7.719141960E0,6.201171875E-1
1.989205575E0,-3.349590540E0,-7.644919395E0,2.921015322E-1
1.991205575E0,-3.316070557E0,-7.632947922E0,1.508393139E-1
1.993205575E0,-3.234665155E0,-7.637736797E0,-2.154847234E-2
1.995205575E0,-3.091008663E0,-7.637736797E0,-1.077423692E-1
1.997205575E0,-3.091008663E0,-7.668862343E0,-1.077423692E-1
1.999205575E0,-3.052700281E0,-7.702382088E0,-1.149251908E-1
2.001205608E0,-2.916226625E0,-7.699987888E0,-7.901106775E-2
2.003205608E0,-2.853975534E0,-7.709564686E0,-4.070267081E-2
2.005205608E0,-2.786935806E0,-7.745479107E0,-2.154847234E-2
2.007205608E0,-2.731867552E0,-7.802941799E0,-5.027977005E-2
2.009205608E0,-2.695953369E0,-7.829278469E0,4.788549617E-3
2.011205608E0,-2.576239586E0,-7.793364525E0,2.106961906E-1
2.013205608E0,-2.372726440E0,-7.704776287E0,5.411061049E-1
2.015205608E0,-2.236252785E0,-7.630553722E0,7.278595567E-1
2.017205608E0,-1.999219418E0,-7.383943558E0,9.050358534E-1
2.019205608E0,-1.922602654E0,-7.273807049E0,8.810931444E-1
2.021205608E0,-1.829225898E0,-7.101418972E0,8.763045669E-1
2.023205608E0,-1.740637779E0,-6.897905827E0,1.115732074E0
2.025205608E0,-1.666415215E0,-6.799740314E0,1.288119793E0
2.027205608E0,-1.505998850E0,-6.605803967E0,1.618529797E0
2.029205608E0,-1.527547359E0,-6.562707424E0,1.946545362E0
2.031205608E0,-1.582615614E0,-6.586649895E0,2.094990492E0
2.033205608E0,-1.589798450E0,-6.648900986E0,2.305686712E0
2.035205641E0,-1.417410731E0,-6.689603806E0,2.463708878E0
2.037205674E0,-1.278542757E0,-6.680026531E0,2.513988495E0
2.039205707E0,-1.007989645E0,-6.658478260E0,2.509200096E0
2.041205740E0,-7.470137477E-1,-6.610592842E0,2.415823221E0
2.043205773E0,-6.129343510E-1,-6.560312748E0,2.375120640E0
2.045205806E0,-3.447755575E-1,-6.495667458E0,2.296109438E0
2.047205839E0,-7.422251999E-2,-6.416656494E0,2.229069948E0
2.049205805E0,7.901106775E-2,-6.359193802E0,2.193155766E0
2.051205771E0,3.830839694E-1,-6.258634567E0,2.121327400E0
2.053205737E0,6.392713785E-1,-6.189200401E0,2.039922237E0
2.055205703E0,8.571503758E-1,-6.105400562E0,1.996825218E0
2.057205669E0,9.457385540E-1,-6.079063892E0,1.987248063E0
2.059205635E0,1.127703428E0,-6.014418125E0,1.984853864E0
2.061205601E0,1.194743156E0,-5.997658253E0,1.987248063E0
2.063205601E0,1.285725594E0,-5.988081455E0,2.037527800E0
2.065205601E0,1.319245458E0,-5.961744308E0,2.073441982E0
2.067205601E0,1.388679385E0,-5.882733345E0,2.157241583E0
2.069205601E0,1.407833576E0,-5.782173634E0,2.219492674E0
2.071205601E0,1.417410731E0,-5.734288216E0,2.253012657E0
2.073205601E0,1.405439258E0,-5.645699978E0,2.303292274E0
2.075205601E0,1.410227895E0,-5.583448887E0,2.324840784E0
2.077205601E0,1.412622094E0,-5.581054688E0,2.346389294E0
2.079205601E0,1.405439258E0,-5.571477413E0,2.387091875E0
2.081205634E0,1.465296149E0,-5.514014721E0,2.451737404E0
2.083205667E0,1.503604531E0,-5.494860649E0,2.466103077E0
2.085205700E0,1.596981287E0,-5.478100777E0,2.463708878E0
2.087205733E0,1.750214934E0,-5.394300938E0,2.470891714E0
2.089205766E0,1.817254543E0,-5.355992794E0,2.473285913E0
2.091205799E0,1.965699673E0,-5.286558628E0,2.427794695E0
2.093205832E0,2.090201855E0,-5.231490612E0,2.396669149E0
2.095205832E0,2.138087511E0,-5.197970390E0,2.384697676E0
2.097205798E0,2.174001455E0,-5.159662247E0,2.363149166E0
2.099205764E0,2.272166729E0,-5.138113976E0,2.245829821E0
2.101205730E0,2.327235222E0,-5.140508175E0,2.176395893E0
2.103205696E0,2.415823221E0,-5.097411156E0,2.150058746E0
2.105205662E0,2.430188894E0,-4.975303173E0,2.171607256E0
2.107205628E0,2.456526041E0,-4.915446281E0,2.142875910E0
2.109205594E0,2.466103077E0,-4.834040642E0,2.049499273E0
2.111205594E0,2.444554567E0,-4.795732498E0,2.004008055E0
2.113205594E0,2.427794695E0,-4.716721535E0,1.960911036E0
2.115205594E0,2.312869549E0,-4.632921696E0,1.920208454E0
2.117205660E0,2.312869549E0,-4.632921696E0,1.920208454E0
2.119205660E0,2.262589693E0,-4.573064804E0,1.948939681E0
2.121205660E0,2.142875910E0,-4.513207912E0,1.992036581E0
2.123205660E0,2.097384691E0,-4.470110893E0,2.015979290E0
2.125205660E0,2.049499273E0,-4.412648678E0,2.059076309E0
2.127205660E0,1.987248063E0,-4.369551659E0,2.123721838E0
2.129205660E0,1.936968327E0,-4.345608711E0,2.152452946E0
2.131205660E0,1.826831698E0,-4.326454639E0,2.296109438E0
2.133205660E0,1.695146561E0,-4.333637238E0,2.420611858E0
2.135205660E0,1.625712633E0,-4.336031914E0,2.492439985E0
2.137205660E0,1.458113313E0,-4.340820312E0,2.619336605E0
2.139205660E0,1.324033976E0,-4.333637238E0,2.739050388E0
2.141205626E0,1.261782765E0,-4.340820312E0,2.801301479E0
2.143205592E0,1.149251938E0,-4.376734257E0,2.899466753E0
2.145205592E0,1.060663700E0,-4.417437077E0,3.004814863E0
2.147205592E0,1.003201127E0,-4.436591148E0,3.071854591E0
2.149205592E0,8.619389534E-1,-4.467716694E0,3.227482557E0
2.151205592E0,7.134938836E-1,-4.496448040E0,3.378321648E0
2.153205592E0,6.296942830E-1,-4.510813713E0,3.471698523E0
2.155205592E0,4.812492430E-1,-4.506025314E0,3.668029070E0
2.157205625E0,2.921015322E-1,-4.510813713E0,3.782954216E0
2.159205625E0,1.843591630E-1,-4.510813713E0,3.981678963E0
2.161205625E0,-3.112557158E-2,-4.522785187E0,4.194769382E0
2.163205625E0,-1.460507661E-1,-4.520390987E0,4.302511692E0
2.165205625E0,-3.711125851E-1,-4.529967785E0,4.484476566E0
2.167205625E0,-6.368771195E-1,-4.570670605E0,4.606584549E0
2.169205625E0,-7.829278708E-1,-4.589824677E0,4.678412914E0
2.171205625E0,-1.082212210E0,-4.632921696E0,4.836435318E0
2.173205625E0,-1.340793848E0,-4.668835640E0,4.956148624E0
2.175205625E0,-1.608952641E0,-4.740664005E0,5.030371189E0
2.177205558E0,-1.774157643E0,-4.778972626E0,5.066285610E0
2.179205558E0,-2.152452946E0,-4.874743462E0,5.154873848E0
2.181205558E0,-2.360754967E0,-4.913052082E0,5.171633720E0
2.183205558E0,-2.748627424E0,-5.025582790E0,5.095016956E0
2.185205558E0,-3.071854591E0,-5.147690773E0,4.898686409E0
2.187205558E0,-3.237059593E0,-5.209941864E0,4.776578426E0
2.189205558E0,-3.629720688E0,-5.334444046E0,4.522785187E0
2.191205591E0,-3.955342054E0,-5.485283375E0,4.240260601E0
2.193205624E0,-4.108575344E0,-5.576265812E0,4.077449799E0
2.195205657E0,-4.479688168E0,-5.791750908E0,3.675211906E0
2.197205690E0,-4.726298332E0,-6.050332546E0,3.215511084E0
2.199205723E0,-4.834040642E0,-6.201171875E0,2.961717844E0
2.201205756E0,-5.104593754E0,-6.536370277E0,2.518777132E0
2.203205789E0,-5.399089813E0,-6.694392204E0,2.336812258E0
2.205205789E0,-5.545140266E0,-7.039167881E0,1.980065227E0
2.207205755E0,-5.937801361E0,-7.376760483E0,1.680780888E0
2.209205721E0,-6.112583637E0,-7.529994488E0,1.537124395E0
2.211205687E0,-6.474119186E0,-7.848433018E0,1.300091267E0
2.213205653E0,-6.847625732E0,-8.202785492E0,1.113337755E0
2.215205619E0,-7.156487465E0,-8.571503639E0,9.505270720E-1
2.217205585E0,-7.307326794E0,-8.758256912E0,8.906702399E-1
2.219205585E0,-7.568302631E0,-9.138946533E0,7.326480746E-1
2.221205585E0,-7.714353561E0,-9.337671280E0,6.392713785E-1
2.223205585E0,-7.982511997E0,-9.778218269E0,4.836435020E-1
2.225205585E0,-8.231516838E0,-1.028819847E1,3.902668059E-1
2.227205585E0,-8.365595818E0,-1.056114578E1,3.735068738E-1
2.229205585E0,-8.631361008E0,-1.112380123E1,4.429408312E-1
2.231205585E0,-8.880365372E0,-1.167208958E1,6.296942830E-1
2.233205585E0,-9.035993576E0,-1.198334503E1,7.948992252E-1
2.235205585E0,-9.598648071E0,-1.294584370E1,1.601769805E0
2.237205585E0,-9.869200706E0,-1.327385998E1,1.965699673E0
2.239205618E0,-1.014693642E1,-1.358990383E1,2.377514839E0
2.241205651E0,-1.070001411E1,-1.416452980E1,3.268185139E0
2.243205684E0,-1.124351406E1,-1.461704731E1,4.228289127E0
2.245205717E0,-1.144942188E1,-1.477267551E1,4.711932659E0
2.247205750E0,-1.177264881E1,-1.500492001E1,5.681613922E0
2.249205783E0,-1.195221996E1,-1.509590244E1,6.153286457E0
2.251205783E0,-1.194503689E1,-1.516773129E1,7.077476501E0
2.253205749E0,-1.183729458E1,-1.513899994E1,7.874769688E0
2.255205715E0,-1.171758080E1,-1.508393097E1,8.221940041E0
2.257205681E0,-1.137759399E1,-1.489238930E1,8.889942169E0
2.259205647E0,-1.089155579E1,-1.462183666E1,9.522030830E0
2.261205613E0,-1.060903168E1,-1.448057365E1,9.809344292E0
2.263205579E0,-1.004158878E1,-1.417171288E1,1.037918091E1
2.265205545E0,-9.498087883E0,-1.385566807E1,1.094423008E1
2.267205545E0,-9.241900444E0,-1.370243454E1,1.118605232E1
2.269205545E0,-8.755863190E0,-1.342948723E1,1.165293503E1
2.271205545E0,-8.341653824E0,-1.317569447E1,1.207193375E1
2.273205545E0,-8.157294273E0,-1.307274055E1,1.224192715E1
2.275205545E0,-7.774210453E0,-1.290753555E1,1.246220016E1
2.277205545E0,-7.383943558E0,-1.275430202E1,1.253402901E1
2.279205545E0,-7.175641537E0,-1.269923401E1,1.253402901E1
2.281205545E0,-6.759037971E0,-1.258670235E1,1.236403465E1
2.283205545E0,-6.299336910E0,-1.244544029E1,1.206475067E1
2.285205545E0,-6.067092419E0,-1.235924625E1,1.187320900E1
2.287205545E0,-5.648094177E0,-1.215573311E1,1.142787361E1
2.289205545E0,-5.265010357E0,-1.194503689E1,1.090113354E1
2.291205545E0,-5.059102535E0,-1.183250618E1,1.060424328E1
2.293205545E0,-4.616161823E0,-1.158110714E1,9.953000069E0
2.295205545E0,-4.185192585E0,-1.130097675E1,9.265843391E0
2.297205545E0,-3.991255999E0,-1.115013790E1,8.892336845E0
2.299205511E0,-3.624932051E0,-1.077902508E1,8.135746002E0
2.301205511E0,-3.445361376E0,-1.059945488E1,7.738296032E0
2.303205511E0,-3.131711483E0,-1.022834206E1,6.878751755E0
2.305205511E0,-2.901860952E0,-9.809344292E0,6.074275017E0
2.307205511E0,-2.832427025E0,-9.577098846E0,5.684008598E0
2.309205511E0,-2.753416061E0,-9.107821465E0,4.915446281E0
2.311205511E0,-2.686376333E0,-8.597841263E0,4.350397110E0
2.313205544E0,-2.643279314E0,-8.339259148E0,4.110970020E0
2.315205577E0,-2.549902678E0,-7.877163887E0,3.751828671E0
2.317205577E0,-2.475680113E0,-7.541965485E0,3.402264595E0
2.319205577E0,-2.473285913E0,-7.422251701E0,3.170019865E0
2.321205577E0,-2.521171331E0,-7.307326794E0,2.631308079E0
2.323205577E0,-2.607365370E0,-7.371972084E0,2.102173328E0
2.325205577E0,-2.645673752E0,-7.486897469E0,1.934574008E0
2.327205577E0,-2.667222023E0,-7.886741161E0,1.822043180E0
2.329205577E0,-2.554691315E0,-8.427846909E0,2.047105074E0
2.331205577E0,-2.423006058E0,-8.767834663E0,2.250618219E0
2.333205577E0,-2.056682110E0,-9.481328011E0,2.834821463E0
2.335205577E0,-1.640078187E0,-1.021397591E1,3.555498123E0
2.337205577E0,-1.431776285E0,-1.057551193E1,3.919427872E0
2.339205577E0,-1.115732074E0,-1.133928585E1,4.580247879E0
2.341205577E0,-8.786988258E-1,-1.171279240E1,4.834040642E0
2.343205577E0,-7.972934842E-1,-1.240952587E1,5.154873848E0
2.345205577E0,-7.015225291E-1,-1.307274055E1,5.200365067E0
2.347205610E0,-7.087053657E-1,-1.340075588E1,5.118959427E0
2.349205643E0,-7.350423932E-1,-1.401847935E1,4.764606953E0
2.351205676E0,-8.044763207E-1,-1.465775013E1,4.295329094E0
2.353205709E0,-8.763045669E-1,-1.496661186E1,4.058295727E0
2.355205742E0,-1.204320192E0,-1.605840111E1,3.076643229E0
2.357205775E0,-1.326428294E0,-1.648218727E1,2.566662550E0
2.359205808E0,-1.453324795E0,-1.693470573E1,1.992036581E0
2.361205808E0,-1.726272106E0,-1.786607933E1,7.063110471E-1
2.363205774E0,-1.975276709E0,-1.880224037E1,-6.344828010E-1
2.365205740E0,-2.075836182E0,-1.923320961E1,-1.290514112E0
2.367205706E0,-2.164424419E0,-2.004247475E1,-2.454131603E0
2.369205672E0,-2.030344963E0,-2.074160194E1,-3.217905283E0
2.371205638E0,-1.901054144E0,-2.102652168E1,-3.447755814E0
2.373205604E0,-1.580221415E0,-2.141918182E1,-3.732674360E0
2.375205570E0,-1.292908430E0,-2.153650284E1,-3.838022470E0
2.377205570E0,-1.180377483E0,-2.143594170E1,-3.849993944E0
2.379205570E0,-1.010383964E0,-2.090201950E1,-3.763799906E0
2.381205570E0,-7.757450342E-1,-1.995388603E1,-3.596200705E0
2.383205570E0,-6.105400920E-1,-1.930982590E1,-3.466909885E0
2.385205570E0,-2.154847383E-1,-1.778706741E1,-3.014391899E0
2.387205570E0,2.178790122E-1,-1.690357971E1,-2.691164970E0
2.389205570E0,4.477293789E-1,-1.510787392E1,-1.968093872E0
2.391205570E0,9.792584181E-1,-1.354680729E1,-1.276148438E0
2.393205570E0,1.259388566E0,-1.290035248E1,-9.337671995E-1
2.395205603E0,1.913025618E0,-1.183729458E1,-2.753416002E-1
2.397205636E0,2.648067951E0,-1.100169277E1,2.873129845E-1
2.399205669E0,3.016786337E0,-1.067607117E1,4.980091453E-1
2.401205702E0,3.732674360E0,-1.015890789E1,8.643332124E-1
2.403205735E0,4.331243038E0,-9.814132690E0,1.228263021E0
2.405205768E0,4.561093330E0,-9.701601982E0,1.431776285E0
2.407205768E0,4.867560863E0,-9.560338974E0,1.738243461E0
2.409205734E0,4.951360226E0,-9.565128326E0,1.826831698E0
2.411205700E0,4.951360226E0,-9.557945251E0,1.824437380E0
2.413205666E0,4.975303173E0,-9.617801666E0,1.747820616E0
2.415205632E0,4.996851444E0,-9.675264359E0,1.630501151E0
2.417205598E0,4.992063046E0,-9.677659035E0,1.608952641E0
2.419205564E0,4.968120098E0,-9.656110764E0,1.743032098E0
2.421205530E0,4.893897533E0,-9.653716087E0,1.891477108E0
2.423205530E0,4.850800991E0,-9.651321411E0,1.908236980E0
2.425205530E0,4.769395351E0,-9.613013268E0,1.805283189E0
2.427205530E0,4.687990189E0,-9.517242432E0,1.642472506E0
2.429205530E0,4.620950222E0,-9.459779739E0,1.594586968E0
2.431205496E0,4.362368584E0,-9.328094482E0,1.625712633E0
2.433205496E0,3.840416908E0,-9.306546211E0,1.711906433E0
2.435205496E0,3.610566378E0,-9.409500122E0,2.001613855E0
2.437205496E0,3.385504484E0,-9.493299484E0,2.341600657E0
2.439205496E0,3.337619066E0,-9.565128326E0,2.430188894E0
2.441205496E0,3.337619066E0,-9.720755577E0,2.523565531E0
2.443205496E0,3.361561775E0,-9.957788467E0,2.439765930E0
2.445205496E0,3.366350412E0,-1.009905148E1,2.315263748E0
2.447205496E0,3.366350412E0,-1.038636398E1,1.941756845E0
2.449205496E0,3.440572977E0,-1.066409969E1,1.527547359E0
2.451205496E0,3.476486921E0,-1.079817963E1,1.288119793E0
2.453205496E0,3.289733648E0,-1.111182976E1,7.733507752E-1
2.455205462E0,2.880312681E0,-1.143505669E1,3.375927508E-1
2.457205462E0,2.719896078E0,-1.157631874E1,1.604164094E-1
2.459205462E0,2.449343204E0,-1.171758080E1,-8.140534163E-2
2.461205462E0,2.298503876E0,-1.184208298E1,-2.250618339E-1
2.463205462E0,2.260195494E0,-1.189954567E1,-2.418217510E-1
2.465205462E0,2.420611858E0,-1.197376823E1,-1.245022863E-1
2.467205462E0,2.762993097E0,-1.208869362E1,9.577099234E-2
2.469205495E0,2.794118643E0,-1.220361900E1,2.466102988E-1
2.471205528E0,2.375120640E0,-1.251247978E1,5.435003638E-1
2.473205528E0,1.867534399E0,-1.272078228E1,7.685621977E-1
2.475205528E0,1.412622094E0,-1.288359261E1,1.024749637E0
2.477205528E0,1.240234375E0,-1.293866062E1,1.173194647E0
2.479205528E0,9.648927450E-1,-1.299851799E1,1.338399649E0
2.481205528E0,7.781392932E-1,-1.310386562E1,1.721483588E0
2.483205528E0,3.495641351E-1,-1.315414619E1,2.118933201E0
2.485205528E0,1.556278616E-1,-1.315653992E1,2.279349566E0
2.487205528E0,-1.412622184E-1,-1.307992363E1,2.537931204E0
2.489205528E0,-5.099805593E-1,-1.299372959E1,2.734261751E0
2.491205561E0,-7.326480746E-1,-1.293387222E1,2.842004299E0
2.493205561E0,-1.213897347E0,-1.282852459E1,2.983266354E0
2.495205561E0,-1.743032098E0,-1.261782837E1,3.050306082E0
2.497205561E0,-2.011190891E0,-1.251487446E1,3.095797300E0
2.499205561E0,-2.559479713E0,-1.223474407E1,3.170019865E0
2.501205561E0,-2.976083517E0,-1.192109394E1,3.148471355E0
2.503205594E0,-3.146077156E0,-1.177504349E1,3.112557173E0
2.505205627E0,-3.414235830E0,-1.150927925E1,3.009603500E0
2.507205660E0,-3.569863796E0,-1.125069714E1,2.815667152E0
2.509205693E0,-3.651269197E0,-1.114774323E1,2.688770533E0
2.511205726E0,-3.833234072E0,-1.093225861E1,2.470891714E0
2.513205759E0,-4.027170181E0,-1.074550533E1,2.303292274E0
2.515205792E0,-4.091815472E0,-1.064015770E1,2.219492674E0
2.517205792E0,-4.134912491E0,-1.041509533E1,2.102173328E0
2.519205758E0,-4.168432236E0,-1.019482231E1,2.090201855E0
2.521205724E0,-4.271386147E0,-1.007989693E1,2.063864946E0
2.523205690E0,-4.381523132E0,-9.792584419E0,2.430188894E0
2.525205656E0,-4.113364220E0,-9.562733650E0,2.595393896E0
2.527205622E0,-3.976890564E0,-9.031204224E0,2.834821463E0
2.529205588E0,-3.749434233E0,-8.621783257E0,2.937775135E0
2.531205554E0,-3.656057596E0,-8.430241585E0,2.961717844E0
2.533205554E0,-3.543526649E0,-8.095043182E0,3.023969173E0
2.535205554E0,-3.306493521E0,-7.661679268E0,3.117345810E0
2.537205554E0,-3.306493521E0,-7.661679268E0,3.117345810E0
2.539205554E0,-3.184385538E0,-7.403097630E0,3.201145411E0
2.541205554E0,-3.014391899E0,-7.137333393E0,3.244242430E0
2.543205554E0,-2.911438227E0,-6.991282463E0,3.263396502E0
2.545205554E0,-2.660039425E0,-6.732700825E0,3.258608103E0
2.547205554E0,-2.336812258E0,-6.505244732E0,3.301704884E0
2.549205554E0,-2.214704275E0,-6.387925148E0,3.332830429E0
2.551205587E0,-1.975276709E0,-6.136526108E0,3.395081758E0
2.553205620E0,-1.759791970E0,-5.937801361E0,3.349590540E0
2.555205653E0,-1.666415215E0,-5.839636326E0,3.340013266E0
2.557205686E0,-1.534730196E0,-5.679219723E0,3.301704884E0
2.559205719E0,-1.436564922E0,-5.413455486E0,3.299310684E0
2.561205752E0,-1.350371003E0,-5.284164429E0,3.241847992E0
2.563205752E0,-1.036720991E0,-5.054314137E0,3.244242430E0
2.565205752E0,-6.512427330E-1,-4.872349262E0,3.490852594E0
2.567205718E0,-4.573064744E-1,-4.771789551E0,3.579440832E0
2.569205684E0,-2.609759569E-1,-4.455745220E0,3.545921087E0
2.571205650E0,-5.818088055E-1,-4.312088966E0,3.392687321E0
2.573205616E0,-8.691217303E-1,-4.118152618E0,3.069460392E0
2.575205582E0,-1.101366401E0,-3.984073162E0,2.971295118E0
2.577205548E0,-8.906702399E-1,-3.933793545E0,3.158048391E0
2.579205548E0,-2.801301479E-1,-3.835628271E0,3.545921087E0
2.581205548E0,8.858817071E-2,-3.797319889E0,3.440572977E0
2.583205548E0,2.226675600E-1,-3.804502726E0,3.282550812E0
2.585205548E0,5.985686779E-1,-3.818868399E0,3.011997700E0
2.587205548E0,8.164477348E-1,-3.893090725E0,2.636096478E0
2.589205548E0,8.834874034E-1,-3.938581944E0,2.470891714E0
2.591205514E0,1.096577883E0,-4.005621910E0,2.291321039E0
2.593205514E0,1.407833576E0,-4.096604347E0,2.207521439E0
2.595205580E0,1.632895470E0,-4.261809349E0,2.044710636E0
2.597205580E0,1.683175206E0,-4.386311531E0,1.946545362E0
2.599205580E0,1.652049661E0,-4.608979225E0,1.771763325E0
2.601205580E0,1.587404251E0,-4.716721535E0,1.716695070E0
2.603205580E0,1.383890867E0,-4.944177628E0,1.685569525E0
2.605205580E0,1.082212210E0,-5.174027920E0,1.687963724E0
2.607205580E0,9.385557175E-1,-5.279376030E0,1.697540879E0
2.609205580E0,7.134938836E-1,-5.497254848E0,1.652049661E0
2.611205546E0,5.602602959E-1,-5.631334305E0,1.453324795E0
2.613205546E0,5.147690773E-1,-5.691191196E0,1.319245458E0
2.615205546E0,4.166038036E-1,-5.849213123E0,1.027143836E0
2.617205546E0,3.328042030E-1,-5.942590237E0,8.786988258E-1
2.619205546E0,2.801301479E-1,-6.117372036E0,6.153286099E-1
2.621205546E0,2.609759569E-1,-6.323279858E0,4.261809289E-1
2.623205546E0,2.825244367E-1,-6.416656494E0,3.711125851E-1
2.625205546E0,3.423812985E-1,-6.514821529E0,3.232271075E-1
2.627205579E0,4.549122155E-1,-6.572284222E0,3.830839694E-1
2.629205579E0,4.716721475E-1,-6.565101624E0,3.639297783E-1
2.631205579E0,3.711125851E-1,-6.512427330E0,1.771763414E-1
2.633205579E0,4.692778587E-1,-6.689603806E0,4.668835998E-1
2.635205579E0,6.009629965E-1,-6.854808807E0,6.320885420E-1
2.637205579E0,7.326480746E-1,-7.199584484E0,7.518022656E-1
2.639205579E0,8.044763207E-1,-7.393520832E0,7.230709791E-1
2.641205579E0,8.619389534E-1,-7.494080067E0,7.613793612E-1
2.643205579E0,9.792584181E-1,-7.671256542E0,8.858816624E-1
2.645205579E0,1.051086664E0,-7.802941799E0,1.034326673E0
2.647205579E0,1.065452337E0,-7.865192890E0,1.130097747E0
2.649205579E0,1.022355318E0,-7.975329399E0,1.273754239E0
2.651205612E0,1.017566800E0,-8.083071709E0,1.462901950E0
2.653205612E0,1.019961119E0,-8.123774529E0,1.496421814E0
2.655205545E0,9.481328130E-1,-8.236305237E0,1.599375606E0
2.657205545E0,9.265843630E-1,-8.248276711E0,1.649655342E0
2.659205578E0,9.074301720E-1,-8.229122162E0,1.716695070E0
2.661205611E0,7.661679387E-1,-8.176448822E0,1.872322917E0
2.663205644E0,6.033572555E-1,-8.150111198E0,1.941756845E0
2.665205677E0,5.051919818E-1,-8.071100235E0,2.102173328E0
2.667205710E0,2.849186957E-1,-8.047157288E0,2.241041183E0
2.669205743E0,1.987248063E-1,-8.044763565E0,2.272166729E0
2.671205776E0,2.394274808E-2,-7.913078308E0,2.276955366E0
2.673205776E0,-1.364736706E-1,-7.776604652E0,2.382303476E0
2.675205742E0,-1.915419847E-1,-7.726325035E0,2.449343204E0
2.677205708E0,-2.992843390E-1,-7.644919395E0,2.545114040E0
2.679205674E0,-4.333637357E-1,-7.623371124E0,2.492439985E0
2.681205640E0,-4.501236677E-1,-7.597033978E0,2.463708878E0
2.683205606E0,-4.405465722E-1,-7.532388687E0,2.502017260E0
2.685205572E0,-4.405465722E-1,-7.489291668E0,2.533142805E0
2.687205538E0,-4.549122155E-1,-7.498868465E0,2.569056988E0
2.689205538E0,-4.884320498E-1,-7.553936958E0,2.576239586E0
2.691205538E0,-4.980091453E-1,-7.637736797E0,2.566662550E0
2.693205538E0,-5.099805593E-1,-7.723930359E0,2.581028223E0
2.695205538E0,-5.267404318E-1,-7.960963726E0,2.612153769E0
2.697205538E0,-5.889915824E-1,-8.200390816E0,2.796513081E0
2.699205538E0,-6.225114465E-1,-8.322499275E0,2.861158371E0
2.701205538E0,-7.110996246E-1,-8.564320564E0,2.868341208E0
2.703205538E0,-7.494080067E-1,-8.794171333E0,2.851581335E0
2.705205538E0,-7.398309112E-1,-8.904308319E0,2.865947008E0
2.707205571E0,-7.470137477E-1,-9.131764412E0,2.925803900E0
2.709205604E0,-7.398309112E-1,-9.234718323E0,2.959323645E0
2.711205637E0,-7.254652381E-1,-9.445414543E0,2.892283916E0
2.713205670E0,-7.374366522E-1,-9.598648071E0,2.873129845E0
2.715205703E0,-7.925049663E-1,-9.718361855E0,2.789330244E0
2.717205736E0,-8.595446348E-1,-9.756669998E0,2.753416061E0
2.719205736E0,-1.034326673E0,-9.766246796E0,2.662433624E0
2.721205736E0,-1.110943556E0,-9.785401344E0,2.592999697E0
2.723205702E0,-1.268965602E0,-9.859623909E0,2.363149166E0
2.725205668E0,-1.508393168E0,-9.964971542E0,2.212309837E0
2.727205634E0,-1.661626697E0,-9.976943016E0,2.147664547E0
2.729205600E0,-1.987248063E0,-9.988914490E0,2.008796453E0
2.731205566E0,-2.267378330E0,-1.003919411E1,1.862745762E0
2.733205532E0,-2.387091875E0,-1.007989693E1,1.747820616E0
2.735205532E0,-2.597788095E0,-1.014214802E1,1.620923996E0
2.737205532E0,-2.832427025E0,-1.010383987E1,1.529941559E0
2.739205532E0,-2.964112282E0,-1.008229160E1,1.486844659E0
2.741205532E0,-3.138894320E0,-1.009665680E1,1.374313712E0
2.743205532E0,-3.196356773E0,-1.016369629E1,1.192348838E0
2.745205532E0,-3.249030828E0,-1.016848469E1,1.161223292E0
2.747205532E0,-3.282550812E0,-1.025707340E1,1.106154919E0
2.749205532E0,-3.280156374E0,-1.034326744E1,1.168406129E0
2.751205532E0,-3.289733648E0,-1.033129597E1,1.197137356E0
2.753205532E0,-3.203539610E0,-1.015890789E1,1.391073704E0
2.755205532E0,-3.064671755E0,-9.890748978E0,1.642472506E0
2.757205532E0,-3.014391899E0,-9.756669998E0,1.798100352E0
2.759205532E0,-2.909043789E0,-9.586676598E0,2.114144564E0
2.761205532E0,-2.880312681E0,-9.500482559E0,2.272166729E0
2.763205532E0,-2.794118643E0,-9.184437752E0,2.695953369E0
2.765205532E0,-2.794118643E0,-8.806142807E0,3.143682718E0
2.767205498E0,-2.791724443E0,-8.612206459E0,3.380716085E0
2.769205498E0,-2.892283916E0,-8.324893951E0,3.735068798E0
2.771205498E0,-2.992843628E0,-8.116591454E0,4.082238674E0
2.773205498E0,-3.014391899E0,-8.013637543E0,4.297723293E0
2.775205498E0,-3.033546209E0,-7.697593689E0,4.855589390E0
2.777205498E0,-3.045517445E0,-7.585062504E0,4.970514297E0
2.779205498E0,-3.031152010E0,-7.422251701E0,5.087833881E0
2.781205498E0,-2.985660791E0,-7.046350956E0,5.353598595E0
2.783205531E0,-2.928198099E0,-6.854808807E0,5.695979595E0
2.785205531E0,-2.913832426E0,-6.775797844E0,5.870761871E0
2.787205531E0,-2.853975534E0,-6.622564316E0,6.165257454E0
2.789205531E0,-2.724684715E0,-6.577073097E0,6.301731110E0
2.791205531E0,-2.679193497E0,-6.548341751E0,6.335251331E0
2.793205531E0,-2.533142805E0,-6.452570438E0,6.464541912E0
2.795205531E0,-2.221887112E0,-6.361588001E0,6.608198643E0
2.797205531E0,-2.049499273E0,-6.342433929E0,6.670449734E0
2.799205531E0,-1.759791970E0,-6.332856655E0,6.742278099E0
2.801205531E0,-1.424593568E0,-6.385530949E0,6.766220570E0
2.803205564E0,-1.225868702E0,-6.536370277E0,6.900300026E0
2.805205564E0,-8.571503758E-1,-6.754249096E0,6.890722752E0
2.807205564E0,-7.158881426E-1,-6.842837334E0,6.854808807E0
2.809205564E0,-4.884320498E-1,-6.996070862E0,6.818894863E0
2.811205564E0,-2.657645047E-1,-7.201978683E0,6.775797844E0
2.813205564E0,-1.652049571E-1,-7.288172722E0,6.718335152E0
2.815205564E0,3.112557158E-2,-7.506051540E0,6.651295185E0
2.817205597E0,2.178790122E-1,-7.867587090E0,6.603409767E0
2.819205630E0,2.753416002E-1,-8.051946640E0,6.584255695E0
2.821205663E0,3.806896806E-1,-8.444606781E0,6.586649895E0
2.823205696E0,4.812492430E-1,-8.889942169E0,6.615381241E0
2.825205729E0,5.075862408E-1,-9.122186661E0,6.639324188E0
2.827205762E0,5.123748183E-1,-9.601041794E0,6.706363678E0
2.829205762E0,5.195576549E-1,-1.002243423E1,6.739883423E0
2.831205728E0,4.980091453E-1,-1.023073673E1,6.751854897E0
2.833205694E0,4.285751879E-1,-1.065452290E1,6.785374641E0
2.835205660E0,3.519583941E-1,-1.106154919E1,6.823683262E0
2.837205626E0,2.992843390E-1,-1.126027489E1,6.838048935E0
2.839205592E0,1.795706153E-1,-1.167927265E1,6.933819771E0
2.841205558E0,-3.591412306E-2,-1.207672215E1,7.034379482E0
2.843205524E0,-1.747820675E-1,-1.225868702E1,7.079870701E0
2.845205524E0,-4.237866402E-1,-1.256515408E1,7.154093266E0
2.847205524E0,-7.278595567E-1,-1.270641613E1,7.178035736E0
2.849205524E0,-8.739103079E-1,-1.294344997E1,7.211555958E0
2.851205524E0,-1.175588965E0,-1.312780857E1,7.235498428E0
2.853205524E0,-1.331216812E0,-1.321639729E1,7.247469902E0
2.855205524E0,-1.637683988E0,-1.334808159E1,7.264229774E0
2.857205524E0,-1.905842781E0,-1.343906403E1,7.292961121E0
2.859205524E0,-2.035133600E0,-1.345821857E1,7.304932594E0
2.861205524E0,-2.296109438E0,-1.344145870E1,7.343240738E0
2.863205524E0,-2.521171331E0,-1.335287094E1,7.374366283E0
2.865205557E0,-2.612153769E0,-1.327625370E1,7.371972084E0
2.867205590E0,-2.715107679E0,-1.309668350E1,7.331269264E0
2.869205623E0,-2.813272953E0,-1.286204433E1,7.233104229E0
2.871205656E0,-2.870735407E0,-1.273035908E1,7.190007210E0
2.873205689E0,-3.016786337E0,-1.246698856E1,7.130150318E0
2.875205722E0,-3.191568375E0,-1.214376163E1,7.034379482E0
2.877205722E0,-3.287339211E0,-1.198334503E1,6.988888264E0
2.879205688E0,-3.471698523E0,-1.165532970E1,6.869174480E0
2.881205654E0,-3.634509087E0,-1.132970810E1,6.691998005E0
2.883205620E0,-3.727885962E0,-1.116689777E1,6.593832970E0
2.885205586E0,-3.885908127E0,-1.085085297E1,6.368771076E0
2.887205552E0,-4.036747456E0,-1.055156898E1,6.112583637E0
2.889205518E0,-4.110970020E0,-1.039833546E1,6.014418125E0
2.891205518E0,-4.242654800E0,-1.004637718E1,5.815693378E0
2.893205518E0,-4.369551659E0,-9.869200706E0,5.640911579E0
2.895205518E0,-4.460534096E0,-9.320911407E0,5.485283375E0
2.897205518E0,-4.491659641E0,-9.112609863E0,5.413455486E0
2.899205518E0,-4.517996788E0,-8.904308319E0,5.344021320E0
2.901205518E0,-4.553910732E0,-8.485309601E0,5.255433083E0
2.903205518E0,-4.577853203E0,-8.085466385E0,5.176422119E0
2.905205518E0,-4.589824677E0,-7.872375488E0,5.138113976E0
2.907205518E0,-4.594613552E0,-7.427040577E0,5.080651283E0
2.909205518E0,-4.541939259E0,-7.031985283E0,4.929811954E0
2.911205518E0,-4.513207912E0,-6.826077461E0,4.812492371E0
2.913205518E0,-4.417437077E0,-6.452570438E0,4.513207912E0
2.915205518E0,-4.288146019E0,-6.081458092E0,4.271386147E0
2.917205518E0,-4.252232075E0,-5.930618763E0,4.185192585E0
2.919205518E0,-4.173221111E0,-5.681613922E0,3.991255999E0
2.921205518E0,-4.043930054E0,-5.439792156E0,3.847599506E0
2.923205484E0,-3.960130453E0,-5.312895775E0,3.770982742E0
2.925205484E0,-3.780560017E0,-5.083045483E0,3.466909885E0
2.927205484E0,-3.610566378E0,-4.925023079E0,2.966506481E0
2.929205484E0,-3.555498123E0,-4.867560863E0,2.686376333E0
2.931205484E0,-3.462121487E0,-4.786155224E0,2.118933201E0
2.933205484E0,-3.407052994E0,-4.786155224E0,1.546701550E0
2.935205484E0,-3.419024467E0,-4.822069645E0,1.271359921E0
2.937205484E0,-3.464515686E0,-4.946571827E0,7.278595567E-1
2.939205517E0,-3.569863796E0,-5.025582790E0,2.154847383E-1
2.941205517E0,-3.639297724E0,-5.229096413E0,-1.675992459E-2
2.943205517E0,-3.749434233E0,-5.449369431E0,-4.118152559E-1
2.945205517E0,-3.816473961E0,-5.583448887E0,-5.506832004E-1
2.947205517E0,-3.905062199E0,-5.873156071E0,-8.212362528E-1
2.949205517E0,-3.969707727E0,-6.167652130E0,-1.053480864E0
2.951205517E0,-3.945764780E0,-6.328068256E0,-1.118126392E0
2.953205517E0,-3.838022470E0,-6.605803967E0,-1.118126392E0
2.955205517E0,-3.541132450E0,-7.029590607E0,-1.043903828E0
2.957205517E0,-3.541132450E0,-7.029590607E0,-1.043903828E0
2.959205517E0,-3.225088120E0,-7.362394810E0,-7.374366522E-1
2.961205517E0,-2.798907280E0,-7.656890869E0,-3.782954216E-1
2.963205517E0,-2.581028223E0,-7.836461544E0,-2.035133541E-1
2.965205517E0,-2.099778891E0,-8.159688950E0,2.370332032E-1
2.967205517E0,-1.618529797E0,-8.470944405E0,7.422251701E-1
2.969205517E0,-1.381496549E0,-8.650514603E0,1.000806928E0
2.971205517E0,-1.031932473E0,-9.004867554E0,1.486844659E0
2.973205550E0,-8.068706393E-1,-9.397528648E0,2.030344963E0
2.975205583E0,-6.943396926E-1,-9.634561539E0,2.329629421E0
2.977205616E0,-3.711125851E-1,-1.013496494E1,2.935380936E0
2.979205649E0,3.830839694E-2,-1.060663700E1,3.340013266E0
2.981205682E0,2.681587934E-1,-1.082930470E1,3.483669758E0
2.983205715E0,7.278595567E-1,-1.132731438E1,3.675211906E0
2.985205715E0,1.233051538E0,-1.159786701E1,4.024775982E0
2.987205715E0,1.474873304E0,-1.215094471E1,4.261809349E0
2.989205681E0,1.913025618E0,-1.284288979E1,4.776578426E0
2.991205647E0,2.133298874E0,-1.319963741E1,4.977697372E0
2.993205613E0,2.513988495E0,-1.388439941E1,5.332049847E0
2.995205579E0,2.712713242E0,-1.475591564E1,5.590631485E0
2.997205545E0,2.748627424E0,-1.522279930E1,5.669642925E0
2.999205511E0,2.715107679E0,-1.603206444E1,5.660065651E0
3.001205511E0,2.638490915E0,-1.680302048E1,5.542746067E0
3.003205511E0,2.569056988E0,-1.720286369E1,5.399089813E0
3.005205511E0,2.391880512E0,-1.814381409E1,5.042342663E0
3.007205511E0,2.269772530E0,-1.928348923E1,4.570670605E0
3.009205511E0,2.231464148E0,-1.991797256E1,4.319271564E0
3.011205511E0,2.238646984E0,-2.142397118E1,3.775771379E0
3.013205511E0,2.241041183E0,-2.315982056E1,3.129317284E0
3.015205511E0,2.171607256E0,-2.501538277E1,2.494834423E0
3.017205511E0,2.188367128E0,-2.589647675E1,2.241041183E0
3.019205544E0,2.394274712E0,-2.722051048E1,1.936968327E0
3.021205577E0,2.561874151E0,-2.764429665E1,1.862745762E0
3.023205610E0,2.971295118E0,-2.802977562E1,1.805283189E0
3.025205643E0,3.414235830E0,-2.785020447E1,1.668809533E0
3.027205676E0,3.600989342E0,-2.757725716E1,1.558672905E0
3.029205709E0,3.931399345E0,-2.684700394E1,1.302485466E0
3.031205742E0,4.168432236E0,-2.641842842E1,1.007989645E0
3.033205742E0,4.194769382E0,-2.543198776E1,8.427847624E-1
3.035205708E0,4.039141655E0,-2.455807686E1,6.057515144E-1
3.037205674E0,3.873936653E0,-2.418935776E1,4.501236677E-1
3.039205640E0,3.615355015E0,-2.338967133E1,1.149251908E-1
3.041205606E0,3.864359617E0,-2.248463440E1,-3.878725171E-1
3.043205572E0,4.034353256E0,-2.208479118E1,-6.775797606E-1
3.045205538E0,3.672817469E0,-2.136650848E1,-6.799740195E-1
3.047205504E0,2.540325642E0,-2.091877937E1,-2.825244367E-1
3.049205504E0,1.982459545E0,-2.074878502E1,-2.106961906E-1
3.051205504E0,1.352765322E0,-2.026753616E1,-9.816526622E-2
3.053205504E0,8.571503758E-1,-1.969051552E1,-1.819648892E-1
3.055205504E0,5.626545548E-1,-1.940799141E1,-2.753416002E-1
3.057205504E0,2.394274808E-3,-1.885970306E1,-4.070267081E-1
3.059205504E0,-5.219519138E-1,-1.825634575E1,-6.105400920E-1
3.061205504E0,-8.882759809E-1,-1.796903229E1,-7.422251701E-1
3.063205504E0,-1.544307232E0,-1.745186996E1,-9.529213905E-1
3.065205504E0,-2.116539001E0,-1.696343613E1,-1.094183564E0
3.067205504E0,-2.358360767E0,-1.673598099E1,-1.070240855E0
3.069205504E0,-2.803695917E0,-1.619008636E1,-8.786988258E-1
3.071205504E0,-3.340013266E0,-1.563222027E1,-9.194015265E-1
3.073205504E0,-3.557892323E0,-1.534251308E1,-9.146129489E-1
3.075205504E0,-3.974496126E0,-1.435367775E1,-1.199531674E0
3.077205504E0,-4.127729893E0,-1.435367775E1,-1.434170604E0
3.079205470E0,-4.314483166E0,-1.368567467E1,-1.656838179E0
3.081205470E0,-4.709538460E0,-1.305358601E1,-2.178790092E0
3.083205470E0,-4.872349262E0,-1.271838760E1,-2.437371731E0
3.085205470E0,-5.257827282E0,-1.205996227E1,-3.000026226E0
3.087205470E0,-5.746259689E0,-1.142547894E1,-3.627326250E0
3.089205470E0,-5.930618763E0,-1.109746361E1,-3.912245035E0
3.091205470E0,-6.182017326E0,-1.044622135E1,-4.410254002E0
3.093205470E0,-6.440599442E0,-9.897932053E0,-4.817280769E0
3.095205503E0,-6.541158676E0,-9.636956215E0,-5.004034519E0
3.097205503E0,-6.730306625E0,-9.115004539E0,-5.332049847E0
3.099205503E0,-6.895511627E0,-8.631361008E0,-5.411061287E0
3.101205503E0,-6.964945316E0,-8.351230621E0,-5.439792156E0
3.103205503E0,-6.952973843E0,-7.661679268E0,-5.351204395E0
3.105205503E0,-6.804529190E0,-6.881145954E0,-4.948966026E0
3.107205503E0,-6.809317589E0,-6.526793003E0,-4.563488007E0
3.109205503E0,-7.058321953E0,-5.940196037E0,-3.608172178E0
3.111205503E0,-7.309720993E0,-5.521197796E0,-3.141288519E0
3.113205503E0,-7.419857502E0,-5.279376030E0,-2.873129845E0
3.115205503E0,-7.467742920E0,-4.685595989E0,-2.066259146E0
3.117205503E0,-7.496474266E0,-4.201952457E0,-1.259388566E0
3.119205503E0,-7.568302631E0,-4.067873001E0,-1.283331275E0
3.121205503E0,-7.829278469E0,-4.017592907E0,-1.680780888E0
3.123205503E0,-8.059128761E0,-4.072661400E0,-2.130904675E0
3.125205503E0,-8.140534401E0,-4.216318130E0,-2.387091875E0
3.127205503E0,-8.293767929E0,-4.271386147E0,-2.561874151E0
3.129205536E0,-8.320104599E0,-4.242654800E0,-2.458920240E0
3.131205569E0,-8.205180168E0,-4.158855438E0,-2.147664547E0
3.133205602E0,-7.932232380E0,-4.106181145E0,-1.886688590E0
3.135205635E0,-7.661679268E0,-4.087027073E0,-1.546701550E0
3.137205668E0,-7.532388687E0,-4.051113129E0,-1.312062621E0
3.139205701E0,-7.252258301E0,-3.948159218E0,-7.206767201E-1
3.141205701E0,-7.113390446E0,-3.900273561E0,-3.806896806E-1
3.143205701E0,-6.775797844E0,-3.790137053E0,3.639297783E-1
3.145205667E0,-6.294548512E0,-3.713520288E0,1.134886265E0
3.147205633E0,-6.035966873E0,-3.684788942E0,1.489238977E0
3.149205599E0,-5.446975231E0,-3.713520288E0,2.116539001E0
3.151205565E0,-4.781366825E0,-3.794925690E0,2.592999697E0
3.153205531E0,-4.427014351E0,-3.849993944E0,2.758204460E0
3.155205497E0,-3.718308687E0,-3.976890564E0,3.031152010E0
3.157205497E0,-3.014391899E0,-4.175615311E0,3.239453793E0
3.159205497E0,-2.655250788E0,-4.283357620E0,3.294522047E0
3.161205497E0,-1.934574008E0,-4.496448040E0,3.344801903E0
3.163205497E0,-1.240234375E0,-4.711932659E0,3.416630268E0
3.165205497E0,-9.074301720E-1,-4.783761024E0,3.440572977E0
3.167205497E0,-2.681587934E-1,-4.841223717E0,3.521978140E0
3.169205497E0,3.519583941E-1,-4.848406315E0,3.622537851E0
3.171205497E0,6.344828010E-1,-4.843617916E0,3.699154615E0
3.173205497E0,1.142069101E0,-4.776578426E0,3.861965179E0
3.175205530E0,1.367130876E0,-4.735875607E0,3.943370581E0
3.177205563E0,1.721483588E0,-4.618556023E0,4.091815472E0
3.179205596E0,1.999219418E0,-4.513207912E0,4.206740856E0
3.181205629E0,2.152452946E0,-4.443774223E0,4.230683804E0
3.183205662E0,2.446948767E0,-4.276175022E0,4.221106529E0
3.185205695E0,2.705530643E0,-4.108575344E0,4.189980984E0
3.187205728E0,2.815667152E0,-4.027170181E0,4.146883965E0
3.189205728E0,3.023969173E0,-3.890696526E0,4.065478802E0
3.191205694E0,3.138894320E0,-3.785348415E0,3.960130453E0
3.193205660E0,3.174808502E0,-3.739857197E0,3.905062199E0
3.195205626E0,3.356773376E0,-3.668029070E0,3.689577579E0
3.197205559E0,3.414235830E0,-3.658451796E0,3.648874760E0
3.199205525E0,3.471698523E0,-3.658451796E0,3.615355015E0
3.201205491E0,3.581835032E0,-3.660846233E0,3.555498123E0
3.203205457E0,3.644086361E0,-3.689577579E0,3.459727049E0
3.205205457E0,3.648874760E0,-3.735068798E0,3.416630268E0
3.207205457E0,3.641691923E0,-3.821262598E0,3.261002302E0
3.209205457E0,3.617749214E0,-3.933793545E0,3.110162973E0
3.211205457E0,3.581835032E0,-3.974496126E0,3.062277555E0
3.213205457E0,3.490852594E0,-4.031958580E0,2.956929445E0
3.215205457E0,3.411841631E0,-4.060689926E0,2.822849989E0
3.217205457E0,3.368744612E0,-4.122941017E0,2.739050388E0
3.219205457E0,3.323253393E0,-4.185192585E0,2.564268351E0
3.221205457E0,3.299310684E0,-4.211529255E0,2.504411459E0
3.223205457E0,3.270579338E0,-4.189980984E0,2.418217659E0
3.225205457E0,3.249030828E0,-4.134912491E0,2.367937803E0
3.227205457E0,3.232270956E0,-4.106181145E0,2.343995094E0
3.229205457E0,3.191568375E0,-4.036747456E0,2.305686712E0
3.231205457E0,3.162837029E0,-4.005621910E0,2.264983892E0
3.233205457E0,3.141288519E0,-3.976890564E0,2.241041183E0
3.235205423E0,3.062277555E0,-3.914639235E0,2.214704275E0
3.237205389E0,2.959323645E0,-3.873936653E0,2.207521439E0
3.239205389E0,2.892283916E0,-3.871542454E0,2.224281311E0
3.241205389E0,2.753416061E0,-3.859570980E0,2.269772530E0
3.243205389E0,2.600182533E0,-3.823656797E0,2.293715239E0
3.245205389E0,2.533142805E0,-3.811685562E0,2.312869549E0
3.247205389E0,2.387091875E0,-3.782954216E0,2.355966330E0
3.249205389E0,2.236252785E0,-3.773377180E0,2.420611858E0
3.251205422E0,2.150058746E0,-3.775771379E0,2.463708878E0
3.253205422E0,1.996825218E0,-3.790137053E0,2.571451187E0
3.255205422E0,1.855562925E0,-3.799714088E0,2.698347807E0
3.257205455E0,1.755003452E0,-3.835628271E0,2.774964571E0
3.259205455E0,1.513181686E0,-3.917033672E0,2.947352171E0
3.261205455E0,1.288119793E0,-3.960130453E0,3.129317284E0
3.263205455E0,1.175588965E0,-4.024775982E0,3.222693920E0
3.265205421E0,9.505270720E-1,-4.091815472E0,3.368744612E0
3.267205421E0,8.068706393E-1,-4.161249638E0,3.435784340E0
3.269205421E0,4.932205975E-1,-4.288146019E0,3.524372578E0
3.271205421E0,2.154847383E-1,-4.412648678E0,3.548315287E0
3.273205421E0,9.816526622E-2,-4.472505569E0,3.560286522E0
3.275205421E0,-1.508393139E-1,-4.606584549E0,3.589017868E0
3.277205421E0,-3.687183261E-1,-4.723904133E0,3.620143414E0
3.279205421E0,-4.740664065E-1,-4.776578426E0,3.624932051E0
3.281205421E0,-7.110996246E-1,-4.893897533E0,3.663240433E0
3.283205421E0,-9.481328130E-1,-4.994457245E0,3.651269197E0
3.285205454E0,-1.084606528E0,-5.037554264E0,3.651269197E0
3.287205487E0,-1.431776285E0,-5.126142502E0,3.610566378E0
3.289205520E0,-1.790917516E0,-5.226701736E0,3.538738251E0
3.291205553E0,-1.996825218E0,-5.288952827E0,3.510006905E0
3.293205586E0,-2.427794695E0,-5.382329941E0,3.395081758E0
3.295205619E0,-2.894678354E0,-5.490072250E0,3.282550812E0
3.297205652E0,-3.114951611E0,-5.552323341E0,3.234665155E0
3.299205652E0,-3.589017868E0,-5.698374271E0,3.136499882E0
3.301205618E0,-4.067873001E0,-5.870761871E0,3.031152010E0
3.303205584E0,-4.297723293E0,-5.971321583E0,2.964112282E0
3.305205550E0,-4.786155224E0,-6.196382999E0,2.858764172E0
3.307205516E0,-5.243461609E0,-6.308914185E0,2.772570133E0
3.309205482E0,-5.466129303E0,-6.550735950E0,2.741444588E0
3.311205515E0,-5.906675816E0,-6.854808807E0,2.676799297E0
3.313205515E0,-6.124555111E0,-7.017619610E0,2.650462151E0
3.315205515E0,-6.861991405E0,-7.515628815E0,2.705530643E0
3.317205581E0,-7.158881664E0,-7.673650742E0,2.782147408E0
3.319205581E0,-7.455771923E0,-7.834067345E0,2.885101080E0
3.321205581E0,-7.992089272E0,-8.154899597E0,3.134105682E0
3.323205581E0,-8.537983894E0,-8.506858826E0,3.332830429E0
3.325205614E0,-8.813325882E0,-8.703188896E0,3.433390141E0
3.327205614E0,-9.354432106E0,-9.160495758E0,3.617749214E0
3.329205614E0,-9.857229233E0,-9.660899162E0,3.756617069E0
3.331205647E0,-1.007271385E1,-9.929058075E0,3.816473961E0
3.333205680E0,-1.049410629E1,-1.053959751E1,3.945764780E0
3.335205713E0,-1.088676739E1,-1.117168617E1,4.022381783E0
3.337205746E0,-1.106873226E1,-1.149730778E1,4.087027073E0
3.339205779E0,-1.132013130E1,-1.216052151E1,4.245049000E0
3.341205812E0,-1.144702816E1,-1.276627350E1,4.400677204E0
3.343205845E0,-1.146139336E1,-1.307034588E1,4.489265442E0
3.345205845E0,-1.133449650E1,-1.362102985E1,4.616161823E0
3.347205811E0,-1.106633854E1,-1.406157589E1,4.781366825E0
3.349205777E0,-1.086521912E1,-1.424114609E1,4.857983589E0
3.351205743E0,-1.048213482E1,-1.463380718E1,5.104593754E0
3.353205709E0,-1.015411949E1,-1.483732128E1,5.344021320E0
3.355205675E0,-9.974549294E0,-1.522998238E1,5.446975231E0
3.357205641E0,-9.658504486E0,-1.556039238E1,5.571477413E0
3.359205607E0,-9.486116409E0,-1.570404816E1,5.588237286E0
3.361205607E0,-9.141341209E0,-1.588122463E1,5.566689014E0
3.363205607E0,-8.844450951E0,-1.597699547E1,5.451763630E0
3.365205607E0,-8.700794220E0,-1.599854469E1,5.367964268E0
3.367205607E0,-8.348835945E0,-1.595065880E1,5.205153465E0
3.369205607E0,-7.915472507E0,-1.572559738E1,5.205153465E0
3.371205540E0,-7.719141960E0,-1.558433437E1,5.241067410E0
3.373205540E0,-7.355212212E0,-1.526829052E1,5.332049847E0
3.375205540E0,-6.809317589E0,-1.466253853E1,5.525986195E0
3.377205473E0,-6.809317589E0,-1.466253853E1,5.525986195E0
3.379205473E0,-6.500456333E0,-1.421480942E1,5.798933506E0
3.381205473E0,-6.208354473E0,-1.377665710E1,6.177228928E0
3.383205473E0,-6.055120945E0,-1.357074928E1,6.387925148E0
3.385205473E0,-5.801327705E0,-1.319484806E1,6.768614769E0
3.387205473E0,-5.573871613E0,-1.284528446E1,7.115784645E0
3.389205473E0,-5.485283375E0,-1.268007946E1,7.266623974E0
3.391205439E0,-5.375146866E0,-1.235206413E1,7.537177086E0
3.393205405E0,-5.329655647E0,-1.203362560E1,7.776604652E0
3.395205405E0,-5.303318501E0,-1.186363125E1,7.869981289E0
3.397205405E0,-5.248250484E0,-1.153322220E1,8.013637543E0
3.399205405E0,-5.166844845E0,-1.136322784E1,8.130957603E0
3.401205405E0,-5.102199554E0,-1.102324104E1,8.174054146E0
3.403205405E0,-4.958543301E0,-1.068085957E1,8.219545364E0
3.405205405E0,-4.884320736E0,-1.051086617E1,8.207573891E0
3.407205438E0,-4.704750061E0,-1.022115898E1,8.121379852E0
3.409205438E0,-4.508419514E0,-9.929058075E0,7.922655106E0
3.411205438E0,-4.403071404E0,-9.804554939E0,7.790970325E0
3.413205438E0,-4.233078003E0,-9.596253395E0,7.439012051E0
3.415205438E0,-4.122941017E0,-9.438231468E0,7.055927753E0
3.417205438E0,-4.058295727E0,-9.375980377E0,6.864386082E0
3.419205438E0,-3.912245035E0,-9.296969414E0,6.495667458E0
3.421205438E0,-3.799714088E0,-9.280209541E0,6.019207001E0
3.423205438E0,-3.770982742E0,-9.318517685E0,5.669642925E0
3.425205438E0,-3.814079762E0,-9.543579102E0,4.728692532E0
3.427205438E0,-3.881119490E0,-9.890748978E0,3.505218267E0
3.429205438E0,-3.885908127E0,-1.010383987E1,2.837215662E0
3.431493536E0,-3.893090725E0,-1.060663700E1,1.470084786E0
3.433493536E0,-3.878725290E0,-1.125548553E1,2.466102988E-1
3.435493536E0,-3.869148016E0,-1.206475067E1,-6.703969240E-1
3.437493536E0,-3.852388144E0,-1.251247978E1,-9.672870040E-1
3.439493536E0,-3.838022470E0,-1.350370979E1,-1.209108829E0
3.441493569E0,-3.854782343E0,-1.401608467E1,-1.175588965E0
3.443493602E0,-3.924216509E0,-1.503365135E1,-8.930644989E-1
3.445493635E0,-4.034353256E0,-1.551968956E1,-4.980091453E-1
3.447493668E0,-4.098998547E0,-1.637444496E1,-3.088614643E-1
3.449493701E0,-4.237866402E0,-1.697301483E1,-7.182824425E-3
3.451493734E0,-4.309694767E0,-1.721004677E1,1.053480953E-1
3.453493767E0,-4.489265442E0,-1.755721664E1,3.136500120E-1
3.455493767E0,-4.575459003E0,-1.778946114E1,4.788549542E-1
3.457493733E0,-4.556304932E0,-1.786607933E1,5.219519138E-1
3.459493699E0,-4.391099930E0,-1.792114639E1,5.004034638E-1
3.461493665E0,-4.079844475E0,-1.789480972E1,3.711125851E-1
3.463493631E0,-3.876330853E0,-1.787326050E1,2.394274771E-1
3.465493597E0,-3.385504484E0,-1.785410690E1,-4.549122229E-2
3.467493563E0,-2.808484316E0,-1.783016396E1,-2.753416002E-1
3.469493563E0,-2.530748367E0,-1.783255959E1,-3.543526828E-1
3.471493563E0,-1.994430900E0,-1.792593575E1,-4.549122155E-1
3.473493563E0,-1.537124395E0,-1.813423729E1,-3.782954216E-1
3.475493563E0,-1.309668303E0,-1.830901909E1,-7.182824612E-2
3.477493563E0,-1.235445857E0,-1.831620216E1,1.436564922E-1
3.479493563E0,-1.012778282E0,-1.812466049E1,5.842030644E-1
3.481493563E0,-8.810931444E-1,-1.795945549E1,7.541965842E-1
3.483493563E0,-5.698373914E-1,-1.741356087E1,1.003201127E0
3.485493563E0,-1.963305324E-1,-1.660668945E1,9.936240315E-1
3.487493563E0,-3.351984918E-2,-1.622839546E1,8.475732803E-1
3.489493596E0,2.897072434E-1,-1.540476418E1,4.597007632E-1
3.491493629E0,7.589851022E-1,-1.491393757E1,3.591412306E-2
3.493493662E0,1.075029373E0,-1.366891479E1,-9.816526622E-2
3.495493695E0,2.197944164E0,-1.131534290E1,-2.633702159E-1
3.497493728E0,2.197944164E0,-1.131534290E1,-2.633702159E-1
3.499493761E0,2.877918243E0,-9.943423271E0,-1.197137386E-1
3.501493761E0,3.493247032E0,-8.933039665E0,1.197137386E-1
3.503493727E0,3.773377180E0,-8.504464149E0,3.112557232E-1
3.505493693E0,4.259414673E0,-7.776604652E0,8.092648983E-1
3.507493659E0,4.601796150E0,-7.328875065E0,1.175588965E0
3.509493625E0,4.719115734E0,-7.221132755E0,1.273754239E0
3.511493591E0,4.805309772E0,-7.115784645E0,1.297696948E0
3.513493557E0,4.764606953E0,-7.106207848E0,1.084606528E0
3.515493523E0,4.769395351E0,-7.120573044E0,8.547561169E-1
3.517493523E0,4.879531860E0,-7.180429935E0,3.926610649E-1
3.519493523E0,4.960937500E0,-7.345634937E0,-4.070267081E-2
3.521493523E0,4.965725899E0,-7.455771923E0,-2.681587934E-1
3.523493523E0,4.939388752E0,-7.673650742E0,-6.440598965E-1
3.525493523E0,4.831646442E0,-8.016032219E0,-8.715160489E-1
3.527493523E0,4.762212753E0,-8.166871071E0,-8.954587579E-1
3.529493523E0,4.673624516E0,-8.425453186E0,-8.595446348E-1
3.531493523E0,4.549122334E0,-8.669669151E0,-7.446194887E-1
3.533493523E0,4.501236439E0,-8.794171333E0,-6.680026650E-1
3.535493523E0,4.393494129E0,-9.002472878E0,-5.674431324E-1
3.537493523E0,4.127729893E0,-9.129369736E0,-8.523618579E-1
3.539493523E0,3.933793545E0,-9.522030830E0,-9.505270720E-1
3.541493523E0,3.610566378E0,-9.873989105E0,-9.313728809E-1
3.543493523E0,3.483669758E0,-9.991309166E0,-8.475732803E-1
3.545493523E0,3.208328247E0,-1.021637058E1,-6.775797606E-1
3.547493523E0,2.796513081E0,-1.042227840E1,-5.027977228E-1
3.549493489E0,2.597788095E0,-1.049889469E1,-4.046324492E-1
3.551493489E0,2.260195494E0,-1.064973450E1,-1.436564922E-1
3.553493489E0,2.121327400E0,-1.074550533E1,2.011190802E-1
3.555493489E0,2.116539001E0,-1.082212257E1,5.243461728E-1
3.557493489E0,2.126116037E0,-1.085085297E1,6.847625971E-1
3.559493489E0,2.197944164E0,-1.090831566E1,1.000806928E0
3.561493489E0,2.229069948E0,-1.095380688E1,1.139674783E0
3.563493522E0,2.327235222E0,-1.107831001E1,1.453324795E0
3.565493555E0,2.408640385E0,-1.118844604E1,1.893871427E0
3.567493555E0,2.401457548E0,-1.123393726E1,2.102173328E0
3.569493555E0,2.296109438E0,-1.136322784E1,2.478074312E0
3.571493555E0,2.248224020E0,-1.145660496E1,2.830032825E0
3.573493555E0,2.207521439E0,-1.149970150E1,3.038334846E0
3.575493555E0,2.078230619E0,-1.158110714E1,3.407052994E0
3.577493555E0,1.886688590E0,-1.169124413E1,3.675211906E0
3.579493555E0,1.776551962E0,-1.176067829E1,3.761405706E0
3.581493555E0,1.517970204E0,-1.186842060E1,3.830839634E0
3.583493555E0,1.273754239E0,-1.190672874E1,3.950553417E0
3.585493555E0,1.206714511E0,-1.195461369E1,4.022381783E0
3.587493555E0,1.094183564E0,-1.194982529E1,4.087027073E0
3.589493555E0,9.840469360E-1,-1.194743156E1,4.027170181E0
3.591493555E0,4.429408312E-1,-1.207911682E1,3.720703125E0
3.593493555E0,-4.908263385E-1,-1.228741837E1,3.263396502E0
3.595493555E0,-8.236305118E-1,-1.222756100E1,3.371139050E0
3.597493588E0,-8.475732803E-1,-1.166490650E1,3.794925690E0
3.599493621E0,-6.871568561E-1,-1.133928585E1,3.826051235E0
3.601493654E0,-4.620950520E-1,-1.126745701E1,3.718308687E0
3.603493687E0,-1.939362586E-1,-1.118844604E1,3.476486921E0
3.605493720E0,-2.633702159E-1,-1.114534950E1,3.052700281E0
3.607493753E0,-4.046324492E-1,-1.110943508E1,2.767781734E0
3.609493786E0,-7.805336118E-1,-1.107591534E1,2.118933201E0
3.611493786E0,-1.180377483E0,-1.103281784E1,1.599375606E0
3.613493752E0,-1.381496549E0,-1.097296143E1,1.422199249E0
3.615493718E0,-2.037527800E0,-1.081493950E1,1.046298146E0
3.617493684E0,-2.233858347E0,-1.073832226E1,9.313728809E-1
3.619493650E0,-2.403851986E0,-1.063776302E1,8.284190893E-1
3.621493616E0,-2.731867552E0,-1.044143200E1,7.087053657E-1
3.623493582E0,-2.990449190E0,-1.021637058E1,5.937801600E-1
3.625493548E0,-3.105374336E0,-1.008947372E1,5.219519138E-1
3.627493548E0,-3.184385538E0,-9.804554939E0,4.477293789E-1
3.629493548E0,-3.162837029E0,-9.651321411E0,4.237866402E-1
3.631493548E0,-3.136499882E0,-9.344854355E0,4.094209969E-1
3.633493548E0,-3.081431627E0,-9.069513321E0,4.668835998E-1
3.635493548E0,-3.035940409E0,-8.952193260E0,5.123748183E-1
3.637493548E0,-2.925803900E0,-8.686429024E0,7.541965842E-1
3.639493548E0,-2.782147408E0,-8.475732803E0,9.337671995E-1
3.641493548E0,-2.727078915E0,-8.387145042E0,1.019961119E0
3.643493548E0,-2.569056988E0,-8.162082672E0,1.201925993E0
3.645493581E0,-2.411034822E0,-7.807730198E0,1.379102230E0
3.647493614E0,-2.341600657E0,-7.642525196E0,1.470084786E0
3.649493647E0,-2.209915638E0,-7.336058140E0,1.733454943E0
3.651493680E0,-2.011190891E0,-6.948185444E0,1.994430900E0
3.653493746E0,-1.884294271E0,-6.759037971E0,2.094990492E0
3.655493779E0,-1.654443860E0,-6.428627968E0,2.250618219E0
3.657493779E0,-1.474873304E0,-6.179623127E0,2.353572130E0
3.659493745E0,-1.347976685E0,-6.059909344E0,2.432583094E0
3.661493711E0,-1.003201127E0,-5.767807961E0,2.660039425E0
3.663493677E0,-6.153286099E-1,-5.578660488E0,2.856369734E0
3.665493643E0,-4.573064744E-1,-5.478100777E0,2.870735407E0
3.667493609E0,-2.705530524E-1,-5.255433083E0,2.842004299E0
3.669493575E0,-1.532335877E-1,-5.130930901E0,2.813272953E0
3.671493541E0,-3.519583941E-1,-5.071074009E0,2.533142805E0
3.673493541E0,-4.381522834E-1,-4.946571827E0,2.877918243E0
3.675493541E0,1.675992459E-2,-4.810098171E0,3.390293121E0
3.677493541E0,3.184385598E-1,-4.757423878E0,3.529160976E0
3.679493541E0,1.034326673E0,-4.654470444E0,3.577046633E0
3.681493541E0,1.362342358E0,-4.625739098E0,3.502824068E0
3.683493541E0,2.001613855E0,-4.563488007E0,3.244242430E0
3.685493541E0,2.521171331E0,-4.501236439E0,2.983266354E0
3.687493541E0,2.703136206E0,-4.479688168E0,2.887495518E0
3.689493541E0,2.932986736E0,-4.448562622E0,2.707924843E0
3.691493541E0,3.093403101E0,-4.424619675E0,2.391880512E0
3.693493541E0,3.160442829E0,-4.474899769E0,2.209915638E0
3.695493541E0,3.086220264E0,-4.632921696E0,2.025556564E0
3.697493541E0,2.717501879E0,-4.822069645E0,1.970488191E0
3.699493541E0,2.504411459E0,-4.908263206E0,2.020767927E0
3.701493541E0,2.080624819E0,-5.047131062E0,2.226675510E0
3.703493541E0,1.675992370E0,-5.135719299E0,2.411034822E0
3.705493507E0,1.520364523E0,-5.142902374E0,2.509200096E0
3.707493507E0,1.276148438E0,-5.197970390E0,2.760598898E0
3.709493507E0,1.130097747E0,-5.195576191E0,2.978477955E0
3.711493507E0,1.082212210E0,-5.178816319E0,3.079037428E0
3.713493473E0,1.063058019E0,-5.171633720E0,3.203539610E0
3.715493473E0,1.000806928E0,-5.221913338E0,3.277762175E0
3.717493473E0,9.409499764E-1,-5.300924301E0,3.287339211E0
3.719493506E0,8.164477348E-1,-5.470917702E0,3.272973776E0
3.721493539E0,7.302538157E-1,-5.547534943E0,3.268185139E0
3.723493539E0,7.110996246E-1,-5.700768471E0,3.275367975E0
3.725493539E0,6.536370516E-1,-5.911464691E0,3.304099321E0
3.727493539E0,6.320885420E-1,-6.023995399E0,3.332830429E0
3.729493539E0,5.482889414E-1,-6.198777676E0,3.354378939E0
3.731493539E0,3.902668059E-1,-6.409473896E0,3.337619066E0
3.733493539E0,3.112557232E-1,-6.507638931E0,3.351984739E0
3.735493539E0,7.661679387E-2,-6.749460697E0,3.445361376E0
3.737493539E0,-2.633702382E-2,-6.835654736E0,3.466909885E0
3.739493539E0,-1.245022863E-1,-6.929031372E0,3.507612705E0
3.741493539E0,-2.561874092E-1,-7.053533554E0,3.754222870E0
3.743493539E0,-4.716721475E-1,-7.233104229E0,3.996044636E0
3.745493539E0,-5.842030644E-1,-7.338452339E0,4.082238674E0
3.747493539E0,-8.020820618E-1,-7.496474266E0,4.213923454E0
3.749493539E0,-1.240234375E0,-7.597033978E0,4.139701366E0
3.751493539E0,-1.503604531E0,-7.647313595E0,3.988861799E0
3.753493572E0,-1.829225898E0,-7.805335999E0,3.802108288E0
3.755493605E0,-2.224281311E0,-8.008849144E0,3.768588543E0
3.757493638E0,-2.468497276E0,-8.121379852E0,3.696760416E0
3.759493671E0,-2.877918243E0,-8.284191132E0,3.536343813E0
3.761493704E0,-3.189173937E0,-8.353624344E0,3.380716085E0
3.763493737E0,-3.335224867E0,-8.375173569E0,3.325647593E0
3.765493770E0,-3.598595142E0,-8.437424660E0,3.203539610E0
3.767493770E0,-3.864359617E0,-8.487704277E0,3.062277555E0
3.769493736E0,-3.988861799E0,-8.619389534E0,2.992843628E0
3.771493702E0,-4.230683804E0,-8.739103317E0,2.853975534E0
3.773493668E0,-4.338426113E0,-8.782199860E0,2.767781734E0
3.775493634E0,-4.506025314E0,-8.851634026E0,2.669616461E0
3.777493600E0,-4.656864643E0,-8.947404861E0,2.554691315E0
3.779493566E0,-4.707144260E0,-8.992896080E0,2.494834423E0
3.781493532E0,-4.757423878E0,-9.043175697E0,2.425400496E0
3.783493532E0,-4.740664005E0,-9.131764412E0,2.324840784E0
3.785493532E0,-4.743058205E0,-9.179649353E0,2.274561167E0
3.787493532E0,-4.759818554E0,-9.280209541E0,2.078230619E0
3.789493532E0,-4.704750061E0,-9.337671280E0,1.996825218E0
3.791493532E0,-4.664047241E0,-9.320911407E0,1.999219418E0
3.793493532E0,-4.666441441E0,-9.373585701E0,1.958516836E0
3.795493532E0,-4.606584549E0,-9.423865318E0,1.826831698E0
3.797493532E0,-4.606584549E0,-9.450202942E0,1.826831698E0
3.799493532E0,-4.577853203E0,-9.514847755E0,1.692752242E0
3.801493565E0,-4.563488007E0,-9.531607628E0,1.647261024E0
3.803493598E0,-4.544333458E0,-9.574705124E0,1.647261024E0
3.805493631E0,-4.529967785E0,-9.725543976E0,1.666415215E0
3.807493664E0,-4.472505569E0,-9.941028595E0,1.659232497E0
3.809493697E0,-4.391099930E0,-9.993702888E0,1.637683988E0
3.811493730E0,-4.199557781E0,-1.013735962E1,1.565855742E0
3.813493730E0,-4.053507328E0,-1.019003391E1,1.419804931E0
3.815493730E0,-4.003227711E0,-1.026186180E1,1.369525194E0
3.817493696E0,-3.883513689E0,-1.033368969E1,1.283331275E0
3.819493662E0,-3.785348415E0,-1.036721039E1,1.206714511E0
3.821493628E0,-3.466909885E0,-1.044382668E1,1.055875182E0
3.823493594E0,-3.193962574E0,-1.051086617E1,9.720755816E-1
3.825493560E0,-3.055094719E0,-1.057790565E1,9.122186899E-1
3.827493526E0,-2.786935806E0,-1.062818623E1,7.541965842E-1
3.829493526E0,-2.600182533E0,-1.059466648E1,6.584255695E-1
3.831493526E0,-2.535537004E0,-1.059706020E1,6.320885420E-1
3.833493526E0,-2.365543604E0,-1.056354046E1,5.315290093E-1
3.835493526E0,-2.226675510E0,-1.060424328E1,5.051919818E-1
3.837493526E0,-2.195549965E0,-1.064255142E1,5.195576549E-1
3.839493526E0,-2.114144564E0,-1.069761944E1,5.746259689E-1
3.841493526E0,-2.106961727E0,-1.071916866E1,5.985686779E-1
3.843493526E0,-2.094990492E0,-1.072156239E1,5.794144869E-1
3.845493526E0,-2.008796453E0,-1.072874546E1,6.129343510E-1
3.847493526E0,-1.881899953E0,-1.073592854E1,6.823683381E-1
3.849493526E0,-1.817254543E0,-1.069522572E1,7.134938836E-1
3.851493526E0,-1.745426297E0,-1.051565456E1,7.182824612E-1
3.853493526E0,-1.759791970E0,-1.029538155E1,8.188419938E-1
3.855493526E0,-1.525153041E0,-1.017566776E1,1.142069101E0
3.857493526E0,-1.352765322E0,-1.017327404E1,1.264177084E0
3.859493526E0,-9.217957854E-1,-1.016848469E1,1.582615614E0
3.861493492E0,-7.015225291E-1,-1.020200539E1,1.798100352E0
3.863493492E0,-4.261809289E-1,-1.031453609E1,2.176395893E0
3.865493492E0,-3.974496126E-1,-1.031453609E1,2.370332003E0
3.867493492E0,-4.932205975E-1,-1.014933109E1,2.806090117E0
3.869493492E0,-5.842030644E-1,-9.941028595E0,3.234665155E0
3.871493492E0,-6.057515144E-1,-9.857229233E0,3.421418667E0
3.873493492E0,-6.967339516E-1,-9.658504486E0,3.792531252E0
3.875493492E0,-8.403904438E-1,-9.364008904E0,4.221106529E0
3.877493525E0,-9.050358534E-1,-9.182044029E0,4.410254002E0
3.879493525E0,-1.075029373E0,-8.679245949E0,4.788549423E0
3.881493525E0,-1.228263021E0,-8.126168251E0,5.157268047E0
3.883493525E0,-1.292908430E0,-7.869981289E0,5.370358467E0
3.885493525E0,-1.376708031E0,-7.376760483E0,5.736682415E0
3.887493525E0,-1.379102230E0,-6.852414608E0,6.100612164E0
3.889493525E0,-1.374313712E0,-6.581861496E0,6.272999763E0
3.891493525E0,-1.326428294E0,-6.076669693E0,6.574678421E0
3.893493525E0,-1.292908430E0,-5.631334305E0,6.885934353E0
3.895493525E0,-1.367130876E0,-5.425426483E0,6.988888264E0
3.897493525E0,-1.400650740E0,-5.073468208E0,7.094236374E0
3.899493525E0,-1.266571403E0,-4.865166187E0,7.144515991E0
3.901493525E0,-1.127703428E0,-4.805309772E0,7.144515991E0
3.903493525E0,-8.427847624E-1,-4.685595989E0,7.173247337E0
3.905493525E0,-6.512427330E-1,-4.647287369E0,7.271412373E0
3.907493525E0,-5.506832004E-1,-4.623344421E0,7.264229774E0
3.909493558E0,-3.304099143E-1,-4.632921696E0,7.144515991E0
3.911493624E0,-2.154847383E-1,-4.671230316E0,7.075081825E0
3.913493657E0,-4.549122229E-2,-4.778972626E0,6.924242973E0
3.915493690E0,1.221080124E-1,-5.135719299E0,6.641718388E0
3.917493723E0,1.221080124E-1,-5.135719299E0,6.641718388E0
3.919493756E0,2.681587934E-1,-5.389512539E0,6.421444893E0
3.921493789E0,5.075862408E-1,-5.705556870E0,6.215537548E0
3.923493789E0,6.296942830E-1,-5.887521744E0,6.150891781E0
3.925493755E0,7.925049663E-1,-6.296942711E0,6.052726746E0
3.927493721E0,9.194015265E-1,-6.732700825E0,6.002447128E0
3.929493687E0,9.553156495E-1,-6.948185444E0,5.988081455E0
3.931493653E0,9.720755816E-1,-7.369577885E0,5.956955910E0
3.933493619E0,8.715160489E-1,-7.826884270E0,5.921041489E0
3.935493585E0,7.829278708E-1,-8.059128761E0,5.928224564E0
3.937493551E0,5.602602959E-1,-8.518829346E0,5.971321583E0
3.939493551E0,2.729473412E-1,-8.964164734E0,6.028783798E0
3.941493551E0,1.173194647E-1,-9.186832428E0,6.045543671E0
3.943493551E0,-1.891477108E-1,-9.617801666E0,6.112583637E0
3.945493551E0,-4.501236677E-1,-9.986519814E0,6.146103382E0
3.947493551E0,-5.554717779E-1,-1.016609097E1,6.177228928E0
3.949493551E0,-7.302538157E-1,-1.048692322E1,6.244268894E0
3.951493551E0,-9.768640995E-1,-1.082212257E1,6.320885658E0
3.953493551E0,-1.096577883E0,-1.098732662E1,6.340039730E0
3.955493551E0,-1.374313712E0,-1.128182316E1,6.438204765E0
3.957493584E0,-1.484450340E0,-1.143505669E1,6.478907585E0
3.959493617E0,-1.707117915E0,-1.173194695E1,6.577073097E0
3.961493650E0,-1.841197371E0,-1.197855663E1,6.663266659E0
3.963493683E0,-1.915419817E0,-1.207193375E1,6.711152077E0
3.965493716E0,-2.030344963E0,-1.221319580E1,6.790163517E0
3.967493749E0,-2.121327400E0,-1.231136131E1,6.826077461E0
3.969493749E0,-2.164424419E0,-1.234009266E1,6.826077461E0
3.971493715E0,-2.260195494E0,-1.236164093E1,6.809317589E0
3.973493681E0,-2.420611858E0,-1.236882401E1,6.809317589E0
3.975493647E0,-2.614548206E0,-1.238318920E1,6.744672298E0
3.977493613E0,-2.722290516E0,-1.238318920E1,6.677632332E0
3.979493579E0,-3.002420664E0,-1.235445786E1,6.519610405E0
3.981493545E0,-3.179596901E0,-1.234248638E1,6.402290821E0
3.983493511E0,-3.543526649E0,-1.229460144E1,6.155680656E0
3.985493511E0,-3.940976381E0,-1.221319580E1,5.875550270E0
3.987493511E0,-4.110970020E0,-1.216530991E1,5.739076614E0
3.989493511E0,-4.448562622E0,-1.210066509E1,5.437397957E0
3.991493511E0,-4.711932659E0,-1.203123093E1,5.130930901E0
3.993493511E0,-4.819674969E0,-1.198573971E1,4.989668846E0
3.995493511E0,-4.987274647E0,-1.186602592E1,4.750241280E0
3.997493511E0,-5.102199554E0,-1.174631214E1,4.527573586E0
3.999493511E0,-5.142902374E0,-1.168645573E1,4.441379547E0
4.001493511E0,-5.154873848E0,-1.156195259E1,4.312088966E0
4.003493511E0,-5.130930901E0,-1.149970150E1,4.285751820E0
4.005493511E0,-5.123748302E0,-1.132731438E1,4.249837875E0
4.007493511E0,-5.099805355E0,-1.109985828E1,4.237866402E0
4.009493511E0,-5.063891411E0,-1.096338463E1,4.271386147E0
4.011493511E0,-4.987274647E0,-1.069522572E1,4.273780346E0
4.013493511E0,-4.936994553E0,-1.044382668E1,4.300117493E0
4.015493511E0,-4.953754425E0,-1.017566776E1,4.290540695E0
4.017493477E0,-4.958543301E0,-1.003680038E1,4.266597748E0
4.019493477E0,-4.977697372E0,-9.823709488E0,4.178009510E0
4.021493477E0,-4.987274647E0,-9.727938652E0,4.122941017E0
4.023493477E0,-5.001639843E0,-9.562733650E0,3.955342054E0
4.025493477E0,-4.994457245E0,-9.399923325E0,3.727885962E0
4.027493477E0,-4.992063046E0,-9.299363136E0,3.574652195E0
4.029493477E0,-4.963331699E0,-9.076695442E0,3.268185139E0
4.031493477E0,-4.913052082E0,-8.925856590E0,3.081431627E0
4.033493510E0,-4.862771988E0,-8.856422424E0,3.059883118E0
4.035493510E0,-4.525179386E0,-8.657697678E0,3.124528646E0
4.037493510E0,-4.400677204E0,-8.576292038E0,3.134105682E0
4.039493543E0,-4.288146019E0,-8.509252548E0,3.124528646E0
4.041493543E0,-4.043930054E0,-8.351230621E0,2.959323645E0
4.043493543E0,-3.735068798E0,-8.221940041E0,2.640885115E0
4.045493543E0,-3.560286522E0,-8.142929077E0,2.439765930E0
4.047493543E0,-3.210722446E0,-8.008849144E0,1.965699673E0
4.049493543E0,-3.050306082E0,-7.987300873E0,1.728666425E0
4.051493543E0,-2.748627424E0,-8.032792091E0,1.247417212E0
4.053493543E0,-2.458920240E0,-8.049551964E0,8.571503758E-1
4.055493543E0,-2.360754967E0,-8.095043182E0,7.063110471E-1
4.057493543E0,-2.279349566E0,-8.238699913E0,5.075862408E-1
4.059493543E0,-2.202732801E0,-8.329682350E0,4.429408312E-1
4.061493543E0,-2.138087511E0,-8.356019020E0,4.166038036E-1
4.063493543E0,-1.960911036E0,-8.432636261E0,4.213923812E-1
4.065493543E0,-1.711906433E0,-8.578686714E0,4.166038036E-1
4.067493576E0,-1.570644259E0,-8.648120880E0,4.381522834E-1
4.069493609E0,-1.249811411E0,-8.763046265E0,5.937801600E-1
4.071493642E0,-9.361614585E-1,-8.909096718E0,8.547561169E-1
4.073493675E0,-7.972934842E-1,-9.031204224E0,1.007989645E0
4.075493708E0,-4.668835998E-1,-9.270631790E0,1.328822494E0
4.077493741E0,-1.005595401E-1,-9.454991341E0,1.592192769E0
4.079493741E0,5.506832153E-2,-9.543579102E0,1.719089270E0
4.081493707E0,3.543526828E-1,-9.838075638E0,2.085413456E0
4.083493673E0,8.068706393E-1,-1.013017654E1,2.442160368E0
4.085493639E0,1.010383964E0,-1.024510193E1,2.569056988E0
4.087493605E0,1.398256540E0,-1.050847244E1,2.856369734E0
4.089493571E0,1.764580488E0,-1.081254482E1,3.335224867E0
4.091493537E0,1.929785490E0,-1.097296143E1,3.574652195E0
4.093493503E0,2.250618219E0,-1.133928585E1,3.653663397E0
4.095493503E0,2.566662550E0,-1.180856323E1,3.648874760E0
4.097493503E0,2.700742006E0,-1.202404785E1,3.711125851E0
4.099493469E0,2.980872154E0,-1.245022869E1,3.900273561E0
4.101493469E0,3.122134447E0,-1.269444466E1,3.972101927E0
4.103493469E0,3.237059593E0,-1.331216812E1,3.962524891E0
4.105493469E0,3.239453793E0,-1.399214172E1,3.751828671E0
4.107493469E0,3.196356773E0,-1.432015800E1,3.648874760E0
4.109493469E0,3.107768774E0,-1.489478397E1,3.426207304E0
4.111493469E0,3.112557173E0,-1.532814693E1,3.167625666E0
4.113493502E0,3.119740009E0,-1.550053501E1,3.040729046E0
4.115493535E0,3.261002302E0,-1.581418514E1,2.743839025E0
4.117493568E0,3.565075159E0,-1.628825188E1,2.379909277E0
4.119493601E0,3.806896925E0,-1.657556534E1,2.236252785E0
4.121493634E0,4.369551659E0,-1.735849190E1,2.061470509E0
4.123493667E0,4.711932659E0,-1.835451126E1,1.901054144E0
4.125493700E0,4.750241280E0,-1.886688614E1,1.831620216E0
4.127493700E0,4.896292210E0,-1.981262398E1,1.766974807E0
4.129493666E0,5.310501575E0,-2.067695808E1,1.788523316E0
4.131493632E0,5.530774593E0,-2.103130913E1,1.817254543E0
4.133493598E0,6.059909344E0,-2.150058746E1,1.699935079E0
4.135493564E0,6.804529190E0,-2.168255234E1,1.307274103E0
4.137493530E0,7.132544518E0,-2.170170593E1,1.235445857E0
4.139493496E0,7.110996246E0,-2.163706207E1,1.218685865E0
4.141493496E0,6.601015568E0,-2.156044388E1,1.182771802E0
4.143493496E0,6.244268894E0,-2.127313232E1,1.039115310E0
4.145493496E0,5.451763630E0,-2.097624207E1,9.601042271E-1
4.147493496E0,5.126142502E0,-2.080864143E1,9.385557175E-1
4.149493496E0,4.611373425E0,-2.041358757E1,6.847625971E-1
4.151493496E0,4.170826912E0,-2.001134872E1,4.549122155E-1
4.153493496E0,3.929004908E0,-1.984614372E1,2.825244367E-1
4.155493496E0,3.205934048E0,-1.929785538E1,-2.657645047E-1
4.157493496E0,2.865947008E0,-1.911110115E1,-5.075862408E-1
4.159493496E0,2.504411459E0,-1.892674255E1,-7.853221297E-1
4.161493496E0,1.877111435E0,-1.852689934E1,-1.041509509E0
4.163493496E0,1.448536277E0,-1.808874702E1,-1.103760719E0
4.165493496E0,1.209108829E0,-1.785410690E1,-1.108549237E0
4.167493496E0,5.554717779E-1,-1.740877151E1,-1.094183564E0
4.169493496E0,-1.795706153E-1,-1.704244804E1,-1.228263021E0
4.171493496E0,-5.530774593E-1,-1.687484932E1,-1.494027495E0
4.173493462E0,-1.254600048E0,-1.650373650E1,-2.078230619E0
4.175493462E0,-1.862745762E0,-1.619487572E1,-2.545114040E0
4.177493462E0,-2.176395893E0,-1.604882431E1,-2.753416061E0
4.179493462E0,-2.760598898E0,-1.568010616E1,-3.057488918E0
4.181493462E0,-3.351984739E0,-1.525631905E1,-3.213116884E0
4.183493462E0,-3.663240433E0,-1.500731468E1,-3.313676357E0
4.185493462E0,-4.118152618E0,-1.440156269E1,-3.548315287E0
4.187493462E0,-4.611373425E0,-1.408073044E1,-3.680000305E0
4.189493495E0,-4.807703972E0,-1.346779537E1,-4.036747456E0
4.191493495E0,-5.080651283E0,-1.284528446E1,-4.479688168E0
4.193493495E0,-5.221913338E0,-1.252445126E1,-4.707144260E0
4.195493495E0,-5.559505939E0,-1.186363125E1,-5.176422119E0
4.197493495E0,-5.825270653E0,-1.110704041E1,-5.372752666E0
4.199493495E0,-5.906675816E0,-1.071198559E1,-5.406272411E0
4.201493495E0,-6.170046329E0,-9.984126091E0,-5.360781193E0
4.203493495E0,-6.723123550E0,-9.268238068E0,-4.929811954E0
4.205493495E0,-7.173247337E0,-8.909096718E0,-4.403071404E0
4.207493495E0,-8.020820618E0,-8.226728439E0,-3.368744612E0
4.209493495E0,-8.463761330E0,-7.597033978E0,-2.901860952E0
4.211493495E0,-8.612206459E0,-7.204372883E0,-3.000026226E0
4.213493495E0,-8.672063828E0,-6.107795238E0,-2.976083517E0
4.215493495E0,-8.767834663E0,-5.602602959E0,-3.184385538E0
4.217493495E0,-8.928250313E0,-5.437397957E0,-3.232270956E0
4.219493495E0,-9.407105446E0,-5.142902374E0,-3.344801903E0
4.221493495E0,-9.924268723E0,-4.874743462E0,-3.208328247E0
4.223493528E0,-1.014454269E1,-4.731087208E0,-3.102980137E0
4.225493561E0,-1.036481571E1,-4.503631115E0,-2.916226625E0
4.227493594E0,-1.034805584E1,-4.376734257E0,-2.760598898E0
4.229493627E0,-1.032650757E1,-4.276175022E0,-2.676799297E0
4.231493660E0,-1.041749001E1,-4.108575344E0,-2.454131603E0
4.233493693E0,-1.046537495E1,-4.058295727E0,-2.253012657E0
4.235493693E0,-1.041270161E1,-4.089421272E0,-1.898659945E0
4.237493693E0,-1.018763924E1,-4.221106529E0,-1.623318315E0
4.239493659E0,-1.002482891E1,-4.280963421E0,-1.441353440E0
4.241493625E0,-9.648927689E0,-4.362368584E0,-9.720755816E-1
4.243493591E0,-9.330489159E0,-4.386311531E0,-4.381522834E-1
4.245493557E0,-9.155706406E0,-4.343214512E0,-1.412622184E-1
4.247493523E0,-8.652909279E0,-4.192375183E0,5.051919818E-1
4.249493489E0,-8.035185814E0,-4.075055599E0,1.089395046E0
4.251493489E0,-7.704776287E0,-4.043930054E0,1.321639657E0
4.253493489E0,-7.003253937E0,-4.048718929E0,1.683175206E0
4.255493489E0,-6.301731110E0,-4.216318130E0,1.924996972E0
4.257493489E0,-5.913858891E0,-4.357580185E0,1.977671027E0
4.259493489E0,-5.111776829E0,-4.635315895E0,2.097384691E0
4.261493489E0,-4.443774223E0,-4.925023079E0,2.150058746E0
4.263493489E0,-4.158855438E0,-5.037554264E0,2.176395893E0
4.265493489E0,-3.711125851E0,-5.229096413E0,2.257801056E0
4.267493489E0,-3.313676357E0,-5.382329941E0,2.384697676E0
4.269493522E0,-3.129317284E0,-5.425426483E0,2.470891714E0
4.271493555E0,-2.736656189E0,-5.461340904E0,2.640885115E0
4.273493588E0,-2.205127001E0,-5.384724140E0,2.830032825E0
4.275493621E0,-1.695146561E0,-5.293741703E0,2.976083517E0
4.277493654E0,-1.455719113E0,-5.255433083E0,3.067065954E0
4.279493687E0,-9.984126091E-1,-5.202759266E0,3.150865555E0
4.281493720E0,-7.948992252E-1,-5.140508175E0,3.299310684E0
4.283493720E0,-4.429408312E-1,-5.059102535E0,3.454938650E0
4.285493686E0,-2.537931204E-1,-4.994457245E0,3.493247032E0
4.287493652E0,6.464541703E-2,-4.879531860E0,3.524372578E0
4.289493618E0,4.860377908E-1,-4.790944099E0,3.478881359E0
4.291493584E0,6.344828010E-1,-4.776578426E0,3.486064196E0
4.293493550E0,8.882759809E-1,-4.750241280E0,3.500429869E0
4.295493516E0,1.158828974E0,-4.678412914E0,3.495641232E0
4.297493482E0,1.280937076E0,-4.618556023E0,3.495641232E0
4.299493482E0,1.508393168E0,-4.494053841E0,3.474092722E0
4.301493482E0,1.743032098E0,-4.352791786E0,3.414235830E0
4.303493482E0,1.865140080E0,-4.292934895E0,3.387898922E0
4.305493482E0,2.080624819E0,-4.225894928E0,3.349590540E0
4.307493482E0,2.257801056E0,-4.199557781E0,3.332830429E0
4.309493482E0,2.327235222E0,-4.209135056E0,3.311282158E0
4.311493482E0,2.434977531E0,-4.273780346E0,3.196356773E0
4.313493482E0,2.504411459E0,-4.374340057E0,3.081431627E0
4.315493482E0,2.523565531E0,-4.450956821E0,3.026363373E0
4.317493482E0,2.552296877E0,-4.594613552E0,2.923409462E0
4.319493482E0,2.583422422E0,-4.709538460E0,2.796513081E0
4.321493482E0,2.588211060E0,-4.781366825E0,2.729473352E0
4.323493482E0,2.595393896E0,-4.927417755E0,2.585816860E0
4.325493482E0,2.557085514E0,-5.016005516E0,2.513988495E0
4.327493482E0,2.557085514E0,-5.138113976E0,2.355966330E0
4.329493448E0,2.585816860E0,-5.224307537E0,2.212309837E0
4.331493448E0,2.597788095E0,-5.260221958E0,2.147664547E0
4.333493448E0,2.614548206E0,-5.293741703E0,2.032739401E0
4.335493448E0,2.621730804E0,-5.329655647E0,1.946545362E0
4.337493448E0,2.621730804E0,-5.329655647E0,1.946545362E0
4.339493448E0,2.640885115E0,-5.320078850E0,1.956122518E0
4.341493448E0,2.693559170E0,-5.300924301E0,1.968093872E0
4.343493448E0,2.729473352E0,-5.274587631E0,1.963305354E0
4.345493481E0,2.791724443E0,-5.269798756E0,1.944151163E0
4.347493481E0,2.825244188E0,-5.253038883E0,1.977671027E0
4.349493481E0,2.834821463E0,-5.253038883E0,2.015979290E0
4.351493481E0,2.846792698E0,-5.257827282E0,2.054287672E0
4.353493481E0,2.818061352E0,-5.298530102E0,2.080624819E0
4.355493481E0,2.786935806E0,-5.320078850E0,2.094990492E0
4.357493481E0,2.729473352E0,-5.341627121E0,2.099778891E0
4.359493481E0,2.705530643E0,-5.286558628E0,2.188367128E0
4.361493481E0,2.688770533E0,-5.267404556E0,2.212309837E0
4.363493481E0,2.650462151E0,-5.221913338E0,2.253012657E0
4.365493481E0,2.609759569E0,-5.176422119E0,2.327235222E0
4.367493481E0,2.569056988E0,-5.152479172E0,2.375120640E0
4.369493481E0,2.485257149E0,-5.097411156E0,2.466103077E0
4.371493481E0,2.401457548E0,-5.080651283E0,2.506805658E0
4.373493481E0,2.339206457E0,-5.080651283E0,2.602576733E0
4.375493481E0,2.224281311E0,-5.104593754E0,2.676799297E0
4.377493481E0,2.164424419E0,-5.121353626E0,2.717501879E0
4.379493514E0,2.001613855E0,-5.190787792E0,2.765387297E0
4.381493547E0,1.824437380E0,-5.253038883E0,2.846792698E0
4.383493580E0,1.735849261E0,-5.274587631E0,2.887495518E0
4.385493613E0,1.556278586E0,-5.305713177E0,3.004814863E0
4.387493646E0,1.333611012E0,-5.353598595E0,3.138894320E0
4.389493679E0,1.204320192E0,-5.372752666E0,3.198751211E0
4.391493679E0,9.481328130E-1,-5.444581032E0,3.272973776E0
4.393493679E0,6.608198285E-1,-5.525986195E0,3.282550812E0
4.395493645E0,3.471698463E-1,-5.636122704E0,3.220299721E0
4.397493611E0,1.843591630E-1,-5.700768471E0,3.179596901E0
4.399493577E0,-1.436564922E-1,-5.854001999E0,3.088614464E0
4.401493543E0,-3.136500120E-1,-5.909070015E0,3.028757572E0
4.403493509E0,-6.967339516E-1,-6.028783798E0,2.935380936E0
4.405493475E0,-1.120520592E0,-6.136526108E0,2.842004299E0
4.407493475E0,-1.326428294E0,-6.201171875E0,2.765387297E0
4.409493475E0,-1.769369125E0,-6.323279858E0,2.604970932E0
4.411493475E0,-2.250618219E0,-6.464541912E0,2.490045786E0
4.413493475E0,-2.513988495E0,-6.565101624E0,2.463708878E0
4.415493475E0,-3.098191500E0,-6.782980442E0,2.427794695E0
4.417493475E0,-3.715914488E0,-6.902694225E0,2.432583094E0
4.419493475E0,-4.024775982E0,-7.139727592E0,2.516382933E0
4.421493475E0,-4.628133297E0,-7.371972084E0,2.672010660E0
4.423493475E0,-4.927417755E0,-7.496474266E0,2.786935806E0
4.425493508E0,-5.502043724E0,-7.762238979E0,3.004814863E0
4.427493541E0,-6.081458092E0,-8.054340363E0,3.296916485E0
4.429493574E0,-6.332856655E0,-8.200390816E0,3.478881359E0
4.431493607E0,-6.854808807E0,-8.482915878E0,3.876330853E0
4.433493640E0,-7.424646378E0,-8.741497040E0,4.338426113E0
4.435493673E0,-7.690410614E0,-8.861210823E0,4.573064804E0
4.437493706E0,-8.233911514E0,-9.100638390E0,4.982485771E0
4.439493706E0,-8.746285439E0,-9.368797302E0,5.317684174E0
4.441493672E0,-8.988107681E0,-9.512454033E0,5.470917702E0
4.443493638E0,-9.433443069E0,-9.811738014E0,5.741470814E0
4.445493604E0,-9.768641472E0,-1.011581135E1,5.933012962E0
4.447493570E0,-9.883566856E0,-1.026665020E1,5.971321583E0
4.449493536E0,-1.005834866E1,-1.058508873E1,6.014418125E0
4.451493502E0,-1.020439911E1,-1.091549873E1,6.124555111E0
4.453493468E0,-1.024989033E1,-1.107831001E1,6.165257454E0
4.455493468E0,-1.011820507E1,-1.160983849E1,6.217931747E0
4.457493468E0,-1.006313705E1,-1.180856323E1,6.249057293E0
4.459493468E0,-1.000088596E1,-1.199531651E1,6.284971237E0
4.461493468E0,-9.857229233E0,-1.230896664E1,6.337645531E0
4.463493468E0,-9.682447433E0,-1.246459484E1,6.366376877E0
4.465493468E0,-9.584281921E0,-1.278782177E1,6.392713547E0
4.467493468E0,-9.359220505E0,-1.305837440E1,6.409473896E0
4.469493468E0,-9.237112045E0,-1.320203114E1,6.375953674E0
4.471493468E0,-9.026415825E0,-1.349652672E1,6.261028767E0
4.473493468E0,-8.947404861E0,-1.387003422E1,6.179623127E0
4.475493468E0,-8.942616463E0,-1.401129627E1,6.150891781E0
4.477493468E0,-8.947404861E0,-1.424593544E1,6.119766235E0
4.479493468E0,-8.918673515E0,-1.436804295E1,6.119766235E0
4.481493468E0,-8.863605499E0,-1.437522602E1,6.129343510E0
4.483493468E0,-8.719948769E0,-1.425551224E1,6.146103382E0
4.485493434E0,-8.576292038E0,-1.399932480E1,6.215537548E0
4.487493400E0,-8.490098000E0,-1.384369659E1,6.246663094E0
4.489493400E0,-8.279402733E0,-1.350610447E1,6.332856655E0
4.491493400E0,-8.111803055E0,-1.311823177E1,6.438204765E0
4.493493400E0,-8.042368889E0,-1.292429543E1,6.498061657E0
4.495493400E0,-7.941809654E0,-1.250529766E1,6.610592842E0
4.497493400E0,-7.853221416E0,-1.208390522E1,6.730306625E0
4.499493400E0,-7.812518597E0,-1.186842060E1,6.794951916E0
4.501493433E0,-7.707170486E0,-1.143505669E1,6.943397045E0
4.503493433E0,-7.594639778E0,-1.104957867E1,7.118178844E0
4.505493433E0,-7.541965485E0,-1.085324764E1,7.225921154E0
4.507493433E0,-7.415069103E0,-1.048213482E1,7.405491829E0
4.509493433E0,-7.269018173E0,-1.031692982E1,7.484503269E0
