"Time (s)","Acceleration x (m/s^2)","Acceleration y (m/s^2)","Acceleration z (m/s^2)"
9.472051000E-3,-1.174277663E0,5.717051506E0,6.981060028E0
1.944377000E-2,-9.822536707E-1,5.525625706E0,6.760920525E0
2.193668700E-2,-9.104689956E-1,5.549553871E0,6.780063152E0
2.442970800E-2,-8.769695163E-1,5.492125988E0,6.713063717E0
2.692257200E-2,-8.051848412E-1,5.463412285E0,6.674778938E0
2.941554100E-2,-7.525427341E-1,5.439484119E0,6.660421848E0
3.190283300E-2,-7.429714203E-1,5.401198864E0,6.650850773E0
3.439585300E-2,-6.664010882E-1,5.348556995E0,6.631708145E0
3.688882200E-2,-6.185446382E-1,5.300700188E0,6.579065800E0
3.941043700E-2,-6.041877270E-1,5.252843857E0,6.545566559E0
4.190335300E-2,-5.180460811E-1,5.213960648E0,6.531209469E0
4.439632200E-2,-4.408775866E-1,5.209175110E0,6.482754707E0
4.688923900E-2,-3.930211067E-1,5.199603558E0,6.415755749E0
4.938220800E-2,-3.355933726E-1,5.175675392E0,6.387042046E0
5.187517600E-2,-2.973082066E-1,5.156532764E0,6.343971252E0
5.436814500E-2,-2.829512656E-1,5.113461971E0,6.233901024E0
5.686106200E-2,-2.063809484E-1,5.142175674E0,6.128616810E0
5.935397800E-2,-2.350948304E-1,5.170889854E0,6.032904148E0
6.184694700E-2,-3.116651475E-1,5.180460930E0,5.970690727E0
6.433991600E-2,-1.968096644E-1,5.161318302E0,5.869594097E0
6.683283300E-2,-1.345962733E-1,5.199603558E0,5.754738331E0
6.928710300E-2,-1.728814393E-1,5.170889854E0,5.673382282E0
7.178007200E-2,-2.446661144E-1,5.180460930E0,5.615954876E0
7.427298900E-2,-3.499503136E-1,5.161318302E0,5.525027275E0
7.676595800E-2,-4.313062727E-1,5.213960648E0,5.395216942E0
7.925892600E-2,-5.132604837E-1,5.209175110E0,5.232504845E0
8.175184300E-2,-8.386843204E-1,5.084748268E0,5.036293507E0
8.424486400E-2,-1.088136077E0,4.998606682E0,4.863411903E0
8.673778100E-2,-1.126421213E0,5.084748268E0,4.801198483E0
8.923074900E-2,-9.583254457E-1,5.204389095E0,4.758127689E0
9.172366600E-2,-7.812566161E-1,5.281557560E0,4.782055855E0
9.421663500E-2,-5.515456200E-1,5.434698582E0,4.863411903E0
9.670955100E-2,-4.701896608E-1,5.506483078E0,4.935794830E0
9.920330100E-2,-4.360919297E-1,5.559125423E0,4.983651161E0
1.016962700E-1,-4.845465720E-1,5.597410202E0,5.112864017E0
1.041892390E-1,-5.659025311E-1,5.587839127E0,5.117649555E0
1.066821560E-1,-6.520441771E-1,5.539982796E0,5.065007210E0
1.091751240E-1,-7.668996453E-1,5.482554913E0,5.041079044E0
1.116680410E-1,-8.817551732E-1,5.386841774E0,5.012365341E0
1.141610620E-1,-8.961120844E-1,5.295914650E0,5.079364300E0
1.166539780E-1,-8.817551732E-1,5.281557560E0,5.132006168E0
1.191468950E-1,-8.673982024E-1,5.185246468E0,5.069792747E0
1.216398640E-1,-8.673982024E-1,5.103890896E0,5.108078003E0
1.241328330E-1,-8.051848412E-1,4.984249592E0,5.108078003E0
1.266257490E-1,-7.573283911E-1,4.912465096E0,5.074578762E0
1.291222600E-1,-6.759724021E-1,4.850251675E0,5.108078003E0
1.316151760E-1,-7.046862841E-1,4.697110653E0,5.060221672E0
1.341081450E-1,-6.137589812E-1,4.667798996E0,5.098506927E0
1.366010620E-1,-5.324030519E-1,4.677370071E0,5.160720348E0
1.390940310E-1,-4.941178858E-1,4.596014023E0,5.170291424E0
1.415869470E-1,-4.313062727E-1,4.538586140E0,5.170291424E0
1.440799680E-1,-4.169493318E-1,4.442873478E0,5.280361176E0
1.465728850E-1,-3.690928817E-1,4.328018188E0,5.366502762E0
1.490658530E-1,-3.308077157E-1,4.174877167E0,5.428716183E0
1.515587700E-1,-2.590230405E-1,4.045066833E0,5.544169903E0
1.540517390E-1,-1.298106313E-1,3.896711588E0,5.678168297E0
1.565446560E-1,-5.324030295E-2,3.733999729E0,5.778666496E0
1.590364260E-1,1.375873014E-2,3.619144201E0,5.907878876E0
1.615293950E-1,4.247260094E-2,3.508476257E0,6.037689686E0
1.640223640E-1,8.135596663E-2,3.412763357E0,6.195616245E0
1.665152810E-1,8.614161611E-2,3.254837036E0,6.296114445E0
1.690082490E-1,1.387837082E-1,3.173480988E0,6.425326824E0
1.715011660E-1,1.674975902E-1,3.072384357E0,6.516852379E0
1.739941870E-1,3.110669553E-1,2.967100143E0,6.583851337E0
1.764871030E-1,3.684946895E-1,2.756531715E0,6.502495766E0
1.789800720E-1,2.679961324E-1,2.555534601E0,6.382256031E0
1.814729890E-1,2.392822653E-1,2.516651154E0,6.473183632E0
1.839659580E-1,2.392822653E-1,2.492722988E0,6.512066841E0
1.864588740E-1,2.488535494E-1,2.526222467E0,6.526423931E0
1.889521030E-1,1.435693651E-1,2.593819857E0,6.502495766E0
1.914450720E-1,1.292124242E-1,2.656033039E0,6.463612080E0
1.939380410E-1,8.614161611E-2,2.684746981E0,6.377470493E0
1.964309580E-1,8.614161611E-2,2.794816732E0,6.248258114E0
1.989239260E-1,2.333002165E-2,2.790031195E0,6.061617851E0
2.014168430E-1,-6.281159073E-2,2.742174864E0,5.917450428E0
2.039098640E-1,-1.393819153E-1,2.732603550E0,5.826523304E0
2.064027810E-1,-2.015953064E-1,2.646461725E0,5.764309883E0
2.088956970E-1,-3.260220885E-1,2.641676188E0,5.644668579E0
2.113886660E-1,-4.265206456E-1,2.579462767E0,5.625525951E0
2.138816350E-1,-3.978067636E-1,2.531008244E0,5.697310925E0
2.163745510E-1,-3.690928817E-1,2.565105915E0,5.879165173E0
2.188747600E-1,-2.973082066E-1,2.511865616E0,5.931807518E0
2.213676760E-1,-3.116651475E-1,2.502294302E0,6.052046776E0
2.238606450E-1,-3.068794906E-1,2.584248543E0,6.147759438E0
2.263535620E-1,-2.446661144E-1,2.579462767E0,6.171687603E0
2.288465310E-1,-2.494517565E-1,2.560320139E0,6.296114445E0
2.313394470E-1,-2.685943544E-1,2.526222467E0,6.410970211E0
2.338324680E-1,-3.499503136E-1,2.473580360E0,6.430112839E0
2.363253850E-1,-4.217349887E-1,2.459223509E0,6.482754707E0
2.388183010E-1,-5.802595019E-1,2.444866419E0,6.646064758E0
2.413112700E-1,-6.568298340E-1,2.440080881E0,6.684350014E0
2.438042390E-1,-8.003991842E-1,2.502294302E0,6.880561352E0
2.462971560E-1,-1.025922656E0,2.516651154E0,7.019345284E0
2.487795510E-1,-1.169492126E0,2.449652195E0,6.952346325E0
2.512725200E-1,-1.303490162E0,2.444866419E0,7.000202656E0
2.537654890E-1,-1.475773335E0,2.325225353E0,7.077371120E0
2.562584060E-1,-1.562513232E0,2.253440619E0,7.244868755E0
2.587513740E-1,-1.552941918E0,2.219941139E0,7.469794273E0
2.612442910E-1,-1.572084427E0,2.052443504E0,7.594819069E0
2.637373120E-1,-1.499701619E0,2.023729801E0,7.719245911E0
2.662302280E-1,-1.442273855E0,1.932204247E0,7.814958572E0
2.687231450E-1,-1.389631748E0,1.850848317E0,7.800601959E0
2.712161140E-1,-1.322632670E0,1.779063582E0,7.843672752E0
2.737090830E-1,-1.356132269E0,1.621137381E0,7.848458290E0
2.762019990E-1,-1.317847013E0,1.511067510E0,7.814958572E0
2.786926240E-1,-1.298704505E0,1.352542996E0,7.661818027E0
2.811855930E-1,-1.260419369E0,1.314257860E0,7.613961697E0
2.836785100E-1,-1.169492126E0,1.314257860E0,7.541578770E0
2.861714780E-1,-1.121635556E0,1.271187067E0,7.378866673E0
2.886644470E-1,-1.126421213E0,1.146760225E0,7.474579811E0
2.911573640E-1,-1.164706469E0,1.027119160E0,7.546364307E0
2.936503850E-1,-1.193420291E0,9.984052777E-1,7.488936901E0
2.961433010E-1,-1.231705427E0,9.308080077E-1,7.532007694E0
2.986362180E-1,-1.231705427E0,9.116654396E-1,7.594819069E0
3.011291870E-1,-1.284347534E0,8.111668825E-1,7.704888821E0
3.036221560E-1,-1.351346612E0,6.436693072E-1,7.752745152E0
3.061150720E-1,-1.399203062E0,5.288137794E-1,7.724031448E0
3.086033530E-1,-1.322632670E0,5.718846321E-1,7.690532207E0
3.110963220E-1,-1.308275819E0,5.910272002E-1,7.680960655E0
3.135892390E-1,-1.346560955E0,5.288137794E-1,7.709674358E0
3.160822080E-1,-1.490130305E0,4.331009090E-1,7.743174076E0
3.185751760E-1,-1.667797327E0,4.378865361E-1,7.752745152E0
3.210680930E-1,-1.720439434E0,4.235295951E-1,7.728816986E0
3.235611140E-1,-1.643869162E0,3.894318938E-1,7.666603565E0
3.260540310E-1,-1.663011789E0,3.367897868E-1,7.676175117E0
3.285469470E-1,-1.773081541E0,1.980060786E-1,7.661818027E0
3.310399160E-1,-1.859223247E0,-3.170489892E-2,7.599604607E0
3.335328850E-1,-1.892722726E0,-1.902294010E-1,7.565506935E0
3.360258010E-1,-1.840080619E0,-1.950150430E-1,7.474579811E0
3.385266350E-1,-1.710868239E0,-2.189432681E-1,7.421937466E0
3.410196030E-1,-1.792224169E0,-3.768695593E-1,7.455437183E0
3.435125720E-1,-1.983649969E0,-5.108676553E-1,7.508079052E0
3.460054890E-1,-2.395813704E0,-6.592226624E-1,7.590033531E0
3.484984580E-1,-2.678765059E0,-7.220342159E-1,7.719245911E0
3.509913740E-1,-2.927618504E0,-6.687939167E-1,7.733603001E0
3.534843950E-1,-3.339782238E0,-7.842476368E-1,7.824530125E0
3.559773120E-1,-3.795016766E0,-9.134600163E-1,7.953742504E0
3.584702280E-1,-4.173082829E0,-9.565308690E-1,7.948956966E0
3.609631970E-1,-4.441677094E0,-8.751748800E-1,8.078168869E0
3.634561660E-1,-4.738387108E0,-8.512466550E-1,8.102097511E0
3.659490830E-1,-4.997410297E0,-7.411768436E-1,8.145766258E0
3.684400200E-1,-5.270191669E0,-5.970092416E-1,8.160123825E0
3.709329890E-1,-5.577071190E0,-3.672982752E-1,8.222336769E0
3.734259060E-1,-5.936593056E0,-1.178465188E-1,8.227122307E0
3.759188740E-1,-6.238088608E0,1.118644550E-1,8.203194618E0
3.784118430E-1,-6.549753666E0,3.942175210E-1,8.222336769E0
3.809047600E-1,-6.846463680E0,6.484549642E-1,8.184051514E0
3.833977280E-1,-6.406184196E0,2.430509567E0,8.198408127E0
3.858906970E-1,-6.252445698E0,3.973282099E0,7.843672752E0
3.883836140E-1,-7.000202656E0,3.369692564E0,7.791030407E0
3.908765830E-1,-7.450651646E0,3.159124136E0,7.273582458E0
3.933695510E-1,-7.790432453E0,3.005385160E0,7.033702374E0
3.958624680E-1,-8.188239098E0,2.670390129E0,6.870990276E0
3.983558530E-1,-8.700901031E0,2.306082726E0,6.631708145E0
4.008488220E-1,-8.921041489E0,2.377867460E0,6.229115486E0
4.033417910E-1,-8.930612564E0,2.296511650E0,5.816951752E0
4.058347080E-1,-8.897112846E0,2.114656925E0,5.950950146E0
4.083276760E-1,-9.041280746E0,1.673779488E0,6.238687038E0
4.108205930E-1,-8.944969177E0,1.165902853E0,5.994618893E0
4.133136140E-1,-8.858827591E0,5.335994363E-1,6.157330990E0
4.158065310E-1,-8.916254997E0,-1.274178028E-1,6.343971252E0
4.182994470E-1,-8.581260681E0,-2.285145670E-1,6.631708145E0
4.207924160E-1,-7.579864025E0,5.443671346E-2,5.970690727E0
4.232853850E-1,-6.774679184E0,2.793620527E-1,6.066403389E0
4.257783010E-1,-6.497111797E0,2.841476798E-1,6.607779503E0
4.282634580E-1,-6.358327866E0,9.750752151E-2,6.343971252E0
4.307564260E-1,-6.123233318E0,-4.127619043E-2,6.526423931E0
4.332493950E-1,-5.970092297E0,-4.127619043E-2,6.717849731E0
4.357423120E-1,-5.922235966E0,-1.423729509E-1,6.713063717E0
4.382352810E-1,-5.960521221E0,-2.333002090E-1,6.890132904E0
4.407281970E-1,-6.108876228E0,-5.539384484E-1,7.009773731E0
4.432212180E-1,-6.214160442E0,-8.321040869E-1,7.316653252E0
4.457141350E-1,-6.314659119E0,-1.152742267E0,7.393223763E0
4.482071030E-1,-6.387042046E0,-1.383051515E0,7.752745152E0
4.507000200E-1,-6.358327866E0,-1.488335729E0,7.891529083E0
4.531929890E-1,-6.391827583E0,-1.603191137E0,8.212765694E0
4.556859060E-1,-6.559325218E0,-1.766501307E0,8.672785759E0
4.581892390E-1,-6.765107632E0,-1.809572101E0,8.935996056E0
4.606822080E-1,-6.909275532E0,-1.814357758E0,9.439086914E0
4.631751760E-1,-6.933203697E0,-1.847857237E0,9.779465675E0
4.656680930E-1,-6.860820770E0,-1.838286042E0,9.913464546E0
4.681610620E-1,-6.971488953E0,-1.972284079E0,1.027298546E1
4.706539780E-1,-7.177271366E0,-2.293520451E0,1.048833942E1
4.731469990E-1,-7.421339512E0,-2.489732027E0,1.077547836E1
4.756399160E-1,-7.474579811E0,-2.355733871E0,1.089571762E1
4.781328330E-1,-7.431509018E0,-2.408375978E0,1.079043388E1
4.806258010E-1,-7.282555580E0,-2.389233351E0,1.070369434E1
4.831187700E-1,-7.100701332E0,-2.398804665E0,1.083829021E1
4.856116870E-1,-7.086344242E0,-2.413161755E0,1.073240757E1
4.880969470E-1,-7.086344242E0,-2.417947292E0,1.062233829E1
4.905899160E-1,-7.229913712E0,-2.408375978E0,1.057926750E1
4.930828850E-1,-7.392625332E0,-2.365305185E0,1.056490993E1
4.955758530E-1,-7.493722439E0,-2.101496458E0,9.994820595E0
4.980687700E-1,-7.594220638E0,-1.843071699E0,9.122636795E0
5.005616870E-1,-7.843074322E0,-1.756929994E0,9.175278664E0
5.030546560E-1,-7.982456207E0,-1.368694544E0,8.687142372E0
5.055476240E-1,-7.900502205E0,-1.052243710E0,8.533403397E0
5.080405410E-1,-8.044670105E0,-1.359123230E0,8.519046783E0
5.105335100E-1,-8.178668022E0,-1.531406522E0,8.006384850E0
5.130264780E-1,-8.216953278E0,-1.411765337E0,7.666603565E0
5.155193950E-1,-8.293522835E0,-1.493121386E0,7.690532207E0
5.180186660E-1,-8.432307243E0,-1.708475351E0,7.551149845E0
5.205115830E-1,-8.533403397E0,-1.847857237E0,7.503293514E0
5.230044990E-1,-8.753543854E0,-1.943570137E0,7.652246952E0
5.254974680E-1,-8.901898384E0,-1.943570137E0,7.685746193E0
5.279904370E-1,-9.011968613E0,-1.886142492E0,7.666603565E0
5.304833530E-1,-9.065208435E0,-1.795215130E0,7.728816986E0
5.329763740E-1,-9.103493690E0,-1.843071699E0,7.776673794E0
5.354692910E-1,-9.084351540E0,-2.024926186E0,7.661818027E0
5.379622080E-1,-8.964112282E0,-2.288734913E0,7.676175117E0
5.404551760E-1,-8.844470978E0,-2.614158630E0,7.752745152E0
5.429481450E-1,-8.667402267E0,-2.858824968E0,7.642675400E0
5.454410620E-1,-8.499904633E0,-2.580659151E0,7.800601959E0
5.479241350E-1,-8.581260681E0,-2.384447813E0,7.877171993E0
5.504170510E-1,-8.901898384E0,-1.957927108E0,7.676175117E0
5.529099160E-1,-9.007183075E0,-1.718046665E0,7.915457249E0
5.554028330E-1,-9.093922615E0,-2.346162558E0,8.078168869E0
5.578957490E-1,-9.041280746E0,-2.940180779E0,8.217551231E0
5.603886660E-1,-9.046066284E0,-3.189034462E0,8.408976555E0
5.628815310E-1,-9.002396584E0,-3.193820000E0,8.605188370E0
5.653744470E-1,-9.002396584E0,-3.337389469E0,9.103493690E0
5.678673640E-1,-9.093922615E0,-3.524627686E0,9.491728783E0
5.703602810E-1,-9.146564484E0,-3.558127165E0,9.745966911E0
5.728531450E-1,-9.026325226E0,-3.615555048E0,9.961320877E0
5.753460620E-1,-8.705686569E0,-3.768695593E0,1.013360405E1
5.778398120E-1,-8.374878883E0,-3.620340586E0,1.019103146E1
5.803327280E-1,-8.245666504E0,-3.739981890E0,1.015753174E1
5.828255930E-1,-8.159524918E0,-3.610769272E0,1.026341438E1
5.853185100E-1,-8.039883614E0,-3.481556892E0,1.055533886E1
5.878114260E-1,-8.073383331E0,-3.783052683E0,1.085264683E1
5.903043430E-1,-8.159524918E0,-3.979862213E0,1.080000496E1
5.927972080E-1,-8.336593628E0,-4.080360889E0,1.091007519E1
5.952901240E-1,-8.911469460E0,-4.459024906E0,1.080957603E1
5.977830410E-1,-8.633902550E0,-4.497310162E0,1.012881851E1
6.002759580E-1,-7.661220074E0,-3.663411379E0,9.625727654E0
6.027688220E-1,-7.143772125E0,-3.318246841E0,9.722038269E0
6.052617390E-1,-7.110272408E0,-3.155534744E0,9.750752449E0
6.077486140E-1,-7.095915318E0,-3.078964472E0,9.419944763E0
6.102415310E-1,-7.359126091E0,-3.279961586E0,9.266803741E0
6.127343950E-1,-7.479365349E0,-3.337389469E0,9.031708717E0
6.152273120E-1,-7.632505894E0,-3.357130051E0,8.638688087E0
6.177202280E-1,-7.914859295E0,-3.390629768E0,8.385048866E0
6.202131450E-1,-8.216953278E0,-3.222533941E0,8.341978073E0
6.227060100E-1,-8.207381248E0,-3.174677372E0,8.179265976E0
6.251989260E-1,-8.006384850E0,-3.203391314E0,8.251050949E0
6.276918430E-1,-7.867002487E0,-3.371487141E0,8.193622589E0
6.301847600E-1,-7.900502205E0,-3.385843992E0,8.341978073E0
6.326776240E-1,-7.809575081E0,-3.222533941E0,8.504690170E0
6.351705410E-1,-7.503293514E0,-3.160320520E0,8.619544983E0
6.376667910E-1,-7.148557663E0,-3.098107100E0,8.682356834E0
6.401597080E-1,-6.851249218E0,-2.954537868E0,8.619544983E0
6.426525720E-1,-6.990631580E0,-3.639483213E0,8.696713448E0
6.451454890E-1,-7.215556622E0,-4.257429600E0,8.633902550E0
6.476384060E-1,-7.411767960E0,-4.454239368E0,8.581260681E0
6.501313220E-1,-7.292127132E0,-5.148756027E0,8.600402832E0
6.526241870E-1,-7.234699249E0,-5.397609711E0,8.821140289E0
6.551171030E-1,-7.172485828E0,-5.244469166E0,8.854640007E0
6.576100200E-1,-6.942774773E0,-5.268397331E0,8.586046219E0
6.601029370E-1,-6.784250259E0,-5.091328144E0,8.418548584E0
6.625958010E-1,-6.841678143E0,-4.875376225E0,8.227122307E0
6.650887180E-1,-6.568896294E0,-5.143970490E0,7.972885132E0
6.675837180E-1,-6.113661766E0,-5.513063431E0,7.905886173E0
6.700766350E-1,-5.596213818E0,-5.871986866E0,7.862815380E0
6.725694990E-1,-5.333003521E0,-6.178866386E0,7.762316704E0
6.750624160E-1,-5.236692429E0,-6.370292187E0,7.541578770E0
6.775553330E-1,-5.376074314E0,-6.298507214E0,7.335795879E0
6.800482490E-1,-5.763711452E0,-5.532206059E0,7.197012424E0
6.825411140E-1,-6.367899418E0,-4.492524624E0,7.149155617E0
6.850340310E-1,-6.808178425E0,-3.908077478E0,7.307082176E0
6.875269470E-1,-6.578467846E0,-3.016751051E0,7.168298244E0
6.900198640E-1,-6.549753666E0,-2.738585472E0,7.268796921E0
6.925127280E-1,-7.272984505E0,-3.390629768E0,7.733603001E0
6.950056450E-1,-7.982456207E0,-3.438486099E0,7.819744587E0
6.975021030E-1,-8.877969742E0,-3.246462107E0,7.953742504E0
6.999950200E-1,-9.740582466E0,-3.217748165E0,8.542975426E0
7.024878850E-1,-1.037767220E1,-3.313461065E0,8.988637924E0
7.049808010E-1,-1.107697392E1,-3.256033421E0,9.218947411E0
7.074737180E-1,-1.243789196E1,-3.189034462E0,8.950352669E0
7.099666350E-1,-1.549950886E1,-2.714657307E0,7.244868755E0
7.124594990E-1,-1.706620979E1,-2.317448616E0,6.579065800E0
7.149524160E-1,-1.779422569E1,-1.876571178E0,6.075974941E0
7.174453330E-1,-2.013679886E1,-8.129615188E-1,5.175076962E0
7.199382490E-1,-2.184706879E1,3.702892959E-1,4.758127689E0
7.224311140E-1,-2.331805611E1,1.702493310E0,4.288536549E0
7.249240310E-1,-2.373022079E1,2.785245657E0,3.397808075E0
7.274288220E-1,-2.345684052E1,3.374478102E0,4.173680782E0
7.299217390E-1,-2.760120964E1,4.418945312E0,1.955534339E0
7.324146030E-1,-2.736671257E1,4.596014023E0,1.500299811E0
7.349075200E-1,-2.536870575E1,4.557728767E0,3.397808075E0
7.374004370E-1,-2.402274323E1,4.529015064E0,4.380061626E0
7.398933530E-1,-2.243211365E1,4.126422882E0,4.786841869E0
7.423862180E-1,-2.144028854E1,3.619144201E0,4.782055855E0
7.448791350E-1,-2.011287117E1,2.833101988E0,5.232504845E0
7.473720510E-1,-1.915454483E1,1.956132531E0,5.678168297E0
7.498649680E-1,-1.810529327E1,1.237687469E0,5.668596745E0
7.523578330E-1,-1.719063568E1,4.666004181E-1,5.620740414E0
7.548507490E-1,-1.670190239E1,-1.710868180E-1,5.323431969E0
7.573301760E-1,-1.599781418E1,-8.416753411E-1,5.261219025E0
7.598230930E-1,-1.540798283E1,-1.493121386E0,5.194219589E0
7.623159580E-1,-1.484746456E1,-1.838286042E0,5.218147755E0
7.648088740E-1,-1.460818195E1,-1.900499344E0,4.988437176E0
7.673017910E-1,-1.351107311E1,-2.211566210E0,4.686343193E0
7.697947080E-1,-1.270110226E1,-2.360519648E0,4.643272400E0
7.722875720E-1,-1.224646664E1,-2.461018085E0,4.753342152E0
7.747804890E-1,-1.155613708E1,-2.609373093E0,4.834698200E0
7.772734060E-1,-1.082333469E1,-2.834896564E0,5.031507969E0
7.797663220E-1,-9.903294563E0,-3.203391314E0,5.098506927E0
7.822591870E-1,-9.443274498E0,-3.409772158E0,5.294718266E0
7.847521030E-1,-8.992825508E0,-3.596412420E0,5.462814331E0
7.872488220E-1,-8.672187805E0,-3.778266907E0,5.587240696E0
7.897417390E-1,-8.571688652E0,-3.960719585E0,5.697310925E0
7.922346030E-1,-8.451449394E0,-4.257429600E0,5.927021503E0
7.947275200E-1,-8.307880402E0,-4.559523582E0,6.114260197E0
7.972204370E-1,-8.106883049E0,-4.832305431E0,6.243472576E0
7.997133530E-1,-7.718647480E0,-5.210969448E0,6.286543369E0
8.022062180E-1,-7.469794273E0,-5.364109993E0,6.257829189E0
8.046991350E-1,-7.402196884E0,-5.311468124E0,6.133402824E0
8.071920510E-1,-7.301698208E0,-5.263611794E0,5.898307800E0
8.096849680E-1,-7.263412952E0,-5.292325497E0,5.615954876E0
8.121778330E-1,-7.780860901E0,-5.972485542E0,8.964710236E0
8.146707490E-1,-8.245666504E0,-5.599205017E0,6.305685997E0
8.171606970E-1,-7.512865067E0,-4.937589645E0,4.552345276E0
8.196536140E-1,-7.316055298E0,-4.707878590E0,4.188037872E0
8.221464780E-1,-7.522436142E0,-4.612165451E0,3.728017569E0
8.246393950E-1,-7.699504852E0,-4.410570145E0,3.412165165E0
8.271323120E-1,-7.814360619E0,-4.219144344E0,3.412165165E0
8.296252280E-1,-7.929215908E0,-3.898506403E0,3.119642496E0
8.321180930E-1,-8.044670105E0,-3.016751051E0,2.875574589E0
8.346110100E-1,-7.953144073E0,-3.064607620E0,3.507878065E0
8.371039260E-1,-7.996813297E0,-3.826123476E0,3.637090445E0
8.395968430E-1,-7.900502205E0,-4.497310162E0,3.277568817E0
8.420897080E-1,-7.838288784E0,-4.779663086E0,3.019144058E0
8.445826240E-1,-7.900502205E0,-4.774877548E0,3.057429075E0
8.470755930E-1,-7.867002487E0,-4.803591251E0,3.282354355E0
8.495685100E-1,-7.723433495E0,-4.861019135E0,3.306880951E0
8.520613740E-1,-7.613363266E0,-5.014758110E0,3.402593851E0
8.545542910E-1,-7.570292473E0,-5.163113117E0,3.488735437E0
8.570472080E-1,-7.517650604E0,-5.230112076E0,3.407379389E0
8.595401240E-1,-7.512865067E0,-5.402395248E0,3.210569859E0
8.620329890E-1,-7.618149281E0,-5.656632900E0,2.995215654E0
8.645259060E-1,-7.790432453E0,-5.967699528E0,2.870789051E0
8.670188220E-1,-7.943572998E0,-6.087938786E0,2.712264538E0
8.695117390E-1,-8.015955925E0,-6.111867428E0,2.530410051E0
8.720046030E-1,-8.082955360E0,-6.193223000E0,2.267199516E0
8.744975200E-1,-8.140382767E0,-6.274579048E0,2.070389748E0
8.769915830E-1,-8.519046783E0,-6.485147476E0,3.019144058E0
8.794844990E-1,-9.491130829E0,-6.825526714E0,3.421736479E0
8.819773640E-1,-9.050851822E0,-6.686742783E0,1.586441398E0
8.844702810E-1,-8.782257080E0,-6.494719028E0,1.476371527E0
8.869631970E-1,-8.839685440E0,-6.494719028E0,1.466800332E0
8.894561140E-1,-8.887541771E0,-6.437291145E0,1.404586911E0
8.919489780E-1,-8.916254997E0,-6.384648800E0,1.409372568E0
8.944418950E-1,-8.949754715E0,-6.375077724E0,1.552941918E0
8.969348120E-1,-8.839685440E0,-6.375077724E0,1.567298889E0
8.994277280E-1,-8.739186287E0,-6.494719028E0,1.615155339E0
9.019205930E-1,-8.576474190E0,-6.658029079E0,1.677368641E0
9.044135100E-1,-8.413164139E0,-6.849454880E0,1.591227055E0
9.069124160E-1,-8.283951759E0,-7.064808846E0,1.624726534E0
9.094053330E-1,-8.202595711E0,-7.280761242E0,1.687538147E0
9.118981970E-1,-8.068597794E0,-7.280761242E0,1.543370605E0
9.143911140E-1,-8.063812256E0,-7.424330235E0,1.610369682E0
9.168840310E-1,-8.025527000E0,-7.601399422E0,1.639083505E0
9.193769470E-1,-8.001599312E0,-7.745566845E0,1.816750646E0
9.218698120E-1,-8.025527000E0,-7.975277901E0,1.917249203E0
9.243627280E-1,-7.968099594E0,-8.061419487E0,1.840678811E0
9.268556450E-1,-7.814360619E0,-8.123632431E0,1.922034740E0
9.293485620E-1,-7.747361660E0,-8.181658745E0,1.998605132E0
9.318414260E-1,-7.761718273E0,-8.167302132E0,2.156531334E0
9.343343430E-1,-7.704290867E0,-8.061419487E0,2.084746838E0
9.368336140E-1,-7.737790108E0,-7.903493404E0,2.118246317E0
9.393265310E-1,-7.771289825E0,-7.620542049E0,2.281556368E0
9.418193950E-1,-7.968099594E0,-7.409973621E0,2.544766903E0
9.443123120E-1,-8.116454124E0,-7.204190731E0,2.391626120E0
9.468052280E-1,-8.236095428E0,-7.328617573E0,2.573480844E0
9.492981450E-1,-8.437092781E0,-7.405188084E0,2.645265341E0
9.517910100E-1,-8.346165657E0,-7.026523590E0,2.458625317E0
9.542839260E-1,-8.169096947E0,-6.691528320E0,2.492124796E0
9.567768430E-1,-8.346165657E0,-7.146762848E0,2.492124796E0
9.592697600E-1,-8.595617294E0,-7.510472298E0,2.224128723E0
9.617626240E-1,-8.686544418E0,-7.788637638E0,2.060818434E0
9.642555410E-1,-8.758329391E0,-7.769495010E0,1.984248161E0
9.667386660E-1,-8.815756798E0,-7.721638680E0,2.089532375E0
9.692315830E-1,-8.729615211E0,-7.740781307E0,1.826321840E0
9.717244470E-1,-8.806185722E0,-7.491329670E0,1.543370605E0
9.742173640E-1,-8.633902550E0,-7.213762283E0,1.237089276E0
9.767102810E-1,-8.494520187E0,-7.122834682E0,1.112064362E0
9.792031970E-1,-8.504690170E0,-6.734599113E0,9.924231768E-1
9.816960620E-1,-8.389236450E0,-6.480361938E0,8.919246197E-1
9.841889780E-1,-8.164310455E0,-6.379863262E0,9.876375198E-1
9.866818950E-1,-8.015955925E0,-6.202794552E0,1.011565804E0
9.891748120E-1,-7.929215908E0,-5.924628735E0,8.679963946E-1
9.916676760E-1,-7.867002487E0,-5.905486107E0,1.107278705E0
9.941605930E-1,-7.642077446E0,-5.943771362E0,1.227517962E0
9.966560100E-1,-7.517650604E0,-5.728417397E0,1.232303619E0
9.991489260E-1,-7.263412952E0,-5.397609711E0,1.045065284E0
1.001641791E0,-6.827321053E0,-5.038686275E0,1.131206870E0
1.004134708E0,-6.497111797E0,-4.511667252E0,1.126421213E0
1.006627624E0,-5.984449387E0,-4.147359848E0,7.100701332E-1
1.009120541E0,-5.490929604E0,-4.176073551E0,9.828519225E-1
1.011613406E0,-5.404788017E0,-3.749552965E0,8.344969153E-1
1.014106322E0,-5.313860893E0,-3.519842148E0,8.009973764E-1
1.016599239E0,-5.241477966E0,-3.342175007E0,7.435696125E-1
1.019092156E0,-5.112265587E0,-3.174677372E0,8.009973764E-1
1.021585020E0,-5.026124001E0,-2.940180779E0,9.732806087E-1
1.024077937E0,-4.916054249E0,-2.892324448E0,9.876375198E-1
1.026569551E0,-4.791627407E0,-2.805584431E0,8.297112584E-1
1.029062468E0,-4.839483738E0,-2.633301258E0,9.637092948E-1
1.031555333E0,-4.949553490E0,-2.504088879E0,1.265803218E0
1.034048249E0,-4.939982414E0,-2.480160713E0,1.438086390E0
1.036541166E0,-4.753342152E0,-2.638087034E0,1.270588875E0
1.039034083E0,-4.887340069E0,-2.523231506E0,1.697109461E0
1.041526947E0,-5.131408215E0,-2.346162558E0,1.740180254E0
1.044019864E0,-5.438287735E0,-2.039283037E0,1.452443361E0
1.046512781E0,-5.045266628E0,-2.201995134E0,1.610369682E0
1.049005697E0,-4.652245522E0,-2.494517565E0,1.648654819E0
1.051498562E0,-4.599603176E0,-2.508874655E0,1.509871125E0
1.053991478E0,-4.753342152E0,-2.355733871E0,1.361516118E0
1.056486426E0,-4.782055855E0,-2.240280151E0,1.280160069E0
1.058979343E0,-4.801198483E0,-2.221137524E0,1.160519004E0
1.061472260E0,-4.389034748E0,-2.283949137E0,1.045065284E0
1.063965176E0,-3.497708559E0,-2.499303341E0,1.040279627E0
1.066458093E0,-3.708875179E0,-2.413161755E0,6.861419082E-1
1.068951010E0,-3.924229145E0,-2.307877541E0,4.558327198E-1
1.071443926E0,-3.708875179E0,-2.230708838E0,5.132604837E-1
1.073936791E0,-2.937189817E0,-2.370090723E0,3.122633696E-1
1.076429708E0,-3.258426189E0,-2.427518606E0,3.122633696E-1
1.078922624E0,-3.263211966E0,-2.575873613E0,4.558327198E-1
1.081415541E0,-3.186641455E0,-2.705085993E0,4.271188378E-1
1.083908458E0,-3.454637766E0,-2.935395241E0,3.074777126E-1
1.086400072E0,-4.005585194E0,-2.830111027E0,3.792623878E-1
1.088892989E0,-4.192225456E0,-2.854039192E0,2.452643216E-2
1.091385906E0,-4.623531342E0,-2.830111027E0,5.324030295E-2
1.093878822E0,-4.949553490E0,-2.935395241E0,1.495514158E-2
1.096371739E0,-5.768496990E0,-3.074178934E0,1.064806059E-1
1.098864656E0,-6.338587284E0,-3.323032379E0,1.974078715E-1
1.101357520E0,-6.933203697E0,-3.467200041E0,4.271188378E-1
1.103850437E0,-6.981060028E0,-3.433700562E0,5.946164131E-1
1.106343353E0,-7.076773167E0,-3.352344513E0,6.191428304E-1
1.108836270E0,-7.445865631E0,-4.037290096E0,2.500499785E-1
1.111329187E0,-7.761718273E0,-4.295714855E0,5.036891699E-1
1.113822103E0,-7.642077446E0,-4.089931965E0,4.127618968E-1
1.116313145E0,-7.627720356E0,-3.912863255E0,1.974078640E-2
1.118806062E0,-7.445865631E0,-4.314857483E0,-3.200400174E-1
1.121298978E0,-7.354340553E0,-4.396213531E0,-3.631108403E-1
1.123791895E0,-7.344769001E0,-4.252644062E0,-5.072783828E-1
1.126284812E0,-7.416553974E0,-4.674378872E0,-7.226324677E-1
1.128777728E0,-7.095915318E0,-4.602594376E0,-3.439682424E-1
1.131270593E0,-6.865606308E0,-4.602594376E0,-1.812563092E-1
1.133763510E0,-6.568896294E0,-4.693521500E0,-1.381855011E-1
1.136256426E0,-6.137589931E0,-4.372285366E0,2.404786795E-1
1.138749343E0,-5.984449387E0,-4.607379913E0,3.074777126E-1
1.141242260E0,-5.720640659E0,-4.386641979E0,5.563312769E-1
1.143735176E0,-5.419145107E0,-4.837090969E0,4.701896608E-1
1.146241062E0,-4.920839787E0,-4.976472855E0,4.366901219E-1
1.148733978E0,-4.906482697E0,-5.182255745E0,3.122633696E-1
1.151226895E0,-5.117051125E0,-5.072185993E0,2.835494876E-1
1.153719812E0,-5.691926956E0,-5.493920803E0,4.319044948E-1
1.156212728E0,-6.175875187E0,-5.637490273E0,6.334998012E-1
1.158705645E0,-6.209374905E0,-5.919843197E0,-9.032905847E-2
1.161198562E0,-5.960521221E0,-6.073582172E0,1.734796464E-1
1.163691426E0,-5.869594097E0,-6.375077724E0,1.241874933E0
1.166184343E0,-6.161518097E0,-6.720242500E0,9.924231768E-1
1.168677260E0,-6.511468410E0,-6.835097790E0,1.107278705E0
1.171170176E0,-5.773283005E0,-7.395616531E0,1.869392633E0
1.173663093E0,-5.648856163E0,-7.917850018E0,1.160519004E0
1.176149916E0,-5.874379635E0,-7.989634991E0,2.597409010E0
1.178642833E0,-6.726822853E0,-8.377870560E0,2.952144861E0
1.181135749E0,-7.488936901E0,-8.502297401E0,3.100499868E0
1.183628666E0,-8.595617294E0,-8.900103569E0,3.224926710E0
1.186121583E0,-9.060422897E0,-9.163313866E0,3.349951744E0
1.188614499E0,-8.940183640E0,-9.460622787E0,2.770290375E0
1.191107364E0,-9.769296646E0,-9.675976753E0,2.813361168E0
1.193600281E0,-9.888937950E0,-9.801001549E0,2.837289333E0
1.196093197E0,-9.630513191E0,-1.010249710E1,2.621337175E0
1.198586114E0,-1.003729248E1,-1.058644581E1,2.233700037E0
1.201079031E0,-9.798010826E0,-1.104168034E1,1.984248161E0
1.203571947E0,-9.452845573E0,-1.130967617E1,2.036890268E0
1.206060541E0,-9.562915802E0,-1.166919804E1,1.711466432E0
1.208553458E0,-9.510273933E0,-1.196650600E1,1.658226132E0
1.211046374E0,-9.424132347E0,-1.238285732E1,1.131206870E0
1.213539291E0,-9.606584549E0,-1.286680603E1,6.717849374E-1
1.216032208E0,-9.481559753E0,-1.272323608E1,4.941178858E-1
1.218525124E0,-9.352347374E0,-1.223928738E1,2.931207716E-1
1.221017989E0,-9.659226418E0,-1.213878918E1,3.505485058E-1
1.223510906E0,-9.548559189E0,-1.188455200E1,1.782652885E-1
1.226003822E0,-9.318847656E0,-1.152562809E1,-9.032905847E-2
1.228496739E0,-9.199206352E0,-1.109910774E1,-4.977070987E-1
1.230989656E0,-8.959325790E0,-1.096032429E1,-3.583251834E-1
1.233482572E0,-8.892327309E0,-1.096989536E1,-2.817548811E-1
1.235977676E0,-8.638688087E0,-1.101296616E1,-5.742774606E-1
1.238470593E0,-8.283951759E0,-1.116610718E1,-2.865405083E-1
1.240963510E0,-7.847859859E0,-1.105603695E1,-1.525424421E-1
1.243456426E0,-7.938787460E0,-1.106560802E1,5.324030295E-2
1.245949343E0,-7.867002487E0,-1.117089272E1,1.734796464E-1
1.248442260E0,-7.790432453E0,-1.134317589E1,1.447657645E-1
1.250935176E0,-7.823931694E0,-1.142034435E1,8.733802289E-2
1.253428041E0,-7.508079052E0,-1.138205910E1,2.452643216E-2
1.255920958E0,-7.086344242E0,-1.164526939E1,5.982056609E-4
1.258413874E0,-6.698108673E0,-1.201436234E1,2.500499785E-1
1.260906791E0,-6.765107632E0,-1.214836025E1,3.026920557E-1
1.263399708E0,-7.594220638E0,-1.199043465E1,1.208375469E-1
1.265889603E0,-7.819146156E0,-1.151605701E1,1.256231815E-1
1.268382520E0,-7.685148239E0,-1.085503960E1,-1.375873014E-2
1.270875437E0,-7.498507977E0,-1.042373371E1,-2.195414752E-1
1.273368353E0,-7.196413994E0,-9.848857880E0,-1.190429255E-1
1.275861270E0,-6.971488953E0,-9.369695663E0,-2.811566554E-2
1.278354187E0,-6.578467846E0,-8.775676727E0,3.888336942E-2
1.280847103E0,-6.228517532E0,-7.932207108E0,1.591227055E-1
1.283339968E0,-6.262016773E0,-7.213762283E0,3.888336942E-2
1.285832885E0,-6.084948063E0,-6.744170666E0,-9.032905847E-2
1.288325801E0,-5.936593056E0,-6.667600155E0,-1.621137410E-1
1.290818718E0,-5.768496990E0,-6.619743824E0,-2.673979402E-1
1.293311635E0,-5.538786411E0,-6.677171707E0,-2.913261652E-1
1.295806687E0,-5.112265587E0,-6.547360897E0,-2.243271172E-1
1.298299603E0,-5.207978249E0,-6.720242500E0,-2.530409992E-1
1.300792520E0,-5.212764263E0,-7.180262566E0,-6.891329288E-1
1.303285437E0,-4.983053207E0,-7.271189690E0,-7.226324677E-1
1.305778353E0,-4.666602135E0,-7.319046497E0,-9.810572863E-1
1.308271270E0,-4.436891556E0,-7.405188084E0,-1.240080357E0
1.310764187E0,-4.350749969E0,-7.664210796E0,-1.652244091E0
1.313257051E0,-4.259822369E0,-7.812565804E0,-1.594816327E0
1.315749968E0,-4.063013077E0,-7.846065521E0,-1.661815286E0
1.318242885E0,-4.527818680E0,-7.846065521E0,-1.474576950E0
1.320735801E0,-4.599603176E0,-7.812565804E0,-1.527817249E0
1.323228718E0,-4.537389755E0,-8.037490845E0,-1.503290772E0
1.325720801E0,-4.451248169E0,-7.860422611E0,-1.479362607E0
1.328213718E0,-4.350749969E0,-7.688138962E0,-1.292722464E0
1.330706635E0,-4.259822369E0,-7.774280548E0,-1.029511929E0
1.333199551E0,-4.384249210E0,-7.788637638E0,-7.130611539E-1
1.335692468E0,-4.446462631E0,-8.296514511E0,-5.024927258E-1
1.338185385E0,-5.069194794E0,-9.129815102E0,-5.742774606E-1
1.340678249E0,-5.691926956E0,-1.020299530E1,4.462614357E-1
1.343171166E0,-5.371288776E0,-1.110389328E1,9.541380405E-1
1.345664083E0,-4.973481655E0,-1.167876911E1,1.097707391E0
1.348156999E0,-4.815555573E0,-1.185105228E1,9.924231768E-1
1.350649916E0,-4.379463673E0,-1.176012516E1,6.765705943E-1
1.353142833E0,-4.134797573E0,-1.145862961E1,8.733802289E-2
1.355639656E0,-4.264608383E0,-1.108953667E1,-4.642075896E-1
1.358132572E0,-4.139583111E0,-1.092682457E1,-8.853443861E-1
1.360625489E0,-4.048655987E0,-1.078744221E1,-1.661815286E0
1.363118406E0,-4.341178417E0,-1.047159004E1,-2.140978098E0
1.365611322E0,-4.278964996E0,-1.039501953E1,-7.082754970E-1
1.368104239E0,-3.780659676E0,-1.025085258E1,4.175475538E-1
1.370597156E0,-3.492922783E0,-9.820143700E0,2.165504545E-1
1.373090020E0,-3.526422262E0,-9.364909172E0,-1.908276081E-1
1.375582937E0,-3.588635683E0,-8.991030693E0,-5.742774606E-1
1.378075853E0,-3.579064369E0,-8.818747520E0,-8.662018180E-1
1.380568770E0,-3.588635683E0,-8.861818314E0,-7.513462901E-1
1.383061687E0,-3.650849104E0,-8.919246674E0,-5.790630579E-1
1.385560020E0,-3.704089403E0,-8.785248756E0,-5.838487148E-1
1.388052937E0,-3.483351469E0,-8.554939270E0,-5.694918036E-1
1.390545853E0,-3.320639610E0,-8.234300613E0,-7.417750359E-1
1.393038770E0,-3.344567776E0,-7.798209190E0,-8.518448472E-1
1.395531687E0,-4.010370731E0,-8.133204460E0,-1.134796143E0
1.398024603E0,-3.976871252E0,-8.172087669E0,-1.015154958E0
1.400517468E0,-3.239283562E0,-7.707281590E0,-1.010369420E0
1.403010385E0,-3.732803345E0,-7.898707390E0,-5.647061467E-1
1.405503301E0,-3.986442566E0,-8.344370842E0,-2.626122832E-1
1.407996218E0,-5.390431404E0,-1.083529949E1,-1.335793257E0
1.410489135E0,-5.294718266E0,-1.101775169E1,-1.374078393E0
1.412982051E0,-4.417748928E0,-9.163313866E0,-1.101296663E0
1.415478666E0,-4.298107624E0,-8.382656097E0,-1.082154036E0
1.417971583E0,-4.537389755E0,-7.630711555E0,-3.774677813E-1
1.420464499E0,-4.906482697E0,-7.520043373E0,5.659025311E-1
1.422957416E0,-4.753342152E0,-7.352545738E0,6.909275651E-1
1.425450333E0,-4.987838745E0,-7.520043373E0,5.611169338E-1
1.427943249E0,-5.107480049E0,-8.152346611E0,5.850451589E-1
1.430436166E0,-4.983053207E0,-8.454441071E0,2.739782035E-1
1.432929031E0,-5.323431969E0,-8.775676727E0,1.543370634E-1
1.435421947E0,-5.433502197E0,-8.742177963E0,5.802594870E-2
1.437914864E0,-5.457430363E0,-8.766105652E0,-1.573280841E-1
1.440407781E0,-5.279763222E0,-8.650651932E0,-3.487538993E-1
1.442900697E0,-5.236692429E0,-8.631509781E0,-5.503492355E-1
1.445388718E0,-5.117051125E0,-8.655437469E0,-6.460621357E-1
1.447881635E0,-4.403391838E0,-1.046680450E1,-7.657032609E-1
1.450374551E0,-4.168296814E0,-1.258923817E1,-1.086939692E0
1.452867468E0,-5.428716183E0,-1.116610718E1,-1.771885157E0
1.455360385E0,-6.209374905E0,-1.052901745E1,-1.139581800E0
1.457853301E0,-6.233303070E0,-1.008335495E1,-9.236295223E-1
1.460346166E0,-5.965306759E0,-9.834501266E0,-1.019940615E0
1.462839083E0,-5.054837704E0,-9.824930191E0,-9.332008362E-1
1.465331999E0,-4.120440483E0,-9.805787086E0,-9.284151793E-1
1.467824916E0,-3.440280676E0,-9.628120422E0,-1.101296663E0
1.470317833E0,-3.626920938E0,-9.340981483E0,-1.235294700E0
1.472810749E0,-3.967299938E0,-9.360123634E0,-1.173081279E0
1.475312312E0,-3.646063566E0,-9.384052277E0,-1.072582722E0
1.477805228E0,-2.807977438E0,-8.751749039E0,-1.158724308E0
1.480298145E0,-2.026720762E0,-7.505686283E0,-1.086939692E0
1.482791062E0,-2.204387903E0,-6.634100914E0,-7.417750359E-1
1.485283978E0,-2.726621389E0,-6.174080849E0,-3.678964674E-1
1.487776895E0,-2.932404041E0,-6.059225082E0,-7.597211748E-2
1.490269812E0,-3.215355396E0,-6.102295876E0,9.690931439E-2
1.492762676E0,-3.449851990E0,-6.446862221E0,2.213360965E-1
1.495255593E0,-3.287140131E0,-6.777669907E0,1.304088384E-1
1.497748510E0,-3.133401155E0,-6.902096748E0,1.016949639E-1
1.500241426E0,-3.080759048E0,-7.242475986E0,4.845465720E-2
1.502734343E0,-3.056830883E0,-7.606184959E0,-7.118647546E-2
1.505218041E0,-3.066402197E0,-7.841279984E0,-4.247260094E-2
1.507710958E0,-2.855833769E0,-8.205587387E0,-4.725824669E-2
1.510203874E0,-2.851048231E0,-8.559724808E0,-8.075776696E-2
1.512696791E0,-3.032902718E0,-8.995817184E0,-1.854437590E-2
1.515189708E0,-2.822334290E0,-9.187242508E0,-1.764706671E-1
1.517682624E0,-2.448455811E0,-9.422337532E0,-8.075776696E-2
1.520175489E0,-2.065006018E0,-9.772287369E0,-9.990034252E-2
1.522668406E0,-1.878365755E0,-1.011206818E1,-4.157529473E-1
1.525161322E0,-1.753939033E0,-1.039023399E1,-6.747759581E-1
1.527654239E0,-1.102493048E0,-1.089332485E1,-9.379864931E-1
1.530147156E0,-1.035493970E0,-1.135753250E1,-1.024726272E0
1.532640072E0,-1.514058471E0,-1.165962696E1,-1.149153113E0
1.535139135E0,-1.596012712E0,-1.192822075E1,-1.407577872E0
1.537632051E0,-9.296116233E-1,-1.240199947E1,-1.862812400E0
1.540124916E0,1.101296663E0,-1.306840134E1,-2.979064226E0
1.542617885E0,3.099303484E0,-1.317847061E1,-5.379663467E0
1.545110801E0,1.255035520E0,-1.121874905E1,-6.198606968E0
1.547603718E0,8.249854088E0,-4.338785648E0,-1.332802200E1
1.550096583E0,8.925228119E0,-1.876571178E0,-2.210968208E1
1.552589499E0,-3.473780155E0,-7.137191772E0,-9.591031075E0
1.555082416E0,-9.136993408E0,-1.075872898E1,6.741777897E0
1.557575333E0,-7.968099594E0,-1.296251869E1,8.614759445E0
1.560068249E0,-6.611967087E0,-1.434736443E1,7.307082176E0
1.562561166E0,-5.510072231E0,-1.420379543E1,7.043871880E0
1.565056895E0,-3.617349625E0,-1.346560955E1,5.017150879E0
1.567549760E0,-2.505883455E0,-1.314975643E1,2.415554523E0
1.570042728E0,-2.410170555E0,-1.253659630E1,5.383851007E-3
1.572535645E0,-2.673979282E0,-1.236850071E1,-4.348955154E-1
1.575028562E0,-2.965903759E0,-1.240678501E1,-8.135597110E-1
1.577521478E0,-3.215355396E0,-1.231107235E1,-1.177866936E0
1.580014447E0,-3.492922783E0,-1.227757263E1,-1.220937729E0
1.582507364E0,-3.502494097E0,-1.227278709E1,-1.039083242E0
1.585000281E0,-3.047259569E0,-1.229193020E1,-9.236295223E-1
1.587493197E0,-2.611765862E0,-1.215314579E1,-6.077769399E-1
1.589986166E0,-2.410170555E0,-1.173619652E1,-4.492524564E-1
1.592479083E0,-2.477169752E0,-1.137189007E1,-5.551348329E-1
1.594973822E0,-2.529811859E0,-1.083529949E1,-9.284151793E-1
1.597466739E0,-2.343171597E0,-1.023170948E1,-1.240080357E0
1.599959708E0,-2.190030813E0,-9.738189697E0,-1.110867858E0
1.602452624E0,-2.089532375E0,-9.317052841E0,-1.374078393E0
1.604945541E0,-2.113460541E0,-9.125029564E0,-1.039083242E0
1.607438458E0,-1.811366796E0,-8.799605370E0,-8.470591903E-1
1.609931426E0,-1.710868239E0,-8.296514511E0,-8.518448472E-1
1.612424343E0,-2.021935225E0,-8.018348694E0,-5.072783828E-1
1.614917312E0,-2.319243431E0,-7.721638680E0,-5.599204898E-1
1.617410176E0,-2.601596355E0,-7.524828911E0,-6.891329288E-1
1.619903145E0,-2.836691141E0,-7.625327587E0,4.414757788E-1
1.622396062E0,-3.167499065E0,-7.443472862E0,9.397810698E-1
1.624884760E0,-3.253640652E0,-7.223333359E0,1.208375454E0
1.627377676E0,-3.732803345E0,-6.916453838E0,1.778465390E0
1.629870645E0,-4.293322086E0,-6.619743824E0,2.228914261E0
1.632363614E0,-5.054837704E0,-6.384648800E0,2.060818434E0
1.634856478E0,-5.836094379E0,-6.317649841E0,2.070389748E0
1.637349395E0,-6.856035233E0,-6.260222435E0,1.667797327E0
1.639842364E0,-7.914859295E0,-5.508277893E0,7.722834945E-1
1.642335281E0,-8.801400185E0,-5.277968407E0,5.515456200E-1
1.644828197E0,-9.644869804E0,-5.445466042E0,2.500499785E-1
1.647321114E0,-9.534201622E0,-5.871986866E0,-4.061816335E-1
1.649814083E0,-9.314062119E0,-6.576673031E0,-6.843472719E-1
1.652306999E0,-8.935398102E0,-7.275975227E0,-1.043868899E0
1.654793041E0,-8.638688087E0,-7.927421570E0,-1.757528186E0
1.657285958E0,-8.748757362E0,-8.363512993E0,-2.279761791E0
1.659778926E0,-8.547760963E0,-8.756534576E0,-2.432902336E0
1.662271843E0,-8.298309326E0,-9.005388260E0,-2.212762833E0
1.664764760E0,-8.461020470E0,-8.746963501E0,-2.265404940E0
1.667257676E0,-8.374878883E0,-8.502297401E0,-1.963310957E0
1.669750645E0,-9.342776299E0,-9.254839897E0,-1.771885157E0
1.672243562E0,-6.918846607E0,-8.051848412E0,-1.982453585E0
1.674736478E0,-6.444469452E0,-6.959524632E0,-2.471187592E0
1.677229395E0,-6.904489517E0,-6.777669907E0,-2.538186550E0
1.679722364E0,-6.923632145E0,-6.993024349E0,-2.069193363E0
1.682215281E0,-7.134200573E0,-7.213762283E0,-1.958525300E0
1.684708614E0,-7.239484787E0,-7.443472862E0,-1.939382792E0
1.687201531E0,-7.282555580E0,-7.553543091E0,-2.514258385E0
1.689694499E0,-7.158128738E0,-7.534400463E0,-2.341975212E0
1.692187416E0,-7.162914753E0,-7.472187042E0,-2.370688915E0
1.694680333E0,-7.258627415E0,-7.448258877E0,-2.801995277E0
1.697173249E0,-7.033702374E0,-7.640282631E0,-2.600998163E0
1.699666218E0,-7.148557663E0,-7.630711555E0,-2.461616278E0
1.702159135E0,-6.957131863E0,-7.989634991E0,-2.509472847E0
1.704652103E0,-6.952346325E0,-7.846065521E0,-2.682354212E0
1.707144968E0,-6.659823418E0,-8.291728973E0,-2.605783939E0
1.709637937E0,-6.463612080E0,-8.641080856E0,-2.265404940E0
1.712130853E0,-6.271588326E0,-8.713463783E0,-2.830709219E0
1.714624968E0,-5.534000397E0,-9.139386177E0,-1.977667928E0
1.717117885E0,-4.676173687E0,-8.837890625E0,-2.001596212E0
1.719610853E0,-3.852444410E0,-8.828319550E0,-2.112264156E0
1.722103770E0,-3.153141975E0,-9.661619186E0,-3.616153240E0
1.724596739E0,-3.315854073E0,-1.013121128E1,-2.931207657E0
1.727089603E0,-3.172284603E0,-1.024606609E1,-2.495115757E0
1.729582572E0,-2.884547710E0,-1.018863869E1,-2.677568436E0
1.732075489E0,-2.611765862E0,-1.059601688E1,-2.093121529E0
1.734568406E0,-2.007578135E0,-1.074915791E1,-1.661815286E0
1.737061322E0,-1.523629785E0,-1.071565819E1,-1.024726272E0
1.739554291E0,-1.576870084E0,-1.026042366E1,-3.726821244E-1
1.742047208E0,-1.322632670E0,-1.031844902E1,-1.053440213E0
1.744542051E0,-9.966106415E-1,-1.064387321E1,-7.992027402E-1
1.747034968E0,-9.583254457E-1,-1.060558796E1,4.031906128E-1
1.749527937E0,-6.711867452E-1,-1.086461163E1,5.994020700E-1
1.752020853E0,-6.137589812E-1,-1.020299530E1,7.292127013E-1
1.754513770E0,-2.255235314E-1,-9.858428955E0,5.371887088E-1
1.757006687E0,7.178468257E-2,-9.254839897E0,4.893322289E-1
1.759499656E0,-1.633101404E-1,-7.409973621E0,2.069791555E-1
1.761992572E0,1.758126378E0,-9.125029564E0,1.304088384E-1
1.764485489E0,2.734996319E0,-1.047637558E1,3.361915946E-1
1.766978406E0,1.537388563E0,-8.099704742E0,2.452643216E-1
1.769471374E0,1.786840320E0,-8.070990562E0,3.218346536E-1
1.771964291E0,2.462214470E0,-9.839286804E0,2.596212626E-1
1.774484083E0,2.457428932E0,-1.062473106E1,3.314059377E-1
1.776976947E0,1.844268084E0,-1.062951660E1,1.495514214E-1
1.779469916E0,5.934200287E-1,-9.599406242E0,-3.296113312E-1
1.781962833E0,2.344966233E-1,-9.777072906E0,-6.795616150E-1
1.784455749E0,-2.542374134E-1,-9.690333366E0,-7.178468108E-1
1.786948666E0,-8.386843204E-1,-9.034101486E0,-8.709874153E-1
1.789441635E0,-8.195417523E-1,-9.005388260E0,-9.188438654E-1
1.791934551E0,-5.419743061E-1,-9.288339615E0,-9.044869542E-1
1.794427520E0,-1.202393398E-1,-9.982855797E0,-7.704889178E-1
1.796920385E0,1.627119333E-1,-1.050508976E1,-5.934200287E-1
1.799413353E0,4.163511395E-1,-1.081615639E1,-4.301098585E-1
1.801906270E0,4.785645306E-1,-1.117089272E1,-8.554340899E-2
1.804373145E0,4.163511395E-1,-1.142512989E1,2.500499785E-1
1.806866114E0,3.972085714E-1,-1.162134171E1,6.622136831E-1
1.809359031E0,3.828516304E-1,-1.181276703E1,9.780662656E-1
1.811851947E0,2.584248483E-1,-1.190369415E1,1.078564763E0
1.814344916E0,2.811566554E-2,-1.201436234E1,1.198804140E0
1.816837781E0,-2.829512656E-1,-1.205743313E1,1.155733347E0
1.819330749E0,-5.563312769E-1,-1.195214939E1,9.589236975E-1
1.821823666E0,-7.046862841E-1,-1.189412308E1,7.579265833E-1
1.824316635E0,-1.045065284E0,-1.175533962E1,5.611169338E-1
1.826809499E0,-1.375274777E0,-1.130489063E1,3.122633696E-1
1.829302468E0,-1.677368641E0,-1.080179977E1,2.931207791E-2
1.831795385E0,-2.007578135E0,-1.058166027E1,-1.190429255E-1
1.834288458E0,-2.161317110E0,-1.039023399E1,-9.511470050E-2
1.836781374E0,-2.309672117E0,-1.012642574E1,-4.725824669E-2
1.839274343E0,-2.548954248E0,-1.015035343E1,-1.854437590E-2
1.841767260E0,-2.774477959E0,-1.020299530E1,-1.375873014E-2
1.844260228E0,-3.008974552E0,-1.000678444E1,-2.578266263E-1
1.846753093E0,-3.363710403E0,-9.714262009E0,-2.147558331E-1
1.849246062E0,-3.430709362E0,-9.637691498E0,-2.482553422E-1
1.851738978E0,-3.425923824E0,-9.561120987E0,-2.817548811E-1
1.854231895E0,-3.516851187E0,-9.345767021E0,-2.721835673E-1
1.856724812E0,-3.454637766E0,-9.187242508E0,-2.865405083E-1
1.859217781E0,-3.421138287E0,-9.096315384E0,-2.913261652E-1
1.861710697E0,-3.387638569E0,-9.091529846E0,-1.286142170E-1
1.864213041E0,-3.354139090E0,-9.086744308E0,2.452643216E-2
1.866705906E0,-3.296711445E0,-9.058030128E0,9.212367237E-2
1.869198874E0,-3.291925669E0,-9.091529846E0,1.064806059E-1
1.871691791E0,-3.220141172E0,-9.110671997E0,1.064806059E-1
1.874184708E0,-3.138186932E0,-9.096315384E0,7.238288224E-2
1.876677624E0,-3.157927752E0,-9.134600639E0,6.281159073E-2
1.879170593E0,-3.200998545E0,-9.125029564E0,2.931207791E-2
1.881663510E0,-3.210569859E0,-9.110671997E0,1.016949583E-2
1.884156426E0,-3.205784082E0,-9.144171715E0,7.238288224E-2
1.886649343E0,-3.095116138E0,-9.053244591E0,1.160518974E-1
1.889142312E0,-3.220141172E0,-9.182456970E0,2.404786795E-1
1.891635228E0,-3.296711445E0,-9.364909172E0,3.026920557E-1
1.894119083E0,-3.085544825E0,-9.369695663E0,2.165504545E-1
1.896611999E0,-3.612564087E0,-9.460622787E0,2.644068897E-1
1.899104968E0,-3.497708559E0,-9.436694145E0,3.170489967E-1
1.901597885E0,-3.857230186E0,-9.546764374E0,3.409772217E-1
1.904090801E0,-3.392424345E0,-9.738189697E0,3.601198196E-1
1.906583718E0,-2.736192703E0,-9.652048111E0,2.404786795E-1
1.909076687E0,-2.683550596E0,-9.470193863E0,3.888336942E-2
1.911569603E0,-2.798406124E0,-9.455837250E0,-5.204389244E-2
1.914062572E0,-2.812762976E0,-9.661619186E0,5.324030295E-2
1.916555437E0,-2.702693224E0,-9.762118340E0,1.591227055E-1
1.919048406E0,-2.611765862E0,-9.844072342E0,3.409772366E-2
1.921541322E0,-2.650051117E0,-9.791430473E0,2.452643216E-2
1.924033614E0,-2.645265341E0,-9.719047546E0,-4.187439568E-3
1.926526531E0,-2.496312141E0,-9.896714211E0,-1.375873014E-2
1.929019499E0,-2.558525562E0,-9.815358162E0,-4.187439568E-3
1.931512416E0,-2.606382132E0,-9.820143700E0,-4.247260094E-2
1.934005333E0,-2.596810818E0,-9.901499748E0,1.016949639E-1
1.936498249E0,-2.505883455E0,-9.777072906E0,2.021935135E-1
1.938991218E0,-2.712264538E0,-9.484550476E0,8.255238086E-2
1.941484135E0,-2.740978241E0,-9.690333366E0,8.733802289E-2
1.943977051E0,-2.956332445E0,-9.503693581E0,1.304088384E-1
1.946469968E0,-2.975475073E0,-9.642477036E0,2.021935135E-1
1.948962937E0,-2.932404041E0,-9.944570541E0,2.165504545E-1
1.951455853E0,-2.946761131E0,-9.844072342E0,2.452643216E-1
1.953945749E0,-3.052045345E0,-9.786644936E0,3.505485058E-1
1.956438666E0,-3.224926710E0,-9.585049629E0,2.979064286E-1
1.958931635E0,-3.052045345E0,-9.868000984E0,3.553341627E-1
1.961424551E0,-2.932404041E0,-1.060558796E1,5.994020700E-1
1.963917468E0,-3.282354355E0,-1.061994553E1,6.813562512E-1
1.966410385E0,-3.766302824E0,-1.009292603E1,5.802595019E-1
1.968903301E0,-3.962514400E0,-9.987641335E0,1.203589797E0
1.971396270E0,-4.575675011E0,-9.340981483E0,1.428515077E0
1.973889187E0,-4.992624283E0,-9.048459053E0,5.994020700E-1
1.976382103E0,-4.892126083E0,-8.713463783E0,-2.673979402E-1
1.978875020E0,-4.255036831E0,-8.693722725E0,-1.764706671E-1
1.981367989E0,-3.890729666E0,-7.999206066E0,3.074777126E-1
1.983860072E0,-3.665206194E0,-6.552146435E0,-1.908276081E-1
1.986352989E0,-2.045863390E0,-6.926024914E0,1.208375469E-1
1.988845958E0,-6.233302951E-1,-7.893921852E0,1.208375469E-1
1.991338874E0,1.627119333E-1,-8.660223007E0,-1.854437590E-2
1.993831791E0,6.801598072E-1,-9.546764374E0,1.878365725E-1
1.996324708E0,5.599204898E-1,-9.719047546E0,1.639083475E-1
1.998817676E0,4.019941986E-1,-9.781859398E0,-7.118647546E-2
2.001310593E0,5.024927258E-1,-1.029392338E1,-1.142572835E-1
2.003803510E0,5.886343718E-1,-1.096989536E1,8.009973764E-1
2.006296426E0,2.249253243E-1,-1.134796143E1,2.190030813E0
2.008789395E0,-9.248259664E-1,-1.091246796E1,2.396411896E0
2.011282312E0,-2.118246317E0,-1.005464077E1,1.222732425E0
2.013773926E0,-2.846262455E0,-9.537193298E0,5.659025311E-1
2.016266843E0,-2.975475073E0,-9.115457535E0,2.069791555E-1
2.018759812E0,-2.630908489E0,-8.995817184E0,2.931207716E-1
2.021252728E0,-1.940579176E0,-9.096315384E0,2.644068897E-1
2.023745645E0,-1.336989641E0,-9.302696228E0,1.734796464E-1
2.026238562E0,-9.152546525E-1,-9.503693581E0,8.733802289E-2
2.028731531E0,-5.754738450E-1,-9.623334885E0,-2.003988922E-1
2.031224447E0,-2.973082066E-1,-9.642477036E0,-5.982056856E-1
2.033717364E0,1.387837082E-1,-1.021256733E1,5.276173949E-1
2.036210281E0,1.264606714E0,-1.110389328E1,1.740180254E0
2.038703249E0,2.107478619E0,-1.132881927E1,1.025922656E0
2.041196166E0,2.333002090E0,-1.109910774E1,-1.956132501E-1
2.043698510E0,2.193620205E0,-1.072522926E1,-9.092726111E-1
2.046191426E0,1.820339799E0,-1.047159004E1,-1.139581800E0
2.048684343E0,1.417747378E0,-1.035673428E1,-1.192223907E0
2.051177312E0,1.077368379E0,-1.020778179E1,-1.125224829E0
2.053670228E0,7.758727670E-1,-1.015992451E1,-1.063011408E0
2.056163145E0,4.833501875E-1,-9.958928108E0,-1.307079315E0
2.058656114E0,3.254238665E-1,-9.714262009E0,-1.542174220E0
2.061149031E0,1.866401732E-1,-9.546764374E0,-1.848455548E0
2.063641947E0,6.161518395E-2,-9.427123070E0,-1.733600020E0
2.066134864E0,-7.238288224E-2,-9.465408325E0,-1.517647743E0
2.068627833E0,-2.063809484E-1,-9.604191780E0,-1.053440213E0
2.071120749E0,-3.260220885E-1,-9.920642853E0,-6.221339107E-1
2.073642624E0,-5.180460811E-1,-1.010728264E1,-1.764706671E-1
2.076135541E0,-9.008977413E-1,-1.003549862E1,-1.225723386E0
2.078628510E0,-1.293918848E0,-9.656833649E0,-2.730210543E0
2.081121426E0,-1.341775298E0,-9.436694145E0,-2.897708178E0
2.083614395E0,-1.269990563E0,-9.407979965E0,-2.231905222E0
2.086107364E0,-1.155135155E0,-9.652048111E0,-1.484148264E0
2.088600333E0,-1.140778184E0,-9.978070259E0,-1.015154958E0
2.091093249E0,-1.212562919E0,-1.022213840E1,-6.556333899E-1
2.093586218E0,-1.336989641E0,-1.043330479E1,-5.072783828E-1
2.096079187E0,-1.394417405E0,-1.060080242E1,-5.216353536E-1
2.098572156E0,-1.485344648E0,-1.073001480E1,-5.790630579E-1
2.101065072E0,-1.470987678E0,-1.077787113E1,-6.364908218E-1
2.103530385E0,-1.336989641E0,-1.089811039E1,-5.359922647E-1
2.106023353E0,-1.174277663E0,-1.085503960E1,-3.487538993E-1
2.108516322E0,-1.049850941E0,-1.086461163E1,-4.109672904E-1
2.111009239E0,-9.678967595E-1,-1.089332485E1,-5.982056856E-1
2.113502260E0,-8.626125455E-1,-1.091725349E1,-6.269195080E-1
2.115995176E0,-8.721838593E-1,-1.072522926E1,-5.359922647E-1
2.118488145E0,-8.626125455E-1,-1.053380394E1,-2.626122832E-1
2.120981062E0,-7.956135273E-1,-1.042373371E1,-1.381855011E-1
2.123474031E0,-8.578268886E-1,-1.028913784E1,-1.238285750E-1
2.125966999E0,-8.626125455E-1,-1.018385315E1,-4.247260094E-2
2.128460020E0,-8.578268886E-1,-1.007856941E1,-5.682953820E-2
2.130952885E0,-7.956135273E-1,-9.997213364E0,-1.525424421E-1
2.133438718E0,-6.807580590E-1,-9.868000984E0,-2.338984162E-1
2.135931687E0,-6.089733839E-1,-9.709476471E0,-4.348955154E-1
2.138424656E0,-4.265206456E-1,-9.503693581E0,-5.216353536E-1
2.140917572E0,-2.303091735E-1,-9.388837814E0,-4.396811724E-1
2.143410593E0,-1.824527234E-1,-9.062815666E0,-3.439682424E-1
2.145903510E0,-2.350948304E-1,-8.621937752E0,-8.554340899E-2
2.148396478E0,-1.537388563E-1,-8.363512993E0,1.830509305E-1
2.150889395E0,-1.495514158E-2,-8.239086151E0,1.543370634E-1
2.153382416E0,7.178468257E-2,-8.306085587E0,5.324030295E-2
2.155875333E0,7.178468257E-2,-8.377870560E0,-1.621137410E-1
2.158368353E0,1.004985496E-1,-8.669795036E0,-5.312066078E-1
2.160861218E0,2.811566554E-2,-8.775676727E0,-6.747759581E-1
2.163375489E0,-1.154536903E-1,-8.761320114E0,-7.609176040E-1
2.165868406E0,-2.542374134E-1,-8.732605934E0,-7.992027402E-1
2.168361374E0,-4.749752879E-1,-8.535796165E0,-6.508477330E-1
2.170854291E0,-6.759724021E-1,-8.516654015E0,-6.364908218E-1
2.173347312E0,-9.822536707E-1,-8.478368759E0,-6.604190469E-1
2.175840228E0,-1.164706469E0,-8.723034859E0,-7.274180651E-1
2.178333197E0,-1.375274777E0,-9.014959335E0,-7.513462901E-1
2.180826114E0,-1.423131227E0,-9.422337532E0,-8.997012973E-1
2.183319083E0,-1.485344648E0,-9.978070259E0,-1.034297585E0
2.185812051E0,-1.658226132E0,-1.044287586E1,-1.177866936E0
2.188305072E0,-1.825723648E0,-1.062473106E1,-1.211366415E0
2.190797937E0,-1.921436548E0,-1.071087265E1,-1.302293777E0
2.193269031E0,-1.907079697E0,-1.071087265E1,-1.292722464E0
2.195761999E0,-1.615155339E0,-1.076830006E1,-1.264008522E0
2.198254968E0,-1.504487276E0,-1.073001480E1,-1.297508121E0
2.200747885E0,-1.322632670E0,-1.059123135E1,-1.340578914E0
2.203240853E0,-1.207777262E0,-1.049551868E1,-1.460219979E0
2.205733822E0,-1.064207911E0,-1.044287586E1,-1.556531072E0
2.208226791E0,-9.152546525E-1,-1.040459061E1,-1.417149186E0
2.210719708E0,-7.908278704E-1,-1.039501953E1,-1.450648785E0
2.213212728E0,-6.520441771E-1,-1.038544846E1,-1.469791293E0
2.215705645E0,-6.807580590E-1,-1.026520920E1,-1.417149186E0
2.218198666E0,-6.711867452E-1,-1.014556789E1,-1.331007600E0
2.220691531E0,-6.041877270E-1,-1.011206818E1,-1.235294700E0
2.223180541E0,-5.994020700E-1,-1.007378292E1,-1.106082320E0
2.225673510E0,-6.089733839E-1,-9.978070259E0,-1.010369420E0
2.228166426E0,-5.419743061E-1,-1.001156998E1,-9.714859724E-1
2.230659395E0,-6.089733839E-1,-1.002114105E1,-9.332008362E-1
2.233152364E0,-6.233302951E-1,-1.010728264E1,-8.518448472E-1
2.235645333E0,-5.754738450E-1,-1.020299530E1,-7.369893789E-1
2.238138301E0,-5.946164131E-1,-1.030887794E1,-5.790630579E-1
2.240631218E0,-5.850451589E-1,-1.045723343E1,-4.785645306E-1
2.243124187E0,-5.994020700E-1,-1.051466084E1,-4.348955154E-1
2.245617156E0,-7.429714203E-1,-1.042851925E1,-3.774677813E-1
2.248110176E0,-8.865407705E-1,-1.039501953E1,-3.487538993E-1
2.250603041E0,-9.535398483E-1,-1.038066292E1,-3.200400174E-1
2.253095906E0,-1.064207911E0,-1.038544846E1,-2.099701911E-1
2.255588874E0,-1.092921734E0,-1.050508976E1,-3.768695518E-2
2.258081843E0,-9.966106415E-1,-1.047159004E1,4.366901144E-2
2.260574812E0,-1.035493970E0,-1.039501953E1,-1.525424421E-1
2.263067728E0,-1.030708313E0,-1.038544846E1,-1.621137410E-1
2.265560697E0,-1.030708313E0,-1.042373371E1,-3.391826153E-1
2.268053666E0,-1.169492126E0,-1.024606609E1,-5.647061467E-1
2.270546583E0,-1.308275819E0,-1.009771156E1,-5.694918036E-1
2.273039551E0,-1.418345571E0,-9.882357597E0,-5.694918036E-1
2.275532520E0,-1.365703583E0,-9.728618622E0,-5.455635786E-1
2.278025541E0,-1.399203062E0,-9.551549911E0,-5.551348329E-1
2.280518406E0,-1.432702541E0,-9.398408890E0,-7.369893789E-1
2.283040801E0,-1.427916884E0,-9.340981483E0,-6.747759581E-1
2.285533718E0,-1.399203062E0,-9.374481201E0,-6.556333899E-1
2.288026687E0,-1.480558991E0,-9.364909172E0,-7.369893789E-1
2.290519603E0,-1.504487276E0,-9.384052277E0,-7.274180651E-1
2.293012572E0,-1.490130305E0,-9.427123070E0,-7.704889178E-1
2.295505541E0,-1.418345571E0,-9.451051712E0,-8.279166222E-1
2.297998510E0,-1.413560033E0,-9.518050194E0,-8.853443861E-1
2.300491426E0,-1.485344648E0,-9.441479683E0,-9.523434043E-1
2.302984395E0,-1.514058471E0,-9.326624870E0,-9.714859724E-1
2.305477364E0,-1.596012712E0,-9.158528328E0,-1.029511929E0
2.307970385E0,-1.557727575E0,-9.010173798E0,-1.086939692E0
2.310463249E0,-1.537986755E0,-9.038887978E0,-1.163509965E0
2.312935124E0,-1.591227055E0,-9.000602722E0,-1.139581800E0
2.315428041E0,-1.639083505E0,-8.914461136E0,-1.086939692E0
2.317921010E0,-1.523629785E0,-8.871390343E0,-1.106082320E0
2.320413926E0,-1.686939955E0,-8.641080856E0,-1.139581800E0
2.322906947E0,-1.916650891E0,-8.306085587E0,-1.077368379E0
2.325399864E0,-1.926222205E0,-7.946564198E0,-1.134796143E0
2.327892833E0,-1.835294962E0,-7.745566845E0,-1.354935765E0
2.330385801E0,-1.686939955E0,-7.587042332E0,-1.484148264E0
2.332878718E0,-1.959721804E0,-7.151548862E0,-1.570888042E0
2.335371687E0,-2.108675003E0,-6.758527756E0,-1.465005636E0
2.337864708E0,-2.041077614E0,-6.533003807E0,-1.479362607E0
2.340357572E0,-1.854437590E0,-6.672386169E0,-1.465005636E0
2.342850176E0,-1.600798368E0,-6.820741177E0,-1.316650629E0
2.345343145E0,-1.394417405E0,-6.954739094E0,-1.192223907E0
2.347836114E0,-1.188634634E0,-6.911668301E0,-1.072582722E0
2.350329031E0,-9.678967595E-1,-6.878168583E0,-1.522433400E0
2.352822051E0,-8.913264275E-1,-6.437291145E0,-1.091725349E0
2.355314968E0,-1.126421213E0,-5.895915031E0,-5.120640397E-1
2.357807937E0,-1.456630826E0,-5.043471813E0,-1.908276081E-1
2.360300853E0,-1.739582062E0,-4.185645103E0,-6.161518395E-2
2.362793874E0,-1.773081541E0,-3.591626883E0,6.759724021E-2
2.365286791E0,-1.758724689E0,-2.892324448E0,1.112662554E-1
2.367779760E0,-1.797009826E0,-2.024926186E0,3.649054468E-1
2.370272676E0,-1.562513232E0,-1.325623751E0,7.387840152E-1
2.372766583E0,-1.188634634E0,-1.186241865E0,5.276173949E-1
2.375259551E0,-8.817551732E-1,-1.119242787E0,8.733802289E-2
2.377752520E0,-6.568298340E-1,-1.066600680E0,-1.621137410E-1
2.380245437E0,-4.797609448E-1,-9.230313301E-1,-1.381855011E-1
2.382738458E0,-3.260220885E-1,-4.534398913E-1,1.639083475E-1
2.385231374E0,-1.345962733E-1,-2.045863420E-1,3.457628787E-1
2.387724343E0,3.732803464E-1,-9.038887620E-1,-3.248256743E-1
2.390217260E0,6.370890141E-1,-1.914856315E0,-7.034898400E-1
2.392710281E0,7.710871100E-1,-2.561516523E0,-7.417750359E-1
2.395203197E0,9.194421172E-1,-3.136392355E0,-6.125625968E-1
2.397696218E0,8.763712645E-1,-3.711267948E0,-1.220937729E0
2.400189135E0,9.290133715E-1,-3.299104214E0,-8.614161611E-1
2.402677676E0,5.359922647E-1,-2.451446772E0,-9.990034252E-2
2.405170645E0,6.699903309E-2,-1.957927108E0,-3.678964674E-1
2.407663614E0,-3.020938635E-1,-1.790429592E0,-7.178468108E-1
2.410156531E0,-6.903293133E-1,-1.761715651E0,-1.657029629E0
2.412649499E0,-1.145563841E0,-2.556730986E0,-1.776670814E0
2.415142468E0,-1.696511269E0,-3.586841106E0,-5.838487148E-1
2.417635437E0,-2.175673962E0,-4.454239368E0,-3.391826153E-1
2.420128353E0,-2.017149448E0,-4.707878590E0,-1.000798106E0
2.422621374E0,-5.563312769E-1,-3.505485058E0,-4.061816216E0
2.425114291E0,-9.008977413E-1,-4.870590687E0,-4.033102512E0
2.427607312E0,-1.854437590E0,-8.847461700E0,2.123031855E0
2.430100176E0,-6.807580590E-1,-8.976674080E0,1.174875975E0
2.432595541E0,3.014956415E-1,-7.055237770E0,-3.079562664E0
2.435088510E0,-4.313062727E-1,-7.338188648E0,-7.561319470E-1
2.437581478E0,-9.200403094E-1,-9.283554077E0,2.348555326E0
2.440074395E0,-7.477570772E-1,-1.069651508E1,1.989033818E0
2.442567364E0,-6.472585201E-1,-1.069651508E1,1.457229018E0
2.445060333E0,-6.664010882E-1,-1.053380394E1,4.319044948E-1
2.447553301E0,-8.338986635E-1,-1.098425198E1,-6.125625968E-1
2.450046218E0,-7.573283911E-1,-1.167398357E1,-1.024726272E0
2.452539187E0,-5.946164131E-1,-1.256052399E1,-1.058225870E0
2.455032156E0,-2.111666054E-1,-1.283330631E1,-1.628315806E0
2.457525176E0,1.579262912E-1,-1.251745319E1,-2.413759947E0
2.460018041E0,4.833501875E-1,-1.246002579E1,-2.792423964E0
2.462517885E0,4.450650215E-1,-1.262752342E1,-2.341975212E0
2.465010801E0,4.163511395E-1,-1.254616737E1,-2.136192322E0
2.467503770E0,5.551348329E-1,-1.265623760E1,-2.346760750E0
2.469996687E0,7.998009920E-1,-1.299661636E1,-1.977667928E0
2.472489708E0,7.519445419E-1,-1.258923817E1,-8.087740541E-1
2.474982624E0,8.620143533E-1,-1.204786205E1,1.016949583E-2
2.477475593E0,8.524430394E-1,-1.198564816E1,2.931207716E-1
2.479968510E0,7.902296782E-1,-1.212921810E1,6.089733839E-1
2.482461478E0,6.658028960E-1,-1.242114258E1,6.382854581E-1
2.484954447E0,4.929214716E-1,-1.270409393E1,6.861419082E-1
2.487447468E0,4.450650215E-1,-1.285723400E1,5.850451589E-1
2.489940333E0,5.168496966E-1,-1.278544998E1,3.888336718E-1
2.492435333E0,6.179464459E-1,-1.260359478E1,1.399801224E-1
2.494928249E0,5.838487148E-1,-1.238285732E1,-1.429711580E-1
2.497421218E0,6.370890141E-1,-1.196172047E1,-3.056831062E-1
2.499914135E0,5.072783828E-1,-1.148734283E1,-3.439682424E-1
2.502407103E0,5.551348329E-1,-1.132881927E1,-4.929214716E-1
2.504900072E0,5.503492355E-1,-1.140120125E1,-5.551348329E-1
2.507393041E0,3.541377485E-1,-1.137189007E1,-7.417750359E-1
2.509885958E0,3.780659735E-1,-1.137189007E1,-9.475577474E-1
2.512378926E0,2.823530734E-1,-1.158305645E1,-1.010369420E0
2.514871895E0,2.584248483E-1,-1.180798149E1,-8.279166222E-1
2.517364916E0,6.083751321E-1,-1.198564816E1,-7.369893789E-1
2.519857781E0,7.615157962E-1,-1.217707443E1,-6.652047038E-1
2.522349395E0,6.849454641E-1,-1.277109241E1,-5.647061467E-1
2.524842312E0,5.742774606E-1,-1.341775322E1,-6.987041831E-1
2.527335281E0,6.131607890E-1,-1.387777328E1,-9.236295223E-1
2.529828197E0,6.753742099E-1,-1.426122284E1,-9.236295223E-1
2.532321166E0,7.710871100E-1,-1.441436386E1,-8.422735929E-1
2.534814135E0,8.811569214E-1,-1.411765385E1,-8.470591903E-1
2.537307103E0,8.428717852E-1,-1.379163170E1,-8.997012973E-1
2.539800020E0,7.519445419E-1,-1.360020542E1,-9.188438654E-1
2.542293041E0,5.790630579E-1,-1.357627773E1,-8.087740541E-1
2.544785958E0,3.589234054E-1,-1.351346588E1,-5.264210105E-1
2.547278978E0,2.632105052E-1,-1.327418327E1,-5.551348329E-1
2.549771843E0,2.440679073E-1,-1.308275795E1,-7.513462901E-1
2.552254291E0,2.727817893E-1,-1.282852077E1,-8.901300430E-1
2.554747260E0,3.158525825E-1,-1.226321602E1,-1.072582722E0
2.557240228E0,3.206382394E-1,-1.166919804E1,-1.474576950E0
2.559733145E0,3.828516304E-1,-1.145384407E1,-1.738385677E0
2.562226166E0,3.302095234E-1,-1.113739300E1,-1.527817249E0
2.564719083E0,1.674975902E-1,-1.068215847E1,-1.187438250E0
2.567212051E0,-6.759724021E-2,-1.002114105E1,-8.183453679E-1
2.569704968E0,-2.111666054E-1,-9.699904442E0,-4.157529473E-1
2.572197937E0,-2.781656384E-1,-9.546764374E0,-1.429711580E-1
2.574690906E0,-4.025924206E-1,-9.709476471E0,1.495514158E-2
2.577183926E0,-4.265206456E-1,-9.968499184E0,1.878365725E-1
2.579676791E0,-3.882354796E-1,-1.015513897E1,2.883351147E-1
2.582161583E0,-2.733799815E-1,-1.043809032E1,2.165504545E-1
2.584654499E0,-2.207378894E-1,-1.081137085E1,2.213360965E-1
2.587147416E0,-2.398804724E-1,-1.160219860E1,3.888336942E-2
2.589640333E0,-2.925225794E-1,-1.229193020E1,-2.291127741E-1
2.592133249E0,-4.701896608E-1,-1.290030479E1,-3.343969584E-1
2.594626166E0,-6.185446382E-1,-1.331246853E1,-3.822534084E-1
2.597119031E0,-4.941178858E-1,-1.441914940E1,-5.551348329E-1
2.599611947E0,-2.398804724E-1,-1.571785355E1,-7.130611539E-1
2.602104864E0,-3.164508045E-1,-1.696810341E1,-9.236295223E-1
2.604597781E0,-2.398804724E-1,-1.814656830E1,-1.211366415E0
2.607090697E0,-1.968096644E-1,-1.863051796E1,-1.402792215E0
2.609583614E0,-3.786641955E-1,-1.816092491E1,-8.566305041E-1
2.612097312E0,-4.025924206E-1,-1.652722549E1,1.064806059E-1
2.614590228E0,5.024927258E-1,-1.481217003E1,4.127618968E-1
2.617083145E0,7.998009920E-1,-1.515733528E1,1.639083475E-1
2.619576062E0,7.088736892E-1,-1.562632847E1,3.888336942E-2
2.622068978E0,6.131607890E-1,-1.591885090E1,-2.482553422E-1
2.624561895E0,5.072783828E-1,-1.656072617E1,-7.848458290E-1
2.627054760E0,4.163511395E-1,-1.740898132E1,-1.206580877E0
2.629547676E0,3.110669553E-1,-1.786900139E1,-1.546959877E0
2.632040593E0,1.866401732E-1,-1.794557190E1,-1.609173179E0
2.634533510E0,3.768695518E-2,-1.761954880E1,-1.661815286E0
2.637026426E0,-4.366901144E-2,-1.701117516E1,-1.623530149E0
2.639519343E0,8.614161611E-2,-1.626401520E1,-1.517647743E0
2.642000176E0,1.674975902E-1,-1.540618896E1,-1.388435364E0
2.644493093E0,2.440679073E-1,-1.459681606E1,-1.235294700E0
2.646986010E0,5.264210105E-1,-1.385384464E1,-1.034297585E0
2.649478926E0,7.854440212E-1,-1.315932846E1,-8.757730722E-1
2.651971843E0,1.029511929E0,-1.260838032E1,-8.327022791E-1
2.654464708E0,1.288534999E0,-1.211007500E1,-8.614161611E-1
2.656957624E0,1.527817249E0,-1.172183990E1,-8.757730722E-1
2.659450541E0,1.724626899E0,-1.150648594E1,-8.853443861E-1
2.661943458E0,1.939980984E0,-1.131924725E1,-8.901300430E-1
2.664436374E0,2.097907305E0,-1.121874905E1,-9.906286001E-1
2.666929291E0,2.188834429E0,-1.110389328E1,-1.091725349E0
2.669422208E0,2.078764677E0,-1.098425198E1,-1.240080357E0
2.671919447E0,1.906481385E0,-1.089332485E1,-1.402792215E0
2.674412364E0,1.767697692E0,-1.073480034E1,-1.508076429E0
2.676905281E0,1.666600943E0,-1.050508976E1,-1.633101463E0
2.679398197E0,1.628315806E0,-1.034716320E1,-1.824527264E0
2.681891114E0,1.566102386E0,-1.038066292E1,-2.346760750E0
2.684384031E0,1.188036442E0,-9.973284721E0,-2.241476536E0
2.686876947E0,1.235892892E0,-9.455837250E0,-1.814955950E0
2.689369812E0,1.341177106E0,-9.259625435E0,-1.680957913E0
2.691862728E0,1.336391449E0,-9.105886459E0,-1.388435364E0
2.694355645E0,1.451246977E0,-9.019744873E0,-9.619147182E-1
2.696848562E0,1.542174220E0,-9.091529846E0,-7.465606928E-1
2.699341478E0,1.537388563E0,-9.235696793E0,-1.039083242E0
2.701841583E0,1.503889084E0,-9.446265221E0,-1.417149186E0
2.704334499E0,1.422533035E0,-9.585049629E0,-1.685743570E0
2.706827416E0,1.417747378E0,-9.738189697E0,-1.695314884E0
2.709320333E0,1.427318692E0,-9.920642853E0,-1.695314884E0
2.711813249E0,1.302891970E0,-1.000678444E1,-1.834098577E0
2.714306166E0,1.259821177E0,-1.010728264E1,-1.877169371E0
2.716799031E0,1.192822099E0,-1.019820976E1,-1.819741607E0
2.719291947E0,1.110867858E0,-1.024128056E1,-1.771885157E0
2.721784864E0,1.000798106E0,-1.024128056E1,-1.676172256E0
2.724277781E0,9.385846853E-1,-1.020778179E1,-1.561316729E0
2.726770697E0,8.859425783E-1,-1.014078236E1,-1.465005636E0
2.729263614E0,8.476574421E-1,-1.003071213E1,-1.393221021E0
2.731754864E0,9.050851464E-1,-1.002592659E1,-1.402792215E0
2.734247781E0,8.715856671E-1,-1.002592659E1,-1.426720500E0
2.736740697E0,8.428717852E-1,-1.013599682E1,-1.455434322E0
2.739233614E0,7.471588850E-1,-1.015513897E1,-1.556531072E0
2.741726531E0,6.801598072E-1,-1.016949654E1,-1.618744493E0
2.744219447E0,5.599204898E-1,-1.018863869E1,-1.680957913E0
2.746712312E0,4.594219327E-1,-1.012642574E1,-1.795813441E0
2.749205228E0,3.493520916E-1,-1.009292603E1,-1.886740685E0
2.751698145E0,2.679961324E-1,-1.017428207E1,-1.881955028E0
2.754191062E0,2.632105052E-1,-1.039501953E1,-1.944168448E0
2.756683978E0,5.120640397E-1,-1.049551868E1,-1.958525300E0
2.759176895E0,6.514459848E-1,-1.042851925E1,-1.604387641E0
2.761671531E0,4.689932466E-1,-1.025085258E1,-1.455434322E0
2.764164447E0,2.249253243E-1,-1.000678444E1,-1.585245013E0
2.766657364E0,1.244267747E-1,-9.906285286E0,-1.566102386E0
2.769150281E0,6.161518395E-2,-9.848857880E0,-1.474576950E0
2.771643197E0,1.244267747E-1,-9.844072342E0,-1.417149186E0
2.774136114E0,1.818545163E-1,-9.791430473E0,-1.374078393E0
2.776628978E0,2.775674164E-1,-9.815358162E0,-1.278365493E0
2.779121895E0,3.732803464E-1,-9.772287369E0,-1.240080357E0
2.781614812E0,4.594219327E-1,-9.680762291E0,-1.177866936E0
2.784107728E0,4.881358147E-1,-9.656833649E0,-1.139581800E0
2.786600645E0,5.264210105E-1,-9.589835167E0,-1.115653515E0
2.789093562E0,5.647061467E-1,-9.575477600E0,-1.063011408E0
2.791578822E0,6.323033571E-1,-9.604191780E0,-1.034297585E0
2.794071739E0,6.562315822E-1,-9.599406242E0,-9.906286001E-1
2.796564656E0,6.658028960E-1,-9.604191780E0,-9.475577474E-1
2.799057572E0,7.040880919E-1,-9.585049629E0,-9.236295223E-1
2.801550489E0,7.328019142E-1,-9.565906525E0,-8.901300430E-1
2.804043406E0,7.854440212E-1,-9.661619186E0,-8.949156404E-1
2.806536270E0,7.998009920E-1,-9.632905960E0,-8.997012973E-1
2.809029187E0,7.710871100E-1,-9.632905960E0,-8.949156404E-1
2.811522103E0,8.285148144E-1,-9.628120422E0,-8.949156404E-1
2.814015020E0,8.811569214E-1,-9.628120422E0,-8.901300430E-1
2.816507937E0,8.811569214E-1,-9.685547829E0,-9.188438654E-1
2.819000853E0,9.002995491E-1,-9.699904442E0,-1.000798106E0
2.821495228E0,9.720842242E-1,-9.757332802E0,-1.029511929E0
2.823988145E0,1.005583763E0,-9.815358162E0,-1.077368379E0
2.826481062E0,1.091725349E0,-9.829715729E0,-1.082154036E0
2.828973978E0,1.110867858E0,-9.853643417E0,-1.096511006E0
2.831466895E0,1.159322619E0,-9.906285286E0,-1.144367456E0
2.833959812E0,1.168893814E0,-9.915857315E0,-1.211366415E0
2.836452728E0,1.188036442E0,-9.906285286E0,-1.220937729E0
2.838945593E0,1.183250785E0,-9.930213928E0,-1.268794179E0
2.841438510E0,1.231107235E0,-9.901499748E0,-1.307079315E0
2.843931426E0,1.264606714E0,-9.882357597E0,-1.393221021E0
2.846424343E0,1.240678549E0,-9.877572060E0,-1.517647743E0
2.848917260E0,1.250249863E0,-9.877572060E0,-1.633101463E0
2.851410593E0,1.235892892E0,-9.824930191E0,-1.743171334E0
2.853903510E0,1.293320656E0,-9.844072342E0,-1.881955028E0
2.856396426E0,1.283749342E0,-9.805787086E0,-2.001596212E0
2.858889343E0,1.231107235E0,-9.772287369E0,-2.088335991E0
2.861382260E0,1.264606714E0,-9.820143700E0,-2.150549412E0
2.863875124E0,1.293320656E0,-9.786644936E0,-2.236690998E0
2.866368041E0,1.288534999E0,-9.853643417E0,-2.303689957E0
2.868860958E0,1.250249863E0,-9.863214493E0,-2.399402857E0
2.871353874E0,1.192822099E0,-9.820143700E0,-2.475973129E0
2.873846791E0,1.178465128E0,-9.810572624E0,-2.495115757E0
2.876339708E0,1.149751306E0,-9.796216011E0,-2.519043922E0
2.878832624E0,1.115653515E0,-9.820143700E0,-2.533401012E0
2.881323614E0,1.125224829E0,-9.848857880E0,-2.566900492E0
2.883816531E0,1.091725349E0,-9.844072342E0,-2.552543640E0
2.886309447E0,1.053440213E0,-9.810572624E0,-2.533401012E0
2.888802364E0,1.067797065E0,-9.839286804E0,-2.514258385E0
2.891295281E0,1.101296663E0,-9.872786522E0,-2.528615236E0
2.893788197E0,1.115653515E0,-9.863214493E0,-2.475973129E0
2.896281114E0,1.125224829E0,-9.882357597E0,-2.385046005E0
2.898773978E0,1.164108157E0,-9.906285286E0,-2.337189436E0
2.901266895E0,1.183250785E0,-9.992427826E0,-2.265404940E0
2.903759812E0,1.250249863E0,-1.002592659E1,-2.174477577E0
2.906252728E0,1.336391449E0,-1.010728264E1,-2.073979139E0
2.908745645E0,1.374676585E0,-1.012164021E1,-2.011167526E0
2.911249395E0,1.408176184E0,-1.022213840E1,-1.968096614E0
2.913742312E0,1.436890006E0,-1.026520920E1,-1.891526341E0
2.916235228E0,1.484746456E0,-1.030887794E1,-1.848455548E0
2.918728145E0,1.523031592E0,-1.039023399E1,-1.767099500E0
2.921221062E0,1.527817249E0,-1.043809032E1,-1.709671736E0
2.923713978E0,1.542174220E0,-1.041894817E1,-1.719243050E0
2.926206843E0,1.575673699E0,-1.038544846E1,-1.680957913E0
2.928699760E0,1.633101463E0,-1.037109184E1,-1.733600020E0
2.931192676E0,1.695913076E0,-1.042373371E1,-1.709671736E0
2.933685593E0,1.753340840E0,-1.041416264E1,-1.676172256E0
2.936178510E0,1.805982947E0,-1.033759212E1,-1.747956991E0
2.938671426E0,2.030908108E0,-1.041416264E1,-1.805384636E0
2.941153822E0,2.069193363E0,-1.042851925E1,-1.829312921E0
2.943646739E0,2.102692842E0,-1.045723343E1,-1.963310957E0
2.946139656E0,2.131406784E0,-1.050508976E1,-2.020738840E0
2.948632572E0,2.150549412E0,-1.050508976E1,-2.069193363E0
2.951125489E0,2.203191519E0,-1.054337502E1,-2.169692039E0
2.953618406E0,2.261217356E0,-1.055773163E1,-2.265404940E0
2.956111270E0,2.256431818E0,-1.059123135E1,-2.337189436E0
2.958604187E0,2.237289190E0,-1.063908768E1,-2.361117840E0
2.961097103E0,2.232503414E0,-1.064865875E1,-2.485544443E0
2.963590020E0,2.275574446E0,-1.070130062E1,-2.514258385E0
2.966082937E0,2.467000246E0,-1.085503960E1,-2.533401012E0
2.968575853E0,2.505285263E0,-1.095075321E1,-2.639283419E0
2.971066010E0,2.486142635E0,-1.092682457E1,-2.749353170E0
2.973558926E0,2.419143677E0,-1.093161011E1,-2.892922640E0
2.976051843E0,2.438286304E0,-1.100818062E1,-2.993421078E0
2.978544760E0,2.423929453E0,-1.100818062E1,-3.093919754E0
2.981037676E0,2.467000246E0,-1.104168034E1,-3.214159012E0
2.983530593E0,2.467000246E0,-1.102732277E1,-3.329014540E0
2.986023510E0,2.423929453E0,-1.102253723E1,-3.458226919E0
2.988516374E0,2.380858421E0,-1.095553875E1,-3.563511133E0
2.991009291E0,2.586641312E0,-1.109432220E1,-3.577867985E0
2.993502208E0,2.648854733E0,-1.109432220E1,-3.664009571E0
2.995995124E0,2.687139750E0,-1.108475113E1,-3.765106440E0
2.998488041E0,2.759522676E0,-1.107996559E1,-3.798605919E0
3.000981426E0,2.797807932E0,-1.110389328E1,-3.851248026E0
3.003474343E0,2.840878725E0,-1.108953667E1,-3.961317778E0
3.005967260E0,2.927020311E0,-1.110867882E1,-3.961317778E0
3.008460176E0,2.960519791E0,-1.106560802E1,-4.013959885E0
3.010953093E0,3.022733212E0,-1.102253723E1,-3.980460405E0
3.013446010E0,3.046661377E0,-1.099860954E1,-4.023531437E0
3.015938926E0,3.041875839E0,-1.096510983E1,-4.104887009E0
3.018431791E0,3.046661377E0,-1.097468090E1,-4.186243057E0
3.020924708E0,3.094517946E0,-1.093161011E1,-4.215555191E0
3.023417624E0,3.151945591E0,-1.092203903E1,-4.339982033E0
3.025910541E0,3.238087177E0,-1.089811039E1,-4.397409916E0
3.028403458E0,3.324826956E0,-1.089811039E1,-4.454837322E0
3.030894708E0,3.358326674E0,-1.081615639E1,-4.521836758E0
3.033387624E0,3.415754318E0,-1.076830006E1,-4.636692047E0
3.035880541E0,3.477967739E0,-1.074437141E1,-4.756931305E0
3.038373458E0,3.396611691E0,-1.063430214E1,-5.072783947E0
3.040866374E0,3.521038532E0,-1.057208824E1,-4.631906509E0
3.043359291E0,3.521038532E0,-1.044766140E1,-4.598406792E0
3.045852208E0,3.482753277E0,-1.034237766E1,-4.502694130E0
3.048345072E0,3.616751432E0,-1.021256733E1,-4.234697819E0
3.050837989E0,3.669393539E0,-1.005464077E1,-4.080958843E0
3.053330906E0,3.511467218E0,-9.915857315E0,-4.306482315E0
3.055823822E0,3.583251953E0,-9.752547264E0,-3.717249870E0
3.058316739E0,3.477967739E0,-9.561120987E0,-3.515654564E0
3.060811114E0,3.454039574E0,-9.441479683E0,-3.362514019E0
3.063304031E0,3.372683525E0,-9.317052841E0,-3.142374277E0
3.065796947E0,3.257229805E0,-9.215956688E0,-2.988635540E0
3.068289864E0,3.142374277E0,-9.101100922E0,-2.907279491E0
3.070782781E0,2.903092146E0,-8.976674080E0,-2.816352367E0
3.073275697E0,2.711068153E0,-8.890532494E0,-2.821137905E0
3.075768614E0,2.495713949E0,-8.742177963E0,-2.653640270E0
3.078261478E0,2.218146563E0,-8.574081421E0,-2.648854733E0
3.080754395E0,1.839482427E0,-8.516654015E0,-2.672782898E0
3.083247312E0,1.637887120E0,-8.435297966E0,-2.576471806E0
3.085740228E0,1.331605792E0,-8.301300049E0,-2.490330219E0
3.088233145E0,1.029511929E0,-8.176873207E0,-2.490330219E0
3.090723822E0,7.615157962E-1,-8.027919769E0,-2.485544443E0
3.093216739E0,4.163511395E-1,-7.951349735E0,-2.437688112E0
3.095709708E0,2.057827413E-1,-7.898707390E0,-2.255833626E0
3.098202572E0,-1.495514158E-2,-7.798209190E0,-2.174477577E0
3.100695489E0,-3.068794906E-1,-7.692924976E0,-2.150549412E0
3.103188406E0,-3.403790295E-1,-7.692924976E0,-1.987239242E0
3.105681322E0,-3.786641955E-1,-7.640282631E0,-1.925025821E0
3.108174291E0,-4.456632137E-1,-7.567899704E0,-1.996810555E0
3.110667208E0,-4.600201547E-1,-7.539186001E0,-2.121835470E0
3.113160124E0,-4.941178858E-1,-7.520043373E0,-2.294118643E0
3.115653041E0,-4.456632137E-1,-7.481758118E0,-2.504687071E0
3.118145958E0,-3.595215976E-1,-7.457829952E0,-2.629712105E0
3.120645437E0,-2.494517565E-1,-7.457829952E0,-2.696711063E0
3.123138353E0,-1.345962733E-1,-7.486543655E0,-2.854637384E0
3.125631270E0,7.657032460E-2,-7.481758118E0,-2.959921598E0
3.128124187E0,3.589234054E-1,-7.520043373E0,-3.055634499E0
3.130617103E0,5.982056856E-1,-7.520043373E0,-3.180659533E0
3.133110020E0,7.950153351E-1,-7.543971539E0,-3.352942705E0
3.135602937E0,9.242277741E-1,-7.476972580E0,-3.722035646E0
3.138095906E0,1.427318692E0,-7.606184959E0,-3.597010612E0
3.140588822E0,1.829911113E0,-7.668996811E0,-3.587439299E0
3.143081739E0,1.992623091E0,-7.678567886E0,-3.731606960E0
3.145574708E0,2.213361025E0,-7.774280548E0,-3.779463291E0
3.148067572E0,2.447857618E0,-7.731209755E0,-3.817748547E0
3.150558406E0,2.653640270E0,-7.788637638E0,-3.884747505E0
3.153051322E0,2.816950560E0,-7.793423176E0,-3.894318819E0
3.155544239E0,2.970091105E0,-7.779066563E0,-3.827319860E0
3.158037156E0,3.061018467E0,-7.745566845E0,-3.870390654E0
3.160530072E0,3.094517946E0,-7.659425259E0,-3.870390654E0
3.163022989E0,3.070589542E0,-7.558328629E0,-3.884747505E0
3.165515958E0,3.218944550E0,-7.543971539E0,-3.879961967E0
3.168008874E0,3.266801119E0,-7.505686283E0,-3.851248026E0
3.170501791E0,3.147160053E0,-7.419544697E0,-3.884747505E0
3.172994708E0,3.137588739E0,-7.386045456E0,-3.937389612E0
3.175487624E0,3.108874798E0,-7.381259441E0,-3.860819340E0
3.177980541E0,2.984447956E0,-7.338188648E0,-3.817748547E0
3.180481114E0,2.845664263E0,-7.299903870E0,-3.908675671E0
3.182974031E0,2.773879766E0,-7.271189690E0,-3.913461447E0
3.185466999E0,2.644068956E0,-7.228118896E0,-3.927818298E0
3.187959864E0,2.514856577E0,-7.208976269E0,-3.889533281E0
3.190452781E0,2.428714991E0,-7.170691490E0,-3.884747505E0
3.192945697E0,2.342573404E0,-7.189833641E0,-3.879961967E0
3.195438614E0,2.275574446E0,-7.185048103E0,-3.836891174E0
3.197931583E0,2.198405743E0,-7.180262566E0,-3.841676712E0
3.200424499E0,2.140978098E0,-7.146762848E0,-3.927818298E0
3.202917416E0,2.021337032E0,-7.132406235E0,-3.918246984E0
3.205410385E0,1.959123492E0,-7.127620220E0,-3.899104595E0
3.207903249E0,1.963909149E0,-7.127620220E0,-3.908675671E0
3.210388926E0,1.939980984E0,-7.045666218E0,-3.918246984E0
3.212881843E0,1.748555183E0,-7.036095142E0,-4.052245140E0
3.215374812E0,1.810768485E0,-7.026523590E0,-4.071387768E0
3.217867676E0,2.059622049E0,-7.113263607E0,-3.889533281E0
3.220360593E0,2.097907305E0,-7.137191772E0,-3.832105398E0
3.222853510E0,2.030908108E0,-7.141977310E0,-3.856033802E0
3.225346426E0,1.992623091E0,-7.132406235E0,-3.889533281E0
3.227839395E0,1.959123492E0,-7.083951473E0,-3.918246984E0
3.230332312E0,1.959123492E0,-7.118049145E0,-3.860819340E0
3.232825228E0,1.930409670E0,-7.094120979E0,-3.832105398E0
3.235318197E0,1.916052699E0,-7.088737011E0,-3.841676712E0
3.237811062E0,1.916052699E0,-7.118049145E0,-3.846462488E0
3.240308926E0,1.973480463E0,-7.108478069E0,-3.851248026E0
3.242801843E0,1.949552298E0,-7.074379921E0,-3.822534084E0
3.245294812E0,1.978266120E0,-7.094120979E0,-3.793820381E0
3.247787676E0,1.949552298E0,-7.074379921E0,-3.832105398E0
3.250280593E0,1.992623091E0,-7.108478069E0,-3.803391695E0
3.252773510E0,2.040479422E0,-7.088737011E0,-3.793820381E0
3.255266478E0,2.083550215E0,-7.040880680E0,-3.822534084E0
3.257759395E0,2.035693884E0,-7.007380962E0,-3.846462488E0
3.260252312E0,2.136192322E0,-7.016952515E0,-3.827319860E0
3.262745228E0,2.155334949E0,-6.973881721E0,-3.798605919E0
3.265238145E0,2.145763636E0,-6.964310169E0,-3.803391695E0
3.267731062E0,2.203191519E0,-6.949953556E0,-3.817748547E0
3.270219031E0,2.256431818E0,-6.902096748E0,-3.827319860E0
3.272711947E0,2.256431818E0,-6.949953556E0,-3.817748547E0
3.275204916E0,2.266003132E0,-6.911668301E0,-3.836891174E0
3.277697781E0,2.342573404E0,-6.849454880E0,-3.903890133E0
3.280190697E0,2.385644197E0,-6.844669342E0,-3.884747505E0
3.282683614E0,2.404786825E0,-6.873383045E0,-3.865604877E0
3.285176531E0,2.457428932E0,-6.835097790E0,-3.923032761E0
3.287669499E0,2.462214470E0,-6.796812534E0,-3.951746702E0
3.290162416E0,2.490928411E0,-6.763313293E0,-4.018745422E0
3.292655333E0,2.572284460E0,-6.839883327E0,-3.975674868E0
3.295148249E0,2.687139750E0,-6.863811970E0,-3.980460405E0
3.297641166E0,2.749951363E0,-6.873383045E0,-4.047459602E0
3.300138822E0,2.812164783E0,-6.859025955E0,-4.119244099E0
3.302631739E0,2.888735056E0,-6.868597507E0,-4.143172264E0
3.305124708E0,3.003590584E0,-6.892525673E0,-4.157529354E0
3.307617572E0,3.065804005E0,-6.911668301E0,-4.263411522E0
3.310110489E0,3.128017426E0,-6.930810928E0,-4.320839405E0
3.312603406E0,3.209373474E0,-6.916453838E0,-4.344767570E0
3.315096374E0,3.286541939E0,-6.935596466E0,-4.445266247E0
3.317589291E0,3.363112211E0,-6.949953556E0,-4.488337040E0
3.320082208E0,3.367897987E0,-6.959524632E0,-4.569693089E0
3.322575124E0,3.420539856E0,-6.983452797E0,-4.603192329E0
3.325068093E0,3.425325632E0,-6.993024349E0,-4.679762840E0
3.327560958E0,3.343969584E0,-7.031309128E0,-4.718048096E0
3.330050958E0,3.266801119E0,-6.978667259E0,-4.785645485E0
3.332543874E0,3.310470104E0,-7.002595425E0,-4.857429981E0
3.335036791E0,3.468396425E0,-7.146762848E0,-4.886143684E0
3.337529708E0,3.430111170E0,-7.180262566E0,-5.024927616E0
3.340022676E0,3.387040377E0,-7.161119938E0,-5.178068161E0
3.342515541E0,3.286541939E0,-7.194619656E0,-5.235496044E0
3.345008458E0,3.166302681E0,-7.175477028E0,-5.379663467E0
3.347501426E0,3.128017426E0,-7.223333359E0,-5.484947681E0
3.349994343E0,3.108874798E0,-7.275975227E0,-5.638088226E0
3.352487260E0,3.089732170E0,-7.319046497E0,-5.748157978E0
3.354980176E0,3.013161898E0,-7.381259441E0,-5.906682491E0
3.357473145E0,2.883949518E0,-7.467401028E0,-6.026323795E0
3.359964447E0,2.831307411E0,-7.496115208E0,-6.174678802E0
3.362457364E0,2.788236618E0,-7.510472298E0,-6.227321148E0
3.364950281E0,2.682354212E0,-7.505686283E0,-6.313462734E0
3.367443197E0,2.663211584E0,-7.534400463E0,-6.409773827E0
3.369936114E0,2.610569477E0,-7.548757076E0,-6.510272026E0
3.372429031E0,2.572284460E0,-7.553543091E0,-6.471987247E0
3.374921999E0,2.486142635E0,-7.606184959E0,-6.366703033E0
3.377414916E0,2.462214470E0,-7.524828911E0,-6.193821430E0
3.379907833E0,2.438286304E0,-7.472187042E0,-6.093322754E0
3.382400749E0,2.342573404E0,-7.333403111E0,-5.968895912E0
3.384893666E0,2.309073925E0,-7.180262566E0,-5.714658737E0
3.387386583E0,2.318645239E0,-7.079165936E0,-5.528018475E0
3.389880645E0,2.299502611E0,-6.902096748E0,-5.389235020E0
3.392373562E0,2.337787628E0,-6.729813576E0,-5.173282623E0
3.394866478E0,2.404786825E0,-6.542575359E0,-5.015356064E0
3.397359447E0,2.471785784E0,-6.480361938E0,-5.072783947E0
3.399852312E0,2.567498684E0,-6.298507214E0,-5.106283665E0
3.402345228E0,2.745165825E0,-6.231508255E0,-5.120640278E0
3.404838145E0,2.840878725E0,-6.183651924E0,-5.245067120E0
3.407331114E0,2.912663460E0,-6.131010056E0,-5.446662426E0
3.409824031E0,3.099303484E0,-6.121438503E0,-5.604588985E0
3.412316947E0,3.228515863E0,-6.159723759E0,-5.772086620E0
3.414809864E0,3.271586657E0,-6.217151642E0,-5.964110374E0
3.417302833E0,3.300898790E0,-6.250650883E0,-6.179464340E0
3.419800437E0,3.247658491E0,-6.303293228E0,-6.327819347E0
3.422293353E0,3.233301640E0,-6.341578007E0,-6.438487530E0
3.424786218E0,3.166302681E0,-6.427719593E0,-6.538986206E0
3.427279135E0,3.161516905E0,-6.504290104E0,-6.610770702E0
3.429772051E0,3.142374277E0,-6.581458569E0,-6.711269379E0
3.432264968E0,3.075375319E0,-6.658029079E0,-6.778268337E0
3.434757937E0,3.037090063E0,-6.720242500E0,-6.830910206E0
3.437250853E0,2.989233732E0,-6.772884369E0,-6.835696220E0
3.439743770E0,2.970091105E0,-6.820741177E0,-6.840481758E0
3.442236687E0,2.984447956E0,-6.921239376E0,-6.802196503E0
3.444729656E0,3.027518749E0,-6.973881721E0,-6.821339130E0
3.447222572E0,3.017947674E0,-6.978667259E0,-6.744768620E0
3.449709603E0,3.142374277E0,-7.007380962E0,-6.658627033E0
3.452202520E0,3.137588739E0,-6.993024349E0,-6.586842537E0
3.454695437E0,3.128017426E0,-7.026523590E0,-6.577271461E0
3.457188406E0,3.003590584E0,-6.983452797E0,-6.601199627E0
3.459681270E0,2.941377163E0,-6.930810928E0,-6.505486488E0
3.462174239E0,2.850450039E0,-6.844669342E0,-6.491129398E0
3.464667103E0,2.730210543E0,-6.763313293E0,-6.428916454E0
3.467160072E0,2.586641312E0,-6.701099873E0,-6.342176437E0
3.469652989E0,2.562713146E0,-6.576673031E0,-6.327819347E0
3.472145906E0,2.462214470E0,-6.485147476E0,-6.275177479E0
3.474638822E0,2.251646042E0,-6.365506649E0,-6.246463299E0
3.477131791E0,1.997408748E0,-6.217151642E0,-6.212964058E0
3.479626322E0,1.829911113E0,-6.102295876E0,-6.136393547E0
3.482119239E0,1.734198213E0,-6.040082455E0,-6.059823513E0
3.484612156E0,1.657029629E0,-5.991627693E0,-5.968895912E0
3.487105072E0,1.767697692E0,-6.005984783E0,-5.854040623E0
3.489598041E0,1.959123492E0,-6.068796635E0,-5.882754326E0
3.492090906E0,2.208575249E0,-6.226722717E0,-6.035895348E0
3.494583874E0,2.371287346E0,-6.427719593E0,-6.400202274E0
3.497076791E0,2.950948477E0,-6.849454880E0,-6.582056999E0
3.499569708E0,3.525824070E0,-7.433901787E0,-6.898507595E0
3.502062624E0,4.043272018E0,-8.196015358E0,-7.343572617E0
3.504555593E0,4.474578381E0,-9.086744308E0,-7.664809227E0
3.507048458E0,4.896313190E0,-1.005942631E1,-7.908876896E0
3.509538145E0,4.828716278E0,-1.111346436E1,-8.105687141E0
3.512031062E0,4.901099205E0,-1.233978653E1,-7.923233986E0
3.514524031E0,5.140381336E0,-1.376291752E1,-7.463811874E0
3.517016895E0,5.643472195E0,-1.537747478E1,-6.806982040E0
3.519509812E0,5.949753284E0,-1.724567032E1,-6.189035892E0
3.522002728E0,6.457630157E0,-1.931546211E1,-5.537590027E0
3.524495645E0,6.965506554E0,-2.153839493E1,-5.029713154E0
3.526988614E0,7.406384468E0,-2.381935310E1,-4.948357105E0
3.529481531E0,7.861618996E0,-2.609971237E1,-5.154139996E0
3.531974447E0,7.976474285E0,-2.823650360E1,-5.729015827E0
3.534467364E0,7.535596848E0,-3.015315437E1,-6.706483841E0
3.536960333E0,6.769295216E0,-3.171985435E1,-8.268398285E0
3.539454135E0,5.586044312E0,-3.273022461E1,-1.040997505E1
3.541947051E0,3.611965895E0,-3.296532059E1,-1.272862053E1
3.544439968E0,1.288534999E0,-3.236172867E1,-1.474098396E1
3.546932885E0,-8.099704385E-1,-3.086202812E1,-1.546002674E1
3.549425801E0,-2.650051117E0,-2.838485909E1,-1.465962791E1
3.551918718E0,-4.034298897E0,-2.502653122E1,-1.253240871E1
3.554411687E0,-3.847658873E0,-2.124647141E1,-9.241081238E0
3.556904603E0,-2.529811859E0,-1.772004890E1,-5.781657696E0
3.559397520E0,-8.865407705E-1,-1.438564968E1,-2.974278450E0
3.561890489E0,7.519445419E-1,-1.130967617E1,-8.231309652E-1
3.564383406E0,2.495713949E0,-8.416155815E0,9.014959335E-1
3.566876270E0,4.110270977E0,-5.709274769E0,2.315055847E0
3.569369968E0,5.485546112E0,-3.141177893E0,3.598805189E0
3.571862885E0,6.649653912E0,-7.124629617E-1,5.017150879E0
3.574355801E0,7.478168964E0,1.606780410E0,6.832705021E0
3.576848718E0,8.115856171E0,3.867997885E0,9.046066284E0
3.579341635E0,8.633303642E0,6.047859192E0,1.136530972E1
3.581834551E0,9.111868858E0,7.805985451E0,1.347817135E1
3.584327468E0,9.547960281E0,9.042476654E0,1.492463303E1
3.586820437E0,9.940981865E0,9.823135376E0,1.561974812E1
3.589313353E0,1.029093170E1,1.006301594E1,1.536551094E1
3.591806270E0,1.046800041E1,9.746564865E0,1.424925900E1
3.594299187E0,1.068814087E1,9.061619759E0,1.248156071E1
3.596792156E0,1.083230782E1,8.088936806E0,1.014796066E1
3.599282989E0,1.075513935E1,7.068397999E0,7.287939548E0
3.601775906E0,1.057328510E1,5.947360516E0,3.958326817E0
3.604268822E0,1.023290634E1,4.730610371E0,3.170489967E-1
3.606761791E0,9.667601585E0,3.307479143E0,-3.410370588E0
3.609254708E0,8.796015739E0,1.621137381E0,-7.109076023E0
3.611747624E0,7.579265594E0,-2.907279432E-1,-1.002173901E1
3.614240541E0,6.361917019E0,-2.327019930E0,-1.185703468E1
3.616733510E0,5.130809784E0,-4.482953072E0,-1.279143143E1
3.619226374E0,3.779463291E0,-6.653243542E0,-1.264247799E1
3.621719291E0,2.658426046E0,-8.723034859E0,-1.152144146E1
3.624212208E0,1.637887120E0,-1.067258739E1,-9.916455269E0
3.626705176E0,6.514459848E-1,-1.245524025E1,-8.009973526E0
3.629200697E0,-3.212364316E-1,-1.410329628E1,-6.126822472E0
3.631693614E0,-1.293918848E0,-1.547797298E1,-4.373481750E0
3.634186531E0,-2.352742910E0,-1.664686775E1,-2.739781857E0
3.636679447E0,-3.354139090E0,-1.757169342E1,-1.259222865E0
3.639172416E0,-4.274179459E0,-1.834816360E1,-6.640082598E-2
3.641665333E0,-5.035695076E0,-1.893261147E1,9.589236975E-1
3.644158249E0,-5.763711452E0,-1.933460426E1,1.533799291E0
3.646651166E0,-6.363113403E0,-1.957927132E1,2.137388945E0
3.649144083E0,-6.712465763E0,-1.973241234E1,2.592623234E0
3.651636999E0,-7.009773731E0,-1.967019844E1,2.770290375E0
3.654129916E0,-7.268198967E0,-1.947877312E1,2.904288530E0
3.656622885E0,-7.469794273E0,-1.916232109E1,2.937788010E0
3.659111114E0,-7.675576687E0,-1.875015831E1,2.803789854E0
3.661604031E0,-7.661220074E0,-1.821356773E1,2.520838737E0
3.664096947E0,-7.508079052E0,-1.764826393E1,2.089532375E0
3.666589864E0,-7.095915318E0,-1.695853233E1,1.567298889E0
3.669082833E0,-6.497111797E0,-1.626401520E1,8.632107973E-1
3.671575749E0,-5.850451469E0,-1.548275852E1,5.982056609E-4
3.674068666E0,-5.136193752E0,-1.459203053E1,-9.523434043E-1
3.676561635E0,-4.503890514E0,-1.365284824E1,-1.896311998E0
3.679054499E0,-3.823730469E0,-1.281416321E1,-2.835494757E0
3.681547416E0,-3.128615618E0,-1.200000572E1,-3.712464333E0
3.684040333E0,-2.462812662E0,-1.125703430E1,-4.421338081E0
3.686533301E0,-1.825723648E0,-1.063908768E1,-4.871787071E0
3.689027468E0,-1.279561877E0,-1.000678444E1,-5.058426857E0
3.691520385E0,-9.152546525E-1,-9.470193863E0,-5.029713154E0
3.694013301E0,-5.611169338E-1,-9.024530411E0,-4.383052826E0
3.696506270E0,-3.547359705E-1,-8.554939270E0,-4.502694130E0
3.698999187E0,-2.350948304E-1,-8.080561638E0,-3.946960926E0
3.701492103E0,-5.802594870E-2,-7.731209755E0,-3.185445070E0
3.703985020E0,1.722832322E-1,-7.476972580E0,-2.566900492E0
3.706477989E0,3.876372576E-1,-7.256833076E0,-2.030309916E0
3.708970853E0,5.694918036E-1,-7.113263607E0,-1.647458434E0
3.711463770E0,6.753742099E-1,-7.031309128E0,-1.383649707E0
3.713956687E0,8.428717852E-1,-6.959524632E0,-1.268794179E0
3.716449656E0,9.912267923E-1,-6.945167542E0,-1.211366415E0
3.718943874E0,1.192822099E0,-6.954739094E0,-1.197009563E0
3.721436791E0,1.365105271E0,-7.040880680E0,-1.158724308E0
3.723929708E0,1.451246977E0,-7.079165936E0,-1.177866936E0
3.726422624E0,1.561316729E0,-7.118049145E0,-1.201795220E0
3.728915593E0,1.599601984E0,-7.127620220E0,-1.173081279E0
3.731408510E0,1.537388563E0,-7.228118896E0,-1.211366415E0
3.733901426E0,1.499103427E0,-7.309474945E0,-1.268794179E0
3.736394395E0,1.546959877E0,-7.409973621E0,-1.297508121E0
3.738887260E0,1.537388563E0,-7.486543655E0,-1.345364571E0
3.741380176E0,1.475175142E0,-7.630711555E0,-1.421934843E0
3.743873093E0,1.456032634E0,-7.735995770E0,-1.479362607E0
3.746366062E0,1.412961721E0,-7.951349735E0,-1.527817249E0
3.748865541E0,1.345962763E0,-8.176873207E0,-1.566102386E0
3.751358458E0,1.365105271E0,-8.416155815E0,-1.561316729E0
3.753851374E0,1.259821177E0,-8.607581139E0,-1.633101463E0
3.756344291E0,1.283749342E0,-8.790034294E0,-1.628315806E0
3.758837260E0,1.341177106E0,-9.048459053E0,-1.512862086E0
3.761330176E0,1.312463164E0,-9.250054359E0,-1.474576950E0
3.763823093E0,1.235892892E0,-9.446265221E0,-1.450648785E0
3.766316062E0,1.207179070E0,-9.652048111E0,-1.364507079E0
3.768808978E0,1.188036442E0,-9.911071777E0,-1.316650629E0
3.771301843E0,1.120439172E0,-1.013121128E1,-1.292722464E0
3.773794760E0,1.058225870E0,-1.028913784E1,-1.249651670E0
3.776287728E0,1.029511929E0,-1.044766140E1,-1.254437327E0
3.778776218E0,9.433703423E-1,-1.060558796E1,-1.273579836E0
3.781269135E0,9.002995491E-1,-1.070130062E1,-1.273579836E0
3.783762051E0,9.098708034E-1,-1.076351452E1,-1.211366415E0
3.786255020E0,8.285148144E-1,-1.083051395E1,-1.163509965E0
3.788747937E0,7.423732281E-1,-1.079701424E1,-1.130010486E0
3.791240853E0,6.610172391E-1,-1.073480034E1,-1.091725349E0
3.793733770E0,5.742774606E-1,-1.068215847E1,-1.024726272E0
3.796226687E0,5.359922647E-1,-1.062473106E1,-8.997012973E-1
3.798719603E0,3.876372576E-1,-1.047637558E1,-7.609176040E-1
3.801212520E0,1.387837082E-1,-1.037109184E1,-6.125625968E-1
3.803705437E0,1.854437590E-2,-1.035194874E1,-3.439682424E-1
3.806198406E0,9.571290761E-2,-1.033759212E1,-4.594219327E-1
3.808690853E0,1.052841991E-1,-1.029870892E1,-4.253242314E-1
3.811183770E0,9.092725813E-2,-1.015992451E1,-4.253242314E-1
3.813676687E0,5.682953820E-2,-1.012164021E1,-4.348955154E-1
3.816169656E0,7.178468257E-2,-1.011685371E1,-4.540380836E-1
3.818662572E0,9.092725813E-2,-1.000678444E1,-4.205385745E-1
3.821155489E0,-1.974078640E-2,-9.944570541E0,-4.157529473E-1
3.823648406E0,-8.673982322E-2,-9.887143135E0,-4.833501875E-1
3.826141322E0,-1.537388563E-1,-9.791430473E0,-5.455635786E-1
3.828634239E0,-2.255235314E-1,-9.747760773E0,-5.551348329E-1
3.831127156E0,-3.595215976E-1,-9.695118904E0,-5.647061467E-1
3.833620072E0,-4.600201547E-1,-9.675976753E0,-5.312066078E-1
3.836113041E0,-5.754738450E-1,-9.628120422E0,-5.742774606E-1
3.838613666E0,-7.238288522E-1,-9.570692062E0,-5.599204898E-1
3.841106583E0,-9.104689956E-1,-9.570692062E0,-5.072783828E-1
3.843599499E0,-1.073779106E0,-9.570692062E0,-4.737788737E-1
3.846092416E0,-1.183848977E0,-9.565906525E0,-4.977070987E-1
3.848585385E0,-1.289133191E0,-9.589835167E0,-5.503492355E-1
3.851078301E0,-1.427916884E0,-9.608977318E0,-5.168496966E-1
3.853571218E0,-1.480558991E0,-9.594620705E0,-4.881358147E-1
3.856064187E0,-1.494915962E0,-9.575477600E0,-5.264210105E-1
3.858557051E0,-1.572084427E0,-9.522835732E0,-5.455635786E-1
3.861050020E0,-1.696511269E0,-9.508479118E0,-5.312066078E-1
3.863542885E0,-1.758724689E0,-9.494122505E0,-5.216353536E-1
3.866035853E0,-1.753939033E0,-9.460622787E0,-5.934200287E-1
3.868520853E0,-1.753939033E0,-9.403194427E0,-6.747759581E-1
3.871013770E0,-1.706082582E0,-9.417551994E0,-7.513462901E-1
3.873506739E0,-1.572084427E0,-9.379266739E0,-8.087740541E-1
3.875999656E0,-1.423131227E0,-9.340981483E0,-8.662018180E-1
3.878492572E0,-1.289133191E0,-9.307481766E0,-9.475577474E-1
3.880985489E0,-1.164706469E0,-9.259625435E0,-1.029511929E0
3.883478406E0,-1.068993568E0,-9.215956688E0,-1.091725349E0
3.885971374E0,-9.822536707E-1,-9.225527763E0,-1.197009563E0
3.888464239E0,-8.482556343E-1,-9.215956688E0,-1.273579836E0
3.890957156E0,-6.520441771E-1,-9.283554077E0,-1.316650629E0
3.893450072E0,-5.132604837E-1,-9.321838379E0,-1.393221021E0
3.895943041E0,-4.169493318E-1,-9.403194427E0,-1.431506157E0
3.898433197E0,-2.925225794E-1,-9.474979401E0,-1.431506157E0
3.900926114E0,-1.441675574E-1,-9.580264091E0,-1.398006678E0
3.903419031E0,3.290131316E-2,-9.704689980E0,-1.364507079E0
3.905911999E0,1.722832322E-1,-9.820143700E0,-1.335793257E0
3.908404916E0,2.919243574E-1,-9.968499184E0,-1.302293777E0
3.910897833E0,4.163511395E-1,-1.001156998E1,-1.244866014E0
3.913390749E0,4.402793646E-1,-1.011206818E1,-1.187438250E0
3.915883718E0,4.833501875E-1,-1.019820976E1,-1.063011408E0
3.918376583E0,5.647061467E-1,-1.026520920E1,-1.048654556E0
3.920869499E0,6.131607890E-1,-1.029870892E1,-1.048654556E0
3.923362416E0,6.801598072E-1,-1.033759212E1,-9.810572863E-1
3.925855385E0,6.849454641E-1,-1.039023399E1,-9.284151793E-1
3.928350176E0,6.658028960E-1,-1.043330479E1,-9.332008362E-1
3.930843093E0,6.658028960E-1,-1.035194874E1,-8.709874153E-1
3.933336010E0,6.562315822E-1,-1.031844902E1,-8.422735929E-1
3.935828978E0,7.184450030E-1,-1.027956581E1,-7.465606928E-1
3.938321895E0,7.423732281E-1,-1.020778179E1,-6.795616150E-1
3.940814812E0,6.945167780E-1,-1.012642574E1,-6.795616150E-1
3.943307728E0,7.088736892E-1,-1.002592659E1,-5.647061467E-1
3.945800645E0,7.088736892E-1,-9.877572060E0,-4.689932466E-1
3.948293562E0,6.562315822E-1,-9.738189697E0,-4.540380836E-1
3.950786478E0,5.407779217E-1,-9.628120422E0,-3.870390654E-1
3.953279395E0,4.689932466E-1,-9.470193863E0,-3.008974493E-1
3.955772364E0,3.684946895E-1,-9.326624870E0,-3.631108403E-1
3.958275437E0,2.584248483E-1,-9.177671432E0,-3.056831062E-1
3.960768353E0,1.435693651E-1,-9.091529846E0,-3.343969584E-1
3.963261270E0,7.178468257E-2,-9.034101486E0,-3.296113312E-1
3.965754187E0,4.247260094E-2,-8.947959900E0,-3.535395563E-1
3.968247156E0,6.161518395E-2,-8.943174362E0,-3.535395563E-1
3.970740072E0,4.247260094E-2,-8.933603287E0,-3.248256743E-1
3.973232989E0,-5.383851007E-3,-8.876175880E0,-4.109672904E-1
3.975725958E0,3.768695518E-2,-8.876175880E0,-4.205385745E-1
3.978218874E0,9.571290761E-2,-8.904889107E0,-4.444667995E-1
3.980711739E0,6.161518395E-2,-8.852247238E0,-5.359922647E-1
3.983204656E0,1.387837082E-1,-8.880961418E0,-6.125625968E-1
3.985697624E0,1.674975902E-1,-8.900103569E0,-8.279166222E-1
3.988180124E0,2.249253243E-1,-8.924032211E0,-9.236295223E-1
3.990673041E0,2.727817893E-1,-8.981459618E0,-9.906286001E-1
3.993165958E0,2.584248483E-1,-9.000602722E0,-1.120439172E0
3.995658926E0,2.153540403E-1,-8.995817184E0,-1.187438250E0
3.998151843E0,2.536391914E-1,-9.024530411E0,-1.225723386E0
4.000644760E0,2.536391914E-1,-9.086744308E0,-1.268794179E0
4.003137676E0,1.866401732E-1,-9.172885895E0,-1.192223907E0
4.005630593E0,1.387837082E-1,-9.235696793E0,-1.149153113E0
4.008123510E0,5.204389244E-2,-9.235696793E0,-1.029511929E0
4.010616426E0,-7.238288224E-2,-9.264410973E0,-8.997012973E-1
4.013109343E0,-1.489532143E-1,-9.288339615E0,-7.609176040E-1
4.015602312E0,-2.638086975E-1,-9.307481766E0,-6.221339107E-1
4.018099603E0,-3.308077157E-1,-9.436694145E0,-4.785645306E-1
4.020592520E0,-3.499503136E-1,-9.513264656E0,-3.726821244E-1
4.023085437E0,-4.121637046E-1,-9.561120987E0,-3.391826153E-1
4.025578406E0,-4.648058116E-1,-9.551549911E0,-3.439682424E-1
4.028071322E0,-4.701896608E-1,-9.656833649E0,-3.822534084E-1
4.030564239E0,-4.456632137E-1,-9.680762291E0,-4.396811724E-1
4.033057156E0,-3.786641955E-1,-9.781859398E0,-5.551348329E-1
4.035550072E0,-2.781656384E-1,-9.896714211E0,-6.699903607E-1
4.038042989E0,-2.350948304E-1,-9.882357597E0,-7.944171429E-1
4.040535906E0,-1.202393398E-1,-9.934999466E0,-9.523434043E-1
4.043028822E0,-1.495514158E-2,-9.992427826E0,-1.182652593E0
4.045521791E0,1.244267747E-1,-1.001635551E1,-1.354935765E0
4.048019135E0,2.249253243E-1,-1.006899738E1,-1.690529227E0
4.050512051E0,3.302095234E-1,-1.011206818E1,-2.049452543E0
4.053004968E0,4.546363056E-1,-1.009771156E1,-2.475973129E0
4.055497937E0,5.551348329E-1,-1.016471100E1,-2.888136864E0
4.057990853E0,6.610172391E-1,-1.021735287E1,-3.333800077E0
4.060483770E0,7.136593461E-1,-1.020778179E1,-3.717249870E0
4.062976687E0,7.423732281E-1,-1.026520920E1,-4.057030678E0
4.065469603E0,6.753742099E-1,-1.029870892E1,-4.349553585E0
4.067962520E0,5.024927258E-1,-1.035194874E1,-4.488337040E0
4.070455489E0,4.354937077E-1,-1.046201897E1,-4.440480709E0
4.072948353E0,3.445664644E-1,-1.061994553E1,-4.277768612E0
4.075441322E0,2.249253243E-1,-1.074437141E1,-3.899104595E0
4.077929083E0,1.148554832E-1,-1.086939716E1,-3.434298754E0
4.080422051E0,1.004985496E-1,-1.109432220E1,-2.983849764E0
4.082914916E0,-1.016949583E-2,-1.130489063E1,-2.615355253E0
4.085407885E0,8.973085321E-3,-1.153041458E1,-2.274976015E0
4.087900801E0,6.161518395E-2,-1.169791126E1,-1.953739643E0
4.090393718E0,1.579262912E-1,-1.193779182E1,-1.695314884E0
4.092886635E0,2.584248483E-1,-1.206700420E1,-1.445863128E0
4.095379603E0,4.785645306E-1,-1.222014523E1,-1.378864050E0
4.097872468E0,7.328019142E-1,-1.235892868E1,-1.450648785E0
4.100365385E0,9.481559992E-1,-1.245524025E1,-1.517647743E0
4.102858301E0,1.192822099E0,-1.251266766E1,-1.604387641E0
4.105351270E0,1.503889084E0,-1.246481133E1,-1.795813441E0
4.107845801E0,1.786840320E0,-1.243549919E1,-1.934597135E0
4.110338718E0,2.054836512E0,-1.238285732E1,-2.054238319E0
4.112831635E0,2.371287346E0,-1.232064342E1,-2.174477577E0
4.115324603E0,2.615355253E0,-1.223928738E1,-2.246262312E0
4.117817520E0,2.883949518E0,-1.224407387E1,-2.274976015E0
4.120310437E0,3.118446112E0,-1.213878918E1,-2.337189436E0
4.122803406E0,3.324826956E0,-1.202871990E1,-2.380260229E0
4.125296322E0,3.415754318E0,-1.194257736E1,-2.389831543E0
4.127789239E0,3.458825111E0,-1.187976646E1,-2.394617319E0
4.130282156E0,3.444468260E0,-1.189890862E1,-2.413759947E0
4.132775124E0,3.425325632E0,-1.188933754E1,-2.442473650E0
4.135268041E0,3.281756163E0,-1.192822075E1,-2.519043922E0
4.137761583E0,3.147160053E0,-1.206221867E1,-2.557329178E0
4.140254551E0,3.003590584E0,-1.211486149E1,-2.566900492E0
4.142747416E0,2.816950560E0,-1.222493076E1,-2.547757864E0
4.145240385E0,2.658426046E0,-1.225843048E1,-2.557329178E0
4.147733301E0,2.495713949E0,-1.233021545E1,-2.547757864E0
4.150226218E0,2.237289190E0,-1.227757263E1,-2.528615236E0
4.152719187E0,2.002194405E0,-1.229671574E1,-2.480758905E0
4.155212156E0,1.748555183E0,-1.225843048E1,-2.404188633E0
4.157705020E0,1.374676585E0,-1.224407387E1,-2.270190477E0
4.160197937E0,1.091725349E0,-1.223928738E1,-2.160120726E0
4.162690906E0,6.993024349E-1,-1.227278709E1,-1.972882271E0
4.165183874E0,3.493520916E-1,-1.233021545E1,-1.743171334E0
4.167675333E0,-5.802594870E-2,-1.247916794E1,-1.493719578E0
4.170168249E0,-4.121637046E-1,-1.267537975E1,-1.283151150E0
4.172661166E0,-6.951149702E-1,-1.294816113E1,-1.024726272E0
4.175154187E0,-8.961120844E-1,-1.323111248E1,-7.178468108E-1
4.177647051E0,-1.088136077E0,-1.356192017E1,-4.205385745E-1
4.180139968E0,-1.231705427E0,-1.387298775E1,-9.032905847E-2
4.182632937E0,-1.360917926E0,-1.419900990E1,2.261217386E-1
4.185125906E0,-1.470987678E0,-1.456271839E1,5.324030519E-1
4.187618770E0,-1.576870084E0,-1.479302788E1,7.818548083E-1
4.190111739E0,-1.682154298E0,-1.495095444E1,1.016351461E0
4.192604656E0,-1.720439434E0,-1.503709602E1,1.112064362E0
4.195097624E0,-1.768295884E0,-1.504188156E1,1.073779106E0
4.197587989E0,-1.710868239E0,-1.501316738E1,9.780662656E-1
4.200080906E0,-1.634297848E0,-1.505623817E1,6.957131624E-1
4.202573822E0,-1.499701619E0,-1.500838184E1,3.649054468E-1
4.205066843E0,-1.356132269E0,-1.496531105E1,1.974078640E-2
4.207559708E0,-1.121635556E0,-1.488395500E1,-3.966103494E-1
4.210052676E0,-7.716853023E-1,-1.481695557E1,-8.087740541E-1
4.212545593E0,-3.595215976E-1,-1.472124290E1,-1.273579836E0
4.215038562E0,1.579262912E-1,-1.458724499E1,-1.776670814E0
4.217531426E0,7.519445419E-1,-1.441914940E1,-2.265404940E0
4.220024395E0,1.255035520E0,-1.410808277E1,-2.691925526E0
4.222517312E0,1.715055585E0,-1.368634701E1,-3.069991350E0
4.225010281E0,2.174477577E0,-1.324068451E1,-3.477369547E0
4.227506687E0,2.586641312E0,-1.276630688E1,-3.851248026E0
4.229999656E0,2.941377163E0,-1.227278709E1,-4.061816216E0
4.232492520E0,3.190230846E0,-1.177926731E1,-4.320839405E0
4.234985541E0,3.420539856E0,-1.139641571E1,-4.502694130E0
4.237478406E0,3.516252756E0,-1.107996559E1,-4.555335999E0
4.239971322E0,3.568894863E0,-1.081615639E1,-4.569693089E0
4.242464291E0,3.482753277E0,-1.060080242E1,-4.526622295E0
4.244957260E0,3.382254839E0,-1.041416264E1,-4.445266247E0
4.247450124E0,3.348755360E0,-1.022692394E1,-4.320839405E0
4.249943041E0,3.223730326E0,-1.012164021E1,-4.143172264E0
4.252436010E0,3.046661377E0,-1.004985523E1,-3.980460405E0
4.254928978E0,2.869592667E0,-9.949356079E0,-3.750749588E0
4.257433041E0,2.677568436E0,-9.853643417E0,-3.611367464E0
4.259926010E0,2.529213428E0,-9.810572624E0,-3.515654564E0
4.262418874E0,2.428714991E0,-9.829715729E0,-3.386442184E0
4.264911895E0,2.261217356E0,-9.853643417E0,-3.247658491E0
4.267404760E0,2.174477577E0,-9.801001549E0,-3.137588739E0
4.269897676E0,2.040479422E0,-9.791430473E0,-2.931207657E0
4.272390645E0,1.930409670E0,-9.810572624E0,-2.763710260E0
4.274883614E0,1.815554142E0,-9.791430473E0,-2.595614433E0
4.277376478E0,1.782054663E0,-9.868000984E0,-2.361117840E0
4.279869447E0,1.743769526E0,-9.978070259E0,-2.203191519E0
4.282362364E0,1.753340840E0,-1.015035343E1,-1.963310957E0
4.284855333E0,1.825125456E0,-1.033280659E1,-1.786242127E0
4.287336531E0,1.935195327E0,-1.055773163E1,-1.517647743E0
4.289829499E0,2.059622049E0,-1.084068298E1,-1.173081279E0
4.292322364E0,2.198405743E0,-1.107039356E1,-8.039883971E-1
4.294815385E0,2.342573404E0,-1.127139091E1,-2.291127741E-1
4.297308249E0,2.376072884E0,-1.147777176E1,6.041877270E-1
4.299801166E0,2.328216314E0,-1.158784199E1,1.629512191E0
4.302294135E0,2.285145521E0,-1.173141098E1,2.693121910E0
4.304787103E0,2.126621008E0,-1.187976646E1,3.723232031E0
4.307279968E0,2.064407825E0,-1.203829098E1,4.542773724E0
4.309772885E0,2.054836512E0,-1.219143105E1,5.361717224E0
4.312265853E0,2.045265198E0,-1.233500099E1,6.004190445E0
4.314758822E0,1.973480463E0,-1.238285732E1,6.482754707E0
4.317255333E0,2.145763636E0,-1.257966709E1,6.784848690E0
4.319748249E0,2.385644197E0,-1.270409393E1,6.837490559E0
4.322241166E0,2.567498684E0,-1.283809185E1,6.636493683E0
4.324734187E0,2.759522676E0,-1.303490162E1,6.176473618E0
4.327227051E0,2.984447956E0,-1.321197033E1,5.572884083E0
4.329719968E0,3.171088219E0,-1.334118271E1,4.969294548E0
4.332212937E0,3.377469063E0,-1.349432373E1,4.058825493E0
4.334705906E0,3.588037491E0,-1.369591904E1,3.100499868E0
4.337198770E0,3.659822226E0,-1.385384464E1,2.065604210E0
4.339691687E0,3.731606960E0,-1.408415413E1,1.006780148E0
4.342184656E0,3.745963812E0,-1.428993702E1,1.974078640E-2
4.344677624E0,3.650250912E0,-1.446700573E1,-6.747759581E-1
4.347168926E0,3.511467218E0,-1.456271839E1,-1.359721422E0
4.349661895E0,3.204587698E0,-1.461595917E1,-2.088335991E0
4.352154760E0,2.802593470E0,-1.460160160E1,-2.639283419E0
4.354647781E0,2.400001049E0,-1.455314732E1,-2.897708178E0
4.357140645E0,1.997408748E0,-1.451964760E1,-2.677568436E0
4.359633562E0,1.705484390E0,-1.457228947E1,-3.568296671E0
4.362126531E0,1.436890006E0,-1.459681606E1,-4.627120972E0
4.364619499E0,1.183250785E0,-1.458724499E1,-4.785645485E0
4.367112364E0,1.029511929E0,-1.464945889E1,-4.646263599E0
4.369605281E0,1.091725349E0,-1.475474262E1,-4.569693089E0
4.372098249E0,1.240678549E0,-1.478824234E1,-4.478765965E0
4.374591218E0,1.384247899E0,-1.474995708E1,-4.162314892E0
4.377079395E0,1.691127419E0,-1.463510132E1,-3.779463291E0
4.379572312E0,2.064407825E0,-1.440957832E1,-3.309871912E0
4.382065228E0,2.371287346E0,-1.411765385E1,-2.711068153E0
4.384558249E0,2.567498684E0,-1.375813198E1,-2.121835470E0
4.387051114E0,2.677568436E0,-1.333639717E1,-1.570888042E0
4.389544031E0,2.778665304E0,-1.284766293E1,-1.019940615E0
4.392036999E0,2.624926329E0,-1.233021545E1,-5.742774606E-1
4.394529968E0,2.428714991E0,-1.194257736E1,-4.205385745E-1
4.397022833E0,2.342573404E0,-1.166919804E1,-4.205385745E-1
4.399515749E0,2.294716835E0,-1.140598774E1,-6.556333899E-1
4.402008718E0,2.184048891E0,-1.119003487E1,-7.800601721E-1
4.404501687E0,2.121835470E0,-1.096989536E1,-7.322037220E-1
4.407026426E0,1.987837434E0,-1.070130062E1,-6.747759581E-1
4.409519343E0,2.059622049E0,-1.067258739E1,-2.386840582E-1
4.412012260E0,2.059622049E0,-1.051944637E1,6.281159073E-2
4.414505228E0,1.839482427E0,-1.037587738E1,2.787638307E-1
4.416998145E0,1.618744493E0,-1.026999474E1,2.883351147E-1
4.419491114E0,1.398604870E0,-1.012642574E1,2.596212626E-1
4.421983978E0,1.183250785E0,-9.973284721E0,2.548356056E-1
4.424476999E0,1.005583763E0,-9.848857880E0,2.979064286E-1
4.426969864E0,8.380861282E-1,-9.766903877E0,9.690931439E-2
4.429462781E0,7.998009920E-1,-9.589835167E0,-4.247260094E-2
4.431955697E0,7.136593461E-1,-9.364909172E0,1.782652885E-1
4.434448718E0,6.179464459E-1,-9.177671432E0,5.324030519E-1
4.436911791E0,5.790630579E-1,-8.981459618E0,6.717849374E-1
4.439404708E0,5.264210105E-1,-8.809176445E0,6.765705943E-1
4.441897676E0,4.163511395E-1,-8.693722725E0,6.526423693E-1
4.444390645E0,3.924229145E-1,-8.564510345E0,4.893322289E-1
4.446883510E0,3.972085714E-1,-8.425726891E0,4.606183469E-1
4.449376426E0,3.302095234E-1,-8.282156944E0,3.266202807E-1
4.451869395E0,3.158525825E-1,-8.167302132E0,2.500499785E-1
4.454362364E0,2.632105052E-1,-8.003992081E0,1.926222295E-1
4.456855228E0,2.105683982E-1,-7.889136314E0,2.117647976E-1
4.459348145E0,2.536391914E-1,-7.745566845E0,2.739782035E-1
4.461841114E0,3.158525825E-1,-7.596613884E0,2.835494876E-1
4.464334083E0,4.307080805E-1,-7.496115208E0,3.792623878E-1
4.466835906E0,5.694918036E-1,-7.280761242E0,4.845465720E-1
4.469328822E0,5.503492355E-1,-7.083951473E0,5.611169338E-1
4.471821739E0,4.450650215E-1,-6.906882763E0,6.041877270E-1
4.474314760E0,3.349951804E-1,-6.768098831E0,6.526423693E-1
4.476807624E0,3.397808075E-1,-6.638886452E0,7.244270444E-1
4.479300593E0,4.067798555E-1,-6.571887493E0,7.579265833E-1
4.481793510E0,4.785645306E-1,-6.437291145E0,7.914260626E-1
4.484286478E0,5.599204898E-1,-6.379863262E0,7.818548083E-1
4.486779343E0,6.323033571E-1,-6.169294834E0,7.770691514E-1
4.489272312E0,6.849454641E-1,-6.035296917E0,8.201399446E-1
4.491765228E0,6.658028960E-1,-5.953342915E0,7.387840152E-1
4.494258197E0,6.227321029E-1,-5.848058701E0,5.515456200E-1
4.496743406E0,7.902296782E-1,-5.685346603E0,6.717849374E-1
4.499236322E0,9.194421172E-1,-5.478965759E0,8.440681696E-1
4.501729239E0,9.481559992E-1,-5.306682587E0,8.057830334E-1
4.504222260E0,1.005583763E0,-5.187041283E0,7.627122402E-1
4.506715124E0,1.010369420E0,-4.990829945E0,7.579265833E-1
4.509208093E0,9.912267923E-1,-4.813162804E0,6.957131624E-1
4.511701010E0,9.960124493E-1,-4.602594376E0,6.574280262E-1
4.514193978E0,1.010369420E0,-4.405784607E0,6.622136831E-1
4.516686843E0,9.960124493E-1,-4.195216179E0,6.813562512E-1
4.519179812E0,9.864411354E-1,-4.042075634E0,6.909275651E-1
4.521672728E0,9.625129104E-1,-3.811766386E0,6.957131624E-1
4.524165697E0,7.806583643E-1,-3.548556089E0,5.898307562E-1
4.526662885E0,1.067797065E0,-3.476771355E0,7.866404653E-1
4.529155801E0,1.202393413E0,-3.371487141E0,8.679963946E-1
4.531648718E0,1.183250785E0,-3.246462107E0,8.249256015E-1
4.534141739E0,1.164108157E0,-3.098107100E0,7.292127013E-1
4.536634603E0,1.192822099E0,-3.021536827E0,7.292127013E-1
4.539127572E0,1.159322619E0,-2.882753134E0,6.669993401E-1
4.541620489E0,1.072582722E0,-2.748156786E0,5.754738450E-1
4.544113458E0,1.077368379E0,-2.724228621E0,5.898307562E-1
4.546606322E0,1.115653515E0,-2.609373093E0,5.994020700E-1
4.549099239E0,1.120439172E0,-2.470589399E0,5.659025311E-1
4.551592208E0,1.115653515E0,-2.408375978E0,5.515456200E-1
4.554085176E0,1.091725349E0,-2.312663078E0,4.462614357E-1
4.556582781E0,1.077368379E0,-2.230708838E0,3.266202807E-1
4.559075749E0,9.768698215E-1,-2.187638044E0,2.548356056E-1
4.561568614E0,9.960124493E-1,-2.134995937E0,2.117647976E-1
4.564061635E0,1.173679471E0,-2.106282234E0,1.016949639E-1
4.566554499E0,1.211964726E0,-2.096710920E0,-5.204389244E-2
4.569047416E0,1.235892892E0,-2.096710920E0,-2.530409992E-1
4.571540385E0,1.288534999E0,-2.115853310E0,-4.642075896E-1
4.574033353E0,1.427318692E0,-2.125424623E0,-6.939185858E-1
4.576526218E0,1.613958836E0,-2.034497499E0,-8.805587292E-1
4.579019187E0,1.652244091E0,-2.082353830E0,-1.091725349E0
4.581512103E0,1.786840320E0,-2.115853310E0,-1.340578914E0
4.584005072E0,1.849053741E0,-2.134995937E0,-1.709671736E0
4.586491947E0,1.834696770E0,-2.144567251E0,-1.996810555E0
4.588984864E0,1.839482427E0,-2.111067772E0,-2.313261271E0
4.591477781E0,1.825125456E0,-2.077568293E0,-2.610569477E0
4.593970749E0,1.748555183E0,-2.020140409E0,-2.873780012E0
4.596463666E0,1.695913076E0,-2.039283037E0,-3.199802160E0
4.598956635E0,1.661815286E0,-2.091925144E0,-3.472583771E0
4.601449551E0,1.546959877E0,-2.149353027E0,-3.750749588E0
4.603942520E0,1.389033556E0,-2.221137524E0,-4.090530396E0
4.606435385E0,1.374676585E0,-2.374876499E0,-4.454837322E0
4.608928353E0,1.360319614E0,-2.556730986E0,-4.828716278E0
4.611421270E0,1.432104349E0,-2.748156786E0,-5.322235584E0
4.613914239E0,1.618744493E0,-3.050250769E0,-5.815755367E0
4.616407260E0,1.939980984E0,-3.395415306E0,-6.332605362E0
4.618900228E0,2.309073925E0,-3.802195072E0,-6.811768055E0
4.621393145E0,2.778665304E0,-4.281357765E0,-7.435098171E0
4.623886114E0,3.315255880E0,-4.822733879E0,-8.086544037E0
4.626378978E0,3.899702787E0,-5.435894966E0,-8.776275635E0
4.628871947E0,4.555934429E0,-6.035296917E0,-9.446864128E0
4.631364864E0,5.264808178E0,-6.768098831E0,-1.013719273E1
4.633857833E0,5.777470112E0,-7.587042332E0,-1.080778122E1
4.636350749E0,6.237490654E0,-8.464012146E0,-1.145922756E1
4.638843666E0,6.558726788E0,-9.302696228E0,-1.204846001E1
4.641336583E0,6.616154671E0,-1.019342422E1,-1.244626713E1
4.643829603E0,6.506084919E0,-1.112303638E1,-1.283928776E1
4.646319603E0,6.089135647E0,-1.209571838E1,-1.296850014E1
4.648812520E0,5.700900078E0,-1.322632694E1,-1.284885979E1
4.651305489E0,5.307878971E0,-1.428993702E1,-1.267597771E1
4.653798458E0,5.082953453E0,-1.541097450E1,-1.247019482E1
4.656291322E0,4.756931305E0,-1.643151283E1,-1.234098244E1
4.658784291E0,4.666004181E0,-1.730848312E1,-1.244148159E1
4.661277208E0,4.881358147E0,-1.814178276E1,-1.256590843E1
4.663770176E0,5.197809219E0,-1.870230103E1,-1.276750374E1
4.666263093E0,5.715256691E0,-1.904268074E1,-1.301157093E1
4.668756010E0,6.194419384E0,-1.909532356E1,-1.306421375E1
4.671248926E0,6.352345943E0,-1.887996864E1,-1.296850014E1
4.673741895E0,6.337988853E0,-1.837687874E1,-1.268554878E1
4.676247520E0,6.141777515E0,-1.760997772E1,-1.216810131E1
4.678740385E0,5.672185898E0,-1.654158211E1,-1.155972576E1
4.681233353E0,5.063810825E0,-1.521954823E1,-1.090828037E1
4.683726322E0,4.536791801E0,-1.373898983E1,-1.023769188E1
4.686219187E0,3.990629911E0,-1.218185997E1,-9.681958199E0
4.688712156E0,3.588037491E0,-1.070130062E1,-9.231510162E0
4.691205072E0,3.324826956E0,-9.302696228E0,-8.737990379E0
4.693698041E0,3.056232691E0,-8.070990562E0,-8.287541389E0
4.696190958E0,2.855235577E0,-6.868597507E0,-7.832306862E0
4.698683926E0,2.715853691E0,-5.833701611E0,-7.473383427E0
4.701176791E0,2.543570518E0,-4.957330227E0,-7.171289444E0
4.703669812E0,2.390429735E0,-4.185645103E0,-6.994220734E0
4.706153353E0,2.481357098E0,-3.586841106E0,-6.850052834E0
4.708646270E0,2.586641312E0,-3.169891834E0,-6.806982040E0
4.711139239E0,2.831307411E0,-3.078964472E0,-6.816553593E0
4.713632208E0,3.324826956E0,-3.265604734E0,-6.873981476E0
4.716125072E0,3.798605919E0,-3.826123476E0,-6.917650223E0
4.718618041E0,4.205984116E0,-4.995615482E0,-7.085147858E0
4.721110958E0,4.508078098E0,-6.619743824E0,-7.324429989E0
4.723603926E0,4.862215519E0,-8.761320114E0,-7.362715244E0
4.726096843E0,5.322235584E0,-1.113260746E1,-6.826124668E0
4.728589760E0,5.868397713E0,-1.383948803E1,-6.064609051E0
4.731082676E0,6.213562012E0,-1.671865273E1,-5.268995285E0
4.733575697E0,6.558726788E0,-1.958405685E1,-4.119244099E0
4.736065072E0,6.788437843E0,-2.241536522E1,-3.553939819E0
4.738557989E0,6.606583118E0,-2.513660240E1,-4.004388809E0
4.741050958E0,5.777470112E0,-2.765684319E1,-5.350949764E0
4.743543926E0,4.253840446E0,-2.989891624E1,-8.503493309E0
4.746036791E0,2.620140791E0,-3.209791946E1,-1.296371460E1
4.748529760E0,7.088736892E-1,-3.385126114E1,-1.734258080E1
4.751022676E0,-1.820937991E0,-3.483351517E1,-1.903849411E1
4.753515645E0,-4.690530777E0,-3.450809097E1,-1.625025749E1
4.756008562E0,-6.741179466E0,-3.247179794E1,-9.801599503E0
4.758501478E0,-6.812964439E0,-2.882573700E1,-2.969492912E0
4.760994395E0,-5.284548759E0,-2.408256340E1,1.466800332E0
4.763487416E0,-3.177070379E0,-1.926282120E1,3.775874138E0
4.765981114E0,-8.386843204E-1,-1.493659687E1,4.518845558E0
4.768474031E0,1.134796143E0,-1.099382401E1,4.585844517E0
4.770966999E0,2.294716835E0,-7.280761242E0,5.548955917E0
4.773459968E0,2.754737139E0,-3.816552162E0,8.581260681E0
4.775952833E0,2.855235577E0,-5.874379873E-1,1.321436310E1
4.778445801E0,3.151945591E0,2.196012974E0,1.779961014E1
4.780938718E0,3.726821184E0,4.485944271E0,2.122493553E1
4.783431635E0,4.546362877E0,6.277570248E0,2.336651039E1
4.785924603E0,5.710471153E0,7.729415417E0,2.494756889E1
4.788417520E0,7.200601578E0,8.663812637E0,2.504328156E1
4.790910437E0,8.767302513E0,9.171689034E0,2.304048920E1
4.793403406E0,1.002233791E1,9.300901413E0,1.936152458E1
4.795895385E0,1.070728302E1,9.243474007E0,1.450768375E1
4.798388301E0,1.104287624E1,9.066405296E0,8.519046783E0
4.800881270E0,1.144546890E1,8.950951576E0,1.246660590E0
4.803374187E0,1.181874943E1,8.773882866E0,-7.420741081E0
4.805867103E0,1.200120163E1,8.462815285E0,-1.674856186E1
4.808360072E0,1.147896862E1,7.705487251E0,-2.437089920E1
4.810852989E0,1.019462109E1,6.124429703E0,-2.702513695E1
4.813345906E0,8.182855606E0,4.006781578E0,-2.371466637E1
4.815838874E0,5.370092392E0,1.798206210E0,-1.809930992E1
4.818331791E0,2.793022156E0,-6.209374666E-1,-1.084128094E1
4.820824708E0,9.385846853E-1,-3.567698479E0,-3.530011654E0
4.823317728E0,-1.393819153E-1,-6.887740135E0,3.014358282E0
4.825814031E0,-6.711867452E-1,-1.019342422E1,8.385048866E0
4.828306947E0,-1.183848977E0,-1.346560955E1,1.205504036E1
4.830799916E0,-1.653440475E0,-1.639322853E1,1.403869057E1
4.833292885E0,-2.367099762E0,-1.887518311E1,1.467577934E1
4.835785749E0,-3.004188776E0,-2.087259102E1,1.480020618E1
4.838278718E0,-3.354139090E0,-2.257328987E1,1.438804245E1
4.840771635E0,-3.430709362E0,-2.391028023E1,1.309950733E1
4.843264603E0,-3.468994617E0,-2.475853539E1,1.119721317E1
4.845757520E0,-3.368496180E0,-2.515095901E1,8.883354187E0
4.848250437E0,-3.224926710E0,-2.518924332E1,6.214758396E0
4.850743353E0,-2.903690338E0,-2.500738907E1,3.622733593E0
4.853236374E0,-2.400599241E0,-2.473400879E1,1.203589797E0
4.855730541E0,-1.596012712E0,-2.439901352E1,-1.335793257E0
4.858223458E0,-7.860422134E-1,-2.401077843E1,-3.851248026E0
4.860716426E0,-2.015953064E-1,-2.350290298E1,-6.179464340E0
4.863209395E0,2.679961324E-1,-2.264088821E1,-7.856235027E0
4.865702260E0,3.541377485E-1,-2.147139549E1,-8.517850876E0
4.868195228E0,5.682953820E-2,-2.001536369E1,-8.096115112E0
4.870688145E0,-4.797609448E-1,-1.821356773E1,-6.845267296E0
4.873181114E0,-8.482556343E-1,-1.648415565E1,-5.063212872E0
4.875674031E0,-8.147560954E-1,-1.511366558E1,-3.199802160E0
4.878166947E0,-5.946164131E-1,-1.396391487E1,-1.709671736E0
4.880659864E0,-4.797609448E-1,-1.290987682E1,-5.168496966E-1
4.883152833E0,-3.786641955E-1,-1.187976646E1,3.266202807E-1
4.885641947E0,-3.020938635E-1,-1.085025406E1,9.589236975E-1
4.888134864E0,-1.920240223E-1,-1.000199890E1,1.356730461E0
4.890627833E0,2.333002165E-2,-9.177671432E0,1.514656782E0
4.893120801E0,2.632105052E-1,-8.526225090E0,1.485942841E0
4.895613666E0,6.801598072E-1,-8.008777618E0,1.280160069E0
4.898106635E0,1.312463164E0,-7.558328629E0,8.919246197E-1
4.900599551E0,1.815554142E0,-7.242475986E0,4.510470629E-1
4.903092520E0,2.270788670E0,-6.978667259E0,-7.597211748E-2
4.905585437E0,2.634497643E0,-6.758527756E0,-5.742774606E-1
4.908078406E0,2.960519791E0,-6.581458569E0,-1.077368379E0
4.910571270E0,3.166302681E0,-6.399005890E0,-1.474576950E0
4.913064291E0,3.300898790E0,-6.312864304E0,-1.771885157E0
4.915559551E0,3.329612732E0,-6.236293793E0,-1.963310957E0
4.918052468E0,3.334398270E0,-6.202794552E0,-1.929811478E0
4.920545437E0,3.281756163E0,-6.231508255E0,-1.834098577E0
4.923038406E0,3.151945591E0,-6.288936138E0,-1.738385677E0
4.925531270E0,3.291327477E0,-6.442076683E0,-1.709671736E0
4.928024239E0,3.147160053E0,-6.461219311E0,-1.517647743E0
4.930517156E0,2.836092949E0,-6.557530403E0,-1.278365493E0
4.933010124E0,2.299502611E0,-6.600601196E0,-1.053440213E0
4.935503041E0,1.872981906E0,-6.739385128E0,-8.422735929E-1
4.937995958E0,1.691127419E0,-7.002595425E0,-7.178468108E-1
4.940488874E0,1.556531072E0,-7.261618614E0,-6.364908218E-1
4.942981895E0,1.389033556E0,-7.515257835E0,-6.077769399E-1
4.945481739E0,1.255035520E0,-7.668996811E0,-3.774677813E-1
4.947974656E0,1.077368379E0,-7.869993687E0,-2.769692242E-1
4.950467624E0,8.811569214E-1,-8.094919205E0,-4.348955154E-1
4.952960593E0,6.801598072E-1,-8.315656662E0,-5.503492355E-1
4.955453458E0,4.498506486E-1,-8.511868477E0,-6.652047038E-1
4.957946426E0,2.392822653E-1,-8.727820396E0,-8.662018180E-1
4.960439343E0,-1.016949583E-2,-8.938388824E0,-1.000798106E0
4.962932312E0,-2.781656384E-1,-9.153742790E0,-1.096511006E0
4.965425228E0,-3.212364316E-1,-9.398408890E0,-1.163509965E0
4.967918145E0,-3.355933726E-1,-9.666405678E0,-1.201795220E0
4.970411062E0,-3.690928817E-1,-9.853643417E0,-1.297508121E0
4.972904083E0,-3.643072546E-1,-9.997213364E0,-1.345364571E0
4.975393822E0,-3.738785386E-1,-1.018863869E1,-1.407577872E0
4.977886791E0,-4.169493318E-1,-1.029870892E1,-1.609173179E0
4.980379708E0,-1.968096644E-1,-1.039501953E1,-1.556531072E0
4.982872676E0,-1.250249892E-1,-1.043809032E1,-1.647458434E0
4.985365541E0,-1.680957973E-1,-1.030887794E1,-1.757528186E0
4.987858510E0,1.375873014E-2,-1.023649502E1,-2.006381750E0
4.990351426E0,2.105683982E-1,-1.006421185E1,-2.102692842E0
4.992844395E0,2.009970993E-1,-9.868000984E0,-2.164906263E0
4.995337312E0,2.249253243E-1,-9.728618622E0,-2.222334146E0
4.997830281E0,3.828516304E-1,-9.589835167E0,-2.236690998E0
5.000323197E0,3.780659735E-1,-9.417551994E0,-2.231905222E0
5.002816166E0,3.493520916E-1,-9.211171150E0,-2.174477577E0
5.005309708E0,4.833501875E-1,-9.072386742E0,-2.155334949E0
5.007802624E0,6.275177598E-1,-8.947959900E0,-2.117049932E0
5.010295593E0,8.476574421E-1,-8.804390907E0,-2.025524378E0
5.012788562E0,1.048654556E0,-8.665008545E0,-1.881955028E0
5.015281426E0,1.120439172E0,-8.483154297E0,-1.810170293E0
5.017774395E0,1.231107235E0,-8.296514511E0,-1.800599098E0
5.020267312E0,1.288534999E0,-8.176873207E0,-1.771885157E0
5.022760281E0,1.412961721E0,-7.980063438E0,-1.805384636E0
5.025253197E0,1.503889084E0,-7.846065521E0,-1.862812400E0
5.027746114E0,1.599601984E0,-7.802994728E0,-1.848455548E0
5.030239031E0,1.580459356E0,-7.707281590E0,-1.776670814E0
5.032731999E0,1.618744493E0,-7.683353424E0,-1.709671736E0
5.035225593E0,1.729412556E0,-7.659425259E0,-1.633101463E0
5.037718510E0,1.810768485E0,-7.750352383E0,-1.484148264E0
5.040211478E0,1.829911113E0,-7.793423176E0,-1.369292736E0
5.042704447E0,1.872981906E0,-7.879564762E0,-1.230509043E0
5.045197364E0,1.834696770E0,-7.970492363E0,-1.149153113E0
5.047690281E0,1.791625977E0,-8.061419487E0,-1.043868899E0
5.050183197E0,1.695913076E0,-8.123632431E0,-9.140582681E-1
5.052676166E0,1.580459356E0,-8.186444283E0,-7.513462901E-1
5.055169083E0,1.465603828E0,-8.239086151E0,-5.407779217E-1
5.057661999E0,1.307677627E0,-8.234300613E0,-3.296113312E-1
5.060154916E0,1.154536963E0,-8.196015358E0,-1.860419661E-1
5.062647937E0,1.015154958E0,-8.200801849E0,3.409772366E-2
5.065137624E0,9.194421172E-1,-8.215158463E0,3.026920557E-1
5.067630541E0,8.333004713E-1,-8.161917686E0,4.414757788E-1
5.070123510E0,1.005583763E0,-8.172087669E0,8.536394835E-1
5.072616478E0,9.146564603E-1,-8.114061356E0,9.014959335E-1
5.075109343E0,8.620143533E-1,-7.984848976E0,1.035493970E0
5.077602312E0,8.524430394E-1,-7.927421570E0,1.140778184E0
5.080095228E0,8.859425783E-1,-7.917850018E0,1.179661512E0
5.082588197E0,8.859425783E-1,-7.927421570E0,1.155733347E0
5.085081114E0,9.529415965E-1,-7.970492363E0,1.011565804E0
5.087574031E0,1.072582722E0,-7.917850018E0,8.297112584E-1
5.090066947E0,1.226321578E0,-7.999206066E0,6.334998012E-1
