"Time (s)","Acceleration x (m/s^2)","Acceleration y (m/s^2)","Acceleration z (m/s^2)"
2.733255200E-2,2.150549412E0,1.018295574E1,-2.979064286E-1
2.984734400E-2,2.172084808E0,1.019491959E1,-3.242274821E-1
3.236880200E-2,2.162513494E0,1.019013405E1,-3.194418252E-1
3.489359400E-2,2.145763636E0,1.018056297E1,-3.122633696E-1
3.741963500E-2,2.148156643E0,1.018534851E1,-3.194418252E-1
3.994614600E-2,2.157727718E0,1.018774128E1,-3.074777126E-1
4.247296900E-2,2.152942181E0,1.018534851E1,-3.314059377E-1
4.500010400E-2,2.164906263E0,1.020688438E1,-3.218346536E-1
4.752750000E-2,2.160120726E0,1.021406269E1,-3.242274821E-1
5.005494800E-2,2.164906263E0,1.023559761E1,-3.433700502E-1
5.258244800E-2,2.176870346E0,1.025474072E1,-3.457628787E-1
5.511005200E-2,2.169692039E0,1.025713348E1,-3.577269912E-1
5.763781200E-2,2.160120726E0,1.025474072E1,-3.696911037E-1
6.016557300E-2,2.176870346E0,1.027388287E1,-3.672982752E-1
6.269333300E-2,2.186441660E0,1.029781151E1,-3.744767308E-1
6.519984400E-2,2.162513494E0,1.029781151E1,-3.960121572E-1
6.768192700E-2,2.164906263E0,1.030977535E1,-3.960121572E-1
7.016057300E-2,2.164906263E0,1.032413197E1,-4.079762697E-1
7.263927100E-2,2.157727718E0,1.032652569E1,-3.936193287E-1
7.511875000E-2,2.188834429E0,1.033131123E1,-4.175475538E-1
7.759822900E-2,2.176870346E0,1.032173920E1,-4.031906128E-1
8.007687500E-2,2.172084808E0,1.032652569E1,-3.936193287E-1
8.255557300E-2,2.193620205E0,1.031695366E1,-3.936193287E-1
8.503505200E-2,2.205584288E0,1.031216812E1,-3.768695593E-1
8.751453100E-2,2.215155602E0,1.033848953E1,-4.007977843E-1
8.999317700E-2,2.207977057E0,1.032413197E1,-3.744767308E-1
9.247187500E-2,2.219941139E0,1.031216812E1,-3.936193287E-1
9.495135400E-2,2.229512453E0,1.032173920E1,-3.960121572E-1
9.743083300E-2,2.229512453E0,1.031934643E1,-3.984049559E-1
9.990947900E-2,2.229512453E0,1.031934643E1,-3.864408433E-1
1.023881770E-1,2.246262312E0,1.032413197E1,-3.888336718E-1
1.048676560E-1,2.236690998E0,1.030738258E1,-3.984049559E-1
1.073471350E-1,2.246262312E0,1.031216812E1,-4.175475538E-1
1.098257810E-1,2.241476536E0,1.031695366E1,-4.055834413E-1
1.123044790E-1,2.260619164E0,1.031456089E1,-4.342973232E-1
1.147839580E-1,2.229512453E0,1.032173920E1,-4.127618968E-1
1.172634370E-1,2.243869543E0,1.033848953E1,-4.271188378E-1
1.197420830E-1,2.229512453E0,1.033370399E1,-4.414757788E-1
1.222207810E-1,2.215155602E0,1.035763168E1,-4.342973232E-1
1.247002600E-1,2.239083767E0,1.034566784E1,-4.510470629E-1
1.271797390E-1,2.241476536E0,1.035763168E1,-4.390829504E-1
1.296583850E-1,2.215155602E0,1.034327507E1,-4.462614357E-1
1.321370830E-1,2.236690998E0,1.035045338E1,-4.462614357E-1
1.346165620E-1,2.217548370E0,1.034566784E1,-4.701896608E-1
1.370960410E-1,2.205584288E0,1.033609676E1,-4.941178858E-1
1.395746870E-1,2.215155602E0,1.035045338E1,-4.869394004E-1
1.420533850E-1,2.227119684E0,1.031695366E1,-4.965106845E-1
1.445328640E-1,2.196012974E0,1.032891846E1,-5.036891699E-1
1.470123440E-1,2.207977057E0,1.031456089E1,-5.180460811E-1
1.494909890E-1,2.193620205E0,1.033370399E1,-5.180460811E-1
1.519696870E-1,2.176870346E0,1.030977535E1,-5.324030519E-1
1.544491660E-1,2.184048891E0,1.032652569E1,-5.204389095E-1
1.569286460E-1,2.172084808E0,1.031695366E1,-5.276173949E-1
1.594072910E-1,2.186441660E0,1.031934643E1,-5.347958803E-1
1.618859890E-1,2.172084808E0,1.030738258E1,-5.300102234E-1
1.643654690E-1,2.148156643E0,1.028584766E1,-5.371887088E-1
1.668449480E-1,2.172084808E0,1.031934643E1,-5.419743061E-1
1.693235940E-1,2.164906263E0,1.030020428E1,-5.419743061E-1
1.718022910E-1,2.150549412E0,1.028345394E1,-5.204389095E-1
1.742817710E-1,2.155334949E0,1.027627563E1,-5.300102234E-1
1.767612500E-1,2.155334949E0,1.028824043E1,-5.132604837E-1
1.792398960E-1,2.140978098E0,1.027149010E1,-5.204389095E-1
1.817185940E-1,2.169692039E0,1.027388287E1,-5.156532526E-1
1.841980730E-1,2.162513494E0,1.026909733E1,-4.989035130E-1
1.866775520E-1,2.176870346E0,1.029063320E1,-5.012963414E-1
1.891561980E-1,2.155334949E0,1.029541874E1,-4.869394004E-1
1.916348960E-1,2.157727718E0,1.030259705E1,-4.917250574E-1
1.941143750E-1,2.169692039E0,1.031216812E1,-4.941178858E-1
1.965938540E-1,2.188834429E0,1.030498981E1,-4.821537733E-1
1.990725000E-1,2.179263115E0,1.029302597E1,-4.677968323E-1
2.015511980E-1,2.172084808E0,1.030020428E1,-4.677968323E-1
2.040306770E-1,2.193620205E0,1.032891846E1,-4.869394004E-1
2.065101560E-1,2.174477577E0,1.030259705E1,-4.869394004E-1
2.089888020E-1,2.169692039E0,1.029781151E1,-4.773681164E-1
2.114675000E-1,2.212762833E0,1.029541874E1,-4.869394004E-1
2.139469790E-1,2.181656122E0,1.029541874E1,-4.797609448E-1
2.164264580E-1,2.200798512E0,1.030498981E1,-5.036891699E-1
2.189051040E-1,2.212762833E0,1.028824043E1,-4.677968323E-1
2.213838020E-1,2.203191519E0,1.027388287E1,-5.180460811E-1
2.238632810E-1,2.203191519E0,1.030977535E1,-4.438686073E-1
2.263427600E-1,2.219941139E0,1.027627563E1,-5.252245665E-1
2.288214060E-1,2.219941139E0,1.027388287E1,-4.414757788E-1
2.313001040E-1,2.205584288E0,1.027627563E1,-5.252245665E-1
2.337795830E-1,2.207977057E0,1.026191902E1,-4.677968323E-1
2.362590620E-1,2.200798512E0,1.025952625E1,-5.324030519E-1
2.387377080E-1,2.227119684E0,1.026431179E1,-4.342973232E-1
2.412164060E-1,2.212762833E0,1.025713348E1,-5.084748268E-1
2.436958850E-1,2.212762833E0,1.025713348E1,-4.175475538E-1
2.461753640E-1,2.207977057E0,1.027866840E1,-4.845465720E-1
2.486540100E-1,2.217548370E0,1.025713348E1,-4.007977843E-1
2.511327080E-1,2.219941139E0,1.027149010E1,-4.725824594E-1
2.536121870E-1,2.191227436E0,1.027866840E1,-3.984049559E-1
2.560916660E-1,2.186441660E0,1.027627563E1,-4.366901219E-1
2.585703120E-1,2.184048891E0,1.028584766E1,-3.912265003E-1
2.610490100E-1,2.184048891E0,1.027866840E1,-4.103690982E-1
2.635284890E-1,2.184048891E0,1.030259705E1,-3.864408433E-1
2.660079690E-1,2.188834429E0,1.030977535E1,-4.127618968E-1
2.684866140E-1,2.167299032E0,1.030020428E1,-3.912265003E-1
2.709653120E-1,2.172084808E0,1.031695366E1,-3.744767308E-1
2.734447910E-1,2.191227436E0,1.032652569E1,-4.127618968E-1
2.759242710E-1,2.176870346E0,1.033370399E1,-3.792623878E-1
2.784029160E-1,2.191227436E0,1.032891846E1,-4.151547253E-1
2.808816140E-1,2.191227436E0,1.033848953E1,-3.649054468E-1
2.833611460E-1,2.188834429E0,1.034806061E1,-4.175475538E-1
2.858406250E-1,2.191227436E0,1.034806061E1,-3.672982752E-1
2.883192710E-1,2.219941139E0,1.034088230E1,-4.414757788E-1
2.907979160E-1,2.186441660E0,1.035045338E1,-3.744767308E-1
2.932774480E-1,2.186441660E0,1.034566784E1,-4.582255483E-1
2.957569270E-1,2.191227436E0,1.033370399E1,-3.720839322E-1
2.982355730E-1,2.188834429E0,1.034088230E1,-4.438686073E-1
3.007142190E-1,2.203191519E0,1.034806061E1,-3.720839322E-1
3.031937500E-1,2.186441660E0,1.035045338E1,-4.606183469E-1
3.056732290E-1,2.186441660E0,1.032413197E1,-4.007977843E-1
3.081518750E-1,2.169692039E0,1.033131123E1,-4.701896608E-1
3.106305210E-1,2.179263115E0,1.030977535E1,-4.055834413E-1
3.131100520E-1,2.179263115E0,1.030259705E1,-4.558327198E-1
3.155895310E-1,2.186441660E0,1.030498981E1,-4.199403822E-1
3.180681770E-1,2.184048891E0,1.028584766E1,-4.534398913E-1
3.205468230E-1,2.169692039E0,1.028824043E1,-4.438686073E-1
3.230263540E-1,2.162513494E0,1.029541874E1,-4.606183469E-1
3.255058330E-1,2.179263115E0,1.031695366E1,-4.534398913E-1
3.279844790E-1,2.179263115E0,1.029302597E1,-4.438686073E-1
3.304631250E-1,2.212762833E0,1.028824043E1,-4.534398913E-1
3.329426560E-1,2.193620205E0,1.032413197E1,-4.486542344E-1
3.354221350E-1,2.193620205E0,1.030259705E1,-4.893322289E-1
3.379007810E-1,2.203191519E0,1.029302597E1,-4.558327198E-1
3.403794270E-1,2.239083767E0,1.028824043E1,-4.917250574E-1
3.428589580E-1,2.234298229E0,1.029541874E1,-4.366901219E-1
3.453384370E-1,2.231905222E0,1.028584766E1,-4.941178858E-1
3.478170830E-1,2.248655081E0,1.028345394E1,-4.582255483E-1
3.502957290E-1,2.251047850E0,1.025713348E1,-5.371887088E-1
3.527752600E-1,2.258226395E0,1.025234795E1,-4.845465720E-1
3.552547390E-1,2.246262312E0,1.025952625E1,-5.419743061E-1
3.577333850E-1,2.241476536E0,1.024277687E1,-4.582255483E-1
3.602120310E-1,2.243869543E0,1.023799038E1,-5.324030519E-1
3.626915620E-1,2.267797709E0,1.022363377E1,-4.366901219E-1
3.651710410E-1,2.241476536E0,1.022363377E1,-5.060819983E-1
3.676496870E-1,2.253440619E0,1.022841930E1,-4.534398913E-1
3.701283330E-1,2.270190477E0,1.020927715E1,-5.395814776E-1
3.726078640E-1,2.236690998E0,1.019491959E1,-4.390829504E-1
3.750873440E-1,2.236690998E0,1.021406269E1,-5.108676553E-1
3.775659890E-1,2.231905222E0,1.020449162E1,-4.630111754E-1
3.800446870E-1,2.210369825E0,1.021645546E1,-5.036891699E-1
3.825241660E-1,2.234298229E0,1.020688438E1,-4.821537733E-1
3.850036460E-1,2.200798512E0,1.023559761E1,-4.749752879E-1
3.874822910E-1,2.203191519E0,1.023320484E1,-4.725824594E-1
3.899609370E-1,2.224726915E0,1.022124100E1,-4.797609448E-1
3.924404690E-1,2.215155602E0,1.022124100E1,-4.869394004E-1
3.949199480E-1,2.188834429E0,1.022841930E1,-4.725824594E-1
3.973985940E-1,2.212762833E0,1.023559761E1,-4.989035130E-1
3.998772910E-1,2.222334146E0,1.025234795E1,-4.486542344E-1
4.023567710E-1,2.219941139E0,1.026191902E1,-5.036891699E-1
4.048362500E-1,2.205584288E0,1.028106117E1,-4.486542344E-1
4.073148960E-1,2.219941139E0,1.029063320E1,-5.252245665E-1
4.097935940E-1,2.231905222E0,1.029781151E1,-4.390829504E-1
4.122730730E-1,2.246262312E0,1.029302597E1,-5.180460811E-1
4.147525520E-1,2.243869543E0,1.031216812E1,-4.486542344E-1
4.172311980E-1,2.260619164E0,1.031216812E1,-5.395814776E-1
4.197098960E-1,2.258226395E0,1.031216812E1,-4.534398913E-1
4.221893750E-1,2.277369022E0,1.030738258E1,-5.324030519E-1
4.246688540E-1,2.274976015E0,1.030259705E1,-4.845465720E-1
4.271475000E-1,2.289333105E0,1.029781151E1,-5.252245665E-1
4.296261980E-1,2.291725874E0,1.027866840E1,-4.797609448E-1
4.321056770E-1,2.306082726E0,1.027149010E1,-5.491527915E-1
4.345851560E-1,2.296511650E0,1.026191902E1,-4.749752879E-1
4.370638020E-1,2.308475733E0,1.025952625E1,-5.276173949E-1
4.395425000E-1,2.286940336E0,1.024277687E1,-4.821537733E-1
4.420219790E-1,2.301297188E0,1.025952625E1,-5.204389095E-1
4.445014580E-1,2.294118643E0,1.023559761E1,-4.654040039E-1
4.469801040E-1,2.277369022E0,1.022363377E1,-4.630111754E-1
4.494588020E-1,2.284547329E0,1.022363377E1,-4.606183469E-1
4.519382810E-1,2.294118643E0,1.023799038E1,-4.462614357E-1
4.544177600E-1,2.265404940E0,1.022124100E1,-4.701896608E-1
4.568964060E-1,2.267797709E0,1.022124100E1,-4.366901219E-1
4.593751040E-1,2.277369022E0,1.022363377E1,-4.677968323E-1
4.618545830E-1,2.277369022E0,1.023559761E1,-4.247260094E-1
4.643340620E-1,2.260619164E0,1.022602654E1,-4.797609448E-1
4.668127080E-1,2.258226395E0,1.021884823E1,-4.079762697E-1
4.692914060E-1,2.255833626E0,1.021645546E1,-4.845465720E-1
4.717708850E-1,2.246262312E0,1.024038315E1,-4.079762697E-1
4.742503640E-1,2.258226395E0,1.019970608E1,-4.869394004E-1
4.767290100E-1,2.248655081E0,1.023081207E1,-3.792623878E-1
4.792077080E-1,2.246262312E0,1.022363377E1,-4.486542344E-1
4.816871870E-1,2.243869543E0,1.022124100E1,-4.007977843E-1
4.841666660E-1,2.239083767E0,1.020927715E1,-4.701896608E-1
4.866453120E-1,2.267797709E0,1.023081207E1,-3.888336718E-1
4.891240100E-1,2.246262312E0,1.023081207E1,-4.534398913E-1
4.916034890E-1,2.243869543E0,1.024756241E1,-3.816552162E-1
4.940829690E-1,2.236690998E0,1.024516964E1,-4.438686073E-1
4.965616140E-1,2.270190477E0,1.025713348E1,-3.816552162E-1
4.990403120E-1,2.255833626E0,1.024516964E1,-4.199403822E-1
5.015197910E-1,2.239083767E0,1.024756241E1,-4.127618968E-1
5.039992710E-1,2.236690998E0,1.024756241E1,-4.199403822E-1
5.064779160E-1,2.241476536E0,1.024756241E1,-3.984049559E-1
5.089566140E-1,2.224726915E0,1.025474072E1,-3.936193287E-1
5.114360940E-1,2.258226395E0,1.024277687E1,-3.864408433E-1
5.139155730E-1,2.231905222E0,1.024756241E1,-3.625126183E-1
5.163942190E-1,2.248655081E0,1.025474072E1,-3.936193287E-1
5.188729160E-1,2.263011932E0,1.027627563E1,-3.433700502E-1
5.213523960E-1,2.248655081E0,1.028106117E1,-4.007977843E-1
5.238318750E-1,2.255833626E0,1.030259705E1,-3.314059377E-1
5.263105210E-1,2.263011932E0,1.032173920E1,-4.103690982E-1
5.287892190E-1,2.253440619E0,1.035284615E1,-3.002992272E-1
5.312686980E-1,2.260619164E0,1.037198925E1,-3.912265003E-1
5.337481770E-1,2.243869543E0,1.039591694E1,-2.979064286E-1
5.362268230E-1,2.239083767E0,1.039352417E1,-3.936193287E-1
5.387055210E-1,2.255833626E0,1.042941666E1,-3.170489967E-1
5.411850000E-1,2.272583246E0,1.043420219E1,-4.031906128E-1
5.436644790E-1,2.277369022E0,1.044855881E1,-3.361915946E-1
5.461431250E-1,2.274976015E0,1.044138050E1,-4.247260094E-1
5.486218230E-1,2.255833626E0,1.044855881E1,-3.625126183E-1
5.511013020E-1,2.267797709E0,1.046770191E1,-4.319044948E-1
5.535807810E-1,2.255833626E0,1.043898773E1,-3.984049559E-1
5.560594270E-1,2.258226395E0,1.042463112E1,-4.247260094E-1
5.585381250E-1,2.260619164E0,1.043659496E1,-4.175475538E-1
5.610176040E-1,2.243869543E0,1.041266727E1,-4.630111754E-1
5.634970830E-1,2.270190477E0,1.040548801E1,-4.606183469E-1
5.659757290E-1,2.263011932E0,1.037916756E1,-4.869394004E-1
5.684544270E-1,2.248655081E0,1.036720276E1,-5.204389095E-1
5.709339060E-1,2.263011932E0,1.034806061E1,-5.060819983E-1
5.734133850E-1,2.258226395E0,1.033848953E1,-5.563312769E-1
5.758920310E-1,2.243869543E0,1.033609676E1,-5.347958803E-1
5.783707290E-1,2.251047850E0,1.031934643E1,-6.329016089E-1
5.808502080E-1,2.241476536E0,1.031695366E1,-5.802595019E-1
5.833296870E-1,2.251047850E0,1.028824043E1,-6.520441771E-1
5.858083330E-1,2.255833626E0,1.028824043E1,-6.017948985E-1
5.882870310E-1,2.263011932E0,1.028824043E1,-6.735795736E-1
5.907665100E-1,2.253440619E0,1.027627563E1,-5.874379873E-1
5.932459890E-1,2.251047850E0,1.026431179E1,-6.783652306E-1
5.957246350E-1,2.260619164E0,1.027388287E1,-5.778666735E-1
5.982033330E-1,2.263011932E0,1.028345394E1,-6.520441771E-1
6.006828120E-1,2.267797709E0,1.026431179E1,-5.587241054E-1
6.031622910E-1,2.270190477E0,1.024995518E1,-6.424728632E-1
6.056409370E-1,2.282154560E0,1.024516964E1,-5.587241054E-1
6.081196350E-1,2.289333105E0,1.026431179E1,-6.041877270E-1
6.105991660E-1,2.291725874E0,1.027149010E1,-5.515456200E-1
6.130786460E-1,2.296511650E0,1.026670456E1,-5.898307562E-1
6.155572910E-1,2.303689957E0,1.026909733E1,-5.132604837E-1
6.180359370E-1,2.325225353E0,1.027866840E1,-5.252245665E-1
6.205154160E-1,2.320439816E0,1.027627563E1,-4.869394004E-1
6.229948960E-1,2.318047047E0,1.029302597E1,-4.654040039E-1
6.254735410E-1,2.337189436E0,1.030020428E1,-4.677968323E-1
6.279522390E-1,2.334796667E0,1.031695366E1,-4.366901219E-1
6.304317190E-1,2.346760750E0,1.033609676E1,-4.558327198E-1
6.329112500E-1,2.349153519E0,1.032413197E1,-4.151547253E-1
6.353898960E-1,2.351546526E0,1.036720276E1,-4.630111754E-1
6.378685410E-1,2.375474691E0,1.037198925E1,-4.031906128E-1
6.403480730E-1,2.358724833E0,1.038395309E1,-4.510470629E-1
6.428275520E-1,2.353939295E0,1.039352417E1,-3.720839322E-1
6.453061980E-1,2.385046005E0,1.038873863E1,-4.486542344E-1
6.477848440E-1,2.375474691E0,1.040070248E1,-3.529413342E-1
6.502643750E-1,2.370688915E0,1.039591694E1,-4.558327198E-1
6.527438540E-1,2.363510609E0,1.038634586E1,-3.696911037E-1
6.552225000E-1,2.358724833E0,1.039591694E1,-4.510470629E-1
6.577011460E-1,2.370688915E0,1.038395309E1,-3.744767308E-1
6.601806770E-1,2.334796667E0,1.037438202E1,-4.510470629E-1
6.626601560E-1,2.368296146E0,1.035045338E1,-3.888336718E-1
6.651388020E-1,2.339582443E0,1.035763168E1,-4.462614357E-1
6.676174480E-1,2.322832584E0,1.035045338E1,-3.792623878E-1
6.700969790E-1,2.318047047E0,1.036959648E1,-4.271188378E-1
6.725764580E-1,2.322832584E0,1.034566784E1,-4.127618968E-1
6.750551040E-1,2.298904419E0,1.033370399E1,-4.079762697E-1
6.775337500E-1,2.286940336E0,1.033370399E1,-4.031906128E-1
6.800132810E-1,2.270190477E0,1.034806061E1,-4.223332107E-1
6.824927600E-1,2.255833626E0,1.031456089E1,-4.175475538E-1
6.849714060E-1,2.243869543E0,1.032891846E1,-3.816552162E-1
6.874500520E-1,2.239083767E0,1.032652569E1,-4.175475538E-1
6.899295830E-1,2.229512453E0,1.031934643E1,-4.007977843E-1
6.924090620E-1,2.219941139E0,1.029063320E1,-4.319044948E-1
6.948877080E-1,2.193620205E0,1.029302597E1,-3.864408433E-1
6.973663540E-1,2.169692039E0,1.028345394E1,-4.366901219E-1
6.998458850E-1,2.150549412E0,1.027388287E1,-3.577269912E-1
7.023253640E-1,2.150549412E0,1.028106117E1,-4.510470629E-1
7.048040100E-1,2.140978098E0,1.027866840E1,-3.696911037E-1
7.072827080E-1,2.119442701E0,1.028584766E1,-4.486542344E-1
7.097621870E-1,2.131406784E0,1.028824043E1,-3.672982752E-1
7.122416660E-1,2.126621008E0,1.027866840E1,-4.725824594E-1
7.147203120E-1,2.100300074E0,1.027149010E1,-3.936193287E-1
7.171990100E-1,2.100300074E0,1.028824043E1,-4.606183469E-1
7.196784890E-1,2.105085611E0,1.030259705E1,-4.390829504E-1
7.221579690E-1,2.093121529E0,1.030738258E1,-4.366901219E-1
7.246366140E-1,2.071586132E0,1.031934643E1,-4.462614357E-1
7.271153120E-1,2.073979139E0,1.030498981E1,-4.654040039E-1
7.295947910E-1,2.081157446E0,1.032413197E1,-4.558327198E-1
7.320742710E-1,2.066800594E0,1.032413197E1,-4.797609448E-1
7.345529160E-1,2.073979139E0,1.033370399E1,-4.773681164E-1
7.370316140E-1,2.071586132E0,1.033848953E1,-4.749752879E-1
7.395110940E-1,2.052443504E0,1.032891846E1,-4.893322289E-1
7.419905730E-1,2.057229280E0,1.032413197E1,-4.893322289E-1
7.444692190E-1,2.062014818E0,1.033131123E1,-4.893322289E-1
7.469479160E-1,2.035693884E0,1.032652569E1,-5.060819983E-1
7.494273960E-1,2.038086653E0,1.033609676E1,-4.965106845E-1
7.519068750E-1,2.028515339E0,1.034088230E1,-4.917250574E-1
7.543855210E-1,2.047657967E0,1.036480999E1,-4.797609448E-1
7.568642190E-1,2.030908108E0,1.034327507E1,-5.012963414E-1
7.593436980E-1,2.042872429E0,1.034806061E1,-4.965106845E-1
7.618231770E-1,2.059622049E0,1.033848953E1,-5.084748268E-1
7.643018230E-1,2.050050735E0,1.034088230E1,-5.012963414E-1
7.667805210E-1,2.057229280E0,1.033131123E1,-4.941178858E-1
7.692600000E-1,2.057229280E0,1.033131123E1,-4.869394004E-1
7.717394790E-1,2.016551256E0,1.030498981E1,-5.276173949E-1
7.742181250E-1,2.035693884E0,1.030738258E1,-5.132604837E-1
7.766968230E-1,2.038086653E0,1.029063320E1,-5.252245665E-1
7.791763020E-1,2.030908108E0,1.026670456E1,-5.276173949E-1
7.816557810E-1,2.035693884E0,1.027866840E1,-5.036891699E-1
7.841344270E-1,2.009372711E0,1.029541874E1,-4.845465720E-1
7.866131250E-1,2.018944025E0,1.028106117E1,-4.606183469E-1
7.890926040E-1,1.992623091E0,1.027388287E1,-4.941178858E-1
7.915720830E-1,1.980658889E0,1.025474072E1,-4.654040039E-1
7.940507290E-1,1.992623091E0,1.026670456E1,-4.749752879E-1
7.965294270E-1,1.973480463E0,1.027866840E1,-4.582255483E-1
7.990089060E-1,1.966302037E0,1.028824043E1,-4.319044948E-1
8.014883850E-1,1.954337835E0,1.030259705E1,-4.342973232E-1
8.039670310E-1,1.973480463E0,1.029781151E1,-4.223332107E-1
8.064457290E-1,1.963909149E0,1.028824043E1,-4.271188378E-1
8.089252080E-1,1.971087694E0,1.029541874E1,-4.199403822E-1
8.114046870E-1,1.951945066E0,1.030738258E1,-4.055834413E-1
8.138833330E-1,1.942373753E0,1.030977535E1,-4.103690982E-1
8.163620310E-1,1.942373753E0,1.031216812E1,-3.984049559E-1
8.188415100E-1,1.971087694E0,1.030020428E1,-4.031906128E-1
8.213209890E-1,1.954337835E0,1.029063320E1,-3.936193287E-1
8.237996350E-1,1.947159410E0,1.030020428E1,-3.984049559E-1
8.262783330E-1,1.951945066E0,1.029781151E1,-3.888336718E-1
8.287578120E-1,1.944766641E0,1.028345394E1,-3.888336718E-1
8.312372910E-1,1.925624013E0,1.028106117E1,-3.984049559E-1
8.337159370E-1,1.961516380E0,1.030020428E1,-3.816552162E-1
8.361946350E-1,1.930409670E0,1.028824043E1,-3.816552162E-1
8.386741140E-1,1.910967946E0,1.027866840E1,-3.768695593E-1
8.411535940E-1,1.944766641E0,1.029063320E1,-3.912265003E-1
8.436322390E-1,1.937588096E0,1.029302597E1,-3.720839322E-1
8.461109370E-1,1.942373753E0,1.030020428E1,-3.768695593E-1
8.485904160E-1,1.956730723E0,1.029541874E1,-3.864408433E-1
8.510698960E-1,1.949552298E0,1.029063320E1,-3.696911037E-1
8.535485410E-1,1.937588096E0,1.029302597E1,-3.840480447E-1
8.560272390E-1,1.956730723E0,1.028824043E1,-3.960121572E-1
8.585067190E-1,1.973480463E0,1.028584766E1,-3.792623878E-1
8.609861980E-1,1.983051777E0,1.030020428E1,-3.936193287E-1
8.634648440E-1,1.961516380E0,1.031456089E1,-3.816552162E-1
8.659435410E-1,1.978266120E0,1.030020428E1,-3.864408433E-1
8.684230210E-1,1.987837434E0,1.030498981E1,-3.864408433E-1
8.709025000E-1,2.004587173E0,1.032413197E1,-3.744767308E-1
8.733811460E-1,1.985444546E0,1.032173920E1,-3.577269912E-1
8.758598440E-1,2.028515339E0,1.031695366E1,-3.672982752E-1
8.783393230E-1,2.033301115E0,1.033370399E1,-3.649054468E-1
8.808188020E-1,2.071586132E0,1.034088230E1,-3.409772217E-1
8.832974480E-1,2.057229280E0,1.035045338E1,-3.337987661E-1
8.857761460E-1,2.071586132E0,1.035523891E1,-3.361915946E-1
8.882556770E-1,2.069193363E0,1.038634586E1,-3.385843933E-1
8.907351560E-1,2.085943222E0,1.037198925E1,-3.290131092E-1
8.932138020E-1,2.124228239E0,1.039113140E1,-3.122633696E-1
8.956924480E-1,2.114656925E0,1.039352417E1,-3.242274821E-1
8.981719790E-1,2.117049932E0,1.038634586E1,-3.122633696E-1
9.006514580E-1,2.136192322E0,1.041745281E1,-2.955136001E-1
9.031301040E-1,2.131406784E0,1.039352417E1,-2.883351147E-1
9.056087500E-1,2.143370867E0,1.041027355E1,-3.026920557E-1
9.080882810E-1,2.140978098E0,1.041506004E1,-2.931207716E-1
9.105677600E-1,2.121835470E0,1.041027355E1,-2.931207716E-1
9.130464060E-1,2.148156643E0,1.043420219E1,-2.907279432E-1
9.155250520E-1,2.152942181E0,1.044855881E1,-3.050848842E-1
9.180045830E-1,2.186441660E0,1.044377327E1,-2.955136001E-1
9.204840620E-1,2.179263115E0,1.045813084E1,-2.955136001E-1
9.229627080E-1,2.191227436E0,1.045813084E1,-2.979064286E-1
9.254413540E-1,2.176870346E0,1.046770191E1,-2.859423161E-1
9.279208850E-1,2.184048891E0,1.047727299E1,-2.979064286E-1
9.304003640E-1,2.200798512E0,1.045813084E1,-2.739782035E-1
9.328790100E-1,2.200798512E0,1.047488022E1,-2.907279432E-1
9.353576560E-1,2.217548370E0,1.045813084E1,-3.337987661E-1
9.378371870E-1,2.222334146E0,1.047488022E1,-3.098705411E-1
9.403166660E-1,2.229512453E0,1.046530914E1,-3.026920557E-1
9.427953120E-1,2.241476536E0,1.046770191E1,-3.170489967E-1
9.452739580E-1,2.258226395E0,1.048684406E1,-2.907279432E-1
9.477534890E-1,2.258226395E0,1.046530914E1,-2.955136001E-1
9.502329690E-1,2.286940336E0,1.046291637E1,-3.050848842E-1
9.527116140E-1,2.279761791E0,1.047248745E1,-2.955136001E-1
9.551903120E-1,2.318047047E0,1.046770191E1,-2.739782035E-1
9.576697910E-1,2.322832584E0,1.047488022E1,-2.667997181E-1
9.601492710E-1,2.306082726E0,1.047009468E1,-2.548356056E-1
9.626279160E-1,2.346760750E0,1.051077271E1,-2.309073806E-1
9.651066140E-1,2.339582443E0,1.051795101E1,-2.042872310E-1
9.675860940E-1,2.346760750E0,1.053948689E1,-1.540379524E-1
9.700655730E-1,2.368296146E0,1.057298565E1,-1.325025558E-1
9.725442190E-1,2.373081923E0,1.059691429E1,-1.253240854E-1
9.750229160E-1,2.399402857E0,1.062084198E1,-9.900303930E-2
9.775023960E-1,2.385046005E0,1.064985561E1,-5.832505226E-2
9.799818750E-1,2.387438774E0,1.065703392E1,-7.028916478E-2
9.824605210E-1,2.392224550E0,1.067378330E1,-4.157529399E-2
9.849392190E-1,2.418545485E0,1.069531918E1,-8.075776510E-3
9.874186980E-1,2.399402857E0,1.069053364E1,-2.003988996E-2
9.898981770E-1,2.385046005E0,1.068814087E1,2.303091809E-2
9.923768230E-1,2.408974171E0,1.065942669E1,4.935196787E-2
9.948555210E-1,2.399402857E0,1.067617607E1,6.131608039E-2
9.973350000E-1,2.401795626E0,1.068096161E1,6.849455088E-2
9.998144790E-1,2.397010088E0,1.066660500E1,1.019940674E-1
1.002293125E0,2.406581402E0,1.069531918E1,1.426720470E-1
1.004771823E0,2.387438774E0,1.065942669E1,1.426720470E-1
1.007251302E0,2.387438774E0,1.067856884E1,1.594218016E-1
1.009730781E0,2.368296146E0,1.069771194E1,2.048854381E-1
1.012209427E0,2.365903378E0,1.071924686E1,2.359921336E-1
1.014688125E0,2.339582443E0,1.073121166E1,2.599203587E-1
1.017167604E0,2.344367981E0,1.075513935E1,2.910270393E-1
1.019647083E0,2.320439816E0,1.078385353E1,3.029911816E-1
1.022125729E0,2.318047047E0,1.080778122E1,3.245265782E-1
1.024604427E0,2.298904419E0,1.086520958E1,3.412763178E-1
1.027083906E0,2.296511650E0,1.086760235E1,3.412763178E-1
1.029563385E0,2.265404940E0,1.089631653E1,3.655036688E-1
1.032042031E0,2.274976015E0,1.087478065E1,4.253242314E-1
1.034520729E0,2.260619164E0,1.086042404E1,5.138586760E-1
1.037000208E0,2.294118643E0,1.087478065E1,5.401797295E-1
1.039479687E0,2.270190477E0,1.087956619E1,5.904290080E-1
1.041958333E0,2.241476536E0,1.086520958E1,6.191428304E-1
1.044437031E0,2.248655081E0,1.086520958E1,6.143572330E-1
1.046916510E0,2.246262312E0,1.086520958E1,6.526423693E-1
1.049395989E0,2.248655081E0,1.088435173E1,7.172485590E-1
1.051874635E0,2.251047850E0,1.089153004E1,7.339983582E-1
1.054353333E0,2.284547329E0,1.090588760E1,8.081758618E-1
1.056832812E0,2.296511650E0,1.092263699E1,8.679963946E-1
1.059312291E0,2.251047850E0,1.087478065E1,8.919246197E-1
1.061790937E0,2.241476536E0,1.085324574E1,9.496514797E-1
1.064269635E0,2.248655081E0,1.082692432E1,1.031007409E0
1.066749114E0,2.270190477E0,1.076471043E1,1.129113197E0
1.069228594E0,2.248655081E0,1.072163963E1,1.160219908E0
1.071707239E0,2.255833626E0,1.070249748E1,1.188933730E0
1.074185937E0,2.229512453E0,1.064507008E1,1.212862015E0
1.076665416E0,2.193620205E0,1.057298565E1,1.251147151E0
1.079144896E0,2.148156643E0,1.049641609E1,1.258325577E0
1.081623541E0,2.152942181E0,1.043180943E1,1.318146229E0
1.084102239E0,2.119442701E0,1.038156033E1,1.301396370E0
1.086581771E0,2.083550215E0,1.032413197E1,1.299003601E0
1.089061198E0,2.040479422E0,1.028584766E1,1.320538998E0
1.091539844E0,1.983051777E0,1.026670456E1,1.320538998E0
1.094018541E0,1.954337835E0,1.025234795E1,1.315753341E0
1.096498073E0,1.915753603E0,1.020209885E1,1.263111234E0
1.098977552E0,1.860718727E0,1.018774128E1,1.277468204E0
1.101456198E0,1.843968987E0,1.019731236E1,1.301396370E0
1.103934844E0,1.820040703E0,1.019731236E1,1.263111234E0
1.106414375E0,1.762612939E0,1.014227772E1,1.181755304E0
1.108893854E0,1.753041744E0,1.017338467E1,1.157827020E0
1.111372500E0,1.702792406E0,1.019013405E1,1.102792144E0
1.113851146E0,1.659721613E0,1.022841930E1,9.879366755E-1
1.116330677E0,1.587936878E0,1.020688438E1,9.233304262E-1
1.118810156E0,1.532902002E0,1.019252682E1,8.656035662E-1
1.121288802E0,1.542473316E0,1.016620636E1,8.656035662E-1
1.123767448E0,1.513759375E0,1.015663528E1,8.033902049E-1
1.126246979E0,1.470688581E0,1.014706326E1,7.579265833E-1
1.128726458E0,1.418046474E0,1.013509941E1,7.531409264E-1
1.131205104E0,1.398903966E0,1.009442139E1,7.244270444E-1
1.133683750E0,1.372582912E0,1.007288647E1,7.339983582E-1
1.136163281E0,1.353141189E0,1.004387283E1,7.052844763E-1
1.138642760E0,1.298106313E0,9.979267120E0,7.100701332E-1
1.141121406E0,1.288534999E0,9.919445992E0,6.957131624E-1
1.143600104E0,1.252642632E0,9.905089378E0,6.741777658E-1
1.146079583E0,1.252642632E0,9.878767967E0,6.358926296E-1
1.148559062E0,1.240678549E0,9.873982430E0,5.665007830E-1
1.151037708E0,1.219143152E0,9.826126099E0,4.899304509E-1
1.153516406E0,1.262213945E0,9.816555023E0,4.731806815E-1
1.155995885E0,1.353141189E0,9.816555023E0,4.612165689E-1
1.158475364E0,1.389332652E0,9.775876999E0,4.205385745E-1
1.160954010E0,1.441974759E0,9.701699257E0,3.607180119E-1
1.163432708E0,1.470688581E0,9.649057388E0,3.388835192E-1
1.165912187E0,1.494616866E0,9.589237213E0,2.575275302E-1
1.168391666E0,1.544866085E0,9.534201622E0,2.216351926E-1
1.170870312E0,1.628614902E0,9.495617867E0,1.474576890E-1
1.173349010E0,1.659721613E0,9.469296455E0,4.935196787E-2
1.175828489E0,1.724327803E0,9.395118713E0,-4.396811500E-2
1.178307969E0,1.779362798E0,9.344869614E0,-1.325025558E-1
1.180786614E0,1.836790442E0,9.325727463E0,-2.285145670E-1
1.183265312E0,1.913360834E0,9.308977127E0,-2.715853751E-1
1.185744791E0,1.995015860E0,9.275477409E0,-3.481557071E-1
1.188224271E0,2.083550215E0,9.263513565E0,-3.912265003E-1
1.190702916E0,2.152942181E0,9.241978645E0,-4.390829504E-1
1.193181614E0,2.212762833E0,9.234800339E0,-4.749752879E-1
1.195661094E0,2.339582443E0,9.234800339E0,-4.845465720E-1
1.198140573E0,2.430509567E0,9.251549721E0,-4.845465720E-1
1.200619219E0,2.564806700E0,9.249156952E0,-5.012963414E-1
1.203097916E0,2.658126831E0,9.313762665E0,-4.845465720E-1
1.205577396E0,2.717947483E0,9.335298538E0,-4.462614357E-1
1.208056875E0,2.801696301E0,9.359226227E0,-3.864408433E-1
1.210535521E0,2.909373283E0,9.426225662E0,-3.553341627E-1
1.213014219E0,2.990729094E0,9.488439560E0,-3.625126183E-1
1.215493698E0,3.040978432E0,9.548559189E0,-3.361915946E-1
1.217973177E0,3.120240688E0,9.622735977E0,-2.955136001E-1
1.220451823E0,3.163311481E0,9.694520950E0,-3.242274821E-1
1.222930521E0,3.223132133E0,9.787840843E0,-3.314059377E-1
1.225410000E0,3.256631613E0,9.862018585E0,-3.194418252E-1
1.227889479E0,3.285345554E0,9.976874352E0,-3.194418252E-1
1.230368125E0,3.306880951E0,1.009202862E1,-3.242274821E-1
1.232846823E0,3.304488182E0,1.018774128E1,-2.907279432E-1
1.235326302E0,3.287738323E0,1.024995518E1,-2.931207716E-1
1.237805781E0,3.215953588E0,1.030738258E1,-2.907279432E-1
1.240284427E0,3.120240688E0,1.034088230E1,-2.835494876E-1
1.242763125E0,3.021835804E0,1.035045338E1,-2.691925466E-1
1.245242604E0,2.904587507E0,1.036720276E1,-2.955136001E-1
1.247722083E0,2.830410004E0,1.038395309E1,-2.811566591E-1
1.250200729E0,2.758625507E0,1.040309525E1,-2.763710022E-1
1.252679427E0,2.705983400E0,1.043180943E1,-2.739782035E-1
1.255158906E0,2.679662228E0,1.041745281E1,-2.715853751E-1
1.257638385E0,2.674876690E0,1.045095158E1,-3.050848842E-1
1.260117031E0,2.691626310E0,1.044616604E1,-3.314059377E-1
1.262595729E0,2.691626310E0,1.045095158E1,-3.601198196E-1
1.265075208E0,2.682054996E0,1.045813084E1,-4.007977843E-1
1.267554687E0,2.658126831E0,1.043898773E1,-4.127618968E-1
1.270033333E0,2.653341293E0,1.042702389E1,-4.677968323E-1
1.272512031E0,2.631805897E0,1.043659496E1,-4.749752879E-1
1.274991510E0,2.603091955E0,1.042463112E1,-4.941178858E-1
1.277470989E0,2.552842617E0,1.042463112E1,-4.941178858E-1
1.279949635E0,2.488236427E0,1.047248745E1,-4.797609448E-1
1.282428333E0,2.425724030E0,1.051555824E1,-4.510470629E-1
1.284907864E0,2.358724833E0,1.054666519E1,-4.223332107E-1
1.287387291E0,2.258226395E0,1.058973598E1,-4.079762697E-1
1.289865937E0,2.164906263E0,1.062084198E1,-4.319044948E-1
1.292344635E0,2.093121529E0,1.065224838E1,-4.558327198E-1
1.294824166E0,2.011765718E0,1.068335533E1,-4.749752879E-1
1.297303594E0,1.935195327E0,1.065464115E1,-5.108676553E-1
1.299782239E0,1.882254124E0,1.060648537E1,-5.515456200E-1
1.302260937E0,1.779362798E0,1.056102180E1,-5.012963414E-1
1.304740469E0,1.709970832E0,1.047727299E1,-4.845465720E-1
1.307219948E0,1.614257932E0,1.041266727E1,-4.366901219E-1
1.309698594E0,1.544866085E0,1.035045338E1,-3.696911037E-1
1.312177239E0,1.446760416E0,1.030498981E1,-2.811566591E-1
1.314656771E0,1.398903966E0,1.024756241E1,-1.947159469E-1
1.317136250E0,1.353141189E0,1.024038315E1,-1.229312643E-1
1.319614896E0,1.276570916E0,1.026431179E1,-3.200400248E-2
1.322093541E0,1.219143152E0,1.025952625E1,2.542374097E-2
1.324573073E0,1.178465128E0,1.028584766E1,6.610172242E-2
1.327052552E0,1.118644595E0,1.034088230E1,1.307079345E-1
1.329531198E0,1.070788145E0,1.037677479E1,1.570289880E-1
1.332009844E0,9.894321561E-1,1.041506004E1,1.785643846E-1
1.334489375E0,9.391828775E-1,1.045813084E1,1.833500415E-1
1.336968854E0,8.554341197E-1,1.052273655E1,1.522433460E-1
1.339447500E0,7.737790346E-1,1.055862904E1,1.067797095E-1
1.341926198E0,6.756733060E-1,1.058495045E1,8.045866340E-2
1.344405677E0,6.254240274E-1,1.062562847E1,3.888336709E-3
1.346885156E0,5.201398134E-1,1.062831974E1,-8.703892678E-2
1.349363802E0,4.842474759E-1,1.063789082E1,-1.947159469E-1
1.351842500E0,4.124628007E-1,1.060409260E1,-3.290131092E-1
1.354321979E0,3.622135222E-1,1.059691429E1,-4.151547253E-1
1.356801458E0,3.430709541E-1,1.057777119E1,-5.012963414E-1
1.359280104E0,3.191427290E-1,1.055623627E1,-6.209374666E-1
1.361758802E0,3.646063507E-1,1.052034378E1,-7.334001660E-1
1.364238281E0,3.909274042E-1,1.047488022E1,-8.054839373E-1
1.366717760E0,4.411766827E-1,1.042941666E1,-8.748757839E-1
1.369196406E0,4.363910258E-1,1.038634586E1,-9.490532875E-1
1.371675104E0,4.674977362E-1,1.030259705E1,-9.993025661E-1
1.374154583E0,4.818546474E-1,1.024277687E1,-1.075872898E0
1.376634062E0,5.249254704E-1,1.016620636E1,-1.166800141E0
1.379112708E0,5.416752100E-1,1.008724308E1,-1.214656591E0
1.381591406E0,6.086742878E-1,1.005823040E1,-1.269691467E0
1.384070885E0,6.493522525E-1,1.004865837E1,-1.279262781E0
1.386550364E0,6.996015310E-1,1.003669453E1,-1.293619752E0
1.389029010E0,7.354938388E-1,1.002712345E1,-1.319940805E0
1.391507708E0,8.123632669E-1,1.005583763E1,-1.339083314E0
1.393987187E0,8.458628058E-1,1.007049274E1,-1.346560955E0
1.396466666E0,8.793623447E-1,1.011117077E1,-1.331904888E0
1.398945312E0,9.367900491E-1,1.017577744E1,-1.317547917E0
1.401424010E0,1.015753269E0,1.025713348E1,-1.276870012E0
1.403903489E0,1.104287624E0,1.030977535E1,-1.219442248E0
1.406382969E0,1.166501045E0,1.036241722E1,-1.159621716E0
1.408861614E0,1.233500123E0,1.039591694E1,-1.104586720E0
1.411340312E0,1.298106313E0,1.041745281E1,-1.080658555E0
1.413819791E0,1.324427366E0,1.043180943E1,-1.044766188E0
1.416299271E0,1.365404367E0,1.041984558E1,-1.023230791E0
1.418777916E0,1.434796333E0,1.045095158E1,-9.945169091E-1
1.421256614E0,1.451546073E0,1.045573807E1,-9.658030272E-1
1.423736094E0,1.528116345E0,1.045095158E1,-9.370891452E-1
1.426215573E0,1.537687659E0,1.044855881E1,-8.844470978E-1
1.428694219E0,1.568794370E0,1.044377327E1,-8.557332158E-1
1.431172916E0,1.611865163E0,1.040788078E1,-8.126623631E-1
1.433652396E0,1.638186216E0,1.041266727E1,-7.839485407E-1
1.436131875E0,1.662114382E0,1.038156033E1,-7.692924738E-1
1.438610521E0,1.635793328E0,1.035763168E1,-7.334001660E-1
1.441089219E0,1.654935956E0,1.037198925E1,-6.999006271E-1
1.443568698E0,1.657328725E0,1.035763168E1,-6.735795736E-1
1.446048177E0,1.645364642E0,1.036241722E1,-6.831508875E-1
1.448526823E0,1.621436477E0,1.037677479E1,-6.951149702E-1
1.451005521E0,1.573580027E0,1.040788078E1,-6.927221417E-1
1.453485000E0,1.520937920E0,1.041266727E1,-6.999006271E-1
1.455964479E0,1.497009635E0,1.044138050E1,-6.975077987E-1
1.458443125E0,1.461117268E0,1.044855881E1,-7.094719410E-1
1.460921823E0,1.394118309E0,1.046530914E1,-7.262216806E-1
1.463401302E0,1.338784218E0,1.046052361E1,-6.975077987E-1
1.465880833E0,1.255035520E0,1.047727299E1,-6.735795736E-1
1.468359479E0,1.190429211E0,1.045813084E1,-6.640082598E-1
1.470838125E0,1.089930773E0,1.049162960E1,-6.161518097E-1
1.473317656E0,1.051645517E0,1.049402237E1,-6.185446382E-1
1.475797135E0,1.008574724E0,1.048445129E1,-5.994020700E-1
1.478275781E0,9.702895880E-1,1.047488022E1,-5.802595019E-1
1.480754427E0,9.415757060E-1,1.048684406E1,-5.874379873E-1
1.483233958E0,8.841479421E-1,1.050837994E1,-6.233302951E-1
1.485713437E0,8.386843204E-1,1.048684406E1,-6.352944374E-1
1.488192083E0,8.147560954E-1,1.050598717E1,-6.735795736E-1
1.490670729E0,8.027920127E-1,1.053230762E1,-6.855437160E-1
1.493150260E0,7.905287743E-1,1.054427242E1,-6.999006271E-1
1.495629739E0,7.737790346E-1,1.057059288E1,-7.310073376E-1
1.498108385E0,7.905287743E-1,1.057298565E1,-7.668996453E-1
1.500587083E0,7.881359458E-1,1.057298565E1,-8.102695942E-1
1.503066562E0,7.761718631E-1,1.055145073E1,-8.581260443E-1
1.505546041E0,7.761718631E-1,1.052752209E1,-8.868398666E-1
1.508024687E0,7.761718631E-1,1.050837994E1,-9.275178909E-1
1.510503385E0,7.929216027E-1,1.047488022E1,-9.490532875E-1
1.512982864E0,7.857431173E-1,1.043659496E1,-1.011266708E0
1.515462344E0,8.027920127E-1,1.040309525E1,-1.056730270E0
1.517940989E0,8.027920127E-1,1.035284615E1,-1.099801064E0
1.520419687E0,8.003991842E-1,1.033609676E1,-1.118943691E0
1.522899166E0,8.075776696E-1,1.025713348E1,-1.171585798E0
1.525378646E0,7.570292354E-1,1.023799038E1,-1.190728426E0
1.527857291E0,7.761718631E-1,1.018774128E1,-1.214656591E0
1.530335989E0,7.857431173E-1,1.018056297E1,-1.250548959E0
1.532815469E0,8.027920127E-1,1.015424156E1,-1.274477124E0
1.535294948E0,8.003991842E-1,1.013749218E1,-1.305583835E0
1.537773594E0,7.881359458E-1,1.014227772E1,-1.296012521E0
1.540252291E0,7.689933777E-1,1.015663528E1,-1.322333574E0
1.542731771E0,7.570292354E-1,1.019491959E1,-1.312762380E0
1.545211250E0,7.618148923E-1,1.023320484E1,-1.300798178E0
1.547689896E0,7.905287743E-1,1.027149010E1,-1.272084355E0
1.550168594E0,8.027920127E-1,1.032413197E1,-1.303191066E0
1.552648073E0,8.003991842E-1,1.036480999E1,-1.269691467E0
1.555127552E0,8.099704385E-1,1.039113140E1,-1.276870012E0
1.557606198E0,7.980063558E-1,1.042941666E1,-1.284048438E0
1.560084896E0,7.833502889E-1,1.044855881E1,-1.298405409E0
1.562564375E0,7.689933777E-1,1.049162960E1,-1.286441326E0
1.565043854E0,7.833502889E-1,1.052512932E1,-1.303191066E0
1.567522500E0,7.980063558E-1,1.056102180E1,-1.286441326E0
1.570001198E0,7.809575200E-1,1.061366367E1,-1.286441326E0
1.572480677E0,7.546364665E-1,1.065942669E1,-1.284048438E0
1.574960156E0,7.666005492E-1,1.069531918E1,-1.293619752E0
1.577438802E0,7.785646915E-1,1.070010471E1,-1.281655669E0
1.579917500E0,7.833502889E-1,1.070489025E1,-1.272084355E0
1.582396979E0,7.761718631E-1,1.070249748E1,-1.250548959E0
1.584876458E0,7.666005492E-1,1.069053364E1,-1.217049360E0
1.587355104E0,7.642077208E-1,1.067378330E1,-1.200299621E0
1.589833802E0,7.857431173E-1,1.066421223E1,-1.164407372E0
1.592313281E0,7.980063558E-1,1.062084198E1,-1.135693431E0
1.594792760E0,7.905287743E-1,1.063789082E1,-1.104586720E0
1.597271406E0,7.809575200E-1,1.060409260E1,-1.056730270E0
1.599750104E0,7.785646915E-1,1.059452152E1,-1.039980531E0
1.602229583E0,7.809575200E-1,1.057059288E1,-1.032802105E0
1.604709062E0,7.929216027E-1,1.053948689E1,-9.945169091E-1
1.607187708E0,7.953144312E-1,1.053709316E1,-9.394819736E-1
1.609666406E0,8.123632669E-1,1.051555824E1,-9.059824944E-1
1.612145885E0,7.953144312E-1,1.049402237E1,-8.796614408E-1
1.614625364E0,8.147560954E-1,1.047966576E1,-8.605188727E-1
1.617104010E0,8.003991842E-1,1.047009468E1,-8.653044701E-1
1.619582708E0,7.689933777E-1,1.044855881E1,-8.365905881E-1
1.622062239E0,7.785646915E-1,1.043898773E1,-8.365905881E-1
1.624541719E0,7.689933777E-1,1.043659496E1,-8.054839373E-1
1.627020364E0,7.402794957E-1,1.044855881E1,-7.935197949E-1
1.629499010E0,7.450651526E-1,1.044138050E1,-8.006982803E-1
1.631978541E0,7.546364665E-1,1.045813084E1,-7.692924738E-1
1.634458021E0,7.402794957E-1,1.044616604E1,-7.429714203E-1
1.636936666E0,7.354938388E-1,1.045095158E1,-7.525427341E-1
1.639415312E0,7.594220638E-1,1.046530914E1,-7.453642488E-1
1.641894844E0,7.689933777E-1,1.046291637E1,-7.788637877E-1
1.644374323E0,7.570292354E-1,1.047727299E1,-7.911269665E-1
1.646852969E0,7.666005492E-1,1.045334530E1,-8.102695942E-1
1.649331614E0,7.833502889E-1,1.045813084E1,-8.461619020E-1
1.651811146E0,7.905287743E-1,1.045334530E1,-8.557332158E-1
1.654290625E0,7.953144312E-1,1.046052361E1,-8.892326951E-1
1.656769271E0,8.219345808E-1,1.046291637E1,-9.203394055E-1
1.659247916E0,8.410771489E-1,1.048684406E1,-9.442676306E-1
1.661727448E0,8.506484628E-1,1.049880886E1,-9.777671695E-1
1.664206927E0,8.769695163E-1,1.052034378E1,-1.023230791E0
1.666685573E0,9.104689956E-1,1.054666519E1,-1.020837903E0
1.669164271E0,9.367900491E-1,1.056820011E1,-1.066301584E0
1.671643750E0,9.200403094E-1,1.056580734E1,-1.063908815E0
1.674123229E0,9.152546525E-1,1.058016396E1,-1.095015407E0
1.676601875E0,9.702895880E-1,1.059930706E1,-1.063908815E0
1.679080573E0,9.822536707E-1,1.060169983E1,-1.114158034E0
1.681560052E0,1.003789067E0,1.061127090E1,-1.104586720E0
1.684039531E0,1.030110121E0,1.060887814E1,-1.111765265E0
1.686518177E0,1.077966571E0,1.062831974E1,-1.102193952E0
1.688996875E0,1.092323542E0,1.062323570E1,-1.099801064E0
1.691476354E0,1.123430252E0,1.062831974E1,-1.083051324E0
1.693955833E0,1.180858016E0,1.064028454E1,-1.116550922E0
1.696434479E0,1.195214868E0,1.062323570E1,-1.106979609E0
1.698913177E0,1.226321578E0,1.061605644E1,-1.102193952E0
1.701392656E0,1.243071318E0,1.059691429E1,-1.109372377E0
1.703872135E0,1.288534999E0,1.058016396E1,-1.075872898E0
1.706350781E0,1.295713425E0,1.055623627E1,-1.078265667E0
1.708829479E0,1.310070395E0,1.052273655E1,-1.051944613E0
1.711308958E0,1.322034478E0,1.050598717E1,-1.023230791E0
1.713788437E0,1.319641709E0,1.050598717E1,-1.011266708E0
1.716267083E0,1.363011599E0,1.047727299E1,-9.705886841E-1
1.718745781E0,1.357926846E0,1.046770191E1,-9.490532875E-1
1.721225260E0,1.372582912E0,1.045334530E1,-9.394819736E-1
1.723704739E0,1.345962763E0,1.044138050E1,-8.964111805E-1
1.726183385E0,1.345962763E0,1.043659496E1,-8.605188727E-1
1.728662083E0,1.326820135E0,1.041506004E1,-8.270193338E-1
1.731141562E0,1.300499082E0,1.044616604E1,-8.030911088E-1
1.733621041E0,1.293320656E0,1.044616604E1,-7.573283911E-1
1.736099687E0,1.276570916E0,1.043898773E1,-7.166503668E-1
1.738578385E0,1.262213945E0,1.046770191E1,-6.927221417E-1
1.741057864E0,1.214357495E0,1.046770191E1,-6.520441771E-1
1.743537344E0,1.185643673E0,1.048923683E1,-6.305087805E-1
1.746015989E0,1.180858016E0,1.049880886E1,-6.089733839E-1
1.748494687E0,1.123430252E0,1.052273655E1,-5.778666735E-1
1.750974166E0,1.082752228E0,1.052512932E1,-5.635097623E-1
1.753453646E0,1.073180914E0,1.057298565E1,-5.587241054E-1
1.755932291E0,1.061216831E0,1.058495045E1,-5.371887088E-1
1.758410989E0,1.042074203E0,1.060409260E1,-5.371887088E-1
1.760890469E0,1.032503009E0,1.061844921E1,-5.300102234E-1
1.763370000E0,9.990034699E-1,1.063789082E1,-5.084748268E-1
1.765848646E0,9.894321561E-1,1.064267731E1,-4.965106845E-1
1.768327291E0,9.726824164E-1,1.064985561E1,-5.156532526E-1
1.770806823E0,9.750752449E-1,1.065464115E1,-4.965106845E-1
1.773286250E0,9.631111026E-1,1.064985561E1,-5.036891699E-1
1.775764896E0,9.631111026E-1,1.066660500E1,-5.060819983E-1
1.778243594E0,9.702895880E-1,1.064746284E1,-5.060819983E-1
1.780723125E0,9.750752449E-1,1.064028454E1,-5.204389095E-1
1.783202604E0,1.001396298E0,1.063310528E1,-5.324030519E-1
1.785681250E0,1.015753269E0,1.061366367E1,-5.635097623E-1
1.788159896E0,1.032503009E0,1.060887814E1,-5.611169338E-1
1.790639427E0,1.051645517E0,1.056341457E1,-5.922235847E-1
1.793118906E0,1.054038405E0,1.053230762E1,-5.922235847E-1
1.795597552E0,1.077966571E0,1.052991486E1,-6.329016089E-1
1.798076198E0,1.101894855E0,1.048923683E1,-6.664010882E-1
1.800555729E0,1.116251707E0,1.045813084E1,-6.687939167E-1
1.803035208E0,1.152144074E0,1.046291637E1,-6.999006271E-1
1.805513854E0,1.152144074E0,1.042702389E1,-7.357929349E-1
1.807992552E0,1.173679471E0,1.042941666E1,-7.429714203E-1
1.810472031E0,1.185643673E0,1.039591694E1,-7.692924738E-1
1.812951510E0,1.192822099E0,1.037677479E1,-8.006982803E-1
1.815430156E0,1.223928809E0,1.036241722E1,-8.150551915E-1
1.817908854E0,1.216750264E0,1.037198925E1,-8.437690735E-1
1.820388333E0,1.247856975E0,1.034566784E1,-8.748757839E-1
1.822867812E0,1.264606714E0,1.036241722E1,-9.083753228E-1
1.825346458E0,1.266999602E0,1.035523891E1,-9.179465771E-1
1.827825156E0,1.290927768E0,1.034566784E1,-9.466604590E-1
1.830304635E0,1.293320656E0,1.038156033E1,-9.610173702E-1
1.832784114E0,1.305284739E0,1.038156033E1,-9.777671695E-1
1.835262760E0,1.314856052E0,1.038873863E1,-9.993025661E-1
1.837741458E0,1.324427366E0,1.039591694E1,-1.023230791E0
1.840220937E0,1.317248821E0,1.041027355E1,-1.042373419E0
1.842700416E0,1.302891970E0,1.040548801E1,-1.035194874E0
1.845179062E0,1.300499082E0,1.039591694E1,-1.071087241E0
1.847657760E0,1.298106313E0,1.041745281E1,-1.054337502E0
1.850137239E0,1.298106313E0,1.038634586E1,-1.059123158E0
1.852616719E0,1.295713425E0,1.039830971E1,-1.075872898E0
1.855095364E0,1.288534999E0,1.040070248E1,-1.068694472E0
1.857574062E0,1.300499082E0,1.043420219E1,-1.039980531E0
1.860053541E0,1.300499082E0,1.041266727E1,-1.008873820E0
1.862533021E0,1.290927768E0,1.041266727E1,-1.011266708E0
1.865011666E0,1.302891970E0,1.041506004E1,-9.969097376E-1
1.867490364E0,1.288534999E0,1.039113140E1,-9.610173702E-1
1.869969844E0,1.271785259E0,1.039830971E1,-9.514461160E-1
1.872449323E0,1.278963685E0,1.040548801E1,-9.203394055E-1
1.874927969E0,1.283749342E0,1.041027355E1,-8.868398666E-1
1.877406666E0,1.278963685E0,1.039352417E1,-8.581260443E-1
1.879886146E0,1.286142230E0,1.040788078E1,-8.270193338E-1
1.882365625E0,1.271785259E0,1.042223835E1,-8.006982803E-1
1.884844271E0,1.257428288E0,1.042223835E1,-8.006982803E-1
1.887322969E0,1.283749342E0,1.040070248E1,-7.692924738E-1
1.889802448E0,1.278963685E0,1.041506004E1,-7.334001660E-1
1.892281927E0,1.278963685E0,1.038873863E1,-7.214360237E-1
1.894760573E0,1.271785259E0,1.042463112E1,-6.879364848E-1
1.897239271E0,1.266999602E0,1.040070248E1,-6.735795736E-1
1.899718750E0,1.262213945E0,1.041984558E1,-6.376872063E-1
1.902198229E0,1.293320656E0,1.040309525E1,-6.400800347E-1
1.904676875E0,1.286142230E0,1.040788078E1,-5.922235847E-1
1.907155573E0,1.290927768E0,1.041027355E1,-6.137589812E-1
1.909635104E0,1.269392371E0,1.041984558E1,-6.137589812E-1
1.912114583E0,1.300499082E0,1.044855881E1,-6.065805554E-1
1.914593229E0,1.317248821E0,1.047248745E1,-5.802595019E-1
1.917071875E0,1.295713425E0,1.050120163E1,-5.922235847E-1
1.919551406E0,1.295713425E0,1.052752209E1,-5.874379873E-1
1.922030885E0,1.312463164E0,1.056102180E1,-5.970092416E-1
1.924509531E0,1.365404367E0,1.058255768E1,-5.946164131E-1
1.926988177E0,1.350748420E0,1.061127090E1,-5.778666735E-1
1.929467708E0,1.367797256E0,1.063071251E1,-5.802595019E-1
1.931947187E0,1.363011599E0,1.062831974E1,-5.922235847E-1
1.934425833E0,1.372582912E0,1.061844921E1,-5.946164131E-1
1.936904531E0,1.370190024E0,1.058495045E1,-6.089733839E-1
1.939384010E0,1.345962763E0,1.057059288E1,-6.137589812E-1
1.941863489E0,1.367797256E0,1.053709316E1,-6.257231236E-1
1.944342135E0,1.384546995E0,1.050120163E1,-6.161518097E-1
1.946820833E0,1.382154226E0,1.048205853E1,-6.257231236E-1
1.949300312E0,1.389332652E0,1.045334530E1,-6.233302951E-1
1.951779791E0,1.398903966E0,1.045813084E1,-6.257231236E-1
1.954258437E0,1.420439363E0,1.042702389E1,-6.137589812E-1
1.956737135E0,1.439581871E0,1.042702389E1,-5.994020700E-1
1.959216614E0,1.451546073E0,1.038634586E1,-6.137589812E-1
1.961696094E0,1.461117268E0,1.038634586E1,-6.161518097E-1
1.964174739E0,1.504188180E0,1.038395309E1,-5.994020700E-1
1.966653437E0,1.497009635E0,1.036480999E1,-6.017948985E-1
1.969132916E0,1.513759375E0,1.037438202E1,-5.874379873E-1
1.971612396E0,1.544866085E0,1.033609676E1,-5.730810165E-1
1.974091041E0,1.540080428E0,1.032652569E1,-5.778666735E-1
1.976569739E0,1.559223056E0,1.031934643E1,-5.898307562E-1
1.979049219E0,1.561615825E0,1.030498981E1,-5.682953596E-1
1.981528698E0,1.573580027E0,1.032652569E1,-5.730810165E-1
1.984007344E0,1.599901080E0,1.030977535E1,-5.754738450E-1
1.986486041E0,1.568794370E0,1.030498981E1,-5.563312769E-1
1.988965521E0,1.573580027E0,1.027627563E1,-5.778666735E-1
1.991445000E0,1.552044630E0,1.028106117E1,-5.659025311E-1
1.993923646E0,1.571187139E0,1.027149010E1,-5.587241054E-1
1.996402344E0,1.544866085E0,1.024995518E1,-5.754738450E-1
1.998881823E0,1.561615825E0,1.024516964E1,-5.754738450E-1
2.001361302E0,1.540080428E0,1.023799038E1,-5.730810165E-1
2.003839948E0,1.535294771E0,1.024756241E1,-5.802595019E-1
2.006318646E0,1.537687659E0,1.026431179E1,-5.874379873E-1
2.008798125E0,1.544866085E0,1.025952625E1,-5.898307562E-1
2.011277604E0,1.566401482E0,1.030738258E1,-5.802595019E-1
2.013756250E0,1.544866085E0,1.032413197E1,-5.898307562E-1
2.016234948E0,1.547258973E0,1.034088230E1,-5.970092416E-1
2.018714427E0,1.552044630E0,1.037677479E1,-5.778666735E-1
2.021193906E0,1.532902002E0,1.038873863E1,-5.826523304E-1
2.023672552E0,1.540080428E0,1.040788078E1,-5.754738450E-1
2.026151250E0,1.528116345E0,1.042941666E1,-5.826523304E-1
2.028630781E0,1.520937920E0,1.042702389E1,-5.826523304E-1
2.031110208E0,1.542473316E0,1.047248745E1,-5.706881881E-1
2.033588854E0,1.544866085E0,1.047009468E1,-5.515456200E-1
2.036067552E0,1.528116345E0,1.046530914E1,-5.682953596E-1
2.038547083E0,1.542473316E0,1.047488022E1,-5.802595019E-1
2.041026510E0,1.540080428E0,1.047488022E1,-5.850451589E-1
2.043505156E0,1.549651742E0,1.047727299E1,-5.922235847E-1
2.045983854E0,1.568794370E0,1.049162960E1,-5.922235847E-1
2.048463385E0,1.547258973E0,1.049641609E1,-5.802595019E-1
2.050942864E0,1.575972795E0,1.048445129E1,-5.730810165E-1
2.053421510E0,1.590329766E0,1.048684406E1,-5.539384484E-1
2.055900156E0,1.599901080E0,1.047248745E1,-5.778666735E-1
2.058379687E0,1.587936878E0,1.045573807E1,-5.682953596E-1
2.060859166E0,1.597508192E0,1.042223835E1,-5.587241054E-1
2.063337812E0,1.607079506E0,1.040070248E1,-5.778666735E-1
2.065816510E0,1.621436477E0,1.037438202E1,-5.682953596E-1
2.068295989E0,1.607079506E0,1.036480999E1,-5.467599630E-1
2.070775469E0,1.631007791E0,1.036959648E1,-5.204389095E-1
2.073254114E0,1.659721613E0,1.032413197E1,-4.941178858E-1
2.075732812E0,1.664507270E0,1.030259705E1,-4.845465720E-1
2.078212291E0,1.664507270E0,1.026909733E1,-4.821537733E-1
2.080691771E0,1.669292927E0,1.025474072E1,-4.797609448E-1
2.083170416E0,1.654935956E0,1.025474072E1,-4.797609448E-1
2.085649114E0,1.666900039E0,1.023799038E1,-4.606183469E-1
2.088128594E0,1.669292927E0,1.021645546E1,-4.510470629E-1
2.090608073E0,1.662114382E0,1.023320484E1,-4.486542344E-1
2.093086719E0,1.678864241E0,1.024038315E1,-4.606183469E-1
2.095565416E0,1.657328725E0,1.024277687E1,-4.797609448E-1
2.098044896E0,1.681257010E0,1.022124100E1,-4.701896608E-1
2.100524375E0,1.652543187E0,1.025474072E1,-4.869394004E-1
2.103003021E0,1.657328725E0,1.026431179E1,-4.749752879E-1
2.105481719E0,1.683649778E0,1.026670456E1,-4.965106845E-1
2.107961198E0,1.671685696E0,1.028584766E1,-5.036891699E-1
2.110440677E0,1.676471353E0,1.029302597E1,-4.749752879E-1
2.112919323E0,1.676471353E0,1.030977535E1,-4.941178858E-1
2.115398021E0,1.674078584E0,1.031216812E1,-4.677968323E-1
2.117877500E0,1.681257010E0,1.032173920E1,-4.869394004E-1
2.120356979E0,1.688435435E0,1.031934643E1,-4.701896608E-1
2.122835625E0,1.695613980E0,1.032652569E1,-4.630111754E-1
2.125314323E0,1.671685696E0,1.033131123E1,-4.797609448E-1
2.127793802E0,1.702792406E0,1.031934643E1,-4.725824594E-1
2.130273281E0,1.709970832E0,1.029302597E1,-4.677968323E-1
2.132751927E0,1.690828323E0,1.029302597E1,-4.725824594E-1
2.135230625E0,1.674078584E0,1.030738258E1,-4.558327198E-1
2.137710104E0,1.681257010E0,1.030738258E1,-4.558327198E-1
2.140189583E0,1.676471353E0,1.030259705E1,-4.558327198E-1
2.142668229E0,1.695613980E0,1.031934643E1,-4.773681164E-1
2.145146927E0,1.700399637E0,1.029781151E1,-4.821537733E-1
2.147626406E0,1.707578063E0,1.029302597E1,-4.773681164E-1
2.150105937E0,1.700399637E0,1.030259705E1,-4.845465720E-1
2.152584583E0,1.707578063E0,1.030259705E1,-4.989035130E-1
2.155063229E0,1.705185294E0,1.029302597E1,-4.917250574E-1
2.157542708E0,1.712363720E0,1.029302597E1,-4.869394004E-1
2.160022239E0,1.686042666E0,1.029063320E1,-4.797609448E-1
2.162500885E0,1.705185294E0,1.030020428E1,-4.917250574E-1
2.164979531E0,1.700399637E0,1.030259705E1,-5.084748268E-1
2.167459062E0,1.709970832E0,1.030977535E1,-4.749752879E-1
2.169938541E0,1.712363720E0,1.030020428E1,-4.773681164E-1
2.172417187E0,1.709970832E0,1.030498981E1,-4.845465720E-1
2.174895833E0,1.717149377E0,1.028345394E1,-4.869394004E-1
2.177375364E0,1.731506228E0,1.029302597E1,-4.845465720E-1
2.179854844E0,1.712363720E0,1.030020428E1,-4.654040039E-1
2.182333489E0,1.733899117E0,1.029781151E1,-4.582255483E-1
2.184812187E0,1.714756489E0,1.030259705E1,-4.582255483E-1
2.187291666E0,1.719542146E0,1.030738258E1,-4.582255483E-1
2.189771146E0,1.695613980E0,1.031695366E1,-4.606183469E-1
2.192249791E0,1.690828323E0,1.032413197E1,-4.534398913E-1
2.194728489E0,1.683649778E0,1.031934643E1,-4.366901219E-1
2.197207969E0,1.693221092E0,1.033370399E1,-4.366901219E-1
2.199687448E0,1.662114382E0,1.033131123E1,-4.247260094E-1
2.202166094E0,1.657328725E0,1.035523891E1,-4.342973232E-1
2.204644791E0,1.662114382E0,1.036002445E1,-4.342973232E-1
2.207124271E0,1.662114382E0,1.037438202E1,-4.079762697E-1
2.209603750E0,1.631007791E0,1.037438202E1,-4.199403822E-1
2.212082396E0,1.642971873E0,1.036241722E1,-4.366901219E-1
2.214561094E0,1.654935956E0,1.036002445E1,-4.103690982E-1
2.217040573E0,1.662114382E0,1.036241722E1,-4.103690982E-1
2.219520052E0,1.650150299E0,1.035284615E1,-4.079762697E-1
2.221998698E0,1.652543187E0,1.035763168E1,-4.127618968E-1
2.224477396E0,1.652543187E0,1.036959648E1,-4.366901219E-1
2.226956875E0,1.676471353E0,1.034327507E1,-4.247260094E-1
2.229436354E0,1.671685696E0,1.033848953E1,-4.175475538E-1
2.231915000E0,1.690828323E0,1.033609676E1,-4.175475538E-1
2.234393698E0,1.698006749E0,1.035284615E1,-4.199403822E-1
2.236873177E0,1.726720691E0,1.035763168E1,-4.079762697E-1
2.239352656E0,1.721935034E0,1.035523891E1,-4.055834413E-1
2.241831302E0,1.719542146E0,1.035763168E1,-3.816552162E-1
2.244310000E0,1.743470430E0,1.035045338E1,-3.792623878E-1
2.246789479E0,1.755434513E0,1.033848953E1,-3.720839322E-1
2.249268958E0,1.750648856E0,1.035763168E1,-3.553341627E-1
2.251747604E0,1.750648856E0,1.034327507E1,-3.696911037E-1
2.254226302E0,1.750648856E0,1.035523891E1,-3.744767308E-1
2.256705781E0,1.743470430E0,1.037198925E1,-3.529413342E-1
2.259185260E0,1.741077542E0,1.037677479E1,-3.529413342E-1
2.261663906E0,1.767398596E0,1.037916756E1,-3.529413342E-1
2.264142604E0,1.767398596E0,1.036720276E1,-3.337987661E-1
2.266622083E0,1.774577141E0,1.036002445E1,-3.481557071E-1
2.269101562E0,1.765005827E0,1.037677479E1,-3.768695593E-1
2.271580208E0,1.774577141E0,1.040070248E1,-3.481557071E-1
2.274058906E0,1.781755567E0,1.039352417E1,-3.361915946E-1
2.276538385E0,1.774577141E0,1.038395309E1,-3.505485058E-1
2.279017916E0,1.786541224E0,1.039113140E1,-3.577269912E-1
2.281496562E0,1.796112537E0,1.038634586E1,-3.194418252E-1
2.283975208E0,1.788933992E0,1.037916756E1,-3.314059377E-1
2.286454739E0,1.798505306E0,1.037916756E1,-3.074777126E-1
2.288934219E0,1.796112537E0,1.038395309E1,-2.979064286E-1
2.291412864E0,1.781755567E0,1.039113140E1,-2.763710022E-1
2.293891510E0,1.810469389E0,1.037438202E1,-3.050848842E-1
2.296371041E0,1.796112537E0,1.037916756E1,-2.811566591E-1
2.298850521E0,1.769791484E0,1.035523891E1,-2.787638307E-1
2.301329166E0,1.786541224E0,1.034088230E1,-2.811566591E-1
2.303807864E0,1.774577141E0,1.033609676E1,-2.883351147E-1
2.306287344E0,1.743470430E0,1.033370399E1,-2.883351147E-1
2.308766823E0,1.741077542E0,1.032891846E1,-2.596212626E-1
2.311245469E0,1.719542146E0,1.032173920E1,-2.644068897E-1
2.313724166E0,1.726720691E0,1.030738258E1,-2.739782035E-1
2.316203646E0,1.729113460E0,1.030977535E1,-2.739782035E-1
2.318683125E0,1.705185294E0,1.030977535E1,-2.644068897E-1
2.321161771E0,1.705185294E0,1.030977535E1,-2.691925466E-1
2.323640469E0,1.707578063E0,1.030738258E1,-2.763710022E-1
2.326119948E0,1.686042666E0,1.029541874E1,-2.763710022E-1
2.328599427E0,1.686042666E0,1.028824043E1,-2.715853751E-1
2.331078073E0,1.695613980E0,1.028106117E1,-2.787638307E-1
2.333556771E0,1.702792406E0,1.029063320E1,-2.835494876E-1
2.336036250E0,1.693221092E0,1.027866840E1,-2.955136001E-1
2.338515729E0,1.698006749E0,1.029063320E1,-2.787638307E-1
2.340994375E0,1.690828323E0,1.028345394E1,-2.859423161E-1
2.343473073E0,1.714756489E0,1.027149010E1,-2.931207716E-1
2.345952552E0,1.717149377E0,1.028824043E1,-2.931207716E-1
2.348432031E0,1.714756489E0,1.027149010E1,-2.955136001E-1
2.350910677E0,1.726720691E0,1.028345394E1,-3.002992272E-1
2.353389375E0,1.729113460E0,1.029781151E1,-3.385843933E-1
2.355868854E0,1.719542146E0,1.032173920E1,-3.266202807E-1
2.358348333E0,1.714756489E0,1.031216812E1,-3.457628787E-1
2.360826979E0,1.707578063E0,1.031695366E1,-3.696911037E-1
2.363305677E0,1.698006749E0,1.032891846E1,-3.672982752E-1
2.365785156E0,1.702792406E0,1.036241722E1,-3.984049559E-1
2.368264635E0,1.712363720E0,1.036002445E1,-3.864408433E-1
2.370743281E0,1.712363720E0,1.036002445E1,-3.840480447E-1
2.373221979E0,1.707578063E0,1.036720276E1,-4.031906128E-1
2.375701458E0,1.693221092E0,1.036002445E1,-3.672982752E-1
2.378180937E0,1.676471353E0,1.038395309E1,-3.936193287E-1
2.380659583E0,1.674078584E0,1.040309525E1,-3.768695593E-1
2.383138281E0,1.657328725E0,1.041984558E1,-3.744767308E-1
2.385617812E0,1.657328725E0,1.041506004E1,-3.696911037E-1
2.388097291E0,1.654935956E0,1.042702389E1,-3.696911037E-1
2.390575937E0,1.666900039E0,1.043420219E1,-3.696911037E-1
2.393054583E0,1.647757530E0,1.043420219E1,-3.744767308E-1
2.395534114E0,1.652543187E0,1.042941666E1,-3.649054468E-1
2.398013594E0,1.638186216E0,1.043180943E1,-3.481557071E-1
2.400492239E0,1.642971873E0,1.043898773E1,-3.577269912E-1
2.402970885E0,1.642971873E0,1.044138050E1,-3.601198196E-1
2.405450416E0,1.635793328E0,1.047248745E1,-3.481557071E-1
2.407929896E0,1.657328725E0,1.045573807E1,-3.337987661E-1
2.410408541E0,1.664507270E0,1.044855881E1,-3.385843933E-1
2.412887239E0,1.659721613E0,1.046052361E1,-3.314059377E-1
2.415366719E0,1.654935956E0,1.046052361E1,-3.122633696E-1
2.417846198E0,1.669292927E0,1.043180943E1,-3.098705411E-1
2.420324844E0,1.683649778E0,1.041745281E1,-3.146561682E-1
2.422803541E0,1.688435435E0,1.041506004E1,-3.170489967E-1
2.425283021E0,1.683649778E0,1.041266727E1,-3.194418252E-1
2.427762500E0,1.705185294E0,1.039591694E1,-3.074777126E-1
2.430241146E0,1.705185294E0,1.038873863E1,-3.146561682E-1
2.432719844E0,1.698006749E0,1.036720276E1,-3.266202807E-1
2.435199323E0,1.707578063E0,1.035045338E1,-3.242274821E-1
2.437678802E0,1.700399637E0,1.034566784E1,-3.146561682E-1
2.440157448E0,1.709970832E0,1.032652569E1,-3.505485058E-1
2.442636146E0,1.698006749E0,1.032413197E1,-3.122633696E-1
2.445115625E0,1.688435435E0,1.031695366E1,-3.385843933E-1
2.447595104E0,1.700399637E0,1.031695366E1,-3.146561682E-1
2.450073750E0,1.693221092E0,1.029541874E1,-3.218346536E-1
2.452552448E0,1.695613980E0,1.030738258E1,-3.146561682E-1
2.455031927E0,1.693221092E0,1.029302597E1,-3.146561682E-1
2.457511406E0,1.671685696E0,1.030259705E1,-3.170489967E-1
2.459990052E0,1.674078584E0,1.030498981E1,-3.481557071E-1
2.462468750E0,1.662114382E0,1.030498981E1,-3.314059377E-1
2.464948229E0,1.676471353E0,1.030259705E1,-3.170489967E-1
2.467427708E0,1.662114382E0,1.029541874E1,-3.074777126E-1
2.469906354E0,1.654935956E0,1.029302597E1,-3.314059377E-1
2.472385052E0,1.623829246E0,1.030977535E1,-2.907279432E-1
2.474864531E0,1.640578985E0,1.030977535E1,-2.931207716E-1
2.477344010E0,1.621436477E0,1.032413197E1,-3.050848842E-1
2.479822656E0,1.621436477E0,1.031216812E1,-2.883351147E-1
2.482301354E0,1.623829246E0,1.035284615E1,-2.835494876E-1
2.484780833E0,1.623829246E0,1.034327507E1,-2.763710022E-1
2.487260312E0,1.633400559E0,1.032891846E1,-2.907279432E-1
2.489738958E0,1.633400559E0,1.035045338E1,-2.859423161E-1
2.492217656E0,1.623829246E0,1.036002445E1,-2.883351147E-1
2.494697187E0,1.635793328E0,1.036959648E1,-2.763710022E-1
2.497176666E0,1.631007791E0,1.036241722E1,-2.691925466E-1
2.499655312E0,1.647757530E0,1.036959648E1,-2.811566591E-1
2.502133958E0,1.654935956E0,1.037198925E1,-2.667997181E-1
2.504613489E0,1.654935956E0,1.036002445E1,-2.524427772E-1
2.507092969E0,1.664507270E0,1.034327507E1,-2.309073806E-1
2.509571614E0,1.666900039E0,1.036959648E1,-2.114657015E-1
2.512050260E0,1.664507270E0,1.036720276E1,-1.995015889E-1
2.514529791E0,1.654935956E0,1.038156033E1,-1.731805354E-1
2.517009271E0,1.678864241E0,1.037916756E1,-1.301097274E-1
2.519487916E0,1.681257010E0,1.037916756E1,-1.277169138E-1
2.521966614E0,1.717149377E0,1.036959648E1,-8.225327730E-2
2.524446094E0,1.688435435E0,1.039113140E1,-1.013958603E-1
2.526925573E0,1.683649778E0,1.037916756E1,-8.703892678E-2
2.529404219E0,1.702792406E0,1.037916756E1,-6.550352275E-2
2.531882916E0,1.707578063E0,1.036720276E1,-4.157529399E-2
2.534362396E0,1.709970832E0,1.036959648E1,-4.875376076E-2
2.536841875E0,1.690828323E0,1.037438202E1,-7.507480681E-2
2.539320521E0,1.683649778E0,1.035763168E1,-6.071787328E-2
2.541799219E0,1.700399637E0,1.036480999E1,-5.832505226E-2
2.544278698E0,1.712363720E0,1.037438202E1,-7.986045629E-2
2.546758177E0,1.705185294E0,1.037916756E1,-9.421738982E-2
2.549236823E0,1.698006749E0,1.040070248E1,-8.225327730E-2
2.551715521E0,1.709970832E0,1.039830971E1,-8.464609832E-2
2.554195000E0,1.693221092E0,1.040309525E1,-7.746763527E-2
2.556674479E0,1.698006749E0,1.041745281E1,-5.353940651E-2
2.559153125E0,1.724327803E0,1.045573807E1,-1.525424421E-2
2.561631823E0,1.709970832E0,1.047727299E1,-2.482553571E-2
2.564111302E0,1.707578063E0,1.051555824E1,6.281159353E-3
2.566590781E0,1.721935034E0,1.055623627E1,1.824527234E-2
2.569069427E0,1.731506228E0,1.059691429E1,3.260220960E-2
2.571548125E0,1.757827282E0,1.066899776E1,4.935196787E-2
2.574027604E0,1.779362798E0,1.072642612E1,7.088737190E-2
2.576507083E0,1.784148335E0,1.077188969E1,6.610172242E-2
2.578985729E0,1.793719649E0,1.082213879E1,8.045866340E-2
2.581464427E0,1.832004786E0,1.085803127E1,9.720841795E-2
2.583943906E0,1.858325839E0,1.087717342E1,9.720841795E-2
2.586423385E0,1.884646893E0,1.088913727E1,1.043868884E-1
2.588902031E0,1.918146491E0,1.086520958E1,1.307079345E-1
2.591380729E0,1.961516380E0,1.086520958E1,1.618146300E-1
2.593860208E0,2.004587173E0,1.080538845E1,1.522433460E-1
2.596339739E0,2.021337032E0,1.075035381E1,1.857428551E-1
2.598818385E0,2.035693884E0,1.070249748E1,2.072782665E-1
2.601297031E0,2.059622049E0,1.064507008E1,2.264208496E-1
2.603776562E0,2.093121529E0,1.059930706E1,2.264208496E-1
2.606256041E0,2.124228239E0,1.052991486E1,2.335993052E-1
2.608734687E0,2.112264156E0,1.049162960E1,2.431706041E-1
2.611213385E0,2.152942181E0,1.040309525E1,2.814557552E-1
2.613692864E0,2.145763636E0,1.035763168E1,2.838485837E-1
2.616172344E0,2.169692039E0,1.027388287E1,3.535395563E-1
2.618650989E0,2.164906263E0,1.022841930E1,3.798605800E-1
2.621129687E0,2.150549412E0,1.016381359E1,4.037888348E-1
2.623609166E0,2.152942181E0,1.014227772E1,4.229314029E-1
2.626088646E0,2.138585329E0,1.010159969E1,4.588237405E-1
2.628567291E0,2.131406784E0,1.008963585E1,4.755735099E-1
2.631045989E0,2.114656925E0,1.008485031E1,5.114658475E-1
2.633525469E0,2.073979139E0,1.008963585E1,5.282155871E-1
2.636004948E0,2.059622049E0,1.010159969E1,5.425725579E-1
2.638483594E0,2.059622049E0,1.010159969E1,5.258227587E-1
2.640962291E0,2.040479422E0,1.008963585E1,5.449653864E-1
2.643441771E0,2.009372711E0,1.008245754E1,5.401797295E-1
2.645921250E0,1.973480463E0,1.009920692E1,5.569294691E-1
2.648399896E0,1.968694806E0,1.010877800E1,5.545366406E-1
2.650878594E0,1.915753603E0,1.008245754E1,5.688936114E-1
2.653358073E0,1.896611094E0,1.007049274E1,5.569294691E-1
2.655837552E0,1.896611094E0,1.008245754E1,5.665007830E-1
2.658316198E0,1.875075698E0,1.009442139E1,5.593222976E-1
2.660794896E0,1.855933070E0,1.008724308E1,5.569294691E-1
2.663274375E0,1.820040703E0,1.007767200E1,5.449653864E-1
2.665753854E0,1.781755567E0,1.007527924E1,5.497509837E-1
2.668232500E0,1.786541224E0,1.005105114E1,5.186443329E-1
2.670711198E0,1.767398596E0,1.003908730E1,4.971089065E-1
2.673190677E0,1.748256087E0,1.003908730E1,4.779663086E-1
2.675670156E0,1.741077542E0,1.002712345E1,4.779663086E-1
2.678148802E0,1.733899117E0,9.988838196E0,4.875376225E-1
2.680627500E0,1.714756489E0,9.984052658E0,4.588237405E-1
2.683107031E0,1.693221092E0,9.962516785E0,4.492524564E-1
2.685586458E0,1.662114382E0,9.936196327E0,4.229314029E-1
2.688065104E0,1.657328725E0,9.924231529E0,3.990031779E-1
2.690543802E0,1.635793328E0,9.895518303E0,3.726821244E-1
2.693023333E0,1.623829246E0,9.871589661E0,3.245265782E-1
2.695502812E0,1.616650820E0,9.852447510E0,2.766701281E-1
2.697981458E0,1.628614902E0,9.830911636E0,2.694916427E-1
2.700460104E0,1.633400559E0,9.833304405E0,2.814557552E-1
2.702939635E0,1.664507270E0,9.821340561E0,2.503490746E-1
2.705419114E0,1.645364642E0,9.809376717E0,2.288136631E-1
2.707897760E0,1.652543187E0,9.799804688E0,2.024926096E-1
2.710376458E0,1.657328725E0,9.799804688E0,2.144567221E-1
2.712855937E0,1.650150299E0,9.816555023E0,2.048854381E-1
2.715335416E0,1.674078584E0,9.811769485E0,2.024926096E-1
2.717814062E0,1.671685696E0,9.811769485E0,1.881356835E-1
2.720292760E0,1.690828323E0,9.823733330E0,1.809572130E-1
2.722772239E0,1.674078584E0,9.850054741E0,1.689931005E-1
2.725251719E0,1.669292927E0,9.864411354E0,1.570289880E-1
2.727730364E0,1.657328725E0,9.900303841E0,1.235294715E-1
2.730209062E0,1.654935956E0,9.940981865E0,1.283151209E-1
2.732688541E0,1.650150299E0,9.991230965E0,1.594218016E-1
2.735168021E0,1.626222134E0,1.004387283E1,1.354935765E-1
2.737646666E0,1.619043589E0,1.009920692E1,1.570289880E-1
2.740125364E0,1.575972795E0,1.013749218E1,1.594218016E-1
2.742604844E0,1.556830287E0,1.019491959E1,1.474576890E-1
2.745084323E0,1.499402523E0,1.021406269E1,1.833500415E-1
2.747562969E0,1.465902925E0,1.026191902E1,1.857428551E-1
2.750041666E0,1.456331730E0,1.026909733E1,1.953141540E-1
2.752521146E0,1.430010676E0,1.030977535E1,1.833500415E-1
2.755000625E0,1.394118309E0,1.035045338E1,1.546361595E-1
2.757479271E0,1.360618830E0,1.039113140E1,1.331007630E-1
2.759957969E0,1.319641709E0,1.043659496E1,1.091725305E-1
2.762437448E0,1.298106313E0,1.050598717E1,6.849455088E-2
2.764916927E0,1.271785259E0,1.055384350E1,3.978067636E-2
2.767395573E0,1.269392371E0,1.059930706E1,-1.286142133E-2
2.769874271E0,1.223928809E0,1.064746284E1,-6.311069429E-2
2.772353750E0,1.221535921E0,1.068096161E1,-1.229312643E-1
2.774833229E0,1.202393413E0,1.070249748E1,-1.803590059E-1
2.777311875E0,1.197607756E0,1.071685410E1,-2.333002090E-1
2.779790573E0,1.176072359E0,1.073838997E1,-2.476571500E-1
2.782270052E0,1.149751306E0,1.073599720E1,-3.050848842E-1
2.784749583E0,1.154536963E0,1.074796104E1,-3.505485058E-1
2.787228229E0,1.125823021E0,1.072642612E1,-3.912265003E-1
2.789706875E0,1.099501967E0,1.070010471E1,-4.510470629E-1
2.792186406E0,1.070788145E0,1.064746284E1,-4.845465720E-1
2.794665885E0,1.061216831E0,1.060887814E1,-5.276173949E-1
2.797144531E0,1.056431174E0,1.056820011E1,-6.089733839E-1
2.799623177E0,1.018146038E0,1.051077271E1,-6.376872063E-1
2.802102708E0,1.003789067E0,1.043659496E1,-7.310073376E-1
2.804582187E0,9.296116233E-1,1.035284615E1,-8.054839373E-1
2.807060833E0,9.248259664E-1,1.028584766E1,-8.557332158E-1
2.809539531E0,9.272187948E-1,1.022841930E1,-8.844470978E-1
2.812019010E0,8.626125455E-1,1.013031387E1,-9.370891452E-1
2.814498489E0,8.075776696E-1,1.007288647E1,-1.006481051E0
2.816977135E0,7.713862062E-1,1.001276588E1,-1.068694472E0
2.819455833E0,7.235297561E-1,9.993623734E0,-1.102193952E0
2.821935312E0,6.828517914E-1,9.976874352E0,-1.166800141E0
2.824414791E0,6.613163352E-1,9.988838196E0,-1.190728426E0
2.826893437E0,6.302096844E-1,1.000798035E1,-1.224227905E0
2.829372135E0,5.991029739E-1,1.003908730E1,-1.233799219E0
2.831851614E0,5.919244885E-1,1.010638523E1,-1.233799219E0
2.834331094E0,5.488536954E-1,1.013988495E1,-1.248156071E0
2.836809739E0,5.464608669E-1,1.019252682E1,-1.296012521E0
2.839288437E0,5.344967842E-1,1.027627563E1,-1.365703583E0
2.841767916E0,5.057829022E-1,1.035523891E1,-1.384846091E0
2.844247396E0,5.368895531E-1,1.046052361E1,-1.427916884E0
2.846726041E0,5.584250093E-1,1.054905796E1,-1.480558991E0
2.849204739E0,5.440680385E-1,1.062831974E1,-1.511665702E0
2.851684219E0,4.890331328E-1,1.068574810E1,-1.588235974E0
2.854163698E0,5.105685592E-1,1.076710415E1,-1.607378602E0
2.856642344E0,5.177469850E-1,1.083410263E1,-1.667199135E0
2.859121041E0,5.225326419E-1,1.091306591E1,-1.695913076E0
2.861600521E0,5.009972453E-1,1.095613670E1,-1.794018745E0
2.864080000E0,4.627120793E-1,1.100638580E1,-1.865803480E0
2.866558646E0,4.459623098E-1,1.101356411E1,-1.947458506E0
2.869037344E0,4.698905349E-1,1.106620693E1,-1.976172447E0
2.871516823E0,4.603192508E-1,1.109492016E1,-1.971386790E0
2.873996302E0,4.459623098E-1,1.107817078E1,-1.925923109E0
2.876474948E0,4.507479668E-1,1.108295631E1,-1.913959026E0
2.878953646E0,4.411766827E-1,1.107577801E1,-1.868196249E0
2.881433177E0,4.794618487E-1,1.104945660E1,-1.784447432E0
2.883912656E0,4.387838542E-1,1.100877857E1,-1.777269006E0
2.886391302E0,4.076771438E-1,1.097288609E1,-1.801197290E0
2.888869948E0,3.957130313E-1,1.090349483E1,-1.801197290E0
2.891349479E0,3.981058598E-1,1.085085201E1,-1.786840320E0
2.893828958E0,3.813561201E-1,1.080060291E1,-1.765304923E0
2.896307604E0,4.100699723E-1,1.074078274E1,-1.724626899E0
2.898786250E0,4.220340848E-1,1.069531918E1,-1.621735573E0
2.901265781E0,4.627120793E-1,1.066421223E1,-1.506880045E0
2.903745260E0,4.938187599E-1,1.064028454E1,-1.389631748E0
2.906223906E0,5.177469850E-1,1.059930706E1,-1.322333574E0
2.908702604E0,5.488536954E-1,1.061844921E1,-1.209870934E0
2.911182083E0,6.110670567E-1,1.062562847E1,-1.111765265E0
2.913661562E0,6.637091637E-1,1.064985561E1,-9.969097376E-1
2.916140208E0,6.924230456E-1,1.069053364E1,-9.035896659E-1
2.918618906E0,7.402794957E-1,1.074078274E1,-8.126623631E-1
2.921098385E0,8.051848412E-1,1.081735325E1,-7.238288522E-1
2.923577864E0,8.315058947E-1,1.087717342E1,-6.209374666E-1
2.926056510E0,8.745766878E-1,1.090588760E1,-5.491527915E-1
2.928535208E0,8.721838593E-1,1.091785145E1,-4.773681164E-1
2.931014687E0,8.673982024E-1,1.089870930E1,-4.271188378E-1
2.933494166E0,8.506484628E-1,1.089153004E1,-4.007977843E-1
2.935972812E0,8.602197170E-1,1.090828037E1,-3.601198196E-1
2.938451510E0,8.889335990E-1,1.091306591E1,-3.505485058E-1
2.940930989E0,9.080761671E-1,1.088913727E1,-3.433700502E-1
2.943410469E0,9.583254457E-1,1.086520958E1,-2.835494876E-1
2.945889114E0,1.013360381E0,1.083649540E1,-2.811566591E-1
2.948367812E0,1.070788145E0,1.078863907E1,-2.500499785E-1
2.950847291E0,1.125823021E0,1.076231766E1,-2.285145670E-1
2.953326771E0,1.166501045E0,1.075035381E1,-1.803590059E-1
2.955805416E0,1.247856975E0,1.073599720E1,-1.612164229E-1
2.958284114E0,1.307677627E0,1.069531918E1,-1.013958603E-1
2.960763594E0,1.363011599E0,1.070967579E1,-7.986045629E-2
2.963243073E0,1.386939883E0,1.068574810E1,-6.311069429E-2
2.965721719E0,1.427617788E0,1.067617607E1,-2.243271284E-2
2.968200416E0,1.482652783E0,1.070010471E1,3.888336709E-3
2.970679948E0,1.501795292E0,1.066899776E1,4.456632212E-2
2.973159427E0,1.487438321E0,1.063310528E1,4.695914313E-2
2.975638073E0,1.506580949E0,1.063789082E1,7.806584239E-2
2.978116719E0,1.518545032E0,1.061844921E1,9.242277592E-2
2.980596250E0,1.520937920E0,1.058016396E1,1.307079345E-1
2.983075729E0,1.506580949E0,1.056102180E1,1.091725305E-1
2.985554375E0,1.468295813E0,1.052512932E1,9.002995491E-2
2.988033021E0,1.485045552E0,1.049162960E1,1.235294715E-1
2.990512552E0,1.540080428E0,1.052273655E1,1.929213256E-1
2.992992031E0,1.528116345E0,1.050120163E1,2.599203587E-1
2.995470677E0,1.516152263E0,1.044616604E1,2.838485837E-1
2.997949375E0,1.475474238E0,1.038873863E1,2.742772996E-1
3.000428854E0,1.494616866E0,1.033609676E1,2.168495506E-1
3.002908333E0,1.482652783E0,1.031456089E1,2.192423791E-1
3.005386979E0,1.437189102E0,1.028106117E1,2.335993052E-1
3.007865677E0,1.444367528E0,1.022363377E1,2.479562461E-1
3.010345156E0,1.413260818E0,1.019252682E1,2.335993052E-1
3.012824635E0,1.382154226E0,1.017577744E1,1.977069676E-1
3.015303281E0,1.374975681E0,1.016859913E1,1.139581800E-1
3.017781979E0,1.386939883E0,1.015902805E1,7.806584239E-2
3.020261458E0,1.377368569E0,1.013988495E1,-3.290131222E-3
3.022740937E0,1.355534077E0,1.009920692E1,-7.028916478E-2
3.025219583E0,1.360618830E0,1.001755238E1,-1.396810263E-1
3.027698281E0,1.278963685E0,9.955338478E0,-1.971087605E-1
3.030177760E0,1.240678549E0,9.854840279E0,-3.218346536E-1
3.032657239E0,1.183250785E0,9.783055305E0,-3.672982752E-1
3.035135885E0,1.111466169E0,9.665806770E0,-4.223332107E-1
3.037614583E0,1.039681435E0,9.574879646E0,-4.725824594E-1
3.040094062E0,1.003789067E0,9.498010635E0,-5.204389095E-1
3.042573541E0,9.391828775E-1,9.445367813E0,-5.419743061E-1
3.045052187E0,9.152546525E-1,9.416654587E0,-5.730810165E-1
3.047530885E0,8.673982024E-1,9.375976562E0,-5.611169338E-1
3.050010364E0,8.338986635E-1,9.383154869E0,-5.635097623E-1
3.052489896E0,8.003991842E-1,9.399904251E0,-5.108676553E-1
3.054968541E0,8.027920127E-1,9.457332611E0,-4.271188378E-1
3.057447187E0,7.546364665E-1,9.538987160E0,-3.672982752E-1
3.059926719E0,7.259225845E-1,9.651450157E0,-3.122633696E-1
3.062406198E0,6.924230456E-1,9.799804688E0,-2.739782035E-1
3.064884844E0,6.708876491E-1,9.969695091E0,-2.090728730E-1
3.067363541E0,6.421737671E-1,1.013031387E1,-1.181456149E-1
3.069843021E0,6.038886309E-1,1.031456089E1,-4.396811500E-2
3.072322500E0,5.560321808E-1,1.046530914E1,-3.290131222E-3
3.074801146E0,5.344967842E-1,1.062831974E1,5.653043464E-2
3.077279844E0,5.249254704E-1,1.074556828E1,1.019940674E-1
3.079759323E0,5.488536954E-1,1.081256771E1,2.000997961E-1
3.082238802E0,5.799604058E-1,1.082213879E1,3.005983531E-1
3.084717448E0,6.373881102E-1,1.073360443E1,3.918247223E-1
3.087196146E0,6.852445602E-1,1.064985561E1,4.372883439E-1
3.089675625E0,7.809575200E-1,1.059691429E1,4.325026870E-1
3.092155104E0,8.434699774E-1,1.052991486E1,3.631108403E-1
3.094633750E0,9.128618240E-1,1.046052361E1,3.269194067E-1
3.097112448E0,9.415757060E-1,1.040548801E1,2.718844712E-1
3.099591927E0,9.511470199E-1,1.033609676E1,2.359921336E-1
3.102071406E0,9.655039310E-1,1.022363377E1,2.192423791E-1
3.104550052E0,9.607182741E-1,1.015902805E1,2.479562461E-1
3.107028750E0,9.702895880E-1,1.004387283E1,2.072782665E-1
3.109508229E0,9.535398483E-1,9.986445427E0,1.953141540E-1
3.111987708E0,9.511470199E-1,9.878767967E0,1.474576890E-1
3.114466354E0,9.248259664E-1,9.842875481E0,9.960123897E-2
3.116945052E0,9.128618240E-1,9.799804688E0,3.260220960E-2
3.119424531E0,9.272187948E-1,9.773484230E0,-2.721835673E-2
3.121904010E0,9.008977413E-1,9.775876999E0,-2.003988996E-2
3.124382656E0,9.343972206E-1,9.818947792E0,-1.525424421E-2
3.126861354E0,8.985049129E-1,9.897911072E0,1.585244946E-2
3.129340885E0,8.793623447E-1,9.976874352E0,7.088737190E-2
3.131820312E0,8.147560954E-1,1.009202862E1,9.242277592E-2
3.134298958E0,7.546364665E-1,1.021645546E1,1.187438220E-1
3.136777656E0,6.996015310E-1,1.029541874E1,1.067797095E-1
3.139257187E0,6.541379094E-1,1.036241722E1,5.892325938E-2
3.141736666E0,6.230311990E-1,1.041027355E1,-1.046859939E-2
3.144215312E0,6.086742878E-1,1.041984558E1,-7.028916478E-2
3.146693958E0,5.464608669E-1,1.043898773E1,-1.372881979E-1
3.149173489E0,4.866403043E-1,1.041506004E1,-2.333002090E-1
3.151652969E0,4.627120793E-1,1.041745281E1,-2.859423161E-1
3.154131614E0,4.507479668E-1,1.039830971E1,-3.888336718E-1
3.156610312E0,4.076771438E-1,1.036241722E1,-4.725824594E-1
3.159089791E0,4.004986882E-1,1.031934643E1,-5.706881881E-1
3.161569271E0,4.028915167E-1,1.028345394E1,-6.807580590E-1
3.164047916E0,3.909274042E-1,1.025234795E1,-7.429714203E-1
3.166526614E0,3.669991791E-1,1.023081207E1,-8.222336769E-1
3.169006094E0,3.622135222E-1,1.019970608E1,-8.868398666E-1
3.171485573E0,3.574278951E-1,1.019731236E1,-9.418748021E-1
3.173964219E0,3.287140131E-1,1.018534851E1,-9.945169091E-1
3.176442916E0,3.167499006E-1,1.020209885E1,-1.023230791E0
3.178922396E0,3.119642437E-1,1.017577744E1,-1.061515927E0
3.181401875E0,3.023929596E-1,1.016859913E1,-1.085444212E0
3.183880521E0,2.952145040E-1,1.017099190E1,-1.109372377E0
3.186359219E0,3.263211846E-1,1.015663528E1,-1.121336460E0
3.188838698E0,3.502494097E-1,1.013749218E1,-1.138086319E0
3.191318177E0,3.765704632E-1,1.011835003E1,-1.126122117E0
3.193796823E0,4.268197417E-1,1.009442139E1,-1.130907774E0
3.196275521E0,4.579264224E-1,1.007288647E1,-1.142871857E0
3.198755000E0,4.722833633E-1,1.005583763E1,-1.157228827E0
3.201234479E0,4.794618487E-1,1.006570721E1,-1.171585798E0
3.203713125E0,4.986044168E-1,1.005344391E1,-1.176371455E0
3.206191823E0,5.033900738E-1,1.004626560E1,-1.140479088E0
3.208671302E0,5.129613280E-1,1.006570721E1,-1.099801064E0
3.211150781E0,4.962115884E-1,1.010159969E1,-1.039980531E0
3.213629427E0,4.555336237E-1,1.015184879E1,-9.179465771E-1
3.216108125E0,3.981058598E-1,1.020449162E1,-7.935197949E-1
3.218587604E0,3.382852972E-1,1.030259705E1,-6.305087805E-1
3.221067135E0,3.047857881E-1,1.038395309E1,-4.821537733E-1
3.223545781E0,2.688934505E-1,1.047488022E1,-2.907279432E-1
3.226024427E0,2.327020019E-1,1.052512932E1,-1.085743308E-1
3.228503958E0,1.250249892E-1,1.052752209E1,6.610172242E-2
3.230983437E0,4.606183618E-2,1.053470039E1,1.785643846E-1
3.233462083E0,-3.290131316E-2,1.051555824E1,2.934198678E-1
3.235940781E0,-1.070788130E-1,1.049402237E1,3.798605800E-1
3.238420260E0,-1.429711580E-1,1.044616604E1,4.205385745E-1
3.240899739E0,-2.099701911E-1,1.038156033E1,4.875376225E-1
3.243378385E0,-2.338984162E-1,1.033848953E1,5.401797295E-1
3.245857083E0,-2.554338276E-1,1.028824043E1,5.952146053E-1
3.248336562E0,-2.434697002E-1,1.026191902E1,6.669993401E-1
3.250816041E0,-2.338984162E-1,1.023559761E1,6.981059909E-1
3.253294687E0,-2.027917206E-1,1.025474072E1,7.651050687E-1
3.255773385E0,-1.668993831E-1,1.030020428E1,7.507480979E-1
3.258252864E0,-1.094716340E-1,1.036480999E1,7.698906660E-1
3.260732344E0,-5.922235921E-2,1.042463112E1,7.722834945E-1
3.263210989E0,-6.580262445E-3,1.048684406E1,7.914260626E-1
3.265689687E0,4.127619043E-2,1.053230762E1,8.009973764E-1
3.268169166E0,6.281159073E-2,1.052512932E1,8.225327730E-1
3.270648646E0,4.845465720E-2,1.051555824E1,7.962117195E-1
3.273127291E0,4.845465720E-2,1.046291637E1,7.698906660E-1
3.275605989E0,5.802594870E-2,1.040070248E1,7.268198729E-1
3.278085469E0,4.366901144E-2,1.033609676E1,6.191428304E-1
3.280564948E0,6.041877344E-2,1.026670456E1,4.731806815E-1
3.283043594E0,6.759724021E-2,1.017577744E1,3.774677813E-1
3.285522291E0,1.154536903E-1,1.008006477E1,2.599203587E-1
3.288001771E0,1.130608693E-1,9.984052658E0,2.216351926E-1
3.290481250E0,1.465603858E-1,9.900303841E0,1.546361595E-1
3.292959896E0,1.920240223E-1,9.847661972E0,7.088737190E-2
3.295438594E0,2.039881349E-1,9.806983948E0,2.781656384E-2
3.297918125E0,2.497508675E-1,9.790233612E0,-1.764706708E-2
3.300397604E0,2.760719061E-1,9.787840843E0,-2.243271284E-2
3.302876250E0,3.071786165E-1,9.737591743E0,-4.396811500E-2
3.305354896E0,2.952145040E-1,9.696913719E0,-8.943174779E-2
3.307834427E0,3.000001311E-1,9.617950439E0,-1.037886813E-1
3.310313906E0,2.952145040E-1,9.510273933E0,-8.225327730E-2
3.312792552E0,3.095714152E-1,9.440582275E0,-1.277169138E-1
3.315271198E0,3.047857881E-1,9.323334694E0,-1.755733639E-1
3.317750729E0,3.358924687E-1,9.237193108E0,-1.731805354E-1
3.320230208E0,3.382852972E-1,9.167800903E0,-1.947159469E-1
3.322708854E0,3.574278951E-1,9.081659317E0,-2.114657015E-1
3.325187552E0,3.550350666E-1,8.978767395E0,-2.066800594E-1
3.327667031E0,3.478565812E-1,8.901898384E0,-1.660020649E-1
3.330146510E0,3.311068416E-1,8.851649284E0,-1.683948934E-1
3.332625156E0,3.646063507E-1,8.861220360E0,-1.277169138E-1
3.335103854E0,4.004986882E-1,8.930612564E0,-1.516451389E-1
3.337583333E0,4.124628007E-1,9.007481575E0,-1.588236094E-1
3.340062812E0,4.316053987E-1,9.100801468E0,-1.013958603E-1
3.342541458E0,3.933202326E-1,9.179764748E0,-1.396810263E-1
3.345020156E0,3.334996700E-1,9.249156952E0,-1.827518344E-1
3.347499635E0,2.569293380E-1,9.289834976E0,-1.516451389E-1
3.349979114E0,1.752742529E-1,9.335298538E0,-1.325025558E-1
3.352457760E0,1.106680483E-1,9.359226227E0,-1.013958603E-1
3.354936458E0,4.845465720E-2,9.387940407E0,-1.372881979E-1
3.357415937E0,-4.486542568E-2,9.416654587E0,-1.444666684E-1
3.359895416E0,-1.118644550E-1,9.397511482E0,-2.237289101E-1
3.362374062E0,-2.171486616E-1,9.380762100E0,-2.763710022E-1
3.364852760E0,-2.841476798E-1,9.349655151E0,-2.883351147E-1
3.367332239E0,-4.399802685E-1,9.294620514E0,-2.596212626E-1
3.369811719E0,-5.691927075E-1,9.227621078E0,-2.333002090E-1
3.372290364E0,-6.601199508E-1,9.165408134E0,-2.620140910E-1
3.374769062E0,-7.510471940E-1,9.112766266E0,-2.691925466E-1
3.377248541E0,-8.395816684E-1,9.024231911E0,-3.314059377E-1
3.379728073E0,-9.020941257E-1,9.009874344E0,-3.625126183E-1
3.382206719E0,-9.260223508E-1,8.971589088E0,-4.007977843E-1
3.384685364E0,-9.308080077E-1,8.925827026E0,-4.606183469E-1
3.387164896E0,-9.355936646E-1,8.851649284E0,-4.701896608E-1
3.389644375E0,-9.738788009E-1,8.810971260E0,-4.342973232E-1
3.392123021E0,-9.643075466E-1,8.753543854E0,-4.127618968E-1
3.394601719E0,-9.403793216E-1,8.696115494E0,-3.912265003E-1
3.397081198E0,-9.475577474E-1,8.633902550E0,-3.625126183E-1
3.399560677E0,-9.714859724E-1,8.598010063E0,-3.529413342E-1
3.402039323E0,-1.009771109E0,8.523832321E0,-2.979064286E-1
3.404518021E0,-1.021735311E0,8.526225090E0,-2.356930375E-1
3.406997500E0,-1.024128079E0,8.507082939E0,-1.444666684E-1
3.409476979E0,-1.016949654E0,8.499904633E0,-3.439682722E-2
3.411955625E0,-9.834501147E-1,8.559724808E0,3.499503061E-2
3.414434323E0,-9.427721500E-1,8.641080856E0,-3.290131222E-3
3.416913802E0,-9.044869542E-1,8.751151085E0,-4.875376076E-2
3.419393281E0,-8.682954907E-1,8.885149002E0,-1.037886813E-1
3.421871927E0,-8.730811477E-1,8.985946655E0,-1.540379524E-1
3.424350625E0,-8.877372146E-1,9.081659317E0,-1.564307809E-1
3.426830104E0,-9.212366939E-1,9.129515648E0,-1.229312643E-1
3.429309583E0,-9.116654396E-1,9.184550285E0,-8.943174779E-2
3.431788229E0,-9.044869542E-1,9.213264465E0,-2.482553571E-2
3.434266927E0,-8.997012973E-1,9.225228310E0,5.174478889E-2
3.436746406E0,-9.092726111E-1,9.253942490E0,1.211366430E-1
3.439225885E0,-9.236295223E-1,9.232406616E0,1.809572130E-1
3.441704531E0,-9.116654396E-1,9.241978645E0,2.479562461E-1
3.444183229E0,-8.949156404E-1,9.225228310E0,3.269194067E-1
3.446662708E0,-8.826524615E-1,9.163015366E0,3.774677813E-1
3.449142187E0,-8.730811477E-1,9.103194237E0,4.588237405E-1
3.451620833E0,-8.587242365E-1,9.060123444E0,5.401797295E-1
3.454099531E0,-8.036893010E-1,9.021839142E0,6.334998012E-1
3.456579062E0,-7.965108156E-1,8.976374626E0,7.100701332E-1
3.459058541E0,-7.845467329E-1,8.954839706E0,8.129615188E-1
3.461537187E0,-7.630113363E-1,8.913862228E0,9.014959335E-1
3.464015833E0,-7.462615371E-1,8.909076691E0,1.038185954E0
3.466495364E0,-7.869395614E-1,8.916254997E0,1.105184913E0
3.468974844E0,-8.276175261E-1,8.921041489E0,1.210469127E0
3.471453489E0,-8.395816684E-1,8.971589088E0,1.270289779E0
3.473932187E0,-8.300103545E-1,9.069695473E0,1.318146229E0
3.476411666E0,-8.300103545E-1,9.218050003E0,1.385145187E0
3.478891146E0,-8.491529226E-1,9.361619949E0,1.476371527E0
3.481369791E0,-8.778668046E-1,9.562915802E0,1.591227055E0
3.483848489E0,-8.778668046E-1,9.783055305E0,1.627119422E0
3.486327969E0,-8.730811477E-1,1.006062317E1,1.581655741E0
3.488807448E0,-9.164510965E-1,1.024277687E1,1.550549030E0
3.491286094E0,-9.762716293E-1,1.044616604E1,1.514656782E0
3.493764791E0,-1.021735311E0,1.068814087E1,1.423430324E0
3.496244271E0,-1.028913736E0,1.097767162E1,1.322931767E0
3.498723750E0,-9.667003751E-1,1.125314617E1,1.222433209E0
3.501202396E0,-9.379864931E-1,1.151396370E1,1.131505966E0
3.503681094E0,-8.925228715E-1,1.177029419E1,1.016650558E0
3.506160573E0,-7.917252183E-1,1.207179070E1,8.751748800E-1
3.508640052E0,-7.414759398E-1,1.216989613E1,7.914260626E-1
3.511118698E0,-6.361917257E-1,1.225364494E1,7.770691514E-1
3.513597396E0,-5.189434290E-1,1.236879921E1,7.411768436E-1
3.516076875E0,-4.734797776E-1,1.242862034E1,6.741777658E-1
3.518556354E0,-3.945166469E-1,1.232094288E1,6.598208547E-1
3.521035000E0,-2.937189937E-1,1.226800156E1,5.928218365E-1
3.523513698E0,-1.764706671E-1,1.214357471E1,5.760720372E-1
3.525993229E0,-5.204389244E-2,1.201675510E1,4.660021961E-1
3.528472656E0,6.759724021E-2,1.183250809E1,3.388835192E-1
3.530951302E0,1.082752272E-1,1.148524952E1,1.378864050E-1
3.533430000E0,1.561316848E-1,1.115713406E1,5.892325938E-2
3.535909531E0,1.968096644E-1,1.098724365E1,6.281159353E-3
3.538389010E0,2.904288471E-1,1.096570778E1,-5.832505226E-2
3.540867656E0,3.263211846E-1,1.081256771E1,-1.731805354E-1
3.543346302E0,3.741776347E-1,1.056341457E1,-2.548356056E-1
3.545825833E0,3.933202326E-1,1.030020428E1,-3.074777126E-1
3.548305312E0,3.669991791E-1,1.003430176E1,-3.002992272E-1
3.550783958E0,3.215355575E-1,9.775876999E0,-2.715853751E-1
3.553262656E0,2.449652255E-1,9.574879646E0,-2.452643216E-1
3.555742135E0,1.058823988E-1,9.332905769E0,-1.372881979E-1
3.558221614E0,5.982056609E-4,9.208478928E0,4.935196787E-2
3.560700260E0,-5.443671346E-2,9.122337341E0,1.761715710E-1
3.563178958E0,-1.238285750E-1,9.050552368E0,3.463610709E-1
3.565658437E0,-1.405783296E-1,9.014659882E0,5.569294691E-1
3.568137916E0,-1.118644550E-1,9.017052650E0,7.172485590E-1
3.570616562E0,-4.007977992E-2,9.060123444E0,8.847461939E-1
3.573095260E0,8.195417374E-2,9.048159599E0,1.016650558E0
3.575574739E0,2.111666054E-1,9.117551804E0,1.184148073E0
3.578054219E0,3.717848063E-1,9.222835541E0,1.344467282E0
3.580532864E0,5.105685592E-1,9.285049438E0,1.493121386E0
3.583011562E0,6.589235067E-1,9.320941925E0,1.607976794E0
3.585491041E0,7.980063558E-1,9.395118713E0,1.708475351E0
3.587970521E0,9.726824164E-1,9.457332611E0,1.765903115E0
3.590449166E0,1.168893814E0,9.531808853E0,1.785045743E0
3.592927864E0,1.343569875E0,9.572486877E0,1.808973908E0
3.595407344E0,1.520937920E0,9.589237213E0,1.832902193E0
3.597886823E0,1.669292927E0,9.570094109E0,1.799402595E0
3.600365469E0,1.867897153E0,9.517452240E0,1.806581140E0
3.602844166E0,1.963909149E0,9.462118149E0,1.820937991E0
3.605323698E0,1.995015860E0,9.404690742E0,1.799402595E0
3.607803177E0,1.980658889E0,9.387940407E0,1.780260086E0
3.610281823E0,1.968694806E0,9.364012718E0,1.737189293E0
3.612760469E0,2.009372711E0,9.344869614E0,1.684547186E0
3.615240000E0,2.002194405E0,9.371191025E0,1.643869162E0
3.617719479E0,2.042872429E0,9.301798820E0,1.703689694E0
3.620198125E0,1.975873351E0,9.203693390E0,1.816152334E0
3.622676823E0,1.834397674E0,9.115159035E0,1.842473388E0
3.625156302E0,1.700399637E0,9.107980728E0,1.864008784E0
3.627635781E0,1.623829246E0,9.048159599E0,1.904686809E0
3.630114427E0,1.633400559E0,9.007481575E0,1.959721804E0
3.632593125E0,1.698006749E0,9.014659882E0,1.993221283E0
3.635072604E0,1.788933992E0,8.923434258E0,2.009970903E0
3.637552083E0,1.812862277E0,8.901898384E0,1.983649969E0
3.640030729E0,1.827219248E0,8.858827591E0,1.957328916E0
3.642509427E0,1.882254124E0,8.856434822E0,2.024327993E0
3.644988906E0,1.923231244E0,8.937790871E0,2.149053812E0
3.647468385E0,1.973480463E0,9.131908417E0,2.378764868E0
3.649947031E0,2.033301115E0,9.380762100E0,2.714059114E0
3.652425729E0,2.023729801E0,9.701699257E0,3.029911757E0
3.654905208E0,1.978266120E0,1.008963585E1,3.348456144E0
3.657384687E0,1.879861236E0,1.048684406E1,3.609273911E0
3.659863333E0,1.803290963E0,1.088674450E1,3.875176191E0
3.662342031E0,1.839183331E0,1.124357414E1,4.193421841E0
3.664821510E0,1.951945066E0,1.152353477E1,4.497609138E0
3.667300989E0,2.050050735E0,1.179183006E1,4.789533615E0
3.669779635E0,2.129014015E0,1.208614731E1,4.990829945E0
3.672258333E0,2.186441660E0,1.243340588E1,5.165505886E0
3.674737864E0,2.282154560E0,1.272533035E1,5.380859852E0
3.677217344E0,2.363510609E0,1.310608768E1,5.572584629E0
3.679695989E0,2.425724030E0,1.346770287E1,5.764010429E0
3.682174635E0,2.444866419E0,1.382184124E1,5.986842155E0
3.684654166E0,2.375474691E0,1.422174168E1,5.991627693E0
3.687133646E0,2.236690998E0,1.464317703E1,5.878866196E0
3.689612291E0,2.095514536E0,1.507867146E1,6.029912949E0
3.692090989E0,2.018944025E0,1.568943882E1,6.293123722E0
3.694570469E0,1.913360834E0,1.640519142E1,6.412764549E0
3.697049948E0,1.851147413E0,1.706351662E1,6.551847458E0
3.699528594E0,1.824826360E0,1.781037712E1,6.331408501E0
3.702007291E0,1.855933070E0,1.870110512E1,5.819045544E0
3.704486771E0,1.992623091E0,1.957957077E1,5.065007210E0
3.706966250E0,2.090728760E0,2.042004967E1,4.174279213E0
3.709444896E0,2.157727718E0,2.111665916E1,3.202493906E0
3.711923594E0,2.160120726E0,2.163859367E1,2.295016050E0
3.714403073E0,2.188834429E0,2.197149658E1,1.505085468E0
3.716882552E0,2.272583246E0,2.225145531E1,7.651050687E-1
3.719361198E0,2.310868502E0,2.228495598E1,-1.588236094E-1
3.721839896E0,2.277369022E0,2.224666977E1,-1.164407372E0
3.724319375E0,2.222334146E0,2.202413750E1,-1.973779559E0
3.726798854E0,1.951945066E0,2.186142540E1,-2.780459881E0
3.729277500E0,1.717149377E0,2.153330994E1,-3.422035456E0
3.731756198E0,1.671685696E0,2.115973091E1,-3.711866140E0
3.734235677E0,1.446760416E0,2.072632980E1,-3.809971809E0
3.736715208E0,1.192822099E0,2.024776649E1,-3.695116282E0
3.739193854E0,9.678967595E-1,1.962294006E1,-3.587439299E0
3.741672500E0,6.972087026E-1,1.895474434E1,-3.445963621E0
3.744152031E0,2.183450609E-1,1.812652969E1,-2.998206854E0
3.746631510E0,-1.764706671E-1,1.728844261E1,-2.284846544E0
3.749110156E0,-4.423730969E-1,1.660140419E1,-1.576271892E0
3.751588802E0,-5.476573110E-1,1.609382629E1,-7.815557122E-1
3.754068333E0,-5.620142221E-1,1.574447346E1,8.045866340E-2
3.756547812E0,-4.974080026E-1,1.550010681E1,9.113663435E-1
3.759026458E0,-4.782654345E-1,1.536610889E1,1.856830359E0
3.761505156E0,-3.969094455E-1,1.536850166E1,2.714059114E0
3.763984635E0,-3.370888829E-1,1.547617912E1,3.441776276E0
3.766464114E0,-2.745763958E-1,1.573729515E1,3.956532240E0
3.768942760E0,-1.788634956E-1,1.605314827E1,4.253242016E0
3.771421458E0,-2.434697002E-1,1.633101463E1,4.339683056E0
3.773900937E0,-9.032905847E-2,1.667318726E1,4.430610180E0
3.776380416E0,1.968096644E-1,1.713290977E1,4.483252525E0
3.778859062E0,-3.768695518E-2,1.739402580E1,4.169493675E0
3.781337760E0,-2.865405083E-1,1.761177254E1,3.602095366E0
3.783817239E0,-5.021936297E-1,1.781037712E1,2.848057270E0
3.786296719E0,-6.002993584E-1,1.803320885E1,2.122732878E0
3.788775364E0,-5.883352757E-1,1.815763474E1,1.507478237E0
3.791254062E0,-5.572285652E-1,1.817917061E1,9.041878581E-1
3.793733541E0,-5.787639618E-1,1.803081512E1,4.085744619E-1
3.796213021E0,-7.390831113E-1,1.769552231E1,-2.042872310E-1
3.798691666E0,-6.720840335E-1,1.735783386E1,-6.305087805E-1
3.801170364E0,-2.219343036E-1,1.704198265E1,-8.533403873E-1
3.803649844E0,2.688934505E-1,1.664447403E1,-1.018445134E0
3.806129375E0,7.091727853E-1,1.614886093E1,-1.102193952E0
3.808608021E0,1.140179992E0,1.557667732E1,-1.169192910E0
3.811086666E0,1.487438321E0,1.490399456E1,-1.240977645E0
3.813566198E0,1.726720691E0,1.415234947E1,-1.262513041E0
3.816045677E0,1.839183331E0,1.333101273E1,-1.197906852E0
3.818524323E0,1.928016901E0,1.250997543E1,-1.066301584E0
3.821002969E0,2.030908108E0,1.172931767E1,-7.887341380E-1
3.823482500E0,2.188834429E0,1.103031445E1,-4.414757788E-1
3.825961979E0,2.418545485E0,1.041506004E1,-7.986045629E-2
3.828440625E0,2.636591434E0,9.804591179E0,2.862414122E-1
3.830919323E0,2.710768938E0,9.196515083E0,6.358926296E-1
3.833398802E0,2.794517756E0,8.688937187E0,1.059721351E0
3.835878281E0,2.820838690E0,8.207680702E0,1.413859129E0
3.838356927E0,2.873480797E0,7.740781307E0,1.761117458E0
3.840835625E0,2.825624466E0,7.302894592E0,2.079662085E0
3.843315104E0,2.801696301E0,6.950850487E0,2.357229471E0
3.845794583E0,2.717947483E0,6.625127792E0,2.639881611E0
3.848273229E0,2.643769979E0,6.361917019E0,2.912663460E0
3.850751927E0,2.648555517E0,6.168098450E0,3.157030344E0
3.853231406E0,2.674876690E0,5.973980904E0,3.369991541E0
3.855710885E0,2.768196583E0,5.818447590E0,3.556631804E0
3.858189531E0,2.725125790E0,5.617450237E0,3.649951935E0
3.860668229E0,2.593520641E0,5.389832973E0,3.657130241E0
3.863147708E0,2.480758905E0,5.188836098E0,3.570988655E0
3.865627187E0,2.569592476E0,5.062016487E0,3.508775234E0
3.868105833E0,2.674876690E0,4.954040051E0,3.377170086E0
3.870584531E0,2.713161707E0,4.822434902E0,3.221636534E0
3.873064010E0,2.799303293E0,4.686044216E0,3.046661377E0
3.875543541E0,2.866302490E0,4.542474747E0,2.848057270E0
3.878022187E0,2.947658300E0,4.381856441E0,2.692523718E0
3.880500833E0,2.938086987E0,4.200001717E0,2.476870537E0
3.882980364E0,2.863909483E0,4.018147469E0,2.287837505E0
3.885459844E0,2.832803011E0,3.838386536E0,2.144268274E0
3.887938489E0,2.753839731E0,3.642175198E0,2.055733681E0
3.890417187E0,2.615056038E0,3.441178083E0,1.976471543E0
3.892896666E0,2.475973129E0,3.247060299E0,1.969292998E0
3.895376146E0,2.291725874E0,3.079562664E0,1.988435626E0
3.897854791E0,2.133799553E0,2.852244616E0,2.046162367E0
3.900333489E0,1.915753603E0,2.619841576E0,2.137089729E0
3.902812969E0,1.712363720E0,2.430808783E0,2.223231316E0
3.905292448E0,1.520937920E0,2.246561289E0,2.283051968E0
3.907771094E0,1.322034478E0,2.064407825E0,2.345265388E0
3.910249791E0,1.168893814E0,1.868196249E0,2.390728951E0
3.912729271E0,1.054038405E0,1.688734531E0,2.397907495E0
3.915208750E0,8.913264275E-1,1.458724499E0,2.405085802E0
3.917687396E0,6.852445602E-1,1.257727385E0,2.338086843E0
3.920166094E0,7.019943595E-1,1.097408295E0,2.316551447E0
3.922645573E0,6.326025128E-1,8.937192559E-1,2.421835661E0
3.925125052E0,5.201398134E-1,6.281159520E-1,2.352443695E0
3.927603698E0,4.483551383E-1,3.741776347E-1,2.273480654E0
3.930082396E0,4.435695112E-1,1.564307809E-1,2.189731836E0
3.932561875E0,4.316053987E-1,-4.486542568E-2,2.168196440E0
3.935041354E0,5.727819204E-1,-2.554338276E-1,2.146661043E0
3.937520000E0,6.756733060E-1,-4.133601189E-1,2.120339870E0
3.939998698E0,7.713862062E-1,-6.290132403E-1,2.122732878E0
3.942478229E0,8.985049129E-1,-7.366902828E-1,2.122732878E0
3.944957708E0,1.058824062E0,-8.084749579E-1,2.074876308E0
3.947436354E0,1.245464206E0,-8.874381185E-1,2.046162367E0
3.949915000E0,1.374975681E0,-9.640084505E-1,2.072483540E0
3.952394531E0,1.528116345E0,-1.019043326E0,2.086840391E0
3.954874010E0,1.604686737E0,-1.093220830E0,2.065304995E0
3.957352656E0,1.621436477E0,-1.133898854E0,2.027019978E0
3.959831354E0,1.671685696E0,-1.124327540E0,2.034198284E0
3.962310833E0,1.726720691E0,-1.052542806E0,2.105983019E0
3.964790312E0,1.817647934E0,-9.041878581E-1,2.211267233E0
3.967268958E0,1.903789520E0,-7.295117974E-1,2.335694075E0
3.969747656E0,1.932802439E0,-5.425725579E-1,2.455335140E0
3.972227135E0,1.925624013E0,-3.822534084E-1,2.531905413E0
3.974706614E0,1.944766641E0,-2.027917206E-1,2.594418049E0
3.977185260E0,1.894218206E0,-7.597211748E-2,2.654238462E0
3.979663958E0,1.820040703E0,4.396811500E-2,2.714059114E0
3.982143437E0,1.719542146E0,9.421738982E-2,2.797807932E0
3.984622916E0,1.585544109E0,1.707877219E-1,2.864806890E0
3.987101562E0,1.456331730E0,2.258226424E-1,2.876770973E0
3.989580260E0,1.336391449E0,2.760719061E-1,2.936591625E0
3.992059739E0,1.188036442E0,3.191427290E-1,3.008376360E0
3.994539219E0,1.008574724E0,3.287140131E-1,3.039483070E0
3.997017864E0,8.027920127E-1,3.646063507E-1,3.070589542E0
3.999496562E0,5.847460628E-1,3.885345757E-1,3.101696253E0
4.001976041E0,4.268197417E-1,4.459623098E-1,3.130410194E0
4.004455521E0,2.928216755E-1,5.395814776E-1,3.144767046E0
4.006934166E0,2.087737769E-1,6.448656917E-1,3.116053343E0
4.009412864E0,1.345962733E-1,7.932206988E-1,3.027518749E0
4.011892396E0,7.238288224E-2,9.511470199E-1,2.915056229E0
4.014371875E0,4.606183618E-2,1.142871857E0,2.807379246E0
4.016850521E0,3.409772366E-2,1.329512119E0,2.692523718E0
4.019329219E0,4.606183618E-2,1.547258973E0,2.565404892E0
4.021808698E0,2.991028363E-3,1.837089539E0,2.402693033E0
4.024288177E0,-1.794616925E-3,2.119442701E0,2.290230274E0
4.026766823E0,-1.854437590E-2,2.390130758E0,2.182553291E0
4.029245521E0,-1.854437590E-2,2.753839731E0,2.129911184E0
4.031725000E0,-1.375873014E-2,3.136990547E0,2.110768557E0
4.034204479E0,1.256231871E-2,3.548855066E0,2.070090771E0
4.036683125E0,1.974078640E-2,3.999004841E0,2.113161564E0
4.039161823E0,3.888336942E-2,4.465904236E0,2.170589209E0
4.041641302E0,1.495514158E-2,5.016552448E0,2.290230274E0
4.044120781E0,-4.187439568E-3,5.612664700E0,2.409871578E0
4.046599427E0,-4.247260094E-2,6.237490654E0,2.531905413E0
4.049078125E0,-8.554340899E-2,6.922136784E0,2.639881611E0
4.051557604E0,-2.075773627E-1,7.637889862E0,2.721237659E0
4.054037083E0,-3.056831062E-1,8.401798248E0,2.778665304E0
4.056515729E0,-5.069792867E-1,9.186943054E0,2.737987280E0
4.058994427E0,-7.295117974E-1,1.000798035E1,2.548655272E0
4.061473906E0,-9.332008362E-1,1.076471043E1,2.271087885E0
4.063953437E0,-1.088734269E0,1.149721336E1,1.820937991E0
4.066432083E0,-1.141376376E0,1.213878918E1,1.148255825E0
4.068910729E0,-1.088734269E0,1.269900894E1,3.412763178E-1
4.071390260E0,-9.044869542E-1,1.313958740E1,-5.922235847E-1
4.073869739E0,-6.002993584E-1,1.349163151E1,-1.356132269E0
4.076348385E0,-2.147558331E-1,1.366870022E1,-1.980958104E0
4.078827031E0,1.585244983E-1,1.372373486E1,-2.457129717E0
4.081306562E0,5.009972453E-1,1.374527073E1,-2.768495798E0
4.083786041E0,8.003991842E-1,1.375484180E1,-2.797209740E0
4.086264687E0,1.092323542E0,1.377877045E1,-2.756531715E0
4.088743385E0,1.276570916E0,1.373091316E1,-2.598605394E0
4.091222864E0,1.365404367E0,1.359212971E1,-2.414058924E0
4.093702344E0,1.444367528E0,1.339561939E1,-2.158026934E0
4.096180989E0,1.499402523E0,1.316590881E1,-1.844268084E0
4.098659687E0,1.475474238E0,1.283539963E1,-1.478166223E0
4.101139166E0,1.499402523E0,1.256022549E1,-1.078265667E0
4.103618646E0,1.468295813E0,1.228714466E1,-6.711867452E-1
4.106097291E0,1.425225019E0,1.206461143E1,-2.667997181E-1
4.108575989E0,1.396511078E0,1.176790142E1,6.849455088E-2
4.111055469E0,1.288534999E0,1.154267693E1,5.258227587E-1
4.113534948E0,1.192822099E0,1.144457150E1,1.004686356E0
4.116013594E0,1.070788145E0,1.134646606E1,1.461715579E0
4.118492291E0,9.367900491E-1,1.134168053E1,1.928615093E0
4.120971771E0,8.027920127E-1,1.127946663E1,2.443371058E0
4.123451250E0,6.397809386E-1,1.126511002E1,2.970091105E0
4.125929896E0,5.081757307E-1,1.128903770E1,3.570988655E0
4.128408594E0,2.880360186E-1,1.117627621E1,4.006781578E0
4.130888125E0,-1.794616925E-3,1.118824005E1,4.176671982E0
4.133367604E0,-3.442673683E-1,1.108774185E1,4.088137627E0
4.135846250E0,-6.888338327E-1,1.104945660E1,3.970889091E0
4.138324896E0,-1.012163997E0,1.115713406E1,3.781856298E0
4.140804427E0,-1.258624673E0,1.130578804E1,3.726821184E0
4.143283906E0,-1.445264935E0,1.146850014E1,3.824927092E0
4.145762552E0,-1.603490233E0,1.167667580E1,3.875176191E0
4.148241250E0,-1.756630898E0,1.192582798E1,3.824927092E0
4.150720729E0,-1.871486425E0,1.223928738E1,3.695415497E0
4.153200208E0,-1.914557219E0,1.252672577E1,3.523132324E0
4.155678854E0,-1.881057739E0,1.294337559E1,3.417848110E0
4.158157552E0,-1.804487348E0,1.320419312E1,3.168994427E0
4.160637031E0,-1.737488389E0,1.349402428E1,2.962912560E0
4.163116510E0,-1.677667737E0,1.372612762E1,2.668595552E0
4.165595156E0,-1.512562990E0,1.401835155E1,2.496013165E0
4.168073854E0,-1.385444283E0,1.421934891E1,2.369193554E0
4.170553333E0,-1.256231904E0,1.437966728E1,2.354836702E0
4.173032812E0,-1.138983607E0,1.447538090E1,2.524727106E0
4.175511458E0,-9.690931439E-1,1.442991734E1,2.812164783E0
4.177990156E0,-7.917252183E-1,1.437966728E1,3.154637575E0
4.180469635E0,-5.572285652E-1,1.416192055E1,3.520739317E0
4.182949114E0,-3.418745399E-1,1.388405418E1,3.887140274E0
4.185427760E0,-1.525424421E-1,1.349641705E1,4.222135544E0
4.187906458E0,4.845465720E-2,1.313719463E1,4.612464905E0
4.190385989E0,2.183450609E-1,1.274447250E1,4.978865623E0
4.192865469E0,2.952145040E-1,1.234247875E1,5.199005604E0
4.195344114E0,3.000001311E-1,1.192343521E1,5.364109993E0
4.197822760E0,3.693920076E-1,1.163121223E1,5.436193943E0
4.200302291E0,4.531407952E-1,1.137278652E1,5.491229057E0
4.202781771E0,4.004986882E-1,1.109970570E1,5.491229057E0
4.205260416E0,3.311068416E-1,1.084845924E1,5.486443043E0
4.207739114E0,2.039881349E-1,1.057537842E1,5.440979481E0
4.210218594E0,7.238288224E-2,1.030259705E1,5.352146149E0
4.212698073E0,-3.529413417E-2,1.004148006E1,5.258825779E0
4.215176719E0,-1.788634956E-1,9.783055305E0,5.179862976E0
4.217655416E0,-2.027917206E-1,9.579665184E0,5.093721390E0
4.220134896E0,-2.267199457E-1,9.421440125E0,5.065007210E0
4.222614375E0,-1.932204217E-1,9.268299103E0,5.041079044E0
4.225093021E0,-3.529413417E-2,9.160622597E0,5.105685234E0
4.227571719E0,1.130608693E-1,9.143872261E0,5.136792183E0
4.230051198E0,2.760719061E-1,9.155837059E0,5.189434052E0
4.232530677E0,4.411766827E-1,9.253942490E0,5.246861935E0
4.235009323E0,6.278168559E-1,9.411869049E0,5.196612358E0
4.237488021E0,8.147560954E-1,9.610772133E0,5.084149837E0
4.239967500E0,8.913264275E-1,9.821340561E0,4.964509010E0
4.242446979E0,9.942178130E-1,1.002712345E1,4.842474937E0
4.244925625E0,1.056431174E0,1.021406269E1,4.748855591E0
4.247404323E0,1.142572761E0,1.042941666E1,4.598107815E0
4.249883854E0,1.255035520E0,1.062323570E1,4.413860321E0
4.252363281E0,1.357926846E0,1.084367371E1,4.174279213E0
4.254841927E0,1.396511078E0,1.097049332E1,3.958925009E0
4.257320625E0,1.410868049E0,1.106859970E1,3.707379580E0
4.259800156E0,1.398903966E0,1.109492016E1,3.489632607E0
4.262279635E0,1.333998680E0,1.109013462E1,3.259921789E0
4.264758281E0,1.240678549E0,1.103988552E1,3.077768087E0
4.267236979E0,1.099501967E0,1.094656563E1,2.898306370E0
4.269716458E0,9.487541914E-1,1.085563850E1,2.728415966E0
4.272195937E0,7.570292354E-1,1.078146076E1,2.519941330E0
4.274674583E0,6.158527136E-1,1.070967579E1,2.314158678E0
4.277153281E0,4.842474759E-1,1.067378330E1,2.105983019E0
4.279632760E0,4.004986882E-1,1.062831974E1,1.907079697E0
4.282112239E0,3.550350666E-1,1.062084198E1,1.749153376E0
4.284590885E0,3.311068416E-1,1.059930706E1,1.607976794E0
4.287069583E0,3.287140131E-1,1.062831974E1,1.517049551E0
4.289549062E0,3.598206937E-1,1.065224838E1,1.423430324E0
4.292028541E0,4.196412563E-1,1.072881889E1,1.339681625E0
4.294507187E0,4.794618487E-1,1.078863907E1,1.287039518E0
4.296985885E0,5.273182988E-1,1.087478065E1,1.234397411E0
4.299465364E0,5.321039557E-1,1.098245811E1,1.227218866E0
4.301944844E0,5.608177781E-1,1.110927773E1,1.248754263E0
4.304423489E0,5.440680385E-1,1.130339527E1,1.241575837E0
4.306902187E0,5.009972453E-1,1.149960613E1,1.205683470E0
4.309381719E0,4.603192508E-1,1.172931767E1,1.243968725E0
4.311861198E0,3.622135222E-1,1.199522018E1,1.224826097E0
4.314339844E0,2.856431901E-1,1.223210907E1,1.109970570E0
4.316818489E0,1.633101404E-1,1.251715469E1,7.770691514E-1
4.319298021E0,1.226321608E-1,1.287398434E1,5.449653864E-1
4.321777500E0,1.872383654E-1,1.314437294E1,1.761715710E-1
4.324256146E0,2.425723970E-1,1.336929798E1,-2.883351147E-1
4.326734844E0,2.327020019E-1,1.351077366E1,-6.807580590E-1
4.329214323E0,3.143570721E-1,1.373091316E1,-1.056730270E0
4.331693802E0,4.316053987E-1,1.392712498E1,-1.430309772E0
4.334172448E0,5.416752100E-1,1.408056450E1,-1.758126378E0
4.336651146E0,7.618148923E-1,1.437966728E1,-1.971386790E0
4.339130625E0,9.152546525E-1,1.471735477E1,-2.114956141E0
4.341610104E0,1.166501045E0,1.507867146E1,-2.174776793E0
4.344088750E0,1.398903966E0,1.546660709E1,-2.045564175E0
4.346567448E0,1.683649778E0,1.589043617E1,-1.822732687E0
4.349046927E0,2.006979942E0,1.631187248E1,-1.511665702E0
4.351526406E0,2.277369022E0,1.676650810E1,-1.205085278E0
4.354005052E0,2.593520641E0,1.715683746E1,-8.940183520E-1
4.356483750E0,2.863909483E0,1.740120506E1,-5.970092416E-1
4.358963229E0,3.125026464E0,1.761895180E1,-2.356930375E-1
4.361442708E0,3.244667530E0,1.773380661E1,1.666002721E-1
4.363921354E0,3.393022537E0,1.780559158E1,6.263213158E-1
4.366400052E0,3.507878065E0,1.775294876E1,1.098006487E0
4.368879583E0,3.543770313E0,1.760698700E1,1.639083505E0
4.371359062E0,3.536591768E0,1.736531258E1,2.161017895E0
4.373837708E0,3.414557934E0,1.711137390E1,2.733201742E0
4.376316354E0,3.225524902E0,1.686730576E1,3.235993624E0
4.378795885E0,2.993122101E0,1.675933075E1,3.700201035E0
4.381275364E0,2.653341293E0,1.676650810E1,4.097708702E0
4.383754010E0,2.344367981E0,1.700609016E1,4.421039104E0
4.386232708E0,2.071586132E0,1.742034721E1,4.643571377E0
4.388712187E0,1.798505306E0,1.797817421E1,4.691427708E0
4.391191666E0,1.568794370E0,1.862453461E1,4.526323318E0
4.393670312E0,1.408475280E0,1.928046799E1,4.157529354E0
4.396149010E0,1.295713425E0,1.988375854E1,3.676272869E0
4.398628489E0,1.247856975E0,2.044637108E1,3.039483070E0
4.401107969E0,1.223928809E0,2.084866333E1,2.438585281E0
4.403586614E0,1.156929731E0,2.104726791E1,1.854437590E0
4.406065312E0,1.061216831E0,2.112144470E1,1.370788217E0
4.408544791E0,9.631111026E-1,2.095634079E1,1.014257669E0
4.411024271E0,8.793623447E-1,2.055165482E1,7.986045480E-1
4.413502916E0,8.434699774E-1,1.995554352E1,6.622136831E-1
4.415981614E0,9.080761671E-1,1.912971878E1,6.765705943E-1
4.418461094E0,8.793623447E-1,1.815045738E1,6.550351977E-1
4.420940573E0,5.297111273E-1,1.708744621E1,6.358926296E-1
4.423419219E0,5.084748194E-2,1.612971878E1,6.287141442E-1
4.425897916E0,-4.567300081E-1,1.524886036E1,6.311069727E-1
4.428377448E0,-9.116654396E-1,1.444188118E1,6.167500615E-1
4.430856927E0,-1.277767301E0,1.372612762E1,5.401797295E-1
4.433335573E0,-1.562812328E0,1.313480186E1,3.269194067E-1
4.435814219E0,-1.730309844E0,1.259851074E1,9.242277592E-2
4.438293750E0,-1.778166294E0,1.212203979E1,-2.018944174E-1
4.440773229E0,-1.763809443E0,1.173888874E1,-5.084748268E-1
4.443251875E0,-1.689631939E0,1.142303658E1,-8.294121623E-1
4.445730573E0,-1.589133382E0,1.115474129E1,-1.071087241E0
4.448210052E0,-1.495813251E0,1.093938732E1,-1.233799219E0
4.450689531E0,-1.368694544E0,1.076231766E1,-1.286441326E0
4.453168177E0,-1.215553880E0,1.062084198E1,-1.356132269E0
4.455646875E0,-1.060020447E0,1.051077271E1,-1.396810174E0
4.458126354E0,-9.834501147E-1,1.038156033E1,-1.377667665E0
4.460605833E0,-9.379864931E-1,1.026191902E1,-1.296012521E0
4.463084479E0,-8.730811477E-1,1.011595726E1,-1.224227905E0
4.465563177E0,-8.180462122E-1,9.981659889E0,-1.087836981E0
4.468042656E0,-7.366902828E-1,9.799804688E0,-8.629116416E-1
4.470522135E0,-6.505486369E-1,9.610772133E0,-5.611169338E-1
4.473000781E0,-5.309075117E-1,9.383154869E0,-2.548356056E-1
4.475479479E0,-3.514458239E-1,9.182157516E0,8.763712645E-2
4.477958958E0,-1.740778536E-1,9.024231911E0,3.918247223E-1
4.480438437E0,-3.290131316E-2,8.791828156E0,6.861419082E-1
4.482917083E0,1.968096644E-1,8.617152214E0,9.687940478E-1
4.485395781E0,3.358924687E-1,8.406583786E0,1.191326618E0
4.487875312E0,4.722833633E-1,8.267500877E0,1.342074394E0
4.490354791E0,5.775675774E-1,8.157431602E0,1.389930844E0
4.492833437E0,6.613163352E-1,8.092824936E0,1.366002679E0
4.495312083E0,7.953144312E-1,8.131110191E0,1.243968725E0
4.497791614E0,9.367900491E-1,8.269894600E0,1.042971611E0
4.500271094E0,1.092323542E0,8.430512428E0,8.656035662E-1
4.502749739E0,1.190429211E0,8.583653450E0,6.000002623E-1
4.505228437E0,1.214357495E0,8.621937752E0,2.862414122E-1
4.507707916E0,1.302891970E0,8.638688087E0,-8.973084623E-4
4.510187396E0,1.444367528E0,8.638688087E0,-2.428714931E-1
4.512666041E0,1.556830287E0,8.581260681E0,-4.965106845E-1
4.515144739E0,1.575972795E0,8.528617859E0,-7.716853023E-1
4.517624219E0,1.559223056E0,8.473583221E0,-1.068694472E0
4.520103698E0,1.542473316E0,8.430512428E0,-1.360917926E0
4.522582344E0,1.489831209E0,8.368000031E0,-1.631306887E0
4.525061041E0,1.403689623E0,8.274680138E0,-1.884945989E0
4.527540521E0,1.290927768E0,8.152646065E0,-2.035992861E0
4.530020000E0,1.192822099E0,8.076075554E0,-2.134098768E0
4.532498646E0,1.063609719E0,7.951648712E0,-2.227418661E0
4.534977344E0,9.391828775E-1,7.827221870E0,-2.303989172E0
4.537456875E0,8.171489239E-1,7.640282631E0,-2.327917337E0
4.539936354E0,7.211369276E-1,7.523034573E0,-2.378166676E0
4.542415000E0,6.589235067E-1,7.427321434E0,-2.397309303E0
4.544893646E0,6.110670567E-1,7.362715244E0,-2.447558403E0
4.547373177E0,5.560321808E-1,7.369893551E0,-2.512463808E0
4.549852656E0,4.722833633E-1,7.355536938E0,-2.610569477E0
4.552331302E0,4.244269133E-1,7.353144169E0,-2.703889608E0
4.554810000E0,4.363910258E-1,7.439285755E0,-2.830709219E0
4.557289479E0,4.794618487E-1,7.520641804E0,-2.924029350E0
4.559768958E0,5.344967842E-1,7.582854748E0,-2.806781054E0
4.562247604E0,5.512465239E-1,7.640282631E0,-2.524427891E0
4.564726302E0,5.392823815E-1,7.616354465E0,-2.122134686E0
4.567205781E0,4.579264224E-1,7.570890903E0,-1.671984792E0
4.569685260E0,3.478565812E-1,7.561319351E0,-1.312762380E0
4.572163906E0,2.350948304E-1,7.566105366E0,-1.025623560E0
4.574642604E0,1.130608693E-1,7.594819069E0,-7.716853023E-1
4.577122083E0,1.016949583E-2,7.704888821E0,-5.850451589E-1
4.579601562E0,-8.075776696E-2,7.810173035E0,-3.768695593E-1
4.582080208E0,-1.932204217E-1,7.956434250E0,-1.755733639E-1
4.584558906E0,-3.394817114E-1,8.140681267E0,1.345962752E-2
4.587038385E0,-4.399802685E-1,8.322536469E0,2.264208496E-1
4.589517864E0,-4.950151742E-1,8.545368195E0,4.372883439E-1
4.591996510E0,-5.644070506E-1,8.784649849E0,6.574280262E-1
4.594475208E0,-5.356931686E-1,9.043374062E0,8.321040869E-1
4.596954739E0,-4.567300081E-1,9.280263901E0,1.042971611E0
4.599434219E0,-3.586242795E-1,9.570094109E0,1.263111234E0
4.601912864E0,-2.147558331E-1,9.890732765E0,1.437787294E0
4.604391562E0,-8.315058798E-2,1.019013405E1,1.648654819E0
4.606871041E0,7.238288224E-2,1.045813084E1,1.873580098E0
4.609350521E0,1.513460279E-1,1.070967579E1,2.060519457E0
4.611829166E0,2.712862790E-1,1.098245811E1,2.261516571E0
4.614307864E0,2.976073027E-1,1.121246815E1,2.426621199E0
4.616787344E0,3.311068416E-1,1.141825008E1,2.567797899E0
4.619266823E0,3.382852972E-1,1.161446190E1,2.723630428E0
4.621745469E0,2.928216755E-1,1.174128151E1,2.840878725E0
4.624224166E0,2.039881349E-1,1.182532978E1,2.986840963E0
4.626703646E0,1.465603858E-1,1.188036442E1,3.128017426E0
4.629183125E0,9.631111473E-2,1.189950657E1,3.293421268E0
4.631661771E0,4.845465720E-2,1.189711380E1,3.503989697E0
4.634140469E0,-4.007977992E-2,1.189711380E1,3.585345745E0
4.636619948E0,-1.812563092E-1,1.183729362E1,3.587738514E0
4.639099427E0,-3.394817114E-1,1.180379391E1,3.563810110E0
4.641578073E0,-5.404788256E-1,1.177268696E1,3.556631804E0
4.644056771E0,-7.151548862E-1,1.169103241E1,3.422633648E0
4.646536302E0,-9.140582681E-1,1.166471100E1,3.291028500E0
4.649015781E0,-1.119840980E0,1.160489082E1,3.072982550E0
4.651494427E0,-1.253839016E0,1.157378387E1,2.766701221E0
4.653973073E0,-1.311266780E0,1.151635647E1,2.462513685E0
4.656452604E0,-1.397408366E0,1.145174980E1,2.101197481E0
4.658932083E0,-1.378265858E0,1.137039375E1,1.667797327E0
4.661410729E0,-1.325623751E0,1.124357414E1,1.208076358E0
4.663889427E0,-1.316052437E0,1.116191959E1,8.775677085E-1
4.666368906E0,-1.311266780E0,1.108295631E1,5.018945336E-1
4.668848385E0,-1.320838094E0,1.098724365E1,2.718844712E-1
4.671327031E0,-1.304088354E0,1.094417286E1,3.499503061E-2
4.673805729E0,-1.263410330E0,1.093460083E1,-1.277169138E-1
4.676285208E0,-1.253839016E0,1.093699455E1,-1.899302900E-1
4.678764687E0,-1.313659668E0,1.088195896E1,-1.468594968E-1
4.681243333E0,-1.363908887E0,1.078624630E1,-1.277169138E-1
4.683722031E0,-1.426122308E0,1.063071251E1,-1.181456149E-1
4.686201510E0,-1.502991676E0,1.044616604E1,-5.832505226E-2
4.688680989E0,-1.457528114E0,1.029781151E1,-8.703892678E-2
4.691159635E0,-1.368694544E0,1.013031387E1,-1.037886813E-1
4.693638333E0,-1.294517040E0,9.952945709E0,-1.444666684E-1
4.696117812E0,-1.117448211E0,9.814162254E0,-8.943174779E-2
4.698597344E0,-1.036092162E0,9.641879082E0,2.063809521E-2
4.701075989E0,-9.403793216E-1,9.478867531E0,8.763712645E-2
4.703554635E0,-7.797610760E-1,9.263513565E0,1.953141540E-1
4.706034166E0,-6.146563292E-1,9.086444855E0,2.790629268E-1
4.708513646E0,-4.543372095E-1,8.913862228E0,2.264208496E-1
4.710992291E0,-3.610171080E-1,8.760722160E0,1.067797095E-1
4.713470989E0,-2.745763958E-1,8.729615211E0,1.163510010E-1
4.715950469E0,-2.195414752E-1,8.739186287E0,1.378864050E-1
4.718429948E0,-2.315055877E-1,8.765507698E0,1.546361595E-1
4.720908594E0,-2.386840582E-1,8.822935104E0,2.048854381E-1
4.723387291E0,-2.051845491E-1,8.954839706E0,2.647060156E-1
4.725866771E0,-1.668993831E-1,9.052945137E0,2.096710801E-1
4.728346250E0,-1.740778536E-1,9.261120796E0,4.013960063E-1
4.730824896E0,-1.980060786E-1,9.407083511E0,4.755735099E-1
4.733303594E0,-1.860419661E-1,9.555737495E0,5.090730190E-1
4.735783073E0,-2.793620527E-1,9.637093544E0,5.497509837E-1
4.738262552E0,-2.793620527E-1,9.773484230E0,5.401797295E-1
4.740741198E0,-3.032902777E-1,9.871589661E0,5.593222976E-1
4.743219896E0,-3.394817114E-1,1.003669453E1,6.311069727E-1
4.745699375E0,-3.801597059E-1,1.011117077E1,5.473581553E-1
4.748178854E0,-3.849453330E-1,1.030020428E1,6.574280262E-1
4.750657500E0,-3.490529954E-1,1.042941666E1,7.052844763E-1
4.753136198E0,-2.961117923E-1,1.049641609E1,7.890332937E-1
4.755615677E0,-1.549352705E-1,1.051316547E1,8.105686903E-1
4.758095208E0,-8.793623000E-2,1.047727299E1,8.344969153E-1
4.760573854E0,5.982056609E-4,1.045095158E1,8.584251404E-1
4.763052500E0,7.716853172E-2,1.038156033E1,8.129615188E-1
4.765532031E0,1.130608693E-1,1.029063320E1,7.818548083E-1
4.768011510E0,1.322034448E-1,1.020688438E1,5.952146053E-1
4.770490156E0,1.202393398E-1,1.009920692E1,4.731806815E-1
4.772968854E0,8.434699476E-2,9.984052658E0,3.053839803E-1
4.775448333E0,-2.572284266E-2,9.881160736E0,1.585244946E-2
4.777927812E0,-4.965107143E-2,9.823733330E0,-1.899302900E-1
4.780406458E0,-6.400800496E-2,9.835697174E0,-3.840480447E-1
4.782885156E0,-8.793623000E-2,9.806983948E0,-6.281159520E-1
4.785364635E0,-1.262213886E-1,9.639486313E0,-8.102695942E-1
4.787844114E0,-1.645065546E-1,9.478867531E0,-9.897312522E-1
4.790322760E0,-1.453639716E-1,9.440582275E0,-1.188335538E0
4.792801458E0,-9.032905847E-2,9.337691307E0,-1.403988719E0
4.795280937E0,-3.529413417E-2,9.206086159E0,-1.616949916E0
4.797760416E0,5.982056609E-4,8.966803551E0,-1.693520188E0
4.800239062E0,6.281159073E-2,8.739186287E0,-1.774876237E0
4.802717760E0,6.041877344E-2,8.425726891E0,-1.774876237E0
4.805197291E0,-3.529413417E-2,8.006683350E0,-1.667199135E0
4.807676771E0,-1.692921966E-1,7.611568928E0,-1.492523074E0
4.810155416E0,-2.650051117E-1,7.235596657E0,-1.303191066E0
4.812634062E0,-3.634099364E-1,6.864708900E0,-1.063908815E0
4.815113594E0,-5.093721151E-1,6.440880299E0,-8.270193338E-1
4.817593073E0,-6.505486369E-1,6.124728680E0,-5.778666735E-1
4.820071719E0,-7.271189690E-1,5.885446548E0,-4.247260094E-1
4.822550416E0,-7.414759398E-1,5.701199055E0,-2.572284341E-1
4.825029896E0,-7.199404836E-1,5.598307610E0,-5.593222752E-2
4.827509375E0,-6.433702111E-1,5.545366287E0,2.072782665E-1
4.829988021E0,-5.333003402E-1,5.591129303E0,3.846462369E-1
4.832466719E0,-3.969094455E-1,5.713163376E0,5.736792088E-1
4.834946198E0,-3.152543902E-1,5.887839317E0,7.196413875E-1
4.837425677E0,-2.243271172E-1,6.115157604E0,8.967102766E-1
4.839904323E0,-1.405783296E-1,6.328417778E0,1.088435173E0
4.842383021E0,-7.118647546E-2,6.565307140E0,1.174576759E0
4.844862500E0,-2.572284266E-2,6.855137825E0,1.153041363E0
4.847341979E0,-5.443671346E-2,7.123134136E0,1.100399256E0
4.849820625E0,-7.357929647E-2,7.367500782E0,1.145862937E0
4.852299323E0,-1.615155302E-2,7.606783390E0,1.337288737E0
4.854778854E0,-1.094716340E-1,7.810173035E0,1.377966762E0
4.857258333E0,-2.673979402E-1,8.040183067E0,1.375573874E0
4.859736979E0,-3.801597059E-1,8.284251213E0,1.428215981E0
4.862215625E0,-4.782654345E-1,8.514261246E0,1.538584948E0
4.864695156E0,-5.380859971E-1,8.758329391E0,1.631905079E0
4.867174635E0,-7.462615371E-1,8.942576408E0,1.576870084E0
4.869653281E0,-9.140582681E-1,9.172586441E0,1.543370605E0
4.872131979E0,-1.069591761E0,9.464510918E0,1.483550072E0
4.874611458E0,-1.275374413E0,9.728020668E0,1.500299811E0
4.877090937E0,-1.488634825E0,9.981659889E0,1.456929922E0
4.879569583E0,-1.703988791E0,1.024277687E1,1.423430324E0
4.882048281E0,-1.864308000E0,1.044377327E1,1.461715579E0
4.884527760E0,-2.022533417E0,1.055862904E1,1.584048629E0
4.887007239E0,-2.249851465E0,1.064507008E1,1.610369682E0
4.889485885E0,-2.446063042E0,1.068096161E1,1.665404558E0
4.891964583E0,-2.575574398E0,1.065464115E1,1.761117458E0
4.894444062E0,-2.630609512E0,1.057777119E1,1.885544300E0
4.896923541E0,-2.613859653E0,1.045095158E1,1.983649969E0
4.899402187E0,-2.592324257E0,1.036480999E1,2.002792597E0
4.901880885E0,-2.525026083E0,1.023799038E1,2.058126688E0
4.904360364E0,-2.388635159E0,1.011835003E1,2.082054853E0
4.906839896E0,-2.242672920E0,9.943374634E0,2.153839588E0
4.909318541E0,-2.056032896E0,9.804591179E0,2.199303150E0
4.911797187E0,-1.881057739E0,9.706484795E0,2.211267233E0
4.914276719E0,-1.668096542E0,9.653842926E0,2.230409861E0
4.916756198E0,-1.409372568E0,9.644271851E0,2.292623281E0
4.919234844E0,-1.141376376E0,9.608379364E0,2.419442892E0
4.921713541E0,-8.563314080E-1,9.632308006E0,2.577368975E0
4.924193021E0,-5.739783049E-1,9.622735977E0,2.781058073E0
4.926672500E0,-3.104687333E-1,9.658628464E0,2.919841766E0
4.929151146E0,1.734796353E-2,9.773484230E0,3.039483070E0
4.931629844E0,2.808575630E-1,9.845269203E0,3.180958509E0
4.934109323E0,4.962115884E-1,9.938589096E0,3.274278641E0
4.936588802E0,6.804589629E-1,1.001515961E1,3.405884027E0
4.939067448E0,8.458628058E-1,1.005823040E1,3.496811152E0
4.941546146E0,9.511470199E-1,1.010877800E1,3.542274714E0
4.944025625E0,1.133001566E0,1.022363377E1,3.580559969E0
4.946505104E0,1.216750264E0,1.028345394E1,3.611666679E0
4.948983750E0,1.286142230E0,1.039113140E1,3.673880100E0
4.951462448E0,1.413260818E0,1.054187965E1,3.722035646E0
4.953941927E0,1.465902925E0,1.065224838E1,3.824927092E0
4.956421458E0,1.523330688E0,1.079103184E1,3.942175388E0
4.958900104E0,1.564008713E0,1.094417286E1,4.013959885E0
4.961378750E0,1.566401482E0,1.114277649E1,4.030709743E0
4.963858281E0,1.542473316E0,1.133450222E1,4.052245140E0
4.966337760E0,1.401296735E0,1.159053421E1,3.958925009E0
4.968816406E0,1.278963685E0,1.186122227E1,3.872783422E0
4.971295104E0,1.159322619E0,1.214357471E1,3.844069481E0
4.973774583E0,1.027717352E0,1.246211910E1,3.851248026E0
4.976254062E0,8.721838593E-1,1.283061409E1,3.877569199E0
4.978732708E0,6.349952817E-1,1.325683594E1,3.903890133E0
4.981211406E0,3.981058598E-1,1.367348576E1,3.920639992E0
4.983690885E0,1.704886109E-1,1.410210037E1,3.932604074E0
4.986170364E0,-1.238285750E-1,1.455195045E1,3.863212109E0
4.988649010E0,-3.897309899E-1,1.503320694E1,3.832105398E0
4.991127708E0,-6.337988973E-1,1.549292850E1,3.829712629E0
4.993607187E0,-8.060821295E-1,1.594307804E1,3.946960926E0
4.996086666E0,-8.826524615E-1,1.635015678E1,4.246063709E0
4.998565312E0,-8.515457511E-1,1.679522133E1,4.485645294E0
5.001044010E0,-8.204390407E-1,1.717837334E1,4.779962540E0
5.003523541E0,-7.438687682E-1,1.753998756E1,5.048257351E0
5.006003021E0,-5.739783049E-1,1.791087532E1,5.275575638E0
5.008481666E0,-2.554338276E-1,1.832752609E1,5.527121067E0
5.010960312E0,1.393819153E-1,1.872742653E1,5.804688454E0
5.013439844E0,4.268197417E-1,1.919911194E1,5.876473427E0
5.015919323E0,6.589235067E-1,1.959392738E1,5.866901875E0
5.018397969E0,8.267202377E-1,1.993161392E1,5.807081223E0
5.020876666E0,9.702895880E-1,2.021665955E1,5.694618702E0
5.023356146E0,1.020538807E0,2.046311951E1,5.349753380E0
5.025835625E0,1.068395257E0,2.061386871E1,4.827818871E0
5.028314271E0,1.130608678E0,2.068804550E1,4.294219494E0
5.030792969E0,1.183250785E0,2.069283104E1,3.702594042E0
5.033272448E0,1.054038405E0,2.051097679E1,2.917448997E0
5.035751927E0,9.248259664E-1,2.011825371E1,2.304587364E0
5.038230573E0,7.618148923E-1,1.957717705E1,1.966900229E0
5.040709271E0,6.589235067E-1,1.897628021E1,1.730010748E0
5.043188750E0,7.235297561E-1,1.835384750E1,1.572084427E0
5.045668229E0,8.793623447E-1,1.776012802E1,1.500299811E0
5.048146875E0,1.149751306E0,1.719751549E1,1.543370605E0
5.050625573E0,1.458724499E0,1.663968849E1,1.730010748E0
5.053105052E0,1.889432549E0,1.616800308E1,2.012363911E0
5.055584583E0,2.408974171E0,1.581625843E1,2.323729992E0
5.058063229E0,2.895016193E0,1.544507217E1,2.476870537E0
5.060541875E0,3.110669374E0,1.493988705E1,2.491227388E0
5.063021406E0,3.330809116E0,1.444188118E1,2.524727106E0
5.065500885E0,3.203989506E0,1.384337616E1,2.484049082E0
5.067979531E0,2.923730135E0,1.314198017E1,2.409871578E0
5.070458229E0,2.545664072E0,1.241187000E1,2.352443695E0
5.072937708E0,2.095514536E0,1.158335495E1,2.275873423E0
5.075417187E0,1.681257010E0,1.078146076E1,2.144268274E0
5.077895833E0,1.312463164E0,1.002473068E1,2.084447622E0
5.080374531E0,9.607182741E-1,9.294620514E0,2.156232357E0
5.082854010E0,7.283154130E-1,8.650651932E0,2.213660002E0
5.085333489E0,5.536393523E-1,8.061718941E0,2.350050926E0
5.087812135E0,4.794618487E-1,7.549355507E0,2.417049885E0
5.090290833E0,3.095714152E-1,7.025028229E0,2.491227388E0
5.092770312E0,2.231307179E-1,6.617949009E0,2.539083958E0
5.095249791E0,2.736790776E-1,6.287739754E0,2.579761982E0
5.097728437E0,2.976073027E-1,5.966802597E0,2.692523718E0
5.100207135E0,3.191427290E-1,5.665306568E0,2.814557552E0
5.102686666E0,4.052843451E-1,5.365904808E0,2.883949518E0
5.105166146E0,4.339981973E-1,5.040481091E0,2.998805046E0
5.107644791E0,3.598206937E-1,4.736293316E0,3.159423113E0
5.110123437E0,2.449652255E-1,4.492225647E0,3.307778120E0
5.112602969E0,2.303091735E-1,4.269393921E0,3.453740358E0
5.115082448E0,1.226321608E-1,4.046861172E0,3.477668524E0
5.117561094E0,2.991028363E-3,3.869493246E0,3.573381424E0
5.120039791E0,-9.990034252E-2,3.699602842E0,3.604488134E0
5.122519271E0,-1.668993831E-1,3.575176239E0,3.654737473E0
5.124998750E0,-2.985046208E-1,3.505784273E0,3.647558928E0
5.127477396E0,-3.825525343E-1,3.438785315E0,3.652344704E0
5.129956094E0,-4.495515525E-1,3.398107290E0,3.654737473E0
5.132435573E0,-5.667998791E-1,3.369393349E0,3.630809307E0
5.134915052E0,-6.314060688E-1,3.326023579E0,3.657130241E0
5.137393698E0,-6.864410043E-1,3.352643728E0,3.633202076E0
5.139872396E0,-7.510471940E-1,3.374179125E0,3.604488134E0
5.142351875E0,-8.204390407E-1,3.410071373E0,3.513561010E0
5.144831354E0,-9.116654396E-1,3.477070332E0,3.420240879E0
5.147310000E0,-9.834501147E-1,3.556033611E0,3.319742203E0
5.149788698E0,-1.048056364E0,3.627818346E0,3.197708368E0
