"Time (s)","Gyroscope x (rad/s)","Gyroscope y (rad/s)","Gyroscope z (rad/s)"
1.342434390E-1,-2.750339806E-1,-3.048127890E-1,-2.846548259E-1
1.367090640E-1,-2.713688910E-1,-2.950392365E-1,-2.785463631E-1
1.391738550E-1,-2.664821148E-1,-2.889307439E-1,-2.687727809E-1
1.416379180E-1,-2.615953386E-1,-2.803788781E-1,-2.663294077E-1
1.441027090E-1,-2.542651594E-1,-2.767138183E-1,-2.577775419E-1
1.465683860E-1,-2.518217862E-1,-2.718270421E-1,-2.541124523E-1
1.490331780E-1,-2.469350100E-1,-2.693836391E-1,-2.516690791E-1
1.514972410E-1,-2.396048307E-1,-2.693836391E-1,-2.492256761E-1
1.539620320E-1,-2.359397560E-1,-2.644968629E-1,-2.480039895E-1
1.564276570E-1,-2.298312783E-1,-2.620534599E-1,-2.443388999E-1
1.588925010E-1,-2.261662036E-1,-2.632751763E-1,-2.480039895E-1
1.613565110E-1,-2.188360244E-1,-2.644968629E-1,-2.431172132E-1
1.638213550E-1,-2.139492482E-1,-2.681619525E-1,-2.370087355E-1
1.662869800E-1,-2.078407854E-1,-2.706053257E-1,-2.309002578E-1
1.687518240E-1,-2.041756958E-1,-2.669402659E-1,-2.492256761E-1
1.712158340E-1,-1.968455315E-1,-2.693836391E-1,-2.394521236E-1
1.736806780E-1,-1.956238300E-1,-2.706053257E-1,-2.357870489E-1
1.761463030E-1,-1.895153672E-1,-2.693836391E-1,-2.443388999E-1
1.786111470E-1,-1.846285909E-1,-2.681619525E-1,-2.467822880E-1
1.810751570E-1,-1.809635013E-1,-2.669402659E-1,-2.382304370E-1
1.835400010E-1,-1.785201132E-1,-2.669402659E-1,-2.345653474E-1
1.860056260E-1,-1.724116355E-1,-2.644968629E-1,-2.370087355E-1
1.884704180E-1,-1.687465608E-1,-2.608317733E-1,-2.357870489E-1
1.909344800E-1,-1.675248593E-1,-2.571666837E-1,-2.321219593E-1
1.933993240E-1,-1.650814712E-1,-2.535016239E-1,-2.260134816E-1
1.958649490E-1,-1.601946950E-1,-2.498365343E-1,-2.284568697E-1
1.983297410E-1,-1.577513069E-1,-2.437280566E-1,-2.235700935E-1
2.007938030E-1,-1.577513069E-1,-2.351761907E-1,-2.186833173E-1
2.032585950E-1,-1.553079188E-1,-2.278460264E-1,-2.150182426E-1
2.057242720E-1,-1.540862173E-1,-2.168507725E-1,-2.174616307E-1
2.081890640E-1,-1.540862173E-1,-2.070772201E-1,-2.101314515E-1
2.106530740E-1,-1.565296054E-1,-1.985253543E-1,-2.052446753E-1
2.131179180E-1,-1.540862173E-1,-1.899735034E-1,-2.040229887E-1
2.155835950E-1,-1.553079188E-1,-1.789782494E-1,-2.015796006E-1
2.180483860E-1,-1.577513069E-1,-1.692046970E-1,-1.918060333E-1
2.205123970E-1,-1.601946950E-1,-1.594311297E-1,-1.930277348E-1
2.229772410E-1,-1.589729935E-1,-1.496575773E-1,-1.905843467E-1
2.254429180E-1,-1.601946950E-1,-1.411057115E-1,-1.832541823E-1
2.279077090E-1,-1.638597846E-1,-1.313321590E-1,-1.783674061E-1
2.303717200E-1,-1.663031727E-1,-1.191152185E-1,-1.747023165E-1
2.328365640E-1,-1.687465608E-1,-1.093416587E-1,-1.734806150E-1
2.353022410E-1,-1.724116355E-1,-9.834641218E-2,-1.710372269E-1
2.377670320E-1,-1.748550236E-1,-9.101624042E-2,-1.649287641E-1
2.402310430E-1,-1.785201132E-1,-8.002099395E-2,-1.637070626E-1
2.426958860E-1,-1.797417998E-1,-7.391251624E-2,-1.563768983E-1
2.451615640E-1,-1.809635013E-1,-6.291726977E-2,-1.539335102E-1
2.476263030E-1,-1.846285909E-1,-5.803048983E-2,-1.478250325E-1
2.500903660E-1,-1.858502775E-1,-4.825693369E-2,-1.539335102E-1
2.525552090E-1,-1.870719790E-1,-3.970507160E-2,-1.441599578E-1
2.550208860E-1,-1.907370538E-1,-3.359659761E-2,-1.368297935E-1
2.574856260E-1,-1.931804419E-1,-2.870982140E-2,-1.404948682E-1
2.599496890E-1,-1.931804419E-1,-2.382304333E-2,-1.392731816E-1
2.624144800E-1,-1.931804419E-1,-1.771457121E-2,-1.380514801E-1
2.648801570E-1,-1.956238300E-1,-1.282779220E-2,-1.319430023E-1
2.673449490E-1,-1.968455315E-1,-1.038440317E-2,-1.356080920E-1
2.698089590E-1,-1.956238300E-1,-1.832541777E-3,-1.343863904E-1
2.722738030E-1,-1.968455315E-1,-1.832541777E-3,-1.270562261E-1
2.747394800E-1,-1.980672181E-1,3.054236295E-3,-1.282779276E-1
2.772042720E-1,-1.968455315E-1,4.275931045E-3,-1.233911440E-1
2.796682820E-1,-1.968455315E-1,1.038440317E-2,-1.185043678E-1
2.821331260E-1,-1.980672181E-1,1.282779220E-2,-1.172826737E-1
2.845988030E-1,-1.980672181E-1,1.404948719E-2,-1.172826737E-1
2.870635950E-1,-1.956238300E-1,1.649287529E-2,-1.111742035E-1
2.895276050E-1,-1.931804419E-1,1.893626526E-2,-9.895725548E-2
2.919924490E-1,-1.931804419E-1,2.137965336E-2,-1.062874198E-1
2.944581260E-1,-1.907370538E-1,2.137965336E-2,-1.075091213E-1
2.969229180E-1,-1.895153672E-1,2.504473738E-2,-1.050657257E-1
2.993869280E-1,-1.870719790E-1,2.870982140E-2,-1.001789495E-1
3.018517720E-1,-1.846285909E-1,3.115320951E-2,-1.014006436E-1
3.043174490E-1,-1.797417998E-1,3.115320951E-2,-1.014006436E-1
3.067821890E-1,-1.772984117E-1,3.115320951E-2,-1.001789495E-1
3.092462510E-1,-1.724116355E-1,3.603998944E-2,-9.529217333E-2
3.117110430E-1,-1.699682474E-1,3.603998944E-2,-9.895725548E-2
3.141767200E-1,-1.663031727E-1,3.848337755E-2,-1.001789495E-1
3.166415110E-1,-1.626380831E-1,3.970507160E-2,-9.651386738E-2
3.191055220E-1,-1.577513069E-1,4.092676565E-2,-9.407047927E-2
3.215703660E-1,-1.540862173E-1,4.214845970E-2,-9.529217333E-2
3.240360430E-1,-1.491994411E-1,4.092676565E-2,-9.040539712E-2
3.265008340E-1,-1.418692768E-1,4.581354558E-2,-9.407047927E-2
3.289648450E-1,-1.357607991E-1,4.825693369E-2,-9.529217333E-2
3.314296890E-1,-1.284306347E-1,4.825693369E-2,-9.162709117E-2
3.338953660E-1,-1.235438585E-1,4.947862774E-2,-9.040539712E-2
3.363601570E-1,-1.186570823E-1,5.192201585E-2,-8.918370306E-2
3.388241680E-1,-1.076618284E-1,5.436540768E-2,-9.895725548E-2
3.412890110E-1,-9.910997003E-2,5.314370990E-2,-9.651386738E-2
3.437546890E-1,-8.933641016E-2,5.558710173E-2,-8.551861346E-2
3.462194800E-1,-8.200624585E-2,5.436540768E-2,-8.674030751E-2
3.486834910E-1,-7.345438004E-2,5.558710173E-2,-9.407047927E-2
3.511483340E-1,-6.368082762E-2,5.925218388E-2,-9.529217333E-2
3.536140110E-1,-5.879404768E-2,6.047387794E-2,-8.307522535E-2
3.560787510E-1,-5.024218559E-2,5.680879578E-2,-8.674030751E-2
3.585428140E-1,-4.291202128E-2,5.680879578E-2,-9.284878522E-2
3.610076050E-1,-3.802524135E-2,5.680879578E-2,-8.551861346E-2
3.634733340E-1,-3.069507517E-2,5.680879578E-2,-8.185353130E-2
3.659380740E-1,-2.214321308E-2,5.436540768E-2,-8.674030751E-2
3.684020840E-1,-1.603474095E-2,5.436540768E-2,-8.674030751E-2
3.708669280E-1,-1.236965694E-2,5.314370990E-2,-8.063183725E-2
3.733326050E-1,-6.261184346E-3,5.192201585E-2,-7.696675509E-2
3.757973970E-1,-1.374406274E-3,4.825693369E-2,-8.063183725E-2
3.782614070E-1,4.734066315E-3,4.581354558E-2,-8.429691941E-2
3.807262510E-1,1.084253844E-2,4.337015375E-2,-7.452336699E-2
3.831919280E-1,1.572931744E-2,4.214845970E-2,-7.574506104E-2
3.856567200E-1,2.183778957E-2,3.848337755E-2,-8.185353130E-2
3.881207300E-1,2.672456764E-2,3.726168349E-2,-7.452336699E-2
3.905855740E-1,3.161134571E-2,3.603998944E-2,-7.452336699E-2
3.930512510E-1,3.771981969E-2,3.726168349E-2,-7.941014320E-2
3.955160430E-1,4.382828996E-2,3.603998944E-2,-8.185353130E-2
3.979800530E-1,4.627167806E-2,3.603998944E-2,-7.941014320E-2
4.004448970E-1,4.749337584E-2,3.481829539E-2,-7.941014320E-2
4.029105740E-1,4.871506989E-2,3.359659761E-2,-8.796200156E-2
4.053753140E-1,4.993676394E-2,2.993151546E-2,-9.040539712E-2
4.078393760E-1,5.115845799E-2,2.993151546E-2,-8.185353130E-2
4.103041680E-1,5.238015205E-2,2.626643144E-2,-8.429691941E-2
4.127698970E-1,5.115845799E-2,2.626643144E-2,-9.162709117E-2
4.152346360E-1,4.993676394E-2,2.137965336E-2,-9.040539712E-2
4.176986990E-1,4.871506989E-2,2.260134928E-2,-9.040539712E-2
4.201634910E-1,4.627167806E-2,2.015795931E-2,-9.773556143E-2
4.226291680E-1,4.504998401E-2,1.771457121E-2,-9.529217333E-2
4.250939590E-1,4.138490185E-2,1.893626526E-2,-9.284878522E-2
4.275579700E-1,3.894151375E-2,1.404948719E-2,-9.773556143E-2
4.300228140E-1,3.771981969E-2,1.038440317E-2,-1.050657257E-1
4.324884910E-1,3.405473381E-2,7.941014133E-3,-1.075091213E-1
4.349532820E-1,3.405473381E-2,3.054236295E-3,-1.026223376E-1
4.374172930E-1,3.283303976E-2,-1.832541777E-3,-1.050657257E-1
4.398821360E-1,3.038965166E-2,-5.497625098E-3,-1.148392856E-1
4.423478140E-1,2.916795574E-2,-9.162709117E-3,-1.111742035E-1
4.448126050E-1,2.672456764E-2,-1.527118124E-2,-1.123958975E-1
4.472766160E-1,2.428117767E-2,-1.527118124E-2,-1.172826737E-1
4.497414590E-1,2.061609551E-2,-1.527118124E-2,-1.209477559E-1
4.522071360E-1,1.939439960E-2,-1.893626526E-2,-1.160609797E-1
4.546719280E-1,1.817270555E-2,-1.649287529E-2,-1.221694499E-1
4.571359390E-1,1.695101149E-2,-2.137965336E-2,-1.233911440E-1
4.596007300E-1,1.572931744E-2,-2.260134928E-2,-1.270562261E-1
4.620664590E-1,1.695101149E-2,-2.137965336E-2,-1.282779276E-1
4.645311990E-1,1.695101149E-2,-2.504473738E-2,-1.270562261E-1
4.669952610E-1,1.572931744E-2,-2.504473738E-2,-1.282779276E-1
4.694600530E-1,1.328592747E-2,-2.626643144E-2,-1.258345395E-1
4.719257300E-1,1.206423342E-2,-2.504473738E-2,-1.246128380E-1
4.743905220E-1,1.084253844E-2,-2.748812735E-2,-1.246128380E-1
4.768545320E-1,8.399149403E-3,-2.748812735E-2,-1.209477559E-1
4.793193760E-1,7.177455351E-3,-2.748812735E-2,-1.172826737E-1
4.817850530E-1,5.955760833E-3,-2.626643144E-2,-1.185043678E-1
4.842498450E-1,4.734066315E-3,-2.504473738E-2,-1.172826737E-1
4.867138550E-1,3.512371797E-3,-2.382304333E-2,-1.099525094E-1
4.891786990E-1,3.512371797E-3,-2.504473738E-2,-1.050657257E-1
4.916443760E-1,2.290677279E-3,-2.260134928E-2,-1.123958975E-1
4.941091680E-1,2.290677279E-3,-2.382304333E-2,-1.026223376E-1
4.965731780E-1,4.734066315E-3,-2.382304333E-2,-9.529217333E-2
4.990380220E-1,7.177455351E-3,-2.504473738E-2,-9.651386738E-2
5.015036990E-1,5.955760833E-3,-2.260134928E-2,-9.284878522E-2
5.039684910E-1,7.177455351E-3,-2.137965336E-2,-8.551861346E-2
5.064325010E-1,8.399149403E-3,-2.015795931E-2,-8.551861346E-2
5.088973450E-1,7.177455351E-3,-2.015795931E-2,-8.429691941E-2
5.113630220E-1,7.177455351E-3,-1.771457121E-2,-7.818844914E-2
5.138277610E-1,5.955760833E-3,-1.527118124E-2,-7.207997888E-2
5.162918240E-1,3.512371797E-3,-1.404948719E-2,-7.574506104E-2
5.187566160E-1,1.068982761E-3,-1.527118124E-2,-7.207997888E-2
5.212223450E-1,-1.374406274E-3,-9.162709117E-3,-6.474980712E-2
5.236870840E-1,-3.817795310E-3,-7.941014133E-3,-6.230641901E-2
5.261511470E-1,-3.817795310E-3,-5.497625098E-3,-5.741964281E-2
5.286159390E-1,-8.704573847E-3,6.108472589E-4,-5.497625470E-2
5.310816160E-1,-1.114796288E-2,1.832541777E-3,-5.008947477E-2
5.335464070E-1,-1.481304597E-2,3.054236295E-3,-4.642439261E-2
5.360104180E-1,-1.725643501E-2,7.941014133E-3,-4.520269856E-2
5.384752610E-1,-2.092151903E-2,1.160609815E-2,-4.520269856E-2
5.409409390E-1,-2.458660305E-2,1.649287529E-2,-3.909422457E-2
5.434057300E-1,-2.825168520E-2,2.015795931E-2,-3.298575059E-2
5.458697410E-1,-2.825168520E-2,2.504473738E-2,-3.298575059E-2
5.483345840E-1,-3.191677108E-2,3.359659761E-2,-2.809897438E-2
5.508002610E-1,-3.558185324E-2,3.726168349E-2,-2.076880634E-2
5.532650530E-1,-3.924693540E-2,4.581354558E-2,-2.199050039E-2
5.557290640E-1,-4.169032723E-2,5.436540768E-2,-1.832541823E-2
5.581939070E-1,-4.657710344E-2,6.047387794E-2,-1.466033421E-2
5.606595840E-1,-5.146388337E-2,6.902574003E-2,-1.343864016E-2
5.631243240E-1,-5.512896553E-2,7.513421029E-2,-8.551862091E-3
5.655883860E-1,-5.757235363E-2,8.124268800E-2,-6.108472589E-3
5.680531780E-1,-6.123743951E-2,8.857285231E-2,-3.665083554E-3
5.705189070E-1,-6.612421572E-2,9.468132257E-2,-1.221694518E-3
5.729836470E-1,-6.978929788E-2,1.020114943E-1,3.665083554E-3
5.754477090E-1,-7.345438004E-2,1.068982705E-1,9.773556143E-3
5.779125010E-1,-7.589777559E-2,1.130067408E-1,9.773556143E-3
5.803781780E-1,-7.956285775E-2,1.203369126E-1,1.221694518E-2
5.828429700E-1,-8.078455180E-2,1.252236813E-1,1.954711229E-2
5.853069800E-1,-8.200624585E-2,1.325538605E-1,2.076880634E-2
5.877718240E-1,-8.444963396E-2,1.398840249E-1,2.199050039E-2
5.902375010E-1,-8.933641016E-2,1.496575773E-1,2.565558441E-2
5.927022930E-1,-9.177979827E-2,1.557660550E-1,3.054236248E-2
5.951663030E-1,-9.177979827E-2,1.630962193E-1,3.298575059E-2
5.976311470E-1,-9.300149232E-2,1.692046970E-1,4.031591862E-2
6.000968240E-1,-9.544488788E-2,1.753131598E-1,4.153761268E-2
6.025616160E-1,-9.666658193E-2,1.826433241E-1,5.008947477E-2
6.050256260E-1,-9.666658193E-2,1.899735034E-1,5.253286287E-2
6.074904700E-1,-9.666658193E-2,1.936385781E-1,5.619794875E-2
6.099561470E-1,-9.788827598E-2,2.034121305E-1,5.864133686E-2
6.124209390E-1,-1.015533581E-1,2.095206082E-1,6.963659078E-2
6.148849490E-1,-9.910997003E-2,2.168507725E-1,7.085828483E-2
6.173497930E-1,-9.910997003E-2,2.266243398E-1,7.085828483E-2
6.198154700E-1,-1.003316641E-1,2.339545041E-1,7.941014320E-2
6.222802090E-1,-9.788827598E-2,2.388412803E-1,8.307522535E-2
6.247442720E-1,-9.422318637E-2,2.425063550E-1,8.674030751E-2
6.272090640E-1,-9.300149232E-2,2.510582209E-1,8.918370306E-2
6.296747410E-1,-9.300149232E-2,2.571666837E-1,9.773556143E-2
6.321395320E-1,-9.177979827E-2,2.632751763E-1,1.001789495E-1
6.346035430E-1,-8.811471611E-2,2.681619525E-1,1.075091213E-1
6.370683860E-1,-8.689302206E-2,2.754921019E-1,1.160609797E-1
6.395340640E-1,-8.444963396E-2,2.816005945E-1,1.197260618E-1
6.419988550E-1,-8.078455180E-2,2.901524603E-1,1.258345395E-1
6.444628660E-1,-7.711946964E-2,2.938175201E-1,1.307213157E-1
6.469277090E-1,-7.467607409E-2,2.999260128E-1,1.331647038E-1
6.493933860E-1,-7.101099193E-2,3.060344756E-1,1.368297935E-1
6.518581780E-1,-6.612421572E-2,3.096995652E-1,1.417165697E-1
6.543221890E-1,-6.001574174E-2,3.158080280E-1,1.490467340E-1
6.567870320E-1,-5.757235363E-2,3.206948042E-1,1.502684206E-1
6.592527090E-1,-5.024218559E-2,3.255815804E-1,1.551551968E-1
6.617175010E-1,-4.779879749E-2,3.329117596E-1,1.539335102E-1
6.641815110E-1,-4.413371533E-2,3.353551328E-1,1.575985998E-1
6.666463550E-1,-4.046862945E-2,3.426853120E-1,1.563768983E-1
6.691120320E-1,-3.558185324E-2,3.451287150E-1,1.600419879E-1
6.715767720E-1,-3.191677108E-2,3.487937748E-1,1.612636745E-1
6.740408340E-1,-2.825168520E-2,3.500154912E-1,1.649287641E-1
6.765056260E-1,-2.580829710E-2,3.512371778E-1,1.649287641E-1
6.789713030E-1,-2.336490713E-2,3.524588645E-1,1.649287641E-1
6.814360950E-1,-2.092151903E-2,3.585673273E-1,1.600419879E-1
6.839001570E-1,-1.725643501E-2,3.634541333E-1,1.637070626E-1
6.863649490E-1,-1.603474095E-2,3.646758199E-1,1.649287641E-1
6.888306260E-1,-1.359135192E-2,3.707842827E-1,1.600419879E-1
6.912954180E-1,-1.114796288E-2,3.732276857E-1,1.600419879E-1
6.937594280E-1,-8.704573847E-3,3.781144619E-1,1.649287641E-1
6.962242720E-1,-5.039489828E-3,3.854446113E-1,1.600419879E-1
6.986899490E-1,-2.596100792E-3,3.903313875E-1,1.588202864E-1
7.011547410E-1,-1.527118147E-4,3.976615667E-1,1.624853760E-1
7.036187510E-1,3.512371797E-3,4.037700295E-1,1.637070626E-1
7.060835950E-1,5.955760833E-3,4.123218954E-1,1.575985998E-1
7.085492720E-1,8.399149403E-3,4.208737612E-1,1.575985998E-1
7.110140640E-1,1.084253844E-2,4.318690002E-1,1.600419879E-1
7.134780740E-1,1.450762246E-2,4.416425824E-1,1.600419879E-1
7.159429180E-1,1.817270555E-2,4.514161348E-1,1.551551968E-1
7.184085950E-1,2.183778957E-2,4.636330605E-1,1.527118087E-1
7.208733340E-1,2.550287358E-2,4.721849263E-1,1.575985998E-1
7.233373970E-1,2.794626169E-2,4.831801951E-1,1.575985998E-1
7.258021890E-1,3.283303976E-2,4.953971207E-1,1.575985998E-1
7.282679180E-1,3.771981969E-2,5.076140761E-1,1.637070626E-1
7.307326570E-1,4.260659590E-2,5.186093450E-1,1.649287641E-1
7.331967200E-1,4.504998401E-2,5.296045542E-1,1.612636745E-1
7.356615110E-1,4.993676394E-2,5.418215394E-1,1.624853760E-1
7.381271890E-1,5.482354015E-2,5.552601814E-1,1.685938388E-1
7.405919800E-1,5.726693198E-2,5.662553906E-1,1.685938388E-1
7.430559910E-1,6.215370819E-2,5.809157491E-1,1.710372269E-1
7.455208340E-1,6.704048812E-2,5.931326747E-1,1.747023165E-1
7.479865110E-1,7.070557028E-2,6.114581227E-1,1.698155403E-1
7.504513030E-1,7.559234649E-2,6.187883019E-1,1.795890927E-1
7.529153140E-1,8.047912270E-2,6.358919740E-1,1.795890927E-1
7.553801570E-1,8.292251825E-2,6.505523324E-1,1.771457046E-1
7.578458340E-1,8.780929446E-2,6.603258848E-1,1.844758689E-1
7.603106260E-1,9.391776472E-2,6.749862432E-1,1.844758689E-1
7.627746360E-1,9.880454093E-2,6.896465421E-1,1.820324808E-1
7.652394800E-1,1.012479365E-1,7.006418109E-1,1.918060333E-1
7.677051570E-1,1.061347127E-1,7.140804529E-1,1.930277348E-1
7.701698970E-1,1.097997949E-1,7.250757217E-1,1.918060333E-1
7.726339590E-1,1.146865711E-1,7.360709310E-1,2.003578991E-1
7.750987510E-1,1.171299592E-1,7.470661998E-1,2.003578991E-1
7.775644800E-1,1.220167428E-1,7.580614686E-1,2.052446753E-1
7.800292200E-1,1.244601309E-1,7.666133046E-1,2.052446753E-1
7.824932820E-1,1.293469071E-1,7.763868570E-1,2.113531530E-1
7.849580740E-1,1.330119967E-1,7.849387527E-1,2.125748396E-1
7.874237510E-1,1.354553849E-1,7.898254991E-1,2.137965411E-1
7.898885430E-1,1.378987730E-1,7.983773947E-1,2.174616307E-1
7.923525530E-1,1.403421611E-1,8.032641411E-1,2.247917950E-1
7.948173970E-1,1.427855492E-1,8.081509471E-1,2.284568697E-1
7.972830740E-1,1.440072358E-1,8.118160367E-1,2.321219593E-1
7.997478660E-1,1.452289373E-1,8.179244995E-1,2.345653474E-1
8.022118760E-1,1.440072358E-1,8.203678727E-1,2.370087355E-1
8.046767200E-1,1.440072358E-1,8.203678727E-1,2.345653474E-1
8.071423970E-1,1.427855492E-1,8.203678727E-1,2.357870489E-1
8.096071890E-1,1.427855492E-1,8.179244995E-1,2.431172132E-1
8.120711990E-1,1.415638477E-1,8.167027831E-1,2.418955117E-1
8.145360430E-1,1.415638477E-1,8.167027831E-1,2.370087355E-1
8.170017200E-1,1.391204596E-1,8.142594099E-1,2.382304370E-1
8.194665110E-1,1.354553849E-1,8.069292307E-1,2.382304370E-1
8.219305220E-1,1.354553849E-1,8.020424247E-1,2.382304370E-1
8.243953660E-1,1.330119967E-1,7.983773947E-1,2.321219593E-1
8.268610430E-1,1.305686086E-1,7.910472155E-1,2.284568697E-1
8.293257820E-1,1.281252056E-1,7.812736630E-1,2.260134816E-1
8.317898450E-1,1.256818175E-1,7.727217674E-1,2.186833173E-1
8.342546360E-1,1.232384369E-1,7.629482150E-1,2.137965411E-1
8.367203140E-1,1.195733473E-1,7.507312894E-1,2.101314515E-1
8.391851050E-1,1.171299592E-1,7.421793938E-1,2.003578991E-1
8.416491160E-1,1.146865711E-1,7.275190949E-1,1.930277348E-1
8.441139590E-1,1.146865711E-1,7.140804529E-1,1.930277348E-1
8.465796360E-1,1.097997949E-1,6.957550049E-1,1.893626451E-1
8.490444280E-1,1.085781008E-1,6.859814525E-1,1.673721522E-1
8.515084390E-1,1.061347127E-1,6.639909744E-1,1.649287641E-1
8.539732820E-1,1.049130186E-1,6.468872428E-1,1.539335102E-1
8.564389590E-1,1.024696305E-1,6.285618544E-1,1.429382563E-1
8.589037510E-1,1.012479365E-1,6.053496599E-1,1.368297935E-1
8.613677610E-1,9.880454093E-2,5.833591223E-1,1.294996142E-1
8.638326050E-1,9.880454093E-2,5.601469278E-1,1.221694499E-1
8.662982820E-1,9.758284688E-2,5.369347334E-1,1.075091213E-1
8.687630740E-1,9.758284688E-2,5.149442554E-1,1.014006436E-1
8.712270840E-1,9.636115283E-2,4.905103445E-1,9.407047927E-2
8.736919280E-1,9.513945878E-2,4.660764635E-1,7.941014320E-2
8.761576050E-1,9.391776472E-2,4.428642690E-1,6.352811307E-2
8.786223450E-1,9.147437662E-2,4.184303582E-1,5.619794875E-2
8.810864070E-1,8.780929446E-2,3.927747905E-1,4.886778072E-2
8.835511990E-1,8.536590636E-2,3.671191931E-1,3.665083647E-2
8.860169280E-1,8.047912270E-2,3.402419090E-1,2.687728032E-2
8.884816680E-1,7.803573459E-2,3.133646548E-1,2.199050039E-2
8.909456780E-1,7.192726433E-2,2.864873707E-1,7.330167107E-3
8.934105220E-1,6.704048812E-2,2.620534599E-1,-2.443389036E-3
8.958761990E-1,6.337540597E-2,2.351761907E-1,-1.099525020E-2
8.983409910E-1,5.848862603E-2,2.082989216E-1,-1.832541823E-2
9.008050010E-1,5.360184610E-2,1.814216375E-1,-2.932066843E-2
9.032698450E-1,4.993676394E-2,1.545443535E-1,-3.542914242E-2
9.057355220E-1,4.504998401E-2,1.252236813E-1,-3.420744836E-2
9.082003140E-1,4.138490185E-2,9.956810623E-2,-4.031591862E-2
9.106643240E-1,3.771981969E-2,7.757759839E-2,-4.886778072E-2
9.131291680E-1,3.527642787E-2,5.558710173E-2,-5.131116882E-2
9.155948450E-1,3.405473381E-2,2.993151546E-2,-5.497625470E-2
9.180596360E-1,3.283303976E-2,6.719320081E-3,-6.474980712E-2
9.205236470E-1,3.161134571E-2,-1.771457121E-2,-6.597150117E-2
9.229884910E-1,3.161134571E-2,-3.970507160E-2,-6.474980712E-2
9.254541680E-1,3.283303976E-2,-6.413896382E-2,-7.085828483E-2
9.279189070E-1,3.283303976E-2,-8.612946421E-2,-7.818844914E-2
9.303829700E-1,3.527642787E-2,-1.093416587E-1,-8.063183725E-2
9.328477610E-1,3.649812192E-2,-1.325538605E-1,-8.429691941E-2
9.353134910E-1,3.771981969E-2,-1.569877416E-1,-9.284878522E-2
9.377782300E-1,4.016320780E-2,-1.789782494E-1,-9.529217333E-2
9.402422930E-1,4.016320780E-2,-2.046338320E-1,-9.773556143E-2
9.427070840E-1,4.382828996E-2,-2.254026383E-1,-1.026223376E-1
9.451727610E-1,4.504998401E-2,-2.473931462E-1,-1.123958975E-1
9.476375530E-1,4.749337584E-2,-2.681619525E-1,-1.172826737E-1
9.501015640E-1,4.749337584E-2,-2.889307439E-1,-1.185043678E-1
9.525664070E-1,4.871506989E-2,-3.084778786E-1,-1.221694499E-1
9.550320840E-1,4.627167806E-2,-3.255815804E-1,-1.343863904E-1
9.574968760E-1,4.504998401E-2,-3.439069986E-1,-1.356080920E-1
9.599608860E-1,4.260659590E-2,-3.573456407E-1,-1.417165697E-1
9.624257300E-1,4.138490185E-2,-3.768927455E-1,-1.502684206E-1
9.648914070E-1,3.894151375E-2,-3.891097009E-1,-1.575985998E-1
9.673561990E-1,3.527642787E-2,-4.037700295E-1,-1.575985998E-1
9.698202090E-1,3.405473381E-2,-4.147652984E-1,-1.637070626E-1
9.722850530E-1,3.161134571E-2,-4.245388508E-1,-1.685938388E-1
9.747507300E-1,2.794626169E-2,-4.343124032E-1,-1.710372269E-1
9.772154700E-1,2.428117767E-2,-4.416425824E-1,-1.722589284E-1
9.796795320E-1,1.939439960E-2,-4.501944184E-1,-1.783674061E-1
9.821443240E-1,1.695101149E-2,-4.563029110E-1,-1.820324808E-1
9.846100010E-1,1.572931744E-2,-4.611896873E-1,-1.844758689E-1
9.870747930E-1,1.450762246E-2,-4.648547769E-1,-1.832541823E-1
9.895388030E-1,1.450762246E-2,-4.672981501E-1,-1.869192570E-1
9.920036470E-1,9.620844387E-3,-4.685198367E-1,-1.905843467E-1
9.944693240E-1,7.177455351E-3,-4.685198367E-1,-1.893626451E-1
9.969341160E-1,5.955760833E-3,-4.697415531E-1,-1.869192570E-1
9.993981260E-1,3.512371797E-3,-4.697415531E-1,-1.905843467E-1
1.001862970E0,-1.527118147E-4,-4.685198367E-1,-1.893626451E-1
1.004328647E0,-2.596100792E-3,-4.672981501E-1,-1.881409585E-1
1.006793439E0,-3.817795310E-3,-4.660764635E-1,-1.869192570E-1
1.009257449E0,-7.482878864E-3,-4.624113739E-1,-1.844758689E-1
1.011722293E0,-1.114796288E-2,-4.599680007E-1,-1.820324808E-1
1.014187970E0,-1.236965694E-2,-4.563029110E-1,-1.808107942E-1
1.016652761E0,-1.236965694E-2,-4.514161348E-1,-1.771457046E-1
1.019116772E0,-1.481304597E-2,-4.465293586E-1,-1.710372269E-1
1.021581616E0,-1.603474095E-2,-4.391991794E-1,-1.661504507E-1
1.024047293E0,-1.847812906E-2,-4.330907166E-1,-1.624853760E-1
1.026512032E0,-1.847812906E-2,-4.257605374E-1,-1.575985998E-1
1.028976095E0,-1.969982497E-2,-4.172086716E-1,-1.527118087E-1
1.031440886E0,-2.214321308E-2,-4.062134326E-1,-1.490467340E-1
1.033906616E0,-2.336490713E-2,-3.964398801E-1,-1.404948682E-1
1.036371355E0,-2.702999115E-2,-3.830012381E-1,-1.343863904E-1
1.038835418E0,-3.069507517E-2,-3.732276857E-1,-1.270562261E-1
1.041300209E0,-3.313846514E-2,-3.597890437E-1,-1.233911440E-1
1.043765886E0,-3.558185324E-2,-3.475720882E-1,-1.160609797E-1
1.046230678E0,-3.680354729E-2,-3.341334462E-1,-1.099525094E-1
1.048694689E0,-4.046862945E-2,-3.182514310E-1,-1.087308154E-1
1.051159532E0,-4.291202128E-2,-3.072561622E-1,-9.529217333E-2
1.053625209E0,-4.535540938E-2,-2.913741469E-1,-9.407047927E-2
1.056090001E0,-5.024218559E-2,-2.767138183E-1,-8.551861346E-2
1.058554011E0,-5.390727147E-2,-2.620534599E-1,-7.696675509E-2
1.061018855E0,-5.512896553E-2,-2.461714447E-1,-7.207997888E-2
1.063484532E0,-5.879404768E-2,-2.327328026E-1,-6.841489673E-2
1.065949324E0,-6.245913357E-2,-2.168507725E-1,-6.230641901E-2
1.068413334E0,-6.368082762E-2,-2.021904439E-1,-5.741964281E-2
1.070878178E0,-6.490252167E-2,-1.875301152E-1,-5.497625470E-2
1.073343855E0,-6.490252167E-2,-1.728697717E-1,-5.008947477E-2
1.075808595E0,-6.368082762E-2,-1.618745178E-1,-4.031591862E-2
1.078272657E0,-6.123743951E-2,-1.459924877E-1,-3.909422457E-2
1.080737449E0,-5.635065958E-2,-1.337755471E-1,-3.787253052E-2
1.083203126E0,-5.268557742E-2,-1.154501289E-1,-3.298575059E-2
1.085667918E0,-4.779879749E-2,-9.956810623E-2,-2.809897438E-2
1.088131980E0,-4.657710344E-2,-8.735115826E-2,-2.565558441E-2
1.090596772E0,-4.046862945E-2,-7.146912813E-2,-2.076880634E-2
1.093062449E0,-3.680354729E-2,-5.680879578E-2,-1.466033421E-2
1.095527241E0,-3.436015919E-2,-4.337015375E-2,-1.343864016E-2
1.097991251E0,-2.947338112E-2,-3.481829539E-2,-1.343864016E-2
1.100456095E0,-2.702999115E-2,-2.260134928E-2,-9.773556143E-3
1.102921772E0,-2.580829710E-2,-9.162709117E-3,-6.108472589E-3
1.105386564E0,-2.214321308E-2,1.832541777E-3,-4.886778072E-3
1.107850574E0,-1.969982497E-2,1.282779220E-2,-4.886778072E-3
1.110315418E0,-1.847812906E-2,2.382304333E-2,-1.221694518E-3
1.112781095E0,-8.704573847E-3,1.771457121E-2,3.665083554E-3
1.115245886E0,-1.527118147E-4,3.054236295E-3,2.443389036E-3
1.117709897E0,2.290677279E-3,1.649287529E-2,-4.886778072E-3
1.120174741E0,-2.596100792E-3,4.581354558E-2,1.221694518E-3
1.122640418E0,-8.704573847E-3,8.124268800E-2,4.886778072E-3
1.125105209E0,-1.359135192E-2,9.956810623E-2,1.221694518E-3
1.127569220E0,-1.359135192E-2,1.105633527E-1,2.443389036E-3
1.130034064E0,-9.926267900E-3,1.105633527E-1,7.330167107E-3
1.132499741E0,-5.039489828E-3,1.142284349E-1,1.343864016E-2
1.134964480E0,2.290677279E-3,1.154501289E-1,1.221694518E-2
1.137428543E0,8.399149403E-3,1.191152185E-1,1.588202827E-2
1.139893334E0,1.328592747E-2,1.252236813E-1,2.076880634E-2
1.142359064E0,1.695101149E-2,1.337755471E-1,1.588202827E-2
1.144823803E0,1.939439960E-2,1.435490996E-1,1.466033421E-2
1.147287814E0,1.817270555E-2,1.557660550E-1,1.832541823E-2
1.149752657E0,1.572931744E-2,1.643179059E-1,2.199050039E-2
1.152218334E0,1.572931744E-2,1.692046970E-1,2.076880634E-2
1.154683126E0,1.817270555E-2,1.740914732E-1,2.199050039E-2
1.157147136E0,1.817270555E-2,1.777565479E-1,2.932066843E-2
1.159611980E0,1.939439960E-2,1.826433241E-1,2.565558441E-2
1.162077657E0,2.061609551E-2,1.863084137E-1,2.809897438E-2
1.164542449E0,2.061609551E-2,1.911951900E-1,2.809897438E-2
1.167006459E0,2.183778957E-2,1.936385781E-1,4.153761268E-2
1.169471303E0,2.183778957E-2,2.021904439E-1,2.932066843E-2
1.171936980E0,2.428117767E-2,2.070772201E-1,3.787253052E-2
1.174401772E0,2.428117767E-2,2.082989216E-1,4.398100078E-2
1.176865782E0,2.550287358E-2,2.131856978E-1,4.031591862E-2
1.179330574E0,2.672456764E-2,2.156290859E-1,4.031591862E-2
1.181796303E0,2.672456764E-2,2.168507725E-1,4.886778072E-2
1.184261043E0,2.672456764E-2,2.180724740E-1,4.764608666E-2
1.186725105E0,2.794626169E-2,2.192941606E-1,4.520269856E-2
1.189189897E0,2.672456764E-2,2.229592502E-1,5.131116882E-2
1.191655574E0,2.794626169E-2,2.229592502E-1,5.619794875E-2
1.194120366E0,2.794626169E-2,2.266243398E-1,5.253286287E-2
1.196584376E0,2.550287358E-2,2.278460264E-1,5.375456065E-2
1.199049220E0,2.550287358E-2,2.266243398E-1,5.864133686E-2
1.201514897E0,2.428117767E-2,2.278460264E-1,5.986303091E-2
1.203979689E0,2.550287358E-2,2.290677279E-1,5.864133686E-2
1.206443699E0,2.428117767E-2,2.278460264E-1,6.230641901E-2
1.208908543E0,2.183778957E-2,2.229592502E-1,6.841489673E-2
1.211374220E0,2.305948362E-2,2.229592502E-1,6.597150117E-2
1.213839011E0,2.061609551E-2,2.192941606E-1,6.597150117E-2
1.216303022E0,2.183778957E-2,2.144073844E-1,7.452336699E-2
1.218767866E0,1.939439960E-2,2.131856978E-1,6.719319522E-2
1.221233543E0,1.817270555E-2,2.095206082E-1,6.352811307E-2
1.223698334E0,1.695101149E-2,2.009687424E-1,7.207997888E-2
1.226162345E0,1.450762246E-2,1.985253543E-1,7.207997888E-2
1.228627189E0,1.206423342E-2,1.936385781E-1,6.474980712E-2
1.231092866E0,1.206423342E-2,1.911951900E-1,6.230641901E-2
1.233557605E0,9.620844387E-3,1.875301152E-1,6.474980712E-2
1.236021668E0,8.399149403E-3,1.814216375E-1,5.986303091E-2
1.238486459E0,7.177455351E-3,1.765348613E-1,5.619794875E-2
1.240952136E0,5.955760833E-3,1.740914732E-1,5.253286287E-2
1.243416928E0,4.734066315E-3,1.716480851E-1,5.741964281E-2
1.245880939E0,4.734066315E-3,1.655396074E-1,5.253286287E-2
1.248345782E0,2.290677279E-3,1.594311297E-1,4.764608666E-2
1.250811459E0,1.068982761E-3,1.545443535E-1,4.642439261E-2
1.253276251E0,-1.374406274E-3,1.508792788E-1,4.520269856E-2
1.255740261E0,-2.596100792E-3,1.484358907E-1,3.665083647E-2
1.258205105E0,-3.817795310E-3,1.447708011E-1,3.542914242E-2
1.260670782E0,-5.039489828E-3,1.398840249E-1,3.787253052E-2
1.263135574E0,-3.817795310E-3,1.362189353E-1,3.542914242E-2
1.265599584E0,-6.261184346E-3,1.325538605E-1,3.176405653E-2
1.268064428E0,-7.482878864E-3,1.313321590E-1,3.542914242E-2
1.270530105E0,-7.482878864E-3,1.288887709E-1,3.542914242E-2
1.272994897E0,-7.482878864E-3,1.264453828E-1,2.932066843E-2
1.275458907E0,-6.261184346E-3,1.252236813E-1,2.932066843E-2
1.277923699E0,-5.039489828E-3,1.240019947E-1,3.176405653E-2
1.280389428E0,-5.039489828E-3,1.240019947E-1,3.054236248E-2
1.282854168E0,-3.817795310E-3,1.227803007E-1,2.687728032E-2
1.285318230E0,-3.817795310E-3,1.215586066E-1,2.809897438E-2
1.287783022E0,-2.596100792E-3,1.215586066E-1,3.176405653E-2
1.290248699E0,-1.527118147E-4,1.215586066E-1,2.687728032E-2
1.292713491E0,2.290677279E-3,1.215586066E-1,2.565558441E-2
1.295177501E0,3.512371797E-3,1.203369126E-1,2.932066843E-2
1.297642345E0,5.955760833E-3,1.191152185E-1,2.932066843E-2
1.300108022E0,8.399149403E-3,1.203369126E-1,2.565558441E-2
1.302572814E0,1.084253844E-2,1.191152185E-1,3.054236248E-2
1.305036824E0,1.084253844E-2,1.227803007E-1,3.176405653E-2
1.307501668E0,1.328592747E-2,1.240019947E-1,2.687728032E-2
1.309967345E0,1.695101149E-2,1.215586066E-1,2.932066843E-2
1.312432136E0,1.817270555E-2,1.264453828E-1,3.298575059E-2
1.314896147E0,1.939439960E-2,1.240019947E-1,3.542914242E-2
1.317360991E0,2.305948362E-2,1.276670843E-1,3.298575059E-2
1.319826668E0,2.550287358E-2,1.264453828E-1,3.420744836E-2
1.322291407E0,2.305948362E-2,1.301104724E-1,3.787253052E-2
1.324755470E0,2.672456764E-2,1.301104724E-1,4.275930673E-2
1.327220314E0,2.916795574E-2,1.301104724E-1,4.153761268E-2
1.329685991E0,2.794626169E-2,1.362189353E-1,4.520269856E-2
1.332150730E0,2.672456764E-2,1.374406368E-1,5.253286287E-2
1.334614793E0,2.794626169E-2,1.411057115E-1,5.008947477E-2
1.337079584E0,2.672456764E-2,1.411057115E-1,4.642439261E-2
1.339545314E0,2.794626169E-2,1.386623234E-1,5.986303091E-2
1.342010053E0,2.916795574E-2,1.447708011E-1,6.474980712E-2
1.344474064E0,3.038965166E-2,1.447708011E-1,6.108472496E-2
1.346938907E0,3.038965166E-2,1.472141892E-1,6.474980712E-2
1.349404584E0,3.038965166E-2,1.484358907E-1,6.963659078E-2
1.351869376E0,2.916795574E-2,1.496575773E-1,7.330167294E-2
1.354333386E0,3.038965166E-2,1.484358907E-1,7.207997888E-2
1.356798230E0,3.038965166E-2,1.508792788E-1,7.574506104E-2
1.359263907E0,2.916795574E-2,1.496575773E-1,7.941014320E-2
1.361728699E0,2.916795574E-2,1.508792788E-1,7.941014320E-2
1.364192709E0,2.794626169E-2,1.521009654E-1,8.185353130E-2
1.366657553E0,2.672456764E-2,1.521009654E-1,8.185353130E-2
1.369123230E0,2.672456764E-2,1.533226669E-1,8.307522535E-2
1.371588022E0,2.672456764E-2,1.533226669E-1,8.429691941E-2
1.374052032E0,2.428117767E-2,1.533226669E-1,8.674030751E-2
1.376516876E0,2.305948362E-2,1.521009654E-1,8.796200156E-2
1.378982553E0,2.183778957E-2,1.545443535E-1,8.918370306E-2
1.381447293E0,2.183778957E-2,1.496575773E-1,9.529217333E-2
1.383911355E0,2.061609551E-2,1.496575773E-1,9.284878522E-2
1.386376147E0,1.939439960E-2,1.484358907E-1,9.895725548E-2
1.388841824E0,1.817270555E-2,1.472141892E-1,9.895725548E-2
1.391306616E0,1.817270555E-2,1.447708011E-1,9.773556143E-2
1.393770626E0,1.572931744E-2,1.398840249E-1,1.026223376E-1
1.396235470E0,1.450762246E-2,1.386623234E-1,1.001789495E-1
1.398701147E0,1.206423342E-2,1.349972486E-1,1.026223376E-1
1.401165939E0,1.084253844E-2,1.325538605E-1,1.014006436E-1
1.403629949E0,8.399149403E-3,1.276670843E-1,1.062874198E-1
1.406094793E0,7.177455351E-3,1.276670843E-1,1.062874198E-1
1.408560470E0,4.734066315E-3,1.252236813E-1,1.050657257E-1
1.411025261E0,3.512371797E-3,1.227803007E-1,1.038440317E-1
1.413489272E0,1.068982761E-3,1.215586066E-1,1.062874198E-1
1.415954116E0,-1.527118147E-4,1.191152185E-1,1.111742035E-1
1.418419793E0,-2.596100792E-3,1.191152185E-1,1.075091213E-1
1.420884584E0,-5.039489828E-3,1.178935245E-1,1.038440317E-1
1.423348595E0,-6.261184346E-3,1.154501289E-1,1.087308154E-1
1.425813439E0,-6.261184346E-3,1.130067408E-1,1.050657257E-1
1.428279116E0,-9.926267900E-3,1.117850468E-1,9.895725548E-2
1.430743855E0,-1.236965694E-2,1.130067408E-1,1.014006436E-1
1.433207918E0,-1.481304597E-2,1.142284349E-1,1.026223376E-1
1.435672709E0,-1.725643501E-2,1.130067408E-1,9.773556143E-2
1.438138439E0,-1.847812906E-2,1.105633527E-1,9.651386738E-2
1.440603178E0,-2.092151903E-2,1.093416587E-1,1.001789495E-1
1.443067189E0,-2.092151903E-2,1.081199646E-1,1.038440317E-1
1.445532032E0,-2.336490713E-2,1.068982705E-1,9.895725548E-2
1.447997709E0,-2.214321308E-2,1.068982705E-1,1.001789495E-1
1.450462501E0,-2.336490713E-2,1.056765765E-1,1.026223376E-1
1.452926511E0,-2.214321308E-2,1.068982705E-1,1.038440317E-1
1.455391355E0,-2.092151903E-2,1.081199646E-1,1.026223376E-1
1.457857032E0,-2.214321308E-2,1.068982705E-1,1.026223376E-1
1.460321824E0,-1.969982497E-2,1.068982705E-1,1.075091213E-1
1.462785834E0,-1.847812906E-2,1.056765765E-1,1.075091213E-1
1.465250678E0,-1.603474095E-2,1.044548824E-1,1.123958975E-1
1.467716355E0,-1.603474095E-2,1.056765765E-1,1.123958975E-1
1.470181147E0,-1.481304597E-2,1.032331884E-1,1.160609797E-1
1.472645157E0,-1.114796288E-2,1.056765765E-1,1.136175916E-1
1.475110001E0,-8.704573847E-3,1.044548824E-1,1.197260618E-1
1.477575678E0,-6.261184346E-3,1.044548824E-1,1.233911440E-1
1.480040418E0,-2.596100792E-3,1.044548824E-1,1.282779276E-1
1.482504480E0,-1.527118147E-4,1.081199646E-1,1.270562261E-1
1.484969272E0,3.512371797E-3,1.093416587E-1,1.343863904E-1
1.487434949E0,9.620844387E-3,1.105633527E-1,1.368297935E-1
1.489899741E0,1.328592747E-2,1.142284349E-1,1.368297935E-1
1.492363751E0,1.572931744E-2,1.191152185E-1,1.380514801E-1
1.494828595E0,2.305948362E-2,1.227803007E-1,1.441599578E-1
1.497294272E0,3.038965166E-2,1.240019947E-1,1.466033459E-1
1.499759064E0,3.527642787E-2,1.227803007E-1,1.551551968E-1
1.502223074E0,4.016320780E-2,1.288887709E-1,1.539335102E-1
1.504687918E0,4.627167806E-2,1.337755471E-1,1.563768983E-1
1.507153595E0,5.238015205E-2,1.386623234E-1,1.612636745E-1
1.509618386E0,5.971032009E-2,1.435490996E-1,1.624853760E-1
1.512082397E0,6.459710002E-2,1.521009654E-1,1.649287641E-1
1.514547241E0,7.192726433E-2,1.533226669E-1,1.771457046E-1
1.517012918E0,7.681404054E-2,1.667613089E-1,1.649287641E-1
1.519477709E0,8.414421231E-2,1.692046970E-1,1.734806150E-1
1.521941720E0,9.025268257E-2,1.753131598E-1,1.734806150E-1
1.524406564E0,9.880454093E-2,1.826433241E-1,1.795890927E-1
1.526872241E0,1.049130186E-1,1.899735034E-1,1.832541823E-1
1.529336980E0,1.036913246E-1,1.936385781E-1,1.893626451E-1
1.531801043E0,1.049130186E-1,1.936385781E-1,1.930277348E-1
1.534265834E0,1.061347127E-1,1.973036677E-1,1.954711229E-1
1.536731564E0,1.049130186E-1,1.997470558E-1,2.003578991E-1
1.539196303E0,1.049130186E-1,2.034121305E-1,2.015796006E-1
1.541660366E0,1.049130186E-1,2.058555335E-1,2.015796006E-1
1.544125157E0,1.049130186E-1,2.107423097E-1,2.028012872E-1
1.546590834E0,1.036913246E-1,2.119639963E-1,2.076880634E-1
1.549055626E0,1.012479365E-1,2.144073844E-1,2.101314515E-1
1.551519636E0,1.000262350E-1,2.168507725E-1,2.089097649E-1
1.553984480E0,9.636115283E-2,2.144073844E-1,2.125748396E-1
1.556450157E0,9.636115283E-2,2.156290859E-1,2.150182426E-1
1.558914949E0,9.513945878E-2,2.144073844E-1,2.137965411E-1
1.561378959E0,9.269607067E-2,2.119639963E-1,2.137965411E-1
1.563843803E0,9.025268257E-2,2.095206082E-1,2.150182426E-1
1.566309480E0,8.780929446E-2,2.144073844E-1,2.137965411E-1
1.568774272E0,8.658760041E-2,2.107423097E-1,2.174616307E-1
1.571238282E0,8.536590636E-2,2.082989216E-1,2.150182426E-1
1.573703126E0,8.292251825E-2,2.070772201E-1,2.125748396E-1
1.576168803E0,8.292251825E-2,2.082989216E-1,2.125748396E-1
1.578633543E0,8.170082420E-2,2.095206082E-1,2.113531530E-1
1.581097605E0,8.414421231E-2,2.095206082E-1,2.113531530E-1
1.583562397E0,8.536590636E-2,2.082989216E-1,2.137965411E-1
1.586028074E0,8.536590636E-2,2.082989216E-1,2.125748396E-1
1.588492866E0,8.780929446E-2,2.095206082E-1,2.162399292E-1
1.590956876E0,8.780929446E-2,2.095206082E-1,2.162399292E-1
1.593421720E0,9.269607067E-2,2.107423097E-1,2.199050188E-1
1.595887397E0,9.513945878E-2,2.119639963E-1,2.211267054E-1
1.598352189E0,9.880454093E-2,2.119639963E-1,2.235700935E-1
1.600816199E0,1.012479365E-1,2.168507725E-1,2.284568697E-1
1.603281043E0,1.049130186E-1,2.205158621E-1,2.321219593E-1
1.605746720E0,1.049130186E-1,2.217375487E-1,2.309002578E-1
1.608211511E0,1.097997949E-1,2.241809368E-1,2.333436459E-1
1.610675522E0,1.122431830E-1,2.266243398E-1,2.357870489E-1
1.613140366E0,1.159082651E-1,2.266243398E-1,2.394521236E-1
1.615606043E0,1.195733473E-1,2.266243398E-1,2.406738251E-1
1.618070834E0,1.220167428E-1,2.254026383E-1,2.443388999E-1
1.620534845E0,1.256818175E-1,2.229592502E-1,2.467822880E-1
1.622999636E0,1.293469071E-1,2.241809368E-1,2.528907657E-1
1.625465366E0,1.330119967E-1,2.192941606E-1,2.528907657E-1
1.627930105E0,1.354553849E-1,2.192941606E-1,2.492256761E-1
1.630394168E0,1.391204596E-1,2.168507725E-1,2.516690791E-1
1.632858959E0,1.391204596E-1,2.144073844E-1,2.516690791E-1
1.635324636E0,1.415638477E-1,2.095206082E-1,2.492256761E-1
1.637789428E0,1.452289373E-1,2.082989216E-1,2.504473627E-1
1.640253439E0,1.452289373E-1,2.034121305E-1,2.528907657E-1
1.642718282E0,1.464506239E-1,1.960819662E-1,2.480039895E-1
1.645183959E0,1.488940120E-1,1.924168915E-1,2.382304370E-1
1.647648751E0,1.513374150E-1,1.875301152E-1,2.382304370E-1
1.650112761E0,1.525591016E-1,1.814216375E-1,2.345653474E-1
1.652577605E0,1.537808031E-1,1.753131598E-1,2.235700935E-1
1.655043282E0,1.550024897E-1,1.679829955E-1,2.174616307E-1
1.657508074E0,1.562241912E-1,1.606528312E-1,2.186833173E-1
1.659972084E0,1.562241912E-1,1.533226669E-1,2.101314515E-1
1.662436928E0,1.611109674E-1,1.435490996E-1,2.052446753E-1
1.664902605E0,1.586675793E-1,1.313321590E-1,2.003578991E-1
1.667367397E0,1.574458778E-1,1.252236813E-1,1.930277348E-1
1.669831407E0,1.550024897E-1,1.178935245E-1,1.844758689E-1
1.672296251E0,1.537808031E-1,1.068982705E-1,1.844758689E-1
1.674761928E0,1.525591016E-1,9.834641218E-2,1.820324808E-1
1.677226668E0,1.513374150E-1,8.735115826E-2,1.771457046E-1
1.679690730E0,1.501157135E-1,7.635590434E-2,1.710372269E-1
1.682155522E0,1.488940120E-1,6.291726977E-2,1.710372269E-1
1.684621199E0,1.476723254E-1,5.192201585E-2,1.673721522E-1
1.687085991E0,1.464506239E-1,3.970507160E-2,1.624853760E-1
1.689550001E0,1.464506239E-1,2.993151546E-2,1.551551968E-1
1.692014845E0,1.452289373E-1,1.771457121E-2,1.551551968E-1
1.694480522E0,1.427855492E-1,5.497625098E-3,1.514901221E-1
1.696945314E0,1.452289373E-1,-6.719320081E-3,1.502684206E-1
1.699409324E0,1.440072358E-1,-1.282779220E-2,1.429382563E-1
1.701874168E0,1.452289373E-1,-2.504473738E-2,1.429382563E-1
1.704339845E0,1.464506239E-1,-3.603998944E-2,1.404948682E-1
1.706804636E0,1.488940120E-1,-4.581354558E-2,1.356080920E-1
1.709268647E0,1.488940120E-1,-5.680879578E-2,1.356080920E-1
1.711733491E0,1.513374150E-1,-6.658235192E-2,1.404948682E-1
1.714199168E0,1.537808031E-1,-7.391251624E-2,1.392731816E-1
1.716663907E0,1.574458778E-1,-8.124268800E-2,1.392731816E-1
1.719127970E0,1.611109674E-1,-8.857285231E-2,1.392731816E-1
1.721592814E0,1.635543555E-1,-9.223793447E-2,1.429382563E-1
1.724058491E0,1.659977436E-1,-9.834641218E-2,1.368297935E-1
1.726523230E0,1.684411317E-1,-1.020114943E-1,1.392731816E-1
1.728987293E0,1.708845198E-1,-1.032331884E-1,1.392731816E-1
1.731452084E0,1.733279079E-1,-1.093416587E-1,1.404948682E-1
1.733917761E0,1.769929975E-1,-1.117850468E-1,1.392731816E-1
1.736382553E0,1.794363856E-1,-1.130067408E-1,1.417165697E-1
1.738846564E0,1.818797737E-1,-1.178935245E-1,1.441599578E-1
1.741311407E0,1.855448484E-1,-1.227803007E-1,1.490467340E-1
1.743777084E0,1.904316396E-1,-1.227803007E-1,1.466033459E-1
1.746241876E0,1.940967143E-1,-1.227803007E-1,1.490467340E-1
1.748705886E0,1.977618039E-1,-1.240019947E-1,1.539335102E-1
1.751170730E0,2.002051920E-1,-1.276670843E-1,1.575985998E-1
1.753636407E0,2.038702667E-1,-1.252236813E-1,1.588202864E-1
1.756101199E0,2.075353563E-1,-1.215586066E-1,1.637070626E-1
1.758565209E0,2.075353563E-1,-1.178935245E-1,1.698155403E-1
1.761030053E0,2.099787444E-1,-1.154501289E-1,1.698155403E-1
1.763495730E0,2.124221325E-1,-1.093416587E-1,1.710372269E-1
1.765960470E0,2.148655206E-1,-1.044548824E-1,1.795890927E-1
1.768424532E0,2.148655206E-1,-9.712471068E-2,1.795890927E-1
1.770889376E0,2.185306102E-1,-9.101624042E-2,1.832541823E-1
1.773355053E0,2.185306102E-1,-8.368607610E-2,1.832541823E-1
1.775819793E0,2.197522968E-1,-7.757759839E-2,1.893626451E-1
1.778283855E0,2.234173864E-1,-7.024743408E-2,1.954711229E-1
1.780748647E0,2.234173864E-1,-6.169557199E-2,1.966928244E-1
1.783214324E0,2.270824611E-1,-5.314370990E-2,2.015796006E-1
1.785679116E0,2.283041626E-1,-4.214845970E-2,2.015796006E-1
1.788143126E0,2.283041626E-1,-3.481829539E-2,2.089097649E-1
1.790607970E0,2.307475507E-1,-2.748812735E-2,2.101314515E-1
1.793073647E0,2.307475507E-1,-2.015795931E-2,2.113531530E-1
1.795538439E0,2.295258641E-1,-1.527118124E-2,2.150182426E-1
1.798002449E0,2.307475507E-1,-9.162709117E-3,2.199050188E-1
1.800467293E0,2.295258641E-1,-5.497625098E-3,2.211267054E-1
1.802932970E0,2.295258641E-1,-3.054236295E-3,2.223484069E-1
1.805397761E0,2.283041626E-1,6.108472589E-4,2.223484069E-1
1.807861772E0,2.295258641E-1,1.832541777E-3,2.247917950E-1
1.810326616E0,2.270824611E-1,-6.108472589E-4,2.247917950E-1
1.812792293E0,2.270824611E-1,-1.832541777E-3,2.272351831E-1
1.815257084E0,2.258607745E-1,-5.497625098E-3,2.272351831E-1
1.817721095E0,2.258607745E-1,-9.162709117E-3,2.296785712E-1
1.820185886E0,2.234173864E-1,-1.160609815E-2,2.260134816E-1
1.822651616E0,2.209739983E-1,-1.527118124E-2,2.284568697E-1
1.825116355E0,2.197522968E-1,-2.015795931E-2,2.260134816E-1
1.827580418E0,2.185306102E-1,-2.015795931E-2,2.247917950E-1
1.830045209E0,2.173089087E-1,-2.504473738E-2,2.223484069E-1
1.832510886E0,2.148655206E-1,-2.748812735E-2,2.235700935E-1
1.834975678E0,2.124221325E-1,-2.993151546E-2,2.211267054E-1
1.837439689E0,2.099787444E-1,-3.359659761E-2,2.186833173E-1
1.839904532E0,2.087570578E-1,-3.237490356E-2,2.064663768E-1
1.842370209E0,2.087570578E-1,-3.359659761E-2,2.125748396E-1
1.844835001E0,2.063136548E-1,-3.237490356E-2,2.089097649E-1
1.847299011E0,2.050919682E-1,-3.359659761E-2,2.052446753E-1
1.849763855E0,2.038702667E-1,-3.237490356E-2,2.052446753E-1
1.852229532E0,2.014268786E-1,-3.237490356E-2,2.052446753E-1
1.854694324E0,2.002051920E-1,-3.603998944E-2,2.040229887E-1
1.857158334E0,1.977618039E-1,-3.603998944E-2,2.028012872E-1
1.859623178E0,1.977618039E-1,-3.359659761E-2,2.028012872E-1
1.862088855E0,1.965401024E-1,-3.481829539E-2,2.015796006E-1
1.864553595E0,1.928750277E-1,-3.970507160E-2,2.003578991E-1
1.867017657E0,1.928750277E-1,-4.214845970E-2,1.979145110E-1
1.869482449E0,1.904316396E-1,-4.092676565E-2,1.966928244E-1
1.871948178E0,1.879882365E-1,-4.459185153E-2,1.905843467E-1
1.874412918E0,1.867665499E-1,-4.947862774E-2,1.893626451E-1
1.876876928E0,1.831014603E-1,-5.070032179E-2,1.905843467E-1
1.879341772E0,1.818797737E-1,-5.070032179E-2,1.905843467E-1
1.881807449E0,1.806580722E-1,-5.436540768E-2,1.869192570E-1
1.884272241E0,1.794363856E-1,-5.192201585E-2,1.820324808E-1
1.886736251E0,1.782146841E-1,-5.680879578E-2,1.905843467E-1
1.889201095E0,1.769929975E-1,-5.558710173E-2,1.844758689E-1
1.891666772E0,1.769929975E-1,-5.192201585E-2,1.795890927E-1
1.894131564E0,1.757712960E-1,-4.947862774E-2,1.808107942E-1
1.896595574E0,1.757712960E-1,-5.070032179E-2,1.808107942E-1
1.899060418E0,1.794363856E-1,-4.825693369E-2,1.747023165E-1
1.901526095E0,1.794363856E-1,-4.947862774E-2,1.734806150E-1
1.903990886E0,1.806580722E-1,-4.825693369E-2,1.734806150E-1
1.906454897E0,1.831014603E-1,-5.070032179E-2,1.710372269E-1
1.908919741E0,1.855448484E-1,-5.192201585E-2,1.685938388E-1
1.911385418E0,1.879882365E-1,-5.558710173E-2,1.649287641E-1
1.913850157E0,1.916533262E-1,-6.047387794E-2,1.673721522E-1
1.916314220E0,1.940967143E-1,-6.169557199E-2,1.612636745E-1
1.918779011E0,1.989834905E-1,-6.658235192E-2,1.588202864E-1
1.921244689E0,2.026485801E-1,-7.146912813E-2,1.551551968E-1
1.923709480E0,2.063136548E-1,-7.635590434E-2,1.527118087E-1
1.926173543E0,2.112004459E-1,-8.002099395E-2,1.539335102E-1
1.928638334E0,2.136438340E-1,-8.246438205E-2,1.551551968E-1
1.931104011E0,2.185306102E-1,-8.490777016E-2,1.478250325E-1
1.933568803E0,2.234173864E-1,-8.490777016E-2,1.478250325E-1
1.936032814E0,2.270824611E-1,-8.490777016E-2,1.527118087E-1
1.938497657E0,2.319692522E-1,-8.368607610E-2,1.490467340E-1
1.940963334E0,2.344126403E-1,-8.368607610E-2,1.478250325E-1
1.943428126E0,2.368560284E-1,-8.124268800E-2,1.514901221E-1
1.945892136E0,2.392994165E-1,-7.635590434E-2,1.502684206E-1
1.948356980E0,2.417428046E-1,-7.146912813E-2,1.490467340E-1
1.950822657E0,2.429644912E-1,-6.902574003E-2,1.502684206E-1
1.953287449E0,2.429644912E-1,-6.291726977E-2,1.478250325E-1
1.955751459E0,2.429644912E-1,-5.680879578E-2,1.514901221E-1
1.958216303E0,2.441861928E-1,-5.192201585E-2,1.478250325E-1
1.960681980E0,2.429644912E-1,-4.825693369E-2,1.478250325E-1
1.963146720E0,2.405211031E-1,-4.459185153E-2,1.490467340E-1
1.965610782E0,2.368560284E-1,-4.214845970E-2,1.514901221E-1
1.968075574E0,2.344126403E-1,-3.726168349E-2,1.502684206E-1
1.970541251E0,2.307475507E-1,-2.993151546E-2,1.478250325E-1
1.973006043E0,2.270824611E-1,-2.748812735E-2,1.466033459E-1
1.975470105E0,2.234173864E-1,-2.382304333E-2,1.478250325E-1
1.977934897E0,2.197522968E-1,-1.893626526E-2,1.466033459E-1
1.980400574E0,2.160872221E-1,-1.282779220E-2,1.478250325E-1
1.982865366E0,2.148655206E-1,-3.054236295E-3,1.514901221E-1
1.985329376E0,2.124221325E-1,3.054236295E-3,1.502684206E-1
1.987794220E0,2.099787444E-1,1.160609815E-2,1.527118087E-1
1.990259897E0,2.087570578E-1,2.137965336E-2,1.527118087E-1
1.992724689E0,2.087570578E-1,3.115320951E-2,1.551551968E-1
1.995188699E0,2.087570578E-1,3.970507160E-2,1.563768983E-1
1.997653543E0,2.099787444E-1,5.070032179E-2,1.575985998E-1
2.000119220E0,2.112004459E-1,6.169557199E-2,1.612636745E-1
2.002584011E0,2.148655206E-1,7.391251624E-2,1.649287641E-1
2.005048022E0,2.160872221E-1,8.490777016E-2,1.685938388E-1
2.007512866E0,2.185306102E-1,1.032331884E-1,1.710372269E-1
2.009978543E0,2.221956849E-1,1.191152185E-1,1.734806150E-1
2.012443282E0,2.246390730E-1,1.374406368E-1,1.747023165E-1
2.014907345E0,2.270824611E-1,1.533226669E-1,1.771457046E-1
2.017372136E0,2.283041626E-1,1.777565479E-1,1.771457046E-1
2.019837814E0,2.270824611E-1,1.985253543E-1,1.820324808E-1
2.022302605E0,2.283041626E-1,2.241809368E-1,1.808107942E-1
2.024766616E0,2.283041626E-1,2.486148328E-1,1.783674061E-1
2.027231459E0,2.270824611E-1,2.742704153E-1,1.808107942E-1
2.029697136E0,2.246390730E-1,3.023693860E-1,1.795890927E-1
2.032161928E0,2.234173864E-1,3.304683566E-1,1.771457046E-1
2.034625939E0,2.209739983E-1,3.573456407E-1,1.795890927E-1
2.037090782E0,2.160872221E-1,3.842229247E-1,1.710372269E-1
2.039556459E0,2.124221325E-1,4.147652984E-1,1.698155403E-1
2.042021251E0,2.063136548E-1,4.428642690E-1,1.698155403E-1
2.044485261E0,2.014268786E-1,4.685198367E-1,1.673721522E-1
2.046950105E0,1.940967143E-1,4.929537475E-1,1.624853760E-1
2.049415782E0,1.867665499E-1,5.222744346E-1,1.575985998E-1
2.051880522E0,1.806580722E-1,5.491516590E-1,1.575985998E-1
2.054344584E0,1.696628332E-1,5.711421967E-1,1.527118087E-1
2.056809376E0,1.586675793E-1,5.967977643E-1,1.466033459E-1
2.059275105E0,1.513374150E-1,6.224533319E-1,1.429382563E-1
2.061739845E0,1.415638477E-1,6.432221532E-1,1.368297935E-1
2.064203907E0,1.305686086E-1,6.639909744E-1,1.319430023E-1
2.066668699E0,1.220167428E-1,6.835380793E-1,1.270562261E-1
2.069134376E0,1.073564067E-1,7.006418109E-1,1.197260618E-1
2.071599168E0,9.269607067E-2,7.153021693E-1,1.172826737E-1
2.074063178E0,7.803573459E-2,7.299624681E-1,1.136175916E-1
2.076528022E0,6.215370819E-2,7.421793938E-1,1.087308154E-1
2.078993699E0,4.504998401E-2,7.543963790E-1,1.014006436E-1
2.081458491E0,2.794626169E-2,7.690566778E-1,9.651386738E-2
2.083922501E0,7.177455351E-3,7.788302302E-1,9.040539712E-2
2.086387345E0,-1.359135192E-2,7.861604095E-1,8.307522535E-2
2.088853022E0,-3.191677108E-2,7.910472155E-1,7.696675509E-2
2.091317814E0,-5.268557742E-2,7.971556783E-1,6.841489673E-2
2.093781824E0,-7.223268598E-2,7.971556783E-1,6.597150117E-2
2.096246668E0,-9.544488788E-2,7.983773947E-1,5.497625470E-2
2.098712345E0,-1.137702987E-1,7.959339619E-1,4.886778072E-2
2.101177084E0,-1.369825006E-1,7.934905887E-1,4.398100078E-2
2.103641147E0,-1.565296054E-1,7.861604095E-1,4.398100078E-2
2.106105939E0,-1.760767251E-1,7.763868570E-1,4.031591862E-2
2.108571668E0,-1.968455315E-1,7.678350210E-1,4.153761268E-2
2.111036407E0,-2.176143378E-1,7.580614686E-1,4.031591862E-2
2.113500418E0,-2.396048307E-1,7.482879162E-1,4.275930673E-2
2.115965261E0,-2.615953386E-1,7.385143638E-1,3.909422457E-2
2.118430939E0,-2.799207568E-1,7.214106321E-1,4.275930673E-2
2.120895730E0,-2.994678617E-1,7.104153633E-1,3.787253052E-2
2.123359741E0,-3.202366829E-1,6.957550049E-1,3.542914242E-2
2.125824584E0,-3.385621011E-1,6.823163629E-1,3.176405653E-2
2.128290261E0,-3.568875194E-1,6.664343476E-1,3.054236248E-2
2.130755053E0,-3.739912212E-1,6.517740488E-1,2.443389036E-2
2.133219064E0,-3.910949528E-1,6.358919740E-1,2.076880634E-2
2.135683907E0,-4.130854607E-1,6.187883019E-1,9.773556143E-3
2.138149584E0,-4.314108789E-1,6.016845703E-1,7.330167107E-3
2.140614376E0,-4.534013867E-1,5.821374655E-1,-1.221694518E-3
2.143078386E0,-4.717268050E-1,5.650337338E-1,-7.330167107E-3
2.145543230E0,-4.937172830E-1,5.503733754E-1,-1.343864016E-2
2.148008907E0,-5.132644176E-1,5.296045542E-1,-2.076880634E-2
2.150473647E0,-5.315898061E-1,5.161659122E-1,-3.176405653E-2
2.152937709E0,-5.548020005E-1,4.978405237E-1,-3.665083647E-2
2.155402501E0,-5.755708218E-1,4.770717025E-1,-3.665083647E-2
2.157868178E0,-5.951179266E-1,4.587462842E-1,-4.642439261E-2
2.160332970E0,-6.146650314E-1,4.379774928E-1,-5.008947477E-2
2.162796980E0,-6.354338527E-1,4.184303582E-1,-5.131116882E-2
2.165261824E0,-6.574243903E-1,4.025483429E-1,-5.741964281E-2
2.167727501E0,-6.769714952E-1,3.830012381E-1,-6.230641901E-2
2.170192293E0,-7.001836896E-1,3.658975065E-1,-6.474980712E-2
2.172656303E0,-7.233958840E-1,3.536805511E-1,-6.719319522E-2
2.175121147E0,-7.441646457E-1,3.414636254E-1,-6.841489673E-2
2.177586824E0,-7.649334669E-1,3.280249834E-1,-6.963659078E-2
2.180051616E0,-7.869240046E-1,3.194731176E-1,-7.452336699E-2
2.182515626E0,-8.064711094E-1,3.121429384E-1,-7.085828483E-2
2.184980470E0,-8.284615874E-1,3.035911024E-1,-6.719319522E-2
2.187446147E0,-8.455653191E-1,3.011476994E-1,-6.352811307E-2
2.189910939E0,-8.626690507E-1,2.987042964E-1,-5.497625470E-2
2.192374949E0,-8.785510659E-1,2.974826097E-1,-4.153761268E-2
2.194839793E0,-8.944330812E-1,3.011476994E-1,-3.420744836E-2
2.197305470E0,-9.054283500E-1,3.035911024E-1,-2.199050039E-2
2.199770209E0,-9.176452756E-1,3.084778786E-1,-8.551862091E-3
2.202234272E0,-9.261971712E-1,3.158080280E-1,4.886778072E-3
2.204699064E0,-9.310839176E-1,3.219164908E-1,1.710372418E-2
2.207164741E0,-9.347490072E-1,3.268032968E-1,3.298575059E-2
2.209629532E0,-9.359707236E-1,3.292466700E-1,4.886778072E-2
2.212093543E0,-9.323056340E-1,3.353551328E-1,5.986303091E-2
2.214558386E0,-9.237537384E-1,3.365768492E-1,8.063183725E-2
2.217024064E0,-9.152019024E-1,3.402419090E-1,9.284878522E-2
2.219488855E0,-9.017632604E-1,3.426853120E-1,1.099525094E-1
2.221952866E0,-8.871029615E-1,3.439069986E-1,1.258345395E-1
2.224417709E0,-8.699992299E-1,3.414636254E-1,1.453816444E-1
2.226883386E0,-8.492304087E-1,3.390202224E-1,1.612636745E-1
2.229348178E0,-8.247964978E-1,3.365768492E-1,1.783674061E-1
2.231812189E0,-7.991409302E-1,3.304683566E-1,1.966928244E-1
2.234277032E0,-7.698202729E-1,3.231382072E-1,2.113531530E-1
2.236742709E0,-7.404996157E-1,3.133646548E-1,2.260134816E-1
2.239207501E0,-7.087355256E-1,3.011476994E-1,2.382304370E-1
2.241671511E0,-6.733064055E-1,2.901524603E-1,2.516690791E-1
2.244136355E0,-6.403206587E-1,2.779355049E-1,2.626643181E-1
2.246602032E0,-6.036698222E-1,2.632751763E-1,2.687727809E-1
2.249066772E0,-5.657972693E-1,2.522799075E-1,2.773246467E-1
2.251530834E0,-5.279247165E-1,2.412846684E-1,2.870981991E-1
2.253995626E0,-4.863871336E-1,2.254026383E-1,2.919849753E-1
2.256461303E0,-4.460712075E-1,2.095206082E-1,2.932066917E-1
2.258926095E0,-4.057552814E-1,1.936385781E-1,2.968717813E-1
2.261390105E0,-3.642176688E-1,1.777565479E-1,3.029802442E-1
2.263854949E0,-3.239017725E-1,1.630962193E-1,3.017585576E-1
2.266320626E0,-2.823641598E-1,1.484358907E-1,3.029802442E-1
2.268785418E0,-2.408265322E-1,1.337755471E-1,3.054236174E-1
2.271249428E0,-2.041756958E-1,1.215586066E-1,3.029802442E-1
2.273714272E0,-1.638597846E-1,1.081199646E-1,3.029802442E-1
2.276179949E0,-1.259872466E-1,9.834641218E-2,2.980934680E-1
2.278644741E0,-9.300149232E-2,9.101624042E-2,2.968717813E-1
2.281108751E0,-6.001574174E-2,8.124268800E-2,2.895416021E-1
2.283573595E0,-2.825168520E-2,7.146912813E-2,2.834331393E-1
2.286039272E0,2.290677279E-3,5.436540768E-2,2.785463631E-1
2.288504064E0,3.161134571E-2,4.214845970E-2,2.687727809E-1
2.290968074E0,5.848862603E-2,2.626643144E-2,2.614426315E-1
2.293432866E0,8.292251825E-2,9.162709117E-3,2.492256761E-1
2.295898595E0,1.085781008E-1,-1.527118124E-2,2.418955117E-1
2.298363334E0,1.317902952E-1,-4.092676565E-2,2.309002578E-1
2.300827397E0,1.513374150E-1,-6.658235192E-2,2.076880634E-1
2.303292189E0,1.696628332E-1,-9.345962852E-2,1.930277348E-1
2.305757866E0,1.867665499E-1,-1.227803007E-1,1.771457046E-1
2.308222657E0,2.063136548E-1,-1.521009654E-1,1.575985998E-1
2.310686668E0,2.234173864E-1,-1.777565479E-1,1.356080920E-1
2.313151511E0,2.417428046E-1,-2.046338320E-1,1.233911440E-1
2.315617189E0,2.564031482E-1,-2.315111160E-1,1.111742035E-1
2.318081980E0,2.722851634E-1,-2.535016239E-1,8.918370306E-2
2.320545991E0,2.869454920E-1,-2.718270421E-1,6.841489673E-2
2.323010834E0,3.016058207E-1,-2.901524603E-1,6.230641901E-2
2.325476511E0,3.162661791E-1,-3.084778786E-1,5.253286287E-2
2.327941303E0,3.297048211E-1,-3.206948042E-1,3.542914242E-2
2.330405314E0,3.419217467E-1,-3.304683566E-1,2.076880634E-2
2.332870157E0,3.516952991E-1,-3.341334462E-1,7.330167107E-3
2.335335834E0,3.590254784E-1,-3.365768492E-1,-7.330167107E-3
2.337800574E0,3.651339412E-1,-3.329117596E-1,-2.932066843E-2
2.340264636E0,3.724641204E-1,-3.280249834E-1,-4.153761268E-2
2.342729428E0,3.749074936E-1,-3.206948042E-1,-5.008947477E-2
2.345195157E0,3.797942698E-1,-3.121429384E-1,-6.963659078E-2
2.347659897E0,3.822376728E-1,-2.999260128E-1,-7.696675509E-2
2.350123959E0,3.834593594E-1,-2.828222811E-1,-7.696675509E-2
2.352588751E0,3.822376728E-1,-2.583884001E-1,-9.651386738E-2
2.355054428E0,3.846810758E-1,-2.351761907E-1,-1.050657257E-1
2.357519220E0,3.859027624E-1,-2.156290859E-1,-1.050657257E-1
2.359983230E0,3.895678520E-1,-1.936385781E-1,-1.062874198E-1
2.362448074E0,3.968980014E-1,-1.704263836E-1,-1.160609797E-1
2.364913751E0,4.054498672E-1,-1.472141892E-1,-1.185043678E-1
2.367378543E0,4.164451063E-1,-1.240019947E-1,-1.123958975E-1
2.369842553E0,4.286620617E-1,-1.032331884E-1,-1.172826737E-1
2.372307397E0,4.445441067E-1,-8.002099395E-2,-1.221694499E-1
2.374773074E0,4.616478086E-1,-5.925218388E-2,-1.160609797E-1
2.377237866E0,4.787515402E-1,-3.603998944E-2,-1.111742035E-1
2.379701876E0,5.007420182E-1,-1.404948719E-2,-1.148392856E-1
2.382166720E0,5.202891231E-1,7.941014133E-3,-1.050657257E-1
2.384632397E0,5.435013771E-1,3.603998944E-2,-9.284878522E-2
2.387097136E0,5.654918551E-1,6.169557199E-2,-8.429691941E-2
2.389561199E0,5.874823332E-1,9.101624042E-2,-7.818844914E-2
2.392025991E0,6.070294380E-1,1.227803007E-1,-7.207997888E-2
2.394491668E0,6.204680800E-1,1.569877416E-1,-6.963659078E-2
2.396956459E0,6.290199757E-1,1.924168915E-1,-6.352811307E-2
2.399420470E0,6.302416325E-1,2.302894145E-1,-6.719319522E-2
2.401885314E0,6.253548861E-1,2.632751763E-1,-6.474980712E-2
2.404350991E0,6.143596172E-1,2.938175201E-1,-6.230641901E-2
2.406815782E0,6.009209752E-1,3.182514310E-1,-6.597150117E-2
2.409279793E0,5.825955868E-1,3.341334462E-1,-6.841489673E-2
2.411744636E0,5.606050491E-1,3.475720882E-1,-6.963659078E-2
2.414210314E0,5.386145711E-1,3.561239541E-1,-7.574506104E-2
2.416675105E0,5.129590034E-1,3.549022675E-1,-8.429691941E-2
2.419139116E0,4.860817194E-1,3.524588645E-1,-9.162709117E-2
2.421603959E0,4.616478086E-1,3.463504016E-1,-9.284878522E-2
2.424069636E0,4.384356141E-1,3.353551328E-1,-9.651386738E-2
2.426534376E0,4.152234197E-1,3.231382072E-1,-1.014006436E-1
2.428998439E0,3.920112252E-1,3.121429384E-1,-1.075091213E-1
2.431463282E0,3.724641204E-1,2.999260128E-1,-1.087308154E-1
2.433928959E0,3.529170156E-1,2.877090573E-1,-1.111742035E-1
2.436393699E0,3.370349705E-1,2.706053257E-1,-1.087308154E-1
2.438857761E0,3.211529553E-1,2.559449971E-1,-1.160609797E-1
2.441322553E0,3.064926267E-1,2.437280566E-1,-1.185043678E-1
2.443788230E0,2.930539846E-1,2.278460264E-1,-1.246128380E-1
2.446253022E0,2.771719396E-1,2.131856978E-1,-1.233911440E-1
2.448717084E0,2.649549842E-1,1.973036677E-1,-1.209477559E-1
2.451181876E0,2.588465214E-1,1.826433241E-1,-1.233911440E-1
2.453647553E0,2.502946556E-1,1.740914732E-1,-1.282779276E-1
2.456112345E0,2.405211031E-1,1.679829955E-1,-1.246128380E-1
2.458576355E0,2.307475507E-1,1.618745178E-1,-1.185043678E-1
2.461041199E0,2.234173864E-1,1.545443535E-1,-1.111742035E-1
2.463506876E0,2.148655206E-1,1.569877416E-1,-1.075091213E-1
2.465971668E0,2.099787444E-1,1.582094431E-1,-1.014006436E-1
2.468435678E0,2.063136548E-1,1.655396074E-1,-9.407047927E-2
2.470900522E0,2.050919682E-1,1.716480851E-1,-8.674030751E-2
2.473366199E0,2.026485801E-1,1.826433241E-1,-8.063183725E-2
2.475830991E0,2.002051920E-1,1.948602796E-1,-7.574506104E-2
2.478295001E0,1.989834905E-1,2.046338320E-1,-7.207997888E-2
2.480759793E0,1.953184158E-1,2.131856978E-1,-6.230641901E-2
2.483225522E0,1.965401024E-1,2.229592502E-1,-5.375456065E-2
2.485690261E0,1.965401024E-1,2.327328026E-1,-4.886778072E-2
2.488154324E0,1.977618039E-1,2.400629669E-1,-3.909422457E-2
2.490619116E0,1.977618039E-1,2.498365343E-1,-3.298575059E-2
2.493084793E0,2.002051920E-1,2.596100867E-1,-2.565558441E-2
2.495549584E0,2.026485801E-1,2.706053257E-1,-1.343864016E-2
2.498013595E0,2.050919682E-1,2.816005945E-1,-2.443389036E-3
2.500478439E0,2.087570578E-1,2.901524603E-1,7.330167107E-3
2.502944116E0,2.124221325E-1,2.974826097E-1,7.330167107E-3
2.505408907E0,2.160872221E-1,2.987042964E-1,1.588202827E-2
2.507872918E0,2.234173864E-1,2.974826097E-1,2.809897438E-2
2.510337761E0,2.307475507E-1,2.974826097E-1,3.054236248E-2
2.512803439E0,2.392994165E-1,2.925958335E-1,3.787253052E-2
2.515268230E0,2.466295809E-1,2.913741469E-1,4.764608666E-2
2.517732241E0,2.539597452E-1,2.864873707E-1,5.497625470E-2
2.520197084E0,2.612899244E-1,2.803788781E-1,5.497625470E-2
2.522662761E0,2.698417902E-1,2.754921019E-1,5.741964281E-2
2.525127553E0,2.747285664E-1,2.693836391E-1,6.597150117E-2
2.527591564E0,2.796153426E-1,2.669402659E-1,6.963659078E-2
2.530056407E0,2.820587158E-1,2.583884001E-1,7.085828483E-2
2.532522084E0,2.783936262E-1,2.547233105E-1,7.207997888E-2
2.534986824E0,2.735068500E-1,2.437280566E-1,7.452336699E-2
2.537450886E0,2.698417902E-1,2.339545041E-1,7.207997888E-2
2.539915678E0,2.649549842E-1,2.266243398E-1,7.085828483E-2
2.542381355E0,2.564031482E-1,2.205158621E-1,7.574506104E-2
2.544846147E0,2.466295809E-1,2.131856978E-1,7.574506104E-2
2.547310157E0,2.380777150E-1,2.058555335E-1,7.330167294E-2
2.549775001E0,2.258607745E-1,2.009687424E-1,7.207997888E-2
2.552240678E0,2.112004459E-1,1.960819662E-1,7.941014320E-2
2.554705470E0,1.940967143E-1,1.960819662E-1,8.063183725E-2
2.557169480E0,1.757712960E-1,1.960819662E-1,8.307522535E-2
2.559634324E0,1.562241912E-1,1.960819662E-1,9.040539712E-2
2.562100001E0,1.354553849E-1,2.009687424E-1,9.407047927E-2
2.564564793E0,1.146865711E-1,2.034121305E-1,1.026223376E-1
2.567028803E0,9.147437662E-2,2.082989216E-1,1.038440317E-1
2.569493647E0,6.826218218E-2,2.131856978E-1,1.123958975E-1
2.571959324E0,4.749337584E-2,2.205158621E-1,1.197260618E-1
2.574424064E0,2.794626169E-2,2.290677279E-1,1.233911440E-1
2.576888126E0,7.177455351E-3,2.339545041E-1,1.307213157E-1
2.579352918E0,-1.114796288E-2,2.363978922E-1,1.429382563E-1
2.581818647E0,-2.947338112E-2,2.412846684E-1,1.490467340E-1
2.584283386E0,-4.413371533E-2,2.437280566E-1,1.527118087E-1
2.586747449E0,-5.879404768E-2,2.473931462E-1,1.637070626E-1
2.589212241E0,-6.978929788E-2,2.498365343E-1,1.747023165E-1
2.591677918E0,-7.711946964E-2,2.486148328E-1,1.808107942E-1
2.594142709E0,-8.200624585E-2,2.486148328E-1,1.942494214E-1
2.596606720E0,-8.689302206E-2,2.510582209E-1,2.003578991E-1
2.599071564E0,-8.689302206E-2,2.535016239E-1,2.040229887E-1
2.601537241E0,-8.444963396E-2,2.559449971E-1,2.113531530E-1
2.604002032E0,-8.200624585E-2,2.596100867E-1,2.211267054E-1
2.606466043E0,-7.345438004E-2,2.632751763E-1,2.247917950E-1
2.608930886E0,-6.245913357E-2,2.681619525E-1,2.284568697E-1
2.611396564E0,-5.024218559E-2,2.742704153E-1,2.333436459E-1
2.613861355E0,-3.558185324E-2,2.779355049E-1,2.418955117E-1
2.616325366E0,-1.725643501E-2,2.852656841E-1,2.480039895E-1
2.618790209E0,1.068982761E-3,2.950392365E-1,2.541124523E-1
2.621255886E0,1.817270555E-2,3.048127890E-1,2.602209449E-1
2.623720626E0,3.771981969E-2,3.170297146E-1,2.675510943E-1
2.626184689E0,6.093201414E-2,3.304683566E-1,2.663294077E-1
2.628649480E0,8.170082420E-2,3.414636254E-1,2.712161839E-1
2.631115157E0,1.024696305E-1,3.524588645E-1,2.761029601E-1
2.633579949E0,1.244601309E-1,3.622324169E-1,2.822114229E-1
2.636044011E0,1.427855492E-1,3.707842827E-1,2.785463631E-1
2.638508803E0,1.611109674E-1,3.768927455E-1,2.809897363E-1
2.640974480E0,1.806580722E-1,3.805578351E-1,2.846548259E-1
2.643439272E0,1.977618039E-1,3.866663277E-1,2.834331393E-1
2.645903282E0,2.136438340E-1,3.866663277E-1,2.870981991E-1
2.648368126E0,2.283041626E-1,3.854446113E-1,2.895416021E-1
2.650833803E0,2.429644912E-1,3.866663277E-1,2.846548259E-1
2.653298595E0,2.539597452E-1,3.878880143E-1,2.822114229E-1
2.655762605E0,2.637332976E-1,3.854446113E-1,2.797680497E-1
2.658227449E0,2.735068500E-1,3.793361485E-1,2.870981991E-1
2.660693126E0,2.808370292E-1,3.768927455E-1,2.858765125E-1
2.663157918E0,2.845021188E-1,3.732276857E-1,2.883199155E-1
2.665621928E0,2.869454920E-1,3.732276857E-1,2.846548259E-1
2.668086772E0,2.881672084E-1,3.707842827E-1,2.822114229E-1
2.670552449E0,2.893888950E-1,3.658975065E-1,2.809897363E-1
2.673017189E0,2.857238054E-1,3.573456407E-1,2.822114229E-1
2.675481251E0,2.857238054E-1,3.500154912E-1,2.797680497E-1
2.677946043E0,2.857238054E-1,3.365768492E-1,2.785463631E-1
2.680411720E0,2.845021188E-1,3.243598938E-1,2.809897363E-1
2.682876511E0,2.845021188E-1,3.109212518E-1,2.834331393E-1
2.685340522E0,2.820587158E-1,3.011476994E-1,2.724378705E-1
2.687805366E0,2.783936262E-1,2.901524603E-1,2.761029601E-1
2.690271043E0,2.747285664E-1,2.828222811E-1,2.773246467E-1
2.692735834E0,2.686200738E-1,2.754921019E-1,2.736595869E-1
2.695199845E0,2.625116110E-1,2.681619525E-1,2.736595869E-1
2.697664689E0,2.564031482E-1,2.620534599E-1,2.797680497E-1
2.700130366E0,2.502946556E-1,2.559449971E-1,2.785463631E-1
2.702595157E0,2.429644912E-1,2.510582209E-1,2.748812735E-1
2.705059168E0,2.368560284E-1,2.486148328E-1,2.736595869E-1
2.707524011E0,2.283041626E-1,2.437280566E-1,2.797680497E-1
2.709989689E0,2.209739983E-1,2.376195788E-1,2.773246467E-1
2.712454480E0,2.136438340E-1,2.315111160E-1,2.748812735E-1
2.714918491E0,2.075353563E-1,2.266243398E-1,2.785463631E-1
2.717383334E0,2.014268786E-1,2.217375487E-1,2.797680497E-1
2.719849011E0,1.953184158E-1,2.119639963E-1,2.748812735E-1
2.722313751E0,1.916533262E-1,2.046338320E-1,2.785463631E-1
2.724777814E0,1.879882365E-1,1.997470558E-1,2.809897363E-1
2.727242605E0,1.867665499E-1,1.911951900E-1,2.809897363E-1
2.729708282E0,1.855448484E-1,1.863084137E-1,2.785463631E-1
2.732173074E0,1.843231618E-1,1.789782494E-1,2.797680497E-1
2.734637136E0,1.806580722E-1,1.753131598E-1,2.822114229E-1
2.737101928E0,1.818797737E-1,1.704263836E-1,2.809897363E-1
2.739567605E0,1.806580722E-1,1.655396074E-1,2.834331393E-1
2.742032397E0,1.806580722E-1,1.606528312E-1,2.883199155E-1
2.744496407E0,1.806580722E-1,1.606528312E-1,2.883199155E-1
2.746961251E0,1.831014603E-1,1.594311297E-1,2.858765125E-1
2.749426928E0,1.855448484E-1,1.582094431E-1,2.895416021E-1
2.751891720E0,1.855448484E-1,1.606528312E-1,2.870981991E-1
2.754355730E0,1.879882365E-1,1.606528312E-1,2.870981991E-1
2.756820574E0,1.904316396E-1,1.594311297E-1,2.858765125E-1
2.759286251E0,1.928750277E-1,1.618745178E-1,2.822114229E-1
2.761750991E0,1.965401024E-1,1.606528312E-1,2.834331393E-1
2.764215053E0,2.002051920E-1,1.594311297E-1,2.846548259E-1
2.766679897E0,2.038702667E-1,1.582094431E-1,2.822114229E-1
2.769145574E0,2.063136548E-1,1.569877416E-1,2.797680497E-1
2.771610314E0,2.099787444E-1,1.545443535E-1,2.809897363E-1
2.774074376E0,2.124221325E-1,1.496575773E-1,2.846548259E-1
2.776539168E0,2.160872221E-1,1.472141892E-1,2.822114229E-1
2.779004845E0,2.197522968E-1,1.398840249E-1,2.834331393E-1
2.781469636E0,2.258607745E-1,1.337755471E-1,2.870981991E-1
2.783933647E0,2.295258641E-1,1.264453828E-1,2.834331393E-1
2.786398491E0,2.331909388E-1,1.166718230E-1,2.858765125E-1
2.788864168E0,2.344126403E-1,1.142284349E-1,2.919849753E-1
2.791328959E0,2.368560284E-1,1.105633527E-1,2.907632887E-1
2.793792970E0,2.380777150E-1,1.044548824E-1,2.858765125E-1
2.796257814E0,2.380777150E-1,9.956810623E-2,2.858765125E-1
2.798723491E0,2.368560284E-1,8.857285231E-2,2.858765125E-1
2.801188282E0,2.344126403E-1,7.757759839E-2,2.809897363E-1
2.803652293E0,2.331909388E-1,6.413896382E-2,2.785463631E-1
2.806117136E0,2.295258641E-1,4.947862774E-2,2.761029601E-1
2.808582814E0,2.295258641E-1,3.848337755E-2,2.724378705E-1
2.811047553E0,2.234173864E-1,2.504473738E-2,2.675510943E-1
2.813511616E0,2.221956849E-1,6.719320081E-3,2.724378705E-1
2.815976459E0,2.185306102E-1,-1.832541777E-3,2.565558553E-1
2.818442136E0,2.112004459E-1,-1.771457121E-2,2.602209449E-1
2.820906876E0,2.099787444E-1,-2.870982140E-2,2.565558553E-1
2.823370939E0,2.075353563E-1,-4.092676565E-2,2.504473627E-1
2.825835730E0,2.038702667E-1,-4.947862774E-2,2.480039895E-1
2.828301407E0,2.002051920E-1,-5.925218388E-2,2.492256761E-1
2.830766199E0,1.977618039E-1,-6.902574003E-2,2.406738251E-1
2.833230209E0,1.940967143E-1,-7.879929990E-2,2.357870489E-1
2.835695053E0,1.855448484E-1,-8.612946421E-2,2.370087355E-1
2.838160730E0,1.794363856E-1,-9.590301663E-2,2.357870489E-1
2.840625522E0,1.733279079E-1,-1.044548824E-1,2.284568697E-1
2.843089532E0,1.623326540E-1,-1.093416587E-1,2.333436459E-1
2.845554376E0,1.537808031E-1,-1.130067408E-1,2.345653474E-1
2.848020053E0,1.440072358E-1,-1.130067408E-1,2.296785712E-1
2.850484845E0,1.354553849E-1,-1.142284349E-1,2.284568697E-1
2.852948855E0,1.269035190E-1,-1.117850468E-1,2.309002578E-1
2.855413699E0,1.146865711E-1,-1.105633527E-1,2.284568697E-1
2.857879376E0,1.073564067E-1,-1.068982705E-1,2.247917950E-1
2.860344116E0,9.758284688E-2,-1.044548824E-1,2.211267054E-1
2.862808178E0,8.903098851E-2,-1.044548824E-1,2.186833173E-1
2.865272970E0,8.292251825E-2,-1.020114943E-1,2.174616307E-1
2.867738699E0,7.314895838E-2,-1.020114943E-1,2.125748396E-1
2.870203439E0,6.215370819E-2,-1.007898003E-1,2.089097649E-1
2.872667501E0,5.482354015E-2,-1.007898003E-1,2.101314515E-1
2.875132293E0,4.504998401E-2,-1.020114943E-1,2.064663768E-1
2.877597970E0,3.527642787E-2,-1.056765765E-1,2.003578991E-1
2.880062761E0,2.550287358E-2,-1.093416587E-1,2.015796006E-1
2.882526772E0,1.939439960E-2,-1.117850468E-1,1.966928244E-1
2.884991616E0,1.206423342E-2,-1.154501289E-1,1.942494214E-1
2.887457293E0,2.290677279E-3,-1.191152185E-1,1.930277348E-1
2.889922084E0,-5.039489828E-3,-1.252236813E-1,1.905843467E-1
2.892386095E0,-1.359135192E-2,-1.276670843E-1,1.893626451E-1
2.894850939E0,-2.092151903E-2,-1.276670843E-1,1.893626451E-1
2.897316616E0,-2.825168520E-2,-1.227803007E-1,1.869192570E-1
2.899781407E0,-3.558185324E-2,-1.240019947E-1,1.844758689E-1
2.902245418E0,-4.046862945E-2,-1.252236813E-1,1.795890927E-1
2.904710261E0,-4.779879749E-2,-1.264453828E-1,1.698155403E-1
2.907175939E0,-5.268557742E-2,-1.288887709E-1,1.734806150E-1
2.909640678E0,-5.879404768E-2,-1.313321590E-1,1.685938388E-1
2.912104741E0,-6.245913357E-2,-1.349972486E-1,1.612636745E-1
2.914569584E0,-6.612421572E-2,-1.362189353E-1,1.575985998E-1
2.917035209E0,-7.467607409E-2,-1.362189353E-1,1.490467340E-1
2.919500001E0,-7.834116369E-2,-1.374406368E-1,1.527118087E-1
2.921964064E0,-8.322793990E-2,-1.362189353E-1,1.453816444E-1
2.924428855E0,-8.689302206E-2,-1.386623234E-1,1.453816444E-1
2.926894532E0,-9.177979827E-2,-1.374406368E-1,1.441599578E-1
2.929359324E0,-9.666658193E-2,-1.325538605E-1,1.392731816E-1
2.931823334E0,-1.003316641E-1,-1.288887709E-1,1.343863904E-1
2.934288178E0,-1.052184403E-1,-1.276670843E-1,1.331647038E-1
2.936753855E0,-1.101052165E-1,-1.166718230E-1,1.319430023E-1
2.939218647E0,-1.137702987E-1,-1.081199646E-1,1.294996142E-1
2.941682657E0,-1.186570823E-1,-9.468132257E-2,1.307213157E-1
2.944147501E0,-1.235438585E-1,-9.101624042E-2,1.282779276E-1
2.946613178E0,-1.296523362E-1,-8.490777016E-2,1.282779276E-1
2.949077970E0,-1.357607991E-1,-7.391251624E-2,1.258345395E-1
2.951541980E0,-1.382041872E-1,-6.780404598E-2,1.258345395E-1
2.954006824E0,-1.418692768E-1,-5.925218388E-2,1.282779276E-1
2.956472501E0,-1.467560530E-1,-5.070032179E-2,1.258345395E-1
2.958937241E0,-1.516428292E-1,-3.848337755E-2,1.282779276E-1
2.961401303E0,-1.540862173E-1,-2.626643144E-2,1.258345395E-1
2.963866095E0,-1.553079188E-1,-1.038440317E-2,1.258345395E-1
2.966331772E0,-1.601946950E-1,-3.054236295E-3,1.380514801E-1
2.968796564E0,-1.614163816E-1,1.282779220E-2,1.258345395E-1
2.971260626E0,-1.626380831E-1,2.870982140E-2,1.221694499E-1
2.973725418E0,-1.650814712E-1,5.314370990E-2,1.209477559E-1
2.976191095E0,-1.663031727E-1,7.146912813E-2,1.221694499E-1
2.978655886E0,-1.663031727E-1,8.490777016E-2,1.136175916E-1
2.981119897E0,-1.626380831E-1,9.834641218E-2,1.050657257E-1
2.983584741E0,-1.614163816E-1,1.056765765E-1,1.014006436E-1
2.986050418E0,-1.626380831E-1,1.130067408E-1,9.773556143E-2
2.988515209E0,-1.601946950E-1,1.166718230E-1,8.918370306E-2
2.990979220E0,-1.577513069E-1,1.166718230E-1,8.674030751E-2
2.993444064E0,-1.565296054E-1,1.166718230E-1,7.941014320E-2
2.995909741E0,-1.528645307E-1,1.130067408E-1,6.597150117E-2
2.998374532E0,-1.516428292E-1,9.834641218E-2,5.131116882E-2
3.000838543E0,-1.455343664E-1,8.612946421E-2,4.031591862E-2
3.003303386E0,-1.430909634E-1,6.902574003E-2,2.443389036E-2
3.005769064E0,-1.382041872E-1,4.947862774E-2,9.773556143E-3
3.008233803E0,-1.394258887E-1,2.382304333E-2,8.551862091E-3
3.010697866E0,-1.418692768E-1,-5.497625098E-3,9.773556143E-3
3.013162657E0,-1.455343664E-1,-3.237490356E-2,1.099525020E-2
3.015628334E0,-1.504211426E-1,-4.947862774E-2,1.099525020E-2
3.018093126E0,-1.553079188E-1,-5.558710173E-2,8.551862091E-3
3.020557136E0,-1.601946950E-1,-5.803048983E-2,1.221694518E-2
3.023021980E0,-1.650814712E-1,-5.436540768E-2,8.551862091E-3
3.025487657E0,-1.675248593E-1,-5.070032179E-2,-0.000000000E0
3.027952449E0,-1.687465608E-1,-4.703523964E-2,-3.665083554E-3
3.030416459E0,-1.699682474E-1,-3.726168349E-2,-4.886778072E-3
3.032881303E0,-1.699682474E-1,-2.870982140E-2,-8.551862091E-3
3.035346980E0,-1.699682474E-1,-1.771457121E-2,-1.710372418E-2
3.037811772E0,-1.699682474E-1,-9.162709117E-3,-1.832541823E-2
3.040275782E0,-1.675248593E-1,-6.108472589E-4,-2.321219631E-2
3.042740626E0,-1.650814712E-1,7.941014133E-3,-3.054236248E-2
3.045206303E0,-1.650814712E-1,1.649287529E-2,-3.420744836E-2
3.047671095E0,-1.650814712E-1,3.115320951E-2,-3.298575059E-2
3.050135105E0,-1.638597846E-1,4.459185153E-2,-3.909422457E-2
3.052599949E0,-1.638597846E-1,5.803048983E-2,-3.787253052E-2
3.055065626E0,-1.650814712E-1,7.146912813E-2,-3.665083647E-2
3.057530366E0,-1.638597846E-1,8.735115826E-2,-3.665083647E-2
3.059994428E0,-1.614163816E-1,9.956810623E-2,-3.909422457E-2
3.062459220E0,-1.626380831E-1,1.142284349E-1,-4.886778072E-2
3.064924897E0,-1.638597846E-1,1.276670843E-1,-4.764608666E-2
3.067389689E0,-1.614163816E-1,1.362189353E-1,-5.253286287E-2
3.069853699E0,-1.601946950E-1,1.386623234E-1,-4.764608666E-2
3.072318543E0,-1.589729935E-1,1.398840249E-1,-5.008947477E-2
3.074784220E0,-1.577513069E-1,1.411057115E-1,-5.131116882E-2
3.077249011E0,-1.553079188E-1,1.386623234E-1,-5.375456065E-2
3.079713022E0,-1.553079188E-1,1.374406368E-1,-5.864133686E-2
3.082177866E0,-1.553079188E-1,1.337755471E-1,-5.619794875E-2
3.084643543E0,-1.528645307E-1,1.276670843E-1,-5.375456065E-2
3.087108334E0,-1.516428292E-1,1.276670843E-1,-5.986303091E-2
3.089572345E0,-1.504211426E-1,1.276670843E-1,-6.352811307E-2
3.092037189E0,-1.491994411E-1,1.313321590E-1,-6.352811307E-2
3.094502866E0,-1.491994411E-1,1.374406368E-1,-7.207997888E-2
3.096967657E0,-1.443126649E-1,1.411057115E-1,-7.818844914E-2
3.099431668E0,-1.418692768E-1,1.447708011E-1,-7.818844914E-2
3.101896511E0,-1.406475753E-1,1.459924877E-1,-7.818844914E-2
3.104362189E0,-1.394258887E-1,1.496575773E-1,-8.918370306E-2
3.106826928E0,-1.382041872E-1,1.496575773E-1,-9.040539712E-2
3.109290991E0,-1.369825006E-1,1.521009654E-1,-9.040539712E-2
3.111755782E0,-1.382041872E-1,1.557660550E-1,-9.407047927E-2
3.114221459E0,-1.369825006E-1,1.582094431E-1,-1.075091213E-1
3.116686251E0,-1.382041872E-1,1.594311297E-1,-1.136175916E-1
3.119150261E0,-1.382041872E-1,1.606528312E-1,-1.136175916E-1
3.121615105E0,-1.406475753E-1,1.594311297E-1,-1.172826737E-1
3.124080782E0,-1.430909634E-1,1.643179059E-1,-1.233911440E-1
3.126545574E0,-1.467560530E-1,1.692046970E-1,-1.246128380E-1
3.129009584E0,-1.504211426E-1,1.753131598E-1,-1.307213157E-1
3.131474428E0,-1.565296054E-1,1.826433241E-1,-1.392731816E-1
3.133940105E0,-1.626380831E-1,1.863084137E-1,-1.429382563E-1
3.136404897E0,-1.724116355E-1,1.948602796E-1,-1.453816444E-1
3.138868907E0,-1.809635013E-1,2.021904439E-1,-1.490467340E-1
3.141333751E0,-1.882936656E-1,2.046338320E-1,-1.612636745E-1
3.143799428E0,-1.992889196E-1,2.070772201E-1,-1.685938388E-1
3.146264220E0,-2.115058601E-1,2.131856978E-1,-1.747023165E-1
3.148728230E0,-2.212794125E-1,2.144073844E-1,-1.808107942E-1
3.151193022E0,-2.322746664E-1,2.131856978E-1,-1.930277348E-1
3.153658751E0,-2.432699203E-1,2.107423097E-1,-2.015796006E-1
3.156123491E0,-2.542651594E-1,2.058555335E-1,-2.064663768E-1
3.158587553E0,-2.615953386E-1,2.034121305E-1,-2.162399292E-1
3.161052345E0,-2.725905776E-1,1.985253543E-1,-2.260134816E-1
3.163518022E0,-2.786990702E-1,1.911951900E-1,-2.309002578E-1
3.165982814E0,-2.860292196E-1,1.887518018E-1,-2.394521236E-1
3.168446824E0,-2.909159958E-1,1.850867122E-1,-2.480039895E-1
3.170911668E0,-2.982461751E-1,1.826433241E-1,-2.675510943E-1
3.173377345E0,-3.043546379E-1,1.740914732E-1,-2.651077211E-1
3.175842136E0,-3.092414141E-1,1.692046970E-1,-2.675510943E-1
3.178306147E0,-3.104631305E-1,1.655396074E-1,-2.773246467E-1
3.180770991E0,-3.141281903E-1,1.606528312E-1,-2.797680497E-1
3.183236668E0,-3.153499067E-1,1.557660550E-1,-2.773246467E-1
3.185701459E0,-3.141281903E-1,1.521009654E-1,-2.858765125E-1
3.188165470E0,-3.104631305E-1,1.484358907E-1,-2.956500649E-1
3.190630314E0,-3.080197275E-1,1.435490996E-1,-2.944283783E-1
3.193095991E0,-3.043546379E-1,1.398840249E-1,-2.968717813E-1
3.195560730E0,-2.982461751E-1,1.386623234E-1,-3.078670204E-1
3.198024793E0,-2.921377122E-1,1.386623234E-1,-3.188622594E-1
3.200489584E0,-2.896943092E-1,1.398840249E-1,-3.176405728E-1
3.202955261E0,-2.860292196E-1,1.398840249E-1,-3.225273490E-1
3.205420053E0,-2.811424434E-1,1.423274130E-1,-3.323009014E-1
3.207884116E0,-2.762556672E-1,1.447708011E-1,-3.359659910E-1
3.210348907E0,-2.738122940E-1,1.447708011E-1,-3.384093940E-1
3.212814584E0,-2.689255178E-1,1.459924877E-1,-3.457395434E-1
3.215279376E0,-2.628170252E-1,1.496575773E-1,-3.555130959E-1
3.217743386E0,-2.603736520E-1,1.496575773E-1,-3.591781855E-1
3.220208230E0,-2.554868758E-1,1.508792788E-1,-3.677300513E-1
3.222673907E0,-2.481566966E-1,1.484358907E-1,-3.713951409E-1
3.225138699E0,-2.383831441E-1,1.459924877E-1,-3.811686933E-1
3.227602709E0,-2.286095917E-1,1.411057115E-1,-3.872771561E-1
3.230067553E0,-2.176143378E-1,1.349972486E-1,-3.897205591E-1
3.232533230E0,-2.029540092E-1,1.264453828E-1,-3.994941115E-1
3.234998022E0,-1.895153672E-1,1.130067408E-1,-4.019374847E-1
3.237462032E0,-1.760767251E-1,1.068982705E-1,-4.117110670E-1
3.239926876E0,-1.601946950E-1,9.712471068E-2,-4.214846194E-1
3.242392553E0,-1.443126649E-1,8.612946421E-2,-4.300364852E-1
3.244857293E0,-1.272089481E-1,7.391251624E-2,-4.361449480E-1
3.247321355E0,-1.125486046E-1,6.291726977E-2,-4.422534108E-1
3.249786199E0,-9.666658193E-2,5.070032179E-2,-4.544703662E-1
3.252251876E0,-7.956285775E-2,3.726168349E-2,-4.642439187E-1
3.254716616E0,-6.245913357E-2,2.748812735E-2,-4.679090083E-1
3.257180678E0,-4.779879749E-2,1.527118124E-2,-4.752391577E-1
3.259645470E0,-3.069507517E-2,6.719320081E-3,-4.862344265E-1
3.262111147E0,-1.481304597E-2,-4.275931045E-3,-4.947862923E-1
3.264575939E0,2.290677279E-3,-1.160609815E-2,-4.972296655E-1
3.267039949E0,1.695101149E-2,-1.404948719E-2,-5.008947253E-1
3.269504793E0,3.283303976E-2,-1.527118124E-2,-5.106683373E-1
3.271970470E0,4.993676394E-2,-1.649287529E-2,-5.155550838E-1
3.274435261E0,6.337540597E-2,-1.404948719E-2,-5.143333673E-1
3.276899272E0,7.925742865E-2,-1.649287529E-2,-5.155550838E-1
3.279364116E0,9.880454093E-2,-1.404948719E-2,-5.204418898E-1
3.281829793E0,1.146865711E-1,-2.260134928E-2,-5.094466209E-1
3.284294584E0,1.317902952E-1,-2.870982140E-2,-5.021164417E-1
3.286758595E0,1.513374150E-1,-4.459185153E-2,-4.850127101E-1
3.289223439E0,1.696628332E-1,-6.047387794E-2,-4.666872919E-1
3.291689116E0,1.831014603E-1,-8.124268800E-2,-4.398100376E-1
3.294153855E0,1.940967143E-1,-1.056765765E-1,-4.092676640E-1
3.296617918E0,1.977618039E-1,-1.362189353E-1,-3.775036037E-1
3.299082761E0,1.940967143E-1,-1.704263836E-1,-3.347443044E-1
3.301548439E0,1.843231618E-1,-2.107423097E-1,-2.858765125E-1
3.304013178E0,1.684411317E-1,-2.547233105E-1,-2.382304370E-1
3.306477241E0,1.537808031E-1,-2.999260128E-1,-1.930277348E-1
3.308942032E0,1.354553849E-1,-3.524588645E-1,-1.368297935E-1
3.311407709E0,1.195733473E-1,-3.988832533E-1,-8.307522535E-2
3.313872501E0,1.000262350E-1,-4.404208660E-1,-2.565558441E-2
3.316336511E0,8.047912270E-2,-4.611896873E-1,2.687728032E-2
3.318801355E0,5.604523420E-2,-4.660764635E-1,8.674030751E-2
3.321267032E0,3.161134571E-2,-4.465293586E-1,1.392731816E-1
3.323731824E0,4.734066315E-3,-4.049917459E-1,1.966928244E-1
3.326195834E0,-2.214321308E-2,-3.377985358E-1,2.602209449E-1
3.328660678E0,-5.146388337E-2,-2.473931462E-1,3.151971996E-1
3.331126355E0,-7.956285775E-2,-1.337755471E-1,3.738385141E-1
3.333591147E0,-1.113269106E-1,3.481829539E-2,4.495835900E-1
3.336055157E0,-1.406475753E-1,2.205158621E-1,5.118899941E-1
3.338520001E0,-1.626380831E-1,3.891097009E-1,5.656445622E-1
3.340985678E0,-1.834068894E-1,5.369347334E-1,6.084038615E-1
3.343450418E0,-1.956238300E-1,6.639909744E-1,6.511631608E-1
3.345914480E0,-2.041756958E-1,7.727217674E-1,6.890357137E-1
3.348379272E0,-2.078407854E-1,8.619054556E-1,7.207997441E-1
3.350844949E0,-2.090624720E-1,9.242119193E-1,7.452336550E-1
3.353309741E0,-2.053973973E-1,9.633061290E-1,7.684458494E-1
3.355773803E0,-2.005106062E-1,9.877400398E-1,7.916580439E-1
3.358238595E0,-1.956238300E-1,9.950701594E-1,8.124268651E-1
3.360704272E0,-1.858502775E-1,9.828532338E-1,8.283088803E-1
3.363169064E0,-1.724116355E-1,9.596410394E-1,8.356390595E-1
3.365633074E0,-1.589729935E-1,9.327637553E-1,8.270871639E-1
3.368097918E0,-1.430909634E-1,8.936695457E-1,8.026533127E-1
3.370563595E0,-1.211004704E-1,8.435800672E-1,7.635591030E-1
3.373028386E0,-9.544488788E-2,7.849387527E-1,7.122479081E-1
3.375492397E0,-6.856760383E-2,7.262973785E-1,6.572716236E-1
3.377957241E0,-3.680354729E-2,6.676560640E-1,6.010736823E-1
3.380422918E0,-5.039489828E-3,6.053496599E-1,5.399889946E-1
3.382887709E0,2.672456764E-2,5.320479870E-1,4.813476503E-1
3.385351720E0,5.482354015E-2,4.538595080E-1,4.141544402E-1
3.387816564E0,8.047912270E-2,3.707842827E-1,3.506263196E-1
3.390282241E0,1.061347127E-1,2.803788781E-1,2.846548259E-1
3.392746980E0,1.256818175E-1,1.887518018E-1,2.162399292E-1
3.395211043E0,1.378987730E-1,9.956810623E-2,1.441599578E-1
3.397675834E0,1.427855492E-1,1.771457121E-2,6.963659078E-2
3.400141564E0,1.403421611E-1,-5.314370990E-2,-1.343864016E-2
3.402606303E0,1.305686086E-1,-1.227803007E-1,-9.284878522E-2
3.405070366E0,1.195733473E-1,-1.850867122E-1,-1.624853760E-1
3.407535157E0,1.061347127E-1,-2.376195788E-1,-2.370087355E-1
3.410000834E0,9.269607067E-2,-2.840439677E-1,-3.017585576E-1
3.412465626E0,8.170082420E-2,-3.206948042E-1,-3.603998721E-1
3.414929636E0,7.192726433E-2,-3.524588645E-1,-4.117110670E-1
3.417394480E0,6.215370819E-2,-3.793361485E-1,-4.544703662E-1
3.419860157E0,5.238015205E-2,-4.074351192E-1,-4.862344265E-1
3.422324949E0,4.138490185E-2,-4.282039404E-1,-5.118899941E-1
3.424788959E0,3.161134571E-2,-4.538595080E-1,-5.289937258E-1
3.427253803E0,1.817270555E-2,-4.734066129E-1,-5.460974574E-1
3.429719480E0,-1.374406274E-3,-4.941754341E-1,-5.546492934E-1
3.432184272E0,-2.458660305E-2,-4.990622103E-1,-5.766398311E-1
3.434648282E0,-5.512896553E-2,-4.978405237E-1,-5.864133835E-1
3.437113126E0,-8.689302206E-2,-4.831801951E-1,-5.876350403E-1
3.439578803E0,-1.259872466E-1,-4.624113739E-1,-5.839699507E-1
3.442043543E0,-1.675248593E-1,-4.330907166E-1,-5.803049207E-1
3.444507605E0,-2.090624720E-1,-3.952181637E-1,-5.619794726E-1
3.446972397E0,-2.506000996E-1,-3.622324169E-1,-5.387672782E-1
3.449438074E0,-2.896943092E-1,-3.292466700E-1,-5.143333673E-1
3.451902866E0,-3.263451457E-1,-2.987042964E-1,-4.850127101E-1
3.454366876E0,-3.617742956E-1,-2.681619525E-1,-4.520269632E-1
3.456831720E0,-3.947600424E-1,-2.351761907E-1,-4.129327536E-1
3.459297397E0,-4.265241027E-1,-1.985253543E-1,-3.836120665E-1
3.461762189E0,-4.558447599E-1,-1.582094431E-1,-3.530697227E-1
3.464226199E0,-4.839437306E-1,-1.166718230E-1,-3.188622594E-1
3.466691043E0,-5.083776116E-1,-6.902574003E-2,-2.956500649E-1
3.469156720E0,-5.254813433E-1,-3.115320951E-2,-2.614426315E-1
3.471621511E0,-5.352548957E-1,9.162709117E-3,-2.284568697E-1
3.474085522E0,-5.438067913E-1,5.314370990E-2,-1.918060333E-1
3.476550366E0,-5.425850749E-1,9.834641218E-2,-1.624853760E-1
3.479016043E0,-5.376983285E-1,1.484358907E-1,-1.417165697E-1
3.481480834E0,-5.291464329E-1,2.046338320E-1,-1.123958975E-1
3.483944845E0,-5.144860744E-1,2.718270421E-1,-8.429691941E-2
3.486409689E0,-4.973823726E-1,3.463504016E-1,-6.597150117E-2
3.488875366E0,-4.766135812E-1,4.257605374E-1,-4.153761268E-2
3.491340105E0,-4.521796703E-1,5.088357925E-1,-2.321219631E-2
3.493804168E0,-4.228590131E-1,5.943543911E-1,-2.443389036E-3
3.496268959E0,-3.898732662E-1,6.823163629E-1,9.773556143E-3
3.498734689E0,-3.544441164E-1,7.690566778E-1,2.199050039E-2
3.501199428E0,-3.116848171E-1,8.619054556E-1,3.542914242E-2
3.503663439E0,-2.701472044E-1,9.571976662E-1,4.520269856E-2
3.506128282E0,-2.237228155E-1,1.056154966E0,5.008947477E-2
3.508593959E0,-1.772984117E-1,1.156333804E0,5.375456065E-2
3.511058751E0,-1.296523362E-1,1.262621284E0,5.131116882E-2
3.513522761E0,-8.322793990E-2,1.364021897E0,5.131116882E-2
3.515987605E0,-3.680354729E-2,1.462979198E0,5.131116882E-2
3.518453282E0,4.734066315E-3,1.550941229E0,5.008947477E-2
3.520918074E0,4.260659590E-2,1.621799469E0,5.864133686E-2
3.523382084E0,7.681404054E-2,1.681662560E0,6.352811307E-2
3.525846928E0,1.097997949E-1,1.724421859E0,6.719319522E-2
3.528312605E0,1.391204596E-1,1.758629203E0,7.452336699E-2
3.530777397E0,1.659977436E-1,1.783063173E0,8.796200156E-2
3.533241407E0,1.940967143E-1,1.801388621E0,9.407047927E-2
3.535706251E0,2.185306102E-1,1.812383771E0,1.026223376E-1
3.538171928E0,2.429644912E-1,1.813605547E0,1.136175916E-1
3.540636668E0,2.637332976E-1,1.808718681E0,1.172826737E-1
3.543100730E0,2.808370292E-1,1.794058442E0,1.160609797E-1
3.545565522E0,2.942756712E-1,1.774511337E0,1.136175916E-1
3.548031251E0,3.064926267E-1,1.746412277E0,1.209477559E-1
3.550495991E0,3.113794029E-1,1.714648247E0,1.075091213E-1
3.552960001E0,3.162661791E-1,1.680440784E0,1.001789495E-1
3.555424845E0,3.162661791E-1,1.642568231E0,8.674030751E-2
3.557890522E0,3.150444627E-1,1.598587275E0,7.330167294E-2
3.560355314E0,3.089359999E-1,1.550941229E0,5.864133686E-2
3.562819324E0,3.016058207E-1,1.503295064E0,4.153761268E-2
3.565284168E0,2.906105816E-1,1.454427361E0,2.565558441E-2
3.567749845E0,2.759502530E-1,1.408002973E0,1.099525020E-2
3.570214636E0,2.600682080E-1,1.361578584E0,-6.108472589E-3
3.572678647E0,2.429644912E-1,1.312710762E0,-1.954711229E-2
3.575143491E0,2.197522968E-1,1.267508030E0,-3.542914242E-2
3.577609168E0,1.928750277E-1,1.227192163E0,-5.008947477E-2
3.580073959E0,1.647760421E-1,1.185654521E0,-6.352811307E-2
3.582537970E0,1.366770715E-1,1.139230132E0,-7.574506104E-2
3.585002814E0,1.049130186E-1,1.098914266E0,-8.918370306E-2
3.587468491E0,7.437065244E-2,1.057376623E0,-1.001789495E-1
3.589933230E0,4.382828996E-2,1.018282413E0,-1.136175916E-1
3.592397293E0,1.450762246E-2,9.828532338E-1,-1.185043678E-1
3.594862084E0,-1.236965694E-2,9.559759498E-1,-1.319430023E-1
3.597327761E0,-3.680354729E-2,9.315420985E-1,-1.307213157E-1
3.599792553E0,-6.001574174E-2,9.266552925E-1,-1.575985998E-1
3.602256564E0,-8.078455180E-2,9.205468297E-1,-1.624853760E-1
3.604721407E0,-9.666658193E-2,9.266552925E-1,-1.673721522E-1
3.607187084E0,-1.113269106E-1,9.388722181E-1,-1.722589284E-1
3.609651876E0,-1.223221645E-1,9.608627558E-1,-1.759240031E-1
3.612115886E0,-1.333174109E-1,9.865183234E-1,-1.820324808E-1
3.614580730E0,-1.418692768E-1,1.013395548E0,-1.808107942E-1
3.617046407E0,-1.516428292E-1,1.051268101E0,-1.832541823E-1
3.619511199E0,-1.614163816E-1,1.089140654E0,-1.771457046E-1
3.621975209E0,-1.675248593E-1,1.127013206E0,-1.747023165E-1
3.624440053E0,-1.736333370E-1,1.167329073E0,-1.673721522E-1
3.626905730E0,-1.809635013E-1,1.206423283E0,-1.575985998E-1
3.629370470E0,-1.834068894E-1,1.246739268E0,-1.466033459E-1
3.631834532E0,-1.870719790E-1,1.289498568E0,-1.356080920E-1
3.634299376E0,-1.882936656E-1,1.326149344E0,-1.221694499E-1
3.636765053E0,-1.882936656E-1,1.365243673E0,-1.087308154E-1
3.639229793E0,-1.870719790E-1,1.405559540E0,-9.773556143E-2
3.641693855E0,-1.846285909E-1,1.448318839E0,-8.551861346E-2
3.644158647E0,-1.858502775E-1,1.489856482E0,-7.452336699E-2
3.646624324E0,-1.846285909E-1,1.535059214E0,-7.207997888E-2
3.649089116E0,-1.846285909E-1,1.571709991E0,-6.719319522E-2
3.651553126E0,-1.797417998E-1,1.593700528E0,-5.741964281E-2
3.654017970E0,-1.736333370E-1,1.605917454E0,-4.642439261E-2
3.656483647E0,-1.675248593E-1,1.613247633E0,-3.054236248E-2
3.658948439E0,-1.626380831E-1,1.619356036E0,-1.466033421E-2
3.661412449E0,-1.540862173E-1,1.620577812E0,-8.551862091E-3
3.663877293E0,-1.467560530E-1,1.621799469E0,-1.221694518E-3
3.666342970E0,-1.394258887E-1,1.620577812E0,1.221694518E-2
3.668807761E0,-1.272089481E-1,1.620577812E0,2.565558441E-2
3.671271772E0,-1.162136942E-1,1.620577812E0,2.809897438E-2
3.673736616E0,-1.027750522E-1,1.621799469E0,3.054236248E-2
3.676202293E0,-9.300149232E-2,1.619356036E0,3.665083647E-2
3.678667032E0,-8.078455180E-2,1.613247633E0,3.542914242E-2
3.681131095E0,-6.978929788E-2,1.607139111E0,3.176405653E-2
3.683595939E0,-5.390727147E-2,1.596143842E0,4.275930673E-2
3.686061616E0,-3.802524135E-2,1.588813663E0,4.275930673E-2
3.688526355E0,-2.214321308E-2,1.575375080E0,3.787253052E-2
3.690990418E0,-3.817795310E-3,1.558271408E0,3.665083647E-2
3.693455209E0,1.328592747E-2,1.537502527E0,4.520269856E-2
3.695920886E0,2.916795574E-2,1.525285602E0,4.520269856E-2
3.698385678E0,4.749337584E-2,1.510625243E0,4.764608666E-2
3.700849689E0,6.337540597E-2,1.492299795E0,4.886778072E-2
3.703314532E0,7.803573459E-2,1.476417780E0,5.008947477E-2
3.705780209E0,9.269607067E-2,1.460535765E0,4.398100078E-2
3.708245001E0,1.097997949E-1,1.438545346E0,5.131116882E-2
3.710709011E0,1.232384369E-1,1.420219898E0,4.642439261E-2
3.713173855E0,1.366770715E-1,1.404337883E0,4.520269856E-2
3.715639532E0,1.476723254E-1,1.392120957E0,4.520269856E-2
3.718104324E0,1.586675793E-1,1.379903913E0,4.153761268E-2
3.720568334E0,1.708845198E-1,1.366465330E0,3.787253052E-2
3.723033178E0,1.818797737E-1,1.357913494E0,3.054236248E-2
3.725498855E0,1.940967143E-1,1.350583315E0,2.809897438E-2
3.727963595E0,2.063136548E-1,1.340809703E0,2.932066843E-2
3.730427657E0,2.160872221E-1,1.335922956E0,2.321219631E-2
3.732892449E0,2.270824611E-1,1.332257867E0,2.321219631E-2
3.735358126E0,2.380777150E-1,1.332257867E0,2.687728032E-2
3.737822918E0,2.466295809E-1,1.335922956E0,2.199050039E-2
3.740286980E0,2.564031482E-1,1.332257867E0,2.809897438E-2
3.742751772E0,2.637332976E-1,1.333479524E0,3.176405653E-2
3.745217449E0,2.686200738E-1,1.339588046E0,2.443389036E-2
3.747682241E0,2.698417902E-1,1.346918225E0,1.954711229E-2
3.750146251E0,2.686200738E-1,1.355470061E0,2.076880634E-2
3.752611095E0,2.625116110E-1,1.372573733E0,1.710372418E-2
3.755076772E0,2.539597452E-1,1.388455868E0,1.832541823E-2
3.757541564E0,2.441861928E-1,1.404337883E0,1.466033421E-2
3.760005574E0,2.307475507E-1,1.421441555E0,1.588202827E-2
3.762470418E0,2.173089087E-1,1.439767003E0,1.221694518E-2
3.764936095E0,2.002051920E-1,1.451983929E0,1.343864016E-2
3.767400886E0,1.855448484E-1,1.469087601E0,1.466033421E-2
3.769864897E0,1.684411317E-1,1.487413049E0,1.466033421E-2
3.772329741E0,1.513374150E-1,1.503295064E0,1.466033421E-2
3.774795418E0,1.354553849E-1,1.520398855E0,1.832541823E-2
3.777260157E0,1.171299592E-1,1.531394124E0,2.076880634E-2
3.779724220E0,1.036913246E-1,1.541167617E0,2.809897438E-2
3.782189011E0,9.391776472E-2,1.550941229E0,3.665083647E-2
3.784654741E0,8.292251825E-2,1.560714722E0,4.031591862E-2
3.787119480E0,7.559234649E-2,1.571709991E0,5.008947477E-2
3.789583491E0,7.314895838E-2,1.577818513E0,5.864133686E-2
3.792048334E0,7.192726433E-2,1.582705259E0,6.963659078E-2
3.794514011E0,7.070557028E-2,1.587592006E0,8.307522535E-2
3.796978803E0,7.192726433E-2,1.592478752E0,9.040539712E-2
3.799442814E0,7.681404054E-2,1.597365618E0,1.026223376E-1
3.801907657E0,7.803573459E-2,1.604695797E0,1.111742035E-1
3.804373334E0,8.292251825E-2,1.610804200E0,1.221694499E-1
3.806838126E0,8.903098851E-2,1.620577812E0,1.331647038E-1
3.809302136E0,9.269607067E-2,1.631573081E0,1.417165697E-1
3.811766980E0,9.758284688E-2,1.637681484E0,1.514901221E-1
3.814232657E0,1.036913246E-1,1.647455096E0,1.575985998E-1
3.816697449E0,1.085781008E-1,1.656006932E0,1.637070626E-1
3.819161459E0,1.110214889E-1,1.662115335E0,1.710372269E-1
3.821626303E0,1.159082651E-1,1.665780425E0,1.795890927E-1
3.824091980E0,1.195733473E-1,1.665780425E0,1.808107942E-1
3.826556720E0,1.207950488E-1,1.668223858E0,1.893626451E-1
3.829020782E0,1.244601309E-1,1.668223858E0,1.930277348E-1
3.831485574E0,1.281252056E-1,1.664558768E0,1.930277348E-1
3.833951251E0,1.317902952E-1,1.662115335E0,1.954711229E-1
3.836416043E0,1.342336833E-1,1.657228589E0,1.979145110E-1
3.838880053E0,1.378987730E-1,1.653563499E0,2.015796006E-1
3.841344897E0,1.415638477E-1,1.649898410E0,2.040229887E-1
3.843810574E0,1.440072358E-1,1.643790007E0,2.064663768E-1
3.846275366E0,1.464506239E-1,1.640124917E0,2.076880634E-1
3.848739376E0,1.513374150E-1,1.635238171E0,2.089097649E-1
3.851204220E0,1.525591016E-1,1.629129648E0,2.113531530E-1
3.853669897E0,1.550024897E-1,1.624242902E0,2.125748396E-1
3.856134689E0,1.574458778E-1,1.616912723E0,2.137965411E-1
3.858598699E0,1.598892659E-1,1.614469290E0,2.174616307E-1
3.861063543E0,1.611109674E-1,1.605917454E0,2.186833173E-1
3.863529220E0,1.635543555E-1,1.599808931E0,2.162399292E-1
3.865994011E0,1.635543555E-1,1.591257095E0,2.162399292E-1
3.868458022E0,1.647760421E-1,1.583926916E0,2.211267054E-1
3.870922866E0,1.635543555E-1,1.579040170E0,2.186833173E-1
3.873388543E0,1.647760421E-1,1.574153423E0,2.186833173E-1
3.875853282E0,1.659977436E-1,1.566823244E0,2.211267054E-1
3.878317345E0,1.659977436E-1,1.560714722E0,2.211267054E-1
3.880782136E0,1.684411317E-1,1.552162886E0,2.211267054E-1
3.883247814E0,1.696628332E-1,1.543611050E0,2.211267054E-1
3.885712605E0,1.721062213E-1,1.537502527E0,2.162399292E-1
3.888176616E0,1.757712960E-1,1.535059214E0,2.113531530E-1
3.890641459E0,1.794363856E-1,1.526507258E0,2.089097649E-1
3.893107136E0,1.831014603E-1,1.516733766E0,2.101314515E-1
3.895571928E0,1.867665499E-1,1.509403586E0,2.040229887E-1
3.898035939E0,1.916533262E-1,1.499629974E0,2.076880634E-1
3.900500782E0,1.940967143E-1,1.494743228E0,2.052446753E-1
3.902966459E0,1.989834905E-1,1.483747959E0,2.064663768E-1
3.905431251E0,2.038702667E-1,1.482526302E0,2.028012872E-1
3.907895261E0,2.075353563E-1,1.481304646E0,2.015796006E-1
3.910360105E0,2.087570578E-1,1.480082870E0,2.015796006E-1
3.912825782E0,2.099787444E-1,1.480082870E0,2.040229887E-1
3.915290522E0,2.124221325E-1,1.484969735E0,2.015796006E-1
3.917754584E0,2.148655206E-1,1.484969735E0,2.015796006E-1
3.920219428E0,2.160872221E-1,1.483747959E0,2.064663768E-1
3.922685105E0,2.209739983E-1,1.480082870E0,2.076880634E-1
3.925149845E0,2.246390730E-1,1.478861213E0,2.040229887E-1
3.927613907E0,2.307475507E-1,1.475196123E0,2.076880634E-1
3.930078699E0,2.380777150E-1,1.467865944E0,2.101314515E-1
3.932544376E0,2.441861928E-1,1.464200854E0,2.052446753E-1
3.935009168E0,2.502946556E-1,1.456870675E0,2.064663768E-1
3.937473178E0,2.527380586E-1,1.450762272E0,2.089097649E-1
3.939938022E0,2.600682080E-1,1.444653749E0,2.113531530E-1
3.942403699E0,2.625116110E-1,1.439767003E0,2.089097649E-1
3.944868491E0,2.661767006E-1,1.438545346E0,2.064663768E-1
3.947332501E0,2.698417902E-1,1.432436824E0,2.064663768E-1
3.949797345E0,2.710634768E-1,1.428771734E0,2.040229887E-1
3.952263022E0,2.735068500E-1,1.422663212E0,2.015796006E-1
3.954727814E0,2.771719396E-1,1.415333152E0,2.052446753E-1
3.957191824E0,2.771719396E-1,1.409224629E0,2.064663768E-1
3.959656668E0,2.808370292E-1,1.404337883E0,2.003578991E-1
3.962122345E0,2.869454920E-1,1.397007704E0,2.052446753E-1
3.964587084E0,2.893888950E-1,1.393342614E0,2.052446753E-1
3.967051147E0,2.930539846E-1,1.390899181E0,1.942494214E-1
3.969515939E0,2.954973578E-1,1.382347345E0,1.979145110E-1
3.971981668E0,2.991624475E-1,1.377460599E0,2.015796006E-1
3.974446407E0,3.040492237E-1,1.372573733E0,2.052446753E-1
3.976910470E0,3.064926267E-1,1.371352077E0,1.991362125E-1
3.979375261E0,3.089359999E-1,1.366465330E0,1.991362125E-1
3.981840939E0,3.126010895E-1,1.362800241E0,2.028012872E-1
3.984305730E0,3.138227761E-1,1.359135151E0,2.015796006E-1
3.986769741E0,3.150444627E-1,1.356691718E0,2.052446753E-1
3.989234584E0,3.162661791E-1,1.359135151E0,2.064663768E-1
3.991700261E0,3.162661791E-1,1.357913494E0,2.101314515E-1
3.994165053E0,3.150444627E-1,1.359135151E0,2.089097649E-1
3.996629064E0,3.138227761E-1,1.359135151E0,2.113531530E-1
3.999093907E0,3.113794029E-1,1.356691718E0,2.089097649E-1
4.001559584E0,3.077143133E-1,1.351804972E0,2.113531530E-1
4.004024376E0,3.052709103E-1,1.348139882E0,2.113531530E-1
4.006488386E0,3.016058207E-1,1.343253136E0,2.174616307E-1
4.008953230E0,2.991624475E-1,1.338366389E0,2.174616307E-1
4.011418907E0,2.967190444E-1,1.331036210E0,2.235700935E-1
4.013883647E0,2.942756712E-1,1.327371120E0,2.247917950E-1
4.016347709E0,2.906105816E-1,1.327371120E0,2.235700935E-1
4.018812501E0,2.857238054E-1,1.328592777E0,2.223484069E-1
4.021278178E0,2.820587158E-1,1.328592777E0,2.247917950E-1
4.023742970E0,2.783936262E-1,1.328592777E0,2.235700935E-1
4.026207032E0,2.759502530E-1,1.328592777E0,2.272351831E-1
4.028671824E0,2.722851634E-1,1.327371120E0,2.309002578E-1
4.031137501E0,2.686200738E-1,1.327371120E0,2.321219593E-1
4.033602293E0,2.661767006E-1,1.327371120E0,2.345653474E-1
4.036066303E0,2.625116110E-1,1.331036210E0,2.370087355E-1
4.038531147E0,2.588465214E-1,1.332257867E0,2.370087355E-1
4.040996824E0,2.539597452E-1,1.337144613E0,2.345653474E-1
4.043461616E0,2.527380586E-1,1.340809703E0,2.394521236E-1
4.045925626E0,2.502946556E-1,1.342031479E0,2.455606014E-1
4.048390470E0,2.478512824E-1,1.349361539E0,2.418955117E-1
4.050856147E0,2.466295809E-1,1.356691718E0,2.394521236E-1
4.053320939E0,2.417428046E-1,1.362800241E0,2.443388999E-1
4.055784949E0,2.380777150E-1,1.372573733E0,2.504473627E-1
4.058249793E0,2.344126403E-1,1.379903913E0,2.492256761E-1
4.060715470E0,2.295258641E-1,1.387234092E0,2.492256761E-1
4.063180209E0,2.246390730E-1,1.395785928E0,2.589992285E-1
4.065644272E0,2.209739983E-1,1.403116107E0,2.675510943E-1
4.068109064E0,2.160872221E-1,1.415333152E0,2.626643181E-1
4.070574741E0,2.075353563E-1,1.428771734E0,2.699944973E-1
4.073039532E0,2.026485801E-1,1.442210436E0,2.797680497E-1
4.075503543E0,1.977618039E-1,1.460535765E0,2.883199155E-1
4.077968386E0,1.916533262E-1,1.478861213E0,3.017585576E-1
4.080434064E0,1.855448484E-1,1.504516840E0,3.188622594E-1
4.082898855E0,1.806580722E-1,1.521620512E0,3.286358118E-1
4.085362866E0,1.794363856E-1,1.530172348E0,3.323009014E-1
4.087827709E0,1.818797737E-1,1.533837438E0,3.408527672E-1
4.090293386E0,1.879882365E-1,1.532615781E0,3.506263196E-1
4.092758178E0,1.940967143E-1,1.533837438E0,3.542914093E-1
4.095222189E0,2.014268786E-1,1.530172348E0,3.591781855E-1
4.097687032E0,2.112004459E-1,1.530172348E0,3.726168275E-1
4.100152709E0,2.246390730E-1,1.528950691E0,3.836120665E-1
4.102617501E0,2.356343269E-1,1.532615781E0,3.884988427E-1
4.105081511E0,2.454078794E-1,1.537502527E0,3.946073353E-1
4.107546355E0,2.588465214E-1,1.542389274E0,4.104893506E-1
4.110012032E0,2.710634768E-1,1.550941229E0,4.129327536E-1
4.112476772E0,2.832804024E-1,1.560714722E0,4.165978432E-1
4.114940834E0,2.942756712E-1,1.568044901E0,4.251496792E-1
4.117405626E0,3.064926267E-1,1.571709991E0,4.385883212E-1
4.119871303E0,3.174878657E-1,1.583926916E0,4.263713956E-1
4.122336095E0,3.272614181E-1,1.582705259E0,4.361449480E-1
4.124800105E0,3.394783735E-1,1.582705259E0,4.434750974E-1
4.127264949E0,3.529170156E-1,1.580261827E0,4.422534108E-1
4.129730626E0,3.651339412E-1,1.575375080E0,4.422534108E-1
4.132195418E0,3.785725832E-1,1.569266558E0,4.446968138E-1
4.134659428E0,3.907895386E-1,1.563158154E0,4.459185004E-1
4.137124272E0,4.066715539E-1,1.555827975E0,4.422534108E-1
4.139589949E0,4.201101959E-1,1.548497796E0,4.459185004E-1
4.142054741E0,4.323271513E-1,1.544832706E0,4.434750974E-1
4.144518751E0,4.445441067E-1,1.539945960E0,4.410317242E-1
4.146983595E0,4.567610323E-1,1.532615781E0,4.337015450E-1
4.149449272E0,4.701996744E-1,1.527729034E0,4.300364852E-1
4.151914011E0,4.836383164E-1,1.524063945E0,4.263713956E-1
4.154378074E0,4.958552718E-1,1.519177079E0,4.165978432E-1
4.156842866E0,5.056288242E-1,1.513068676E0,4.092676640E-1
4.159308595E0,5.129590034E-1,1.506960154E0,4.007157981E-1
4.161773334E0,5.202891231E-1,1.502073407E0,3.909422457E-1
4.164237397E0,5.276193023E-1,1.494743228E0,3.836120665E-1
4.166702189E0,5.349494815E-1,1.482526302E0,3.860554695E-1
4.169167866E0,5.410579443E-1,1.466644287E0,3.848337829E-1
4.171632657E0,5.459447503E-1,1.451983929E0,3.787252903E-1
4.174096668E0,5.483881235E-1,1.436101913E0,3.701734245E-1
4.176561511E0,5.471664071E-1,1.414111376E0,3.750602305E-1
4.179027189E0,5.459447503E-1,1.392120957E0,3.738385141E-1
4.181491980E0,5.422796607E-1,1.368908763E0,3.701734245E-1
4.183955991E0,5.337277651E-1,1.344474792E0,3.689517379E-1
4.186420834E0,5.190674663E-1,1.315154195E0,3.726168275E-1
4.188886511E0,5.019637346E-1,1.284611821E0,3.689517379E-1
4.191351303E0,4.811949134E-1,1.250404358E0,3.628432751E-1
4.193815314E0,4.543176591E-1,1.211310148E0,3.640649617E-1
4.196280157E0,4.262186885E-1,1.167329073E0,3.640649617E-1
4.198745834E0,3.932329118E-1,1.120904684E0,3.555130959E-1
4.201210574E0,3.578037918E-1,1.068371892E0,3.665083647E-1
4.203674636E0,3.174878657E-1,1.017060637E0,3.701734245E-1
4.206139428E0,2.783936262E-1,9.608627558E-1,3.738385141E-1
4.208605105E0,2.380777150E-1,9.046648145E-1,3.848337829E-1
4.211069897E0,1.928750277E-1,8.509102464E-1,4.031592011E-1
4.213533907E0,1.476723254E-1,8.044858575E-1,4.178195298E-1
4.215998751E0,9.636115283E-2,7.592831254E-1,4.312581718E-1
4.218464428E0,4.627167806E-2,7.165238261E-1,4.630222321E-1
4.220929220E0,-5.039489828E-3,6.786513329E-1,4.801259339E-1
4.223393230E0,-5.879404768E-2,6.456655264E-1,5.070032477E-1
4.225858074E0,-1.125486046E-1,6.139014959E-1,5.424323678E-1
4.228323751E0,-1.650814712E-1,5.894675851E-1,5.693096519E-1
4.230788543E0,-2.163926363E-1,5.686988235E-1,5.961869359E-1
4.233252553E0,-2.677038014E-1,5.601469278E-1,6.279509664E-1
4.235717397E0,-3.190149665E-1,5.589252710E-1,6.646018028E-1
4.238183074E0,-3.666610718E-1,5.650337338E-1,6.975875497E-1
4.240647866E0,-4.204156399E-1,5.796940327E-1,7.269082665E-1
4.243111876E0,-4.766135812E-1,6.004628539E-1,7.598940134E-1
4.245576720E0,-5.291464329E-1,6.310052276E-1,7.843278646E-1
4.248042397E0,-5.816792846E-1,6.639909744E-1,8.063184023E-1
4.250507136E0,-6.342121959E-1,6.994200945E-1,8.283088803E-1
4.252971199E0,-6.855233312E-1,7.397360206E-1,8.478559852E-1
4.255435991E0,-7.356128097E-1,7.824953198E-1,8.600729704E-1
4.257901668E0,-7.857022882E-1,8.276980519E-1,8.698465228E-1
4.260366459E0,-8.357917666E-1,8.704573512E-1,8.722898960E-1
4.262830470E0,-8.883246183E-1,9.071081877E-1,8.747332692E-1
4.265295314E0,-9.396358132E-1,9.339854717E-1,8.649597168E-1
4.267760991E0,-9.885035753E-1,9.559759498E-1,8.551861644E-1
4.270225782E0,-1.041036487E0,9.608627558E-1,8.490777016E-1
4.272689793E0,-1.089904189E0,9.596410394E-1,8.393041492E-1
4.275154636E0,-1.144880533E0,9.474241138E-1,8.319739699E-1
4.277620314E0,-1.207186937E0,9.376505613E-1,8.209787011E-1
4.280085105E0,-1.275601745E0,9.229902029E-1,8.173136115E-1
4.282549116E0,-1.342795014E0,9.119949341E-1,8.014315963E-1
4.285013959E0,-1.414874911E0,9.034430981E-1,7.928797603E-1
4.287479636E0,-1.484511495E0,8.900044560E-1,7.879929543E-1
4.289944428E0,-1.554148197E0,8.631271720E-1,7.818844914E-1
4.292408439E0,-1.621341348E0,8.289197087E-1,7.708892226E-1
4.294873282E0,-1.690977931E0,7.837170362E-1,7.611156702E-1
4.297338959E0,-1.753284335E0,7.226322889E-1,7.562289238E-1
4.299803699E0,-1.808260560E0,6.505523324E-1,7.562289238E-1
4.302267761E0,-1.860793471E0,5.723638535E-1,7.660024762E-1
4.304732553E0,-1.909661293E0,4.819584787E-1,7.953231335E-1
4.307198230E0,-1.954863906E0,4.001049399E-1,8.319739699E-1
4.309663022E0,-1.992736459E0,3.280249834E-1,8.820634484E-1
4.312127032E0,-2.024500608E0,2.632751763E-1,9.455915689E-1
4.314591876E0,-2.057486296E0,2.168507725E-1,1.001789451E0
4.317057553E0,-2.091693640E0,1.838650256E-1,1.062874198E0
4.319522345E0,-2.128344536E0,1.618745178E-1,1.130067468E0
4.321986355E0,-2.163773775E0,1.618745178E-1,1.209477544E0
4.324451199E0,-2.200424433E0,1.924168915E-1,1.292552829E0
4.326916876E0,-2.240740538E0,2.559449971E-1,1.379293084E0
4.329381668E0,-2.283499718E0,3.549022675E-1,1.463590026E0
4.331845678E0,-2.326259136E0,4.856235683E-1,1.558882236E0
4.334310522E0,-2.371461868E0,6.358919740E-1,1.646844268E0
4.336776199E0,-2.411777735E0,7.995990515E-1,1.723810911E0
4.339240939E0,-2.452093601E0,9.730796814E-1,1.788560748E0
4.341705001E0,-2.486300945E0,1.151447058E0,1.833763480E0
4.344169793E0,-2.516843319E0,1.322484374E0,1.859419107E0
4.346635522E0,-2.543720722E0,1.489856482E0,1.852088928E0
4.349100261E0,-2.568154573E0,1.640124917E0,1.828876734E0
4.351564324E0,-2.586479902E0,1.765959382E0,1.780008912E0
4.354029116E0,-2.592588425E0,1.856364846E0,1.704263806E0
4.356494793E0,-2.586479902E0,1.911341071E0,1.605306625E0
4.358959584E0,-2.569376230E0,1.923557997E0,1.500240922E0
4.361423595E0,-2.542499065E0,1.897902489E0,1.368297815E0
4.363888439E0,-2.505848169E0,1.833152652E0,1.216807723E0
4.366354116E0,-2.465532303E0,1.732973695E0,1.055544019E0
4.368818907E0,-2.423994541E0,1.599808931E0,8.857285380E-1
4.371282918E0,-2.381235361E0,1.427550077E0,7.244648337E-1
4.373747761E0,-2.337254286E0,1.213753462E0,5.729747415E-1
4.376213439E0,-2.292051554E0,9.669712186E-1,4.520269632E-1
4.378678230E0,-2.245627165E0,6.994200945E-1,3.481829464E-1
4.381142241E0,-2.194316149E0,4.147652984E-1,2.626643181E-1
4.383607084E0,-2.138118029E0,1.191152185E-1,2.089097649E-1
4.386072761E0,-2.077033281E0,-1.740914732E-1,1.881409585E-1
4.388537501E0,-2.004953384E0,-4.648547769E-1,1.905843467E-1
4.391001564E0,-1.920656443E0,-7.568397522E-1,2.003578991E-1
4.393466355E0,-1.826586008E0,-1.035386086E0,2.150182426E-1
4.395932084E0,-1.733737230E0,-1.283390045E0,2.211267054E-1
4.398396824E0,-1.642110109E0,-1.504516840E0,2.235700935E-1
4.400860886E0,-1.551704764E0,-1.686549306E0,2.064663768E-1
4.403325678E0,-1.461299300E0,-1.838039398E0,2.125748396E-1
4.405791355E0,-1.366007209E0,-1.960208893E0,2.125748396E-1
4.408256147E0,-1.270714998E0,-2.071382999E0,2.199050188E-1
4.410720157E0,-1.177866220E0,-2.154458284E0,2.370087355E-1
4.413185001E0,-1.089904189E0,-2.209434509E0,2.626643181E-1
4.415650678E0,-1.006829023E0,-2.250972033E0,2.785463631E-1
4.418115470E0,-9.323056340E-1,-2.280292749E0,2.956500649E-1
4.420579480E0,-8.638907075E-1,-2.291288137E0,3.127537966E-1
4.423044324E0,-7.966975570E-1,-2.294953108E0,3.396310806E-1
4.425510001E0,-7.368345261E-1,-2.287622929E0,3.591781855E-1
4.427974793E0,-6.904101372E-1,-2.250972033E0,3.982724249E-1
4.430438803E0,-6.574243903E-1,-2.186222315E0,4.679090083E-1
4.432903595E0,-6.073349118E-1,-2.136132956E0,5.399889946E-1
4.435369324E0,-5.413633585E-1,-2.094595194E0,6.071822047E-1
4.437834064E0,-4.778352678E-1,-2.051836014E0,6.670452356E-1
4.440298126E0,-4.167505503E-1,-2.027402163E0,7.183563709E-1
4.442762918E0,-3.556658030E-1,-2.018850088E0,7.672241330E-1
4.445228595E0,-2.933593988E-1,-2.000524759E0,8.160919547E-1
4.447693386E0,-2.383831441E-1,-1.956543803E0,8.722898960E-1
4.450157397E0,-1.895153672E-1,-1.877133608E0,9.321529269E-1
4.452622241E0,-1.406475753E-1,-1.774511337E0,9.822424054E-1
4.455087918E0,-9.544488788E-2,-1.657228589E0,1.026223421E0
4.457552709E0,-6.123743951E-2,-1.535059214E0,1.068982720E0
4.460016720E0,-4.046862945E-2,-1.398229361E0,1.120293856E0
4.462481564E0,-3.924693540E-2,-1.227192163E0,1.171604991E0
4.464947241E0,-5.757235363E-2,-1.047603011E0,1.222916245E0
4.467412032E0,-9.422318637E-2,-8.692356348E-1,1.258345366E0
4.469876043E0,-1.443126649E-1,-7.055285573E-1,1.273005724E0
4.472340886E0,-1.992889196E-1,-5.650337338E-1,1.282779217E0
4.474806564E0,-2.591519356E-1,-4.501944184E-1,1.287665963E0
4.477271355E0,-3.190149665E-1,-3.634541333E-1,1.280335903E0
4.479735366E0,-3.776563108E-1,-3.109212518E-1,1.262010455E0
4.482200157E0,-4.338542521E-1,-2.889307439E-1,1.241241574E0
4.484665886E0,-4.851654470E-1,-2.901524603E-1,1.211920977E0
4.487130626E0,-5.315898061E-1,-3.035911024E-1,1.185043693E0
4.489594689E0,-5.755708218E-1,-3.219164908E-1,1.161831498E0
4.492059480E0,-6.171084642E-1,-3.414636254E-1,1.138619304E0
4.494525157E0,-6.549809575E-1,-3.549022675E-1,1.122737288E0
4.496989949E0,-6.940752268E-1,-3.622324169E-1,1.103190184E0
4.499453959E0,-7.331694365E-1,-3.536805511E-1,1.087308168E0
4.501918803E0,-7.685985565E-1,-3.402419090E-1,1.066539288E0
4.504384480E0,-8.040276766E-1,-3.341334462E-1,1.037218690E0
4.506849272E0,-8.357917666E-1,-3.268032968E-1,1.006676316E0
4.509313282E0,-8.675557971E-1,-3.206948042E-1,9.712471366E-1
4.511778126E0,-8.968765140E-1,-3.182514310E-1,9.309312105E-1
4.514243803E0,-9.274188280E-1,-3.255815804E-1,8.783983588E-1
4.516708595E0,-9.542961121E-1,-3.390202224E-1,8.368607163E-1
4.519172605E0,-9.775083065E-1,-3.524588645E-1,7.904363275E-1
4.521637449E0,-1.000720501E0,-3.561239541E-1,7.366818190E-1
4.524103126E0,-1.021489382E0,-3.634541333E-1,6.975875497E-1
4.526567866E0,-1.039814711E0,-3.720059693E-1,6.584933400E-1
4.529031928E0,-1.054475069E0,-3.781144619E-1,6.181774139E-1
4.531496720E0,-1.064248681E0,-3.878880143E-1,5.766398311E-1
4.533962449E0,-1.067913771E0,-3.952181637E-1,5.338805318E-1
4.536427189E0,-1.065470338E0,-4.062134326E-1,4.935645759E-1
4.538891251E0,-1.052031636E0,-4.135435820E-1,4.520269632E-1
4.541356043E0,-1.031262875E0,-4.196520746E-1,4.043808877E-1
4.543821720E0,-1.000720501E0,-4.233171642E-1,3.750602305E-1
4.546286511E0,-9.591829181E-1,-4.269822240E-1,3.530697227E-1
4.548750522E0,-9.103151560E-1,-4.233171642E-1,3.274141252E-1
4.551215366E0,-8.516737819E-1,-4.208737612E-1,3.127537966E-1
4.553681043E0,-7.857022882E-1,-4.208737612E-1,3.090887070E-1
4.556145834E0,-7.160657048E-1,-4.196520746E-1,3.066453338E-1
4.558609845E0,-6.378772259E-1,-4.123218954E-1,3.017585576E-1
4.561074689E0,-5.584670901E-1,-4.074351192E-1,3.054236174E-1
4.563540366E0,-4.790569544E-1,-4.062134326E-1,3.029802442E-1
4.566005157E0,-3.996468186E-1,-4.074351192E-1,2.846548259E-1
4.568469168E0,-3.202366829E-1,-4.159869850E-1,2.614426315E-1
4.570934011E0,-2.432699203E-1,-4.306473136E-1,2.467822880E-1
4.573399689E0,-1.663031727E-1,-4.477510452E-1,2.150182426E-1
4.575864428E0,-9.300149232E-2,-4.636330605E-1,1.759240031E-1
4.578328491E0,-2.580829710E-2,-4.795151055E-1,1.453816444E-1
4.580793282E0,3.771981969E-2,-4.917320311E-1,1.160609797E-1
4.583258959E0,9.636115283E-2,-5.002838969E-1,8.185353130E-2
4.585723751E0,1.501157135E-1,-5.027272701E-1,5.741964281E-2
4.588187814E0,1.940967143E-1,-5.002838969E-1,3.787253052E-2
4.590652605E0,2.319692522E-1,-4.880669713E-1,8.551862091E-3
4.593118282E0,2.637332976E-1,-4.782933891E-1,-2.321219631E-2
4.595583074E0,2.930539846E-1,-4.660764635E-1,-5.253286287E-2
4.598047084E0,3.260397315E-1,-4.611896873E-1,-7.330167294E-2
4.600511928E0,3.602471650E-1,-4.660764635E-1,-9.895725548E-2
4.602977605E0,3.993414044E-1,-4.721849263E-1,-1.282779276E-1
4.605442397E0,4.396573007E-1,-4.831801951E-1,-1.527118087E-1
4.607906407E0,4.763081372E-1,-5.015056133E-1,-1.734806150E-1
4.610371251E0,5.105155706E-1,-5.247178078E-1,-1.991362125E-1
4.612836928E0,5.410579443E-1,-5.479300022E-1,-2.235700935E-1
4.615301720E0,5.679352283E-1,-5.699204803E-1,-2.467822880E-1
4.617765730E0,5.948125124E-1,-5.894675851E-1,-2.724378705E-1
4.620230574E0,6.180247068E-1,-6.053496599E-1,-2.956500649E-1
4.622696251E0,6.351284385E-1,-6.151232123E-1,-3.115321100E-1
4.625160991E0,6.510104537E-1,-6.187883019E-1,-3.286358118E-1
4.627625053E0,6.607840061E-1,-6.090146899E-1,-3.518480062E-1
4.630089845E0,6.693359017E-1,-5.943543911E-1,-3.689517379E-1
4.632555522E0,6.742226481E-1,-5.723638535E-1,-3.787252903E-1
4.635020314E0,6.754443645E-1,-5.467082858E-1,-3.958290219E-1
4.637484324E0,6.766660213E-1,-5.137225389E-1,-4.117110670E-1
4.639949168E0,6.742226481E-1,-4.758500159E-1,-4.239279926E-1
4.642414845E0,6.681141853E-1,-4.367557764E-1,-4.361449480E-1
4.644879636E0,6.681141853E-1,-3.927747905E-1,-4.483618736E-1
4.647343647E0,6.656708121E-1,-3.487937748E-1,-4.618005157E-1
4.649808491E0,6.632274389E-1,-3.048127890E-1,-4.654656053E-1
4.652274168E0,6.632274389E-1,-2.571666837E-1,-4.727957845E-1
4.654738959E0,6.656708121E-1,-2.107423097E-1,-4.813476503E-1
4.657202970E0,6.681141853E-1,-1.582094431E-1,-4.862344265E-1
4.659667814E0,6.681141853E-1,-1.093416587E-1,-4.898995161E-1
4.662133491E0,6.730009913E-1,-5.925218388E-2,-4.886777997E-1
4.664598282E0,6.766660213E-1,-1.832541777E-3,-4.996730685E-1
4.667062293E0,6.827745438E-1,4.459185153E-2,-4.923428893E-1
4.669527084E0,6.888830066E-1,9.956810623E-2,-4.960079789E-1
4.671992761E0,6.974348426E-1,1.484358907E-1,-4.996730685E-1
4.674457553E0,7.084301114E-1,2.021904439E-1,-5.021164417E-1
4.676921616E0,7.194253802E-1,2.510582209E-1,-4.960079789E-1
4.679386407E0,7.316423059E-1,3.011476994E-1,-4.996730685E-1
4.681852084E0,7.524111271E-1,3.390202224E-1,-5.082249045E-1
4.684316876E0,7.744016051E-1,3.756710589E-1,-5.118899941E-1
4.686780886E0,8.012788892E-1,4.123218954E-1,-5.082249045E-1
4.689245730E0,8.293778896E-1,4.453076422E-1,-4.996730685E-1
4.691711407E0,8.574768305E-1,4.831801951E-1,-4.886777997E-1
4.694176199E0,8.880192041E-1,5.222744346E-1,-4.813476503E-1
4.696640209E0,9.210049510E-1,5.540384650E-1,-4.666872919E-1
4.699105053E0,9.552124143E-1,5.894675851E-1,-4.520269632E-1
4.701570730E0,9.943066239E-1,6.285618544E-1,-4.361449480E-1
4.704035522E0,1.033400893E0,6.713211536E-1,-4.190412164E-1
4.706499532E0,1.079825282E0,7.128587365E-1,-3.946073353E-1
4.708964376E0,1.128692985E0,7.592831254E-1,-3.677300513E-1
4.711430053E0,1.186112642E0,8.093726039E-1,-3.445178568E-1
4.713894793E0,1.252084136E0,8.606837988E-1,-3.090887070E-1
4.716358855E0,1.325385809E0,9.205468297E-1,-2.761029601E-1
4.718823647E0,1.406017661E0,9.852966070E-1,-2.357870489E-1
4.721289324E0,1.496423125E0,1.056154966E0,-1.991362125E-1
4.723754116E0,1.595380306E0,1.145338655E0,-1.612636745E-1
4.726218126E0,1.700446010E0,1.246739268E0,-1.282779276E-1
4.728682970E0,1.811620235E0,1.354248405E0,-9.284878522E-2
4.731148647E0,1.922794461E0,1.467865944E0,-6.841489673E-2
4.733613439E0,2.033968687E0,1.574153423E0,-4.520269856E-2
4.736077449E0,2.142699480E0,1.673110604E0,-3.054236248E-2
4.738542293E0,2.247765303E0,1.743968964E0,-2.321219631E-2
4.741007970E0,2.340614080E0,1.785506487E0,-1.832541823E-2
4.743472761E0,2.421245813E0,1.798945189E0,-1.832541823E-2
4.745936772E0,2.487217426E0,1.780619740E0,-1.710372418E-2
4.748401616E0,2.540971994E0,1.729308605E0,-1.954711229E-2
4.750867293E0,2.580066204E0,1.656006932E0,-3.054236248E-2
4.753332084E0,2.603278399E0,1.557049632E0,-3.298575059E-2
4.755796095E0,2.608165026E0,1.451983929E0,-5.375456065E-2
4.758260886E0,2.594726562E0,1.337144613E0,-7.818844914E-2
4.760726616E0,2.569070816E0,1.210088372E0,-1.001789495E-1
4.763191355E0,2.525089741E0,1.085475564E0,-1.307213157E-1
4.765655418E0,2.471335411E0,9.608627558E-1,-1.551551968E-1
4.768120209E0,2.404142141E0,8.448017836E-1,-1.918060333E-1
4.770585886E0,2.323510170E0,7.250757217E-1,-2.247917950E-1
4.773050678E0,2.235548258E0,6.114581227E-1,-2.626643181E-1
4.775514689E0,2.140256166E0,4.953971207E-1,-3.115321100E-1
4.777979532E0,2.036412001E0,3.793361485E-1,-3.628432751E-1
4.780445209E0,1.926459551E0,2.693836391E-1,-4.104893506E-1
4.782910001E0,1.809176922E0,1.704263836E-1,-4.691306949E-1
4.785374011E0,1.688229084E0,7.635590434E-2,-5.216635466E-1
4.787838855E0,1.561172843E0,-1.404948719E-2,-5.851916671E-1
4.790304532E0,1.429229856E0,-9.590301663E-2,-6.487197876E-1
4.792769324E0,1.294843435E0,-1.704263836E-1,-7.024743557E-1
4.795233334E0,1.154348612E0,-2.315111160E-1,-7.440119386E-1
4.797698178E0,1.012632012E0,-2.828222811E-1,-7.745543122E-1
4.800163855E0,8.672503829E-1,-3.255815804E-1,-7.977665067E-1
4.802628595E0,7.218687534E-1,-3.695625961E-1,-8.209787011E-1
4.805092657E0,5.777087808E-1,-4.062134326E-1,-8.344173431E-1
4.807557501E0,4.372139275E-1,-4.428642690E-1,-8.393041492E-1
4.810023178E0,2.991624475E-1,-4.758500159E-1,-8.429692388E-1
4.812487918E0,1.647760421E-1,-5.076140761E-1,-8.380824327E-1
4.814951928E0,3.283303976E-2,-5.259394646E-1,-8.319739699E-1
4.817416772E0,-9.422318637E-2,-5.405998230E-1,-8.173136115E-1
4.819882449E0,-2.188360244E-1,-5.503733754E-1,-8.148702383E-1
4.822347241E0,-3.373403847E-1,-5.564818382E-1,-8.136485219E-1
4.824811251E0,-4.497362971E-1,-5.662553906E-1,-8.173136115E-1
4.827276095E0,-5.584670901E-1,-5.686988235E-1,-8.234221339E-1
4.829741772E0,-6.610894203E-1,-5.662553906E-1,-8.331956863E-1
4.832206564E0,-7.588250041E-1,-5.650337338E-1,-8.405258060E-1
4.834670574E0,-8.516737819E-1,-5.589252710E-1,-8.515210748E-1
4.837135418E0,-9.347490072E-1,-5.515950918E-1,-8.539644480E-1
4.839601095E0,-1.011715770E0,-5.430431962E-1,-8.637380004E-1
4.842065886E0,-1.080130696E0,-5.332696438E-1,-8.698465228E-1
4.844529897E0,-1.144880533E0,-5.296045542E-1,-8.710681796E-1
4.846994741E0,-1.198634982E0,-5.247178078E-1,-8.771766424E-1
4.849460418E0,-1.243837714E0,-5.247178078E-1,-8.906152844E-1
4.851925157E0,-1.279266834E0,-5.369347334E-1,-8.918370008E-1
4.854389220E0,-1.304922462E0,-5.589252710E-1,-9.028322697E-1
4.856854011E0,-1.313474298E0,-5.943543911E-1,-9.138274789E-1
4.859319689E0,-1.312252641E0,-6.358919740E-1,-9.272661209E-1
4.861784480E0,-1.300035715E0,-6.823163629E-1,-9.345963001E-1
4.864248491E0,-1.275601745E0,-7.348492742E-1,-9.431481957E-1
4.866713334E0,-1.243837714E0,-7.824953198E-1,-9.578084946E-1
4.869179011E0,-1.204743505E0,-8.289197087E-1,-9.675820470E-1
4.871643803E0,-1.158319116E0,-8.753440976E-1,-9.663603902E-1
4.874107814E0,-1.105786204E0,-9.107732773E-1,-9.712471366E-1
4.876572657E0,-1.052031636E0,-9.400939345E-1,-9.688037634E-1
4.879038334E0,-9.946120381E-1,-9.559759498E-1,-9.724688530E-1
4.881503126E0,-9.335273504E-1,-9.633061290E-1,-9.712471366E-1
4.883967136E0,-8.761076927E-1,-9.645278454E-1,-9.749122262E-1
4.886431980E0,-8.150229454E-1,-9.559759498E-1,-9.736905098E-1
4.888897657E0,-7.539382577E-1,-9.290986657E-1,-9.700254202E-1
4.891362397E0,-6.940752268E-1,-8.900044560E-1,-9.675820470E-1
4.893826459E0,-6.317687631E-1,-8.435800672E-1,-9.553651214E-1
4.896291251E0,-5.657972693E-1,-8.008207679E-1,-9.394831061E-1
4.898756980E0,-4.961606860E-1,-7.617265582E-1,-9.138274789E-1
4.901221720E0,-4.253024161E-1,-7.250757217E-1,-8.771766424E-1
4.903685730E0,-3.495573401E-1,-6.945333481E-1,-8.283088803E-1
4.906150574E0,-2.750339806E-1,-6.713211536E-1,-7.660024762E-1
4.908616251E0,-1.992889196E-1,-6.456655264E-1,-6.902574301E-1
4.911081043E0,-1.235438585E-1,-6.151232123E-1,-6.084038615E-1
4.913545053E0,-4.657710344E-2,-5.784723759E-1,-5.179984570E-1
4.916009897E0,2.916795574E-2,-5.344913602E-1,-4.202629030E-1
4.918475574E0,1.024696305E-1,-4.782933891E-1,-3.237490356E-1
4.920940366E0,1.757712960E-1,-4.184303582E-1,-2.321219593E-1
4.923404376E0,2.441861928E-1,-3.439069986E-1,-1.368297935E-1
4.925869220E0,3.040492237E-1,-2.486148328E-1,-4.031591862E-2
4.928334897E0,3.516952991E-1,-1.313321590E-1,5.741964281E-2
4.930799689E0,3.944546282E-1,6.108472589E-4,1.490467340E-1
4.933263699E0,4.298837483E-1,1.398840249E-1,2.345653474E-1
4.935728543E0,4.543176591E-1,2.791571915E-1,3.200839758E-1
4.938194220E0,4.653128982E-1,4.282039404E-1,4.043808877E-1
4.940658959E0,4.665345848E-1,5.967977643E-1,4.886777997E-1
4.943123022E0,4.494308829E-1,7.947123051E-1,5.754181147E-1
4.945587814E0,4.164451063E-1,1.026834249E0,6.646018028E-1
4.948053491E0,3.614688516E-1,1.291942000E0,7.586722970E-1
4.950518282E0,2.808370292E-1,1.585148692E0,8.637380004E-1
4.952982293E0,1.659977436E-1,1.899124146E0,9.749122262E-1
4.955447136E0,1.450762246E-2,2.213099718E0,1.092194915E0
4.957912814E0,-1.760767251E-1,2.494089365E0,1.203369141E0
4.960377605E0,-3.996468186E-1,2.712925434E0,1.297439575E0
4.962841616E0,-6.452074051E-1,2.846090078E0,1.363411069E0
4.965306459E0,-8.944330812E-1,2.877854109E0,1.364632726E0
4.967772136E0,-1.122889996E0,2.805774212E0,1.319430113E0
4.970236928E0,-1.317139387E0,2.660392523E0,1.227802992E0
4.972700939E0,-1.461299300E0,2.465990305E0,1.109298587E0
4.975165782E0,-1.548039675E0,2.228981733E0,9.956810474E-1
4.977631459E0,-1.579803705E0,1.974869132E0,8.845068216E-1
4.980096199E0,-1.557813168E0,1.701209664E0,7.977665067E-1
4.982560261E0,-1.480846524E0,1.401894450E0,7.134696245E-1
4.985025053E0,-1.355011940E0,1.086697221E0,6.255075932E-1
4.987490782E0,-1.193748236E0,7.800519466E-1,5.338805318E-1
4.989955522E0,-9.958337545E-1,4.880669713E-1,4.410317242E-1
4.992419584E0,-7.563816309E-1,2.302894145E-1,3.420744538E-1
4.994884376E0,-4.815003574E-1,4.275931045E-3,2.480039895E-1
4.997350053E0,-1.931804419E-1,-1.887518018E-1,1.514901221E-1
4.999814845E0,1.012479365E-1,-3.683409095E-1,6.474980712E-2
5.002278855E0,3.944546282E-1,-5.247178078E-1,-2.687728032E-2
5.004743699E0,6.754443645E-1,-6.529957056E-1,-1.294996142E-1
5.007209376E0,9.393303990E-1,-7.470661998E-1,-2.321219593E-1
5.009674168E0,1.173895717E0,-8.167027831E-1,-3.432961702E-1
5.012138178E0,1.380362034E0,-8.594620824E-1,-4.740174711E-1
5.014603022E0,1.557507753E0,-8.790091872E-1,-6.120689511E-1
5.017068699E0,1.706554532E0,-8.704573512E-1,-7.537854910E-1
5.019533491E0,1.823837161E0,-8.386932611E-1,-8.881719112E-1
5.021997501E0,1.917907715E0,-7.922688723E-1,-1.016449809E0
5.024462345E0,1.991209388E0,-7.409577370E-1,-1.121515512E0
5.026928022E0,2.043742180E0,-6.810947061E-1,-1.207034230E0
5.029392761E0,2.073062897E0,-6.187883019E-1,-1.264453769E0
5.031856824E0,2.082836390E0,-5.699204803E-1,-1.298661232E0
5.034321616E0,2.063289404E0,-5.296045542E-1,-1.296217918E0
5.036787293E0,1.986322522E0,-4.636330605E-1,-1.266897202E0
5.039252084E0,1.860488057E0,-3.720059693E-1,-1.222916245E0
5.041716095E0,1.734653473E0,-2.901524603E-1,-1.166718245E0
5.044180939E0,1.630809426E0,-2.119639963E-1,-1.109298587E0
5.046646616E0,1.536738992E0,-1.264453828E-1,-1.064095974E0
5.049111407E0,1.436560035E0,-2.748812735E-2,-1.027445078E0
5.051575418E0,1.305838704E0,8.857285231E-2,-1.004232883E0
5.054040261E0,1.149461865E0,1.960819662E-1,-9.736905098E-1
5.056505939E0,9.833113551E-1,3.035911024E-1,-9.089407325E-1
5.058970730E0,8.110524416E-1,4.098785222E-1,-8.222004175E-1
