"Time (s)","Gyroscope x (rad/s)","Gyroscope y (rad/s)","Gyroscope z (rad/s)"
6.049677100E-2,-9.627043456E-2,-4.300878346E-1,-5.579157919E-2
6.296281300E-2,-9.946613014E-2,-4.290226102E-1,-5.153064802E-2
6.542885400E-2,-1.069227681E-1,-4.258269072E-1,-5.259587988E-2
6.789489600E-2,-1.186403260E-1,-4.194355011E-1,-4.726971686E-2
7.036093800E-2,-1.282274276E-1,-4.151745737E-1,-4.513924941E-2
7.282697900E-2,-1.388797611E-1,-4.109136462E-1,-4.194355011E-2
7.529302100E-2,-1.505973190E-1,-4.109136462E-1,-3.874785081E-2
7.775906300E-2,-1.665758193E-1,-4.034570158E-1,-3.448691964E-2
8.022510400E-2,-1.772281379E-1,-3.949351311E-1,-2.916075476E-2
8.269114600E-2,-1.857500076E-1,-3.842828274E-1,-2.276935615E-2
8.515718800E-2,-2.049241960E-1,-3.704347908E-1,-1.744319126E-2
8.762322900E-2,-2.177069932E-1,-3.565867543E-1,-1.105179265E-2
9.008927100E-2,-2.326202542E-1,-3.459344208E-1,-4.660394508E-3
9.255531300E-2,-2.454030514E-1,-3.374125659E-1,5.991935730E-3
9.502135400E-2,-2.571206093E-1,-3.342168629E-1,1.877473295E-2
9.748739600E-2,-2.635120153E-1,-3.352820873E-1,2.942706272E-2
9.995343800E-2,-2.656424940E-1,-3.395430148E-1,4.434032366E-2
1.024194790E-1,-2.624467909E-1,-3.491301239E-1,6.031882018E-2
1.048855210E-1,-2.613815665E-1,-3.629781604E-1,7.842778414E-2
1.073515630E-1,-2.581858635E-1,-3.789566457E-1,9.334104508E-2
1.098176040E-1,-2.517944574E-1,-3.949351311E-1,1.071890742E-1
1.122836460E-1,-2.422073632E-1,-4.141093493E-1,1.189066395E-1
1.147496880E-1,-2.347507328E-1,-4.290226102E-1,1.316894293E-1
1.172157290E-1,-2.230331600E-1,-4.439358711E-1,1.412765235E-1
1.196817710E-1,-2.113156021E-1,-4.503272474E-1,1.476679295E-1
1.221478130E-1,-1.974675655E-1,-4.513925016E-1,1.540593207E-1
1.246138540E-1,-1.825543046E-1,-4.450010955E-1,1.593854874E-1
1.270798960E-1,-1.665758193E-1,-4.354139864E-1,1.647116542E-1
1.295459380E-1,-1.474016160E-1,-4.322183132E-1,1.709699035E-1
1.320119790E-1,-1.314231306E-1,-4.194355011E-1,1.741656065E-1
1.344780210E-1,-1.154446304E-1,-4.098483920E-1,1.805569977E-1
1.369440630E-1,-9.627043456E-2,-3.970656097E-1,1.880136281E-1
1.394101040E-1,-7.496577501E-2,-3.864132762E-1,1.933397949E-1
1.418761460E-1,-5.579157919E-2,-3.757609427E-1,2.007964253E-1
1.443421880E-1,-3.768261895E-2,-3.619129062E-1,2.061225921E-1
1.468082290E-1,-1.531272475E-2,-3.523258269E-1,2.114487588E-1
1.492742710E-1,3.861469682E-3,-3.406082690E-1,2.146444470E-1
1.517403130E-1,2.303566411E-2,-3.246297538E-1,2.178401500E-1
1.542063540E-1,4.220985994E-2,-3.119801283E-1,2.199706137E-1
1.566723960E-1,5.499265343E-2,-2.928059399E-1,2.221010923E-1
1.591384380E-1,6.884068251E-2,-2.704360485E-1,2.231663167E-1
1.616044790E-1,7.829462737E-2,-2.491313666E-1,2.231663167E-1
1.640705210E-1,8.788172156E-2,-2.310224175E-1,2.210358530E-1
1.665365630E-1,9.959928691E-2,-2.161091566E-1,2.199706137E-1
1.690026040E-1,1.081211492E-1,-2.065220475E-1,2.189053893E-1
1.714686460E-1,1.166430190E-1,-1.958697289E-1,2.189053893E-1
1.739346880E-1,1.272953451E-1,-1.884130985E-1,2.199706137E-1
1.764007290E-1,1.379476786E-1,-1.873478591E-1,2.189053893E-1
1.788667710E-1,1.432738453E-1,-1.862826198E-1,2.178401500E-1
1.813328130E-1,1.560566425E-1,-1.830869317E-1,2.157096863E-1
1.837988540E-1,1.635132730E-1,-1.862826198E-1,2.135792226E-1
1.862648960E-1,1.731003672E-1,-1.841521561E-1,2.082530558E-1
1.887309380E-1,1.869483888E-1,-1.788259894E-1,2.007964253E-1
1.911969790E-1,1.954702586E-1,-1.777607650E-1,1.954702586E-1
1.936630210E-1,1.986659616E-1,-1.788259894E-1,1.901440918E-1
1.961290630E-1,2.093182951E-1,-1.777607650E-1,1.816222370E-1
1.985951040E-1,2.210358530E-1,-1.766955256E-1,1.773612946E-1
2.010611460E-1,2.306229472E-1,-1.809564531E-1,1.720351279E-1
2.035271880E-1,2.391448170E-1,-1.841521561E-1,1.647116542E-1
2.059932290E-1,2.466014475E-1,-1.830869317E-1,1.583202630E-1
2.084592710E-1,2.583190203E-1,-1.873478591E-1,1.508636326E-1
2.109253130E-1,2.711018026E-1,-1.862826198E-1,1.444722265E-1
2.133913540E-1,2.806889117E-1,-1.841521561E-1,1.370155960E-1
2.158573960E-1,2.902759910E-1,-1.820216924E-1,1.284937263E-1
2.183234380E-1,3.030588031E-1,-1.788259894E-1,1.221023351E-1
2.207894790E-1,3.115806580E-1,-1.766955256E-1,1.167761683E-1
2.232555210E-1,3.232982159E-1,-1.756303012E-1,1.093195379E-1
2.257215630E-1,3.350157738E-1,-1.734998226E-1,1.061238423E-1
2.281876040E-1,3.414071798E-1,-1.692388952E-1,1.018629074E-1
2.306536460E-1,3.477985859E-1,-1.692388952E-1,9.866721183E-2
2.331196880E-1,3.584509194E-1,-1.660431921E-1,9.760197252E-2
2.355857290E-1,3.680379987E-1,-1.681736708E-1,9.227581322E-2
2.380517710E-1,3.744294047E-1,-1.681736708E-1,8.801487833E-2
2.405178130E-1,3.808208108E-1,-1.617822647E-1,8.268871158E-2
2.429838540E-1,3.861469626E-1,-1.649779677E-1,7.842778414E-2
2.454498960E-1,3.904078901E-1,-1.628475040E-1,7.842778414E-2
2.479159380E-1,3.904078901E-1,-1.639127284E-1,7.629731297E-2
2.503819790E-1,3.914731443E-1,-1.692388952E-1,7.523208112E-2
2.528480210E-1,3.946688473E-1,-1.724345982E-1,7.842778414E-2
2.553140630E-1,3.978645205E-1,-1.820216924E-1,7.523208112E-2
2.577801040E-1,3.946688473E-1,-1.937392503E-1,7.310161740E-2
2.602461460E-1,3.904078901E-1,-2.043915838E-1,7.203638554E-2
2.627121880E-1,3.882774413E-1,-2.139786780E-1,7.523208112E-2
2.651782290E-1,3.818860352E-1,-2.246310115E-1,7.416684926E-2
2.676442710E-1,3.765598834E-1,-2.320876420E-1,7.097115368E-2
2.701103130E-1,3.680379987E-1,-2.427399755E-1,6.884068251E-2
2.725763540E-1,3.595161438E-1,-2.480661422E-1,6.990591437E-2
2.750423960E-1,3.509942889E-1,-2.523270845E-1,6.564498693E-2
2.775084380E-1,3.424724042E-1,-2.576532364E-1,6.351451576E-2
2.799744790E-1,3.318201005E-1,-2.661750913E-1,6.138405204E-2
2.824405210E-1,3.232982159E-1,-2.704360485E-1,6.244928762E-2
2.849065630E-1,3.158415854E-1,-2.757622004E-1,5.818835273E-2
2.873726040E-1,3.094501793E-1,-2.821536064E-1,5.605788901E-2
2.898386460E-1,3.041240275E-1,-2.821536064E-1,4.966649041E-2
2.923046880E-1,3.009283245E-1,-2.832188308E-1,4.647079110E-2
2.947707290E-1,2.956021726E-1,-2.853493094E-1,4.220985994E-2
2.972367710E-1,2.924064696E-1,-2.832188308E-1,3.794892505E-2
2.997028130E-1,2.924064696E-1,-2.832188308E-1,3.368799388E-2
3.021688540E-1,2.913412452E-1,-2.810883522E-1,2.942706272E-2
3.046348960E-1,2.956021726E-1,-2.768274248E-1,2.729659714E-2
3.071009380E-1,2.977326214E-1,-2.704360485E-1,2.516612969E-2
3.095669790E-1,3.019935489E-1,-2.661750913E-1,2.303566411E-2
3.120330210E-1,3.019935489E-1,-2.651098669E-1,2.090519853E-2
3.144990630E-1,3.094501793E-1,-2.555227578E-1,1.770949923E-2
3.169651040E-1,3.158415854E-1,-2.523270845E-1,1.770949923E-2
3.194311460E-1,3.158415854E-1,-2.438052148E-1,1.664426550E-2
3.218971880E-1,3.201025128E-1,-2.331528813E-1,1.664426550E-2
3.243632290E-1,3.264939189E-1,-2.193048447E-1,1.664426550E-2
3.268292710E-1,3.264939189E-1,-2.118482143E-1,1.664426550E-2
3.292953130E-1,3.328853250E-1,-2.065220475E-1,1.770949923E-2
3.317613540E-1,3.339505494E-1,-2.043915838E-1,2.303566411E-2
3.342273960E-1,3.328853250E-1,-2.011958808E-1,2.516612969E-2
3.366934380E-1,3.328853250E-1,-2.043915838E-1,2.303566411E-2
3.391594790E-1,3.307548463E-1,-2.129134536E-1,2.197043039E-2
3.416255210E-1,3.275591433E-1,-2.225005478E-1,2.197043039E-2
3.440915630E-1,3.254286945E-1,-2.363485843E-1,1.983996481E-2
3.465576040E-1,3.169068098E-1,-2.523270845E-1,1.770949923E-2
3.490236460E-1,3.073197305E-1,-2.715012729E-1,1.451379992E-2
3.514896880E-1,2.987978756E-1,-2.842840552E-1,1.025286783E-2
3.539557290E-1,2.913412452E-1,-2.970668674E-1,7.057168987E-3
3.564217710E-1,2.838846147E-1,-3.066539466E-1,1.731003635E-3
3.588878130E-1,2.679060996E-1,-3.203688264E-1,-5.725627299E-3
3.613538540E-1,2.572537661E-1,-3.256950080E-1,-8.921326138E-3
3.638198960E-1,2.434057444E-1,-3.288906813E-1,-1.637795754E-2
3.662859380E-1,2.316881865E-1,-3.310211599E-1,-2.063889056E-2
3.687519790E-1,2.167749256E-1,-3.278254569E-1,-2.916075476E-2
3.712180210E-1,2.050573528E-1,-3.288906813E-1,-3.448691964E-2
3.736840630E-1,1.954702586E-1,-3.235645294E-1,-3.661738336E-2
3.761501040E-1,1.837527007E-1,-3.162410557E-1,-3.874785081E-2
3.786161460E-1,1.731003672E-1,-3.119801283E-1,-3.981308267E-2
3.810821880E-1,1.656437367E-1,-3.087844253E-1,-3.661738336E-2
3.835482290E-1,1.592523307E-1,-3.045234978E-1,-2.809552103E-2
3.860142710E-1,1.549914032E-1,-2.970668674E-1,-2.170412242E-2
3.884803130E-1,1.507304758E-1,-2.938711643E-1,-1.637795754E-2
3.909463540E-1,1.475347728E-1,-2.949363887E-1,-7.856093347E-3
3.934123960E-1,1.411433816E-1,-2.864145339E-1,1.731003635E-3
3.958784380E-1,1.326215118E-1,-2.874797583E-1,1.557903271E-2
3.983444790E-1,1.262301207E-1,-2.874797583E-1,2.516612969E-2
4.008105210E-1,1.166430190E-1,-2.842840552E-1,3.688369319E-2
4.032765630E-1,9.959928691E-2,-2.842840552E-1,4.753602296E-2
4.057426040E-1,8.362079412E-2,-2.938711643E-1,5.605788901E-2
4.082086460E-1,7.416684926E-2,-2.991973162E-1,6.138405204E-2
4.106746880E-1,5.712312087E-2,-3.077192008E-1,6.671021879E-2
4.131407290E-1,3.368799388E-2,-3.173062801E-1,7.097115368E-2
4.156067710E-1,1.664426550E-2,-3.310211599E-1,7.736254483E-2
4.180728130E-1,-5.725627299E-3,-3.438039720E-1,8.481918275E-2
4.205388540E-1,-2.703028731E-2,-3.501953483E-1,9.014534205E-2
4.230048960E-1,-4.726971686E-2,-3.555215299E-1,9.440627694E-2
4.254709380E-1,-6.644391268E-2,-3.576519787E-1,9.866721183E-2
4.279369790E-1,-8.881380409E-2,-3.555215299E-1,9.866721183E-2
4.304030210E-1,-1.101184636E-1,-3.480648994E-1,1.007976755E-1
4.328690630E-1,-1.282274276E-1,-3.384777904E-1,1.007976755E-1
4.353351040E-1,-1.474016160E-1,-3.224993050E-1,9.866721183E-2
4.378011460E-1,-1.687062830E-1,-3.077192008E-1,9.653674066E-2
4.402671880E-1,-1.857500076E-1,-2.917406857E-1,9.440627694E-2
4.427332290E-1,-2.038589716E-1,-2.704360485E-1,9.121058136E-2
4.451992710E-1,-2.198374718E-1,-2.501966059E-1,9.227581322E-2
4.476653130E-1,-2.336854935E-1,-2.331528813E-1,9.014534205E-2
4.501313540E-1,-2.475335300E-1,-2.107829899E-1,8.801487833E-2
4.525973960E-1,-2.624467909E-1,-1.894783229E-1,8.908011019E-2
4.550634380E-1,-2.752295732E-1,-1.681736708E-1,8.801487833E-2
4.575294790E-1,-2.848166823E-1,-1.468690038E-1,8.801487833E-2
4.599955210E-1,-2.944037914E-1,-1.244991124E-1,9.227581322E-2
4.624615630E-1,-3.039908707E-1,-1.031944528E-1,9.866721183E-2
4.649276040E-1,-3.157084286E-1,-7.975932211E-2,1.050586104E-1
4.673936460E-1,-3.242303133E-1,-6.058513001E-2,1.135804728E-1
4.698596880E-1,-3.338173926E-1,-4.886756465E-2,1.284937263E-1
4.723257290E-1,-3.444697261E-1,-4.034570232E-2,1.455374658E-1
4.747917710E-1,-3.529915810E-1,-3.821523488E-2,1.636464298E-1
4.772578130E-1,-3.583177626E-1,-4.354140162E-2,1.826874614E-1
4.797238540E-1,-3.657743931E-1,-5.099803209E-2,2.029268891E-1
4.821898960E-1,-3.742962480E-1,-6.058513001E-2,2.199706137E-1
4.846559380E-1,-3.796224296E-1,-7.762885839E-2,2.391448170E-1
4.871219790E-1,-3.881442845E-1,-8.828118443E-2,2.551233172E-1
4.895880210E-1,-3.956009150E-1,-1.010639817E-1,2.721670270E-1
4.920540630E-1,-4.030575454E-1,-1.085206121E-1,2.860150635E-1
4.945201040E-1,-4.062532485E-1,-1.149120107E-1,2.987978756E-1
4.969861460E-1,-4.147751033E-1,-1.223686412E-1,3.137111366E-1
4.994521880E-1,-4.211665094E-1,-1.149120107E-1,3.286243975E-1
5.019182290E-1,-4.275579154E-1,-1.127815470E-1,3.467333615E-1
5.043842710E-1,-4.307536185E-1,-1.106510833E-1,3.648423254E-1
5.068503130E-1,-4.307536185E-1,-1.021292135E-1,3.808208108E-1
5.093163540E-1,-4.328840673E-1,-9.041165560E-2,3.957340717E-1
5.117823960E-1,-4.318188429E-1,-7.869409025E-2,4.117125571E-1
5.142484380E-1,-4.264926612E-1,-7.017222792E-2,4.223648906E-1
5.167144790E-1,-4.264926612E-1,-5.738943070E-2,4.351477027E-1
5.191805210E-1,-4.169055820E-1,-4.886756465E-2,4.458000064E-1
5.216465630E-1,-4.083836973E-1,-3.715000302E-2,4.553871155E-1
5.241126040E-1,-3.987966180E-1,-3.395430371E-2,4.628437459E-1
5.265786460E-1,-3.849485815E-1,-2.756290510E-2,4.692351520E-1
5.290446880E-1,-3.668396175E-1,-2.223674022E-2,4.745613039E-1
5.315107290E-1,-3.487306535E-1,-2.223674022E-2,4.724308550E-1
5.339767710E-1,-3.306216896E-1,-2.862813696E-2,4.649742246E-1
5.364428130E-1,-3.125127256E-1,-3.288906813E-2,4.585828185E-1
5.389088540E-1,-2.912080884E-1,-4.460663348E-2,4.489957094E-1
5.413748960E-1,-2.709686458E-1,-6.058513001E-2,4.372781515E-1
5.438409380E-1,-2.528596818E-1,-7.336792350E-2,4.266258180E-1
5.463069790E-1,-2.390116602E-1,-8.402025700E-2,4.149082601E-1
5.487730210E-1,-2.262288630E-1,-9.360735118E-2,4.031907022E-1
5.512390630E-1,-2.134460658E-1,-1.053249165E-1,3.914731443E-1
5.537051040E-1,-2.038589716E-1,-1.223686412E-1,3.808208108E-1
5.561711460E-1,-1.964023411E-1,-1.340862066E-1,3.701684773E-1
5.586371880E-1,-1.868152469E-1,-1.458037645E-1,3.552552164E-1
5.611032290E-1,-1.804238409E-1,-1.553908736E-1,3.435376585E-1
5.635692710E-1,-1.750976741E-1,-1.617822647E-1,3.286243975E-1
5.660353130E-1,-1.708367467E-1,-1.724345982E-1,3.147763610E-1
5.685013540E-1,-1.601844132E-1,-1.798912287E-1,3.030588031E-1
5.709673960E-1,-1.548582464E-1,-1.905435622E-1,2.892107666E-1
5.734334380E-1,-1.442059278E-1,-1.969349533E-1,2.796236575E-1
5.758994790E-1,-1.356840581E-1,-2.065220475E-1,2.689713240E-1
5.783655210E-1,-1.282274276E-1,-2.118482143E-1,2.551233172E-1
5.808315630E-1,-1.175750941E-1,-2.193048447E-1,2.423405200E-1
5.832976040E-1,-1.015966013E-1,-2.235657871E-1,2.263620198E-1
5.857636460E-1,-9.413997084E-2,-2.267614752E-1,2.125139832E-1
5.882296880E-1,-8.455286920E-2,-2.267614752E-1,1.986659616E-1
5.906957290E-1,-7.283531129E-2,-2.288919389E-1,1.837527007E-1
5.931617710E-1,-5.898727849E-2,-2.235657871E-1,1.668421179E-1
5.956278130E-1,-4.940018058E-2,-2.182396203E-1,1.551245600E-1
5.980938540E-1,-3.981308267E-2,-2.150439173E-1,1.391460598E-1
6.005598960E-1,-2.703028731E-2,-2.139786780E-1,1.231675670E-1
6.030259380E-1,-1.105179265E-2,-2.097177505E-1,1.061238423E-1
6.054919790E-1,8.122402243E-3,-2.065220475E-1,9.121058136E-2
6.079580210E-1,3.155753016E-2,-2.011958808E-1,7.416684926E-2
6.104240630E-1,5.286218971E-2,-1.958697289E-1,5.605788901E-2
6.128901040E-1,7.722939551E-2,-1.884130985E-1,4.007939249E-2
6.153561460E-1,1.038602218E-1,-1.798912287E-1,2.197043039E-2
6.178221880E-1,1.304910481E-1,-1.724345982E-1,6.657706108E-4
6.202882290E-1,1.635132730E-1,-1.713693589E-1,-2.063889056E-2
6.227542710E-1,1.933397949E-1,-1.713693589E-1,-4.087831825E-2
6.252203130E-1,2.231663167E-1,-1.681736708E-1,-6.324820966E-2
6.276863540E-1,2.583190203E-1,-1.703041345E-1,-8.774857223E-2
6.301523960E-1,2.934716940E-1,-1.671084315E-1,-1.122489274E-1
6.326184380E-1,3.264939189E-1,-1.639127284E-1,-1.388797611E-1
6.350844790E-1,3.616466224E-1,-1.585865617E-1,-1.665758193E-1
6.375505210E-1,4.031907022E-1,-1.553908736E-1,-1.921414137E-1
6.400165630E-1,4.404738545E-1,-1.532603949E-1,-2.166417688E-1
6.424826040E-1,4.841484129E-1,-1.479342431E-1,-2.411421239E-1
6.449486460E-1,5.246272683E-1,-1.351514459E-1,-2.667077184E-1
6.474146880E-1,5.672366023E-1,-1.181077138E-1,-2.869471312E-1
6.498807290E-1,6.087806821E-1,-1.042596847E-1,-3.071865737E-1
6.523467710E-1,6.513900161E-1,-8.934641629E-2,-3.231650591E-1
6.548128130E-1,6.959966421E-1,-7.230269164E-2,-3.370130956E-1
6.572788540E-1,7.364754677E-1,-5.206326395E-2,-3.551220596E-1
6.597448960E-1,7.758890986E-1,-3.395430371E-2,-3.700353205E-1
6.622109380E-1,8.153027296E-1,-1.691057347E-2,-3.817528784E-1
6.646769790E-1,8.557815552E-1,1.331541280E-4,-3.934704363E-1
6.671430210E-1,8.866733313E-1,9.720250964E-3,-4.083836973E-1
6.696090630E-1,9.133041501E-1,1.717688330E-2,-4.179708064E-1
6.720751040E-1,9.346088171E-1,2.782921307E-2,-4.296883643E-1
6.745411460E-1,9.580439329E-1,3.528584540E-2,-4.434032440E-1
6.770071880E-1,9.750877023E-1,3.741630912E-2,-4.604469836E-1
6.794732290E-1,9.889357090E-1,3.741630912E-2,-4.806863964E-1
6.819392710E-1,1.002783775E0,3.954677656E-2,-4.998605847E-1
6.844053130E-1,1.008109927E0,4.061200842E-2,-5.232957006E-1
6.868713540E-1,1.010240316E0,3.954677656E-2,-5.456656218E-1
6.893373960E-1,1.011305571E0,3.741630912E-2,-5.691007376E-1
6.918034380E-1,1.007044673E0,3.741630912E-2,-5.957315564E-1
6.942694790E-1,1.005979419E0,2.995967865E-2,-6.149057746E-1
6.967355210E-1,1.001718521E0,2.463351376E-2,-6.340799332E-1
6.992015630E-1,9.974575639E-1,1.611164957E-2,-6.553846002E-1
7.016676040E-1,9.900009632E-1,4.394086078E-3,-6.724283695E-1
7.041336460E-1,9.804138541E-1,-9.320789250E-4,-6.841459274E-1
7.065996880E-1,9.718919992E-1,-1.997311832E-3,-6.947982311E-1
7.090657290E-1,9.633701444E-1,1.198387123E-3,-7.033200860E-1
7.115317710E-1,9.548482299E-1,5.459319334E-3,-7.097114921E-1
7.139978130E-1,9.431306720E-1,1.717688330E-2,-7.161028981E-1
7.164638540E-1,9.388697743E-1,3.422060981E-2,-7.192986012E-1
7.189298960E-1,9.346088171E-1,4.487293959E-2,-7.246247530E-1
7.213959380E-1,9.367392659E-1,5.872096866E-2,-7.299509048E-1
7.238619790E-1,9.399349689E-1,7.469946891E-2,-7.352771163E-1
7.263280210E-1,9.463263750E-1,8.641702682E-2,-7.363423109E-1
7.287940630E-1,9.548482299E-1,9.600412846E-2,-7.395380139E-1
7.312601040E-1,9.644353390E-1,1.066564545E-1,-7.459294200E-1
7.337261460E-1,9.804138541E-1,1.173087880E-1,-7.501903772E-1
7.361921880E-1,9.963923693E-1,1.237001866E-1,-7.555165291E-1
7.386582290E-1,1.012370825E0,1.279611140E-1,-7.597774267E-1
7.411242710E-1,1.024088383E0,1.332872808E-1,-7.619079351E-1
7.435903130E-1,1.037936449E0,1.354177445E-1,-7.651036382E-1
7.460563540E-1,1.047523499E0,1.375482082E-1,-7.629731297E-1
7.485223960E-1,1.058175802E0,1.375482082E-1,-7.619079351E-1
7.509884380E-1,1.067762971E0,1.322220564E-1,-7.587122321E-1
7.534544790E-1,1.066697717E0,1.300915778E-1,-7.491251230E-1
7.559205210E-1,1.068828225E0,1.215697154E-1,-7.352771163E-1
7.583865630E-1,1.068828225E0,1.087869257E-1,-7.246247530E-1
7.608526040E-1,1.067762971E0,1.055912226E-1,-7.107767463E-1
7.633186460E-1,1.062436819E0,9.919982404E-2,-7.001243830E-1
7.657846880E-1,1.054980159E0,9.493889660E-2,-6.916025281E-1
7.682507290E-1,1.044327855E0,1.013302878E-1,-6.841459274E-1
7.707167710E-1,1.036871195E0,1.055912226E-1,-6.798849702E-1
7.731828130E-1,1.026218891E0,1.109173894E-1,-6.798849702E-1
7.756488540E-1,1.016631722E0,1.173087880E-1,-6.777545214E-1
7.781148960E-1,1.009175181E0,1.237001866E-1,-6.766892672E-1
7.805809380E-1,9.963923693E-1,1.237001866E-1,-6.745588183E-1
7.830469790E-1,9.814790487E-1,1.258306503E-1,-6.777545214E-1
7.855130210E-1,9.740224481E-1,1.258306503E-1,-6.777545214E-1
7.879790630E-1,9.623048902E-1,1.215697154E-1,-6.734935641E-1
7.904451040E-1,9.484568238E-1,1.162435561E-1,-6.713631153E-1
7.929111460E-1,9.314131141E-1,1.141130850E-1,-6.681674123E-1
7.953771880E-1,9.154346585E-1,1.109173894E-1,-6.617760062E-1
7.978432290E-1,8.994561434E-1,1.055912226E-1,-6.607108116E-1
8.003092710E-1,8.792167306E-1,1.034607589E-1,-6.553846002E-1
8.027753130E-1,8.611077666E-1,1.034607589E-1,-6.457974911E-1
8.052413540E-1,8.451292515E-1,9.600412846E-2,-6.383408904E-1
8.077073960E-1,8.248898387E-1,9.493889660E-2,-6.308842301E-1
8.101734380E-1,8.025199175E-1,9.919982404E-2,-6.244928837E-1
8.126394790E-1,7.790848017E-1,9.813459218E-2,-6.159709692E-1
8.151055210E-1,7.599105835E-1,1.034607589E-1,-6.074491143E-1
8.175715630E-1,7.407364249E-1,1.119826213E-1,-5.999925137E-1
8.200376040E-1,7.247579098E-1,1.151783243E-1,-5.936011076E-1
8.225036460E-1,7.045184970E-1,1.237001866E-1,-5.872097015E-1
8.249696880E-1,6.885399818E-1,1.343525201E-1,-5.840139985E-1
8.274357290E-1,6.726946831E-1,1.471353173E-1,-5.818835497E-1
8.299017710E-1,6.567161679E-1,1.599181145E-1,-5.765573978E-1
8.323678130E-1,6.439333558E-1,1.705704331E-1,-5.765573978E-1
8.348338540E-1,6.311505437E-1,1.822880059E-1,-5.701659918E-1
8.372998960E-1,6.247591972E-1,2.003969699E-1,-5.680354834E-1
8.397659380E-1,6.183677912E-1,2.089188248E-1,-5.648398399E-1
8.422319790E-1,6.109111309E-1,2.185059190E-1,-5.573831797E-1
8.446980210E-1,6.045197248E-1,2.366148829E-1,-5.488613248E-1
8.471640630E-1,5.991935730E-1,2.451367527E-1,-5.403394699E-1
8.496102080E-1,5.928021669E-1,2.462019771E-1,-5.275566578E-1
8.520738020E-1,5.874760151E-1,2.504629195E-1,-5.137086511E-1
8.545403130E-1,5.800193548E-1,2.472672164E-1,-4.998605847E-1
8.570068750E-1,5.736280084E-1,2.430062890E-1,-4.860125780E-1
8.594733850E-1,5.629756451E-1,2.334191799E-1,-4.710993171E-1
8.619399480E-1,5.501928329E-1,2.206363827E-1,-4.572512805E-1
8.644064580E-1,5.406057835E-1,2.110492885E-1,-4.465989470E-1
8.668729690E-1,5.299534202E-1,2.003969699E-1,-4.360797703E-1
8.693395310E-1,5.161054134E-1,1.897446364E-1,-4.254274368E-1
8.718082810E-1,5.022573471E-1,1.801575422E-1,-4.147751033E-1
8.742748960E-1,4.894745648E-1,1.727008969E-1,-4.073184729E-1
8.767414580E-1,4.766917825E-1,1.620485783E-1,-4.009270668E-1
8.792080730E-1,4.649742246E-1,1.482005417E-1,-3.924052119E-1
8.816746350E-1,4.564523399E-1,1.151783243E-1,-3.774919510E-1
8.841411980E-1,4.553871155E-1,8.535179496E-2,-3.551220596E-1
8.866078130E-1,4.511261880E-1,9.067796171E-2,-3.327521682E-1
8.890743750E-1,4.436695576E-1,1.151783243E-1,-3.125127256E-1
8.915388020E-1,4.362129271E-1,1.407439113E-1,-3.082517982E-1
8.940053650E-1,4.340824485E-1,1.513962448E-1,-3.082517982E-1
8.964718750E-1,4.351477027E-1,1.503310055E-1,-2.975994647E-1
8.989383850E-1,4.447347820E-1,1.439396143E-1,-2.869471312E-1
9.014049480E-1,4.500609636E-1,1.450048387E-1,-2.762948275E-1
9.038714580E-1,4.500609636E-1,1.471353173E-1,-2.603163123E-1
9.063380210E-1,4.447347820E-1,1.545919478E-1,-2.496639937E-1
9.088045310E-1,4.351477027E-1,1.695052087E-1,-2.422073632E-1
9.112696880E-1,4.266258180E-1,1.908098608E-1,-2.422073632E-1
9.137361980E-1,4.138430357E-1,2.067883611E-1,-2.422073632E-1
9.162026560E-1,3.999949992E-1,2.238320857E-1,-2.411421239E-1
9.186691670E-1,3.872122169E-1,2.430062890E-1,-2.464682907E-1
9.211356770E-1,3.722989559E-1,2.643109560E-1,-2.443378270E-1
9.236021880E-1,3.616466224E-1,2.792242169E-1,-2.443378270E-1
9.260686980E-1,3.520595133E-1,2.918738425E-1,-2.432725877E-1
9.285351560E-1,3.456681073E-1,3.003957272E-1,-2.368811965E-1
9.310074480E-1,3.403419554E-1,3.046566546E-1,-2.294245660E-1
9.334741150E-1,3.382114768E-1,3.089175820E-1,-2.209026963E-1
9.359407290E-1,3.382114768E-1,3.110480309E-1,-2.070546746E-1
9.384073960E-1,3.371462524E-1,3.121132851E-1,-1.932066381E-1
9.408740630E-1,3.403419554E-1,3.195699155E-1,-1.761629134E-1
9.433406770E-1,3.414071798E-1,3.280917704E-1,-1.580539495E-1
9.458073440E-1,3.435376585E-1,3.376788795E-1,-1.452711523E-1
9.482739580E-1,3.467333615E-1,3.515268862E-1,-1.356840581E-1
9.507364580E-1,3.477985859E-1,3.579182923E-1,-1.260969639E-1
9.532030210E-1,3.509942889E-1,3.685706258E-1,-1.165098622E-1
9.556695310E-1,3.520595133E-1,3.738967776E-1,-1.122489274E-1
9.581360940E-1,3.488638103E-1,3.717663288E-1,-1.058575287E-1
9.606026040E-1,3.446028829E-1,3.675054014E-1,-9.520520270E-2
9.630691670E-1,3.403419554E-1,3.621792197E-1,-9.413997084E-2
9.655356770E-1,3.339505494E-1,3.483312130E-1,-9.520520270E-2
9.680022400E-1,3.254286945E-1,3.398093283E-1,-9.413997084E-2
9.704694790E-1,3.147763610E-1,3.334179223E-1,-9.307473898E-2
9.729360420E-1,3.019935489E-1,3.163742125E-1,-9.627043456E-2
9.754026040E-1,2.945369184E-1,3.078523576E-1,-9.840089828E-2
9.778691670E-1,2.860150635E-1,3.035914004E-1,-9.946613014E-2
9.803357290E-1,2.721670270E-1,3.003957272E-1,-1.026618332E-1
9.828022920E-1,2.615146935E-1,2.993304729E-1,-1.079879999E-1
9.852688540E-1,2.540580630E-1,2.993304729E-1,-1.111836955E-1
9.877353650E-1,2.508623898E-1,3.046566546E-1,-1.090532318E-1
9.902008850E-1,2.466014475E-1,3.078523576E-1,-1.058575287E-1
9.926673960E-1,2.412752807E-1,3.121132851E-1,-1.047922969E-1
9.951339580E-1,2.338186502E-1,3.153089881E-1,-1.005313694E-1
9.976004690E-1,2.263620198E-1,3.142437339E-1,-9.307473898E-2
1.000067031E0,2.167749256E-1,3.099828064E-1,-8.774857223E-2
1.002533542E0,2.071878165E-1,2.993304729E-1,-7.496577501E-2
1.005000052E0,1.986659616E-1,2.908086181E-1,-6.537867337E-2
1.007466615E0,1.805569977E-1,2.802894413E-1,-6.111774594E-2
1.009933854E0,1.677742004E-1,2.696371078E-1,-5.046541616E-2
1.012400417E0,1.539261788E-1,2.589847744E-1,-4.087831825E-2
1.014866979E0,1.390129030E-1,2.589847744E-1,-3.661738336E-2
1.017333490E0,1.209039465E-1,2.568543255E-1,-3.022598661E-2
1.019800052E0,1.038602218E-1,2.525933683E-1,-2.276935615E-2
1.022266615E0,8.575125784E-2,2.451367527E-1,-1.850842312E-2
1.024733177E0,6.990591437E-2,2.430062890E-1,-1.531272475E-2
1.027199688E0,5.073172227E-2,2.398105860E-1,-6.790860556E-3
1.029665313E0,3.262276202E-2,2.366148829E-1,2.796236658E-3
1.032131823E0,1.451379992E-2,2.270277888E-1,8.122402243E-3
1.034598385E0,-9.986559860E-3,2.163754553E-1,1.238333434E-2
1.037064896E0,-2.916075476E-2,2.099840641E-1,2.197043039E-2
1.039531406E0,-5.685681105E-2,2.046578974E-1,3.049229458E-2
1.041997917E0,-8.561810106E-2,1.972012669E-1,4.220985994E-2
1.044464479E0,-1.133141592E-1,1.886793971E-1,5.286218971E-2
1.046930990E0,-1.356840581E-1,1.876141727E-1,6.031882018E-2
1.049397969E0,-1.559234858E-1,1.769618392E-1,6.671021879E-2
1.051864531E0,-1.772281379E-1,1.631138027E-1,7.203638554E-2
1.054331042E0,-2.017285079E-1,1.535267085E-1,8.268871158E-2
1.056797604E0,-2.251636237E-1,1.482005417E-1,9.014534205E-2
1.059264115E0,-2.454030514E-1,1.407439113E-1,9.547150880E-2
1.061730677E0,-2.656424940E-1,1.268958896E-1,9.760197252E-2
1.064197188E0,-2.816209793E-1,1.055912226E-1,9.866721183E-2
1.066663750E0,-2.922733128E-1,8.854749799E-2,9.547150880E-2
1.069132031E0,-2.997299433E-1,7.256899774E-2,9.334104508E-2
1.071598646E0,-3.071865737E-1,5.339480564E-2,8.588441461E-2
1.074065208E0,-3.125127256E-1,4.061200842E-2,7.842778414E-2
1.076531771E0,-3.157084286E-1,3.635107726E-2,7.097115368E-2
1.078998385E0,-3.199693561E-1,2.782921307E-2,5.925358832E-2
1.081464948E0,-3.167736828E-1,2.889444493E-2,5.073172227E-2
1.083931510E0,-3.178389072E-1,2.569874749E-2,4.220985994E-2
1.086398125E0,-3.167736828E-1,2.143781446E-2,3.262276202E-2
1.088868073E0,-3.114475012E-1,2.356828004E-2,2.197043039E-2
1.091334740E0,-3.071865737E-1,2.356828004E-2,1.131810062E-2
1.093801406E0,-2.997299433E-1,2.782921307E-2,2.796236658E-3
1.096268073E0,-2.880123854E-1,3.102491237E-2,-6.790860556E-3
1.098734740E0,-2.762948275E-1,3.102491237E-2,-1.637795754E-2
1.101201406E0,-2.624467909E-1,3.528584540E-2,-2.276935615E-2
1.103668073E0,-2.454030514E-1,4.167724028E-2,-3.022598661E-2
1.106134740E0,-2.347507328E-1,4.806863889E-2,-3.448691964E-2
1.108594948E0,-2.209026963E-1,5.872096866E-2,-3.768261895E-2
1.111061458E0,-2.091851383E-1,7.043853402E-2,-4.194355011E-2
1.113527969E0,-1.995980442E-1,8.109086752E-2,-4.407401755E-2
1.115994479E0,-1.878804713E-1,8.748225868E-2,-4.300878197E-2
1.118460990E0,-1.761629134E-1,9.813459218E-2,-4.407401755E-2
1.120927448E0,-1.697715074E-1,1.077216864E-1,-4.407401755E-2
1.123393958E0,-1.601844132E-1,1.130478531E-1,-4.407401755E-2
1.125860469E0,-1.505973190E-1,1.151783243E-1,-4.940018058E-2
1.128330990E0,-1.410102248E-1,1.151783243E-1,-5.046541616E-2
1.130797604E0,-1.378145218E-1,1.119826213E-1,-5.472634733E-2
1.133264219E0,-1.282274276E-1,1.045259908E-1,-6.111774594E-2
1.135730833E0,-1.186403260E-1,1.013302878E-1,-6.005251035E-2
1.138197448E0,-1.154446304E-1,9.600412846E-2,-6.111774594E-2
1.140664010E0,-1.069227681E-1,9.280842543E-2,-6.218297780E-2
1.143130625E0,-1.005313694E-1,9.600412846E-2,-6.111774594E-2
1.145597240E0,-9.307473898E-2,9.387365729E-2,-5.792204663E-2
1.148061094E0,-8.774857223E-2,9.174319357E-2,-5.259587988E-2
1.150527656E0,-7.922670245E-2,8.748225868E-2,-4.620448127E-2
1.152994167E0,-7.390054315E-2,8.748225868E-2,-3.981308267E-2
1.155460729E0,-6.963960826E-2,8.854749799E-2,-2.809552103E-2
1.157927240E0,-6.218297780E-2,8.748225868E-2,-1.744319126E-2
1.160393802E0,-5.579157919E-2,8.641702682E-2,-4.660394508E-3
1.162860313E0,-5.792204663E-2,8.641702682E-2,7.057168987E-3
1.165326875E0,-5.153064802E-2,8.748225868E-2,1.664426550E-2
1.167793490E0,-4.833494872E-2,7.896039635E-2,2.410089783E-2
1.170260052E0,-4.726971686E-2,7.256899774E-2,3.475322574E-2
1.172726563E0,-4.300878197E-2,6.085143611E-2,4.540555924E-2
1.175193125E0,-4.407401755E-2,5.126433820E-2,5.392742157E-2
1.177659635E0,-4.620448127E-2,4.913387448E-2,6.564498693E-2
1.180126198E0,-5.046541616E-2,4.274247587E-2,7.097115368E-2
1.182592708E0,-5.685681105E-2,2.995967865E-2,7.203638554E-2
1.185059271E0,-6.644391268E-2,2.143781446E-2,7.203638554E-2
1.187514688E0,-7.709623873E-2,1.185071748E-2,7.203638554E-2
1.189980990E0,-8.987903595E-2,2.263620263E-3,7.097115368E-2
1.192447240E0,-1.069227681E-1,-1.051917579E-2,7.203638554E-2
1.194913490E0,-1.175750941E-1,-2.117150649E-2,6.990591437E-2
1.197379740E0,-1.346188188E-1,-3.288906813E-2,6.777545065E-2
1.199845990E0,-1.527277827E-1,-4.780233279E-2,6.884068251E-2
1.202312292E0,-1.697715074E-1,-5.845466256E-2,6.777545065E-2
1.204778542E0,-1.900109351E-1,-6.910699606E-2,6.351451576E-2
1.207241719E0,-2.059894353E-1,-7.762885839E-2,6.031882018E-2
1.209707917E0,-2.209026963E-1,-8.828118443E-2,5.605788901E-2
1.212174115E0,-2.358159572E-1,-9.147688746E-2,5.179695413E-2
1.214640260E0,-2.507292330E-1,-9.680305421E-2,4.647079110E-2
1.217106458E0,-2.613815665E-1,-1.063901484E-1,3.794892505E-2
1.219572656E0,-2.720338702E-1,-1.042596847E-1,3.049229458E-2
1.222038802E0,-2.805557549E-1,-1.010639817E-1,2.303566411E-2
1.224505000E0,-2.890776098E-1,-9.041165560E-2,2.410089783E-2
1.226984010E0,-2.986647189E-1,-8.188978583E-2,2.623136342E-2
1.229450521E0,-3.061213493E-1,-7.762885839E-2,2.623136342E-2
1.231917031E0,-3.125127256E-1,-6.804175675E-2,2.836182900E-2
1.234383542E0,-3.167736828E-1,-5.951989442E-2,2.729659714E-2
1.236850052E0,-3.189041317E-1,-4.460663348E-2,2.942706272E-2
1.239316563E0,-3.220998347E-1,-3.182383627E-2,3.368799388E-2
1.241783021E0,-3.295564651E-1,-1.051917579E-2,3.901416063E-2
1.244249531E0,-3.380783200E-1,1.717688330E-2,4.540555924E-2
1.246711875E0,-3.497959077E-1,5.019910634E-2,5.605788901E-2
1.249178281E0,-3.668396175E-1,8.748225868E-2,7.416684926E-2
1.251644635E0,-3.838833570E-1,1.258306503E-1,9.334104508E-2
1.254111042E0,-4.105141759E-1,1.620485783E-1,1.157109365E-1
1.256577448E0,-4.403406978E-1,2.057231218E-1,1.380808353E-1
1.259043854E0,-4.701672196E-1,2.504629195E-1,1.647116542E-1
1.261510260E0,-5.042546988E-1,2.940043211E-1,1.912093312E-1
1.263976667E0,-5.360785127E-1,3.408745527E-1,2.221010923E-1
1.266441354E0,-5.733616948E-1,3.898752928E-1,2.572537661E-1
1.268907708E0,-6.159709692E-1,4.367455542E-1,2.881455421E-1
1.271374063E0,-6.575151086E-1,4.910724163E-1,3.243634701E-1
1.273840417E0,-7.011896372E-1,5.379426479E-1,3.552552164E-1
1.276306771E0,-7.459294200E-1,5.858781338E-1,3.893426657E-1
1.278773125E0,-7.896040082E-1,6.295527220E-1,4.212996662E-1
1.281239479E0,-8.322132826E-1,6.668358445E-1,4.500609636E-1
1.283705833E0,-8.748226166E-1,7.073147297E-1,4.830831885E-1
1.286174844E0,-9.195623994E-1,7.456631064E-1,5.161054134E-1
1.288641250E0,-9.621717334E-1,7.818810344E-1,5.469971299E-1
1.291107656E0,-1.007976770E0,8.191642165E-1,5.832150578E-1
1.293574115E0,-1.051651359E0,8.511211872E-1,6.173025370E-1
1.296040521E0,-1.102782488E0,8.958609700E-1,6.503247619E-1
1.298506927E0,-1.160171866E0,9.479242563E-1,6.897383928E-1
1.300973385E0,-1.217694521E0,1.005446792E0,7.419347763E-1
1.303439792E0,-1.277347565E0,1.072556496E0,8.014547229E-1
1.305923802E0,-1.333804846E0,1.151383758E0,8.685643673E-1
1.308390677E0,-1.388131738E0,1.245124221E0,9.410002232E-1
1.310857552E0,-1.445654392E0,1.351647496E0,1.020892739E0
1.313324375E0,-1.505307436E0,1.467757940E0,1.097589493E0
1.315791250E0,-1.560699582E0,1.590126634E0,1.170025349E0
1.318258125E0,-1.621417761E0,1.717954516E0,1.240330696E0
1.320725000E0,-1.688527465E0,1.850043416E0,1.299983740E0
1.323191875E0,-1.766156316E0,1.985328078E0,1.333006024E0
1.325652344E0,-1.847114086E0,2.112090826E0,1.321288466E0
1.328119010E0,-1.929136992E0,2.232328892E0,1.303179502E0
1.330585729E0,-2.016486168E0,2.335656643E0,1.307440400E0
1.333052448E0,-2.098509073E0,2.429397106E0,1.323418856E0
1.335519167E0,-2.173075438E0,2.506093740E0,1.353245378E0
1.337985833E0,-2.248706818E0,2.575334072E0,1.393591046E0
1.340452552E0,-2.317947149E0,2.648835182E0,1.438330889E0
1.342919271E0,-2.376401663E0,2.734985828E0,1.487331629E0
1.345384896E0,-2.430728674E0,2.835117579E0,1.533136606E0
1.347851563E0,-2.485055447E0,2.925662518E0,1.572550297E0
1.350318229E0,-2.531925678E0,3.008750677E0,1.603441954E0
1.352784896E0,-2.580926418E0,3.063077450E0,1.602376819E0
1.355251563E0,-2.629927158E0,3.105686903E0,1.594920158E0
1.357718281E0,-2.675732136E0,3.150426626E0,1.603441954E0
1.360184948E0,-2.730059147E0,3.188775063E0,1.626877189E0
1.362651615E0,-2.791842699E0,3.223927736E0,1.665225506E0
1.365120625E0,-2.854691267E0,3.252689123E0,1.717421889E0
1.367587344E0,-2.922866344E0,3.301689863E0,1.787727356E0
1.370054063E0,-2.986647129E0,3.382514238E0,1.869750261E0
1.372520833E0,-3.054821968E0,3.496494293E0,1.948577523E0
1.374987552E0,-3.121931791E0,3.646692038E0,2.025141239E0
1.377454271E0,-3.184780359E0,3.813933611E0,2.099707365E0
1.379921042E0,-3.247629166E0,3.993824959E0,2.166817188E0
1.382387760E0,-3.304086447E0,4.169588566E0,2.225404978E0
1.384847448E0,-3.352021933E0,4.316590309E0,2.280797005E0
1.387314010E0,-3.387174606E0,4.428440094E0,2.319145441E0
1.389780573E0,-3.406348944E0,4.499810696E0,2.342580557E0
1.392247135E0,-3.418066502E0,4.539224148E0,2.339384794E0
1.394713698E0,-3.418066502E0,4.557199955E0,2.305297375E0
1.397180260E0,-3.404218435E0,4.546680927E0,2.250970602E0
1.399646823E0,-3.376522303E0,4.506202221E0,2.176404238E0
1.402113385E0,-3.331782579E0,4.439092159E0,2.085859299E0
1.404584167E0,-3.278520823E0,4.328308105E0,1.979469299E0
1.407050833E0,-3.224194050E0,4.171718597E0,1.859097958E0
1.409517500E0,-3.151758194E0,4.048151970E0,1.729139447E0
1.411984167E0,-3.069735289E0,3.928978920E0,1.598115802E0
1.414450833E0,-2.978125334E0,3.777715683E0,1.468157411E0
1.416917500E0,-2.880256891E0,3.601952314E0,1.343658328E0
1.419384167E0,-2.782255411E0,3.396362305E0,1.224352241E0
1.421850833E0,-2.678927898E0,3.173861742E0,1.105046153E0
1.424313802E0,-2.572404623E0,2.934184313E0,9.953271151E-1
1.426780365E0,-2.463750839E0,2.670139790E0,8.888037801E-1
1.429246979E0,-2.357360601E0,2.389983416E0,7.865414619E-1
1.431713542E0,-2.245511293E0,2.096112251E0,6.886731386E-1
1.434180104E0,-2.132596493E0,1.793586135E0,5.991935730E-1
1.436646667E0,-2.025007963E0,1.483736396E0,5.107792616E-1
1.439113229E0,-1.911028028E0,1.163101315E0,4.276910722E-1
1.441579844E0,-1.799178600E0,8.457950354E-1,3.488638103E-1
1.444047292E0,-1.695984125E0,5.485950112E-1,2.764279842E-1
1.446513906E0,-1.585199952E0,2.770937383E-1,2.061225921E-1
1.448980521E0,-1.477611303E0,4.167724028E-2,1.423417628E-1
1.451447083E0,-1.375349045E0,-1.617822647E-1,8.481918275E-2
1.453913698E0,-1.268825650E0,-3.203688264E-1,3.581846133E-2
1.456380260E0,-1.163367629E0,-4.311530590E-1,-6.790860556E-3
1.458846875E0,-1.066564560E0,-5.067846179E-1,-3.661738336E-2
1.461313490E0,-9.770849943E-1,-5.472634435E-1,-6.111774594E-2
1.463777865E0,-8.918663263E-1,-5.632419586E-1,-7.709623873E-2
1.466244427E0,-8.151695728E-1,-5.557853580E-1,-8.987903595E-2
1.468710938E0,-7.416685224E-1,-5.259587765E-1,-9.840089828E-2
1.471177500E0,-6.745588183E-1,-4.822842479E-1,-1.015966013E-1
1.473644010E0,-6.138405204E-1,-4.332835376E-1,-1.005313694E-1
1.476110573E0,-5.531222224E-1,-3.746957183E-1,-8.987903595E-2
1.478577135E0,-4.946675897E-1,-3.055887222E-1,-7.603100687E-2
1.481043646E0,-4.350145459E-1,-2.235657871E-1,-5.366111174E-2
1.483511979E0,-3.774919510E-1,-1.372819096E-1,-2.489982173E-2
1.485978594E0,-3.199693561E-1,-4.886756465E-2,4.926702939E-3
1.488445156E0,-2.592510879E-1,4.274247587E-2,4.220985994E-2
1.490911771E0,-2.038589716E-1,1.258306503E-1,8.481918275E-2
1.493378333E0,-1.260969639E-1,1.609833390E-1,1.274285018E-1
1.495844896E0,-7.856093347E-3,1.396786869E-1,1.688394397E-1
1.498311510E0,1.272953451E-1,1.109173894E-1,2.093182951E-1
1.500778073E0,2.647103965E-1,9.493889660E-2,2.497971505E-1
1.503244010E0,4.010602236E-1,8.854749799E-2,2.902759910E-1
1.505710573E0,5.331491232E-1,9.600412846E-2,3.328853250E-1
1.508177135E0,6.492595077E-1,1.194392517E-1,3.786903322E-1
1.510643750E0,7.535192370E-1,1.503310055E-1,4.234301150E-1
1.513110313E0,8.493902087E-1,1.897446364E-1,4.628437459E-1
1.515576875E0,9.303479195E-1,2.259625494E-1,5.033226013E-1
1.518043438E0,9.995880127E-1,2.707023323E-1,5.480623841E-1
1.520510000E0,1.053914905E0,3.185046613E-1,5.917369723E-1
1.522975104E0,1.100785136E0,3.621792197E-1,6.279548407E-1
1.525441667E0,1.130611658E0,4.015928507E-1,6.631075740E-1
1.527908177E0,1.158307791E0,4.388760030E-1,6.950645447E-1
1.530374688E0,1.178547144E0,4.676373005E-1,7.216953635E-1
1.532841250E0,1.186003804E0,4.729634523E-1,7.483261824E-1
1.535307760E0,1.188134313E0,4.644415975E-1,7.643046975E-1
1.537774323E0,1.189199567E0,4.452674091E-1,7.738918066E-1
1.540240833E0,1.183873296E0,4.143756330E-1,7.758890986E-1
1.542706198E0,1.170025349E0,3.781577349E-1,7.706961036E-1
1.545172708E0,1.154046774E0,3.334179223E-1,7.547175884E-1
1.547639219E0,1.126350760E0,2.888112962E-1,7.302172184E-1
1.550105729E0,1.098654747E0,2.408758104E-1,6.971949935E-1
1.552572188E0,1.072023869E0,1.897446364E-1,6.588466167E-1
1.555038698E0,1.043262601E0,1.492657810E-1,6.119763851E-1
1.557505208E0,1.013436079E0,1.098521575E-1,5.597799420E-1
1.559971719E0,9.846747518E-1,6.937330216E-2,5.054530501E-1
1.562444167E0,9.527177811E-1,3.422060981E-2,4.468652606E-1
1.564910833E0,9.218260050E-1,1.185071748E-2,3.882774413E-1
1.567377500E0,8.845428824E-1,-9.320789250E-4,3.350157738E-1
1.569844167E0,8.451292515E-1,2.263620263E-3,2.817541361E-1
1.572310781E0,8.035851717E-1,2.676397935E-2,2.380795777E-1
1.574777448E0,7.620410919E-1,7.256899774E-2,2.029268891E-1
1.577244115E0,7.204970121E-1,1.300915778E-1,1.794917583E-1
1.579710781E0,6.780208349E-1,2.142449915E-1,1.699046642E-1
1.582172760E0,6.354115009E-1,3.078523576E-1,1.709699035E-1
1.584639323E0,5.949326158E-1,4.015928507E-1,1.848179251E-1
1.587105833E0,5.512580872E-1,4.963985980E-1,2.050573528E-1
1.589572396E0,5.107792616E-1,5.901390910E-1,2.370143533E-1
1.592038906E0,4.734960794E-1,6.689663529E-1,2.785584331E-1
1.594505469E0,4.351477027E-1,7.286193967E-1,3.211677670E-1
1.596971979E0,4.053211510E-1,7.712287307E-1,3.691032529E-1
1.599438542E0,3.754946291E-1,7.989247441E-1,4.159734845E-1
1.601905313E0,3.520595133E-1,8.085118532E-1,4.639089704E-1
1.604371875E0,3.307548463E-1,7.999899983E-1,5.054530501E-1
1.606838385E0,3.169068098E-1,7.786853313E-1,5.469971299E-1
1.609304948E0,3.041240275E-1,7.371412516E-1,5.746932030E-1
1.611771510E0,2.913412452E-1,6.796186566E-1,5.906717181E-1
1.614238021E0,2.732322812E-1,5.912043452E-1,5.714974999E-1
1.616704583E0,2.306229472E-1,4.655068219E-1,4.852136374E-1
1.619171146E0,1.656437367E-1,2.982652485E-1,3.009283245E-1
1.621639479E0,8.255556226E-2,1.141130850E-1,3.794892505E-2
1.624106094E0,-4.660394508E-3,-5.845466256E-2,-2.219679356E-1
1.626572656E0,-7.390054315E-2,-1.852173954E-1,-4.254274368E-1
1.629039271E0,-1.229012609E-1,-2.736317217E-1,-5.584484339E-1
1.631505833E0,-1.548582464E-1,-3.288906813E-1,-6.362104416E-1
1.633972448E0,-1.836195439E-1,-3.896089792E-1,-6.884068251E-1
1.636439010E0,-2.123808414E-1,-4.439358711E-1,-7.267552018E-1
1.638905625E0,-2.347507328E-1,-4.631100595E-1,-7.501903772E-1
1.641369844E0,-2.475335300E-1,-4.375444651E-1,-7.576469779E-1
1.643836354E0,-2.475335300E-1,-3.768261969E-1,-7.448641658E-1
1.646302917E0,-2.390116602E-1,-3.023930192E-1,-7.150376439E-1
1.648769427E0,-2.294245660E-1,-2.267614752E-1,-6.628412604E-1
1.651235990E0,-2.198374718E-1,-1.681736708E-1,-5.882749557E-1
1.653702500E0,-2.177069932E-1,-1.244991124E-1,-4.955996573E-1
1.656169010E0,-2.230331600E-1,-8.082455397E-2,-3.945356905E-1
1.658635573E0,-2.315550297E-1,-4.354140162E-2,-2.880123854E-1
1.661103594E0,-2.400768995E-1,1.185071748E-2,-1.825543046E-1
1.663570156E0,-2.400768995E-1,8.641702682E-2,-7.922670245E-2
1.666036719E0,-2.358159572E-1,1.705704331E-1,1.877473295E-2
1.668503333E0,-2.240983993E-1,2.696371078E-1,9.866721183E-2
1.670969896E0,-2.059894353E-1,3.717663288E-1,1.657768935E-1
1.673436458E0,-1.825543046E-1,4.665720761E-1,2.167749256E-1
1.675903021E0,-1.527277827E-1,5.720301270E-1,2.540580630E-1
1.678369583E0,-1.154446304E-1,6.689663529E-1,2.753627300E-1
1.680834479E0,-7.390054315E-2,7.541849613E-1,2.902759910E-1
1.683300990E0,-2.063889056E-2,8.330122232E-1,2.977326214E-1
1.685767552E0,3.475322574E-2,8.916000128E-1,2.977326214E-1
1.688234063E0,8.788172156E-2,9.308804870E-1,2.966673970E-1
1.690700573E0,1.539261788E-1,9.521851540E-1,2.892107666E-1
1.693167135E0,2.199706137E-1,9.521851540E-1,2.711018026E-1
1.695633646E0,2.817541361E-1,9.383371472E-1,2.508623898E-1
1.698100156E0,3.467333615E-1,9.138367772E-1,2.284924835E-1
1.700567760E0,4.170387387E-1,8.766867518E-1,2.039921284E-1
1.703034323E0,4.852136374E-1,8.319469690E-1,1.826874614E-1
1.705500885E0,5.523233414E-1,7.840114832E-1,1.593854874E-1
1.707967448E0,6.194329858E-1,7.392717004E-1,1.370155960E-1
1.710433958E0,6.822817326E-1,6.955971718E-1,1.157109365E-1
1.712900521E0,7.386059761E-1,6.508573890E-1,1.039933711E-1
1.715367083E0,8.078460693E-1,5.997262001E-1,1.050586104E-1
1.717833646E0,8.834776282E-1,5.496602654E-1,1.135804728E-1
1.720301302E0,9.601744413E-1,5.102466345E-1,1.274285018E-1
1.722767917E0,1.034740686E0,4.772244096E-1,1.455374658E-1
1.725234479E0,1.103980899E0,4.591154456E-1,1.636464298E-1
1.727701042E0,1.156177282E0,4.655068219E-1,1.826874614E-1
1.730167656E0,1.188134313E0,4.889419675E-1,1.965354979E-1
1.732634219E0,1.205178022E0,5.230293870E-1,2.061225921E-1
1.735100781E0,1.207308531E0,5.635082722E-1,2.114487588E-1
1.737567396E0,1.205178022E0,6.071828008E-1,2.146444470E-1
1.740032813E0,1.192395210E0,6.434007287E-1,2.093182951E-1
1.742499375E0,1.179612398E0,6.732272506E-1,1.997311860E-1
1.744965938E0,1.170025349E0,6.977276206E-1,1.837527007E-1
1.747432500E0,1.161503434E0,7.126408815E-1,1.668421179E-1
1.749899010E0,1.155112028E0,7.232932448E-1,1.402112991E-1
1.752365573E0,1.149785876E0,7.424674034E-1,1.178414002E-1
1.754832135E0,1.157242537E0,7.627068162E-1,1.007976755E-1
1.757298698E0,1.168960094E0,7.861419916E-1,7.842778414E-2
1.759768542E0,1.186003804E0,8.053161502E-1,6.031882018E-2
1.762235208E0,1.206243277E0,8.351426721E-1,4.753602296E-2
1.764701823E0,1.235004544E0,8.777520061E-1,3.901416063E-2
1.767168490E0,1.262700558E0,9.223586321E-1,3.581846133E-2
1.769635104E0,1.285070539E0,9.649679661E-1,4.220985994E-2
1.772101719E0,1.304111481E0,9.979901910E-1,4.966649041E-2
1.774568385E0,1.321155310E0,1.032077670E0,6.351451576E-2
1.777035000E0,1.335003257E0,1.068295598E0,7.736254483E-2
1.779499271E0,1.342459917E0,1.098122120E0,9.121058136E-2
1.781965833E0,1.342459917E0,1.114100575E0,1.093195379E-1
1.784432448E0,1.336068511E0,1.132209539E0,1.274285018E-1
1.786899010E0,1.325416207E0,1.155644655E0,1.434070021E-1
1.789365573E0,1.310502887E0,1.172688365E0,1.583202630E-1
1.791832188E0,1.284005284E0,1.189732075E0,1.720351279E-1
1.794298750E0,1.252048254E0,1.203580141E0,1.848179251E-1
1.796765313E0,1.217960835E0,1.224884868E0,1.933397949E-1
1.799230625E0,1.184938550E0,1.261102796E0,1.976007223E-1
1.801697188E0,1.151916385E0,1.304777265E0,2.029268891E-1
1.804163698E0,1.114633203E0,1.340995193E0,2.050573528E-1
1.806630260E0,1.074154377E0,1.356973767E0,2.029268891E-1
1.809096823E0,1.031545043E0,1.368691325E0,2.007964253E-1
1.811563333E0,9.900009632E-1,1.382539272E0,2.007964253E-1
1.814029896E0,9.399349689E-1,1.388930678E0,2.018616647E-1
1.816496458E0,8.951951861E-1,1.394256830E0,2.103835195E-1
1.818965677E0,8.504554033E-1,1.394256830E0,2.157096863E-1
1.821432292E0,8.067808747E-1,1.387865424E0,2.274272442E-1
1.823898906E0,7.620410919E-1,1.383604527E0,2.370143533E-1
1.826365521E0,7.247579098E-1,1.367626071E0,2.444709837E-1
1.828832135E0,6.928009391E-1,1.347386599E0,2.455362082E-1
1.831298750E0,6.631075740E-1,1.336734295E0,2.444709837E-1
1.833765365E0,6.418029070E-1,1.323951483E0,2.434057444E-1
1.836231979E0,6.226286888E-1,1.313299179E0,2.327534109E-1
1.838696927E0,6.119763851E-1,1.302646875E0,2.231663167E-1
1.841163490E0,6.066502333E-1,1.295190215E0,2.093182951E-1
1.843630104E0,5.991935730E-1,1.286668301E0,1.997311860E-1
1.846096667E0,6.034545302E-1,1.284537911E0,1.922745556E-1
1.848563229E0,6.013240218E-1,1.291994452E0,1.816222370E-1
1.851029792E0,6.023892760E-1,1.290929317E0,1.762960702E-1
1.853496354E0,6.045197248E-1,1.288798809E0,1.794917583E-1
1.855962917E0,6.055849791E-1,1.281342149E0,1.752308309E-1
1.858426771E0,6.098458767E-1,1.270689845E0,1.677742004E-1
1.860893281E0,6.109111309E-1,1.253646135E0,1.668421179E-1
1.863359792E0,6.066502333E-1,1.227015257E0,1.615159512E-1
1.865826302E0,6.066502333E-1,1.204645395E0,1.551245600E-1
1.868292760E0,6.077154279E-1,1.178014517E0,1.508636326E-1
1.870759271E0,6.045197248E-1,1.150318503E0,1.444722265E-1
1.873225781E0,6.013240218E-1,1.121557236E0,1.380808353E-1
1.875692292E0,5.949326158E-1,1.093861103E0,1.306242049E-1
1.878160938E0,5.906717181E-1,1.068295598E0,1.221023351E-1
1.880627500E0,5.832150578E-1,1.037403822E0,1.061238423E-1
1.883094063E0,5.725627542E-1,1.013968706E0,8.908011019E-2
1.885560625E0,5.608451962E-1,9.841421843E-1,6.990591437E-2
1.888027188E0,5.480623841E-1,9.575113058E-1,4.434032366E-2
1.890493750E0,5.256925225E-1,9.415328503E-1,1.877473295E-2
1.892960313E0,4.990616739E-1,9.308804870E-1,-1.105179265E-2
1.895426823E0,4.734960794E-1,9.212934375E-1,-4.300878197E-2
1.897892188E0,4.511261880E-1,9.127715230E-1,-7.390054315E-2
1.900358698E0,4.276910722E-1,8.969262242E-1,-1.079879999E-1
1.902825260E0,4.117125571E-1,8.681648970E-1,-1.410102248E-1
1.905291771E0,4.010602236E-1,8.404688835E-1,-1.729672104E-1
1.907758281E0,3.978645205E-1,8.149032593E-1,-2.070546746E-1
1.910224844E0,4.010602236E-1,7.882724404E-1,-2.432725877E-1
1.912691354E0,4.042559266E-1,7.541849613E-1,-2.773600519E-1
1.915157865E0,4.106473327E-1,7.232932448E-1,-3.146432042E-1
1.917624635E0,4.223648906E-1,7.041190267E-1,-3.572525382E-1
1.920091198E0,4.340824485E-1,6.806839108E-1,-4.019923210E-1
1.922557708E0,4.404738545E-1,6.497921348E-1,-4.497946501E-1
1.925024219E0,4.394086301E-1,6.210308671E-1,-4.955996573E-1
1.927490781E0,4.340824485E-1,5.997262001E-1,-5.328828096E-1
1.929957292E0,4.181039631E-1,5.858781338E-1,-5.616441369E-1
1.932423854E0,3.925383687E-1,5.869433880E-1,-5.818835497E-1
1.934890365E0,3.627118468E-1,6.082480550E-1,-5.914706588E-1
1.937356979E0,3.318201005E-1,6.359441280E-1,-5.936011076E-1
1.939823542E0,2.987978756E-1,6.615096927E-1,-5.914706588E-1
1.942290052E0,2.647103965E-1,6.849448085E-1,-5.872097015E-1
1.944756563E0,2.263620198E-1,6.977276206E-1,-5.861444473E-1
1.947223125E0,1.890788674E-1,7.051842809E-1,-5.861444473E-1
1.949689635E0,1.592523307E-1,7.030537724E-1,-5.936011076E-1
1.952156198E0,1.262301207E-1,7.041190267E-1,-6.095796227E-1
1.954622708E0,9.214265645E-2,6.934667230E-1,-6.298190355E-1
1.957087865E0,5.286218971E-2,6.785534620E-1,-6.511237025E-1
1.959554375E0,1.131810062E-2,6.710968018E-1,-6.702978611E-1
1.962020885E0,-3.235645220E-2,6.679010987E-1,-6.894720793E-1
1.964487344E0,-8.348763734E-2,6.668358445E-1,-7.107767463E-1
1.966953854E0,-1.378145218E-1,6.785534620E-1,-7.363423109E-1
1.969420365E0,-2.006632686E-1,7.094451785E-1,-7.597774267E-1
1.971886875E0,-2.645772398E-1,7.563154697E-1,-7.906692028E-1
1.974353385E0,-3.295564651E-1,8.255556226E-1,-8.215609789E-1
1.976821615E0,-4.051880240E-1,9.085106254E-1,-8.652355075E-1
1.979288177E0,-4.936023653E-1,1.036338568E0,-9.206276536E-1
1.981754688E0,-6.063839197E-1,1.244058967E0,-9.834764004E-1
1.984221250E0,-7.352771163E-1,1.469888449E0,-1.062170506E0
1.986687813E0,-8.663007617E-1,1.690258503E0,-1.147389174E0
1.989154323E0,-9.802806973E-1,1.886261344E0,-1.233672976E0
1.991620885E0,-1.076151609E0,2.056698561E0,-1.321022153E0
1.994087448E0,-1.155910969E0,2.263220787E0,-1.405175567E0
1.996553594E0,-1.229412079E0,2.470941067E0,-1.485067964E0
1.999020156E0,-1.299717426E0,2.648835182E0,-1.557503819E0
2.001486667E0,-1.364696622E0,2.804225922E0,-1.631004930E0
2.003953177E0,-1.433936834E0,2.941641092E0,-1.699046731E0
2.006419740E0,-1.505307436E0,3.057751417E0,-1.766156316E0
2.008886250E0,-1.585199952E0,3.171731234E0,-1.835396528E0
2.011352813E0,-1.673614264E0,3.282515526E0,-1.907832384E0
2.013819323E0,-1.762960672E0,3.389971018E0,-1.980268240E0
2.016287552E0,-1.855635881E0,3.480515718E0,-2.061225891E0
2.018754115E0,-1.948311210E0,3.547625542E0,-2.148575068E0
2.021220729E0,-1.994116187E0,3.516733646E0,-2.229532719E0
2.023687292E0,-1.939789295E0,3.329385757E0,-2.300770283E0
2.026153854E0,-1.772547722E0,3.019402981E0,-2.347640514E0
2.028620469E0,-1.534068704E0,2.772269011E0,-2.367879868E0
2.031087031E0,-1.327413559E0,2.748833895E0,-2.370010376E0
2.033553594E0,-1.209172606E0,2.917140722E0,-2.364684105E0
2.036022656E0,-1.167628527E0,3.169600964E0,-2.345510006E0
2.038489323E0,-1.162302375E0,3.426188946E0,-2.324205399E0
2.040955938E0,-1.160171866E0,3.629648447E0,-2.306096315E0
2.043422604E0,-1.146323919E0,3.761737347E0,-2.291182995E0
2.045889219E0,-1.115565300E0,3.839499235E0,-2.280530691E0
2.048355885E0,-1.076151609E0,3.867195368E0,-2.268813133E0
2.050822500E0,-1.037803292E0,3.865064859E0,-2.256163597E0
2.053289167E0,-1.007976770E0,3.857608318E0,-2.240185022E0
2.055751823E0,-9.898678064E-1,3.858673573E0,-2.223141432E0
2.058218385E0,-9.813459516E-1,3.865064859E0,-2.216749907E0
2.060684896E0,-9.770849943E-1,3.870391130E0,-2.224206448E0
2.063151458E0,-9.738892913E-1,3.871456385E0,-2.249772072E0
2.065617969E0,-9.653674364E-1,3.856543064E0,-2.290117741E0
2.068084531E0,-9.515193701E-1,3.836303473E0,-2.335922956E0
2.070551094E0,-9.280842543E-1,3.825651169E0,-2.368945122E0
2.073017604E0,-8.929315805E-1,3.823520899E0,-2.387053967E0
2.075483385E0,-8.567136526E-1,3.818194628E0,-2.392380238E0
2.077949896E0,-8.226261735E-1,3.810738087E0,-2.377466917E0
2.080416406E0,-7.821473479E-1,3.800085545E0,-2.355097055E0
2.082882969E0,-7.427337170E-1,3.783041954E0,-2.324205399E0
2.085349479E0,-6.937330365E-1,3.754280567E0,-2.286922216E0
2.087815990E0,-6.447322965E-1,3.730845451E0,-2.248706818E0
2.090282500E0,-5.999925137E-1,3.696758032E0,-2.207162857E0
2.092749063E0,-5.616441369E-1,3.653083563E0,-2.158162117E0
2.095215729E0,-5.339480639E-1,3.598756552E0,-2.111291885E0
2.097682240E0,-5.106461048E-1,3.535907984E0,-2.065486908E0
2.100148802E0,-4.946675897E-1,3.461341619E0,-2.020746946E0
2.102615313E0,-4.861457348E-1,3.368666172E0,-1.981333375E0
2.105081823E0,-4.850804806E-1,3.267602205E0,-1.931267500E0
2.107548385E0,-4.861457348E-1,3.149361372E0,-1.881201506E0
2.110014896E0,-4.936023653E-1,3.007685423E0,-1.829005122E0
2.112481406E0,-5.095808506E-1,2.846835375E0,-1.773612976E0
2.114950729E0,-5.328828096E-1,2.668009281E0,-1.715025187E0
2.117417344E0,-5.605788827E-1,2.473071575E0,-1.653374791E0
2.119883958E0,-5.999925137E-1,2.272807837E0,-1.584134698E0
2.122350521E0,-6.426018476E-1,2.072677135E0,-1.511698842E0
2.124817135E0,-6.841459274E-1,1.873478532E0,-1.430741072E0
2.127283698E0,-7.246247530E-1,1.679606199E0,-1.344457269E0
2.129750313E0,-7.629731297E-1,1.494388819E0,-1.259238601E0
2.132216927E0,-7.959953547E-1,1.318625331E0,-1.174019933E0
2.134677500E0,-8.268871307E-1,1.149253249E0,-1.089866519E0
2.137143958E0,-8.481917977E-1,1.000120640E0,-1.011172414E0
2.139610365E0,-8.631050587E-1,8.575125933E-1,-9.376713634E-1
2.142076823E0,-8.737573624E-1,7.371412516E-1,-8.652355075E-1
2.144543333E0,-8.780183196E-1,6.380745769E-1,-8.055824637E-1
2.147009740E0,-8.790835738E-1,5.507254601E-1,-7.576469779E-1
2.149476146E0,-8.737573624E-1,4.761591554E-1,-7.171681523E-1
2.151942604E0,-8.577789068E-1,4.154408872E-1,-6.873416305E-1
2.154402188E0,-8.418003917E-1,3.696358502E-1,-6.671021581E-1
2.156868490E0,-8.236914277E-1,3.206351399E-1,-6.553846002E-1
2.159334740E0,-8.023867607E-1,2.877460718E-1,-6.489931941E-1
2.161801042E0,-7.832126021E-1,2.611152530E-1,-6.479279995E-1
2.164267292E0,-7.651036382E-1,2.430062890E-1,-6.500584483E-1
2.166733594E0,-7.480598688E-1,2.376801223E-1,-6.553846002E-1
2.169199844E0,-7.352771163E-1,2.472672164E-1,-6.639064550E-1
2.171666146E0,-7.278204560E-1,2.696371078E-1,-6.734935641E-1
2.174147031E0,-7.235595584E-1,3.121132851E-1,-6.894720793E-1
2.176613698E0,-7.246247530E-1,3.632444739E-1,-7.075810432E-1
2.179080313E0,-7.288857102E-1,4.260932207E-1,-7.288857102E-1
2.181546979E0,-7.416685224E-1,4.953333437E-1,-7.555165291E-1
2.184013594E0,-7.565817833E-1,5.730953813E-1,-7.821473479E-1
2.186480260E0,-7.682993412E-1,6.561835408E-1,-8.109086156E-1
2.188946875E0,-7.864083052E-1,7.371412516E-1,-8.407351375E-1
2.191413542E0,-8.130391240E-1,8.191642165E-1,-8.726921678E-1
2.193882969E0,-8.418003917E-1,8.873391151E-1,-9.035838842E-1
2.196349635E0,-8.737573624E-1,9.351414442E-1,-9.344756603E-1
2.198816354E0,-9.078448415E-1,9.820116758E-1,-9.696283340E-1
2.201283073E0,-9.461932182E-1,1.022490501E0,-9.994548559E-1
2.203749792E0,-9.834764004E-1,1.057643294E0,-1.027150989E0
2.206216510E0,-1.016498566E0,1.086404562E0,-1.053648591E0
2.208683229E0,-1.046325088E0,1.109839678E0,-1.076018453E0
2.211149948E0,-1.072955966E0,1.125818133E0,-1.093062282E0
2.213611615E0,-1.091064930E0,1.137535691E0,-1.105844975E0
2.216078229E0,-1.103847742E0,1.143927097E0,-1.114366889E0
2.218544792E0,-1.110239148E0,1.139666200E0,-1.119693041E0
2.221011406E0,-1.108108640E0,1.116231084E0,-1.119693041E0
2.223477969E0,-1.092130184E0,1.087469816E0,-1.118627787E0
2.225944531E0,-1.072955966E0,1.042729974E0,-1.115432143E0
2.228411146E0,-1.048455596E0,9.862726331E-1,-1.109040737E0
2.230877708E0,-1.022889972E0,9.191629291E-1,-1.099453688E0
2.233343594E0,-9.877372980E-1,8.500559330E-1,-1.089866519E0
2.235810156E0,-9.547150731E-1,7.797505856E-1,-1.076018453E0
2.238276719E0,-9.216928482E-1,7.030537724E-1,-1.053648591E0
2.240743281E0,-8.897358775E-1,6.199656129E-1,-1.032477140E0
2.243209896E0,-8.567136526E-1,5.347470045E-1,-1.012237668E0
2.245676458E0,-8.236914277E-1,4.484631121E-1,-9.856068492E-1
2.248143021E0,-7.917344570E-1,3.632444739E-1,-9.611064792E-1
2.250609583E0,-7.672340870E-1,2.781589627E-1,-9.355409145E-1
2.253074375E0,-7.416685224E-1,2.014621943E-1,-9.089100957E-1
2.255540885E0,-7.182333469E-1,1.343525201E-1,-8.876054287E-1
2.258007448E0,-7.011896372E-1,7.256899774E-2,-8.673660159E-1
2.260473958E0,-6.894720793E-1,2.569874749E-2,-8.535179496E-1
2.262940469E0,-6.809502244E-1,-1.264964230E-2,-8.396699429E-1
2.265406979E0,-6.777545214E-1,-4.460663348E-2,-8.300828338E-1
2.267873542E0,-6.820154190E-1,-7.123745978E-2,-8.236914277E-1
2.270340052E0,-6.958634853E-1,-9.999874979E-2,-8.290175796E-1
2.272809583E0,-7.139724493E-1,-1.255643368E-1,-8.354089856E-1
2.275276198E0,-7.469946742E-1,-1.532603949E-1,-8.418003917E-1
2.277742813E0,-7.853430510E-1,-1.777607650E-1,-8.481917977E-1
2.280209375E0,-8.386046886E-1,-2.011958808E-1,-8.524527550E-1
2.282675990E0,-9.025186896E-1,-2.193048447E-1,-8.524527550E-1
2.285142604E0,-9.696283340E-1,-2.331528813E-1,-8.449960947E-1
2.287609219E0,-1.044194698E0,-2.395442724E-1,-8.386046886E-1
2.290075781E0,-1.117695808E0,-2.459356785E-1,-8.279523849E-1
2.292540208E0,-1.187867999E0,-2.544575334E-1,-8.173000216E-1
2.295006771E0,-1.252847195E0,-2.704360485E-1,-8.055824637E-1
2.297473281E0,-1.313565493E0,-2.853493094E-1,-7.959953547E-1
2.299939844E0,-1.364696622E0,-3.002625704E-1,-7.927996516E-1
2.302406406E0,-1.406240702E0,-3.151758313E-1,-7.927996516E-1
2.304872917E0,-1.443523884E0,-3.299559355E-1,-7.949301600E-1
2.307339479E0,-1.470154762E0,-3.384777904E-1,-8.002563119E-1
2.309806042E0,-1.490394115E0,-3.416734934E-1,-8.087781668E-1
2.312273958E0,-1.502111673E0,-3.363473415E-1,-8.162348270E-1
2.314740573E0,-1.505307436E0,-3.331516385E-1,-8.215609789E-1
2.317207135E0,-1.502111673E0,-3.320863843E-1,-8.332785368E-1
2.319673698E0,-1.493589878E0,-3.246297538E-1,-8.407351375E-1
2.322140313E0,-1.480807066E0,-3.203688264E-1,-8.471265435E-1
2.324606875E0,-1.461632848E0,-3.224993050E-1,-8.535179496E-1
2.327073438E0,-1.439262986E0,-3.246297538E-1,-8.556483984E-1
2.329540052E0,-1.416893125E0,-3.288906813E-1,-8.567136526E-1
2.331991719E0,-1.386001348E0,-3.374125659E-1,-8.577789068E-1
2.334457917E0,-1.352979064E0,-3.533910513E-1,-8.577789068E-1
2.336924167E0,-1.315695882E0,-3.789566457E-1,-8.556483984E-1
2.339390365E0,-1.276282310E0,-4.077179432E-1,-8.535179496E-1
2.341856563E0,-1.236868739E0,-4.439358711E-1,-8.545832038E-1
2.344322760E0,-1.195324659E0,-4.854799509E-1,-8.524527550E-1
2.346788958E0,-1.158041477E0,-5.344806910E-1,-8.535179496E-1
2.349255208E0,-1.123021960E0,-5.898727775E-1,-8.545832038E-1
2.351740156E0,-1.083608270E0,-6.495258212E-1,-8.545832038E-1
2.354206823E0,-1.062303662E0,-7.177007794E-1,-8.577789068E-1
2.356673490E0,-1.048455596E0,-7.922670841E-1,-8.599093556E-1
2.359140156E0,-1.038868546E0,-8.774856925E-1,-8.631050587E-1
2.361606823E0,-1.036738038E0,-9.710930586E-1,-8.599093556E-1
2.364073542E0,-1.039933681E0,-1.069094539E0,-8.503222466E-1
2.366540208E0,-1.049520850E0,-1.171356916E0,-8.375394940E-1
2.369006875E0,-1.065499306E0,-1.266162634E0,-8.151695728E-1
2.371460365E0,-1.089999676E0,-1.358837843E0,-7.906692028E-1
2.373926667E0,-1.125152349E0,-1.438730359E0,-7.619079351E-1
2.376393021E0,-1.154845715E0,-1.519688010E0,-7.299509048E-1
2.378859375E0,-1.191063643E0,-1.601577878E0,-6.979939342E-1
2.381325729E0,-1.226216316E0,-1.676144123E0,-6.649717093E-1
2.383792083E0,-1.257108092E0,-1.744319081E0,-6.319494843E-1
2.386258438E0,-1.286934614E0,-1.801841617E0,-6.010577083E-1
2.388724792E0,-1.316761136E0,-1.847646713E0,-5.733616948E-1
2.391186927E0,-1.345522404E0,-1.878538489E0,-5.520570278E-1
2.393653177E0,-1.372153282E0,-1.897712588E0,-5.339480639E-1
2.396119427E0,-1.388131738E0,-1.899843097E0,-5.179695487E-1
2.398585677E0,-1.404110312E0,-1.884929776E0,-5.041215420E-1
2.401051927E0,-1.415827870E0,-1.852972865E0,-4.966649115E-1
2.403518125E0,-1.424349666E0,-1.816754937E0,-4.913387299E-1
2.405984375E0,-1.430741072E0,-1.766688943E0,-4.934692085E-1
2.408450625E0,-1.432871580E0,-1.710231662E0,-4.998605847E-1
2.410938594E0,-1.428610682E0,-1.644187212E0,-5.094476938E-1
2.413405365E0,-1.422219276E0,-1.572816610E0,-5.179695487E-1
2.415872188E0,-1.415827870E0,-1.506905317E0,-5.286219120E-1
2.418338958E0,-1.403045058E0,-1.438730359E0,-5.403394699E-1
2.420805729E0,-1.388131738E0,-1.369490266E0,-5.509917736E-1
2.423272552E0,-1.362566233E0,-1.313032866E0,-5.605788827E-1
2.425739323E0,-1.335935354E0,-1.259771228E0,-5.691007376E-1
2.428206094E0,-1.306108832E0,-1.210770488E0,-5.776225924E-1
2.430667656E0,-1.269890904E0,-1.177748203E0,-5.850792527E-1
2.433134323E0,-1.233672976E0,-1.152182698E0,-5.914706588E-1
2.435600990E0,-1.194259405E0,-1.129812717E0,-5.914706588E-1
2.438067656E0,-1.154845715E0,-1.115964770E0,-5.914706588E-1
2.440534323E0,-1.110239148E0,-1.107442856E0,-5.840139985E-1
2.443000990E0,-1.066564560E0,-1.096790552E0,-5.680354834E-1
2.445467604E0,-1.028216124E0,-1.092529655E0,-5.520570278E-1
2.447934271E0,-9.919982553E-1,-1.101051450E0,-5.328828096E-1
2.450399375E0,-9.547150731E-1,-1.114899516E0,-5.083824396E-1
2.452865990E0,-9.110405445E-1,-1.145791292E0,-4.838820994E-1
2.455332604E0,-8.641703129E-1,-1.196922421E0,-4.540555775E-1
2.457799271E0,-8.215609789E-1,-1.249118924E0,-4.254274368E-1
2.460265885E0,-7.810820937E-1,-1.309837103E0,-3.998618424E-1
2.462732500E0,-7.491251230E-1,-1.370555401E0,-3.711005449E-1
2.465199115E0,-7.246247530E-1,-1.431273699E0,-3.444697261E-1
2.467665729E0,-6.958634853E-1,-1.505840063E0,-3.157084286E-1
2.470135000E0,-6.671021581E-1,-1.579208016E0,-2.890776098E-1
2.472601667E0,-6.447322965E-1,-1.650578618E0,-2.645772398E-1
2.475068333E0,-6.212971807E-1,-1.714492559E0,-2.358159572E-1
2.477535052E0,-6.010577083E-1,-1.768819451E0,-2.113156021E-1
2.480001719E0,-5.850792527E-1,-1.806102633E0,-1.846847683E-1
2.482468385E0,-5.722964406E-1,-1.830603004E0,-1.655105799E-1
2.484935104E0,-5.627093315E-1,-1.845516205E0,-1.516625583E-1
2.487401771E0,-5.499265194E-1,-1.840190053E0,-1.410102248E-1
2.489866198E0,-5.456656218E-1,-1.815689683E0,-1.399449855E-1
2.492332865E0,-5.456656218E-1,-1.773080349E0,-1.388797611E-1
2.494799479E0,-5.467308760E-1,-1.725144863E0,-1.378145218E-1
2.497266094E0,-5.467308760E-1,-1.667622328E0,-1.420754492E-1
2.499732708E0,-5.435351729E-1,-1.605838776E0,-1.463363916E-1
2.502199375E0,-5.467308760E-1,-1.534601331E0,-1.537930220E-1
2.504665990E0,-5.467308760E-1,-1.463230729E0,-1.623148769E-1
2.507132604E0,-5.477960706E-1,-1.391860127E0,-1.740324497E-1
2.509597656E0,-5.477960706E-1,-1.318359017E0,-1.825543046E-1
2.512064271E0,-5.488613248E-1,-1.236336112E0,-1.953371018E-1
2.514530833E0,-5.573831797E-1,-1.146856546E0,-2.081198990E-1
2.516997448E0,-5.605788827E-1,-1.065898776E0,-2.230331600E-1
2.519464010E0,-5.669702888E-1,-1.004115224E0,-2.390116602E-1
2.521930625E0,-5.712311864E-1,-9.529840946E-1,-2.560553849E-1
2.524397188E0,-5.744268894E-1,-9.179645777E-1,-2.720338702E-1
2.526863802E0,-5.797531009E-1,-8.870728016E-1,-2.848166823E-1
2.529330677E0,-5.893401504E-1,-8.551158309E-1,-2.954690158E-1
2.531797292E0,-6.031882167E-1,-8.199630976E-1,-3.018604219E-1
2.534263906E0,-6.202319264E-1,-7.837451696E-1,-3.050560951E-1
2.536730469E0,-6.330147386E-1,-7.645710111E-1,-3.082517982E-1
2.539197083E0,-6.394061446E-1,-7.528534532E-1,-3.103822768E-1
2.541663698E0,-6.436670423E-1,-7.411358953E-1,-3.114475012E-1
2.544130260E0,-6.489931941E-1,-7.283530831E-1,-3.103822768E-1
2.546596875E0,-6.553846002E-1,-7.283530831E-1,-3.125127256E-1
2.549064010E0,-6.532541513E-1,-7.326140404E-1,-3.114475012E-1
2.551530625E0,-6.511237025E-1,-7.507229447E-1,-3.103822768E-1
2.553997240E0,-6.415365934E-1,-7.624405622E-1,-3.103822768E-1
2.556463854E0,-6.298190355E-1,-7.762885690E-1,-3.125127256E-1
2.558930469E0,-6.170362234E-1,-7.965279818E-1,-3.125127256E-1
2.561397083E0,-5.946663618E-1,-8.178326488E-1,-3.157084286E-1
2.563863698E0,-5.701659918E-1,-8.380720615E-1,-3.178389072E-1
2.566330313E0,-5.467308760E-1,-8.540505767E-1,-3.231650591E-1
2.568795938E0,-5.266245604E-1,-8.583115339E-1,-3.306216896E-1
2.571262552E0,-5.095808506E-1,-8.700290918E-1,-3.380783200E-1
2.573729115E0,-4.872109592E-1,-8.721595407E-1,-3.455349505E-1
2.576195729E0,-4.605801404E-1,-8.806813955E-1,-3.476654291E-1
2.578662292E0,-4.328840673E-1,-8.913337588E-1,-3.434045017E-1
2.581128906E0,-4.062532485E-1,-8.806813955E-1,-3.380783200E-1
2.583595469E0,-3.870790601E-1,-8.561810255E-1,-3.284912407E-1
2.586062083E0,-3.711005449E-1,-8.263545036E-1,-3.189041317E-1
2.588526719E0,-3.487306535E-1,-8.114412427E-1,-2.997299433E-1
2.590993281E0,-3.189041317E-1,-8.007889390E-1,-2.773600519E-1
2.593459792E0,-2.826862037E-1,-7.826799750E-1,-2.539249361E-1
2.595926354E0,-2.507292330E-1,-7.645710111E-1,-2.304897904E-1
2.598392865E0,-2.209026963E-1,-7.390053868E-1,-2.027937323E-1
2.600859427E0,-1.900109351E-1,-7.102441192E-1,-1.804238409E-1
2.603325938E0,-1.442059278E-1,-6.825480461E-1,-1.580539495E-1
2.605792500E0,-9.840089828E-2,-6.505910754E-1,-1.410102248E-1
2.608264115E0,-4.940018058E-2,-6.154384017E-1,-1.271621883E-1
2.610730781E0,-3.595161485E-3,-5.738942623E-1,-1.143793985E-1
2.613197448E0,3.794892505E-2,-5.227631330E-1,-1.069227681E-1
2.615664115E0,7.203638554E-2,-4.716319144E-1,-1.005313694E-1
2.618130781E0,1.059906855E-1,-4.162397981E-1,-9.840089828E-2
2.620597448E0,1.336867511E-1,-3.619129062E-1,-9.946613014E-2
2.623064115E0,1.581871063E-1,-3.066539466E-1,-9.520520270E-2
2.625530781E0,1.741656065E-1,-2.544575334E-1,-9.733566642E-2
2.627993073E0,1.869483888E-1,-2.054568231E-1,-9.946613014E-2
2.630459635E0,1.976007223E-1,-1.543256342E-1,-1.037270650E-1
2.632926198E0,1.997311860E-1,-1.095858440E-1,-1.133141592E-1
2.635392760E0,2.007964253E-1,-6.165036187E-2,-1.239664927E-1
2.637859323E0,1.986659616E-1,-9.453942999E-3,-1.335535944E-1
2.640325885E0,1.933397949E-1,3.848154470E-2,-1.527277827E-1
2.642792448E0,1.837527007E-1,8.854749799E-2,-1.740324497E-1
2.645258958E0,1.709699035E-1,1.396786869E-1,-1.932066381E-1
2.647724635E0,1.517957002E-1,1.876141727E-1,-2.155765295E-1
2.650191198E0,1.368824393E-1,2.312887162E-1,-2.411421239E-1
2.652657708E0,1.177082509E-1,2.664414048E-1,-2.677729428E-1
2.655124219E0,9.427312016E-2,2.961347699E-1,-2.912080884E-1
2.657590781E0,7.416684926E-2,3.248960674E-1,-3.146432042E-1
2.660057292E0,5.605788901E-2,3.451355100E-1,-3.306216896E-1
2.662523854E0,3.581846133E-2,3.515268862E-1,-3.434045017E-1
2.664990365E0,1.557903271E-2,3.515268862E-1,-3.529915810E-1
2.667458281E0,-5.725627299E-3,3.451355100E-1,-3.604482114E-1
2.669924844E0,-2.703028731E-2,3.291569948E-1,-3.615134656E-1
2.672391406E0,-4.833494872E-2,2.993304729E-1,-3.636439145E-1
2.674858021E0,-7.283531129E-2,2.707023323E-1,-3.679048419E-1
2.677324583E0,-9.520520270E-2,2.291582525E-1,-3.689700961E-1
2.679791146E0,-1.260969639E-1,1.854836941E-1,-3.657743931E-1
2.682257708E0,-1.601844132E-1,1.396786869E-1,-3.604482114E-1
2.684724271E0,-1.995980442E-1,8.854749799E-2,-3.519263566E-1
2.687192344E0,-2.411421239E-1,3.635107726E-2,-3.412740231E-1
2.689658958E0,-2.858819067E-1,-1.691057347E-2,-3.220998347E-1
2.692125573E0,-3.359478712E-1,-7.336792350E-2,-2.997299433E-1
2.694592188E0,-3.860138059E-1,-1.330209672E-1,-2.741643488E-1
2.697058802E0,-4.414059222E-1,-1.894783229E-1,-2.485987544E-1
2.699525417E0,-4.946675897E-1,-2.512618303E-1,-2.262288630E-1
2.701991979E0,-5.403394699E-1,-3.087844253E-1,-1.985328048E-1
2.704458594E0,-5.872097015E-1,-3.672390878E-1,-1.729672104E-1
2.706921615E0,-6.276885867E-1,-4.215659797E-1,-1.527277827E-1
2.709388125E0,-6.649717093E-1,-4.748276174E-1,-1.346188188E-1
2.711854635E0,-6.937330365E-1,-5.248935819E-1,-1.239664927E-1
2.714321146E0,-7.192986012E-1,-5.706986189E-1,-1.133141592E-1
2.716787708E0,-7.384728193E-1,-6.090469956E-1,-1.111836955E-1
2.719254219E0,-7.523208261E-1,-6.420692205E-1,-1.101184636E-1
2.721720729E0,-7.555165291E-1,-6.665695906E-1,-1.122489274E-1
2.724187240E0,-7.533860803E-1,-6.878741980E-1,-1.165098622E-1
2.726653958E0,-7.469946742E-1,-7.017222643E-1,-1.218360290E-1
2.729120469E0,-7.395380139E-1,-7.059831619E-1,-1.303578913E-1
2.731587031E0,-7.299509048E-1,-6.974613070E-1,-1.388797611E-1
2.734053542E0,-7.139724493E-1,-6.857437491E-1,-1.527277827E-1
2.736520052E0,-6.916025281E-1,-6.697652340E-1,-1.676410437E-1
2.738986563E0,-6.617760062E-1,-6.559172273E-1,-1.857500076E-1
2.741453073E0,-6.372756362E-1,-6.410039663E-1,-2.049241960E-1
2.743919635E0,-6.117100716E-1,-6.250254512E-1,-2.230331600E-1
2.746389219E0,-5.691007376E-1,-6.175688505E-1,-2.400768995E-1
2.748855833E0,-5.234288573E-1,-6.228950024E-1,-2.592510879E-1
2.751322448E0,-4.797543287E-1,-6.260907054E-1,-2.741643488E-1
2.753789010E0,-4.318188429E-1,-6.292864084E-1,-2.880123854E-1
2.756255625E0,-3.838833570E-1,-6.324821115E-1,-2.975994647E-1
2.758722240E0,-3.423392773E-1,-6.303516626E-1,-3.071865737E-1
2.761188854E0,-3.018604219E-1,-6.228950024E-1,-3.071865737E-1
2.763655417E0,-2.624467909E-1,-6.165035963E-1,-3.050560951E-1
2.766121406E0,-2.198374718E-1,-6.218297482E-1,-2.975994647E-1
2.768588021E0,-1.719019860E-1,-6.367430687E-1,-2.912080884E-1
2.771054583E0,-1.250317246E-1,-6.484606266E-1,-2.837514579E-1
2.773521146E0,-8.455286920E-2,-6.569824815E-1,-2.762948275E-1
2.775987760E0,-4.726971686E-2,-6.601781845E-1,-2.667077184E-1
2.778454323E0,-8.921326138E-3,-6.601781845E-1,-2.539249361E-1
2.780920938E0,2.836182900E-2,-6.559172273E-1,-2.411421239E-1
2.783387500E0,6.031882018E-2,-6.473953724E-1,-2.272941023E-1
2.785854479E0,9.427312016E-2,-6.367430687E-1,-2.113156021E-1
2.788321094E0,1.230344176E-1,-6.250254512E-1,-1.985328048E-1
2.790787656E0,1.496652365E-1,-6.165035963E-1,-1.889457107E-1
2.793254271E0,1.741656065E-1,-6.015903354E-1,-1.804238409E-1
2.795720885E0,1.986659616E-1,-5.824161768E-1,-1.708367467E-1
2.798187448E0,2.167749256E-1,-5.643072128E-1,-1.612496525E-1
2.800654063E0,2.327534109E-1,-5.334154367E-1,-1.548582464E-1
2.803120677E0,2.487319112E-1,-5.046541691E-1,-1.474016160E-1
2.805590938E0,2.625799477E-1,-4.758928418E-1,-1.442059278E-1
2.808057604E0,2.742975056E-1,-4.418053925E-1,-1.399449855E-1
2.810524271E0,2.817541361E-1,-4.151745737E-1,-1.410102248E-1
2.812990990E0,2.913412452E-1,-3.896089792E-1,-1.516625583E-1
2.815457656E0,2.987978756E-1,-3.683043122E-1,-1.655105799E-1
2.817924375E0,3.051892519E-1,-3.459344208E-1,-1.814890802E-1
2.820391042E0,3.126458824E-1,-3.267602324E-1,-2.027937323E-1
2.822857708E0,3.137111366E-1,-3.130453527E-1,-2.230331600E-1
2.825318646E0,3.158415854E-1,-2.991973162E-1,-2.454030514E-1
2.827785208E0,3.126458824E-1,-2.864145339E-1,-2.624467909E-1
2.830251719E0,3.073197305E-1,-2.746969759E-1,-2.784252763E-1
2.832718281E0,2.987978756E-1,-2.629793882E-1,-2.933385372E-1
2.835184844E0,2.934716940E-1,-2.523270845E-1,-3.061213493E-1
2.837651354E0,2.849498391E-1,-2.480661422E-1,-3.220998347E-1
2.840117917E0,2.732322812E-1,-2.406095117E-1,-3.274259865E-1
2.842584427E0,2.615146935E-1,-2.363485843E-1,-3.338173926E-1
2.845050573E0,2.540580630E-1,-2.342181057E-1,-3.359478712E-1
2.847517135E0,2.508623898E-1,-2.331528813E-1,-3.338173926E-1
2.849983646E0,2.497971505E-1,-2.363485843E-1,-3.306216896E-1
2.852450156E0,2.423405200E-1,-2.470009029E-1,-3.242303133E-1
2.854916719E0,2.412752807E-1,-2.683055699E-1,-3.135779798E-1
2.857383229E0,2.370143533E-1,-2.874797583E-1,-3.071865737E-1
2.859849792E0,2.380795777E-1,-3.130453527E-1,-2.965342402E-1
2.862316302E0,2.359491140E-1,-3.416734934E-1,-2.901428342E-1
2.864783646E0,2.370143533E-1,-3.672390878E-1,-2.805557549E-1
2.867250208E0,2.391448170E-1,-3.928046823E-1,-2.667077184E-1
2.869716771E0,2.402100414E-1,-4.109136462E-1,-2.528596818E-1
2.872183333E0,2.455362082E-1,-4.300878346E-1,-2.304897904E-1
2.874649844E0,2.540580630E-1,-4.471315742E-1,-2.102503628E-1
2.877116406E0,2.647103965E-1,-4.609795809E-1,-1.836195439E-1
2.879582969E0,2.860150635E-1,-4.737623930E-1,-1.612496525E-1
2.882049531E0,3.094501793E-1,-4.865451753E-1,-1.399449855E-1
2.884516510E0,3.286243975E-1,-5.003932118E-1,-1.218360290E-1
2.886983073E0,3.573856652E-1,-5.121107697E-1,-1.090532318E-1
2.889449635E0,3.882774413E-1,-5.227631330E-1,-9.733566642E-2
2.891916198E0,4.212996662E-1,-5.398068428E-1,-8.881380409E-2
2.894382760E0,4.564523399E-1,-5.451329947E-1,-8.774857223E-2
2.896849323E0,4.884093404E-1,-5.334154367E-1,-8.668334037E-2
2.899315885E0,5.161054134E-1,-5.185021758E-1,-8.561810106E-2
2.901782448E0,5.416709781E-1,-4.876104295E-1,-8.561810106E-2
2.904247760E0,5.661713481E-1,-4.503272474E-1,-8.774857223E-2
2.906714323E0,5.885412693E-1,-4.141093493E-1,-8.987903595E-2
2.909180833E0,6.098458767E-1,-3.736304939E-1,-9.413997084E-2
2.911647344E0,6.279548407E-1,-3.288906813E-1,-1.069227681E-1
2.914113906E0,6.449986100E-1,-2.842840552E-1,-1.197055578E-1
2.916580417E0,6.588466167E-1,-2.320876420E-1,-1.356840581E-1
2.919046979E0,6.663032770E-1,-1.798912287E-1,-1.527277827E-1
2.921513490E0,6.748251319E-1,-1.244991124E-1,-1.665758193E-1
2.923978698E0,6.790860295E-1,-7.017222792E-2,-1.782933772E-1
2.926445208E0,6.769555807E-1,-1.691057347E-2,-1.889457107E-1
2.928911719E0,6.716294289E-1,3.315537795E-2,-1.974675655E-1
2.931378177E0,6.641727686E-1,7.896039635E-2,-2.017285079E-1
2.933844688E0,6.503247619E-1,1.268958896E-1,-2.038589716E-1
2.936311198E0,6.343462467E-1,1.705704331E-1,-2.049241960E-1
2.938777708E0,6.119763851E-1,2.078536004E-1,-2.059894353E-1
2.941244167E0,5.896064639E-1,2.440715134E-1,-2.123808414E-1
2.943712708E0,5.651060939E-1,2.760285139E-1,-2.155765295E-1
2.946179271E0,5.406057835E-1,3.067871034E-1,-2.177069932E-1
2.948645833E0,5.118444562E-1,3.270265460E-1,-2.230331600E-1
2.951112344E0,4.841484129E-1,3.430050313E-1,-2.304897904E-1
2.953578906E0,4.543218911E-1,3.515268862E-1,-2.358159572E-1
2.956045469E0,4.308867455E-1,3.493964374E-1,-2.400768995E-1
2.958512031E0,4.095821083E-1,3.430050313E-1,-2.443378270E-1
2.960978542E0,3.840165138E-1,3.302222490E-1,-2.443378270E-1
2.963446667E0,3.584509194E-1,3.057218790E-1,-2.422073632E-1
2.965913281E0,3.371462524E-1,2.813546658E-1,-2.400768995E-1
2.968379844E0,3.232982159E-1,2.547238469E-1,-2.347507328E-1
2.970846458E0,3.051892519E-1,2.174406946E-1,-2.262288630E-1
2.973313021E0,2.913412452E-1,1.844184697E-1,-2.240983993E-1
2.975779635E0,2.796236575E-1,1.460700780E-1,-2.240983993E-1
2.978246198E0,2.668408751E-1,1.023955271E-1,-2.240983993E-1
2.980712813E0,2.519276142E-1,5.765573680E-2,-2.272941023E-1
2.983178646E0,2.444709837E-1,1.291595027E-2,-2.294245660E-1
2.985645208E0,2.316881865E-1,-2.862813696E-2,-2.358159572E-1
2.988111823E0,2.199706137E-1,-7.017222792E-2,-2.411421239E-1
2.990578385E0,2.103835195E-1,-1.117163152E-1,-2.485987544E-1
2.993044948E0,1.954702586E-1,-1.458037645E-1,-2.549901605E-1
2.995511510E0,1.762960702E-1,-1.745650619E-1,-2.624467909E-1
2.997978073E0,1.539261788E-1,-1.926740259E-1,-2.688381970E-1
3.000444635E0,1.283605844E-1,-1.980001926E-1,-2.688381970E-1
3.002909323E0,9.959928691E-2,-1.969349533E-1,-2.699034214E-1
3.005375833E0,7.523208112E-2,-1.905435622E-1,-2.699034214E-1
3.007842396E0,5.073172227E-2,-1.809564531E-1,-2.699034214E-1
3.010308906E0,2.410089783E-2,-1.713693589E-1,-2.667077184E-1
3.012775417E0,-2.529928461E-3,-1.585865617E-1,-2.656424940E-1
3.015241927E0,-2.916075476E-2,-1.447385401E-1,-2.603163123E-1
3.017708490E0,-5.366111174E-2,-1.308905035E-1,-2.549901605E-1
3.020175000E0,-8.029194176E-2,-1.085206121E-1,-2.464682907E-1
3.022643125E0,-1.069227681E-1,-9.254211932E-2,-2.400768995E-1
3.025109688E0,-1.356840581E-1,-7.975932211E-2,-2.315550297E-1
3.027576250E0,-1.623148769E-1,-6.591129303E-2,-2.240983993E-1
3.030042813E0,-1.900109351E-1,-6.378082931E-2,-2.187722325E-1
3.032509375E0,-2.198374718E-1,-5.845466256E-2,-2.134460658E-1
3.034975938E0,-2.517944574E-1,-5.206326395E-2,-2.081198990E-1
3.037442500E0,-2.837514579E-1,-4.673709720E-2,-2.017285079E-1
3.039909063E0,-3.146432042E-1,-4.460663348E-2,-1.942718774E-1
3.042373958E0,-3.476654291E-1,-4.141093418E-2,-1.846847683E-1
3.044840469E0,-3.796224296E-1,-4.141093418E-2,-1.750976741E-1
3.047306979E0,-4.051880240E-1,-3.821523488E-2,-1.665758193E-1
3.049773542E0,-4.328840673E-1,-4.460663348E-2,-1.527277827E-1
3.052240052E0,-4.520582557E-1,-4.780233279E-2,-1.420754492E-1
3.054706563E0,-4.691019952E-1,-5.632419512E-2,-1.324883550E-1
3.057173073E0,-4.808195531E-1,-6.697652489E-2,-1.218360290E-1
3.059639635E0,-4.861457348E-1,-8.082455397E-2,-1.143793985E-1
3.062107500E0,-4.818847775E-1,-9.360735118E-2,-1.090532318E-1
3.064574063E0,-4.722976983E-1,-1.095858440E-1,-1.005313694E-1
3.067040625E0,-4.563191831E-1,-1.308905035E-1,-9.733566642E-2
3.069507188E0,-4.382102489E-1,-1.521951705E-1,-9.307473898E-2
3.071973750E0,-4.126446545E-1,-1.713693589E-1,-8.987903595E-2
3.074440313E0,-3.902747631E-1,-1.873478591E-1,-8.561810106E-2
3.076906823E0,-3.636439145E-1,-2.054568231E-1,-8.135717362E-2
3.079373385E0,-3.348826170E-1,-2.161091566E-1,-7.496577501E-2
3.081844896E0,-3.093170524E-1,-2.193048447E-1,-7.390054315E-2
3.084311563E0,-2.816209793E-1,-2.256962508E-1,-7.177007198E-2
3.086778229E0,-2.549901605E-1,-2.235657871E-1,-7.177007198E-2
3.089244896E0,-2.272941023E-1,-2.193048447E-1,-6.750914454E-2
3.091711615E0,-1.985328048E-1,-2.129134536E-1,-6.644391268E-2
3.094178281E0,-1.719019860E-1,-2.011958808E-1,-6.963960826E-2
3.096644948E0,-1.484668553E-1,-1.884130985E-1,-6.963960826E-2
3.099111615E0,-1.239664927E-1,-1.766955256E-1,-6.857437640E-2
3.101574948E0,-1.037270650E-1,-1.617822647E-1,-6.537867337E-2
3.104041563E0,-8.668334037E-2,-1.479342431E-1,-6.218297780E-2
3.106508177E0,-7.283531129E-2,-1.308905035E-1,-5.792204663E-2
3.108974740E0,-6.963960826E-2,-1.159772426E-1,-5.259587988E-2
3.111441354E0,-7.070484012E-2,-1.021292135E-1,-5.046541616E-2
3.113907917E0,-7.390054315E-2,-8.721595258E-2,-4.513924941E-2
3.116374531E0,-8.668334037E-2,-7.336792350E-2,-3.874785081E-2
3.118841146E0,-1.026618332E-1,-5.951989442E-2,-3.661738336E-2
3.121306823E0,-1.229012609E-1,-4.141093418E-2,-3.129122034E-2
3.123773385E0,-1.495320797E-1,-2.330197208E-2,-2.703028731E-2
3.126240000E0,-1.804238409E-1,-5.193010904E-3,-2.489982173E-2
3.128706563E0,-2.070546746E-1,9.720250964E-3,-2.809552103E-2
3.131173125E0,-2.347507328E-1,1.930734888E-2,-3.129122034E-2
3.133639688E0,-2.603163123E-1,3.315537795E-2,-3.022598661E-2
3.136106250E0,-2.816209793E-1,3.741630912E-2,-2.916075476E-2
3.138572865E0,-3.029256463E-1,3.848154470E-2,-3.129122034E-2
3.141038073E0,-3.199693561E-1,3.209014609E-2,-3.022598661E-2
3.143504635E0,-3.316869438E-1,2.037258074E-2,-2.916075476E-2
3.145971146E0,-3.434045017E-1,6.524552125E-3,-2.916075476E-2
3.148437708E0,-3.551220596E-1,-1.051917579E-2,-2.703028731E-2
3.150904219E0,-3.604482114E-1,-3.501953557E-2,-1.957365684E-2
3.153370781E0,-3.625786901E-1,-5.099803209E-2,-1.637795754E-2
3.155837344E0,-3.625786901E-1,-7.017222792E-2,-8.921326138E-3
3.158303854E0,-3.615134656E-1,-9.573781490E-2,-4.660394508E-3
3.160771042E0,-3.583177626E-1,-1.149120107E-1,-3.994623839E-4
3.163237604E0,-3.540568352E-1,-1.330209672E-1,3.861469682E-3
3.165704167E0,-3.476654291E-1,-1.607170254E-1,1.025286783E-2
3.168170729E0,-3.434045017E-1,-1.916087866E-1,1.664426550E-2
3.170637292E0,-3.316869438E-1,-2.171743810E-1,1.877473295E-2
3.173103854E0,-3.242303133E-1,-2.448704392E-1,2.516612969E-2
3.175570365E0,-3.199693561E-1,-2.608489394E-1,3.475322574E-2
3.178036927E0,-3.157084286E-1,-2.715012729E-1,4.753602296E-2
3.180505104E0,-3.146432042E-1,-3.013277948E-1,5.818835273E-2
3.182971719E0,-3.125127256E-1,-3.224993050E-1,6.457975507E-2
3.185438333E0,-3.071865737E-1,-3.438039720E-1,7.629731297E-2
3.187904896E0,-3.007951677E-1,-3.736304939E-1,8.801487833E-2
3.190371510E0,-2.912080884E-1,-4.045222402E-1,9.760197252E-2
3.192838125E0,-2.730991244E-1,-4.322183132E-1,1.093195379E-1
3.195304688E0,-2.581858635E-1,-4.460663199E-1,1.284937263E-1
3.197771302E0,-2.454030514E-1,-4.631100595E-1,1.434070021E-1
3.200239115E0,-2.336854935E-1,-4.854799509E-1,1.593854874E-1
3.202705781E0,-2.272941023E-1,-4.929365814E-1,1.688394397E-1
3.205172396E0,-2.166417688E-1,-5.046541691E-1,1.794917583E-1
3.207639010E0,-2.017285079E-1,-5.312849879E-1,1.880136281E-1
3.210105625E0,-1.836195439E-1,-5.611115098E-1,1.880136281E-1
3.212572292E0,-1.655105799E-1,-5.866770744E-1,1.912093312E-1
3.215038906E0,-1.442059278E-1,-6.015903354E-1,1.965354979E-1
3.217505521E0,-1.260969639E-1,-6.047860384E-1,2.082530558E-1
3.219977292E0,-1.101184636E-1,-5.824161768E-1,2.157096863E-1
3.222444010E0,-9.520520270E-2,-5.515244007E-1,2.263620198E-1
3.224910781E0,-6.750914454E-2,-5.195674300E-1,2.370143533E-1
3.227377552E0,-3.448691964E-2,-4.822842479E-1,2.466014475E-1
3.229844323E0,-2.529928461E-3,-4.567186534E-1,2.551233172E-1
3.232311042E0,2.729659714E-2,-4.492620230E-1,2.593842447E-1
3.234777813E0,6.138405204E-2,-4.375444651E-1,2.647103965E-1
3.237244583E0,1.027949899E-1,-4.119788706E-1,2.700365782E-1
3.239703385E0,1.422086060E-1,-3.789566457E-1,2.732322812E-1
3.242169948E0,1.837527007E-1,-3.427387178E-1,2.753627300E-1
3.244636510E0,2.242315561E-1,-3.055887222E-1,2.774932086E-1
3.247103073E0,2.742975056E-1,-2.810883522E-1,2.796236575E-1
3.249569635E0,3.339505494E-1,-2.480661422E-1,2.860150635E-1
3.252036198E0,3.893426657E-1,-2.193048447E-1,2.987978756E-1
3.254502760E0,4.426043332E-1,-2.139786780E-1,3.073197305E-1
3.256969271E0,5.001268983E-1,-2.001306564E-1,3.094501793E-1
3.259435938E0,5.640408993E-1,-1.756303012E-1,3.115806580E-1
3.261902500E0,6.311505437E-1,-1.532603949E-1,3.147763610E-1
3.264369063E0,6.928009391E-1,-1.308905035E-1,3.147763610E-1
3.266835625E0,7.492582798E-1,-9.999874979E-2,3.147763610E-1
3.269302188E0,8.025199175E-1,-5.525896326E-2,3.105154335E-1
3.271768750E0,8.451292515E-1,-9.453942999E-3,3.051892519E-1
3.274235313E0,8.792167306E-1,3.954677656E-2,3.030588031E-1
3.276701875E0,9.069127440E-1,1.002650559E-1,2.966673970E-1
3.279167656E0,9.335435629E-1,1.588528752E-1,2.870802879E-1
3.281634219E0,9.527177811E-1,2.174406946E-1,2.732322812E-1
3.284100729E0,9.676310420E-1,2.781589627E-1,2.636451721E-1
3.286567292E0,9.814790487E-1,3.387441039E-1,2.508623898E-1
3.289033802E0,9.963923693E-1,3.973319232E-1,2.359491140E-1
3.291500365E0,1.011305571E0,4.473978579E-1,2.263620198E-1
3.293966927E0,1.026218891E0,4.921376705E-1,2.189053893E-1
3.296433438E0,1.045393109E0,5.283555984E-1,2.093182951E-1
3.298898177E0,1.063502073E0,5.635082722E-1,1.986659616E-1
3.301364688E0,1.081611037E0,5.816172361E-1,1.912093312E-1
3.303831146E0,1.100785136E0,5.901390910E-1,1.837527007E-1
3.306297656E0,1.112502694E0,5.912043452E-1,1.773612946E-1
3.308764167E0,1.129546523E0,5.805519819E-1,1.709699035E-1
3.311230677E0,1.143394470E0,5.613778234E-1,1.625811905E-1
3.313697135E0,1.152981639E0,5.304860473E-1,1.583202630E-1
3.316163646E0,1.154046774E0,4.963985980E-1,1.508636326E-1
3.318631094E0,1.152981639E0,4.601806700E-1,1.466026902E-1
3.321097604E0,1.152981639E0,4.207670391E-1,1.444722265E-1
3.323564115E0,1.142329216E0,3.845491111E-1,1.412765235E-1
3.326030677E0,1.128481269E0,3.483312130E-1,1.359503716E-1
3.328497188E0,1.107176542E0,3.131785095E-1,1.306242049E-1
3.330963698E0,1.079480529E0,2.866808474E-1,1.242327988E-1
3.333430208E0,1.044327855E0,2.621804774E-1,1.178414002E-1
3.335896719E0,1.004914165E0,2.472672164E-1,1.167761683E-1
3.338364583E0,9.473916292E-1,2.376801223E-1,1.093195379E-1
3.340831146E0,8.824124336E-1,2.291582525E-1,9.973244369E-2
3.343297708E0,8.089113235E-1,2.280930281E-1,9.334104508E-2
3.345764271E0,7.322145700E-1,2.280930281E-1,8.908011019E-2
3.348230781E0,6.481943130E-1,2.344844192E-1,8.908011019E-2
3.350697344E0,5.672366023E-1,2.398105860E-1,9.121058136E-2
3.353163906E0,4.841484129E-1,2.376801223E-1,9.547150880E-2
3.355630469E0,4.053211510E-1,2.440715134E-1,1.007976755E-1
3.358097500E0,3.211677670E-1,2.408758104E-1,1.093195379E-1
3.360564063E0,2.423405200E-1,2.376801223E-1,1.178414002E-1
3.363030625E0,1.720351279E-1,2.259625494E-1,1.231675670E-1
3.365497188E0,1.006645188E-1,2.078536004E-1,1.295589656E-1
3.367963750E0,3.155753016E-2,1.790923029E-1,1.338198930E-1
3.370430313E0,-3.448691964E-2,1.460700780E-1,1.348851323E-1
3.372896927E0,-1.037270650E-1,1.002650559E-1,1.338198930E-1
3.375363490E0,-1.729672104E-1,5.659050494E-2,1.338198930E-1
3.377831250E0,-2.443378270E-1,4.394086078E-3,1.327546686E-1
3.380297865E0,-3.167736828E-1,-4.993279651E-2,1.274285018E-1
3.382764479E0,-3.902747631E-1,-1.074553803E-1,1.210371032E-1
3.385231042E0,-4.637758136E-1,-1.692388952E-1,1.125152409E-1
3.387697656E0,-5.350132585E-1,-2.352833450E-1,9.973244369E-2
3.390164219E0,-6.031882167E-1,-3.023930192E-1,9.014534205E-2
3.392630833E0,-6.692326665E-1,-3.725652397E-1,7.842778414E-2
3.395097448E0,-7.363423109E-1,-4.386096895E-1,6.884068251E-2
3.397560104E0,-7.981258631E-1,-5.014584661E-1,6.564498693E-2
3.400026615E0,-8.567136526E-1,-5.557853580E-1,6.351451576E-2
3.402493125E0,-9.110405445E-1,-6.058512926E-1,6.351451576E-2
3.404959583E0,-9.536498785E-1,-6.505910754E-1,6.351451576E-2
3.407426094E0,-9.888025522E-1,-6.857437491E-1,5.925358832E-2
3.409892604E0,-1.020759583E0,-7.177007794E-1,5.925358832E-2
3.412359115E0,-1.055912256E0,-7.283530831E-1,5.712312087E-2
3.414825573E0,-1.093195438E0,-7.262226343E-1,5.392742157E-2
3.417294271E0,-1.116630554E0,-7.336792350E-1,5.605788901E-2
3.419760833E0,-1.130478501E0,-7.283530831E-1,4.966649041E-2
3.422227396E0,-1.140065670E0,-7.198312283E-1,4.434032366E-2
3.424693958E0,-1.140997767E0,-7.038527131E-1,3.368799388E-2
3.427160469E0,-1.134739518E0,-6.718957424E-1,2.729659714E-2
3.429627031E0,-1.124087095E0,-6.271559596E-1,1.983996481E-2
3.432093594E0,-1.110239148E0,-5.632419586E-1,1.451379992E-2
3.434560156E0,-1.093195438E0,-4.886756539E-1,9.187635034E-3
3.437012656E0,-1.071890712E0,-4.055874646E-1,4.926702939E-3
3.439478854E0,-1.043129444E0,-3.173062801E-1,1.731003635E-3
3.441945052E0,-1.009042025E0,-2.267614752E-1,-5.725627299E-3
3.444411250E0,-9.717588425E-1,-1.351514459E-1,-1.637795754E-2
3.446877448E0,-9.270190597E-1,-5.525896326E-2,-3.342168778E-2
3.449343646E0,-8.769530654E-1,1.504641678E-2,-5.898727849E-2
3.451809896E0,-8.258218765E-1,7.896039635E-2,-8.561810106E-2
3.454276094E0,-7.693645358E-1,1.311568171E-1,-1.122489274E-1
3.456741615E0,-7.033200860E-1,1.780270636E-1,-1.431406885E-1
3.459207813E0,-6.266233325E-1,2.163754553E-1,-1.740324497E-1
3.461674010E0,-5.456656218E-1,2.387453467E-1,-2.091851383E-1
3.464140156E0,-4.616453648E-1,2.483324558E-1,-2.432725877E-1
3.466606354E0,-3.679048419E-1,2.504629195E-1,-2.699034214E-1
3.469072552E0,-2.677729428E-1,2.355496585E-1,-2.922733128E-1
3.471538750E0,-1.687062830E-1,1.972012669E-1,-3.157084286E-1
3.474004896E0,-6.431344151E-2,1.428743750E-1,-3.412740231E-1
3.476475781E0,4.860125855E-2,7.469946891E-2,-3.647091687E-1
3.478942083E0,1.677742004E-1,2.263620263E-3,-3.838833570E-1
3.481408385E0,2.849498391E-1,-6.591129303E-2,-3.956009150E-1
3.483874688E0,3.999949992E-1,-1.223686412E-1,-3.987966180E-1
3.486341042E0,5.150401592E-1,-1.585865617E-1,-3.956009150E-1
3.488807344E0,6.226286888E-1,-1.798912287E-1,-3.913399875E-1
3.491273646E0,7.290188670E-1,-1.820216924E-1,-3.892095089E-1
3.493739948E0,8.291507363E-1,-1.745650619E-1,-3.849485815E-1
3.496224115E0,9.207608104E-1,-1.553908736E-1,-3.796224296E-1
3.498690833E0,1.007044673E0,-1.266295761E-1,-3.711005449E-1
3.501157604E0,1.088002324E0,-7.762885839E-2,-3.625786901E-1
3.503624375E0,1.170025349E0,-2.010627277E-2,-3.572525382E-1
3.506091094E0,1.249917746E0,4.913387448E-2,-3.593829870E-1
3.508557865E0,1.322220445E0,1.322220564E-1,-3.615134656E-1
3.511024635E0,1.394656301E0,2.238320857E-1,-3.689700961E-1
3.513491354E0,1.461766005E0,3.270265460E-1,-3.796224296E-1
3.515940000E0,1.524614811E0,4.452674091E-1,-3.966661394E-1
3.518406302E0,1.585332990E0,5.635082722E-1,-4.158403277E-1
3.520872604E0,1.639659882E0,6.764229536E-1,-4.412727654E-1
3.523338906E0,1.692921638E0,7.872071862E-1,-4.700340629E-1
3.525805208E0,1.737661362E0,8.969262242E-1,-4.987953603E-1
3.528271510E0,1.784531593E0,1.003316402E0,-5.286219120E-1
3.530737813E0,1.828206182E0,1.099187374E0,-5.552527308E-1
3.533204115E0,1.870815516E0,1.182275534E0,-5.818835497E-1
3.535675313E0,1.911161184E0,1.247254729E0,-6.117100716E-1
3.538141719E0,1.948444366E0,1.284537911E0,-6.394061446E-1
3.540608125E0,1.980401397E0,1.300516367E0,-6.702978611E-1
3.543074583E0,2.009162664E0,1.286668301E0,-7.011896372E-1
3.545540990E0,2.027271509E0,1.244058967E0,-7.299509048E-1
3.548007396E0,2.034728289E0,1.187601686E0,-7.544512749E-1
3.550473854E0,2.024075985E0,1.120491982E0,-7.821473479E-1
3.552940260E0,2.004901648E0,1.037403822E0,-8.034520149E-1
3.555421354E0,1.977205634E0,9.543156624E-1,-8.183652759E-1
3.557888125E0,1.943118215E0,8.660344481E-1,-8.279523849E-1
3.560354948E0,1.907965541E0,7.754896283E-1,-8.343437910E-1
3.562821719E0,1.866554618E0,6.849448085E-1,-8.343437910E-1
3.565288490E0,1.817553878E0,5.975957513E-1,-8.290175796E-1
3.567755313E0,1.753639817E0,5.283555984E-1,-8.258218765E-1
3.570222083E0,1.626877189E0,5.283555984E-1,-8.247566819E-1
3.572688854E0,1.443657041E0,5.453993082E-1,-8.332785368E-1
3.575157292E0,1.220091224E0,5.656387210E-1,-8.471265435E-1
3.577624115E0,9.260869622E-1,6.220960617E-1,-8.673660159E-1
3.580090938E0,5.555190444E-1,6.913362145E-1,-8.918663263E-1
3.582557760E0,1.528609395E-1,7.094451785E-1,-9.099752903E-1
3.585024635E0,-2.262288630E-1,6.817491055E-1,-9.184971452E-1
3.587491458E0,-5.691007376E-1,6.029219031E-1,-9.078448415E-1
3.589958281E0,-8.663007617E-1,4.772244096E-1,-8.567136526E-1
3.592425104E0,-1.124087095E0,3.163742125E-1,-7.874734998E-1
3.594884948E0,-1.350848675E0,1.151783243E-1,-7.086462975E-1
3.597351615E0,-1.563895226E0,-7.336792350E-2,-6.255580783E-1
3.599818281E0,-1.759764910E0,-2.512618303E-1,-5.371437669E-1
3.602284948E0,-1.903571367E0,-4.567186534E-1,-4.615122080E-1
3.604751615E0,-2.012225151E0,-6.441996694E-1,-3.977313936E-1
3.607218229E0,-2.096378565E0,-8.188979030E-1,-3.444697261E-1
3.609684896E0,-2.154966354E0,-9.753540158E-1,-2.965342402E-1
3.612151563E0,-2.189053774E0,-1.124486566E0,-2.390116602E-1
3.614620313E0,-2.202901840E0,-1.255510330E0,-1.942718774E-1
3.617086979E0,-2.198641062E0,-1.340728879E0,-1.474016160E-1
3.619553698E0,-2.151770592E0,-1.427012801E0,-1.239664927E-1
3.622020417E0,-2.082530499E0,-1.477078795E0,-1.143793985E-1
3.624487135E0,-2.011159897E0,-1.490926743E0,-1.037270650E-1
3.626953854E0,-1.930202246E0,-1.499448657E0,-1.047922969E-1
3.629420521E0,-1.823678970E0,-1.516492367E0,-1.239664927E-1
3.631887240E0,-1.707701683E0,-1.533536077E0,-1.505973190E-1
3.634353438E0,-1.599047899E0,-1.527144670E0,-1.761629134E-1
3.636820104E0,-1.507437825E0,-1.504774809E0,-1.953371018E-1
3.639286823E0,-1.425414920E0,-1.499448657E0,-2.209026963E-1
3.641753490E0,-1.350848675E0,-1.510100961E0,-2.549901605E-1
3.644220208E0,-1.280543208E0,-1.499448657E0,-2.741643488E-1
3.646686875E0,-1.211303115E0,-1.490926743E0,-2.922733128E-1
3.649153594E0,-1.137935162E0,-1.487731099E0,-3.231650591E-1
3.651620260E0,-1.066564560E0,-1.474948287E0,-3.487306535E-1
3.654084271E0,-9.994548559E-1,-1.454708815E0,-3.529915810E-1
3.656550938E0,-9.451280236E-1,-1.416360497E0,-3.391435742E-1
3.659017552E0,-8.908011317E-1,-1.355642200E0,-3.050560951E-1
3.661484167E0,-8.428656459E-1,-1.272554040E0,-2.688381970E-1
3.663950781E0,-7.959953547E-1,-1.190531015E0,-2.422073632E-1
3.666417448E0,-7.544512749E-1,-1.117030025E0,-2.134460658E-1
3.668884063E0,-6.926677823E-1,-1.063768387E0,-2.038589716E-1
3.671350677E0,-6.191666722E-1,-1.011571884E0,-1.985328048E-1
3.673818229E0,-5.435351729E-1,-9.444622397E-1,-1.878804713E-1
3.676284896E0,-4.712324440E-1,-8.615072370E-1,-1.761629134E-1
3.678751563E0,-3.977313936E-1,-7.624405622E-1,-1.719019860E-1
3.681218229E0,-3.295564651E-1,-6.612433791E-1,-1.772281379E-1
3.683684844E0,-2.752295732E-1,-5.696333647E-1,-1.953371018E-1
3.686151510E0,-2.251636237E-1,-4.631100595E-1,-2.155765295E-1
3.688618177E0,-1.900109351E-1,-3.661738634E-1,-2.315550297E-1
3.691084792E0,-1.761629134E-1,-3.002625704E-1,-2.507292330E-1
3.693553177E0,-1.793586165E-1,-2.757622004E-1,-2.592510879E-1
3.696019844E0,-1.878804713E-1,-2.800231278E-1,-2.603163123E-1
3.698486563E0,-1.985328048E-1,-3.055887222E-1,-2.517944574E-1
3.700953229E0,-2.091851383E-1,-3.395430148E-1,-2.336854935E-1
3.703419948E0,-2.198374718E-1,-3.842828274E-1,-2.134460658E-1
3.705886615E0,-2.294245660E-1,-4.418053925E-1,-1.942718774E-1
3.708353333E0,-2.464682907E-1,-5.206326246E-1,-1.772281379E-1
3.710820000E0,-2.699034214E-1,-6.143731475E-1,-1.633801162E-1
3.713281563E0,-3.029256463E-1,-7.145050764E-1,-1.516625583E-1
3.715748125E0,-3.487306535E-1,-8.402025700E-1,-1.356840581E-1
3.718214688E0,-4.041227698E-1,-9.636363983E-1,-1.197055578E-1
3.720681250E0,-4.541887343E-1,-1.082942486E0,-1.005313694E-1
3.723147813E0,-5.127765536E-1,-1.194792032E0,-8.348763734E-2
3.725614375E0,-5.850792527E-1,-1.267227888E0,-5.366111174E-2
3.728080938E0,-6.532541513E-1,-1.326880932E0,-2.276935615E-2
3.730547552E0,-6.969286799E-1,-1.428078055E0,-8.921326138E-3
3.733014740E0,-7.363423109E-1,-1.536598682E0,1.731003635E-3
3.735481354E0,-7.661688328E-1,-1.614360690E0,2.090519853E-2
3.737947917E0,-7.832126021E-1,-1.660165668E0,4.114462435E-2
3.740414479E0,-8.130391240E-1,-1.669752717E0,6.671021879E-2
3.742881094E0,-8.332785368E-1,-1.610099673E0,9.547150880E-2
3.745347656E0,-8.300828338E-1,-1.509035707E0,1.210371032E-1
3.747814219E0,-7.917344570E-1,-1.446187019E0,1.146457046E-1
3.750280833E0,-7.395380139E-1,-1.362033606E0,8.055824786E-2
3.752747604E0,-6.841459274E-1,-1.244857907E0,6.671021879E-2
3.755214219E0,-6.159709692E-1,-1.105312467E0,6.777545065E-2
3.757680781E0,-5.360785127E-1,-9.593755007E-1,6.457975507E-2
3.760147396E0,-4.563191831E-1,-8.316806555E-1,5.392742157E-2
3.762613958E0,-3.849485815E-1,-7.219616771E-1,2.729659714E-2
3.765080573E0,-3.029256463E-1,-5.994598866E-1,1.238333434E-2
3.767547135E0,-2.166417688E-1,-4.567186534E-1,2.796236658E-3
3.770013750E0,-1.410102248E-1,-2.778926790E-1,-7.856093347E-3
3.772479063E0,-6.537867337E-2,-1.127815470E-1,-1.744319126E-2
3.774945625E0,2.090519853E-2,-3.182383627E-2,-4.513924941E-2
3.777412188E0,1.049254537E-1,2.037258074E-2,-8.348763734E-2
3.779878750E0,1.848179251E-1,8.322133124E-2,-9.413997084E-2
3.782345313E0,2.412752807E-1,1.300915778E-1,-8.774857223E-2
3.784811875E0,2.796236575E-1,1.567224115E-1,-8.029194176E-2
3.787278385E0,3.019935489E-1,1.727008969E-1,-7.390054315E-2
3.789744948E0,3.190372884E-1,1.695052087E-1,-6.537867337E-2
3.792210990E0,3.307548463E-1,1.524614692E-1,-5.898727849E-2
3.794677031E0,3.371462524E-1,1.322220564E-1,-5.579157919E-2
3.797143073E0,3.339505494E-1,9.813459218E-2,-5.153064802E-2
3.799609115E0,3.328853250E-1,5.232957378E-2,-4.194355011E-2
3.802075156E0,3.350157738E-1,-3.062544856E-3,-3.661738336E-2
3.804541198E0,3.211677670E-1,-3.821523488E-2,-2.489982173E-2
3.807007240E0,3.019935489E-1,-6.591129303E-2,1.731003635E-3
3.809473281E0,3.030588031E-1,-1.532603949E-1,1.344856713E-2
3.811943021E0,3.179720640E-1,-2.704360485E-1,1.238333434E-2
3.814409688E0,3.254286945E-1,-3.949351311E-1,1.344856713E-2
3.816876302E0,3.222329915E-1,-5.185021758E-1,1.877473295E-2
3.819342969E0,3.094501793E-1,-6.154384017E-1,2.942706272E-2
3.821809583E0,2.881455421E-1,-6.804175973E-1,3.794892505E-2
3.824276250E0,2.657756507E-1,-7.272878289E-1,4.007939249E-2
3.826742865E0,2.444709837E-1,-7.485924959E-1,4.220985994E-2
3.829209531E0,2.242315561E-1,-7.603100538E-1,3.901416063E-2
3.831676979E0,2.103835195E-1,-7.752233148E-1,3.688369319E-2
3.834143646E0,2.018616647E-1,-7.858756781E-1,3.262276202E-2
3.836610313E0,1.944050342E-1,-7.933322787E-1,2.516612969E-2
3.839076979E0,1.880136281E-1,-7.826799750E-1,1.983996481E-2
3.841543646E0,1.794917583E-1,-7.635057569E-1,2.090519853E-2
3.844010313E0,1.741656065E-1,-7.358096838E-1,2.197043039E-2
3.846476979E0,1.752308309E-1,-6.985265613E-1,1.770949923E-2
3.848943646E0,1.794917583E-1,-6.537867785E-1,1.877473295E-2
3.851407760E0,1.848179251E-1,-5.930684805E-1,1.344856713E-2
3.853874375E0,1.954702586E-1,-5.302197337E-1,1.025286783E-2
3.856340990E0,2.093182951E-1,-4.790885448E-1,9.187635034E-3
3.858807552E0,2.295577228E-1,-4.364792407E-1,1.557903271E-2
3.861274167E0,2.497971505E-1,-4.066527188E-1,2.090519853E-2
3.863740781E0,2.593842447E-1,-3.906742036E-1,2.516612969E-2
3.866207344E0,2.615146935E-1,-3.906742036E-1,2.836182900E-2
3.868673958E0,2.487319112E-1,-4.087831676E-1,2.942706272E-2
3.871144375E0,2.284924835E-1,-4.513925016E-1,2.836182900E-2
3.873611042E0,2.029268891E-1,-5.248935819E-1,3.475322574E-2
3.876077760E0,1.784265339E-1,-6.239602566E-1,5.073172227E-2
3.878544427E0,1.560566425E-1,-7.443315983E-1,6.244928762E-2
3.881011146E0,1.379476786E-1,-8.657681346E-1,7.736254483E-2
3.883477813E0,1.187734827E-1,-9.945281744E-1,9.653674066E-2
3.885944531E0,9.959928691E-2,-1.135138988E0,1.189066395E-1
3.888411198E0,8.255556226E-2,-1.268293023E0,1.487331539E-1
3.890873958E0,7.097115368E-2,-1.395055771E0,1.826874614E-1
3.893340573E0,5.499265343E-2,-1.533536077E0,2.135792226E-1
3.895807188E0,4.540555924E-2,-1.665491819E0,2.476666719E-1
3.898273750E0,4.114462435E-2,-1.816754937E0,2.764279842E-1
3.900740365E0,2.942706272E-2,-1.992518425E0,3.030588031E-1
3.903206927E0,1.770949923E-2,-2.186257601E0,3.254286945E-1
3.905673542E0,4.926702939E-3,-2.392912865E0,3.488638103E-1
3.908140156E0,-5.725627299E-3,-2.604894161E0,3.776251078E-1
3.910607604E0,-1.957365684E-2,-2.829525232E0,3.999949992E-1
3.913074219E0,-4.300878197E-2,-3.063876390E0,4.181039631E-1
3.915540833E0,-7.177007198E-2,-3.290771008E0,4.383433759E-1
3.918007448E0,-9.200949967E-2,-3.517532587E0,4.607132971E-1
3.920474115E0,-1.090532318E-1,-3.714600801E0,4.830831885E-1
3.922940729E0,-1.346188188E-1,-3.859472513E0,5.011921525E-1
3.925407344E0,-1.516625583E-1,-3.954278231E0,5.118444562E-1
3.927873958E0,-1.644453406E-1,-3.976514816E0,5.224968195E-1
3.930339271E0,-1.750976741E-1,-3.932973385E0,5.331491232E-1
3.932805885E0,-1.793586165E-1,-3.837102413E0,5.352795720E-1
3.935272448E0,-1.836195439E-1,-3.681578398E0,5.288882256E-1
3.937739063E0,-1.857500076E-1,-3.498358488E0,5.129097104E-1
3.940205625E0,-1.644453406E-1,-3.305684328E0,4.948007464E-1
3.942672188E0,-1.229012609E-1,-3.112877131E0,4.788222313E-1
3.945138802E0,-7.283531129E-2,-2.898765326E0,4.575175941E-1
3.947605365E0,-1.637795754E-2,-2.673069000E0,4.383433759E-1
3.950075313E0,4.966649041E-2,-2.445109367E0,4.149082601E-1
3.952541979E0,1.145125479E-1,-2.218214512E0,3.904078901E-1
3.955008646E0,1.667089611E-1,-1.993583560E0,3.605813682E-1
3.957475313E0,2.114487588E-1,-1.764558554E0,3.339505494E-1
3.959941979E0,2.529928386E-1,-1.520753264E0,3.169068098E-1
3.962408646E0,2.881455421E-1,-1.275749683E0,3.030588031E-1
3.964875313E0,3.222329915E-1,-1.040333152E0,2.828193605E-1
3.967341979E0,3.595161438E-1,-8.125064969E-1,2.615146935E-1
3.969804896E0,4.031907022E-1,-6.037208438E-1,2.434057444E-1
3.972271458E0,4.479304850E-1,-4.258269072E-1,2.252967805E-1
3.974738073E0,4.926702678E-1,-2.736317217E-1,2.103835195E-1
3.977204635E0,5.374100804E-1,-1.511299312E-1,1.965354979E-1
3.979671198E0,5.778889060E-1,-6.484606117E-2,1.773612946E-1
3.982137760E0,6.098458767E-1,-3.062544856E-3,1.615159512E-1
3.984604375E0,6.322157979E-1,3.315537795E-2,1.508636326E-1
3.987070938E0,6.439333558E-1,5.019910634E-2,1.423417628E-1
3.989536302E0,6.396724582E-1,3.635107726E-2,1.348851323E-1
3.992002865E0,6.215634942E-1,6.524552125E-3,1.316894293E-1
3.994469375E0,5.949326158E-1,-3.821523488E-2,1.274285018E-1
3.996935938E0,5.608451962E-1,-9.999874979E-2,1.263632625E-1
3.999402500E0,5.139749050E-1,-1.649779677E-1,1.252980381E-1
4.001869010E0,4.660394490E-1,-2.299571782E-1,1.263632625E-1
4.004335573E0,4.181039631E-1,-2.906754613E-1,1.306242049E-1
4.006802135E0,3.712337017E-1,-3.523258269E-1,1.391460598E-1
4.009268385E0,3.264939189E-1,-4.023917615E-1,1.487331539E-1
4.011734948E0,2.956021726E-1,-4.407401681E-1,1.593854874E-1
4.014201458E0,2.732322812E-1,-4.663057625E-1,1.731003672E-1
4.016668021E0,2.551233172E-1,-4.790885448E-1,1.858831644E-1
4.019134531E0,2.455362082E-1,-4.748276174E-1,1.986659616E-1
4.021601094E0,2.434057444E-1,-4.620448351E-1,2.061225921E-1
4.024067604E0,2.380795777E-1,-4.247616827E-1,2.199706137E-1
4.026534167E0,2.338186502E-1,-3.693695366E-1,2.295577228E-1
4.029002344E0,2.306229472E-1,-3.045234978E-1,2.338186502E-1
4.031468958E0,2.316881865E-1,-2.256962508E-1,2.327534109E-1
4.033935521E0,2.338186502E-1,-1.404775977E-1,2.306229472E-1
4.036402083E0,2.434057444E-1,-4.567186534E-2,2.274272442E-1
4.038868698E0,2.572537661E-1,5.872096866E-2,2.199706137E-1
4.041335260E0,2.732322812E-1,1.631138027E-1,2.093182951E-1
4.043801823E0,2.860150635E-1,2.707023323E-1,1.986659616E-1
4.046268438E0,3.041240275E-1,3.738967776E-1,1.922745556E-1
4.048721406E0,3.169068098E-1,4.782896340E-1,1.848179251E-1
4.051187604E0,3.201025128E-1,5.805519819E-1,1.858831644E-1
4.053653854E0,3.232982159E-1,6.721620560E-1,1.880136281E-1
4.056120104E0,3.201025128E-1,7.456631064E-1,1.912093312E-1
4.058586354E0,3.137111366E-1,8.106423020E-1,1.997311860E-1
4.061052604E0,3.009283245E-1,8.745563030E-1,2.029268891E-1
4.063518802E0,2.806889117E-1,9.330109954E-1,2.125139832E-1
4.065985052E0,2.466014475E-1,9.788159728E-1,2.135792226E-1
4.068466615E0,2.050573528E-1,1.017164350E0,2.135792226E-1
4.070933281E0,1.656437367E-1,1.044860482E0,2.146444470E-1
4.073399896E0,1.198387146E-1,1.062969446E0,2.199706137E-1
4.075866510E0,7.935985923E-2,1.084274054E0,2.242315561E-1
4.078333125E0,4.434032366E-2,1.100252509E0,2.295577228E-1
4.080799740E0,1.344856713E-2,1.111970067E0,2.359491140E-1
4.083266406E0,-5.725627299E-3,1.120491982E0,2.434057444E-1
4.085733021E0,-1.744319126E-2,1.126883388E0,2.508623898E-1
4.088197760E0,-1.957365684E-2,1.133274794E0,2.561885417E-1
4.090664375E0,-1.850842312E-2,1.146057606E0,2.668408751E-1
4.093130938E0,-1.318225823E-2,1.157775164E0,2.711018026E-1
4.095597500E0,-8.921326138E-3,1.174818873E0,2.679060996E-1
4.098064063E0,-2.529928461E-3,1.185471177E0,2.615146935E-1
4.100530677E0,1.025286783E-2,1.187601686E0,2.529928386E-1
4.102997240E0,1.557903271E-2,1.186536431E0,2.391448170E-1
4.105463802E0,2.516612969E-2,1.180145025E0,2.263620198E-1
4.107931979E0,3.049229458E-2,1.173753619E0,2.157096863E-1
4.110398594E0,2.729659714E-2,1.166296959E0,2.071878165E-1
4.112865260E0,2.516612969E-2,1.167362213E0,2.039921284E-1
4.115331875E0,9.187635034E-3,1.169492722E0,2.061225921E-1
4.117798490E0,-1.531272475E-2,1.173753619E0,2.178401500E-1
4.120265104E0,-3.981308267E-2,1.178014517E0,2.316881865E-1
4.122731719E0,-6.005251035E-2,1.179079771E0,2.497971505E-1
4.125198333E0,-7.283531129E-2,1.187601686E0,2.764279842E-1
4.127662552E0,-8.135717362E-2,1.195058346E0,3.030588031E-1
4.130129115E0,-8.348763734E-2,1.198253989E0,3.264939189E-1
4.132595677E0,-8.029194176E-2,1.200384498E0,3.403419554E-1
4.135062240E0,-8.348763734E-2,1.200384498E0,3.499290347E-1
4.137528802E0,-9.307473898E-2,1.205710649E0,3.509942889E-1
4.139995365E0,-1.101184636E-1,1.208906293E0,3.435376585E-1
4.142461927E0,-1.378145218E-1,1.203580141E0,3.286243975E-1
4.144928490E0,-1.719019860E-1,1.188666940E0,3.009283245E-1
4.147397448E0,-2.038589716E-1,1.156709909E0,2.753627300E-1
4.149864063E0,-2.336854935E-1,1.115165830E0,2.487319112E-1
4.152330729E0,-2.507292330E-1,1.059773684E0,2.284924835E-1
4.154797344E0,-2.613815665E-1,9.915987849E-1,2.135792226E-1
4.157263958E0,-2.656424940E-1,9.234238863E-1,2.050573528E-1
4.159730573E0,-2.667077184E-1,8.639039993E-1,1.976007223E-1
4.162197188E0,-2.592510879E-1,8.138380051E-1,2.050573528E-1
4.164663802E0,-2.560553849E-1,7.786853313E-1,2.125139832E-1
4.167129375E0,-2.496639937E-1,7.573806643E-1,2.231663167E-1
4.169595990E0,-2.432725877E-1,7.382065058E-1,2.402100414E-1
4.172062552E0,-2.400768995E-1,7.296846509E-1,2.540580630E-1
4.174529167E0,-2.400768995E-1,7.392717004E-1,2.711018026E-1
4.176995781E0,-2.411421239E-1,7.563154697E-1,2.828193605E-1
4.179462344E0,-2.475335300E-1,7.818810344E-1,2.892107666E-1
4.181928958E0,-2.475335300E-1,8.117075562E-1,2.892107666E-1
4.184395573E0,-2.443378270E-1,8.425993323E-1,2.806889117E-1
4.186862917E0,-2.422073632E-1,8.702954054E-1,2.689713240E-1
4.189329531E0,-2.347507328E-1,9.010539651E-1,2.604494691E-1
4.191796146E0,-2.219679356E-1,9.330109954E-1,2.434057444E-1
4.194262760E0,-2.049241960E-1,9.649679661E-1,2.306229472E-1
4.196729375E0,-1.772281379E-1,9.979901910E-1,2.178401500E-1
4.199195990E0,-1.463363916E-1,1.031012416E0,2.039921284E-1
4.201662604E0,-1.090532318E-1,1.056578040E0,1.976007223E-1
4.204129219E0,-7.177007198E-2,1.083208799E0,1.890788674E-1
4.206596094E0,-3.448691964E-2,1.111970067E0,1.912093312E-1
4.209062708E0,3.861469682E-3,1.144992352E0,1.954702586E-1
4.211529375E0,4.220985994E-2,1.188666940E0,2.007964253E-1
4.213995990E0,7.829462737E-2,1.241928577E0,2.082530558E-1
4.216462604E0,1.113168523E-1,1.300516367E0,2.178401500E-1
4.218929219E0,1.411433816E-1,1.364430308E0,2.284924835E-1
4.221395833E0,1.741656065E-1,1.444322824E0,2.391448170E-1
4.223862448E0,1.986659616E-1,1.529408336E0,2.466014475E-1
4.226326667E0,2.093182951E-1,1.618887901E0,2.412752807E-1
4.228793229E0,2.039921284E-1,1.710497975E0,2.274272442E-1
4.231259792E0,1.837527007E-1,1.793586135E0,2.018616647E-1
4.233726354E0,1.411433816E-1,1.860695839E0,1.668421179E-1
4.236192917E0,8.468602598E-2,1.892652750E0,1.306242049E-1
4.238659479E0,1.451379992E-2,1.896913648E0,9.440627694E-2
4.241126042E0,-6.431344151E-2,1.863891482E0,5.818835273E-2
4.243592604E0,-1.399449855E-1,1.795716524E0,3.155753016E-2
4.246058490E0,-2.123808414E-1,1.691323757E0,1.451379992E-2
4.248525052E0,-2.805557549E-1,1.560300112E0,4.926702939E-3
4.250991563E0,-3.359478712E-1,1.411300659E0,2.796236658E-3
4.253458125E0,-3.764267266E-1,1.251515627E0,1.557903271E-2
4.255924688E0,-4.051880240E-1,1.090665460E0,2.729659714E-2
4.258391198E0,-4.137098789E-1,9.394024014E-1,4.753602296E-2
4.260857760E0,-4.083836973E-1,7.893376946E-1,6.990591437E-2
4.263324323E0,-3.913399875E-1,6.572487950E-1,9.334104508E-2
4.265789427E0,-3.625786901E-1,5.400731564E-1,1.263632625E-1
4.268255938E0,-3.263607621E-1,4.463326335E-1,1.540593207E-1
4.270722448E0,-2.901428342E-1,3.685706258E-1,1.794917583E-1
4.273188958E0,-2.464682907E-1,3.057218790E-1,2.082530558E-1
4.275655469E0,-2.070546746E-1,2.653761804E-1,2.327534109E-1
4.278121979E0,-1.644453406E-1,2.408758104E-1,2.540580630E-1
4.280588490E0,-1.260969639E-1,2.334191799E-1,2.742975056E-1
4.283055000E0,-8.881380409E-2,2.462019771E-1,2.892107666E-1
4.285523333E0,-5.046541616E-2,2.749632597E-1,2.977326214E-1
4.287989896E0,-1.957365684E-2,3.185046613E-1,3.030588031E-1
4.290456458E0,4.926702939E-3,3.749620318E-1,3.009283245E-1
4.292923021E0,2.836182900E-2,4.367455542E-1,2.966673970E-1
4.295389583E0,3.901416063E-2,5.070509315E-1,2.892107666E-1
4.297856094E0,4.647079110E-2,5.826824903E-1,2.817541361E-1
4.300322656E0,5.605788901E-2,6.551182866E-1,2.764279842E-1
4.302789219E0,5.712312087E-2,7.200975418E-1,2.700365782E-1
4.305257188E0,5.818835273E-2,7.744244337E-1,2.636451721E-1
4.307723802E0,5.712312087E-2,8.255556226E-1,2.572537661E-1
4.310190365E0,5.499265343E-2,8.649691939E-1,2.487319112E-1
4.312656979E0,4.966649041E-2,8.989235163E-1,2.455362082E-1
4.315123542E0,3.901416063E-2,9.266195893E-1,2.434057444E-1
4.317590156E0,1.983996481E-2,9.415328503E-1,2.423405200E-1
4.320056719E0,3.861469682E-3,9.447285533E-1,2.434057444E-1
4.322523333E0,-1.105179265E-2,9.383371472E-1,2.455362082E-1
4.324990104E0,-2.809552103E-2,9.202281833E-1,2.466014475E-1
4.327456719E0,-4.833494872E-2,8.916000128E-1,2.434057444E-1
4.329923333E0,-6.324820966E-2,8.553821445E-1,2.423405200E-1
4.332389896E0,-7.816147059E-2,8.021204472E-1,2.444709837E-1
4.334856510E0,-8.987903595E-2,7.467283607E-1,2.423405200E-1
4.337323073E0,-9.520520270E-2,6.913362145E-1,2.391448170E-1
4.339789688E0,-1.026618332E-1,6.306179762E-1,2.348838747E-1
4.342256302E0,-1.069227681E-1,5.784215331E-1,2.370143533E-1
4.344721458E0,-1.111836955E-1,5.272903442E-1,2.359491140E-1
4.347188021E0,-1.133141592E-1,4.868114889E-1,2.316881865E-1
4.349654583E0,-1.122489274E-1,4.516588151E-1,2.252967805E-1
4.352121146E0,-1.165098622E-1,4.250279665E-1,2.157096863E-1
4.354587708E0,-1.165098622E-1,4.101147056E-1,2.018616647E-1
4.357054271E0,-1.218360290E-1,3.898752928E-1,1.890788674E-1
4.359520833E0,-1.229012609E-1,3.749620318E-1,1.720351279E-1
4.361987396E0,-1.165098622E-1,3.611139953E-1,1.593854874E-1
4.364454792E0,-1.122489274E-1,3.323526978E-1,1.519288570E-1
4.366921406E0,-1.143793985E-1,3.078523576E-1,1.391460598E-1
4.369387969E0,-1.122489274E-1,2.834851444E-1,1.284937263E-1
4.371854531E0,-1.133141592E-1,2.621804774E-1,1.146457046E-1
4.374321146E0,-1.207707971E-1,2.430062890E-1,1.018629074E-1
4.376787708E0,-1.239664927E-1,2.142449915E-1,8.694964647E-2
4.379254271E0,-1.229012609E-1,1.897446364E-1,7.736254483E-2
4.381720885E0,-1.197055578E-1,1.588528752E-1,7.097115368E-2
4.384189271E0,-1.154446304E-1,1.194392517E-1,6.777545065E-2
4.386655938E0,-1.058575287E-1,8.322133124E-2,7.203638554E-2
4.389122552E0,-1.005313694E-1,5.339480564E-2,7.310161740E-2
4.391589167E0,-9.946613014E-2,2.569874749E-2,6.990591437E-2
4.394055781E0,-9.413997084E-2,7.589785382E-3,6.351451576E-2
4.396522448E0,-9.627043456E-2,-5.193010904E-3,5.925358832E-2
4.398989063E0,-1.015966013E-1,-3.182383627E-2,5.179695413E-2
4.401455677E0,-1.026618332E-1,-4.460663348E-2,4.647079110E-2
4.403919531E0,-1.026618332E-1,-6.591129303E-2,4.540555924E-2
4.406386094E0,-9.840089828E-2,-9.680305421E-2,4.007939249E-2
4.408852656E0,-9.200949967E-2,-1.276948154E-1,3.901416063E-2
4.411319219E0,-8.881380409E-2,-1.458037645E-1,4.114462435E-2
4.413785781E0,-8.242240548E-2,-1.617822647E-1,4.220985994E-2
4.416252344E0,-7.496577501E-2,-1.617822647E-1,4.966649041E-2
4.418718906E0,-6.750914454E-2,-1.649779677E-1,5.286218971E-2
4.421185469E0,-5.259587988E-2,-1.585865617E-1,5.925358832E-2
4.423652500E0,-4.407401755E-2,-1.532603949E-1,5.925358832E-2
4.426119063E0,-3.768261895E-2,-1.340862066E-1,5.605788901E-2
4.428585677E0,-3.555215150E-2,-1.031944528E-1,4.966649041E-2
4.431052240E0,-3.874785081E-2,-5.845466256E-2,3.262276202E-2
4.433518802E0,-4.513924941E-2,-5.193010904E-3,1.238333434E-2
4.435985365E0,-5.259587988E-2,4.913387448E-2,-1.424749196E-2
4.438451927E0,-6.431344151E-2,9.067796171E-2,-4.726971686E-2
4.440918490E0,-7.603100687E-2,1.332872808E-1,-7.390054315E-2
4.443382813E0,-8.135717362E-2,1.727008969E-1,-1.005313694E-1
4.445849323E0,-8.668334037E-2,2.035926580E-1,-1.260969639E-1
4.448315833E0,-8.881380409E-2,2.227668613E-1,-1.452711523E-1
4.450782344E0,-8.881380409E-2,2.419410497E-1,-1.633801162E-1
4.453248854E0,-7.922670245E-2,2.462019771E-1,-1.772281379E-1
4.455715365E0,-6.857437640E-2,2.493976802E-1,-1.878804713E-1
4.458181927E0,-5.898727849E-2,2.493976802E-1,-1.953371018E-1
4.460648438E0,-4.620448127E-2,2.419410497E-1,-2.038589716E-1
4.463119010E0,-3.342168778E-2,2.344844192E-1,-2.102503628E-1
4.465585625E0,-2.809552103E-2,2.217016220E-1,-2.113156021E-1
4.468052240E0,-2.170412242E-2,2.121145278E-1,-2.123808414E-1
4.470518854E0,-2.170412242E-2,1.993317306E-1,-2.102503628E-1
4.472985521E0,-2.809552103E-2,1.854836941E-1,-2.059894353E-1
4.475452135E0,-3.448691964E-2,1.758965999E-1,-1.942718774E-1
4.477918750E0,-4.194355011E-2,1.641790420E-1,-1.782933772E-1
4.480385365E0,-4.833494872E-2,1.652442664E-1,-1.591191888E-1
4.482849740E0,-4.833494872E-2,1.695052087E-1,-1.388797611E-1
4.485316302E0,-4.726971686E-2,1.769618392E-1,-1.218360290E-1
4.487782865E0,-5.153064802E-2,1.908098608E-1,-1.090532318E-1
4.490249427E0,-5.685681105E-2,2.110492885E-1,-9.840089828E-2
4.492715990E0,-6.537867337E-2,2.387453467E-1,-8.774857223E-2
4.495182552E0,-7.816147059E-2,2.632457018E-1,-8.135717362E-2
4.497649115E0,-9.307473898E-2,2.897433937E-1,-7.496577501E-2
4.500115677E0,-1.090532318E-1,3.046566546E-1,-6.857437640E-2
4.502582083E0,-1.239664927E-1,3.099828064E-1,-6.324820966E-2
4.505048646E0,-1.388797611E-1,3.046566546E-1,-6.218297780E-2
4.507515208E0,-1.548582464E-1,2.950695455E-1,-6.537867337E-2
4.509981771E0,-1.633801162E-1,2.760285139E-1,-7.177007198E-2
4.512448333E0,-1.655105799E-1,2.493976802E-1,-8.135717362E-2
4.514914896E0,-1.623148769E-1,2.248973250E-1,-8.774857223E-2
4.517381458E0,-1.505973190E-1,1.918751001E-1,-9.520520270E-2
4.519848021E0,-1.324883550E-1,1.545919478E-1,-1.005313694E-1
4.522315156E0,-1.101184636E-1,1.098521575E-1,-1.058575287E-1
4.524781719E0,-8.561810106E-2,7.363422960E-2,-1.111836955E-1
4.527248333E0,-6.537867337E-2,4.167724028E-2,-1.101184636E-1
4.529714896E0,-4.940018058E-2,2.250304818E-2,-1.079879999E-1
4.532181458E0,-3.342168778E-2,1.291595027E-2,-1.037270650E-1
4.534648021E0,-2.170412242E-2,1.398118306E-2,-1.026618332E-1
4.537114583E0,-1.424749196E-2,2.356828004E-2,-1.015966013E-1
4.539581198E0,-2.489982173E-2,4.487293959E-2,-1.058575287E-1
4.542047813E0,-5.259587988E-2,6.617759913E-2,-1.101184636E-1
4.544514375E0,-8.668334037E-2,9.280842543E-2,-1.175750941E-1
4.546980990E0,-1.292926520E-1,1.151783243E-1,-1.207707971E-1
4.549447552E0,-1.772281379E-1,1.290263534E-1,-1.292926520E-1
4.551914115E0,-2.177069932E-1,1.396786869E-1,-1.335535944E-1
4.554380677E0,-2.496639937E-1,1.450048387E-1,-1.292926520E-1
4.556847292E0,-2.752295732E-1,1.471353173E-1,-1.250317246E-1
4.559313854E0,-3.018604219E-1,1.545919478E-1,-1.239664927E-1
4.561763438E0,-3.263607621E-1,1.663095057E-1,-1.154446304E-1
4.564229583E0,-3.497959077E-1,1.822880059E-1,-1.079879999E-1
4.566695729E0,-3.721657991E-1,2.046578974E-1,-1.037270650E-1
4.569161875E0,-3.806876540E-1,2.078536004E-1,-9.946613014E-2
4.571628021E0,-3.711005449E-1,1.940055639E-1,-9.840089828E-2
4.574094167E0,-3.636439145E-1,1.758965999E-1,-9.200949967E-2
4.576560313E0,-3.529915810E-1,1.652442664E-1,-8.561810106E-2
4.579026510E0,-3.348826170E-1,1.684399694E-1,-7.922670245E-2
4.581494583E0,-3.071865737E-1,1.769618392E-1,-7.922670245E-2
4.583960781E0,-2.773600519E-1,1.929403245E-1,-8.135717362E-2
4.586426979E0,-2.475335300E-1,2.163754553E-1,-8.348763734E-2
4.588893177E0,-2.177069932E-1,2.493976802E-1,-9.200949967E-2
4.591359375E0,-1.868152469E-1,2.770937383E-1,-1.026618332E-1
4.593825573E0,-1.601844132E-1,3.067871034E-1,-1.101184636E-1
4.596291771E0,-1.367492825E-1,3.302222490E-1,-1.239664927E-1
4.598757969E0,-1.229012609E-1,3.472659588E-1,-1.388797611E-1
4.601227552E0,-1.143793985E-1,3.536573648E-1,-1.495320797E-1
4.603693854E0,-1.122489274E-1,3.440702558E-1,-1.665758193E-1
4.606160156E0,-1.175750941E-1,3.174394369E-1,-1.804238409E-1
4.608626406E0,-1.186403260E-1,2.802894413E-1,-1.921414137E-1
4.611092708E0,-1.186403260E-1,2.259625494E-1,-2.038589716E-1
4.613559010E0,-1.239664927E-1,1.663095057E-1,-2.166417688E-1
4.616025260E0,-1.197055578E-1,1.013302878E-1,-2.251636237E-1
4.618491563E0,-1.111836955E-1,3.315537795E-2,-2.400768995E-1
4.620965156E0,-1.015966013E-1,-2.969337068E-2,-2.581858635E-1
4.623431615E0,-9.307473898E-2,-9.573781490E-2,-2.848166823E-1
4.625898073E0,-8.561810106E-2,-1.660431921E-1,-3.157084286E-1
4.628364531E0,-8.348763734E-2,-2.363485843E-1,-3.487306535E-1
4.630831042E0,-8.242240548E-2,-3.077192008E-1,-3.828181326E-1
4.633297500E0,-8.561810106E-2,-3.842828274E-1,-4.169055820E-1
4.635763958E0,-8.242240548E-2,-4.588491321E-1,-4.487294257E-1
4.638230417E0,-7.603100687E-2,-5.334154367E-1,-4.806863964E-1
4.640693698E0,-5.898727849E-2,-5.920032263E-1,-5.041215420E-1
4.643160052E0,-4.620448127E-2,-6.378082633E-1,-5.243609548E-1
4.645626458E0,-4.407401755E-2,-6.708304882E-1,-5.392742157E-1
4.648092865E0,-3.768261895E-2,-6.836133003E-1,-5.403394699E-1
4.650559219E0,-3.235645220E-2,-6.836133003E-1,-5.286219120E-1
4.653025625E0,-2.596505545E-2,-6.697652340E-1,-5.137086511E-1
4.655491979E0,-1.424749196E-2,-6.431344151E-1,-5.019910336E-1
4.657958385E0,-4.660394508E-3,-6.047860384E-1,-4.860125780E-1
4.660429896E0,-1.464695437E-3,-5.515244007E-1,-4.689688385E-1
4.662896406E0,-2.529928461E-3,-4.950670600E-1,-4.540555775E-1
4.665362917E0,-3.994623839E-4,-4.428706169E-1,-4.371449947E-1
4.667829427E0,9.187635034E-3,-3.874785006E-1,-4.275579154E-1
4.670295938E0,1.557903271E-2,-3.427387178E-1,-4.243622124E-1
4.672762500E0,2.410089783E-2,-3.002625704E-1,-4.190360308E-1
4.675229010E0,2.729659714E-2,-2.640446424E-1,-4.179708064E-1
4.677695521E0,2.197043039E-2,-2.342181057E-1,-4.179708064E-1
4.680175573E0,2.090519853E-2,-2.161091566E-1,-4.158403277E-1
4.682642448E0,1.877473295E-2,-2.065220475E-1,-4.126446545E-1
4.685109271E0,1.770949923E-2,-1.969349533E-1,-4.051880240E-1
4.687576146E0,1.344856713E-2,-1.841521561E-1,-4.030575454E-1
4.690043021E0,7.057168987E-3,-1.660431921E-1,-4.062532485E-1
4.692509844E0,-8.921326138E-3,-1.319557428E-1,-4.158403277E-1
4.694976719E0,-2.383458801E-2,-9.467258304E-2,-4.286231399E-1
4.697443542E0,-4.620448127E-2,-6.271559745E-2,-4.392754734E-1
4.699910833E0,-7.390054315E-2,-3.182383627E-2,-4.476641715E-1
4.702377708E0,-1.026618332E-1,-1.584534161E-2,-4.593817294E-1
4.704844583E0,-1.229012609E-1,-1.797580719E-2,-4.732297659E-1
4.707311458E0,-1.367492825E-1,-2.649767138E-2,-4.881430268E-1
4.709778281E0,-1.378145218E-1,-3.501953557E-2,-5.073172450E-1
4.712245156E0,-1.367492825E-1,-4.886756465E-2,-5.254262090E-1
4.714712031E0,-1.356840581E-1,-6.058513001E-2,-5.499265194E-1
4.717178906E0,-1.388797611E-1,-8.188978583E-2,-5.754921436E-1
4.719638646E0,-1.420754492E-1,-9.999874979E-2,-6.031882167E-1
4.722105313E0,-1.591191888E-1,-1.159772426E-1,-6.319494843E-1
4.724571979E0,-1.846847683E-1,-1.266295761E-1,-6.553846002E-1
4.727038698E0,-2.177069932E-1,-1.170424819E-1,-6.702978611E-1
4.729505365E0,-2.645772398E-1,-1.202381775E-1,-6.639064550E-1
4.731972083E0,-2.880123854E-1,-1.617822647E-1,-6.521888971E-1
4.734438750E0,-2.944037914E-1,-2.129134536E-1,-6.404713392E-1
4.736905417E0,-3.039908707E-1,-2.533923090E-1,-6.244928837E-1
4.739371771E0,-3.061213493E-1,-2.683055699E-1,-5.978620052E-1
4.741838438E0,-3.071865737E-1,-2.789579034E-1,-5.659050345E-1
4.744305104E0,-2.965342402E-1,-2.736317217E-1,-5.328828096E-1
4.746771771E0,-2.858819067E-1,-2.715012729E-1,-5.094476938E-1
4.749238438E0,-2.730991244E-1,-2.565880120E-1,-4.987953603E-1
4.751705156E0,-2.677729428E-1,-2.171743810E-1,-4.806863964E-1
4.754171823E0,-2.677729428E-1,-1.852173954E-1,-4.710993171E-1
4.756638490E0,-2.592510879E-1,-1.660431921E-1,-4.774906933E-1
4.759106510E0,-2.454030514E-1,-1.511299312E-1,-4.806863964E-1
4.761573177E0,-2.368811965E-1,-1.468690038E-1,-4.838820994E-1
4.764039896E0,-2.240983993E-1,-1.500647068E-1,-4.902735054E-1
4.766506615E0,-2.145113051E-1,-1.479342431E-1,-5.019910336E-1
4.768973333E0,-2.049241960E-1,-1.532603949E-1,-5.254262090E-1
4.771440052E0,-1.932066381E-1,-1.521951705E-1,-5.446003675E-1
4.773906771E0,-1.793586165E-1,-1.415428370E-1,-5.637745857E-1
4.776373490E0,-1.505973190E-1,-1.489994675E-1,-5.904054046E-1
4.778840833E0,-1.143793985E-1,-1.458037645E-1,-6.191666722E-1
4.781307552E0,-8.242240548E-2,-1.308905035E-1,-6.457974911E-1
4.783774271E0,-5.898727849E-2,-1.149120107E-1,-6.820154190E-1
4.786240990E0,-4.833494872E-2,-8.828118443E-2,-7.224943042E-1
4.788707708E0,-4.087831825E-2,-6.378082931E-2,-7.608426809E-1
4.791174427E0,-3.555215150E-2,-5.419373140E-2,-8.013215661E-1
4.793641198E0,-3.448691964E-2,-6.058513001E-2,-8.481917977E-1
4.796107917E0,-3.661738336E-2,-7.656362653E-2,-8.939968348E-1
4.798570156E0,-3.981308267E-2,-1.063901484E-1,-9.461932182E-1
4.801036771E0,-4.513924941E-2,-1.287600398E-1,-1.004781008E0
4.803503385E0,-5.472634733E-2,-1.330209672E-1,-1.066431403E0
4.805970000E0,-7.283531129E-2,-1.319557428E-1,-1.128214955E0
4.808436615E0,-9.946613014E-2,-1.159772426E-1,-1.193194151E0
4.810903229E0,-1.303578913E-1,-7.869409025E-2,-1.256042838E0
4.813369844E0,-1.633801162E-1,-3.821523488E-2,-1.317826390E0
4.815836458E0,-1.900109351E-1,-1.997311832E-3,-1.376414180E0
4.818304063E0,-2.123808414E-1,4.380770773E-2,-1.422219276E0
4.820770729E0,-2.347507328E-1,8.641702682E-2,-1.450980544E0
4.823237344E0,-2.592510879E-1,1.577876359E-1,-1.466959000E0
4.825704010E0,-2.901428342E-1,2.568543255E-1,-1.479741812E0
4.828170625E0,-3.274259865E-1,3.493964374E-1,-1.490394115E0
4.830637292E0,-3.625786901E-1,4.665720761E-1,-1.494655132E0
4.833103906E0,-3.966661394E-1,6.189003587E-1,-1.498916030E0
4.835570573E0,-4.275579154E-1,7.829462886E-1,-1.512764096E0
4.838035260E0,-4.499278069E-1,9.351414442E-1,-1.520220637E0
4.840501875E0,-4.499278069E-1,1.049121380E0,-1.505307436E0
4.842968438E0,-4.424711764E-1,1.166296959E0,-1.479741812E0
4.845435052E0,-4.605801404E-1,1.313299179E0,-1.473350406E0
4.847901615E0,-4.978632927E-1,1.476279855E0,-1.487198472E0
4.850368229E0,-5.392742157E-1,1.621018410E0,-1.515959740E0
4.852834844E0,-5.765573978E-1,1.742454886E0,-1.541525364E0
4.855301406E0,-6.181014776E-1,1.860695839E0,-1.564960480E0
4.857769531E0,-6.852111220E-1,1.992784739E0,-1.576678038E0
4.860236198E0,-7.192986012E-1,2.024741650E0,-1.580938935E0
4.862702813E0,-7.256900072E-1,2.005567551E0,-1.596917510E0
4.865169427E0,-7.661688328E-1,1.959762454E0,-1.608635068E0
4.867636094E0,-8.354089856E-1,1.866021991E0,-1.619287372E0
4.870102708E0,-9.035838842E-1,1.756302953E0,-1.618222117E0
4.872569323E0,-9.653674364E-1,1.660431981E0,-1.594787002E0
4.875035938E0,-1.029281378E0,1.536864996E0,-1.566025734E0
4.877505417E0,-1.098521590E0,1.337799549E0,-1.555373311E0
4.879972083E0,-1.169759035E0,1.124752879E0,-1.553242922E0
4.882438802E0,-1.231542587E0,9.223586321E-1,-1.551112413E0
4.884905521E0,-1.305043578E0,7.264889479E-1,-1.527677298E0
4.887372188E0,-1.401979804E0,5.336817503E-1,-1.502111673E0
4.889838906E0,-1.480807066E0,4.271584451E-1,-1.488263726E0
4.892305625E0,-1.553242922E0,3.355484009E-1,-1.475480914E0
4.894772292E0,-1.621417761E0,2.334191799E-1,-1.457371950E0
4.897234375E0,-1.671483755E0,1.343525201E-1,-1.433936834E0
4.899700990E0,-1.702375531E0,4.700340703E-2,-1.410501719E0
4.902167552E0,-1.711962581E0,-4.567186534E-2,-1.396653652E0
4.904634167E0,-1.708766937E0,-1.351514459E-1,-1.393458009E0
4.907100729E0,-1.689592719E0,-1.948044896E-1,-1.383870840E0
4.909567292E0,-1.641657233E0,-2.033263594E-1,-1.366827130E0
4.912033906E0,-1.587330341E0,-1.639127284E-1,-1.356174827E0
4.914500469E0,-1.525546789E0,-6.165036187E-2,-1.342326760E0
4.916966771E0,-1.457371950E0,9.174319357E-2,-1.326348305E0
4.919433385E0,-1.388131738E0,2.653761804E-1,-1.317826390E0
4.921899948E0,-1.330609202E0,4.697677493E-1,-1.312500238E0
4.924366510E0,-1.273086667E0,6.796186566E-1,-1.301847935E0
4.926833073E0,-1.171889424E0,8.085118532E-1,-1.309304595E0
4.929299688E0,-1.080412626E0,9.212934375E-1,-1.343392015E0
4.931766250E0,-1.020759583E0,1.005446792E0,-1.386001348E0
4.934232813E0,-9.781502485E-1,1.053382277E0,-1.424349666E0
4.936699531E0,-9.376713634E-1,1.094926357E0,-1.445654392E0
4.939166146E0,-9.067795873E-1,1.116231084E0,-1.465893745E0
4.941632708E0,-8.971925378E-1,1.091730714E0,-1.495720267E0
4.944099271E0,-9.035838842E-1,1.057643294E0,-1.518090248E0
4.946565885E0,-9.291495085E-1,1.011838198E0,-1.550047159E0
4.949032448E0,-9.696283340E-1,9.468590021E-1,-1.586265087E0
4.951499010E0,-1.012237668E0,8.670997024E-1,-1.602243662E0
4.953965625E0,-1.053781748E0,7.648373246E-1,-1.601178408E0
4.956429583E0,-1.092130184E0,6.508573890E-1,-1.586265087E0
4.958896094E0,-1.133674264E0,5.187684894E-1,-1.559634328E0
