"Time (s)","Acceleration x (m/s^2)","Acceleration y (m/s^2)","Acceleration z (m/s^2)"
3.107443600E-2,-7.178468257E-2,3.406183004E0,9.101400375E0
3.354047800E-2,-5.952146277E-2,3.399004459E0,9.079864502E0
3.600652000E-2,-8.614161611E-2,3.418446302E0,9.094221115E0
3.847282200E-2,-6.699903309E-2,3.430410385E0,9.108578682E0
4.093875900E-2,-8.614161611E-2,3.456731319E0,9.151649475E0
4.340464500E-2,-1.794617027E-1,3.492623806E0,9.180662155E0
4.587094700E-2,-1.842473447E-1,3.554837227E0,9.166305542E0
4.833672800E-2,-1.435693651E-1,3.581158161E0,9.173483849E0
5.080277000E-2,-1.028913707E-1,3.542873144E0,9.204590797E0
5.326881100E-2,-9.092725813E-2,3.583550930E0,9.257232666E0
5.573485300E-2,-1.890329868E-1,3.619443417E0,9.285946846E0
5.820089500E-2,-1.938186288E-1,3.652942896E0,9.329017639E0
6.066693600E-2,-1.483550072E-1,3.624228954E0,9.300303459E0
6.313297800E-2,-9.092725813E-2,3.597908020E0,9.250054359E0
6.559902000E-2,-7.417750359E-2,3.607479334E0,9.288339615E0
6.806506100E-2,-2.123630047E-2,3.540480137E0,9.264410973E0
7.053110300E-2,-2.841476910E-2,3.547658682E0,9.242876053E0
7.299714500E-2,-1.148554832E-1,3.552444220E0,9.247661591E0
7.546318600E-2,-7.657032460E-2,3.566801310E0,9.230911255E0
7.792922800E-2,-4.277170449E-2,3.509373426E0,9.221340179E0
8.039527000E-2,-4.516452923E-2,3.466302633E0,9.214161873E0
8.286131100E-2,-6.699903309E-2,3.406183004E0,9.158827782E0
8.532735300E-2,-9.571290761E-2,3.375076294E0,9.130113602E0
8.779339500E-2,-1.603191197E-1,3.279363394E0,9.058329582E0
9.025943600E-2,-2.129612118E-1,3.255435228E0,9.091828346E0
9.272547800E-2,-3.520440459E-1,3.298506021E0,9.127720833E0
9.519152000E-2,-4.501497746E-1,3.296113253E0,9.151649475E0
9.765756100E-2,-5.075774789E-1,3.298506021E0,9.202198029E0
1.001236030E-1,-5.673980713E-1,3.310470104E0,9.264410973E0
1.025896450E-1,-6.275177598E-1,3.341576815E0,9.278767586E0
1.050556860E-1,-6.801598072E-1,3.324826956E0,9.329017639E0
1.075217280E-1,-6.753742099E-1,3.310470104E0,9.407979965E0
1.099877700E-1,-7.543373108E-1,3.274577856E0,9.463314056E0
1.124538110E-1,-7.256234884E-1,3.272184849E0,9.472886086E0
1.149198530E-1,-7.471588850E-1,3.226721287E0,9.518349648E0
1.173858950E-1,-7.232306600E-1,3.190829039E0,9.578169823E0
1.198519360E-1,-7.399803996E-1,3.174079180E0,9.633204460E0
1.223179780E-1,-7.423732281E-1,3.166900873E0,9.604491234E0
1.247840200E-1,-7.088736892E-1,3.092424154E0,9.635597229E0
1.272500610E-1,-6.514459848E-1,3.034996510E0,9.602098465E0
1.297161030E-1,-6.969096065E-1,3.075674295E0,9.604491234E0
1.321821450E-1,-7.280163169E-1,3.123530865E0,9.642776489E0
1.346481860E-1,-7.639086246E-1,3.142673492E0,9.585348129E0
1.371142280E-1,-8.117650747E-1,3.217149973E0,9.606884003E0
1.395802700E-1,-7.495517135E-1,3.243471146E0,9.535099030E0
1.420463110E-1,-7.112665176E-1,3.260220766E0,9.475278854E0
1.445123530E-1,-7.447660565E-1,3.308077335E0,9.439386368E0
1.469783950E-1,-7.471588850E-1,3.320041418E0,9.407979965E0
1.494444360E-1,-7.088736892E-1,3.286541939E0,9.357730865E0
1.519104780E-1,-6.681957245E-1,3.317648649E0,9.386445045E0
1.543765200E-1,-6.275177598E-1,3.343969584E0,9.331410408E0
1.568425610E-1,-6.370890141E-1,3.353540897E0,9.254839897E0
1.593086030E-1,-6.299105883E-1,3.391826153E0,9.183054924E0
1.617746450E-1,-5.721837282E-1,3.353540897E0,9.192625999E0
1.642406860E-1,-5.913262963E-1,3.353540897E0,9.137291908E0
1.667067280E-1,-5.506483316E-1,3.293720484E0,9.015258789E0
1.691727700E-1,-4.884349108E-1,3.253042459E0,8.974580765E0
1.716388110E-1,-5.817549825E-1,3.358326674E0,8.890532494E0
1.741048530E-1,-6.323033571E-1,3.425624609E0,8.965008736E0
1.765708950E-1,-6.370890141E-1,3.401397467E0,8.876175880E0
1.790369360E-1,-6.442674994E-1,3.418446302E0,8.821140289E0
1.815029780E-1,-6.705885530E-1,3.432803154E0,8.792427063E0
1.839690200E-1,-6.849454641E-1,3.480659723E0,8.751749039E0
1.864350610E-1,-6.681957245E-1,3.485445261E0,8.687142372E0
1.889011030E-1,-6.945167780E-1,3.511766434E0,8.713463783E0
1.913671450E-1,-6.969096065E-1,3.530908823E0,8.696713448E0
1.938331860E-1,-6.562315822E-1,3.521337509E0,8.699107170E0
1.962992280E-1,-6.059823632E-1,3.514159203E0,8.651249886E0
1.987652700E-1,-5.961119533E-1,3.492623806E0,8.668000221E0
2.012313110E-1,-5.195416212E-1,3.473481178E0,8.670392990E0
2.036973530E-1,-4.908277392E-1,3.483052492E0,8.668000221E0
2.061633950E-1,-4.980062246E-1,3.495016575E0,8.600702286E0
2.086294360E-1,-4.645066857E-1,3.449553013E0,8.624929428E0
2.110954780E-1,-4.573282301E-1,3.449553013E0,8.634500504E0
2.135615200E-1,-4.286143482E-1,3.478266716E0,8.656036377E0
2.160275610E-1,-3.927220106E-1,3.439981699E0,8.615058899E0
2.184936030E-1,-3.735794425E-1,3.399004459E0,8.607880592E0
2.209596450E-1,-3.664009571E-1,3.396611691E0,8.682356834E0
2.234256860E-1,-3.831507266E-1,3.406183004E0,8.694320679E0
2.258917280E-1,-4.334000051E-1,3.435195923E0,8.651249886E0
2.283577700E-1,-3.999004960E-1,3.444767237E0,8.711071014E0
2.308238110E-1,-3.927220106E-1,3.468695641E0,8.770891190E0
2.332898530E-1,-3.664009571E-1,3.492623806E0,8.847461700E0
2.357558950E-1,-3.472583890E-1,3.483052492E0,8.828319550E0
2.382219360E-1,-3.735794425E-1,3.461517096E0,8.797212601E0
2.406879780E-1,-3.278166950E-1,3.413660526E0,8.885746956E0
2.431540200E-1,-3.305086195E-1,3.406183004E0,8.878568649E0
2.456200610E-1,-3.206382394E-1,3.389433384E0,8.902795792E0
2.480861030E-1,-2.656033039E-1,3.394218922E0,8.890532494E0
2.505521450E-1,-2.249253243E-1,3.339184046E0,8.854640007E0
2.530181860E-1,-2.656033039E-1,3.336791277E0,8.852247238E0
2.554842280E-1,-2.703889608E-1,3.327219963E0,8.845068932E0
2.579502700E-1,-2.919243574E-1,3.351148129E0,8.806783676E0
2.604163110E-1,-2.895315289E-1,3.348755360E0,8.833105087E0
2.628823530E-1,-2.560320199E-1,3.332005501E0,8.823533058E0
2.653483950E-1,-2.656033039E-1,3.341576815E0,8.744570732E0
2.678144360E-1,-2.632105052E-1,3.353540897E0,8.797212601E0
2.702804780E-1,-2.368894368E-1,3.336791277E0,8.763712883E0
2.727465200E-1,-2.009970993E-1,3.339184046E0,8.766105652E0
2.752125610E-1,-2.297109663E-1,3.363112211E0,8.708678246E0
2.776786030E-1,-2.368894368E-1,3.346362352E0,8.725427628E0
2.801446450E-1,-1.986042857E-1,3.332005501E0,8.682356834E0
2.826106860E-1,-1.890329868E-1,3.322434187E0,8.663214684E0
2.850767280E-1,-1.914258152E-1,3.327219963E0,8.607880592E0
2.875427700E-1,-1.220339537E-1,3.322434187E0,8.545666695E0
2.900088110E-1,-1.435693651E-1,3.339184046E0,8.528917313E0
2.924748530E-1,-1.244267747E-1,3.351148129E0,8.545666695E0
2.949408950E-1,-9.810572863E-2,3.339184046E0,8.502595901E0
2.974069360E-1,-4.755735025E-2,3.305684566E0,8.435597420E0
2.998729780E-1,-6.460621208E-2,3.324826956E0,8.435597420E0
3.023390200E-1,-6.699903309E-2,3.308077335E0,8.370990753E0
3.048050610E-1,-4.277170449E-2,3.308077335E0,8.341978073E0
3.072711030E-1,-5.473581702E-2,3.303291559E0,8.373383522E0
3.097371450E-1,-9.332008660E-2,3.332005501E0,8.361419678E0
3.122031860E-1,-1.292124242E-1,3.341576815E0,8.380561829E0
3.146692280E-1,-1.292124242E-1,3.379862070E0,8.382954597E0
3.171352700E-1,-1.268195957E-1,3.391826153E0,8.366205215E0
3.196013110E-1,-1.483550072E-1,3.418446302E0,8.382954597E0
3.220673530E-1,-1.459621787E-1,3.423231840E0,8.442775726E0
3.245333950E-1,-1.674975902E-1,3.442374468E0,8.533702850E0
3.269994360E-1,-1.651047617E-1,3.408575773E0,8.519346237E0
3.294654780E-1,-1.148554832E-1,3.391826153E0,8.543273926E0
3.319315200E-1,-1.339980662E-1,3.367897987E0,8.600702286E0
3.343975610E-1,-1.722832322E-1,3.305684566E0,8.533702850E0
3.368636030E-1,-2.009970993E-1,3.286541939E0,8.574380875E0
3.393296450E-1,-2.153540403E-1,3.250649452E0,8.471489906E0
3.417956860E-1,-2.488535494E-1,3.279363394E0,8.390133858E0
3.442617280E-1,-2.512463629E-1,3.265006542E0,8.320442200E0
3.467277700E-1,-3.086741269E-1,3.279363394E0,8.188837051E0
3.491938110E-1,-3.376871049E-1,3.253042459E0,8.095517159E0
3.516598530E-1,-3.472583890E-1,3.257827997E0,8.016255379E0
3.541258950E-1,-4.022932947E-1,3.257827997E0,7.872685432E0
3.565919360E-1,-4.860421121E-1,3.226721287E0,7.788637638E0
3.590579780E-1,-6.131607890E-1,3.226721287E0,7.702496052E0
3.615240200E-1,-7.064808607E-1,3.195614576E0,7.592426300E0
3.639900610E-1,-7.830511928E-1,3.090031385E0,7.494021416E0
3.664561030E-1,-8.790631890E-1,3.070888758E0,7.395915508E0
3.689221450E-1,-9.293124676E-1,3.037389278E0,7.350451946E0
3.713881860E-1,-1.034596682E0,3.027817965E0,7.266404152E0
3.738542280E-1,-1.120738268E0,2.932105064E0,7.232904434E0
3.763202700E-1,-1.211964726E0,2.936890602E0,7.180262566E0
3.787863110E-1,-1.293320656E0,2.821736097E0,7.153941631E0
3.812523530E-1,-1.333998680E0,2.816950560E0,7.144370079E0
3.837183950E-1,-1.415653706E0,2.802593470E0,7.127620220E0
3.861844360E-1,-1.446760416E0,2.697309256E0,7.177869797E0
3.886504780E-1,-1.501795292E0,2.668595552E0,7.237690449E0
3.911165200E-1,-1.544866085E0,2.632703066E0,7.293024540E0
3.935825610E-1,-1.619043589E0,2.567797899E0,7.448557854E0
3.960486030E-1,-1.693520188E0,2.515155792E0,7.623532772E0
3.985146450E-1,-1.760519266E0,2.479263306E0,7.704888821E0
4.009806860E-1,-1.868196249E0,2.397907495E0,7.848757267E0
4.034467280E-1,-1.932802439E0,2.275574446E0,7.975576878E0
4.059127700E-1,-1.952244163E0,2.213361025E0,8.071290016E0
4.083788110E-1,-1.957029819E0,2.187039852E0,8.095517159E0
4.108448530E-1,-1.978565216E0,2.160718918E0,8.107481003E0
4.133108950E-1,-1.899302959E0,2.100898266E0,8.073682785E0
4.157769360E-1,-1.882553220E0,2.079362869E0,7.970791340E0
4.182429780E-1,-1.827518344E0,2.074278116E0,7.903792381E0
4.207090200E-1,-1.784447432E0,2.124826431E0,7.690532207E0
4.231750610E-1,-1.722234130E0,2.055135489E0,7.455736160E0
4.256411030E-1,-1.640578985E0,2.069492579E0,7.293024540E0
4.281071450E-1,-1.575972795E0,2.120040894E0,7.017251492E0
4.305731860E-1,-1.444367528E0,2.112862349E0,6.883253574E0
4.330392280E-1,-1.355534077E0,2.084148407E0,6.677171707E0
4.355052700E-1,-1.310070395E0,2.108076811E0,6.502495766E0
4.379713110E-1,-1.223928809E0,2.134397745E0,6.279664040E0
4.404373530E-1,-1.056132078E0,2.079362869E0,6.212365627E0
4.429033950E-1,-9.293124676E-1,2.079362869E0,6.142973900E0
4.453694360E-1,-8.045865893E-1,2.067099571E0,6.059225082E0
4.478354780E-1,-7.160521746E-1,2.040778637E0,6.078367710E0
4.503015200E-1,-6.562315822E-1,2.009671926E0,6.071189404E0
4.527675610E-1,-5.458626747E-1,2.050349951E0,6.121438503E0
4.552336030E-1,-4.477569461E-1,2.045564175E0,6.209972858E0
4.576996450E-1,-3.640081584E-1,2.043171406E0,6.320342064E0
4.601656860E-1,-2.751746178E-1,2.047957182E0,6.411269188E0
4.626317280E-1,-2.440679073E-1,1.995314956E0,6.463911057E0
4.650977700E-1,-1.507478207E-1,2.019243240E0,6.535995007E0
4.675638110E-1,-6.460621208E-2,2.016850471E0,6.610172749E0
4.700298530E-1,-4.516452923E-2,2.021636009E0,6.689135551E0
4.724958950E-1,-1.884347759E-2,2.016850471E0,6.816254616E0
4.749619360E-1,-3.798605874E-2,2.014457464E0,7.022336483E0
4.774279780E-1,-1.405783277E-2,1.925923109E0,7.223333359E0
4.798940200E-1,-1.507478207E-1,1.854138494E0,7.328916550E0
4.823600610E-1,-3.472583890E-1,1.774876237E0,7.455736160E0
4.848261030E-1,-4.764707983E-1,1.719841242E0,7.613961697E0
4.872921450E-1,-6.705885530E-1,1.681556106E0,7.726424217E0
4.897581860E-1,-8.476574421E-1,1.664806366E0,7.870292664E0
4.922242280E-1,-1.041775107E0,1.640878081E0,7.954041481E0
4.946902700E-1,-1.257428288E0,1.681556106E0,8.097909927E0
4.971563110E-1,-1.319641709E0,1.664806366E0,8.306085587E0
4.996223530E-1,-1.322034478E0,1.693520188E0,8.550452232E0
5.020883950E-1,-1.362712502E0,1.681556106E0,8.794819832E0
5.045544360E-1,-1.355534077E0,1.626521230E0,8.885746956E0
5.070204780E-1,-1.255035520E0,1.552343726E0,9.003293991E0
5.094865200E-1,-1.156929731E0,1.437189102E0,9.134899139E0
5.119525610E-1,-9.939187169E-1,1.403689623E0,9.273982048E0
5.144186030E-1,-7.423732281E-1,1.446760416E0,9.376873970E0
5.168846450E-1,-5.673980713E-1,1.420439363E0,9.360123634E0
5.193506860E-1,-3.352942765E-1,1.444367528E0,9.350552559E0
5.218167280E-1,-2.362912335E-2,1.497009635E0,9.451350212E0
5.242827700E-1,2.566302419E-1,1.528116345E0,9.379266739E0
5.267488110E-1,5.201398134E-1,1.569093466E0,9.400801659E0
5.292148530E-1,6.254240274E-1,1.602592945E0,9.024829865E0
5.316808950E-1,5.536393523E-1,1.695913076E0,8.255836487E0
5.341469360E-1,5.871388316E-1,1.695913076E0,7.700103283E0
5.366129780E-1,5.560321808E-1,1.671984792E0,7.326523781E0
5.390790200E-1,6.421737671E-1,1.688734531E0,7.208976269E0
5.415450610E-1,5.632106066E-1,1.664806366E0,7.331309319E0
5.440111030E-1,4.914259613E-1,1.628913999E0,7.208976269E0
5.464771450E-1,4.770690203E-1,1.616949916E0,6.962216377E0
5.489431860E-1,3.906283081E-1,1.640878081E0,6.708278179E0
5.514092280E-1,3.690928817E-1,1.636092424E0,6.430411816E0
5.538752700E-1,4.313062727E-1,1.612164259E0,6.236593246E0
5.563413110E-1,5.560321808E-1,1.542772412E0,6.198009014E0
5.588073530E-1,7.043871880E-1,1.525723577E0,6.166902065E0
5.612733950E-1,9.176474810E-1,1.468295813E0,6.171687603E0
5.637394360E-1,1.013659477E0,1.501795292E0,6.193223000E0
5.662054780E-1,1.217049360E0,1.511366606E0,6.399304867E0
5.686715200E-1,1.233799219E0,1.501795292E0,6.646064758E0
5.711375610E-1,1.229013562E0,1.506580949E0,6.844968319E0
5.736036030E-1,1.332203984E0,1.583450437E0,7.182655334E0
5.760696450E-1,1.248156071E0,1.588235974E0,7.474878788E0
5.785356860E-1,1.109372377E0,1.607378602E0,7.673782349E0
5.810017280E-1,9.080761671E-1,1.767697692E0,7.891828060E0
5.834677700E-1,8.745766878E-1,1.839781523E0,8.114660263E0
5.859338110E-1,8.530412912E-1,1.880459547E0,8.334799767E0
5.883998530E-1,8.195417523E-1,1.925923109E0,8.502595901E0
5.908658950E-1,7.573283911E-1,1.978565216E0,8.531310081E0
5.933319360E-1,7.019943595E-1,1.933101535E0,8.656036377E0
5.957979780E-1,7.019943595E-1,1.894816399E0,8.854640007E0
5.982640200E-1,5.775675774E-1,1.832603097E0,9.000901222E0
6.007300610E-1,4.648058116E-1,1.750947952E0,9.087042809E0
6.031961030E-1,4.770690203E-1,1.619342685E0,9.175876617E0
6.056621450E-1,4.384847581E-1,1.456331730E0,9.331410408E0
6.081281860E-1,4.217349887E-1,1.336690545E0,9.412766457E0
6.105942280E-1,4.313062727E-1,1.279262781E0,9.293125153E0
6.130602700E-1,5.081757307E-1,1.080359459E0,9.714859962E0
6.155263110E-1,5.584250093E-1,9.819545746E-1,1.000229740E1
6.179923530E-1,5.081757307E-1,7.929216027E-1,9.635597229E0
6.204583950E-1,5.560321808E-1,6.873382926E-1,9.446564674E0
6.229244360E-1,6.637091637E-1,6.083751321E-1,9.506384850E0
6.253904780E-1,7.378866673E-1,5.174478889E-1,9.429815292E0
6.278565200E-1,7.692924738E-1,4.863412082E-1,9.273982048E0
6.303225610E-1,7.956135273E-1,4.310071766E-1,9.276374817E0
6.327886030E-1,7.884350419E-1,4.597210586E-1,9.348159790E0
6.352546450E-1,8.530412912E-1,4.070789516E-1,9.314660072E0
6.377206860E-1,8.123632669E-1,2.611167729E-1,9.470493317E0
6.401867280E-1,7.597211599E-1,-1.462612897E-1,9.594920158E0
6.426527700E-1,8.817551732E-1,-3.427718580E-1,9.851250648E0
6.451188110E-1,8.003991842E-1,-4.145565331E-1,9.920642853E0
6.475848530E-1,8.602197170E-1,-4.719842672E-1,9.949356079E0
6.500508950E-1,1.030409217E0,-5.054838061E-1,1.004058266E1
6.525169360E-1,1.269691467E0,-5.198407173E-1,1.015783119E1
6.549829780E-1,1.425524116E0,-5.365904570E-1,1.032562828E1
6.574490200E-1,1.320239902E0,-5.557330847E-1,1.039023399E1
6.599150610E-1,1.157228827E0,-5.772684813E-1,1.035673428E1
6.623811030E-1,1.097408295E0,-6.661019921E-1,1.044048309E1
6.648471450E-1,1.260120273E0,-7.522436380E-1,1.067767239E1
6.673131860E-1,1.380060434E0,-9.104689956E-1,1.075184917E1
6.697792280E-1,1.375274777E0,-1.042074203E0,1.074467087E1
6.722452700E-1,1.279561877E0,-1.262513041E0,1.085264683E1
6.747113110E-1,1.303490162E0,-1.499701619E0,1.103210926E1
6.771773530E-1,1.308275819E0,-1.868495345E0,1.118315601E1
6.796433950E-1,1.401595831E0,-2.167897224E0,1.124058342E1
6.821094360E-1,1.574178219E0,-2.431406975E0,1.119511986E1
6.845754780E-1,1.703390598E0,-2.781357288E0,1.113051319E1
6.870415200E-1,1.830509305E0,-3.109472990E0,1.084546852E1
6.895075610E-1,2.158625126E0,-3.509373426E0,1.065374374E1
6.919736030E-1,2.640180588E0,-3.830610037E0,1.046919727E1
6.944396450E-1,3.169592619E0,-4.043570995E0,1.045484066E1
6.969056860E-1,3.681955814E0,-4.326223373E0,1.034237766E1
6.993717280E-1,4.055834293E0,-4.680959225E0,1.025862885E1
7.018377700E-1,4.376771927E0,-5.030610561E0,1.019850922E1
7.043038110E-1,4.688137531E0,-5.296513081E0,1.027537823E1
7.067698530E-1,4.975575447E0,-5.531308651E0,1.035194874E1
7.092358950E-1,5.294419289E0,-5.708676815E0,1.045484066E1
7.117019360E-1,5.632106304E0,-5.821139336E0,1.042612648E1
7.141679780E-1,5.902794361E0,-5.866602898E0,1.044048309E1
7.166340200E-1,6.156732559E0,-5.859424591E0,1.055803108E1
7.191000610E-1,6.300302029E0,-5.801996708E0,1.077129078E1
7.215661030E-1,6.432206154E0,-5.794818401E0,1.106112194E1
7.240321450E-1,6.523133755E0,-5.718247890E0,1.129801083E1
7.264981860E-1,6.499205589E0,-5.545665741E0,1.138205910E1
7.289642280E-1,6.401099682E0,-5.375475883E0,1.141555882E1
7.314302700E-1,6.125626087E0,-4.989932537E0,1.129322529E1
7.338963110E-1,5.608178139E0,-4.386343002E0,1.107308578E1
7.363623530E-1,5.033302307E0,-3.660420418E0,1.095793152E1
7.388283950E-1,4.523033142E0,-2.905783892E0,1.077129078E1
7.412944360E-1,4.089334011E0,-2.316551447E0,1.047398281E1
7.437604780E-1,3.722932816E0,-1.765604019E0,1.020568752E1
7.462265200E-1,3.557528973E0,-1.449452281E0,9.896714211E0
7.486925610E-1,3.550350666E0,-1.319940805E0,9.635597229E0
7.511586030E-1,3.509672642E0,-1.243370414E0,9.441779137E0
7.536246450E-1,3.346661568E0,-1.243370414E0,9.247661591E0
7.560906860E-1,3.133401155E0,-1.233799219E0,9.113364220E0
7.585567280E-1,3.049652576E0,-1.243370414E0,8.890532494E0
7.610227700E-1,2.982653379E0,-1.300798178E0,8.648857117E0
7.634888110E-1,2.970689297E0,-1.348654628E0,8.428419113E0
7.659548530E-1,2.980260611E0,-1.382154226E0,8.174480438E0
7.684208950E-1,2.953939438E0,-1.437488198E0,7.889435291E0
7.708869360E-1,2.862713099E0,-1.504487276E0,7.623532772E0
7.733529780E-1,2.774178743E0,-1.528415442E0,7.453343391E0
7.758190200E-1,2.757428885E0,-1.614557028E0,7.271189690E0
7.782850610E-1,2.833999395E0,-1.779960990E0,7.180262566E0
7.807511030E-1,2.987439156E0,-1.942971945E0,7.180262566E0
7.832171450E-1,3.164807081E0,-2.062613010E0,7.130013466E0
7.856831860E-1,3.322733402E0,-2.199003935E0,6.981359005E0
7.881492280E-1,3.425923824E0,-2.235195398E0,6.854539394E0
7.906152700E-1,3.514458179E0,-2.199003935E0,6.679564476E0
7.930813110E-1,3.480958700E0,-2.153540373E0,6.588637352E0
7.955473530E-1,3.392125130E0,-2.084148407E0,6.454339981E0
7.980133950E-1,3.313162088E0,-2.067398787E0,6.368198395E0
8.004794360E-1,3.207877874E0,-2.009970903E0,6.255735874E0
8.029454780E-1,3.171985626E0,-1.892423630E0,6.126224041E0
8.054115200E-1,3.181556702E0,-1.842174292E0,5.944070339E0
8.078775610E-1,3.138186932E0,-1.813460469E0,5.869893074E0
8.103436030E-1,3.243770123E0,-1.947757602E0,5.781358719E0
8.128096450E-1,3.365804195E0,-2.041077614E0,5.769394398E0
8.152756860E-1,3.488137245E0,-2.194218397E0,5.814857960E0
8.177417280E-1,3.571886063E0,-2.323729992E0,5.798108578E0
8.202077700E-1,3.636492252E0,-2.388336182E0,5.802894115E0
8.226738110E-1,3.710968733E0,-2.397907495E0,5.759823322E0
8.251398530E-1,3.797110319E0,-2.409871578E0,5.721538067E0
8.276058950E-1,3.818645954E0,-2.436192513E0,5.659025669E0
8.300719360E-1,3.849752426E0,-2.457727909E0,5.558526993E0
8.325379780E-1,3.842574120E0,-2.431406975E0,5.364409447E0
8.350040200E-1,3.892823458E0,-2.369193554E0,5.273481846E0
8.374700610E-1,3.897608995E0,-2.429013968E0,5.156233788E0
8.399361030E-1,4.017549038E0,-2.556132793E0,5.024329185E0
8.424021450E-1,4.053441525E0,-2.692523718E0,4.923830986E0
8.448681860E-1,4.096512318E0,-2.769393206E0,4.775176525E0
8.473342280E-1,4.113262177E0,-2.798106909E0,4.645964146E0
8.498002700E-1,4.187439442E0,-2.893819809E0,4.631607533E0
8.522663110E-1,4.288237095E0,-2.967997313E0,4.710570335E0
8.547323530E-1,4.336093903E0,-3.006282568E0,4.799104691E0
8.571983950E-1,4.362414837E0,-3.035295486E0,4.938187599E0
8.596644360E-1,4.388735771E0,-3.092723370E0,5.067399979E0
8.621304780E-1,4.484448910E0,-3.099901676E0,5.321338654E0
8.645965200E-1,4.465306282E0,-3.123830080E0,5.570491314E0
8.670625610E-1,4.551746845E0,-3.190829039E0,5.850750446E0
8.695286030E-1,4.616353035E0,-3.178864956E0,6.140581131E0
8.719946450E-1,4.604389191E0,-3.212364435E0,6.404090881E0
8.744606860E-1,4.657031059E0,-3.195614576E0,6.698707104E0
8.769267280E-1,4.683351994E0,-3.226721287E0,7.031907558E0
8.793927700E-1,4.817649364E0,-3.286840916E0,7.295417309E0
8.818588110E-1,4.997110844E0,-3.313162088E0,7.604390144E0
8.843248530E-1,5.169693470E0,-3.305983543E0,7.956434250E0
8.867908950E-1,5.327918530E0,-3.315554857E0,8.193622589E0
8.892569360E-1,5.466702461E0,-3.310769320E0,8.471489906E0
8.917229780E-1,5.589035511E0,-3.365804195E0,8.622237206E0
8.941890200E-1,5.696712494E0,-3.358625650E0,8.660821915E0
8.966550610E-1,5.792425632E0,-3.351447105E0,8.696713448E0
8.991211030E-1,5.900401592E0,-3.394518137E0,8.665607452E0
9.015871450E-1,6.041578293E0,-3.564707518E0,8.677571297E0
9.040531860E-1,6.195017815E0,-3.703491211E0,8.586344719E0
9.065192280E-1,6.365207195E0,-3.792025566E0,8.521739006E0
9.089852700E-1,6.530312061E0,-3.978965044E0,8.536095619E0
9.114513110E-1,6.671787739E0,-4.144368649E0,8.437990189E0
9.139173530E-1,6.875177860E0,-4.338187218E0,8.394919395E0
9.163833950E-1,7.019046307E0,-4.470091820E0,8.373383522E0
9.188494360E-1,7.133901596E0,-4.556233406E0,8.380561829E0
9.213154780E-1,7.294519901E0,-4.635495663E0,8.320442200E0
9.237815200E-1,7.481459141E0,-4.767100811E0,8.277371407E0
9.262475610E-1,7.699504852E0,-4.795814991E0,8.291728973E0
9.287136030E-1,7.945965767E0,-4.771886349E0,8.291728973E0
9.311796450E-1,8.161619186E0,-4.779065132E0,8.301300049E0
9.336456860E-1,8.408378601E0,-4.800600529E0,8.291728973E0
9.361117280E-1,8.595317841E0,-4.817350388E0,8.253443718E0
9.385777700E-1,8.791828156E0,-4.795814991E0,8.253443718E0
9.410438110E-1,8.968897820E0,-4.869992256E0,8.181658745E0
9.435098530E-1,9.165408134E0,-4.903790951E0,8.260622025E0
9.459758950E-1,9.352347374E0,-4.894219398E0,8.205587387E0
9.484419360E-1,9.538987160E0,-4.954040051E0,8.179265976E0
9.509079780E-1,9.658927917E0,-5.030610561E0,8.172087669E0
9.533740200E-1,9.841081619E0,-5.068895817E0,8.191229820E0
9.558400610E-1,1.000857925E1,-5.131109238E0,8.164909363E0
9.583061030E-1,1.021944618E1,-5.150251865E0,8.148159027E0
9.607721450E-1,1.039681435E1,-5.078466892E0,8.198408127E0
9.632381860E-1,1.055952644E1,-5.071288586E0,8.184051514E0
9.657042280E-1,1.075603676E1,-5.023432255E0,8.217551231E0
9.681702700E-1,1.087807083E1,-4.922933578E0,8.174480438E0
9.706363110E-1,1.099801064E1,-4.903790951E0,8.143373489E0
9.731023530E-1,1.103868866E1,-4.865206718E0,8.155337334E0
9.755683950E-1,1.111047363E1,-4.826921463E0,8.176873207E0
9.780344360E-1,1.118734360E1,-4.836492538E0,8.121838570E0
9.805004780E-1,1.131176949E1,-4.850849628E0,8.162516594E0
9.829665200E-1,1.142662525E1,-4.908576488E0,8.140980721E0
9.854325610E-1,1.144845963E1,-4.963611603E0,8.124231339E0
9.878986030E-1,1.156810093E1,-5.011467934E0,8.121838570E0
9.903646450E-1,1.163031483E1,-5.042574406E0,8.107481003E0
9.928306860E-1,1.168534946E1,-5.133502007E0,8.018648148E0
9.952967280E-1,1.177657604E1,-5.181657314E0,7.973184109E0
9.977627700E-1,1.186750317E1,-5.301298618E0,7.942077637E0
1.000228811E0,1.186750317E1,-5.361119270E0,7.910970688E0
1.002694853E0,1.186989594E1,-5.387440205E0,7.944470406E0
1.005160895E0,1.187946701E1,-5.473880768E0,7.865507126E0
1.007626936E0,1.196082306E1,-5.459524155E0,7.851150036E0
1.010092978E0,1.200658607E1,-5.519344330E0,7.903792381E0
1.012559020E0,1.209272766E1,-5.576772213E0,7.872685432E0
1.015025061E0,1.216929817E1,-5.617450237E0,7.870292664E0
1.017491103E0,1.220997620E1,-5.720640659E0,7.762316704E0
1.019957145E0,1.228445244E1,-5.801996708E0,7.721638680E0
1.022423186E0,1.233709431E1,-5.861817360E0,7.580461979E0
1.024889228E0,1.235145092E1,-5.938387394E0,7.467700481E0
1.027355270E0,1.244716454E1,-5.904888153E0,7.376772881E0
1.029821311E0,1.249502087E1,-5.955436230E0,7.319345474E0
1.032287353E0,1.258864021E1,-6.012864113E0,7.381558895E0
1.034753395E0,1.261735344E1,-6.029613972E0,7.309773922E0
1.037219436E0,1.263888931E1,-6.032006741E0,7.254439831E0
1.039685478E0,1.275853062E1,-6.036792278E0,7.170691490E0
1.042151520E0,1.291675568E1,-6.027221203E0,7.067800045E0
1.044617561E0,1.305344582E1,-6.008078575E0,6.967002392E0
1.047083603E0,1.311326599E1,-5.895316601E0,6.856932163E0
1.049549645E0,1.323051453E1,-5.790032387E0,6.751648426E0
1.052015686E0,1.337199020E1,-5.670092583E0,6.715456963E0
1.054481728E0,1.353230953E1,-5.567201138E0,6.598208427E0
1.056947770E0,1.397797298E1,-5.392225742E0,6.147759438E0
1.059413811E0,1.432044506E1,-5.219942570E0,5.570491314E0
1.061879853E0,1.542712593E1,-4.985146999E0,4.221836567E0
1.064345895E0,1.676620865E1,-4.633102894E0,2.183151484E0
1.066811936E0,1.708744621E1,-4.043570995E0,4.202394783E-1
1.069277978E0,1.718555069E1,-3.420839071E0,-9.164510965E-1
1.071744020E0,1.708505249E1,-2.927319288E0,-1.860419631E0
1.074210061E0,1.671835327E1,-2.668595552E0,-2.169392824E0
1.076676103E0,1.610519218E1,-2.532204628E0,-2.047059774E0
1.079142145E0,1.533859158E1,-2.627917528E0,-1.754836321E0
1.081608186E0,1.471585941E1,-3.016152859E0,-8.805587292E-1
1.084074228E0,1.400668621E1,-3.495016575E0,-2.315055877E-1
1.086540270E0,1.311326599E1,-3.888037682E0,1.016949639E-1
1.089006311E0,1.218844032E1,-4.086941242E0,3.218346536E-1
1.091472353E0,1.142662525E1,-4.180261135E0,4.944169819E-1
1.093938395E0,1.113200951E1,-4.405485630E0,1.105184913E0
1.096404436E0,1.091904831E1,-4.575376034E0,1.776072621E0
1.098870478E0,1.072253704E1,-4.645066738E0,2.405983210E0
1.101336520E0,1.044227791E1,-4.848456860E0,3.100799084E0
1.103802561E0,1.008993530E1,-5.052145958E0,3.718745470E0
1.106268603E0,9.773782730E0,-5.239085197E0,4.473381996E0
1.108734645E0,9.445667267E0,-5.267798901E0,5.103292465E0
1.111200686E0,9.062516212E0,-5.365904808E0,5.661418438E0
1.113666728E0,8.755637169E0,-5.387440205E0,6.253343105E0
1.116132770E0,8.609675407E0,-5.318048477E0,6.744170666E0
1.118598811E0,8.386843681E0,-5.265406132E0,7.141977310E0
1.121064853E0,8.173583031E0,-5.155336380E0,7.403094292E0
1.123530895E0,8.085048676E0,-5.111966610E0,7.721638680E0
1.125996936E0,8.041977882E0,-5.021039009E0,8.083253860E0
1.128462978E0,8.010870934E0,-4.903790951E0,8.241478920E0
1.130911155E0,7.833503246E0,-4.716851711E0,8.248658180E0
1.133377718E0,7.675277710E0,-4.477270126E0,8.030611992E0
1.135844228E0,7.771289825E0,-4.340580463E0,7.901399612E0
1.138310790E0,7.878966808E0,-4.125226021E0,7.724031448E0
1.140777301E0,7.847859859E0,-3.900001764E0,7.403094292E0
1.143243811E0,7.890930653E0,-3.641277790E0,7.077371120E0
1.145710374E0,8.051548958E0,-3.420839071E0,6.794719219E0
1.148176884E0,8.085048676E0,-3.186043262E0,6.432804585E0
1.150643915E0,8.202297211E0,-3.008675337E0,6.095117569E0
1.153110478E0,8.441878319E0,-2.843570709E0,5.915356636E0
1.155577040E0,8.463413239E0,-2.702095032E0,5.680860043E0
1.158043551E0,8.425128937E0,-2.570489645E0,5.268696308E0
1.160510113E0,8.549854279E0,-2.503490686E0,5.038686275E0
1.162976676E0,8.616853714E0,-2.433799744E0,4.844568729E0
1.165443186E0,8.434700012E0,-2.278266191E0,4.423132420E0
1.167909749E0,8.528319359E0,-2.218445778E0,4.197908401E0
1.170373551E0,8.535497665E0,-2.196611166E0,3.977469444E0
1.172840009E0,8.367700577E0,-2.120040894E0,3.711566925E0
1.175306520E0,8.427521706E0,-1.954936147E0,3.529413462E0
1.177772978E0,8.525926590E0,-2.232802629E0,3.709174156E0
1.180239436E0,8.355736732E0,-2.479562521E0,3.737888098E0
1.182705947E0,8.195118904E0,-2.491526604E0,3.697210073E0
1.185172405E0,8.185546875E0,-2.448156595E0,3.752244949E0
1.187638915E0,8.178368568E0,-2.493919373E0,3.785744429E0
1.190088186E0,8.219046593E0,-2.632703066E0,3.831507206E0
1.192554228E0,8.197511673E0,-2.694916487E0,3.855435371E0
1.195020270E0,8.274380684E0,-2.826820850E0,3.845864296E0
1.197486311E0,8.370093346E0,-2.800499916E0,3.836292982E0
1.199952353E0,8.516354561E0,-2.757428885E0,3.735495329E0
1.202418395E0,8.595317841E0,-2.972783089E0,3.867399693E0
1.204884488E0,8.815756798E0,-2.944069147E0,3.831507206E0
1.207350530E0,8.866005898E0,-2.838784933E0,3.740280867E0
1.209825738E0,8.705388069E0,-2.963211775E0,3.725924015E0
1.212292040E0,8.533104897E0,-3.245863914E0,3.915256023E0
1.214758290E0,8.571390152E0,-3.233899832E0,3.826721668E0
1.217224593E0,8.712566376E0,-2.979961395E0,3.519842148E0
1.219690895E0,8.839685440E0,-2.805285454E0,3.246761322E0
1.222157145E0,8.779864311E0,-2.977568626E0,3.230011463E0
1.224623447E0,8.398807526E0,-3.435195923E0,3.383451223E0
1.227089697E0,8.513961792E0,-3.406482220E0,3.153441191E0
1.229554176E0,8.633603096E0,-3.276970625E0,3.019443035E0
1.232020426E0,8.710173607E0,-3.337090254E0,3.024228811E0
1.234486676E0,8.944969177E0,-3.368196964E0,3.131905794E0
1.236952874E0,9.019146919E0,-3.375375509E0,3.206083298E0
1.239419124E0,9.050552368E0,-3.463909864E0,3.457628727E0
1.241885374E0,9.014361382E0,-3.588635683E0,3.654139280E0
1.244351572E0,8.985647202E0,-3.516551971E0,3.788137436E0
1.246817822E0,9.210871696E0,-3.315554857E0,3.908077478E0
1.249292457E0,9.110373497E0,-3.351447105E0,4.114159584E0
1.251758915E0,8.933005333E0,-3.341876030E0,4.267300129E0
1.254225322E0,9.098408699E0,-3.119044304E0,4.243371964E0
1.256691780E0,9.146265030E0,-3.145365477E0,4.356133461E0
1.259158238E0,8.834898949E0,-3.485445261E0,4.607379913E0
1.261624645E0,8.906683922E0,-3.370589733E0,4.494917393E0
1.264091103E0,9.074481010E0,-3.205185890E0,4.523631096E0
1.266557561E0,9.134301186E0,-3.207578659E0,4.576273441E0
1.269015374E0,9.170193672E0,-3.202793121E0,4.729712963E0
1.271481624E0,9.062516212E0,-3.198007345E0,4.854139805E0
1.273947822E0,8.839685440E0,-3.356232882E0,5.062614441E0
1.276414072E0,8.465806961E0,-3.581457376E0,5.172983646E0
1.278880270E0,8.257631302E0,-3.586242914E0,4.938187599E0
1.281346520E0,8.185546875E0,-3.435195923E0,4.648356915E0
1.283812770E0,8.231010437E0,-3.344268799E0,4.494917393E0
1.286278968E0,8.319844246E0,-3.418446302E0,4.291228294E0
1.288751468E0,8.214261055E0,-3.339483023E0,3.948755503E0
1.291217822E0,8.080263138E0,-3.260220766E0,3.625425339E0
1.293684228E0,7.802396297E0,-3.238685369E0,3.323630571E0
1.296150582E0,7.457530975E0,-3.241078377E0,2.952144861E0
1.298616988E0,7.138687134E0,-3.267399311E0,2.650350094E0
1.301083395E0,6.899405003E0,-3.257827997E0,2.386840582E0
1.303549749E0,6.678966045E0,-3.339483023E0,2.118545294E0
1.306016155E0,6.513562202E0,-3.416053534E0,1.929213285E0
1.308495582E0,6.415456772E0,-3.516551971E0,1.852642894E0
1.310962301E0,6.319444656E0,-3.550350666E0,1.682752490E0
1.313428968E0,6.269195557E0,-3.435195923E0,1.601097465E0
1.315895686E0,6.355337143E0,-3.495016575E0,1.605883121E0
1.318362405E0,6.508776665E0,-3.557528973E0,1.771286964E0
1.320829124E0,6.590132713E0,-3.624528170E0,2.010868311E0
1.323295843E0,6.678966045E0,-3.739383698E0,2.240878344E0
1.325762561E0,6.690930367E0,-3.806382656E0,2.513959408E0
1.328224020E0,6.817749977E0,-3.923929930E0,2.854039192E0
1.330690634E0,6.973582268E0,-4.113262177E0,3.096013308E0
1.333157197E0,7.150651455E0,-4.235296249E0,3.316452265E0
1.335623759E0,7.299305439E0,-4.331008911E0,3.517449379E0
1.338090374E0,7.385447025E0,-4.371985912E0,3.735495329E0
1.340556936E0,7.524529934E0,-4.434199333E0,3.761816263E0
1.343023499E0,7.687242031E0,-4.527519703E0,3.771387577E0
1.345490113E0,7.809575081E0,-4.604089737E0,3.759423494E0
1.347954697E0,7.979764462E0,-4.692923546E0,3.634996653E0
1.350421207E0,8.185546875E0,-4.733601570E0,3.517449379E0
1.352887770E0,8.336593628E0,-4.750350952E0,3.428914785E0
1.355354280E0,8.482556343E0,-4.800600529E0,3.127120018E0
1.357820843E0,8.657531738E0,-4.848456860E0,2.858824968E0
1.360287353E0,8.827720642E0,-4.901398182E0,2.624029160E0
1.362753915E0,9.014361382E0,-4.973182678E0,2.384447813E0
1.365220426E0,9.256335258E0,-5.042574406E0,2.240878344E0
1.367690270E0,9.328418732E0,-5.104787827E0,2.185544491E0
1.370156884E0,9.407382011E0,-5.174479008E0,2.135295153E0
1.372623499E0,9.421739578E0,-5.217549801E0,2.092224360E0
1.375090113E0,9.330811501E0,-5.248656273E0,2.061117649E0
1.377556728E0,9.246764183E0,-5.210371494E0,1.972583175E0
1.380023343E0,9.103194237E0,-5.272584915E0,1.900499344E0
1.382489957E0,8.985647202E0,-5.296513081E0,1.766501307E0
1.384956572E0,8.813364029E0,-5.382654667E0,1.636989832E0
1.387421051E0,8.628817558E0,-5.389832973E0,1.443171144E0
1.389887613E0,8.417949677E0,-5.447559834E0,1.148554921E0
1.392354176E0,8.245666504E0,-5.526523113E0,9.065806866E-1
1.394820738E0,8.099405289E0,-5.703890800E0,6.358926296E-1
1.397287301E0,8.056334496E0,-5.914459229E0,3.771686554E-1
1.399753863E0,8.053941727E0,-6.223731518E0,2.069791555E-1
1.402220426E0,7.974978924E0,-6.372086525E0,2.380858511E-1
1.404686988E0,7.890930653E0,-6.410371780E0,5.518447161E-1
1.407153030E0,7.728219032E0,-6.142076492E0,1.117149115E0
1.409619072E0,7.467102051E0,-5.519344330E0,1.752144337E0
1.412085113E0,7.351947784E0,-4.963611603E0,2.492423773E0
1.414551155E0,7.428517818E0,-4.625924587E0,3.105584621E0
1.417017197E0,7.620242596E0,-4.551447868E0,3.381058455E0
1.419483238E0,7.893323898E0,-4.822135925E0,3.613461256E0
1.421949280E0,8.046763420E0,-5.164907455E0,3.733102322E0
1.424415322E0,8.099405289E0,-5.394618511E0,3.709174156E0
1.426886936E0,8.104190826E0,-5.684449196E0,3.706781387E0
1.429353707E0,8.058727264E0,-5.842674732E0,3.850649834E0
1.431820426E0,7.900502205E0,-5.854638577E0,4.102195263E0
1.434287197E0,7.831110477E0,-5.773283005E0,4.307978153E0
1.436753968E0,7.816753387E0,-5.706283569E0,4.569094658E0
1.439220738E0,7.821538925E0,-5.684449196E0,4.636393070E0
1.441687509E0,7.723433495E0,-5.667699337E0,4.487739086E0
1.444154280E0,7.716254711E0,-5.754140377E0,4.392025948E0
1.446618134E0,7.696813107E0,-5.782854080E0,4.145266056E0
1.449084801E0,7.591528893E0,-5.749354839E0,3.853042603E0
1.451551468E0,7.800003529E0,-5.756533146E0,3.733102322E0
1.454018186E0,7.905287743E0,-5.711069584E0,3.541676521E0
1.456484853E0,8.061120033E0,-5.737390518E0,3.285345554E0
1.458951572E0,8.149654388E0,-5.758925915E0,3.127120018E0
1.461418238E0,8.255238533E0,-5.713462353E0,2.947359324E0
1.463884957E0,8.305487633E0,-5.638985634E0,2.702992201E0
1.466347770E0,8.288737297E0,-5.603093147E0,2.602493763E0
1.468814384E0,8.358129501E0,-5.595914841E0,2.530709028E0
1.471280947E0,8.262416840E0,-5.619843006E0,2.490031004E0
1.473747561E0,8.288737297E0,-5.730212212E0,2.405983210E0
1.476214176E0,8.250452042E0,-5.739783287E0,2.341377020E0
1.478680738E0,8.211868286E0,-5.849853039E0,2.408375978E0
1.481147353E0,8.307880402E0,-5.996114254E0,2.616850615E0
1.483613915E0,8.394021988E0,-6.127719879E0,2.758326292E0
1.486079697E0,8.472985268E0,-6.288337708E0,2.956930637E0
1.488546259E0,8.482556343E0,-6.326622963E0,3.163012505E0
1.491012874E0,8.370093346E0,-6.285944939E0,3.321237803E0
1.493479436E0,8.341380119E0,-6.362515450E0,3.534198999E0
1.495945999E0,8.528319359E0,-6.561419010E0,3.711566925E0
1.498412561E0,8.557032585E0,-6.597311020E0,3.802494287E0
1.500879124E0,8.489734650E0,-6.602096558E0,3.790530205E0
1.503345738E0,8.269595146E0,-6.561419010E0,3.644567966E0
1.505810478E0,8.142476082E0,-6.570990086E0,3.515056372E0
1.508276988E0,8.161619186E0,-6.602096558E0,3.390629768E0
1.510743551E0,8.216653824E0,-6.628417969E0,3.361915827E0
1.513210061E0,8.257631302E0,-6.542276382E0,3.302095175E0
1.515676572E0,8.183154106E0,-6.331408501E0,3.258725405E0
1.518143134E0,8.089834213E0,-6.173183441E0,3.148655415E0
1.520609645E0,7.898109436E0,-5.940780640E0,2.976073265E0
1.523076155E0,7.622635841E0,-5.857031822E0,2.736790895E0
1.525541520E0,7.404589653E0,-5.859424591E0,2.487638235E0
1.528008030E0,7.174878597E0,-5.904888153E0,2.279163599E0
1.530474540E0,7.026224613E0,-6.029613972E0,2.147259235E0
1.532940999E0,6.904190540E0,-6.099005699E0,1.910070658E0
1.535407509E0,7.016653538E0,-6.130112648E0,1.792822361E0
1.537874020E0,7.069295406E0,-6.142076492E0,1.756929994E0
1.540340530E0,6.935297489E0,-6.017649651E0,1.737787485E0
1.542806988E0,6.628417969E0,-5.967400551E0,1.792822361E0
1.545273603E0,6.235695839E0,-6.010471344E0,1.922034740E0
1.547740113E0,6.211767673E0,-6.142076492E0,1.934298038E0
1.550206624E0,5.219942570E0,-6.233303070E0,1.939083695E0
1.552673082E0,4.961218834E0,-6.537490368E0,2.065903187E0
1.555139593E0,5.763711452E0,-6.760322094E0,2.089831591E0
1.557606103E0,4.803292274E0,-6.786643028E0,2.073081732E0
1.560072613E0,4.805685043E0,-6.832107067E0,2.018046856E0
1.562539124E0,4.966004372E0,-6.805785656E0,1.960619092E0
1.565004228E0,3.274876833E0,-7.292127132E0,2.295913219E0
1.567470686E0,3.229413271E0,-7.550551891E0,2.343769789E0
1.569937145E0,4.003192425E0,-7.792526245E0,2.473281384E0
1.572403603E0,4.175475597E0,-7.852645874E0,2.849253654E0
1.574870061E0,4.180261135E0,-7.850253105E0,3.024228811E0
1.577336572E0,3.255734205E0,-8.168797493E0,3.280559778E0
1.579803030E0,3.109472990E0,-8.355437279E0,3.431307554E0
1.582269488E0,3.162414312E0,-8.475378036E0,3.503092289E0
1.584737040E0,2.930011272E0,-8.470592499E0,3.464807272E0
1.587203551E0,3.049652576E0,-8.554341316E0,3.381058455E0
1.589670009E0,2.206481695E0,-8.679066658E0,3.184547901E0
1.592136520E0,1.686640859E0,-8.863314629E0,3.031407118E0
1.594603030E0,2.105983019E0,-9.047860146E0,2.906681299E0
1.597069488E0,2.642573595E0,-9.021539688E0,2.693420887E0
1.599535999E0,2.297408819E0,-8.923434258E0,2.609672308E0
1.602002509E0,1.890329838E0,-8.820243835E0,2.705385208E0
1.604469697E0,1.478166223E0,-8.611768723E0,2.854039192E0
1.606936207E0,1.779960990E0,-8.556734085E0,2.846860647E0
1.609402718E0,1.868794441E0,-8.508877754E0,2.758326292E0
1.611869228E0,2.072184324E0,-8.355437279E0,2.530709028E0
1.614335738E0,1.919043779E0,-8.379665375E0,2.310270309E0
1.616802249E0,1.852044702E0,-8.214261055E0,1.986940145E0
1.619268759E0,3.219841957E0,-8.048856735E0,1.636989832E0
1.621735270E0,1.537986755E0,-7.797311783E0,1.687538147E0
1.624197405E0,9.655039310E-1,-7.811668396E0,1.819143414E0
1.626663811E0,1.463809252E0,-7.821239948E0,1.610668778E0
1.629130165E0,1.981257200E0,-7.799704552E0,1.407278776E0
1.631596572E0,1.847259045E0,-7.593921661E0,1.407278776E0
1.634062978E0,1.923829436E0,-7.200900555E0,1.076471090E0
1.636529384E0,2.038684845E0,-6.793821812E0,7.268198729E-1
1.638995790E0,2.745464802E0,-6.477370739E0,3.723830283E-1
1.641462197E0,3.437887907E0,-6.340980053E0,1.830509305E-1
1.643928238E0,3.763610840E0,-6.008078575E0,-2.063809521E-2
1.646394280E0,3.996013880E0,-5.641378403E0,-2.482553422E-1
1.648860322E0,4.352843285E0,-5.392225742E0,-3.272185028E-1
1.651326363E0,4.970789909E0,-5.332405090E0,-2.697907388E-1
1.653792405E0,5.502594948E0,-5.231906891E0,-2.985046208E-1
1.656258447E0,6.340980053E0,-5.131109238E0,-3.367897868E-1
1.658724488E0,7.150651455E0,-4.977968216E0,-3.152543902E-1
1.661190530E0,7.907680511E0,-4.805386066E0,-3.080759048E-1
1.663646884E0,9.543772697E0,-5.047360420E0,3.098705411E-1
1.666113186E0,1.504876041E1,-6.046363831E0,2.820539713E0
1.668579540E0,1.660589027E1,-4.767100811E0,4.336691856E0
1.671045895E0,1.623201180E1,-3.142972469E0,4.667499542E0
1.673512249E0,1.637827301E1,-2.747857809E0,4.705784798E0
1.675978551E0,1.775803375E1,-3.418446302E0,4.087838173E0
1.678444905E0,1.862034798E1,-4.213760853E0,3.534198999E0
1.680911259E0,1.879532242E1,-5.200799942E0,3.678067446E0
1.683393603E0,1.817019844E1,-5.763711452E0,3.378665686E0
1.685860322E0,1.666092491E1,-5.996114254E0,2.995215654E0
1.688327093E0,1.575793362E1,-6.305087566E0,1.859821439E0
1.690793811E0,1.360678577E1,-6.307480335E0,1.059721351E0
1.693260582E0,1.213340569E1,-6.973283291E0,3.699901998E-1
1.695727301E0,1.047099209E1,-7.428517818E0,-4.013960063E-1
1.698194020E0,8.614460945E0,-7.727920055E0,-1.156032443E0
1.700660790E0,7.280162811E0,-7.950751305E0,-1.846062660E0
1.703125947E0,5.742176056E0,-8.173583031E0,-1.807478428E0
1.705592613E0,4.405485630E0,-8.621339798E0,-1.604088426E0
1.708059332E0,4.350450516E0,-9.052646637E0,-1.402792215E0
1.710526051E0,4.139583111E0,-8.973683357E0,-1.378864050E0
1.712992718E0,3.674777269E0,-9.198907852E0,-1.053141117E0
1.715459436E0,3.099901676E0,-9.426225662E0,-6.984050870E-1
1.717926155E0,3.097508907E0,-9.536594391E0,-4.588237405E-1
1.720392822E0,2.965903759E0,-9.244371414E0,-1.585244946E-2
1.722854801E0,3.602992773E0,-9.431011200E0,7.698906660E-1
1.725321415E0,4.204189301E0,-9.320941925E0,1.519741535E0
1.727787978E0,4.352843285E0,-8.911469460E0,2.427518606E0
1.730254540E0,4.815256596E0,-8.528019905E0,3.055335522E0
1.732721155E0,5.236692429E0,-8.331509590E0,3.491128206E0
1.735187718E0,5.212764263E0,-8.235795975E0,3.773780346E0
1.737654332E0,5.081159115E0,-8.147261620E0,3.675674677E0
1.740120895E0,5.138586521E0,-8.389236450E0,3.570390463E0
1.742586936E0,5.550451279E0,-8.944969177E0,3.278167009E0
1.745053499E0,5.790032387E0,-8.947361946E0,2.640778780E0
1.747520061E0,5.627320766E0,-8.743673325E0,2.128116608E0
1.749986676E0,5.504987717E0,-8.947361946E0,1.991725802E0
1.752453238E0,5.313561916E0,-8.925827026E0,1.816750646E0
1.754919801E0,5.095515728E0,-8.786744118E0,2.001296997E0
1.757386363E0,5.169693470E0,-8.563912392E0,2.044367790E0
1.759852926E0,5.219942570E0,-8.321938515E0,2.094617128E0
1.762317405E0,5.119443893E0,-8.290831566E0,2.123331070E0
1.764783915E0,5.076373100E0,-8.183154106E0,2.168794632E0
1.767250426E0,5.327918530E0,-8.554341316E0,2.432304144E0
1.769716936E0,5.102694511E0,-8.980861664E0,2.164009094E0
1.772183499E0,4.946861744E0,-9.546165466E0,1.318445325E0
1.774650009E0,4.982754230E0,-1.001097202E1,9.879366755E-1
1.777116520E0,4.613960266E0,-1.015932655E1,1.117149115E0
1.779583030E0,4.561318398E0,-1.031515884E1,1.375872970E0
1.782052040E0,4.590032101E0,-1.042762184E1,1.543669701E0
1.784518655E0,4.556532383E0,-1.035344410E1,1.543669701E0
1.786985218E0,4.554139614E0,-1.062891865E1,1.519741535E0
1.789451780E0,4.499104977E0,-1.091157055E1,1.596311808E0
1.791918395E0,4.218546391E0,-1.101206875E1,1.502991676E0
1.794384957E0,3.974478483E0,-1.096421242E1,1.371087432E0
1.796851520E0,3.754039526E0,-1.096181965E1,1.627418518E0
1.799318134E0,3.945465326E0,-1.119182968E1,1.632204175E0
1.801783082E0,4.053441525E0,-1.142901802E1,1.565205097E0
1.804249645E0,3.945465326E0,-1.137637615E1,1.505384564E0
1.806716155E0,3.816252947E0,-1.156062317E1,1.464706540E0
1.809182718E0,3.825824261E0,-1.171645641E1,1.416850090E0
1.811649228E0,4.007977962E0,-1.147208881E1,1.217946768E0
1.814115790E0,4.309772491E0,-1.123729324E1,1.162911773E0
1.816582353E0,4.539782524E0,-1.118943691E1,1.126720309E0
1.819048863E0,4.649852753E0,-1.139312553E1,1.234696507E0
1.821517561E0,4.765007019E0,-1.165663528E1,1.332802176E0
1.823984176E0,5.064409256E0,-1.129711437E1,9.807581902E-1
1.826450738E0,5.167300701E0,-1.107936668E1,7.722834945E-1
1.828917353E0,5.349453926E0,-1.117029476E1,8.249256015E-1
1.831383968E0,5.509773254E0,-1.099771214E1,6.406782866E-1
1.833850530E0,5.495416164E0,-1.113679504E1,6.765705943E-1
1.836317145E0,5.811567783E0,-1.157258797E1,6.478567123E-1
1.838783759E0,6.000900269E0,-1.140987587E1,4.417748749E-1
1.841245270E0,5.811567783E0,-1.126600742E1,5.255236626E-1
1.843711728E0,5.905187130E0,-1.152712440E1,6.430711150E-1
1.846178186E0,5.924329758E0,-1.169252777E1,7.268198729E-1
1.848644645E0,5.833402634E0,-1.163031483E1,6.167500615E-1
1.851111155E0,5.804389477E0,-1.127318573E1,4.609174728E-1
1.853577613E0,5.596213818E0,-1.129711437E1,4.776672125E-1
1.856044072E0,4.700101852E0,-1.178106213E1,5.135595798E-1
1.858510530E0,4.029513359E0,-1.203978634E1,3.747758567E-1
1.860979124E0,4.127619267E0,-1.190578842E1,1.710868180E-1
1.863445634E0,3.864109516E0,-1.170927715E1,2.021935135E-1
1.865912145E0,3.684348583E0,-1.040130138E1,-4.902295470E-1
1.868378707E0,3.152842999E0,-9.157930374E0,-1.479362607E0
1.870845218E0,3.227020502E0,-9.663414001E0,-1.340578914E0
1.873311728E0,3.408874989E0,-1.012104130E1,-1.232602715E0
1.875778238E0,3.813860178E0,-1.039890766E1,-5.548357368E-1
1.878244749E0,4.484448910E0,-1.026490974E1,-2.410768867E-1
1.880709384E0,4.108476639E0,-9.953245163E0,1.064806059E-1
1.883175843E0,3.260519981E0,-9.709177017E0,6.430711150E-1
1.885642301E0,3.713361740E0,-9.443274498E0,8.344969153E-1
1.888108811E0,3.586242914E0,-9.162715912E0,1.042971611E0
1.890575270E0,2.855534792E0,-8.968897820E0,1.316052437E0
1.893041728E0,2.038684845E0,-8.911469460E0,1.476670623E0
1.895508238E0,2.057827473E0,-8.765208244E0,1.419242978E0
1.897974697E0,2.556132793E0,-8.611768723E0,1.265803218E0
1.900443968E0,2.826820850E0,-8.563912392E0,1.081256747E0
1.902910530E0,3.167199850E0,-8.554341316E0,9.448658228E-1
1.905377040E0,3.365804195E0,-8.585447311E0,8.153542876E-1
1.907843603E0,3.612564087E0,-8.671888351E0,6.263213158E-1
1.910310165E0,3.897608995E0,-8.679066658E0,3.218346536E-1
1.912776676E0,4.118047714E0,-8.655138969E0,-6.849455088E-2
1.915243238E0,4.173082829E0,-8.762815475E0,-1.091725305E-1
1.917709801E0,4.053441525E0,-8.851349831E0,-7.088737190E-2
1.920176363E0,4.086941242E0,-8.935398102E0,-2.542374097E-2
1.922642926E0,4.022335052E0,-8.949754715E0,6.340979785E-2
1.925109436E0,4.019941807E0,-8.909076691E0,-6.281159353E-3
1.927575999E0,3.991228104E0,-8.870492935E0,3.200400248E-2
1.930042561E0,4.034298897E0,-8.865707397E0,7.298108935E-2
1.932509072E0,3.907180309E0,-8.858528137E0,1.304088384E-1
1.934975634E0,3.777967930E0,-8.801100731E0,2.835494876E-1
1.937442197E0,3.739682674E0,-8.786744118E0,2.787638307E-1
1.939905686E0,3.804288864E0,-8.750851631E0,2.739782035E-1
1.942372145E0,3.804288864E0,-8.679066658E0,2.620140910E-1
1.944838603E0,3.650849104E0,-8.631210327E0,4.154538214E-1
1.947305061E0,3.538386583E0,-8.664710045E0,5.422734022E-1
1.949771572E0,3.408874989E0,-8.652746201E0,6.933203340E-1
1.952238030E0,3.181556702E0,-8.580661774E0,8.416753411E-1
1.954704488E0,3.382553816E0,-8.635995865E0,2.391626120E0
1.957170947E0,3.895216227E0,-8.554341316E0,4.257728577E0
1.959635947E0,3.962514400E0,-8.769993782E0,6.758826733E0
1.962102353E0,3.981656790E0,-9.170193672E0,8.770891190E0
1.964568811E0,3.969692707E0,-9.462417603E0,9.958928108E0
1.967035218E0,3.631706476E0,-9.764211655E0,1.012911701E1
1.969501676E0,3.341876030E0,-1.005882835E1,9.568598747E0
1.971968082E0,3.250948668E0,-1.031755257E1,8.217551231E0
1.974434540E0,3.238984585E0,-1.031276608E1,5.965905190E0
1.976900947E0,3.399303675E0,-1.017607689E1,3.594318628E0
1.979371728E0,3.667598963E0,-9.948459625E0,1.680359721E0
1.981838290E0,3.852145433E0,-9.764211655E0,2.356930375E-1
1.984304801E0,3.809074640E0,-9.605986595E0,-8.422735929E-1
1.986771363E0,3.758825302E0,-9.471988678E0,-1.388435364E0
1.989237874E0,3.687040567E0,-9.407083511E0,-1.462612867E0
1.991704436E0,3.679563046E0,-9.332905769E0,-1.254138112E0
1.994170999E0,3.648456335E0,-9.246764183E0,-7.342974544E-1
1.996637509E0,3.646063566E0,-9.102895737E0,-1.824527234E-2
1.999103551E0,3.557528973E0,-8.988039970E0,8.682954907E-1
2.001569593E0,3.516851187E0,-8.877671242E0,1.704287887E0
2.004035634E0,3.394518137E0,-8.858528137E0,2.437089920E0
2.006501676E0,3.332304716E0,-8.832207680E0,3.031407118E0
2.008967718E0,3.289233923E0,-8.679066658E0,3.333201885E0
2.011433759E0,3.219841957E0,-8.611768723E0,3.486342669E0
2.013899801E0,3.236591816E0,-8.496912956E0,3.474378586E0
2.016365843E0,3.255734205E0,-8.434700012E0,3.270689487E0
2.018829957E0,3.179163933E0,-8.365307808E0,2.870789051E0
2.021296676E0,3.049652576E0,-8.211868286E0,2.374876499E0
2.023763395E0,2.999403238E0,-8.154440880E0,2.046760559E0
2.026230165E0,3.061616659E0,-8.202297211E0,1.749751568E0
2.028696884E0,3.013760090E0,-8.180761337E0,1.469492197E0
2.031163603E0,3.023331404E0,-8.211868286E0,1.363908887E0
2.033630374E0,2.987439156E0,-8.242975235E0,1.424028635E0
2.036097093E0,3.035295486E0,-8.252546310E0,1.392622828E0
2.038561988E0,3.061616659E0,-8.209475517E0,1.462313771E0
2.041028655E0,3.016152859E0,-8.302795410E0,1.577169180E0
2.043495322E0,2.946761131E0,-8.427521706E0,1.816750646E0
2.045962040E0,2.961117983E0,-8.365307808E0,1.912463546E0
2.048428707E0,2.932404041E0,-8.333902359E0,1.986940145E0
2.050895426E0,2.918047190E0,-8.420342445E0,2.068295956E0
2.053362093E0,2.884547710E0,-8.494520187E0,2.087438583E0
2.055828811E0,2.814856768E0,-8.434700012E0,2.010868311E0
2.058285843E0,2.759821892E0,-8.532805443E0,1.914856315E0
2.060752249E0,2.714358091E0,-8.621339798E0,1.859821439E0
2.063218707E0,2.764607430E0,-8.604590416E0,1.701895118E0
2.065685113E0,2.733500719E0,-8.511270523E0,1.560419440E0
2.068151572E0,2.652144909E0,-8.494520187E0,1.426421404E0
2.070618030E0,2.649751902E0,-8.499305725E0,1.400100350E0
2.073084488E0,2.769393206E0,-8.573483467E0,1.261017561E0
2.075550947E0,2.592025042E0,-8.511270523E0,1.225125194E0
2.078029072E0,2.505883455E0,-8.394021988E0,1.210768223E0
2.080495790E0,2.479562521E0,-8.317152023E0,1.232303619E0
2.082962561E0,2.560918331E0,-8.345866203E0,1.296909928E0
2.085429280E0,2.522633314E0,-8.489734650E0,1.440778375E0
2.087895999E0,2.541775942E0,-8.470592499E0,1.438385487E0
2.090362770E0,2.584846735E0,-8.484949112E0,1.519741535E0
2.092829488E0,2.582453728E0,-8.578269005E0,1.524527073E0
2.095296259E0,2.575275421E0,-8.374878883E0,1.505384564E0
2.097759801E0,2.481955290E0,-8.142476082E0,1.512562990E0
2.100226468E0,2.216052771E0,-7.799704552E0,1.471885085E0
2.102693134E0,2.151446581E0,-7.763812065E0,1.462313771E0
2.105159801E0,2.153839588E0,-7.770990849E0,1.440778375E0
2.107626468E0,2.122732878E0,-7.663313389E0,1.467099428E0
2.110093134E0,2.105983019E0,-7.744669437E0,1.462313771E0
2.112559801E0,2.005185366E0,-7.922037601E0,1.546062589E0
2.115026468E0,2.113161564E0,-7.782954693E0,1.459920883E0
2.117489957E0,2.232802629E0,-7.780561924E0,1.558026671E0
2.119956572E0,2.168196440E0,-7.737491131E0,1.481456280E0
2.122423134E0,2.158625126E0,-7.627421379E0,1.397408366E0
2.124889697E0,2.220838547E0,-7.680063248E0,1.378265858E0
2.127356311E0,2.213660002E0,-7.687242031E0,1.263410330E0
2.129822874E0,2.120339870E0,-7.718348503E0,1.196411371E0
2.132289488E0,2.122732878E0,-7.756633759E0,1.184447169E0
2.134756051E0,2.247159481E0,-7.857431412E0,1.222732425E0
2.137223811E0,2.165803671E0,-7.907680511E0,1.191625714E0
2.139690426E0,2.045863390E0,-7.871788502E0,1.177268744E0
2.142157040E0,1.952543259E0,-7.775776386E0,1.215553880E0
2.144623655E0,2.072184324E0,-7.843074322E0,1.196411371E0
2.147090270E0,2.184946060E0,-8.044071198E0,1.280160069E0
2.149556884E0,2.043470621E0,-7.919644833E0,1.270588875E0
2.152023499E0,2.098804474E0,-7.874181271E0,1.392622828E0
2.154490113E0,2.144268274E0,-8.070392609E0,1.416850090E0
2.156952665E0,1.775175333E0,-7.888537884E0,1.412064433E0
2.159419176E0,1.566999674E0,-7.895716667E0,1.459920883E0
2.161885686E0,1.681855202E0,-8.195118904E0,1.402493119E0
2.164352197E0,1.806282043E0,-8.087141991E0,1.323230863E0
2.166818707E0,1.703390598E0,-8.101798058E0,1.325623751E0
2.169285218E0,1.818545222E0,-8.211868286E0,1.330409408E0
2.171751728E0,1.756032705E0,-8.250153542E0,1.316052437E0
2.174218238E0,1.590927958E0,-8.187939644E0,1.311266780E0
2.176683707E0,1.641177177E0,-8.226224899E0,1.229910851E0
2.179150165E0,1.648355722E0,-8.192725182E0,1.059721351E0
2.181616676E0,1.574178219E0,-8.111370087E0,1.062114120E0
2.184083134E0,1.506880045E0,-8.111370087E0,1.028614640E0
2.186549645E0,1.619641781E0,-8.192725182E0,9.711868763E-1
2.189016155E0,1.499701619E0,-8.104190826E0,1.100399256E0
2.191482613E0,1.214656591E0,-7.967501163E0,9.687940478E-1
2.193949124E0,1.257727385E0,-8.106583595E0,8.970093727E-1
2.196414488E0,1.095015407E0,-7.967501163E0,7.196413875E-1
2.198880947E0,1.056730270E0,-8.053643227E0,6.526423693E-1
2.201347405E0,1.257727385E0,-8.211868286E0,6.000002623E-1
2.203813863E0,1.092622638E0,-8.144868851E0,3.556332588E-1
2.206280322E0,9.655039310E-1,-8.097012520E0,2.261217386E-1
2.208746832E0,1.118943691E0,-8.190332413E0,3.436691463E-1
2.211213238E0,1.188335538E0,-8.338687897E0,1.495514214E-1
2.213679697E0,1.293918848E0,-8.513663292E0,1.447657645E-1
2.216145895E0,1.214656591E0,-8.544769287E0,1.208375469E-1
2.218612353E0,1.020837903E0,-8.563912392E0,2.482553571E-2
2.221078863E0,7.812566161E-1,-8.602197647E0,-3.978067636E-2
2.223545218E0,6.708876491E-1,-8.662317276E0,-1.211366430E-1
2.226011676E0,5.416752100E-1,-8.868100166E0,3.194418252E-1
2.228478134E0,5.297111273E-1,-9.143573761E0,1.320838094E0
2.230944593E0,7.501499057E-1,-9.342476845E0,1.917249203E0
2.233411051E0,6.086742878E-1,-8.786744118E0,1.869392633E0
2.235878551E0,5.703890920E-1,-7.991429329E0,1.246660590E0
2.238345009E0,5.273182988E-1,-7.040581703E0,-8.285148442E-2
2.240811520E0,6.349952817E-1,-5.490630627E0,-9.020941257E-1
2.243277978E0,6.948158741E-1,-4.369593143E0,-1.457827210E0
2.245744436E0,9.391828775E-1,-3.777668715E0,-2.732304335E0
2.248210947E0,9.128618240E-1,-4.635495663E0,-4.698905468E0
2.250677405E0,9.343972206E-1,-4.908576488E0,-5.240281582E0
2.253143915E0,6.589235067E-1,-6.048756599E0,-5.501398563E0
2.255610061E0,6.038886309E-1,-4.069892406E0,-1.457827210E0
2.258076520E0,1.073480010E0,-3.969393730E0,3.086441994E0
2.260542978E0,2.231307179E-1,-4.240081787E0,2.787040234E0
2.263009488E0,6.900302172E-1,-4.678566456E0,6.646065116E-1
2.265475947E0,1.056730270E0,-4.084548473E0,-9.906286001E-1
2.267942405E0,8.458628058E-1,-2.366800785E0,-1.886740685E0
2.270408863E0,9.726824164E-1,-2.287837505E0,-3.541975737E0
2.272875322E0,9.248259664E-1,-2.501097918E0,-5.058426857E0
2.275345426E0,6.780661345E-1,-2.936890602E0,-5.146961689E0
2.277811988E0,3.882354796E-1,-3.282055378E0,-4.682155609E0
2.280278551E0,1.247258782E-1,-3.535694599E0,-4.193421841E0
2.282745113E0,-1.914258152E-1,-3.821038723E0,-3.838984728E0
2.285211676E0,-4.716851711E-1,-4.072285175E0,-2.974278450E0
2.287678238E0,-1.611865163E0,-5.423631668E0,-3.367897868E-1
2.290144801E0,-4.558327198E0,-8.940183640E0,6.353841305E0
2.292611363E0,-5.559723377E0,-1.098814106E1,9.156435013E0
2.295072926E0,-3.789333820E0,-9.668199539E0,4.459024906E0
2.297539332E0,-1.932802439E0,-7.299305439E0,-3.678964674E-1
2.300005790E0,-8.572286963E-1,-6.527919292E0,-2.274677038E0
2.302472197E0,-7.064808607E-1,-6.827321053E0,-2.617448807E0
2.304938655E0,-1.087238789E0,-7.344769001E0,-2.806481838E0
2.307405061E0,-1.051346421E0,-7.574779034E0,-2.839981318E0
2.309871520E0,-9.460622668E-1,-7.826025486E0,-2.703590393E0
2.312337926E0,-9.221340418E-1,-8.231010437E0,-2.758625507E0
2.314792145E0,-1.171286702E0,-8.707780838E0,-2.784946442E0
2.317258290E0,-1.386640668E0,-9.141180992E0,-2.480758905E0
2.319724384E0,-1.473081470E0,-9.225228310E0,-2.107179403E0
2.322190530E0,-1.353141189E0,-9.843174934E0,-1.335793257E0
2.324656676E0,-1.159322619E0,-1.093549824E1,-2.554338276E-1
2.327122770E0,-7.351947427E-1,-1.237508011E1,1.982154489E0
2.329588915E0,-4.429712892E-1,-1.404018593E1,4.365705013E0
2.332055061E0,-7.657032460E-2,-1.433719540E1,4.236193180E0
2.334541884E0,-9.272187948E-3,-1.353230953E1,1.603490233E0
2.337008551E0,9.840483218E-2,-1.279202938E1,-3.966103494E-1
2.339475218E0,1.031904742E-1,-1.257876968E1,-1.194317579E0
2.341941832E0,3.332005441E-1,-1.283988667E1,-1.179960608E0
2.344408499E0,7.115656137E-1,-1.333819199E1,-9.332008362E-1
2.346875165E0,8.721838593E-1,-1.359691525E1,-8.614161611E-1
2.349341780E0,1.090229869E0,-1.358255863E1,-1.268495083E0
2.351808447E0,1.013659477E0,-1.343390465E1,-1.773978829E0
2.354254593E0,1.147657514E0,-1.322572899E1,-2.049452543E0
2.356720738E0,1.245763302E0,-1.290688515E1,-2.150250196E0
2.359186884E0,1.313061476E0,-1.266281700E1,-2.320140600E0
2.361652978E0,1.301097274E0,-1.248066425E1,-2.351546526E0
2.364119124E0,1.138086319E0,-1.246630669E1,-2.454437733E0
2.366585270E0,9.966106415E-1,-1.201585770E1,-2.310569286E0
2.369051415E0,9.128618240E-1,-1.196800137E1,-2.027917147E0
2.371517561E0,7.043871880E-1,-1.180259800E1,-1.604088426E0
2.373986728E0,7.354938388E-1,-1.147448158E1,-1.242174029E0
2.376452926E0,5.991029739E-1,-1.114636612E1,-8.638089895E-1
2.378919176E0,6.158527136E-1,-1.099292660E1,-4.854438901E-1
2.381385374E0,6.349952817E-1,-1.097617626E1,-1.163510010E-1
2.383851572E0,6.445665956E-1,-1.099292660E1,1.543370634E-1
2.386317822E0,5.392823815E-1,-1.105304623E1,3.074777126E-1
2.388784020E0,4.432703853E-1,-1.104347515E1,3.266202807E-1
2.391250218E0,2.350948304E-1,-1.095224857E1,3.218346536E-1
2.393721207E0,-5.234299600E-2,-1.085653591E1,2.356930375E-1
2.396187561E0,-2.033899277E-1,-1.075813103E1,2.428714931E-1
2.398653915E0,-1.507478207E-1,-1.057149029E1,2.117647976E-1
2.401120218E0,-1.866401732E-1,-1.033669472E1,1.543370634E-1
2.403586572E0,-2.362912335E-2,-1.017607689E1,1.639083475E-1
2.406052874E0,1.079761237E-1,-9.919745445E0,4.157529399E-2
2.408519228E0,-1.435693651E-1,-9.548559189E0,-3.320041299E-1
2.410985582E0,-3.254238665E-1,-9.055039406E0,-5.452644825E-1
2.413449853E0,-4.645066857E-1,-8.659924507E0,-7.199404836E-1
2.415916155E0,-7.375875711E-1,-8.492127419E0,-9.523434043E-1
2.418382457E0,-8.596215248E-1,-8.204689980E0,-1.050748229E0
2.420848707E0,-9.053842425E-1,-8.108976364E0,-1.350150228E0
2.423315009E0,-9.891330600E-1,-8.175975800E0,-1.599302888E0
2.425781311E0,-1.072881818E0,-8.240582466E0,-1.790728688E0
2.428247561E0,-1.036989570E0,-8.178368568E0,-1.718943954E0
2.430713863E0,-1.101595759E0,-8.262117386E0,-1.604088426E0
2.433198134E0,-1.133001566E0,-8.333902359E0,-1.575374603E0
2.435664853E0,-9.987043738E-1,-8.223832130E0,-1.290329576E0
2.438131572E0,-1.003489971E0,-8.183154106E0,-9.451649189E-1
2.440598343E0,-8.380861282E-1,-8.233403206E0,-6.625127792E-1
2.443065061E0,-3.305086195E-1,-8.494520187E0,-5.174478889E-2
2.445531780E0,2.036890239E-1,-8.669495583E0,5.709872842E-1
2.447998499E0,4.456632137E-1,-8.609375954E0,1.249053478E0
2.450465270E0,2.183450609E-1,-8.413164139E0,1.809572101E0
2.452926936E0,-9.092725813E-2,-8.214261055E0,1.835893154E0
2.455393551E0,1.725823283E-1,-8.362915039E0,2.396411896E0
2.457860165E0,3.738785386E-1,-8.489734650E0,2.863610506E0
2.460326780E0,5.871388316E-1,-8.422736168E0,2.748754978E0
2.462793395E0,7.091727853E-1,-8.398807526E0,3.302095175E0
2.465260009E0,7.860422134E-1,-8.671888351E0,3.841078520E0
2.467726572E0,9.463613629E-1,-8.887242317E0,4.147658825E0
2.470193186E0,1.066301584E0,-9.023932457E0,4.423132420E0
2.472659540E0,9.750752449E-1,-8.964112282E0,4.224229336E0
2.475126155E0,6.637091637E-1,-9.924530983E0,3.884149313E0
2.477592770E0,-1.962114573E-1,-1.176431274E1,3.241975546E0
2.480059384E0,-8.862416744E-1,-1.412632751E1,2.595315218E0
2.482525947E0,-1.626222134E0,-1.669920921E1,2.187937260E0
2.484992561E0,-2.292324066E0,-1.960499382E1,1.898106575E0
2.487459176E0,-2.955734253E0,-2.253440666E1,1.083649516E0
2.489925738E0,-3.281756163E0,-2.551945305E1,3.819543123E-1
2.492391468E0,-3.626621723E0,-2.805375099E1,-1.785643846E-1
2.494858082E0,-3.504288673E0,-3.038226700E1,-5.596213937E-1
2.497324645E0,-3.410968781E0,-3.184577751E1,-1.057926655E0
2.499791207E0,-2.958127022E0,-3.235604858E1,-1.601695657E0
2.502257822E0,-1.935494423E0,-3.240390396E1,-2.032702923E0
2.504724384E0,-9.987043738E-1,-3.113929749E1,-2.332104683E0
2.507190947E0,7.043871880E-1,-2.888735199E1,-2.648555517E0
2.509657509E0,2.259123564E0,-2.549073982E1,-2.761018276E0
2.512121415E0,3.186342478E0,-2.149981117E1,-2.629412889E0
2.514587926E0,3.389732361E0,-1.758305931E1,-2.394617319E0
2.517054436E0,3.064009428E0,-1.423639774E1,-2.229213476E0
2.519520947E0,2.551347256E0,-1.160638618E1,-2.178964138E0
2.521987457E0,2.021935225E0,-9.584450722E0,-2.174178362E0
2.524453968E0,1.537986755E0,-8.022536278E0,-2.167000055E0
2.526920478E0,1.109372377E0,-6.836892605E0,-2.032702923E0
2.529386988E0,6.900302172E-1,-6.053542137E0,-1.855633974E0
2.531860374E0,3.547359705E-1,-5.435595512E0,-1.659123421E0
2.534327040E0,4.576273263E-2,-5.207978249E0,-1.326221943E0
2.536793707E0,-1.531406492E-1,-5.289334297E0,-1.012463093E0
2.539260426E0,-3.329014480E-1,-5.605485916E0,-6.170491576E-1
2.541727093E0,-3.879363835E-1,-6.122933865E0,-1.642074585E-1
2.544193759E0,-3.158525825E-1,-6.860820770E0,3.508476317E-1
2.546660426E0,-1.746760458E-1,-7.730312824E0,8.249256015E-1
2.549127145E0,-3.798605874E-2,-8.614161491E0,1.201196909E0
2.551586259E0,1.462612897E-1,-9.421440125E0,1.392622828E0
2.554052770E0,2.446661144E-1,-1.002054310E1,1.512562990E0
2.556519228E0,1.701895148E-1,-1.018564796E1,1.562812328E0
2.558985738E0,-2.362912335E-2,-1.013779163E1,1.644168258E0
2.561452249E0,-1.387837082E-1,-9.886245728E0,1.663310885E0
2.563918707E0,-1.770688742E-1,-9.677771568E0,1.668395638E0
2.566385218E0,-1.603191197E-1,-9.579665184E0,1.550848126E0
2.568851728E0,-1.435693651E-1,-9.586843491E0,1.409671664E0
2.571318030E0,-1.052841991E-1,-9.555737495E0,1.287338614E0
2.573784540E0,-4.755735025E-2,-9.510273933E0,1.098006487E0
2.576250999E0,-1.166501082E-2,-9.495916367E0,9.329017401E-1
2.578717509E0,3.140579537E-2,-9.448060036E0,7.052844763E-1
2.581183968E0,7.477570791E-3,-9.452845573E0,6.215356588E-1
2.583650478E0,7.477570791E-3,-9.395118713E0,4.537389874E-1
2.586116988E0,5.294119939E-2,-9.366405487E0,2.907279432E-1
2.588583447E0,2.901297435E-2,-9.342476845E0,1.639083475E-1
2.591048238E0,3.619144112E-2,-9.359226227E0,1.591227055E-1
2.593514697E0,6.251249462E-2,-9.352047920E0,1.543370634E-1
2.595981103E0,8.404789865E-2,-9.335298538E0,1.734796464E-1
2.598447561E0,1.103689447E-1,-9.368798256E0,1.328016520E-1
2.600914020E0,7.686942816E-2,-9.368798256E0,1.686939895E-1
2.603380478E0,4.576273263E-2,-9.428618431E0,1.423729509E-1
2.605846936E0,-9.272187948E-3,-9.452845573E0,2.165504545E-1
2.608313343E0,2.662015148E-2,-9.474381447E0,2.620140910E-1
2.610779384E0,4.576273263E-2,-9.495916367E0,2.763710022E-1
2.613245426E0,4.097708687E-2,-9.493523598E0,3.170489967E-1
2.615711468E0,-2.841476910E-2,-9.512666702E0,3.867399693E-1
2.618177509E0,9.870393202E-3,-9.471988678E0,3.771686554E-1
2.620643551E0,7.477570791E-3,-9.534201622E0,4.154538214E-1
2.623109593E0,3.379862010E-2,-9.515059471E0,5.039882660E-1
2.625575634E0,1.465603895E-2,-9.479166985E0,5.063810945E-1
2.628041676E0,1.944168471E-2,-9.445667267E0,5.542375445E-1
2.630507718E0,-2.362912335E-2,-9.462417603E0,5.542375445E-1
2.632973759E0,5.294119939E-2,-9.443274498E0,5.662016869E-1
2.635439801E0,3.858426586E-2,-9.402297020E0,5.638088584E-1
2.637905843E0,2.901297435E-2,-9.354440689E0,5.518447161E-1
2.640371884E0,1.944168471E-2,-9.318549156E0,5.374878049E-1
2.642837926E0,2.422732860E-2,-9.313762665E0,5.853442550E-1
2.645303968E0,-3.080759197E-2,-9.301798820E0,6.191428304E-1
2.647770009E0,-3.080759197E-2,-9.332905769E0,6.071787477E-1
2.650244436E0,4.576273263E-2,-9.297013283E0,5.542375445E-1
2.652711207E0,6.251249462E-2,-9.263513565E0,5.662016869E-1
2.655177978E0,3.379862010E-2,-9.268299103E0,5.829514265E-1
2.657644749E0,1.465603895E-2,-9.261120796E0,5.542375445E-1
2.660111520E0,4.815555736E-2,-9.275477409E0,6.071787477E-1
2.662578290E0,1.007976532E-1,-9.297013283E0,6.454638839E-1
2.665045061E0,9.122636169E-2,-9.265906334E0,6.598208547E-1
2.667511832E0,1.295115203E-1,-9.225228310E0,6.861419082E-1
2.669976311E0,1.175474152E-1,-9.182157516E0,7.148557901E-1
2.672443030E0,1.319043487E-1,-9.241978645E0,7.196413875E-1
2.674909749E0,1.366899908E-1,-9.232406616E0,7.292127013E-1
2.677376468E0,9.840483218E-2,-9.227621078E0,7.746763229E-1
2.679843186E0,1.103689447E-1,-9.253942490E0,7.698906660E-1
2.682309853E0,1.055833027E-1,-9.215657234E0,7.914260626E-1
2.684776572E0,1.342971772E-1,-9.239585876E0,8.081758618E-1
2.687243290E0,1.510469317E-1,-9.256335258E0,7.531409264E-1
2.689707145E0,1.773679852E-1,-9.304191589E0,7.316055298E-1
2.692173811E0,1.725823283E-1,-9.301798820E0,6.861419082E-1
2.694640478E0,1.558325738E-1,-9.371191025E0,6.047859192E-1
2.697107093E0,2.303091735E-1,-9.347262383E0,6.382854581E-1
2.699573759E0,2.662015259E-1,-9.426225662E0,6.981059909E-1
2.702040374E0,3.379862010E-1,-9.440881729E0,6.741777658E-1
2.704507040E0,3.858426511E-1,-9.515059471E0,6.598208547E-1
2.706973655E0,4.289134443E-1,-9.641879082E0,6.574280262E-1
2.709439072E0,5.703890920E-1,-9.694520950E0,6.047859192E-1
2.711905686E0,6.445665956E-1,-9.790533066E0,6.000002623E-1
2.714372301E0,7.283154130E-1,-9.953245163E0,5.901299119E-1
2.716838915E0,8.913264275E-1,-1.006361389E1,5.279164910E-1
2.719305530E0,9.798609018E-1,-1.018804073E1,4.369892478E-1
2.721772145E0,1.090229869E0,-1.022154045E1,4.992026389E-1
2.724238759E0,1.325025558E0,-1.023350430E1,4.561318159E-1
2.726705374E0,1.358525038E0,-1.022632599E1,4.752743840E-1
2.729169332E0,1.430309772E0,-1.013779163E1,4.944169819E-1
2.731635895E0,1.535593987E0,-1.017368412E1,4.561318159E-1
2.734102457E0,1.636391640E0,-1.019761181E1,4.082753658E-1
2.736568968E0,1.801496387E0,-1.011147022E1,3.026920557E-1
2.739035530E0,1.868794441E0,-1.002054310E1,2.667997181E-1
2.741502093E0,1.974078655E0,-9.950852394E0,1.926222295E-1
2.743968603E0,2.091626167E0,-9.931709290E0,1.519442350E-1
2.746435165E0,2.223231316E0,-9.862318039E0,1.160518974E-1
2.748905634E0,2.364706993E0,-9.733105659E0,1.088734269E-1
2.751372301E0,2.436491728E0,-9.601201057E0,7.776673883E-2
2.753838968E0,2.453241348E0,-9.582057953E0,8.973084623E-4
2.756305582E0,2.460419893E0,-9.629914284E0,-1.067797095E-1
2.758772249E0,2.548954248E0,-9.546165466E0,-1.331007630E-1
2.761238863E0,2.534597397E0,-9.527023315E0,-2.171486616E-1
2.763705530E0,2.606382132E0,-9.536594391E0,-3.200400174E-1
2.766172197E0,2.647359133E0,-9.493523598E0,-2.937189937E-1
2.768635009E0,2.652144909E0,-9.493523598E0,-2.865405083E-1
2.771101572E0,2.601596355E0,-9.543772697E0,-3.272185028E-1
2.773568134E0,2.544168711E0,-9.491130829E0,-3.176472187E-1
2.776034645E0,2.556132793E0,-9.579665184E0,-3.439682424E-1
2.778501207E0,2.536990166E0,-9.603593826E0,-3.176472187E-1
2.780967770E0,2.539382935E0,-9.517452240E0,-1.833500415E-1
2.783434332E0,2.491526604E0,-9.546165466E0,-1.929213256E-1
2.785900895E0,2.424527645E0,-9.639486313E0,-2.745763958E-1
2.788366936E0,2.371885538E0,-9.723533630E0,-2.817548811E-1
2.790832978E0,2.304587364E0,-9.742676735E0,-1.642074585E-1
2.793299020E0,2.278266191E0,-9.668199539E0,-5.413761362E-2
2.795765061E0,2.213660002E0,-9.761818886E0,-8.673981763E-3
2.798231103E0,2.048256159E0,-9.819247246E0,-1.067797095E-1
2.800697145E0,1.974078655E0,-9.838389397E0,-1.331007630E-1
2.803163186E0,1.902294040E0,-9.757033348E0,-3.260220960E-2
2.805629228E0,1.760818362E0,-9.797711372E0,4.636093974E-2
2.808097457E0,1.746461391E0,-9.752247810E0,7.776673883E-2
2.810564124E0,1.760818362E0,-9.845567703E0,3.439682722E-2
2.813030790E0,1.717747569E0,-9.816853523E0,1.375873089E-1
2.815497457E0,1.605284929E0,-9.629914284E0,2.309073806E-1
2.817964124E0,1.638784409E0,-9.601201057E0,1.974078715E-1
2.820430790E0,1.622034669E0,-9.680164337E0,1.854437590E-1
2.822897509E0,1.590927958E0,-9.668199539E0,2.237289101E-1
2.825364176E0,1.571785331E0,-9.584450722E0,2.644068897E-1
2.827829853E0,1.497308731E0,-9.637093544E0,2.165504545E-1
2.830296520E0,1.451845169E0,-9.721140862E0,1.830509305E-1
2.832763186E0,1.430309772E0,-9.627521515E0,3.194418252E-1
2.835229853E0,1.399203062E0,-9.567701340E0,3.026920557E-1
2.837696468E0,1.425524116E0,-9.574879646E0,3.628117442E-1
2.840163134E0,1.461416483E0,-9.527023315E0,4.010969102E-1
2.842629801E0,1.466202021E0,-9.641879082E0,3.771686554E-1
2.845096415E0,1.456630826E0,-9.644271851E0,4.226323068E-1
2.847559072E0,1.447059512E0,-9.565308571E0,4.417748749E-1
2.850025634E0,1.430309772E0,-9.512666702E0,3.867399693E-1
2.852492197E0,1.427916884E0,-9.426225662E0,4.657031000E-1
2.854958707E0,1.430309772E0,-9.428618431E0,4.609174728E-1
2.857425270E0,1.542772412E0,-9.431011200E0,4.345964193E-1
2.859891832E0,1.586142302E0,-9.399904251E0,3.388835192E-1
2.862358395E0,1.593320727E0,-9.361619949E0,3.412763178E-1
2.864824957E0,1.686640859E0,-9.294620514E0,3.266202807E-1
2.867291103E0,1.856830359E0,-9.352047920E0,2.667997181E-1
2.869757665E0,1.966900229E0,-9.433703423E0,1.519442350E-1
2.872224176E0,1.981257200E0,-9.385547638E0,6.101697683E-2
2.874690738E0,2.007578135E0,-9.404690742E0,3.290131222E-3
2.877157249E0,2.139482498E0,-9.476774216E0,-5.174478889E-2
2.879623811E0,2.165803671E0,-9.505488396E0,-1.785643846E-1
2.882090374E0,2.220838547E0,-9.500701904E0,-2.000997961E-1
2.884556884E0,2.306980133E0,-9.505488396E0,-2.554338276E-1
2.887022509E0,2.311765671E0,-9.438488960E0,-2.961117923E-1
2.889489020E0,2.309372902E0,-9.409476280E0,-3.655036688E-1
2.891955530E0,2.383849621E0,-9.481559753E0,-4.492524564E-1
2.894422093E0,2.422134638E0,-9.510273933E0,-4.253242314E-1
2.896888603E0,2.417349100E0,-9.488738060E0,-4.854438901E-1
2.899355113E0,2.448455811E0,-9.543772697E0,-5.333003402E-1
2.901821624E0,2.465205431E0,-9.486345291E0,-4.444667995E-1
2.904288134E0,2.570489645E0,-9.476774216E0,-4.926223755E-1
2.906754176E0,2.548954248E0,-9.560523033E0,-5.380859971E-1
2.909220218E0,2.572882652E0,-9.608379364E0,-4.806582630E-1
2.911686259E0,2.568096876E0,-9.723533630E0,-4.636093974E-1
2.914152301E0,2.362314224E0,-1.004925728E1,-5.213362575E-1
2.916618343E0,2.192124605E0,-1.028644562E1,-4.396811724E-1
2.919084384E0,2.125125647E0,-1.060020447E1,-4.396811724E-1
2.921550426E0,2.007578135E0,-1.091396332E1,-4.133601189E-1
2.924016468E0,1.844866276E0,-1.103121185E1,-4.660021961E-1
2.926487457E0,1.763211131E0,-1.105543900E1,-3.870390654E-1
2.928954124E0,1.717747569E0,-1.099771214E1,-2.697907388E-1
2.931420843E0,1.808674812E0,-1.092114162E1,-1.666002721E-1
2.933887509E0,1.852044702E0,-1.082542896E1,-1.043868884E-1
2.936354228E0,1.966900229E0,-1.072941685E1,8.973084623E-4
2.938820947E0,2.089233160E0,-1.058106136E1,6.340979785E-2
2.941287613E0,2.321336985E0,-1.037976551E1,7.298108935E-2
2.943754332E0,2.513062000E0,-1.029840946E1,-8.524430543E-2
2.946218343E0,2.728715181E0,-1.008993530E1,2.721835673E-2
2.948685009E0,2.973082066E0,-9.919745445E0,4.322035909E-1
2.951151624E0,3.234198809E0,-9.716355324E0,7.842476368E-1
2.953618238E0,3.598206997E0,-9.522237778E0,9.113663435E-1
2.956084905E0,3.892823458E0,-9.421440125E0,1.064507008E0
2.958551520E0,4.070191383E0,-9.285049438E0,1.246660590E0
2.961018134E0,4.331307888E0,-9.179764748E0,1.277767301E0
2.963484801E0,4.630710125E0,-9.170193672E0,1.265803218E0
2.965953447E0,4.726422787E0,-9.045467377E0,1.325623751E0
2.968420113E0,4.570889473E0,-8.933005333E0,1.335195065E0
2.970886780E0,4.652245522E0,-8.858528137E0,1.347159147E0
2.973353447E0,4.899005413E0,-8.813064575E0,1.313659668E0
2.975820165E0,4.982754230E0,-8.801100731E0,1.306481123E0
2.978286832E0,5.054837704E0,-8.808279037E0,1.261017561E0
2.980753499E0,5.198407173E0,-8.762815475E0,1.239482164E0
2.983220218E0,5.299204826E0,-8.755637169E0,1.234696507E0
2.985681780E0,5.282155991E0,-8.738887787E0,1.155733347E0
2.988148343E0,5.351847172E0,-8.674281120E0,1.062114120E0
2.990614905E0,5.368596554E0,-8.674281120E0,9.831510186E-1
2.993081468E0,5.370989323E0,-8.691030502E0,8.682954907E-1
2.995548030E0,5.394917965E0,-8.698209763E0,7.794619799E-1
2.998014540E0,5.296812057E0,-8.717351913E0,6.550351977E-1
3.000481103E0,5.315954685E0,-8.662317276E0,5.685944557E-1
3.002947665E0,5.423631668E0,-8.681459427E0,4.609174728E-1
3.005413915E0,5.485845089E0,-8.707780838E0,2.955136001E-1
3.007880478E0,5.483452320E0,-8.693424225E0,2.356930375E-1
3.010347040E0,5.423631668E0,-8.671888351E0,1.136590764E-1
3.012813551E0,5.416453362E0,-8.606983185E0,1.764706708E-2
3.015280113E0,5.409274578E0,-8.518448830E0,-1.824527234E-2
3.017746676E0,5.418846130E0,-8.432307243E0,-6.281159353E-3
3.020213186E0,5.493023396E0,-8.405985832E0,-1.345962752E-2
3.022679749E0,5.596213818E0,-8.389236450E0,8.733802289E-2
3.025145686E0,5.742176056E0,-8.437092781E0,1.208375469E-1
3.027612249E0,6.032006741E0,-8.578269005E0,1.950150430E-1
3.030078759E0,6.319444656E0,-8.870492935E0,2.691925466E-1
3.032545270E0,6.599703789E0,-9.162715912E0,3.652045429E-1
3.035011832E0,6.705287457E0,-9.387940407E0,4.082753658E-1
3.037478343E0,6.647859573E0,-9.550951958E0,4.010969102E-1
3.039944905E0,6.348158360E0,-9.601201057E0,4.728815854E-1
3.042411415E0,5.813961029E0,-9.527023315E0,4.561318159E-1
3.044878603E0,5.282155991E0,-9.399904251E0,4.728815854E-1
3.047345165E0,4.803292274E0,-9.285049438E0,4.968098104E-1
3.049811728E0,4.383950233E0,-9.215657234E0,4.513461590E-1
3.052278238E0,4.098905087E0,-9.234800339E0,4.441677034E-1
3.054744801E0,3.947858334E0,-9.285049438E0,5.374878049E-1
3.057211363E0,3.876073599E0,-9.313762665E0,4.896313250E-1
3.059677926E0,3.799503326E0,-9.320941925E0,6.071787477E-1
3.062144436E0,3.768396616E0,-9.294620514E0,7.172485590E-1
3.064609228E0,3.706183195E0,-9.294620514E0,7.770691514E-1
3.067075738E0,3.679563046E0,-9.287442207E0,8.754739761E-1
3.069542249E0,3.660420418E0,-9.194122314E0,9.113663435E-1
3.072008759E0,3.619742393E0,-9.095717430E0,9.400802255E-1
3.074475270E0,3.547957659E0,-9.014361382E0,9.975079298E-1
3.076941728E0,3.512065411E0,-8.956933022E0,1.031007409E0
3.079408238E0,3.473780155E0,-8.911469460E0,1.095613718E0
3.081874749E0,3.461816072E0,-8.803493500E0,1.117149115E0
3.084342665E0,3.461816072E0,-8.817850113E0,1.155733347E0
3.086809228E0,3.457030535E0,-8.784351349E0,1.174875975E0
3.089275738E0,3.502494097E0,-8.767601013E0,1.213161111E0
3.091742301E0,3.543172121E0,-8.769993782E0,1.270588875E0
3.094208811E0,3.562314749E0,-8.784351349E0,1.371087432E0
3.096675374E0,3.631706476E0,-8.798707962E0,1.349551916E0
3.099141936E0,3.653241873E0,-8.765208244E0,1.409671664E0
3.101608447E0,3.715754509E0,-8.798707962E0,1.467099428E0
3.104074540E0,3.749253988E0,-8.832207680E0,1.476670623E0
3.106541051E0,3.813860178E0,-8.856135368E0,1.440778375E0
3.109007613E0,3.844966888E0,-8.856135368E0,1.435992718E0
3.111474124E0,3.895216227E0,-8.870492935E0,1.464706540E0
3.113940686E0,3.911965847E0,-8.882456779E0,1.440778375E0
3.116407197E0,3.986442566E0,-8.916254997E0,1.443171144E0
3.118873707E0,3.996013880E0,-8.918647766E0,1.431207061E0
3.121340270E0,4.022335052E0,-8.978468895E0,1.287338614E0
3.123806311E0,4.065405846E0,-8.964112282E0,1.256231904E0
3.126272353E0,4.043870449E0,-8.880064011E0,1.251446247E0
3.128738395E0,4.058227062E0,-8.834600449E0,1.184447169E0
3.131204436E0,4.082155228E0,-8.875278473E0,1.121934772E0
3.133670478E0,4.118047714E0,-8.884849548E0,1.069292665E0
3.136136520E0,4.177868366E0,-8.921041489E0,9.664012194E-1
3.138602561E0,4.161118507E0,-8.889635086E0,9.807581902E-1
3.141068603E0,4.118047714E0,-8.916254997E0,9.376873970E-1
3.143534072E0,4.065405846E0,-8.889635086E0,9.161519408E-1
3.146000686E0,4.084548473E0,-8.925827026E0,9.065806866E-1
3.148467301E0,4.163511276E0,-9.122037888E0,8.512466550E-1
3.150933863E0,4.235595226E0,-9.253942490E0,7.962117195E-1
3.153400478E0,4.127619267E0,-9.280263901E0,7.794619799E-1
3.155867093E0,4.010370731E0,-9.145966530E0,7.698906660E-1
3.158333655E0,3.895216227E0,-9.055039406E0,7.555337548E-1
3.160800270E0,3.900001764E0,-9.090931892E0,7.124629617E-1
3.163267093E0,3.950251102E0,-9.129216194E0,7.603194118E-1
3.165733707E0,4.029513359E0,-9.150752068E0,7.818548083E-1
3.168200322E0,4.048655987E0,-9.124430656E0,7.555337548E-1
3.170666936E0,3.986442566E0,-9.057432175E0,7.603194118E-1
3.173133499E0,3.998406649E0,-9.083752632E0,7.268198729E-1
3.175600113E0,4.019941807E0,-9.083752632E0,7.124629617E-1
3.178066728E0,3.991228104E0,-9.028717995E0,7.076773047E-1
3.180533343E0,3.984049797E0,-9.062217712E0,7.268198729E-1
3.182999384E0,3.993621111E0,-9.064610481E0,7.531409264E-1
3.185465426E0,4.007977962E0,-9.067003250E0,8.081758618E-1
3.187931468E0,3.945465326E0,-9.055039406E0,8.321040869E-1
3.190397509E0,3.976871252E0,-8.995218277E0,8.560323119E-1
3.192863551E0,3.957728624E0,-8.983254433E0,8.584251404E-1
3.195329593E0,3.950251102E0,-9.007183075E0,8.970093727E-1
3.197795634E0,3.902394533E0,-9.007183075E0,9.711868763E-1
3.200261676E0,3.878466368E0,-9.023932457E0,1.014257669E0
3.202731728E0,3.864109516E0,-8.959325790E0,1.059721351E0
3.205198447E0,3.880859137E0,-9.011968613E0,1.057328463E0
3.207665218E0,3.835395575E0,-9.007183075E0,1.102792144E0
3.210131936E0,3.849752426E0,-9.028717995E0,1.191625714E0
3.212598707E0,3.837788343E0,-9.004789352E0,1.162911773E0
3.215065426E0,3.873680830E0,-9.064610481E0,1.208375454E0
3.217532197E0,3.830610037E0,-9.035896301E0,1.253839016E0
3.219998968E0,3.804288864E0,-8.992825508E0,1.270588875E0
3.222465009E0,3.825824261E0,-9.014361382E0,1.294517040E0
3.224931051E0,3.818645954E0,-9.040681839E0,1.287338614E0
3.227397093E0,3.797110319E0,-9.028717995E0,1.301695466E0
3.229863134E0,3.806681633E0,-9.026325226E0,1.320838094E0
3.232329176E0,3.806681633E0,-9.045467377E0,1.320838094E0
3.234795218E0,3.797110319E0,-9.021539688E0,1.328016520E0
3.237261259E0,3.813860178E0,-9.045467377E0,1.318445325E0
3.239727301E0,3.797110319E0,-9.055039406E0,1.282552958E0
3.242192978E0,3.797110319E0,-9.095717430E0,1.203589797E0
3.244659697E0,3.842574120E0,-9.100502968E0,1.232303619E0
3.247126415E0,3.828217030E0,-9.093324661E0,1.229910851E0
3.249593186E0,3.823431492E0,-9.076574326E0,1.268195987E0
3.252059905E0,3.844966888E0,-9.100502968E0,1.289731383E0
3.254526624E0,3.904787540E0,-9.119645119E0,1.198804140E0
3.256993395E0,3.916751623E0,-9.134002686E0,1.213161111E0
3.259460113E0,3.868895054E0,-9.150752068E0,1.203589797E0
3.261922978E0,3.852145433E0,-9.165408134E0,1.148554921E0
3.264389645E0,3.888037682E0,-9.179764748E0,1.083649516E0
3.266856259E0,3.878466368E0,-9.213264465E0,1.126720309E0
3.269322926E0,3.888037682E0,-9.215657234E0,1.062114120E0
3.271789540E0,3.911965847E0,-9.150752068E0,1.057328463E0
3.274256207E0,3.926322937E0,-9.167800903E0,1.009472013E0
3.276722822E0,3.911965847E0,-9.198907852E0,1.052542806E0
3.279189488E0,3.945465326E0,-9.136395454E0,9.783653617E-1
3.281639384E0,3.974478483E0,-9.157930374E0,1.023828983E0
3.284105634E0,3.984049797E0,-9.174979210E0,9.975079298E-1
3.286571832E0,3.991228104E0,-9.136395454E0,9.472586513E-1
3.289038082E0,4.005585194E0,-9.145966530E0,9.209375978E-1
3.291504280E0,4.048655987E0,-9.145966530E0,9.137591720E-1
3.293970478E0,4.065405846E0,-9.143573761E0,8.659027219E-1
3.296436728E0,4.053441525E0,-9.162715912E0,8.682954907E-1
3.298902926E0,4.070191383E0,-9.160323143E0,9.137591720E-1
3.301389020E0,4.070191383E0,-9.136395454E0,8.512466550E-1
3.303855738E0,4.113262177E0,-9.165408134E0,8.249256015E-1
3.306322457E0,4.122833252E0,-9.172586441E0,8.273184299E-1
3.308789176E0,4.091726780E0,-9.184550285E0,7.818548083E-1
3.311255895E0,4.122833252E0,-9.160323143E0,7.698906660E-1
3.313722613E0,4.094119549E0,-9.201300621E0,7.722834945E-1
3.316189332E0,4.110869408E0,-9.241978645E0,7.507480979E-1
3.318656051E0,4.132404804E0,-9.182157516E0,6.957131624E-1
3.321119957E0,4.118047714E0,-9.184550285E0,7.579265833E-1
3.323586624E0,4.058227062E0,-9.241978645E0,7.076773047E-1
3.326053290E0,4.079762459E0,-9.261120796E0,7.459624410E-1
3.328519905E0,4.077369690E0,-9.253942490E0,7.698906660E-1
3.330986572E0,4.046263218E0,-9.232406616E0,7.651050687E-1
3.333453238E0,4.039084435E0,-9.241978645E0,7.890332937E-1
3.335919853E0,4.007977962E0,-9.201300621E0,7.555337548E-1
3.338386520E0,3.998406649E0,-9.213264465E0,7.914260626E-1
3.340850999E0,3.986442566E0,-9.263513565E0,8.440681696E-1
3.343317613E0,3.991228104E0,-9.258728027E0,8.754739761E-1
3.345784228E0,3.955335855E0,-9.237193108E0,8.536394835E-1
3.348250790E0,3.914358854E0,-9.261120796E0,8.440681696E-1
3.350717405E0,3.911965847E0,-9.249156952E0,9.137591720E-1
3.353183968E0,3.911965847E0,-9.253942490E0,8.297112584E-1
3.355650582E0,3.868895054E0,-9.230013847E0,8.416753411E-1
3.358117197E0,3.878466368E0,-9.261120796E0,8.560323119E-1
3.360582405E0,3.880859137E0,-9.253942490E0,7.986045480E-1
3.363048968E0,3.842574120E0,-9.277871132E0,8.464609981E-1
3.365515530E0,3.859323740E0,-9.294620514E0,8.440681696E-1
3.367982093E0,3.904787540E0,-9.280263901E0,8.177471161E-1
3.370448655E0,3.919144392E0,-9.311369896E0,7.938188910E-1
3.372915218E0,3.895216227E0,-9.304191589E0,7.866404653E-1
3.375381780E0,3.864109516E0,-9.311369896E0,8.129615188E-1
3.377848343E0,3.904787540E0,-9.308977127E0,7.579265833E-1
3.380315270E0,3.880859137E0,-9.301798820E0,7.579265833E-1
3.382781832E0,3.904787540E0,-9.308977127E0,7.746763229E-1
3.385248395E0,3.861716747E0,-9.347262383E0,7.196413875E-1
3.387715009E0,3.837788343E0,-9.282656670E0,7.172485590E-1
3.390181572E0,3.833002806E0,-9.285049438E0,7.124629617E-1
3.392648134E0,3.806681633E0,-9.306584358E0,7.172485590E-1
3.395114697E0,3.821038723E0,-9.275477409E0,7.292127013E-1
3.397581259E0,3.773182154E0,-9.261120796E0,7.746763229E-1
3.400046051E0,3.761218071E0,-9.318549156E0,8.488538265E-1
3.402512561E0,3.739682674E0,-9.275477409E0,8.754739761E-1
3.404979124E0,3.713361740E0,-9.232406616E0,9.376873970E-1
3.407445634E0,3.710968733E0,-9.265906334E0,9.305089116E-1
3.409912145E0,3.730111361E0,-9.246764183E0,9.783653617E-1
3.412378707E0,3.715754509E0,-9.277871132E0,1.002293587E0
3.414845218E0,3.679563046E0,-9.299406052E0,9.640084505E-1
3.417311728E0,3.655634880E0,-9.258728027E0,1.002293587E0
3.419777770E0,3.694219112E0,-9.261120796E0,1.023828983E0
3.422243811E0,3.669991732E0,-9.249156952E0,1.009472013E0
3.424709853E0,3.672384501E0,-9.237193108E0,1.019043326E0
3.427175895E0,3.681955814E0,-9.227621078E0,9.807581902E-1
3.429641936E0,3.667598963E0,-9.230013847E0,1.002293587E0
3.432107978E0,3.679563046E0,-9.220442772E0,1.016650558E0
3.434574020E0,3.715754509E0,-9.172586441E0,1.002293587E0
3.437040061E0,3.694219112E0,-9.184550285E0,1.028614640E0
3.439495165E0,3.713361740E0,-9.208478928E0,9.281160831E-1
3.441961520E0,3.681955814E0,-9.208478928E0,9.305089116E-1
3.444427822E0,3.718147278E0,-9.208478928E0,9.017950296E-1
3.446894124E0,3.751646757E0,-9.179764748E0,8.826524615E-1
3.449360426E0,3.737289906E0,-9.182157516E0,8.584251404E-1
3.451826780E0,3.715754509E0,-9.234800339E0,8.922237158E-1
3.454293082E0,3.744468451E0,-9.148359299E0,9.089735150E-1
3.456759384E0,3.744468451E0,-9.172586441E0,9.520443082E-1
3.459225218E0,3.775574923E0,-9.153144836E0,8.802596331E-1
3.461691520E0,3.725325823E0,-9.155537605E0,9.352945685E-1
3.464157822E0,3.773182154E0,-9.177371979E0,9.233304262E-1
3.466624124E0,3.804288864E0,-9.179764748E0,9.448658228E-1
3.469090426E0,3.799503326E0,-9.186943054E0,9.329017401E-1
3.471556728E0,3.856930971E0,-9.177371979E0,9.065806866E-1
3.474023030E0,3.849752426E0,-9.201300621E0,9.616156220E-1
3.476489384E0,3.883252144E0,-9.241978645E0,9.687940478E-1
3.478958811E0,3.844966888E0,-9.172586441E0,9.424729943E-1
3.481425165E0,3.847359657E0,-9.167800903E0,9.041878581E-1
3.483891572E0,3.919144392E0,-9.208478928E0,8.994022012E-1
3.486357926E0,3.916751623E0,-9.196515083E0,9.472586513E-1
3.488824332E0,3.962514400E0,-9.182157516E0,9.233304262E-1
3.491290686E0,3.988835335E0,-9.213264465E0,8.706883192E-1
3.493757093E0,3.943072557E0,-9.213264465E0,8.682954907E-1
3.496223447E0,3.962514400E0,-9.208478928E0,8.802596331E-1
3.498678759E0,3.952943087E0,-9.182157516E0,8.584251404E-1
3.501144853E0,3.986442566E0,-9.186943054E0,7.842476368E-1
3.503610947E0,3.972085476E0,-9.174979210E0,7.698906660E-1
3.506077040E0,3.960121393E0,-9.131608963E0,7.028916478E-1
3.508543186E0,3.955335855E0,-9.157930374E0,7.316055298E-1
3.511009280E0,3.960121393E0,-9.186943054E0,7.292127013E-1
3.513475374E0,3.916751623E0,-9.165408134E0,6.693921089E-1
3.515941468E0,3.914358854E0,-9.167800903E0,6.885347366E-1
3.518419697E0,3.916751623E0,-9.143573761E0,6.454638839E-1
3.520886103E0,3.892823458E0,-9.153144836E0,6.957131624E-1
3.523352509E0,3.914358854E0,-9.162715912E0,6.837490797E-1
3.525818915E0,3.854538202E0,-9.165408134E0,6.550351977E-1
3.528285322E0,3.837788343E0,-9.141180992E0,6.909275651E-1
3.530751728E0,3.799503326E0,-9.126823425E0,7.172485590E-1
3.533218134E0,3.813860178E0,-9.071788788E0,6.981059909E-1
3.535684540E0,3.780360699E0,-9.088538170E0,7.339983582E-1
3.538151520E0,3.756432533E0,-9.088538170E0,7.698906660E-1
3.540617926E0,3.766003847E0,-9.078967094E0,8.297112584E-1
3.543084332E0,3.756432533E0,-9.067003250E0,8.608179688E-1
3.545550790E0,3.722932816E0,-9.088538170E0,8.464609981E-1
3.548017197E0,3.751646757E0,-9.052646637E0,8.512466550E-1
3.550483603E0,3.780360699E0,-9.050253868E0,9.424729943E-1
3.552950009E0,3.761218071E0,-9.033503532E0,9.879366755E-1
3.555416468E0,3.725325823E0,-9.071788788E0,9.783653617E-1
3.557898759E0,3.732504129E0,-9.078967094E0,1.011864901E0
3.560365582E0,3.739682674E0,-9.090931892E0,9.640084505E-1
3.562832405E0,3.749253988E0,-9.078967094E0,9.879366755E-1
3.565299228E0,3.751646757E0,-9.074181557E0,9.711868763E-1
3.567766051E0,3.681955814E0,-9.105288506E0,9.113663435E-1
3.570232874E0,3.703790426E0,-9.055039406E0,9.544371367E-1
3.572699697E0,3.737289906E0,-9.136395454E0,8.730811477E-1
3.575166468E0,3.730111361E0,-9.086145401E0,8.392825127E-1
3.577630061E0,3.725325823E0,-9.150752068E0,8.778668046E-1
3.580096780E0,3.713361740E0,-9.136395454E0,8.706883192E-1
3.582563499E0,3.737289906E0,-9.138788223E0,8.440681696E-1
3.585030270E0,3.689433336E0,-9.201300621E0,8.033902049E-1
3.587496988E0,3.710968733E0,-9.189335823E0,7.842476368E-1
3.589963759E0,3.672384501E0,-9.189335823E0,7.722834945E-1
3.592430478E0,3.617349625E0,-9.208478928E0,6.813562512E-1
3.594897197E0,3.600599766E0,-9.256335258E0,6.430711150E-1
3.597363499E0,3.638885021E0,-9.230013847E0,6.239284873E-1
3.599830218E0,3.602992773E0,-9.275477409E0,5.709872842E-1
3.602296936E0,3.593421459E0,-9.308977127E0,5.135595798E-1
3.604763655E0,3.605385542E0,-9.294620514E0,4.776672125E-1
3.607230374E0,3.567100286E0,-9.294620514E0,4.322035909E-1
3.609697093E0,3.552743435E0,-9.280263901E0,4.345964193E-1
3.612163863E0,3.533600807E0,-9.306584358E0,4.130610228E-1
3.614630582E0,3.502494097E0,-9.340084076E0,4.226323068E-1
3.617093603E0,3.509672642E0,-9.282656670E0,4.322035909E-1
3.619560270E0,3.528815269E0,-9.285049438E0,4.274179339E-1
3.622026884E0,3.512065411E0,-9.232406616E0,4.513461590E-1
3.624493499E0,3.524029493E0,-9.246764183E0,3.963112533E-1
3.626960165E0,3.519243956E0,-9.261120796E0,4.704887569E-1
3.629426780E0,3.490530014E0,-9.222835541E0,5.518447161E-1
3.631893447E0,3.507279873E0,-9.222835541E0,5.566303730E-1
3.634360061E0,3.459423304E0,-9.191729546E0,5.303093195E-1
3.636826676E0,3.485744476E0,-9.172586441E0,5.566303730E-1
3.639293343E0,3.480958700E0,-9.179764748E0,6.047859192E-1
3.641759957E0,3.449851990E0,-9.148359299E0,6.095715761E-1
3.644226624E0,3.480958700E0,-9.143573761E0,5.757729411E-1
3.646693238E0,3.490530014E0,-9.112466812E0,5.374878049E-1
3.649159853E0,3.461816072E0,-9.148359299E0,5.901299119E-1
3.651626520E0,3.492922783E0,-9.160323143E0,5.757729411E-1
3.654093134E0,3.500101328E0,-9.182157516E0,5.398806334E-1
3.656558655E0,3.516851187E0,-9.145966530E0,5.757729411E-1
3.659025270E0,3.512065411E0,-9.162715912E0,5.853442550E-1
3.661491884E0,3.483351469E0,-9.206086159E0,5.685944557E-1
3.663958499E0,3.468994617E0,-9.218050003E0,6.047859192E-1
3.666425113E0,3.495315790E0,-9.206086159E0,5.733801126E-1
3.668891728E0,3.490530014E0,-9.218050003E0,5.542375445E-1
3.671358290E0,3.471387386E0,-9.285049438E0,5.638088584E-1
3.673824905E0,3.428316593E0,-9.280263901E0,5.327021480E-1
3.676290895E0,3.471387386E0,-9.265906334E0,5.685944557E-1
3.678757509E0,3.488137245E0,-9.299406052E0,5.374878049E-1
3.681224072E0,3.473780155E0,-9.311369896E0,5.542375445E-1
3.683690686E0,3.500101328E0,-9.311369896E0,5.757729411E-1
3.686157249E0,3.495315790E0,-9.332905769E0,5.781657696E-1
3.688623863E0,3.442673683E0,-9.330513000E0,6.119644046E-1
3.691090478E0,3.504886866E0,-9.287442207E0,6.023930907E-1
3.693557040E0,3.483351469E0,-9.330513000E0,5.829514265E-1
3.696021676E0,3.497708559E0,-9.356833458E0,5.877370834E-1
3.698488238E0,3.507279873E0,-9.330513000E0,6.215356588E-1
3.700954749E0,3.538386583E0,-9.349655151E0,5.949155092E-1
3.703421311E0,3.567100286E0,-9.301798820E0,6.143572330E-1
3.705887874E0,3.576671600E0,-9.320941925E0,5.685944557E-1
3.708354384E0,3.643670797E0,-9.311369896E0,5.303093195E-1
3.710820947E0,3.662813187E0,-9.308977127E0,5.015954375E-1
3.713287457E0,3.681955814E0,-9.361619949E0,5.374878049E-1
3.715753030E0,3.699004650E0,-9.316155434E0,5.877370834E-1
3.718219540E0,3.703790426E0,-9.285049438E0,6.215356588E-1
3.720686051E0,3.699004650E0,-9.289834976E0,6.000002623E-1
3.723152561E0,3.773182154E0,-9.301798820E0,5.877370834E-1
3.725619124E0,3.758825302E0,-9.301798820E0,5.901299119E-1
3.728085634E0,3.763610840E0,-9.299406052E0,6.550351977E-1
3.730552145E0,3.770789385E0,-9.265906334E0,6.454638839E-1
3.733018655E0,3.780360699E0,-9.215657234E0,6.454638839E-1
3.735486624E0,3.809074640E0,-9.210871696E0,5.925226808E-1
3.737953186E0,3.868895054E0,-9.194122314E0,7.028916478E-1
3.740419749E0,3.895216227E0,-9.189335823E0,7.316055298E-1
3.742886311E0,3.880859137E0,-9.186943054E0,7.411768436E-1
3.745352874E0,3.916751623E0,-9.184550285E0,7.459624410E-1
3.747819384E0,3.928715706E0,-9.150752068E0,7.770691514E-1
3.750285947E0,3.945465326E0,-9.117252350E0,7.627122402E-1
3.752752509E0,3.979264021E0,-9.157930374E0,7.698906660E-1
3.755218603E0,4.034298897E0,-9.160323143E0,7.435696125E-1
3.757685165E0,4.029513359E0,-9.145966530E0,7.890332937E-1
3.760151676E0,4.070191383E0,-9.136395454E0,7.794619799E-1
3.762618238E0,4.091726780E0,-9.143573761E0,7.651050687E-1
3.765084801E0,4.101297855E0,-9.138788223E0,7.770691514E-1
3.767551311E0,4.144368649E0,-9.117252350E0,7.962117195E-1
3.770017874E0,4.153940201E0,-9.157930374E0,7.698906660E-1
3.772484384E0,4.146761417E0,-9.150752068E0,8.129615188E-1
3.774949488E0,4.132404804E0,-9.155537605E0,8.177471161E-1
3.777415999E0,4.132404804E0,-9.112466812E0,8.440681696E-1
3.779882509E0,4.149154663E0,-9.119645119E0,8.081758618E-1
3.782349020E0,4.141975880E0,-9.129216194E0,8.249256015E-1
3.784815530E0,4.103690624E0,-9.131608963E0,8.512466550E-1
3.787282040E0,4.096512318E0,-9.093324661E0,8.874381185E-1
3.789748551E0,4.084548473E0,-9.150752068E0,8.608179688E-1
3.792215009E0,4.086941242E0,-9.153144836E0,8.922237158E-1
3.794680634E0,4.077369690E0,-9.131608963E0,9.233304262E-1
3.797147093E0,4.015156269E0,-9.112466812E0,9.520443082E-1
3.799613603E0,4.046263218E0,-9.102895737E0,1.009472013E0
3.802080061E0,4.029513359E0,-9.088538170E0,1.081256747E0
3.804546572E0,4.005585194E0,-9.129216194E0,1.086042404E0
3.807013030E0,3.969692707E0,-9.114859581E0,1.107577801E0
3.809479540E0,3.981656790E0,-9.105288506E0,1.083649516E0
3.811945999E0,3.972085476E0,-9.105288506E0,1.129113197E0
3.814411832E0,3.907180309E0,-9.071788788E0,1.136590719E0
3.816878290E0,3.938287020E0,-9.090931892E0,1.158126116E0
3.819344749E0,3.935894251E0,-9.117252350E0,1.201196909E0
3.821811207E0,3.914358854E0,-9.088538170E0,1.280160069E0
3.824277718E0,3.892823458E0,-9.107681274E0,1.220339537E0
3.826744176E0,3.947858334E0,-9.062217712E0,1.210768223E0
3.829210634E0,3.938287020E0,-9.057432175E0,1.244267821E0
3.831677093E0,3.945465326E0,-9.059824944E0,1.268195987E0
3.834144488E0,3.962514400E0,-9.107681274E0,1.208375454E0
3.836610999E0,3.972085476E0,-9.126823425E0,1.174875975E0
3.839077457E0,4.000799656E0,-9.069396019E0,1.205982566E0
3.841543968E0,3.991228104E0,-9.050253868E0,1.182054400E0
3.844010426E0,4.036691666E0,-9.076574326E0,1.203589797E0
3.846476936E0,4.055834293E0,-9.074181557E0,1.225125194E0
3.848943447E0,4.060619831E0,-9.086145401E0,1.234696507E0
3.851409905E0,4.041477680E0,-9.088538170E0,1.251446247E0
3.853863811E0,4.019941807E0,-9.055039406E0,1.203589797E0
3.856330009E0,4.043870449E0,-9.098110199E0,1.205982566E0
3.858796155E0,4.027120590E0,-9.100502968E0,1.220339537E0
3.861262353E0,3.988835335E0,-9.074181557E0,1.237089276E0
3.863728499E0,4.012763500E0,-9.100502968E0,1.232303619E0
3.866194697E0,4.005585194E0,-9.078967094E0,1.232303619E0
3.868660843E0,4.036691666E0,-9.086145401E0,1.289731383E0
3.871127040E0,4.046263218E0,-9.114859581E0,1.246660590E0
3.873574593E0,4.079762459E0,-9.100502968E0,1.249053478E0
3.876040322E0,4.084548473E0,-9.131608963E0,1.251446247E0
3.878505999E0,4.079762459E0,-9.148359299E0,1.296909928E0
3.880971728E0,4.082155228E0,-9.095717430E0,1.292124271E0
3.883437405E0,4.118047714E0,-9.078967094E0,1.301695466E0
3.885903134E0,4.177868366E0,-9.076574326E0,1.280160069E0
3.888368811E0,4.170690060E0,-9.081359863E0,1.304088354E0
3.890834540E0,4.177868366E0,-9.114859581E0,1.251446247E0
3.893337145E0,4.149154663E0,-9.105288506E0,1.189232826E0
3.895803811E0,4.182653904E0,-9.083752632E0,1.158126116E0
3.898270426E0,4.192225456E0,-9.071788788E0,1.172483087E0
3.900737093E0,4.211368084E0,-9.059824944E0,1.153340459E0
3.903203707E0,4.208974838E0,-9.076574326E0,1.146162033E0
3.905670322E0,4.199403763E0,-9.050253868E0,1.093220830E0
3.908136988E0,4.187439442E0,-9.047860146E0,1.090828061E0
3.910603603E0,4.187439442E0,-9.052646637E0,1.126720309E0
3.913069645E0,4.185046673E0,-8.988039970E0,1.131805062E0
3.915535686E0,4.163511276E0,-9.021539688E0,1.109970570E0
3.918001728E0,4.141975880E0,-9.074181557E0,1.095613718E0
3.920467770E0,4.120440483E0,-9.081359863E0,1.141376376E0
3.922933811E0,4.094119549E0,-9.069396019E0,1.141376376E0
3.925399853E0,4.074976921E0,-9.071788788E0,1.098006487E0
3.927865895E0,4.015156269E0,-9.038289070E0,1.114756227E0
3.930331936E0,4.063013077E0,-9.057432175E0,1.119541883E0
3.932802405E0,3.998406649E0,-9.090931892E0,1.124327540E0
3.935269124E0,3.976871252E0,-9.110074043E0,1.162911773E0
3.937735895E0,3.967299938E0,-9.112466812E0,1.177268744E0
3.940202613E0,3.931108475E0,-9.081359863E0,1.229910851E0
3.942669384E0,3.909573078E0,-9.095717430E0,1.244267821E0
3.945136103E0,3.902394533E0,-9.100502968E0,1.256231904E0
3.947602874E0,3.895216227E0,-9.126823425E0,1.256231904E0
3.950069593E0,3.911965847E0,-9.141180992E0,1.217946768E0
3.952536832E0,3.909573078E0,-9.083752632E0,1.196411371E0
3.955003551E0,3.897608995E0,-9.136395454E0,1.210768223E0
3.957470322E0,3.892823458E0,-9.138788223E0,1.201196909E0
3.959937093E0,3.902394533E0,-9.098110199E0,1.158126116E0
3.962403863E0,3.960121393E0,-9.129216194E0,1.109970570E0
3.964870582E0,3.923929930E0,-9.143573761E0,1.114756227E0
3.967337353E0,3.923929930E0,-9.165408134E0,1.057328463E0
3.969804124E0,3.950251102E0,-9.076574326E0,1.014257669E0
3.972268863E0,3.984049797E0,-9.095717430E0,9.711868763E-1
3.974735530E0,3.991228104E0,-9.117252350E0,9.927222729E-1
3.977202249E0,3.960121393E0,-9.131608963E0,9.687940478E-1
3.979668968E0,3.974478483E0,-9.143573761E0,9.161519408E-1
3.982135686E0,3.960121393E0,-9.155537605E0,9.137591720E-1
3.984602353E0,3.955335855E0,-9.143573761E0,8.946165442E-1
3.987069072E0,3.885644913E0,-9.136395454E0,8.344969153E-1
3.989535790E0,3.909573078E0,-9.136395454E0,8.249256015E-1
3.991996415E0,3.897608995E0,-9.179764748E0,7.698906660E-1
3.994462978E0,3.844966888E0,-9.170193672E0,7.818548083E-1
3.996929540E0,3.797110319E0,-9.213264465E0,7.938188910E-1
3.999396103E0,3.818645954E0,-9.222835541E0,7.866404653E-1
4.001862613E0,3.732504129E0,-9.220442772E0,7.363911867E-1
4.004329176E0,3.727718592E0,-9.234800339E0,7.507480979E-1
4.006795738E0,3.746861219E0,-9.268299103E0,7.316055298E-1
4.009262301E0,3.708575964E0,-9.258728027E0,7.698906660E-1
4.011729801E0,3.665206194E0,-9.220442772E0,7.986045480E-1
4.014196415E0,3.646063566E0,-9.237193108E0,8.201399446E-1
4.016662978E0,3.662813187E0,-9.268299103E0,8.802596331E-1
4.019129540E0,3.638885021E0,-9.285049438E0,8.994022012E-1
4.021596103E0,3.605385542E0,-9.208478928E0,9.281160831E-1
4.024062718E0,3.600599766E0,-9.196515083E0,9.831510186E-1
4.026529280E0,3.619742393E0,-9.234800339E0,9.329017401E-1
4.028995843E0,3.586242914E0,-9.194122314E0,9.281160831E-1
4.031461155E0,3.583850145E0,-9.210871696E0,9.376873970E-1
4.033927718E0,3.612564087E0,-9.170193672E0,9.257232547E-1
4.036394228E0,3.612564087E0,-9.177371979E0,9.257232547E-1
4.038860790E0,3.583850145E0,-9.189335823E0,9.041878581E-1
4.041327353E0,3.571886063E0,-9.172586441E0,9.472586513E-1
4.043793863E0,3.595814228E0,-9.160323143E0,9.161519408E-1
4.046260426E0,3.602992773E0,-9.148359299E0,9.041878581E-1
4.048726988E0,3.636492252E0,-9.150752068E0,9.616156220E-1
4.051194957E0,3.569493294E0,-9.174979210E0,9.209375978E-1
4.053661572E0,3.605385542E0,-9.162715912E0,9.999007583E-1
4.056128134E0,3.629313707E0,-9.122037888E0,9.951151013E-1
4.058594697E0,3.571886063E0,-9.131608963E0,9.711868763E-1
4.061061311E0,3.600599766E0,-9.165408134E0,9.975079298E-1
4.063527874E0,3.612564087E0,-9.148359299E0,9.305089116E-1
4.065994436E0,3.648456335E0,-9.150752068E0,9.400802255E-1
4.068461051E0,3.605385542E0,-9.191729546E0,9.137591720E-1
4.070927093E0,3.605385542E0,-9.186943054E0,9.831510186E-1
4.073393134E0,3.622135162E0,-9.206086159E0,9.089735150E-1
4.075859176E0,3.658027649E0,-9.186943054E0,8.802596331E-1
4.078325218E0,3.643670797E0,-9.170193672E0,8.416753411E-1
4.080791259E0,3.617349625E0,-9.196515083E0,8.225327730E-1
4.083257301E0,3.660420418E0,-9.167800903E0,8.033902049E-1
4.085723343E0,3.629313707E0,-9.210871696E0,8.129615188E-1
4.088189384E0,3.643670797E0,-9.184550285E0,8.105686903E-1
4.090656936E0,3.687040567E0,-9.172586441E0,7.818548083E-1
4.093123603E0,3.699004650E0,-9.174979210E0,8.033902049E-1
4.095590270E0,3.689433336E0,-9.150752068E0,7.603194118E-1
4.098056988E0,3.734897137E0,-9.174979210E0,7.722834945E-1
4.100523655E0,3.749253988E0,-9.174979210E0,8.153542876E-1
4.102990374E0,3.766003847E0,-9.191729546E0,7.124629617E-1
4.105457040E0,3.770789385E0,-9.182157516E0,7.483552694E-1
4.107923759E0,3.801896095E0,-9.225228310E0,6.765705943E-1
4.110389957E0,3.804288864E0,-9.265906334E0,6.622136831E-1
4.112856624E0,3.813860178E0,-9.208478928E0,6.669993401E-1
4.115323290E0,3.801896095E0,-9.253942490E0,6.143572330E-1
4.117789957E0,3.816252947E0,-9.230013847E0,6.167500615E-1
4.120256624E0,3.833002806E0,-9.249156952E0,5.805585980E-1
4.122723343E0,3.840181351E0,-9.241978645E0,5.494518876E-1
4.125190009E0,3.878466368E0,-9.234800339E0,5.829514265E-1
4.127656676E0,3.892823458E0,-9.189335823E0,6.406782866E-1
4.130118290E0,3.842574120E0,-9.198907852E0,5.877370834E-1
4.132584853E0,3.794717550E0,-9.239585876E0,6.071787477E-1
4.135051415E0,3.837788343E0,-9.172586441E0,6.693921089E-1
4.137517926E0,3.818645954E0,-9.225228310E0,6.191428304E-1
4.139984488E0,3.821038723E0,-9.196515083E0,6.334998012E-1
4.142451051E0,3.797110319E0,-9.203693390E0,6.502495408E-1
4.144917613E0,3.725325823E0,-9.218050003E0,6.765705943E-1
4.147384176E0,3.746861219E0,-9.227621078E0,6.502495408E-1
4.149851676E0,3.732504129E0,-9.239585876E0,6.574280262E-1
4.152318238E0,3.703790426E0,-9.227621078E0,6.454638839E-1
4.154784853E0,3.674777269E0,-9.210871696E0,6.717849374E-1
4.157251415E0,3.636492252E0,-9.218050003E0,6.478567123E-1
4.159717978E0,3.583850145E0,-9.198907852E0,6.933203340E-1
4.162184540E0,3.559921980E0,-9.220442772E0,6.574280262E-1
4.164651155E0,3.497708559E0,-9.213264465E0,6.885347366E-1
4.167117718E0,3.497708559E0,-9.170193672E0,6.574280262E-1
4.169583655E0,3.468994617E0,-9.246764183E0,6.741777658E-1
4.172050218E0,3.442673683E0,-9.220442772E0,6.885347366E-1
4.174516780E0,3.449851990E0,-9.213264465E0,6.957131624E-1
4.176983343E0,3.452244759E0,-9.227621078E0,7.196413875E-1
4.179449905E0,3.452244759E0,-9.225228310E0,7.459624410E-1
4.181916468E0,3.476173162E0,-9.215657234E0,7.483552694E-1
4.184383030E0,3.454637766E0,-9.232406616E0,7.268198729E-1
4.186849593E0,3.454637766E0,-9.210871696E0,7.746763229E-1
4.189315895E0,3.545564890E0,-9.261120796E0,7.746763229E-1
4.191782457E0,3.550350666E0,-9.275477409E0,7.292127013E-1
4.194249020E0,3.569493294E0,-9.330513000E0,8.177471161E-1
4.196715582E0,3.614956856E0,-9.299406052E0,8.344969153E-1
4.199182093E0,3.631706476E0,-9.313762665E0,8.249256015E-1
4.201648655E0,3.650849104E0,-9.282656670E0,8.898309469E-1
4.204115218E0,3.643670797E0,-9.308977127E0,9.065806866E-1
4.206581780E0,3.689433336E0,-9.304191589E0,8.802596331E-1
4.209044905E0,3.746861219E0,-9.263513565E0,8.560323119E-1
4.211511363E0,3.809074640E0,-9.265906334E0,8.635098934E-1
4.213977822E0,3.809074640E0,-9.215657234E0,8.706883192E-1
4.216444280E0,3.816252947E0,-9.198907852E0,9.305089116E-1
4.218910790E0,3.828217030E0,-9.210871696E0,9.017950296E-1
4.221377249E0,3.888037682E0,-9.232406616E0,8.682954907E-1
4.223843707E0,3.907180309E0,-9.265906334E0,8.874381185E-1
4.226310165E0,3.960121393E0,-9.232406616E0,8.946165442E-1
4.228779228E0,3.981656790E0,-9.182157516E0,8.970093727E-1
4.231245790E0,4.027120590E0,-9.184550285E0,9.305089116E-1
4.233712301E0,4.065405846E0,-9.198907852E0,8.922237158E-1
4.236178811E0,4.048655987E0,-9.194122314E0,8.850452900E-1
4.238645374E0,4.060619831E0,-9.194122314E0,9.352945685E-1
4.241111884E0,4.039084435E0,-9.138788223E0,9.711868763E-1
4.243578447E0,4.039084435E0,-9.095717430E0,9.999007583E-1
4.246044957E0,4.067798615E0,-9.102895737E0,1.009472013E0
4.248511155E0,4.070191383E0,-9.150752068E0,9.903294444E-1
4.250977665E0,4.053441525E0,-9.136395454E0,1.052542806E0
4.253444228E0,4.029513359E0,-9.150752068E0,1.050150037E0
4.255910738E0,4.031906128E0,-9.157930374E0,1.119541883E0
4.258377249E0,4.010370731E0,-9.167800903E0,1.066899776E0
4.260843759E0,4.017549038E0,-9.191729546E0,1.009472013E0
4.263310322E0,4.017549038E0,-9.196515083E0,1.009472013E0
4.265776832E0,3.988835335E0,-9.191729546E0,9.568299651E-1
4.268243603E0,4.017549038E0,-9.162715912E0,8.778668046E-1
4.270710113E0,3.979264021E0,-9.110074043E0,8.297112584E-1
4.273176676E0,3.952943087E0,-9.134002686E0,8.344969153E-1
4.275643186E0,3.952943087E0,-9.112466812E0,7.938188910E-1
4.278109749E0,3.888037682E0,-9.136395454E0,8.129615188E-1
4.280576259E0,3.854538202E0,-9.177371979E0,7.698906660E-1
4.283042770E0,3.880859137E0,-9.134002686E0,7.962117195E-1
4.285509332E0,3.854538202E0,-9.136395454E0,7.890332937E-1
4.287973603E0,3.852145433E0,-9.129216194E0,7.603194118E-1
4.290440061E0,3.818645954E0,-9.157930374E0,8.129615188E-1
4.292906572E0,3.794717550E0,-9.232406616E0,8.464609981E-1
4.295373030E0,3.813860178E0,-9.203693390E0,9.305089116E-1
4.297839488E0,3.823431492E0,-9.172586441E0,8.635098934E-1
4.300305947E0,3.777967930E0,-9.213264465E0,8.898309469E-1
4.302772457E0,3.797110319E0,-9.237193108E0,8.994022012E-1
4.305238915E0,3.761218071E0,-9.232406616E0,8.994022012E-1
4.307704697E0,3.763610840E0,-9.213264465E0,8.536394835E-1
4.310171155E0,3.754039526E0,-9.198907852E0,8.946165442E-1
4.312637613E0,3.768396616E0,-9.241978645E0,8.635098934E-1
4.315104072E0,3.749253988E0,-9.220442772E0,8.464609981E-1
4.317570530E0,3.749253988E0,-9.222835541E0,8.416753411E-1
4.320036988E0,3.758825302E0,-9.222835541E0,8.706883192E-1
4.322503447E0,3.754039526E0,-9.222835541E0,8.778668046E-1
4.324969905E0,3.758825302E0,-9.182157516E0,8.201399446E-1
4.327435947E0,3.797110319E0,-9.184550285E0,8.201399446E-1
4.329901988E0,3.761218071E0,-9.206086159E0,8.105686903E-1
4.332368030E0,3.737289906E0,-9.227621078E0,7.172485590E-1
4.334834072E0,3.761218071E0,-9.225228310E0,7.674978375E-1
4.337300113E0,3.756432533E0,-9.210871696E0,7.531409264E-1
4.339766155E0,3.737289906E0,-9.249156952E0,7.172485590E-1
4.342232197E0,3.734897137E0,-9.261120796E0,7.076773047E-1
4.344698238E0,3.732504129E0,-9.230013847E0,6.693921089E-1
4.347171311E0,3.744468451E0,-9.256335258E0,6.358926296E-1
4.349638030E0,3.708575964E0,-9.256335258E0,6.502495408E-1
4.352104697E0,3.694219112E0,-9.234800339E0,7.148557901E-1
4.354571415E0,3.674777269E0,-9.179764748E0,6.957131624E-1
4.357038134E0,3.725325823E0,-9.186943054E0,6.789634228E-1
4.359504853E0,3.684348583E0,-9.206086159E0,6.837490797E-1
4.361971572E0,3.720540047E0,-9.273084641E0,7.244270444E-1
4.364438290E0,3.742075443E0,-9.258728027E0,7.220342159E-1
4.366899488E0,3.687040567E0,-9.198907852E0,7.435696125E-1
4.369366051E0,3.715754509E0,-9.208478928E0,7.459624410E-1
4.371832665E0,3.749253988E0,-9.258728027E0,7.507480979E-1
4.374299228E0,3.732504129E0,-9.265906334E0,7.794619799E-1
4.376765790E0,3.715754509E0,-9.253942490E0,8.177471161E-1
4.379232353E0,3.744468451E0,-9.232406616E0,8.201399446E-1
4.381698968E0,3.770789385E0,-9.198907852E0,7.842476368E-1
4.384165530E0,3.811467409E0,-9.182157516E0,7.363911867E-1
4.386631155E0,3.830610037E0,-9.198907852E0,7.842476368E-1
4.389097718E0,3.861716747E0,-9.182157516E0,8.273184299E-1
4.391564280E0,3.856930971E0,-9.201300621E0,7.555337548E-1
4.394030843E0,3.871287823E0,-9.174979210E0,7.651050687E-1
4.396497353E0,3.914358854E0,-9.114859581E0,8.344969153E-1
4.398963915E0,3.950251102E0,-9.107681274E0,8.560323119E-1
4.401430478E0,3.914358854E0,-9.047860146E0,8.778668046E-1
4.403897040E0,3.943072557E0,-9.021539688E0,9.711868763E-1
4.406363030E0,3.940679789E0,-9.004789352E0,9.640084505E-1
4.408829593E0,3.892823458E0,-8.980861664E0,8.970093727E-1
4.411296103E0,3.868895054E0,-8.949754715E0,9.711868763E-1
4.413762665E0,3.916751623E0,-8.956933022E0,9.783653617E-1
4.416229176E0,3.904787540E0,-8.968897820E0,9.879366755E-1
4.418695738E0,3.895216227E0,-9.007183075E0,1.014257669E0
4.421162249E0,3.931108475E0,-9.004789352E0,1.081256747E0
4.423628811E0,3.943072557E0,-8.997611046E0,1.102792144E0
4.426095322E0,3.947858334E0,-9.081359863E0,1.040578723E0
4.428561884E0,3.967299938E0,-9.067003250E0,1.121934772E0
4.431028395E0,3.969692707E0,-9.055039406E0,1.095613718E0
4.433494957E0,3.960121393E0,-9.119645119E0,1.090828061E0
4.435961468E0,3.964907169E0,-9.141180992E0,1.093220830E0
4.438428030E0,3.996013880E0,-9.153144836E0,1.071685433E0
4.440894540E0,3.986442566E0,-9.119645119E0,1.126720309E0
4.443361103E0,4.005585194E0,-9.119645119E0,1.129113197E0
4.445831155E0,3.996013880E0,-9.117252350E0,1.076471090E0
4.448297822E0,3.993621111E0,-9.107681274E0,1.062114120E0
4.450764436E0,3.976871252E0,-9.203693390E0,1.052542806E0
4.453231051E0,3.981656790E0,-9.184550285E0,1.086042404E0
4.455697665E0,3.972085476E0,-9.155537605E0,1.078863859E0
4.458164280E0,3.993621111E0,-9.189335823E0,1.081256747E0
4.460630947E0,3.969692707E0,-9.150752068E0,1.054935694E0
4.463097561E0,3.981656790E0,-9.122037888E0,1.019043326E0
4.465558968E0,4.010370731E0,-9.093324661E0,1.064507008E0
4.468025478E0,4.005585194E0,-9.157930374E0,1.074078321E0
4.470491936E0,4.034298897E0,-9.057432175E0,1.035793066E0
4.472958447E0,4.036691666E0,-9.040681839E0,1.074078321E0
4.475424957E0,4.039084435E0,-9.021539688E0,1.095613718E0
4.477891468E0,4.060619831E0,-9.043074608E0,1.146162033E0
4.480357926E0,4.098905087E0,-9.040681839E0,1.100399256E0
4.482824436E0,4.137190342E0,-9.009575844E0,1.088435173E0
4.485289176E0,4.127619267E0,-9.033503532E0,1.117149115E0
4.487755634E0,4.132404804E0,-9.038289070E0,1.102792144E0
4.490222093E0,4.185046673E0,-9.004789352E0,1.078863859E0
4.492688551E0,4.201796532E0,-8.997611046E0,1.035793066E0
4.495154957E0,4.187439442E0,-8.997611046E0,1.038185954E0
4.497621415E0,4.278666019E0,-9.050253868E0,1.035793066E0
4.500087874E0,4.343272209E0,-9.009575844E0,1.045364380E0
4.502554332E0,4.304986954E0,-9.004789352E0,1.014257669E0
4.505022613E0,4.319344044E0,-9.035896301E0,1.007079244E0
4.507489124E0,4.333701134E0,-9.011968613E0,1.052542806E0
4.509955634E0,4.309772491E0,-8.990432739E0,1.007079244E0
4.512422093E0,4.328915119E0,-8.995218277E0,1.064507008E0
4.514888603E0,4.309772491E0,-9.028717995E0,1.031007409E0
4.517355113E0,4.271487713E0,-9.019146919E0,9.975079298E-1
4.519821624E0,4.273880482E0,-9.014361382E0,1.026221752E0
4.522288082E0,4.257130623E0,-9.011968613E0,1.045364380E0
4.524753395E0,4.223630905E0,-9.011968613E0,1.019043326E0
4.527219853E0,4.189832687E0,-9.014361382E0,9.759725332E-1
4.529686311E0,4.192225456E0,-9.026325226E0,9.927222729E-1
4.532152770E0,4.170690060E0,-9.023932457E0,9.855438471E-1
4.534619280E0,4.175475597E0,-8.992825508E0,8.946165442E-1
4.537085738E0,4.144368649E0,-9.011968613E0,9.664012194E-1
4.539552197E0,4.137190342E0,-9.050253868E0,9.137591720E-1
4.542018655E0,4.141975880E0,-9.059824944E0,8.802596331E-1
4.544484072E0,4.103690624E0,-9.028717995E0,9.161519408E-1
4.546950478E0,4.101297855E0,-9.052646637E0,8.778668046E-1
4.549416936E0,4.060619831E0,-9.074181557E0,7.268198729E-1
4.551883395E0,4.063013077E0,-9.114859581E0,7.435696125E-1
4.554349801E0,4.046263218E0,-9.062217712E0,7.627122402E-1
4.556816259E0,4.053441525E0,-9.074181557E0,7.004988194E-1
4.559282718E0,3.974478483E0,-9.143573761E0,6.789634228E-1
4.561749124E0,3.957728624E0,-9.129216194E0,6.717849374E-1
4.564202040E0,3.926322937E0,-9.122037888E0,6.813562512E-1
4.566668134E0,3.876073599E0,-9.157930374E0,6.717849374E-1
4.569134228E0,3.871287823E0,-9.134002686E0,6.526423693E-1
4.571600322E0,3.799503326E0,-9.124430656E0,6.933203340E-1
4.574066415E0,3.799503326E0,-9.134002686E0,6.622136831E-1
4.576532561E0,3.710968733E0,-9.167800903E0,6.837490797E-1
4.578998655E0,3.763610840E0,-9.208478928E0,6.311069727E-1
4.581464749E0,3.646063566E0,-9.198907852E0,7.363911867E-1
4.583938915E0,3.660420418E0,-9.179764748E0,7.555337548E-1
4.586405218E0,3.634099483E0,-9.170193672E0,7.028916478E-1
4.588871572E0,3.622135162E0,-9.182157516E0,6.933203340E-1
4.591337874E0,3.605385542E0,-9.241978645E0,7.100701332E-1
4.593804176E0,3.581457376E0,-9.234800339E0,7.148557901E-1
4.596270478E0,3.540779352E0,-9.218050003E0,7.292127013E-1
4.598736780E0,3.502494097E0,-9.270691872E0,6.789634228E-1
4.601203082E0,3.480958700E0,-9.210871696E0,7.004988194E-1
4.603669332E0,3.452244759E0,-9.230013847E0,6.693921089E-1
4.606135686E0,3.476173162E0,-9.280263901E0,6.693921089E-1
4.608601936E0,3.452244759E0,-9.297013283E0,7.004988194E-1
4.611068290E0,3.435495138E0,-9.280263901E0,7.148557901E-1
4.613534593E0,3.464209080E0,-9.273084641E0,6.669993401E-1
4.616000895E0,3.464209080E0,-9.308977127E0,6.382854581E-1
4.618467197E0,3.502494097E0,-9.313762665E0,6.861419082E-1
4.620933499E0,3.461816072E0,-9.342476845E0,6.741777658E-1
4.623397613E0,3.504886866E0,-9.328120232E0,6.454638839E-1
4.625863863E0,3.502494097E0,-9.306584358E0,6.382854581E-1
4.628330113E0,3.466601849E0,-9.294620514E0,7.196413875E-1
4.630796311E0,3.413660526E0,-9.299406052E0,6.669993401E-1
4.633262613E0,3.423531055E0,-9.289834976E0,6.789634228E-1
4.635728863E0,3.449851990E0,-9.297013283E0,6.598208547E-1
4.638195113E0,3.452244759E0,-9.340084076E0,6.502495408E-1
4.640661363E0,3.445066452E0,-9.304191589E0,6.119644046E-1
4.643130686E0,3.447459221E0,-9.306584358E0,5.614160299E-1
4.645597040E0,3.447459221E0,-9.328120232E0,4.872384965E-1
4.648063343E0,3.468994617E0,-9.359226227E0,4.369892478E-1
4.650529697E0,3.452244759E0,-9.366405487E0,4.657031000E-1
4.652995999E0,3.445066452E0,-9.371191025E0,4.369892478E-1
4.655462353E0,3.457030535E0,-9.325727463E0,4.345964193E-1
4.657928655E0,3.440280676E0,-9.371191025E0,4.226323068E-1
4.660395009E0,3.421138287E0,-9.390333176E0,4.322035909E-1
4.662863655E0,3.399303675E0,-9.368798256E0,4.298107624E-1
4.665330009E0,3.423531055E0,-9.337691307E0,4.728815854E-1
4.667796415E0,3.411267757E0,-9.378369331E0,4.872384965E-1
4.670262770E0,3.440280676E0,-9.349655151E0,4.345964193E-1
4.672729176E0,3.375375509E0,-9.337691307E0,4.848456979E-1
4.675195582E0,3.411267757E0,-9.352047920E0,5.255236626E-1
4.677661936E0,3.425923824E0,-9.375976562E0,5.327021480E-1
4.680128343E0,3.457030535E0,-9.354440689E0,5.350949764E-1
4.682606415E0,3.473780155E0,-9.380762100E0,5.422734022E-1
4.685073082E0,3.514458179E0,-9.402297020E0,5.327021480E-1
4.687539749E0,3.521636724E0,-9.335298538E0,5.709872842E-1
4.690006415E0,3.509672642E0,-9.390333176E0,6.454638839E-1
4.692473082E0,3.524029493E0,-9.440881729E0,6.334998012E-1
4.694939801E0,3.567100286E0,-9.411869049E0,6.215356588E-1
4.697406468E0,3.626920938E0,-9.380762100E0,6.239284873E-1
4.699873134E0,3.598206997E0,-9.347262383E0,6.693921089E-1
4.702338915E0,3.593421459E0,-9.330513000E0,6.717849374E-1
4.704805582E0,3.614956856E0,-9.340084076E0,6.478567123E-1
4.707272249E0,3.610171080E0,-9.320941925E0,7.172485590E-1
4.709738915E0,3.612564087E0,-9.354440689E0,7.531409264E-1
4.712205582E0,3.612564087E0,-9.285049438E0,6.885347366E-1
4.714672197E0,3.605385542E0,-9.277871132E0,7.339983582E-1
4.717138863E0,3.619742393E0,-9.251549721E0,7.770691514E-1
4.719605530E0,3.650849104E0,-9.265906334E0,7.292127013E-1
4.722072040E0,3.658027649E0,-9.273084641E0,6.861419082E-1
4.724538707E0,3.727718592E0,-9.189335823E0,6.669993401E-1
4.727005374E0,3.701397419E0,-9.218050003E0,6.861419082E-1
4.729472040E0,3.658027649E0,-9.208478928E0,6.693921089E-1
4.731938655E0,3.696611881E0,-9.222835541E0,6.646065116E-1
4.734405322E0,3.739682674E0,-9.215657234E0,6.502495408E-1
4.736871988E0,3.792324781E0,-9.179764748E0,6.693921089E-1
4.739338655E0,3.756432533E0,-9.213264465E0,6.741777658E-1
4.741804488E0,3.785146236E0,-9.179764748E0,6.622136831E-1
4.744271155E0,3.789932013E0,-9.155537605E0,6.789634228E-1
4.746737770E0,3.854538202E0,-9.129216194E0,6.550351977E-1
4.749204384E0,3.902394533E0,-9.143573761E0,7.052844763E-1
4.751671051E0,3.907180309E0,-9.155537605E0,7.220342159E-1
4.754137665E0,3.911965847E0,-9.177371979E0,7.603194118E-1
4.756604332E0,3.969692707E0,-9.170193672E0,7.890332937E-1
4.759070947E0,3.955335855E0,-9.179764748E0,8.392825127E-1
4.761533343E0,3.967299938E0,-9.145966530E0,8.778668046E-1
4.763999853E0,3.938287020E0,-9.184550285E0,8.730811477E-1
4.766466415E0,3.950251102E0,-9.145966530E0,8.778668046E-1
4.768932926E0,3.955335855E0,-9.141180992E0,8.898309469E-1
4.771399436E0,3.952943087E0,-9.122037888E0,8.874381185E-1
4.773865999E0,3.921537161E0,-9.057432175E0,9.329017401E-1
4.776332509E0,3.923929930E0,-9.062217712E0,9.879366755E-1
4.778799020E0,3.957728624E0,-9.059824944E0,1.014257669E0
4.781265790E0,3.981656790E0,-9.067003250E0,9.903294444E-1
4.783732353E0,3.967299938E0,-9.105288506E0,9.616156220E-1
4.786198863E0,3.933501244E0,-9.102895737E0,9.544371367E-1
4.788665374E0,3.955335855E0,-9.131608963E0,9.903294444E-1
4.791131936E0,3.974478483E0,-9.122037888E0,1.019043326E0
4.793598447E0,3.955335855E0,-9.122037888E0,9.879366755E-1
4.796065009E0,3.933501244E0,-9.078967094E0,9.759725332E-1
4.798531520E0,3.923929930E0,-9.078967094E0,9.616156220E-1
4.800996415E0,3.938287020E0,-9.050253868E0,9.903294444E-1
4.803462926E0,3.921537161E0,-9.045467377E0,9.879366755E-1
4.805929384E0,3.947858334E0,-9.088538170E0,9.041878581E-1
4.808395895E0,3.974478483E0,-9.100502968E0,9.257232547E-1
4.810862405E0,3.969692707E0,-9.136395454E0,9.257232547E-1
4.813328863E0,3.909573078E0,-9.129216194E0,9.089735150E-1
4.815795374E0,3.938287020E0,-9.155537605E0,8.536394835E-1
4.818261884E0,3.952943087E0,-9.157930374E0,8.392825127E-1
4.820730009E0,3.926322937E0,-9.141180992E0,8.635098934E-1
4.823196572E0,3.895216227E0,-9.136395454E0,8.659027219E-1
4.825663082E0,3.914358854E0,-9.131608963E0,9.233304262E-1
4.828129593E0,3.916751623E0,-9.124430656E0,9.257232547E-1
4.830596155E0,3.935894251E0,-9.141180992E0,9.496514797E-1
4.833062665E0,3.904787540E0,-9.145966530E0,9.376873970E-1
4.835529228E0,3.900001764E0,-9.119645119E0,9.927222729E-1
4.837995738E0,3.876073599E0,-9.114859581E0,9.855438471E-1
4.840460634E0,3.878466368E0,-9.162715912E0,9.568299651E-1
4.842927145E0,3.888037682E0,-9.182157516E0,9.711868763E-1
4.845393603E0,3.876073599E0,-9.150752068E0,9.687940478E-1
4.847860113E0,3.897608995E0,-9.126823425E0,9.664012194E-1
4.850326624E0,3.880859137E0,-9.179764748E0,1.004686356E0
4.852793082E0,3.868895054E0,-9.186943054E0,9.568299651E-1
4.855259593E0,3.861716747E0,-9.160323143E0,9.592227936E-1
4.857726103E0,3.883252144E0,-9.141180992E0,9.472586513E-1
4.860190218E0,3.844966888E0,-9.174979210E0,9.352945685E-1
4.862656624E0,3.880859137E0,-9.208478928E0,9.496514797E-1
4.865123082E0,3.880859137E0,-9.196515083E0,8.946165442E-1
4.867589488E0,3.847359657E0,-9.167800903E0,8.682954907E-1
4.870055947E0,3.840181351E0,-9.198907852E0,9.329017401E-1
4.872522353E0,3.866502285E0,-9.191729546E0,9.113663435E-1
4.874988811E0,3.842574120E0,-9.170193672E0,8.560323119E-1
4.877455218E0,3.794717550E0,-9.179764748E0,8.560323119E-1
4.879922926E0,3.821038723E0,-9.167800903E0,8.488538265E-1
4.882389384E0,3.840181351E0,-9.157930374E0,8.177471161E-1
4.884855843E0,3.813860178E0,-9.177371979E0,7.794619799E-1
4.887322301E0,3.818645954E0,-9.206086159E0,7.986045480E-1
4.889788759E0,3.873680830E0,-9.208478928E0,8.009973764E-1
4.892255270E0,3.844966888E0,-9.210871696E0,7.890332937E-1
4.894721728E0,3.813860178E0,-9.182157516E0,8.225327730E-1
4.897188186E0,3.825824261E0,-9.220442772E0,7.555337548E-1
4.899656780E0,3.804288864E0,-9.246764183E0,7.627122402E-1
4.902123290E0,3.821038723E0,-9.232406616E0,7.866404653E-1
4.904589801E0,3.809074640E0,-9.198907852E0,8.057830334E-1
4.907056363E0,3.799503326E0,-9.165408134E0,8.249256015E-1
4.909522874E0,3.799503326E0,-9.230013847E0,7.746763229E-1
4.911989384E0,3.756432533E0,-9.239585876E0,8.392825127E-1
4.914455895E0,3.763610840E0,-9.239585876E0,8.105686903E-1
4.916922405E0,3.787539244E0,-9.220442772E0,8.177471161E-1
4.919388811E0,3.816252947E0,-9.191729546E0,7.986045480E-1
4.921855322E0,3.799503326E0,-9.258728027E0,8.416753411E-1
4.924321832E0,3.821038723E0,-9.251549721E0,8.057830334E-1
4.926788343E0,3.821038723E0,-9.234800339E0,8.153542876E-1
4.929254853E0,3.852145433E0,-9.230013847E0,8.273184299E-1
4.931721415E0,3.878466368E0,-9.244371414E0,7.842476368E-1
4.934187926E0,3.856930971E0,-9.222835541E0,8.177471161E-1
4.936654436E0,3.861716747E0,-9.186943054E0,8.057830334E-1
4.939118968E0,3.902394533E0,-9.119645119E0,8.416753411E-1
4.941585426E0,3.928715706E0,-9.172586441E0,8.177471161E-1
4.944051884E0,3.933501244E0,-9.186943054E0,8.153542876E-1
4.946518343E0,3.955335855E0,-9.172586441E0,8.033902049E-1
4.948984853E0,3.900001764E0,-9.153144836E0,8.730811477E-1
4.951451311E0,3.933501244E0,-9.088538170E0,8.249256015E-1
4.953917770E0,3.916751623E0,-9.153144836E0,8.584251404E-1
4.956384228E0,3.890430450E0,-9.160323143E0,8.682954907E-1
4.958850634E0,3.885644913E0,-9.114859581E0,8.536394835E-1
4.961317093E0,3.880859137E0,-9.114859581E0,8.874381185E-1
4.963783551E0,3.842574120E0,-9.141180992E0,8.826524615E-1
4.966250009E0,3.823431492E0,-9.138788223E0,9.329017401E-1
4.968716468E0,3.773182154E0,-9.143573761E0,9.759725332E-1
4.971182978E0,3.763610840E0,-9.165408134E0,9.209375978E-1
4.973649436E0,3.749253988E0,-9.136395454E0,8.635098934E-1
4.976115895E0,3.749253988E0,-9.124430656E0,8.754739761E-1
4.978569124E0,3.708575964E0,-9.145966530E0,8.898309469E-1
4.981035270E0,3.681955814E0,-9.177371979E0,8.898309469E-1
4.983501415E0,3.674777269E0,-9.165408134E0,8.536394835E-1
4.985967509E0,3.679563046E0,-9.225228310E0,8.850452900E-1
4.988433655E0,3.669991732E0,-9.206086159E0,8.464609981E-1
4.990899801E0,3.626920938E0,-9.167800903E0,8.584251404E-1
4.993365947E0,3.619742393E0,-9.162715912E0,8.682954907E-1
4.995832040E0,3.636492252E0,-9.218050003E0,8.249256015E-1
4.998313759E0,3.600599766E0,-9.237193108E0,8.368897438E-1
5.000780270E0,3.629313707E0,-9.237193108E0,8.392825127E-1
5.003246832E0,3.605385542E0,-9.273084641E0,8.850452900E-1
5.005713343E0,3.600599766E0,-9.241978645E0,8.536394835E-1
5.008179853E0,3.607778311E0,-9.213264465E0,8.297112584E-1
5.010646363E0,3.545564890E0,-9.220442772E0,8.297112584E-1
5.013112926E0,3.533600807E0,-9.160323143E0,8.560323119E-1
5.015579436E0,3.550350666E0,-9.174979210E0,8.464609981E-1
5.018042561E0,3.540779352E0,-9.182157516E0,8.297112584E-1
5.020508968E0,3.535993576E0,-9.182157516E0,8.659027219E-1
5.022975426E0,3.531208038E0,-9.208478928E0,8.802596331E-1
5.025441884E0,3.567100286E0,-9.203693390E0,8.153542876E-1
5.027908290E0,3.586242914E0,-9.201300621E0,8.297112584E-1
5.030374749E0,3.559921980E0,-9.208478928E0,8.778668046E-1
5.032841207E0,3.516851187E0,-9.160323143E0,8.682954907E-1
5.035307613E0,3.545564890E0,-9.174979210E0,9.137591720E-1
5.037778759E0,3.574278831E0,-9.218050003E0,9.089735150E-1
5.040245322E0,3.557528973E0,-9.210871696E0,9.568299651E-1
5.042711884E0,3.567100286E0,-9.150752068E0,9.161519408E-1
5.045178447E0,3.555136204E0,-9.143573761E0,9.257232547E-1
5.047645009E0,3.581457376E0,-9.150752068E0,9.041878581E-1
5.050111572E0,3.622135162E0,-9.174979210E0,9.209375978E-1
5.052578134E0,3.591028690E0,-9.203693390E0,9.352945685E-1
5.055044645E0,3.591028690E0,-9.189335823E0,8.826524615E-1
5.057511207E0,3.600599766E0,-9.198907852E0,8.344969153E-1
5.059977770E0,3.586242914E0,-9.157930374E0,8.368897438E-1
5.062444332E0,3.571886063E0,-9.165408134E0,8.778668046E-1
5.064910895E0,3.574278831E0,-9.179764748E0,8.682954907E-1
5.067377457E0,3.605385542E0,-9.182157516E0,8.440681696E-1
5.069844020E0,3.593421459E0,-9.184550285E0,8.009973764E-1
5.072310582E0,3.591028690E0,-9.167800903E0,7.890332937E-1
5.074777093E0,3.605385542E0,-9.210871696E0,7.698906660E-1
5.077243707E0,3.574278831E0,-9.213264465E0,7.938188910E-1
5.079710270E0,3.607778311E0,-9.222835541E0,8.225327730E-1
5.082176832E0,3.593421459E0,-9.203693390E0,8.536394835E-1
5.084643395E0,3.576671600E0,-9.210871696E0,7.531409264E-1
5.087109957E0,3.547957659E0,-9.220442772E0,7.339983582E-1
5.089576520E0,3.583850145E0,-9.222835541E0,7.698906660E-1
5.092043082E0,3.550350666E0,-9.220442772E0,7.603194118E-1
5.094509645E0,3.576671600E0,-9.253942490E0,8.440681696E-1
5.096973447E0,3.555136204E0,-9.289834976E0,7.531409264E-1
5.099439957E0,3.543172121E0,-9.256335258E0,7.268198729E-1
5.101906415E0,3.507279873E0,-9.249156952E0,7.914260626E-1
5.104372926E0,3.524029493E0,-9.206086159E0,7.100701332E-1
5.106839384E0,3.538386583E0,-9.268299103E0,7.459624410E-1
5.109305895E0,3.538386583E0,-9.294620514E0,6.909275651E-1
5.111772405E0,3.540779352E0,-9.273084641E0,7.483552694E-1
5.114238863E0,3.559921980E0,-9.265906334E0,7.651050687E-1
5.116702978E0,3.564707518E0,-9.292227745E0,7.339983582E-1
5.119169384E0,3.512065411E0,-9.301798820E0,7.316055298E-1
5.121635843E0,3.538386583E0,-9.285049438E0,7.220342159E-1
5.124102249E0,3.555136204E0,-9.347262383E0,7.148557901E-1
5.126568707E0,3.564707518E0,-9.328120232E0,7.244270444E-1
5.129035113E0,3.528815269E0,-9.304191589E0,7.698906660E-1
5.131501520E0,3.519243956E0,-9.323334694E0,7.651050687E-1
