"Time (s)","Acceleration x (m/s^2)","Acceleration y (m/s^2)","Acceleration z (m/s^2)"
3.726299000E-3,-3.260902643E0,4.723760128E0,5.956773758E0
6.198223000E-3,-3.392583847E0,4.687847137E0,6.069301128E0
7.693584000E-3,-3.394978046E0,4.678270340E0,6.100425720E0
9.707745000E-3,-3.390189648E0,4.647145271E0,6.186617374E0
1.169138700E-2,-3.447650433E0,4.565742493E0,6.358999729E0
1.367503000E-2,-3.617638826E0,4.400542736E0,6.718130112E0
1.565867200E-2,-3.861847401E0,4.177882195E0,7.319074631E0
1.764231500E-2,-4.003105164E0,3.995922565E0,8.054094315E0
1.962595700E-2,-3.876212597E0,3.969586372E0,8.611943245E0
2.164011800E-2,-3.579331636E0,4.050989151E0,9.119514465E0
2.362376000E-2,-3.308786631E0,4.206612587E0,9.651026726E0
2.560740300E-2,-3.119644880E0,4.350264549E0,9.995792389E0
2.759104500E-2,-2.980781078E0,4.417302132E0,1.012986755E1
2.960520600E-2,-2.882618904E0,4.438849926E0,1.028309631E1
3.161936600E-2,-2.817975283E0,4.462791920E0,1.034534550E1
3.363352600E-2,-2.743755102E0,4.460397720E0,1.043393135E1
3.564768600E-2,-2.643198729E0,4.443638325E0,1.032379818E1
3.763132900E-2,-2.590526342E0,4.460397720E0,1.002931118E1
3.964548900E-2,-2.604891539E0,4.489128113E0,9.689333916E0
4.165964900E-2,-2.650381327E0,4.534617901E0,9.385271072E0
4.364329100E-2,-2.647987127E0,4.592078686E0,9.064447403E0
4.562693400E-2,-2.679111719E0,4.654327869E0,8.659827232E0
4.761057700E-2,-2.894589901E0,4.752490520E0,8.082824707E0
4.962473700E-2,-3.325546265E0,4.848258495E0,7.544129372E0
5.160837900E-2,-3.768473387E0,4.917690277E0,7.101202011E0
5.359202200E-2,-4.067748547E0,4.951209068E0,6.751648903E0
5.557566500E-2,-4.232948780E0,4.955997467E0,6.502651691E0
5.755930700E-2,-4.335899353E0,4.934449673E0,6.397306919E0
5.957346700E-2,-4.376600742E0,4.867412090E0,6.435614109E0
6.155711000E-2,-4.326322556E0,4.774038315E0,6.545747280E0
6.357127000E-2,-4.264073372E0,4.695029736E0,6.768408298E0
6.552439500E-2,-4.259284973E0,4.623203278E0,7.084442616E0
6.753855500E-2,-4.292803764E0,4.551377296E0,7.412448406E0
6.955271500E-2,-4.335899353E0,4.472368717E0,7.757213593E0
7.156687500E-2,-4.376600742E0,4.386177540E0,8.070854187E0
7.355051800E-2,-4.412513733E0,4.299986362E0,8.372523308E0
7.553416100E-2,-4.462791920E0,4.199429989E0,8.755595207E0
7.751780300E-2,-4.570530891E0,4.101267338E0,9.327810287E0
7.950144600E-2,-4.685452938E0,4.022258759E0,9.979032516E0
8.151560600E-2,-4.917690277E0,4.010287762E0,1.064222622E1
8.349924900E-2,-5.269638062E0,4.079719543E0,1.139640045E1
8.548289100E-2,-5.547365189E0,4.249708176E0,1.204762268E1
8.746653400E-2,-5.513846397E0,4.505887508E0,1.231816769E1
8.945017600E-2,-5.228936672E0,4.793191910E0,1.233253288E1
9.146433600E-2,-4.934449673E0,5.058948040E0,1.236844635E1
9.344797900E-2,-4.714183331E0,5.274426460E0,1.253125191E1
9.546213900E-2,-4.441244125E0,5.394136429E0,1.267729759E1
9.747629900E-2,-4.017470360E0,5.334281445E0,1.259589481E1
9.949045900E-2,-3.488351822E0,5.094861031E0,1.221042824E1
1.015046200E-1,-2.999934673E0,4.766855717E0,1.168609810E1
1.034882620E-1,-2.679111719E0,4.446032524E0,1.119289303E1
1.054719050E-1,-2.521094322E0,4.137180328E0,1.075954247E1
1.074860650E-1,-2.420537949E0,3.830722809E0,1.035252857E1
1.095002250E-1,-2.308010340E0,3.557783842E0,1.002931118E1
1.115143850E-1,-2.152387381E0,3.320757866E0,9.799467087E0
1.134980280E-1,-1.999158382E0,3.134010077E0,9.734824181E0
1.154816700E-1,-1.884236693E0,3.007117271E0,9.727641106E0
1.174653130E-1,-1.798045516E0,2.932897091E0,9.720458984E0
1.194489560E-1,-1.628057122E0,2.889801502E0,9.780313492E0
1.214631160E-1,-1.352723956E0,2.868253708E0,9.890447617E0
1.234467580E-1,-9.888052940E-1,2.877830505E0,1.002452278E1
1.254304010E-1,-5.961562395E-1,2.908955097E0,1.007719517E1
1.274445610E-1,-3.351882398E-1,2.923320293E0,1.010592556E1
1.294587210E-1,-2.370259613E-1,2.887407303E0,1.008677197E1
1.314423640E-1,-1.460463107E-1,2.822763920E0,1.004607010E1
1.334260060E-1,7.182604820E-2,2.741360903E0,1.002931118E1
1.354096490E-1,3.567360640E-1,2.681505919E0,1.005325317E1
1.373932910E-1,5.219359994E-1,2.619256735E0,1.026394272E1
1.394074520E-1,5.674257874E-1,2.528276920E0,1.049857426E1
1.413910940E-1,5.554547906E-1,2.418143749E0,1.046745014E1
1.434052540E-1,4.716577232E-1,2.288856745E0,1.032140350E1
1.453888970E-1,3.854664862E-1,2.183511972E0,1.020408726E1
1.473725400E-1,2.992752194E-1,2.104503393E0,1.009395409E1
1.493561820E-1,1.747767180E-1,2.020706177E0,9.911994934E0
1.513703420E-1,-4.788403399E-3,1.941697598E0,9.665391922E0
1.533845020E-1,-1.699883193E-1,1.886630893E0,9.423578262E0
1.553986630E-1,-3.519476354E-1,1.884236693E0,9.203310966E0
1.573823050E-1,-5.889736414E-1,1.915361404E0,8.961497307E0
1.593659480E-1,-9.217676520E-1,1.977610588E0,8.662221909E0
1.613495900E-1,-1.290474772E0,2.066195965E0,8.327033043E0
1.633332330E-1,-1.661576033E0,2.195482969E0,7.977479935E0
1.652863580E-1,-2.011129379E0,2.365471363E0,7.592013359E0
1.673005180E-1,-2.358288765E0,2.576161146E0,7.175422668E0
1.693146780E-1,-2.676717520E0,2.813186884E0,6.763619900E0
1.713288380E-1,-2.985569477E0,3.083731890E0,6.418854713E0
1.733124810E-1,-3.332728863E0,3.397372246E0,6.076483727E0
1.752961240E-1,-3.691859007E0,3.722983599E0,5.686229229E0
1.772797660E-1,-4.015076160E0,4.036623955E0,5.363011837E0
1.792634090E-1,-4.321534157E0,4.362235546E0,5.125985622E0
1.812775690E-1,-4.601655483E0,4.687847137E0,4.932055473E0
1.832612110E-1,-4.850652695E0,5.015852451E0,4.730942726E0
1.852448540E-1,-5.006275654E0,5.336675644E0,4.525041103E0
1.872284970E-1,-5.125985622E0,5.681440830E0,4.311957359E0
1.892121390E-1,-5.154716492E0,5.973533154E0,4.079719543E0
1.911957820E-1,-5.090072632E0,6.145915985E0,3.801992416E0
1.932099420E-1,-4.948814869E0,6.244078159E0,3.552995205E0
1.952241020E-1,-4.769249916E0,6.327875137E0,3.399766445E0
1.972382620E-1,-4.596867085E0,6.409277916E0,3.318363667E0
1.992524220E-1,-4.398148537E0,6.447585106E0,3.366247654E0
2.012665820E-1,-4.134786129E0,6.416460514E0,3.548206806E0
2.032502250E-1,-3.775655985E0,6.325480938E0,3.751713991E0
2.052338680E-1,-3.318363667E0,6.184223175E0,3.936067581E0
2.072175100E-1,-2.827552319E0,6.007051945E0,4.096478939E0
2.092011530E-1,-2.365471363E0,5.825092793E0,4.228160381E0
2.112153130E-1,-1.965639591E0,5.645527840E0,4.321534157E0
2.131989560E-1,-1.640028119E0,5.487510204E0,4.410119534E0
2.151825980E-1,-1.335964561E0,5.322310448E0,4.520252705E0
2.171662410E-1,-1.074996591E0,5.164293289E0,4.685452938E0
2.191498830E-1,-8.738836050E-1,5.023035049E0,4.927267075E0
2.211640430E-1,-7.158663273E-1,4.910507679E0,5.240907669E0
2.231476860E-1,-5.530605912E-1,4.829104900E0,5.585672379E0
2.251313290E-1,-3.782838583E-1,4.745307922E0,5.923254967E0
2.271149710E-1,-2.130839527E-1,4.656722069E0,6.222530365E0
2.290986140E-1,-8.140286058E-2,4.582501888E0,6.447585106E0
2.310822560E-1,-4.788403399E-3,4.517858505E0,6.591237068E0
2.330964160E-1,-1.675941236E-2,4.460397720E0,6.665457726E0
2.351105770E-1,-1.053448766E-1,4.417302132E0,6.694188118E0
2.371247370E-1,-2.274491638E-1,4.383783340E0,6.696582317E0
2.391388970E-1,-3.591302633E-1,4.352658749E0,6.675034523E0
2.411225400E-1,-5.051765442E-1,4.319139957E0,6.646304131E0
2.431061820E-1,-6.607996821E-1,4.280832767E0,6.617573261E0
2.450898250E-1,-8.307880163E-1,4.249708176E0,6.581660271E0
2.470734670E-1,-1.017535686E0,4.216189384E0,6.545747280E0
2.490876270E-1,-1.221042871E0,4.153939724E0,6.505045891E0
2.510712700E-1,-1.448492050E0,4.089296341E0,6.459556103E0
2.530854300E-1,-1.745373011E0,4.043806553E0,6.438008308E0
2.550995900E-1,-2.087743998E0,4.010287762E0,6.481103897E0
2.570832330E-1,-2.475604534E0,3.986345768E0,6.603208065E0
2.590668750E-1,-2.865859509E0,3.955221176E0,6.799532890E0
2.610505180E-1,-3.236960649E0,3.904942989E0,7.062894821E0
2.630341610E-1,-3.572149038E0,3.857059002E0,7.374141216E0
2.650483210E-1,-3.840299606E0,3.806780815E0,7.726089001E0
2.670319630E-1,-4.050989151E0,3.785232782E0,8.087613106E0
2.690156060E-1,-4.220977783E0,3.773261786E0,8.468291283E0
2.709992490E-1,-4.362235546E0,3.749319792E0,8.894459724E0
2.730134090E-1,-4.498704910E0,3.720589399E0,9.354146004E0
2.749970510E-1,-4.647145271E0,3.687070608E0,9.837775230E0
2.770112110E-1,-4.812345505E0,3.653551817E0,1.036210537E1
2.789948540E-1,-4.948814869E0,3.598485231E0,1.091277122E1
2.810090140E-1,-5.035006046E0,3.509899616E0,1.145625496E1
2.830231740E-1,-5.070919037E0,3.385401249E0,1.196382618E1
2.850373340E-1,-5.046977043E0,3.222595453E0,1.245463753E1
2.870514950E-1,-4.934449673E0,3.026270866E0,1.292390060E1
2.890656550E-1,-4.728548527E0,2.791639090E0,1.335246277E1
2.910492970E-1,-4.450820923E0,2.528276920E0,1.373074722E1
2.930329400E-1,-4.163516521E0,2.269703150E0,1.403241634E1
2.950165820E-1,-3.904942989E0,2.049436569E0,1.426944256E1
2.969697070E-1,-3.663128614E0,1.869871497E0,1.448970890E1
2.989838680E-1,-3.464409828E0,1.750161409E0,1.470039845E1
3.009980280E-1,-3.308786631E0,1.723825216E0,1.484883881E1
3.030121880E-1,-3.210624456E0,1.793257117E0,1.494460678E1
3.049958310E-1,-3.186682463E0,1.922544003E0,1.494700146E1
3.069794730E-1,-3.229778051E0,2.087743998E0,1.482729149E1
3.089936330E-1,-3.325546265E0,2.276885748E0,1.458308220E1
3.109772760E-1,-3.473986626E0,2.480392933E0,1.418085670E1
3.129914360E-1,-3.620033026E0,2.640804529E0,1.364455509E1
3.150055960E-1,-3.711012602E0,2.738966703E0,1.304361057E1
3.170197560E-1,-3.742137194E0,2.817975283E0,1.238999367E1
3.190339160E-1,-3.725377798E0,2.863465309E0,1.169328117E1
3.210175590E-1,-3.643975019E0,2.856282711E0,1.098459721E1
3.230012020E-1,-3.502717018E0,2.810792685E0,1.026154804E1
3.249848440E-1,-3.356670856E0,2.796427488E0,9.504981041E0
3.269684870E-1,-3.251325846E0,2.839523315E0,8.724471092E0
3.289521290E-1,-3.203441858E0,2.935291290E0,7.951143742E0
3.309357720E-1,-3.186682463E0,3.059789658E0,7.220912457E0
3.329499320E-1,-3.181894064E0,3.181894064E0,6.555324078E0
3.349640920E-1,-3.184288263E0,3.275267839E0,5.961562157E0
3.369782520E-1,-3.191470861E0,3.320757866E0,5.442020416E0
3.389924130E-1,-3.162740469E0,3.306392431E0,5.020640850E0
3.409760550E-1,-3.095702887E0,3.217807055E0,4.735731125E0
3.429596980E-1,-2.973598480E0,3.057395458E0,4.618414879E0
3.449433400E-1,-2.837129116E0,2.846705914E0,4.666299343E0
3.469575000E-1,-2.712630510E0,2.614468336E0,4.850652695E0
3.489716610E-1,-2.636016130E0,2.377442360E0,5.104437828E0
3.509858210E-1,-2.686294317E0,2.154781580E0,5.317522049E0
3.529694630E-1,-2.806004286E0,1.944091797E0,5.525817394E0
3.549531060E-1,-2.844311714E0,1.731007814E0,5.832275391E0
3.569367490E-1,-2.741360903E0,1.508347034E0,6.327875137E0
3.589203910E-1,-2.576161146E0,1.290474772E0,6.914454460E0
3.609040340E-1,-2.559401512E0,1.074996591E0,7.326257229E0
3.628876760E-1,-2.645592928E0,8.858546019E-1,7.606379032E0
3.648713190E-1,-2.762908697E0,7.565677166E-1,7.900865555E0
3.668854790E-1,-2.930502892E0,6.799532771E-1,8.257601738E0
3.688996390E-1,-3.148375273E0,6.560112834E-1,8.674192429E0
3.708832820E-1,-3.349488258E0,6.751648784E-1,9.114726067E0
3.728669240E-1,-3.454833031E0,7.206547260E-1,9.593565941E0
3.748505670E-1,-3.478775024E0,7.900865674E-1,1.017775154E1
3.768342090E-1,-3.536235809E0,9.097966552E-1,1.079306126E1
3.788178520E-1,-3.703830004E0,1.065419793E0,1.127908421E1
3.808320120E-1,-4.012681961E0,1.237802267E0,1.159272480E1
3.828156550E-1,-4.376600742E0,1.400607944E0,1.181059742E1
3.848298150E-1,-4.671087742E0,1.541865945E0,1.202128696E1
3.868134570E-1,-4.819528103E0,1.654393315E0,1.232535076E1
3.887971000E-1,-4.838681698E0,1.704671621E0,1.265096188E1
3.908112600E-1,-4.848258495E0,1.699883223E0,1.280179691E1
3.927949030E-1,-4.788403511E0,1.635239720E0,1.281855583E1
3.948090630E-1,-4.702212334E0,1.537077546E0,1.271081638E1
3.968232230E-1,-4.608838081E0,1.400607944E0,1.252167511E1
3.988373830E-1,-4.541800499E0,1.249773264E0,1.227267838E1
4.008515430E-1,-4.620809078E0,1.139639974E0,1.198297977E1
4.028351860E-1,-4.723760128E0,1.041477680E0,1.167652130E1
4.048188290E-1,-4.730942726E0,9.337386489E-1,1.141076565E1
4.068024710E-1,-4.721365929E0,8.451532125E-1,1.119768143E1
4.087861140E-1,-4.781220913E0,8.164227605E-1,1.102051067E1
4.107697560E-1,-4.848258495E0,8.116343617E-1,1.094868469E1
4.127839160E-1,-4.941632271E0,8.140285611E-1,1.093192482E1
4.147980770E-1,-5.078101635E0,7.948749661E-1,1.094629002E1
4.168122370E-1,-5.209783077E0,7.493851185E-1,1.103248119E1
4.188263970E-1,-5.339069843E0,6.871358752E-1,1.115937424E1
4.208100400E-1,-5.470750809E0,6.320692301E-1,1.130781460E1
4.227936820E-1,-5.590460777E0,5.937620401E-1,1.150413895E1
4.247773250E-1,-5.633556366E0,5.458779931E-1,1.174116516E1
4.267914850E-1,-5.571307182E0,4.788403511E-1,1.198537350E1
4.288056450E-1,-5.434837818E0,4.094084799E-1,1.217212105E1
4.307892880E-1,-5.276820660E0,3.687070608E-1,1.228943729E1
4.327729300E-1,-5.147533417E0,3.591302633E-1,1.238041687E1
4.347565730E-1,-5.023035049E0,3.711012602E-1,1.242590714E1
4.367402150E-1,-4.884171486E0,3.974374831E-1,1.241154194E1
4.387238580E-1,-4.740519524E0,4.429273009E-1,1.232056236E1
4.407075000E-1,-4.613626480E0,4.932055473E-1,1.214817905E1
4.427521780E-1,-4.493916512E0,5.386953950E-1,1.187524033E1
4.447053030E-1,-4.369418144E0,5.817909837E-1,1.154005241E1
4.467194630E-1,-4.240131378E0,6.033388376E-1,1.117134476E1
4.487336240E-1,-4.082113743E0,5.937620401E-1,1.075235939E1
4.507172660E-1,-3.902548790E0,5.363011956E-1,1.025915432E1
4.527009090E-1,-3.732560396E0,4.477157295E-1,9.696516991E0
4.547150690E-1,-3.555389643E0,3.447650373E-1,9.076418877E0
4.566681940E-1,-3.356670856E0,2.346317619E-1,8.422801971E0
4.586823540E-1,-3.165134668E0,1.388636976E-1,7.769184589E0
4.606965140E-1,-2.999934673E0,6.224924326E-2,7.165845871E0
4.627106740E-1,-2.894589901E0,1.915361360E-2,6.639121532E0
4.646943170E-1,-2.899378300E0,2.394201607E-2,6.260837555E0
4.666779590E-1,-3.057395458E0,8.140286058E-2,6.076483727E0
4.686616020E-1,-3.339911461E0,1.675941199E-1,6.007051945E0
4.706757620E-1,-3.737348795E0,2.657563984E-1,5.990292549E0
4.726899220E-1,-4.182670593E0,3.663128614E-1,5.928043365E0
4.747040820E-1,-4.527435303E0,4.836287498E-1,5.789179802E0
4.767182430E-1,-4.747702122E0,6.655880809E-1,5.535394192E0
4.787324030E-1,-4.908113480E0,9.361328483E-1,5.238513470E0
4.807160450E-1,-5.032611847E0,1.278503656E0,5.070919037E0
4.826996880E-1,-5.183446884E0,1.651999116E0,5.133168221E0
4.846833310E-1,-5.456385612E0,2.025494576E0,5.365406036E0
4.866669730E-1,-5.863399982E0,2.331952572E0,5.712565422E0
4.886506160E-1,-6.375759125E0,2.564189911E0,6.088454723E0
4.906647760E-1,-6.931213856E0,2.760514498E0,6.457161903E0
4.926789360E-1,-7.443572998E0,2.906560898E0,6.777985096E0
4.946930960E-1,-7.682993412E0,2.956839085E0,6.861782074E0
4.967072560E-1,-7.539340973E0,2.901772499E0,6.574477673E0
4.987214160E-1,-7.120356083E0,2.789244890E0,5.908889771E0
5.007050590E-1,-6.825869083E0,2.712630510E0,5.231330872E0
5.026887020E-1,-7.022193432E0,2.738966703E0,5.183446884E0
5.046723440E-1,-7.560888767E0,2.817975283E0,5.925649166E0
5.066865040E-1,-8.094796181E0,2.844311714E0,6.995857239E0
5.087006650E-1,-8.410830498E0,2.808398485E0,7.917624950E0
5.107148250E-1,-8.461109161E0,2.712630510E0,8.516175270E0
5.126984670E-1,-8.317456245E0,2.564189911E0,8.918401718E0
5.146821100E-1,-8.056488991E0,2.377442360E0,9.215282440E0
5.166657520E-1,-7.666234016E0,2.159569979E0,9.397241592E0
5.186493950E-1,-7.184999466E0,1.912967205E0,9.519346237E0
5.206330380E-1,-6.627150536E0,1.647210717E0,9.617507935E0
5.226166800E-1,-6.011840343E0,1.357512355E0,9.636661530E0
5.246003230E-1,-5.418078423E0,1.065419793E0,9.667786598E0
5.266144830E-1,-4.836287498E0,8.092401624E-1,9.689333916E0
5.286286430E-1,-4.302380562E0,5.841852427E-1,9.706093788E0
5.306122860E-1,-3.866635799E0,3.902548850E-1,9.825803757E0
5.325959280E-1,-3.524264812E0,2.394201756E-1,9.938331604E0
5.345795710E-1,-3.236960649E0,1.364694983E-1,9.947908401E0
5.365632130E-1,-2.995146275E0,4.788403213E-2,9.943120003E0
5.385773740E-1,-2.817975283E0,-7.900865376E-2,1.000536919E1
5.405610160E-1,-2.638410330E0,-2.226607651E-1,1.001255131E1
5.425751760E-1,-2.468421936E0,-3.519476354E-1,9.931148529E0
5.445588190E-1,-2.315192938E0,-4.429273009E-1,9.832986832E0
5.465424610E-1,-2.200271368E0,-5.003881454E-1,9.763554573E0
5.485566220E-1,-2.121262789E0,-5.147533417E-1,9.710882187E0
5.505402640E-1,-2.056619167E0,-4.860229492E-1,9.646238327E0
5.525544240E-1,-2.013523579E0,-4.309563041E-1,9.543288231E0
5.545685840E-1,-2.011129379E0,-3.734954596E-1,9.385271072E0
5.565827450E-1,-2.056619167E0,-3.256114423E-1,9.184157372E0
5.585969050E-1,-2.092532396E0,-2.513911724E-1,8.968679428E0
5.606110650E-1,-2.147598982E0,-1.843535304E-1,8.829815865E0
5.625947070E-1,-2.226607561E0,-1.364694983E-1,8.765172005E0
5.646088680E-1,-2.329558372E0,-1.268926859E-1,8.710105896E0
5.665925100E-1,-2.427720547E0,-1.149216816E-1,8.643068314E0
5.685761530E-1,-2.535459518E0,-7.182604820E-2,8.609549522E0
5.705597950E-1,-2.705447912E0,-9.576806799E-3,8.599972725E0
5.725739560E-1,-2.920926094E0,7.182604820E-2,8.602366447E0
5.745575980E-1,-3.169923067E0,1.508347094E-1,8.588001251E0
5.765412410E-1,-3.378218651E0,2.370259613E-1,8.480262756E0
5.785554010E-1,-3.603273630E0,3.303998411E-1,8.343792915E0
5.805695610E-1,-3.799597979E0,4.237737060E-1,8.243236542E0
5.825837210E-1,-3.931279182E0,5.291185975E-1,8.180987358E0
5.845673640E-1,-3.983951569E0,6.081272364E-1,8.159439087E0
5.865815240E-1,-3.950432777E0,6.607996821E-1,8.164227486E0
5.885651660E-1,-3.859453201E0,7.015010715E-1,8.195352554E0
5.905793270E-1,-3.720589399E0,7.206547260E-1,8.051700592E0
5.925934870E-1,-3.550601006E0,7.015010715E-1,7.723694801E0
5.946076470E-1,-3.435679436E0,6.488286853E-1,7.546523571E0
5.965912900E-1,-3.414131641E0,5.746083856E-1,7.544129372E0
5.986054500E-1,-3.440467834E0,5.315127969E-1,7.606379032E0
6.006196100E-1,-3.488351822E0,5.746083856E-1,7.704541206E0
6.026337700E-1,-3.550601006E0,6.799532771E-1,7.747636795E0
6.046479300E-1,-3.560178041E0,8.164227605E-1,7.592013359E0
6.066620900E-1,-3.521870613E0,9.983820915E-1,7.290344238E0
6.086762500E-1,-3.464409828E0,1.165976286E0,6.981492043E0
6.106598930E-1,-3.385401249E0,1.230619669E0,6.780379295E0
6.126435360E-1,-3.323152065E0,1.225831270E0,6.627150536E0
6.146576960E-1,-3.325546265E0,1.187524080E0,6.473921299E0
6.166413380E-1,-3.371036053E0,1.067813993E0,6.390124321E0
6.186554990E-1,-3.428496838E0,8.619126081E-1,6.382941723E0
6.206391410E-1,-3.473986626E0,6.177040339E-1,6.471527100E0
6.226533010E-1,-3.517082214E0,4.357447028E-1,6.564900875E0
6.246369440E-1,-3.536235809E0,2.873041928E-1,6.646304131E0
6.266205860E-1,-3.545812607E0,1.891419291E-1,6.818686485E0
6.286042290E-1,-3.488351822E0,1.268926859E-1,7.151480675E0
6.305878720E-1,-3.394978046E0,1.268926859E-1,7.505822182E0
6.326020320E-1,-3.327940464E0,1.795651317E-1,7.752425194E0
6.346161920E-1,-3.277662039E0,2.729389966E-1,7.943961143E0
6.366303520E-1,-3.210624456E0,4.070142806E-1,8.216899872E0
6.386445120E-1,-3.208230257E0,6.081272364E-1,8.463502884E0
6.406586720E-1,-3.263296843E0,8.451532125E-1,8.616731644E0
6.426728320E-1,-3.349488258E0,1.070208192E0,8.760383606E0
6.446869930E-1,-3.459621429E0,1.266532660E0,8.913613319E0
6.466706350E-1,-3.586514235E0,1.443703651E0,8.992621422E0
6.486542780E-1,-3.742137194E0,1.606509328E0,9.028534889E0
6.506379200E-1,-3.943250179E0,1.762132406E0,8.954314232E0
6.526520810E-1,-4.175487995E0,1.912967205E0,8.796297073E0
6.546357230E-1,-4.383783340E0,2.001552582E0,8.731653214E0
6.566193660E-1,-4.577713490E0,2.066195965E0,8.669404030E0
6.586335260E-1,-4.807557106E0,2.118868589E0,8.571242332E0
6.606476860E-1,-5.054159641E0,2.152387381E0,8.492233276E0
6.626618460E-1,-5.276820660E0,2.173935175E0,8.497021675E0
6.646454890E-1,-5.485116005E0,2.178723574E0,8.609549522E0
6.666291310E-1,-5.667075634E0,2.176329374E0,8.760383606E0
6.686432910E-1,-5.820304394E0,2.140416384E0,8.911218643E0
6.706574520E-1,-5.918466568E0,2.066195965E0,9.059659004E0
6.726716120E-1,-5.911283970E0,1.972822189E0,9.224859238E0
6.746857720E-1,-5.789179802E0,1.865083098E0,9.373299599E0
6.766694150E-1,-5.578489780E0,1.721431017E0,9.459490776E0
6.786835750E-1,-5.204994678E0,1.532289028E0,9.078812599E0
6.806672170E-1,-4.714183331E0,1.321599364E0,8.573636055E0
6.826508600E-1,-4.209006786E0,1.084573388E0,8.410830498E0
6.846345020E-1,-3.715801001E0,7.829039693E-1,8.446743965E0
6.866181450E-1,-3.193865061E0,4.716577232E-1,8.518569946E0
6.886017880E-1,-2.645592928E0,1.987187415E-1,8.717288017E0
6.906159480E-1,-2.140416384E0,-5.985504389E-2,8.983044624E0
6.926301080E-1,-1.651999116E0,-2.896983922E-1,9.184157372E0
6.946137500E-1,-1.173158884E0,-4.836287498E-1,9.361329079E0
6.965973930E-1,-6.919242740E-1,-6.655880809E-1,9.485827446E0
6.985810360E-1,-2.370259613E-1,-8.331822157E-1,9.629479408E0
7.005646780E-1,1.316810995E-1,-9.888052940E-1,9.761159897E0
7.025483210E-1,3.878606856E-1,-1.151610970E0,9.861717224E0
7.045624810E-1,5.243301988E-1,-1.307234168E0,1.002691650E1
7.065461240E-1,6.296750307E-1,-1.412579060E0,1.016817474E1
7.085297660E-1,7.230489254E-1,-1.465251446E0,1.022802925E1
7.105134090E-1,6.919242740E-1,-1.515529633E0,1.040520096E1
7.124970510E-1,5.817909837E-1,-1.575384736E0,1.058955383E1
7.144806940E-1,5.099649429E-1,-1.592144132E0,1.067095661E1
7.164643360E-1,3.902548850E-1,-1.596932530E0,1.077630138E1
7.184784970E-1,2.202665508E-1,-1.599326730E0,1.089361763E1
7.204926570E-1,3.591302410E-2,-1.594538331E0,1.097980881E1
7.225068170E-1,-1.580173075E-1,-1.608903527E0,1.107318306E1
7.245209770E-1,-3.256114423E-1,-1.604115129E0,1.114740276E1
7.265046200E-1,-5.123591423E-1,-1.577778935E0,1.125035381E1
7.284882620E-1,-7.445967197E-1,-1.563413739E0,1.143470764E1
7.304719050E-1,-9.552865028E-1,-1.529894829E0,1.161906052E1
7.324860650E-1,-1.108515382E0,-1.458068848E0,1.173398209E1
7.344697070E-1,-1.256955862E0,-1.374271750E0,1.181538582E1
7.364533500E-1,-1.388636947E0,-1.261744261E0,1.185848141E1
7.384675100E-1,-1.484405041E0,-1.127668977E0,1.182017422E1
7.404816700E-1,-1.563413739E0,-1.003170490E0,1.168609810E1
7.424958310E-1,-1.642422318E0,-8.930372596E-1,1.147540855E1
7.444794730E-1,-1.735796213E0,-8.283938169E-1,1.123838234E1
7.464936330E-1,-1.853112102E0,-8.020575643E-1,1.099178028E1
7.484772760E-1,-1.956062794E0,-7.876923680E-1,1.071405220E1
7.504914360E-1,-2.039859772E0,-7.852981687E-1,1.042435455E1
7.525055960E-1,-2.085349798E0,-7.948749661E-1,1.012029076E1
7.545197560E-1,-2.082955360E0,-8.140285611E-1,9.813833237E0
7.565033990E-1,-2.044648170E0,-8.403648138E-1,9.519346237E0
7.585175590E-1,-1.977610588E0,-8.714894056E-1,9.294290543E0
7.605317190E-1,-1.869871497E0,-9.026140571E-1,9.081207275E0
7.625458790E-1,-1.742978811E0,-9.265560508E-1,8.894459724E0
7.645600400E-1,-1.623268723E0,-9.241618514E-1,8.781931877E0
7.665742000E-1,-1.534683347E0,-9.528923035E-1,8.676587105E0
7.685883600E-1,-1.544260144E0,-1.034295082E0,8.592789650E0
7.705720020E-1,-1.606509328E0,-1.110909581E0,8.571242332E0
7.725556450E-1,-1.632845521E0,-1.170764685E0,8.547300339E0
7.745698050E-1,-1.594538331E0,-1.206677675E0,8.482656479E0
7.765534480E-1,-1.503558636E0,-1.206677675E0,8.499416351E0
7.785370900E-1,-1.388636947E0,-1.177947283E0,8.573636055E0
7.805512500E-1,-1.266532660E0,-1.144428372E0,8.621520042E0
7.825654110E-1,-1.175553083E0,-1.134851575E0,8.650250435E0
7.845490530E-1,-1.146822572E0,-1.113303781E0,8.738836288E0
7.865326960E-1,-1.146822572E0,-1.106121182E0,8.769960403E0
7.885163380E-1,-1.115697980E0,-1.127668977E0,8.810662270E0
7.905304990E-1,-1.058237195E0,-1.173158884E0,8.865729332E0
7.925446590E-1,-9.864110947E-1,-1.240196466E0,8.875306129E0
7.945588190E-1,-8.427590132E-1,-1.331176162E0,8.961497307E0
7.965729790E-1,-5.793967843E-1,-1.453280449E0,9.217676163E0
7.985566220E-1,-2.274491638E-1,-1.596932530E0,9.603142738E0
8.005707820E-1,1.484405100E-1,-1.728613615E0,1.004846478E1
8.025544240E-1,4.620809257E-1,-1.829170108E0,1.047223854E1
8.045380670E-1,7.206547260E-1,-1.874659896E0,1.085291672E1
8.065522270E-1,9.169792533E-1,-1.877054095E0,1.118331623E1
8.085663870E-1,1.082179189E0,-1.865083098E0,1.148019695E1
8.105805470E-1,1.197100878E0,-1.848323703E0,1.171482849E1
8.125641900E-1,1.247379065E0,-1.802833915E0,1.186566353E1
8.145478320E-1,1.256955862E0,-1.731007814E0,1.193030739E1
8.165314750E-1,1.158793569E0,-1.668758631E0,1.191115379E1
8.185151180E-1,9.576807022E-1,-1.611297727E0,1.183932781E1
8.204987600E-1,7.015010715E-1,-1.549048543E0,1.171243477E1
8.225129200E-1,4.237737060E-1,-1.484405041E0,1.154962921E1
8.244965630E-1,1.580173075E-1,-1.412579060E0,1.138442898E1
8.264802060E-1,-1.101332754E-1,-1.340752959E0,1.123359394E1
8.284943660E-1,-3.926490843E-1,-1.292868972E0,1.110909557E1
8.304780080E-1,-6.751648784E-1,-1.259350061E0,1.100853920E1
8.324921680E-1,-9.074024558E-1,-1.199495077E0,1.091277122E1
8.345063290E-1,-1.106121182E0,-1.127668977E0,1.078827286E1
8.364899710E-1,-1.309628367E0,-1.046266198E0,1.063025570E1
8.385041310E-1,-1.529894829E0,-9.911994934E-1,1.043393135E1
8.405182910E-1,-1.702277422E0,-9.385270476E-1,1.022324085E1
8.425324520E-1,-1.874659896E0,-8.930372596E-1,1.003170490E1
8.445466120E-1,-2.027888775E0,-8.714894056E-1,9.828198433E0
8.465302540E-1,-2.135627985E0,-8.643068075E-1,9.615114212E0
8.485138970E-1,-2.200271368E0,-8.307880163E-1,9.404424667E0
8.504975400E-1,-2.255337954E0,-7.757213712E-1,9.184157372E0
8.524811820E-1,-2.279279947E0,-7.326257229E-1,8.932766914E0
8.544953420E-1,-2.248155355E0,-6.943184733E-1,8.674192429E0
8.564789850E-1,-2.221819162E0,-6.727706790E-1,8.458714485E0
8.584931450E-1,-2.193088770E0,-6.536170840E-1,8.250418663E0
8.605073050E-1,-2.008735180E0,-6.344634295E-1,7.979874134E0
8.624909480E-1,-1.491587639E0,-8.044517636E-1,7.781155586E0
8.644440730E-1,-1.240196466E0,-8.068459630E-1,7.790732384E0
8.664582330E-1,-1.146822572E0,-6.775590777E-1,7.759607792E0
8.684723930E-1,-8.690952063E-1,-6.200982332E-1,7.606379032E0
8.704865530E-1,-4.237737060E-1,-5.841852427E-1,7.486668587E0
8.724701960E-1,6.703764945E-2,-4.932055473E-1,7.534552574E0
8.744538380E-1,4.979939461E-1,-4.237737060E-1,7.773972988E0
8.764374810E-1,8.020575643E-1,-3.950432837E-1,8.046912193E0
8.784211240E-1,9.337386489E-1,-3.854664862E-1,8.257601738E0
8.803742490E-1,8.930372596E-1,-3.615244627E-1,8.437167168E0
8.823884090E-1,7.661445141E-1,-3.112462163E-1,8.576030731E0
8.843720510E-1,6.560112834E-1,-2.681505978E-1,8.657433510E0
8.863862110E-1,6.105214357E-1,-3.232172430E-1,8.698134422E0
8.884003720E-1,5.315127969E-1,-4.333505034E-1,8.741230011E0
8.903840140E-1,3.256114423E-1,-4.932055473E-1,8.743624687E0
8.923676570E-1,1.963245422E-1,-5.602431893E-1,8.700529099E0
8.943512990E-1,2.466027737E-1,-6.368576288E-1,8.614337921E0
8.963349420E-1,3.950432837E-1,-7.302315235E-1,8.556877136E0
8.983185840E-1,5.530605912E-1,-8.259995580E-1,8.588001251E0
9.003022270E-1,7.182605267E-1,-9.074024558E-1,8.655038834E0
9.023163870E-1,8.690952063E-1,-9.672574997E-1,8.736441612E0
9.043000300E-1,9.600749016E-1,-1.010353088E0,8.829815865E0
9.062836720E-1,9.911994934E-1,-1.036689281E0,8.930372238E0
9.082673150E-1,9.983820915E-1,-1.036689281E0,8.999804497E0
9.102509570E-1,1.005564690E0,-1.010353088E0,9.018958092E0
9.122651180E-1,1.024718285E0,-9.792284966E-1,9.011775017E0
9.142792780E-1,1.070208192E0,-9.409212470E-1,8.961497307E0
9.162629200E-1,1.137245774E0,-9.193734527E-1,8.839392662E0
9.182770810E-1,1.170764685E0,-9.169792533E-1,8.695740700E0
9.202912410E-1,1.161187768E0,-9.265560508E-1,8.609549522E0
9.222748830E-1,1.192312479E0,-9.050082564E-1,8.489839554E0
9.242890430E-1,1.216254473E0,-8.619126081E-1,8.360552788E0
9.262726860E-1,1.201889277E0,-8.259995580E-1,8.240841866E0
9.282563290E-1,1.156399369E0,-7.972691655E-1,8.049305916E0
9.302399710E-1,1.101332784E0,-7.589619160E-1,7.857769966E0
9.322541310E-1,1.017535686E0,-7.182605267E-1,7.692570210E0
9.342377740E-1,9.050082564E-1,-6.727706790E-1,7.592013359E0
9.362214160E-1,7.374141216E-1,-6.488286853E-1,7.505822182E0
9.382355770E-1,4.979939461E-1,-6.631938815E-1,7.450755596E0
9.402497370E-1,2.801215947E-1,-7.062895298E-1,7.529764175E0
9.422638970E-1,4.309562966E-2,-6.991068721E-1,7.632715225E0
9.442475400E-1,-2.920926213E-1,-6.320692301E-1,7.682993412E0
9.462311820E-1,-6.344634295E-1,-6.200982332E-1,7.721300602E0
9.482453420E-1,-9.289502501E-1,-6.512228847E-1,7.776367188E0
9.502289850E-1,-1.161187768E0,-6.631938815E-1,7.896077156E0
9.522431450E-1,-1.331176162E0,-6.129156351E-1,8.113949776E0
9.542573050E-1,-1.422155857E0,-5.363011956E-1,8.334216118E0
9.562714650E-1,-1.398213744E0,-4.716577232E-1,8.506598473E0
9.582856250E-1,-1.233013868E0,-4.453215301E-1,8.683769226E0
9.602997860E-1,-9.433154464E-1,-4.572925270E-1,8.894459724E0
9.622834280E-1,-5.746083856E-1,-5.027823448E-1,9.157821655E0
9.642975880E-1,-1.604115069E-1,-5.817909837E-1,9.406818390E0
9.662812310E-1,2.920926213E-1,-6.943184733E-1,9.603142738E0
9.682648740E-1,8.068459630E-1,-7.996633649E-1,9.825803757E0
9.702790340E-1,1.278503656E0,-9.074024558E-1,1.008677197E1
9.722931940E-1,1.680729628E0,-1.024718285E0,1.035492229E1
9.742768360E-1,2.018311977E0,-1.161187768E0,1.068053341E1
9.762604790E-1,2.315192938E0,-1.309628367E0,1.098699188E1
9.782746390E-1,2.633621931E0,-1.450886250E0,1.124317074E1
9.802887990E-1,2.935291290E0,-1.601720929E0,1.152808094E1
9.823029590E-1,3.181894064E0,-1.762132406E0,1.189918232E1
9.842866020E-1,3.394978046E0,-1.896207690E0,1.235886955E1
9.862702450E-1,3.531447411E0,-2.013523579E0,1.284728622E1
9.882844050E-1,3.658340216E0,-2.102109194E0,1.330457878E1
9.902985650E-1,3.921702385E0,-2.157175779E0,1.375229454E1
9.923127250E-1,5.013458252E0,-2.111685991E0,1.405875206E1
9.942963680E-1,6.940790653E0,-2.135627985E0,1.400847435E1
9.962800100E-1,8.403648376E0,-2.322375536E0,1.376905441E1
9.982636530E-1,8.185775757E0,-2.583343744E0,1.352723980E1
1.000247295E0,7.395689011E0,-2.779668093E0,1.322078133E1
1.002230938E0,7.060500622E0,-2.832340717E0,1.283770943E1
1.004214581E0,6.931213856E0,-2.758120298E0,1.245942593E1
1.006198223E0,6.567295074E0,-2.604891539E0,1.223437023E1
1.008212383E0,5.985504150E0,-2.391807556E0,1.226549530E1
1.010196026E0,5.386953831E0,-2.126051188E0,1.247379112E1
1.012179668E0,4.869806290E0,-1.850717902E0,1.267250919E1
1.014163311E0,4.402936935E0,-1.587355733E0,1.275391293E1
1.016146954E0,4.024652958E0,-1.362300754E0,1.264138508E1
1.018130596E0,3.746925592E0,-1.142034173E0,1.231816769E1
1.020144756E0,3.507505417E0,-9.169792533E-1,1.177468395E1
1.022158916E0,3.294421434E0,-7.015010715E-1,1.111627865E1
1.024142559E0,3.074155092E0,-4.932055473E-1,1.044829655E1
1.026126202E0,2.851494312E0,-2.777273953E-1,9.830592155E0
1.028140362E0,2.609679937E0,-4.309562966E-2,9.303867340E0
1.030124004E0,2.367865562E0,2.082955539E-1,8.906430244E0
1.032138165E0,2.111685991E0,5.051765442E-1,8.523358345E0
1.034152325E0,1.673547029E0,9.457096457E-1,7.960720539E0
1.036166485E0,1.304839969E0,1.343147159E0,7.438784599E0
1.038180645E0,1.333570361E0,1.513135433E0,7.266402245E0
1.040194805E0,1.723825216E0,1.462857246E0,7.331045628E0
1.042178448E0,2.075772762E0,1.383848548E0,7.364564419E0
1.044162090E0,2.298433542E0,1.410184860E0,7.182605267E0
1.046176250E0,2.355894566E0,1.520318031E0,6.792350292E0
1.048190411E0,2.346317768E0,1.637633920E0,6.361393929E0
1.050174053E0,2.410961151E0,1.711854219E0,5.884947777E0
1.052157696E0,2.360682964E0,1.764526606E0,5.463568211E0
1.054141338E0,2.221819162E0,1.812410712E0,5.173870087E0
1.056124981E0,2.111685991E0,1.838746905E0,4.898536682E0
1.058108624E0,1.896207690E0,1.874659896E0,4.702212334E0
1.060092266E0,1.695094824E0,1.908178806E0,4.539406300E0
1.062106426E0,1.477222443E0,1.948880196E0,4.388571739E0
1.064090069E0,1.204283476E0,1.999158382E0,4.304774761E0
1.066073711E0,8.978256583E-1,2.047042370E0,4.328716755E0
1.068057354E0,6.991068721E-1,2.054224968E0,4.429273129E0
1.070071514E0,6.033388376E-1,2.025494576E0,4.510675907E0
1.072055157E0,5.027823448E-1,2.008735180E0,4.630385876E0
1.074069317E0,4.668693244E-1,1.994369984E0,4.757278919E0
1.076052959E0,5.267243981E-1,1.977610588E0,4.821922302E0
1.078067120E0,5.985504389E-1,1.968033791E0,4.826710701E0
1.080081280E0,6.631938815E-1,1.963245392E0,4.826710701E0
1.082095440E0,8.212111592E-1,1.941697598E0,4.833893299E0
1.084109600E0,1.084573388E0,1.896207690E0,4.814739704E0
1.086123760E0,1.376665950E0,1.831564307E0,4.812345505E0
1.088137920E0,1.745373011E0,1.750161409E0,4.836287498E0
1.090121563E0,2.142810583E0,1.661576033E0,4.876988888E0
1.092105206E0,2.564189911E0,1.568202138E0,4.932055473E0
1.094088848E0,2.992752075E0,1.462857246E0,4.958391666E0
1.096072491E0,3.366247654E0,1.352723956E0,4.984727859E0
1.098086651E0,3.703830004E0,1.252167463E0,5.001487255E0
1.100100811E0,3.991134167E0,1.154005170E0,5.025429249E0
1.102114971E0,4.213795185E0,1.051054597E0,5.078101635E0
1.104098614E0,4.388571739E0,9.600749016E-1,5.176264286E0
1.106082256E0,4.532223701E0,8.930372596E-1,5.312733650E0
1.108096416E0,4.668693542E0,8.355764151E-1,5.461174011E0
1.110110577E0,4.807557106E0,7.781155705E-1,5.607220173E0
1.112094219E0,4.958391666E0,7.254431248E-1,5.750872612E0
1.114108379E0,5.109226227E0,6.703764796E-1,5.884947777E0
1.116122540E0,5.252878666E0,6.320692301E-1,5.992686749E0
1.118136700E0,5.391742229E0,6.129156351E-1,6.105214119E0
1.120150860E0,5.523423195E0,6.153098345E-1,6.217741966E0
1.122165020E0,5.645527840E0,6.320692301E-1,6.349422932E0
1.124179180E0,5.762843609E0,6.584054828E-1,6.500257492E0
1.126162823E0,5.875370979E0,6.919242740E-1,6.665457726E0
1.128146465E0,5.973533154E0,7.350199223E-1,6.837840080E0
1.130130108E0,6.081272125E0,7.996633649E-1,6.988674641E0
1.132144268E0,6.203376770E0,8.571242094E-1,7.105990410E0
1.134127911E0,6.320692539E0,9.074024558E-1,7.199364662E0
1.136111553E0,6.433219910E0,9.672574997E-1,7.287950039E0
1.138125713E0,6.569689274E0,1.031900883E0,7.381323814E0
1.140139874E0,6.720524311E0,1.079784989E0,7.474697590E0
1.142154034E0,6.883329868E0,1.098938584E0,7.556100368E0
1.144137676E0,7.070077419E0,1.072602391E0,7.625532627E0
1.146121319E0,7.259219646E0,9.792284966E-1,7.716512203E0
1.148104961E0,7.390900612E0,8.188169599E-1,7.860164165E0
1.150119122E0,7.414842606E0,5.865794420E-1,8.073247910E0
1.152133282E0,7.333439827E0,2.777273953E-1,8.346187592E0
1.154147442E0,7.141903877E0,-8.858546615E-2,8.671798706E0
1.156161602E0,6.835445881E0,-4.955997467E-1,9.064447403E0
1.158175762E0,6.260837555E0,-1.079784989E0,9.765948296E0
1.160189922E0,5.839457989E0,-1.448492050E0,1.025675964E1
1.162204082E0,5.377377033E0,-1.800439715E0,1.074757099E1
1.164218243E0,4.958391666E0,-2.080561161E0,1.121922874E1
1.166201885E0,4.608838081E0,-2.329558372E0,1.165497398E1
1.168216045E0,4.316745758E0,-2.549824715E0,1.202846909E1
1.170199688E0,4.007893562E0,-2.858676910E0,1.234450436E1
1.172213848E0,3.663128614E0,-3.224989653E0,1.260547161E1
1.174228008E0,3.411737442E0,-3.588908434E0,1.281616211E1
1.176242168E0,3.234566450E0,-3.979163170E0,1.295981407E1
1.178256329E0,3.165134668E0,-4.264073372E0,1.301727486E1
1.180239971E0,3.179499865E0,-4.501099110E0,1.297896767E1
1.182223614E0,3.177105665E0,-4.726154327E0,1.286883450E1
1.184207256E0,3.198653460E0,-4.898536682E0,1.270602798E1
1.186221416E0,3.335123062E0,-4.996698856E0,1.251928043E1
1.188235577E0,3.603273630E0,-5.003881454E0,1.229662037E1
1.190219219E0,3.955221176E0,-4.953603268E0,1.203086376E1
1.192202862E0,4.350264549E0,-4.872200489E0,1.172440529E1
1.194186504E0,4.781220913E0,-4.764461517E0,1.137485218E1
1.196170147E0,5.231330872E0,-4.642356873E0,1.097980881E1
1.198184307E0,5.679046631E0,-4.508281708E0,1.057518864E1
1.200167950E0,6.131550789E0,-4.371812344E0,1.015141487E1
1.202212627E0,6.581660271E0,-4.225766182E0,9.696516991E0
1.204196270E0,7.019799232E0,-4.050989151E0,9.248801231E0
1.206210430E0,7.450755596E0,-3.857059002E0,8.834604263E0
1.208224590E0,7.857769966E0,-3.670311213E0,8.470685959E0
1.210208233E0,8.236053467E0,-3.476380825E0,8.164227486E0
1.212191875E0,8.566453934E0,-3.272873640E0,7.934384346E0
1.214175518E0,8.863334656E0,-3.071760893E0,7.776367188E0
1.216159161E0,9.227252960E0,-2.894589901E0,7.560888767E0
1.218173321E0,9.646238327E0,-2.712630510E0,7.247248650E0
1.220156963E0,1.010592556E1,-2.533065319E0,6.888118267E0
1.222171124E0,1.057997704E1,-2.343923569E0,6.545747280E0
1.224154766E0,1.107797146E1,-2.147598982E0,6.291962147E0
1.226138409E0,1.164300251E1,-1.965639591E0,6.050147533E0
1.228122051E0,1.219606304E1,-1.814804912E0,5.772420406E0
1.230105694E0,1.266772079E1,-1.695094824E0,5.468356609E0
1.232119854E0,1.303403378E1,-1.608903527E0,5.161899090E0
1.234134014E0,1.332612705E1,-1.539471745E0,4.884171486E0
1.236148174E0,1.356554699E1,-1.493981838E0,4.651933670E0
1.238131817E0,1.377144814E1,-1.484405041E0,4.469974518E0
1.240145977E0,1.396777248E1,-1.513135433E0,4.319139957E0
1.242129620E0,1.413297272E1,-1.568202138E0,4.230554581E0
1.244143780E0,1.425268269E1,-1.644816518E0,4.216189384E0
1.246127422E0,1.434366226E1,-1.735796213E0,4.228160381E0
1.248141582E0,1.435084534E1,-1.831564307E0,4.268861771E0
1.250125225E0,1.424071217E1,-1.920149803E0,4.386177540E0
1.252108868E0,1.402283955E1,-1.999158382E0,4.618414879E0
1.254092510E0,1.372356415E1,-2.066195965E0,4.939238071E0
1.256076153E0,1.339076996E1,-2.126051188E0,5.286397457E0
1.258059795E0,1.303882217E1,-2.181117773E0,5.626373768E0
1.260073956E0,1.266532707E1,-2.224213362E0,5.966350555E0
1.262088116E0,1.227986050E1,-2.255337954E0,6.279991150E0
1.264071758E0,1.190636539E1,-2.267308950E0,6.557718277E0
1.266055401E0,1.155202293E1,-2.252943754E0,6.809109688E0
1.268069561E0,1.121683502E1,-2.226607561E0,7.036558628E0
1.270053204E0,1.089601231E1,-2.178723574E0,7.242460251E0
1.272067364E0,1.059673691E1,-2.106897593E0,7.422025204E0
1.274081524E0,1.032619190E1,-2.027888775E0,7.558494568E0
1.276095684E0,1.008677197E1,-1.948880196E0,7.647080421E0
1.278109844E0,9.888052940E0,-1.860294700E0,7.659051418E0
1.280124004E0,9.718064308E0,-1.766920805E0,7.647080421E0
1.282107647E0,9.576807022E0,-1.663970232E0,7.642292023E0
1.284091290E0,9.478644371E0,-1.541865945E0,7.642292023E0
1.286074932E0,9.416395187E0,-1.403002143E0,7.620744228E0
1.288058575E0,9.339780807E0,-1.249773264E0,7.568071365E0
1.290072735E0,9.241618156E0,-1.094150186E0,7.496245384E0
1.292056377E0,9.124302864E0,-9.433154464E-1,7.424419403E0
1.294070538E0,8.997409821E0,-7.900865674E-1,7.357381821E0
1.296054180E0,8.882488251E0,-6.200982332E-1,7.292738438E0
1.298068340E0,8.798690796E0,-4.429273009E-1,7.235277653E0
1.300082500E0,8.753201485E0,-2.801215947E-1,7.182605267E0
1.302096661E0,8.726864815E0,-1.221042871E-1,7.125144482E0
1.304080303E0,8.712499619E0,4.070143029E-2,7.070077419E0
1.306094463E0,8.700529099E0,1.987187415E-1,7.029376030E0
1.308078106E0,8.681375504E0,3.591302633E-1,7.000645638E0
1.310092266E0,8.647856712E0,5.075707436E-1,7.007828236E0
1.312106426E0,8.614337921E0,6.320692301E-1,7.043741226E0
1.314120586E0,8.621520042E0,7.326257229E-1,7.082048416E0
1.316104229E0,8.678980827E0,8.116343617E-1,7.105990410E0
1.318118389E0,8.779537201E0,8.738836050E-1,7.132327080E0
1.320132549E0,8.927978516E0,9.074024558E-1,7.146692276E0
1.322116192E0,9.095572472E0,8.906430602E-1,7.127538681E0
1.324099834E0,9.253589630E0,8.212111592E-1,7.065289021E0
1.326083477E0,9.366117477E0,7.038952708E-1,6.962338448E0
1.328067120E0,9.394847870E0,5.339069963E-1,6.845022678E0
1.330081280E0,9.315838814E0,2.825157940E-1,6.651092529E0
1.332095440E0,9.109937668E0,-6.703764945E-2,6.351817131E0
1.334109600E0,8.932766914E0,-4.884171486E-1,6.028599739E0
1.336123760E0,8.908824921E0,-8.906430602E-1,5.813121796E0
1.338137920E0,9.021351814E0,-1.201889277E0,5.817910194E0
1.340121563E0,9.196128845E0,-1.426944256E0,6.033388138E0
1.342105206E0,9.351752281E0,-1.589749932E0,6.356605530E0
1.344088848E0,9.433155060E0,-1.697489023E0,6.672640324E0
1.346103008E0,9.428366661E0,-1.764526606E0,6.943184853E0
1.348117168E0,9.368511200E0,-1.807622313E0,7.146692276E0
1.350131329E0,9.275136948E0,-1.831564307E0,7.287950039E0
1.352114971E0,9.174580574E0,-1.845929503E0,7.374141216E0
1.354098614E0,9.088389397E0,-1.860294700E0,7.417236805E0
1.356082256E0,9.023746490E0,-1.867477298E0,7.426813602E0
1.358065899E0,9.009381294E0,-1.869871497E0,7.395689011E0
1.360080059E0,9.071630478E0,-1.860294700E0,7.328651428E0
1.362063702E0,9.227252960E0,-1.831564307E0,7.232883453E0
1.364047344E0,9.476250648E0,-1.776497602E0,7.117961884E0
1.366061504E0,9.785101891E0,-1.697489023E0,7.000645638E0
1.368075665E0,1.012747288E1,-1.611297727E0,6.890512466E0
1.370059307E0,1.046266174E1,-1.525106430E0,6.782773495E0
1.372042950E0,1.075714779E1,-1.438915253E0,6.653486729E0
1.374026592E0,1.098220348E1,-1.350329757E0,6.485892296E0
1.376010235E0,1.113064384E1,-1.259350061E0,6.279991150E0
1.377993877E0,1.118570995E1,-1.180341482E0,6.066906929E0
1.379977520E0,1.118092155E1,-1.130063176E0,5.849034786E0
1.381991680E0,1.111627865E1,-1.086967587E0,5.638344765E0
1.383975323E0,1.101093388E1,-1.048660398E0,5.451597214E0
1.385958965E0,1.090558910E1,-1.012747288E0,5.291185856E0
1.387942608E0,1.080503273E1,-9.720458984E-1,5.164293289E0
1.389926250E0,1.071405220E1,-9.361328483E-1,5.051765442E0
1.391940411E0,1.062307262E1,-9.002198577E-1,4.946420670E0
1.393954571E0,1.051533413E1,-8.571242094E-1,4.853046894E0
1.395938213E0,1.038844109E1,-8.044517636E-1,4.752490520E0
1.397952374E0,1.023760605E1,-7.469909191E-1,4.666299343E0
1.399966534E0,1.006282997E1,-6.799532771E-1,4.608838081E0
1.401980694E0,9.871294022E0,-6.129156351E-1,4.572925091E0
1.403994854E0,9.651026726E0,-5.626373887E-1,4.544194698E0
1.406009014E0,9.423578262E0,-5.363011956E-1,4.513070107E0
1.408023174E0,9.217676163E0,-5.195417404E-1,4.479551315E0
1.410006817E0,9.042900085E0,-5.291185975E-1,4.443638325E0
1.411990459E0,8.911218643E0,-5.578489900E-1,4.402936935E0
1.413974102E0,8.822632790E0,-6.129156351E-1,4.357447147E0
1.415957745E0,8.762778282E0,-6.895300746E-1,4.299986362E0
1.417971905E0,8.714894295E0,-7.661445141E-1,4.235342979E0
1.419955547E0,8.683769226E0,-8.475474119E-1,4.180276394E0
1.421969707E0,8.676587105E0,-9.217676520E-1,4.141968727E0
1.423953350E0,8.683769226E0,-9.864110947E-1,4.125209332E0
1.425936993E0,8.726864815E0,-1.046266198E0,4.122815132E0
1.427951153E0,8.789113998E0,-1.108515382E0,4.129997730E0
1.429965313E0,8.863334656E0,-1.156399369E0,4.141968727E0
1.431948956E0,8.923190117E0,-1.213860273E0,4.163516521E0
1.433963116E0,8.954314232E0,-1.276109457E0,4.182670593E0
1.435946758E0,8.971074104E0,-1.335964561E0,4.204218388E0
1.437960918E0,8.990227699E0,-1.414973259E0,4.232948780E0
1.439975079E0,9.018958092E0,-1.491587639E0,4.268861771E0
1.441958721E0,9.050082207E0,-1.556231141E0,4.311957359E0
1.443942364E0,9.093177795E0,-1.594538331E0,4.364629745E0
1.445926006E0,9.143456459E0,-1.630451322E0,4.424484730E0
1.447909649E0,9.210494041E0,-1.625662923E0,4.493916512E0
1.449923809E0,9.313444138E0,-1.563413739E0,4.560954094E0
1.451907452E0,9.440337181E0,-1.453280449E0,4.625597477E0
1.453921612E0,9.574412346E0,-1.292868972E0,4.704606533E0
1.455905254E0,9.737217903E0,-1.082179189E0,4.824316502E0
1.457919415E0,9.955090523E0,-8.140285611E-1,5.011064053E0
1.459933575E0,1.023760605E1,-4.716577232E-1,5.286397457E0
1.461947735E0,1.054406452E1,-1.125274822E-1,5.638344765E0
1.463931377E0,1.080503273E1,1.532289088E-1,6.021417141E0
1.465945538E0,1.109951878E1,3.902548850E-1,6.390124321E0
1.467929180E0,1.145625496E1,7.062895298E-1,6.655880928E0
1.469943340E0,1.184890461E1,9.528923035E-1,6.801927090E0
1.471957500E0,1.211944866E1,9.361328483E-1,6.789956093E0
1.473971661E0,1.220324612E1,7.038952708E-1,6.639121532E0
1.475955303E0,1.229662037E1,6.129156351E-1,6.368576527E0
1.477969463E0,1.241154194E1,7.350199223E-1,6.038176537E0
1.479983624E0,1.241633034E1,8.595184088E-1,5.714959621E0
1.481997784E0,1.231816769E1,9.409212470E-1,5.386953831E0
1.484011944E0,1.218888092E1,9.744400978E-1,4.979939461E0
1.485995586E0,1.200692177E1,9.864110947E-1,4.517858505E0
1.487979229E0,1.180341434E1,1.029506683E0,4.053383350E0
1.489962872E0,1.163821411E1,1.185129881E0,3.622427225E0
1.491977032E0,1.143710136E1,1.386242747E0,3.282450438E0
1.493991192E0,1.115219116E1,1.515529633E0,3.071760893E0
1.496005352E0,1.082897472E1,1.537077546E0,2.913743496E0
1.498019512E0,1.051054573E1,1.489193439E0,2.741360903E0
1.500033672E0,1.021845245E1,1.426944256E0,2.566584110E0
1.502047832E0,9.945513725E0,1.369483352E0,2.413355350E0
1.504031475E0,9.667786598E0,1.326387763E0,2.319981337E0
1.506015118E0,9.373299599E0,1.302445769E0,2.305616140E0
1.508029278E0,9.078812599E0,1.283292055E0,2.351106167E0
1.510012920E0,8.805873871E0,1.264138460E0,2.432508945E0
1.512027081E0,8.556877136E0,1.249773264E0,2.528276920E0
1.514041241E0,8.322244644E0,1.228225470E0,2.592920542E0
1.516055401E0,8.121131897E0,1.201889277E0,2.626439333E0
1.518069561E0,7.951143742E0,1.175553083E0,2.633621931E0
1.520083721E0,7.800309181E0,1.134851575E0,2.628833532E0
1.522097881E0,7.687781811E0,1.082179189E0,2.640804529E0
1.524112041E0,7.611167431E0,1.027112484E0,2.655169725E0
1.526095684E0,7.580042362E0,9.864110947E-1,2.652775526E0
1.528079327E0,7.592013359E0,9.648633003E-1,2.640804529E0
1.530062969E0,7.625532627E0,9.552865028E-1,2.633621931E0
1.532046612E0,7.673416615E0,9.744400978E-1,2.597708941E0
1.534030254E0,7.699752808E0,1.015141487E0,2.552218914E0
1.536013897E0,7.723694801E0,1.070208192E0,2.504334927E0
1.538028057E0,7.738059998E0,1.132457376E0,2.461239338E0
1.540042217E0,7.733271599E0,1.204283476E0,2.418143749E0
1.542056377E0,7.730877399E0,1.295263171E0,2.382230759E0
1.544040020E0,7.726089001E0,1.398213744E0,2.363077164E0
1.546023663E0,7.716512203E0,1.522712231E0,2.375048161E0
1.548037823E0,7.704541206E0,1.668758631E0,2.427720547E0
1.550021465E0,7.697358608E0,1.819593310E0,2.501940727E0
1.552035625E0,7.709329605E0,1.956062794E0,2.576161146E0
1.554049786E0,7.750030994E0,2.085349798E0,2.619256735E0
1.556033428E0,7.836222172E0,2.195482969E0,2.609679937E0
1.558047588E0,7.963114738E0,2.279279947E0,2.554613113E0
1.560061749E0,8.113949776E0,2.341529369E0,2.458845139E0
1.562075909E0,8.283937454E0,2.394201756E0,2.331952572E0
1.564090069E0,8.465897560E0,2.430114746E0,2.185906172E0
1.566104229E0,8.655038834E0,2.430114746E0,2.032677174E0
1.568118389E0,8.841787338E0,2.401384354E0,1.903390408E0
1.570102032E0,9.006986618E0,2.370259762E0,1.802833915E0
1.572085674E0,9.160215378E0,2.324769735E0,1.742978811E0
1.574069317E0,9.289502144E0,2.260126352E0,1.735796213E0
1.576052959E0,9.394847870E0,2.190694571E0,1.783680320E0
1.578067120E0,9.469067574E0,2.118868589E0,1.869871497E0
1.580050762E0,9.514557838E0,2.039859772E0,1.984793186E0
1.582064922E0,9.540893555E0,1.963245392E0,2.126051188E0
1.584048565E0,9.552865028E0,1.889025092E0,2.293645144E0
1.586032207E0,9.567230225E0,1.843535304E0,2.482787132E0
1.588015850E0,9.598354340E0,1.824381709E0,2.671929121E0
1.590030010E0,9.653421402E0,1.817199111E0,2.832340717E0
1.592013653E0,9.730035782E0,1.826775908E0,2.968810081E0
1.594027813E0,9.813833237E0,1.838746905E0,3.071760893E0
1.596011456E0,9.892841339E0,1.855506301E0,3.134010077E0
1.598025616E0,9.981427193E0,1.865083098E0,3.177105665E0
1.600039776E0,1.008437729E1,1.874659896E0,3.220201254E0
1.602053936E0,1.020648193E1,1.874659896E0,3.248931646E0
1.604068096E0,1.034295177E1,1.853112102E0,3.265691042E0
1.606051739E0,1.050575733E1,1.819593310E0,3.256114244E0
1.608035381E0,1.067574501E1,1.802833915E0,3.205836058E0
1.610019024E0,1.083615685E1,1.790862918E0,3.114856482E0
1.612002666E0,1.096783829E1,1.781286120E0,2.999934673E0
1.614016827E0,1.107797146E1,1.829170108E0,2.832340717E0
1.615969952E0,1.114500904E1,1.922544003E0,2.626439333E0
1.617984112E0,1.116416264E1,1.980004787E0,2.466027737E0
1.619998272E0,1.116416264E1,1.999158382E0,2.334346771E0
1.622012432E0,1.117373943E1,2.068590164E0,2.154781580E0
1.623996075E0,1.114979744E1,2.224213362E0,1.889025092E0
1.625979717E0,1.109951878E1,2.389413357E0,1.582567334E0
1.627963360E0,1.105642319E1,2.473210335E0,1.240196466E0
1.629977520E0,1.101332760E1,2.516305923E0,8.427590132E-1
1.631991680E0,1.098699188E1,2.604891539E0,4.692635238E-1
1.634005840E0,1.085531044E1,2.674323320E0,1.675941199E-1
1.635989483E0,1.066616821E1,2.700659513E0,-1.388636976E-1
1.638003643E0,1.044111347E1,2.628833532E0,-2.777273953E-1
1.640017803E0,1.021366405E1,2.485181332E0,-1.699883193E-1
1.642031963E0,1.001015759E1,2.365471363E0,-1.532289088E-1
1.644046124E0,9.842563629E0,2.205059767E0,-9.097966552E-2
1.646029766E0,9.662998199E0,2.035071373E0,5.027823523E-2
1.648013409E0,9.435548782E0,1.905784607E0,2.657563984E-1
1.650027569E0,9.148244858E0,1.833958507E0,5.602431893E-1
1.652011211E0,8.853757858E0,1.757344007E0,9.457096457E-1
1.654025372E0,8.576030731E0,1.680729628E0,1.395819545E0
1.656009014E0,8.362946510E0,1.671152830E0,1.819593310E0
1.658023174E0,8.192957878E0,1.742978811E0,2.190694571E0
1.660037334E0,8.015787125E0,1.855506301E0,2.523488522E0
1.662051495E0,7.809885979E0,1.987187386E0,2.796427488E0
1.664035137E0,7.666234016E0,2.126051188E0,3.011905670E0
1.666049297E0,7.582436562E0,2.224213362E0,3.155557871E0
1.668063457E0,7.443572998E0,2.387019157E0,3.208230257E0
1.670047100E0,7.122750282E0,2.734178305E0,3.181894064E0
1.672061260E0,6.866570473E0,3.016694069E0,3.117250681E0
1.674075420E0,6.837840080E0,3.110068083E0,3.047818661E0
1.676089581E0,6.888118267E0,3.145981073E0,3.007117271E0
1.678103741E0,6.926425457E0,3.215412855E0,3.002328873E0
1.680117901E0,6.957550049E0,3.320757866E0,3.011905670E0
1.682132061E0,6.998251438E0,3.418920040E0,3.026270866E0
1.684146221E0,7.065289021E0,3.495534420E0,3.055001259E0
1.686129864E0,7.125144482E0,3.593696833E0,3.110068083E0
1.688113506E0,7.213729858E0,3.670311213E0,3.174711466E0
1.690097149E0,7.319074631E0,3.715801001E0,3.244143248E0
1.692111309E0,7.429207802E0,3.744531393E0,3.311181068E0
1.694125469E0,7.563282967E0,3.763684988E0,3.373430252E0
1.696078594E0,7.718906403E0,3.773261786E0,3.421314240E0
1.698092754E0,7.845798969E0,3.792415380E0,3.452438831E0
1.700106915E0,7.939172745E0,3.785232782E0,3.469198227E0
1.702121075E0,8.032546997E0,3.734954596E0,3.469198227E0
1.704104717E0,8.130708694E0,3.648763418E0,3.462015629E0
1.706088360E0,8.228871346E0,3.519476414E0,3.457227230E0
1.708072002E0,8.317456245E0,3.359065056E0,3.435679436E0
1.710086163E0,8.408436775E0,3.169923067E0,3.387795448E0
1.712100323E0,8.506598473E0,2.954444885E0,3.339911461E0
1.714114483E0,8.604761124E0,2.729389906E0,3.306392431E0
1.716098125E0,8.690952301E0,2.509123325E0,3.282450438E0
1.718112286E0,8.753201485E0,2.286462545E0,3.275267839E0
1.720126446E0,8.779537201E0,2.099714994E0,3.294421434E0
1.722140606E0,8.779537201E0,1.944091797E0,3.332728863E0
1.724154766E0,8.762778282E0,1.826775908E0,3.371036053E0
1.726168926E0,8.714894295E0,1.723825216E0,3.397372246E0
1.728183086E0,8.597578049E0,1.594538331E0,3.383007050E0
1.730166729E0,8.453926086E0,1.513135433E0,3.373430252E0
1.732150372E0,8.312667847E0,1.484405041E0,3.378218651E0
1.734134014E0,8.171410561E0,1.472434044E0,3.397372246E0
1.736087139E0,8.025363922E0,1.467645645E0,3.428496838E0
1.738101299E0,7.874529362E0,1.458068848E0,3.452438831E0
1.740115459E0,7.740454197E0,1.462857246E0,3.464409828E0
1.742129620E0,7.627926826E0,1.484405041E0,3.454833031E0
1.744113262E0,7.544129372E0,1.517923832E0,3.423708439E0
1.746127422E0,7.508216381E0,1.556231141E0,3.411737442E0
1.748141582E0,7.563282967E0,1.606509328E0,3.454833031E0
1.750125225E0,7.733271599E0,1.659181833E0,3.576937437E0
1.752139385E0,7.996633530E0,1.714248419E0,3.761290789E0
1.754153545E0,8.336610794E0,1.776497602E0,3.967192173E0
1.756167706E0,8.734047890E0,1.848323703E0,4.129997730E0
1.758181866E0,9.162610054E0,1.944091797E0,4.213795185E0
1.760196026E0,9.598354340E0,2.047042370E0,4.209006786E0
1.762179668E0,1.014423275E1,2.061407566E0,4.122815132E0
1.764193829E0,1.089601231E1,1.884236693E0,3.983951569E0
1.766177471E0,1.155920601E1,1.656787634E0,3.861847401E0
1.768161114E0,1.200692177E1,1.544260144E0,3.792415380E0
1.770175274E0,1.230140877E1,1.546654344E0,3.754108191E0
1.772158916E0,1.245703125E1,1.637633920E0,3.761290789E0
1.774173077E0,1.249294472E1,1.776497602E0,3.809175014E0
1.776187237E0,1.244506073E1,1.915361404E0,3.866635799E0
1.778201397E0,1.238281155E1,2.001552582E0,3.892971992E0
1.780215557E0,1.229422569E1,2.023100376E0,3.816357613E0
1.782229717E0,1.225831223E1,1.948880196E0,3.675099611E0
1.784213360E0,1.222958183E1,1.903390408E0,3.586514235E0
1.786197002E0,1.208832455E1,1.800439715E0,3.323152065E0
1.788211163E0,1.195903778E1,1.786074519E0,3.153163671E0
1.790225323E0,1.189678860E1,1.695094824E0,2.973598480E0
1.792239483E0,1.189678860E1,1.558625340E0,2.798821688E0
1.794253643E0,1.182496262E1,1.513135433E0,2.686294317E0
1.796237286E0,1.179623222E1,1.422155857E0,2.597708941E0
1.798220928E0,1.179144382E1,1.302445769E0,2.530671120E0
1.800204571E0,1.171722317E1,1.266532660E0,2.492363930E0
1.802188213E0,1.159990692E1,1.309628367E0,2.458845139E0
1.804171856E0,1.154723454E1,1.340752959E0,2.444479942E0
1.806155499E0,1.145864964E1,1.400607944E0,2.382230759E0
1.808169659E0,1.138442898E1,1.462857246E0,2.224213362E0
1.810153301E0,1.137006378E1,1.484405041E0,2.173935175E0
1.812136944E0,1.137485218E1,1.515529633E0,2.109291792E0
1.814120586E0,1.144667816E1,1.541865945E0,1.996764183E0
1.816104229E0,1.156399441E1,1.570596337E0,1.884236693E0
1.818118389E0,1.173398209E1,1.587355733E0,1.771709204E0
1.820102032E0,1.193748951E1,1.587355733E0,1.654393315E0
1.822085674E0,1.215775585E1,1.587355733E0,1.544260144E0
1.824069317E0,1.235647488E1,1.592144132E0,1.462857246E0
1.826083477E0,1.252646351E1,1.594538331E0,1.417367458E0
1.828097637E0,1.262941360E1,1.628057122E0,1.362300754E0
1.830111797E0,1.262701988E1,1.678335428E0,1.280897856E0
1.832095440E0,1.255279922E1,1.663970232E0,1.276109457E0
1.834079082E0,1.238759995E1,1.635239720E0,1.295263171E0
1.836032207E0,1.210268974E1,1.628057122E0,1.312022567E0
1.838046368E0,1.173158836E1,1.628057122E0,1.333570361E0
1.840030010E0,1.135569859E1,1.589749932E0,1.391031146E0
1.842013653E0,1.093192482E1,1.568202138E0,1.446097851E0
1.843997295E0,1.044111347E1,1.611297727E0,1.446097851E0
1.845980938E0,9.923966408E0,1.719036818E0,1.395819545E0
1.847995098E0,9.418789864E0,1.862688899E0,1.316810966E0
1.849978741E0,8.968679428E0,1.991975784E0,1.233013868E0
1.851992901E0,8.597578049E0,2.032677174E0,1.223437071E0
1.854007061E0,8.125920296E0,2.193088770E0,1.144428372E0
1.856021221E0,7.663839817E0,2.439691544E0,8.762778044E-1
1.858035381E0,7.343016624E0,2.602497339E0,6.512228847E-1
1.860019024E0,7.103596210E0,2.703053713E0,5.770025849E-1
1.862002666E0,6.938396454E0,2.772485495E0,5.698199868E-1
1.863986309E0,6.885724068E0,2.786850691E0,7.206547260E-1
1.866000469E0,6.866570473E0,2.885013103E0,8.140285611E-1
1.868014629E0,6.871358871E0,3.102885485E0,6.679822803E-1
1.870028790E0,6.943184853E0,3.339911461E0,5.195417404E-1
1.872012432E0,7.132327080E0,3.488351822E0,4.908113480E-1
1.873996075E0,7.338228226E0,3.634398222E0,3.830722570E-1
1.875979717E0,7.551311970E0,3.785232782E0,1.843535304E-1
1.877963360E0,7.759607792E0,3.904942989E0,-1.675941236E-2
1.879947002E0,7.888894558E0,4.103661537E0,-2.226607651E-1
1.881930645E0,7.951143742E0,4.367023945E0,-4.165911078E-1
1.883914288E0,8.039729118E0,4.546588898E0,-5.817909837E-1
1.885928448E0,8.152256966E0,4.589684486E0,-6.895300746E-1
1.887912090E0,8.281543732E0,4.556165695E0,-7.278373241E-1
1.889926250E0,8.394071579E0,4.534617901E0,-7.134721279E-1
1.891909893E0,8.403648376E0,4.666299343E0,-7.493851185E-1
1.893893536E0,8.362946510E0,4.865017891E0,-7.541735172E-1
1.895877178E0,8.389283180E0,4.958391666E0,-7.158663273E-1
1.897860821E0,8.485051155E0,4.948814869E0,-6.584054828E-1
1.899844463E0,8.583212852E0,4.874594688E0,-5.674257874E-1
1.901828106E0,8.628703117E0,4.783615112E0,-4.165911078E-1
1.903811749E0,8.640673637E0,4.654327869E0,-2.226607651E-1
1.905795391E0,8.595184326E0,4.489128113E0,-2.394201607E-2
1.907779034E0,8.497021675E0,4.311957359E0,1.699883193E-1
1.909762676E0,8.367734909E0,4.137180328E0,3.495534360E-1
1.911776836E0,8.228871346E0,3.979163170E0,5.027823448E-1
1.913790997E0,8.094796181E0,3.837905407E0,6.129156351E-1
1.915805157E0,7.963114738E0,3.749319792E0,6.751648784E-1
1.917819317E0,7.826645374E0,3.667917013E0,6.823474765E-1
1.919833477E0,7.702147007E0,3.579331636E0,6.177040339E-1
1.921847637E0,7.599195957E0,3.469198227E0,5.003881454E-1
1.923861797E0,7.520187378E0,3.335123062E0,3.663128614E-1
1.925845440E0,7.467514992E0,3.174711466E0,2.442085743E-1
1.927829082E0,7.433996201E0,2.985569477E0,1.484405100E-1
1.929812725E0,7.414842606E0,2.767697096E0,9.097966552E-2
1.931796368E0,7.431602001E0,2.564189911E0,-1.197100803E-2
1.933810528E0,7.445967197E0,2.367865562E0,-8.140286058E-2
1.935763653E0,7.438784599E0,2.190694571E0,-4.548983276E-2
1.937777813E0,7.455543995E0,2.039859772E0,3.830722719E-2
1.939791973E0,7.510610580E0,1.898601890E0,1.412578970E-1
1.941806133E0,7.642292023E0,1.810016513E0,2.011129409E-1
1.943789776E0,7.817068577E0,1.802833915E0,1.795651317E-1
1.945773418E0,8.058882713E0,1.788468719E0,1.699883193E-1
1.947787579E0,8.386888504E0,1.733402014E0,1.987187415E-1
1.949771221E0,8.805873871E0,1.663970232E0,2.585737705E-1
1.951785381E0,9.232041359E0,1.551442742E0,3.854664862E-1
1.953799541E0,9.612719536E0,1.453280449E0,5.027823448E-1
1.955783184E0,9.943120003E0,1.403002143E0,5.817909837E-1
1.957797344E0,1.024478912E1,1.359906554E0,6.847416759E-1
1.959811504E0,1.046505547E1,1.364694953E0,7.852981687E-1
1.961825665E0,1.061589050E1,1.448492050E0,8.212111592E-1
1.963839825E0,1.081700325E1,1.534683347E0,8.762778044E-1
1.965823467E0,1.106121159E1,1.551442742E0,9.289502501E-1
1.967807110E0,1.130542088E1,1.515529633E0,9.528923035E-1
1.969821270E0,1.153286934E1,1.546654344E0,9.935936928E-1
1.971804913E0,1.172919369E1,1.680729628E0,1.024718285E0
1.973819073E0,1.184411621E1,1.865083098E0,1.027112484E0
1.975833233E0,1.178426075E1,2.212242365E0,9.792284966E-1
1.977847393E0,1.176750088E1,2.523488522E0,9.265560508E-1
1.979861553E0,1.176510715E1,2.844311714E0,8.379706144E-1
1.981845196E0,1.174834728E1,3.227383852E0,6.895300746E-1
1.983859356E0,1.178426075E1,3.588908434E0,5.315127969E-1
1.985842999E0,1.173398209E1,3.974374771E0,3.088520169E-1
1.987857159E0,1.153047562E1,4.450820923E0,3.591302410E-2
1.989871319E0,1.114740276E1,4.927267075E0,-1.987187415E-1
1.991885479E0,1.065180302E1,5.341464043E0,-6.224924326E-1
1.993869122E0,1.052969933E1,5.363011837E0,-8.259995580E-1
1.995852764E0,1.036928749E1,5.224148273E0,-1.288080573E0
1.997836407E0,1.020887566E1,5.056553841E0,-1.632845521E0
1.999820049E0,9.955090523E0,4.967968464E0,-1.845929503E0
2.001803692E0,9.612719536E0,4.867412090E0,-1.984793186E0
2.003787334E0,9.222464561E0,4.776432514E0,-2.032677174E0
2.005770977E0,8.896853447E0,4.637568474E0,-2.025494576E0
2.007785137E0,8.645462036E0,4.453215122E0,-1.960851192E0
2.009799297E0,8.379706383E0,4.280832767E0,-1.867477298E0
2.011813457E0,8.092401505E0,4.110844135E0,-1.788468719E0
2.013827618E0,7.831433773E0,4.000710964E0,-1.699883223E0
2.015841778E0,7.489062786E0,3.921702385E0,-1.491587639E0
2.017825420E0,7.369352818E0,3.926490784E0,-1.417367458E0
2.019809063E0,7.225700855E0,3.811569214E0,-1.285686255E0
2.021762188E0,7.225700855E0,3.617638826E0,-1.134851575E0
2.023776348E0,7.283161640E0,3.478775024E0,-8.714894056E-1
2.025790508E0,7.304709435E0,3.418920040E0,-5.291185975E-1
2.027804668E0,7.366958618E0,3.452438831E0,-1.651999205E-1
2.029788311E0,7.467514992E0,3.478775024E0,1.699883193E-1
2.031771954E0,7.575253963E0,3.447650433E0,4.046200812E-1
2.033755596E0,7.644686222E0,3.462015629E0,5.530605912E-1
2.035739239E0,7.678205013E0,3.560178041E0,6.871358752E-1
2.037722881E0,7.723694801E0,3.732560396E0,8.762778044E-1
2.039706524E0,7.721300602E0,3.919308186E0,1.048660398E0
2.041690166E0,7.642292023E0,4.048594952E0,1.132457376E0
2.043673809E0,7.510610580E0,4.089296341E0,1.137245774E0
2.045657452E0,7.395689011E0,4.106055737E0,1.072602391E0
2.047671612E0,7.311892033E0,4.185064793E0,9.672574997E-1
2.049655254E0,7.266402245E0,4.307168961E0,9.265560508E-1
2.051638897E0,7.199364662E0,4.412513733E0,9.217676520E-1
2.053622540E0,7.151480675E0,4.496310711E0,9.193734527E-1
2.055606182E0,7.113173485E0,4.548983097E0,9.289502501E-1
2.057589825E0,7.060500622E0,4.618414879E0,9.457096457E-1
2.059603985E0,6.995857239E0,4.687847137E0,9.457096457E-1
2.061618145E0,6.969521046E0,4.709394932E0,9.050082564E-1
2.063601788E0,7.007828236E0,4.668693542E0,8.164227605E-1
2.065585430E0,7.074865818E0,4.560954094E0,7.134721279E-1
2.067599590E0,7.110779285E0,4.510675907E0,6.727706790E-1
2.069583233E0,7.048529625E0,4.623203278E0,6.895300746E-1
2.071597393E0,7.017405033E0,4.721365929E0,6.943184733E-1
2.073611553E0,7.017405033E0,4.721365929E0,7.158663273E-1
2.075625713E0,6.938396454E0,4.687847137E0,7.613561153E-1
2.077639874E0,6.840234280E0,4.644751072E0,7.565677166E-1
2.079654034E0,6.801927090E0,4.477157116E0,6.129156351E-1
2.081637676E0,6.797138691E0,4.194641590E0,4.118026793E-1
2.083651836E0,6.830657482E0,3.811569214E0,2.011129409E-1
2.085635479E0,6.995857239E0,3.196259260E0,-4.070143029E-2
2.087619122E0,7.165845871E0,2.705447912E0,-1.101332754E-1
2.089602764E0,7.242460251E0,2.528276920E0,1.221042871E-1
2.091586407E0,7.261613846E0,2.410961151E0,3.615244627E-1
2.093600567E0,7.405265808E0,2.109291792E0,5.027823448E-1
2.095614727E0,7.750030994E0,1.630451322E0,5.746083856E-1
2.097628887E0,8.207323074E0,1.321599364E0,7.709329724E-1
2.099643047E0,8.573636055E0,1.182735682E0,1.000776291E0
2.101626690E0,8.748413086E0,1.149216771E0,1.151610970E0
2.103640850E0,8.990227699E0,1.209071875E0,1.304839969E0
2.105624493E0,9.504981041E0,1.268926859E0,1.383848548E0
2.107638653E0,1.018493366E1,1.309628367E0,1.355118155E0
2.109652813E0,1.082658005E1,1.223437071E0,1.204283476E0
2.111666973E0,1.129344940E1,1.091755986E0,9.313444495E-1
2.113681133E0,1.162863731E1,1.036689281E0,7.422025204E-1
2.115664776E0,1.184890461E1,1.029506683E0,6.655880809E-1
2.117678936E0,1.199973869E1,1.005564690E0,6.177040339E-1
2.119662579E0,1.214099693E1,1.106121182E0,6.560112834E-1
2.121646221E0,1.236844635E1,1.340752959E0,7.374141216E-1
2.123629864E0,1.254561710E1,1.685518026E0,8.451532125E-1
2.125613506E0,1.267490387E1,2.123656988E0,8.738836050E-1
2.127597149E0,1.282334423E1,2.545036316E0,6.512228847E-1
2.129611309E0,1.300769806E1,2.892195702E0,2.394201756E-1
2.131594952E0,1.315135002E1,3.189076662E0,-1.508347094E-1
2.133578594E0,1.318726254E1,3.485957623E0,-3.878606856E-1
2.135562237E0,1.291911221E1,4.017470360E0,-6.224924326E-2
2.137545879E0,1.226549530E1,4.903325081E0,6.248866320E-1
2.139529522E0,1.154723454E1,5.963956356E0,1.022324085E0
2.141543682E0,1.101811600E1,7.089231014E0,1.161187768E0
2.143527325E0,1.089601231E1,7.965508938E0,9.959878922E-1
2.145510967E0,1.111149025E1,8.470685959E0,6.009446383E-1
2.147494610E0,1.153286934E1,8.645462036E0,1.436521020E-2
2.149508770E0,1.193030739E1,8.726864815E0,-4.596867263E-1
2.151492413E0,1.218648624E1,8.832210541E0,-9.361328483E-1
2.153506573E0,1.238041687E1,8.935160637E0,-1.288080573E0
2.155520733E0,1.247857952E1,9.083600998E0,-1.582567334E0
2.157534893E0,1.231337929E1,9.301473618E0,-1.972822189E0
2.159549053E0,1.190875912E1,9.569623947E0,-2.365471363E0
2.161563213E0,1.141794777E1,9.818621635E0,-2.501940727E0
2.163577374E0,1.092713642E1,9.976638794E0,-2.341529369E0
2.165561016E0,1.051772785E1,1.003649330E1,-1.932120800E0
2.167544659E0,1.018253994E1,9.995792389E0,-1.395819545E0
2.169528301E0,9.672574997E0,9.825803757E0,-1.127668977E0
2.171511944E0,8.995016098E0,9.567230225E0,-1.165976286E0
2.173495586E0,8.456320763E0,9.277531624E0,-1.180341482E0
2.175479229E0,8.164227486E0,9.016563416E0,-1.079784989E0
2.177493389E0,8.015787125E0,8.755595207E0,-9.576807022E-1
2.179507549E0,7.872135162E0,8.480262756E0,-9.864110947E-1
2.181460674E0,7.702147007E0,8.243236542E0,-1.187524080E0
2.183474834E0,7.405265808E0,8.070854187E0,-1.458068848E0
2.185488995E0,6.974309444E0,7.934384346E0,-1.697489023E0
2.187472637E0,6.497863293E0,7.826645374E0,-1.786074519E0
2.189456280E0,6.045359135E0,7.733271599E0,-1.680729628E0
2.191439922E0,5.791574001E0,7.613561630E0,-1.319205165E0
2.193423565E0,5.602431774E0,7.484274387E0,-7.445967197E-1
2.195407207E0,5.293580055E0,7.328651428E0,-2.825157940E-1
2.197421368E0,4.934449673E0,7.168240070E0,-3.830722719E-2
2.199405010E0,4.568136692E0,7.127538681E0,3.184288144E-1
2.201388653E0,4.244919777E0,7.196970463E0,5.913678408E-1
2.203372295E0,3.924096584E0,7.153874874E0,4.572925270E-1
2.205355938E0,3.730166197E0,7.038952827E0,2.274491638E-1
2.207309063E0,3.454833031E0,7.077260017E0,2.394201756E-1
2.209323223E0,3.093308687E0,7.208941460E0,7.661445439E-2
2.211337383E0,3.093308687E0,7.228095055E0,-9.337386489E-2
2.213351543E0,3.196259260E0,7.290344238E0,1.556231081E-1
2.215365704E0,3.478775024E0,7.290344238E0,5.554547906E-1
2.217349346E0,3.725377798E0,7.163451672E0,6.009446383E-1
2.219332989E0,3.718195200E0,7.089231014E0,3.782838583E-1
2.221316631E0,3.785232782E0,7.058106422E0,8.858546615E-2
2.223330791E0,3.617638826E0,7.077260017E0,-4.525041282E-1
2.225314434E0,3.371036053E0,7.127538681E0,-9.169792533E-1
2.227298077E0,3.794809580E0,7.053318024E0,-8.116343617E-1
2.229281719E0,4.477157116E0,6.902483463E0,-2.370259613E-1
2.231295879E0,4.831499100E0,6.742072105E0,4.788403399E-3
2.233279522E0,4.967968464E0,6.655880928E0,-3.830722719E-2
2.235263165E0,5.125985622E0,6.679822922E0,1.915361360E-2
2.237277325E0,5.398924828E0,6.694188118E0,1.604115069E-1
2.239291485E0,5.566518784E0,6.663063526E0,6.703764945E-2
2.241305645E0,5.667075634E0,6.607996464E0,-1.915361285E-1
2.243319805E0,5.789179802E0,6.562506676E0,-3.208230138E-1
2.245303448E0,5.853823185E0,6.531382084E0,-3.375824392E-1
2.247287090E0,5.872976780E0,6.466738701E0,-4.022258818E-1
2.249270733E0,5.968744755E0,6.387730122E0,-3.280056417E-1
2.251254375E0,6.045359135E0,6.294356346E0,-1.723825186E-1
2.253268536E0,6.100425720E0,6.181828976E0,7.900865376E-2
2.255221661E0,6.184223175E0,5.961562157E0,3.758896589E-1
2.257235821E0,6.409277916E0,5.714959621E0,6.512228847E-1
2.259249981E0,6.706159115E0,5.528211594E0,8.882488012E-1
2.261264141E0,6.902483463E0,5.415684223E0,1.173158884E0
2.263247784E0,6.924031258E0,5.374982834E0,1.446097851E0
2.265261944E0,6.794744492E0,5.377377033E0,1.431732655E0
2.267276104E0,6.435614109E0,5.453991413E0,1.187524080E0
2.269290264E0,6.045359135E0,5.612008572E0,9.864110947E-1
2.271273907E0,5.796362400E0,5.743690014E0,9.840168953E-1
2.273257549E0,5.702988625E0,5.865794182E0,1.115697980E0
2.275241192E0,5.633556366E0,6.050147533E0,1.323993564E0
2.277224834E0,5.588066578E0,6.203376770E0,1.608903527E0
2.279208477E0,5.643133640E0,6.279991150E0,1.836352706E0
2.281192120E0,5.580883980E0,6.354211330E0,1.936909199E0
2.283175762E0,5.360617638E0,6.433219910E0,1.987187386E0
2.285189922E0,5.331887245E0,6.399701118E0,1.948880196E0
2.287204082E0,5.307945251E0,6.363788128E0,2.049436569E0
2.289187725E0,5.015852451E0,6.500257492E0,2.406172752E0
2.291171368E0,4.716577530E0,6.682217121E0,2.712630510E0
2.293155010E0,4.659116745E0,6.751648903E0,2.798821688E0
2.295138653E0,4.800374508E0,6.682217121E0,2.710236311E0
2.297122295E0,5.260061264E0,6.452373505E0,2.501940727E0
2.299136456E0,5.671864033E0,6.179434776E0,2.372653961E0
2.301120098E0,5.777208805E0,6.047753334E0,2.449268341E0
2.303103741E0,5.616796970E0,6.062118530E0,2.612074137E0
2.305087383E0,5.346252441E0,6.165069580E0,2.796427488E0
2.307071026E0,5.149928093E0,6.246472359E0,2.899378300E0
2.309085186E0,4.896142483E0,6.366182327E0,2.983175278E0
2.311099346E0,4.826710701E0,6.351817131E0,3.045424461E0
2.313113506E0,4.666299343E0,6.291962147E0,3.143586874E0
2.315127666E0,4.407725334E0,6.256049156E0,3.210624456E0
2.317141827E0,4.218583584E0,6.253654957E0,3.076549292E0
2.319155987E0,4.374206543E0,6.162675381E0,2.703053713E0
2.321139629E0,4.709394932E0,5.987898350E0,2.375048161E0
2.323153790E0,4.903325081E0,5.872976780E0,2.336740971E0
2.325137432E0,4.888959885E0,5.877765179E0,2.442085743E0
2.327121075E0,4.728548527E0,6.078877926E0,2.585737944E0
2.329104717E0,4.469974518E0,6.447585106E0,2.729389906E0
2.331118877E0,4.364629745E0,6.679822922E0,2.729389906E0
2.333102520E0,4.486733913E0,6.663063526E0,2.487575531E0
2.335086163E0,4.745307922E0,6.564900875E0,2.097320795E0
2.337100323E0,4.948814869E0,6.607996464E0,1.831564307E0
2.339114483E0,4.948814869E0,6.830657482E0,1.774103403E0
2.341128643E0,4.848258495E0,7.055712223E0,1.788468719E0
2.343142803E0,4.836287498E0,7.158663273E0,1.817199111E0
2.345126446E0,4.953603268E0,7.151480675E0,1.910573006E0
2.347140606E0,5.032611847E0,7.098807812E0,2.013523579E0
2.349154766E0,5.008669853E0,7.127538681E0,1.939303398E0
2.351168926E0,4.774038315E0,7.398083210E0,1.625662923E0
2.353183086E0,4.544194698E0,7.788338184E0,1.101332784E0
2.355166729E0,4.594472885E0,7.970297337E0,7.517793179E-1
2.357180889E0,4.766855717E0,7.922413349E0,4.644751251E-1
2.359195049E0,4.821922302E0,7.783549786E0,1.987187415E-1
2.361178692E0,4.714183331E0,7.699752808E0,4.788403399E-3
2.363192852E0,4.666299343E0,7.685387611E0,-3.830722719E-2
2.365176495E0,4.647145271E0,7.644686222E0,1.292868853E-1
2.367160137E0,4.608838081E0,7.501033783E0,3.854664862E-1
2.369143780E0,4.661510944E0,7.309497833E0,6.679822803E-1
2.371127422E0,4.953603268E0,7.048529625E0,8.188169599E-1
2.373141582E0,5.252878666E0,6.847416878E0,8.427590132E-1
2.375155743E0,5.367800236E0,6.840234280E0,8.283938169E-1
2.377169903E0,5.291185856E0,6.871358871E0,9.241618514E-1
2.379184063E0,5.456385612E0,6.861782074E0,1.094150186E0
2.381137188E0,5.810727596E0,6.744466305E0,1.197100878E0
2.383151348E0,6.145915985E0,6.488286495E0,1.187524080E0
2.385165508E0,6.169857979E0,6.342240334E0,1.223437071E0
2.387179668E0,6.131550789E0,6.153098583E0,1.484405041E0
2.389163311E0,6.433219910E0,5.573701382E0,1.881842494E0
2.391146954E0,7.220912457E0,4.695029736E0,1.970427990E0
2.393130596E0,7.951143742E0,4.103661537E0,1.783680320E0
2.395114239E0,8.099584579E0,4.074931145E0,1.759738207E0
2.397097881E0,7.783549786E0,4.388571739E0,2.097320795E0
2.399112041E0,7.182605267E0,4.680664539E0,2.578555346E0
2.401095684E0,6.514622688E0,5.066130638E0,2.743755102E0
2.403079327E0,5.748478413E0,5.930437565E0,2.932897091E0
2.405093487E0,5.015852451E0,7.175422668E0,2.947262287E0
2.407107647E0,4.438849926E0,8.298302650E0,2.542642117E0
2.409121807E0,4.158728123E0,8.410830498E0,1.735796213E0
2.411105450E0,3.682282209E0,7.070077419E0,8.810662031E-1
2.413089092E0,3.117250681E0,6.090848923E0,8.140285611E-1
2.415072735E0,2.803610086E0,6.325480938E0,6.967126727E-1
2.417056377E0,2.379836559E0,7.192182064E0,6.129156351E-1
2.419040020E0,1.728613615E0,8.209717751E0,1.000776291E0
2.421023663E0,1.106121182E0,9.014169693E0,1.659181833E0
2.423007305E0,1.070208192E0,9.399636269E0,2.207453966E0
2.424990948E0,2.659958124E0,9.117119789E0,1.984793186E0
2.426974590E0,4.388571739E0,8.702922821E0,1.489193439E0
2.428988750E0,3.881000996E0,9.607931137E0,2.336740971E0
2.431002911E0,2.772485495E0,1.144188976E1,1.838746905E0
2.433017071E0,2.070984364E0,1.257913589E1,6.464344859E-1
2.435000713E0,1.836352706E0,1.246181965E1,-5.674257874E-1
2.437014874E0,1.821987510E0,1.190875912E1,-1.436521053E0
2.439029034E0,2.300827742E0,1.139400578E1,-2.047042370E0
2.441012676E0,2.899378300E0,1.122401714E1,-2.410961151E0
2.443026836E0,3.404554844E0,1.131978607E1,-2.549824715E0
2.445010479E0,3.976768970E0,1.148738003E1,-2.679111719E0
2.446994122E0,4.994304657E0,1.140597725E1,-2.918531895E0
2.449008282E0,6.083666325E0,1.105642319E1,-3.052607059E0
2.451022442E0,6.622362137E0,1.032140350E1,-3.335123062E0
2.453006084E0,6.739677906E0,9.138668060E0,-3.797203779E0
2.454989727E0,6.667851925E0,8.025363922E0,-3.881000996E0
2.456973370E0,6.648698330E0,7.237671852E0,-3.670311213E0
2.458957012E0,6.828263283E0,7.082048416E0,-3.134010077E0
2.460940655E0,7.371747017E0,7.383718014E0,-2.406172752E0
2.462924297E0,7.850587368E0,7.910442352E0,-1.659181833E0
2.464907940E0,7.910442352E0,8.465897560E0,-1.048660398E0
2.466922100E0,7.845798969E0,8.956708908E0,-7.038952708E-1
2.468905743E0,7.484274387E0,9.296685219E0,-7.110779285E-1
2.470919903E0,7.096413612E0,9.203310966E0,-1.048660398E0
2.472934063E0,6.756437302E0,9.117119789E0,-1.359906554E0
2.474917706E0,6.440402508E0,9.258378029E0,-1.596932530E0
2.476931866E0,6.145915985E0,9.428366661E0,-1.759738207E0
2.478946026E0,6.030993938E0,9.425971985E0,-1.927332401E0
2.480960186E0,5.935225964E0,9.284713745E0,-2.193088770E0
2.482974346E0,5.760449409E0,9.112331390E0,-2.391807556E0
2.484957989E0,5.521028996E0,8.911218643E0,-2.377442360E0
2.486941631E0,5.341464043E0,8.544905663E0,-2.087743998E0
2.488925274E0,5.535394192E0,7.903259754E0,-1.668758631E0
2.490908916E0,6.136339188E0,7.316680431E0,-1.400607944E0
2.492892559E0,6.931213856E0,7.098807812E0,-1.256955862E0
2.494876202E0,7.836222172E0,6.955155849E0,-8.403648138E-1
2.496890362E0,9.083600998E0,6.770802498E0,-4.405331016E-1
2.498904522E0,1.002691650E1,6.591237068E0,-2.178723514E-1
2.500918682E0,1.055364132E1,6.483498096E0,-3.351882473E-2
2.502902325E0,1.082179165E1,6.509834290E0,5.985504389E-2
2.504916485E0,1.106839466E1,6.526593685E0,-3.830722719E-2
2.506930645E0,1.113543224E1,6.481103897E0,-2.585737705E-1
2.508944805E0,1.103726959E1,6.459556103E0,-5.506663918E-1
2.510958965E0,1.070208168E1,6.524199486E0,-8.355764151E-1
2.512942608E0,9.864110947E0,6.885724068E0,-1.110909581E0
2.514926250E0,9.102754593E0,7.235277653E0,-1.288080573E0
2.516909893E0,9.078812599E0,7.084442616E0,-1.218648672E0
2.518893536E0,8.995016098E0,6.967126846E0,-1.321599364E0
2.520877178E0,8.633491516E0,7.137115479E0,-1.673547029E0
2.522860821E0,8.169015884E0,7.216124058E0,-2.015917778E0
2.524844463E0,6.971915245E0,6.878541470E0,-2.391807556E0
2.526828106E0,5.087678432E0,5.947196960E0,-2.767697096E0
2.528842266E0,3.699041605E0,5.415684223E0,-2.870647907E0
2.530856426E0,3.057395458E0,5.844246387E0,-2.700659513E0
2.532870586E0,2.691082716E0,6.926425457E0,-2.698265314E0
2.534854229E0,1.958456993E0,8.025363922E0,-3.021482468E0
2.536837872E0,6.129156351E-1,8.947132111E0,-3.452438831E0
2.538821514E0,-8.882488012E-1,9.947908401E0,-3.634398222E0
2.540805157E0,-1.697489023E0,1.132696819E1,-3.399766445E0
2.542788799E0,-1.747767210E0,1.288080502E1,-3.074155092E0
2.544772442E0,-1.630451322E0,1.398932076E1,-2.959233284E0
2.546756084E0,-1.539471745E0,1.406114674E1,-3.083731890E0
2.548770245E0,-1.273715258E0,1.322078133E1,-3.363853455E0
2.550753887E0,-3.758896589E-1,1.177229023E1,-3.651157618E0
2.552768047E0,9.768342972E-1,1.024478912E1,-3.744531393E0
2.554751690E0,2.099714994E0,9.385271072E0,-3.835511208E0
2.556765850E0,3.033453465E0,9.090784073E0,-3.833117008E0
2.558780010E0,4.089296341E0,8.786720276E0,-3.799597979E0
2.560794170E0,5.216965675E0,8.118738174E0,-3.785232782E0
2.562808331E0,5.971138954E0,7.278373241E0,-3.564966440E0
2.564822491E0,6.464344501E0,6.835445881E0,-2.966415882E0
2.566806133E0,7.050923824E0,7.007828236E0,-2.284068346E0
2.568789776E0,7.541735172E0,7.431602001E0,-1.740584612E0
2.570773418E0,7.852981567E0,7.718906403E0,-1.369483352E0
2.572757061E0,8.044517517E0,7.785943985E0,-1.031900883E0
2.574710186E0,8.032546997E0,7.687781811E0,-7.589619160E-1
2.576724346E0,7.752425194E0,7.589619160E0,-4.788403511E-1
2.578738506E0,7.376535416E0,7.682993412E0,-2.106897533E-1
2.580752666E0,6.749254704E0,7.888894558E0,-8.379705995E-2
2.582736309E0,5.868188381E0,8.190564156E0,-7.422025502E-2
2.584719952E0,4.860229492E0,8.554482460E0,0.000000000E0
2.586734112E0,4.029441357E0,8.935160637E0,2.250549644E-1
2.588748272E0,3.576937437E0,9.320627213E0,3.711012602E-1
2.590762432E0,3.270479441E0,9.598354340E0,4.548983276E-1
2.592776592E0,2.837129116E0,9.734824181E0,6.081272364E-1
2.594760235E0,2.200271368E0,9.686940193E0,7.805097699E-1
2.596774395E0,1.666364431E0,9.600749016E0,9.935936928E-1
2.598758038E0,1.405396342E0,9.749189377E0,1.187524080E0
2.600741680E0,1.403002143E0,1.011310768E1,1.551442742E0
2.602725323E0,1.529894829E0,1.059913063E1,2.011129379E0
2.604708965E0,1.786074519E0,1.114022064E1,2.394201756E0
2.606692608E0,2.027888775E0,1.168849277E1,2.767697096E0
2.608706768E0,2.032677174E0,1.211705494E1,2.997540474E0
2.610720928E0,1.790862918E0,1.226788998E1,3.325546265E0
2.612735088E0,1.431732655E0,1.233732128E1,3.933673382E0
2.614749249E0,9.193734527E-1,1.252646351E1,4.663905144E0
2.616732891E0,3.615244627E-1,1.281137371E1,5.245696068E0
2.618716534E0,-1.101332754E-1,1.303882217E1,5.487510204E0
2.620700176E0,-4.237737060E-1,1.318726254E1,5.470750809E0
2.622714336E0,-8.092401624E-1,1.316092682E1,5.470750809E0
2.624697979E0,-1.137245774E0,1.296460247E1,5.432443619E0
2.626681622E0,-1.259350061E0,1.256955910E1,5.312733650E0
2.628665264E0,-1.149216771E0,1.209311295E1,5.183446884E0
2.630648907E0,-7.709329724E-1,1.158793640E1,4.958391666E0
2.632632549E0,-2.011129409E-1,1.108515358E1,4.721365929E0
2.634616192E0,5.339069963E-1,1.063504410E1,4.434061527E0
2.636630352E0,1.288080573E0,1.013944435E1,4.120420933E0
2.638644512E0,2.018311977E0,9.667786598E0,3.857059002E0
2.640658672E0,2.779668093E0,9.330204010E0,3.632004023E0
2.642672832E0,3.579331636E0,9.136273384E0,3.354276657E0
2.644656475E0,4.326322556E0,9.102754593E0,2.949656487E0
2.646640118E0,4.752490520E0,9.143456459E0,2.466027737E0
2.648623760E0,4.833893299E0,9.248801231E0,1.833958507E0
2.650607403E0,4.754884720E0,9.392453194E0,1.106121182E0
2.652621563E0,4.532223701E0,9.567230225E0,4.908113480E-1
2.654574688E0,4.161122322E0,9.797073364E0,-2.633621991E-1
2.656588848E0,3.869029999E0,1.000297451E1,-1.323993564E0
2.658603008E0,3.806780815E0,1.002212811E1,-1.984793186E0
2.660617168E0,3.902548790E0,9.861717224E0,-1.941697598E0
2.662600811E0,4.122815132E0,9.619902611E0,-1.379060149E0
2.664614971E0,4.374206543E0,9.366117477E0,-7.900865674E-1
2.666629131E0,4.599261284E0,9.133879662E0,-2.729389966E-1
2.668643291E0,4.757278919E0,8.954314232E0,2.968810201E-1
2.670657452E0,4.874594688E0,8.846575737E0,8.212111592E-1
2.672671612E0,4.874594688E0,8.822632790E0,1.446097851E0
2.674655254E0,4.661510944E0,8.889671326E0,2.035071373E0
2.676669415E0,4.321534157E0,8.975862503E0,2.513911724E0
2.678683575E0,4.022258759E0,9.028534889E0,2.968810081E0
2.680667217E0,3.936067581E0,9.002198219E0,3.169923067E0
2.682650860E0,3.845088005E0,8.939949036E0,3.114856482E0
2.684634502E0,3.761290789E0,8.836998940E0,2.932897091E0
2.686618145E0,3.696647406E0,8.702922821E0,2.772485495E0
2.688632305E0,3.675099611E0,8.583212852E0,2.647987127E0
2.690615948E0,3.643975019E0,8.506598473E0,2.410961151E0
2.692630108E0,3.639186621E0,8.458714485E0,2.068590164E0
2.694644268E0,3.761290789E0,8.449137688E0,1.611297727E0
2.696658428E0,3.907337189E0,8.446743965E0,1.304839969E0
2.698672588E0,4.058171749E0,8.449137688E0,1.043871999E0
2.700686749E0,4.108449936E0,8.415618896E0,7.086837292E-1
2.702670391E0,4.043806553E0,8.334216118E0,3.974374831E-1
2.704654034E0,4.019864559E0,8.267178535E0,1.915361360E-2
2.706668194E0,4.134786129E0,8.327033043E0,-3.040636182E-1
2.708682354E0,4.338293552E0,8.480262756E0,-5.123591423E-1
2.710696514E0,4.513070107E0,8.635885239E0,-5.793967843E-1
2.712710674E0,4.596867085E0,8.767566681E0,-5.578489900E-1
2.714694317E0,4.489128113E0,8.796297073E0,-3.806780577E-1
2.716677959E0,4.199429989E0,8.717288017E0,-1.173158810E-1
2.718661602E0,3.888183594E0,8.635885239E0,8.858546615E-2
2.720645245E0,3.660734415E0,8.611943245E0,2.226607651E-1
2.722628887E0,3.581725836E0,8.655038834E0,3.471592367E-1
2.724643047E0,3.641580820E0,8.717288017E0,5.315127969E-1
2.726626690E0,3.813963413E0,8.762778282E0,7.589619160E-1
2.728640850E0,4.005499363E0,8.793902397E0,9.792284966E-1
2.730655010E0,4.110844135E0,8.817844391E0,1.175553083E0
2.732669170E0,4.170699596E0,8.841787338E0,1.331176162E0
2.734683331E0,4.185064793E0,8.877699852E0,1.434126854E0
2.736697491E0,4.175487995E0,8.916007042E0,1.505952835E0
2.738711651E0,4.122815132E0,8.935160637E0,1.544260144E0
2.740695293E0,4.027047157E0,8.913613319E0,1.551442742E0
2.742678936E0,3.936067581E0,8.884882927E0,1.537077546E0
2.744693096E0,3.842693806E0,8.863334656E0,1.493981838E0
2.746707256E0,3.773261786E0,8.858546257E0,1.429338455E0
2.748690899E0,3.722983599E0,8.853757858E0,1.357512355E0
2.750674541E0,3.648763418E0,8.836998940E0,1.285686255E0
2.752658184E0,3.593696833E0,8.834604263E0,1.213860273E0
2.754641827E0,3.576937437E0,8.836998940E0,1.139639974E0
2.756625469E0,3.560178041E0,8.825027466E0,1.079784989E0
2.758609112E0,3.507505417E0,8.813055992E0,1.063025594E0
2.760592754E0,3.406949043E0,8.844181061E0,1.067813993E0
2.762576397E0,3.270479441E0,8.887276649E0,1.072602391E0
2.764590557E0,3.181894064E0,8.944737434E0,1.098938584E0
2.766604717E0,3.122039080E0,8.983044624E0,1.149216771E0
2.768588360E0,3.071760893E0,9.028534889E0,1.206677675E0
2.770572002E0,3.026270866E0,9.078812599E0,1.266532660E0
2.772555645E0,3.023876667E0,9.136273384E0,1.347935557E0
2.774539288E0,3.040636063E0,9.186552048E0,1.426944256E0
2.776553448E0,3.045424461E0,9.222464561E0,1.470039845E0
2.778567608E0,3.059789658E0,9.234436035E0,1.465251446E0
2.780551250E0,3.081337690E0,9.248801231E0,1.426944256E0
2.782534893E0,3.119644880E0,9.270348549E0,1.352723956E0
2.784518536E0,3.213018656E0,9.296685219E0,1.280897856E0
2.786532696E0,3.318363667E0,9.325415611E0,1.233013868E0
2.788516338E0,3.375824451E0,9.346963882E0,1.194706678E0
2.790530499E0,3.385401249E0,9.373299599E0,1.142034173E0
2.792544659E0,3.373430252E0,9.387664795E0,1.060631394E0
2.794528301E0,3.342305660E0,9.406818390E0,9.768342972E-1
2.796542461E0,3.320757866E0,9.404424667E0,9.361328483E-1
2.798556622E0,3.351882458E0,9.339780807E0,9.696516991E-1
2.800570782E0,3.311181068E0,9.315838814E0,1.007958889E0
2.802584942E0,3.155557871E0,9.370905876E0,9.935936928E-1
2.804568584E0,2.913743496E0,9.469067574E0,9.169792533E-1
2.806552227E0,2.657563925E0,9.560047150E0,7.948749661E-1
2.808535870E0,2.461239338E0,9.603142738E0,6.296750307E-1
2.810519512E0,2.331952572E0,9.617507935E0,4.477157295E-1
2.812533672E0,2.245761156E0,9.622296333E0,2.489969730E-1
2.814517315E0,2.190694571E0,9.617507935E0,5.506663769E-2
2.816500957E0,2.188300371E0,9.595960617E0,-1.029506698E-1
2.818515118E0,2.233790159E0,9.564835548E0,-2.274491638E-1
2.820529278E0,2.281674147E0,9.531316757E0,-3.208230138E-1
2.822512920E0,2.315192938E0,9.512163162E0,-3.615244627E-1
2.824496563E0,2.339135170E0,9.495404243E0,-3.375824392E-1
2.826510723E0,2.341529369E0,9.469067574E0,-2.489969730E-1
2.828524883E0,2.341529369E0,9.445125580E0,-1.149216816E-1
2.830539043E0,2.341529369E0,9.421183586E0,7.422025502E-2
2.832553204E0,2.363077164E0,9.380482674E0,2.920926213E-1
2.834536846E0,2.382230759E0,9.342175484E0,5.291185975E-1
2.836551006E0,2.408566952E0,9.301473618E0,7.589619160E-1
2.838565166E0,2.439691544E0,9.263166428E0,9.528923035E-1
2.840579327E0,2.468421936E0,9.227252960E0,1.180341482E0
2.842593487E0,2.468421936E0,9.215282440E0,1.280897856E0
2.844607647E0,2.454056740E0,9.203310966E0,1.340752959E0
2.846621807E0,2.439691544E0,9.184157372E0,1.362300754E0
2.848605450E0,2.444479942E0,9.162610054E0,1.369483352E0
2.850589092E0,2.461239338E0,9.143456459E0,1.350329757E0
2.852572735E0,2.480392933E0,9.126696587E0,1.302445769E0
2.854556377E0,2.487575531E0,9.121908188E0,1.276109457E0
2.856540020E0,2.509123325E0,9.124302864E0,1.201889277E0
2.858554180E0,2.501940727E0,9.157821655E0,1.134851575E0
2.860568340E0,2.463633537E0,9.210494041E0,1.015141487E0
2.862551983E0,2.427720547E0,9.265560150E0,8.307880163E-1
2.864535625E0,2.458845139E0,9.349357605E0,8.236053586E-1
2.866549786E0,2.497152328E0,9.464279175E0,9.313444495E-1
2.868563946E0,2.446874142E0,9.560047150E0,9.385270476E-1
2.870578106E0,2.303221941E0,9.607931137E0,8.331822157E-1
2.872592266E0,2.145204782E0,9.598354340E0,6.871358752E-1
2.874575909E0,2.049436569E0,9.552865028E0,5.458779931E-1
2.876590069E0,2.068590164E0,9.497797966E0,4.333505034E-1
2.878573711E0,2.195482969E0,9.442731857E0,3.495534360E-1
2.880557354E0,2.377442360E0,9.390059471E0,2.944868207E-1
2.882540997E0,2.398990154E0,9.270348549E0,-1.460463107E-1
2.884524639E0,1.989581585E0,9.054870605E0,-1.503558636E0
2.886538799E0,1.802833915E0,8.908824921E0,-3.157952070E0
2.888522442E0,2.928108692E0,8.719682693E0,-4.608838081E0
2.890536602E0,5.099649429E0,8.391676903E0,-5.961562157E0
2.892550762E0,6.370970726E0,8.147468567E0,-7.225700855E0
2.894564922E0,6.418854713E0,8.118738174E0,-8.027758598E0
2.896579082E0,5.635950565E0,8.298302650E0,-7.833827972E0
2.898593243E0,4.623203278E0,8.549694061E0,-6.682217121E0
2.900576885E0,3.794809580E0,8.793902397E0,-4.726154327E0
2.902560528E0,3.083731890E0,9.035717010E0,-2.346317768E0
2.904574688E0,2.614468336E0,9.198522568E0,-4.309563041E-1
2.906588848E0,2.616862535E0,9.193734169E0,8.212111592E-1
2.908603008E0,3.387795448E0,9.062053680E0,1.608903527E0
2.910586651E0,4.486733913E0,8.901641846E0,2.013523579E0
2.912570293E0,5.114014626E0,8.796297073E0,2.063801765E0
2.914553936E0,5.104437828E0,8.748413086E0,1.936909199E0
2.916537579E0,4.817133904E0,8.717288017E0,1.723825216E0
2.918521221E0,4.589684486E0,8.690952301E0,1.448492050E0
2.920504864E0,4.371812344E0,8.688557625E0,1.168370485E0
2.922488506E0,4.134786129E0,8.712499619E0,9.337386489E-1
2.924472149E0,3.928884983E0,8.719682693E0,8.068459630E-1
2.926455791E0,3.703830004E0,8.726864815E0,9.026140571E-1
2.928469952E0,3.378218651E0,8.786720276E0,1.189918280E0
2.930484112E0,3.009511471E0,8.884882927E0,1.529894829E0
2.932498272E0,2.612074137E0,9.023746490E0,1.865083098E0
2.934512432E0,2.291250944E0,9.112331390E0,2.118868589E0
2.936526592E0,2.104503393E0,9.100360870E0,2.181117773E0
2.938540752E0,2.011129379E0,9.064447403E0,2.154781580E0
2.940524395E0,2.001552582E0,9.057265282E0,2.145204782E0
2.942508038E0,2.056619167E0,9.071630478E0,2.195482969E0
2.944491680E0,2.104503393E0,9.102754593E0,2.264914751E0
2.946505840E0,2.159569979E0,9.124302864E0,2.341529369E0
2.948520000E0,2.176329374E0,9.186552048E0,2.398990154E0
2.950534161E0,2.140416384E0,9.260771751E0,2.454056740E0
2.952548321E0,2.116474390E0,9.275136948E0,2.537853718E0
2.954531963E0,2.087743998E0,9.248801231E0,2.686294317E0
2.956515606E0,2.051830769E0,9.224859238E0,2.868253708E0
2.958499249E0,2.061407566E0,9.227252960E0,3.028665066E0
2.960482891E0,2.173935175E0,9.210494041E0,3.145981073E0
2.962466534E0,2.355894566E0,9.165003777E0,3.256114244E0
2.964480694E0,2.545036316E0,9.124302864E0,3.361459255E0
2.966464336E0,2.686294317E0,9.085995674E0,3.459621429E0
2.968478497E0,2.715024710E0,9.066842079E0,3.524264812E0
2.970492657E0,2.636016130E0,9.117119789E0,3.541024208E0
2.972506817E0,2.568978310E0,9.203310966E0,3.529053211E0
2.974520977E0,2.571372509E0,9.275136948E0,3.476380825E0
2.976535137E0,2.650381327E0,9.287108421E0,3.406949043E0
2.978549297E0,2.772485495E0,9.279925346E0,3.347094059E0
2.980563457E0,2.851494312E0,9.265560150E0,3.323152065E0
2.982547100E0,2.870647907E0,9.246406555E0,3.344699860E0
2.984561260E0,2.894589901E0,9.220070839E0,3.359065056E0
2.986575420E0,2.798821688E0,9.141061783E0,3.287238836E0
2.988589581E0,2.772485495E0,8.980650902E0,3.102885485E0
2.990573223E0,2.913743496E0,8.913613319E0,2.853888512E0
2.992556866E0,3.062183857E0,9.014169693E0,2.710236311E0
2.994540508E0,3.105279684E0,9.203310966E0,2.770091295E0
2.996524151E0,3.136404276E0,9.358934402E0,2.896984100E0
2.998507793E0,3.224989653E0,9.512163162E0,2.932897091E0
3.000491436E0,3.244143248E0,9.686940193E0,2.849100113E0
3.002475079E0,3.162740469E0,9.859322548E0,2.698265314E0
3.004458721E0,3.134010077E0,9.919178009E0,2.533065319E0
3.006472881E0,3.191470861E0,9.923966408E0,2.389413357E0
3.008456524E0,3.241749048E0,9.979032516E0,2.298433542E0
3.010440166E0,3.193865061E0,1.010353088E1,2.236184359E0
3.012423809E0,3.186682463E0,1.018253994E1,2.188300371E0
3.014407452E0,3.227383852E0,1.025675964E1,2.121262789E0
3.016421612E0,3.292027235E0,1.034295177E1,2.042253971E0
3.018405254E0,3.416525841E0,1.038604736E1,1.948880196E0
3.020419415E0,3.555389643E0,1.030703831E1,1.833958507E0
3.022403057E0,3.579331636E0,1.022324085E1,1.726219416E0
3.024417217E0,3.529053211E0,1.019929886E1,1.630451322E0
3.026400860E0,3.363853455E0,1.022324085E1,1.563413739E0
3.028415020E0,3.052607059E0,1.026394272E1,1.446097851E0
3.030429180E0,2.755726099E0,1.025436592E1,1.204283476E0
3.032443340E0,2.631227732E0,1.013465595E1,9.576807022E-1
3.034426983E0,2.612074137E0,9.969455719E0,7.709329724E-1
3.036410625E0,2.655169725E0,9.780313492E0,6.536170840E-1
3.038394268E0,2.750937700E0,9.548076630E0,5.889736414E-1
3.040377911E0,2.892195702E0,9.287108421E0,5.770025849E-1
3.042361553E0,3.016694069E0,9.071630478E0,6.033388376E-1
3.044345196E0,3.093308687E0,8.911218643E0,6.200982332E-1
3.046359356E0,3.105279684E0,8.805873871E0,6.464344859E-1
3.048373516E0,3.107673883E0,8.748413086E0,6.320692301E-1
3.050387676E0,3.107673883E0,8.705317497E0,5.674257874E-1
3.052401836E0,3.110068083E0,8.667010307E0,4.764461517E-1
3.054385479E0,3.131615877E0,8.647856712E0,3.447650373E-1
3.056369122E0,3.150769472E0,8.643068314E0,2.226607651E-1
3.058352764E0,3.160346270E0,8.652645111E0,1.604115069E-1
3.060336407E0,3.162740469E0,8.667010307E0,1.268926859E-1
3.062350567E0,3.148375273E0,8.662221909E0,1.125274822E-1
3.064334209E0,3.124433279E0,8.626308441E0,8.379705995E-2
3.066317852E0,3.081337690E0,8.592789650E0,5.985504389E-2
3.068301495E0,3.033453465E0,8.590395927E0,5.985504389E-2
3.070315655E0,2.992752075E0,8.621520042E0,1.149216816E-1
3.072299297E0,2.966415882E0,8.674192429E0,2.513911724E-1
3.074313457E0,2.908955097E0,8.731653214E0,4.716577232E-1
3.076327618E0,2.712630510E0,8.690952301E0,6.488286853E-1
3.078311260E0,2.454056740E0,8.446743965E0,7.134721279E-1
3.080355938E0,2.226607561E0,8.068459511E0,6.823474765E-1
3.082339581E0,1.965639591E0,7.951143742E0,7.469909191E-1
3.084353741E0,1.970427990E0,8.159439087E0,1.017535686E0
3.086367901E0,2.363077164E0,8.339004517E0,1.436521053E0
3.088351543E0,3.011905670E0,8.394071579E0,1.819593310E0
3.090335186E0,3.476380825E0,8.595184326E0,2.035071373E0
3.092318829E0,3.732560396E0,8.947132111E0,2.109291792E0
3.094302471E0,3.948038578E0,9.282320023E0,2.066195965E0
3.096286114E0,4.151545525E0,9.524134636E0,1.951274395E0
3.098300274E0,4.288015366E0,9.648633003E0,1.795651317E0
3.100314434E0,4.302380562E0,9.686940193E0,1.663970232E0
3.102298077E0,4.264073372E0,9.667786598E0,1.556231141E0
3.104281719E0,4.139574528E0,9.567230225E0,1.541865945E0
3.106265362E0,3.849876404E0,9.392453194E0,1.618480325E0
3.108279522E0,3.490746021E0,9.251194954E0,1.680729628E0
3.110293682E0,3.179499865E0,9.162610054E0,1.680729628E0
3.112307842E0,2.968810081E0,9.062053680E0,1.680729628E0
3.114322002E0,2.880224705E0,8.920795441E0,1.695094824E0
3.116336163E0,2.844311714E0,8.722076416E0,1.719036818E0
3.118350323E0,2.774879694E0,8.528146744E0,1.683123827E0
3.120333965E0,2.724601507E0,8.348581314E0,1.606509328E0
3.122348125E0,2.650381327E0,8.226476669E0,1.623268723E0
3.124331768E0,2.504334927E0,8.058882713E0,1.685518026E0
3.126315411E0,2.401384354E0,7.809885979E0,1.680729628E0
3.128299053E0,2.391807556E0,7.431602001E0,1.608903527E0
3.130282696E0,2.420537949E0,6.952761650E0,1.563413739E0
3.132296856E0,2.485181332E0,6.596025467E0,1.577778935E0
3.134280499E0,2.621650934E0,6.505045891E0,1.635239720E0
3.136294659E0,2.698265314E0,6.452373505E0,1.707065821E0
3.138308819E0,2.597708941E0,6.306327343E0,1.800439715E0
3.140322979E0,2.365471363E0,6.062118530E0,1.917755604E0
3.142337139E0,2.085349798E0,5.700594425E0,1.996764183E0
3.144320782E0,1.982398987E0,5.427655220E0,2.066195965E0
3.146334942E0,2.312798738E0,5.542576790E0,2.159569979E0
3.148349102E0,2.868253708E0,6.035782337E0,2.262520552E0
3.150363262E0,3.160346270E0,6.430825710E0,2.336740971E0
3.152346905E0,3.160346270E0,6.555324078E0,2.351106167E0
3.154330547E0,3.124433279E0,6.560112476E0,2.197877169E0
3.156314190E0,3.074155092E0,6.536170483E0,2.061407566E0
3.158297832E0,2.956839085E0,6.394912720E0,2.238578558E0
3.160281475E0,2.683900118E0,6.179434776E0,2.561795712E0
3.162265118E0,2.334346771E0,6.090848923E0,2.746149302E0
3.164248760E0,2.425326347E0,6.399701118E0,2.770091295E0
3.166232403E0,2.592920542E0,6.624756336E0,2.571372509E0
3.168246563E0,2.432508945E0,6.236895561E0,2.372653961E0
3.170260723E0,2.099714994E0,5.779603004E0,2.214636564E0
3.172274883E0,1.553836942E0,5.396530628E0,2.154781580E0
3.174258526E0,1.144428372E0,4.996698856E0,1.960851192E0
3.176242168E0,1.168370485E0,5.085284233E0,1.460463047E0
3.178225811E0,1.070208192E0,5.240907669E0,1.182735682E0
3.180209454E0,9.050082564E-1,5.293580055E0,1.383848548E0
3.182223614E0,7.326257229E-1,5.262455463E0,1.592144132E0
3.184207256E0,1.051054597E0,5.458779812E0,1.821987510E0
3.186190899E0,1.881842494E0,6.011840343E0,1.965639591E0
3.188174541E0,2.454056740E0,6.260837555E0,1.917755604E0
3.190158184E0,2.461239338E0,6.181828976E0,1.529894829E0
3.192172344E0,2.410961151E0,5.920860767E0,7.876923680E-1
3.194155987E0,2.583343744E0,5.813121796E0,2.705447972E-1
3.196139629E0,2.600103140E0,5.868188381E0,1.247379065E0
3.198153790E0,2.808398485E0,6.107608318E0,2.327163935E0
3.200198467E0,3.445256233E0,6.907271862E0,2.082955360E0
3.202182110E0,3.998316765E0,7.826645374E0,1.355118155E0
3.204196270E0,3.900154591E0,8.231265068E0,5.363011956E-1
3.206210430E0,3.933673382E0,8.432378769E0,-3.854664862E-1
3.208194073E0,4.211400986E0,8.829815865E0,-1.046266198E0
3.210177715E0,3.883395195E0,9.176975250E0,-1.146822572E0
3.212161358E0,2.935291290E0,9.404424667E0,-7.972691655E-1
3.214145000E0,2.183511972E0,9.670180321E0,-4.070142806E-1
3.216128643E0,1.778891921E0,9.490615845E0,-5.219359994E-1
3.218112286E0,1.371877551E0,8.808267593E0,-1.182735682E0
3.220126446E0,1.692700624E0,8.413225174E0,-1.584961534E0
3.222110088E0,2.020706177E0,8.403648376E0,-1.436521053E0
3.224124249E0,1.534683347E0,8.161833763E0,-1.070208192E0
3.226107891E0,1.386242747E0,8.384494781E0,-3.926490843E-1
3.228122051E0,2.147598982E0,9.339780807E0,4.572925270E-1
3.230136211E0,2.777273893E0,9.856928825E0,8.116343617E-1
3.232150372E0,3.514688015E0,9.710882187E0,4.070142806E-1
3.234134014E0,4.850652695E0,9.710882187E0,-2.418143749E-1
3.236148174E0,5.719748020E0,9.543288231E0,-9.504981041E-1
3.238162334E0,5.975927353E0,9.354146004E0,-1.240196466E0
3.240145977E0,6.332663536E0,9.454702377E0,-1.122880578E0
3.242129620E0,6.493074894E0,9.267954826E0,-8.164227605E-1
3.244113262E0,6.014234543E0,9.193734169E0,-1.819593310E-1
3.246096905E0,5.659893036E0,9.911994934E0,5.722141862E-1
3.248111065E0,5.786785603E0,1.084094524E1,1.029506683E0
3.250125225E0,6.050147533E0,1.161427212E1,1.127668977E0
3.252139385E0,6.086060524E0,1.206198788E1,1.458068848E0
3.254123028E0,6.804321289E0,1.155441761E1,1.628057122E0
3.256106670E0,7.187393665E0,1.039083576E1,9.911994934E-1
3.258090313E0,6.715735912E0,9.816226959E0,9.792284966E-1
3.260073956E0,6.002263546E0,9.658209801E0,1.903390408E0
3.262088116E0,5.391742229E0,9.469067574E0,2.494758129E0
3.264071758E0,4.654327869E0,9.265560150E0,2.260126352E0
3.266055401E0,4.558559895E0,9.129091263E0,1.477222443E0
3.268039043E0,4.867412090E0,9.004592896E0,5.386953950E-1
3.270022686E0,4.960785866E0,8.585607529E0,-5.267243981E-1
3.272006329E0,3.955221176E0,8.561665535E0,-1.915361285E-1
3.273989971E0,2.521094322E0,8.597578049E0,1.074996591E0
3.276004131E0,1.675941229E0,8.449137688E0,2.018311977E0
3.278018291E0,1.568202138E0,8.257601738E0,2.683900118E0
3.280032452E0,2.147598982E0,8.176198959E0,3.114856482E0
3.282046612E0,2.827552319E0,8.164227486E0,3.452438831E0
3.284060772E0,3.232172251E0,8.140285492E0,3.634398222E0
3.286044415E0,3.011905670E0,7.661445618E0,3.636792421E0
3.288028057E0,2.834734917E0,7.321468830E0,3.378218651E0
3.290011700E0,2.911349297E0,7.261613846E0,3.074155092E0
3.291995342E0,3.411737442E0,7.287950039E0,2.971204281E0
3.293978985E0,3.612850428E0,6.856993675E0,3.220201254E0
3.295962627E0,2.712630510E0,6.100425720E0,3.308786631E0
3.297946270E0,1.625662923E0,5.758055210E0,3.217807055E0
3.299960430E0,1.027112484E0,6.306327343E0,3.076549292E0
3.301944073E0,1.252167463E0,7.201758862E0,2.542642117E0
3.303958233E0,2.097320795E0,7.857769966E0,1.060631394E0
3.305972393E0,1.726219416E0,7.948749542E0,1.891419291E-1
3.307956036E0,-2.633621991E-1,7.314286232E0,7.110779285E-1
3.309970196E0,-1.821987510E0,6.536170483E0,2.013523579E0
3.311984356E0,-8.595184088E-1,6.354211330E0,2.509123325E0
3.313967999E0,1.939303398E0,5.604825974E0,1.273715258E0
3.315982159E0,4.244919777E0,4.402936935E0,-5.195417404E-1
3.317996319E0,4.936843872E0,4.465186119E0,-1.019929886E0
3.320040997E0,3.634398222E0,5.662287235E0,2.154781520E-1
3.322024639E0,1.505952835E0,6.890512466E0,1.355118155E0
3.324038799E0,8.786720037E-1,7.955932140E0,2.181117773E0
3.326052959E0,1.266532660E0,7.271190643E0,-5.722141862E-1
3.328036602E0,1.106121182E0,5.791574001E0,-5.094861031E0
3.330020245E0,2.968810201E-1,5.925649166E0,-7.510610580E0
3.332003887E0,-4.908113480E-1,8.317456245E0,-5.949591160E0
3.333987530E0,-5.554547906E-1,1.064940929E1,-2.935291290E0
3.335971172E0,8.882488012E-1,1.218169785E1,-1.692700624E0
3.337954815E0,3.047818661E0,1.250491524E1,-1.077390790E0
3.339938457E0,4.795586109E0,1.132457447E1,-7.565677166E-1
3.341922100E0,5.983109951E0,1.039083576E1,-1.149216771E0
3.343905743E0,6.512228489E0,1.003649330E1,-1.462857246E0
3.345919903E0,5.930437565E0,9.414001465E0,-1.379060149E0
3.347903545E0,4.936843872E0,9.028534889E0,-1.345541358E0
3.349917706E0,3.969586372E0,9.473855972E0,-1.036689281E0
3.351931866E0,2.947262287E0,1.049857426E1,5.219359994E-1
3.353946026E0,2.219424963E0,1.125035381E1,2.298433542E0
3.355960186E0,2.135627985E0,1.109712505E1,3.050212860E0
3.357974346E0,2.719813108E0,1.012986755E1,3.033453465E0
3.359957989E0,3.519476414E0,8.714894295E0,2.753331900E0
3.361972149E0,4.031835556E0,7.726089001E0,3.016694069E0
3.363955791E0,4.395754337E0,7.623138428E0,3.813963413E0
3.365939434E0,4.424484730E0,7.771578789E0,4.302380562E0
3.367923077E0,4.359841347E0,8.022970200E0,4.297592163E0
3.369937237E0,4.165910721E0,8.149862289E0,3.687070608E0
3.371920879E0,3.699041605E0,7.805097580E0,2.741360903E0
3.373904522E0,3.019088268E0,7.496245384E0,2.102109194E0
3.375918682E0,2.236184359E0,7.323863029E0,2.214636564E0
3.377932842E0,1.529894829E0,6.461950302E0,2.669534922E0
3.379947002E0,1.513135433E0,5.695806026E0,3.315969467E0
3.381961163E0,1.661576033E0,5.537788391E0,3.866635799E0
3.383944805E0,1.103726983E0,5.463568211E0,4.237737179E0
3.385958965E0,4.692635238E-1,5.171475887E0,4.367023945E0
3.387973125E0,1.771709323E-1,4.759673119E0,4.513070107E0
3.389987286E0,-6.703764945E-2,4.659116745E0,4.462791920E0
3.391970928E0,-1.292868853E-1,5.430049419E0,3.878606796E0
3.393954571E0,-1.556231081E-1,6.538564682E0,2.025494576E0
3.395938213E0,2.298433632E-1,7.912836552E0,6.464344263E-2
3.397921856E0,1.843535304E0,9.131484985E0,2.154781483E-2
3.399905499E0,3.591302633E0,9.617507935E0,5.099649429E-1
3.401889141E0,4.405331135E0,9.495404243E0,2.394201607E-2
3.403903301E0,4.611232281E0,9.957485199E0,-3.327940404E-1
3.405886944E0,5.039794445E0,1.075235939E1,1.005564705E-1
3.407901104E0,5.042188644E0,1.021845245E1,-7.900865376E-2
3.409915264E0,4.453215122E0,9.619902611E0,-1.000776291E0
3.411898907E0,3.596091032E0,1.012029076E1,-1.561019540E0
3.413882549E0,3.241749048E0,1.127190113E1,-1.201889277E0
3.415866192E0,3.715801001E0,1.288080502E1,-2.849099934E-1
3.417849834E0,4.616020679E0,1.423831749E1,5.746083856E-1
3.419833477E0,5.612008572E0,1.493742466E1,1.843535304E-1
3.421817120E0,6.294356346E0,1.511938381E1,-1.060631394E0
3.423800762E0,6.414066315E0,1.451843929E1,-2.348711967E0
3.425784405E0,6.713341713E0,1.344583702E1,-2.810792685E0
3.427798565E0,7.108384609E0,1.238281155E1,-2.363077164E0
3.429812725E0,6.823474884E0,1.175553036E1,-1.565807939E0
3.431796368E0,5.686229229E0,1.147540855E1,-8.762778044E-1
3.433780010E0,3.701435804E0,1.020408726E1,-7.541735172E-1
3.435794170E0,5.650315881E-1,6.445190907E0,-1.702277422E0
3.437808331E0,-4.235342979E0,7.422025204E-1,-3.004723072E0
3.439822491E0,-7.419631004E0,-1.953668594E0,-2.626439333E0
3.441836651E0,-7.946355343E0,5.434837937E-1,-4.070142806E-1
3.443850811E0,-6.698976517E0,5.679046631E0,1.850717902E0
3.445834454E0,-4.848258495E0,9.311050415E0,1.098938584E0
3.447818096E0,-2.820369720E0,1.084812832E1,-1.977610588E0
3.449801739E0,-2.873041928E-1,1.185369301E1,-4.110844135E0
3.451785381E0,2.209848166E0,1.232295609E1,-4.944026470E0
3.453769024E0,4.074931145E0,1.128626728E1,-5.317522049E0
3.455783184E0,6.313509941E0,1.034295177E1,-4.206612587E0
3.457766827E0,8.872911453E0,1.051293945E1,-1.393425345E0
3.459780987E0,8.398859978E0,1.002691650E1,9.002198577E-1
3.461764629E0,6.054935932E0,9.591172218E0,2.372653961E0
3.463778790E0,4.455609322E0,9.564835548E0,2.492363930E0
3.465762432E0,4.000710964E0,9.864110947E0,1.319205165E0
3.467776592E0,4.062960148E0,1.166455078E1,2.365471363E0
3.469790752E0,3.864241600E0,1.427183628E1,6.430825710E0
3.471804913E0,3.670311213E0,1.548809052E1,9.519346237E0
3.473788555E0,3.926490784E0,1.449928570E1,9.469067574E0
3.475802715E0,4.101267338E0,1.205719948E1,7.242460251E0
3.477816875E0,3.655946016E0,9.143456459E0,4.946420670E0
3.479831036E0,2.592920542E0,6.981492043E0,3.816357613E0
3.481845196E0,1.472434044E0,6.768408298E0,3.718195200E0
3.483859356E0,3.495534360E-1,7.905653954E0,4.333505154E0
3.485873516E0,-8.188169599E-1,9.555258751E0,5.394136429E0
3.487857159E0,-1.271321058E0,1.142273617E1,6.160281181E0
3.489840801E0,-5.554547906E-1,1.312261963E1,5.865794182E0
3.491824444E0,1.029506683E0,1.427662468E1,3.892971992E0
3.493808086E0,3.272873640E0,1.538035202E1,1.122880578E0
3.495822247E0,5.676652431E0,1.687193871E1,-1.292868972E0
3.497805889E0,7.627926826E0,1.865562057E1,-2.923320293E0
3.499789532E0,8.858546257E0,2.042254066E1,-3.428496838E0
3.501773174E0,9.325415611E0,2.162203598E1,-3.232172251E0
3.503756817E0,9.076418877E0,2.162921906E1,-3.155557871E0
3.505770977E0,8.274360657E0,2.042014694E1,-3.136404276E0
3.507785137E0,7.165845871E0,1.838986397E1,-2.762908697E0
3.509768780E0,6.332663536E0,1.635000420E1,-2.020706177E0
3.511782940E0,5.834669590E0,1.483447361E1,-1.221042871E0
3.513766582E0,5.288791656E0,1.398453236E1,-3.878606856E-1
3.515780743E0,4.426878929E0,1.380496693E1,5.650315881E-1
3.517794903E0,3.371036053E0,1.404199314E1,1.345541358E0
3.519809063E0,2.509123325E0,1.440112305E1,2.044648170E0
3.521823223E0,1.996764183E0,1.460702419E1,2.688688517E0
3.523806866E0,1.742978811E0,1.448731422E1,3.145981073E0
3.525790508E0,1.561019540E0,1.416649151E1,3.406949043E0
3.527774151E0,1.515529633E0,1.374511242E1,3.481169224E0
3.529757793E0,1.460463047E0,1.329739666E1,3.426102638E0
3.531741436E0,1.422155857E0,1.293587208E1,3.330334663E0
3.533725079E0,1.369483352E0,1.264138508E1,3.224989653E0
3.535739239E0,1.041477680E0,1.246900272E1,2.942473888E0
3.537753399E0,6.991068721E-1,1.232774448E1,2.521094322E0
3.539767559E0,5.578489900E-1,1.218888092E1,2.140416384E0
3.541720684E0,5.315127969E-1,1.207635307E1,1.819593310E0
3.543734844E0,3.040636182E-1,1.204283428E1,1.438915253E0
3.545749004E0,4.548983276E-2,1.204283428E1,1.007958889E0
3.547763165E0,-8.140286058E-2,1.203325748E1,6.344634295E-1
3.549777325E0,-2.154781520E-1,1.201649857E1,3.423708379E-1
3.551791485E0,-2.873041928E-1,1.199016190E1,9.816227108E-2
3.553775127E0,-1.580173075E-1,1.187763500E1,-1.197100878E-1
3.555789288E0,1.604115069E-1,1.169567490E1,-3.351882398E-1
3.557803448E0,5.171475410E-1,1.148977375E1,-5.482721925E-1
3.559787090E0,8.283938169E-1,1.131499767E1,-7.374141216E-1
3.561770733E0,1.259350061E0,1.116655636E1,-8.068459630E-1
3.563754375E0,1.572990537E0,1.107078838E1,-8.212111592E-1
3.565738018E0,1.769315004E0,1.101572227E1,-8.810662031E-1
3.567752178E0,1.968033791E0,1.098220348E1,-9.337386489E-1
3.569766338E0,2.164358377E0,1.097502041E1,-9.768342972E-1
3.571780499E0,2.351106167E0,1.097741508E1,-1.017535686E0
3.573794659E0,2.602497339E0,1.093910789E1,-9.864110947E-1
3.575808819E0,2.796427488E0,1.089361763E1,-9.121908545E-1
3.577822979E0,3.047818661E0,1.084333992E1,-8.954314590E-1
3.579837139E0,3.349488258E0,1.077630138E1,-9.217676520E-1
3.581820782E0,3.569754839E0,1.069729328E1,-8.858546019E-1
3.583834942E0,3.751713991E0,1.060391903E1,-7.685387731E-1
3.585849102E0,3.806780815E0,1.052251625E1,-5.817909837E-1
3.587863262E0,3.801992416E0,1.045547867E1,-2.968810201E-1
3.589877422E0,3.849876404E0,1.038125896E1,7.182605099E-3
3.591861065E0,3.892971992E0,1.027591324E1,2.322375625E-1
3.593844707E0,3.936067581E0,1.012268448E1,4.908113480E-1
3.595828350E0,4.003105164E0,9.955090523E0,9.409212470E-1
3.597811993E0,4.089296341E0,9.765948296E0,1.323993564E0
3.599795635E0,4.240131378E0,9.531316757E0,1.628057122E0
3.601748760E0,4.951209068E0,9.093177795E0,2.513911724E0
3.603762920E0,5.825092793E0,8.451532364E0,3.629609823E0
3.605777081E0,5.899312973E0,7.888894558E0,4.544194698E0
3.607791241E0,5.228936672E0,7.443572998E0,4.623203278E0
3.609805401E0,4.266467571E0,7.098807812E0,3.809175014E0
3.611789043E0,3.464409828E0,6.746860504E0,2.035071373E0
3.613772686E0,2.839523315E0,6.385335922E0,-1.101332754E-1
3.615756329E0,2.293645144E0,6.220136166E0,-1.685518026E0
3.617739971E0,1.721431017E0,6.270414352E0,-2.489969730E0
3.619723614E0,1.089361787E0,6.426037312E0,-2.846705914E0
3.621707256E0,6.368576288E-1,6.651092529E0,-2.892195702E0
3.623690899E0,5.267243981E-1,6.888118267E0,-2.590526342E0
3.625674541E0,6.584054828E-1,7.110779285E0,-1.877054095E0
3.627688702E0,8.523358107E-1,7.352593422E0,-9.097966552E-1
3.629672344E0,1.065419793E0,7.603984833E0,5.027823523E-2
3.631686504E0,1.223437071E0,7.879317760E0,9.935936928E-1
3.633700665E0,1.343147159E0,8.142680168E0,1.912967205E0
3.635684307E0,1.347935557E0,8.374917984E0,2.980781078E0
3.637698467E0,1.113303781E0,8.439560890E0,4.228160381E0
3.639743145E0,7.852981687E-1,8.315062523E0,5.090072632E0
3.641726788E0,5.602431893E-1,8.291120529E0,5.269638062E0
3.643740948E0,4.357447028E-1,8.446743965E0,5.023035049E0
3.645755108E0,3.615244627E-1,8.738836288E0,4.745307922E0
3.647738750E0,3.950432837E-1,9.045293808E0,4.592078686E0
3.649722393E0,4.572925270E-1,9.253589630E0,4.541800499E0
3.651706036E0,4.596867263E-1,9.421183586E0,4.587290287E0
3.653689678E0,4.237737060E-1,9.619902611E0,4.592078686E0
3.655673321E0,3.663128614E-1,9.804255486E0,4.264073372E0
3.657687481E0,3.926490843E-1,9.945513725E0,3.564966440E0
3.659671124E0,6.560112834E-1,1.002452278E1,2.650381327E0
3.661654766E0,9.959878922E-1,1.010353088E1,1.592144132E0
3.663638409E0,1.216254473E0,1.018493366E1,5.913678408E-1
3.665652569E0,1.027112484E0,1.022324085E1,-4.046200812E-1
3.667636211E0,4.525041282E-1,1.012747288E1,-1.996764183E0
3.669650372E0,-7.182605099E-3,9.909601212E0,-3.983951569E0
3.671664532E0,-3.567360640E-1,9.789890289E0,-5.169081688E0
3.673678692E0,-9.816226959E-1,9.856928825E0,-4.630385876E0
3.675692852E0,-1.786074519E0,1.017535686E1,-1.944091797E0
3.677707012E0,-1.403002143E0,1.084812832E1,2.329558372E0
3.679721172E0,-1.912967205E0,1.146583176E1,4.525041103E0
3.681735332E0,-3.169923067E0,1.108275986E1,2.097320795E0
3.683718975E0,-1.596932530E0,1.007001209E1,-4.309563041E-1
3.685702618E0,2.427720547E0,9.263166428E0,-5.698199868E-1
3.687686260E0,5.015852451E0,8.990227699E0,-3.136404157E-1
3.689669903E0,5.561730385E0,8.920795441E0,-3.519476354E-1
3.691684063E0,5.200206280E0,8.904036522E0,-3.591302633E-1
3.693667706E0,4.572925091E0,8.942343712E0,-2.274491638E-1
3.695651348E0,3.866635799E0,9.035717010E0,-8.379705995E-2
3.697665508E0,3.141192675E0,9.176975250E0,-1.675941236E-2
3.699679668E0,2.595314741E0,9.332598686E0,1.675941236E-2
3.701663311E0,2.279279947E0,9.488221169E0,6.943184882E-2
3.703646954E0,2.130839586E0,9.617507935E0,1.747767180E-1
3.705630596E0,2.104503393E0,9.718064308E0,3.016694188E-1
3.707644756E0,2.173935175E0,9.797073364E0,4.141969085E-1
3.709658916E0,2.272097349E0,9.830592155E0,4.979939461E-1
3.711673077E0,2.346317768E0,9.837775230E0,5.746083856E-1
3.713656719E0,2.396595955E0,9.823410034E0,6.368576288E-1
3.715670879E0,2.403778553E0,9.789890289E0,6.727706790E-1
3.717685040E0,2.329558372E0,9.737217903E0,6.847416759E-1
3.719699200E0,2.197877169E0,9.691728592E0,6.727706790E-1
3.721713360E0,2.054224968E0,9.674968719E0,6.679822803E-1
3.723697002E0,1.929726601E0,9.715670586E0,6.153098345E-1
3.725680645E0,1.862688899E0,9.742006302E0,5.123591423E-1
3.727664288E0,1.862688899E0,9.686940193E0,4.477157295E-1
3.729678448E0,1.838746905E0,9.603142738E0,4.189853072E-1
3.731662090E0,1.726219416E0,9.524134636E0,3.830722570E-1
3.733645733E0,1.532289028E0,9.452308655E0,3.280056417E-1
3.735659893E0,1.335964561E0,9.373299599E0,2.657563984E-1
3.737674053E0,1.173158884E0,9.313444138E0,2.035071403E-1
3.739688213E0,1.055842996E0,9.275136948E0,1.364694983E-1
3.741641338E0,9.193734527E-1,9.220070839E0,5.027823523E-2
3.743655499E0,7.924807668E-1,9.160215378E0,-4.070143029E-2
3.745669659E0,7.661445141E-1,9.124302864E0,-1.388636976E-1
3.747683819E0,7.805097699E-1,9.107542992E0,-2.681505978E-1
3.749697979E0,7.637503147E-1,9.107542992E0,-4.285621047E-1
3.751712139E0,7.230489254E-1,9.131484985E0,-5.698199868E-1
3.753695782E0,6.847416759E-1,9.181763649E0,-6.799532771E-1
3.755679424E0,6.679822803E-1,9.246406555E0,-7.398083210E-1
3.757663067E0,6.512228847E-1,9.313444138E0,-7.924807668E-1
3.759646709E0,6.392518282E-1,9.378087997E0,-8.259995580E-1
3.761630352E0,6.272808313E-1,9.447520256E0,-8.403648138E-1
3.763644512E0,6.296750307E-1,9.507374763E0,-8.259995580E-1
3.765658672E0,6.368576288E-1,9.536105156E0,-7.541735172E-1
3.767642315E0,6.943184733E-1,9.540893555E0,-7.086837292E-1
3.769656475E0,7.829039693E-1,9.562441826E0,-7.182605267E-1
3.771670635E0,8.882488012E-1,9.586383820E0,-6.967126727E-1
3.773684795E0,1.039083481E0,9.591172218E0,-6.200982332E-1
3.775698956E0,1.177947283E0,9.576807022E0,-5.482721925E-1
3.777713116E0,1.264138460E0,9.557653427E0,-4.836287498E-1
3.779727276E0,1.312022567E0,9.531316757E0,-3.974374831E-1
3.781710918E0,1.376665950E0,9.502586365E0,-2.920926213E-1
3.783725079E0,1.470039845E0,9.481039047E0,-1.843535304E-1
3.785739239E0,1.594538331E0,9.459490776E0,-8.858546615E-2
3.787753399E0,1.733402014E0,9.435548782E0,-1.197100803E-2
3.789767559E0,1.879448295E0,9.406818390E0,1.675941236E-2
3.791751202E0,2.018311977E0,9.375694275E0,9.576806799E-3
3.793734844E0,2.118868589E0,9.366117477E0,-2.394201607E-2
3.795749004E0,2.185906172E0,9.366117477E0,-8.619125932E-2
3.797732647E0,2.231395960E0,9.349357605E0,-1.723825186E-1
3.799716290E0,2.260126352E0,9.332598686E0,-2.849099934E-1
3.801699932E0,2.264914751E0,9.337387085E0,-4.118026793E-1
3.803683575E0,2.238578558E0,9.342175484E0,-5.339069963E-1
3.805636700E0,2.200271368E0,9.354146004E0,-6.392518282E-1
3.807650860E0,2.154781580E0,9.378087997E0,-7.374141216E-1
3.809665020E0,2.116474390E0,9.402029991E0,-8.331822157E-1
3.811679180E0,2.070984364E0,9.440337181E0,-9.121908545E-1
3.813693340E0,2.025494576E0,9.483432770E0,-9.648633003E-1
3.815707500E0,1.980004787E0,9.531316757E0,-1.003170490E0
3.817721661E0,1.900996208E0,9.567230225E0,-1.060631394E0
3.819735821E0,1.805228114E0,9.591172218E0,-1.115697980E0
3.821749981E0,1.685518026E0,9.612719536E0,-1.113303781E0
3.823733624E0,1.534683347E0,9.653421402E0,-1.067813993E0
3.825747784E0,1.362300754E0,9.686940193E0,-1.043871999E0
3.827761944E0,1.259350061E0,9.694122314E0,-1.043871999E0
3.829776104E0,1.211466074E0,9.679757118E0,-1.005564690E0
3.831790264E0,1.130063176E0,9.660603523E0,-9.265560508E-1
3.833773907E0,9.576807022E-1,9.651026726E0,-9.026140571E-1
3.835757549E0,7.709329724E-1,9.629479408E0,-9.217676520E-1
3.837741192E0,6.584054828E-1,9.624691010E0,-9.385270476E-1
3.839724834E0,5.913678408E-1,9.607931137E0,-9.864110947E-1
3.841708477E0,5.339069963E-1,9.567230225E0,-1.055842996E0
3.843722637E0,4.836287498E-1,9.526528358E0,-1.115697980E0
3.845706280E0,4.716577232E-1,9.507374763E0,-1.137245774E0
3.847720440E0,4.812345505E-1,9.502586365E0,-1.132457376E0
3.849734600E0,4.716577232E-1,9.512163162E0,-1.122880578E0
3.851748760E0,4.453215301E-1,9.540893555E0,-1.115697980E0
3.853762920E0,3.998316824E-1,9.591172218E0,-1.113303781E0
3.855777081E0,3.974374831E-1,9.595960617E0,-1.094150186E0
3.857791241E0,4.908113480E-1,9.545681953E0,-1.060631394E0
3.859774883E0,5.985504389E-1,9.500192642E0,-1.043871999E0
3.861758526E0,6.248866320E-1,9.493009567E0,-1.048660398E0
3.863772686E0,6.081272364E-1,9.502586365E0,-1.082179189E0
3.865786846E0,5.746083856E-1,9.507374763E0,-1.127668977E0
3.867770489E0,5.482721925E-1,9.507374763E0,-1.170764685E0
3.869754131E0,5.530605912E-1,9.514557838E0,-1.197100878E0
3.871737774E0,5.841852427E-1,9.514557838E0,-1.206677675E0
3.873721416E0,6.248866320E-1,9.504981041E0,-1.228225470E0
3.875705059E0,6.655880809E-1,9.483432770E0,-1.242590666E0
3.877688702E0,7.230489254E-1,9.469067574E0,-1.256955862E0
3.879672344E0,7.996633649E-1,9.471462250E0,-1.273715258E0
3.881655987E0,8.810662031E-1,9.478644371E0,-1.288080573E0
3.883670147E0,9.816226959E-1,9.476250648E0,-1.276109457E0
3.885684307E0,1.058237195E0,9.464279175E0,-1.228225470E0
3.887667950E0,1.084573388E0,9.478644371E0,-1.154005170E0
3.889651592E0,1.103726983E0,9.514557838E0,-1.077390790E0
3.891635235E0,1.130063176E0,9.536105156E0,-1.022324085E0
3.893618877E0,1.161187768E0,9.567230225E0,-9.840168953E-1
3.895602520E0,1.177947283E0,9.603142738E0,-9.624691010E-1
3.897586163E0,1.201889277E0,9.648633003E0,-9.385270476E-1
3.899569805E0,1.237802267E0,9.696516991E0,-8.834604025E-1
3.901553448E0,1.259350061E0,9.749189377E0,-8.283938169E-1
3.903537090E0,1.259350061E0,9.818621635E0,-7.565677166E-1
3.905551250E0,1.240196466E0,9.904812813E0,-6.919242740E-1
3.907534893E0,1.165976286E0,9.995792389E0,-6.607996821E-1
3.909549053E0,1.098938584E0,1.008677197E1,-6.392518282E-1
3.911563213E0,1.079784989E0,1.017535686E1,-6.464344859E-1
3.913577374E0,1.089361787E0,1.025675964E1,-6.727706790E-1
3.915591534E0,1.065419793E0,1.033576870E1,-7.038952708E-1
3.917605694E0,9.911994934E-1,1.039322948E1,-7.278373241E-1
3.919619854E0,9.050082564E-1,1.043632507E1,-7.350199223E-1
3.921634014E0,8.595184088E-1,1.046984386E1,-7.517793179E-1
3.923617657E0,8.595184088E-1,1.048660374E1,-7.757213712E-1
3.925601299E0,8.882488012E-1,1.047702694E1,-7.876923680E-1
3.927584942E0,8.906430602E-1,1.046266174E1,-8.236053586E-1
3.929568584E0,8.427590132E-1,1.044829655E1,-9.145850539E-1
3.931582745E0,8.068459630E-1,1.040998936E1,-1.041477680E0
3.933566387E0,8.212111592E-1,1.032858658E1,-1.173158884E0
3.935550030E0,8.786720037E-1,1.023281765E1,-1.314416766E0
3.937564190E0,9.241618514E-1,1.014902115E1,-1.453280449E0
3.939578350E0,9.361328483E-1,1.007719517E1,-1.592144132E0
3.941561993E0,9.121908545E-1,1.002212811E1,-1.733402014E0
3.943545635E0,8.690952063E-1,9.981427193E0,-1.869871497E0
3.945529278E0,8.212111592E-1,9.931148529E0,-1.984793186E0
3.947543438E0,7.829039693E-1,9.880870819E0,-2.008735180E0
3.949557598E0,7.038952708E-1,9.835380554E0,-1.946485996E0
3.951571758E0,5.506663918E-1,9.792284966E0,-1.860294700E0
3.953555401E0,3.878606856E-1,9.744400978E0,-1.752555609E0
3.955569561E0,2.729389966E-1,9.710882187E0,-1.635239720E0
3.957583721E0,2.059013397E-1,9.698910713E0,-1.513135433E0
3.959597881E0,9.576806426E-2,9.689333916E0,-1.414973259E0
3.961612041E0,-8.140286058E-2,9.686940193E0,-1.316810966E0
3.963626202E0,-2.825157940E-1,9.694122314E0,-1.192312479E0
3.965640362E0,-4.525041282E-1,9.701305389E0,-1.048660398E0
3.967624004E0,-5.650315881E-1,9.727641106E0,-9.169792533E-1
3.969607647E0,-6.153098345E-1,9.782708168E0,-8.403648138E-1
3.971591290E0,-6.200982332E-1,9.842563629E0,-8.068459630E-1
3.973574932E0,-5.913678408E-1,9.895236015E0,-7.900865674E-1
3.975558575E0,-5.315127969E-1,9.940725327E0,-7.924807668E-1
3.977542217E0,-4.405331016E-1,9.959878922E0,-8.068459630E-1
3.979525860E0,-3.423708379E-1,9.955090523E0,-8.068459630E-1
3.981509502E0,-2.418143749E-1,9.935936928E0,-8.068459630E-1
3.983493145E0,-1.364694983E-1,9.911994934E0,-8.331822157E-1
3.985476788E0,-1.197100803E-2,9.883264542E0,-8.978256583E-1
3.987490948E0,1.221042871E-1,9.859322548E0,-9.816226959E-1
3.989505108E0,2.394201756E-1,9.832986832E0,-1.048660398E0
3.991519268E0,3.567360640E-1,9.792284966E0,-1.074996591E0
3.993502911E0,4.932055473E-1,9.751583099E0,-1.091755986E0
3.995486553E0,6.320692301E-1,9.715670586E0,-1.118092179E0
3.997470196E0,7.469909191E-1,9.682151794E0,-1.137245774E0
3.999453838E0,8.355764151E-1,9.653421402E0,-1.137245774E0
4.001437481E0,9.002198577E-1,9.615114212E0,-1.125274777E0
4.003451641E0,9.361328483E-1,9.562441826E0,-1.132457376E0
4.005435284E0,9.457096457E-1,9.516951561E0,-1.072602391E0
4.007449444E0,9.457096457E-1,9.461885452E0,-9.911994934E-1
4.009463604E0,9.361328483E-1,9.390059471E0,-9.433154464E-1
4.011477764E0,9.241618514E-1,9.318233490E0,-9.193734527E-1
4.013491924E0,9.169792533E-1,9.244012833E0,-8.810662031E-1
4.015506084E0,9.002198577E-1,9.162610054E0,-8.236053586E-1
4.017520245E0,8.834604025E-1,9.081207275E0,-7.326257229E-1
4.019503887E0,8.786720037E-1,9.004592896E0,-6.224924326E-1
4.021487530E0,8.667010069E-1,8.935160637E0,-5.147533417E-1
4.023501690E0,8.643068075E-1,8.889671326E0,-4.118026793E-1
4.025515850E0,8.619126081E-1,8.851364136E0,-3.088520169E-1
4.027530010E0,8.523358107E-1,8.836998940E0,-1.987187415E-1
4.029513653E0,8.571242094E-1,8.844181061E0,-8.140286058E-2
4.031497295E0,9.002198577E-1,8.839392662E0,-1.675941236E-2
4.033480938E0,9.576807022E-1,8.832210541E0,3.591302410E-2
4.035464581E0,1.003170490E0,8.844181061E0,8.619125932E-2
4.037448223E0,1.031900883E0,8.856152534E0,1.221042871E-1
4.039431866E0,1.036689281E0,8.863334656E0,1.364694983E-1
4.041384991E0,1.051054597E0,8.877699852E0,1.268926859E-1
4.043399151E0,1.079784989E0,8.892065048E0,9.816227108E-2
4.045413311E0,1.115697980E0,8.892065048E0,5.985504389E-2
4.047396954E0,1.173158884E0,8.884882927E0,1.436521020E-2
4.049380596E0,1.240196466E0,8.863334656E0,-4.309562966E-2
4.051364239E0,1.307234168E0,8.844181061E0,-1.053448766E-1
4.053347881E0,1.367089152E0,8.827422142E0,-1.675941199E-1
4.055362041E0,1.419761658E0,8.805873871E0,-2.154781520E-1
4.057345684E0,1.482010841E0,8.793902397E0,-2.489969730E-1
4.059359844E0,1.553836942E0,8.786720276E0,-2.705447972E-1
4.061343487E0,1.618480325E0,8.767566681E0,-2.681505978E-1
4.063357647E0,1.683123827E0,8.753201485E0,-2.442085743E-1
4.065341290E0,1.747767210E0,8.741230011E0,-2.011129409E-1
4.067355450E0,1.790862918E0,8.722076416E0,-1.388636976E-1
4.069369610E0,1.831564307E0,8.712499619E0,-7.422025502E-2
4.071383770E0,1.874659896E0,8.712499619E0,-2.633621916E-2
4.073397930E0,1.915361404E0,8.714894295E0,0.000000000E0
4.075412090E0,1.956062794E0,8.719682693E0,1.197100803E-2
4.077426250E0,2.003946781E0,8.731653214E0,1.675941236E-2
4.079409893E0,2.056619167E0,8.757989883E0,2.394201607E-2
4.081393536E0,2.092532396E0,8.798690796E0,5.506663769E-2
4.083377178E0,2.123656988E0,8.865729332E0,1.173158810E-1
4.085360821E0,2.154781580E0,8.947132111E0,2.059013397E-1
4.087344463E0,2.181117773E0,9.040505409E0,2.992752194E-1
4.089358624E0,2.193088770E0,9.150638580E0,3.758896589E-1
4.091372784E0,2.200271368E0,9.258378029E0,4.213795066E-1
4.093386944E0,2.195482969E0,9.342175484E0,4.501099288E-1
4.095401104E0,2.176329374E0,9.402029991E0,4.716577232E-1
4.097415264E0,2.149993181E0,9.454702377E0,4.836287498E-1
4.099429424E0,2.106897593E0,9.485827446E0,5.099649429E-1
4.101413067E0,2.066195965E0,9.488221169E0,5.339069963E-1
4.103427227E0,2.025494576E0,9.500192642E0,5.698199868E-1
4.105441387E0,1.989581585E0,9.507374763E0,6.153098345E-1
4.107455547E0,1.970427990E0,9.514557838E0,6.679822803E-1
4.109469707E0,1.963245392E0,9.521739960E0,7.278373241E-1
4.111453350E0,1.975216389E0,9.538499832E0,7.924807668E-1
4.113436993E0,2.102109194E0,9.598354340E0,8.571242094E-1
4.115451153E0,2.281674147E0,9.662998199E0,9.289502501E-1
4.117434795E0,2.245761156E0,9.646238327E0,9.552865028E-1
4.119418438E0,2.102109194E0,9.634267807E0,1.005564690E0
4.121402081E0,1.972822189E0,9.641449928E0,1.000776291E0
4.123385723E0,1.927332401E0,9.655815125E0,9.481038451E-1
4.125338848E0,1.908178806E0,9.710882187E0,9.313444495E-1
4.127353008E0,1.944091797E0,9.751583099E0,9.337386489E-1
4.129367168E0,2.070984364E0,9.751583099E0,8.786720037E-1
4.131381329E0,2.226607561E0,9.763554573E0,8.188169599E-1
4.133395489E0,2.346317768E0,9.794678688E0,8.020575643E-1
4.135409649E0,2.446874142E0,9.842563629E0,8.068459630E-1
4.137423809E0,2.501940727E0,9.902418137E0,8.092401624E-1
4.139407452E0,2.504334927E0,9.979032516E0,7.972691655E-1
4.141391094E0,2.516305923E0,1.008198357E1,7.517793179E-1
4.143405254E0,2.513911724E0,1.015380955E1,7.469909191E-1
4.145419415E0,2.509123325E0,1.013944435E1,7.781155705E-1
4.147403057E0,2.585737944E0,9.952696800E0,7.206547260E-1
4.149386700E0,2.659958124E0,9.739612579E0,6.200982332E-1
4.151370342E0,2.588132143E0,9.730035782E0,7.302315235E-1
4.153353985E0,2.458845139E0,9.880870819E0,9.816226959E-1
4.155337627E0,2.303221941E0,1.003649330E1,1.302445769E0
4.157351788E0,2.152387381E0,1.010592556E1,1.620874524E0
4.159335430E0,2.035071373E0,1.009634876E1,1.833958507E0
4.161319073E0,1.932120800E0,1.000536919E1,1.972822189E0
4.163333233E0,1.910573006E0,9.902418137E0,2.025494576E0
4.165347393E0,1.987187386E0,9.830592155E0,1.980004787E0
4.167361553E0,2.102109194E0,9.749189377E0,1.903390408E0
4.169345196E0,2.193088770E0,9.651026726E0,1.819593310E0
4.171328838E0,2.264914751E0,9.545681953E0,1.790862918E0
4.173312481E0,2.353500366E0,9.459490776E0,1.750161409E0
4.175296124E0,2.458845139E0,9.368511200E0,1.637633920E0
4.177279766E0,2.578555346E0,9.284713745E0,1.525106430E0
