Time (s),Acceleration x (m/s^2),Acceleration y (m/s^2),Acceleration z (m/s^2)
20.03,-0.59,9.34,1.34
20.03,-0.57,9.38,1.35
20.03,-0.63,9.39,1.38
20.03,-0.61,9.38,1.38
20.04,-0.62,9.40,1.33
20.04,-0.64,9.39,1.35
20.04,-0.66,9.41,1.32
20.04,-0.66,9.41,1.35
20.05,-0.66,9.42,1.33
20.05,-0.67,9.42,1.37
20.05,-0.74,9.38,1.38
20.05,-0.74,9.39,1.35
20.06,-0.73,9.39,1.32
20.06,-0.73,9.38,1.32
20.06,-0.68,9.42,1.35
20.06,-0.71,9.39,1.35
20.07,-0.71,9.36,1.32
20.07,-0.69,9.35,1.28
20.07,-0.68,9.37,1.21
20.07,-0.66,9.36,1.30
20.08,-0.65,9.30,1.28
20.08,-0.63,9.33,1.19
20.08,-0.55,9.32,1.18
20.08,-0.53,9.29,1.21
20.09,-0.56,9.29,1.16
20.09,-0.57,9.32,1.19
20.09,-0.54,9.33,1.20
20.09,-0.55,9.32,1.19
20.10,-0.50,9.34,1.20
20.10,-0.52,9.34,1.19
20.10,-0.49,9.36,1.16
20.10,-0.50,9.36,1.21
20.11,-0.56,9.37,1.25
20.11,-0.52,9.40,1.26
20.11,-0.54,9.40,1.20
20.11,-0.57,9.37,1.25
20.12,-0.58,9.36,1.30
20.12,-0.57,9.35,1.25
20.12,-0.53,9.40,1.26
20.12,-0.54,9.39,1.29
20.13,-0.54,9.35,1.30
20.13,-0.54,9.34,1.27
20.13,-0.52,9.33,1.26
20.13,-0.48,9.30,1.20
20.14,-0.51,9.34,1.21
20.14,-0.50,9.32,1.30
20.14,-0.50,9.30,1.25
20.14,-0.46,9.29,1.20
20.15,-0.48,9.30,1.22
20.15,-0.44,9.30,1.18
20.15,-0.45,9.31,1.21
20.15,-0.49,9.29,1.14
20.16,-0.46,9.31,1.16
20.16,-0.46,9.30,1.20
20.16,-0.47,9.28,1.19
20.16,-0.45,9.26,1.18
20.17,-0.51,9.25,1.22
20.17,-0.51,9.26,1.24
20.17,-0.50,9.29,1.19
20.17,-0.51,9.31,1.23
20.18,-0.50,9.28,1.26
20.18,-0.53,9.29,1.23
20.18,-0.54,9.31,1.25
20.18,-0.55,9.30,1.33
20.19,-0.54,9.33,1.29
20.19,-0.55,9.31,1.32
20.19,-0.54,9.33,1.34
20.19,-0.58,9.33,1.27
20.20,-0.56,9.33,1.27
20.20,-0.59,9.33,1.27
20.20,-0.60,9.31,1.26
20.20,-0.56,9.33,1.26
20.21,-0.62,9.37,1.28
20.21,-0.61,9.33,1.22
20.21,-0.61,9.29,1.17
20.21,-0.59,9.30,1.21
20.22,-0.62,9.30,1.20
20.22,-0.61,9.24,1.20
20.22,-0.60,9.28,1.22
20.22,-0.61,9.25,1.24
20.23,-0.65,9.25,1.22
20.23,-0.62,9.24,1.27
20.23,-0.62,9.25,1.26
20.23,-0.64,9.24,1.26
20.24,-0.65,9.27,1.34
20.24,-0.64,9.29,1.34
20.24,-0.64,9.22,1.37
20.24,-0.62,9.25,1.40
20.25,-0.64,9.26,1.44
20.25,-0.61,9.24,1.40
20.25,-0.66,9.22,1.41
20.25,-0.62,9.27,1.42
20.26,-0.62,9.30,1.42
20.26,-0.60,9.29,1.42
20.26,-0.61,9.28,1.38
20.26,-0.61,9.26,1.32
20.27,-0.61,9.24,1.35
20.27,-0.60,9.27,1.35
20.27,-0.59,9.29,1.35
20.27,-0.60,9.30,1.35
20.28,-0.58,9.26,1.30
20.28,-0.60,9.27,1.29
20.28,-0.60,9.30,1.28
20.28,-0.58,9.33,1.25
20.29,-0.61,9.32,1.25
20.29,-0.61,9.36,1.20
20.29,-0.58,9.37,1.18
20.29,-0.60,9.36,1.16
20.30,-0.64,9.35,1.20
20.30,-0.63,9.37,1.13
20.30,-0.63,9.38,1.14
20.30,-0.60,9.36,1.11
20.31,-0.60,9.33,1.18
20.31,-0.65,9.37,1.20
20.31,-0.64,9.35,1.17
20.31,-0.62,9.34,1.18
20.32,-0.61,9.35,1.23
20.32,-0.64,9.31,1.29
20.32,-0.64,9.31,1.29
20.32,-0.66,9.32,1.30
20.33,-0.66,9.30,1.38
20.33,-0.68,9.32,1.36
20.33,-0.66,9.34,1.32
20.33,-0.68,9.32,1.38
20.34,-0.67,9.33,1.41
20.34,-0.66,9.31,1.34
20.34,-0.68,9.27,1.37
20.34,-0.68,9.32,1.38
20.35,-0.69,9.32,1.40
20.35,-0.66,9.31,1.38
20.35,-0.67,9.32,1.40
20.35,-0.65,9.28,1.35
20.36,-0.65,9.30,1.39
20.36,-0.66,9.32,1.38
20.36,-0.68,9.30,1.31
20.36,-0.67,9.30,1.29
20.37,-0.67,9.34,1.28
20.37,-0.67,9.30,1.33
20.37,-0.68,9.27,1.25
20.37,-0.66,9.31,1.23
20.38,-0.66,9.31,1.20
20.38,-0.69,9.26,1.22
20.38,-0.72,9.23,1.20
20.38,-0.69,9.29,1.23
20.39,-0.60,9.30,1.23
20.39,-0.62,9.29,1.25
20.39,-0.62,9.33,1.25
20.39,-0.61,9.32,1.27
20.40,-0.65,9.33,1.28
20.40,-0.63,9.33,1.29
20.40,-0.61,9.36,1.33
20.40,-0.61,9.34,1.32
20.41,-0.63,9.34,1.33
20.41,-0.62,9.37,1.36
20.41,-0.63,9.35,1.41
20.41,-0.58,9.35,1.36
20.42,-0.63,9.35,1.33
20.42,-0.61,9.31,1.36
20.42,-0.58,9.30,1.39
20.42,-0.60,9.31,1.32
20.43,-0.60,9.35,1.32
20.43,-0.63,9.30,1.35
20.43,-0.63,9.29,1.29
20.43,-0.63,9.28,1.30
20.44,-0.63,9.30,1.31
20.44,-0.67,9.29,1.31
20.44,-0.70,9.30,1.30
20.44,-0.69,9.32,1.25
20.45,-0.70,9.30,1.26
20.45,-0.71,9.31,1.24
20.45,-0.69,9.30,1.27
20.45,-0.70,9.30,1.30
20.46,-0.69,9.30,1.26
20.46,-0.69,9.28,1.28
20.46,-0.67,9.26,1.30
20.46,-0.66,9.29,1.26
20.47,-0.67,9.29,1.23
20.47,-0.62,9.30,1.23
20.47,-0.62,9.29,1.29
20.47,-0.61,9.30,1.24
20.48,-0.57,9.30,1.23
20.48,-0.58,9.32,1.28
20.48,-0.60,9.31,1.31
20.48,-0.57,9.33,1.31
20.49,-0.59,9.32,1.27
20.49,-0.56,9.30,1.31
20.49,-0.52,9.32,1.27
20.49,-0.57,9.34,1.32
20.50,-0.56,9.29,1.35
20.50,-0.55,9.29,1.25
20.50,-0.58,9.34,1.35
20.50,-0.55,9.31,1.31
20.51,-0.56,9.32,1.28
20.51,-0.55,9.27,1.28
20.51,-0.54,9.31,1.29
20.51,-0.54,9.31,1.28
20.52,-0.59,9.33,1.28
20.52,-0.54,9.32,1.25
20.52,-0.53,9.34,1.29
20.52,-0.56,9.32,1.30
20.53,-0.55,9.33,1.28
20.53,-0.59,9.30,1.27
20.53,-0.55,9.27,1.24
20.53,-0.52,9.25,1.23
20.54,-0.55,9.30,1.26
20.54,-0.56,9.30,1.29
20.54,-0.59,9.25,1.26
20.54,-0.59,9.23,1.32
20.55,-0.61,9.24,1.26
20.55,-0.61,9.24,1.31
20.55,-0.57,9.23,1.24
20.55,-0.60,9.23,1.23
20.56,-0.58,9.24,1.29
20.56,-0.59,9.25,1.30
20.56,-0.60,9.24,1.28
20.56,-0.59,9.24,1.30
20.57,-0.62,9.27,1.28
20.57,-0.63,9.28,1.22
20.57,-0.64,9.27,1.24
20.57,-0.61,9.26,1.30
20.58,-0.64,9.30,1.32
20.58,-0.61,9.30,1.31
20.58,-0.63,9.31,1.30
20.58,-0.63,9.32,1.35
20.59,-0.61,9.31,1.34
20.59,-0.61,9.38,1.32
20.59,-0.60,9.37,1.34
20.59,-0.61,9.38,1.38
20.60,-0.61,9.44,1.38
20.60,-0.66,9.38,1.38
20.60,-0.65,9.36,1.41
20.60,-0.69,9.36,1.41
20.61,-0.68,9.33,1.41
20.61,-0.65,9.36,1.40
20.61,-0.67,9.38,1.38
20.61,-0.64,9.31,1.40
20.62,-0.61,9.33,1.39
20.62,-0.62,9.32,1.34
20.62,-0.65,9.28,1.37
20.62,-0.64,9.26,1.34
20.63,-0.64,9.29,1.30
20.63,-0.66,9.24,1.28
20.63,-0.64,9.26,1.26
20.63,-0.64,9.26,1.23
20.64,-0.66,9.21,1.25
20.64,-0.67,9.25,1.23
20.64,-0.67,9.29,1.18
20.64,-0.66,9.28,1.22
20.65,-0.60,9.25,1.22
20.65,-0.64,9.28,1.21
20.65,-0.69,9.28,1.23
20.65,-0.66,9.31,1.26
20.66,-0.64,9.32,1.29
20.66,-0.69,9.31,1.29
20.66,-0.68,9.35,1.30
20.66,-0.69,9.35,1.34
20.67,-0.69,9.34,1.26
20.67,-0.69,9.36,1.29
20.67,-0.66,9.31,1.31
20.67,-0.68,9.29,1.29
20.68,-0.69,9.31,1.33
20.68,-0.71,9.30,1.32
20.68,-0.72,9.32,1.32
20.68,-0.72,9.34,1.32
20.69,-0.69,9.30,1.39
20.69,-0.73,9.34,1.30
20.69,-0.74,9.31,1.34
20.69,-0.72,9.31,1.38
20.70,-0.75,9.30,1.34
20.70,-0.72,9.31,1.35
20.70,-0.72,9.31,1.38
20.70,-0.72,9.29,1.36
20.71,-0.73,9.31,1.36
20.71,-0.72,9.28,1.36
20.71,-0.77,9.28,1.36
20.71,-0.72,9.31,1.35
20.72,-0.69,9.26,1.33
20.72,-0.74,9.28,1.29
20.72,-0.74,9.30,1.30
20.72,-0.75,9.25,1.27
20.73,-0.72,9.24,1.26
20.73,-0.75,9.27,1.27
20.73,-0.75,9.27,1.28
20.73,-0.73,9.25,1.26
20.74,-0.74,9.25,1.25
20.74,-0.72,9.24,1.25
20.74,-0.69,9.26,1.26
20.74,-0.69,9.23,1.25
20.75,-0.67,9.25,1.27
20.75,-0.72,9.25,1.29
20.75,-0.69,9.26,1.29
20.75,-0.67,9.28,1.27
20.76,-0.69,9.27,1.33
20.76,-0.66,9.29,1.28
20.76,-0.68,9.26,1.35
20.76,-0.69,9.23,1.35
20.77,-0.61,9.24,1.34
20.77,-0.64,9.26,1.29
20.77,-0.68,9.27,1.31
20.77,-0.67,9.26,1.37
20.78,-0.63,9.24,1.32
20.78,-0.69,9.30,1.34
20.78,-0.66,9.31,1.34
20.78,-0.66,9.27,1.35
20.79,-0.65,9.29,1.33
20.79,-0.65,9.32,1.30
20.79,-0.68,9.27,1.31
20.79,-0.71,9.22,1.30
20.80,-0.70,9.30,1.34
20.80,-0.70,9.30,1.26
20.80,-0.67,9.27,1.27
20.80,-0.69,9.28,1.29
20.81,-0.71,9.30,1.31
20.81,-0.74,9.26,1.31
20.81,-0.74,9.27,1.23
20.81,-0.71,9.30,1.27
20.82,-0.72,9.29,1.25
20.82,-0.71,9.31,1.27
20.82,-0.68,9.30,1.31
20.82,-0.69,9.32,1.31
20.83,-0.69,9.30,1.26
20.83,-0.66,9.33,1.29
20.83,-0.69,9.34,1.28
20.83,-0.68,9.31,1.29
20.84,-0.65,9.30,1.35
20.84,-0.62,9.30,1.33
20.84,-0.69,9.28,1.35
20.84,-0.69,9.26,1.36
20.85,-0.66,9.30,1.41
20.85,-0.69,9.27,1.38
20.85,-0.66,9.28,1.43
20.85,-0.64,9.30,1.45
20.86,-0.69,9.28,1.43
20.86,-0.67,9.29,1.41
20.86,-0.66,9.33,1.40
20.86,-0.65,9.27,1.37
20.87,-0.63,9.31,1.34
20.87,-0.62,9.31,1.31
20.87,-0.64,9.30,1.35
20.87,-0.65,9.34,1.33
20.88,-0.67,9.31,1.32
20.88,-0.66,9.30,1.34
20.88,-0.65,9.29,1.32
20.88,-0.68,9.26,1.29
20.89,-0.69,9.30,1.29
20.89,-0.74,9.31,1.29
20.89,-0.78,9.29,1.34
20.89,-0.76,9.30,1.29
20.90,-0.71,9.30,1.31
20.90,-0.74,9.30,1.33
20.90,-0.75,9.29,1.35
20.90,-0.75,9.31,1.29
20.91,-0.77,9.32,1.29
20.91,-0.79,9.30,1.35
20.91,-0.76,9.25,1.35
20.91,-0.79,9.31,1.38
20.92,-0.78,9.31,1.42
20.92,-0.75,9.29,1.39
20.92,-0.74,9.29,1.32
20.92,-0.72,9.27,1.36
20.93,-0.75,9.27,1.41
20.93,-0.77,9.30,1.37
20.93,-0.75,9.27,1.36
20.93,-0.73,9.25,1.41
20.94,-0.72,9.29,1.40
20.94,-0.69,9.30,1.44
20.94,-0.69,9.30,1.41
20.94,-0.62,9.29,1.42
20.95,-0.65,9.30,1.44
20.95,-0.66,9.31,1.47
20.95,-0.65,9.32,1.42
20.95,-0.63,9.32,1.38
20.96,-0.68,9.30,1.38
20.96,-0.68,9.32,1.40
20.96,-0.66,9.33,1.38
20.96,-0.69,9.36,1.41
20.97,-0.73,9.35,1.38
20.97,-0.73,9.35,1.36
20.97,-0.69,9.34,1.34
20.97,-0.71,9.32,1.35
20.98,-0.72,9.36,1.36
20.98,-0.78,9.31,1.30
20.98,-0.74,9.35,1.30
20.98,-0.74,9.35,1.35
20.99,-0.77,9.31,1.35
20.99,-0.78,9.27,1.35
20.99,-0.81,9.29,1.33
20.99,-0.78,9.28,1.31
21.00,-0.73,9.29,1.39
21.00,-0.75,9.26,1.36
21.00,-0.75,9.23,1.35
21.00,-0.78,9.22,1.39
21.01,-0.77,9.22,1.41
21.01,-0.78,9.24,1.35
21.01,-0.76,9.19,1.40
21.01,-0.77,9.21,1.40
21.02,-0.83,9.22,1.39
21.02,-0.82,9.19,1.39
21.02,-0.76,9.14,1.43
21.02,-0.75,9.16,1.39
21.03,-0.72,9.19,1.35
21.03,-0.74,9.21,1.37
21.03,-0.75,9.23,1.39
21.03,-0.76,9.19,1.35
21.04,-0.79,9.19,1.31
21.04,-0.78,9.22,1.37
21.04,-0.74,9.19,1.37
21.04,-0.78,9.25,1.36
21.05,-0.79,9.29,1.41
21.05,-0.77,9.27,1.35
21.05,-0.75,9.26,1.36
21.05,-0.78,9.27,1.40
21.06,-0.82,9.33,1.40
21.06,-0.74,9.32,1.47
21.06,-0.75,9.36,1.45
21.06,-0.74,9.34,1.44
21.07,-0.74,9.30,1.44
21.07,-0.80,9.34,1.49
21.07,-0.75,9.33,1.44
21.07,-0.74,9.34,1.46
21.08,-0.78,9.35,1.51
21.08,-0.81,9.31,1.43
21.08,-0.76,9.32,1.42
21.08,-0.75,9.34,1.42
21.09,-0.75,9.39,1.46
21.09,-0.74,9.34,1.43
21.09,-0.77,9.34,1.40
21.09,-0.74,9.37,1.40
21.10,-0.77,9.34,1.40
21.10,-0.73,9.32,1.42
21.10,-0.71,9.35,1.41
21.10,-0.71,9.35,1.37
21.11,-0.71,9.34,1.39
21.11,-0.70,9.34,1.43
21.11,-0.68,9.32,1.42
21.11,-0.68,9.31,1.32
21.12,-0.72,9.35,1.33
21.12,-0.70,9.30,1.38
21.12,-0.66,9.29,1.34
21.12,-0.69,9.29,1.33
21.13,-0.68,9.30,1.37
21.13,-0.67,9.28,1.36
21.13,-0.70,9.32,1.39
21.13,-0.70,9.27,1.36
21.14,-0.69,9.27,1.35
21.14,-0.71,9.30,1.39
21.14,-0.75,9.28,1.40
21.14,-0.70,9.24,1.41
21.15,-0.76,9.24,1.41
21.15,-0.76,9.23,1.45
21.15,-0.74,9.23,1.43
21.15,-0.75,9.22,1.42
21.16,-0.70,9.24,1.41
21.16,-0.69,9.19,1.42
21.16,-0.72,9.23,1.46
21.16,-0.70,9.28,1.45
21.17,-0.68,9.30,1.50
21.17,-0.71,9.25,1.43
21.17,-0.71,9.28,1.40
21.17,-0.74,9.33,1.44
21.18,-0.72,9.28,1.46
21.18,-0.69,9.37,1.37
21.18,-0.72,9.36,1.40
21.18,-0.71,9.34,1.40
21.19,-0.75,9.34,1.42
21.19,-0.75,9.33,1.38
21.19,-0.73,9.33,1.39
21.19,-0.73,9.33,1.38
21.20,-0.73,9.33,1.34
21.20,-0.71,9.30,1.36
21.20,-0.74,9.34,1.38
21.20,-0.72,9.26,1.34
21.21,-0.71,9.30,1.36
21.21,-0.69,9.30,1.39
21.21,-0.68,9.26,1.39
21.21,-0.72,9.32,1.38
21.22,-0.69,9.33,1.35
21.22,-0.64,9.32,1.36
21.22,-0.68,9.28,1.44
21.22,-0.69,9.27,1.42
21.23,-0.66,9.25,1.44
21.23,-0.66,9.26,1.42
21.23,-0.74,9.26,1.46
21.23,-0.74,9.25,1.43
21.24,-0.73,9.22,1.46
21.24,-0.75,9.26,1.49
21.24,-0.74,9.26,1.49
21.24,-0.74,9.24,1.47
21.25,-0.71,9.26,1.44
21.25,-0.75,9.25,1.45
21.25,-0.68,9.26,1.47
21.25,-0.74,9.30,1.44
21.26,-0.70,9.26,1.47
21.26,-0.71,9.27,1.53
21.26,-0.74,9.27,1.50
21.26,-0.77,9.29,1.47
21.27,-0.74,9.31,1.48
21.27,-0.73,9.31,1.48
21.27,-0.76,9.33,1.46
21.27,-0.76,9.30,1.49
21.28,-0.77,9.25,1.46
21.28,-0.77,9.28,1.50
21.28,-0.77,9.28,1.52
21.28,-0.75,9.29,1.45
21.29,-0.74,9.26,1.45
21.29,-0.74,9.26,1.47
21.29,-0.69,9.28,1.43
21.29,-0.72,9.32,1.44
21.30,-0.70,9.29,1.43
21.30,-0.67,9.27,1.41
21.30,-0.72,9.25,1.39
21.30,-0.68,9.26,1.30
21.31,-0.71,9.28,1.37
21.31,-0.68,9.26,1.39
21.31,-0.67,9.30,1.35
21.31,-0.70,9.28,1.34
21.32,-0.67,9.28,1.41
21.32,-0.66,9.24,1.41
21.32,-0.71,9.28,1.38
21.32,-0.73,9.29,1.43
21.33,-0.69,9.27,1.47
21.33,-0.68,9.26,1.48
21.33,-0.70,9.28,1.48
21.33,-0.66,9.27,1.53
21.34,-0.70,9.27,1.52
21.34,-0.67,9.30,1.58
21.34,-0.67,9.27,1.59
21.34,-0.66,9.26,1.57
21.35,-0.66,9.30,1.60
21.35,-0.68,9.30,1.64
21.35,-0.70,9.27,1.56
21.35,-0.67,9.28,1.57
21.36,-0.66,9.23,1.60
21.36,-0.64,9.22,1.59
21.36,-0.67,9.28,1.59
21.36,-0.65,9.29,1.55
21.37,-0.59,9.21,1.53
21.37,-0.60,9.22,1.52
21.37,-0.59,9.26,1.53
21.37,-0.59,9.27,1.52
21.38,-0.56,9.27,1.50
21.38,-0.54,9.26,1.53
21.38,-0.56,9.26,1.48
21.38,-0.54,9.31,1.49
21.39,-0.53,9.28,1.48
21.39,-0.53,9.32,1.46
21.39,-0.54,9.32,1.45
21.39,-0.50,9.30,1.46
21.40,-0.58,9.32,1.47
21.40,-0.58,9.31,1.46
21.40,-0.57,9.29,1.49
21.40,-0.55,9.30,1.50
21.41,-0.56,9.32,1.52
21.41,-0.56,9.31,1.53
21.41,-0.54,9.29,1.55
21.41,-0.54,9.28,1.48
21.42,-0.53,9.31,1.51
21.42,-0.53,9.33,1.59
21.42,-0.51,9.33,1.56
21.42,-0.53,9.35,1.48
21.43,-0.51,9.31,1.47
21.43,-0.52,9.35,1.44
21.43,-0.54,9.36,1.41
21.43,-0.55,9.35,1.42
21.44,-0.54,9.32,1.34
21.44,-0.53,9.35,1.41
21.44,-0.60,9.39,1.44
21.44,-0.63,9.36,1.41
21.45,-0.68,9.37,1.41
21.45,-0.65,9.40,1.41
21.45,-0.67,9.37,1.38
21.45,-0.73,9.40,1.39
21.46,-0.74,9.40,1.37
21.46,-0.70,9.38,1.37
21.46,-0.71,9.36,1.40
21.46,-0.72,9.35,1.37
21.47,-0.70,9.30,1.35
21.47,-0.65,9.28,1.36
21.47,-0.61,9.25,1.37
21.47,-0.60,9.23,1.38
21.48,-0.59,9.24,1.41
21.48,-0.59,9.23,1.43
21.48,-0.59,9.21,1.39
21.48,-0.58,9.21,1.48
21.49,-0.56,9.19,1.45
21.49,-0.52,9.22,1.48
21.49,-0.59,9.24,1.54
21.49,-0.62,9.24,1.55
21.50,-0.59,9.27,1.54
21.50,-0.65,9.27,1.57
21.50,-0.67,9.25,1.55
21.50,-0.65,9.28,1.56
21.51,-0.62,9.26,1.51
21.51,-0.65,9.29,1.47
21.51,-0.66,9.32,1.48
21.51,-0.60,9.26,1.44
21.52,-0.64,9.32,1.46
21.52,-0.61,9.29,1.43
21.52,-0.55,9.32,1.46
21.52,-0.57,9.29,1.46
21.53,-0.55,9.31,1.47
21.53,-0.53,9.26,1.45
21.53,-0.54,9.29,1.46
21.53,-0.50,9.35,1.47
21.54,-0.52,9.32,1.47
21.54,-0.51,9.36,1.47
21.54,-0.50,9.37,1.50
21.54,-0.50,9.38,1.53
21.55,-0.51,9.38,1.56
21.55,-0.51,9.38,1.56
21.55,-0.50,9.36,1.56
21.55,-0.51,9.43,1.55
21.56,-0.52,9.39,1.54
21.56,-0.52,9.38,1.56
21.56,-0.55,9.39,1.55
21.56,-0.56,9.39,1.52
21.57,-0.59,9.39,1.55
21.57,-0.56,9.37,1.58
21.57,-0.53,9.37,1.50
21.57,-0.57,9.37,1.44
21.58,-0.57,9.42,1.42
21.58,-0.57,9.38,1.37
21.58,-0.58,9.38,1.38
21.58,-0.56,9.35,1.39
21.59,-0.55,9.32,1.38
21.59,-0.55,9.35,1.40
21.59,-0.53,9.33,1.38
21.59,-0.54,9.29,1.37
21.60,-0.53,9.27,1.37
21.60,-0.53,9.25,1.41
21.60,-0.49,9.24,1.42
21.60,-0.45,9.25,1.44
21.61,-0.49,9.25,1.47
21.61,-0.50,9.24,1.50
21.61,-0.47,9.27,1.50
21.61,-0.47,9.21,1.56
21.62,-0.47,9.21,1.56
21.62,-0.49,9.23,1.62
21.62,-0.53,9.22,1.60
21.62,-0.53,9.23,1.61
21.63,-0.51,9.24,1.63
21.63,-0.52,9.22,1.59
21.63,-0.53,9.25,1.62
21.63,-0.51,9.29,1.55
21.64,-0.53,9.24,1.56
21.64,-0.55,9.24,1.53
21.64,-0.57,9.28,1.53
21.64,-0.57,9.30,1.48
21.65,-0.54,9.28,1.44
21.65,-0.54,9.26,1.42
21.65,-0.56,9.29,1.39
21.65,-0.54,9.30,1.37
21.66,-0.58,9.30,1.34
21.66,-0.60,9.31,1.31
21.66,-0.60,9.30,1.30
21.66,-0.60,9.29,1.27
21.67,-0.61,9.30,1.29
21.67,-0.56,9.30,1.28
21.67,-0.60,9.32,1.27
21.67,-0.60,9.29,1.35
21.68,-0.59,9.31,1.41
21.68,-0.55,9.32,1.41
21.68,-0.59,9.30,1.40
21.68,-0.61,9.29,1.43
21.69,-0.61,9.32,1.46
21.69,-0.64,9.33,1.47
21.69,-0.66,9.31,1.52
21.69,-0.61,9.31,1.53
21.70,-0.55,9.28,1.51
21.70,-0.57,9.27,1.59
21.70,-0.54,9.31,1.58
21.70,-0.55,9.28,1.56
21.71,-0.53,9.32,1.53
21.71,-0.50,9.30,1.48
21.71,-0.56,9.29,1.49
21.71,-0.56,9.29,1.49
21.72,-0.57,9.25,1.50
21.72,-0.61,9.26,1.45
21.72,-0.63,9.27,1.47
21.72,-0.64,9.24,1.53
21.73,-0.61,9.24,1.50
21.73,-0.63,9.22,1.48
21.73,-0.65,9.25,1.43
21.73,-0.66,9.24,1.44
21.74,-0.66,9.29,1.43
21.74,-0.67,9.30,1.44
21.74,-0.68,9.28,1.42
21.74,-0.67,9.30,1.42
21.75,-0.65,9.31,1.37
21.75,-0.63,9.30,1.38
21.75,-0.65,9.28,1.46
21.75,-0.59,9.31,1.45
21.76,-0.60,9.33,1.36
21.76,-0.61,9.37,1.40
21.76,-0.60,9.33,1.40
21.76,-0.55,9.41,1.40
21.77,-0.52,9.39,1.38
21.77,-0.54,9.36,1.45
21.77,-0.50,9.35,1.47
21.77,-0.51,9.41,1.51
21.78,-0.55,9.39,1.53
21.78,-0.52,9.38,1.50
21.78,-0.54,9.37,1.49
21.78,-0.54,9.36,1.49
21.79,-0.57,9.35,1.50
21.79,-0.57,9.34,1.44
21.79,-0.59,9.36,1.46
21.79,-0.57,9.33,1.44
21.80,-0.57,9.32,1.44
21.80,-0.58,9.33,1.44
21.80,-0.62,9.31,1.45
21.80,-0.64,9.31,1.44
21.81,-0.65,9.34,1.39
21.81,-0.67,9.35,1.44
21.81,-0.69,9.34,1.43
21.81,-0.72,9.32,1.46
21.82,-0.71,9.31,1.43
21.82,-0.76,9.34,1.42
21.82,-0.75,9.37,1.40
21.82,-0.77,9.37,1.36
21.83,-0.76,9.39,1.37
21.83,-0.77,9.43,1.39
21.83,-0.72,9.41,1.36
21.83,-0.75,9.36,1.30
21.84,-0.73,9.42,1.30
21.84,-0.69,9.41,1.28
21.84,-0.72,9.38,1.30
21.84,-0.70,9.41,1.28
21.85,-0.64,9.38,1.25
21.85,-0.71,9.38,1.22
21.85,-0.71,9.37,1.17
21.85,-0.67,9.34,1.19
21.86,-0.68,9.30,1.20
21.86,-0.73,9.32,1.21
21.86,-0.72,9.29,1.22
21.86,-0.72,9.32,1.22
21.87,-0.74,9.29,1.24
21.87,-0.75,9.26,1.19
21.87,-0.73,9.22,1.24
21.87,-0.76,9.24,1.31
21.88,-0.79,9.28,1.29
21.88,-0.75,9.25,1.33
21.88,-0.77,9.23,1.33
21.88,-0.77,9.26,1.26
21.89,-0.75,9.27,1.35
21.89,-0.78,9.28,1.35
21.89,-0.78,9.24,1.39
21.89,-0.75,9.25,1.40
21.90,-0.74,9.30,1.38
21.90,-0.76,9.25,1.36
21.90,-0.76,9.23,1.39
21.90,-0.73,9.22,1.39
21.91,-0.75,9.23,1.39
21.91,-0.77,9.28,1.42
21.91,-0.73,9.26,1.38
21.91,-0.69,9.24,1.39
21.92,-0.69,9.28,1.38
21.92,-0.67,9.26,1.37
21.92,-0.72,9.25,1.36
21.92,-0.72,9.26,1.35
21.93,-0.66,9.24,1.30
21.93,-0.66,9.24,1.34
21.93,-0.67,9.24,1.37
21.93,-0.65,9.23,1.34
21.94,-0.68,9.32,1.33
21.94,-0.61,9.32,1.30
21.94,-0.61,9.30,1.33
21.94,-0.61,9.29,1.35
21.95,-0.60,9.27,1.36
21.95,-0.59,9.32,1.29
21.95,-0.59,9.29,1.33
21.95,-0.60,9.29,1.36
21.96,-0.54,9.29,1.35
21.96,-0.54,9.30,1.35
21.96,-0.60,9.28,1.35
21.96,-0.53,9.31,1.36
21.97,-0.53,9.28,1.36
21.97,-0.50,9.25,1.41
21.97,-0.49,9.30,1.37
21.97,-0.48,9.28,1.36
21.98,-0.46,9.29,1.38
21.98,-0.51,9.28,1.37
21.98,-0.44,9.32,1.36
21.98,-0.49,9.29,1.41
21.99,-0.46,9.34,1.43
21.99,-0.51,9.35,1.47
21.99,-0.52,9.31,1.41
21.99,-0.51,9.29,1.37
22.00,-0.53,9.29,1.39
22.00,-0.54,9.28,1.40
22.00,-0.58,9.35,1.41
22.00,-0.54,9.30,1.36
22.01,-0.56,9.30,1.39
22.01,-0.56,9.29,1.44
22.01,-0.57,9.31,1.39
22.01,-0.57,9.30,1.34
22.02,-0.62,9.26,1.35
22.02,-0.62,9.29,1.36
22.02,-0.60,9.24,1.33
22.02,-0.60,9.25,1.37
22.03,-0.59,9.28,1.35
22.03,-0.60,9.29,1.35
22.03,-0.58,9.28,1.35
22.03,-0.60,9.30,1.38
22.04,-0.57,9.31,1.34
22.04,-0.59,9.29,1.33
22.04,-0.63,9.28,1.33
22.04,-0.61,9.31,1.35
22.05,-0.58,9.29,1.32
22.05,-0.57,9.36,1.35
22.05,-0.54,9.34,1.34
22.05,-0.54,9.26,1.40
22.06,-0.55,9.29,1.37
22.06,-0.55,9.30,1.34
22.06,-0.54,9.30,1.30
22.06,-0.55,9.29,1.33
22.07,-0.55,9.28,1.34
22.07,-0.55,9.27,1.38
22.07,-0.58,9.27,1.35
22.07,-0.61,9.21,1.31
22.08,-0.59,9.24,1.33
22.08,-0.61,9.18,1.38
22.08,-0.69,9.21,1.39
22.08,-0.70,9.23,1.38
22.09,-0.72,9.22,1.39
22.09,-0.68,9.18,1.35
22.09,-0.70,9.23,1.43
22.09,-0.75,9.23,1.41
22.10,-0.71,9.18,1.37
22.10,-0.71,9.21,1.35
22.10,-0.74,9.19,1.35
22.10,-0.77,9.21,1.37
22.11,-0.75,9.21,1.34
22.11,-0.73,9.26,1.33
22.11,-0.73,9.23,1.31
22.11,-0.75,9.24,1.33
22.12,-0.70,9.30,1.37
22.12,-0.74,9.31,1.35
22.12,-0.70,9.30,1.31
22.12,-0.73,9.30,1.33
22.13,-0.75,9.30,1.37
22.13,-0.73,9.28,1.35
22.13,-0.75,9.31,1.31
22.13,-0.75,9.32,1.32
22.14,-0.72,9.31,1.33
22.14,-0.77,9.30,1.37
22.14,-0.74,9.35,1.34
22.14,-0.72,9.38,1.27
22.15,-0.76,9.35,1.30
22.15,-0.80,9.33,1.24
22.15,-0.75,9.31,1.24
22.15,-0.76,9.32,1.21
22.16,-0.75,9.31,1.25
22.16,-0.77,9.31,1.23
22.16,-0.81,9.32,1.24
22.16,-0.84,9.33,1.25
22.17,-0.80,9.29,1.25
22.17,-0.82,9.29,1.23
22.17,-0.87,9.28,1.25
22.17,-0.88,9.25,1.30
22.18,-0.89,9.23,1.31
22.18,-0.90,9.24,1.34
22.18,-0.94,9.24,1.31
22.18,-0.93,9.26,1.31
22.19,-0.93,9.27,1.29
22.19,-0.89,9.22,1.38
22.19,-0.92,9.21,1.37
22.19,-0.93,9.29,1.36
22.20,-0.92,9.32,1.33
22.20,-0.82,9.31,1.31
22.20,-0.83,9.29,1.30
22.20,-0.82,9.31,1.36
22.21,-0.84,9.32,1.29
22.21,-0.82,9.34,1.31
22.21,-0.80,9.29,1.32
22.21,-0.76,9.33,1.31
22.22,-0.75,9.35,1.32
22.22,-0.77,9.31,1.27
22.22,-0.75,9.30,1.28
22.22,-0.74,9.36,1.32
22.23,-0.74,9.30,1.26
22.23,-0.75,9.31,1.26
22.23,-0.72,9.29,1.24
22.23,-0.74,9.30,1.23
22.24,-0.75,9.33,1.22
22.24,-0.72,9.30,1.21
22.24,-0.76,9.28,1.22
22.24,-0.76,9.30,1.22
22.25,-0.77,9.27,1.20
22.25,-0.77,9.24,1.19
22.25,-0.72,9.26,1.23
22.25,-0.79,9.24,1.31
22.26,-0.79,9.23,1.30
22.26,-0.76,9.20,1.31
22.26,-0.81,9.23,1.32
22.26,-0.83,9.20,1.35
22.27,-0.89,9.22,1.38
22.27,-0.86,9.20,1.30
22.27,-0.85,9.17,1.34
22.27,-0.83,9.20,1.31
22.28,-0.81,9.21,1.31
22.28,-0.79,9.25,1.35
22.28,-0.77,9.26,1.29
22.28,-0.77,9.28,1.26
22.29,-0.77,9.26,1.31
22.29,-0.76,9.25,1.30
22.29,-0.75,9.26,1.23
22.29,-0.73,9.31,1.28
22.30,-0.71,9.30,1.30
22.30,-0.71,9.34,1.26
22.30,-0.73,9.33,1.23
22.30,-0.73,9.32,1.23
22.31,-0.71,9.32,1.25
22.31,-0.73,9.34,1.28
22.31,-0.73,9.35,1.21
22.31,-0.73,9.33,1.20
22.32,-0.72,9.34,1.19
22.32,-0.75,9.34,1.18
22.32,-0.71,9.31,1.19
22.32,-0.73,9.37,1.18
22.33,-0.72,9.35,1.18
22.33,-0.66,9.34,1.17
22.33,-0.68,9.35,1.19
22.33,-0.73,9.35,1.20
22.34,-0.70,9.35,1.21
22.34,-0.68,9.33,1.19
22.34,-0.70,9.29,1.20
22.34,-0.73,9.31,1.18
22.35,-0.75,9.31,1.20
22.35,-0.75,9.30,1.24
22.35,-0.73,9.30,1.27
22.35,-0.73,9.30,1.21
22.36,-0.71,9.30,1.28
22.36,-0.72,9.34,1.26
22.36,-0.80,9.31,1.21
22.36,-0.78,9.31,1.22
22.37,-0.76,9.32,1.21
22.37,-0.77,9.27,1.21
22.37,-0.75,9.26,1.21
22.37,-0.81,9.29,1.22
22.38,-0.81,9.29,1.25
22.38,-0.80,9.27,1.20
22.38,-0.75,9.24,1.18
22.38,-0.78,9.22,1.19
22.39,-0.74,9.25,1.17
22.39,-0.77,9.23,1.14
22.39,-0.77,9.24,1.14
22.39,-0.75,9.26,1.10
22.40,-0.74,9.25,1.14
22.40,-0.77,9.30,1.17
22.40,-0.75,9.30,1.16
22.40,-0.80,9.26,1.15
22.41,-0.80,9.28,1.13
22.41,-0.77,9.30,1.14
22.41,-0.81,9.33,1.21
22.41,-0.81,9.34,1.20
22.42,-0.83,9.35,1.16
22.42,-0.83,9.36,1.20
22.42,-0.81,9.36,1.20
22.42,-0.78,9.36,1.17
22.43,-0.81,9.39,1.14
22.43,-0.83,9.38,1.16
22.43,-0.82,9.38,1.16
22.43,-0.79,9.39,1.18
22.44,-0.77,9.36,1.12
22.44,-0.74,9.38,1.11
22.44,-0.76,9.37,1.14
22.44,-0.73,9.31,1.11
22.45,-0.71,9.30,1.15
22.45,-0.73,9.34,1.17
22.45,-0.68,9.31,1.17
22.45,-0.63,9.28,1.13
22.46,-0.64,9.28,1.17
22.46,-0.65,9.26,1.21
22.46,-0.63,9.25,1.15
22.46,-0.65,9.21,1.14
22.47,-0.65,9.28,1.21
22.47,-0.61,9.23,1.18
22.47,-0.63,9.18,1.17
22.47,-0.64,9.21,1.22
22.48,-0.58,9.22,1.13
22.48,-0.58,9.21,1.12
22.48,-0.59,9.19,1.10
22.48,-0.54,9.24,1.08
22.49,-0.52,9.21,1.01
22.49,-0.53,9.22,1.00
22.49,-0.50,9.22,0.93
22.49,-0.46,9.23,0.85
22.50,-0.48,9.22,0.83
22.50,-0.44,9.26,0.85
22.50,-0.41,9.26,0.81
22.50,-0.34,9.26,0.72
22.51,-0.33,9.27,0.68
22.51,-0.31,9.24,0.72
22.51,-0.28,9.28,0.69
22.51,-0.24,9.28,0.66
22.52,-0.21,9.32,0.64
22.52,-0.21,9.35,0.70
22.52,-0.15,9.33,0.68
22.52,-0.12,9.32,0.69
22.53,-0.11,9.31,0.77
22.53,-0.17,9.32,0.78
22.53,-0.17,9.32,0.83
22.53,-0.18,9.31,0.88
22.54,-0.17,9.26,0.90
22.54,-0.24,9.22,0.91
22.54,-0.28,9.12,1.04
22.54,-0.34,9.03,1.10
22.55,-0.39,8.99,1.20
22.55,-0.40,8.93,1.21
22.55,-0.48,8.88,1.25
22.55,-0.57,8.90,1.36
22.56,-0.68,8.92,1.37
22.56,-0.68,8.92,1.43
22.56,-0.72,8.92,1.49
22.56,-0.86,8.99,1.50
22.57,-0.89,9.09,1.55
22.57,-0.86,9.09,1.60
22.57,-0.85,9.14,1.62
22.57,-0.78,9.19,1.65
22.58,-0.69,9.20,1.60
22.58,-0.51,9.30,1.59
22.58,-0.36,9.35,1.59
22.58,-0.23,9.40,1.55
22.59,-0.16,9.46,1.49
22.59,-0.07,9.53,1.40
22.59,0.00,9.55,1.35
22.59,0.00,9.57,1.20
22.60,0.03,9.55,1.12
22.60,0.13,9.59,1.05
22.60,0.15,9.57,1.00
22.60,0.14,9.52,0.94
22.61,0.18,9.51,0.87
22.61,0.14,9.46,0.87
22.61,0.14,9.45,0.87
22.61,0.08,9.41,0.86
22.62,-0.02,9.38,0.93
22.62,-0.10,9.33,0.96
22.62,-0.15,9.38,0.96
22.62,-0.25,9.37,1.04
22.63,-0.36,9.34,1.09
22.63,-0.44,9.33,1.16
22.63,-0.49,9.29,1.16
22.63,-0.53,9.32,1.18
22.64,-0.54,9.27,1.21
22.64,-0.52,9.23,1.19
22.64,-0.59,9.24,1.17
22.64,-0.58,9.22,1.23
22.65,-0.60,9.20,1.20
22.65,-0.65,9.23,1.26
22.65,-0.62,9.24,1.21
22.65,-0.65,9.27,1.19
22.66,-0.69,9.24,1.29
22.66,-0.73,9.25,1.38
22.66,-0.67,9.29,1.40
22.66,-0.70,9.33,1.43
22.67,-0.72,9.36,1.55
22.67,-0.74,9.38,1.58
22.67,-0.71,9.43,1.60
22.67,-0.73,9.46,1.74
22.68,-0.69,9.52,1.73
22.68,-0.60,9.50,1.76
22.68,-0.56,9.50,1.73
22.68,-0.58,9.53,1.67
22.69,-0.52,9.53,1.64
22.69,-0.59,9.54,1.61
22.69,-0.59,9.54,1.52
22.69,-0.56,9.45,1.41
22.70,-0.61,9.41,1.36
22.70,-0.62,9.41,1.22
22.70,-0.63,9.39,1.20
22.70,-0.69,9.35,1.13
22.71,-0.73,9.35,1.09
22.71,-0.73,9.34,1.13
22.71,-0.80,9.30,1.11
22.71,-0.84,9.33,1.14
22.72,-0.89,9.29,1.23
22.72,-0.93,9.30,1.35
22.72,-0.97,9.32,1.40
22.72,-1.01,9.34,1.47
22.73,-0.97,9.38,1.50
22.73,-0.92,9.35,1.56
22.73,-0.90,9.33,1.59
22.73,-0.86,9.39,1.58
22.74,-0.76,9.41,1.59
22.74,-0.72,9.44,1.60
22.74,-0.68,9.45,1.61
22.74,-0.61,9.42,1.57
22.75,-0.58,9.39,1.54
22.75,-0.55,9.44,1.50
22.75,-0.49,9.37,1.46
22.75,-0.48,9.29,1.39
22.76,-0.41,9.20,1.39
22.76,-0.42,9.17,1.31
22.76,-0.41,9.13,1.26
22.76,-0.43,9.12,1.27
22.77,-0.41,9.14,1.28
22.77,-0.40,9.12,1.30
22.77,-0.40,9.10,1.32
22.77,-0.42,9.15,1.33
22.78,-0.41,9.15,1.35
22.78,-0.46,9.11,1.43
22.78,-0.42,9.12,1.46
22.78,-0.40,9.16,1.47
22.79,-0.41,9.14,1.44
22.79,-0.42,9.16,1.49
22.79,-0.40,9.17,1.56
22.79,-0.40,9.15,1.57
22.80,-0.39,9.18,1.60
22.80,-0.40,9.17,1.63
22.80,-0.40,9.19,1.66
22.80,-0.38,9.23,1.71
22.81,-0.42,9.24,1.74
22.81,-0.45,9.23,1.84
22.81,-0.42,9.25,1.89
22.81,-0.47,9.27,1.94
22.82,-0.41,9.24,1.91
22.82,-0.43,9.24,2.01
22.82,-0.47,9.25,1.99
22.82,-0.44,9.27,2.06
22.83,-0.49,9.28,2.07
22.83,-0.56,9.27,2.09
22.83,-0.60,9.27,2.15
22.83,-0.65,9.25,2.10
22.84,-0.69,9.24,2.05
22.84,-0.74,9.22,2.10
22.84,-0.74,9.27,2.07
22.84,-0.74,9.21,2.01
22.85,-0.77,9.23,2.00
22.85,-0.85,9.28,1.96
22.85,-0.84,9.33,1.95
22.85,-0.83,9.36,1.93
22.86,-0.87,9.38,1.91
22.86,-0.86,9.42,1.92
22.86,-0.83,9.41,1.91
22.86,-0.80,9.49,1.89
22.87,-0.79,9.53,1.92
22.87,-0.75,9.53,2.00
22.87,-0.77,9.53,2.01
22.87,-0.71,9.51,2.04
22.88,-0.66,9.47,2.11
22.88,-0.67,9.44,2.12
22.88,-0.69,9.42,2.22
22.88,-0.72,9.36,2.31
22.89,-0.66,9.29,2.30
22.89,-0.66,9.25,2.41
22.89,-0.74,9.13,2.49
22.89,-0.78,9.09,2.53
22.90,-0.81,9.05,2.54
22.90,-0.88,8.97,2.64
22.90,-0.93,8.92,2.64
22.90,-0.90,8.86,2.66
22.91,-0.99,8.80,2.69
22.91,-1.05,8.71,2.66
22.91,-1.08,8.69,2.70
22.91,-1.09,8.63,2.70
22.92,-1.16,8.62,2.73
22.92,-1.18,8.62,2.67
22.92,-1.23,8.63,2.63
22.92,-1.23,8.69,2.62
22.93,-1.26,8.67,2.65
22.93,-1.24,8.75,2.63
22.93,-1.20,8.83,2.56
22.93,-1.18,8.87,2.54
22.94,-1.13,8.97,2.58
22.94,-1.04,9.04,2.62
22.94,-1.02,9.06,2.58
22.94,-0.93,9.13,2.58
22.95,-0.94,9.18,2.63
22.95,-0.93,9.21,2.64
22.95,-0.93,9.21,2.67
22.95,-0.96,9.24,2.64
22.96,-0.98,9.28,2.64
22.96,-1.05,9.26,2.60
22.96,-1.08,9.28,2.51
22.96,-1.14,9.25,2.48
22.97,-1.21,9.27,2.44
22.97,-1.19,9.26,2.33
22.97,-1.29,9.25,2.29
22.97,-1.30,9.22,2.27
22.98,-1.32,9.18,2.13
22.98,-1.36,9.16,2.14
22.98,-1.35,9.13,2.09
22.98,-1.34,9.09,2.04
22.99,-1.37,9.06,2.02
22.99,-1.36,9.02,1.98
22.99,-1.34,8.97,1.95
22.99,-1.32,8.97,1.95
23.00,-1.29,8.98,1.92
23.00,-1.23,8.95,1.92
23.00,-1.13,8.91,1.96
23.00,-1.06,8.94,1.92
23.01,-1.02,8.92,1.94
23.01,-0.97,8.93,1.94
23.01,-0.96,8.93,1.91
23.01,-0.94,8.94,1.94
23.02,-0.91,8.91,1.96
23.02,-0.93,8.90,1.94
23.02,-0.99,8.88,1.96
23.02,-0.99,8.88,2.05
23.03,-1.04,8.88,2.03
23.03,-1.06,8.84,2.07
23.03,-1.08,8.80,2.07
23.03,-1.11,8.85,2.10
23.04,-1.11,8.83,2.04
23.04,-1.12,8.83,2.08
23.04,-1.20,8.88,2.09
23.04,-1.23,8.93,2.04
23.05,-1.13,8.92,2.02
23.05,-1.06,8.93,2.02
23.05,-1.06,9.00,1.98
23.05,-1.08,9.06,1.90
23.06,-1.04,9.10,1.90
23.06,-1.03,9.14,1.82
23.06,-0.99,9.16,1.78
23.06,-0.95,9.16,1.73
23.07,-0.92,9.20,1.68
23.07,-0.91,9.24,1.68
23.07,-0.98,9.23,1.65
23.07,-0.92,9.27,1.59
23.08,-0.91,9.27,1.58
23.08,-0.97,9.30,1.60
23.08,-0.95,9.29,1.61
23.08,-1.01,9.28,1.66
23.09,-1.04,9.24,1.61
23.09,-1.06,9.27,1.63
23.09,-1.09,9.25,1.66
23.10,-1.17,9.23,1.73
23.10,-1.18,9.27,1.77
23.10,-1.22,9.24,1.75
23.10,-1.30,9.24,1.82
23.10,-1.37,9.26,1.84
23.11,-1.38,9.26,1.86
23.11,-1.43,9.25,1.86
23.11,-1.49,9.30,1.89
23.11,-1.49,9.27,1.91
23.12,-1.60,9.27,1.92
23.12,-1.60,9.25,1.98
23.12,-1.58,9.24,1.93
23.12,-1.60,9.24,1.95
23.13,-1.60,9.24,1.97
23.13,-1.61,9.25,1.93
23.13,-1.59,9.18,1.95
23.13,-1.56,9.19,1.94
23.14,-1.54,9.17,1.89
23.14,-1.49,9.13,1.84
23.14,-1.50,9.15,1.82
23.14,-1.46,9.17,1.76
23.15,-1.41,9.13,1.75
23.15,-1.35,9.14,1.76
23.15,-1.35,9.15,1.79
23.15,-1.30,9.14,1.77
23.16,-1.28,9.10,1.75
23.16,-1.22,9.13,1.65
23.16,-1.22,9.06,1.60
23.16,-1.27,9.07,1.54
23.17,-1.25,9.07,1.50
23.17,-1.24,9.07,1.53
23.17,-1.28,9.06,1.56
23.17,-1.33,8.98,1.48
23.18,-1.30,8.96,1.46
23.18,-1.27,8.94,1.50
23.18,-1.35,8.89,1.53
23.18,-1.40,8.88,1.61
23.19,-1.42,8.85,1.72
23.19,-1.40,8.86,1.98
23.19,-1.47,8.84,2.12
23.19,-1.51,8.81,1.82
23.20,-1.49,8.76,1.74
23.20,-1.47,8.78,1.79
23.20,-1.50,8.82,1.79
23.20,-1.56,8.79,1.86
23.21,-1.64,8.79,1.91
23.21,-1.71,8.83,1.91
23.21,-1.74,8.84,2.01
23.21,-1.76,8.85,2.07
23.22,-1.83,8.88,2.13
23.22,-1.94,8.93,2.15
23.22,-1.94,8.98,2.15
23.22,-1.98,8.99,2.15
23.23,-1.96,9.06,2.09
23.23,-1.98,9.10,2.09
23.23,-1.97,9.15,2.07
23.23,-1.92,9.18,2.05
23.24,-1.87,9.25,2.03
23.24,-1.89,9.30,2.02
23.24,-1.89,9.30,1.98
23.24,-1.86,9.33,1.94
23.25,-1.80,9.25,1.93
23.25,-1.70,9.28,1.96
23.25,-1.57,9.24,2.02
23.25,-1.55,9.10,2.06
23.26,-1.63,9.00,2.05
23.26,-1.56,8.86,2.11
23.26,-1.53,8.77,2.22
23.26,-1.58,8.67,2.27
23.27,-1.62,8.63,2.31
23.27,-1.62,8.46,2.45
23.27,-1.64,8.33,2.49
23.27,-1.75,8.26,2.54
23.28,-1.80,8.22,2.57
23.28,-1.87,8.21,2.67
23.28,-2.01,8.13,2.80
23.28,-2.09,8.16,2.90
23.29,-2.17,8.10,3.11
23.29,-2.26,8.03,3.33
23.29,-2.31,8.02,3.49
23.29,-2.39,8.02,3.62
23.30,-2.57,7.98,3.75
23.30,-2.64,8.00,3.87
23.30,-2.68,8.08,3.90
23.30,-2.80,8.17,3.93
23.31,-2.94,8.27,3.99
23.31,-3.08,8.39,3.99
23.31,-3.15,8.50,3.99
23.31,-3.11,8.65,4.00
23.32,-3.14,8.80,4.01
23.32,-3.15,8.93,4.04
23.32,-3.10,9.10,3.99
23.32,-3.03,9.23,3.97
23.33,-2.98,9.30,3.87
23.33,-2.85,9.44,3.82
23.33,-2.77,9.53,3.74
23.33,-2.62,9.59,3.49
23.34,-2.41,9.69,3.41
23.34,-2.28,9.68,3.30
23.34,-2.10,9.72,3.15
23.34,-1.93,9.73,2.98
23.35,-1.78,9.67,2.86
23.35,-1.62,9.65,2.76
23.35,-1.44,9.51,2.62
23.35,-1.27,9.40,2.54
23.36,-1.06,9.29,2.50
23.36,-0.91,9.13,2.43
23.36,-0.81,8.98,2.34
23.36,-0.71,8.85,2.40
23.37,-0.68,8.67,2.44
23.37,-0.68,8.57,2.61
23.37,-0.76,8.42,2.63
23.37,-0.83,8.35,2.73
23.38,-0.91,8.34,2.81
23.38,-0.98,8.30,3.01
23.38,-1.14,8.33,3.15
23.38,-1.22,8.28,3.23
23.39,-1.37,8.35,3.35
23.39,-1.50,8.40,3.44
23.39,-1.51,8.45,3.49
23.39,-1.61,8.51,3.49
23.40,-1.60,8.56,3.54
23.40,-1.61,8.55,3.51
23.40,-1.62,8.52,3.42
23.40,-1.64,8.57,3.33
23.41,-1.62,8.58,3.18
23.41,-1.61,8.61,3.12
23.41,-1.63,8.62,3.01
23.41,-1.64,8.70,2.94
23.42,-1.60,8.71,2.80
23.42,-1.57,8.79,2.78
23.42,-1.54,8.78,2.83
23.42,-1.52,8.78,2.81
23.43,-1.50,8.82,2.86
23.43,-1.45,8.82,2.99
23.43,-1.45,8.83,3.08
23.43,-1.39,8.86,3.27
23.44,-1.36,8.85,3.36
23.44,-1.32,8.85,3.47
23.44,-1.25,8.82,3.60
23.44,-1.30,8.83,3.65
23.45,-1.30,8.80,3.58
23.45,-1.34,8.78,3.66
23.45,-1.36,8.73,3.64
23.45,-1.38,8.66,3.63
23.46,-1.46,8.56,3.75
23.46,-1.43,8.43,3.81
23.46,-1.49,8.36,3.88
23.46,-1.58,8.36,3.89
23.47,-1.62,8.38,3.92
23.47,-1.70,8.45,3.98
23.47,-1.73,8.49,4.00
23.47,-1.79,8.53,4.08
23.48,-1.89,8.54,4.12
23.48,-1.95,8.63,4.21
23.48,-1.95,8.69,4.28
23.48,-1.91,8.75,4.36
23.49,-1.87,8.77,4.50
23.49,-1.72,8.78,4.55
23.49,-1.59,8.84,4.66
23.49,-1.55,8.91,4.73
23.50,-1.51,8.92,4.74
23.50,-1.40,8.96,4.65
23.50,-1.32,9.02,4.49
23.50,-1.28,9.00,4.31
23.51,-1.21,9.00,4.18
23.51,-1.15,8.95,4.05
23.51,-1.04,8.91,3.98
23.51,-0.89,8.84,3.93
23.52,-0.83,8.75,3.91
23.52,-0.75,8.67,3.85
23.52,-0.64,8.59,3.90
23.52,-0.54,8.51,4.09
23.53,-0.52,8.45,4.24
23.53,-0.57,8.35,4.21
23.53,-0.53,8.21,4.24
23.53,-0.55,8.10,4.14
23.54,-0.57,8.03,4.13
23.54,-0.55,7.98,4.15
23.54,-0.56,7.92,4.11
23.54,-0.55,7.86,4.21
23.55,-0.58,7.80,4.41
23.55,-0.66,7.77,4.47
23.55,-0.66,7.78,4.65
23.55,-0.69,7.83,4.80
23.56,-0.70,7.84,4.98
23.56,-0.64,7.90,5.05
23.56,-0.62,7.95,5.15
23.56,-0.62,8.02,5.14
23.57,-0.57,8.05,5.20
23.57,-0.49,8.14,5.25
23.57,-0.42,8.16,5.23
23.57,-0.33,8.16,5.27
23.58,-0.31,8.15,5.26
23.58,-0.32,8.18,5.23
23.58,-0.29,8.14,5.26
23.58,-0.24,8.14,5.22
23.59,-0.24,8.13,5.15
23.59,-0.22,8.05,5.11
23.59,-0.22,8.06,5.06
23.59,-0.17,8.02,4.98
23.60,-0.16,7.96,4.96
23.60,-0.15,7.95,4.85
23.60,-0.11,7.93,4.79
23.60,-0.09,7.89,4.74
23.61,-0.10,7.82,4.71
23.61,-0.12,7.80,4.65
23.61,-0.15,7.82,4.65
23.61,-0.20,7.80,4.65
23.62,-0.23,7.80,4.66
23.62,-0.33,7.82,4.69
23.62,-0.33,7.81,4.69
23.62,-0.38,7.86,4.68
23.63,-0.42,7.94,4.70
23.63,-0.43,7.98,4.72
23.63,-0.46,8.07,4.75
23.63,-0.45,8.16,4.76
23.64,-0.39,8.33,4.88
23.64,-0.33,8.45,4.94
23.64,-0.33,8.61,4.98
23.64,-0.33,8.75,5.02
23.65,-0.34,8.90,5.02
23.65,-0.40,8.99,4.97
23.65,-0.51,9.06,4.89
23.65,-0.58,9.16,4.83
23.66,-0.70,9.27,4.63
23.66,-0.85,9.35,4.46
23.66,-0.97,9.42,4.24
23.66,-1.15,9.47,4.01
23.67,-1.30,9.59,3.79
23.67,-1.47,9.62,3.65
23.67,-1.67,9.61,3.57
23.67,-1.85,9.64,3.49
23.68,-1.95,9.69,3.44
23.68,-2.06,9.70,3.36
23.68,-2.11,9.77,3.34
23.68,-2.15,9.83,3.32
23.69,-2.15,9.88,3.29
23.69,-2.13,9.89,3.37
23.69,-2.08,9.95,3.44
23.69,-2.10,10.08,3.56
23.70,-2.08,10.19,3.68
23.70,-2.08,10.37,3.81
23.70,-2.15,10.55,4.01
23.70,-2.14,10.72,4.10
23.71,-2.13,10.96,4.26
23.71,-2.17,11.11,4.42
23.71,-2.22,11.30,4.60
23.71,-2.21,11.47,4.71
23.72,-2.30,11.59,4.83
23.72,-2.26,11.70,4.84
23.72,-2.31,11.75,4.89
23.72,-2.32,11.76,4.89
23.73,-2.39,11.76,4.83
23.73,-2.41,11.69,4.77
23.73,-2.45,11.58,4.69
23.73,-2.52,11.48,4.48
23.74,-2.58,11.42,4.29
23.74,-2.65,11.22,4.15
23.74,-2.72,11.13,4.02
23.74,-2.74,11.12,3.91
23.75,-2.83,11.01,3.75
23.75,-2.83,10.98,3.61
23.75,-2.76,10.99,3.54
23.75,-2.62,10.99,3.49
23.76,-2.51,11.01,3.47
23.76,-2.35,11.02,3.43
23.76,-2.17,11.05,3.48
23.76,-2.03,11.07,3.46
23.77,-1.89,11.11,3.51
23.77,-1.77,11.13,3.55
23.77,-1.65,11.18,3.58
23.77,-1.56,11.21,3.64
23.78,-1.44,11.21,3.72
23.78,-1.32,11.27,3.78
23.78,-1.22,11.28,3.87
23.78,-1.10,11.30,3.87
23.79,-0.99,11.32,3.92
23.79,-0.89,11.29,3.97
23.79,-0.75,11.30,4.01
23.79,-0.67,11.26,4.02
23.80,-0.58,11.22,4.03
23.80,-0.48,11.21,4.02
23.80,-0.43,11.13,3.98
23.80,-0.40,11.11,3.97
23.81,-0.36,11.03,3.92
23.81,-0.30,11.03,3.90
23.81,-0.26,10.98,3.87
23.81,-0.24,10.88,3.88
23.82,-0.18,10.84,3.87
23.82,-0.17,10.77,3.87
23.82,-0.18,10.72,3.94
23.82,-0.11,10.67,3.96
23.83,-0.14,10.65,3.98
23.83,-0.18,10.54,4.02
23.83,-0.20,10.49,4.08
23.83,-0.24,10.44,4.00
23.84,-0.27,10.37,4.02
23.84,-0.34,10.31,4.02
23.84,-0.40,10.27,3.98
23.84,-0.47,10.19,4.03
23.85,-0.60,10.02,4.01
23.85,-0.68,9.94,4.00
23.85,-0.78,9.84,3.98
23.85,-0.92,9.73,3.95
23.86,-1.01,9.61,3.92
23.86,-1.16,9.43,3.82
23.86,-1.31,9.33,3.77
23.86,-1.49,9.23,3.79
23.87,-1.57,9.05,3.72
23.87,-1.67,8.94,3.61
23.87,-1.77,8.86,3.60
23.87,-1.87,8.76,3.54
23.88,-1.96,8.70,3.48
23.88,-1.93,8.56,3.35
23.88,-1.95,8.48,3.26
23.88,-1.92,8.37,3.21
23.89,-1.92,8.24,3.19
23.89,-1.84,8.25,3.31
23.89,-1.70,8.23,3.34
23.89,-1.68,8.16,3.40
23.90,-1.67,8.20,3.48
23.90,-1.63,8.36,3.53
23.90,-1.56,8.51,3.54
23.90,-1.43,8.63,3.62
23.91,-1.28,8.79,3.61
23.91,-1.28,8.96,3.59
23.91,-1.20,9.26,3.58
23.91,-1.07,9.51,3.50
23.92,-0.84,9.69,3.37
23.92,-0.60,9.93,3.36
23.92,-0.54,10.23,3.24
23.92,-0.38,10.48,3.05
23.93,-0.18,10.72,2.81
23.93,0.05,10.91,2.68
23.93,0.24,11.17,2.69
23.93,0.49,11.39,2.55
23.94,0.65,11.69,2.38
23.94,0.78,11.79,2.30
23.94,0.88,11.85,2.13
23.94,1.03,11.88,2.04
23.95,1.06,11.79,1.95
23.95,1.10,11.76,1.73
23.95,1.02,11.77,1.56
23.95,0.97,11.78,1.43
23.96,0.94,11.77,1.22
23.96,0.77,11.77,1.06
23.96,0.62,11.81,0.87
23.96,0.47,11.92,0.74
23.97,0.24,12.00,0.67
23.97,0.20,11.97,0.62
23.97,0.09,12.00,0.69
23.97,-0.11,12.07,0.77
23.98,-0.28,12.06,0.88
23.98,-0.47,12.05,0.99
23.98,-0.48,11.93,1.02
23.98,-0.27,11.72,1.00
23.99,-0.13,11.42,0.85
23.99,-0.03,11.21,0.87
23.99,-0.05,10.98,0.93
23.99,-0.22,10.78,1.25
24.00,-0.44,10.65,1.57
24.00,-0.69,10.61,1.93
24.00,-0.99,10.52,2.17
24.00,-1.13,10.33,2.26
24.01,-1.17,10.05,2.38
24.01,-1.16,9.85,2.25
24.01,-1.19,9.63,2.01
24.01,-1.19,9.32,1.85
24.02,-1.13,9.06,1.85
24.02,-0.83,8.89,2.24
24.02,-0.40,8.64,2.64
24.02,-0.24,8.08,3.02
24.03,-0.06,7.38,3.12
24.03,0.39,6.84,2.77
24.03,0.62,6.73,2.43
24.03,0.74,6.72,2.30
24.04,0.89,6.74,2.38
24.04,0.91,6.69,2.40
24.04,0.86,6.64,2.10
24.04,1.01,6.51,1.74
24.05,1.22,6.21,1.39
24.05,1.56,6.09,1.18
24.05,2.06,6.11,1.20
24.05,2.55,6.05,1.51
24.06,2.97,6.02,1.75
24.06,3.23,5.97,1.88
24.06,3.34,6.03,2.03
24.06,3.34,5.92,2.10
24.07,3.39,5.88,2.18
24.07,3.35,5.81,2.17
24.07,3.20,5.77,2.17
24.07,3.07,5.78,2.26
24.08,2.88,5.86,2.37
24.08,2.57,6.08,2.45
24.08,2.31,6.25,2.31
24.08,2.04,6.46,2.05
24.09,1.77,6.65,1.77
24.09,1.70,6.85,1.65
24.09,1.77,6.92,1.71
24.09,1.86,6.93,1.91
24.10,1.96,6.93,2.10
24.10,2.01,6.92,2.33
24.10,1.99,7.01,2.58
24.10,1.97,6.99,2.69
24.11,1.88,7.00,2.80
24.11,1.77,6.98,2.88
24.11,1.62,6.98,2.91
24.11,1.56,6.95,2.90
24.12,1.51,6.91,2.96
24.12,1.50,6.84,2.98
24.12,1.48,6.71,3.03
24.12,1.51,6.60,3.05
24.13,1.54,6.53,3.00
24.13,1.60,6.46,3.05
24.13,1.61,6.35,3.03
24.13,1.76,6.17,2.85
24.14,1.91,6.04,2.79
24.14,2.05,5.90,2.86
24.14,2.21,5.68,2.80
24.14,2.36,5.58,2.72
24.15,2.56,5.42,2.67
24.15,2.73,5.22,2.58
24.15,2.87,5.03,2.60
24.15,2.94,4.94,2.49
24.16,2.98,4.81,2.46
24.16,2.90,4.76,2.47
24.16,2.93,4.66,2.47
24.16,2.97,4.53,2.49
24.17,3.02,4.46,2.48
24.17,3.02,4.41,2.53
24.17,3.02,4.40,2.65
24.17,2.99,4.48,2.68
24.18,3.02,4.51,2.78
24.18,2.99,4.51,2.83
24.18,2.91,4.60,2.89
24.18,2.93,4.75,3.05
24.19,2.88,4.79,3.16
24.19,2.92,4.86,3.32
24.19,2.78,4.98,3.44
24.19,2.72,5.08,3.54
24.20,2.66,5.20,3.62
24.20,2.65,5.30,3.77
24.20,2.68,5.42,3.82
24.20,2.79,5.52,3.86
24.21,2.87,5.71,3.92
24.21,2.95,5.81,4.01
24.21,2.99,5.97,4.17
24.21,3.00,6.15,4.25
24.22,3.01,6.26,4.46
24.22,2.99,6.39,4.63
24.22,3.00,6.53,4.68
24.22,3.06,6.63,4.70
24.23,3.13,6.74,4.88
24.23,3.16,6.78,4.93
24.23,3.27,6.85,5.06
24.23,3.31,6.85,5.10
24.24,3.32,6.73,5.13
24.24,3.34,6.66,5.20
24.24,3.38,6.61,5.12
24.24,3.41,6.60,5.10
24.25,3.42,6.46,5.18
24.25,3.53,6.30,5.08
24.25,3.55,6.22,5.07
24.25,3.53,6.06,5.06
24.26,3.64,5.83,5.03
24.26,3.66,5.67,5.01
24.26,3.71,5.61,5.03
24.26,3.82,5.44,4.98
24.27,3.86,5.33,5.01
24.27,3.85,5.24,5.02
24.27,3.83,5.25,5.10
24.27,3.78,5.22,5.28
24.28,3.79,5.20,5.35
24.28,3.84,5.10,5.44
24.28,3.72,5.09,5.64
24.28,3.65,5.17,5.73
24.29,3.76,5.11,5.80
24.29,3.79,5.10,5.95
24.29,3.68,5.16,6.02
24.29,3.53,5.26,6.04
24.30,3.50,5.21,6.04
24.30,3.59,4.99,6.06
24.30,3.67,4.94,6.03
24.30,3.85,5.00,5.93
24.31,4.03,4.97,5.90
24.31,4.18,4.91,5.83
24.31,4.36,4.91,5.73
24.31,4.55,4.90,5.59
24.32,4.70,4.85,5.45
24.32,4.87,4.74,5.38
24.32,5.01,4.67,5.21
24.32,5.11,4.59,5.06
24.33,5.26,4.57,4.99
24.33,5.41,4.51,5.00
24.33,5.57,4.42,5.05
24.33,5.73,4.42,5.11
24.34,5.84,4.36,5.16
24.34,5.98,4.34,5.25
24.34,6.13,4.29,5.33
24.34,6.27,4.21,5.43
24.35,6.35,4.14,5.56
24.35,6.36,4.12,5.63
24.35,6.43,4.05,5.77
24.35,6.42,4.03,5.94
24.36,6.44,4.03,6.04
24.36,6.51,4.08,6.12
24.36,6.53,4.06,6.31
24.36,6.51,4.14,6.50
24.37,6.48,4.24,6.61
24.37,6.44,4.34,6.74
24.37,6.47,4.53,6.94
24.37,6.49,4.60,7.01
24.38,6.47,4.70,7.12
24.38,6.41,4.89,7.26
24.38,6.53,5.01,7.44
24.38,6.54,5.11,7.50
24.39,6.59,5.25,7.57
24.39,6.65,5.44,7.67
24.39,6.67,5.59,7.76
24.39,6.69,5.80,7.83
24.40,6.82,5.97,7.86
24.40,6.89,6.20,7.88
24.40,6.96,6.49,7.91
24.40,7.02,6.77,7.91
24.41,7.08,7.04,7.93
24.41,7.15,7.27,7.82
24.41,7.19,7.51,7.62
24.41,7.27,7.78,7.42
24.42,7.27,8.00,7.26
24.42,7.29,8.23,7.10
24.42,7.29,8.50,6.96
24.42,7.23,8.84,6.83
24.43,7.20,9.28,6.67
24.43,7.12,9.73,6.59
24.43,7.01,10.21,6.57
24.43,6.93,10.79,6.55
24.44,6.83,11.39,6.62
24.44,6.74,12.06,6.78
24.44,6.63,12.75,7.11
24.44,6.53,13.36,7.50
24.45,6.38,14.09,7.93
24.45,6.30,14.71,8.37
24.45,6.29,15.22,8.88
24.45,6.30,15.62,9.36
24.46,6.46,15.92,9.82
24.46,6.63,16.11,10.27
24.46,6.92,16.15,10.60
24.46,7.24,15.95,10.88
24.47,7.52,15.53,10.99
24.47,7.62,15.05,11.05
24.47,7.44,14.58,10.97
24.47,7.23,14.10,10.83
24.48,7.15,13.62,10.59
24.48,6.99,13.07,10.22
24.48,6.89,12.55,9.88
24.48,6.81,12.01,9.48
24.49,6.77,11.50,8.97
24.49,6.69,11.00,8.46
24.49,6.56,10.54,7.89
24.49,6.44,10.18,7.49
24.50,6.24,9.81,7.11
24.50,6.01,9.60,6.80
24.50,5.76,9.39,6.65
24.50,5.56,9.28,6.53
24.51,5.37,9.24,6.50
24.51,5.06,9.21,6.42
24.51,4.67,9.29,6.30
24.51,4.33,9.36,6.18
24.52,4.02,9.52,6.03
24.52,3.79,9.69,5.78
24.52,3.47,9.82,5.57
24.52,3.23,10.00,5.57
24.53,3.03,10.11,5.47
24.53,2.84,10.24,5.37
24.53,2.68,10.34,5.36
24.53,2.47,10.43,5.44
24.54,2.26,10.44,5.41
24.54,2.08,10.42,5.26
24.54,1.93,10.44,5.06
24.54,1.80,10.42,4.92
24.55,1.64,10.44,4.73
24.55,1.47,10.46,4.64
24.55,1.33,10.46,4.47
24.55,1.10,10.50,4.31
24.56,0.95,10.50,4.20
24.56,0.65,10.54,4.02
24.56,0.33,10.57,3.87
24.56,0.08,10.51,3.72
24.57,-0.12,10.36,3.55
24.57,-0.28,10.10,3.31
24.57,-0.43,9.86,3.05
24.57,-0.49,9.47,2.80
24.58,-0.46,9.09,2.58
24.58,-0.44,8.63,2.43
24.58,-0.33,8.15,2.32
24.58,-0.27,7.71,2.24
24.59,-0.17,7.28,2.21
24.59,-0.16,6.86,2.10
24.59,-0.21,6.51,2.10
24.59,-0.23,6.19,2.11
24.60,-0.25,5.94,2.20
24.60,-0.35,5.68,2.27
24.60,-0.39,5.45,2.28
24.60,-0.48,5.27,2.34
24.61,-0.54,5.05,2.34
24.61,-0.65,4.93,2.33
24.61,-0.70,4.86,2.28
24.61,-0.73,4.77,2.26
24.62,-0.76,4.78,2.25
24.62,-0.78,4.81,2.24
24.62,-0.84,4.85,2.26
24.62,-0.92,4.96,2.32
24.63,-0.94,5.08,2.30
24.63,-0.99,5.28,2.25
24.63,-1.08,5.53,2.13
24.63,-1.14,5.82,2.00
24.64,-1.18,6.14,2.01
24.64,-0.99,6.40,2.07
24.64,-0.79,6.65,2.01
24.64,-0.63,6.94,1.86
24.65,-0.43,7.22,1.79
24.65,-0.25,7.46,1.88
24.65,-0.03,7.74,1.98
24.65,0.22,7.99,2.18
24.66,0.36,8.24,2.34
24.66,0.33,8.51,2.36
24.66,0.36,8.85,2.32
24.66,0.41,9.19,2.22
24.67,0.51,9.55,2.09
24.67,0.66,9.78,2.04
24.67,0.73,10.09,2.08
24.67,0.83,10.34,2.13
24.68,0.89,10.48,2.29
24.68,0.99,10.58,2.38
24.68,0.99,10.65,2.36
24.68,1.04,10.62,2.46
24.69,1.08,10.57,2.55
24.69,1.08,10.62,2.65
24.69,1.08,10.59,2.94
24.69,1.07,10.53,3.32
24.70,1.05,10.56,4.08
24.70,1.04,10.38,3.81
24.70,0.90,10.15,3.26
24.70,0.85,9.96,3.13
24.71,0.99,9.76,3.16
24.71,1.18,9.68,3.19
24.71,1.47,9.65,3.21
24.71,1.74,9.57,3.25
24.72,1.87,9.51,3.29
24.72,2.06,9.39,3.16
24.72,2.20,9.23,3.02
24.72,2.36,8.99,3.04
24.73,2.54,8.84,3.03
24.73,2.64,8.64,2.97
24.73,2.78,8.41,2.98
24.73,2.93,8.25,3.06
24.74,2.87,8.09,2.96
24.74,2.89,7.89,2.91
24.74,2.92,7.58,2.72
24.74,2.89,7.32,2.46
24.75,2.85,7.13,2.33
24.75,2.63,6.96,2.23
24.75,2.36,6.75,2.06
24.75,2.15,6.51,1.92
24.76,1.87,6.39,1.72
24.76,1.61,6.25,1.66
24.76,1.43,6.02,1.73
24.76,1.32,5.76,1.72
24.77,1.19,5.54,1.64
24.77,1.00,5.32,1.56
24.77,0.88,5.24,1.47
24.77,0.62,5.24,1.68
24.78,0.48,5.21,1.96
24.78,0.33,5.24,2.27
24.78,0.21,5.24,2.53
24.78,0.17,5.19,2.73
24.79,0.12,5.13,2.93
24.79,0.05,5.11,2.98
24.79,0.04,5.04,2.97
24.79,-0.04,4.91,2.98
24.80,-0.30,4.88,2.88
24.80,-0.65,4.88,2.79
24.80,-1.23,5.07,2.89
24.80,-1.47,5.12,2.97
24.81,-1.54,5.16,3.11
24.81,-1.68,5.20,3.21
24.81,-1.93,5.30,3.15
24.81,-2.04,5.37,3.18
24.82,-2.12,5.51,3.11
24.82,-2.08,5.63,3.17
24.82,-2.04,5.72,3.44
24.82,-1.98,5.72,4.01
24.83,-2.01,5.69,4.51
24.83,-2.05,5.70,4.78
24.83,-2.12,5.90,4.85
24.83,-2.19,5.92,4.92
24.84,-2.25,5.92,4.76
24.84,-2.34,5.96,4.53
24.84,-2.43,6.05,4.37
24.84,-2.77,6.11,3.83
24.85,-3.31,6.05,3.14
24.85,-3.43,5.64,2.53
24.85,-3.04,5.50,2.20
24.85,-2.79,5.95,2.68
24.86,-2.91,6.38,3.02
24.86,-3.12,6.70,3.21
24.86,-3.32,7.05,3.35
24.86,-3.54,7.25,3.33
24.87,-3.78,7.43,3.26
24.87,-4.02,7.54,3.25
24.87,-4.16,7.74,3.25
24.87,-4.23,7.85,3.29
24.88,-4.20,7.86,3.23
24.88,-4.00,7.88,3.33
24.88,-3.81,7.84,3.39
24.88,-3.58,7.71,3.36
24.89,-3.25,7.52,3.43
24.89,-2.93,7.31,3.44
24.89,-2.57,7.17,3.64
24.89,-2.12,7.00,3.83
24.90,-1.72,6.96,3.94
24.90,-1.37,6.90,4.04
24.90,-1.06,6.83,4.06
24.90,-0.83,6.81,4.04
24.91,-0.60,6.80,4.04
24.91,-0.27,6.80,3.96
24.91,-0.06,6.79,3.73
24.91,0.13,6.82,3.67
24.92,0.39,6.89,3.83
24.92,0.57,7.07,3.95
24.92,0.69,7.15,4.00
24.92,0.76,7.25,4.18
24.93,0.89,7.46,4.47
24.93,1.00,7.59,4.66
24.93,1.16,7.72,4.83
24.93,1.22,7.88,4.99
24.94,1.21,8.09,5.12
24.94,1.26,8.17,5.31
24.94,1.32,8.29,5.55
24.94,1.37,8.46,5.76
24.95,1.39,8.63,5.90
24.95,1.30,8.80,6.04
24.95,1.27,8.94,6.00
24.95,1.27,9.07,6.12
24.96,1.16,9.14,6.13
24.96,1.00,9.24,6.01
24.96,0.86,9.36,5.93
24.96,0.67,9.36,5.89
24.97,0.59,9.35,5.85
24.97,0.50,9.35,5.74
24.97,0.48,9.21,5.61
24.97,0.43,9.06,5.39
24.98,0.31,8.91,5.13
24.98,0.20,8.78,4.80
24.98,-0.02,8.72,4.60
24.98,-0.15,8.51,4.23
24.99,-0.39,8.32,3.88
24.99,-0.57,8.25,3.71
24.99,-0.72,8.07,3.55
24.99,-0.84,7.96,3.36
25.00,-0.90,7.89,3.30
25.00,-1.01,7.86,3.21
25.00,-0.98,7.76,3.20
25.00,-1.11,7.61,3.29
25.01,-1.25,7.51,3.35
25.01,-1.28,7.42,3.45
25.01,-1.44,7.20,3.51
25.01,-1.59,7.10,3.61
25.02,-1.73,6.94,3.68
25.02,-1.95,6.81,3.68
25.02,-2.21,6.72,3.68
25.02,-2.34,6.62,3.69
25.03,-2.46,6.57,3.73
25.03,-2.61,6.57,3.72
25.03,-2.68,6.49,3.69
25.03,-2.76,6.46,3.66
25.04,-2.86,6.44,3.69
25.04,-2.91,6.45,3.70
25.04,-2.91,6.45,3.63
25.04,-2.94,6.46,3.66
25.05,-2.95,6.50,3.75
25.05,-2.90,6.58,3.83
25.05,-2.80,6.68,3.86
25.05,-2.75,6.70,3.88
25.06,-2.60,6.79,3.96
25.06,-2.43,6.88,3.96
25.06,-2.27,6.90,3.99
25.06,-2.16,6.89,3.96
25.07,-2.07,6.83,4.00
25.07,-1.94,6.85,4.05
25.07,-1.91,6.87,3.98
25.07,-1.89,6.78,3.95
25.08,-1.85,6.74,3.96
25.08,-1.96,6.72,3.86
25.08,-1.98,6.70,3.80
25.09,-2.03,6.71,3.70
25.09,-2.13,6.78,3.58
25.09,-2.26,6.84,3.51
25.09,-2.36,6.92,3.47
25.10,-2.36,7.05,3.41
25.10,-2.40,7.11,3.32
25.10,-2.57,7.24,3.18
25.10,-2.73,7.42,3.13
25.10,-2.87,7.59,3.18
25.11,-3.04,7.64,3.27
25.11,-3.13,7.84,3.39
25.11,-3.29,8.03,3.53
25.11,-3.53,8.20,3.72
25.12,-3.71,8.48,3.91
25.12,-3.86,8.71,4.09
25.12,-4.11,8.83,4.20
25.12,-4.42,9.04,4.40
25.13,-4.53,9.20,4.61
25.13,-4.57,9.34,4.78
25.13,-4.75,9.58,5.05
25.13,-4.84,9.75,5.18
25.14,-4.84,9.92,5.37
25.14,-4.93,10.12,5.48
25.14,-5.16,10.36,5.61
25.14,-5.16,10.56,5.73
25.15,-4.77,10.83,5.64
25.15,-4.69,11.12,5.57
25.15,-5.09,11.19,5.44
25.15,-5.21,11.15,5.66
25.16,-5.31,11.10,5.74
25.16,-5.33,11.14,5.74
25.16,-5.11,11.18,5.82
25.16,-4.93,11.16,5.82
25.17,-4.73,11.21,5.73
25.17,-4.47,11.16,5.77
25.17,-4.29,11.03,5.67
25.17,-4.30,10.98,5.61
25.18,-4.25,10.94,5.68
25.18,-4.02,10.94,5.85
25.18,-3.82,10.92,5.87
25.18,-3.63,10.93,5.86
25.19,-3.29,11.02,5.95
25.19,-3.08,11.11,6.13
25.19,-2.88,11.20,6.14
25.19,-2.67,11.25,6.11
25.20,-2.57,11.31,6.12
25.20,-2.60,11.40,6.21
25.20,-2.53,11.51,6.17
25.20,-2.42,11.60,6.13
25.21,-2.31,11.72,6.07
25.21,-2.16,11.86,5.93
25.21,-2.09,11.87,5.84
25.21,-2.02,11.90,5.85
25.22,-1.89,11.94,5.93
25.22,-1.73,12.05,5.85
25.22,-1.53,12.11,5.81
25.22,-1.32,12.27,5.72
25.23,-1.17,12.40,5.66
25.23,-0.99,12.42,5.67
25.23,-0.97,12.39,5.63
25.23,-0.86,12.42,5.65
25.24,-0.79,12.42,5.66
25.24,-0.77,12.35,5.74
25.24,-0.66,12.30,5.82
25.24,-0.55,12.28,6.02
25.25,-0.38,12.24,6.12
25.25,-0.30,12.27,6.32
25.25,-0.14,12.29,6.46
25.25,-0.04,12.33,6.70
25.26,0.18,12.40,7.05
25.26,0.33,12.34,7.11
25.26,0.42,12.27,7.21
25.26,0.52,12.06,7.26
25.27,0.64,11.87,7.14
25.27,0.69,11.70,6.89
25.27,0.63,11.38,6.58
25.27,0.59,11.13,6.41
25.28,0.52,10.98,6.20
25.28,0.45,10.78,6.05
25.28,0.39,10.69,5.86
25.28,0.30,10.59,5.55
25.29,0.20,10.57,5.28
25.29,0.13,10.57,5.11
25.29,0.09,10.55,4.87
25.29,0.18,10.48,4.53
25.30,0.24,10.32,4.28
25.30,0.38,10.13,3.98
25.30,0.50,9.87,3.81
25.30,0.56,9.57,3.48
25.31,0.65,9.24,3.19
25.31,0.75,8.96,2.87
25.31,0.87,8.69,2.51
25.32,1.00,8.47,2.30
25.32,1.04,8.22,2.13
25.32,1.00,7.95,1.91
25.32,0.96,7.76,1.73
25.33,0.88,7.60,1.60
25.33,0.76,7.46,1.60
25.33,0.54,7.37,1.62
25.33,0.23,7.27,1.73
25.34,-0.18,7.19,1.81
25.34,-0.70,7.06,1.96
25.34,-1.20,6.94,2.13
25.34,-1.70,6.86,2.29
25.35,-2.13,6.78,2.48
25.35,-2.48,6.80,2.61
25.35,-2.79,6.81,2.61
25.35,-2.96,6.84,2.60
25.36,-3.14,6.84,2.56
25.36,-3.21,6.97,2.56
25.36,-3.30,7.13,2.72
25.36,-3.40,7.22,3.00
25.37,-3.34,7.38,3.15
25.37,-3.37,7.50,3.20
25.37,-3.47,7.72,3.25
25.37,-3.39,8.04,3.33
25.38,-3.15,8.26,3.27
25.38,-3.14,8.51,3.26
25.38,-3.01,8.88,3.29
25.38,-2.89,9.20,3.10
25.39,-2.79,9.62,3.08
25.39,-2.67,9.92,3.09
25.39,-2.66,10.31,3.07
25.39,-2.64,10.67,3.21
25.40,-2.56,11.05,3.27
25.40,-2.63,11.42,3.41
25.40,-2.70,11.85,3.50
25.40,-2.72,12.25,3.46
25.41,-2.76,12.59,3.60
25.41,-2.77,12.77,3.71
25.41,-1.99,13.35,3.75
25.41,-1.64,13.78,3.49
25.42,-1.47,14.37,3.27
25.42,-1.18,15.02,3.09
25.42,-0.89,15.46,2.93
25.42,-0.68,15.81,2.89
25.43,-0.53,16.07,2.91
25.43,-0.24,16.18,2.81
25.43,0.16,16.08,2.50
25.43,0.48,15.90,2.20
25.44,0.84,15.61,1.89
25.44,1.16,15.49,1.52
25.44,1.30,15.29,1.03
25.44,1.50,15.10,0.70
25.45,1.54,14.87,0.58
25.45,1.47,14.57,0.40
25.45,1.32,14.23,0.25
25.45,1.15,13.86,0.20
25.46,0.95,13.49,0.16
25.46,0.81,12.98,0.02
25.46,0.65,12.61,-0.02
25.46,0.14,12.27,-0.10
25.47,-0.35,11.93,-0.13
25.47,-0.60,11.68,-0.14
25.47,-0.82,11.37,-0.22
25.47,-0.97,10.86,-0.76
25.48,-1.45,10.16,-1.39
25.48,-1.71,10.19,-0.75
25.48,-1.73,10.08,-0.24
25.48,-1.77,9.77,-0.18
25.49,-1.93,9.64,-0.19
25.49,-1.76,9.47,-0.22
25.49,-1.57,9.18,-0.15
25.49,-2.29,8.75,-0.42
25.50,-2.74,8.12,-1.16
25.50,-3.24,7.74,-1.68
25.50,-3.82,8.15,-1.80
25.50,-3.58,8.63,-1.19
25.51,-3.04,9.08,-0.48
25.51,-2.34,9.19,-0.47
25.51,-1.67,8.80,-0.36
25.51,-1.19,8.37,-0.09
25.52,-0.72,7.87,0.05
25.52,-0.21,7.45,0.25
25.52,0.31,7.08,0.47
25.52,0.72,6.76,0.69
25.53,1.09,6.43,0.68
25.53,1.43,6.07,0.57
25.53,1.70,5.60,0.59
25.53,1.67,5.34,0.81
25.54,1.35,5.06,1.11
25.54,1.09,4.83,1.41
25.54,1.06,4.73,1.72
25.54,0.93,4.29,2.02
25.55,0.68,3.80,2.20
25.55,0.76,3.80,2.52
25.55,0.83,3.92,3.13
25.55,0.99,4.07,3.55
25.56,1.37,4.08,3.48
25.56,1.49,4.18,3.32
25.56,1.19,4.50,2.90
25.56,1.03,4.74,2.50
25.57,1.23,4.75,2.16
25.57,1.45,4.73,1.87
25.57,1.66,4.77,1.78
25.57,1.86,4.91,1.71
25.58,2.05,4.93,1.75
25.58,2.16,4.91,2.00
25.58,2.18,4.90,2.17
25.58,2.18,4.86,2.28
25.59,2.13,4.87,2.42
25.59,2.13,4.91,2.52
25.59,2.08,4.94,2.58
25.59,1.88,4.95,2.69
25.60,1.74,5.01,2.77
25.60,1.67,5.12,2.90
25.60,1.59,5.19,3.15
25.60,1.66,5.48,3.20
25.61,1.88,5.88,3.05
25.61,2.09,6.10,3.18
25.61,2.08,6.12,3.27
25.61,1.94,6.15,3.24
25.62,1.85,6.20,3.09
25.62,1.87,6.21,3.02
25.62,1.89,6.27,3.07
25.62,1.95,6.34,3.19
25.63,2.09,6.43,3.27
25.63,2.17,6.54,3.26
25.63,2.26,6.46,3.33
25.63,2.36,6.44,3.31
25.64,2.39,6.53,3.32
25.64,2.40,6.48,3.34
25.64,2.37,6.42,3.38
25.64,2.36,6.38,3.49
25.65,2.40,6.33,3.61
25.65,2.47,6.39,3.85
25.65,2.58,6.42,3.99
25.65,2.71,6.40,4.08
25.66,2.86,6.39,4.15
25.66,3.01,6.35,4.17
25.66,3.11,6.31,4.12
25.66,3.12,6.19,4.14
25.67,3.21,6.09,4.08
25.67,3.24,6.05,4.20
25.67,3.14,5.86,3.98
25.67,3.07,5.80,3.92
25.68,3.00,5.68,4.04
25.68,2.99,5.52,3.96
25.68,2.97,5.33,3.90
25.68,3.01,5.19,3.88
25.69,3.05,5.04,3.93
25.69,3.07,4.90,3.91
25.69,3.17,4.71,3.92
25.69,3.17,4.55,3.95
25.70,3.24,4.38,3.98
25.70,3.31,4.17,4.04
25.70,3.42,3.94,4.17
25.70,3.45,3.85,4.32
25.71,3.54,3.58,4.47
25.71,3.56,3.28,4.56
25.71,3.50,3.15,4.80
25.71,3.46,3.06,5.06
25.72,3.49,2.81,5.27
25.72,3.39,2.67,5.53
25.72,3.35,2.59,5.77
25.72,3.38,2.49,6.10
25.73,3.34,2.40,6.41
25.73,3.37,2.41,6.68
25.73,3.31,2.40,6.85
25.73,3.27,2.45,7.01
25.74,3.30,2.49,7.15
25.74,3.37,2.56,7.20
25.74,3.45,2.68,7.07
25.74,3.55,2.80,7.06
25.75,3.65,2.89,7.08
25.75,3.81,2.99,7.01
25.75,3.99,3.16,6.99
25.75,4.07,3.34,6.82
25.76,4.16,3.52,6.79
25.76,4.30,3.77,6.78
25.76,4.49,3.99,6.65
25.76,4.72,4.19,6.53
25.77,4.91,4.37,6.43
25.77,5.07,4.64,6.28
25.77,5.25,4.98,6.16
25.77,5.47,5.31,6.08
25.78,5.71,5.64,5.98
25.78,5.93,5.97,5.87
25.78,6.08,6.21,5.78
25.78,6.29,6.49,5.74
25.79,6.53,6.65,5.69
25.79,6.81,6.79,5.69
25.79,7.05,6.98,5.74
25.79,7.32,7.20,5.85
25.80,7.66,7.41,5.98
25.80,7.94,7.67,6.03
25.80,8.15,7.97,6.06
25.80,8.33,8.32,6.18
25.81,8.50,8.76,6.20
25.81,8.54,9.21,6.36
25.81,8.52,9.68,6.51
25.81,8.44,10.19,6.64
25.82,8.33,10.70,6.93
25.82,8.19,11.35,7.12
25.82,8.04,12.05,7.34
25.82,7.89,12.84,7.61
25.83,7.69,13.67,7.77
25.83,7.54,14.49,7.91
25.83,7.37,15.35,7.97
25.83,7.25,16.00,8.11
25.84,7.07,16.57,8.20
25.84,6.87,16.94,8.20
25.84,6.63,17.13,8.16
25.84,6.24,17.13,8.07
25.85,5.83,16.89,8.01
25.85,5.41,16.42,7.84
25.85,5.06,15.90,7.60
25.85,4.89,15.21,7.46
25.86,4.86,14.36,7.32
25.86,4.92,13.40,7.10
25.86,5.04,12.46,6.83
25.86,5.13,11.55,6.62
25.87,5.15,10.70,6.34
25.87,4.97,9.98,6.06
25.87,4.74,9.39,5.75
25.87,4.37,8.94,5.41
25.88,4.04,8.52,5.11
25.88,3.66,8.19,4.83
25.88,3.26,7.90,4.63
25.88,2.94,7.58,4.55
25.89,2.65,7.35,4.52
25.89,2.34,7.10,4.45
25.89,2.11,7.05,4.53
25.89,2.08,7.00,4.59
25.90,2.08,7.00,4.56
25.90,2.14,7.10,4.52
25.90,2.27,7.27,4.45
25.90,2.47,7.48,4.45
25.91,2.68,7.67,4.46
25.91,2.91,7.93,4.47
25.91,3.11,8.20,4.52
25.91,3.27,8.54,4.60
25.92,3.36,8.85,4.68
25.92,3.50,9.17,4.74
25.92,3.56,9.46,4.80
25.92,3.61,9.75,4.78
25.93,3.60,10.02,4.81
25.93,3.65,10.32,4.80
25.93,3.62,10.56,4.75
25.93,3.53,10.83,4.65
25.94,3.45,11.11,4.58
25.94,3.31,11.38,4.45
25.94,3.24,11.63,4.25
25.94,3.20,11.85,4.10
25.95,3.06,12.09,4.03
25.95,2.95,12.29,3.88
25.95,2.89,12.48,3.75
25.95,2.78,12.62,3.65
25.96,2.65,12.66,3.57
25.96,2.51,12.61,3.46
25.96,2.37,12.57,3.39
25.96,2.27,12.33,3.38
25.97,2.12,12.08,3.43
25.97,1.87,11.73,3.52
25.97,1.61,11.32,3.71
25.97,1.29,10.93,3.90
25.98,1.12,10.56,4.11
25.98,0.92,10.21,4.24
25.98,0.72,9.91,4.50
25.98,0.56,9.56,4.66
25.99,0.42,9.26,4.80
25.99,0.34,9.04,4.93
25.99,0.22,8.75,5.06
25.99,0.10,8.59,5.20
26.00,-0.03,8.37,5.24
26.00,-0.12,8.23,5.21
26.00,-0.20,8.10,5.18
26.00,-0.29,7.93,5.13
26.01,-0.28,7.84,5.08
26.01,-0.27,7.85,4.97
26.01,-0.20,7.86,4.86
26.01,-0.11,7.79,4.78
26.02,0.00,7.84,4.62
26.02,0.08,7.84,4.49
26.02,0.11,7.91,4.35
26.02,0.16,8.00,4.25
26.03,0.25,8.10,4.17
26.03,0.29,8.16,4.02
26.03,0.36,8.27,3.92
26.03,0.43,8.43,3.84
26.04,0.48,8.57,3.77
26.04,0.52,8.69,3.76
26.04,0.49,8.79,3.71
26.04,0.53,8.84,3.58
26.05,0.57,9.00,3.45
26.05,0.59,9.15,3.28
26.05,0.54,9.24,3.18
26.05,0.59,9.30,2.94
26.06,0.61,9.41,2.57
26.06,0.60,9.42,2.36
26.06,0.54,9.42,2.21
26.06,0.46,9.45,2.28
26.07,0.42,9.51,2.43
26.07,0.38,9.58,2.36
26.07,0.28,9.58,2.31
26.07,0.25,9.57,2.23
26.08,0.25,9.60,2.16
26.08,0.27,9.55,2.10
26.08,0.23,9.48,1.95
26.08,0.23,9.33,1.88
26.09,0.22,9.13,1.86
26.09,0.24,9.01,1.81
26.09,0.28,8.78,1.79
26.09,0.32,8.53,1.79
26.10,0.36,8.31,1.81
26.10,0.31,8.14,1.92
26.10,0.24,7.96,2.00
26.10,0.22,7.71,2.09
26.11,0.12,7.58,2.07
26.11,0.03,7.42,1.95
26.11,-0.10,7.30,1.85
26.11,-0.23,7.19,1.84
26.12,-0.17,7.00,1.79
26.12,-0.08,6.78,1.74
26.12,0.06,6.58,1.65
26.12,0.13,6.39,1.56
26.13,0.15,6.20,1.55
26.13,0.05,6.08,1.58
26.13,-0.17,6.06,1.70
26.13,-0.41,6.14,1.90
26.14,-0.55,6.16,2.15
26.14,-0.53,6.26,2.52
26.14,-0.43,6.30,2.94
26.14,-0.32,6.37,3.39
26.15,-0.15,6.48,3.77
26.15,0.03,6.51,4.03
26.15,0.16,6.57,4.36
26.15,0.15,6.58,4.61
26.16,0.17,6.53,4.95
26.16,0.27,6.47,5.16
26.16,0.26,6.39,5.22
26.16,0.22,6.28,5.23
26.17,0.24,6.20,5.33
26.17,0.20,6.12,5.43
26.17,0.19,6.00,5.48
26.17,0.22,5.93,5.39
26.18,0.19,5.83,5.23
26.18,0.18,5.64,5.11
26.18,0.20,5.51,5.03
26.18,0.22,5.40,4.96
26.19,0.20,5.34,4.67
26.19,0.19,5.24,4.50
26.19,0.03,5.08,4.19
26.19,-0.13,5.05,3.84
26.20,-0.18,5.14,3.58
26.20,-0.23,5.22,3.32
26.20,-0.29,5.17,2.99
26.20,-0.36,5.27,2.79
26.21,-0.45,5.44,2.75
26.21,-0.51,5.52,2.67
26.21,-0.42,5.59,2.68
26.21,-0.40,5.66,2.68
26.22,-0.44,5.73,2.69
26.22,-0.44,5.76,2.66
26.22,-0.54,5.84,2.70
26.22,-0.57,6.05,2.84
26.23,-0.53,6.08,2.88
26.23,-0.49,6.23,2.89
26.23,-0.44,6.38,2.88
26.23,-0.42,6.48,2.77
26.24,-0.36,6.57,2.74
26.24,-0.33,6.74,2.75
26.24,-0.37,6.96,2.76
26.24,-0.38,7.09,2.90
26.25,-0.38,7.23,2.97
26.25,-0.48,7.49,3.06
26.25,-0.57,7.67,3.12
26.25,-0.71,7.76,3.27
26.26,-0.84,7.74,3.39
26.26,-0.96,7.83,3.41
26.26,-1.13,7.74,3.44
26.26,-1.27,7.70,3.43
26.27,-1.36,7.68,3.57
26.27,-1.50,7.55,3.51
26.27,-1.70,7.53,3.53
26.27,-1.84,7.55,3.67
26.28,-1.84,7.59,3.77
26.28,-1.71,7.67,3.77
26.28,-1.62,7.67,3.42
26.28,-1.74,7.54,3.25
26.29,-1.81,7.46,3.21
26.29,-1.68,7.37,3.10
26.29,-1.57,7.37,2.94
26.29,-1.59,7.30,2.82
26.30,-1.49,7.27,2.64
26.30,-1.28,7.28,2.72
26.30,-1.13,7.25,2.67
26.30,-0.99,7.25,2.74
26.31,-0.89,7.18,2.89
26.31,-0.78,7.11,3.16
26.31,-0.62,7.03,3.42
26.31,-0.56,6.96,3.66
26.32,-0.50,6.80,4.04
26.32,-0.46,6.82,4.35
26.32,-0.40,6.86,4.60
26.32,-0.39,6.84,4.82
26.33,-0.30,7.07,4.97
26.33,-0.30,7.32,4.90
26.33,-0.59,7.22,5.00
26.33,-0.61,7.21,5.60
26.34,-0.59,7.25,6.17
26.34,-0.56,7.23,6.33
26.34,-0.47,7.33,6.57
26.34,-0.35,7.41,6.78
26.35,-0.30,7.52,6.78
26.35,-0.15,7.61,6.77
26.35,-0.22,7.76,6.63
26.35,-0.20,7.98,6.53
26.36,-0.12,8.10,6.32
26.36,0.03,8.21,6.17
26.36,0.23,8.35,5.98
26.36,0.40,8.43,5.91
26.37,0.53,8.41,5.77
26.37,0.65,8.35,5.73
26.37,0.74,8.31,5.75
26.37,0.75,8.30,5.68
26.38,0.69,8.31,5.72
26.38,0.63,8.28,5.78
26.38,0.52,8.34,5.88
26.38,0.50,8.40,5.97
26.39,0.43,8.45,6.09
26.39,0.31,8.54,6.23
26.39,0.23,8.61,6.36
26.39,0.14,8.62,6.40
26.40,-0.02,8.68,6.47
26.40,-0.16,8.75,6.53
26.40,-0.20,8.81,6.55
26.40,-0.34,8.88,6.61
26.41,-0.50,8.88,6.59
26.41,-0.68,8.88,6.48
26.41,-0.81,8.90,6.40
26.41,-0.96,8.90,6.18
26.42,-1.09,8.86,6.03
26.42,-1.31,8.76,5.82
26.42,-1.53,8.70,5.54
26.42,-1.72,8.66,5.27
26.43,-1.98,8.55,5.07
26.43,-2.18,8.54,4.80
26.43,-2.45,8.50,4.55
26.43,-2.74,8.49,4.36
26.44,-3.01,8.56,4.13
26.44,-3.19,8.63,4.02
26.44,-3.39,8.73,3.90
26.44,-3.57,8.84,3.78
26.45,-3.70,9.05,3.73
26.45,-3.77,9.22,3.64
26.45,-3.93,9.42,3.71
26.45,-3.97,9.62,3.71
26.46,-3.97,9.81,3.67
26.46,-4.01,9.93,3.70
26.46,-4.06,10.12,3.67
26.46,-4.11,10.33,3.59
26.47,-4.02,10.47,3.57
26.47,-4.03,10.58,3.56
26.47,-3.96,10.73,3.51
26.47,-3.82,10.79,3.51
26.48,-3.71,10.92,3.64
26.48,-3.55,11.02,3.81
26.48,-3.41,11.17,3.93
26.48,-3.21,11.21,4.13
26.49,-3.00,11.33,4.38
26.49,-2.66,11.47,4.73
26.49,-2.31,11.56,4.98
26.49,-1.99,11.58,5.20
26.50,-1.62,11.62,5.36
26.50,-1.32,11.62,5.52
26.50,-1.05,11.61,5.61
26.50,-0.86,11.64,5.74
26.51,-0.79,11.69,5.85
26.51,-0.76,11.78,5.89
26.51,-0.77,11.82,6.00
26.51,-0.79,11.89,6.17
26.52,-0.83,11.96,6.22
26.52,-0.89,11.97,6.32
26.52,-0.87,11.99,6.37
26.52,-0.84,12.04,6.53
26.53,-0.89,12.02,6.55
26.53,-0.87,12.00,6.60
26.53,-0.79,12.00,6.48
26.53,-0.86,11.95,6.37
26.54,-0.95,11.83,6.19
26.54,-1.06,11.79,5.91
26.54,-1.19,11.69,5.66
26.54,-1.33,11.60,5.43
26.55,-1.46,11.44,5.16
26.55,-1.62,11.31,4.97
26.55,-1.72,11.13,4.74
26.55,-1.79,11.01,4.51
26.56,-1.88,10.88,4.34
26.56,-1.91,10.70,4.17
26.56,-1.93,10.50,4.01
26.56,-1.95,10.39,3.88
26.57,-1.95,10.25,3.77
26.57,-1.89,10.12,3.72
26.57,-1.86,9.97,3.65
26.57,-1.93,9.85,3.56
26.58,-1.98,9.70,3.54
26.58,-2.01,9.51,3.53
26.58,-2.16,9.33,3.44
26.58,-2.40,9.13,3.42
26.59,-2.66,8.93,3.54
26.59,-2.92,8.72,3.67
26.59,-3.06,8.49,3.80
26.59,-3.15,8.32,3.81
26.60,-3.27,8.05,3.80
26.60,-3.35,7.85,3.82
26.60,-3.50,7.64,3.81
26.60,-3.62,7.47,3.82
26.61,-3.68,7.44,3.77
26.61,-3.83,7.35,3.82
26.61,-3.98,7.31,3.82
26.61,-4.05,7.27,3.80
26.62,-3.97,7.29,3.75
26.62,-3.83,7.40,3.75
26.62,-3.69,7.47,3.80
26.62,-3.64,7.43,3.78
26.63,-3.54,7.63,4.16
26.63,-3.28,7.67,4.38
26.63,-3.10,7.60,4.62
26.63,-3.45,7.29,4.75
26.64,-3.42,7.30,5.01
26.64,-2.81,7.84,5.12
26.64,-2.36,8.22,4.91
26.64,-2.15,8.65,4.92
26.65,-1.92,9.22,4.86
26.65,-1.53,9.79,4.81
26.65,-1.15,10.24,4.77
26.65,-0.66,10.64,4.79
26.66,-0.02,10.95,4.89
26.66,0.82,11.30,4.86
26.66,1.62,11.56,4.67
26.66,2.37,11.70,4.62
26.67,3.21,11.84,4.68
26.67,3.99,11.98,4.88
26.67,4.65,12.14,4.92
26.67,5.33,12.28,4.76
26.68,5.88,12.43,4.54
26.68,6.52,12.62,4.14
26.68,7.17,12.79,3.61
26.68,7.77,12.94,2.70
26.69,8.30,13.13,1.58
26.69,8.58,13.26,0.40
26.69,8.75,13.32,-0.77
26.69,8.81,13.40,-1.78
26.70,8.83,13.42,-2.70
26.70,8.66,13.41,-3.51
26.70,8.30,13.31,-4.08
26.70,7.69,13.19,-4.43
26.71,6.81,13.07,-4.62
26.71,5.84,12.92,-4.63
26.71,4.89,12.69,-4.56
26.71,4.30,12.39,-4.34
26.72,3.58,11.85,-4.12
26.72,2.59,11.43,-3.96
26.72,1.99,10.94,-3.90
26.72,1.49,10.68,-3.74
26.73,1.15,10.48,-3.35
26.73,1.09,10.21,-2.79
26.73,1.34,9.91,-2.13
26.73,1.73,9.63,-1.56
26.74,1.71,9.23,-1.09
26.74,1.62,8.96,-0.57
26.74,1.74,8.61,-0.20
26.74,1.72,8.12,0.12
26.75,1.66,7.73,0.61
26.75,1.68,7.38,1.24
26.75,1.87,7.15,1.93
26.75,2.10,7.03,2.72
26.76,2.32,6.80,3.49
26.76,2.33,6.61,4.35
26.76,2.19,6.59,5.16
26.76,2.06,6.55,6.01
26.77,1.93,6.64,6.61
26.77,1.82,6.64,6.92
26.77,1.74,6.68,6.91
26.77,1.70,6.71,7.08
26.78,1.79,6.66,7.15
26.78,1.82,6.63,7.17
26.78,1.83,6.59,7.09
26.78,1.68,6.56,6.90
26.79,1.52,6.51,6.61
26.79,1.40,6.38,6.55
26.79,1.32,6.23,6.37
26.79,1.29,6.12,6.14
26.80,1.19,5.92,5.87
26.80,1.09,5.66,5.45
26.80,0.98,5.47,4.92
26.80,0.84,5.22,4.31
26.81,0.68,5.01,3.47
26.81,0.60,4.82,2.61
26.81,0.58,4.67,1.97
26.81,0.57,4.63,1.55
26.82,0.65,4.64,1.35
26.82,0.87,4.62,1.17
26.82,0.99,4.65,1.16
26.82,1.05,4.66,1.12
26.83,1.09,4.67,1.06
26.83,1.12,4.71,0.98
26.83,1.25,4.62,0.88
26.83,1.28,4.66,0.76
26.84,1.30,4.74,0.69
26.84,1.36,4.83,0.72
26.84,1.54,4.94,0.68
26.84,1.75,4.97,0.62
26.85,1.95,4.94,0.58
26.85,2.17,4.93,0.46
26.85,2.39,4.87,0.35
26.85,2.64,4.79,0.32
26.86,2.80,4.75,0.23
26.86,2.95,4.69,0.24
26.86,3.12,4.60,0.38
26.86,3.28,4.61,0.60
26.87,3.46,4.58,0.90
26.87,3.46,4.56,1.31
26.87,3.50,4.50,1.67
26.87,3.47,4.50,1.98
26.88,3.42,4.49,2.29
26.88,3.45,4.40,2.55
26.88,3.57,4.31,2.76
26.88,3.64,4.11,3.15
26.89,3.67,4.00,3.53
26.89,3.75,3.90,3.75
26.89,3.90,3.76,3.93
26.89,3.96,3.59,4.06
26.90,3.95,3.49,4.17
26.90,3.96,3.45,4.39
26.90,3.97,3.30,4.51
26.90,3.98,3.27,4.51
26.91,3.93,3.24,4.66
26.91,3.90,3.17,4.76
26.91,3.90,3.14,4.74
26.91,3.95,3.06,4.59
26.92,4.05,3.08,4.60
26.92,4.10,3.16,4.57
26.92,4.13,3.18,4.56
26.92,4.14,3.26,4.57
26.93,4.15,3.43,4.61
26.93,4.11,3.50,4.67
26.93,4.07,3.60,4.72
26.93,3.94,3.70,4.77
26.94,3.93,3.79,4.76
26.94,3.89,3.88,4.84
26.94,3.88,3.89,4.89
26.94,3.83,3.94,5.04
26.95,3.75,4.03,5.15
26.95,3.73,4.05,5.27
26.95,3.62,4.11,5.38
26.95,3.65,4.10,5.54
26.96,3.76,4.11,5.73
26.96,3.80,4.05,5.77
26.96,3.72,4.00,5.87
26.96,3.62,4.03,6.04
26.97,3.68,3.97,6.16
26.97,3.65,3.91,6.24
26.97,3.71,3.94,6.40
26.97,3.65,3.93,6.64
26.98,3.62,3.92,6.75
26.98,3.60,3.89,6.78
26.98,3.55,3.97,6.94
26.98,3.72,3.92,7.12
26.99,3.86,3.87,7.38
26.99,3.86,3.88,7.42
26.99,3.82,4.01,7.49
26.99,3.86,4.12,7.57
27.00,3.99,4.17,7.51
27.00,4.08,4.34,7.41
27.00,4.13,4.57,7.19
27.00,4.33,4.77,7.03
27.01,4.63,5.02,6.82
27.01,4.94,5.21,6.60
27.01,5.38,5.39,6.40
27.01,5.82,5.47,6.20
27.02,6.38,5.61,6.01
27.02,6.71,5.70,5.83
27.02,6.98,5.79,5.63
27.02,7.19,5.96,5.46
27.03,7.33,6.17,5.38
27.03,7.47,6.38,5.35
27.03,7.53,6.58,5.36
27.03,7.54,6.85,5.47
27.04,7.60,7.13,5.61
27.04,7.63,7.38,5.77
27.04,7.69,7.52,6.04
27.04,7.69,7.77,6.44
27.05,7.69,8.04,6.84
27.05,7.67,8.29,7.21
27.05,7.77,8.45,7.45
27.05,7.75,8.65,8.02
27.06,7.70,8.80,8.32
27.06,7.64,8.93,8.48
27.06,7.58,9.09,8.64
27.06,7.37,9.25,8.72
27.07,7.19,9.46,8.81
27.07,7.08,9.81,8.76
27.07,7.11,10.21,8.65
27.07,7.26,10.76,8.50
27.08,7.51,11.40,8.42
27.08,7.85,12.09,8.43
27.08,8.26,12.78,8.44
27.08,8.69,13.48,8.54
27.09,9.04,14.08,8.68
27.09,9.21,14.58,8.81
27.09,9.30,14.98,8.84
27.09,9.21,15.23,8.86
27.10,8.97,15.28,8.79
27.10,8.51,15.22,8.56
27.10,8.12,15.00,8.31
27.10,7.79,14.57,7.91
27.11,7.41,14.04,7.54
27.11,7.07,13.44,7.10
27.11,6.76,12.85,6.70
27.11,6.66,12.34,6.50
27.12,6.67,11.77,6.39
27.12,6.74,11.27,6.24
27.12,6.75,10.77,6.20
27.12,6.76,10.28,6.08
27.13,6.66,9.91,6.03
27.13,6.49,9.56,5.91
27.13,6.22,9.31,5.84
27.13,5.95,9.13,5.81
27.14,5.66,9.02,5.75
27.14,5.34,8.89,5.79
27.14,4.96,8.84,5.74
27.14,4.51,8.92,5.68
27.15,4.11,8.94,5.67
27.15,3.69,8.96,5.60
27.15,3.28,9.00,5.43
27.15,2.95,9.00,5.26
27.16,2.67,9.05,5.10
27.16,2.39,9.02,4.88
27.16,2.18,9.01,4.71
27.16,2.01,9.06,4.59
27.17,1.79,9.09,4.50
27.17,1.61,9.10,4.36
27.17,1.42,9.15,4.38
27.17,1.20,9.21,4.45
27.18,0.96,9.30,4.53
27.18,0.80,9.38,4.67
27.18,0.69,9.45,4.75
27.18,0.56,9.59,4.93
27.19,0.45,9.74,4.97
27.19,0.35,9.86,4.94
27.19,0.35,9.94,4.89
27.19,0.38,10.05,4.77
27.20,0.43,10.14,4.72
27.20,0.48,10.21,4.62
27.20,0.51,10.28,4.37
27.20,0.57,10.36,4.18
27.21,0.64,10.31,3.90
27.21,0.70,10.36,3.55
27.21,0.81,10.37,3.24
27.21,0.94,10.34,2.88
27.22,1.09,10.16,2.53
27.22,1.25,9.99,2.18
27.22,1.42,9.75,1.79
27.22,1.63,9.47,1.51
27.23,1.79,9.11,1.16
27.23,1.89,8.74,1.03
27.23,2.02,8.42,1.00
27.23,2.11,8.02,1.02
27.24,2.16,7.67,1.11
27.24,2.10,7.40,1.21
27.24,2.07,7.14,1.38
27.24,1.96,6.92,1.63
27.25,1.91,6.75,2.01
27.25,1.85,6.52,2.23
27.25,1.81,6.29,2.31
27.25,1.83,6.13,2.52
27.26,1.77,6.01,2.67
27.26,1.79,5.91,2.83
27.26,1.77,5.86,2.91
27.26,1.68,5.89,2.97
27.27,1.72,5.89,3.05
27.27,1.71,5.99,3.14
27.27,1.62,6.13,3.16
27.27,1.54,6.28,3.17
27.28,1.53,6.39,3.20
27.28,1.57,6.57,3.15
27.28,1.52,6.80,3.15
27.28,1.53,7.02,3.10
27.29,1.59,7.15,3.02
27.29,1.64,7.38,2.86
27.29,1.76,7.60,2.74
27.29,1.75,7.82,2.75
27.30,1.68,8.08,2.73
27.30,1.76,8.27,2.66
27.30,1.82,8.57,2.62
27.30,1.83,8.88,2.78
27.31,1.81,9.12,2.82
27.31,1.77,9.31,2.94
27.31,1.71,9.59,3.06
27.31,1.69,9.73,3.38
27.32,1.52,9.94,3.78
27.32,1.29,10.04,4.01
27.32,1.17,10.04,4.06
27.32,1.06,10.14,4.14
27.33,0.98,10.26,4.36
27.33,0.96,10.32,4.51
27.33,0.92,10.28,4.68
27.33,0.92,10.25,5.10
27.34,0.98,10.16,4.86
27.34,0.87,10.04,4.98
27.34,1.04,9.89,4.16
27.34,0.93,9.65,3.41
27.35,0.63,9.40,2.88
27.35,0.46,9.10,2.46
27.35,0.31,8.88,1.99
27.35,0.31,8.60,1.54
27.36,0.39,8.29,1.19
27.36,0.47,7.96,0.99
27.36,0.39,7.65,0.96
27.36,0.37,7.43,0.89
27.37,0.47,7.13,0.82
27.37,0.92,6.60,0.76
27.37,1.07,6.19,0.74
27.37,0.96,5.90,1.00
27.38,0.66,5.77,1.20
27.38,0.36,5.76,1.61
27.38,0.13,5.79,2.12
27.38,0.06,5.91,2.60
27.39,0.10,5.96,3.22
27.39,0.06,6.13,3.67
27.39,-0.15,6.40,3.90
27.39,-0.24,6.62,4.17
27.40,-0.29,6.79,4.31
27.40,-0.28,6.75,4.38
27.40,-0.40,6.68,4.23
27.40,-0.43,6.60,4.08
27.41,-0.42,6.45,3.98
27.41,-0.44,6.20,3.91
27.41,-0.33,6.05,3.80
27.41,-0.16,5.82,3.75
27.42,-0.05,5.60,3.69
27.42,0.12,5.35,3.63
27.42,0.32,5.20,3.53
27.42,0.48,5.03,3.53
27.43,0.56,4.83,3.51
27.43,0.61,4.75,3.62
27.43,0.72,4.68,3.85
27.43,0.84,4.60,4.08
27.44,0.85,4.48,4.34
27.44,0.76,4.46,4.61
27.44,0.78,4.42,4.80
27.44,0.70,4.38,5.06
27.45,0.64,4.30,5.25
27.45,0.67,4.25,5.31
27.45,0.63,4.28,5.43
27.45,0.60,4.36,5.64
27.46,0.72,4.57,5.98
27.46,0.77,4.74,6.20
27.46,0.79,4.93,6.41
27.46,0.83,5.20,6.56
27.47,0.83,5.46,6.57
27.47,0.82,5.76,6.38
27.47,0.86,6.04,6.14
27.47,0.75,6.31,5.87
27.48,0.64,6.62,5.71
27.48,0.67,6.79,5.14
27.48,0.59,6.97,4.69
27.48,0.48,7.09,4.31
27.49,0.50,7.18,3.85
27.49,0.49,7.31,3.61
27.49,0.46,7.35,3.46
27.49,0.39,7.40,3.30
27.50,0.32,7.56,3.18
27.50,0.30,7.67,3.18
27.50,0.21,7.71,3.10
27.50,0.09,7.78,3.23
27.51,0.01,7.84,3.42
27.51,-0.07,7.88,3.41
27.51,-0.20,7.95,3.55
27.51,-0.28,7.96,3.69
27.52,-0.38,8.00,3.92
27.52,-0.47,8.04,4.10
27.52,-0.51,8.08,4.43
27.52,-0.44,8.06,4.72
27.53,-0.34,8.01,4.89
27.53,-0.34,7.83,4.86
27.53,-0.30,7.76,4.98
27.53,-0.21,7.82,5.12
27.54,0.12,7.83,5.16
27.54,0.53,8.10,5.17
27.54,0.17,7.89,5.30
27.54,0.04,7.64,5.43
27.55,0.14,7.48,5.79
27.55,0.29,7.35,6.19
27.55,0.40,7.28,6.20
27.55,0.57,7.22,6.30
27.56,0.79,7.20,6.43
27.56,0.89,7.27,6.35
27.56,0.98,7.37,6.47
27.56,1.10,7.43,6.69
27.57,1.21,7.48,6.73
27.57,1.35,7.63,6.77
27.57,1.48,7.77,6.83
27.57,1.71,7.88,6.81
27.58,1.82,7.94,6.77
27.58,2.02,8.07,6.64
27.58,2.25,8.28,6.56
27.58,2.42,8.34,6.40
27.59,2.57,8.51,6.32
27.59,2.81,8.62,6.35
27.59,3.05,8.76,6.26
27.59,3.32,8.88,6.08
27.60,3.47,8.87,5.85
27.60,3.45,8.86,5.70
27.60,3.41,8.92,5.55
27.60,3.27,8.91,5.39
27.61,3.07,8.92,5.25
27.61,2.96,8.84,5.10
27.61,2.82,8.88,5.10
27.61,2.62,8.83,4.92
27.62,2.38,8.69,4.90
27.62,2.09,8.62,4.90
27.62,1.75,8.55,4.89
27.62,1.40,8.52,4.87
27.63,1.16,8.50,4.98
27.63,1.02,8.59,5.08
27.63,0.88,8.64,5.14
27.63,0.55,8.65,5.15
27.64,0.30,8.59,5.13
27.64,0.02,8.57,5.19
27.64,-0.42,8.50,5.16
27.64,-0.67,8.45,5.05
27.65,-0.96,8.46,4.87
27.65,-1.34,8.33,4.86
27.65,-1.66,8.24,4.84
27.65,-2.01,8.17,4.71
27.66,-2.50,8.02,4.61
27.66,-2.83,7.90,4.40
27.66,-3.13,7.77,4.11
27.66,-3.43,7.64,3.89
27.67,-3.66,7.55,3.72
27.67,-3.80,7.41,3.53
27.67,-4.20,7.17,3.39
27.67,-4.56,6.85,3.19
27.68,-4.74,6.66,2.94
27.68,-4.97,6.52,2.80
27.68,-5.18,6.31,2.63
27.68,-5.30,6.23,2.53
27.69,-5.32,6.20,2.51
27.69,-5.43,6.13,2.49
27.69,-5.44,6.28,2.43
27.69,-5.55,6.47,2.44
27.70,-5.68,6.62,2.41
27.70,-5.90,6.76,2.38
27.70,-6.02,6.95,2.43
27.70,-6.19,7.14,2.57
27.71,-6.23,7.45,2.64
27.71,-6.20,7.76,2.88
27.71,-6.24,8.04,3.21
27.71,-6.33,8.32,3.52
27.72,-6.41,8.64,3.75
27.72,-6.44,8.99,3.96
27.72,-6.43,9.34,4.18
27.72,-6.39,9.63,4.42
27.73,-6.27,10.04,4.60
27.73,-6.17,10.51,4.65
27.73,-5.97,10.89,4.80
27.73,-5.67,11.20,4.96
27.74,-5.30,11.62,5.12
27.74,-4.93,12.03,5.32
27.74,-4.62,12.54,5.53
27.74,-4.34,12.93,5.85
27.75,-4.02,13.24,6.25
27.75,-3.78,13.65,6.53
27.75,-3.56,13.98,6.79
27.75,-3.32,14.17,6.92
27.76,-3.17,14.32,7.06
27.76,-3.01,14.33,7.08
27.76,-2.78,14.35,6.99
27.76,-2.58,14.23,6.95
27.77,-2.39,14.07,6.78
27.77,-2.23,14.01,6.65
27.77,-2.12,13.95,6.49
27.77,-2.02,13.88,6.40
27.78,-1.95,13.80,6.20
27.78,-1.86,13.77,6.05
27.78,-1.83,13.72,5.97
27.78,-1.76,13.66,5.88
27.79,-1.64,13.62,5.80
27.79,-1.50,13.58,5.73
27.79,-1.41,13.51,5.68
27.79,-1.30,13.43,5.60
27.80,-1.12,13.32,5.48
27.80,-0.99,13.22,5.33
27.80,-0.90,13.11,5.21
27.80,-0.83,12.97,5.21
27.81,-0.71,12.89,5.21
27.81,-0.54,12.79,5.20
27.81,-0.39,12.70,5.16
27.81,-0.31,12.59,5.10
27.82,-0.24,12.48,5.01
27.82,-0.24,12.46,5.00
27.82,-0.18,12.37,4.98
27.82,-0.15,12.23,4.91
27.83,-0.14,12.13,4.86
27.83,-0.22,12.02,4.78
27.83,-0.20,11.84,4.74
27.83,-0.24,11.68,4.69
27.84,-0.29,11.49,4.60
27.84,-0.28,11.26,4.52
27.84,-0.32,11.03,4.45
27.84,-0.39,10.74,4.34
27.85,-0.48,10.47,4.23
27.85,-0.52,10.16,4.15
27.85,-0.63,9.74,4.03
27.85,-0.77,9.37,3.89
27.86,-0.81,9.00,3.74
27.86,-0.93,8.55,3.63
27.86,-1.06,8.08,3.57
27.86,-1.23,7.64,3.53
27.87,-1.36,7.25,3.63
27.87,-1.45,6.83,3.64
27.87,-1.62,6.37,3.78
27.87,-1.83,5.97,3.96
27.88,-2.02,5.54,4.07
27.88,-2.22,5.19,4.17
27.88,-2.40,4.91,4.32
27.88,-2.47,4.64,4.45
27.89,-2.64,4.40,4.62
27.89,-2.71,4.11,4.75
27.89,-2.73,3.97,4.87
27.89,-2.68,3.78,4.97
27.90,-2.70,3.55,4.94
27.90,-2.71,3.39,4.90
27.90,-2.68,3.24,4.84
27.90,-2.60,3.12,4.74
27.91,-2.50,3.05,4.61
27.91,-2.45,3.04,4.38
27.91,-2.24,3.06,4.14
27.91,-2.09,3.13,4.01
27.92,-1.95,3.18,3.92
27.92,-1.75,3.27,3.77
27.92,-1.47,3.44,3.58
27.92,-1.10,3.62,3.42
27.93,-0.92,3.68,3.16
27.93,-0.79,3.89,3.12
27.93,-0.52,4.10,3.08
27.93,-0.70,3.89,2.95
27.94,-0.73,4.16,3.09
27.94,-0.64,4.32,3.15
27.94,-0.64,4.41,3.29
27.94,-1.01,4.64,3.51
27.95,-1.20,4.86,3.68
27.95,-1.37,5.11,3.83
27.95,-1.16,5.58,4.02
27.95,-0.46,6.47,4.09
27.96,-0.12,7.67,3.84
27.96,0.04,9.06,3.88
27.96,0.36,10.19,4.07
27.96,0.73,11.00,4.11
27.97,1.18,11.68,4.16
27.97,1.70,12.25,4.27
27.97,2.20,12.80,4.48
27.97,2.71,13.45,4.74
27.98,3.11,14.00,4.95
27.98,3.53,14.49,5.08
27.98,4.09,15.05,4.95
27.98,4.79,15.58,4.67
27.99,5.54,16.09,4.18
27.99,6.22,16.59,3.52
27.99,7.10,17.05,2.69
27.99,7.83,17.38,1.58
28.00,8.66,17.60,0.12
28.00,9.42,17.66,-1.46
28.00,9.87,17.70,-2.57
28.00,10.28,17.58,-3.18
28.01,10.61,17.46,-3.81
28.01,10.72,17.18,-4.22
28.01,10.52,16.74,-4.58
28.01,10.07,16.26,-4.89
28.02,8.94,15.68,-5.01
28.02,7.21,15.00,-4.78
28.02,5.81,14.49,-4.41
28.02,4.78,13.99,-3.90
28.03,3.97,13.49,-3.30
28.03,3.36,12.92,-2.70
28.03,2.86,12.31,-2.25
28.03,2.47,11.67,-1.93
28.04,2.15,10.94,-1.76
28.04,1.87,10.35,-1.50
28.04,1.48,9.87,-0.95
28.04,1.08,9.43,-0.37
28.05,0.71,9.10,0.15
28.05,0.21,8.81,0.74
28.05,-0.21,8.47,1.32
28.05,-0.59,8.08,1.95
28.06,-0.94,7.74,2.70
28.06,-1.12,7.31,3.61
28.06,-1.30,6.92,4.64
28.06,-1.41,6.58,5.54
28.07,-1.61,6.24,6.19
28.07,-1.78,6.10,6.77
28.07,-1.71,6.07,7.51
28.07,-1.56,6.12,8.24
28.08,-1.49,6.07,8.80
28.08,-1.53,5.89,9.19
28.08,-1.57,5.64,9.30
28.08,-1.67,5.26,9.10
28.09,-1.67,4.86,8.86
28.09,-1.56,4.47,8.56
28.09,-1.23,4.12,7.95
28.09,-0.60,3.81,7.32
28.10,-0.01,3.61,6.72
28.10,0.63,3.18,6.24
28.10,1.14,2.75,5.72
28.10,1.56,2.42,4.87
28.11,1.96,2.33,3.72
28.11,2.30,2.35,2.77
28.11,2.55,2.49,2.05
28.11,2.90,2.52,1.53
28.12,3.21,2.76,1.16
28.12,3.50,3.05,0.92
28.12,3.68,3.26,0.74
28.12,3.80,3.46,0.57
28.13,3.83,3.62,0.50
28.13,3.59,3.75,0.42
28.13,3.32,3.88,0.26
28.13,3.06,4.26,0.05
28.14,2.85,4.65,-0.20
28.14,2.64,5.09,-0.37
28.14,2.45,5.46,-0.47
28.14,2.27,5.79,-0.55
28.15,2.21,6.07,-0.60
28.15,2.16,6.33,-0.56
28.15,2.21,6.58,-0.50
28.15,2.21,6.77,-0.39
28.16,2.26,6.90,-0.19
28.16,2.33,7.05,0.04
28.16,2.42,7.20,0.35
28.16,2.51,7.32,0.79
28.17,2.79,7.32,1.09
28.17,3.11,7.29,1.40
28.17,3.37,7.24,1.65
28.17,3.68,7.10,1.85
28.18,3.99,7.00,2.08
28.18,4.31,6.86,2.37
28.18,4.53,6.74,2.73
28.18,4.80,6.61,2.96
28.19,5.02,6.43,3.26
28.19,5.21,6.21,3.63
28.19,5.35,6.00,3.96
28.19,5.41,5.86,4.38
28.20,5.50,5.72,4.76
28.20,5.52,5.59,5.35
28.20,5.33,5.46,5.39
28.20,5.35,5.36,5.51
28.21,5.28,5.24,5.76
28.21,5.11,5.20,5.81
28.21,4.86,5.15,5.81
28.21,4.50,5.19,5.90
28.22,4.21,5.14,5.85
28.22,3.96,5.12,5.71
28.22,3.81,5.14,5.58
28.22,3.66,5.03,5.45
28.23,3.46,5.03,5.26
28.23,3.37,4.91,4.98
28.23,3.34,4.78,4.78
28.23,3.36,4.55,4.47
28.24,3.29,4.39,4.13
28.24,3.26,4.26,3.79
28.24,3.28,4.06,3.46
28.24,3.25,3.94,3.17
28.25,3.31,3.83,2.83
28.25,3.30,3.67,2.59
28.25,3.34,3.53,2.53
28.25,3.34,3.43,2.46
28.26,3.36,3.28,2.43
28.26,3.44,3.18,2.46
28.26,3.54,3.13,2.51
28.26,3.62,3.07,2.64
28.27,3.58,2.97,2.90
28.27,3.53,2.85,3.18
28.27,3.55,2.75,3.39
28.27,3.60,2.65,3.54
28.28,3.64,2.49,3.75
28.28,3.70,2.43,3.89
28.28,3.67,2.52,4.12
28.28,3.73,2.49,4.35
28.29,3.84,2.51,4.60
28.29,3.89,2.55,4.84
28.29,3.96,2.75,5.04
28.29,3.99,2.90,5.28
28.30,4.10,3.04,5.40
28.30,4.23,3.26,5.55
28.30,4.26,3.47,5.76
28.30,4.31,3.70,6.04
28.31,4.38,3.93,6.27
28.31,4.52,4.12,6.43
28.31,4.76,4.28,6.67
28.31,4.99,4.43,6.95
28.32,5.10,4.65,7.14
28.32,5.19,4.79,7.26
28.32,5.25,4.99,7.24
28.32,5.39,5.12,7.21
28.33,5.60,5.34,7.23
28.33,5.71,5.50,7.21
28.33,5.72,5.60,7.11
28.33,5.81,5.71,6.95
28.34,5.95,5.77,6.87
28.34,5.93,5.88,6.82
28.34,5.97,5.86,6.72
28.34,6.05,5.96,6.55
28.35,6.15,6.11,6.51
28.35,6.20,6.24,6.41
28.35,6.22,6.38,6.28
28.35,6.29,6.55,6.18
28.36,6.32,6.67,5.99
28.36,6.42,6.76,5.89
28.36,6.51,6.80,5.72
28.36,6.62,6.91,5.52
28.37,6.78,7.04,5.35
28.37,6.97,7.05,5.25
28.37,7.14,7.02,5.09
28.37,7.20,6.96,4.99
28.38,7.35,6.97,4.91
28.38,7.50,6.89,4.87
28.38,7.54,6.77,4.95
28.38,7.65,6.74,5.07
28.39,7.71,6.60,5.26
28.39,7.78,6.47,5.49
28.39,7.79,6.40,5.75
28.39,7.75,6.31,5.96
28.40,7.77,6.24,6.18
28.40,7.73,6.23,6.38
28.40,7.75,6.20,6.58
28.40,7.73,6.11,6.79
28.41,7.67,6.05,7.01
28.41,7.68,6.05,7.20
28.41,7.61,6.13,7.33
28.41,7.60,6.19,7.46
28.42,7.56,6.17,7.54
28.42,7.53,6.20,7.56
28.42,7.43,6.29,7.71
28.42,7.36,6.32,7.77
28.43,7.28,6.42,7.82
28.43,7.19,6.50,7.81
28.43,7.11,6.55,7.82
28.43,7.03,6.59,7.72
28.44,6.98,6.67,7.57
28.44,6.99,6.67,7.54
28.44,7.02,6.70,7.56
28.44,6.98,6.77,7.59
28.45,6.96,6.78,7.63
28.45,7.00,6.91,7.66
28.45,7.07,7.09,7.63
28.45,7.11,7.27,7.62
28.46,7.15,7.48,7.61
28.46,7.10,7.79,7.63
28.46,7.02,8.16,7.60
28.46,6.94,8.59,7.54
28.47,6.85,9.06,7.48
28.47,6.75,9.58,7.38
28.47,6.70,10.20,7.42
28.47,6.64,10.70,7.58
28.48,6.72,11.25,7.63
28.48,6.86,11.81,7.77
28.48,7.14,12.22,7.95
28.48,7.45,12.50,8.13
28.49,7.82,12.61,8.34
28.49,8.21,12.63,8.57
28.49,8.73,12.52,8.74
28.49,9.28,12.27,8.81
28.50,9.73,11.80,8.86
28.50,10.15,11.35,8.93
28.50,10.47,10.79,9.03
28.50,10.68,10.28,9.01
28.51,10.75,9.76,9.02
28.51,10.71,9.26,8.97
28.51,10.54,8.79,8.94
28.51,10.26,8.49,8.83
28.52,9.92,8.34,8.73
28.52,9.55,8.31,8.63
28.52,9.23,8.28,8.47
28.52,9.01,8.19,8.35
28.53,8.91,8.07,8.25
28.53,8.69,7.94,8.13
28.53,8.51,7.78,8.09
28.53,8.28,7.72,8.01
28.54,7.94,7.56,7.91
28.54,7.56,7.48,7.81
28.54,7.06,7.41,7.80
28.54,6.51,7.31,7.79
28.55,5.95,7.28,7.79
28.55,5.35,7.15,7.75
28.55,4.83,7.05,7.65
28.55,4.36,6.92,7.58
28.56,3.92,6.85,7.40
28.56,3.50,6.84,7.18
28.56,3.06,6.86,6.95
28.56,2.58,6.86,6.71
28.57,2.07,6.93,6.40
28.57,1.70,6.97,6.01
28.57,1.28,7.14,5.70
28.57,0.97,7.30,5.43
28.58,0.70,7.46,5.10
28.58,0.55,7.65,4.82
28.58,0.41,7.88,4.54
28.58,0.42,8.03,4.22
28.59,0.45,8.22,3.99
28.59,0.59,8.34,3.74
28.59,0.79,8.48,3.59
28.59,0.94,8.61,3.37
28.60,1.17,8.68,3.33
28.60,1.39,8.73,3.28
28.60,1.68,8.85,3.18
28.60,1.85,9.00,3.21
28.61,1.99,9.15,3.24
28.61,2.08,9.37,3.21
28.61,2.17,9.58,3.26
28.61,2.35,9.82,3.28
28.62,2.53,9.95,3.24
28.62,2.73,10.00,3.27
28.62,3.01,10.01,3.34
28.62,3.36,9.91,3.33
28.63,3.70,9.76,3.35
28.63,4.01,9.51,3.33
28.63,4.26,9.31,3.38
28.63,4.53,9.00,3.44
28.64,4.59,8.70,3.54
28.64,4.62,8.48,3.55
28.64,4.66,8.33,3.70
28.64,4.58,8.10,3.75
28.65,4.41,7.94,3.82
28.65,4.23,7.82,3.92
28.65,3.99,7.76,4.04
28.65,3.76,7.70,4.13
28.66,3.46,7.70,4.16
28.66,3.10,7.73,4.20
28.66,2.69,7.79,4.17
28.66,2.38,7.89,4.20
28.67,2.24,7.95,4.24
28.67,2.12,8.00,4.07
28.67,1.91,8.09,3.79
28.67,1.65,8.19,3.41
28.68,1.37,8.29,3.06
28.68,1.32,8.40,2.79
28.68,1.47,8.45,2.31
28.68,1.16,8.55,1.74
28.69,0.90,8.63,1.49
28.69,0.90,8.67,1.26
28.69,0.83,8.62,1.17
28.69,0.87,8.68,0.94
28.70,1.04,8.79,0.73
28.70,1.17,8.88,0.62
28.70,1.19,8.86,0.62
28.70,1.26,8.86,0.54
28.71,1.34,8.86,0.61
28.71,1.49,8.87,0.66
28.71,1.65,8.88,0.73
28.71,1.76,8.88,0.85
28.72,1.86,8.92,1.00
28.72,1.95,8.91,1.19
28.72,2.07,8.87,1.36
28.72,2.10,8.85,1.45
28.73,2.06,8.91,1.48
28.73,2.10,8.90,1.61
28.73,2.05,8.88,1.77
28.73,1.91,8.87,1.83
28.74,1.81,8.89,2.00
28.74,1.63,8.91,2.28
28.74,1.45,8.96,2.42
28.74,1.36,8.94,2.52
28.75,1.32,9.00,2.62
28.75,1.27,9.05,2.76
28.75,1.19,9.05,2.89
28.75,1.15,9.01,2.81
28.76,1.11,8.99,2.80
28.76,1.01,9.00,2.90
28.76,0.92,8.90,2.96
28.76,0.86,8.87,2.98
28.77,0.77,8.80,2.91
28.77,0.83,8.59,2.88
28.77,0.86,8.49,2.89
28.77,0.92,8.36,2.85
28.78,0.99,8.23,2.89
28.78,1.08,8.06,2.85
28.78,1.17,7.96,2.81
28.78,1.26,7.67,2.84
28.79,1.32,7.51,2.91
28.79,1.44,7.34,2.83
28.79,1.41,7.19,2.73
28.79,1.33,7.08,2.58
28.80,1.24,6.99,2.43
28.80,1.14,6.87,2.20
28.80,1.13,6.66,2.05
28.80,1.12,6.53,1.91
28.81,1.07,6.47,1.80
28.81,1.03,6.40,1.74
28.81,1.03,6.27,1.55
28.81,0.99,6.13,1.38
28.82,1.03,6.04,1.18
28.82,1.00,5.99,0.99
28.82,1.03,5.90,0.84
28.82,1.09,5.79,0.79
28.83,1.23,5.70,0.97
28.83,1.10,5.65,1.37
28.83,1.01,5.60,1.18
28.83,1.26,5.56,0.84
28.84,1.44,5.61,0.58
28.84,1.48,5.65,0.53
28.84,1.38,5.72,0.66
28.84,1.22,5.84,0.84
28.85,1.11,6.07,1.02
28.85,0.88,6.12,0.87
28.85,0.86,6.05,0.40
28.85,1.14,6.08,-0.01
28.86,1.31,5.98,-0.14
28.86,1.42,6.03,0.03
28.86,1.69,6.11,0.41
28.86,1.99,6.22,0.83
28.87,2.14,6.41,1.52
28.87,2.07,6.65,2.30
28.87,2.00,6.91,2.93
28.87,1.85,7.14,3.76
28.88,1.59,7.46,4.61
28.88,1.33,7.67,5.31
28.88,1.08,7.89,5.89
28.88,0.87,8.07,6.29
28.89,0.63,8.21,6.54
28.89,0.45,8.39,6.67
28.89,0.25,8.55,6.59
28.89,0.12,8.55,6.28
28.90,0.10,8.56,5.86
28.90,0.19,8.52,5.43
28.90,0.35,8.41,4.88
28.90,0.43,8.33,4.35
28.91,0.35,8.34,4.12
28.91,0.35,8.39,3.81
28.91,0.40,8.31,3.61
28.91,0.33,8.35,3.48
28.92,0.35,8.31,3.41
28.92,0.31,8.25,3.23
28.92,0.41,8.31,3.07
28.92,0.51,8.37,2.80
28.93,0.63,8.30,2.67
28.93,0.74,8.39,2.75
28.93,0.81,8.45,2.73
28.93,0.87,8.47,2.62
28.94,0.80,8.50,2.61
28.94,0.77,8.60,2.61
28.94,0.73,8.60,2.70
28.94,0.63,8.51,2.59
28.95,0.47,8.49,2.46
28.95,0.24,8.51,2.42
28.95,0.03,8.51,2.45
28.95,-0.15,8.49,2.44
28.96,-0.38,8.40,2.37
28.96,-0.62,8.33,2.37
28.96,-0.73,8.23,2.53
28.96,-0.87,8.07,2.74
28.97,-1.00,7.94,2.94
28.97,-1.09,7.80,3.31
28.97,-1.34,7.68,3.66
28.97,-1.55,7.57,3.83
28.98,-1.71,7.39,4.26
28.98,-1.94,7.14,4.50
28.98,-2.05,6.89,4.47
28.98,-2.22,6.62,4.62
28.99,-2.37,6.44,4.85
28.99,-2.38,6.28,4.96
28.99,-2.37,6.21,5.02
28.99,-2.39,6.11,5.10
29.00,-2.32,6.11,5.08
29.00,-2.20,6.15,5.13
29.00,-1.97,6.17,5.18
29.00,-1.67,6.29,5.27
29.01,-1.30,6.40,5.43
29.01,-0.79,6.59,5.53
29.01,-0.36,6.74,5.58
29.01,0.13,6.89,5.71
29.02,0.58,7.10,5.86
29.02,0.94,7.24,6.06
29.02,1.32,7.38,6.24
29.02,1.68,7.49,6.31
29.03,1.96,7.62,6.42
29.03,2.16,7.69,6.45
29.03,2.31,7.80,6.39
29.03,2.40,7.86,6.33
29.04,2.45,7.97,6.23
29.04,2.45,8.10,6.14
29.04,2.39,8.21,6.06
29.04,2.35,8.22,5.81
29.05,2.28,8.33,5.61
29.05,2.27,8.38,5.43
29.05,2.24,8.53,5.29
29.05,2.22,8.57,5.10
29.06,2.14,8.68,4.89
29.06,2.11,8.70,4.82
29.06,2.04,8.70,4.64
29.06,1.96,8.72,4.52
29.07,1.91,8.82,4.41
29.07,1.83,8.78,4.38
29.07,1.72,8.78,4.32
29.07,1.59,8.78,4.19
29.08,1.57,8.74,4.14
29.08,1.46,8.72,4.02
29.08,1.42,8.63,3.94
29.08,1.27,8.65,3.95
29.09,1.14,8.65,3.96
29.09,1.10,8.51,3.93
29.09,1.02,8.46,3.94
29.10,1.01,8.46,3.96
29.10,0.96,8.41,3.94
29.10,0.91,8.29,3.92
29.10,0.86,8.19,3.95
29.10,0.81,8.25,3.93
29.11,0.73,8.17,3.92
29.11,0.72,8.22,3.90
29.11,0.61,8.16,3.85
29.11,0.54,8.09,3.83
29.12,0.48,8.08,3.78
29.12,0.39,8.11,3.75
29.12,0.38,8.08,3.75
29.12,0.29,7.97,3.83
29.13,0.24,7.95,3.90
29.13,0.29,7.85,3.96
29.13,0.33,7.71,4.06
29.13,0.30,7.65,4.13
29.14,0.33,7.56,4.21
29.14,0.43,7.45,4.29
29.14,0.50,7.34,4.31
29.14,0.56,7.23,4.43
29.15,0.59,7.13,4.43
29.15,0.60,7.13,4.43
29.15,0.59,7.14,4.49
29.15,0.62,7.19,4.54
29.16,0.66,7.26,4.60
29.16,0.68,7.35,4.63
29.16,0.69,7.39,4.64
29.16,0.70,7.50,4.68
29.17,0.69,7.62,4.75
29.17,0.69,7.74,4.72
29.17,0.62,7.93,4.78
29.17,0.57,8.14,4.83
29.18,0.63,8.32,4.84
29.18,0.62,8.49,4.87
29.18,0.56,8.74,4.89
29.18,0.58,8.93,4.89
29.19,0.55,9.13,4.89
29.19,0.50,9.25,4.83
29.19,0.47,9.37,4.83
29.19,0.37,9.46,4.81
29.20,0.30,9.45,4.72
29.20,0.23,9.44,4.70
29.20,0.03,9.46,4.71
29.20,-0.11,9.44,4.67
29.21,-0.24,9.41,4.62
29.21,-0.42,9.38,4.63
29.21,-0.57,9.30,4.55
29.21,-0.82,9.22,4.49
29.22,-0.94,9.15,4.45
29.22,-1.12,9.11,4.31
29.22,-1.29,9.02,4.17
29.22,-1.43,8.90,4.05
29.23,-1.56,8.87,3.98
29.23,-1.58,8.81,3.87
29.23,-1.59,8.78,3.82
29.23,-1.61,8.71,3.77
29.24,-1.63,8.60,3.80
29.24,-1.56,8.62,3.78
29.24,-1.50,8.55,3.80
29.24,-1.39,8.54,3.93
29.25,-1.28,8.53,3.92
29.25,-1.17,8.58,3.97
29.25,-1.16,8.62,4.12
29.25,-1.12,8.68,4.24
29.26,-1.15,8.70,4.44
29.26,-1.14,8.75,4.66
29.26,-1.16,8.88,4.80
29.26,-1.19,9.00,5.00
29.27,-1.18,9.10,5.09
29.27,-1.27,9.27,5.18
29.27,-1.33,9.41,5.23
29.27,-1.46,9.50,5.24
29.28,-1.57,9.66,5.22
29.28,-1.70,9.73,5.06
29.28,-1.76,9.82,4.95
29.28,-1.81,9.93,4.72
29.29,-1.83,9.99,4.47
29.29,-1.83,10.00,4.22
29.29,-1.85,10.12,3.98
29.29,-1.74,10.19,3.81
29.30,-1.69,10.19,3.55
29.30,-1.70,10.22,3.39
29.30,-1.64,10.24,3.31
29.30,-1.60,10.24,3.21
29.31,-1.51,10.26,3.21
29.31,-1.37,10.29,3.31
29.31,-1.26,10.29,3.41
29.31,-1.18,10.27,3.50
29.32,-1.15,10.26,3.69
29.32,-1.19,10.27,3.93
29.32,-1.22,10.32,4.27
29.32,-1.24,10.38,4.69
29.33,-1.23,10.45,4.99
29.33,-1.21,10.53,5.24
29.33,-1.23,10.65,5.48
29.33,-1.24,10.80,5.68
29.34,-1.22,10.96,5.78
29.34,-1.10,11.15,5.86
29.34,-1.14,11.30,5.90
29.34,-1.16,11.44,5.99
29.35,-1.12,11.66,5.98
29.35,-1.16,11.84,6.00
29.35,-1.24,11.97,6.09
29.35,-1.29,12.08,6.19
29.36,-1.29,12.25,6.36
29.36,-1.39,12.42,6.43
29.36,-1.52,12.54,6.51
29.36,-1.57,12.70,6.66
29.37,-1.52,12.87,6.75
29.37,-1.44,12.98,6.79
29.37,-1.45,13.17,6.83
29.37,-1.31,13.32,6.83
29.38,-1.15,13.50,6.85
29.38,-0.95,13.62,6.75
29.38,-0.63,13.74,6.60
29.38,-0.29,13.82,6.47
29.39,-0.03,13.87,6.21
29.39,0.23,13.91,6.08
29.39,0.52,13.88,5.92
29.39,0.74,13.84,5.82
29.40,0.95,13.79,5.72
29.40,1.09,13.72,5.67
29.40,1.30,13.61,5.53
29.40,1.46,13.44,5.41
29.41,1.62,13.23,5.28
29.41,1.64,13.00,5.17
29.41,1.68,12.75,5.07
29.41,1.71,12.48,4.90
29.42,1.61,12.17,4.72
29.42,1.55,11.80,4.48
29.42,1.39,11.42,4.21
29.42,1.29,10.96,4.05
29.43,1.20,10.54,3.90
29.43,1.13,10.05,3.69
29.43,0.98,9.59,3.50
29.43,0.80,9.20,3.38
29.44,0.68,8.80,3.13
29.44,0.49,8.40,2.97
29.44,0.31,8.10,2.84
29.44,0.03,7.82,2.79
29.45,-0.25,7.57,2.74
29.45,-0.50,7.38,2.70
29.45,-0.82,7.16,2.65
29.45,-1.14,6.94,2.65
29.46,-1.34,6.77,2.71
29.46,-1.57,6.68,2.83
29.46,-1.87,6.57,2.96
29.46,-2.18,6.55,3.11
29.47,-2.55,6.49,3.29
29.47,-2.97,6.40,3.47
29.47,-3.19,6.43,3.75
29.47,-3.39,6.49,3.92
29.48,-3.58,6.54,4.13
29.48,-3.72,6.57,4.33
29.48,-3.84,6.70,4.57
29.48,-3.96,6.76,4.69
29.49,-3.91,6.86,4.94
29.49,-3.91,7.02,5.21
29.49,-3.88,7.25,5.38
29.49,-3.85,7.44,5.53
29.50,-3.80,7.67,5.68
29.50,-3.72,7.95,5.82
29.50,-3.79,8.37,5.91
29.50,-3.74,8.81,6.01
29.51,-3.62,9.10,6.08
29.51,-3.51,9.39,6.26
29.51,-3.11,9.83,6.41
29.51,-2.43,10.38,6.44
29.52,-1.81,11.01,6.40
29.52,-1.45,11.46,6.43
29.52,-0.94,11.87,6.42
29.52,-0.32,12.09,6.35
29.53,0.43,12.17,6.10
29.53,1.14,12.23,5.91
29.53,2.03,12.36,5.63
29.53,2.77,12.38,5.36
29.54,3.58,12.42,4.98
29.54,4.38,12.63,4.66
29.54,5.35,12.82,4.32
29.54,6.19,12.99,3.66
29.55,7.02,13.06,2.75
29.55,7.81,13.20,1.67
29.55,8.47,13.27,0.50
29.55,8.95,13.24,-0.87
29.56,9.35,13.05,-2.27
29.56,9.74,12.88,-3.69
29.56,9.83,12.57,-4.69
29.56,9.67,12.15,-5.43
29.57,9.14,11.73,-5.70
29.57,8.44,11.31,-5.74
29.57,7.63,10.92,-5.56
29.57,6.58,10.45,-5.41
29.58,5.64,9.91,-5.29
29.58,4.87,9.41,-5.11
29.58,4.11,8.88,-4.65
29.58,3.52,8.33,-4.23
29.59,2.99,7.82,-3.88
29.59,2.73,7.36,-3.37
29.59,2.86,6.91,-2.92
29.59,2.81,6.41,-2.70
29.60,1.81,6.34,-1.83
29.60,1.74,6.82,-0.22
29.60,2.42,6.92,0.48
29.60,3.03,6.68,0.94
29.61,3.46,6.45,1.52
29.61,4.03,6.27,2.14
29.61,4.38,5.94,2.85
29.61,4.33,5.21,3.06
29.62,4.11,4.44,3.09
29.62,3.63,4.18,3.34
29.62,3.09,4.37,4.08
29.62,2.58,4.58,4.97
29.63,2.26,4.42,5.54
29.63,2.08,4.07,5.59
29.63,1.90,3.96,5.69
29.63,1.96,4.00,6.30
29.64,2.19,4.00,6.86
29.64,2.25,3.94,7.22
29.64,2.18,3.95,7.25
29.64,2.07,4.06,7.16
29.65,1.82,4.32,7.11
29.65,1.47,4.67,6.95
29.65,1.02,4.93,6.56
29.65,0.55,4.84,5.97
29.66,0.27,4.86,5.25
29.66,0.22,4.73,4.51
29.66,0.38,4.62,4.00
29.66,0.61,4.64,3.43
29.67,0.92,4.65,2.77
29.67,1.24,4.53,2.05
29.67,1.58,4.42,1.45
29.67,1.95,4.39,0.99
29.68,2.21,4.32,0.63
29.68,2.50,4.26,0.51
29.68,2.72,4.20,0.61
29.68,2.88,4.25,0.71
29.69,3.03,4.27,0.81
29.69,3.15,4.36,1.02
29.69,3.24,4.46,1.19
29.69,3.30,4.55,1.50
29.70,3.32,4.74,1.74
29.70,3.39,4.85,1.95
29.70,3.48,4.99,2.07
29.70,3.54,5.06,2.13
29.71,3.57,5.12,2.17
29.71,3.63,5.16,2.15
29.71,3.65,5.27,2.18
29.71,3.64,5.31,2.19
29.72,3.68,5.29,2.12
29.72,3.79,5.28,2.17
29.72,3.89,5.30,2.24
29.72,4.08,5.28,2.34
29.73,4.20,5.29,2.39
29.73,4.33,5.35,2.58
29.73,4.41,5.31,2.67
29.73,4.50,5.21,2.87
29.74,4.65,5.16,3.13
29.74,4.70,5.21,3.30
29.74,4.78,5.18,3.43
29.74,4.78,5.08,3.63
29.75,4.76,5.07,3.73
29.75,4.72,5.09,3.81
29.75,4.71,5.13,3.92
29.75,4.62,5.08,4.07
29.76,4.54,5.04,4.23
29.76,4.40,5.04,4.35
29.76,4.30,5.06,4.45
29.76,4.18,5.06,4.58
29.77,4.05,5.07,4.70
29.77,3.91,5.12,4.85
29.77,3.85,5.16,4.92
29.77,3.82,5.19,5.00
29.78,3.84,5.20,5.10
29.78,3.83,5.16,5.14
29.78,3.85,5.11,5.13
29.78,3.81,5.09,5.09
29.79,3.82,5.10,5.05
29.79,3.86,5.07,5.03
29.79,3.91,5.02,5.05
29.79,3.94,5.00,4.95
29.80,4.00,4.98,4.89
29.80,4.04,4.91,4.83
29.80,4.08,4.92,4.78
29.80,4.11,4.88,4.71
29.81,4.12,4.89,4.67
29.81,4.13,4.79,4.70
29.81,4.07,4.74,4.77
29.81,4.08,4.74,4.88
29.82,4.08,4.74,4.91
29.82,4.14,4.74,5.03
29.82,4.18,4.63,5.27
29.82,4.17,4.56,5.42
29.83,4.16,4.57,5.63
29.83,4.15,4.55,5.87
29.83,4.19,4.51,6.08
29.83,4.15,4.39,6.20
29.84,4.08,4.38,6.40
29.84,4.11,4.30,6.54
29.84,4.20,4.30,6.67
29.84,4.26,4.15,6.81
29.85,4.28,4.10,6.88
29.85,4.35,4.07,6.97
29.85,4.38,4.02,7.00
29.85,4.47,3.96,7.04
29.86,4.51,3.97,6.98
29.86,4.51,4.09,6.91
29.86,4.55,4.15,6.76
29.86,4.69,4.14,6.52
29.87,4.77,4.16,6.31
29.87,4.77,4.20,6.02
29.87,4.78,4.25,5.59
29.87,4.94,4.29,5.22
29.88,5.20,4.34,4.91
29.88,5.59,4.35,4.62
29.88,5.89,4.34,4.38
29.88,6.20,4.33,4.20
29.89,6.40,4.32,3.96
29.89,6.48,4.38,3.85
29.89,6.49,4.49,3.83
29.89,6.45,4.56,3.77
29.90,6.41,4.65,3.78
29.90,6.35,4.79,3.94
29.90,6.32,4.91,4.13
29.90,6.24,5.00,4.36
29.91,6.25,5.13,4.56
29.91,6.25,5.20,4.79
29.91,6.27,5.25,5.09
29.91,6.30,5.31,5.33
29.92,6.35,5.41,5.51
29.92,6.40,5.50,5.76
29.92,6.42,5.56,6.03
29.92,6.47,5.61,6.25
29.93,6.53,5.68,6.46
29.93,6.51,5.78,6.67
29.93,6.53,5.88,6.91
29.93,6.61,5.96,7.08
29.94,6.63,6.09,7.32
29.94,6.71,6.23,7.50
29.94,6.77,6.35,7.74
29.94,6.84,6.53,7.82
29.95,6.87,6.73,7.85
29.95,6.94,6.88,8.10
29.95,7.03,6.99,8.30
29.95,7.09,7.08,8.42
29.96,7.14,7.11,8.46
29.96,7.08,7.18,8.48
29.96,6.96,7.23,8.38
29.96,6.93,7.20,8.27
29.97,6.80,7.30,8.20
29.97,6.67,7.37,8.15
29.97,6.58,7.53,8.00
29.97,6.48,7.63,7.76
29.98,6.39,7.79,7.58
29.98,6.26,7.98,7.34
29.98,6.11,8.16,7.07
29.98,6.02,8.35,6.80
29.99,5.80,8.56,6.46
29.99,5.60,8.81,6.17
29.99,5.43,9.16,5.84
29.99,5.27,9.59,5.55
30.00,5.25,10.07,5.24
30.00,5.29,10.59,4.95
30.00,5.41,11.11,4.70
30.00,5.55,11.70,4.49
30.01,5.79,12.28,4.37
30.01,6.17,12.95,4.36
30.01,6.58,13.52,4.38
30.01,6.83,13.85,4.48
30.02,6.94,14.01,4.64
30.02,6.85,14.01,4.98
30.02,6.53,14.02,5.36
30.02,6.14,13.97,5.85
30.03,5.81,13.91,6.41
30.03,5.54,13.81,6.94
30.03,5.35,13.64,7.49
30.03,5.29,13.38,7.91
30.04,5.20,13.11,8.37
30.04,5.28,12.84,8.92
30.04,5.46,12.51,9.29
30.04,5.64,12.20,9.58
30.05,5.69,11.93,9.70
30.05,5.79,11.64,9.74
30.05,5.71,11.41,9.68
30.05,5.62,11.18,9.33
30.06,5.54,10.99,8.89
30.06,5.39,10.77,8.44
30.06,5.13,10.60,7.92
30.06,4.96,10.40,7.31
30.07,4.71,10.22,6.61
30.07,4.43,10.05,5.79
30.07,4.14,10.01,5.10
30.07,3.89,10.01,4.55
30.08,3.66,9.98,4.13
30.08,3.50,10.08,3.78
30.08,3.34,10.16,3.47
30.08,3.22,10.27,3.35
30.09,3.03,10.47,3.28
30.09,2.91,10.63,3.17
30.09,2.88,10.81,3.09
30.09,2.84,10.93,3.03
30.10,2.81,11.08,2.94
30.10,2.77,11.19,2.89
30.10,2.73,11.30,2.82
30.10,2.70,11.38,2.74
30.11,2.61,11.39,2.72
30.11,2.48,11.46,2.68
30.11,2.37,11.46,2.65
30.11,2.33,11.46,2.64
30.12,2.27,11.40,2.66
30.12,2.15,11.33,2.65
30.12,2.07,11.31,2.73
30.12,2.02,11.25,2.86
30.13,1.97,11.23,3.06
30.13,1.93,11.22,3.32
30.13,1.97,11.26,3.50
30.13,2.10,11.27,3.59
30.14,2.33,11.20,3.69
30.14,2.50,11.14,3.80
30.14,2.64,11.08,3.93
30.14,2.76,10.98,4.04
30.15,2.86,10.82,4.09
30.15,2.87,10.69,4.12
30.15,2.99,10.49,4.16
30.15,3.04,10.31,4.10
30.16,3.12,10.10,4.06
30.16,3.16,9.81,4.02
30.16,3.16,9.53,4.02
30.16,3.05,9.28,3.90
30.17,2.82,9.06,3.74
30.17,2.64,8.81,3.67
30.17,2.57,8.58,3.59
30.17,2.41,8.39,3.50
30.18,2.32,8.17,3.38
30.18,2.22,7.99,3.32
30.18,2.18,7.90,3.21
30.18,2.07,7.72,3.06
30.19,1.99,7.64,2.94
30.19,1.96,7.59,2.79
30.19,1.82,7.59,2.65
30.19,1.72,7.56,2.54
30.20,1.54,7.55,2.55
30.20,1.46,7.59,2.54
30.20,1.46,7.60,2.46
30.20,1.35,7.61,2.37
30.21,1.28,7.65,2.27
30.21,1.14,7.68,2.37
30.21,0.96,7.74,2.40
30.21,0.84,7.80,2.44
30.22,0.70,7.80,2.44
30.22,0.61,7.81,2.47
30.22,0.54,7.89,2.55
30.22,0.52,7.95,2.56
30.23,0.47,7.94,2.64
30.23,0.49,7.94,2.67
30.23,0.50,7.96,2.78
30.23,0.51,7.99,2.94
30.24,0.59,7.99,3.01
30.24,0.69,7.93,2.95
30.24,0.68,7.94,2.96
30.24,0.70,7.91,2.92
30.25,0.68,7.82,2.89
30.25,0.70,7.76,2.85
30.25,0.69,7.72,2.72
30.25,0.68,7.69,2.64
30.26,0.70,7.64,2.50
30.26,0.59,7.68,2.57
30.26,0.55,7.62,2.64
30.26,0.79,7.39,2.58
30.27,1.07,7.20,2.05
30.27,1.26,7.14,1.36
30.27,1.35,7.09,0.61
30.27,1.24,7.08,-0.03
30.28,1.27,6.95,-0.57
30.28,1.36,6.71,-0.87
30.28,1.28,6.52,-0.76
30.28,1.26,6.35,-0.42
30.29,1.45,6.11,-0.10
30.29,1.79,5.84,0.19
30.29,2.10,5.59,0.80
30.29,2.47,5.30,2.08
30.30,2.58,5.17,3.42
30.30,2.51,5.31,4.30
30.30,2.25,5.55,5.10
30.30,1.95,5.79,5.79
30.31,1.62,5.98,6.36
30.31,1.44,6.24,6.61
30.31,1.25,6.35,6.58
30.31,1.18,6.46,6.46
30.32,1.05,6.40,6.24
30.32,0.97,6.32,5.85
30.32,0.91,6.17,5.65
30.32,0.97,6.07,5.21
30.33,0.98,5.84,4.68
30.33,0.82,5.64,4.18
30.33,0.65,5.36,3.70
30.33,0.50,4.99,3.21
30.34,0.47,4.70,2.75
30.34,0.49,4.39,2.41
30.34,0.56,4.20,2.25
30.34,0.57,4.06,2.10
30.35,0.60,3.99,2.04
30.35,0.71,3.92,1.95
30.35,0.73,3.92,1.87
30.35,0.83,3.97,1.81
30.36,0.87,4.09,1.90
30.36,0.93,4.26,1.95
30.36,0.99,4.45,1.96
30.36,1.20,4.74,2.10
30.37,1.64,5.01,2.51
30.37,2.11,5.27,2.79
30.37,2.50,5.51,3.04
30.37,2.73,5.74,3.18
30.38,2.68,5.97,3.32
30.38,2.43,6.31,3.51
30.38,2.13,6.66,3.71
30.38,1.77,7.01,3.75
30.39,1.48,7.35,3.84
30.39,1.31,7.56,3.52
30.39,1.10,7.79,3.29
30.39,0.95,8.05,3.17
30.40,0.80,8.12,2.94
30.40,0.53,8.19,2.88
30.40,0.34,8.28,2.86
30.40,0.27,8.37,2.89
30.41,0.08,8.45,2.79
30.41,-0.23,8.36,2.84
30.41,-0.50,8.33,2.85
30.41,-0.77,8.35,2.80
30.42,-0.94,8.26,2.78
30.42,-1.11,8.20,3.02
30.42,-1.40,8.13,3.00
30.42,-1.75,8.14,2.99
30.43,-1.86,8.14,3.00
30.43,-1.89,8.05,3.06
30.43,-1.90,7.97,3.17
30.43,-1.88,7.84,3.19
30.44,-1.86,7.75,3.29
30.44,-1.88,7.71,3.60
30.44,-1.75,7.67,3.93
30.44,-1.06,7.99,4.02
30.45,-0.99,7.67,3.80
30.45,-1.17,7.43,4.09
30.45,-1.11,7.29,4.48
30.45,-1.05,7.16,5.02
30.46,-0.87,7.09,5.28
30.46,-0.60,6.86,5.60
30.46,-0.36,6.77,5.76
30.46,-0.11,6.80,5.86
30.47,0.30,6.75,5.95
30.47,0.60,6.80,6.01
30.47,0.82,6.88,5.98
30.47,1.00,7.04,6.05
30.48,1.16,7.06,5.98
30.48,1.29,7.06,5.87
30.48,1.48,7.08,5.73
30.48,1.51,7.19,5.55
30.49,1.49,7.22,5.45
30.49,1.59,7.25,5.31
30.49,1.59,7.35,5.28
30.49,1.61,7.33,5.31
30.50,1.56,7.38,5.25
30.50,1.58,7.49,5.17
30.50,1.56,7.59,5.09
30.50,1.57,7.66,4.91
30.51,1.62,7.82,4.85
30.51,1.59,7.89,4.82
30.51,1.56,7.99,4.86
30.51,1.56,8.12,4.87
30.52,1.56,8.17,4.81
30.52,1.58,8.18,4.78
30.52,1.58,8.30,4.77
30.52,1.62,8.31,4.84
30.53,1.60,8.37,4.87
30.53,1.61,8.38,4.85
30.53,1.65,8.43,4.85
30.53,1.65,8.49,4.86
30.54,1.69,8.51,4.92
30.54,1.70,8.55,4.97
30.54,1.68,8.58,5.00
30.54,1.67,8.64,5.05
30.55,1.64,8.61,5.11
30.55,1.64,8.68,5.18
30.55,1.56,8.68,5.21
30.55,1.47,8.71,5.20
30.56,1.35,8.74,5.19
30.56,1.22,8.70,5.13
30.56,1.04,8.76,5.09
30.56,0.91,8.72,5.01
30.57,0.65,8.72,4.94
30.57,0.46,8.74,4.95
30.57,0.26,8.78,4.90
30.57,-0.03,8.76,4.92
30.58,-0.27,8.75,4.87
30.58,-0.46,8.71,4.87
30.58,-0.72,8.64,4.85
30.58,-0.82,8.61,4.74
30.59,-1.04,8.54,4.71
30.59,-1.25,8.43,4.60
30.59,-1.54,8.25,4.53
30.59,-1.78,8.13,4.51
30.60,-1.88,8.07,4.45
30.60,-1.94,7.98,4.44
30.60,-2.02,7.95,4.36
30.60,-2.10,7.95,4.28
30.61,-2.07,7.93,4.20
30.61,-2.05,7.90,4.03
30.61,-2.02,7.92,3.94
30.61,-1.99,7.83,3.89
30.62,-1.97,7.88,3.84
30.62,-1.96,7.99,3.85
30.62,-1.95,8.03,3.84
30.62,-1.82,8.04,3.82
30.63,-1.75,8.19,3.88
30.63,-1.63,8.41,3.90
30.63,-1.52,8.68,3.98
30.63,-1.47,8.91,4.10
30.64,-1.42,9.09,4.10
30.64,-1.40,9.27,4.14
30.64,-1.32,9.45,4.30
30.64,-1.31,9.64,4.50
30.65,-1.25,9.77,4.65
30.65,-1.16,9.85,4.83
30.65,-1.17,10.00,4.87
30.65,-1.20,10.07,4.91
30.66,-1.11,10.02,4.99
30.66,-0.97,10.01,5.07
30.66,-1.00,9.90,5.22
30.66,-0.99,9.92,5.37
30.67,-1.00,9.93,5.42
30.67,-1.03,9.93,5.49
30.67,-1.06,9.90,5.49
30.67,-1.01,9.93,5.44
30.68,-0.99,9.91,5.28
30.68,-1.00,9.92,5.11
30.68,-0.88,9.91,4.94
30.68,-0.78,9.91,4.75
30.69,-0.68,9.98,4.60
30.69,-0.68,9.99,4.47
30.69,-0.68,10.08,4.44
30.69,-0.68,10.07,4.36
30.70,-0.68,10.08,4.38
30.70,-0.74,10.09,4.50
30.70,-0.79,10.06,4.71
30.70,-0.90,10.04,4.92
30.71,-1.00,10.03,5.15
30.71,-1.15,10.07,5.28
30.71,-1.31,10.12,5.47
30.71,-1.46,10.11,5.64
30.72,-1.66,10.16,5.66
30.72,-1.82,10.28,5.72
30.72,-1.97,10.45,5.75
30.72,-2.10,10.65,5.73
30.73,-2.16,10.92,5.68
30.73,-2.11,11.21,5.50
30.73,-2.01,11.52,5.37
30.73,-1.91,11.88,5.15
30.74,-1.82,12.15,4.84
30.74,-1.74,12.48,4.59
30.74,-1.62,12.75,4.32
30.74,-1.45,12.97,4.12
30.75,-1.34,13.31,3.99
30.75,-1.18,13.62,3.83
30.75,-0.97,13.86,3.79
30.75,-0.74,14.06,3.68
30.76,-0.51,14.17,3.72
30.76,-0.29,14.21,3.81
30.76,-0.06,14.22,3.84
30.76,0.14,14.15,3.97
30.77,0.33,14.08,4.13
30.77,0.53,13.94,4.35
30.77,0.67,13.75,4.56
30.77,0.71,13.60,4.72
30.78,0.81,13.42,4.89
30.78,0.90,13.23,5.02
30.78,0.93,13.05,5.09
30.78,1.05,12.84,5.15
30.79,1.10,12.60,5.21
30.79,1.15,12.36,5.22
30.79,1.20,12.13,5.21
30.79,1.26,11.92,5.13
30.80,1.33,11.66,5.06
30.80,1.34,11.32,4.99
30.80,1.37,11.04,4.86
30.80,1.38,10.81,4.73
30.81,1.40,10.52,4.64
30.81,1.43,10.24,4.43
30.81,1.39,10.00,4.22
30.81,1.34,9.68,4.04
30.82,1.29,9.32,3.89
30.82,1.24,9.03,3.70
30.82,1.21,8.73,3.59
30.82,1.14,8.44,3.35
30.83,1.05,8.19,3.20
30.83,0.96,7.99,3.09
30.83,0.87,7.80,2.91
30.83,0.83,7.63,2.81
30.84,0.72,7.46,2.71
30.84,0.55,7.32,2.60
30.84,0.43,7.11,2.61
30.84,0.30,6.97,2.67
30.85,0.12,6.89,2.64
30.85,0.01,6.85,2.72
30.85,-0.03,6.79,2.81
30.85,-0.07,6.72,2.85
30.86,-0.26,6.63,2.82
30.86,-0.69,6.59,2.90
30.86,-1.15,6.73,3.14
30.86,-1.58,6.86,3.39
30.87,-1.86,6.99,3.57
30.87,-2.06,7.12,3.67
30.87,-2.17,7.27,3.76
30.87,-2.25,7.41,3.96
30.88,-2.30,7.53,4.04
30.88,-2.29,7.74,4.05
30.88,-2.21,7.99,4.10
30.88,-2.17,8.21,4.15
30.89,-2.04,8.46,4.13
30.89,-1.94,8.69,4.21
30.89,-1.85,8.85,4.19
30.89,-1.61,9.44,4.15
30.90,-1.49,10.01,4.11
30.90,-1.22,10.73,4.17
30.90,-0.85,11.46,4.24
30.90,-0.37,12.02,4.30
30.91,0.15,12.53,4.37
30.91,0.73,12.90,4.47
30.91,1.26,13.06,4.67
30.91,1.88,13.11,4.77
30.92,2.52,13.16,5.01
30.92,3.21,13.09,5.27
30.92,3.98,12.92,5.31
30.92,4.74,12.76,5.07
30.93,5.45,12.78,4.66
30.93,5.97,12.85,4.14
30.93,6.57,12.95,3.52
30.93,7.19,12.91,2.95
30.94,7.68,12.91,2.32
30.94,8.11,12.79,1.54
30.94,8.43,12.57,0.41
30.94,8.40,12.22,-0.33
30.95,8.43,12.16,-1.02
30.95,8.54,12.00,-1.75
30.95,8.55,11.66,-2.42
30.95,8.44,11.25,-2.92
30.96,8.00,10.80,-3.04
30.96,7.32,10.39,-2.91
30.96,6.64,9.94,-2.71
30.96,5.92,9.60,-2.52
30.97,5.34,9.32,-2.27
30.97,4.79,8.97,-1.97
30.97,4.36,8.68,-1.75
30.97,4.11,8.42,-1.55
30.98,3.82,8.18,-1.28
30.98,3.68,7.86,-1.06
30.98,3.69,7.49,-0.84
30.98,3.46,7.10,-0.38
30.99,3.22,6.91,0.18
30.99,3.23,6.63,0.18
30.99,2.92,6.52,0.30
30.99,2.79,6.31,0.63
31.00,2.83,6.14,0.96
31.00,3.06,5.92,1.37
31.00,3.27,5.58,1.70
31.00,3.19,5.20,1.88
31.01,2.72,4.94,2.14
31.01,2.28,4.91,2.41
31.01,2.17,4.83,2.69
31.01,2.15,4.72,3.05
31.02,2.24,4.64,3.42
31.02,2.25,4.65,3.62
31.02,2.17,4.77,3.68
31.02,2.30,4.88,3.77
31.03,2.60,5.00,3.93
31.03,2.92,5.16,4.01
31.03,2.91,5.14,4.15
31.03,2.63,5.03,4.24
31.04,2.24,5.02,4.32
31.04,1.83,5.07,4.37
31.04,1.43,5.09,4.52
31.04,1.11,5.14,4.57
31.05,1.02,5.28,4.56
31.05,1.04,5.39,4.57
31.05,1.13,5.45,4.59
31.05,1.26,5.47,4.63
31.06,1.38,5.54,4.42
31.06,1.56,5.58,4.15
31.06,1.76,5.71,3.94
31.06,1.95,5.79,3.78
31.07,2.12,5.86,3.51
31.07,2.31,5.94,3.26
31.07,2.46,5.97,3.02
31.07,2.65,6.05,2.77
31.08,2.70,6.13,2.53
31.08,2.65,6.18,2.32
31.08,2.62,6.18,2.08
31.09,2.44,6.25,1.90
31.09,2.28,6.24,1.75
31.09,2.15,6.27,1.64
31.09,2.13,6.32,1.47
31.10,2.14,6.34,1.33
31.10,2.26,6.37,1.22
31.10,2.40,6.41,1.12
31.10,2.56,6.46,1.03
31.10,2.77,6.45,0.99
31.11,3.02,6.49,1.10
31.11,3.19,6.53,1.17
31.11,3.41,6.47,1.35
31.11,3.69,6.32,1.44
31.12,3.92,6.14,1.54
31.12,4.10,6.05,1.74
31.12,4.32,5.84,1.92
31.12,4.44,5.61,2.06
31.13,4.57,5.38,2.27
31.13,4.61,5.25,2.57
31.13,4.59,5.10,2.86
31.13,4.55,4.92,3.03
31.14,4.47,4.79,3.37
31.14,4.41,4.67,3.58
31.14,4.33,4.51,3.82
31.14,4.31,4.42,4.00
31.15,4.22,4.29,4.17
31.15,4.13,4.20,4.44
31.15,4.10,4.17,4.60
31.15,4.07,4.05,4.74
31.16,4.00,4.02,4.95
31.16,4.04,4.00,5.05
31.16,4.05,3.91,5.14
31.16,4.02,3.88,5.21
31.17,4.04,3.85,5.30
31.17,4.04,3.95,5.40
31.17,4.01,3.92,5.43
31.17,4.02,3.98,5.46
31.18,4.07,4.08,5.49
31.18,4.06,4.20,5.52
31.18,4.14,4.32,5.40
31.18,4.31,4.37,5.35
31.19,4.46,4.46,5.34
31.19,4.55,4.58,5.36
31.19,4.57,4.72,5.24
31.19,4.63,4.79,5.27
31.20,4.69,4.81,5.18
31.20,4.62,4.81,5.09
31.20,4.53,4.79,4.94
31.20,4.47,4.86,4.85
31.21,4.37,4.84,4.73
31.21,4.27,4.82,4.71
31.21,4.25,4.71,4.71
31.21,4.20,4.68,4.62
31.22,4.05,4.64,4.58
31.22,4.01,4.72,4.55
31.22,3.96,4.59,4.62
31.22,3.92,4.52,4.68
31.23,3.94,4.47,4.81
31.23,3.88,4.38,4.96
31.23,3.78,4.35,5.10
31.23,3.77,4.29,5.32
31.24,3.81,4.19,5.55
31.24,3.88,4.04,5.82
31.24,3.82,4.04,5.98
31.24,3.82,3.96,6.17
31.25,3.84,3.94,6.24
31.25,3.89,3.87,6.30
31.25,3.96,3.90,6.46
31.25,3.99,3.90,6.59
31.26,3.96,3.93,6.54
31.26,3.96,4.03,6.49
31.26,3.98,4.13,6.53
31.26,4.17,4.24,6.46
31.27,4.28,4.39,6.24
31.27,4.33,4.62,6.03
31.27,4.56,4.74,5.85
31.28,4.83,4.88,5.70
31.28,5.12,4.97,5.47
31.28,5.40,4.98,5.21
31.28,5.63,5.00,5.14
31.29,5.86,4.97,5.03
31.29,6.06,4.95,4.81
31.29,6.19,4.98,4.71
31.29,6.32,5.02,4.59
31.30,6.41,5.07,4.56
31.30,6.50,5.08,4.47
31.30,6.59,5.08,4.41
31.30,6.69,5.11,4.38
31.31,6.79,5.15,4.38
31.31,6.92,5.19,4.43
31.31,7.05,5.29,4.49
31.31,7.12,5.34,4.60
31.32,7.15,5.39,4.73
31.32,7.15,5.51,4.98
31.32,7.14,5.54,5.21
31.32,7.12,5.63,5.47
31.33,7.10,5.77,5.71
31.33,7.00,5.87,5.97
31.33,6.93,5.97,6.24
31.33,6.81,6.06,6.43
31.34,6.75,6.15,6.58
31.34,6.62,6.27,6.70
31.34,6.53,6.42,6.85
31.34,6.39,6.52,6.95
31.35,6.30,6.66,7.02
31.35,6.18,6.75,7.09
31.35,6.15,6.80,7.10
31.35,6.19,6.89,7.13
31.36,6.19,6.94,7.12
31.36,6.24,6.97,7.07
31.36,6.28,6.95,7.08
31.36,6.31,6.97,7.00
31.37,6.32,6.98,6.93
31.37,6.37,7.00,6.83
31.37,6.39,7.01,6.73
31.37,6.44,6.96,6.63
31.38,6.49,6.90,6.54
31.38,6.52,6.86,6.42
31.38,6.56,6.77,6.28
31.38,6.62,6.73,6.11
31.39,6.62,6.62,5.97
31.39,6.70,6.53,5.79
31.39,6.76,6.43,5.52
31.39,6.71,6.31,5.21
31.40,6.67,6.16,4.86
31.40,6.62,6.12,4.41
31.40,6.60,6.18,3.98
31.40,6.55,6.43,3.68
31.41,6.59,6.65,3.56
31.41,6.63,6.90,3.57
31.41,6.80,7.18,3.69
31.41,7.00,7.66,3.95
31.42,7.17,8.15,4.38
31.42,7.36,8.60,4.85
31.42,7.63,9.14,5.42
31.42,7.92,9.54,5.99
31.43,8.07,9.90,6.57
31.43,8.13,10.18,7.13
31.43,8.09,10.32,7.61
31.43,7.99,10.29,7.85
31.44,7.90,10.18,8.05
31.44,7.80,10.02,8.16
31.44,7.70,9.78,8.11
31.44,7.72,9.55,8.00
31.45,7.82,9.30,7.81
31.45,7.91,8.91,7.68
31.45,8.00,8.56,7.53
31.45,8.04,8.31,7.35
31.46,8.03,7.97,7.12
31.46,7.96,7.74,6.88
31.46,7.91,7.55,6.61
31.46,7.85,7.35,6.34
31.47,7.66,7.19,6.10
31.47,7.49,7.14,5.88
31.47,7.27,7.07,5.66
31.47,7.02,6.99,5.47
31.48,6.79,6.95,5.26
31.48,6.57,6.89,5.06
31.48,6.36,6.91,4.92
31.48,6.17,6.91,4.81
31.49,6.05,6.96,4.74
31.49,6.00,7.03,4.62
31.49,5.88,7.15,4.64
31.49,5.79,7.28,4.76
31.50,5.75,7.40,4.81
31.50,5.69,7.53,4.95
31.50,5.67,7.69,5.15
31.50,5.64,7.83,5.36
31.51,5.61,8.01,5.52
31.51,5.65,8.14,5.69
31.51,5.68,8.25,5.88
31.51,5.76,8.42,6.09
31.52,5.82,8.53,6.22
31.52,5.86,8.68,6.32
31.52,5.94,8.84,6.46
31.52,6.08,8.91,6.63
31.53,6.12,9.10,6.72
31.53,6.17,9.26,6.91
31.53,6.19,9.41,7.05
31.53,6.16,9.56,7.19
31.54,6.13,9.74,7.26
31.54,6.17,9.84,7.32
31.54,6.08,10.02,7.38
31.54,6.00,10.16,7.38
31.55,5.95,10.28,7.35
31.55,5.91,10.37,7.25
31.55,5.85,10.49,7.22
31.55,5.84,10.58,7.16
31.56,5.81,10.70,7.07
31.56,5.79,10.86,6.91
31.56,5.68,10.98,6.83
31.56,5.61,11.10,6.72
31.57,5.64,11.12,6.50
31.57,5.60,11.16,6.38
31.57,5.56,11.10,6.17
31.57,5.57,10.99,5.95
31.58,5.57,10.89,5.75
31.58,5.60,10.73,5.54
31.58,5.65,10.58,5.30
31.58,5.62,10.40,5.05
31.59,5.56,10.27,4.82
31.59,5.51,10.11,4.58
31.59,5.41,9.99,4.34
31.59,5.32,9.83,4.22
31.60,5.19,9.68,4.15
31.60,5.10,9.48,3.99
31.60,4.94,9.33,3.91
31.60,4.77,9.14,3.88
31.61,4.62,8.94,3.92
31.61,4.57,8.76,3.96
31.61,4.39,8.62,3.84
31.61,4.21,8.52,3.77
31.62,4.08,8.45,3.72
31.62,3.92,8.36,3.65
31.62,3.73,8.27,3.53
31.62,3.45,8.16,3.48
31.63,3.24,8.12,3.35
31.63,3.07,8.06,3.27
31.63,2.92,7.92,3.27
31.63,2.75,7.86,3.27
31.64,2.58,7.70,3.27
31.64,2.46,7.67,3.25
31.64,2.31,7.59,3.23
31.64,2.18,7.51,3.20
31.65,2.05,7.43,3.21
31.65,1.87,7.42,3.30
31.65,1.79,7.29,3.31
31.65,1.70,7.24,3.28
31.66,1.57,7.24,3.29
31.66,1.43,7.22,3.34
31.66,1.32,7.10,3.36
31.66,1.22,7.11,3.36
31.67,1.20,7.11,3.33
31.67,1.15,7.11,3.36
31.67,1.11,7.15,3.29
31.67,1.05,7.12,3.27
31.68,1.08,7.17,3.20
31.68,1.09,7.18,3.17
31.68,1.07,7.14,3.14
31.68,1.08,7.17,3.19
31.69,1.09,7.26,3.18
31.69,1.11,7.26,3.17
31.69,1.17,7.34,3.16
31.69,1.25,7.44,3.10
31.70,1.31,7.50,3.04
31.70,1.34,7.59,3.01
31.70,1.35,7.66,2.92
31.70,1.43,7.76,2.86
31.71,1.49,7.88,2.80
31.71,1.56,7.97,2.80
31.71,1.59,8.06,2.73
31.71,1.67,8.15,2.58
31.72,1.76,8.19,2.58
31.72,1.77,8.29,2.40
31.72,1.84,8.39,2.35
31.72,1.88,8.37,2.23
31.73,1.91,8.36,2.05
31.73,1.98,8.37,2.08
31.73,1.99,8.40,2.03
31.73,2.00,8.44,1.93
31.74,2.01,8.43,1.87
31.74,2.01,8.50,1.94
31.74,2.03,8.53,1.98
31.74,1.96,8.55,2.01
31.75,1.92,8.54,2.15
31.75,1.93,8.54,2.27
31.75,1.89,8.52,2.39
31.75,1.80,8.36,2.51
31.76,1.75,8.32,2.69
31.76,1.67,8.23,2.78
31.76,1.62,8.14,2.81
31.76,1.56,8.10,2.90
31.77,1.55,7.99,2.91
31.77,1.55,7.84,2.93
31.77,1.55,7.74,3.02
31.77,1.56,7.61,3.02
31.78,1.53,7.45,3.04
31.78,1.57,7.34,2.98
31.78,1.49,7.19,2.95
31.78,1.41,7.10,2.99
31.79,1.34,6.93,2.97
31.79,1.23,6.83,2.96
31.79,1.20,6.70,2.94
31.79,1.13,6.60,2.88
31.80,1.12,6.51,2.85
31.80,1.07,6.41,2.88
31.80,1.01,6.28,2.87
31.80,0.98,6.17,2.92
31.81,0.96,6.08,2.99
31.81,0.94,6.00,3.00
31.81,0.93,5.89,3.07
31.81,0.90,5.80,3.16
31.82,0.97,5.64,3.39
31.82,1.16,5.46,3.42
31.82,1.32,5.31,3.19
31.82,1.47,5.31,2.92
31.83,1.54,5.37,2.77
31.83,1.65,5.43,2.61
31.83,1.80,5.47,2.41
31.83,1.95,5.46,2.30
31.84,2.06,5.48,2.30
31.84,2.19,5.60,2.21
31.84,2.31,5.60,2.12
31.84,2.43,5.73,2.13
31.85,2.54,5.83,2.32
31.85,2.49,5.92,2.59
31.85,2.49,5.97,2.68
31.85,2.56,6.03,2.76
31.86,2.62,6.14,3.06
31.86,2.71,6.30,3.42
31.86,2.79,6.41,3.76
31.86,2.83,6.57,4.02
31.87,2.90,6.70,4.25
31.87,2.93,6.96,4.50
31.87,2.97,7.21,4.72
31.87,2.95,7.48,4.86
31.88,2.87,7.81,4.94
31.88,2.77,8.10,5.03
31.88,2.65,8.37,5.07
31.88,2.53,8.63,5.12
31.89,2.42,8.86,5.15
31.89,2.31,8.98,5.02
31.89,2.21,9.06,4.83
31.89,2.13,9.18,4.74
31.90,2.00,9.22,4.59
31.90,1.83,9.23,4.38
31.90,1.69,9.25,4.13
31.90,1.57,9.24,3.84
31.91,1.44,9.23,3.50
31.91,1.28,9.12,3.12
31.91,1.08,9.04,2.69
31.91,1.01,8.94,2.31
31.92,0.91,8.83,1.99
31.92,0.77,8.74,1.73
31.92,0.67,8.61,1.44
31.92,0.60,8.52,1.25
31.93,0.58,8.35,1.06
31.93,0.57,8.25,0.93
31.93,0.52,8.18,0.86
31.93,0.50,8.11,0.89
31.94,0.50,8.04,1.04
31.94,0.51,7.98,1.15
31.94,0.52,7.86,1.29
31.94,0.55,7.83,1.57
31.95,0.57,7.74,1.88
31.95,0.63,7.75,2.10
31.95,0.73,7.73,2.36
31.95,0.72,7.76,2.69
31.96,0.70,7.86,3.00
31.96,0.70,7.89,3.27
31.96,0.63,7.95,3.54
31.96,0.58,8.05,3.89
31.97,0.56,8.17,4.13
31.97,0.53,8.22,4.32
31.97,0.53,8.26,4.56
31.97,0.46,8.35,4.71
31.98,0.47,8.35,4.90
31.98,0.45,8.40,5.00
31.98,0.38,8.41,5.15
31.98,0.30,8.40,5.19
31.99,0.23,8.49,5.20
31.99,0.16,8.55,5.33
31.99,0.07,8.59,5.33
31.99,0.06,8.60,5.21
32.00,0.05,8.61,5.17
32.00,0.09,8.53,5.01
32.00,0.12,8.45,4.82
32.00,0.20,8.47,4.65
32.01,0.29,8.46,4.43
32.01,0.38,8.33,4.28
32.01,0.59,8.24,4.13
32.01,0.74,8.18,3.98
32.02,0.92,8.10,3.94
32.02,1.00,8.01,3.86
32.02,1.11,7.94,3.79
32.02,1.22,7.90,3.68
32.03,1.32,7.89,3.59
32.03,1.37,7.81,3.61
32.03,1.46,7.79,3.66
32.03,1.54,7.77,3.64
32.04,1.57,7.73,3.69
32.04,1.65,7.74,3.77
32.04,1.59,7.76,3.82
32.04,1.68,7.75,3.81
32.05,1.59,7.84,3.85
32.05,1.52,7.90,3.88
32.05,1.49,7.92,3.84
32.05,1.47,7.99,3.90
32.06,1.43,8.07,3.91
32.06,1.39,8.11,3.94
32.06,1.28,8.23,3.99
32.06,1.30,8.28,4.00
32.07,1.30,8.35,4.05
32.07,1.19,8.36,4.09
32.07,1.19,8.49,4.05
32.07,1.13,8.56,4.05
32.08,1.03,8.61,3.99
32.08,0.99,8.73,3.91
32.08,1.00,8.83,3.85
32.08,0.94,8.91,3.71
32.09,0.90,8.95,3.57
32.09,0.87,9.05,3.53
32.09,0.90,9.09,3.42
32.09,0.91,9.16,3.34
32.10,0.96,9.27,3.16
32.10,0.98,9.27,3.00
32.10,1.01,9.30,2.97
32.10,1.03,9.34,2.92
32.11,1.07,9.35,2.86
32.11,1.14,9.38,2.74
32.11,1.17,9.36,2.61
32.11,1.27,9.37,2.54
32.12,1.32,9.39,2.47
32.12,1.36,9.31,2.32
32.12,1.49,9.31,2.17
32.12,1.44,9.34,2.10
32.13,1.53,9.27,2.03
32.13,1.49,9.27,1.97
32.13,1.48,9.23,1.91
32.13,1.51,9.22,1.86
32.14,1.49,9.18,1.78
32.14,1.49,9.18,1.71
32.14,1.57,9.24,1.65
32.14,1.58,9.26,1.60
32.15,1.63,9.29,1.49
32.15,1.74,9.35,1.41
32.15,1.83,9.44,1.30
32.15,1.84,9.54,1.18
32.16,1.91,9.62,1.17
32.16,1.97,9.70,1.15
32.16,2.07,9.80,1.06
32.16,2.11,9.89,1.02
32.17,2.17,9.92,1.05
32.17,2.22,10.00,1.01
32.17,2.29,10.12,0.97
32.17,2.27,10.19,0.96
32.18,2.23,10.20,0.99
32.18,2.19,10.25,1.05
32.18,2.08,10.26,1.03
32.18,1.96,10.29,1.02
32.19,1.81,10.25,1.02
32.19,1.61,10.19,1.11
32.19,1.50,10.08,1.11
32.19,1.35,9.99,1.13
32.20,1.26,9.91,1.19
32.20,1.17,9.80,1.24
32.20,1.10,9.70,1.37
32.20,0.96,9.62,1.48
32.21,0.90,9.51,1.62
32.21,0.85,9.43,1.77
32.21,0.78,9.34,1.88
32.21,0.73,9.27,2.01
32.22,0.69,9.18,2.17
32.22,0.60,9.16,2.36
32.22,0.55,9.10,2.52
32.22,0.53,9.04,2.64
32.23,0.49,8.96,2.79
32.23,0.47,8.97,2.90
32.23,0.51,8.92,2.98
32.23,0.50,8.84,3.09
32.24,0.51,8.83,3.12
32.24,0.52,8.81,3.17
32.24,0.51,8.79,3.24
32.24,0.50,8.74,3.25
32.25,0.51,8.70,3.19
32.25,0.50,8.70,3.14
32.25,0.48,8.67,3.06
32.25,0.46,8.67,2.92
32.26,0.43,8.69,2.84
32.26,0.45,8.67,2.66
32.26,0.46,8.65,2.46
32.26,0.49,8.65,2.32
32.27,0.51,8.69,2.13
32.27,0.59,8.73,1.92
32.27,0.62,8.76,1.69
32.27,0.67,8.82,1.52
32.28,0.68,8.96,1.28
32.28,0.70,9.04,1.11
32.28,0.74,9.14,1.04
32.28,0.74,9.25,0.97
32.29,0.73,9.39,0.89
32.29,0.74,9.48,0.86
32.29,0.76,9.63,0.88
32.29,0.81,9.69,0.99
32.30,0.81,9.74,1.03
32.30,0.86,9.82,1.07
32.30,0.89,9.89,1.20
32.30,0.92,9.94,1.34
32.31,0.96,9.92,1.45
32.31,0.99,9.91,1.52
32.31,1.04,9.91,1.66
32.31,1.05,9.87,1.73
32.32,1.07,9.81,1.87
32.32,1.07,9.79,1.96
32.32,1.10,9.72,2.07
32.32,1.15,9.61,2.15
32.33,1.18,9.54,2.27
32.33,1.19,9.48,2.35
32.33,1.28,9.45,2.39
32.33,1.29,9.34,2.42
32.34,1.29,9.31,2.48
32.34,1.34,9.24,2.56
32.34,1.30,9.17,2.61
32.34,1.30,9.12,2.61
32.35,1.26,9.05,2.63
32.35,1.17,9.02,2.59
32.35,1.12,8.94,2.63
32.35,1.11,8.92,2.59
32.36,1.13,8.94,2.57
32.36,1.09,8.90,2.55
32.36,1.02,8.89,2.53
32.36,1.05,8.85,2.54
32.37,1.07,8.86,2.53
32.37,1.13,8.96,2.53
32.37,1.15,8.96,2.49
32.37,1.19,8.97,2.44
32.38,1.23,9.04,2.43
32.38,1.26,9.05,2.38
32.38,1.32,9.07,2.29
32.38,1.38,9.10,2.21
32.39,1.39,9.16,2.18
32.39,1.36,9.21,2.08
32.39,1.39,9.20,2.01
32.39,1.42,9.20,1.95
32.40,1.45,9.19,1.85
32.40,1.44,9.20,1.80
32.40,1.44,9.21,1.71
32.40,1.45,9.16,1.68
32.41,1.44,9.12,1.62
32.41,1.47,9.12,1.62
32.41,1.54,9.11,1.64
32.41,1.61,9.05,1.62
32.42,1.64,9.01,1.62
32.42,1.73,8.98,1.68
32.42,1.73,8.97,1.67
32.42,1.81,8.93,1.69
32.43,1.88,8.91,1.73
32.43,1.80,8.88,1.72
32.43,1.85,8.83,1.80
32.43,1.92,8.84,1.78
32.44,1.89,8.80,1.80
32.44,1.89,8.79,1.86
32.44,1.89,8.75,1.89
32.44,1.88,8.69,1.91
32.45,1.85,8.64,2.01
32.45,1.87,8.59,2.05
32.45,1.92,8.54,2.12
32.45,1.90,8.53,2.20
32.46,1.91,8.50,2.27
32.46,1.97,8.48,2.31
32.46,1.99,8.44,2.40
32.46,2.00,8.45,2.42
32.47,2.03,8.44,2.37
32.47,2.02,8.39,2.32
32.47,2.04,8.44,2.28
32.47,2.06,8.47,2.26
32.48,2.10,8.50,2.21
32.48,2.10,8.58,2.19
32.48,2.11,8.62,2.10
32.48,2.06,8.67,2.07
32.49,2.06,8.73,2.05
32.49,2.03,8.82,2.03
32.49,2.04,8.88,2.00
32.49,2.01,8.90,1.99
32.50,2.00,8.90,1.99
32.50,1.98,8.91,2.02
32.50,1.99,8.99,2.00
32.50,2.01,9.00,2.05
32.51,2.05,9.03,2.00
32.51,2.11,9.05,2.07
32.51,2.12,9.04,2.10
32.51,2.19,9.09,2.08
32.52,2.24,9.08,2.10
32.52,2.27,9.12,2.10
32.52,2.35,9.13,2.19
32.52,2.39,9.11,2.12
32.53,2.40,9.20,2.14
32.53,2.48,9.24,2.15
32.53,2.45,9.26,2.13
32.53,2.47,9.20,2.13
32.54,2.49,9.25,2.17
32.54,2.50,9.29,2.10
32.54,2.47,9.30,2.11
32.54,2.50,9.33,2.17
32.55,2.47,9.35,2.17
32.55,2.51,9.38,2.19
32.55,2.46,9.38,2.21
32.55,2.46,9.39,2.19
32.56,2.48,9.35,2.20
32.56,2.44,9.35,2.21
32.56,2.43,9.27,2.34
32.56,2.40,9.26,2.39
32.57,2.36,9.21,2.38
32.57,2.31,9.11,2.39
32.57,2.31,9.10,2.44
32.57,2.26,9.06,2.48
32.58,2.29,9.02,2.50
32.58,2.24,9.02,2.54
32.58,2.24,8.96,2.57
32.58,2.23,8.92,2.59
32.59,2.19,8.91,2.62
32.59,2.17,8.91,2.55
32.59,2.13,8.87,2.57
32.59,2.11,8.83,2.54
32.60,2.08,8.78,2.50
32.60,2.01,8.75,2.52
32.60,2.00,8.73,2.52
32.60,1.94,8.71,2.47
32.61,1.85,8.69,2.50
32.61,1.83,8.71,2.48
32.61,1.78,8.63,2.51
32.61,1.77,8.65,2.51
32.62,1.78,8.64,2.57
32.62,1.75,8.57,2.60
32.62,1.71,8.61,2.64
32.62,1.66,8.61,2.70
32.63,1.71,8.58,2.74
32.63,1.71,8.59,2.78
32.63,1.69,8.63,2.81
32.63,1.70,8.62,2.87
32.64,1.73,8.62,2.89
32.64,1.79,8.62,2.91
32.64,1.83,8.67,2.92
32.64,1.89,8.69,2.94
32.65,1.95,8.71,2.94
32.65,1.95,8.63,2.90
32.65,1.97,8.66,2.88
32.65,2.00,8.66,2.84
32.66,2.08,8.66,2.80
32.66,2.11,8.68,2.78
32.66,2.17,8.69,2.70
32.66,2.18,8.71,2.66
32.67,2.24,8.78,2.64
32.67,2.30,8.77,2.63
32.67,2.31,8.86,2.56
32.67,2.33,8.87,2.61
32.68,2.37,8.90,2.60
32.68,2.34,8.93,2.55
32.68,2.40,9.00,2.51
32.68,2.43,9.05,2.47
32.69,2.39,9.06,2.45
32.69,2.36,9.08,2.43
32.69,2.31,9.13,2.45
32.69,2.27,9.13,2.33
32.70,2.28,9.16,2.35
32.70,2.24,9.15,2.35
32.70,2.20,9.12,2.37
32.70,2.12,9.10,2.40
32.71,2.11,9.12,2.37
32.71,2.08,9.09,2.45
32.71,2.01,9.04,2.49
32.71,2.01,9.03,2.51
32.72,2.01,9.01,2.58
32.72,1.99,9.00,2.61
32.72,1.93,8.99,2.61
32.72,1.91,8.93,2.64
32.73,1.91,8.87,2.64
32.73,1.83,8.81,2.64
32.73,1.80,8.80,2.62
32.73,1.82,8.73,2.67
32.74,1.76,8.70,2.60
32.74,1.71,8.68,2.57
32.74,1.65,8.63,2.60
32.74,1.63,8.63,2.50
32.75,1.61,8.62,2.50
32.75,1.62,8.62,2.51
32.75,1.57,8.58,2.52
32.75,1.64,8.59,2.53
32.76,1.65,8.66,2.55
32.76,1.66,8.69,2.57
32.76,1.71,8.75,2.51
32.76,1.69,8.80,2.53
32.77,1.70,8.85,2.48
32.77,1.74,8.94,2.50
32.77,1.75,9.02,2.54
32.77,1.85,9.07,2.52
32.78,1.88,9.20,2.52
32.78,1.89,9.27,2.53
32.78,1.90,9.31,2.53
32.78,1.90,9.41,2.60
32.79,1.95,9.45,2.62
32.79,2.00,9.48,2.59
32.79,1.97,9.50,2.54
32.79,1.98,9.55,2.55
32.80,2.01,9.54,2.57
32.80,1.97,9.48,2.62
32.80,1.94,9.41,2.61
32.80,1.92,9.33,2.62
32.81,1.91,9.30,2.61
32.81,1.89,9.29,2.59
32.81,1.95,9.23,2.63
32.81,1.97,9.20,2.58
32.82,2.01,9.15,2.60
32.82,2.07,9.11,2.67
32.82,2.08,9.11,2.71
32.82,2.09,9.10,2.70
32.83,2.23,9.04,2.66
32.83,2.32,8.99,2.67
32.83,2.35,8.94,2.63
32.83,2.40,8.95,2.57
32.84,2.43,8.93,2.55
32.84,2.43,8.91,2.54
32.84,2.48,8.88,2.50
32.84,2.53,8.86,2.41
32.85,2.53,8.80,2.43
32.85,2.55,8.81,2.46
32.85,2.64,8.79,2.43
32.85,2.63,8.79,2.44
32.86,2.67,8.77,2.41
32.86,2.72,8.77,2.40
32.86,2.73,8.83,2.36
32.86,2.73,8.85,2.40
32.87,2.69,8.86,2.36
32.87,2.70,8.89,2.36
32.87,2.69,8.93,2.42
32.87,2.65,8.93,2.36
32.88,2.52,8.97,2.32
32.88,2.47,8.99,2.39
32.88,2.40,9.01,2.43
32.88,2.34,9.04,2.43
32.89,2.34,9.03,2.44
32.89,2.36,9.02,2.49
32.89,2.33,9.04,2.58
32.89,2.33,9.07,2.55
32.90,2.36,9.05,2.60
32.90,2.39,9.04,2.56
32.90,2.38,9.06,2.57
32.90,2.41,9.05,2.50
32.91,2.43,9.06,2.55
32.91,2.49,9.04,2.54
32.91,2.44,9.06,2.54
32.91,2.43,9.05,2.54
32.92,2.46,9.03,2.59
32.92,2.51,9.01,2.61
32.92,2.52,9.00,2.62
32.92,2.54,8.97,2.63
32.93,2.52,8.98,2.67
32.93,2.54,8.94,2.70
32.93,2.58,8.96,2.76
32.93,2.59,8.97,2.76
32.94,2.58,8.90,2.71
32.94,2.57,8.94,2.74
32.94,2.57,8.93,2.77
32.94,2.59,8.87,2.80
32.95,2.58,8.87,2.84
32.95,2.57,8.88,2.87
32.95,2.55,8.88,2.90
32.95,2.52,8.87,2.97
32.96,2.49,8.87,2.93
32.96,2.52,8.85,2.97
32.96,2.45,8.87,3.01
32.96,2.40,8.89,2.98
32.97,2.38,8.90,3.05
32.97,2.40,8.86,3.13
32.97,2.36,8.87,3.11
32.97,2.32,8.78,3.14
32.98,2.30,8.76,3.18
32.98,2.28,8.85,3.16
32.98,2.24,8.86,3.20
32.98,2.24,8.82,3.20
32.99,2.24,8.84,3.22
32.99,2.24,8.85,3.18
32.99,2.25,8.85,3.17
32.99,2.21,8.84,3.15
33.00,2.21,8.84,3.15
33.00,2.20,8.87,3.14
33.00,2.19,8.88,3.15
33.00,2.19,8.90,3.15
33.01,2.21,8.82,3.17
33.01,2.19,8.86,3.20
33.01,2.18,8.89,3.17
33.01,2.19,8.91,3.17
33.02,2.19,8.88,3.20
33.02,2.19,8.88,3.27
33.02,2.17,8.91,3.32
33.02,2.21,8.89,3.33
33.03,2.22,8.88,3.35
33.03,2.22,8.88,3.42
33.03,2.28,8.81,3.47
33.03,2.31,8.75,3.49
33.04,2.31,8.78,3.54
33.04,2.35,8.79,3.59
33.04,2.40,8.74,3.59
33.04,2.42,8.71,3.58
33.05,2.43,8.73,3.57
33.05,2.47,8.67,3.63
33.05,2.51,8.64,3.60
33.05,2.53,8.66,3.53
33.06,2.58,8.67,3.53
33.06,2.59,8.66,3.54
33.06,2.56,8.61,3.49
33.06,2.53,8.63,3.41
33.07,2.56,8.63,3.41
33.07,2.57,8.65,3.39
33.07,2.52,8.66,3.38
33.07,2.52,8.62,3.31
33.08,2.51,8.66,3.29
33.08,2.49,8.70,3.30
33.08,2.47,8.68,3.35
33.08,2.42,8.69,3.33
33.09,2.35,8.73,3.32
33.09,2.38,8.71,3.34
33.09,2.32,8.72,3.36
33.09,2.20,8.75,3.37
33.10,2.21,8.81,3.43
33.10,2.17,8.78,3.47
33.10,2.12,8.80,3.43
33.10,2.02,8.77,3.50
33.11,1.96,8.79,3.57
33.11,1.93,8.80,3.58
33.11,1.91,8.83,3.53
33.11,1.89,8.82,3.55
33.12,1.81,8.79,3.62
33.12,1.78,8.76,3.59
33.12,1.77,8.75,3.60
33.12,1.66,8.79,3.58
33.13,1.64,8.76,3.60
33.13,1.57,8.70,3.60
33.13,1.57,8.73,3.61
33.13,1.56,8.70,3.59
33.14,1.50,8.70,3.58
33.14,1.46,8.64,3.54
33.14,1.44,8.67,3.55
33.14,1.41,8.65,3.50
33.15,1.38,8.67,3.51
33.15,1.36,8.66,3.46
33.15,1.39,8.65,3.42
33.15,1.43,8.62,3.43
33.16,1.40,8.66,3.42
33.16,1.36,8.70,3.38
33.16,1.29,8.72,3.33
33.16,1.24,8.75,3.23
33.17,1.27,8.75,3.18
33.17,1.27,8.75,3.15
33.17,1.26,8.75,3.16
33.17,1.30,8.72,3.29
33.18,1.36,8.64,3.38
33.18,1.45,8.60,3.41
33.18,1.63,8.50,3.60
33.18,1.61,8.36,3.65
33.19,1.43,8.47,3.57
33.19,1.18,8.61,3.50
33.19,1.02,8.65,3.23
33.19,0.99,8.64,3.08
33.20,1.05,8.66,2.99
33.20,1.06,8.74,3.02
33.20,1.19,8.77,3.17
33.20,1.43,8.76,3.41
33.21,1.53,8.69,3.43
33.21,1.47,8.71,3.39
33.21,1.44,8.71,3.38
33.21,1.39,8.81,3.22
33.22,1.29,8.80,2.93
33.22,1.31,8.80,2.81
33.22,1.26,8.80,2.79
33.22,1.17,8.90,2.76
33.23,1.16,8.93,2.72
33.23,1.24,8.84,2.79
33.23,1.31,8.86,2.87
33.23,1.42,8.91,2.92
33.24,1.40,8.94,2.92
33.24,1.42,8.95,2.93
33.24,1.50,9.00,2.93
33.24,1.47,9.05,2.84
33.25,1.47,9.08,2.84
33.25,1.52,9.12,2.87
33.25,1.59,9.15,2.82
33.25,1.65,9.20,2.84
33.26,1.70,9.21,2.93
33.26,1.79,9.23,2.96
33.26,1.91,9.21,2.96
33.26,1.95,9.20,3.01
33.27,2.00,9.24,2.99
33.27,2.00,9.23,2.98
33.27,1.99,9.25,2.99
33.27,2.02,9.25,2.97
