"Time (s)","Gyroscope x (rad/s)","Gyroscope y (rad/s)","Gyroscope z (rad/s)"
7.763854000E-3,2.419026345E-1,1.710422635E-1,1.832595794E-3
9.778014000E-3,2.419026345E-1,1.710422635E-1,1.832595794E-3
1.179217500E-2,2.419026345E-1,1.710422635E-1,1.832595794E-3
1.374530000E-2,2.419026345E-1,1.710422635E-1,1.832595794E-3
1.575946000E-2,2.419026345E-1,1.710422635E-1,1.832595794E-3
1.774310200E-2,2.419026345E-1,1.710422635E-1,1.832595794E-3
1.972674500E-2,2.419026345E-1,1.710422635E-1,1.832595794E-3
2.174090500E-2,2.419026345E-1,1.710422635E-1,1.832595794E-3
2.369403000E-2,2.419026345E-1,1.710422635E-1,1.832595794E-3
2.570819000E-2,2.419026345E-1,1.710422635E-1,1.832595794E-3
2.769183300E-2,2.419026345E-1,1.710422635E-1,1.832595794E-3
2.970599300E-2,2.419026345E-1,1.710422635E-1,1.832595794E-3
3.165911800E-2,2.419026345E-1,1.710422635E-1,1.832595794E-3
3.367327800E-2,2.419026345E-1,1.710422635E-1,1.832595794E-3
3.565692100E-2,2.419026345E-1,1.710422635E-1,1.832595794E-3
3.767108100E-2,2.419026345E-1,1.710422635E-1,1.832595794E-3
3.968524100E-2,2.419026345E-1,1.710422635E-1,1.832595794E-3
4.163836600E-2,2.419026345E-1,1.710422635E-1,1.832595794E-3
4.365252600E-2,2.419026345E-1,1.710422635E-1,1.832595794E-3
4.566668600E-2,2.419026345E-1,1.710422635E-1,1.832595794E-3
4.761981100E-2,2.419026345E-1,1.710422635E-1,1.832595794E-3
4.963397100E-2,2.419026345E-1,1.710422635E-1,1.832595794E-3
5.161761400E-2,2.419026345E-1,1.710422635E-1,1.832595794E-3
5.360125700E-2,2.419026345E-1,1.710422635E-1,1.832595794E-3
5.561541700E-2,2.419026345E-1,1.710422635E-1,1.832595794E-3
5.759905900E-2,2.419026345E-1,1.710422635E-1,1.832595794E-3
5.961321900E-2,2.419026345E-1,1.710422635E-1,1.832595794E-3
6.159686200E-2,2.419026345E-1,1.710422635E-1,1.832595794E-3
6.358050500E-2,2.419026345E-1,1.710422635E-1,1.832595794E-3
6.559466500E-2,2.419026345E-1,1.710422635E-1,1.832595794E-3
6.760882500E-2,2.419026345E-1,1.710422635E-1,1.832595794E-3
6.959246800E-2,2.419026345E-1,1.710422635E-1,1.832595794E-3
7.157611000E-2,-8.319984674E-1,-2.047009468E0,-5.271766782E-1
7.359027000E-2,-8.515461683E-1,-2.078774452E0,-5.320636034E-1
7.554339500E-2,-8.613200188E-1,-2.093435287E0,-5.430592299E-1
7.755755500E-2,-8.851437569E-1,-2.125811100E0,-5.381723046E-1
7.954119800E-2,-9.126327038E-1,-2.158186913E0,-5.216789246E-1
8.152484100E-2,-9.260717034E-1,-2.178956270E0,-5.229006410E-1
8.353900100E-2,-9.608910084E-1,-2.223549604E0,-5.393940210E-1
8.552264300E-2,-1.000597239E0,-2.279749155E0,-5.259549618E-1
8.747576800E-2,-1.020755768E0,-2.311514139E0,-5.180137157E-1
8.948992800E-2,-1.070846796E0,-2.382985353E0,-5.259549618E-1
9.147357100E-2,-1.126435518E0,-2.444682598E0,-5.320636034E-1
9.345721400E-2,-1.153924465E0,-2.477669477E0,-5.253441334E-1
9.547137400E-2,-1.211956620E0,-2.533258200E0,-5.149593949E-1
9.745501600E-2,-1.268767118E0,-2.583960056E0,-5.277875662E-1
9.949969400E-2,-1.297477722E0,-2.609616280E0,-5.277875662E-1
1.014833370E-1,-1.349401355E0,-2.645046473E0,-5.186246037E-1
1.034364620E-1,-1.393383622E0,-2.665205002E0,-5.112941861E-1
1.054811390E-1,-1.412931323E0,-2.667648554E0,-5.100724697E-1
1.074342640E-1,-1.443474531E0,-2.671924591E0,-5.009095073E-1
1.094484250E-1,-1.459357023E0,-2.671924591E0,-4.923573732E-1
1.114320670E-1,-1.477072120E0,-2.651155233E0,-4.728097022E-1
1.134157100E-1,-1.486235142E0,-2.628553152E0,-4.605923891E-1
1.154298700E-1,-1.491122007E0,-2.618168354E0,-4.508185387E-1
1.174135120E-1,-1.501506805E0,-2.599231720E0,-4.129449129E-1
1.194276730E-1,-1.499674201E0,-2.577851295E0,-3.878994286E-1
1.214113150E-1,-1.497230768E0,-2.557081938E0,-3.793473244E-1
1.233949580E-1,-1.476461291E0,-2.522262573E0,-3.665191531E-1
1.254396360E-1,-1.450804949E0,-2.470949888E0,-3.518583775E-1
1.274232780E-1,-1.437365890E0,-2.447736979E0,-3.518583775E-1
1.294069210E-1,-1.399492264E0,-2.397646189E0,-3.561344445E-1
1.313905630E-1,-1.365283847E0,-2.353052855E0,-3.494149148E-1
1.334047230E-1,-1.350623012E0,-2.336559534E0,-3.457497358E-1
1.353883660E-1,-1.319468975E0,-2.315179348E0,-3.439171314E-1
1.374025260E-1,-1.287703991E0,-2.304794550E0,-3.463605940E-1
1.393861690E-1,-1.273043156E0,-2.299296856E0,-3.457497358E-1
1.413698110E-1,-1.239445567E0,-2.290744781E0,-3.481931984E-1
1.433839710E-1,-1.222952247E0,-2.287690401E0,-3.494149148E-1
1.453676140E-1,-1.189354658E0,-2.279138327E0,-3.597996235E-1
1.473512570E-1,-1.159422278E0,-2.287079573E0,-3.518583775E-1
1.493043820E-1,-1.149037480E0,-2.335948706E0,-3.243694305E-1
1.513185420E-1,-1.122159481E0,-2.405587435E0,-2.932153046E-1
1.533021840E-1,-1.086118460E0,-2.398867846E0,-2.864958048E-1
1.553163440E-1,-1.067181587E0,-2.382985353E0,-2.877175212E-1
1.572999870E-1,-1.023199320E0,-2.342057467E0,-2.962696552E-1
1.592836300E-1,-9.822713137E-1,-2.282803535E0,-3.121521473E-1
1.612977900E-1,-9.633345008E-1,-2.248594999E0,-3.176499307E-1
1.632814320E-1,-9.315695167E-1,-2.182010651E0,-3.286454976E-1
1.653261100E-1,-9.071348906E-1,-2.115426302E0,-3.323107064E-1
1.672792350E-1,-8.985827565E-1,-2.082439661E0,-3.365867436E-1
1.692933950E-1,-8.851437569E-1,-2.021964073E0,-3.378084898E-1
1.712770380E-1,-8.753699064E-1,-1.966986060E0,-3.402519524E-1
1.732606800E-1,-8.704829812E-1,-1.944994926E0,-3.408628106E-1
1.752748410E-1,-8.607091308E-1,-1.905288696E0,-3.500257730E-1
1.772279660E-1,-8.546004891E-1,-1.890017033E0,-3.518583775E-1
1.792421260E-1,-8.411614299E-1,-1.853976011E0,-3.555235863E-1
1.812257680E-1,-8.283332586E-1,-1.825876236E0,-3.573561609E-1
1.832399280E-1,-8.185594082E-1,-1.816713214E0,-3.640756905E-1
1.852540890E-1,-8.100073338E-1,-1.782504797E0,-3.701843321E-1
1.872072140E-1,-8.038986921E-1,-1.753794074E0,-3.720169365E-1
1.892213740E-1,-8.032878041E-1,-1.737300754E0,-3.720169365E-1
1.911744990E-1,-8.008443117E-1,-1.706757545E0,-3.756821156E-1
1.931886590E-1,-8.045095205E-1,-1.685377240E0,-3.720169365E-1
1.951723020E-1,-8.045095205E-1,-1.671938181E0,-3.762930036E-1
1.971864620E-1,-7.984008789E-1,-1.651168704E0,-3.756821156E-1
1.991701040E-1,-7.916813493E-1,-1.635897160E0,-3.738495409E-1
2.011537470E-1,-7.837401032E-1,-1.629788518E0,-3.738495409E-1
2.031679070E-1,-7.709119320E-1,-1.618182063E0,-3.652974069E-1
2.051820670E-1,-7.550294399E-1,-1.604743004E0,-3.604104817E-1
2.071351920E-1,-7.458664775E-1,-1.600466967E0,-3.567453027E-1
2.091188350E-1,-7.305948138E-1,-1.590693116E0,-3.439171314E-1
2.111329950E-1,-7.208209634E-1,-1.591303945E0,-3.384193480E-1
2.130861200E-1,-7.055493593E-1,-1.585806131E0,-3.323107064E-1
2.151002800E-1,-6.823364496E-1,-1.579086661E0,-3.323107064E-1
2.170839230E-1,-6.737843752E-1,-1.577254057E0,-3.316998184E-1
2.190980830E-1,-6.499606371E-1,-1.570534587E0,-3.335324228E-1
2.210817250E-1,-6.236934066E-1,-1.566869378E0,-3.371976018E-1
2.230653680E-1,-6.084218025E-1,-1.560149789E0,-3.414736688E-1
2.250795280E-1,-5.803219676E-1,-1.543045640E0,-3.445279896E-1
2.270631710E-1,-5.467243791E-1,-1.524719596E0,-3.543018401E-1
2.290773310E-1,-5.314527750E-1,-1.509448051E0,-3.549126983E-1
2.310609730E-1,-5.155702829E-1,-1.445918083E0,-3.610213697E-1
2.330751340E-1,-5.424483418E-1,-1.317025423E0,-3.213151097E-1
2.350587760E-1,-5.589417219E-1,-1.266934514E0,-3.048217595E-1
2.370424190E-1,-5.717698932E-1,-1.224784851E0,-2.926044464E-1
2.390565790E-1,-5.564982295E-1,-1.232726097E0,-2.944370508E-1
2.410097040E-1,-5.448917747E-1,-1.238834739E0,-3.017674387E-1
2.430238640E-1,-5.290092826E-1,-1.240056396E0,-3.036000133E-1
2.450380240E-1,-5.253441334E-1,-1.239445567E0,-2.944370508E-1
2.470216670E-1,-5.174028873E-1,-1.232726097E0,-2.803871334E-1
2.490053090E-1,-5.112941861E-1,-1.201571941E0,-2.693915665E-1
2.510194690E-1,-5.057964325E-1,-1.177137375E0,-2.620611787E-1
2.530336300E-1,-5.002986193E-1,-1.139874578E0,-2.535090744E-1
2.549867550E-1,-4.929682612E-1,-1.128878951E0,-2.474004179E-1
2.570009150E-1,-4.831944108E-1,-1.144150615E0,-2.364048511E-1
2.589845570E-1,-4.581489265E-1,-1.158811331E0,-2.180788964E-1
2.609987180E-1,-4.392121136E-1,-1.158200502E0,-2.076941878E-1
2.630128780E-1,-4.355469346E-1,-1.160033107E0,-1.985312104E-1
2.649965200E-1,-4.263839424E-1,-1.138652802E0,-1.844813079E-1
2.669801630E-1,-4.269948006E-1,-1.112385631E0,-1.710422635E-1
2.689332880E-1,-4.288274050E-1,-1.095892191E0,-1.545489132E-1
2.709474480E-1,-4.361577928E-1,-1.061072946E0,-1.264491081E-1
2.729310910E-1,-4.489859641E-1,-1.036027431E0,-9.773843735E-2
2.749147330E-1,-4.569272101E-1,-1.019534111E0,-8.491026610E-2
2.769288930E-1,-4.728097022E-1,-9.938777685E-1,-6.414084882E-2
2.789125360E-1,-4.831944108E-1,-9.786061049E-1,-5.497787148E-2
2.809266960E-1,-5.039638281E-1,-9.492846131E-1,-4.642575979E-2
2.829408560E-1,-5.290092826E-1,-9.114109278E-1,-5.131268129E-2
2.849244990E-1,-5.412266254E-1,-8.881980777E-1,-5.070181563E-2
2.868776240E-1,-5.638286471E-1,-8.533787727E-1,-5.681046844E-2
2.888917840E-1,-5.876523852E-1,-8.185594082E-1,-6.291911751E-2
2.909059440E-1,-6.010913849E-1,-8.020660877E-1,-6.780604273E-2
2.928895870E-1,-6.230825782E-1,-7.788531780E-1,-7.452555746E-2
2.949037470E-1,-6.426302195E-1,-7.568620443E-1,-8.429940045E-2
2.968873890E-1,-6.517932415E-1,-7.440338731E-1,-8.185594529E-2
2.988710320E-1,-6.652322412E-1,-7.122688890E-1,-8.429940045E-2
3.008851920E-1,-6.731734872E-1,-6.743952036E-1,-8.918632567E-2
3.028688350E-1,-6.768386960E-1,-6.499606371E-1,-8.979719132E-2
3.049135120E-1,-6.805039048E-1,-5.876523852E-1,-9.407325089E-2
3.068666370E-1,-6.835582256E-1,-5.161811113E-1,-1.050688252E-1
3.088807980E-1,-6.890559793E-1,-4.819726646E-1,-1.093448773E-1
3.108949580E-1,-6.994407177E-1,-4.117231667E-1,-1.240056455E-1
3.128786000E-1,-7.214318514E-1,-3.396410644E-1,-1.398881376E-1
3.148927610E-1,-7.354817390E-1,-3.036000133E-1,-1.478293836E-1
3.169069210E-1,-7.715228200E-1,-2.351831198E-1,-1.557706445E-1
3.188600460E-1,-7.916813493E-1,-2.052507252E-1,-1.569923609E-1
3.208742060E-1,-8.405506015E-1,-1.514945775E-1,-1.594358236E-1
3.228578480E-1,-9.034696817E-1,-1.007927656E-1,-1.527163088E-1
3.249025260E-1,-9.382890463E-1,-7.147123665E-2,-1.459967941E-1
3.268556510E-1,-1.015258074E0,-1.893682219E-2,-1.319468915E-1
3.288392940E-1,-1.105666041E0,3.787364438E-2,-1.166752651E-1
3.308534540E-1,-1.156367898E0,6.475171447E-2,-1.075122803E-1
3.328370960E-1,-1.267545342E0,1.246165112E-1,-8.246681094E-2
3.348512570E-1,-1.386664152E0,1.808161139E-1,-5.803219974E-2
3.368654170E-1,-1.450804949E0,2.113593817E-1,-4.764748737E-2
3.388185420E-1,-1.579086661E0,2.712241709E-1,-2.871066704E-2
3.408327020E-1,-1.709200978E0,3.390302062E-1,-1.099557430E-2
3.428163440E-1,-1.773341775E0,3.720169365E-1,-4.886921961E-3
3.448610220E-1,-1.902845263E0,4.410447180E-1,4.276056774E-3
3.468141470E-1,-2.025018215E0,4.948008358E-1,6.719517522E-3
3.487977900E-1,-2.082439661E0,5.149593949E-1,6.719517522E-3
3.508119500E-1,-2.189341068E0,5.424483418E-1,6.108652451E-4
3.527955930E-1,-2.240653753E0,5.461135507E-1,-1.832595794E-3
3.548097530E-1,-2.335337877E0,5.467243791E-1,-1.527163107E-2
3.567933950E-1,-2.425745964E0,5.326744914E-1,-2.015855350E-2
3.587770380E-1,-2.464230299E0,5.198463202E-1,-2.443460934E-2
3.607911980E-1,-2.535701513E0,4.929682612E-1,-2.871066704E-2
3.627748410E-1,-2.594955444E0,4.483750761E-1,-2.809980139E-2
3.648195180E-1,-2.620611906E0,4.257730842E-1,-2.809980139E-2
3.667726430E-1,-2.658485651E0,3.714060783E-1,-2.015855350E-2
3.687868030E-1,-2.683531046E0,3.127630055E-1,-1.221730490E-3
3.707704460E-1,-2.695137501E0,2.864958048E-1,1.466076635E-2
3.727846060E-1,-2.711630821E0,2.376265824E-1,4.459316283E-2
3.747987660E-1,-2.717739582E0,1.777617931E-1,8.185594529E-2
3.767518910E-1,-2.726902485E0,1.270599663E-1,1.026253626E-1
3.787660520E-1,-2.725680828E0,5.131268129E-2,1.527163088E-1
3.807496940E-1,-2.721404552E0,-2.076941915E-2,2.089159191E-1
3.827638540E-1,-2.714074373E0,-5.375614017E-2,2.357939780E-1
3.848085320E-1,-2.700635195E0,-1.313360333E-1,2.981022298E-1
3.867616570E-1,-2.684752703E0,-2.150245607E-1,3.543018401E-1
3.887758170E-1,-2.670091867E0,-2.553416789E-1,3.787364662E-1
3.907594600E-1,-2.645046473E0,-3.249803185E-1,4.245513380E-1
3.927736200E-1,-2.630996704E0,-3.573561609E-1,4.477642179E-1
3.947877800E-1,-2.596788168E0,-4.129449129E-1,4.862487316E-1
3.967714230E-1,-2.556471109E0,-4.605923891E-1,5.229006410E-1
3.987855830E-1,-2.537534237E0,-4.770857692E-1,5.381723046E-1
4.007692250E-1,-2.489886761E0,-4.935791194E-1,5.705481172E-1
4.027528680E-1,-2.437963247E0,-4.960225821E-1,5.968153477E-1
4.047975460E-1,-2.410474300E0,-4.929682612E-1,6.053674817E-1
4.067506710E-1,-2.359161615E0,-4.838052690E-1,6.194173694E-1
4.087648310E-1,-2.309681416E0,-4.685336351E-1,6.267477274E-1
4.107484730E-1,-2.287690401E0,-4.618141353E-1,6.230825782E-1
4.127626340E-1,-2.243097067E0,-4.416555762E-1,6.206390858E-1
4.147767940E-1,-2.202169180E0,-4.117231667E-1,6.053674817E-1
4.167299190E-1,-2.183843136E0,-3.964515328E-1,5.943718553E-1
4.187440790E-1,-2.145969629E0,-3.628539443E-1,5.668829679E-1
4.207277210E-1,-2.114815474E0,-3.298672438E-1,5.296201706E-1
4.227113640E-1,-2.098932981E0,-3.097086847E-1,5.088507533E-1
4.247255240E-1,-2.072665691E0,-2.748893499E-1,4.538728893E-1
4.267091670E-1,-2.052507162E0,-2.437352389E-1,3.915646076E-1
4.287233270E-1,-2.045787811E0,-2.321287990E-1,3.579670191E-1
4.307069690E-1,-2.032348633E0,-2.101376504E-1,2.834414840E-1
4.327211300E-1,-2.031126976E0,-1.991420686E-1,2.437352389E-1
4.347352900E-1,-2.023185730E0,-1.844813079E-1,1.472185254E-1
4.367189320E-1,-2.027461767E0,-1.331686229E-1,2.871066704E-2
4.387330930E-1,-2.031126976E0,-1.172861308E-1,-2.260201424E-2
4.407472530E-1,-2.031737804E0,-1.496619880E-1,-1.093448773E-1
4.427003780E-1,-2.041511536E0,-2.186897546E-1,-1.753183305E-1
4.447450550E-1,-2.047620296E0,-2.480112910E-1,-2.119702399E-1
4.466981800E-1,-2.062891960E0,-2.981022298E-1,-2.816088796E-1
4.486818230E-1,-2.082439661E0,-3.402519524E-1,-3.579670191E-1
4.506654660E-1,-2.095878601E0,-3.585779071E-1,-3.940080702E-1
4.526796260E-1,-2.122145891E0,-4.068362415E-1,-4.575380683E-1
4.546632680E-1,-2.149024010E0,-4.538728893E-1,-5.253441334E-1
4.566774280E-1,-2.164906502E0,-4.789183438E-1,-5.540547967E-1
4.586915890E-1,-2.194227934E0,-5.436700583E-1,-6.023131609E-1
4.606447140E-1,-2.226603746E0,-6.175847650E-1,-6.505714655E-1
4.626588740E-1,-2.243097067E0,-6.579018831E-1,-6.695083380E-1
4.646730340E-1,-2.276083946E0,-7.397578359E-1,-6.994407177E-1
4.666566770E-1,-2.310292244E0,-8.240572214E-1,-7.147123218E-1
4.686403190E-1,-2.324953079E0,-8.619308472E-1,-7.373143435E-1
4.706239620E-1,-2.354274750E0,-9.401215911E-1,-7.476990819E-1
4.726381220E-1,-2.368935347E0,-9.773843884E-1,-7.458664775E-1
4.745912470E-1,-2.392759085E0,-1.051299095E0,-7.293730974E-1
4.766054070E-1,-2.417804718E0,-1.126435518E0,-7.073819637E-1
4.785890500E-1,-2.428800106E0,-1.166141748E0,-6.914994717E-1
4.805726920E-1,-2.452013016E0,-1.246165156E0,-6.450737119E-1
4.825868520E-1,-2.467895508E0,-1.328631878E0,-5.876523852E-1
4.845704950E-1,-2.474615097E0,-1.381166339E0,-5.546656251E-1
4.865541370E-1,-2.487443209E0,-1.489900351E0,-4.813618064E-1
4.885072620E-1,-2.497217178E0,-1.618792892E0,-4.043927789E-1
4.905214230E-1,-2.499049664E0,-1.688431501E0,-3.652974069E-1
4.925050650E-1,-2.494162798E0,-1.839315295E0,-2.773328125E-1
4.945192250E-1,-2.477669477E0,-1.988366365E0,-1.850921661E-1
4.965333860E-1,-2.464230299E0,-2.063502789E0,-1.362229437E-1
4.985170280E-1,-2.425135136E0,-2.201558352E0,-3.420845419E-2
5.005006710E-1,-2.403143883E0,-2.260812283E0,1.771509275E-2
5.024843130E-1,-2.347555161E0,-2.367102861E0,1.252273768E-1
5.044984730E-1,-2.272418737E0,-2.437963247E0,2.388483137E-1
5.064515980E-1,-2.231490850E0,-2.459954262E0,3.005456924E-1
5.084352410E-1,-2.142304420E0,-2.495384455E0,4.178318381E-1
5.104494010E-1,-2.054339886E0,-2.509434462E0,5.418374538E-1
5.124330440E-1,-2.008524895E0,-2.511266947E0,6.041457057E-1
5.144472040E-1,-1.914451718E0,-2.496606350E0,7.202101350E-1
5.164613640E-1,-1.822821856E0,-2.477058649E0,8.368853927E-1
5.184144890E-1,-1.772730947E0,-2.470339060E0,8.924741149E-1
5.204286490E-1,-1.671938181E0,-2.472782612E0,1.004262447E0
5.224122920E-1,-1.558928132E0,-2.492330313E0,1.108720422E0
5.244569690E-1,-1.505172014E0,-2.511877775E0,1.161865711E0
5.264100940E-1,-1.392772794E0,-2.568077564E0,1.268156290E0
5.284242550E-1,-1.284038782E0,-2.638937950E0,1.367116451E0
5.304078970E-1,-1.228450060E0,-2.683531046E0,1.412931323E0
5.323915400E-1,-1.117883444E0,-2.755613089E0,1.503339410E0
5.344057000E-1,-1.065348983E0,-2.804482222E0,1.535104394E0
5.363893430E-1,-9.590584636E-1,-2.921157598E0,1.593136549E0
5.384035030E-1,-8.582656980E-1,-3.051271915E0,1.629788518E0
5.403871450E-1,-8.167268038E-1,-3.068376064E0,1.649947047E0
5.423707880E-1,-7.544185519E-1,-3.002402782E0,1.692096710E0
5.444154660E-1,-7.110471725E-1,-2.977967978E0,1.739744186E0
5.463685910E-1,-6.798930168E-1,-3.064100027E0,1.748907208E0
5.483827510E-1,-5.821545720E-1,-3.364034891E0,1.727526903E0
5.503663930E-1,-4.465425014E-1,-3.706119537E0,1.665829539E0
5.523805530E-1,-3.720169365E-1,-3.871052980E0,1.623679876E0
5.543947140E-1,-2.119702399E-1,-4.175263882E0,1.536326051E0
5.563478390E-1,-4.398229718E-2,-4.424497128E0,1.453248382E0
5.583619990E-1,3.970624134E-2,-4.521013737E0,1.414763927E0
5.603456410E-1,2.083050460E-1,-4.657236576E0,1.339627504E0
5.623598020E-1,3.732386529E-1,-4.764138222E0,1.261436701E0
5.643739620E-1,4.605923891E-1,-4.822781086E0,1.214400053E0
5.663270870E-1,6.499606371E-1,-4.952895641E0,1.111774802E0
5.683412470E-1,7.476990819E-1,-5.012149334E0,1.055575132E0
5.702943720E-1,9.541715384E-1,-5.106222630E0,9.425650835E-1
5.723085320E-1,1.157589674E0,-5.148372173E0,8.387179971E-1
5.742921750E-1,1.256549835E0,-5.151426792E0,7.892379165E-1
5.763063350E-1,1.454470158E0,-5.122715950E0,7.031059265E-1
5.783204950E-1,1.645060062E0,-5.065294743E0,6.212499738E-1
5.802736200E-1,1.734857321E0,-5.025588512E0,5.839871764E-1
5.822877800E-1,1.906510472E0,-4.927849770E0,5.149593949E-1
5.843019400E-1,2.066557169E0,-4.805066109E0,4.612032473E-1
5.862855830E-1,2.137417555E0,-4.736038208E0,4.367686510E-1
5.882997430E-1,2.267531872E0,-4.585154533E0,4.080579877E-1
5.902528680E-1,2.371378899E0,-4.409225464E0,3.933972120E-1
5.922670280E-1,2.420248032E0,-4.318817139E0,3.964515328E-1
5.942506710E-1,2.489275932E0,-4.116621017E0,4.202753007E-1
5.962343130E-1,2.539366722E0,-3.913202763E0,4.581489265E-1
5.982484730E-1,2.557081938E0,-3.809966564E0,4.850270152E-1
6.002321160E-1,2.572964430E0,-3.604104996E0,5.589417219E-1
6.022462760E-1,2.572353601E0,-3.505144835E0,5.992587805E-1
6.042909540E-1,2.558303595E0,-3.315776587E0,6.994407177E-1
6.062745960E-1,2.525927782E0,-3.136182070E0,8.142833710E-1
6.082582390E-1,2.505158424E0,-3.053104401E0,8.765916228E-1
6.102418820E-1,2.449569702E0,-2.892446995E0,1.015868902E0
6.122560420E-1,2.378709316E0,-2.738508940E0,1.160643935E0
6.142091670E-1,2.339613914E0,-2.663372517E0,1.235169530E0
6.162233270E-1,2.256536245E0,-2.518597364E0,1.387274981E0
6.182069690E-1,2.162462950E0,-2.381763697E0,1.538158655E0
6.202211300E-1,2.114204645E0,-2.316401005E0,1.614516854E0
6.222352900E-1,2.010968447E0,-2.191784382E0,1.759902716E0
6.242189320E-1,1.907121301E0,-2.070222378E0,1.894293070E0
6.262025750E-1,1.854586840E0,-2.016466141E0,1.958433986E0
6.281557000E-1,1.751350641E0,-1.914451718E0,2.076941729E0
6.301698600E-1,1.648114443E0,-1.817324162E0,2.175291061E0
6.321535030E-1,1.600466967E0,-1.773341775E0,2.221716881E0
6.341676630E-1,1.511280656E0,-1.682933807E0,2.304183722E0
6.361513050E-1,1.430035591E0,-1.594358325E0,2.369546175E0
6.381349480E-1,1.393383622E0,-1.554041147E0,2.401311398E0
6.401491080E-1,1.326188445E0,-1.475850463E0,2.444682598E0
6.421327510E-1,1.298088670E0,-1.439809442E0,2.463008642E0
6.441774280E-1,1.245554209E0,-1.375057697E0,2.495384455E0
6.461305530E-1,1.205847979E0,-1.320690632E0,2.517986536E0
6.481447140E-1,1.191798091E0,-1.292590857E0,2.525927782E0
6.501588740E-1,1.167974353E0,-1.248608589E0,2.549140692E0
6.521425160E-1,1.149648428E0,-1.218065262E0,2.565023184E0
6.541566770E-1,1.145372391E0,-1.200350165E0,2.570520878E0
6.561403190E-1,1.142928839E0,-1.172861218E0,2.582127333E0
6.581239620E-1,1.140485406E0,-1.153313637E0,2.601064205E0
6.601381220E-1,1.141707182E0,-1.150870085E0,2.608394623E0
6.620912470E-1,1.147204876E0,-1.147204876E0,2.630385637E0
6.641359250E-1,1.158811331E0,-1.149037480E0,2.651155233E0
6.660890500E-1,1.162476540E0,-1.157589674E0,2.659707308E0
6.681032100E-1,1.175915599E0,-1.185078621E0,2.681698322E0
6.700868520E-1,1.191187263E0,-1.225395679E0,2.703078747E0
6.720704950E-1,1.196074128E0,-1.244332552E0,2.712852478E0
6.740846550E-1,1.211345792E0,-1.297477722E0,2.728124142E0
6.760682980E-1,1.219897866E0,-1.320690632E0,2.733011007E0
6.780824580E-1,1.233947754E0,-1.373835921E0,2.745839357E0
6.800661000E-1,1.248608589E0,-1.435533285E0,2.750115395E0
6.820497430E-1,1.254106402E0,-1.468520045E0,2.755002260E0
6.840944210E-1,1.267545342E0,-1.533271790E0,2.762943506E0
6.860780630E-1,1.279151797E0,-1.591914773E0,2.766608715E0
6.880617060E-1,1.285260439E0,-1.623679876E0,2.761721849E0
6.900453480E-1,1.299921274E0,-1.686598897E0,2.760499954E0
6.920595090E-1,1.306029916E0,-1.741576791E0,2.765387058E0
6.940431510E-1,1.312749386E0,-1.764789701E0,2.765387058E0
6.960573110E-1,1.321301579E0,-1.811826348E0,2.766608715E0
6.980409540E-1,1.326188445E0,-1.855808616E0,2.769663095E0
7.000245960E-1,1.329242826E0,-1.879632354E0,2.770884752E0
7.020387570E-1,1.332297087E0,-1.913229942E0,2.770884752E0
7.040529170E-1,1.331686258E0,-1.946827531E0,2.767219543E0
7.060365590E-1,1.328631878E0,-1.963931799E0,2.765387058E0
7.080202020E-1,1.326188445E0,-1.992031574E0,2.756223917E0
7.100343620E-1,1.317636371E0,-2.018298864E0,2.746450186E0
7.120180050E-1,1.313971162E0,-2.029905319E0,2.737898111E0
7.140016470E-1,1.301142931E0,-2.044565916E0,2.714074373E0
7.160158070E-1,1.294423461E0,-2.055561543E0,2.701246023E0
7.179994500E-1,1.278540969E0,-2.058615923E0,2.672535419E0
7.200136100E-1,1.260215044E0,-2.059837580E0,2.638326883E0
7.220277700E-1,1.246775985E0,-2.055561543E0,2.621222734E0
7.240114130E-1,1.221730471E0,-2.059837580E0,2.575407982E0
7.259950550E-1,1.196074128E0,-2.065335512E0,2.534479856E0
7.279481800E-1,1.183856845E0,-2.068389654E0,2.510656118E0
7.299623410E-1,1.156367898E0,-2.073887587E0,2.463619471E0
7.319459830E-1,1.131933331E0,-2.089159250E0,2.414750338E0
7.339296260E-1,1.120326877E0,-2.092824221E0,2.387261391E0
7.359437860E-1,1.092227101E0,-2.103819847E0,2.337781191E0
7.378969110E-1,1.069014192E0,-2.119091511E0,2.285857677E0
7.399110710E-1,1.061683774E0,-2.128254414E0,2.259590626E0
7.418947140E-1,1.043357849E0,-2.143526077E0,2.210721254E0
7.439393910E-1,1.026253581E0,-2.153300047E0,2.163073778E0
7.458925160E-1,1.020144939E0,-2.161241293E0,2.139860868E0
7.479066770E-1,1.010371089E0,-2.182621479E0,2.096489429E0
7.498903190E-1,1.010371089E0,-2.198503971E0,2.072665691E0
7.518739620E-1,1.008538485E0,-2.224160433E0,2.031737804E0
7.538881220E-1,1.010371089E0,-2.247373343E0,1.999361992E0
7.558717640E-1,1.011592865E0,-2.254092693E0,1.984090328E0
7.578554070E-1,1.018923283E0,-2.282192469E0,1.962710023E0
7.598695670E-1,1.029307961E0,-2.303572893E0,1.944994926E0
7.618226920E-1,1.035416603E0,-2.312735796E0,1.938886285E0
7.638673700E-1,1.051299095E0,-2.342668295E0,1.929112434E0
7.658204950E-1,1.073290229E0,-2.367102861E0,1.925447226E0
7.678346550E-1,1.086729288E0,-2.384817839E0,1.926058173E0
7.697877800E-1,1.108109593E0,-2.414750338E0,1.943773150E0
7.718019400E-1,1.134376764E0,-2.442239285E0,1.957212210E0
7.737855830E-1,1.152091861E0,-2.458121777E0,1.970040441E0
7.757997430E-1,1.182024240E0,-2.492941141E0,1.997529387E0
7.777833860E-1,1.201571941E0,-2.513710499E0,2.011579275E0
7.797670280E-1,1.237002134E0,-2.555249214E0,2.047009468E0
7.817811880E-1,1.273043156E0,-2.601675034E0,2.082439661E0
7.837953480E-1,1.288925648E0,-2.623666286E0,2.103209019E0
7.857789910E-1,1.328021049E0,-2.667648554E0,2.140471935E0
7.877626340E-1,1.365894675E0,-2.712241650E0,2.164906502E0
7.897462760E-1,1.384831548E0,-2.733011007E0,2.178345442E0
7.917604360E-1,1.418429136E0,-2.778825998E0,2.199725866E0
7.937135610E-1,1.448361516E0,-2.816088676E0,2.225382090E0
7.957277210E-1,1.461189628E0,-2.833193064E0,2.235155821E0
7.977113640E-1,1.486845970E0,-2.871066570E0,2.256536245E0
7.997255240E-1,1.503950238E0,-2.909551144E0,2.271807909E0
8.017396840E-1,1.507615447E0,-2.926044464E0,2.274862289E0
8.037233270E-1,1.522276163E0,-2.956587791E0,2.276694775E0
8.057069690E-1,1.524108768E0,-2.990185261E0,2.275473118E0
8.076906120E-1,1.524108768E0,-3.001180887E0,2.271807909E0
8.097047720E-1,1.518610954E0,-3.029891729E0,2.252871037E0
8.116884150E-1,1.514334917E0,-3.042109013E0,2.246762276E0
8.136720570E-1,1.500285029E0,-3.065321684E0,2.224160433E0
8.156862180E-1,1.480737329E0,-3.082426071E0,2.200336695E0
8.176698600E-1,1.471574426E0,-3.090978146E0,2.191173553E0
8.196840200E-1,1.444085479E0,-3.111136675E0,2.165517330E0
8.216676630E-1,1.411709547E0,-3.135571241E0,2.137417555E0
8.236818230E-1,1.397659659E0,-3.141069174E0,2.121535063E0
8.256349480E-1,1.367727280E0,-3.153897285E0,2.081828833E0
8.276185910E-1,1.331075311E0,-3.153897285E0,2.043955088E0
8.296327510E-1,1.312138557E0,-3.152064562E0,2.021353006E0
8.316163930E-1,1.273653984E0,-3.147788525E0,1.981646895E0
8.336305530E-1,1.230893493E0,-3.133738756E0,1.944994926E0
8.356141960E-1,1.211345792E0,-3.121521473E0,1.926058173E0
8.375978390E-1,1.161254883E0,-3.108082294E0,1.897347450E0
8.396119990E-1,1.111163855E0,-3.097697735E0,1.867415071E0
8.415651240E-1,1.083674908E0,-3.095865011E0,1.849699974E0
8.436098020E-1,1.030529618E0,-3.084869385E0,1.814880610E0
8.455629270E-1,1.005484223E0,-3.077539206E0,1.794722080E0
8.475770870E-1,9.468411207E-1,-3.058602333E0,1.756848454E0
8.495607290E-1,8.912523985E-1,-3.037221909E0,1.719585657E0
8.515748890E-1,8.613200188E-1,-3.025615454E0,1.699427128E0
8.535585320E-1,7.990117669E-1,-3.003624439E0,1.662164330E0
8.555421750E-1,7.373143435E-1,-2.974913836E0,1.625512362E0
8.575563350E-1,7.086036801E-1,-2.959642172E0,1.603521228E0
8.595399770E-1,6.481280327E-1,-2.936429262E0,1.558928132E0
8.615541370E-1,5.839871764E-1,-2.919935942E0,1.518000126E0
8.635682980E-1,5.540547967E-1,-2.908940315E0,1.494176388E0
8.655214230E-1,4.886921942E-1,-2.893668652E0,1.445918083E0
8.675050650E-1,4.282165468E-1,-2.879007816E0,1.392772794E0
8.694887080E-1,3.976732790E-1,-2.870455742E0,1.370781660E0
8.715028680E-1,3.390302062E-1,-2.860071182E0,1.324355841E0
8.734865110E-1,2.797762752E-1,-2.857016802E0,1.273653984E0
8.755006710E-1,2.522873580E-1,-2.859460115E0,1.257771492E0
8.774843130E-1,2.009746730E-1,-2.866179705E0,1.208902359E0
8.794679560E-1,1.747074574E-1,-2.872899294E0,1.180191636E0
8.814515980E-1,1.276708394E-1,-2.891836166E0,1.130711555E0
8.834657590E-1,8.735372871E-2,-2.918103218E0,1.084896684E0
8.854494010E-1,7.147123665E-2,-2.932764053E0,1.055575132E0
8.874025260E-1,3.420845419E-2,-2.960863829E0,1.009760261E0
8.894166860E-1,7.330383174E-3,-2.990185261E0,9.627236128E-1
8.914003290E-1,-5.497787148E-3,-3.003013611E0,9.425650835E-1
8.934144890E-1,-1.954768784E-2,-3.034167767E0,9.083566070E-1
8.953981320E-1,-3.970624134E-2,-3.061045647E0,8.772025108E-1
8.974122920E-1,-4.398229718E-2,-3.080593348E0,8.625417352E-1
8.993959340E-1,-5.009094998E-2,-3.109915018E0,8.362745047E-1
9.013795770E-1,-5.131268129E-2,-3.133738756E0,8.057312369E-1
9.033937370E-1,-5.253441259E-2,-3.146566868E0,7.941248417E-1
9.053468620E-1,-4.337143153E-2,-3.163671017E0,7.629706860E-1
9.073305050E-1,-4.214970022E-2,-3.168558121E0,7.489207983E-1
9.093446650E-1,-3.543018550E-2,-3.171612263E0,7.244861722E-1
9.112977900E-1,-3.176499158E-2,-3.165503740E0,7.055493593E-1
9.133119500E-1,-2.504547499E-2,-3.163671017E0,6.976081133E-1
9.152955930E-1,-2.138028294E-2,-3.146566868E0,6.823364496E-1
9.172792350E-1,-1.771509275E-2,-3.133127928E0,6.670648456E-1
9.192933950E-1,-1.649336144E-2,-3.120910645E0,6.566801667E-1
9.212770380E-1,-1.160643995E-2,-3.096475840E0,6.377432942E-1
9.233217160E-1,-6.719517522E-3,-3.061656713E0,6.163630486E-1
9.252748410E-1,-4.886921961E-3,-3.043330669E0,6.090326309E-1
9.272890010E-1,-4.276056774E-3,-3.001180887E0,5.913175344E-1
9.292726430E-1,-7.330383174E-3,-2.961474657E0,5.809328556E-1
9.312868030E-1,-5.497787148E-3,-2.940705299E0,5.772676468E-1
9.333009640E-1,-1.466076635E-2,-2.889392614E0,5.705481172E-1
9.352540890E-1,-2.321287990E-2,-2.823419094E0,5.668829679E-1
9.372682490E-1,-2.382374369E-2,-2.792876005E0,5.638286471E-1
9.392518910E-1,-2.932153270E-2,-2.748893499E0,5.564982295E-1
9.412660520E-1,-3.787364438E-2,-2.680476665E0,5.540547967E-1
9.432802120E-1,-4.886921868E-2,-2.638937950E0,5.619960427E-1
9.452333370E-1,-6.169738993E-2,-2.578462124E0,5.693264008E-1
9.472474970E-1,-6.719517708E-2,-2.551584244E0,5.632177591E-1
9.492006220E-1,-7.696902007E-2,-2.481945515E0,5.619960427E-1
9.512147820E-1,-9.529497474E-2,-2.399478674E0,5.766568184E-1
9.531984250E-1,-1.056796908E-1,-2.364659309E0,5.803219676E-1
9.552125850E-1,-1.215621829E-1,-2.304794550E0,5.754350424E-1
9.572267450E-1,-1.417207420E-1,-2.217440844E0,5.754350424E-1
9.591798700E-1,-1.539380401E-1,-2.168571711E0,5.827654600E-1
9.611940300E-1,-1.753183305E-1,-2.095878601E0,5.797111392E-1
9.632081900E-1,-1.905899495E-1,-2.027461767E0,5.742133260E-1
9.651918330E-1,-2.034181207E-1,-1.982868552E0,5.717698932E-1
9.671754750E-1,-2.290744632E-1,-1.880243182E0,5.693264008E-1
9.691591180E-1,-2.431243658E-1,-1.808161139E0,5.583308339E-1
9.711732780E-1,-2.474004179E-1,-1.781283021E0,5.497786999E-1
9.731264030E-1,-2.626720667E-1,-1.692707539E0,5.387831330E-1
9.751405630E-1,-2.718350291E-1,-1.645671010E0,5.351179838E-1
9.771242060E-1,-2.864958048E-1,-1.566258430E0,5.247332454E-1
9.791383660E-1,-2.974913716E-1,-1.495398164E0,4.917465150E-1
9.811525260E-1,-3.017674387E-1,-1.459357023E0,4.746423066E-1
9.831361690E-1,-3.139847219E-1,-1.368949056E0,4.459316432E-1
9.851198110E-1,-3.323107064E-1,-1.277930140E0,4.178318381E-1
9.871034540E-1,-3.408628106E-1,-1.238223910E0,3.982841372E-1
9.891176140E-1,-3.512475193E-1,-1.180191636E0,3.451388776E-1
9.911012570E-1,-3.695734739E-1,-1.108109593E0,2.858849466E-1
9.930848990E-1,-3.787364662E-1,-1.073901057E0,2.577851415E-1
9.950990590E-1,-3.995058835E-1,-1.001208186E0,1.966986060E-1
9.970827020E-1,-4.245513380E-1,-9.382890463E-1,1.380555481E-1
9.990968620E-1,-4.349360466E-1,-9.095783234E-1,1.123992056E-1
1.001111022E0,-4.648684561E-1,-8.637634516E-1,4.886921868E-2
1.003094665E0,-4.960225821E-1,-8.234463334E-1,-2.443460934E-2
1.005047790E0,-5.088507533E-1,-8.148942590E-1,-6.291911751E-2
1.007061950E0,-5.393940210E-1,-7.855727077E-1,-1.490511149E-1
1.009045593E0,-5.510004759E-1,-7.672467232E-1,-1.893682331E-1
1.011059753E0,-5.797111392E-1,-7.379252315E-1,-2.712241709E-1
1.013073913E0,-6.078109145E-1,-7.104362845E-1,-3.451388776E-1
1.015027038E0,-6.175847650E-1,-7.037167549E-1,-3.811798990E-1
1.017041198E0,-6.444628239E-1,-6.835582256E-1,-4.379903674E-1
1.019024841E0,-6.652322412E-1,-6.774495840E-1,-4.880813360E-1
1.021039001E0,-6.756169796E-1,-6.701191664E-1,-5.094616413E-1
1.023053161E0,-6.878342628E-1,-6.774495840E-1,-5.442809463E-1
1.025006286E0,-6.957755089E-1,-6.951646209E-1,-5.742133260E-1
1.027020446E0,-6.982190013E-1,-7.104362845E-1,-5.882632136E-1
1.028973571E0,-6.939429045E-1,-7.415903807E-1,-6.126978397E-1
1.030987731E0,-6.878342628E-1,-7.819074988E-1,-6.334672570E-1
1.032971374E0,-6.798930168E-1,-7.984008789E-1,-6.377432942E-1
1.034985534E0,-6.615670323E-1,-8.472700715E-1,-6.542366743E-1
1.036969177E0,-6.340781450E-1,-8.930850029E-1,-6.633996367E-1
1.038952819E0,-6.139195561E-1,-9.199630618E-1,-6.658431292E-1
1.040966979E0,-5.754350424E-1,-9.645562172E-1,-6.713408828E-1
1.042981139E0,-5.296201706E-1,-1.021977544E0,-6.682865620E-1
1.044964782E0,-5.033529401E-1,-1.045801282E0,-6.688974500E-1
1.046948425E0,-4.440990388E-1,-1.098335743E0,-6.633996367E-1
1.048962585E0,-4.123340547E-1,-1.125824690E0,-6.597344875E-1
1.050976745E0,-3.500257730E-1,-1.169196129E0,-6.603453159E-1
1.052929870E0,-2.822197378E-1,-1.201571941E0,-6.688974500E-1
1.054944030E0,-2.516764700E-1,-1.214400053E0,-6.719517708E-1
1.056927673E0,-1.844813079E-1,-1.238223910E0,-6.750060916E-1
1.058941833E0,-1.227839142E-1,-1.260215044E0,-6.731734872E-1
1.060955993E0,-9.407325089E-2,-1.268156290E0,-6.688974500E-1
1.062970153E0,-3.604105115E-2,-1.288314819E0,-6.572909951E-1
1.064953796E0,1.404990070E-2,-1.307862520E0,-6.365215778E-1
1.066937438E0,4.031710699E-2,-1.313971162E0,-6.206390858E-1
1.068951598E0,9.040805697E-2,-1.332907915E0,-5.784893632E-1
1.070965759E0,1.307251602E-1,-1.337184072E0,-5.296201706E-1
1.072918884E0,1.508837193E-1,-1.344514370E0,-5.033529401E-1
1.074933044E0,1.844813079E-1,-1.341460109E0,-4.416555762E-1
1.076916686E0,2.150245607E-1,-1.338405728E0,-3.738495409E-1
1.078900329E0,2.284636050E-1,-1.329242826E0,-3.384193480E-1
1.080914489E0,2.504547536E-1,-1.313360333E0,-2.626720667E-1
1.082928649E0,2.712241709E-1,-1.296866894E0,-1.802052408E-1
1.084881774E0,2.755002379E-1,-1.285260439E0,-1.362229437E-1
1.086895934E0,2.846632004E-1,-1.268156290E0,-5.253441259E-2
1.088910094E0,2.877175212E-1,-1.256549835E0,-7.330383174E-3
1.090863219E0,2.901609838E-1,-1.241278172E0,8.002334833E-2
1.092877380E0,2.858849466E-1,-1.221119642E0,1.716531366E-1
1.094861022E0,2.828305960E-1,-1.210124016E0,2.162462920E-1
1.096875182E0,2.706133127E-1,-1.183246017E0,2.987131178E-1
1.098889343E0,2.547308207E-1,-1.155757070E0,3.781255782E-1
1.100872985E0,2.419026345E-1,-1.138652802E0,4.141666293E-1
1.102917663E0,2.223549485E-1,-1.104444385E0,4.825835526E-1
1.104870788E0,1.997529417E-1,-1.070846796E0,5.491678715E-1
1.106884948E0,1.857030392E-1,-1.059851170E0,5.821545720E-1
1.108899108E0,1.594358236E-1,-1.029307961E0,6.469063163E-1
1.110852233E0,1.276708394E-1,-1.008538485E0,7.092145681E-1
1.112866393E0,1.136209369E-1,-9.999864101E-1,7.397578359E-1
1.114850036E0,8.002334833E-2,-9.847147465E-1,7.971791625E-1
1.116833678E0,4.703662544E-2,-9.786061049E-1,8.509352803E-1
1.118817321E0,3.298672289E-2,-9.743300676E-1,8.784242272E-1
1.120800964E0,-3.054326167E-3,-9.767735004E-1,9.230173826E-1
1.122845641E0,-2.260201424E-2,-9.798278809E-1,9.474520087E-1
1.124798766E0,-5.681046844E-2,-9.896016717E-1,9.871582389E-1
1.126812927E0,-8.979719132E-2,-1.007316828E0,1.021977544E0
1.128796569E0,-1.081231460E-1,-1.021366715E0,1.036027431E0
1.130810729E0,-1.374446750E-1,-1.056185961E0,1.062905550E0
1.132824889E0,-1.667662114E-1,-1.098335743E0,1.089172721E0
1.134808532E0,-1.795943826E-1,-1.127046347E0,1.102000952E0
1.136822692E0,-2.058615834E-1,-1.180802464E0,1.118494272E0
1.138806335E0,-2.284636050E-1,-1.243721604E0,1.137431145E0
1.140789977E0,-2.400700450E-1,-1.275486588E0,1.147815824E0
1.142804137E0,-2.626720667E-1,-1.342070937E0,1.158811331E0
1.144757262E0,-2.779437006E-1,-1.409876943E0,1.174082994E0
1.146771423E0,-2.871066630E-1,-1.442863703E0,1.179580808E0
1.148724548E0,-3.042109013E-1,-1.508226275E0,1.188132882E0
1.150738708E0,-3.194825351E-1,-1.563814998E0,1.196684957E0
1.152722350E0,-3.249803185E-1,-1.594969153E0,1.200350165E0
1.154736511E0,-3.408628106E-1,-1.647503614E0,1.210124016E0
1.156720153E0,-3.481931984E-1,-1.666440368E0,1.211956620E0
1.158703796E0,-3.665191531E-1,-1.714698792E0,1.221730471E0
1.160717956E0,-3.836233616E-1,-1.755015850E0,1.231504321E0
1.162732116E0,-3.940080702E-1,-1.772120118E0,1.237002134E0
1.164685241E0,-4.159992337E-1,-1.801441550E0,1.243110776E0
1.166668884E0,-4.392121136E-1,-1.825265408E0,1.254106402E0
1.168683044E0,-4.520402849E-1,-1.835039139E0,1.260215044E0
1.170666686E0,-4.825835526E-1,-1.847256541E0,1.272432327E0
1.172680846E0,-5.143485069E-1,-1.852754235E0,1.285871387E0
1.174695007E0,-5.314527750E-1,-1.852754235E0,1.294423461E0
1.176648132E0,-5.656611919E-1,-1.852143407E0,1.311527729E0
1.178662292E0,-6.004805565E-1,-1.833817482E0,1.327410221E0
1.180645934E0,-6.163630486E-1,-1.826487064E0,1.337184072E0
1.182690612E0,-6.462954283E-1,-1.805106759E0,1.355509996E0
1.184643737E0,-6.695083380E-1,-1.783726573E0,1.377501130E0
1.186657897E0,-6.762278080E-1,-1.775174379E0,1.390329242E0
1.188672057E0,-6.939429045E-1,-1.759291887E0,1.412320495E0
1.190625182E0,-6.957755089E-1,-1.748907208E0,1.426981211E0
1.192639343E0,-6.945537925E-1,-1.739744186E0,1.451415777E0
1.194622985E0,-6.860016584E-1,-1.729359508E0,1.482569933E0
1.196637145E0,-6.780604124E-1,-1.727526903E0,1.498452425E0
1.198651305E0,-6.566801667E-1,-1.725083470E0,1.528384805E0
1.200634948E0,-6.212499738E-1,-1.722640038E0,1.563204169E0
1.202679626E0,-5.992587805E-1,-1.722029090E0,1.586417079E0
1.204632751E0,-5.497786999E-1,-1.723250866E0,1.623068929E0
1.206646911E0,-4.966334403E-1,-1.726916075E0,1.662164330E0
1.208630553E0,-4.630358517E-1,-1.724472642E0,1.679268599E0
1.210614196E0,-3.854559660E-1,-1.687820673E0,1.705535769E0
1.212628356E0,-2.834414840E-1,-1.587638736E0,1.723250866E0
1.214611999E0,-2.290744632E-1,-1.518000126E0,1.733635545E0
1.216626159E0,-1.246165112E-1,-1.382387996E0,1.761735320E0
1.218609802E0,-2.015855350E-2,-1.261436701E0,1.802052498E0
1.220593444E0,2.443460934E-2,-1.211956620E0,1.828930497E0
1.222638122E0,1.111774743E-1,-1.131322384E0,1.889406204E0
1.224591247E0,1.997529417E-1,-1.051909924E0,1.955379605E0
1.226605407E0,2.412917763E-1,-1.007927656E0,1.989588141E0
1.228589050E0,3.237585723E-1,-9.266825914E-1,2.056172371E0
1.230572692E0,3.628539443E-1,-8.772025108E-1,2.087326527E0
1.232586852E0,4.373795092E-1,-7.861835957E-1,2.147802114E0
1.234570495E0,4.990769029E-1,-6.780604124E-1,2.197893143E0
1.236554137E0,5.290092826E-1,-6.224716902E-1,2.219884396E0
1.238568298E0,5.736024380E-1,-5.027421117E-1,2.262644768E0
1.240521423E0,6.084218025E-1,-3.848451078E-1,2.301129341E0
1.242566100E0,6.218608022E-1,-3.225368559E-1,2.323731422E0
1.244519225E0,6.371324658E-1,-2.058615834E-1,2.348776817E0
1.246533386E0,6.383541822E-1,-9.101892263E-2,2.378709316E0
1.248517028E0,6.340781450E-1,-3.298672289E-2,2.389704943E0
1.250531188E0,6.169738770E-1,6.230825558E-2,2.411695957E0
1.252545348E0,5.803219676E-1,1.417207420E-1,2.433687210E0
1.254498473E0,5.619960427E-1,1.771509200E-1,2.441628456E0
1.256512634E0,5.094616413E-1,2.266310006E-1,2.453845739E0
1.258496276E0,4.477642179E-1,2.553416789E-1,2.466673851E0
1.260510436E0,4.166100919E-1,2.681698501E-1,2.464841366E0
1.262555114E0,3.536909819E-1,2.803871334E-1,2.470949888E0
1.264477721E0,3.219259977E-1,2.779437006E-1,2.466063023E0
1.266491882E0,2.791654170E-1,2.577851415E-1,2.458121777E0
1.268475524E0,2.480112910E-1,2.119702399E-1,2.437352419E0
1.270489684E0,2.388483137E-1,1.759291887E-1,2.424524069E0
1.272473327E0,2.309070677E-1,7.513642311E-2,2.382374525E0
1.274456969E0,2.284636050E-1,-6.658431143E-2,2.335948706E0
1.276471130E0,2.345722616E-1,-1.447750628E-1,2.312124968E0
1.278424255E0,2.449569702E-1,-3.194825351E-1,2.266309977E0
1.280438415E0,2.700024247E-1,-5.057964325E-1,2.211943150E0
1.282452575E0,2.871066630E-1,-6.041457057E-1,2.188119411E0
1.284436218E0,3.268128932E-1,-8.002334833E-1,2.139250040E0
1.286419860E0,3.744603992E-1,-9.981538057E-1,2.097100496E0
1.288434020E0,4.013384581E-1,-1.094059706E0,2.080606937E0
1.290448180E0,4.569272101E-1,-1.276708364E0,2.048841953E0
1.292431823E0,5.192354321E-1,-1.433700681E0,2.027461767E0
1.294445983E0,5.473352671E-1,-1.505172014E0,2.021353006E0
1.296490661E0,6.096435189E-1,-1.626734138E0,2.009135723E0
1.298413268E0,6.352998614E-1,-1.678046823E0,2.006692410E0
1.300427428E0,6.884451509E-1,-1.756848454E0,1.999361992E0
1.302441589E0,7.324274182E-1,-1.805717707E0,1.989588141E0
1.304425231E0,7.525860071E-1,-1.820378423E0,1.983479500E0
1.306408874E0,7.825183868E-1,-1.825876236E0,1.974316478E0
1.308392516E0,8.008443117E-1,-1.813048005E0,1.963320851E0
1.310406677E0,8.051204085E-1,-1.798998117E0,1.957212210E0
1.312390319E0,8.045095205E-1,-1.751961470E0,1.949270964E0
1.314404479E0,7.965682745E-1,-1.691485882E0,1.948660135E0
1.316388122E0,7.880161405E-1,-1.655444860E0,1.944994926E0
1.318371764E0,7.678576112E-1,-1.583362699E0,1.948049307E0
1.320385925E0,7.434229851E-1,-1.514334917E0,1.953547001E0
1.322400085E0,7.269296646E-1,-1.477683067E0,1.958433986E0
1.324383727E0,7.018841505E-1,-1.415985584E0,1.971262097E0
1.326336852E0,6.817256212E-1,-1.372003317E0,1.984090328E0
1.328351012E0,6.713408828E-1,-1.356731653E0,1.989588141E0
1.330334655E0,6.481280327E-1,-1.335962296E0,1.999361992E0
1.332348815E0,6.243042946E-1,-1.326188445E0,2.009135723E0
1.334362975E0,6.120869517E-1,-1.320079803E0,2.010968447E0
1.336346618E0,5.876523852E-1,-1.318247199E0,2.007914066E0
1.338360778E0,5.723807216E-1,-1.324966669E0,2.003638029E0
1.340344421E0,5.473352671E-1,-1.337794900E0,1.995085835E0
1.342358581E0,5.100724697E-1,-1.362840414E0,1.980425119E0
1.344311706E0,4.978551865E-1,-1.373225093E0,1.975538254E0
1.346295348E0,4.654793143E-1,-1.402546644E0,1.962710023E0
1.348309509E0,4.349360466E-1,-1.425759435E0,1.948049307E0
1.350262634E0,4.221078753E-1,-1.434311628E0,1.941329718E0
1.352276794E0,3.995058835E-1,-1.456913590E0,1.930334210E0
1.354260436E0,3.817907870E-1,-1.474017859E0,1.921782017E0
1.356274596E0,3.787364662E-1,-1.478293896E0,1.913840771E0
1.358258239E0,3.402519524E-1,-1.459967971E0,1.877188921E0
1.360241882E0,2.822197378E-1,-1.390940189E0,1.792278647E0
1.362286559E0,2.596177161E-1,-1.330464482E0,1.750739813E0
1.364239684E0,2.339613885E-1,-1.236391306E0,1.670105577E0
1.366253844E0,2.235766798E-1,-1.149037480E0,1.623068929E0
1.368237487E0,2.309070677E-1,-1.112996459E0,1.615127683E0
1.370221130E0,2.419026345E-1,-1.057407737E0,1.601077795E0
1.372235290E0,2.504547536E-1,-1.033583999E0,1.599856019E0
1.374188415E0,2.651155293E-1,-9.859365225E-1,1.606575608E0
1.376202575E0,2.785545588E-1,-9.254608750E-1,1.636507988E0
1.378186218E0,2.895501256E-1,-8.973610401E-1,1.653001308E0
1.380169860E0,3.121521473E-1,-8.429940343E-1,1.679879427E0
1.382184020E0,3.316998184E-1,-7.751879692E-1,1.685377240E0
1.384137145E0,3.396410644E-1,-7.403686643E-1,1.681712031E0
1.386151305E0,3.707951903E-1,-6.750060916E-1,1.665829539E0
1.388104430E0,4.025602043E-1,-5.797111392E-1,1.634675384E0
1.390118591E0,4.166100919E-1,-5.314527750E-1,1.614516854E0
1.392132751E0,4.410447180E-1,-4.593706727E-1,1.573588848E0
1.394085876E0,4.532620013E-1,-3.860668242E-1,1.526552200E0
1.396100036E0,4.593706727E-1,-3.457497358E-1,1.503339410E0
1.398083678E0,4.563163519E-1,-2.730567753E-1,1.456913590E0
1.400097839E0,4.514294267E-1,-2.406809032E-1,1.432479024E0
1.402111999E0,4.318817258E-1,-1.795943826E-1,1.392161846E0
1.404095641E0,3.988949955E-1,-1.374446750E-1,1.354899168E0
1.406079284E0,3.817907870E-1,-1.203404516E-1,1.337794900E0
1.408093444E0,3.494149148E-1,-9.346238524E-2,1.309084177E0
1.410107604E0,3.225368559E-1,-8.063421398E-2,1.278540969E0
1.412060729E0,3.133738637E-1,-7.513642311E-2,1.262658477E0
1.414074889E0,2.877175212E-1,-7.269296050E-2,1.225395679E0
1.416058532E0,2.706133127E-1,-7.086037099E-2,1.176526427E0
1.418072692E0,2.651155293E-1,-6.841690838E-2,1.158200502E0
1.420056335E0,2.553416789E-1,-7.880161703E-2,1.114218235E0
1.422070495E0,2.522873580E-1,-9.651670605E-2,1.070846796E0
1.424023620E0,2.547308207E-1,-1.117883399E-1,1.048244715E0
1.426007262E0,2.571742535E-1,-1.411098689E-1,1.009149432E0
1.428021423E0,2.681698501E-1,-1.692096740E-1,9.718865752E-1
1.430005065E0,2.742784917E-1,-1.881465018E-1,9.511171579E-1
1.432019225E0,2.858849466E-1,-2.174680233E-1,9.242390990E-1
1.434002868E0,2.968805134E-1,-2.309070677E-1,9.126327038E-1
1.435986511E0,3.145956099E-1,-2.504547536E-1,8.863654733E-1
1.438000671E0,3.274237812E-1,-2.577851415E-1,8.692612648E-1
1.439984313E0,3.298672438E-1,-2.547308207E-1,8.600982428E-1
1.442028991E0,3.268128932E-1,-2.357939780E-1,8.429940343E-1
1.443982116E0,3.109304011E-1,-2.083050460E-1,8.283332586E-1
1.445996276E0,3.029891551E-1,-1.850921661E-1,8.258898258E-1
1.448010436E0,2.761110961E-1,-1.398881376E-1,8.161159754E-1
1.449994079E0,2.474004179E-1,-8.552113175E-2,8.155050874E-1
1.452008239E0,2.290744632E-1,-5.742133409E-2,8.179485798E-1
1.453991882E0,1.899790913E-1,0.000000000E0,8.210029006E-1
1.455975524E0,1.521054506E-1,5.619960278E-2,8.265006542E-1
1.457989684E0,1.343903542E-1,7.941248268E-2,8.338310719E-1
1.459973327E0,9.346238524E-2,1.270599663E-1,8.454375267E-1
1.462018005E0,5.009094998E-2,1.655444801E-1,8.588765264E-1
1.463971130E0,3.115412779E-2,1.844813079E-1,8.655960560E-1
1.465985290E0,-1.282817032E-2,2.168571651E-1,8.747590184E-1
1.467999450E0,-5.803219974E-2,2.394591719E-1,8.820894361E-1
1.469983093E0,-8.002334833E-2,2.504547536E-1,8.845328689E-1
1.471997253E0,-1.197295859E-1,2.651155293E-1,8.820894361E-1
1.473980895E0,-1.551597714E-1,2.748893499E-1,8.778133392E-1
1.475964538E0,-1.704314053E-1,2.761110961E-1,8.741481900E-1
1.477978698E0,-1.997529417E-1,2.840523422E-1,8.594874144E-1
1.479962341E0,-2.119702399E-1,2.877175212E-1,8.533787727E-1
1.482007018E0,-2.345722616E-1,2.889392674E-1,8.374962807E-1
1.483960143E0,-2.516764700E-1,2.901609838E-1,8.173376918E-1
1.485974303E0,-2.583959997E-1,2.895501256E-1,8.081747293E-1
1.487957946E0,-2.736676335E-1,2.840523422E-1,7.990117669E-1
1.489972106E0,-2.846632004E-1,2.730567753E-1,7.941248417E-1
1.491986266E0,-2.932153046E-1,2.657263875E-1,7.941248417E-1
1.493939391E0,-3.048217595E-1,2.492330223E-1,7.886270285E-1
1.495953552E0,-3.213151097E-1,2.193006277E-1,7.788531780E-1
1.497937194E0,-3.268128932E-1,2.040289938E-1,7.709119320E-1
1.499951354E0,-3.426954150E-1,1.808161139E-1,7.538077235E-1
1.501996032E0,-3.646865487E-1,1.637118906E-1,7.391469479E-1
1.503918639E0,-3.769038618E-1,1.539380401E-1,7.287622094E-1
1.505932800E0,-4.007275999E-1,1.411098689E-1,7.122688890E-1
1.507916442E0,-4.233296216E-1,1.172861308E-1,6.902777553E-1
1.509930602E0,-4.349360466E-1,1.069014147E-1,6.762278080E-1
1.511914245E0,-4.508185387E-1,8.063421398E-2,6.499606371E-1
1.513897887E0,-4.538728893E-1,7.024950534E-2,6.401867867E-1
1.515912048E0,-4.612032473E-1,4.703662544E-2,6.163630486E-1
1.517895690E0,-4.642575979E-1,2.199114859E-2,5.907067060E-1
1.519909850E0,-4.605923891E-1,9.773843922E-3,5.784893632E-1
1.521924011E0,-4.557054639E-1,-9.162978269E-3,5.552765131E-1
1.523877136E0,-4.428772926E-1,-2.382374369E-2,5.338962078E-1
1.525891296E0,-4.343251884E-1,-3.298672289E-2,5.235115290E-1
1.527844421E0,-4.184426963E-1,-4.276056588E-2,4.978551865E-1
1.529858581E0,-4.019493461E-1,-4.825835302E-2,4.789183438E-1
1.531842223E0,-3.897320330E-1,-5.253441259E-2,4.691445231E-1
1.533856384E0,-3.665191531E-1,-6.047565863E-2,4.502076805E-1
1.535840026E0,-3.475823104E-1,-5.986479297E-2,4.337143302E-1
1.537823669E0,-3.378084898E-1,-5.558873713E-2,4.257730842E-1
1.539837829E0,-3.139847219E-1,-5.070181563E-2,4.153883755E-1
1.541851989E0,-2.956587672E-1,-4.153883830E-2,4.025602043E-1
1.543835632E0,-2.846632004E-1,-3.970624134E-2,3.988949955E-1
1.545819274E0,-2.638937831E-1,-2.199114859E-2,3.921754956E-1
1.547802917E0,-2.535090744E-1,-1.221730467E-2,3.891211748E-1
1.549817077E0,-2.333505303E-1,1.404990070E-2,3.830125034E-1
1.551770202E0,-2.156354338E-1,4.153883830E-2,3.805690408E-1
1.553784362E0,-2.064724565E-1,5.192354694E-2,3.787364662E-1
1.555798522E0,-1.936442852E-1,8.368854225E-2,3.750712574E-1
1.557751647E0,-1.814269722E-1,1.044579595E-1,3.707951903E-1
1.559765807E0,-1.795943826E-1,1.203404516E-1,3.683517575E-1
1.561779968E0,-1.710422635E-1,1.441642046E-1,3.591887653E-1
1.563733093E0,-1.679879427E-1,1.624901593E-1,3.524692357E-1
1.565716735E0,-1.667662114E-1,1.704314053E-1,3.475823104E-1
1.567700378E0,-1.679879427E-1,1.893682331E-1,3.396410644E-1
1.569714538E0,-1.624901593E-1,2.229658216E-1,3.353650272E-1
1.571667663E0,-1.563815027E-1,2.443460971E-1,3.396410644E-1
1.573681823E0,-1.478293836E-1,2.663372457E-1,3.414736688E-1
1.575665466E0,-1.441642046E-1,2.773328125E-1,3.433062732E-1
1.577679626E0,-1.356120855E-1,2.816088796E-1,3.433062732E-1
1.579693786E0,-1.295034289E-1,2.895501256E-1,3.433062732E-1
1.581707946E0,-1.233947799E-1,2.926044464E-1,3.457497358E-1
1.583691589E0,-1.197295859E-1,2.895501256E-1,3.506366611E-1
1.585675231E0,-1.081231460E-1,2.816088796E-1,3.640756905E-1
1.587658874E0,-1.026253626E-1,2.712241709E-1,3.720169365E-1
1.589673034E0,-9.224065393E-2,2.492330223E-1,3.915646076E-1
1.591626159E0,-8.307767659E-2,2.125810981E-1,4.196644127E-1
1.593640319E0,-7.880161703E-2,1.875356287E-1,4.343251884E-1
1.595623962E0,-6.902777404E-2,1.270599663E-1,4.679227769E-1
1.597638122E0,-6.047565863E-2,6.536258012E-2,5.045747161E-1
1.599652282E0,-5.192354694E-2,3.359758854E-2,5.222898126E-1
1.601666442E0,-4.825835302E-2,-3.237585723E-2,5.564982295E-1
1.603650085E0,-3.970624134E-2,-9.162978828E-2,5.852088928E-1
1.605633727E0,-3.420845419E-2,-1.221730486E-1,5.949827433E-1
1.607647887E0,-3.298672289E-2,-1.667662114E-1,6.139195561E-1
1.609662048E0,-2.687807009E-2,-2.070833147E-1,6.224716902E-1
1.611645690E0,-2.504547499E-2,-2.235766798E-1,6.255260110E-1
1.613659850E0,-2.138028294E-2,-2.528982162E-1,6.298020482E-1
1.615643493E0,-1.404990070E-2,-2.791654170E-1,6.261368990E-1
1.617627136E0,-1.038470957E-2,-2.883284092E-1,6.224716902E-1
1.619641296E0,1.221730490E-3,-2.999348342E-1,6.120869517E-1
1.621655456E0,7.330383174E-3,-2.968805134E-1,6.059783101E-1
1.623639098E0,2.321287990E-2,-2.907718420E-1,6.004805565E-1
1.625622741E0,4.092797264E-2,-2.834414840E-1,5.937610269E-1
1.627606384E0,5.070181563E-2,-2.761110961E-1,5.968153477E-1
1.629620544E0,7.819075137E-2,-2.645046413E-1,5.894849896E-1
1.631604186E0,1.014036313E-1,-2.504547536E-1,5.882632136E-1
1.633618346E0,1.117883399E-1,-2.541199327E-1,5.882632136E-1
1.635601989E0,1.325577646E-1,-2.492330223E-1,5.845980644E-1
1.637585632E0,1.514945775E-1,-2.480112910E-1,5.809328556E-1
1.639599792E0,1.600466967E-1,-2.516764700E-1,5.797111392E-1
1.641613952E0,1.795943826E-1,-2.559525371E-1,5.791002512E-1
1.643597594E0,1.954768747E-1,-2.583959997E-1,5.803219676E-1
1.645550719E0,2.058615834E-1,-2.614503205E-1,5.815436840E-1
1.647564880E0,2.235766798E-1,-2.773328125E-1,5.876523852E-1
1.649548522E0,2.357939780E-1,-2.962696552E-1,6.010913849E-1
1.651562682E0,2.467895597E-1,-3.097086847E-1,6.096435189E-1
1.653576843E0,2.626720667E-1,-3.402519524E-1,6.261368990E-1
1.655529968E0,2.730567753E-1,-3.500257730E-1,6.395758986E-1
1.657544128E0,2.950479090E-1,-3.769038618E-1,6.603453159E-1
1.659527770E0,3.158173263E-1,-4.086688459E-1,6.780604124E-1
1.661572448E0,3.292563558E-1,-4.202753007E-1,6.835582256E-1
1.663525573E0,3.475823104E-1,-4.398229718E-1,6.957755089E-1
1.665509216E0,3.665191531E-1,-4.483750761E-1,7.061602473E-1
1.667523376E0,3.732386529E-1,-4.544837475E-1,7.079927921E-1
1.669507018E0,3.927863538E-1,-4.550946057E-1,7.104362845E-1
1.671521178E0,4.080579877E-1,-4.667010605E-1,7.098253965E-1
1.673535339E0,4.184426963E-1,-4.673119187E-1,7.067710757E-1
1.675488464E0,4.386012554E-1,-4.630358517E-1,6.988298297E-1
1.677502624E0,4.630358517E-1,-4.526511431E-1,6.890559793E-1
1.679486266E0,4.691445231E-1,-4.428772926E-1,6.896668673E-1
1.681500427E0,4.929682612E-1,-4.276056588E-1,6.853908300E-1
1.683453552E0,5.204572082E-1,-4.056145251E-1,6.902777553E-1
1.685437194E0,5.302310586E-1,-3.958406746E-1,6.945537925E-1
1.687451354E0,5.558874011E-1,-3.836233616E-1,7.000515461E-1
1.689434997E0,5.748242140E-1,-3.750712574E-1,7.018841505E-1
1.691449157E0,5.986479521E-1,-3.500257730E-1,7.098253965E-1
1.693432800E0,6.273586154E-1,-3.286454976E-1,7.134906054E-1
1.695446960E0,6.469063163E-1,-3.145956099E-1,7.171558142E-1
1.697430602E0,6.792821288E-1,-2.895501256E-1,7.195992470E-1
1.699414245E0,7.018841505E-1,-2.779437006E-1,7.238753438E-1
1.701428405E0,7.165449262E-1,-2.913827300E-1,7.293730974E-1
1.703412048E0,7.183775306E-1,-3.378084898E-1,7.360926270E-1
1.705365173E0,7.153232098E-1,-4.111123085E-1,7.428121567E-1
1.707379333E0,7.159340382E-1,-4.593706727E-1,7.446447611E-1
1.709362975E0,6.908885837E-1,-5.772676468E-1,7.452555895E-1
1.711346618E0,6.658431292E-1,-7.128797174E-1,7.391469479E-1
1.713360778E0,6.493497491E-1,-7.776314616E-1,7.330383062E-1
1.715344421E0,6.035348773E-1,-9.144652486E-1,7.208209634E-1
1.717358581E0,5.619960427E-1,-1.028086185E0,7.067710757E-1
1.719372741E0,5.369505286E-1,-1.075122833E0,7.000515461E-1
1.721356384E0,4.880813360E-1,-1.144150615E0,6.872233748E-1
1.723309509E0,4.642575979E-1,-1.172250390E0,6.805039048E-1
1.725323669E0,4.196644127E-1,-1.193630695E0,6.664539576E-1
1.727307311E0,3.683517575E-1,-1.213789225E0,6.597344875E-1
1.729290954E0,3.390302062E-1,-1.210734963E0,6.554583907E-1
1.731305114E0,2.877175212E-1,-1.185689449E0,6.517932415E-1
1.733288757E0,2.315179259E-1,-1.147204876E0,6.450737119E-1
1.735302917E0,2.028072625E-1,-1.117883444E0,6.426302195E-1
1.737317077E0,1.392772794E-1,-1.058018565E0,6.444628239E-1
1.739270202E0,8.124507964E-2,-9.676105380E-1,6.493497491E-1
1.741314880E0,4.581489414E-2,-9.187413454E-1,6.524040699E-1
1.743268005E0,-1.099557430E-2,-7.953465581E-1,6.585127115E-1
1.745282165E0,-6.414084882E-2,-6.579018831E-1,6.627888083E-1
1.747265807E0,-9.346238524E-2,-5.937610269E-1,6.603453159E-1
1.749249450E0,-1.545489132E-1,-4.795292318E-1,6.652322412E-1
1.751263610E0,-1.912008226E-1,-3.396410644E-1,6.627888083E-1
1.753247253E0,-2.113593817E-1,-2.718350291E-1,6.572909951E-1
1.755261413E0,-2.260201424E-1,-1.472185254E-1,6.426302195E-1
1.757245055E0,-2.290744632E-1,-9.712757170E-2,6.304129362E-1
1.759228698E0,-2.254092693E-1,9.162978269E-3,6.059783101E-1
1.761273376E0,-2.015855312E-1,1.044579595E-1,5.760459304E-1
1.763226501E0,-1.820378453E-1,1.404990107E-1,5.571091175E-1
1.765240661E0,-1.331686229E-1,2.217440903E-1,5.149593949E-1
1.767224303E0,-7.880161703E-2,2.712241709E-1,4.703662395E-1
1.769207946E0,-4.764748737E-2,2.932153046E-1,4.483750761E-1
1.771222106E0,2.076941915E-2,3.029891551E-1,4.019493461E-1
1.773175231E0,9.712757170E-2,3.054326177E-1,3.524692357E-1
1.775189391E0,1.362229437E-1,2.883284092E-1,3.310889602E-1
1.777173034E0,2.193006277E-1,2.541199327E-1,2.822197378E-1
1.779156677E0,2.999348342E-1,2.156354338E-1,2.382374406E-1
1.781201354E0,3.359758854E-1,1.954768747E-1,2.156354338E-1
1.783154479E0,4.111123085E-1,1.478293836E-1,1.734857261E-1
1.785168639E0,4.734205604E-1,7.391469181E-2,1.362229437E-1
1.787152282E0,5.015203953E-1,3.909537569E-2,1.191187203E-1
1.789166442E0,5.528330207E-1,-7.941247895E-3,8.124507964E-2
1.791180602E0,5.760459304E-1,-3.604105115E-2,6.108652428E-2
1.793133727E0,6.126978397E-1,-7.941248268E-2,2.443460934E-2
1.795147887E0,6.365215778E-1,-1.099557430E-1,-6.108652335E-3
1.797131530E0,6.395758986E-1,-1.172861308E-1,-1.893682219E-2
1.799145690E0,6.456845403E-1,-1.282816976E-1,-4.337143153E-2
1.801159850E0,6.407976151E-1,-1.276708394E-1,-6.414084882E-2
1.803143493E0,6.371324658E-1,-1.264491081E-1,-7.635815442E-2
1.805127136E0,6.218608022E-1,-1.093448773E-1,-9.224065393E-2
1.807141296E0,5.968153477E-1,-9.162978828E-2,-1.026253626E-1
1.809155456E0,5.852088928E-1,-8.124507964E-2,-1.093448773E-1
1.811108581E0,5.503895879E-1,-5.681046844E-2,-1.209513173E-1
1.813122741E0,5.167919993E-1,-4.214970022E-2,-1.301143020E-1
1.815106384E0,4.948008358E-1,-3.543018550E-2,-1.337794960E-1
1.817120544E0,4.502076805E-1,-1.282817032E-2,-1.411098689E-1
1.819104186E0,4.025602043E-1,-7.330383174E-3,-1.453859210E-1
1.821118346E0,3.750712574E-1,-3.665191587E-3,-1.459967941E-1
1.823101989E0,3.329215646E-1,-1.160643995E-2,-1.423316002E-1
1.825055114E0,3.078760803E-1,-1.588249579E-2,-1.423316002E-1
1.827069274E0,2.651155293E-1,-2.626720630E-2,-1.374446750E-1
1.829052917E0,2.290744632E-1,-4.398229718E-2,-1.307251602E-1
1.831067077E0,2.138028294E-1,-4.886921868E-2,-1.276708394E-1
1.833081237E0,1.893682331E-1,-6.597344577E-2,-1.172861308E-1
1.835034362E0,1.728748679E-1,-8.063421398E-2,-1.111774743E-1
1.837048522E0,1.698205322E-1,-8.613199741E-2,-1.087340117E-1
1.839032165E0,1.643227488E-1,-9.468411654E-2,-1.081231460E-1
1.841076843E0,1.661553532E-1,-8.429940045E-2,-1.075122803E-1
1.843029968E0,1.692096740E-1,-7.574728876E-2,-1.056796908E-1
1.845013610E0,1.789835095E-1,-6.169738993E-2,-1.038470939E-1
1.847027770E0,1.899790913E-1,-4.825835302E-2,-9.590584040E-2
1.849011413E0,1.960877478E-1,-4.092797264E-2,-9.162978828E-2
1.851025573E0,2.083050460E-1,-2.565634064E-2,-8.307767659E-2
1.853009216E0,2.217440903E-1,-4.276056774E-3,-7.635815442E-2
1.854992858E0,2.296853364E-1,4.886921961E-3,-6.841690838E-2
1.857007018E0,2.461786866E-1,2.260201424E-2,-6.230825558E-2
1.858990661E0,2.553416789E-1,3.115412779E-2,-5.925392732E-2
1.861035339E0,2.730567753E-1,5.619960278E-2,-5.375614017E-2
1.862988464E0,2.932153046E-1,7.574728876E-2,-4.642575979E-2
1.865002624E0,3.011565804E-1,8.552113175E-2,-4.642575979E-2
1.867016784E0,3.200933933E-1,9.773843735E-2,-4.276056588E-2
1.869000427E0,3.359758854E-1,1.105666086E-1,-5.131268129E-2
1.870984069E0,3.414736688E-1,1.172861308E-1,-4.886921868E-2
1.872967712E0,3.530801237E-1,1.191187203E-1,-5.070181563E-2
1.874951354E0,3.567453027E-1,1.130100712E-1,-5.986479297E-2
1.876965514E0,3.622430861E-1,1.130100712E-1,-6.352998316E-2
1.878949157E0,3.646865487E-1,1.020144969E-1,-7.086037099E-2
1.880993835E0,3.683517575E-1,9.040805697E-2,-7.819075137E-2
1.882946960E0,3.640756905E-1,8.246681094E-2,-8.063421398E-2
1.884961120E0,3.628539443E-1,6.780604273E-2,-8.491026610E-2
1.886944762E0,3.597996235E-1,4.459316283E-2,-8.979719132E-2
1.888958923E0,3.561344445E-1,3.543018550E-2,-9.040805697E-2
1.890942565E0,3.518583775E-1,1.221730467E-2,-8.979719132E-2
1.892926208E0,3.451388776E-1,-2.443460980E-3,-8.674286306E-2
1.894940368E0,3.475823104E-1,-9.773843922E-3,-8.429940045E-2
1.896924011E0,3.433062732E-1,-9.162978269E-3,-7.941248268E-2
1.898938171E0,3.408628106E-1,-1.588249579E-2,-7.452555746E-2
1.900952331E0,3.420845270E-1,-1.527163107E-2,-6.536258012E-2
1.902905456E0,3.426954150E-1,-1.710422710E-2,-5.009094998E-2
1.904919616E0,3.384193480E-1,-1.527163107E-2,-4.214970022E-2
1.906872741E0,3.347541690E-1,-2.871066704E-2,-2.321287990E-2
1.908886901E0,3.335324228E-1,-3.604105115E-2,-6.108652335E-3
1.910870544E0,3.304781020E-1,-3.909537569E-2,1.832595794E-3
1.912884704E0,3.243694305E-1,-4.153883830E-2,2.076941915E-2
1.914898864E0,3.133738637E-1,-4.153883830E-2,3.665191308E-2
1.916851989E0,3.127630055E-1,-3.726277873E-2,4.642575979E-2
1.918866149E0,3.017674387E-1,-3.543018550E-2,6.169738993E-2
1.920880309E0,2.871066630E-1,-2.809980139E-2,7.513642311E-2
1.922863952E0,2.785545588E-1,-2.932153270E-2,7.880161703E-2
1.924847594E0,2.577851415E-1,-2.748893574E-2,8.857546002E-2
1.926831237E0,2.351831198E-1,-2.321287990E-2,1.044579595E-1
1.928845397E0,2.260201424E-1,-1.832595654E-2,1.044579595E-1
1.930829040E0,2.040289938E-1,-1.038470957E-2,1.093448773E-1
1.932843200E0,1.918116808E-1,-9.773843922E-3,1.142318025E-1
1.934826843E0,1.643227488E-1,-7.941247895E-3,1.123992056E-1
1.936810485E0,1.404990107E-1,-1.893682219E-2,1.172861308E-1
1.938824645E0,1.282816976E-1,-1.832595654E-2,1.154535338E-1
1.940838805E0,1.087340117E-1,-1.954768784E-2,1.111774743E-1
1.942822448E0,9.162978828E-2,-1.466076635E-2,1.075122803E-1
1.944806091E0,8.429940045E-2,-1.466076635E-2,1.056796908E-1
1.946820251E0,6.230825558E-2,-1.588249579E-2,9.834930301E-2
1.948834411E0,4.276056588E-2,-3.298672289E-2,9.101892263E-2
1.950787536E0,3.237585723E-2,-3.970624134E-2,8.491026610E-2
1.952801696E0,1.099557430E-2,-5.742133409E-2,7.513642311E-2
1.954785339E0,-1.221730467E-2,-8.124507964E-2,6.291911751E-2
1.956799499E0,-2.443460934E-2,-9.224065393E-2,5.742133409E-2
1.958783141E0,-4.459316283E-2,-1.148426682E-1,3.909537569E-2
1.960797302E0,-5.803219974E-2,-1.356120855E-1,2.565634064E-2
1.962750427E0,-6.597344577E-2,-1.496619880E-1,1.710422710E-2
1.964764587E0,-7.574728876E-2,-1.820378453E-1,1.832595794E-3
1.966778747E0,-7.819075137E-2,-2.113593817E-1,-1.160643995E-2
1.968731872E0,-8.002334833E-2,-2.254092693E-1,-1.649336144E-2
1.970746032E0,-7.880161703E-2,-2.645046413E-1,-2.993239649E-2
1.972729675E0,-7.880161703E-2,-2.858849466E-1,-3.420845419E-2
1.974743835E0,-7.574728876E-2,-3.316998184E-1,-3.970624134E-2
1.976757995E0,-6.963863969E-2,-3.744603992E-1,-4.703662544E-2
1.978711120E0,-6.414084882E-2,-4.013384581E-1,-4.886921868E-2
1.980755798E0,-5.619960278E-2,-4.593706727E-1,-5.192354694E-2
1.982708923E0,-5.009094998E-2,-5.326744914E-1,-5.558873713E-2
1.984723083E0,-4.581489414E-2,-5.736024380E-1,-5.619960278E-2
1.986706725E0,-3.604105115E-2,-6.536257863E-1,-5.681046844E-2
1.988690368E0,-2.138028294E-2,-7.202101350E-1,-5.803219974E-2
1.990704528E0,-1.527163107E-2,-7.446447611E-1,-5.925392732E-2
1.992688171E0,3.665191587E-3,-7.800748944E-1,-6.169738993E-2
1.994702331E0,1.893682219E-2,-8.167268038E-1,-5.619960278E-2
1.996685973E0,2.809980139E-2,-8.399397135E-1,-5.619960278E-2
1.998669616E0,3.970624134E-2,-8.796459436E-1,-5.925392732E-2
2.000683776E0,5.131268129E-2,-9.095783234E-1,-6.352998316E-2
2.002636901E0,5.436700583E-2,-9.224064946E-1,-6.291911751E-2
2.004651061E0,6.169738993E-2,-9.584475756E-1,-5.864306539E-2
2.006634704E0,6.291911751E-2,-9.767735004E-1,-4.948008433E-2
2.008648864E0,5.742133409E-2,-1.025642753E0,-3.176499158E-2
2.010632507E0,4.581489414E-2,-1.059851170E0,-4.276056774E-3
2.012616149E0,3.848451003E-2,-1.078177214E0,1.649336144E-2
2.014630309E0,2.382374369E-2,-1.086118460E0,5.131268129E-2
2.016613952E0,2.443460980E-3,-1.078788042E0,7.757988572E-2
2.018628112E0,-9.773843922E-3,-1.075122833E0,9.285151958E-2
2.020642272E0,-4.031710699E-2,-1.054964304E0,1.264491081E-1
2.022595397E0,-7.452555746E-2,-1.029918790E0,1.533271819E-1
2.024579040E0,-8.979719132E-2,-1.015868902E0,1.649336219E-1
2.026562682E0,-1.191187203E-1,-9.969320893E-1,1.863138974E-1
2.028576843E0,-1.527163088E-1,-9.694431424E-1,2.021963894E-1
2.030560485E0,-1.667662114E-1,-9.578366876E-1,2.131919712E-1
2.032544128E0,-1.918116808E-1,-9.437867999E-1,2.241875380E-1
2.034558288E0,-2.009746730E-1,-9.346238375E-1,2.272418737E-1
2.036541930E0,-2.199114859E-1,-9.291260242E-1,2.351831198E-1
2.038556091E0,-2.370157093E-1,-9.224064946E-1,2.339613885E-1
2.040570251E0,-2.443460971E-1,-9.199630618E-1,2.364048511E-1
2.042523376E0,-2.559525371E-1,-9.162978530E-1,2.351831198E-1
2.044537536E0,-2.645046413E-1,-8.985827565E-1,2.376265824E-1
2.046490661E0,-2.718350291E-1,-8.979719281E-1,2.394591719E-1
2.048504821E0,-2.791654170E-1,-8.906415105E-1,2.449569702E-1
2.050488464E0,-2.889392674E-1,-8.790351152E-1,2.522873580E-1
2.052502624E0,-2.926044464E-1,-8.833111525E-1,2.547308207E-1
2.054516784E0,-2.956587672E-1,-8.723155856E-1,2.553416789E-1
2.056500427E0,-2.999348342E-1,-8.655960560E-1,2.596177161E-1
2.058514587E0,-2.999348342E-1,-8.594874144E-1,2.626720667E-1
2.060528747E0,-3.005456924E-1,-8.509352803E-1,2.693915665E-1
2.062512389E0,-2.999348342E-1,-8.362745047E-1,2.742784917E-1
2.064526550E0,-3.017674387E-1,-8.313875794E-1,2.761110961E-1
2.066479675E0,-2.987131178E-1,-8.265006542E-1,2.852740586E-1
2.068493835E0,-3.011565804E-1,-8.179485798E-1,2.974913716E-1
2.070477477E0,-3.011565804E-1,-8.118399382E-1,3.042109013E-1
2.072491637E0,-3.048217595E-1,-7.990117669E-1,3.200933933E-1
2.074505798E0,-3.066543639E-1,-7.935139537E-1,3.310889602E-1
2.076458923E0,-3.084869385E-1,-7.678576112E-1,3.463605940E-1
2.078473083E0,-3.097086847E-1,-7.318165898E-1,3.689626157E-1
2.080487243E0,-3.164281845E-1,-7.177666426E-1,3.793473244E-1
2.082470886E0,-3.200933933E-1,-6.853908300E-1,3.940080702E-1
2.084454528E0,-3.255911767E-1,-6.676757336E-1,4.184426963E-1
2.086438171E0,-3.292563558E-1,-6.621779203E-1,4.318817258E-1
2.088452331E0,-3.359758854E-1,-6.682865620E-1,4.520402849E-1
2.090435973E0,-3.426954150E-1,-6.676757336E-1,4.703662395E-1
2.092450134E0,-3.463605940E-1,-6.701191664E-1,4.789183438E-1
2.094494811E0,-3.530801237E-1,-6.719517708E-1,4.801400900E-1
2.096417419E0,-3.640756905E-1,-6.585127115E-1,4.795292318E-1
2.098431579E0,-3.701843321E-1,-6.499606371E-1,4.819726646E-1
2.100445739E0,-3.817907870E-1,-6.261368990E-1,4.764748812E-1
2.102398864E0,-3.921754956E-1,-5.974262357E-1,4.697553813E-1
2.104413024E0,-3.964515328E-1,-5.870414972E-1,4.654793143E-1
2.106366149E0,-4.019493461E-1,-5.778785348E-1,4.612032473E-1
2.108380309E0,-4.080579877E-1,-5.736024380E-1,4.642575979E-1
2.110363952E0,-4.184426963E-1,-5.803219676E-1,4.532620013E-1
2.112378112E0,-4.288274050E-1,-5.815436840E-1,4.502076805E-1
2.114392272E0,-4.318817258E-1,-5.772676468E-1,4.453207552E-1
2.116345397E0,-4.471533597E-1,-5.491678715E-1,4.367686510E-1
2.118359557E0,-4.593706727E-1,-5.204572082E-1,4.269948006E-1
2.120373718E0,-4.654793143E-1,-5.094616413E-1,4.251621962E-1
2.122357360E0,-4.795292318E-1,-4.838052690E-1,4.190535545E-1
2.124341003E0,-4.905247986E-1,-4.587597847E-1,4.172209501E-1
2.126324645E0,-4.911356568E-1,-4.428772926E-1,4.135557711E-1
2.128338805E0,-5.009095073E-1,-4.025602043E-1,4.068362415E-1
2.130322448E0,-5.057964325E-1,-3.561344445E-1,4.007275999E-1
2.132336608E0,-5.088507533E-1,-3.231477141E-1,3.964515328E-1
2.134320251E0,-5.131267905E-1,-2.663372457E-1,3.848451078E-1
2.136303893E0,-5.131267905E-1,-2.107485086E-1,3.646865487E-1
2.138318053E0,-5.143485069E-1,-1.912008226E-1,3.567453027E-1
2.140332214E0,-5.100724697E-1,-1.600466967E-1,3.353650272E-1
2.142315856E0,-5.051855445E-1,-1.533271819E-1,3.243694305E-1
2.144299499E0,-4.990769029E-1,-1.508837193E-1,2.993239760E-1
2.146283141E0,-4.844161272E-1,-1.600466967E-1,2.681698501E-1
2.148297302E0,-4.746423066E-1,-1.661553532E-1,2.535090744E-1
2.150280944E0,-4.581489265E-1,-1.740965992E-1,2.186897546E-1
2.152295104E0,-4.318817258E-1,-1.814269722E-1,1.826487035E-1
2.154309264E0,-4.172209501E-1,-1.814269722E-1,1.643227488E-1
2.156262389E0,-3.878994286E-1,-1.814269722E-1,1.288925707E-1
2.158276550E0,-3.494149148E-1,-1.740965992E-1,9.712757170E-2
2.160290710E0,-3.316998184E-1,-1.661553532E-1,7.941248268E-2
2.162274352E0,-2.883284092E-1,-1.423316002E-1,5.070181563E-2
2.164257995E0,-2.394591719E-1,-1.185078546E-1,2.260201424E-2
2.166241637E0,-2.150245607E-1,-1.062905490E-1,1.282817032E-2
2.168255798E0,-1.728748679E-1,-8.918632567E-2,-7.941247895E-3
2.170239440E0,-1.264491081E-1,-8.429940045E-2,-2.260201424E-2
2.172253600E0,-1.075122803E-1,-9.285151958E-2,-2.748893574E-2
2.174267761E0,-7.452555746E-2,-1.081231460E-1,-3.604105115E-2
2.176220886E0,-5.070181563E-2,-1.307251602E-1,-4.031710699E-2
2.178235046E0,-3.848451003E-2,-1.429424733E-1,-4.092797264E-2
2.180249206E0,-2.565634064E-2,-1.704314053E-1,-3.726277873E-2
2.182232848E0,-2.015855350E-2,-1.777617931E-1,-3.787364438E-2
2.184216491E0,-1.588249579E-2,-1.973094791E-1,-3.909537569E-2
2.186200134E0,-1.038470957E-2,-2.089159191E-1,-3.726277873E-2
2.188214294E0,-1.038470957E-2,-2.144137025E-1,-3.604105115E-2
2.190197936E0,-1.160643995E-2,-2.168571651E-1,-3.054326214E-2
2.192181579E0,-9.773843922E-3,-2.162462920E-1,-2.687807009E-2
2.194195739E0,-1.099557430E-2,-2.095267773E-1,-2.809980139E-2
2.196179382E0,-8.552113548E-3,-1.912008226E-1,-2.565634064E-2
2.198193542E0,-2.443460980E-3,-1.624901593E-1,-2.321287990E-2
2.200207702E0,1.221730490E-3,-1.490511149E-1,-2.321287990E-2
2.202191344E0,9.773843922E-3,-1.252273768E-1,-1.771509275E-2
2.204174987E0,1.649336144E-2,-1.062905490E-1,-1.404990070E-2
2.206158630E0,2.260201424E-2,-9.712757170E-2,-1.466076635E-2
2.208172790E0,2.809980139E-2,-8.063421398E-2,-1.343903504E-2
2.210156432E0,3.481931984E-2,-6.841690838E-2,-1.954768784E-2
2.212170593E0,4.214970022E-2,-6.352998316E-2,-1.893682219E-2
2.214154235E0,4.825835302E-2,-5.864306539E-2,-2.199114859E-2
2.216137878E0,5.070181563E-2,-5.131268129E-2,-2.260201424E-2
2.218152038E0,5.497787148E-2,-4.398229718E-2,-2.260201424E-2
2.220135680E0,5.558873713E-2,-4.031710699E-2,-2.565634064E-2
2.222119323E0,5.681046844E-2,-3.543018550E-2,-2.687807009E-2
2.224072448E0,5.742133409E-2,-3.359758854E-2,-1.710422710E-2
2.226086608E0,5.742133409E-2,-2.626720630E-2,-3.665191587E-3
2.228070251E0,5.436700583E-2,-2.565634064E-2,3.054326167E-3
2.230053893E0,5.253441259E-2,-2.687807009E-2,1.710422710E-2
2.232068053E0,4.581489414E-2,-2.504547499E-2,2.871066704E-2
2.234021178E0,4.581489414E-2,-2.565634064E-2,3.481931984E-2
2.236035339E0,3.909537569E-2,-3.237585723E-2,4.337143153E-2
2.238018981E0,3.481931984E-2,-3.970624134E-2,5.314527452E-2
2.240063659E0,2.993239649E-2,-3.726277873E-2,5.436700583E-2
2.242016784E0,2.748893574E-2,-3.115412779E-2,5.986479297E-2
2.244000427E0,2.871066704E-2,-3.176499158E-2,5.681046844E-2
2.246014587E0,2.809980139E-2,-3.726277873E-2,5.742133409E-2
2.247998229E0,2.871066704E-2,-4.459316283E-2,5.925392732E-2
2.250012389E0,2.993239649E-2,-4.398229718E-2,5.619960278E-2
2.252026550E0,3.176499158E-2,-4.092797264E-2,5.314527452E-2
2.253979675E0,3.665191308E-2,-3.970624134E-2,5.192354694E-2
2.255993835E0,3.787364438E-2,-3.726277873E-2,4.764748737E-2
2.257977477E0,3.970624134E-2,-3.237585723E-2,4.581489414E-2
2.260022155E0,4.153883830E-2,-2.138028294E-2,4.642575979E-2
2.261975280E0,4.337143153E-2,-1.832595654E-2,4.642575979E-2
2.263958923E0,4.764748737E-2,-1.343903504E-2,5.070181563E-2
2.265973083E0,5.131268129E-2,-9.773843922E-3,5.253441259E-2
2.267926208E0,5.131268129E-2,-4.886921961E-3,5.681046844E-2
2.269940368E0,5.803219974E-2,4.886921961E-3,6.047565863E-2
2.271924011E0,6.352998316E-2,1.160643995E-2,6.291911751E-2
2.273938171E0,6.352998316E-2,1.649336144E-2,6.475171447E-2
2.275952331E0,6.841690838E-2,3.054326214E-2,7.147123665E-2
2.277905456E0,7.086037099E-2,3.665191308E-2,7.086037099E-2
2.279950134E0,7.880161703E-2,3.909537569E-2,7.513642311E-2
2.281903259E0,8.246681094E-2,4.092797264E-2,7.941248268E-2
2.283917419E0,8.368854225E-2,4.459316283E-2,8.307767659E-2
2.285901061E0,8.918632567E-2,5.009094998E-2,8.674286306E-2
2.287884704E0,9.407325089E-2,4.886921868E-2,8.918632567E-2
2.289898864E0,9.529497474E-2,5.131268129E-2,9.162978828E-2
2.291882507E0,9.896016866E-2,5.497787148E-2,9.651670605E-2
2.293896667E0,1.020144969E-1,5.803219974E-2,1.007927656E-1
2.295880309E0,1.001819000E-1,6.719517708E-2,1.007927656E-1
2.297863952E0,9.957103431E-2,7.941248268E-2,1.050688252E-1
2.299908630E0,9.529497474E-2,8.918632567E-2,1.111774743E-1
2.301861755E0,9.712757170E-2,9.285151958E-2,1.148426682E-1
2.303875915E0,8.857546002E-2,9.834930301E-2,1.203404516E-1
2.305859557E0,8.429940045E-2,1.117883399E-1,1.233947799E-1
2.307873718E0,8.307767659E-2,1.130100712E-1,1.264491081E-1
2.309887878E0,7.513642311E-2,1.117883399E-1,1.350012124E-1
2.311871520E0,6.719517708E-2,1.203404516E-1,1.386664063E-1
2.313885680E0,5.986479297E-2,1.264491081E-1,1.386664063E-1
2.315899841E0,4.886921868E-2,1.319468915E-1,1.472185254E-1
2.317852966E0,4.520402849E-2,1.368338168E-1,1.502728462E-1
2.319897643E0,3.054326214E-2,1.490511149E-1,1.533271819E-1
2.321850768E0,1.832595654E-2,1.576032341E-1,1.618792862E-1
2.323864928E0,1.038470957E-2,1.655444801E-1,1.661553532E-1
2.325848571E0,-8.552113548E-3,1.820378453E-1,1.820378453E-1
2.327862731E0,-2.748893574E-2,2.028072625E-1,1.899790913E-1
2.329876891E0,-3.909537569E-2,2.156354338E-1,1.991420686E-1
2.331830016E0,-6.597344577E-2,2.180788964E-1,2.125810981E-1
2.333844177E0,-9.285151958E-2,2.064724565E-1,2.186897546E-1
2.335827819E0,-1.050688252E-1,2.009746730E-1,2.199114859E-1
2.337841979E0,-1.301143020E-1,1.740965992E-1,2.223549485E-1
2.339856139E0,-1.576032341E-1,1.478293836E-1,2.272418737E-1
2.341809264E0,-1.679879427E-1,1.337794960E-1,2.315179259E-1
2.343823425E0,-1.881465018E-1,1.050688252E-1,2.382374406E-1
2.345807067E0,-2.040289938E-1,7.757988572E-2,2.370157093E-1
2.347821227E0,-2.095267773E-1,7.208210230E-2,2.382374406E-1
2.349835387E0,-2.199114859E-1,6.658431143E-2,2.419026345E-1
2.351819030E0,-2.235766798E-1,7.330382615E-2,2.412917763E-1
2.353833190E0,-2.235766798E-1,7.452555746E-2,2.388483137E-1
2.355847350E0,-2.229658216E-1,6.902777404E-2,2.412917763E-1
2.357830993E0,-2.162462920E-1,4.825835302E-2,2.400700450E-1
2.359875671E0,-2.113593817E-1,3.848451003E-2,2.327396572E-1
2.361828796E0,-1.960877478E-1,2.382374369E-2,2.247984111E-1
2.363842956E0,-1.875356287E-1,2.199114859E-2,2.156354338E-1
2.365826598E0,-1.649336219E-1,3.665191308E-2,1.979203373E-1
2.367810241E0,-1.374446750E-1,5.558873713E-2,1.795943826E-1
2.369824401E0,-1.288925707E-1,7.208210230E-2,1.753183305E-1
2.371808044E0,-1.014036313E-1,9.590584040E-2,1.582140923E-1
2.373822204E0,-7.269296050E-2,1.197295859E-1,1.447750628E-1
2.375836364E0,-5.803219974E-2,1.313360333E-1,1.350012124E-1
2.377820007E0,-3.237585723E-2,1.404990107E-1,1.185078546E-1
2.379864684E0,-3.054326167E-3,1.472185254E-1,1.038470939E-1
2.381817809E0,1.282817032E-2,1.490511149E-1,9.101892263E-2
2.383831969E0,4.153883830E-2,1.368338168E-1,6.475171447E-2
2.385815612E0,7.208210230E-2,1.191187203E-1,4.153883830E-2
2.387799255E0,8.491026610E-2,1.123992056E-1,2.687807009E-2
2.389813415E0,1.154535338E-1,9.712757170E-2,1.832595794E-3
2.391797057E0,1.441642046E-1,9.712757170E-2,-2.687807009E-2
2.393811218E0,1.588249654E-1,9.896016866E-2,-3.787364438E-2
2.395825378E0,1.832595766E-1,1.142318025E-1,-5.864306539E-2
2.397809020E0,2.064724565E-1,1.166752651E-1,-7.757988572E-2
2.399853698E0,2.150245607E-1,1.191187203E-1,-8.735372871E-2
2.401806823E0,2.351831198E-1,1.233947799E-1,-1.044579595E-1
2.403820983E0,2.419026345E-1,1.233947799E-1,-1.111774743E-1
2.405835143E0,2.571742535E-1,1.209513173E-1,-1.276708394E-1
2.407788268E0,2.675589919E-1,1.142318025E-1,-1.423316002E-1
2.409802428E0,2.730567753E-1,1.056796908E-1,-1.466076523E-1
2.411786071E0,2.816088796E-1,9.590584040E-2,-1.594358236E-1
2.413769714E0,2.864958048E-1,8.063421398E-2,-1.673770845E-1
2.415783874E0,2.871066630E-1,8.002334833E-2,-1.740965992E-1
2.417736999E0,2.895501256E-1,6.475171447E-2,-1.808161139E-1
2.419781677E0,2.901609838E-1,5.375614017E-2,-1.869247705E-1
2.421734802E0,2.889392674E-1,4.825835302E-2,-1.893682331E-1
2.423748962E0,2.871066630E-1,4.092797264E-2,-1.918116808E-1
2.425732604E0,2.828305960E-1,4.276056588E-2,-1.948660165E-1
2.427716247E0,2.822197378E-1,3.726277873E-2,-1.948660165E-1
2.429730407E0,2.791654170E-1,3.665191308E-2,-1.948660165E-1
2.431714050E0,2.785545588E-1,2.871066704E-2,-1.936442852E-1
2.433728210E0,2.773328125E-1,2.138028294E-2,-1.930334121E-1
2.435742370E0,2.767219543E-1,1.099557430E-2,-1.918116808E-1
2.437695495E0,2.767219543E-1,3.665191587E-3,-1.893682331E-1
2.439740173E0,2.730567753E-1,-1.221730490E-3,-1.802052408E-1
2.441693298E0,2.724458873E-1,6.108652451E-4,-1.649336219E-1
2.443707458E0,2.712241709E-1,1.832595794E-3,-1.594358236E-1
2.445691100E0,2.651155293E-1,7.330383174E-3,-1.429424733E-1
2.447674743E0,2.602286041E-1,7.941247895E-3,-1.252273768E-1
2.449688903E0,2.596177161E-1,1.404990070E-2,-1.123992056E-1
2.451642028E0,2.553416789E-1,1.771509275E-2,-8.674286306E-2
2.453656188E0,2.492330223E-1,2.504547499E-2,-6.352998316E-2
2.455639831E0,2.461786866E-1,3.054326214E-2,-5.131268129E-2
2.457653991E0,2.388483137E-1,3.970624134E-2,-2.076941915E-2
2.459698669E0,2.296853364E-1,5.192354694E-2,9.162978269E-3
2.461651794E0,2.235766798E-1,5.742133409E-2,2.260201424E-2
2.463665954E0,2.150245607E-1,7.269296050E-2,4.886921868E-2
2.465649596E0,2.040289938E-1,8.124507964E-2,7.391469181E-2
2.467663757E0,1.985312104E-1,8.674286306E-2,8.246681094E-2
2.469677917E0,1.802052408E-1,9.896016866E-2,1.020144969E-1
2.471661559E0,1.673770845E-1,9.834930301E-2,1.197295859E-1
2.473675719E0,1.588249654E-1,9.651670605E-2,1.295034289E-1
2.475659362E0,1.417207420E-1,9.468411654E-2,1.398881376E-1
2.477643005E0,1.313360333E-1,9.101892263E-2,1.453859210E-1
2.479687682E0,1.148426682E-1,7.757988572E-2,1.527163088E-1
2.481640807E0,9.712757170E-2,6.475171447E-2,1.594358236E-1
2.483654968E0,9.101892263E-2,5.864306539E-2,1.588249654E-1
2.485638610E0,7.513642311E-2,4.031710699E-2,1.612684280E-1
2.487622253E0,6.230825558E-2,3.665191308E-2,1.643227488E-1
2.489636413E0,5.497787148E-2,2.993239649E-2,1.649336219E-1
2.491620055E0,4.642575979E-2,2.565634064E-2,1.734857261E-1
2.493664733E0,3.787364438E-2,2.076941915E-2,1.716531366E-1
2.495648376E0,3.420845419E-2,1.771509275E-2,1.728748679E-1
2.497632018E0,2.687807009E-2,2.199114859E-2,1.728748679E-1
2.499676696E0,2.138028294E-2,2.504547499E-2,1.716531366E-1
2.501629821E0,1.893682219E-2,2.504547499E-2,1.692096740E-1
2.503613464E0,1.221730467E-2,2.443460934E-2,1.673770845E-1
2.505627624E0,7.941247895E-3,2.626720630E-2,1.618792862E-1
2.507611266E0,7.941247895E-3,2.321287990E-2,1.612684280E-1
2.509594909E0,3.665191587E-3,2.015855350E-2,1.551597714E-1
2.511609069E0,3.054326167E-3,1.771509275E-2,1.496619880E-1
2.513562194E0,0.000000000E0,1.343903504E-2,1.435533315E-1
2.515576354E0,-6.108652451E-4,9.162978269E-3,1.398881376E-1
2.517559997E0,-6.108652451E-4,4.886921961E-3,1.325577646E-1
2.519574157E0,0.000000000E0,-9.162978269E-3,1.215621829E-1
2.521527282E0,-2.443460980E-3,-2.199114859E-2,1.142318025E-1
2.523541442E0,-6.108652451E-4,-2.993239649E-2,1.099557430E-1
2.525555602E0,-1.832595794E-3,-4.520402849E-2,1.007927656E-1
2.527539245E0,2.443460980E-3,-5.497787148E-2,9.285151958E-2
2.529553405E0,0.000000000E0,-5.864306539E-2,8.491026610E-2
2.531537048E0,0.000000000E0,-6.902777404E-2,7.635815442E-2
2.533520690E0,3.054326167E-3,-7.330382615E-2,7.086037099E-2
2.535534850E0,3.665191587E-3,-7.269296050E-2,6.841690838E-2
2.537518493E0,4.276056774E-3,-7.147123665E-2,6.108652428E-2
2.539563171E0,4.886921961E-3,-7.635815442E-2,5.131268129E-2
2.541516296E0,4.276056774E-3,-7.819075137E-2,4.886921868E-2
2.543530456E0,3.054326167E-3,-8.002334833E-2,4.337143153E-2
2.545544616E0,1.832595794E-3,-8.491026610E-2,2.932153270E-2
2.547528259E0,6.108652451E-4,-8.674286306E-2,2.809980139E-2
2.549542419E0,-1.221730490E-3,-9.529497474E-2,1.343903504E-2
2.551526061E0,-1.221730490E-3,-1.007927656E-1,9.773843922E-3
2.553509704E0,-3.054326167E-3,-1.117883399E-1,-2.443460980E-3
2.555523864E0,-6.719517522E-3,-1.221730486E-1,-1.160643995E-2
2.557507507E0,-6.108652335E-3,-1.252273768E-1,-1.954768784E-2
2.559552184E0,1.221730467E-2,-1.166752651E-1,-3.359758854E-2
2.561505309E0,6.230825558E-2,-6.963863969E-2,-5.803219974E-2
2.563488952E0,9.712757170E-2,-3.665191308E-2,-6.841690838E-2
2.565503112E0,1.698205322E-1,1.343903504E-2,-8.674286306E-2
2.567486755E0,2.345722616E-1,5.619960278E-2,-1.044579595E-1
2.569500915E0,2.700024247E-1,7.269296050E-2,-1.130100712E-1
2.571515075E0,3.481931984E-1,1.185078546E-1,-1.295034289E-1
2.573468200E0,4.398229718E-1,1.716531366E-1,-1.490511149E-1
2.575482360E0,4.856378734E-1,1.966986060E-1,-1.557706445E-1
2.577466003E0,5.723807216E-1,2.412917763E-1,-1.527163088E-1
2.579480163E0,6.517932415E-1,2.663372457E-1,-1.307251602E-1
2.581433288E0,6.890559793E-1,2.785545588E-1,-1.142318025E-1
2.583416930E0,7.586946487E-1,2.968805134E-1,-7.147123665E-2
2.585431091E0,7.892379165E-1,3.023782969E-1,-5.497787148E-2
2.587414733E0,8.497135639E-1,3.139847219E-1,-2.809980139E-2
2.589428893E0,9.108000994E-1,3.194825351E-1,-1.404990070E-2
2.591412536E0,9.376781583E-1,3.182607889E-1,-1.099557430E-2
2.593396178E0,9.950994849E-1,3.109304011E-1,-2.076941915E-2
2.595410339E0,1.050077319E0,3.103195429E-1,-3.054326214E-2
2.597393981E0,1.076344609E0,3.127630055E-1,-3.787364438E-2
2.599438659E0,1.135598540E0,3.213151097E-1,-4.092797264E-2
2.601391784E0,1.190576315E0,3.249803185E-1,-4.703662544E-2
2.603405944E0,1.215011001E0,3.304781020E-1,-4.948008433E-2
2.605420104E0,1.261436701E0,3.280346394E-1,-5.314527452E-2
2.607403747E0,1.310305953E0,3.249803185E-1,-6.169738993E-2
2.609417907E0,1.332907915E0,3.255911767E-1,-6.047565863E-2
2.611401550E0,1.379333735E0,3.115412891E-1,-6.536258012E-2
2.613385192E0,1.422705173E0,3.084869385E-1,-6.352998316E-2
2.615399352E0,1.447750688E0,2.974913716E-1,-6.414084882E-2
2.617382995E0,1.493565559E0,2.834414840E-1,-6.475171447E-2
2.619427673E0,1.532660842E0,2.596177161E-1,-6.291911751E-2
2.621380798E0,1.557095528E0,2.541199327E-1,-6.475171447E-2
2.623364440E0,1.596190929E0,2.309070677E-1,-7.269296050E-2
2.625378600E0,1.613906026E0,2.174680233E-1,-7.757988572E-2
2.627362243E0,1.649336219E0,2.009746730E-1,-8.124507964E-2
2.629376403E0,1.583973527E0,3.439171314E-1,-6.414084882E-2
2.631360046E0,1.485013366E0,5.387831330E-1,-4.398229718E-2
2.633343688E0,1.133765936E0,1.166141748E0,9.162978269E-3
2.635357848E0,7.379252315E-1,1.832595706E0,6.536258012E-2
2.637341491E0,5.650503635E-1,2.106874228E0,8.552113175E-2
2.639386169E0,2.895501256E-1,2.488054037E0,1.032362282E-1
2.641339294E0,1.295034289E-1,2.631607533E0,1.007927656E-1
2.643353454E0,9.162978828E-2,2.626109600E0,9.224065393E-2
2.645367614E0,8.613199741E-2,2.532647371E0,6.719517708E-2
2.647351257E0,1.356120855E-1,2.320677042E0,3.543018550E-2
2.649365417E0,1.710422635E-1,2.195449591E0,1.588249579E-2
2.651349059E0,2.449569702E-1,1.884519339E0,-1.343903504E-2
2.653332702E0,3.158173263E-1,1.562593341E0,-5.070181563E-2
2.655346862E0,3.426954150E-1,1.393383622E0,-7.819075137E-2
2.657330505E0,3.872885704E-1,1.074512005E0,-1.227839142E-1
2.659375182E0,4.062253833E-1,7.831292152E-1,-1.740965992E-1
2.661328307E0,3.976732790E-1,6.542366743E-1,-1.966986060E-1
2.663311950E0,3.720169365E-1,4.367686510E-1,-2.486221492E-1
2.665326110E0,3.530801237E-1,3.536909819E-1,-2.675589919E-1
2.667279235E0,3.054326177E-1,2.254092693E-1,-3.078760803E-1
2.669293395E0,2.559525371E-1,1.533271819E-1,-3.426954150E-1
2.671277038E0,2.327396572E-1,1.343903542E-1,-3.591887653E-1
2.673260680E0,1.777617931E-1,1.142318025E-1,-3.848451078E-1
2.675274841E0,1.331686229E-1,1.307251602E-1,-4.056145251E-1
2.677258483E0,1.117883399E-1,1.514945775E-1,-4.129449129E-1
2.679303161E0,6.719517708E-2,1.966986060E-1,-4.300491214E-1
2.681256286E0,3.054326214E-2,2.571742535E-1,-4.440990388E-1
2.683270446E0,1.221730467E-2,2.901609838E-1,-4.502076805E-1
2.685284606E0,-1.527163107E-2,3.573561609E-1,-4.581489265E-1
2.687237731E0,-2.932153270E-2,4.214970171E-1,-4.667010605E-1
2.689251891E0,-3.726277873E-2,4.526511431E-1,-4.721988440E-1
2.691235534E0,-5.131268129E-2,5.149593949E-1,-4.752531648E-1
2.693219177E0,-5.803219974E-2,5.644394755E-1,-4.838052690E-1
2.695233337E0,-6.108652428E-2,5.894849896E-1,-4.893030524E-1
2.697216979E0,-6.841690838E-2,6.212499738E-1,-4.917465150E-1
2.699261657E0,-6.841690838E-2,6.316346526E-1,-4.893030524E-1
2.701214782E0,-6.597344577E-2,6.261368990E-1,-4.856378734E-1
2.703228942E0,-6.780604273E-2,6.133087277E-1,-4.728097022E-1
2.705243102E0,-7.086037099E-2,6.029239893E-1,-4.624249935E-1
2.707226745E0,-7.086037099E-2,5.748242140E-1,-4.495968223E-1
2.709240905E0,-7.452555746E-2,5.406157374E-1,-4.263839424E-1
2.711224548E0,-7.208210230E-2,5.210680366E-1,-4.111123085E-1
2.713208190E0,-6.414084882E-2,4.972442985E-1,-3.720169365E-1
2.715222350E0,-5.192354694E-2,4.685336351E-1,-3.341432810E-1
2.717205993E0,-4.642575979E-2,4.612032473E-1,-3.152064681E-1
2.719250671E0,-3.054326214E-2,4.398229718E-1,-2.748893499E-1
2.721203796E0,-7.330383174E-3,4.245513380E-1,-2.327396572E-1
2.723217956E0,2.443460980E-3,4.159992337E-1,-2.162462920E-1
2.725232116E0,2.626720630E-2,4.037819207E-1,-1.844813079E-1
2.727185241E0,4.031710699E-2,3.964515328E-1,-1.631010175E-1
2.729199401E0,4.825835302E-2,4.007275999E-1,-1.551597714E-1
2.731183044E0,5.864306539E-2,4.068362415E-1,-1.392772794E-1
2.733166686E0,5.864306539E-2,4.166100919E-1,-1.252273768E-1
2.735180846E0,5.742133409E-2,4.208861589E-1,-1.178969890E-1
2.737133971E0,5.192354694E-2,4.263839424E-1,-1.026253626E-1
2.739178649E0,5.253441259E-2,4.269948006E-1,-1.001819000E-1
2.741131774E0,4.642575979E-2,4.312708676E-1,-9.834930301E-2
2.743145934E0,3.543018550E-2,4.312708676E-1,-8.796459436E-2
2.745129577E0,3.237585723E-2,4.306600094E-1,-8.429940045E-2
2.747113219E0,2.321287990E-2,4.196644127E-1,-8.002334833E-2
2.749127380E0,2.015855350E-2,4.086688459E-1,-7.819075137E-2
2.751111022E0,1.832595654E-2,4.050036669E-1,-7.757988572E-2
2.753125182E0,1.954768784E-2,3.970624208E-1,-8.307767659E-2
2.755139343E0,2.871066704E-2,3.976732790E-1,-1.026253626E-1
2.757122985E0,3.420845419E-2,4.013384581E-1,-1.087340117E-1
2.759167663E0,4.276056588E-2,4.098905921E-1,-1.227839142E-1
2.761120788E0,4.520402849E-2,4.208861589E-1,-1.459967941E-1
2.763134948E0,4.825835302E-2,4.251621962E-1,-1.545489132E-1
2.765118591E0,4.459316283E-2,4.227187634E-1,-1.704314053E-1
2.767132751E0,4.092797264E-2,4.141666293E-1,-1.893682331E-1
2.769146911E0,3.726277873E-2,4.043927789E-1,-1.985312104E-1
2.771130553E0,3.543018550E-2,3.842342496E-1,-2.119702399E-1
2.773144714E0,3.848451003E-2,3.597996235E-1,-2.205223590E-1
2.775128356E0,4.214970022E-2,3.445279896E-1,-2.241875380E-1
2.777111999E0,4.520402849E-2,3.176499307E-1,-2.345722616E-1
2.779156677E0,4.886921868E-2,3.042109013E-1,-2.376265824E-1
2.781109802E0,5.742133409E-2,2.864958048E-1,-2.437352389E-1
2.783123962E0,6.719517708E-2,2.809980214E-1,-2.388483137E-1
2.785107604E0,7.269296050E-2,2.755002379E-1,-2.376265824E-1
2.787121764E0,8.246681094E-2,2.742784917E-1,-2.296853364E-1
2.789135925E0,9.101892263E-2,2.828305960E-1,-2.241875380E-1
2.791089050E0,9.285151958E-2,2.901609838E-1,-2.211332172E-1
2.793103210E0,9.896016866E-2,3.005456924E-1,-2.083050460E-1
2.795086852E0,1.062905490E-1,3.176499307E-1,-2.028072625E-1
2.797070495E0,1.056796908E-1,3.274237812E-1,-1.997529417E-1
2.799084655E0,9.957103431E-2,3.402519524E-1,-1.942551434E-1
2.801037780E0,9.773843735E-2,3.555235863E-1,-1.869247705E-1
2.803051940E0,9.407325089E-2,3.597996235E-1,-1.844813079E-1
2.805005065E0,8.796459436E-2,3.640756905E-1,-1.820378453E-1
2.807019225E0,7.941248268E-2,3.652974069E-1,-1.771509200E-1
2.809002868E0,7.513642311E-2,3.622430861E-1,-1.710422635E-1
2.810986511E0,6.536258012E-2,3.616322279E-1,-1.631010175E-1
2.813000671E0,6.169738993E-2,3.597996235E-1,-1.588249654E-1
2.814953796E0,5.253441259E-2,3.543018401E-1,-1.478293836E-1
2.816967956E0,4.459316283E-2,3.469714522E-1,-1.368338168E-1
2.818982116E0,4.092797264E-2,3.414736688E-1,-1.343903542E-1
2.820965759E0,3.726277873E-2,3.268128932E-1,-1.209513173E-1
2.822949401E0,3.237585723E-2,3.097086847E-1,-1.136209369E-1
2.824933044E0,2.871066704E-2,3.036000133E-1,-1.056796908E-1
2.826947204E0,2.443460934E-2,2.889392674E-1,-9.285151958E-2
2.828930846E0,2.076941915E-2,2.712241709E-1,-8.307767659E-2
2.830914489E0,2.260201424E-2,2.638937831E-1,-8.185594529E-2
2.832928649E0,2.321287990E-2,2.516764700E-1,-7.024950534E-2
2.834912292E0,2.626720630E-2,2.431243658E-1,-6.536258012E-2
2.836926452E0,2.993239649E-2,2.376265824E-1,-5.986479297E-2
2.838940612E0,3.604105115E-2,2.333505303E-1,-5.436700583E-2
2.840924255E0,4.459316283E-2,2.376265824E-1,-4.092797264E-2
2.842907897E0,4.948008433E-2,2.400700450E-1,-3.909537569E-2
2.844922057E0,5.925392732E-2,2.467895597E-1,-3.237585723E-2
2.846936218E0,6.230825558E-2,2.510656118E-1,-2.871066704E-2
2.848919860E0,6.719517708E-2,2.663372457E-1,-1.832595654E-2
2.850934020E0,7.757988572E-2,2.816088796E-1,-1.343903504E-2
2.852948180E0,8.124507964E-2,2.907718420E-1,-1.343903504E-2
2.854901305E0,8.979719132E-2,3.164281845E-1,-8.552113548E-3
2.856915466E0,9.896016866E-2,3.384193480E-1,-6.108652335E-3
2.858929626E0,1.032362282E-1,3.420845270E-1,-7.941247895E-3
2.860913268E0,1.093448773E-1,3.640756905E-1,-8.552113548E-3
2.862896911E0,1.178969890E-1,3.872885704E-1,-9.162978269E-3
2.864880553E0,1.178969890E-1,3.952298164E-1,-9.162978269E-3
2.866894714E0,1.197295859E-1,4.123340547E-1,-5.497787148E-3
2.868878356E0,1.252273768E-1,4.184426963E-1,-9.162978269E-3
2.870892516E0,1.258382350E-1,4.294382632E-1,-8.552113548E-3
2.872876159E0,1.301143020E-1,4.410447180E-1,-9.773843922E-3
2.874859802E0,1.282816976E-1,4.453207552E-1,-7.330383174E-3
2.876873962E0,1.313360333E-1,4.508185387E-1,-9.162978269E-3
2.878888122E0,1.337794960E-1,4.520402849E-1,-1.099557430E-2
2.880871764E0,1.362229437E-1,4.502076805E-1,-1.099557430E-2
2.882855407E0,1.368338168E-1,4.514294267E-1,-1.099557430E-2
2.884839050E0,1.386664063E-1,4.483750761E-1,-1.649336144E-2
2.886853210E0,1.386664063E-1,4.532620013E-1,-1.954768784E-2
2.888806335E0,1.423316002E-1,4.495968223E-1,-2.504547499E-2
2.890820495E0,1.466076523E-1,4.532620013E-1,-2.565634064E-2
2.892834655E0,1.459967941E-1,4.526511431E-1,-2.748893574E-2
2.894787780E0,1.508837193E-1,4.495968223E-1,-3.054326214E-2
2.896801940E0,1.551597714E-1,4.471533597E-1,-3.420845419E-2
2.898816100E0,1.551597714E-1,4.471533597E-1,-3.604105115E-2
2.900799743E0,1.594358236E-1,4.459316432E-1,-3.970624134E-2
2.902783386E0,1.551597714E-1,4.495968223E-1,-3.970624134E-2
2.904767028E0,1.533271819E-1,4.495968223E-1,-4.031710699E-2
2.906781188E0,1.435533315E-1,4.538728893E-1,-4.214970022E-2
2.908764831E0,1.386664063E-1,4.544837475E-1,-3.420845419E-2
2.910778991E0,1.380555481E-1,4.557054639E-1,-3.115412779E-2
2.912762634E0,1.356120855E-1,4.520402849E-1,-2.076941915E-2
2.914746276E0,1.319468915E-1,4.483750761E-1,-2.138028294E-2
2.916760436E0,1.307251602E-1,4.416555762E-1,-7.941247895E-3
2.918774596E0,1.288925707E-1,4.318817258E-1,-1.832595794E-3
2.920758239E0,1.258382350E-1,4.251621962E-1,3.054326167E-3
2.922741882E0,1.258382350E-1,4.086688459E-1,6.108652335E-3
2.924756042E0,1.258382350E-1,4.037819207E-1,1.466076635E-2
2.926739684E0,1.221730486E-1,3.995058835E-1,1.588249579E-2
2.928723327E0,1.233947799E-1,3.927863538E-1,2.199114859E-2
2.930737487E0,1.233947799E-1,3.860668242E-1,2.565634064E-2
2.932721130E0,1.191187203E-1,3.885102868E-1,2.809980139E-2
2.934735290E0,1.160643995E-1,3.885102868E-1,3.176499158E-2
2.936718932E0,1.160643995E-1,3.793473244E-1,3.848451003E-2
2.938733093E0,1.172861308E-1,3.744603992E-1,3.665191308E-2
2.940716735E0,1.191187203E-1,3.567453027E-1,4.581489414E-2
2.942669860E0,1.172861308E-1,3.408628106E-1,5.131268129E-2
2.944684020E0,1.148426682E-1,3.390302062E-1,5.131268129E-2
2.946667663E0,1.044579595E-1,3.323107064E-1,5.986479297E-2
2.948651305E0,9.834930301E-2,3.341432810E-1,6.047565863E-2
2.950665466E0,9.346238524E-2,3.329215646E-1,6.963863969E-2
2.952649108E0,8.857546002E-2,3.347541690E-1,7.574728876E-2
2.954663268E0,9.285151958E-2,3.341432810E-1,7.819075137E-2
2.956646911E0,8.491026610E-2,3.445279896E-1,8.368854225E-2
2.958661071E0,8.368854225E-2,3.414736688E-1,9.162978828E-2
2.960644714E0,8.002334833E-2,3.396410644E-1,9.407325089E-2
2.962628356E0,7.574728876E-2,3.310889602E-1,9.834930301E-2
2.964642516E0,7.024950534E-2,3.268128932E-1,1.014036313E-1
2.966626159E0,6.780604273E-2,3.225368559E-1,1.056796908E-1
2.968609802E0,6.291911751E-2,3.207042515E-1,1.069014147E-1
2.970623962E0,6.902777404E-2,3.243694305E-1,1.075122803E-1
2.972607604E0,7.452555746E-2,3.182607889E-1,1.111774743E-1
2.974621764E0,7.819075137E-2,3.127630055E-1,1.215621829E-1
2.976605407E0,8.185594529E-2,3.023782969E-1,1.350012124E-1
2.978619567E0,8.063421398E-2,2.944370508E-1,1.417207420E-1
2.980603210E0,8.063421398E-2,2.956587672E-1,1.557706445E-1
2.982556335E0,7.819075137E-2,2.956587672E-1,1.606575549E-1
2.984570495E0,7.819075137E-2,2.962696552E-1,1.759291887E-1
2.986554137E0,8.307767659E-2,2.962696552E-1,1.881465018E-1
2.988537780E0,8.491026610E-2,3.011565804E-1,1.966986060E-1
2.990551940E0,8.796459436E-2,3.090978265E-1,2.089159191E-1
2.992535583E0,8.796459436E-2,3.176499307E-1,2.254092693E-1
2.994549743E0,8.979719132E-2,3.182607889E-1,2.333505303E-1
2.996563903E0,8.857546002E-2,3.231477141E-1,2.431243658E-1
2.998547546E0,8.979719132E-2,3.152064681E-1,2.486221492E-1
3.000500671E0,8.979719132E-2,3.127630055E-1,2.571742535E-1
3.002484313E0,9.040805697E-2,2.938261926E-1,2.693915665E-1
3.004498473E0,8.918632567E-2,2.809980214E-1,2.803871334E-1
3.006482116E0,9.040805697E-2,2.742784917E-1,2.828305960E-1
3.008496276E0,8.552113175E-2,2.700024247E-1,2.901609838E-1
3.010510436E0,8.674286306E-2,2.663372457E-1,2.999348342E-1
3.012494079E0,8.307767659E-2,2.632829249E-1,3.066543639E-1
3.014508239E0,7.941248268E-2,2.632829249E-1,3.152064681E-1
3.016491882E0,7.452555746E-2,2.638937831E-1,3.207042515E-1
3.018506042E0,6.658431143E-2,2.602286041E-1,3.255911767E-1
3.020459167E0,6.108652428E-2,2.596177161E-1,3.310889602E-1
3.022442809E0,6.230825558E-2,2.583959997E-1,3.359758854E-1
3.024456969E0,5.192354694E-2,2.535090744E-1,3.371976018E-1
3.026440612E0,3.970624134E-2,2.742784917E-1,3.439171314E-1
3.028454772E0,3.237585723E-2,2.773328125E-1,3.469714522E-1
3.030468932E0,2.809980139E-2,2.846632004E-1,3.463605940E-1
3.032422057E0,2.076941915E-2,2.852740586E-1,3.543018401E-1
3.034436218E0,2.076941915E-2,2.809980214E-1,3.536909819E-1
3.036419860E0,1.893682219E-2,2.755002379E-1,3.555235863E-1
3.038464538E0,1.893682219E-2,2.748893499E-1,3.549126983E-1
3.040417663E0,1.588249579E-2,2.785545588E-1,3.536909819E-1
3.042401305E0,1.588249579E-2,2.895501256E-1,3.561344445E-1
3.044415466E0,9.773843922E-3,3.133738637E-1,3.597996235E-1
3.046399108E0,1.221730467E-2,3.237585723E-1,3.610213697E-1
3.048413268E0,1.160643995E-2,3.494149148E-1,3.610213697E-1
3.050396911E0,1.221730467E-2,3.756821156E-1,3.616322279E-1
3.052380553E0,8.552113548E-3,3.781255782E-1,3.610213697E-1
3.054394714E0,9.162978269E-3,3.903428912E-1,3.628539443E-1
3.056378356E0,8.552113548E-3,3.921754956E-1,3.616322279E-1
3.058423034E0,6.719517522E-3,3.842342496E-1,3.616322279E-1
3.060376159E0,1.099557430E-2,3.750712574E-1,3.622430861E-1
3.062390319E0,1.038470957E-2,3.604104817E-1,3.640756905E-1
3.064404479E0,1.649336144E-2,3.378084898E-1,3.646865487E-1
3.066388122E0,2.138028294E-2,3.225368559E-1,3.695734739E-1
3.068402282E0,1.832595654E-2,3.139847219E-1,3.677408695E-1
3.070385925E0,2.321287990E-2,3.042109013E-1,3.683517575E-1
3.072369567E0,2.260201424E-2,3.084869385E-1,3.720169365E-1
3.074383727E0,2.076941915E-2,3.078760803E-1,3.732386529E-1
3.076367370E0,2.260201424E-2,3.133738637E-1,3.720169365E-1
3.078412048E0,1.954768784E-2,3.310889602E-1,3.616322279E-1
3.080365173E0,1.404990070E-2,3.390302062E-1,3.597996235E-1
3.082379333E0,1.099557430E-2,3.585779071E-1,3.518583775E-1
3.084393493E0,6.719517522E-3,3.750712574E-1,3.408628106E-1
3.086346618E0,7.330383174E-3,3.811798990E-1,3.341432810E-1
3.088360778E0,2.443460980E-3,3.817907870E-1,3.292563558E-1
3.090344421E0,-2.443460980E-3,3.707951903E-1,3.213151097E-1
3.092328063E0,-1.832595794E-3,3.585779071E-1,3.200933933E-1
3.094342223E0,-5.497787148E-3,3.371976018E-1,3.152064681E-1
3.096295348E0,-7.941247895E-3,3.255911767E-1,3.121521473E-1
3.098340026E0,-7.941247895E-3,3.029891551E-1,3.023782969E-1
3.100293151E0,-1.343903504E-2,2.926044464E-1,2.999348342E-1
3.102307311E0,-1.649336144E-2,2.828305960E-1,2.981022298E-1
3.104290954E0,-2.015855350E-2,2.693915665E-1,2.913827300E-1
3.106274596E0,-2.321287990E-2,2.528982162E-1,2.834414840E-1
3.108288757E0,-2.809980139E-2,2.467895597E-1,2.816088796E-1
3.110272399E0,-3.359758854E-2,2.467895597E-1,2.797762752E-1
3.112286559E0,-3.970624134E-2,2.461786866E-1,2.748893499E-1
3.114270202E0,-4.276056588E-2,2.461786866E-1,2.718350291E-1
3.116253844E0,-4.886921868E-2,2.431243658E-1,2.645046413E-1
3.118298522E0,-5.131268129E-2,2.412917763E-1,2.602286041E-1
3.120251647E0,-5.131268129E-2,2.382374406E-1,2.535090744E-1
3.122265807E0,-5.314527452E-2,2.223549485E-1,2.443460971E-1
3.124249450E0,-5.925392732E-2,2.125810981E-1,2.388483137E-1
3.126263610E0,-6.169738993E-2,2.144137025E-1,2.351831198E-1
3.128277770E0,-6.719517708E-2,2.107485086E-1,2.339613885E-1
3.130261413E0,-6.841690838E-2,2.095267773E-1,2.327396572E-1
3.132275573E0,-7.880161703E-2,2.034181207E-1,2.376265824E-1
3.134259216E0,-8.613199741E-2,1.991420686E-1,2.388483137E-1
3.136242858E0,-9.040805697E-2,2.021963894E-1,2.412917763E-1
3.138287536E0,-9.957103431E-2,2.021963894E-1,2.376265824E-1
3.140240661E0,-9.468411654E-2,1.893682331E-1,2.315179259E-1
3.142254821E0,-9.407325089E-2,1.869247705E-1,2.284636050E-1
3.144238464E0,-9.529497474E-2,1.850921661E-1,2.174680233E-1
3.146222106E0,-9.651670605E-2,1.899790913E-1,2.174680233E-1
3.148236266E0,-9.896016866E-2,1.881465018E-1,2.193006277E-1
3.150219909E0,-1.111774743E-1,1.832595766E-1,2.174680233E-1
3.152203552E0,-1.252273768E-1,1.814269722E-1,2.223549485E-1
3.154217712E0,-1.325577646E-1,1.771509200E-1,2.235766798E-1
3.156201354E0,-1.539380401E-1,1.753183305E-1,2.205223590E-1
3.158246032E0,-1.771509200E-1,1.685988009E-1,2.211332172E-1
3.160199157E0,-1.857030392E-1,1.557706445E-1,2.168571651E-1
3.162213317E0,-2.076941878E-1,1.240056455E-1,2.131919712E-1
3.164227477E0,-2.272418737E-1,8.979719132E-2,2.174680233E-1
3.166180602E0,-2.370157093E-1,6.841690838E-2,2.199114859E-1
3.168194762E0,-2.565633953E-1,4.031710699E-2,2.217440903E-1
3.170178405E0,-2.669481039E-1,1.649336144E-2,2.241875380E-1
3.172192565E0,-2.858849466E-1,-1.343903504E-2,2.315179259E-1
3.174206725E0,-3.042109013E-1,-5.131268129E-2,2.339613885E-1
3.176159850E0,-3.170390725E-1,-7.024950534E-2,2.327396572E-1
3.178204528E0,-3.310889602E-1,-9.346238524E-2,2.272418737E-1
3.180157653E0,-3.384193480E-1,-1.221730486E-1,2.205223590E-1
3.182171813E0,-3.420845270E-1,-1.307251602E-1,2.193006277E-1
3.184155456E0,-3.463605940E-1,-1.661553532E-1,2.223549485E-1
3.186139098E0,-3.426954150E-1,-1.802052408E-1,2.223549485E-1
3.188153259E0,-3.402519524E-1,-1.844813079E-1,2.266310006E-1
3.190136901E0,-3.426954150E-1,-2.009746730E-1,2.272418737E-1
3.192151061E0,-3.500257730E-1,-2.070833147E-1,2.272418737E-1
3.194165221E0,-3.555235863E-1,-2.229658216E-1,2.309070677E-1
3.196118346E0,-3.634648323E-1,-2.376265824E-1,2.284636050E-1
3.198163024E0,-3.744603992E-1,-2.590068579E-1,2.205223590E-1
3.200116149E0,-3.824016452E-1,-2.687807083E-1,2.156354338E-1
3.202130309E0,-3.946189582E-1,-2.742784917E-1,2.119702399E-1
3.204113952E0,-4.013384581E-1,-2.755002379E-1,2.064724565E-1
3.206097594E0,-4.092797041E-1,-2.779437006E-1,2.058615834E-1
3.208111755E0,-4.208861589E-1,-3.029891551E-1,2.070833147E-1
3.210095397E0,-4.306600094E-1,-3.158173263E-1,2.076941878E-1
3.212109557E0,-4.428772926E-1,-3.500257730E-1,2.009746730E-1
3.214123718E0,-4.630358517E-1,-3.946189582E-1,1.838704348E-1
3.216076843E0,-4.721988440E-1,-4.117231667E-1,1.692096740E-1
3.218121520E0,-4.948008358E-1,-4.709770977E-1,1.521054506E-1
3.220074645E0,-5.180137157E-1,-5.235115290E-1,1.411098689E-1
3.222088805E0,-5.277875662E-1,-5.412266254E-1,1.307251602E-1
3.224072448E0,-5.375614166E-1,-5.626068711E-1,1.203404516E-1
3.226056091E0,-5.479460955E-1,-5.754350424E-1,1.160643995E-1
3.228070251E0,-5.540547967E-1,-5.876523852E-1,1.178969890E-1
3.230053893E0,-5.601634383E-1,-5.949827433E-1,1.093448773E-1
3.232068053E0,-5.662720799E-1,-5.821545720E-1,9.651670605E-2
3.234082214E0,-5.699372888E-1,-5.809328556E-1,8.674286306E-2
3.236035339E0,-5.742133260E-1,-5.937610269E-1,7.635815442E-2
3.238080016E0,-5.772676468E-1,-5.894849896E-1,6.780604273E-2
3.240033141E0,-5.772676468E-1,-5.894849896E-1,6.108652428E-2
3.242047302E0,-5.693264008E-1,-5.821545720E-1,6.047565863E-2
3.244030944E0,-5.644394755E-1,-5.833762884E-1,6.230825558E-2
3.246014587E0,-5.705481172E-1,-5.705481172E-1,6.291911751E-2
3.248028747E0,-5.607742667E-1,-5.687155724E-1,6.963863969E-2
3.250012389E0,-5.589417219E-1,-5.717698932E-1,6.291911751E-2
3.252026550E0,-5.461135507E-1,-5.552765131E-1,6.414084882E-2
3.254010192E0,-5.314527750E-1,-5.510004759E-1,6.658431143E-2
3.255993835E0,-5.277875662E-1,-5.540547967E-1,6.536258012E-2
3.258038512E0,-5.222898126E-1,-5.760459304E-1,5.558873713E-2
3.259991637E0,-5.235115290E-1,-5.833762884E-1,4.214970022E-2
3.262005798E0,-5.253441334E-1,-5.955936313E-1,3.359758854E-2
3.263989440E0,-5.277875662E-1,-6.188064814E-1,1.038470957E-2
3.266003600E0,-5.229006410E-1,-6.414085031E-1,-7.941247895E-3
3.268017761E0,-5.229006410E-1,-6.340781450E-1,-2.015855350E-2
3.269970886E0,-5.198463202E-1,-6.670648456E-1,-4.825835302E-2
3.271985046E0,-5.210680366E-1,-6.731734872E-1,-5.986479297E-2
3.273968688E0,-5.155702829E-1,-6.884451509E-1,-6.780604273E-2
3.275982848E0,-5.131267905E-1,-7.208209634E-1,-8.429940045E-2
3.277997009E0,-5.119050741E-1,-7.391469479E-1,-1.136209369E-1
3.279950134E0,-5.149593949E-1,-7.507534027E-1,-1.295034289E-1
3.281964294E0,-5.057964325E-1,-7.690793276E-1,-1.563815027E-1
3.283917419E0,-4.972442985E-1,-7.837401032E-1,-1.606575549E-1
3.285931579E0,-4.948008358E-1,-7.916813493E-1,-1.734857261E-1
3.287915221E0,-4.838052690E-1,-7.922922373E-1,-1.899790913E-1
3.289898864E0,-4.721988440E-1,-8.014551997E-1,-1.997529417E-1
3.291943542E0,-4.642575979E-1,-7.837401032E-1,-2.089159191E-1
3.293866149E0,-4.379903674E-1,-7.782423496E-1,-2.058615834E-1
3.295880309E0,-4.349360466E-1,-7.629706860E-1,-2.028072625E-1
3.297894469E0,-4.062253833E-1,-7.336491346E-1,-1.869247705E-1
3.299847594E0,-3.891211748E-1,-7.422012687E-1,-1.582140923E-1
3.301831237E0,-3.805690408E-1,-7.397578359E-1,-1.472185254E-1
3.303814880E0,-3.683517575E-1,-7.214318514E-1,-1.288925707E-1
3.305829040E0,-3.549126983E-1,-6.994407177E-1,-1.093448773E-1
3.307812682E0,-3.371976018E-1,-6.407976151E-1,-5.864306539E-2
3.309796325E0,-3.213151097E-1,-5.839871764E-1,-1.160643995E-2
3.311810485E0,-3.164281845E-1,-5.528330207E-1,1.404990070E-2
3.313794128E0,-3.048217595E-1,-4.697553813E-1,5.986479297E-2
3.315808288E0,-2.926044464E-1,-4.037819207E-1,1.007927656E-1
3.317822448E0,-2.828305960E-1,-3.671300113E-1,1.240056455E-1
3.319775573E0,-2.559525371E-1,-3.066543639E-1,1.649336219E-1
3.321759216E0,-2.425135076E-1,-2.339613885E-1,1.893682331E-1
3.323742858E0,-2.333505303E-1,-2.028072625E-1,2.009746730E-1
3.325757018E0,-2.034181207E-1,-1.325577646E-1,2.205223590E-1
3.327740661E0,-1.753183305E-1,-7.330382615E-2,2.382374406E-1
3.329754821E0,-1.643227488E-1,-5.253441259E-2,2.516764700E-1
3.331768981E0,-1.386664063E-1,-1.343903504E-2,2.675589919E-1
3.333722106E0,-1.075122803E-1,1.954768784E-2,2.693915665E-1
3.335736266E0,-8.552113175E-2,2.748893574E-2,2.742784917E-1
3.337750427E0,-5.742133409E-2,7.696902007E-2,2.907718420E-1
3.339734069E0,-4.825835302E-2,8.674286306E-2,3.005456924E-1
3.341717712E0,-4.214970022E-2,1.014036313E-1,3.042109013E-1
3.343701354E0,-2.626720630E-2,1.185078546E-1,2.987131178E-1
3.345715514E0,-1.954768784E-2,1.301143020E-1,2.987131178E-1
3.347699157E0,-7.330383174E-3,1.514945775E-1,2.999348342E-1
3.349713317E0,0.000000000E0,1.734857261E-1,3.090978265E-1
3.351727477E0,3.054326167E-3,1.820378453E-1,3.084869385E-1
3.353680602E0,9.773843922E-3,1.850921661E-1,3.017674387E-1
3.355694762E0,2.138028294E-2,2.070833147E-1,2.993239760E-1
3.357708923E0,2.871066704E-2,2.223549485E-1,2.950479090E-1
3.359692565E0,4.520402849E-2,2.583959997E-1,2.956587672E-1
3.361676208E0,5.558873713E-2,2.901609838E-1,3.164281845E-1
3.363659850E0,5.925392732E-2,2.974913716E-1,3.255911767E-1
3.365674011E0,6.719517708E-2,3.133738637E-1,3.316998184E-1
3.367627136E0,8.185594529E-2,3.164281845E-1,3.408628106E-1
3.369641296E0,8.918632567E-2,3.133738637E-1,3.420845270E-1
3.371624938E0,1.038470939E-1,3.054326177E-1,3.475823104E-1
3.373639098E0,1.154535338E-1,3.042109013E-1,3.475823104E-1
3.375653259E0,1.209513173E-1,3.029891551E-1,3.426954150E-1
3.377636901E0,1.264491081E-1,3.109304011E-1,3.384193480E-1
3.379620544E0,1.282816976E-1,3.139847219E-1,3.371976018E-1
3.381573669E0,1.282816976E-1,3.304781020E-1,3.274237812E-1
3.383587829E0,1.276708394E-1,3.439171314E-1,3.200933933E-1
3.385571471E0,1.246165112E-1,3.469714522E-1,3.170390725E-1
3.387585632E0,1.209513173E-1,3.488040566E-1,2.981022298E-1
3.389599792E0,1.178969890E-1,3.408628106E-1,2.852740586E-1
3.391552917E0,1.154535338E-1,3.359758854E-1,2.779437006E-1
3.393567077E0,1.087340117E-1,3.213151097E-1,2.565633953E-1
3.395550719E0,1.014036313E-1,3.005456924E-1,2.437352389E-1
3.397595397E0,9.712757170E-2,2.901609838E-1,2.321287990E-1
3.399548522E0,8.613199741E-2,2.718350291E-1,2.125810981E-1
3.401532165E0,7.819075137E-2,2.516764700E-1,1.942551434E-1
3.403546325E0,7.330382615E-2,2.406809032E-1,1.850921661E-1
3.405499450E0,6.047565863E-2,2.278527319E-1,1.661553532E-1
3.407513610E0,5.681046844E-2,2.162462920E-1,1.588249654E-1
3.409497253E0,4.276056588E-2,2.046398520E-1,1.435533315E-1
3.411480895E0,2.932153270E-2,1.893682331E-1,1.227839142E-1
3.413495055E0,2.443460934E-2,1.832595766E-1,1.136209369E-1
3.415478698E0,1.649336144E-2,1.722639948E-1,9.957103431E-2
3.417523376E0,6.108652335E-3,1.600466967E-1,8.124507964E-2
3.419476501E0,6.108652451E-4,1.557706445E-1,7.391469181E-2
3.421490661E0,-7.941247895E-3,1.417207420E-1,6.108652428E-2
3.423504821E0,-1.466076635E-2,1.270599663E-1,5.009094998E-2
3.425488464E0,-1.466076635E-2,1.203404516E-1,4.092797264E-2
3.427502624E0,-2.443460934E-2,1.044579595E-1,3.237585723E-2
3.429486266E0,-2.871066704E-2,8.979719132E-2,1.649336144E-2
3.431469909E0,-2.932153270E-2,7.819075137E-2,7.941247895E-3
3.433484069E0,-2.993239649E-2,6.780604273E-2,-3.665191587E-3
3.435467712E0,-2.993239649E-2,6.291911751E-2,-1.771509275E-2
3.437512389E0,-3.115412779E-2,6.414084882E-2,-2.199114859E-2
3.439465514E0,-2.993239649E-2,5.986479297E-2,-3.481931984E-2
3.441449157E0,-2.626720630E-2,5.803219974E-2,-4.520402849E-2
3.443463317E0,-2.687807009E-2,5.436700583E-2,-4.886921868E-2
3.445416442E0,-2.443460934E-2,5.070181563E-2,-5.986479297E-2
3.447430602E0,-2.199114859E-2,4.825835302E-2,-6.414084882E-2
3.449414245E0,-2.076941915E-2,4.276056588E-2,-6.963863969E-2
3.451428405E0,-1.649336144E-2,3.359758854E-2,-7.757988572E-2
3.453442565E0,-1.527163107E-2,3.543018550E-2,-8.063421398E-2
3.455426208E0,-1.404990070E-2,2.138028294E-2,-8.368854225E-2
3.457470886E0,-1.404990070E-2,9.162978269E-3,-8.735372871E-2
3.459424011E0,-1.343903504E-2,4.276056774E-3,-8.796459436E-2
3.461438171E0,-1.588249579E-2,-9.773843922E-3,-9.101892263E-2
3.463452331E0,-1.466076635E-2,-2.199114859E-2,-9.285151958E-2
3.465405456E0,-1.893682219E-2,-2.565634064E-2,-9.285151958E-2
3.467419616E0,-2.199114859E-2,-3.848451003E-2,-9.346238524E-2
3.469433776E0,-2.504547499E-2,-4.703662544E-2,-9.162978828E-2
3.471417419E0,-2.626720630E-2,-5.192354694E-2,-9.224065393E-2
3.473431579E0,-2.687807009E-2,-6.414084882E-2,-9.407325089E-2
3.475415221E0,-3.176499158E-2,-6.841690838E-2,-9.040805697E-2
3.477429382E0,-3.237585723E-2,-8.002334833E-2,-8.857546002E-2
3.479382507E0,-3.543018550E-2,-8.674286306E-2,-8.613199741E-2
3.481366149E0,-3.787364438E-2,-9.346238524E-2,-8.613199741E-2
3.483380309E0,-3.848451003E-2,-1.014036313E-1,-8.429940045E-2
3.485363952E0,-3.909537569E-2,-1.123992056E-1,-8.735372871E-2
3.487378112E0,-4.337143153E-2,-1.154535338E-1,-8.368854225E-2
3.489392272E0,-4.520402849E-2,-1.288925707E-1,-8.491026610E-2
3.491345397E0,-4.948008433E-2,-1.350012124E-1,-8.796459436E-2
3.493359557E0,-5.131268129E-2,-1.423316002E-1,-8.674286306E-2
3.495343200E0,-5.742133409E-2,-1.521054506E-1,-8.491026610E-2
3.497387878E0,-6.291911751E-2,-1.600466967E-1,-8.735372871E-2
3.499341003E0,-6.352998316E-2,-1.667662114E-1,-8.552113175E-2
3.501324645E0,-7.269296050E-2,-1.826487035E-1,-8.918632567E-2
3.503338805E0,-8.185594529E-2,-1.991420686E-1,-8.979719132E-2
3.505322448E0,-8.979719132E-2,-2.009746730E-1,-9.162978828E-2
3.507336608E0,-9.896016866E-2,-2.193006277E-1,-9.162978828E-2
3.509320251E0,-1.148426682E-1,-2.364048511E-1,-9.101892263E-2
3.511303893E0,-1.227839142E-1,-2.437352389E-1,-8.918632567E-2
3.513318053E0,-1.398881376E-1,-2.632829249E-1,-9.529497474E-2
3.515301696E0,-1.594358236E-1,-2.864958048E-1,-9.590584040E-2
3.517346374E0,-1.679879427E-1,-2.981022298E-1,-9.529497474E-2
3.519299499E0,-1.899790913E-1,-3.255911767E-1,-9.468411654E-2
3.521283141E0,-2.009746730E-1,-3.371976018E-1,-9.712757170E-2
3.523297302E0,-2.223549485E-1,-3.677408695E-1,-9.896016866E-2
3.525250427E0,-2.504547536E-1,-4.001167417E-1,-1.062905490E-1
3.527264587E0,-2.657263875E-1,-4.172209501E-1,-1.062905490E-1
3.529248229E0,-2.944370508E-1,-4.508185387E-1,-1.117883399E-1
3.531231872E0,-3.200933933E-1,-4.978551865E-1,-1.233947799E-1
3.533246032E0,-3.323107064E-1,-5.167919993E-1,-1.337794960E-1
3.535199157E0,-3.610213697E-1,-5.589417219E-1,-1.508837193E-1
3.537243835E0,-3.927863538E-1,-5.962044597E-1,-1.655444801E-1
3.539196960E0,-4.092797041E-1,-6.169738770E-1,-1.722639948E-1
3.541211120E0,-4.392121136E-1,-6.597344875E-1,-1.918116808E-1
3.543194762E0,-4.746423066E-1,-7.079927921E-1,-2.064724565E-1
3.545178405E0,-4.911356568E-1,-7.305948138E-1,-2.107485086E-1
3.547192565E0,-5.247332454E-1,-7.861835957E-1,-2.211332172E-1
3.549176208E0,-5.345070958E-1,-8.112290502E-1,-2.278527319E-1
3.551190368E0,-5.583308339E-1,-8.637634516E-1,-2.229658216E-1
3.553204528E0,-5.650503635E-1,-9.132435322E-1,-2.028072625E-1
3.555188171E0,-5.546656251E-1,-9.315695167E-1,-1.795943826E-1
3.557232848E0,-5.400048494E-1,-9.621127844E-1,-1.313360333E-1
3.559185973E0,-5.198463202E-1,-9.847147465E-1,-8.674286306E-2
3.561200134E0,-5.082398653E-1,-9.816604257E-1,-6.291911751E-2
3.563183776E0,-4.825835526E-1,-9.694431424E-1,-2.321287990E-2
3.565167419E0,-4.544837475E-1,-9.523389339E-1,7.330383174E-3
3.567181579E0,-4.404338300E-1,-9.450085163E-1,1.832595654E-2
3.569165221E0,-4.056145251E-1,-9.309586287E-1,3.665191308E-2
3.571179382E0,-3.830125034E-1,-9.169087410E-1,5.681046844E-2
3.573163024E0,-3.683517575E-1,-9.114109278E-1,6.169738993E-2
3.575146667E0,-3.402519524E-1,-9.083566070E-1,6.719517708E-2
3.577191344E0,-3.139847219E-1,-9.181304574E-1,5.619960278E-2
3.579144469E0,-3.042109013E-1,-9.340129495E-1,4.459316283E-2
3.581158630E0,-2.816088796E-1,-9.822713137E-1,1.832595654E-2
3.583142272E0,-2.687807083E-1,-1.026253581E0,-4.276056774E-3
3.585156432E0,-2.596177161E-1,-1.051909924E0,-1.710422710E-2
3.587170593E0,-2.663372457E-1,-1.127657294E0,-2.932153270E-2
3.589154235E0,-2.791654170E-1,-1.197295904E0,-3.237585723E-2
3.591168395E0,-2.864958048E-1,-1.200961113E0,-3.909537569E-2
3.593152038E0,-3.237585723E-1,-1.218065262E0,-5.436700583E-2
3.595135680E0,-3.414736688E-1,-1.227839112E0,-6.352998316E-2
3.597180358E0,-3.274237812E-1,-1.224784851E0,-8.185594529E-2
3.599133483E0,-2.486221492E-1,-1.122770309E0,-1.032362282E-1
3.601147643E0,-2.034181207E-1,-1.034805775E0,-1.111774743E-1
3.603131286E0,-6.475171447E-2,-8.374962807E-1,-1.282816976E-1
3.605114928E0,6.963863969E-2,-6.756169796E-1,-1.685988009E-1
3.607129089E0,1.374446750E-1,-6.139195561E-1,-1.948660165E-1
3.609112731E0,2.553416789E-1,-5.106833577E-1,-2.510656118E-1
3.611126891E0,3.445279896E-1,-4.025602043E-1,-3.115412891E-1
3.613110534E0,3.701843321E-1,-3.359758854E-1,-3.408628106E-1
3.615094177E0,4.941899776E-1,-3.310889602E-1,-4.105014503E-1
3.617138854E0,6.652322412E-1,-3.243694305E-1,-4.667010605E-1
3.619091979E0,7.208209634E-1,-2.382374406E-1,-4.776966274E-1
3.621106139E0,8.344419003E-1,7.757988572E-2,-4.807509482E-1
3.623089782E0,1.174082994E0,4.392121136E-1,-5.222898126E-1
3.625073425E0,1.266934514E0,4.740314186E-1,-5.546656251E-1
3.627087585E0,1.534493446E0,6.267477274E-1,-5.607742667E-1
3.629071227E0,1.557706356E0,5.302310586E-1,-5.650503635E-1
3.631054870E0,1.373225093E0,5.491678715E-1,-5.033529401E-1
3.633069030E0,1.229671717E0,4.111123085E-1,-4.532620013E-1
3.635052673E0,1.158811331E0,2.687807083E-1,-4.282165468E-1
3.637097350E0,9.877691269E-1,-2.993239649E-2,-3.744603992E-1
3.639050475E0,7.757988572E-1,-3.262020350E-1,-3.084869385E-1
3.641064636E0,7.367035151E-1,-4.318817258E-1,-2.700024247E-1
3.643017761E0,7.122688890E-1,-5.039638281E-1,-1.795943826E-1
3.645031921E0,6.976081133E-1,-5.210680366E-1,-8.552113175E-2
3.647015563E0,6.963863969E-1,-5.326744914E-1,-4.214970022E-2
3.649029723E0,6.884451509E-1,-5.534439087E-1,2.809980139E-2
3.651043884E0,7.116580009E-1,-5.803219676E-1,7.452555746E-2
3.652997009E0,7.324274182E-1,-5.839871764E-1,8.674286306E-2
3.655011169E0,7.678576112E-1,-6.059783101E-1,1.032362282E-1
3.657025329E0,7.831292152E-1,-6.236934066E-1,1.026253626E-1
3.659008971E0,7.831292152E-1,-6.267477274E-1,9.468411654E-2
3.660992614E0,7.422012687E-1,-5.949827433E-1,7.880161703E-2
3.662976257E0,7.305948138E-1,-5.827654600E-1,6.352998316E-2
3.664990417E0,6.322455406E-1,-5.033529401E-1,4.886921868E-2
3.666974059E0,4.948008358E-1,-3.891211748E-1,3.848451003E-2
3.668988219E0,3.811798990E-1,-2.993239760E-1,3.726277873E-2
3.671002380E0,2.987131178E-1,-2.773328125E-1,1.221730467E-2
3.672955505E0,3.078760803E-1,-3.255911767E-1,-7.330383174E-3
3.674969665E0,3.200933933E-1,-3.329215646E-1,-1.404990070E-2
3.676983825E0,3.530801237E-1,-3.433062732E-1,-2.260201424E-2
3.678967468E0,4.166100919E-1,-3.872885704E-1,-3.298672289E-2
3.680951110E0,4.526511431E-1,-4.074471295E-1,-3.787364438E-2
3.682934753E0,4.941899776E-1,-4.141666293E-1,-4.581489414E-2
3.684948913E0,5.167919993E-1,-4.123340547E-1,-5.803219974E-2
3.686932555E0,5.210680366E-1,-4.074471295E-1,-6.108652428E-2
3.688946716E0,5.430592299E-1,-4.135557711E-1,-7.391469181E-2
3.690991393E0,5.711590052E-1,-4.440990388E-1,-8.857546002E-2
3.692914001E0,5.852088928E-1,-4.618141353E-1,-9.224065393E-2
3.694928161E0,6.212499738E-1,-4.917465150E-1,-1.075122803E-1
3.696942321E0,6.279694438E-1,-4.948008358E-1,-1.160643995E-1
3.698925964E0,6.206390858E-1,-4.838052690E-1,-1.172861308E-1
3.700940124E0,6.145304441E-1,-4.783074856E-1,-1.215621829E-1
3.702893249E0,6.194173694E-1,-4.850270152E-1,-1.276708394E-1
3.704907409E0,6.438519955E-1,-5.082398653E-1,-1.325577646E-1
3.706891052E0,6.902777553E-1,-5.516113043E-1,-1.404990107E-1
3.708905212E0,7.238753438E-1,-5.852088928E-1,-1.429424733E-1
3.710919372E0,7.684684992E-1,-6.114761233E-1,-1.478293836E-1
3.712872497E0,7.751879692E-1,-5.864306092E-1,-1.521054506E-1
3.714886657E0,7.648032904E-1,-5.577199459E-1,-1.551597714E-1
3.716900817E0,7.153232098E-1,-4.801400900E-1,-1.576032341E-1
3.718884460E0,6.340781450E-1,-3.848451078E-1,-1.588249654E-1
3.720837585E0,5.888741016E-1,-3.390302062E-1,-1.600466967E-1
3.722851745E0,4.844161272E-1,-2.486221492E-1,-1.539380401E-1
3.724835387E0,3.726277947E-1,-1.692096740E-1,-1.447750628E-1
3.726819030E0,3.182607889E-1,-1.307251602E-1,-1.386664063E-1
3.728833190E0,2.107485086E-1,-6.230825558E-2,-1.166752651E-1
3.730816833E0,1.203404516E-1,-6.719517522E-3,-9.407325089E-2
3.732830993E0,7.757988572E-2,1.710422710E-2,-8.307767659E-2
3.734814636E0,1.649336144E-2,5.436700583E-2,-5.436700583E-2
3.736828796E0,-8.552113548E-3,7.208210230E-2,-4.459316283E-2
3.738812438E0,-4.092797264E-2,8.674286306E-2,-2.993239649E-2
3.740765563E0,-5.864306539E-2,1.032362282E-1,-2.015855350E-2
3.742779723E0,-5.986479297E-2,1.062905490E-1,-1.282817032E-2
3.744763366E0,-6.047565863E-2,1.093448773E-1,-7.330383174E-3
3.746747009E0,-5.436700583E-2,1.075122803E-1,-6.719517522E-3
3.748761169E0,-5.192354694E-2,1.020144969E-1,-6.719517522E-3
3.750714294E0,-4.214970022E-2,9.896016866E-2,-6.719517522E-3
3.752728454E0,-3.115412779E-2,9.651670605E-2,-7.941247895E-3
3.754712096E0,-2.565634064E-2,9.346238524E-2,-4.886921961E-3
3.756756774E0,-1.343903504E-2,8.857546002E-2,-4.886921961E-3
3.758709899E0,-6.108652451E-4,8.857546002E-2,-4.886921961E-3
3.760693542E0,7.330383174E-3,8.674286306E-2,-2.443460980E-3
3.762707702E0,1.527163107E-2,8.368854225E-2,-2.443460980E-3
3.764660827E0,1.893682219E-2,8.002334833E-2,-2.443460980E-3
3.766674987E0,2.748893574E-2,7.574728876E-2,-4.276056774E-3
3.768658630E0,3.359758854E-2,7.635815442E-2,-3.665191587E-3
3.770642272E0,3.543018550E-2,7.819075137E-2,-6.719517522E-3
3.772656432E0,3.726277873E-2,7.452555746E-2,-8.552113548E-3
3.774609557E0,3.970624134E-2,7.696902007E-2,-9.162978269E-3
3.776654235E0,4.214970022E-2,8.124507964E-2,-1.588249579E-2
3.778607360E0,4.153883830E-2,8.613199741E-2,-1.710422710E-2
3.780621520E0,3.909537569E-2,9.224065393E-2,-1.527163107E-2
3.782605163E0,3.909537569E-2,9.529497474E-2,-1.832595654E-2
3.784588805E0,3.787364438E-2,9.773843735E-2,-1.649336144E-2
3.786602966E0,3.481931984E-2,1.032362282E-1,-2.015855350E-2
3.788586608E0,3.481931984E-2,1.069014147E-1,-2.138028294E-2
3.790570251E0,3.237585723E-2,1.099557430E-1,-2.015855350E-2
3.792584411E0,2.748893574E-2,1.105666086E-1,-2.260201424E-2
3.794568053E0,2.321287990E-2,1.105666086E-1,-2.321287990E-2
3.796612731E0,2.076941915E-2,1.105666086E-1,-2.382374369E-2
3.798565856E0,2.138028294E-2,1.130100712E-1,-2.321287990E-2
3.800580016E0,1.954768784E-2,1.099557430E-1,-2.443460934E-2
3.802563659E0,1.710422710E-2,1.111774743E-1,-2.443460934E-2
3.804547302E0,1.466076635E-2,1.142318025E-1,-2.565634064E-2
3.806561462E0,1.404990070E-2,1.117883399E-1,-2.626720630E-2
3.808545104E0,1.466076635E-2,1.056796908E-1,-2.565634064E-2
3.810559264E0,1.466076635E-2,1.081231460E-1,-2.626720630E-2
3.812542907E0,1.404990070E-2,1.020144969E-1,-2.932153270E-2
3.814526550E0,1.527163107E-2,1.001819000E-1,-2.993239649E-2
3.816571227E0,1.466076635E-2,1.001819000E-1,-2.871066704E-2
3.818524352E0,1.893682219E-2,9.834930301E-2,-3.298672289E-2
3.820538512E0,2.015855350E-2,9.957103431E-2,-3.176499158E-2
3.822522155E0,2.321287990E-2,9.590584040E-2,-3.176499158E-2
3.824505798E0,2.443460934E-2,9.590584040E-2,-3.237585723E-2
3.826519958E0,2.504547499E-2,9.651670605E-2,-3.298672289E-2
3.828473083E0,2.748893574E-2,9.346238524E-2,-3.359758854E-2
3.830487243E0,2.687807009E-2,9.529497474E-2,-3.237585723E-2
3.832470886E0,2.809980139E-2,9.285151958E-2,-3.237585723E-2
3.834485046E0,2.626720630E-2,8.979719132E-2,-3.237585723E-2
3.836499206E0,2.748893574E-2,9.162978828E-2,-3.543018550E-2
3.838452331E0,2.809980139E-2,9.224065393E-2,-3.359758854E-2
3.840466491E0,2.687807009E-2,8.674286306E-2,-3.420845419E-2
3.842419616E0,3.115412779E-2,8.552113175E-2,-2.993239649E-2
3.844433776E0,3.054326214E-2,8.185594529E-2,-2.871066704E-2
3.846417419E0,3.237585723E-2,7.941248268E-2,-3.298672289E-2
3.848431579E0,3.115412779E-2,7.696902007E-2,-3.115412779E-2
3.850445739E0,2.993239649E-2,7.757988572E-2,-3.176499158E-2
3.852398864E0,3.054326214E-2,7.452555746E-2,-3.359758854E-2
3.854413024E0,3.176499158E-2,7.391469181E-2,-3.054326214E-2
3.856427184E0,3.298672289E-2,6.902777404E-2,-3.237585723E-2
3.858410827E0,3.604105115E-2,6.658431143E-2,-3.298672289E-2
3.860394469E0,3.359758854E-2,6.230825558E-2,-3.604105115E-2
3.862378112E0,3.604105115E-2,6.047565863E-2,-3.420845419E-2
3.864392272E0,3.481931984E-2,5.436700583E-2,-3.420845419E-2
3.866375915E0,3.665191308E-2,5.070181563E-2,-3.726277873E-2
3.868390075E0,4.092797264E-2,4.581489414E-2,-3.237585723E-2
3.870404235E0,4.031710699E-2,3.726277873E-2,-3.481931984E-2
3.872357360E0,4.153883830E-2,3.665191308E-2,-3.543018550E-2
3.874371520E0,4.276056588E-2,2.504547499E-2,-3.665191308E-2
3.876385680E0,4.459316283E-2,1.832595654E-2,-3.726277873E-2
3.878369323E0,4.398229718E-2,1.221730467E-2,-3.970624134E-2
3.880322448E0,4.642575979E-2,3.054326167E-3,-4.520402849E-2
3.882336608E0,5.314527452E-2,-7.330383174E-3,-4.520402849E-2
3.884320251E0,5.436700583E-2,-1.038470957E-2,-4.825835302E-2
3.886303893E0,5.925392732E-2,-1.954768784E-2,-4.764748737E-2
3.888318053E0,6.475171447E-2,-2.871066704E-2,-4.948008433E-2
3.890271178E0,6.719517708E-2,-3.359758854E-2,-4.764748737E-2
3.892285339E0,6.963863969E-2,-3.970624134E-2,-5.314527452E-2
3.894268981E0,7.391469181E-2,-4.825835302E-2,-5.619960278E-2
3.896313659E0,7.819075137E-2,-4.764748737E-2,-5.558873713E-2
3.898266784E0,8.246681094E-2,-4.948008433E-2,-5.314527452E-2
3.900250427E0,8.491026610E-2,-4.825835302E-2,-5.558873713E-2
3.902264587E0,8.979719132E-2,-5.070181563E-2,-5.864306539E-2
3.904248229E0,8.918632567E-2,-5.803219974E-2,-5.497787148E-2
3.906262389E0,8.979719132E-2,-6.291911751E-2,-5.742133409E-2
3.908246032E0,8.979719132E-2,-6.902777404E-2,-5.619960278E-2
3.910229675E0,9.101892263E-2,-7.513642311E-2,-5.558873713E-2
3.912243835E0,8.918632567E-2,-7.696902007E-2,-5.436700583E-2
3.914227477E0,9.101892263E-2,-8.246681094E-2,-4.886921868E-2
3.916272155E0,9.346238524E-2,-8.063421398E-2,-4.581489414E-2
3.918225280E0,9.162978828E-2,-8.429940045E-2,-4.153883830E-2
3.920239440E0,9.224065393E-2,-8.124507964E-2,-3.665191308E-2
3.922253600E0,9.346238524E-2,-8.246681094E-2,-3.604105115E-2
3.924237243E0,9.346238524E-2,-8.246681094E-2,-3.543018550E-2
3.926251403E0,9.224065393E-2,-8.002334833E-2,-2.932153270E-2
3.928235046E0,9.040805697E-2,-8.002334833E-2,-2.748893574E-2
3.930218688E0,8.857546002E-2,-7.880161703E-2,-2.748893574E-2
3.932232848E0,8.918632567E-2,-7.819075137E-2,-2.076941915E-2
3.934216491E0,8.674286306E-2,-6.902777404E-2,-1.588249579E-2
3.936261169E0,8.857546002E-2,-6.536258012E-2,-1.832595654E-2
3.938214294E0,8.857546002E-2,-6.352998316E-2,-2.015855350E-2
3.940228454E0,9.101892263E-2,-6.352998316E-2,-2.871066704E-2
3.942242614E0,8.918632567E-2,-5.986479297E-2,-3.481931984E-2
3.944226257E0,8.918632567E-2,-5.925392732E-2,-3.298672289E-2
3.946209899E0,8.796459436E-2,-6.108652428E-2,-2.993239649E-2
3.948224059E0,8.124507964E-2,-6.291911751E-2,-2.626720630E-2
3.950207702E0,8.124507964E-2,-6.597344577E-2,-2.565634064E-2
3.952221862E0,7.757988572E-2,-6.291911751E-2,-2.321287990E-2
3.954205505E0,7.574728876E-2,-6.291911751E-2,-1.771509275E-2
3.956219665E0,7.391469181E-2,-5.803219974E-2,-1.588249579E-2
3.958172790E0,7.024950534E-2,-5.742133409E-2,-1.832595654E-2
3.960156432E0,7.086037099E-2,-6.108652428E-2,-1.221730467E-2
3.962170593E0,6.902777404E-2,-6.230825558E-2,-1.649336144E-2
3.964123718E0,6.536258012E-2,-6.291911751E-2,-2.015855350E-2
3.966137878E0,6.597344577E-2,-6.169738993E-2,-2.321287990E-2
3.968121520E0,6.414084882E-2,-5.681046844E-2,-2.138028294E-2
3.970105163E0,6.230825558E-2,-5.497787148E-2,-2.260201424E-2
3.972119323E0,5.986479297E-2,-5.436700583E-2,-1.832595654E-2
3.974072448E0,6.108652428E-2,-5.619960278E-2,-2.015855350E-2
3.976117126E0,5.558873713E-2,-5.436700583E-2,-2.076941915E-2
3.978070251E0,5.131268129E-2,-5.558873713E-2,-1.588249579E-2
3.980084411E0,5.253441259E-2,-5.436700583E-2,-1.588249579E-2
3.982098571E0,4.703662544E-2,-4.642575979E-2,-1.099557430E-2
