Time (s),Gyroscope x (rad/s),Gyroscope y (rad/s),Gyroscope z (rad/s)
31.97,0.08,-0.03,0.04
31.97,0.08,-0.03,0.05
31.98,0.08,-0.03,0.04
31.98,0.08,-0.04,0.04
31.98,0.08,-0.04,0.04
31.98,0.08,-0.04,0.04
31.99,0.08,-0.04,0.04
31.99,0.08,-0.04,0.04
31.99,0.08,-0.04,0.04
31.99,0.07,-0.04,0.04
31.99,0.07,-0.04,0.04
32.00,0.07,-0.04,0.04
32.00,0.07,-0.04,0.04
32.00,0.07,-0.03,0.04
32.00,0.07,-0.03,0.04
32.01,0.07,-0.03,0.04
32.01,0.06,-0.03,0.04
32.01,0.06,-0.03,0.04
32.01,0.07,-0.03,0.04
32.02,0.07,-0.03,0.04
32.02,0.06,-0.03,0.04
32.02,0.06,-0.03,0.04
32.02,0.06,-0.04,0.04
32.02,0.06,-0.04,0.04
32.03,0.06,-0.05,0.04
32.03,0.06,-0.05,0.04
32.03,0.06,-0.05,0.03
32.03,0.06,-0.06,0.03
32.04,0.06,-0.06,0.03
32.04,0.05,-0.07,0.03
32.04,0.05,-0.07,0.03
32.04,0.05,-0.08,0.03
32.05,0.05,-0.08,0.03
32.05,0.04,-0.08,0.03
32.05,0.04,-0.08,0.03
32.05,0.03,-0.07,0.03
32.05,0.03,-0.07,0.03
32.06,0.03,-0.06,0.03
32.06,0.03,-0.05,0.03
32.06,0.03,-0.05,0.02
32.06,0.03,-0.04,0.02
32.07,0.03,-0.03,0.02
32.07,0.03,-0.03,0.02
32.07,0.03,-0.03,0.02
32.07,0.03,-0.02,0.02
32.07,0.02,-0.03,0.02
32.08,0.02,-0.02,0.02
32.08,0.02,-0.02,0.02
32.08,0.01,-0.02,0.02
32.08,0.01,-0.02,0.02
32.09,0.00,-0.02,0.01
32.09,0.00,-0.02,0.01
32.09,0.00,-0.02,0.01
32.09,0.00,-0.03,0.00
32.10,0.00,-0.04,0.00
32.10,0.00,-0.04,-0.01
32.10,0.00,-0.04,-0.01
32.10,0.00,-0.04,-0.01
32.10,0.00,-0.04,-0.01
32.11,0.00,-0.03,-0.01
32.11,0.00,-0.04,-0.01
32.11,0.00,-0.03,-0.01
32.11,0.00,-0.02,-0.01
32.12,0.00,-0.02,-0.01
32.12,-0.01,-0.02,-0.01
32.12,-0.01,-0.02,-0.01
32.12,-0.02,-0.02,-0.01
32.13,-0.02,-0.02,-0.01
32.13,-0.02,-0.01,-0.01
32.13,-0.02,-0.01,-0.01
32.13,-0.03,-0.01,-0.01
32.13,-0.03,-0.01,-0.01
32.14,-0.03,-0.01,-0.01
32.14,-0.03,-0.01,-0.01
32.14,-0.04,-0.01,-0.01
32.14,-0.04,0.00,-0.01
32.15,-0.04,0.00,-0.01
32.15,-0.04,0.00,-0.01
32.15,-0.05,0.01,-0.01
32.15,-0.05,0.01,-0.01
32.16,-0.05,0.01,-0.01
32.16,-0.05,0.01,-0.01
32.16,-0.06,0.01,-0.01
32.16,-0.06,0.01,-0.01
32.16,-0.06,0.00,-0.01
32.17,-0.07,0.01,-0.01
32.17,-0.07,0.01,-0.01
32.17,-0.07,0.00,-0.01
32.17,-0.07,0.00,-0.01
32.18,-0.08,0.00,-0.01
32.18,-0.08,0.00,-0.01
32.18,-0.08,0.00,-0.01
32.18,-0.08,-0.01,-0.01
32.19,-0.08,-0.01,-0.01
32.19,-0.08,-0.02,-0.02
32.19,-0.08,-0.03,-0.02
32.19,-0.09,-0.03,-0.02
32.19,-0.09,-0.04,-0.02
32.20,-0.09,-0.04,-0.02
32.20,-0.09,-0.04,-0.02
32.20,-0.09,-0.04,-0.02
32.20,-0.09,-0.04,-0.02
32.21,-0.10,-0.04,-0.02
32.21,-0.10,-0.03,-0.02
32.21,-0.10,-0.03,-0.02
32.21,-0.10,-0.02,-0.02
32.22,-0.10,-0.02,-0.02
32.22,-0.10,-0.02,-0.02
32.22,-0.10,-0.02,-0.02
32.22,-0.09,-0.03,-0.02
32.22,-0.09,-0.03,-0.02
32.23,-0.08,-0.04,-0.02
32.23,-0.07,-0.05,-0.02
32.23,-0.07,-0.05,-0.02
32.23,-0.06,-0.06,-0.02
32.24,-0.06,-0.06,-0.02
32.24,-0.06,-0.05,-0.02
32.24,-0.06,-0.06,-0.02
32.24,-0.06,-0.05,-0.02
32.25,-0.06,-0.05,-0.02
32.25,-0.06,-0.04,-0.01
32.25,-0.06,-0.04,-0.01
32.25,-0.05,-0.04,-0.01
32.25,-0.05,-0.04,-0.01
32.26,-0.05,-0.03,-0.01
32.26,-0.05,-0.03,-0.01
32.26,-0.05,-0.03,0.00
32.26,-0.04,-0.03,0.00
32.27,-0.04,-0.02,0.00
32.27,-0.04,-0.02,0.00
32.27,-0.03,-0.02,0.00
32.27,-0.03,-0.02,0.00
32.27,-0.03,-0.02,0.00
32.28,-0.02,-0.01,0.01
32.28,-0.02,-0.01,0.01
32.28,-0.01,-0.01,0.01
32.28,-0.01,-0.01,0.01
32.29,-0.01,0.00,0.01
32.29,-0.01,0.00,0.01
32.29,0.00,0.00,0.01
32.29,0.00,0.01,0.01
32.30,0.00,0.01,0.01
32.30,0.01,0.01,0.01
32.30,0.01,0.01,0.01
32.30,0.02,0.01,0.02
32.30,0.02,0.01,0.02
32.31,0.02,0.01,0.02
32.31,0.02,0.01,0.02
32.31,0.03,0.01,0.02
32.31,0.03,0.02,0.02
32.32,0.03,0.02,0.02
32.32,0.03,0.01,0.02
32.32,0.04,0.01,0.02
32.32,0.04,0.01,0.02
32.33,0.04,0.01,0.02
32.33,0.05,0.01,0.02
32.33,0.05,0.01,0.02
32.33,0.05,0.01,0.02
32.33,0.05,0.02,0.02
32.34,0.05,0.02,0.02
32.34,0.05,0.03,0.03
32.34,0.05,0.03,0.03
32.34,0.05,0.04,0.03
32.35,0.05,0.04,0.03
32.35,0.05,0.04,0.02
32.35,0.05,0.04,0.03
32.35,0.05,0.04,0.03
32.36,0.05,0.04,0.03
32.36,0.05,0.03,0.03
32.36,0.05,0.03,0.03
32.36,0.05,0.03,0.03
32.36,0.05,0.03,0.03
32.37,0.05,0.03,0.03
32.37,0.04,0.03,0.03
32.37,0.04,0.03,0.03
32.37,0.04,0.03,0.03
32.38,0.04,0.02,0.03
32.38,0.04,0.02,0.03
32.38,0.04,0.01,0.03
32.38,0.03,0.00,0.03
32.39,0.04,-0.01,0.03
32.39,0.04,-0.01,0.03
32.39,0.04,-0.02,0.02
32.39,0.04,-0.02,0.02
32.39,0.04,-0.02,0.02
32.40,0.04,-0.02,0.02
32.40,0.04,-0.02,0.02
32.40,0.04,-0.02,0.02
32.40,0.04,-0.02,0.03
32.41,0.04,-0.02,0.02
32.41,0.03,-0.02,0.03
32.41,0.03,-0.02,0.03
32.41,0.03,-0.02,0.03
32.42,0.03,-0.01,0.03
32.42,0.03,-0.01,0.03
32.42,0.03,-0.02,0.03
32.42,0.03,-0.01,0.03
32.42,0.03,-0.01,0.03
32.43,0.03,-0.01,0.03
32.43,0.03,-0.01,0.03
32.43,0.03,-0.01,0.03
32.43,0.03,-0.01,0.03
32.44,0.03,-0.01,0.03
32.44,0.03,-0.01,0.03
32.44,0.03,-0.02,0.03
32.44,0.03,-0.02,0.03
32.45,0.03,-0.02,0.03
32.45,0.03,-0.01,0.02
32.45,0.03,-0.01,0.03
32.45,0.03,-0.01,0.03
32.45,0.03,-0.01,0.02
32.46,0.03,-0.01,0.03
32.46,0.03,0.00,0.03
32.46,0.03,0.00,0.03
32.46,0.03,0.01,0.03
32.47,0.02,0.01,0.03
32.47,0.02,0.01,0.02
32.47,0.02,0.00,0.02
32.47,0.02,0.00,0.02
32.47,0.02,0.00,0.02
32.48,0.02,-0.01,0.02
32.48,0.02,-0.01,0.02
32.48,0.02,-0.01,0.01
32.48,0.02,-0.02,0.01
32.49,0.02,-0.03,0.01
32.49,0.02,-0.03,0.01
32.49,0.02,-0.03,0.01
32.49,0.02,-0.03,0.01
32.50,0.01,-0.03,0.01
32.50,0.01,-0.03,0.01
32.50,0.01,-0.03,0.01
32.50,0.01,-0.02,0.01
32.50,0.00,-0.02,0.01
32.51,0.00,-0.02,0.01
32.51,0.00,-0.02,0.01
32.51,0.00,-0.02,0.01
32.51,0.00,-0.01,0.01
32.52,-0.01,-0.01,0.02
32.52,-0.01,-0.01,0.02
32.52,-0.01,0.00,0.02
32.52,-0.01,0.01,0.02
32.53,-0.02,0.01,0.01
32.53,-0.02,0.01,0.01
32.53,-0.02,0.01,0.01
32.53,-0.02,0.00,0.01
32.53,-0.02,0.00,0.01
32.54,-0.02,-0.01,0.01
32.54,-0.01,-0.02,0.00
32.54,-0.01,-0.03,0.00
32.54,-0.01,-0.03,0.00
32.55,-0.01,-0.03,0.00
32.55,-0.01,-0.04,0.00
32.55,-0.02,-0.03,0.00
32.55,-0.02,-0.03,-0.01
32.56,-0.02,-0.03,-0.01
32.56,-0.02,-0.03,0.00
32.56,-0.02,-0.03,0.00
32.56,-0.02,-0.03,0.00
32.56,-0.02,-0.03,0.00
32.57,-0.03,-0.02,0.00
32.57,-0.03,-0.02,0.00
32.57,-0.03,-0.01,0.00
32.57,-0.03,-0.01,0.00
32.58,-0.03,-0.01,0.00
32.58,-0.03,0.00,0.00
32.58,-0.04,0.00,0.00
32.58,-0.03,0.00,0.00
32.59,-0.03,0.00,0.00
32.59,-0.03,0.00,0.00
32.59,-0.03,0.00,0.00
32.59,-0.03,0.00,0.00
32.59,-0.03,0.00,0.00
32.60,-0.02,0.00,0.00
32.60,-0.02,0.01,0.00
32.60,-0.02,0.01,0.00
32.60,-0.02,0.01,0.00
32.61,-0.02,0.01,0.00
32.61,-0.01,0.01,0.00
32.61,-0.01,0.00,0.00
32.61,-0.01,0.00,0.00
32.62,0.00,0.00,0.00
32.62,0.00,0.00,0.00
32.62,0.01,0.00,0.00
32.62,0.01,0.00,0.01
32.62,0.01,0.00,0.01
32.63,0.01,0.00,0.01
32.63,0.01,0.00,0.01
32.63,0.01,0.01,0.01
32.63,0.02,0.01,0.01
32.64,0.02,0.01,0.01
32.64,0.02,0.01,0.01
32.64,0.02,0.01,0.01
32.64,0.03,0.00,0.01
32.65,0.03,0.00,0.01
32.65,0.04,0.00,0.01
32.65,0.04,-0.01,0.01
32.65,0.04,-0.01,0.01
32.65,0.04,-0.01,0.01
32.66,0.05,-0.02,0.01
32.66,0.05,-0.02,0.01
32.66,0.05,-0.02,0.01
32.66,0.05,-0.02,0.01
32.67,0.05,-0.02,0.01
32.67,0.05,-0.01,0.02
32.67,0.05,-0.01,0.02
32.67,0.05,0.00,0.02
32.67,0.05,0.02,0.03
32.68,0.04,0.03,0.03
32.68,0.03,0.04,0.03
32.68,0.03,0.05,0.03
32.68,0.02,0.07,0.04
32.69,0.02,0.07,0.04
32.69,0.01,0.08,0.04
32.69,0.01,0.08,0.04
32.69,0.01,0.08,0.04
32.70,0.01,0.07,0.04
32.70,0.01,0.06,0.04
32.70,0.01,0.05,0.04
32.70,0.00,0.05,0.04
32.70,0.00,0.04,0.04
32.71,0.00,0.03,0.04
32.71,-0.01,0.02,0.03
32.71,-0.01,0.02,0.03
32.71,-0.01,0.01,0.03
32.72,-0.01,0.00,0.03
32.72,-0.01,0.00,0.03
32.72,-0.01,-0.01,0.03
32.72,-0.02,-0.01,0.02
32.73,-0.02,-0.01,0.02
32.73,-0.02,-0.02,0.02
32.73,-0.02,-0.02,0.02
32.73,-0.03,-0.02,0.02
32.73,-0.03,-0.02,0.02
32.74,-0.03,-0.02,0.02
32.74,-0.03,-0.03,0.02
32.74,-0.03,-0.03,0.02
32.74,-0.03,-0.03,0.01
32.75,-0.03,-0.04,0.01
32.75,-0.03,-0.03,0.01
32.75,-0.03,-0.04,0.01
32.75,-0.03,-0.03,0.01
32.76,-0.03,-0.04,0.01
32.76,-0.03,-0.04,0.01
32.76,-0.03,-0.04,0.01
32.76,-0.03,-0.04,0.01
32.76,-0.03,-0.03,0.01
32.77,-0.03,-0.03,0.01
32.77,-0.03,-0.03,0.02
32.77,-0.03,-0.03,0.02
32.77,-0.03,-0.03,0.02
32.78,-0.03,-0.03,0.01
32.78,-0.03,-0.02,0.02
32.78,-0.03,-0.02,0.02
32.78,-0.03,-0.02,0.01
32.79,-0.03,-0.02,0.01
32.79,-0.03,-0.02,0.02
32.79,-0.03,-0.01,0.02
32.79,-0.03,-0.01,0.02
32.79,-0.03,-0.01,0.02
32.80,-0.03,0.00,0.02
32.80,-0.03,0.01,0.02
32.80,-0.03,0.01,0.02
32.80,-0.04,0.01,0.02
32.81,-0.03,0.01,0.02
32.81,-0.03,0.01,0.01
32.81,-0.03,0.01,0.01
32.81,-0.03,0.01,0.01
32.82,-0.02,0.01,0.01
32.82,-0.02,0.01,0.01
32.82,-0.02,0.01,0.01
32.82,-0.02,0.01,0.01
32.82,-0.02,0.01,0.01
32.83,-0.02,0.02,0.01
32.83,-0.02,0.03,0.01
32.83,-0.02,0.03,0.01
32.83,-0.02,0.03,0.01
32.84,-0.02,0.04,0.01
32.84,-0.02,0.04,0.01
32.84,-0.02,0.04,0.01
32.84,-0.02,0.05,0.01
32.85,-0.01,0.04,0.01
32.85,-0.01,0.04,0.01
32.85,-0.01,0.03,0.01
32.85,-0.01,0.03,0.01
32.85,-0.01,0.03,0.01
32.86,-0.01,0.03,0.01
32.86,-0.01,0.03,0.01
32.86,-0.01,0.03,0.01
32.86,-0.01,0.03,0.01
32.87,-0.01,0.02,0.01
32.87,-0.01,0.02,0.01
32.87,-0.01,0.02,0.01
32.87,-0.01,0.02,0.01
32.87,-0.01,0.02,0.02
32.88,-0.01,0.02,0.01
32.88,-0.01,0.02,0.01
32.88,-0.01,0.02,0.01
32.88,-0.01,0.02,0.01
32.89,-0.01,0.02,0.01
32.89,-0.01,0.02,0.02
32.89,-0.01,0.02,0.02
32.89,-0.02,0.02,0.01
32.90,-0.02,0.02,0.01
32.90,-0.02,0.02,0.01
32.90,-0.02,0.02,0.01
32.90,-0.02,0.02,0.01
32.90,-0.02,0.02,0.01
32.91,-0.02,0.01,0.01
32.91,-0.02,0.01,0.01
32.91,-0.02,0.01,0.01
32.91,-0.02,0.01,0.01
32.92,-0.02,0.00,0.01
32.92,-0.02,0.00,0.00
32.92,-0.03,0.00,0.00
32.92,-0.03,0.01,0.01
32.93,-0.03,0.01,0.00
32.93,-0.03,0.01,0.00
32.93,-0.04,0.01,0.00
32.93,-0.04,0.01,0.00
32.93,-0.04,0.01,0.00
32.94,-0.05,0.01,0.00
32.94,-0.05,0.01,0.00
32.94,-0.05,0.01,0.00
32.94,-0.05,0.01,0.00
32.95,-0.05,0.01,0.00
32.95,-0.05,0.01,0.00
32.95,-0.05,0.01,0.00
32.95,-0.05,0.02,0.00
32.96,-0.05,0.02,0.00
32.96,-0.06,0.02,0.00
32.96,-0.06,0.01,0.00
32.96,-0.06,0.01,0.00
32.96,-0.06,0.01,0.00
32.97,-0.06,0.01,0.00
32.97,-0.06,0.00,-0.01
32.97,-0.06,-0.01,-0.01
32.97,-0.06,-0.01,0.00
32.98,-0.05,-0.01,-0.01
32.98,-0.06,-0.01,-0.01
32.98,-0.05,-0.01,-0.01
32.98,-0.06,-0.02,-0.01
32.99,-0.05,-0.02,-0.01
32.99,-0.05,-0.02,0.00
32.99,-0.05,-0.02,0.00
32.99,-0.05,-0.01,0.00
32.99,-0.05,-0.02,-0.01
33.00,-0.05,-0.02,0.00
33.00,-0.05,-0.03,0.00
33.00,-0.05,-0.03,0.00
33.00,-0.04,-0.04,0.00
33.01,-0.04,-0.04,0.00
33.01,-0.04,-0.04,0.00
33.01,-0.04,-0.04,0.01
33.01,-0.04,-0.04,0.00
33.02,-0.04,-0.04,0.01
33.02,-0.03,-0.04,0.01
33.02,-0.03,-0.04,0.01
33.02,-0.03,-0.04,0.01
33.02,-0.03,-0.03,0.01
33.03,-0.03,-0.03,0.01
33.03,-0.02,-0.03,0.01
33.03,-0.02,-0.02,0.01
33.03,-0.02,-0.02,0.02
33.04,-0.02,-0.01,0.02
33.04,-0.02,-0.01,0.02
33.04,-0.02,-0.01,0.02
33.04,-0.02,0.00,0.03
33.05,-0.02,0.01,0.03
33.05,-0.02,0.01,0.03
33.05,-0.02,0.02,0.04
33.05,-0.02,0.02,0.04
33.05,-0.01,0.02,0.04
33.06,-0.01,0.03,0.04
33.06,-0.01,0.03,0.05
33.06,-0.01,0.04,0.05
33.06,-0.01,0.04,0.05
33.07,-0.01,0.05,0.05
33.07,-0.01,0.05,0.06
33.07,-0.01,0.06,0.06
33.07,-0.01,0.05,0.06
33.07,-0.01,0.06,0.06
33.08,-0.01,0.06,0.06
33.08,-0.01,0.06,0.06
33.08,0.00,0.06,0.06
33.08,0.00,0.05,0.05
33.09,0.00,0.05,0.05
33.09,0.00,0.05,0.05
33.09,0.00,0.05,0.05
33.09,0.00,0.04,0.04
33.10,0.00,0.04,0.04
33.10,0.01,0.03,0.04
33.10,0.01,0.03,0.03
33.10,0.01,0.03,0.03
33.10,0.01,0.02,0.02
33.11,0.02,0.02,0.02
33.11,0.02,0.02,0.01
33.11,0.02,0.02,0.01
33.11,0.02,0.03,0.00
33.12,0.02,0.03,-0.01
33.12,0.02,0.04,-0.01
33.12,0.02,0.04,-0.01
33.12,0.01,0.04,-0.02
33.13,0.02,0.04,-0.03
33.13,0.02,0.05,-0.03
33.13,0.02,0.05,-0.04
33.13,0.01,0.06,-0.04
33.13,0.01,0.06,-0.05
33.14,0.01,0.07,-0.06
33.14,0.01,0.07,-0.06
33.14,0.01,0.07,-0.07
33.14,0.00,0.08,-0.07
33.15,0.00,0.08,-0.08
33.15,0.00,0.08,-0.08
33.15,0.00,0.08,-0.09
33.15,-0.01,0.09,-0.10
33.16,-0.01,0.09,-0.10
33.16,-0.01,0.09,-0.11
33.16,-0.02,0.09,-0.11
33.16,-0.02,0.08,-0.12
33.16,-0.02,0.08,-0.12
33.17,-0.02,0.09,-0.13
33.17,-0.02,0.09,-0.13
33.17,-0.02,0.09,-0.14
33.17,-0.02,0.09,-0.14
33.18,-0.03,0.09,-0.14
33.18,-0.03,0.09,-0.14
33.18,-0.03,0.09,-0.14
33.18,-0.04,0.09,-0.14
33.19,-0.04,0.09,-0.14
33.19,-0.04,0.10,-0.13
33.19,-0.05,0.10,-0.13
33.19,-0.05,0.10,-0.12
33.19,-0.05,0.10,-0.12
33.20,-0.06,0.10,-0.11
33.20,-0.06,0.10,-0.11
33.20,-0.07,0.11,-0.10
33.20,-0.07,0.12,-0.10
33.21,-0.08,0.12,-0.09
33.21,-0.08,0.13,-0.09
33.21,-0.08,0.13,-0.08
33.21,-0.08,0.14,-0.07
33.22,-0.09,0.15,-0.06
33.22,-0.09,0.16,-0.06
33.22,-0.09,0.17,-0.05
33.22,-0.09,0.18,-0.05
33.22,-0.09,0.18,-0.04
33.23,-0.08,0.18,-0.03
33.23,-0.08,0.19,-0.03
33.23,-0.08,0.20,-0.02
33.23,-0.08,0.21,-0.02
33.24,-0.08,0.21,-0.02
33.24,-0.08,0.21,-0.01
33.24,-0.08,0.21,-0.01
33.24,-0.08,0.21,-0.01
33.25,-0.07,0.21,-0.01
33.25,-0.07,0.20,-0.01
33.25,-0.06,0.20,0.00
33.25,-0.05,0.20,0.00
33.25,-0.05,0.20,0.00
33.26,-0.04,0.20,0.00
33.26,-0.04,0.20,0.00
33.26,-0.04,0.19,0.00
33.26,-0.04,0.19,0.00
33.27,-0.04,0.18,0.00
33.27,-0.03,0.18,0.00
33.27,-0.03,0.17,0.00
33.27,-0.02,0.17,0.01
33.28,-0.02,0.17,0.01
33.28,-0.01,0.18,0.01
33.28,-0.01,0.18,0.01
33.28,0.00,0.18,0.02
33.28,0.00,0.18,0.02
33.29,0.01,0.18,0.02
33.29,0.01,0.18,0.02
33.29,0.01,0.19,0.02
33.29,0.02,0.19,0.03
33.30,0.02,0.19,0.03
33.30,0.03,0.18,0.03
33.30,0.03,0.18,0.03
33.30,0.03,0.17,0.03
33.30,0.04,0.17,0.03
33.31,0.04,0.17,0.03
33.31,0.04,0.16,0.03
33.31,0.04,0.16,0.03
33.31,0.05,0.16,0.03
33.32,0.05,0.16,0.03
33.32,0.05,0.16,0.03
33.32,0.05,0.16,0.03
33.32,0.05,0.15,0.03
33.33,0.05,0.15,0.03
33.33,0.05,0.15,0.04
33.33,0.05,0.14,0.04
33.33,0.06,0.14,0.04
33.33,0.06,0.14,0.04
33.34,0.06,0.14,0.04
33.34,0.06,0.13,0.04
33.34,0.06,0.13,0.04
33.34,0.06,0.13,0.04
33.35,0.06,0.13,0.04
33.35,0.06,0.12,0.04
33.35,0.05,0.13,0.04
33.35,0.05,0.13,0.04
33.36,0.05,0.13,0.04
33.36,0.06,0.13,0.04
33.36,0.06,0.12,0.04
33.36,0.06,0.12,0.04
33.36,0.07,0.11,0.04
33.37,0.07,0.11,0.04
33.37,0.07,0.11,0.04
33.37,0.07,0.10,0.04
33.37,0.07,0.10,0.04
33.38,0.07,0.09,0.03
33.38,0.08,0.08,0.03
33.38,0.08,0.07,0.03
33.38,0.09,0.06,0.04
33.39,0.09,0.05,0.04
33.39,0.09,0.04,0.03
33.39,0.09,0.04,0.04
33.39,0.10,0.03,0.04
33.39,0.10,0.02,0.04
33.40,0.10,0.01,0.04
33.40,0.10,0.00,0.04
33.40,0.09,-0.02,0.05
33.40,0.09,-0.03,0.04
33.41,0.09,-0.05,0.04
33.41,0.09,-0.07,0.04
33.41,0.09,-0.08,0.03
33.41,0.10,-0.10,0.03
33.42,0.10,-0.11,0.03
33.42,0.11,-0.13,0.03
33.42,0.12,-0.14,0.03
33.42,0.12,-0.15,0.03
33.42,0.13,-0.16,0.03
33.43,0.14,-0.17,0.02
33.43,0.15,-0.17,0.02
33.43,0.16,-0.17,0.02
33.43,0.17,-0.16,0.02
33.44,0.19,-0.15,0.02
33.44,0.20,-0.13,0.02
33.44,0.21,-0.11,0.02
33.44,0.22,-0.09,0.02
33.45,0.23,-0.08,0.02
33.45,0.24,-0.06,0.03
33.45,0.25,-0.04,0.03
33.45,0.26,-0.01,0.03
33.45,0.27,0.02,0.04
33.46,0.29,0.04,0.04
33.46,0.29,0.07,0.05
33.46,0.31,0.09,0.05
33.46,0.32,0.12,0.06
33.47,0.34,0.15,0.06
33.47,0.36,0.17,0.07
33.47,0.38,0.20,0.08
33.47,0.40,0.23,0.08
33.48,0.43,0.25,0.09
33.48,0.45,0.28,0.10
33.48,0.47,0.30,0.11
33.48,0.49,0.32,0.12
33.48,0.51,0.33,0.13
33.49,0.54,0.35,0.14
33.49,0.56,0.36,0.15
33.49,0.58,0.37,0.16
33.49,0.60,0.37,0.16
33.50,0.61,0.36,0.17
33.50,0.63,0.35,0.17
33.50,0.64,0.35,0.18
33.50,0.65,0.34,0.18
33.50,0.66,0.34,0.18
33.51,0.67,0.33,0.18
33.51,0.68,0.32,0.18
33.51,0.69,0.31,0.18
33.51,0.70,0.30,0.18
33.52,0.72,0.28,0.17
33.52,0.73,0.26,0.17
33.52,0.74,0.24,0.16
33.52,0.76,0.21,0.15
33.53,0.77,0.19,0.14
33.53,0.78,0.16,0.14
33.53,0.80,0.14,0.13
33.53,0.81,0.13,0.12
33.53,0.82,0.13,0.11
33.54,0.83,0.14,0.10
33.54,0.82,0.15,0.10
33.54,0.81,0.18,0.09
33.54,0.80,0.21,0.08
33.55,0.78,0.24,0.07
33.55,0.76,0.27,0.06
33.55,0.74,0.30,0.05
33.55,0.71,0.32,0.04
33.56,0.68,0.34,0.04
33.56,0.65,0.34,0.03
33.56,0.62,0.34,0.03
33.56,0.59,0.32,0.03
33.56,0.56,0.31,0.02
33.57,0.53,0.30,0.03
33.57,0.51,0.28,0.02
33.57,0.49,0.26,0.02
33.57,0.47,0.24,0.02
33.58,0.45,0.22,0.02
33.58,0.44,0.19,0.01
33.58,0.42,0.17,0.01
33.58,0.41,0.15,0.01
33.59,0.41,0.13,0.01
33.59,0.41,0.12,0.01
33.59,0.41,0.12,0.01
33.59,0.40,0.11,0.01
33.59,0.40,0.11,0.01
33.60,0.40,0.11,0.00
33.60,0.40,0.12,0.00
33.60,0.40,0.13,-0.01
33.60,0.40,0.14,-0.02
33.61,0.40,0.15,-0.02
33.61,0.40,0.17,-0.03
33.61,0.40,0.18,-0.04
33.61,0.40,0.19,-0.04
33.62,0.39,0.21,-0.05
33.62,0.39,0.22,-0.05
33.62,0.38,0.23,-0.06
33.62,0.37,0.24,-0.07
33.62,0.36,0.25,-0.07
33.63,0.35,0.26,-0.08
33.63,0.35,0.27,-0.08
33.63,0.35,0.27,-0.08
33.63,0.34,0.28,-0.09
33.64,0.35,0.29,-0.09
33.64,0.35,0.30,-0.09
33.64,0.36,0.30,-0.09
33.64,0.36,0.31,-0.09
33.65,0.37,0.32,-0.08
33.65,0.37,0.31,-0.08
33.65,0.37,0.31,-0.08
33.65,0.37,0.29,-0.08
33.65,0.37,0.27,-0.08
33.66,0.37,0.25,-0.08
33.66,0.37,0.22,-0.09
33.66,0.37,0.20,-0.10
33.66,0.36,0.17,-0.10
33.67,0.36,0.14,-0.11
33.67,0.35,0.11,-0.12
33.67,0.34,0.09,-0.13
33.67,0.33,0.07,-0.14
33.68,0.32,0.05,-0.15
33.68,0.31,0.04,-0.16
33.68,0.30,0.04,-0.17
33.68,0.29,0.04,-0.18
33.68,0.28,0.05,-0.19
33.69,0.27,0.05,-0.20
33.69,0.26,0.04,-0.21
33.69,0.26,0.04,-0.21
33.69,0.24,0.04,-0.22
33.70,0.24,0.04,-0.22
33.70,0.23,0.04,-0.22
33.70,0.23,0.02,-0.22
33.70,0.23,0.01,-0.22
33.70,0.23,-0.01,-0.22
33.71,0.24,-0.03,-0.22
33.71,0.25,-0.06,-0.21
33.71,0.27,-0.09,-0.21
33.71,0.30,-0.12,-0.20
33.72,0.33,-0.15,-0.18
33.72,0.36,-0.20,-0.16
33.72,0.40,-0.25,-0.13
33.72,0.45,-0.31,-0.11
33.73,0.50,-0.35,-0.08
33.73,0.56,-0.39,-0.04
33.73,0.63,-0.43,-0.01
33.73,0.70,-0.47,0.04
33.73,0.77,-0.51,0.08
33.74,0.84,-0.55,0.13
33.74,0.92,-0.59,0.19
33.74,1.00,-0.62,0.25
33.74,1.08,-0.64,0.31
33.75,1.15,-0.66,0.37
33.75,1.23,-0.68,0.42
33.75,1.31,-0.68,0.47
33.75,1.40,-0.68,0.53
33.76,1.49,-0.68,0.58
33.76,1.58,-0.68,0.63
33.76,1.68,-0.67,0.67
33.76,1.78,-0.65,0.72
33.76,1.86,-0.62,0.76
33.77,1.95,-0.58,0.80
33.77,2.04,-0.53,0.84
33.77,2.12,-0.45,0.88
33.77,2.19,-0.36,0.91
33.78,2.25,-0.25,0.93
33.78,2.30,-0.12,0.95
33.78,2.34,0.01,0.98
33.78,2.37,0.14,1.00
33.79,2.39,0.25,1.03
33.79,2.39,0.36,1.05
33.79,2.39,0.47,1.07
33.79,2.38,0.55,1.09
33.79,2.37,0.62,1.10
33.80,2.35,0.68,1.11
33.80,2.33,0.73,1.11
33.80,2.31,0.76,1.11
33.80,2.29,0.78,1.10
33.81,2.26,0.78,1.09
33.81,2.24,0.75,1.07
33.81,2.21,0.71,1.05
33.81,2.17,0.64,1.02
33.82,2.12,0.58,0.99
33.82,2.06,0.49,0.96
33.82,2.00,0.40,0.92
33.82,1.93,0.29,0.88
33.82,1.85,0.19,0.84
33.83,1.78,0.08,0.79
33.83,1.70,-0.01,0.75
33.83,1.62,-0.11,0.70
33.83,1.55,-0.19,0.64
33.84,1.47,-0.27,0.59
33.84,1.40,-0.33,0.53
33.84,1.33,-0.39,0.48
33.84,1.26,-0.43,0.43
33.85,1.19,-0.46,0.38
33.85,1.13,-0.49,0.33
33.85,1.07,-0.51,0.28
33.85,1.02,-0.53,0.24
33.85,0.97,-0.54,0.21
33.86,0.93,-0.56,0.19
33.86,0.89,-0.57,0.18
33.86,0.86,-0.56,0.18
33.86,0.82,-0.56,0.17
33.87,0.79,-0.54,0.17
33.87,0.76,-0.53,0.17
33.87,0.73,-0.52,0.17
33.87,0.69,-0.50,0.17
33.88,0.65,-0.49,0.17
33.88,0.61,-0.47,0.17
33.88,0.57,-0.44,0.18
33.88,0.53,-0.41,0.18
33.88,0.50,-0.37,0.18
33.89,0.46,-0.32,0.19
33.89,0.42,-0.27,0.20
33.89,0.38,-0.23,0.21
33.89,0.34,-0.17,0.22
33.90,0.30,-0.12,0.22
33.90,0.26,-0.08,0.22
33.90,0.21,-0.03,0.22
33.90,0.17,0.01,0.21
33.90,0.12,0.04,0.21
33.91,0.07,0.07,0.20
33.91,0.03,0.09,0.20
33.91,-0.02,0.11,0.19
33.91,-0.06,0.12,0.19
33.92,-0.11,0.13,0.18
33.92,-0.15,0.13,0.17
33.92,-0.19,0.13,0.17
33.92,-0.23,0.13,0.16
33.93,-0.27,0.13,0.15
33.93,-0.31,0.13,0.14
33.93,-0.34,0.13,0.14
33.93,-0.39,0.13,0.13
33.93,-0.42,0.12,0.12
33.94,-0.46,0.11,0.11
33.94,-0.50,0.11,0.10
33.94,-0.54,0.10,0.09
33.94,-0.57,0.09,0.08
33.95,-0.61,0.09,0.07
33.95,-0.64,0.08,0.05
33.95,-0.68,0.07,0.04
33.95,-0.71,0.06,0.03
33.96,-0.74,0.05,0.01
33.96,-0.77,0.04,-0.01
33.96,-0.79,0.03,-0.03
33.96,-0.82,0.02,-0.04
33.96,-0.84,0.00,-0.06
33.97,-0.86,-0.02,-0.08
33.97,-0.88,-0.04,-0.10
33.97,-0.90,-0.06,-0.12
33.97,-0.92,-0.07,-0.14
33.98,-0.94,-0.09,-0.17
33.98,-0.95,-0.11,-0.19
33.98,-0.97,-0.11,-0.21
33.98,-0.98,-0.12,-0.24
33.99,-1.00,-0.12,-0.27
33.99,-1.01,-0.11,-0.30
33.99,-1.02,-0.11,-0.33
33.99,-1.04,-0.09,-0.35
33.99,-1.05,-0.08,-0.38
34.00,-1.07,-0.06,-0.41
34.00,-1.09,-0.05,-0.44
34.00,-1.11,-0.03,-0.47
34.00,-1.13,-0.01,-0.50
34.01,-1.14,0.01,-0.53
34.01,-1.17,0.04,-0.56
34.01,-1.19,0.06,-0.59
34.01,-1.21,0.09,-0.61
34.02,-1.23,0.13,-0.64
34.02,-1.25,0.16,-0.67
34.02,-1.27,0.19,-0.69
34.02,-1.28,0.22,-0.71
34.02,-1.30,0.26,-0.74
34.03,-1.31,0.29,-0.76
34.03,-1.33,0.32,-0.78
34.03,-1.33,0.34,-0.80
34.03,-1.34,0.36,-0.82
34.04,-1.34,0.36,-0.84
34.04,-1.34,0.38,-0.85
34.04,-1.35,0.39,-0.87
34.04,-1.37,0.41,-0.88
34.05,-1.38,0.42,-0.89
34.05,-1.41,0.45,-0.89
34.05,-1.43,0.47,-0.90
34.05,-1.46,0.49,-0.91
34.05,-1.48,0.51,-0.92
34.06,-1.51,0.53,-0.93
34.06,-1.53,0.53,-0.93
34.06,-1.53,0.53,-0.94
34.06,-1.53,0.51,-0.95
34.07,-1.53,0.48,-0.95
34.07,-1.52,0.44,-0.95
34.07,-1.51,0.39,-0.95
34.07,-1.50,0.34,-0.94
34.08,-1.48,0.28,-0.92
34.08,-1.47,0.23,-0.90
34.08,-1.45,0.17,-0.87
34.08,-1.43,0.10,-0.84
34.08,-1.41,0.04,-0.82
34.09,-1.39,-0.02,-0.78
34.09,-1.37,-0.09,-0.75
34.09,-1.36,-0.17,-0.70
34.09,-1.34,-0.25,-0.66
34.10,-1.31,-0.32,-0.61
34.10,-1.28,-0.39,-0.57
34.10,-1.25,-0.45,-0.53
34.10,-1.21,-0.50,-0.50
34.10,-1.17,-0.55,-0.46
34.11,-1.13,-0.60,-0.43
34.11,-1.08,-0.65,-0.39
34.11,-1.04,-0.70,-0.36
34.11,-0.99,-0.74,-0.32
34.12,-0.95,-0.79,-0.29
34.12,-0.90,-0.83,-0.26
34.12,-0.85,-0.87,-0.23
34.12,-0.79,-0.90,-0.19
34.13,-0.74,-0.94,-0.17
34.13,-0.69,-0.97,-0.13
34.13,-0.63,-1.00,-0.10
34.13,-0.56,-1.02,-0.07
34.13,-0.49,-1.03,-0.02
34.14,-0.41,-1.02,0.02
34.14,-0.31,-0.99,0.07
34.14,-0.22,-0.93,0.12
34.14,-0.11,-0.83,0.18
34.15,-0.01,-0.70,0.23
34.15,0.09,-0.52,0.29
34.15,0.18,-0.32,0.33
34.15,0.25,-0.10,0.37
34.16,0.31,0.14,0.40
34.16,0.35,0.36,0.43
34.16,0.37,0.58,0.45
34.16,0.38,0.78,0.48
34.16,0.39,0.97,0.51
34.17,0.39,1.14,0.53
34.17,0.38,1.28,0.56
34.17,0.38,1.41,0.58
34.17,0.38,1.52,0.59
34.18,0.37,1.59,0.60
34.18,0.37,1.65,0.61
34.18,0.37,1.69,0.60
34.18,0.38,1.71,0.60
34.19,0.38,1.71,0.59
34.19,0.38,1.70,0.58
34.19,0.38,1.66,0.56
34.19,0.39,1.61,0.54
34.19,0.39,1.54,0.52
34.20,0.40,1.47,0.49
34.20,0.41,1.39,0.46
34.20,0.41,1.31,0.43
34.20,0.42,1.23,0.40
34.21,0.42,1.15,0.37
34.21,0.41,1.08,0.33
34.21,0.41,0.99,0.29
34.21,0.39,0.90,0.25
34.22,0.35,0.80,0.21
34.22,0.31,0.69,0.16
34.22,0.26,0.56,0.12
34.22,0.21,0.42,0.08
34.22,0.15,0.27,0.04
34.23,0.08,0.11,0.01
34.23,0.02,-0.06,-0.03
34.23,-0.05,-0.23,-0.06
34.23,-0.11,-0.40,-0.10
34.24,-0.17,-0.57,-0.14
34.24,-0.22,-0.76,-0.19
34.24,-0.26,-0.94,-0.24
34.24,-0.29,-1.12,-0.29
34.25,-0.32,-1.29,-0.35
34.25,-0.33,-1.45,-0.40
34.25,-0.34,-1.59,-0.46
34.25,-0.34,-1.71,-0.52
34.25,-0.35,-1.80,-0.57
34.26,-0.34,-1.87,-0.61
34.26,-0.34,-1.92,-0.63
34.26,-0.34,-1.95,-0.65
34.26,-0.34,-1.95,-0.67
34.27,-0.35,-1.93,-0.69
34.27,-0.37,-1.90,-0.71
34.27,-0.39,-1.83,-0.72
34.27,-0.41,-1.75,-0.73
34.28,-0.43,-1.66,-0.75
34.28,-0.44,-1.53,-0.78
34.28,-0.44,-1.39,-0.80
34.28,-0.43,-1.24,-0.83
34.28,-0.39,-1.10,-0.84
34.29,-0.34,-0.95,-0.84
34.29,-0.27,-0.80,-0.83
34.29,-0.20,-0.66,-0.78
34.29,-0.13,-0.54,-0.69
34.30,-0.06,-0.43,-0.57
34.30,-0.01,-0.32,-0.41
34.30,0.03,-0.19,-0.24
34.30,0.05,-0.06,-0.06
34.30,0.05,0.09,0.09
34.31,0.04,0.26,0.20
34.31,0.00,0.47,0.28
34.31,-0.05,0.69,0.32
34.31,-0.11,0.93,0.33
34.32,-0.16,1.17,0.34
34.32,-0.21,1.39,0.34
34.32,-0.24,1.59,0.35
34.32,-0.26,1.75,0.35
34.33,-0.28,1.87,0.37
34.33,-0.28,1.94,0.38
34.33,-0.28,1.95,0.39
34.33,-0.27,1.93,0.40
34.33,-0.27,1.86,0.41
34.34,-0.26,1.75,0.42
34.34,-0.25,1.60,0.42
34.34,-0.26,1.44,0.42
34.34,-0.26,1.27,0.41
34.35,-0.28,1.09,0.40
34.35,-0.30,0.91,0.38
34.35,-0.33,0.73,0.36
34.35,-0.37,0.58,0.35
34.36,-0.41,0.44,0.32
34.36,-0.45,0.31,0.30
34.36,-0.48,0.20,0.27
34.36,-0.50,0.09,0.23
34.36,-0.52,-0.01,0.19
34.37,-0.53,-0.08,0.16
34.37,-0.53,-0.14,0.12
34.37,-0.52,-0.17,0.09
34.37,-0.51,-0.19,0.06
34.38,-0.48,-0.19,0.03
34.38,-0.44,-0.17,0.01
34.38,-0.40,-0.13,-0.01
34.38,-0.36,-0.08,-0.03
34.39,-0.31,-0.02,-0.05
34.39,-0.27,0.05,-0.06
34.39,-0.23,0.11,-0.07
34.39,-0.20,0.17,-0.08
34.39,-0.18,0.23,-0.08
34.40,-0.18,0.27,-0.07
34.40,-0.17,0.31,-0.07
34.40,-0.18,0.35,-0.07
34.40,-0.18,0.39,-0.07
34.41,-0.19,0.42,-0.06
34.41,-0.20,0.45,-0.06
34.41,-0.22,0.47,-0.06
34.41,-0.23,0.49,-0.06
34.42,-0.25,0.49,-0.06
34.42,-0.26,0.48,-0.05
34.42,-0.27,0.46,-0.05
34.42,-0.28,0.43,-0.05
34.42,-0.29,0.38,-0.04
34.43,-0.30,0.32,-0.04
34.43,-0.31,0.24,-0.04
34.43,-0.32,0.15,-0.04
34.43,-0.34,0.06,-0.04
34.44,-0.35,-0.04,-0.04
34.44,-0.37,-0.12,-0.04
34.44,-0.39,-0.19,-0.04
34.44,-0.41,-0.23,-0.04
34.45,-0.43,-0.25,-0.04
34.45,-0.45,-0.26,-0.04
34.45,-0.48,-0.26,-0.04
34.45,-0.50,-0.23,-0.04
34.45,-0.52,-0.20,-0.04
34.46,-0.54,-0.15,-0.04
34.46,-0.55,-0.10,-0.04
34.46,-0.56,-0.04,-0.04
34.46,-0.57,0.03,-0.04
34.47,-0.57,0.09,-0.05
34.47,-0.57,0.16,-0.05
34.47,-0.56,0.21,-0.05
34.47,-0.55,0.26,-0.05
34.48,-0.55,0.30,-0.05
34.48,-0.53,0.32,-0.05
34.48,-0.52,0.34,-0.05
34.48,-0.50,0.35,-0.05
34.48,-0.48,0.36,-0.05
34.49,-0.45,0.36,-0.06
34.49,-0.43,0.35,-0.06
34.49,-0.41,0.33,-0.07
34.49,-0.38,0.31,-0.08
34.50,-0.36,0.29,-0.09
34.50,-0.33,0.26,-0.09
34.50,-0.31,0.22,-0.10
34.50,-0.29,0.19,-0.11
34.50,-0.27,0.16,-0.11
34.51,-0.25,0.12,-0.12
34.51,-0.24,0.08,-0.13
34.51,-0.22,0.05,-0.13
34.51,-0.21,0.01,-0.14
34.52,-0.20,-0.03,-0.14
34.52,-0.20,-0.06,-0.15
34.52,-0.19,-0.09,-0.15
34.52,-0.18,-0.12,-0.16
34.53,-0.18,-0.14,-0.16
34.53,-0.17,-0.16,-0.16
34.53,-0.17,-0.17,-0.16
34.53,-0.16,-0.17,-0.16
34.53,-0.16,-0.16,-0.16
34.54,-0.16,-0.15,-0.16
34.54,-0.15,-0.14,-0.17
34.54,-0.15,-0.12,-0.17
34.54,-0.15,-0.10,-0.17
34.55,-0.15,-0.08,-0.17
34.55,-0.15,-0.07,-0.17
34.55,-0.15,-0.05,-0.18
34.55,-0.15,-0.03,-0.18
34.56,-0.15,-0.02,-0.17
34.56,-0.15,0.00,-0.17
34.56,-0.14,0.01,-0.17
34.56,-0.14,0.02,-0.17
34.56,-0.13,0.02,-0.17
34.57,-0.13,0.03,-0.17
34.57,-0.12,0.04,-0.16
34.57,-0.11,0.05,-0.15
34.57,-0.10,0.06,-0.15
34.58,-0.09,0.08,-0.15
34.58,-0.08,0.09,-0.14
34.58,-0.07,0.10,-0.14
34.58,-0.05,0.11,-0.13
34.59,-0.04,0.12,-0.13
34.59,-0.02,0.12,-0.12
34.59,0.00,0.12,-0.12
34.59,0.03,0.11,-0.11
34.59,0.06,0.09,-0.10
34.60,0.09,0.07,-0.09
34.60,0.13,0.05,-0.09
34.60,0.18,0.03,-0.08
34.60,0.23,0.01,-0.08
34.61,0.29,-0.02,-0.07
34.61,0.34,-0.05,-0.06
34.61,0.40,-0.08,-0.05
34.61,0.45,-0.10,-0.04
34.62,0.50,-0.12,-0.03
34.62,0.55,-0.14,-0.02
34.62,0.59,-0.14,-0.01
34.62,0.62,-0.13,0.01
34.62,0.65,-0.11,0.02
34.63,0.66,-0.06,0.04
34.63,0.67,0.00,0.05
34.63,0.66,0.09,0.07
34.63,0.65,0.18,0.08
34.64,0.64,0.28,0.09
34.64,0.62,0.38,0.09
34.64,0.60,0.46,0.09
34.64,0.59,0.55,0.09
34.65,0.58,0.61,0.08
34.65,0.58,0.65,0.07
34.65,0.59,0.67,0.06
34.65,0.59,0.67,0.04
34.65,0.59,0.65,0.02
34.66,0.60,0.60,0.01
34.66,0.60,0.55,-0.02
34.66,0.61,0.48,-0.05
34.66,0.61,0.41,-0.07
34.67,0.61,0.33,-0.09
34.67,0.60,0.27,-0.10
34.67,0.59,0.21,-0.12
34.67,0.58,0.17,-0.13
34.68,0.55,0.15,-0.15
34.68,0.53,0.13,-0.16
34.68,0.51,0.13,-0.17
34.68,0.49,0.13,-0.19
34.68,0.47,0.13,-0.20
34.69,0.46,0.13,-0.21
34.69,0.44,0.13,-0.22
34.69,0.43,0.12,-0.22
34.69,0.43,0.11,-0.23
34.70,0.42,0.11,-0.23
34.70,0.41,0.11,-0.23
34.70,0.40,0.11,-0.23
34.70,0.40,0.10,-0.22
34.70,0.39,0.10,-0.22
34.71,0.39,0.10,-0.22
34.71,0.39,0.10,-0.22
34.71,0.39,0.10,-0.22
34.71,0.39,0.10,-0.22
34.72,0.39,0.10,-0.22
34.72,0.39,0.10,-0.23
34.72,0.39,0.10,-0.23
34.72,0.38,0.08,-0.23
34.73,0.37,0.06,-0.23
34.73,0.36,0.02,-0.23
34.73,0.36,-0.02,-0.23
34.73,0.35,-0.07,-0.22
34.73,0.35,-0.14,-0.21
34.74,0.36,-0.20,-0.20
34.74,0.38,-0.27,-0.19
34.74,0.40,-0.35,-0.18
34.74,0.43,-0.43,-0.16
34.75,0.46,-0.52,-0.14
34.75,0.50,-0.61,-0.13
34.75,0.55,-0.68,-0.11
34.75,0.60,-0.74,-0.09
34.76,0.66,-0.80,-0.07
34.76,0.73,-0.83,-0.06
34.76,0.80,-0.86,-0.03
34.76,0.87,-0.88,-0.01
34.76,0.95,-0.89,0.02
34.77,1.03,-0.89,0.06
34.77,1.11,-0.88,0.10
34.77,1.19,-0.86,0.14
34.77,1.27,-0.82,0.19
34.78,1.33,-0.78,0.24
34.78,1.38,-0.73,0.28
34.78,1.43,-0.67,0.32
34.78,1.47,-0.61,0.35
34.79,1.50,-0.55,0.39
34.79,1.53,-0.50,0.41
34.79,1.56,-0.46,0.44
34.79,1.60,-0.42,0.47
34.79,1.64,-0.40,0.50
34.80,1.69,-0.38,0.53
34.80,1.75,-0.39,0.56
34.80,1.82,-0.41,0.60
34.80,1.89,-0.44,0.64
34.81,1.96,-0.47,0.67
34.81,2.04,-0.49,0.70
34.81,2.11,-0.51,0.73
34.81,2.18,-0.50,0.76
34.82,2.23,-0.47,0.79
34.82,2.28,-0.40,0.82
34.82,2.31,-0.30,0.84
34.82,2.32,-0.16,0.87
34.82,2.33,0.02,0.90
34.83,2.32,0.21,0.93
34.83,2.32,0.41,0.95
34.83,2.31,0.62,0.97
34.83,2.29,0.80,0.97
34.84,2.27,0.98,0.98
34.84,2.26,1.13,0.98
34.84,2.24,1.26,0.98
34.84,2.22,1.37,0.98
34.85,2.20,1.45,0.98
34.85,2.17,1.50,0.97
34.85,2.15,1.52,0.97
34.85,2.11,1.51,0.96
34.85,2.07,1.45,0.96
34.86,2.03,1.36,0.95
34.86,1.97,1.24,0.94
34.86,1.91,1.10,0.94
34.86,1.86,0.95,0.93
34.87,1.80,0.81,0.91
34.87,1.73,0.67,0.89
34.87,1.67,0.56,0.86
34.87,1.61,0.47,0.82
34.88,1.55,0.39,0.79
34.88,1.48,0.33,0.75
34.88,1.41,0.28,0.71
34.88,1.35,0.25,0.67
34.88,1.29,0.21,0.64
34.89,1.23,0.17,0.61
34.89,1.16,0.12,0.59
34.89,1.11,0.08,0.57
34.89,1.05,0.05,0.56
34.90,1.00,0.02,0.54
34.90,0.94,-0.01,0.54
34.90,0.89,-0.05,0.55
34.90,0.85,-0.08,0.56
34.91,0.81,-0.12,0.58
34.91,0.78,-0.16,0.61
34.91,0.75,-0.18,0.63
34.91,0.72,-0.21,0.65
34.91,0.69,-0.23,0.67
34.92,0.67,-0.25,0.69
34.92,0.64,-0.25,0.70
34.92,0.61,-0.25,0.70
34.92,0.59,-0.24,0.70
34.93,0.57,-0.23,0.69
34.93,0.54,-0.21,0.68
34.93,0.51,-0.18,0.67
34.93,0.49,-0.14,0.65
34.93,0.47,-0.10,0.62
34.94,0.45,-0.06,0.60
34.94,0.42,-0.04,0.58
34.94,0.40,-0.03,0.55
34.94,0.38,-0.03,0.53
34.95,0.35,-0.03,0.50
34.95,0.33,-0.04,0.47
34.95,0.30,-0.06,0.45
34.95,0.27,-0.08,0.42
34.96,0.24,-0.11,0.40
34.96,0.20,-0.14,0.38
34.96,0.17,-0.17,0.35
34.96,0.13,-0.20,0.33
34.96,0.09,-0.23,0.31
34.97,0.06,-0.27,0.28
34.97,0.02,-0.30,0.26
34.97,-0.02,-0.34,0.24
34.97,-0.05,-0.37,0.22
34.98,-0.09,-0.40,0.19
34.98,-0.12,-0.43,0.17
34.98,-0.16,-0.45,0.15
34.98,-0.19,-0.48,0.13
34.99,-0.22,-0.50,0.11
34.99,-0.25,-0.52,0.09
34.99,-0.28,-0.53,0.07
34.99,-0.30,-0.54,0.05
34.99,-0.33,-0.55,0.03
35.00,-0.36,-0.56,0.02
35.00,-0.38,-0.56,0.00
35.00,-0.41,-0.55,-0.02
35.00,-0.43,-0.54,-0.04
35.01,-0.46,-0.52,-0.05
35.01,-0.48,-0.50,-0.07
35.01,-0.51,-0.48,-0.09
35.01,-0.53,-0.46,-0.11
35.02,-0.56,-0.43,-0.13
35.02,-0.58,-0.40,-0.15
35.02,-0.60,-0.38,-0.17
35.02,-0.63,-0.35,-0.19
35.02,-0.65,-0.31,-0.21
35.03,-0.67,-0.28,-0.23
35.03,-0.69,-0.26,-0.25
35.03,-0.71,-0.23,-0.28
35.03,-0.74,-0.21,-0.30
35.04,-0.76,-0.19,-0.33
35.04,-0.78,-0.16,-0.35
35.04,-0.80,-0.14,-0.38
35.04,-0.82,-0.13,-0.41
35.05,-0.84,-0.10,-0.44
35.05,-0.86,-0.08,-0.47
35.05,-0.88,-0.06,-0.50
35.05,-0.90,-0.03,-0.53
35.05,-0.93,-0.02,-0.56
35.06,-0.95,0.00,-0.59
35.06,-0.98,0.02,-0.62
35.06,-1.00,0.04,-0.65
35.06,-1.03,0.06,-0.68
35.07,-1.06,0.08,-0.71
35.07,-1.08,0.10,-0.74
35.07,-1.11,0.11,-0.77
35.07,-1.14,0.11,-0.80
35.08,-1.16,0.12,-0.83
35.08,-1.19,0.12,-0.86
35.08,-1.21,0.13,-0.88
35.08,-1.24,0.13,-0.90
35.08,-1.26,0.13,-0.93
35.09,-1.29,0.12,-0.95
35.09,-1.31,0.12,-0.97
35.09,-1.33,0.11,-0.99
35.09,-1.36,0.10,-1.01
35.10,-1.37,0.10,-1.02
35.10,-1.39,0.09,-1.03
35.10,-1.41,0.08,-1.04
35.10,-1.42,0.08,-1.05
35.11,-1.43,0.08,-1.05
35.11,-1.44,0.07,-1.06
35.11,-1.46,0.07,-1.06
35.11,-1.47,0.07,-1.06
35.11,-1.49,0.07,-1.06
35.12,-1.51,0.07,-1.05
35.12,-1.53,0.07,-1.04
35.12,-1.55,0.08,-1.02
35.12,-1.57,0.08,-1.01
35.13,-1.60,0.08,-0.99
35.13,-1.62,0.08,-0.96
35.13,-1.64,0.08,-0.94
35.13,-1.65,0.07,-0.91
35.13,-1.66,0.05,-0.88
35.14,-1.67,0.04,-0.86
35.14,-1.67,0.02,-0.83
35.14,-1.66,0.01,-0.81
35.14,-1.66,-0.01,-0.78
35.15,-1.65,-0.03,-0.76
35.15,-1.64,-0.05,-0.73
35.15,-1.63,-0.07,-0.71
35.15,-1.62,-0.10,-0.70
35.16,-1.60,-0.14,-0.67
35.16,-1.59,-0.18,-0.65
35.16,-1.57,-0.23,-0.63
35.16,-1.55,-0.30,-0.60
35.16,-1.52,-0.36,-0.58
35.17,-1.50,-0.44,-0.55
35.17,-1.47,-0.52,-0.53
35.17,-1.44,-0.59,-0.51
35.17,-1.41,-0.66,-0.50
35.18,-1.37,-0.72,-0.49
35.18,-1.33,-0.77,-0.47
35.18,-1.30,-0.82,-0.47
35.18,-1.26,-0.85,-0.46
35.19,-1.21,-0.88,-0.46
35.19,-1.17,-0.89,-0.45
35.19,-1.12,-0.90,-0.43
35.19,-1.07,-0.91,-0.42
35.19,-1.02,-0.91,-0.40
35.20,-0.97,-0.91,-0.37
35.20,-0.92,-0.91,-0.35
35.20,-0.86,-0.90,-0.32
35.20,-0.80,-0.87,-0.28
35.21,-0.73,-0.84,-0.25
35.21,-0.66,-0.79,-0.21
35.21,-0.59,-0.73,-0.17
35.21,-0.52,-0.67,-0.13
35.22,-0.46,-0.59,-0.08
35.22,-0.39,-0.50,-0.04
35.22,-0.34,-0.38,-0.01
35.22,-0.29,-0.25,0.03
35.22,-0.26,-0.10,0.06
35.23,-0.23,0.07,0.08
35.23,-0.21,0.25,0.10
35.23,-0.19,0.43,0.12
35.23,-0.19,0.61,0.14
35.24,-0.18,0.78,0.18
35.24,-0.18,0.94,0.21
35.24,-0.18,1.09,0.24
35.24,-0.18,1.23,0.27
35.25,-0.18,1.36,0.30
35.25,-0.17,1.48,0.32
35.25,-0.16,1.59,0.33
35.25,-0.15,1.68,0.34
35.25,-0.14,1.77,0.35
35.26,-0.13,1.84,0.36
35.26,-0.12,1.90,0.36
35.26,-0.11,1.95,0.36
35.26,-0.10,1.99,0.35
35.27,-0.08,2.02,0.35
35.27,-0.07,2.03,0.34
35.27,-0.06,2.03,0.33
35.27,-0.05,2.01,0.31
35.28,-0.03,1.98,0.29
35.28,-0.02,1.94,0.27
35.28,0.00,1.88,0.24
35.28,0.02,1.80,0.21
35.28,0.04,1.71,0.17
35.29,0.05,1.59,0.13
35.29,0.06,1.46,0.09
35.29,0.06,1.30,0.04
35.29,0.06,1.14,-0.02
35.30,0.06,0.96,-0.07
35.30,0.06,0.77,-0.12
35.30,0.06,0.57,-0.16
35.30,0.06,0.35,-0.20
35.31,0.07,0.13,-0.24
35.31,0.07,-0.09,-0.27
35.31,0.06,-0.30,-0.29
35.31,0.05,-0.51,-0.32
35.31,0.03,-0.70,-0.34
35.32,0.02,-0.89,-0.36
35.32,0.01,-1.05,-0.38
35.32,0.00,-1.19,-0.40
35.32,0.00,-1.33,-0.43
35.33,-0.01,-1.45,-0.45
35.33,-0.02,-1.55,-0.47
35.33,-0.04,-1.62,-0.50
35.33,-0.06,-1.67,-0.53
35.33,-0.09,-1.68,-0.55
35.34,-0.12,-1.66,-0.57
35.34,-0.14,-1.58,-0.59
35.34,-0.16,-1.46,-0.60
35.34,-0.17,-1.29,-0.60
35.35,-0.17,-1.09,-0.60
35.35,-0.16,-0.87,-0.58
35.35,-0.16,-0.62,-0.55
35.35,-0.18,-0.38,-0.51
35.36,-0.20,-0.14,-0.45
35.36,-0.24,0.09,-0.38
35.36,-0.29,0.29,-0.30
35.36,-0.35,0.46,-0.21
35.36,-0.41,0.60,-0.11
35.37,-0.47,0.72,0.00
35.37,-0.52,0.83,0.09
35.37,-0.56,0.92,0.17
35.37,-0.59,1.01,0.25
35.38,-0.59,1.10,0.32
35.38,-0.58,1.21,0.39
35.38,-0.56,1.33,0.44
35.38,-0.55,1.45,0.49
35.39,-0.53,1.57,0.54
35.39,-0.53,1.69,0.57
35.39,-0.55,1.80,0.59
35.39,-0.59,1.90,0.61
35.39,-0.63,1.97,0.63
35.40,-0.69,2.02,0.63
35.40,-0.75,2.03,0.62
35.40,-0.81,2.01,0.60
35.40,-0.86,1.94,0.56
35.41,-0.90,1.84,0.52
35.41,-0.93,1.69,0.46
35.41,-0.94,1.51,0.39
35.41,-0.93,1.29,0.32
35.42,-0.91,1.04,0.25
35.42,-0.87,0.75,0.19
35.42,-0.80,0.46,0.12
35.42,-0.73,0.15,0.06
35.42,-0.64,-0.16,0.01
35.43,-0.55,-0.45,-0.04
35.43,-0.46,-0.72,-0.09
35.43,-0.37,-0.96,-0.15
35.43,-0.29,-1.15,-0.19
35.44,-0.22,-1.28,-0.24
35.44,-0.17,-1.35,-0.27
35.44,-0.13,-1.36,-0.30
35.44,-0.11,-1.30,-0.32
35.45,-0.10,-1.18,-0.33
35.45,-0.10,-1.02,-0.32
35.45,-0.11,-0.84,-0.31
35.45,-0.12,-0.64,-0.29
35.45,-0.13,-0.43,-0.28
35.46,-0.14,-0.22,-0.27
35.46,-0.17,-0.01,-0.27
35.46,-0.19,0.18,-0.28
35.46,-0.22,0.35,-0.28
35.47,-0.26,0.49,-0.29
35.47,-0.30,0.61,-0.29
35.47,-0.35,0.70,-0.29
35.47,-0.40,0.77,-0.29
35.48,-0.45,0.82,-0.28
35.48,-0.51,0.85,-0.27
35.48,-0.57,0.85,-0.26
35.48,-0.64,0.83,-0.24
35.48,-0.71,0.80,-0.22
35.49,-0.78,0.74,-0.19
35.49,-0.85,0.67,-0.17
35.49,-0.93,0.61,-0.15
35.49,-1.00,0.56,-0.13
35.50,-1.07,0.51,-0.12
35.50,-1.14,0.47,-0.11
35.50,-1.19,0.44,-0.11
35.50,-1.24,0.40,-0.12
35.51,-1.27,0.36,-0.12
35.51,-1.29,0.31,-0.13
35.51,-1.31,0.26,-0.14
35.51,-1.31,0.20,-0.15
35.51,-1.30,0.14,-0.15
35.52,-1.28,0.08,-0.16
35.52,-1.26,0.02,-0.18
35.52,-1.24,-0.02,-0.19
35.52,-1.20,-0.03,-0.20
35.53,-1.16,-0.03,-0.21
35.53,-1.13,-0.02,-0.22
35.53,-1.09,0.01,-0.23
35.53,-1.06,0.05,-0.23
35.53,-1.03,0.10,-0.23
35.54,-1.01,0.15,-0.23
35.54,-0.99,0.20,-0.23
35.54,-0.97,0.26,-0.23
35.54,-0.95,0.32,-0.23
35.55,-0.93,0.37,-0.23
35.55,-0.91,0.43,-0.23
35.55,-0.89,0.48,-0.24
35.55,-0.86,0.53,-0.24
35.56,-0.83,0.58,-0.25
35.56,-0.80,0.62,-0.26
35.56,-0.76,0.65,-0.27
35.56,-0.73,0.69,-0.28
35.56,-0.69,0.70,-0.29
35.57,-0.66,0.71,-0.29
35.57,-0.63,0.70,-0.30
35.57,-0.61,0.68,-0.31
35.57,-0.60,0.65,-0.32
35.58,-0.58,0.62,-0.33
35.58,-0.57,0.59,-0.33
35.58,-0.56,0.55,-0.34
35.58,-0.55,0.52,-0.34
35.59,-0.53,0.49,-0.35
35.59,-0.52,0.47,-0.36
35.59,-0.49,0.45,-0.37
35.59,-0.47,0.44,-0.38
35.59,-0.43,0.43,-0.39
35.60,-0.40,0.41,-0.40
35.60,-0.37,0.41,-0.41
35.60,-0.34,0.40,-0.42
35.60,-0.31,0.40,-0.44
35.61,-0.28,0.40,-0.45
35.61,-0.25,0.40,-0.47
35.61,-0.23,0.40,-0.48
35.61,-0.21,0.40,-0.50
35.62,-0.19,0.39,-0.50
35.62,-0.17,0.39,-0.51
35.62,-0.16,0.39,-0.51
35.62,-0.16,0.40,-0.51
35.62,-0.15,0.40,-0.51
35.63,-0.15,0.42,-0.51
35.63,-0.15,0.42,-0.50
35.63,-0.15,0.43,-0.49
35.63,-0.16,0.44,-0.49
35.64,-0.16,0.45,-0.48
35.64,-0.17,0.45,-0.47
35.64,-0.18,0.45,-0.46
35.64,-0.19,0.46,-0.45
35.65,-0.19,0.45,-0.44
35.65,-0.19,0.44,-0.43
35.65,-0.19,0.42,-0.43
35.65,-0.19,0.39,-0.43
35.65,-0.19,0.36,-0.43
35.66,-0.19,0.33,-0.43
35.66,-0.18,0.30,-0.42
35.66,-0.18,0.27,-0.42
35.66,-0.19,0.25,-0.41
35.67,-0.20,0.22,-0.40
35.67,-0.21,0.20,-0.39
35.67,-0.23,0.19,-0.38
35.67,-0.24,0.17,-0.37
35.68,-0.26,0.16,-0.37
35.68,-0.28,0.14,-0.36
35.68,-0.31,0.12,-0.36
35.68,-0.33,0.10,-0.36
35.68,-0.34,0.09,-0.36
35.69,-0.36,0.06,-0.37
35.69,-0.37,0.03,-0.37
35.69,-0.38,0.00,-0.37
35.69,-0.38,-0.03,-0.37
35.70,-0.38,-0.05,-0.37
35.70,-0.38,-0.08,-0.37
35.70,-0.37,-0.09,-0.38
35.70,-0.36,-0.10,-0.38
35.71,-0.36,-0.10,-0.38
35.71,-0.36,-0.10,-0.38
35.71,-0.35,-0.09,-0.39
35.71,-0.35,-0.08,-0.39
35.71,-0.35,-0.07,-0.40
35.72,-0.35,-0.05,-0.41
35.72,-0.34,-0.03,-0.41
35.72,-0.34,-0.01,-0.42
35.72,-0.34,0.00,-0.42
35.73,-0.34,0.02,-0.42
35.73,-0.34,0.04,-0.43
35.73,-0.34,0.05,-0.43
35.73,-0.34,0.06,-0.43
35.73,-0.34,0.07,-0.44
35.74,-0.34,0.07,-0.44
35.74,-0.34,0.06,-0.44
35.74,-0.34,0.05,-0.44
35.74,-0.34,0.04,-0.45
35.75,-0.34,0.03,-0.45
35.75,-0.34,0.01,-0.46
35.75,-0.35,-0.02,-0.46
35.75,-0.35,-0.04,-0.46
35.76,-0.35,-0.06,-0.47
35.76,-0.35,-0.08,-0.47
35.76,-0.34,-0.10,-0.47
35.76,-0.34,-0.11,-0.47
35.76,-0.33,-0.11,-0.48
35.77,-0.33,-0.11,-0.48
35.77,-0.33,-0.10,-0.48
35.77,-0.32,-0.07,-0.48
35.77,-0.32,-0.04,-0.48
35.78,-0.32,0.00,-0.47
35.78,-0.31,0.04,-0.47
35.78,-0.31,0.09,-0.46
35.78,-0.31,0.13,-0.45
35.79,-0.31,0.17,-0.44
35.79,-0.31,0.19,-0.43
35.79,-0.31,0.21,-0.42
35.79,-0.32,0.21,-0.40
35.79,-0.33,0.20,-0.39
35.80,-0.34,0.18,-0.38
35.80,-0.35,0.15,-0.37
35.80,-0.36,0.12,-0.37
35.80,-0.37,0.07,-0.36
35.81,-0.38,0.02,-0.36
35.81,-0.38,-0.03,-0.35
35.81,-0.38,-0.08,-0.34
35.81,-0.38,-0.11,-0.34
35.82,-0.37,-0.15,-0.34
35.82,-0.36,-0.18,-0.33
35.82,-0.34,-0.20,-0.33
35.82,-0.31,-0.21,-0.33
35.82,-0.28,-0.21,-0.33
35.83,-0.25,-0.20,-0.33
35.83,-0.22,-0.18,-0.33
35.83,-0.18,-0.16,-0.32
35.83,-0.15,-0.13,-0.33
35.84,-0.11,-0.10,-0.33
35.84,-0.08,-0.07,-0.33
35.84,-0.05,-0.04,-0.32
35.84,-0.02,-0.02,-0.32
35.85,0.01,-0.01,-0.33
35.85,0.04,0.00,-0.33
35.85,0.06,0.00,-0.33
35.85,0.09,-0.01,-0.33
35.85,0.11,-0.03,-0.33
35.86,0.13,-0.04,-0.34
35.86,0.15,-0.07,-0.34
35.86,0.18,-0.09,-0.35
35.86,0.20,-0.11,-0.35
35.87,0.23,-0.13,-0.35
35.87,0.25,-0.15,-0.35
35.87,0.28,-0.16,-0.35
35.87,0.31,-0.17,-0.35
35.88,0.34,-0.18,-0.35
35.88,0.38,-0.18,-0.34
35.88,0.43,-0.19,-0.34
35.88,0.48,-0.20,-0.33
35.88,0.53,-0.20,-0.32
35.89,0.60,-0.20,-0.32
35.89,0.67,-0.20,-0.31
35.89,0.74,-0.18,-0.30
35.89,0.82,-0.16,-0.30
35.90,0.91,-0.13,-0.29
35.90,1.00,-0.08,-0.28
35.90,1.10,-0.05,-0.26
35.90,1.19,-0.01,-0.25
35.91,1.28,0.01,-0.22
35.91,1.37,0.02,-0.18
35.91,1.45,0.01,-0.12
35.91,1.53,-0.02,-0.05
35.91,1.61,-0.05,0.03
35.92,1.69,-0.11,0.11
35.92,1.77,-0.18,0.20
35.92,1.84,-0.25,0.29
35.92,1.92,-0.34,0.38
35.93,1.98,-0.42,0.46
35.93,2.04,-0.50,0.53
35.93,2.10,-0.57,0.61
35.93,2.16,-0.63,0.68
35.93,2.21,-0.65,0.74
35.94,2.28,-0.65,0.81
35.94,2.36,-0.63,0.87
35.94,2.45,-0.58,0.93
35.94,2.55,-0.51,1.00
35.95,2.67,-0.42,1.07
35.95,2.80,-0.32,1.14
35.95,2.92,-0.19,1.22
35.95,3.04,-0.05,1.29
35.96,3.15,0.11,1.34
35.96,3.24,0.29,1.40
35.96,3.30,0.48,1.45
35.96,3.35,0.67,1.49
35.96,3.37,0.88,1.52
35.97,3.37,1.10,1.55
35.97,3.34,1.31,1.57
35.97,3.28,1.50,1.58
35.97,3.20,1.68,1.59
35.98,3.11,1.84,1.59
35.98,3.02,1.99,1.58
35.98,2.92,2.13,1.57
35.98,2.82,2.25,1.55
35.99,2.73,2.34,1.53
35.99,2.65,2.40,1.51
35.99,2.58,2.43,1.48
35.99,2.50,2.42,1.46
35.99,2.43,2.37,1.45
36.00,2.35,2.30,1.43
36.00,2.28,2.19,1.41
36.00,2.20,2.05,1.40
36.00,2.13,1.86,1.38
36.01,2.06,1.65,1.37
36.01,2.00,1.43,1.36
36.01,1.95,1.21,1.36
36.01,1.93,1.02,1.36
36.02,1.93,0.86,1.37
36.02,1.94,0.71,1.38
36.02,1.98,0.61,1.38
36.02,2.03,0.56,1.38
36.02,2.09,0.55,1.36
36.03,2.15,0.60,1.35
36.03,2.22,0.69,1.33
36.03,2.27,0.82,1.31
36.03,2.30,0.97,1.30
36.04,2.31,1.13,1.30
36.04,2.31,1.28,1.31
36.04,2.30,1.42,1.33
36.04,2.28,1.53,1.35
36.05,2.25,1.62,1.37
36.05,2.21,1.64,1.39
36.05,2.16,1.62,1.41
36.05,2.11,1.54,1.43
36.05,2.06,1.38,1.44
36.06,1.99,1.16,1.47
36.06,1.92,0.93,1.53
36.06,1.90,0.76,1.61
36.06,1.92,0.60,1.70
36.07,1.96,0.28,1.80
36.07,2.00,-0.23,1.89
36.07,2.03,-0.82,2.00
36.07,2.07,-1.40,2.10
36.08,2.11,-1.88,2.20
36.08,2.14,-2.22,2.27
36.08,2.17,-2.43,2.31
36.08,2.19,-2.49,2.31
36.08,2.18,-2.44,2.27
36.09,2.15,-2.31,2.18
36.09,2.11,-2.15,2.06
36.09,2.05,-2.01,1.92
36.09,1.98,-1.90,1.79
36.10,1.90,-1.85,1.66
36.10,1.83,-1.84,1.55
36.10,1.76,-1.87,1.46
36.10,1.70,-1.91,1.39
36.11,1.65,-1.94,1.34
36.11,1.59,-1.95,1.30
36.11,1.54,-1.94,1.27
36.11,1.48,-1.91,1.26
36.11,1.43,-1.88,1.25
36.12,1.39,-1.87,1.25
36.12,1.34,-1.87,1.25
36.12,1.29,-1.90,1.24
36.12,1.25,-1.95,1.24
36.13,1.22,-2.04,1.23
36.13,1.18,-2.12,1.21
36.13,1.15,-2.19,1.19
36.13,1.12,-2.24,1.17
36.13,1.09,-2.26,1.14
36.14,1.05,-2.23,1.10
36.14,1.00,-2.17,1.07
36.14,0.95,-2.08,1.04
36.14,0.90,-1.96,1.00
36.15,0.84,-1.84,0.96
36.15,0.79,-1.72,0.92
36.15,0.73,-1.59,0.88
36.15,0.68,-1.48,0.85
36.16,0.62,-1.39,0.80
36.16,0.56,-1.30,0.76
36.16,0.51,-1.24,0.71
36.16,0.45,-1.19,0.67
36.16,0.41,-1.16,0.64
36.17,0.37,-1.15,0.60
36.17,0.32,-1.15,0.57
36.17,0.28,-1.15,0.54
36.17,0.25,-1.17,0.51
36.18,0.20,-1.18,0.48
36.18,0.16,-1.21,0.44
36.18,0.12,-1.22,0.42
36.18,0.07,-1.23,0.39
36.19,0.02,-1.24,0.37
36.19,-0.02,-1.24,0.35
36.19,-0.08,-1.24,0.33
36.19,-0.13,-1.23,0.31
36.19,-0.18,-1.23,0.30
36.20,-0.23,-1.22,0.28
36.20,-0.29,-1.21,0.27
36.20,-0.34,-1.20,0.25
36.20,-0.40,-1.18,0.23
36.21,-0.45,-1.15,0.21
36.21,-0.51,-1.12,0.19
36.21,-0.57,-1.09,0.17
36.21,-0.63,-1.04,0.15
36.22,-0.69,-1.00,0.13
36.22,-0.75,-0.94,0.12
36.22,-0.82,-0.89,0.10
36.22,-0.88,-0.83,0.09
36.22,-0.95,-0.78,0.08
36.23,-1.02,-0.73,0.07
36.23,-1.08,-0.69,0.08
36.23,-1.15,-0.66,0.09
36.23,-1.22,-0.62,0.08
36.24,-1.29,-0.58,0.07
36.24,-1.36,-0.54,0.05
36.24,-1.42,-0.51,0.04
36.24,-1.48,-0.49,0.03
36.25,-1.54,-0.47,0.02
36.25,-1.59,-0.45,0.01
36.25,-1.64,-0.44,0.00
36.25,-1.69,-0.44,-0.01
36.25,-1.73,-0.43,-0.02
36.26,-1.77,-0.42,-0.04
36.26,-1.82,-0.41,-0.06
36.26,-1.85,-0.39,-0.08
36.26,-1.89,-0.37,-0.11
36.27,-1.92,-0.35,-0.13
36.27,-1.96,-0.32,-0.16
36.27,-1.98,-0.29,-0.20
36.27,-2.01,-0.26,-0.23
36.28,-2.04,-0.23,-0.27
36.28,-2.05,-0.20,-0.31
36.28,-2.07,-0.18,-0.35
36.28,-2.08,-0.16,-0.38
36.28,-2.09,-0.14,-0.42
36.29,-2.10,-0.14,-0.45
36.29,-2.11,-0.13,-0.49
36.29,-2.11,-0.13,-0.51
36.29,-2.10,-0.14,-0.54
36.30,-2.10,-0.15,-0.57
36.30,-2.09,-0.17,-0.60
36.30,-2.08,-0.19,-0.62
36.30,-2.06,-0.21,-0.65
36.31,-2.03,-0.23,-0.68
36.31,-2.00,-0.25,-0.71
36.31,-1.97,-0.28,-0.74
36.31,-1.93,-0.32,-0.77
36.31,-1.90,-0.36,-0.80
36.32,-1.85,-0.40,-0.82
36.32,-1.81,-0.43,-0.85
36.32,-1.76,-0.46,-0.87
36.32,-1.71,-0.48,-0.89
36.33,-1.65,-0.52,-0.91
36.33,-1.60,-0.57,-0.92
36.33,-1.55,-0.61,-0.93
36.33,-1.49,-0.66,-0.94
36.34,-1.42,-0.71,-0.95
36.34,-1.35,-0.76,-0.96
36.34,-1.28,-0.82,-0.96
36.34,-1.19,-0.88,-0.97
36.34,-1.11,-0.94,-0.99
36.35,-1.02,-1.00,-1.01
36.35,-0.93,-1.06,-1.03
36.35,-0.84,-1.12,-1.05
36.35,-0.74,-1.18,-1.07
36.36,-0.66,-1.25,-1.08
36.36,-0.57,-1.32,-1.09
36.36,-0.50,-1.40,-1.10
36.36,-0.42,-1.48,-1.10
36.36,-0.36,-1.56,-1.10
36.37,-0.32,-1.63,-1.09
36.37,-0.27,-1.71,-1.07
36.37,-0.23,-1.77,-1.04
36.37,-0.19,-1.83,-1.00
36.38,-0.16,-1.87,-0.95
36.38,-0.14,-1.90,-0.91
36.38,-0.11,-1.91,-0.85
36.38,-0.09,-1.90,-0.80
36.39,-0.08,-1.86,-0.73
36.39,-0.06,-1.80,-0.67
36.39,-0.04,-1.71,-0.60
36.39,-0.03,-1.61,-0.53
36.39,0.00,-1.48,-0.45
36.40,0.02,-1.34,-0.39
36.40,0.05,-1.18,-0.32
36.40,0.07,-1.02,-0.26
36.40,0.10,-0.87,-0.20
36.41,0.13,-0.72,-0.16
36.41,0.15,-0.58,-0.12
36.41,0.17,-0.44,-0.09
36.41,0.19,-0.31,-0.06
36.42,0.20,-0.18,-0.05
36.42,0.22,-0.06,-0.03
36.42,0.22,0.05,-0.01
36.42,0.23,0.14,0.00
36.42,0.22,0.23,0.01
36.43,0.21,0.30,0.01
36.43,0.20,0.37,0.03
36.43,0.18,0.43,0.04
36.43,0.16,0.48,0.05
36.44,0.15,0.53,0.06
36.44,0.13,0.57,0.07
36.44,0.11,0.60,0.07
36.44,0.10,0.63,0.08
36.45,0.08,0.65,0.09
36.45,0.07,0.66,0.10
36.45,0.06,0.66,0.10
36.45,0.05,0.66,0.12
36.45,0.04,0.66,0.13
36.46,0.04,0.64,0.15
36.46,0.04,0.61,0.16
36.46,0.04,0.57,0.18
36.46,0.04,0.53,0.20
36.47,0.05,0.50,0.21
36.47,0.05,0.46,0.21
36.47,0.05,0.44,0.21
36.47,0.05,0.40,0.20
36.48,0.05,0.36,0.19
36.48,0.05,0.32,0.17
36.48,0.05,0.27,0.14
36.48,0.05,0.24,0.10
36.48,0.07,0.24,0.07
36.49,0.10,0.29,0.04
36.49,0.13,0.38,0.02
36.49,0.16,0.51,0.00
36.49,0.16,0.66,-0.02
36.50,0.15,0.83,-0.04
36.50,0.10,0.99,-0.07
36.50,0.03,1.12,-0.11
36.50,-0.06,1.22,-0.17
36.51,-0.15,1.31,-0.23
36.51,-0.25,1.38,-0.31
36.51,-0.33,1.42,-0.38
36.51,-0.38,1.43,-0.47
36.51,-0.40,1.39,-0.55
36.52,-0.37,1.25,-0.62
36.52,-0.28,1.00,-0.67
36.52,-0.12,0.57,-0.68
36.52,0.13,-0.02,-0.63
36.53,0.43,-0.73,-0.53
36.53,0.75,-1.45,-0.39
36.53,1.05,-2.06,-0.22
36.53,1.33,-2.46,-0.05
36.54,1.58,-2.58,0.12
36.54,1.76,-2.41,0.29
36.54,1.89,-1.97,0.44
36.54,1.93,-1.37,0.57
36.54,1.90,-0.68,0.67
36.55,1.80,0.04,0.74
36.55,1.64,0.74,0.77
36.55,1.48,1.37,0.77
36.55,1.32,1.90,0.75
36.56,1.18,2.30,0.71
36.56,1.05,2.56,0.65
36.56,0.94,2.67,0.58
36.56,0.84,2.65,0.51
36.56,0.76,2.50,0.45
36.57,0.70,2.25,0.39
36.57,0.68,1.94,0.33
36.57,0.68,1.58,0.26
36.57,0.71,1.17,0.20
36.58,0.76,0.74,0.14
36.58,0.81,0.30,0.08
36.58,0.84,-0.11,0.03
36.58,0.83,-0.47,-0.03
36.59,0.76,-0.74,-0.09
36.59,0.65,-0.91,-0.15
36.59,0.49,-0.97,-0.21
36.59,0.29,-0.95,-0.27
36.59,0.08,-0.86,-0.32
36.60,-0.14,-0.73,-0.35
36.60,-0.35,-0.58,-0.38
36.60,-0.56,-0.42,-0.40
36.60,-0.77,-0.26,-0.41
36.61,-0.96,-0.11,-0.41
36.61,-1.14,0.03,-0.40
36.61,-1.32,0.14,-0.39
36.61,-1.49,0.25,-0.37
36.62,-1.65,0.34,-0.36
36.62,-1.78,0.42,-0.34
36.62,-1.89,0.48,-0.33
36.62,-1.98,0.51,-0.31
36.62,-2.05,0.51,-0.30
36.63,-2.08,0.49,-0.29
36.63,-2.10,0.45,-0.27
36.63,-2.09,0.39,-0.26
36.63,-2.07,0.32,-0.24
36.64,-2.03,0.26,-0.22
36.64,-1.99,0.18,-0.20
36.64,-1.94,0.10,-0.17
36.64,-1.89,0.01,-0.13
36.65,-1.84,-0.09,-0.09
36.65,-1.78,-0.19,-0.04
36.65,-1.73,-0.29,0.01
36.65,-1.67,-0.37,0.05
36.65,-1.62,-0.44,0.10
36.66,-1.58,-0.48,0.14
36.66,-1.54,-0.48,0.18
36.66,-1.50,-0.47,0.21
36.66,-1.46,-0.43,0.22
36.67,-1.42,-0.39,0.22
36.67,-1.39,-0.33,0.22
36.67,-1.37,-0.26,0.22
36.67,-1.36,-0.18,0.22
36.68,-1.35,-0.09,0.22
36.68,-1.36,-0.01,0.23
36.68,-1.37,0.04,0.25
36.68,-1.40,0.07,0.28
36.68,-1.43,0.07,0.31
36.69,-1.48,0.06,0.33
36.69,-1.52,0.04,0.35
36.69,-1.57,0.01,0.36
36.69,-1.61,-0.04,0.36
36.70,-1.65,-0.10,0.37
36.70,-1.69,-0.18,0.36
36.70,-1.72,-0.27,0.36
36.70,-1.75,-0.36,0.34
36.71,-1.76,-0.45,0.33
36.71,-1.77,-0.53,0.30
36.71,-1.75,-0.60,0.27
36.71,-1.73,-0.65,0.24
36.71,-1.70,-0.69,0.20
36.72,-1.66,-0.71,0.17
36.72,-1.61,-0.71,0.12
36.72,-1.54,-0.67,0.06
36.72,-1.48,-0.62,-0.01
36.73,-1.40,-0.56,-0.07
36.73,-1.33,-0.49,-0.14
36.73,-1.26,-0.41,-0.20
36.73,-1.18,-0.34,-0.25
36.74,-1.11,-0.26,-0.30
36.74,-1.05,-0.20,-0.34
36.74,-0.98,-0.14,-0.37
36.74,-0.92,-0.10,-0.40
36.74,-0.87,-0.06,-0.43
36.75,-0.83,-0.04,-0.46
36.75,-0.79,-0.03,-0.49
36.75,-0.76,-0.02,-0.52
36.75,-0.74,-0.01,-0.54
36.76,-0.71,0.00,-0.56
36.76,-0.69,0.01,-0.58
36.76,-0.67,0.03,-0.59
36.76,-0.65,0.06,-0.60
36.76,-0.62,0.10,-0.60
36.77,-0.60,0.15,-0.59
36.77,-0.57,0.21,-0.59
36.77,-0.55,0.27,-0.58
36.77,-0.52,0.33,-0.57
36.78,-0.50,0.40,-0.56
36.78,-0.48,0.46,-0.56
36.78,-0.45,0.53,-0.55
36.78,-0.43,0.59,-0.55
36.79,-0.41,0.66,-0.54
36.79,-0.38,0.73,-0.53
36.79,-0.36,0.80,-0.53
36.79,-0.33,0.88,-0.51
36.79,-0.30,0.94,-0.49
36.80,-0.27,0.97,-0.47
36.80,-0.25,0.98,-0.44
36.80,-0.23,0.97,-0.41
36.80,-0.21,0.96,-0.38
36.81,-0.19,0.93,-0.35
36.81,-0.16,0.90,-0.33
36.81,-0.14,0.86,-0.30
36.81,-0.12,0.82,-0.27
36.82,-0.10,0.79,-0.25
36.82,-0.08,0.76,-0.23
36.82,-0.06,0.73,-0.21
36.82,-0.04,0.69,-0.19
36.82,-0.02,0.64,-0.17
36.83,0.00,0.59,-0.15
36.83,0.02,0.53,-0.13
36.83,0.04,0.48,-0.11
36.83,0.06,0.43,-0.09
36.84,0.08,0.39,-0.08
36.84,0.11,0.34,-0.06
36.84,0.13,0.31,-0.05
36.84,0.15,0.27,-0.03
36.85,0.17,0.25,-0.01
36.85,0.18,0.22,0.00
36.85,0.18,0.19,0.02
36.85,0.19,0.16,0.03
36.85,0.19,0.12,0.05
36.86,0.20,0.08,0.06
36.86,0.20,0.03,0.08
36.86,0.21,-0.03,0.09
36.86,0.22,-0.08,0.10
36.87,0.23,-0.15,0.11
36.87,0.25,-0.20,0.11
36.87,0.27,-0.26,0.12
36.87,0.30,-0.30,0.12
36.88,0.34,-0.33,0.11
36.88,0.38,-0.35,0.10
36.88,0.42,-0.36,0.09
36.88,0.46,-0.35,0.07
36.88,0.49,-0.32,0.05
36.89,0.51,-0.27,0.02
36.89,0.52,-0.19,0.00
36.89,0.52,-0.08,-0.03
36.89,0.51,0.07,-0.06
36.90,0.50,0.25,-0.09
36.90,0.47,0.45,-0.12
36.90,0.45,0.65,-0.14
36.90,0.42,0.84,-0.16
36.91,0.39,1.00,-0.19
36.91,0.35,1.12,-0.21
36.91,0.30,1.20,-0.24
36.91,0.25,1.24,-0.27
36.91,0.20,1.26,-0.30
36.92,0.14,1.25,-0.33
36.92,0.09,1.20,-0.35
36.92,0.05,1.13,-0.35
36.92,0.01,1.04,-0.36
36.93,-0.02,0.93,-0.37
36.93,-0.04,0.82,-0.38
36.93,-0.05,0.69,-0.38
36.93,-0.06,0.57,-0.39
36.94,-0.07,0.44,-0.40
36.94,-0.09,0.34,-0.41
36.94,-0.11,0.24,-0.43
36.94,-0.14,0.17,-0.44
36.94,-0.18,0.10,-0.44
36.95,-0.22,0.05,-0.43
36.95,-0.26,0.03,-0.42
36.95,-0.29,0.01,-0.43
36.95,-0.32,0.00,-0.43
36.96,-0.34,-0.01,-0.44
36.96,-0.35,-0.01,-0.44
36.96,-0.36,-0.01,-0.44
36.96,-0.35,-0.02,-0.44
36.96,-0.34,-0.03,-0.43
36.97,-0.31,-0.04,-0.42
36.97,-0.28,-0.04,-0.40
36.97,-0.24,-0.04,-0.38
36.97,-0.19,-0.03,-0.36
36.98,-0.13,-0.03,-0.34
36.98,-0.06,-0.02,-0.31
36.98,0.02,-0.02,-0.28
36.98,0.11,0.00,-0.25
36.99,0.19,0.01,-0.22
36.99,0.28,0.04,-0.18
36.99,0.36,0.07,-0.14
36.99,0.44,0.11,-0.10
36.99,0.51,0.16,-0.05
37.00,0.57,0.19,-0.01
37.00,0.62,0.22,0.04
37.00,0.65,0.24,0.08
37.00,0.67,0.24,0.12
37.01,0.68,0.24,0.15
37.01,0.68,0.24,0.18
37.01,0.68,0.22,0.20
37.01,0.68,0.20,0.22
37.02,0.69,0.18,0.23
37.02,0.70,0.14,0.25
37.02,0.72,0.10,0.27
37.02,0.75,0.06,0.28
37.02,0.78,0.01,0.29
37.03,0.82,-0.03,0.29
37.03,0.86,-0.07,0.28
37.03,0.90,-0.11,0.26
37.03,0.94,-0.15,0.25
37.04,1.00,-0.20,0.22
37.04,1.07,-0.25,0.20
37.04,1.14,-0.32,0.19
37.04,1.23,-0.40,0.18
37.05,1.32,-0.48,0.17
37.05,1.42,-0.56,0.16
37.05,1.53,-0.63,0.15
37.05,1.64,-0.68,0.14
37.05,1.76,-0.73,0.14
37.06,1.86,-0.78,0.15
37.06,1.95,-0.82,0.17
37.06,2.03,-0.85,0.21
37.06,2.08,-0.87,0.25
37.07,2.12,-0.86,0.31
37.07,2.14,-0.82,0.37
37.07,2.14,-0.76,0.44
37.07,2.11,-0.67,0.51
37.08,2.08,-0.56,0.59
37.08,2.03,-0.44,0.67
37.08,1.97,-0.30,0.76
37.08,1.91,-0.15,0.84
37.08,1.85,0.02,0.93
37.09,1.80,0.20,1.00
37.09,1.76,0.41,1.07
37.09,1.73,0.63,1.11
37.09,1.72,0.85,1.14
37.10,1.72,1.07,1.15
37.10,1.72,1.27,1.16
37.10,1.74,1.44,1.14
37.10,1.77,1.58,1.13
37.11,1.81,1.70,1.11
37.11,1.85,1.82,1.08
37.11,1.88,1.94,1.04
37.11,1.92,2.07,1.00
37.11,1.96,2.19,0.96
37.12,1.99,2.31,0.91
37.12,2.01,2.40,0.86
37.12,2.02,2.45,0.81
37.12,2.01,2.45,0.76
37.13,1.98,2.35,0.72
37.13,1.94,2.15,0.69
37.13,1.87,1.90,0.66
37.13,1.80,1.61,0.65
37.14,1.71,1.32,0.64
37.14,1.62,1.06,0.63
37.14,1.54,0.81,0.62
37.14,1.45,0.58,0.61
37.14,1.37,0.38,0.60
37.15,1.30,0.22,0.58
37.15,1.24,0.08,0.56
37.15,1.20,-0.02,0.53
37.15,1.18,-0.11,0.51
37.16,1.16,-0.17,0.49
37.16,1.15,-0.24,0.47
37.16,1.15,-0.30,0.45
37.16,1.15,-0.36,0.43
37.16,1.15,-0.44,0.42
37.17,1.15,-0.51,0.41
37.17,1.15,-0.59,0.41
37.17,1.15,-0.66,0.40
37.17,1.15,-0.71,0.39
37.18,1.16,-0.75,0.38
37.18,1.16,-0.77,0.36
37.18,1.17,-0.76,0.34
37.18,1.18,-0.74,0.32
37.19,1.19,-0.72,0.29
37.19,1.18,-0.68,0.26
37.19,1.18,-0.64,0.24
37.19,1.17,-0.61,0.21
37.19,1.15,-0.57,0.19
37.20,1.13,-0.53,0.17
37.20,1.10,-0.48,0.15
37.20,1.06,-0.44,0.13
37.20,1.02,-0.40,0.11
37.21,0.99,-0.37,0.09
37.21,0.94,-0.34,0.07
37.21,0.90,-0.29,0.05
37.21,0.85,-0.25,0.03
37.22,0.81,-0.20,0.02
37.22,0.77,-0.16,0.01
37.22,0.73,-0.12,0.00
37.22,0.69,-0.09,-0.01
37.22,0.65,-0.06,-0.02
37.23,0.60,-0.04,-0.03
37.23,0.56,-0.02,-0.04
37.23,0.52,0.00,-0.04
37.23,0.47,0.01,-0.04
37.24,0.43,0.03,-0.04
37.24,0.39,0.04,-0.04
37.24,0.36,0.06,-0.05
37.24,0.32,0.06,-0.05
37.25,0.28,0.07,-0.06
37.25,0.25,0.08,-0.06
37.25,0.22,0.09,-0.06
37.25,0.19,0.10,-0.07
37.25,0.16,0.10,-0.08
37.26,0.13,0.10,-0.09
37.26,0.10,0.10,-0.10
37.26,0.08,0.10,-0.12
37.26,0.05,0.09,-0.14
37.27,0.03,0.08,-0.15
37.27,0.01,0.08,-0.17
37.27,-0.02,0.07,-0.19
37.27,-0.04,0.06,-0.20
37.28,-0.06,0.05,-0.22
37.28,-0.09,0.05,-0.23
37.28,-0.11,0.03,-0.24
37.28,-0.14,0.03,-0.26
37.28,-0.16,0.02,-0.27
37.29,-0.18,0.01,-0.28
37.29,-0.20,0.00,-0.29
37.29,-0.23,-0.02,-0.30
37.29,-0.24,-0.03,-0.31
37.30,-0.27,-0.05,-0.32
37.30,-0.29,-0.05,-0.33
37.30,-0.31,-0.06,-0.34
37.30,-0.34,-0.07,-0.35
37.31,-0.35,-0.08,-0.36
37.31,-0.38,-0.08,-0.37
37.31,-0.40,-0.09,-0.38
37.31,-0.41,-0.10,-0.39
37.31,-0.43,-0.11,-0.41
37.32,-0.45,-0.11,-0.42
37.32,-0.47,-0.12,-0.44
37.32,-0.49,-0.11,-0.46
37.32,-0.50,-0.11,-0.47
37.33,-0.52,-0.10,-0.49
37.33,-0.54,-0.09,-0.50
37.33,-0.56,-0.07,-0.52
37.33,-0.58,-0.06,-0.54
37.34,-0.61,-0.04,-0.55
37.34,-0.64,-0.02,-0.57
37.34,-0.67,0.01,-0.58
37.34,-0.70,0.03,-0.60
37.34,-0.74,0.06,-0.61
37.35,-0.77,0.08,-0.62
37.35,-0.81,0.11,-0.64
37.35,-0.85,0.13,-0.65
37.35,-0.89,0.15,-0.66
37.36,-0.93,0.17,-0.67
37.36,-0.97,0.19,-0.68
37.36,-1.00,0.21,-0.69
37.36,-1.04,0.22,-0.69
37.36,-1.07,0.24,-0.70
37.37,-1.11,0.26,-0.71
37.37,-1.15,0.27,-0.72
37.37,-1.19,0.29,-0.72
37.37,-1.23,0.31,-0.73
37.38,-1.26,0.32,-0.74
37.38,-1.30,0.34,-0.75
37.38,-1.34,0.36,-0.76
37.38,-1.38,0.38,-0.77
37.39,-1.42,0.39,-0.78
37.39,-1.45,0.40,-0.79
37.39,-1.48,0.41,-0.81
37.39,-1.52,0.41,-0.82
37.39,-1.55,0.42,-0.84
37.40,-1.59,0.42,-0.85
37.40,-1.63,0.43,-0.87
37.40,-1.66,0.43,-0.89
37.40,-1.70,0.44,-0.90
37.41,-1.73,0.43,-0.92
37.41,-1.76,0.42,-0.93
37.41,-1.79,0.41,-0.95
37.41,-1.82,0.39,-0.96
37.42,-1.84,0.37,-0.98
37.42,-1.86,0.35,-1.00
37.42,-1.87,0.32,-1.01
37.42,-1.89,0.29,-1.03
37.42,-1.90,0.26,-1.04
37.43,-1.91,0.23,-1.05
37.43,-1.93,0.19,-1.05
37.43,-1.94,0.15,-1.04
37.43,-1.95,0.10,-1.05
37.44,-1.96,0.05,-1.05
37.44,-1.97,-0.01,-1.05
37.44,-1.97,-0.07,-1.06
37.44,-1.98,-0.15,-1.06
37.45,-1.98,-0.24,-1.05
37.45,-1.97,-0.34,-1.04
37.45,-1.96,-0.44,-1.03
37.45,-1.94,-0.56,-1.00
37.45,-1.91,-0.67,-0.98
37.46,-1.88,-0.80,-0.95
37.46,-1.85,-0.92,-0.92
37.46,-1.81,-1.05,-0.88
37.46,-1.77,-1.17,-0.84
37.47,-1.73,-1.29,-0.80
37.47,-1.68,-1.40,-0.74
37.47,-1.63,-1.49,-0.69
37.47,-1.57,-1.58,-0.62
37.48,-1.50,-1.64,-0.56
37.48,-1.43,-1.69,-0.50
37.48,-1.35,-1.72,-0.43
37.48,-1.27,-1.72,-0.35
37.48,-1.19,-1.70,-0.27
37.49,-1.10,-1.65,-0.20
37.49,-1.01,-1.56,-0.14
37.49,-0.92,-1.45,-0.08
37.49,-0.84,-1.31,-0.03
37.50,-0.76,-1.16,0.02
37.50,-0.68,-1.00,0.07
37.50,-0.61,-0.84,0.10
37.50,-0.54,-0.68,0.14
37.51,-0.48,-0.54,0.19
37.51,-0.43,-0.42,0.24
37.51,-0.37,-0.32,0.29
37.51,-0.32,-0.22,0.33
37.51,-0.28,-0.12,0.38
37.52,-0.24,-0.04,0.43
37.52,-0.21,0.03,0.47
37.52,-0.19,0.11,0.51
37.52,-0.17,0.19,0.54
37.53,-0.16,0.28,0.57
37.53,-0.15,0.37,0.59
37.53,-0.14,0.46,0.61
37.53,-0.14,0.55,0.61
37.54,-0.14,0.62,0.62
37.54,-0.14,0.70,0.62
37.54,-0.14,0.77,0.63
37.54,-0.14,0.84,0.63
37.54,-0.13,0.90,0.64
37.55,-0.12,0.95,0.64
37.55,-0.11,1.01,0.65
37.55,-0.09,1.05,0.65
37.55,-0.07,1.10,0.65
37.56,-0.05,1.15,0.64
37.56,-0.01,1.20,0.63
37.56,0.03,1.25,0.62
37.56,0.08,1.30,0.60
37.56,0.14,1.34,0.57
37.57,0.19,1.36,0.54
37.57,0.25,1.39,0.50
37.57,0.30,1.43,0.45
37.57,0.36,1.47,0.39
37.58,0.40,1.51,0.34
37.58,0.44,1.52,0.28
37.58,0.46,1.51,0.23
37.58,0.47,1.46,0.18
37.59,0.47,1.39,0.13
37.59,0.47,1.30,0.08
37.59,0.47,1.18,0.03
37.59,0.48,1.05,-0.01
37.59,0.50,0.88,-0.06
37.60,0.52,0.70,-0.12
37.60,0.56,0.50,-0.17
37.60,0.60,0.26,-0.23
37.60,0.64,-0.01,-0.29
37.61,0.67,-0.33,-0.35
37.61,0.69,-0.67,-0.40
37.61,0.71,-1.01,-0.45
37.61,0.72,-1.35,-0.49
37.62,0.73,-1.65,-0.53
37.62,0.74,-1.89,-0.56
37.62,0.76,-2.07,-0.58
37.62,0.80,-2.18,-0.61
37.62,0.85,-2.23,-0.61
37.63,0.91,-2.23,-0.60
37.63,0.97,-2.19,-0.58
37.63,1.03,-2.12,-0.55
37.63,1.07,-2.04,-0.50
37.64,1.09,-1.99,-0.43
37.64,1.09,-1.96,-0.37
37.64,1.06,-1.94,-0.31
37.64,1.00,-1.92,-0.25
37.65,0.93,-1.86,-0.20
37.65,0.85,-1.76,-0.15
37.65,0.78,-1.61,-0.10
37.65,0.71,-1.42,-0.05
37.65,0.65,-1.18,0.00
37.66,0.61,-0.90,0.05
37.66,0.57,-0.58,0.12
37.66,0.54,-0.24,0.20
37.66,0.52,0.12,0.28
37.67,0.50,0.47,0.35
37.67,0.49,0.81,0.42
37.67,0.46,1.12,0.47
37.67,0.44,1.38,0.50
37.68,0.40,1.55,0.52
37.68,0.38,1.64,0.52
37.68,0.36,1.64,0.51
37.68,0.36,1.55,0.49
37.68,0.37,1.38,0.48
37.69,0.40,1.13,0.46
37.69,0.46,0.81,0.46
37.69,0.56,0.44,0.46
37.69,0.66,0.04,0.46
37.70,0.78,-0.35,0.45
37.70,0.88,-0.71,0.45
37.70,0.96,-1.03,0.43
37.70,1.01,-1.29,0.41
37.71,1.01,-1.49,0.39
37.71,0.97,-1.61,0.36
37.71,0.88,-1.65,0.33
37.71,0.76,-1.62,0.30
37.71,0.61,-1.55,0.27
37.72,0.45,-1.44,0.25
37.72,0.29,-1.32,0.25
37.72,0.14,-1.17,0.27
37.72,-0.01,-1.02,0.29
37.73,-0.13,-0.87,0.31
37.73,-0.25,-0.71,0.34
37.73,-0.35,-0.55,0.36
37.73,-0.44,-0.40,0.37
37.74,-0.53,-0.24,0.37
37.74,-0.63,-0.08,0.37
37.74,-0.72,0.07,0.38
37.74,-0.82,0.21,0.38
37.74,-0.92,0.35,0.38
37.75,-1.02,0.46,0.38
37.75,-1.12,0.56,0.37
37.75,-1.23,0.62,0.37
37.75,-1.33,0.66,0.36
37.76,-1.42,0.67,0.35
37.76,-1.50,0.66,0.34
37.76,-1.57,0.62,0.33
37.76,-1.62,0.55,0.31
37.76,-1.66,0.46,0.30
37.77,-1.69,0.34,0.28
37.77,-1.69,0.20,0.26
37.77,-1.67,0.05,0.24
37.77,-1.64,-0.12,0.21
37.78,-1.59,-0.29,0.19
37.78,-1.53,-0.46,0.16
37.78,-1.46,-0.63,0.14
37.78,-1.39,-0.78,0.11
37.79,-1.31,-0.91,0.09
37.79,-1.24,-1.01,0.07
37.79,-1.17,-1.09,0.05
37.79,-1.11,-1.12,0.04
37.79,-1.07,-1.12,0.03
37.80,-1.04,-1.09,0.02
37.80,-1.03,-1.03,0.01
37.80,-1.02,-0.96,0.01
37.80,-1.02,-0.86,0.01
37.81,-1.03,-0.74,0.01
37.81,-1.05,-0.61,0.02
37.81,-1.07,-0.46,0.04
37.81,-1.09,-0.30,0.05
37.82,-1.10,-0.14,0.06
37.82,-1.11,0.03,0.08
37.82,-1.11,0.18,0.09
37.82,-1.10,0.33,0.11
37.82,-1.09,0.47,0.12
37.83,-1.06,0.59,0.12
37.83,-1.03,0.69,0.12
37.83,-0.99,0.76,0.11
37.83,-0.96,0.79,0.10
37.84,-0.92,0.79,0.08
37.84,-0.88,0.76,0.05
37.84,-0.83,0.70,0.02
37.84,-0.78,0.61,-0.01
37.85,-0.73,0.52,-0.04
37.85,-0.68,0.41,-0.07
37.85,-0.62,0.30,-0.10
37.85,-0.57,0.18,-0.13
37.85,-0.52,0.07,-0.15
37.86,-0.48,-0.05,-0.18
37.86,-0.45,-0.16,-0.20
37.86,-0.42,-0.26,-0.23
37.86,-0.40,-0.35,-0.25
37.87,-0.39,-0.43,-0.27
37.87,-0.39,-0.49,-0.29
37.87,-0.40,-0.53,-0.31
37.87,-0.41,-0.57,-0.33
37.88,-0.43,-0.59,-0.35
37.88,-0.45,-0.62,-0.37
37.88,-0.48,-0.63,-0.38
37.88,-0.51,-0.65,-0.40
37.88,-0.55,-0.67,-0.41
37.89,-0.58,-0.67,-0.42
37.89,-0.61,-0.68,-0.43
37.89,-0.65,-0.67,-0.44
37.89,-0.68,-0.65,-0.44
37.90,-0.72,-0.63,-0.45
37.90,-0.75,-0.59,-0.45
37.90,-0.78,-0.54,-0.46
37.90,-0.81,-0.49,-0.46
37.91,-0.83,-0.44,-0.47
37.91,-0.86,-0.38,-0.47
37.91,-0.88,-0.33,-0.47
37.91,-0.89,-0.28,-0.47
37.91,-0.91,-0.24,-0.47
37.92,-0.92,-0.21,-0.46
37.92,-0.92,-0.18,-0.46
37.92,-0.92,-0.16,-0.46
37.92,-0.92,-0.16,-0.45
37.93,-0.91,-0.15,-0.45
37.93,-0.90,-0.15,-0.45
37.93,-0.88,-0.16,-0.45
37.93,-0.86,-0.18,-0.45
37.94,-0.84,-0.20,-0.45
37.94,-0.81,-0.22,-0.45
37.94,-0.79,-0.25,-0.45
37.94,-0.76,-0.28,-0.44
37.94,-0.73,-0.30,-0.43
37.95,-0.70,-0.33,-0.42
37.95,-0.67,-0.35,-0.41
37.95,-0.64,-0.37,-0.39
37.95,-0.62,-0.38,-0.38
37.96,-0.60,-0.39,-0.38
37.96,-0.58,-0.39,-0.37
37.96,-0.57,-0.38,-0.36
37.96,-0.56,-0.37,-0.35
37.97,-0.54,-0.36,-0.34
37.97,-0.54,-0.35,-0.32
37.97,-0.53,-0.33,-0.31
37.97,-0.52,-0.31,-0.28
37.97,-0.51,-0.28,-0.27
37.98,-0.49,-0.25,-0.25
37.98,-0.49,-0.24,-0.23
37.98,-0.47,-0.22,-0.22
37.98,-0.46,-0.21,-0.20
37.99,-0.44,-0.19,-0.18
37.99,-0.42,-0.17,-0.17
37.99,-0.38,-0.14,-0.15
37.99,-0.35,-0.11,-0.14
37.99,-0.31,-0.08,-0.13
38.00,-0.27,-0.04,-0.12
38.00,-0.22,0.00,-0.12
38.00,-0.18,0.05,-0.12
38.00,-0.13,0.09,-0.12
38.01,-0.09,0.13,-0.12
38.01,-0.05,0.17,-0.12
38.01,-0.01,0.20,-0.13
38.01,0.03,0.22,-0.13
38.02,0.06,0.23,-0.14
38.02,0.10,0.23,-0.15
38.02,0.14,0.22,-0.16
38.02,0.17,0.20,-0.16
38.02,0.21,0.17,-0.17
38.03,0.25,0.14,-0.18
38.03,0.29,0.10,-0.19
38.03,0.33,0.05,-0.20
38.03,0.37,-0.01,-0.20
38.04,0.40,-0.05,-0.21
38.04,0.44,-0.10,-0.22
38.04,0.47,-0.13,-0.22
38.04,0.50,-0.15,-0.23
38.05,0.52,-0.17,-0.24
38.05,0.55,-0.16,-0.24
38.05,0.58,-0.15,-0.25
38.05,0.60,-0.14,-0.25
38.05,0.62,-0.12,-0.25
38.06,0.63,-0.09,-0.25
38.06,0.64,-0.07,-0.25
38.06,0.64,-0.05,-0.25
38.06,0.62,-0.03,-0.26
38.07,0.61,-0.01,-0.26
38.07,0.58,-0.01,-0.26
38.07,0.56,-0.01,-0.25
38.07,0.53,-0.02,-0.25
38.08,0.50,-0.04,-0.24
38.08,0.47,-0.06,-0.23
38.08,0.44,-0.09,-0.22
38.08,0.42,-0.10,-0.22
38.08,0.40,-0.11,-0.21
38.09,0.38,-0.13,-0.21
38.09,0.37,-0.14,-0.20
38.09,0.37,-0.14,-0.19
38.09,0.38,-0.14,-0.19
38.10,0.39,-0.15,-0.19
38.10,0.40,-0.16,-0.18
38.10,0.43,-0.18,-0.18
38.10,0.46,-0.19,-0.17
38.11,0.48,-0.21,-0.17
38.11,0.51,-0.22,-0.16
38.11,0.55,-0.23,-0.16
38.11,0.58,-0.24,-0.15
38.11,0.62,-0.23,-0.13
38.12,0.66,-0.21,-0.12
38.12,0.71,-0.18,-0.10
38.12,0.76,-0.13,-0.08
38.12,0.82,-0.07,-0.05
38.13,0.88,0.00,-0.02
38.13,0.94,0.07,0.01
38.13,0.99,0.14,0.05
38.13,1.05,0.20,0.09
38.14,1.10,0.25,0.13
38.14,1.15,0.30,0.16
38.14,1.20,0.34,0.19
38.14,1.25,0.39,0.22
38.14,1.30,0.43,0.26
38.15,1.36,0.47,0.29
38.15,1.42,0.52,0.31
38.15,1.48,0.57,0.34
38.15,1.56,0.61,0.37
38.16,1.63,0.65,0.39
38.16,1.71,0.69,0.41
38.16,1.80,0.75,0.43
38.16,1.88,0.81,0.44
38.17,1.96,0.88,0.45
38.17,2.05,0.94,0.47
38.17,2.12,0.99,0.50
38.17,2.19,1.02,0.52
38.17,2.25,1.05,0.55
38.18,2.30,1.07,0.59
38.18,2.34,1.10,0.62
38.18,2.37,1.15,0.66
38.18,2.38,1.22,0.68
38.19,2.39,1.32,0.71
38.19,2.40,1.45,0.73
38.19,2.40,1.62,0.76
38.19,2.39,1.80,0.77
38.19,2.37,1.98,0.80
38.20,2.34,2.14,0.83
38.20,2.31,2.28,0.86
38.20,2.27,2.42,0.89
38.20,2.23,2.55,0.94
38.21,2.18,2.65,0.98
38.21,2.13,2.73,1.02
38.21,2.07,2.79,1.06
38.21,2.00,2.82,1.10
38.22,1.93,2.84,1.13
38.22,1.86,2.84,1.15
38.22,1.77,2.81,1.17
38.22,1.69,2.76,1.18
38.22,1.61,2.67,1.19
38.23,1.52,2.52,1.20
38.23,1.44,2.33,1.21
38.23,1.37,2.12,1.21
38.23,1.29,1.88,1.21
38.24,1.22,1.64,1.22
38.24,1.14,1.40,1.22
38.24,1.06,1.16,1.21
38.24,0.98,0.91,1.19
38.25,0.90,0.67,1.17
38.25,0.82,0.45,1.14
38.25,0.76,0.24,1.12
38.25,0.71,0.03,1.10
38.25,0.67,-0.18,1.09
38.26,0.63,-0.38,1.08
38.26,0.61,-0.57,1.08
38.26,0.59,-0.75,1.08
38.26,0.59,-0.92,1.07
38.27,0.60,-1.07,1.07
38.27,0.62,-1.23,1.06
38.27,0.65,-1.37,1.04
38.27,0.70,-1.49,1.01
38.28,0.75,-1.59,0.97
38.28,0.81,-1.67,0.92
38.28,0.87,-1.74,0.88
38.28,0.93,-1.80,0.83
38.28,0.98,-1.84,0.78
38.29,1.02,-1.86,0.73
38.29,1.05,-1.86,0.68
38.29,1.07,-1.83,0.63
38.29,1.08,-1.78,0.58
38.30,1.09,-1.72,0.53
38.30,1.09,-1.66,0.47
38.30,1.08,-1.58,0.42
38.30,1.05,-1.46,0.37
38.31,0.99,-1.30,0.33
38.31,0.92,-1.13,0.30
38.31,0.83,-0.96,0.27
38.31,0.74,-0.80,0.25
38.31,0.64,-0.64,0.23
38.32,0.54,-0.49,0.22
38.32,0.44,-0.37,0.21
38.32,0.34,-0.26,0.21
38.32,0.24,-0.19,0.21
38.33,0.16,-0.14,0.22
38.33,0.07,-0.12,0.22
38.33,0.00,-0.13,0.23
38.33,-0.06,-0.14,0.24
38.34,-0.11,-0.17,0.24
38.34,-0.16,-0.20,0.25
38.34,-0.19,-0.24,0.26
38.34,-0.21,-0.29,0.27
38.34,-0.23,-0.35,0.27
38.35,-0.24,-0.42,0.28
38.35,-0.24,-0.50,0.29
38.35,-0.24,-0.57,0.29
38.35,-0.24,-0.65,0.29
38.36,-0.24,-0.72,0.29
38.36,-0.23,-0.78,0.29
38.36,-0.23,-0.83,0.30
38.36,-0.23,-0.88,0.30
38.37,-0.22,-0.92,0.30
38.37,-0.22,-0.95,0.30
38.37,-0.22,-0.97,0.30
38.37,-0.23,-0.98,0.29
38.37,-0.23,-0.99,0.27
38.38,-0.25,-1.00,0.25
38.38,-0.26,-1.00,0.24
38.38,-0.28,-0.99,0.21
38.38,-0.30,-0.98,0.19
38.39,-0.32,-0.98,0.16
38.39,-0.33,-0.98,0.13
38.39,-0.35,-0.98,0.09
38.39,-0.36,-0.99,0.06
38.39,-0.37,-1.00,0.02
38.40,-0.38,-1.01,-0.01
38.40,-0.39,-1.02,-0.04
38.40,-0.39,-1.03,-0.08
38.40,-0.39,-1.04,-0.11
38.41,-0.40,-1.05,-0.15
38.41,-0.40,-1.07,-0.19
38.41,-0.41,-1.08,-0.22
38.41,-0.41,-1.09,-0.26
38.42,-0.42,-1.10,-0.30
38.42,-0.43,-1.11,-0.34
38.42,-0.44,-1.13,-0.37
38.42,-0.46,-1.15,-0.41
38.42,-0.48,-1.18,-0.43
38.43,-0.50,-1.19,-0.46
38.43,-0.54,-1.19,-0.48
38.43,-0.57,-1.17,-0.51
38.43,-0.61,-1.14,-0.53
38.44,-0.65,-1.10,-0.55
38.44,-0.70,-1.04,-0.58
38.44,-0.74,-0.99,-0.60
38.44,-0.79,-0.93,-0.62
38.45,-0.84,-0.87,-0.64
38.45,-0.88,-0.81,-0.66
38.45,-0.92,-0.75,-0.68
38.45,-0.96,-0.69,-0.70
38.45,-0.99,-0.64,-0.71
38.46,-1.03,-0.58,-0.73
38.46,-1.06,-0.53,-0.74
38.46,-1.09,-0.48,-0.75
38.46,-1.12,-0.43,-0.76
38.47,-1.15,-0.38,-0.77
38.47,-1.18,-0.35,-0.77
38.47,-1.20,-0.32,-0.78
38.47,-1.23,-0.28,-0.78
38.48,-1.26,-0.25,-0.78
38.48,-1.28,-0.22,-0.79
38.48,-1.31,-0.19,-0.79
38.48,-1.34,-0.18,-0.79
38.48,-1.36,-0.17,-0.79
38.49,-1.39,-0.18,-0.79
38.49,-1.41,-0.19,-0.79
38.49,-1.43,-0.21,-0.80
38.49,-1.45,-0.24,-0.80
38.50,-1.48,-0.27,-0.80
38.50,-1.49,-0.30,-0.80
38.50,-1.51,-0.34,-0.79
38.50,-1.53,-0.38,-0.79
38.51,-1.54,-0.42,-0.78
38.51,-1.55,-0.46,-0.78
38.51,-1.56,-0.52,-0.78
38.51,-1.56,-0.58,-0.78
38.51,-1.55,-0.64,-0.78
38.52,-1.54,-0.70,-0.78
38.52,-1.52,-0.76,-0.77
38.52,-1.49,-0.83,-0.78
38.52,-1.45,-0.89,-0.78
38.53,-1.40,-0.96,-0.77
38.53,-1.35,-1.03,-0.75
38.53,-1.29,-1.11,-0.72
38.53,-1.21,-1.20,-0.69
38.54,-1.12,-1.28,-0.65
38.54,-1.03,-1.36,-0.62
38.54,-0.93,-1.42,-0.58
38.54,-0.83,-1.48,-0.54
38.54,-0.73,-1.52,-0.50
38.55,-0.63,-1.54,-0.45
38.55,-0.52,-1.56,-0.41
38.55,-0.43,-1.57,-0.36
38.55,-0.33,-1.56,-0.31
38.56,-0.24,-1.52,-0.25
38.56,-0.14,-1.47,-0.18
38.56,-0.06,-1.40,-0.11
38.56,0.04,-1.30,-0.03
38.57,0.13,-1.17,0.06
38.57,0.22,-1.01,0.15
38.57,0.32,-0.83,0.25
38.57,0.41,-0.61,0.37
38.57,0.49,-0.37,0.48
38.58,0.57,-0.13,0.59
38.58,0.65,0.10,0.68
38.58,0.71,0.32,0.76
38.58,0.76,0.50,0.82
38.59,0.81,0.66,0.86
38.59,0.86,0.78,0.90
38.59,0.91,0.86,0.93
38.59,0.96,0.90,0.95
38.59,1.01,0.91,0.97
38.60,1.06,0.88,0.98
38.60,1.12,0.81,0.99
38.60,1.19,0.70,0.99
38.60,1.26,0.57,0.99
38.61,1.34,0.42,0.99
38.61,1.41,0.27,0.97
38.61,1.50,0.12,0.96
38.61,1.57,-0.02,0.94
38.62,1.64,-0.13,0.93
38.62,1.69,-0.21,0.92
38.62,1.73,-0.26,0.91
38.62,1.76,-0.29,0.90
38.62,1.76,-0.30,0.90
38.63,1.73,-0.30,0.89
38.63,1.68,-0.29,0.88
38.63,1.61,-0.27,0.86
38.63,1.54,-0.22,0.85
38.64,1.47,-0.13,0.84
38.64,1.43,0.00,0.83
38.64,1.40,0.16,0.81
38.64,1.38,0.34,0.78
38.65,1.37,0.49,0.74
38.65,1.36,0.60,0.67
38.65,1.33,0.64,0.59
38.65,1.28,0.60,0.48
38.65,1.20,0.50,0.36
38.66,1.07,0.36,0.23
38.66,0.91,0.22,0.11
38.66,0.72,0.07,-0.02
38.66,0.51,-0.09,-0.16
38.67,0.30,-0.24,-0.30
38.67,0.13,-0.35,-0.46
38.67,0.02,-0.36,-0.64
38.67,-0.06,-0.28,-0.81
38.68,-0.09,-0.12,-0.96
38.68,-0.08,0.06,-1.06
38.68,-0.06,0.22,-1.12
38.68,-0.03,0.32,-1.12
38.68,-0.02,0.33,-1.08
38.69,-0.03,0.21,-0.99
38.69,-0.07,-0.04,-0.89
38.69,-0.13,-0.42,-0.77
38.69,-0.21,-0.84,-0.67
38.70,-0.26,-1.25,-0.58
38.70,-0.27,-1.57,-0.52
38.70,-0.20,-1.74,-0.46
38.70,-0.05,-1.72,-0.39
38.71,0.17,-1.55,-0.31
38.71,0.43,-1.25,-0.20
38.71,0.68,-0.86,-0.05
38.71,0.90,-0.42,0.15
38.71,1.06,0.00,0.38
38.72,1.16,0.39,0.63
38.72,1.23,0.70,0.86
38.72,1.26,0.92,1.06
38.72,1.24,1.04,1.18
38.73,1.20,1.07,1.22
38.73,1.16,1.03,1.15
38.73,1.14,0.94,1.03
38.73,1.16,0.84,0.86
38.74,1.24,0.73,0.68
38.74,1.36,0.61,0.53
38.74,1.51,0.48,0.40
38.74,1.69,0.34,0.30
38.74,1.85,0.19,0.22
38.75,1.99,0.04,0.16
38.75,2.06,-0.11,0.11
38.75,2.06,-0.24,0.08
38.75,1.98,-0.30,0.05
38.76,1.81,-0.32,0.03
38.76,1.57,-0.31,0.02
38.76,1.26,-0.26,0.00
38.76,0.90,-0.21,-0.01
38.77,0.50,-0.13,-0.02
38.77,0.09,-0.03,-0.04
38.77,-0.33,0.09,-0.07
38.77,-0.72,0.24,-0.11
38.77,-1.07,0.39,-0.16
38.78,-1.38,0.56,-0.20
38.78,-1.62,0.76,-0.23
38.78,-1.80,0.98,-0.27
38.78,-1.93,1.23,-0.30
38.79,-2.00,1.48,-0.33
38.79,-2.02,1.72,-0.35
38.79,-2.00,1.95,-0.37
38.79,-1.96,2.14,-0.38
38.79,-1.90,2.28,-0.38
38.80,-1.83,2.37,-0.39
38.80,-1.75,2.41,-0.40
38.80,-1.68,2.40,-0.41
38.80,-1.62,2.35,-0.41
38.81,-1.56,2.28,-0.42
38.81,-1.52,2.19,-0.41
38.81,-1.50,2.09,-0.41
38.81,-1.49,1.99,-0.39
38.82,-1.49,1.89,-0.36
38.82,-1.51,1.80,-0.33
38.82,-1.53,1.73,-0.30
38.82,-1.57,1.66,-0.26
38.82,-1.61,1.61,-0.23
38.83,-1.65,1.57,-0.20
38.83,-1.69,1.53,-0.17
38.83,-1.73,1.51,-0.13
38.83,-1.75,1.50,-0.09
38.84,-1.75,1.49,-0.06
38.84,-1.74,1.48,-0.03
38.84,-1.72,1.49,-0.01
38.84,-1.68,1.51,0.01
38.85,-1.63,1.54,0.03
38.85,-1.57,1.55,0.06
38.85,-1.50,1.53,0.07
38.85,-1.44,1.49,0.08
38.85,-1.37,1.43,0.09
38.86,-1.31,1.36,0.08
38.86,-1.26,1.28,0.07
38.86,-1.23,1.19,0.06
38.86,-1.20,1.10,0.05
38.87,-1.19,1.01,0.04
38.87,-1.18,0.92,0.02
38.87,-1.18,0.84,0.01
38.87,-1.19,0.76,0.01
38.88,-1.21,0.67,0.00
38.88,-1.22,0.59,-0.01
38.88,-1.24,0.51,-0.02
38.88,-1.25,0.44,-0.03
38.88,-1.26,0.36,-0.05
38.89,-1.26,0.29,-0.06
38.89,-1.26,0.21,-0.06
38.89,-1.26,0.14,-0.07
38.89,-1.25,0.08,-0.07
38.90,-1.23,0.01,-0.06
38.90,-1.21,-0.06,-0.06
38.90,-1.20,-0.15,-0.05
38.90,-1.17,-0.21,-0.05
38.91,-1.14,-0.25,-0.05
38.91,-1.11,-0.28,-0.06
38.91,-1.07,-0.30,-0.07
38.91,-1.03,-0.32,-0.09
38.91,-0.99,-0.35,-0.11
38.92,-0.95,-0.39,-0.13
38.92,-0.91,-0.42,-0.15
38.92,-0.88,-0.46,-0.17
38.92,-0.85,-0.48,-0.18
38.93,-0.82,-0.49,-0.18
38.93,-0.80,-0.49,-0.19
38.93,-0.78,-0.48,-0.20
38.93,-0.77,-0.45,-0.20
38.94,-0.76,-0.41,-0.21
38.94,-0.77,-0.35,-0.21
38.94,-0.77,-0.27,-0.21
38.94,-0.79,-0.19,-0.20
38.94,-0.80,-0.10,-0.19
38.95,-0.82,0.00,-0.18
38.95,-0.85,0.11,-0.16
38.95,-0.87,0.21,-0.15
38.95,-0.90,0.32,-0.14
38.96,-0.91,0.44,-0.13
38.96,-0.92,0.55,-0.12
38.96,-0.93,0.66,-0.12
38.96,-0.93,0.75,-0.11
38.97,-0.93,0.84,-0.11
38.97,-0.93,0.90,-0.11
38.97,-0.92,0.95,-0.11
38.97,-0.90,0.98,-0.12
38.97,-0.89,0.99,-0.12
38.98,-0.87,0.99,-0.13
38.98,-0.86,0.98,-0.14
38.98,-0.84,0.97,-0.15
38.98,-0.82,0.93,-0.16
38.99,-0.81,0.89,-0.17
38.99,-0.79,0.84,-0.18
38.99,-0.78,0.79,-0.19
38.99,-0.75,0.74,-0.20
38.99,-0.73,0.68,-0.21
39.00,-0.71,0.62,-0.23
39.00,-0.69,0.57,-0.24
39.00,-0.66,0.50,-0.25
39.00,-0.64,0.45,-0.26
39.01,-0.61,0.40,-0.27
39.01,-0.59,0.35,-0.27
39.01,-0.56,0.31,-0.27
39.01,-0.54,0.28,-0.27
39.02,-0.52,0.25,-0.28
39.02,-0.50,0.24,-0.28
39.02,-0.49,0.24,-0.28
39.02,-0.48,0.23,-0.29
39.02,-0.46,0.23,-0.29
39.03,-0.45,0.23,-0.29
39.03,-0.43,0.23,-0.29
39.03,-0.41,0.23,-0.29
39.03,-0.40,0.24,-0.29
39.04,-0.38,0.26,-0.28
39.04,-0.36,0.27,-0.28
39.04,-0.34,0.28,-0.27
39.04,-0.33,0.30,-0.27
39.05,-0.31,0.31,-0.27
39.05,-0.30,0.32,-0.26
39.05,-0.28,0.33,-0.26
39.05,-0.26,0.34,-0.26
39.05,-0.25,0.34,-0.26
39.06,-0.23,0.34,-0.27
39.06,-0.22,0.34,-0.27
39.06,-0.20,0.34,-0.27
39.06,-0.19,0.34,-0.27
39.07,-0.19,0.33,-0.26
39.07,-0.18,0.32,-0.27
39.07,-0.18,0.31,-0.27
39.07,-0.17,0.30,-0.27
39.08,-0.17,0.29,-0.27
39.08,-0.17,0.27,-0.27
39.08,-0.17,0.25,-0.26
39.08,-0.17,0.24,-0.26
39.08,-0.17,0.22,-0.26
39.09,-0.17,0.20,-0.25
39.09,-0.17,0.17,-0.25
39.09,-0.16,0.14,-0.25
39.09,-0.16,0.12,-0.24
39.10,-0.15,0.09,-0.23
39.10,-0.15,0.06,-0.23
39.10,-0.14,0.03,-0.22
39.10,-0.14,0.00,-0.22
39.11,-0.14,-0.02,-0.21
39.11,-0.13,-0.05,-0.20
39.11,-0.13,-0.08,-0.19
39.11,-0.13,-0.09,-0.19
39.11,-0.12,-0.11,-0.18
39.12,-0.12,-0.13,-0.17
39.12,-0.12,-0.14,-0.17
39.12,-0.12,-0.14,-0.16
39.12,-0.13,-0.14,-0.16
39.13,-0.13,-0.13,-0.15
39.13,-0.13,-0.12,-0.14
39.13,-0.13,-0.10,-0.13
39.13,-0.13,-0.08,-0.13
39.14,-0.12,-0.06,-0.12
39.14,-0.11,-0.04,-0.12
39.14,-0.10,-0.02,-0.12
39.14,-0.09,0.01,-0.12
39.14,-0.08,0.05,-0.13
39.15,-0.07,0.08,-0.13
39.15,-0.05,0.13,-0.14
39.15,-0.04,0.18,-0.14
39.15,-0.02,0.21,-0.15
39.16,0.01,0.24,-0.16
39.16,0.04,0.26,-0.17
39.16,0.08,0.27,-0.17
39.16,0.12,0.29,-0.19
39.17,0.15,0.32,-0.20
39.17,0.18,0.35,-0.21
39.17,0.21,0.38,-0.22
39.17,0.23,0.42,-0.22
39.17,0.25,0.45,-0.24
39.18,0.25,0.49,-0.25
39.18,0.26,0.52,-0.25
39.18,0.25,0.54,-0.26
39.18,0.25,0.55,-0.27
39.19,0.24,0.55,-0.28
39.19,0.23,0.54,-0.30
39.19,0.21,0.51,-0.31
39.19,0.20,0.47,-0.32
39.20,0.19,0.43,-0.33
39.20,0.18,0.38,-0.35
39.20,0.18,0.32,-0.36
39.20,0.18,0.26,-0.37
39.20,0.18,0.20,-0.38
39.21,0.19,0.14,-0.39
39.21,0.20,0.08,-0.40
39.21,0.21,0.02,-0.41
39.21,0.23,-0.03,-0.42
39.22,0.25,-0.08,-0.44
39.22,0.27,-0.12,-0.45
39.22,0.29,-0.14,-0.45
39.22,0.30,-0.16,-0.46
39.22,0.31,-0.18,-0.46
39.23,0.32,-0.18,-0.46
39.23,0.32,-0.17,-0.46
39.23,0.31,-0.15,-0.45
39.23,0.30,-0.11,-0.44
39.24,0.28,-0.06,-0.44
39.24,0.25,0.00,-0.43
39.24,0.21,0.05,-0.42
39.24,0.18,0.09,-0.42
39.25,0.14,0.13,-0.41
39.25,0.10,0.15,-0.40
39.25,0.07,0.15,-0.40
39.25,0.04,0.14,-0.40
39.25,0.02,0.11,-0.39
39.26,0.01,0.07,-0.39
39.26,0.00,0.00,-0.39
39.26,0.01,-0.09,-0.39
39.26,0.01,-0.19,-0.40
39.27,0.03,-0.28,-0.40
39.27,0.04,-0.38,-0.40
39.27,0.07,-0.47,-0.40
39.27,0.10,-0.56,-0.40
39.28,0.13,-0.64,-0.40
39.28,0.16,-0.71,-0.40
39.28,0.19,-0.78,-0.39
39.28,0.22,-0.83,-0.39
39.28,0.25,-0.87,-0.38
39.29,0.28,-0.91,-0.37
39.29,0.31,-0.93,-0.36
39.29,0.35,-0.95,-0.34
39.29,0.39,-0.97,-0.33
39.30,0.43,-0.98,-0.32
39.30,0.48,-0.97,-0.30
39.30,0.54,-0.97,-0.28
39.30,0.61,-0.95,-0.26
39.31,0.69,-0.92,-0.23
39.31,0.78,-0.89,-0.19
39.31,0.87,-0.85,-0.16
39.31,0.97,-0.80,-0.11
39.31,1.07,-0.75,-0.06
39.32,1.17,-0.70,-0.01
39.32,1.26,-0.66,0.04
39.32,1.34,-0.63,0.11
39.32,1.42,-0.62,0.18
39.33,1.48,-0.63,0.26
39.33,1.54,-0.65,0.34
39.33,1.59,-0.67,0.41
39.33,1.64,-0.70,0.49
39.34,1.68,-0.71,0.56
39.34,1.73,-0.70,0.63
39.34,1.77,-0.68,0.69
39.34,1.82,-0.63,0.75
39.34,1.87,-0.56,0.81
39.35,1.93,-0.48,0.87
39.35,1.99,-0.38,0.94
39.35,2.06,-0.28,1.02
39.35,2.12,-0.16,1.11
39.36,2.18,-0.02,1.20
39.36,2.22,0.12,1.31
39.36,2.24,0.28,1.41
39.36,2.25,0.44,1.51
39.37,2.22,0.61,1.59
39.37,2.18,0.79,1.66
39.37,2.11,0.97,1.71
39.37,2.02,1.15,1.74
39.37,1.92,1.33,1.75
39.38,1.82,1.50,1.75
39.38,1.72,1.64,1.75
39.38,1.61,1.77,1.75
39.38,1.51,1.89,1.74
39.39,1.43,2.00,1.73
39.39,1.34,2.09,1.71
39.39,1.28,2.16,1.68
39.39,1.22,2.22,1.65
39.40,1.19,2.27,1.60
39.40,1.17,2.31,1.53
39.40,1.17,2.34,1.44
39.40,1.20,2.37,1.35
39.40,1.23,2.40,1.24
39.41,1.28,2.44,1.13
39.41,1.34,2.49,1.02
39.41,1.41,2.55,0.92
39.41,1.47,2.67,0.83
39.42,1.54,2.89,0.75
39.42,1.62,3.28,0.67
39.42,1.71,3.84,0.60
39.42,1.82,4.45,0.55
39.42,1.90,4.72,0.53
39.43,1.92,4.52,0.53
39.43,1.90,4.07,0.55
39.43,1.86,3.55,0.57
39.43,1.81,3.07,0.60
39.44,1.77,2.63,0.62
39.44,1.74,2.24,0.64
39.44,1.74,1.87,0.65
39.44,1.74,1.47,0.66
39.45,1.75,1.04,0.65
39.45,1.79,0.57,0.63
39.45,1.82,0.10,0.61
39.45,1.85,-0.37,0.60
39.45,1.88,-0.82,0.60
39.46,1.91,-1.22,0.62
39.46,1.95,-1.56,0.67
39.46,1.99,-1.82,0.73
39.46,2.05,-2.00,0.81
39.47,2.10,-2.10,0.88
39.47,2.14,-2.14,0.93
39.47,2.17,-2.13,0.99
39.47,2.18,-2.06,1.02
39.48,2.17,-1.97,1.05
39.48,2.13,-1.85,1.07
39.48,2.08,-1.71,1.10
39.48,2.02,-1.55,1.12
39.48,1.94,-1.38,1.12
39.49,1.86,-1.21,1.12
39.49,1.78,-1.04,1.10
39.49,1.70,-0.88,1.08
39.49,1.63,-0.74,1.06
39.50,1.55,-0.61,1.03
39.50,1.48,-0.50,1.01
39.50,1.41,-0.40,1.00
39.50,1.35,-0.34,0.98
39.51,1.28,-0.31,0.97
39.51,1.23,-0.31,0.96
39.51,1.18,-0.34,0.94
39.51,1.14,-0.39,0.93
39.51,1.10,-0.47,0.92
39.52,1.07,-0.57,0.90
39.52,1.04,-0.68,0.88
39.52,1.02,-0.81,0.85
39.52,1.01,-0.95,0.82
39.53,1.00,-1.09,0.78
39.53,1.00,-1.22,0.74
39.53,0.99,-1.36,0.70
39.53,0.99,-1.48,0.66
39.54,1.00,-1.59,0.62
39.54,1.00,-1.70,0.58
39.54,1.01,-1.79,0.54
39.54,1.02,-1.86,0.48
39.54,1.03,-1.93,0.43
39.55,1.04,-1.97,0.38
39.55,1.05,-1.99,0.33
39.55,1.05,-1.98,0.28
39.55,1.05,-1.96,0.23
39.56,1.04,-1.92,0.18
39.56,1.03,-1.87,0.13
39.56,1.03,-1.81,0.08
39.56,1.02,-1.74,0.03
39.57,1.00,-1.68,-0.01
39.57,0.99,-1.61,-0.06
39.57,0.97,-1.54,-0.10
39.57,0.95,-1.47,-0.14
39.57,0.93,-1.41,-0.18
39.58,0.91,-1.36,-0.22
39.58,0.89,-1.33,-0.25
39.58,0.86,-1.29,-0.29
39.58,0.84,-1.27,-0.32
39.59,0.81,-1.26,-0.35
39.59,0.79,-1.24,-0.39
39.59,0.75,-1.23,-0.42
39.59,0.72,-1.22,-0.45
39.60,0.69,-1.21,-0.47
39.60,0.65,-1.19,-0.49
39.60,0.61,-1.17,-0.51
39.60,0.57,-1.15,-0.52
39.60,0.51,-1.12,-0.53
39.61,0.46,-1.08,-0.53
39.61,0.40,-1.05,-0.54
39.61,0.33,-1.01,-0.54
39.61,0.26,-0.98,-0.54
39.62,0.19,-0.94,-0.53
39.62,0.11,-0.89,-0.53
39.62,0.03,-0.84,-0.52
39.62,-0.06,-0.79,-0.51
39.62,-0.14,-0.74,-0.49
39.63,-0.22,-0.69,-0.48
39.63,-0.31,-0.63,-0.46
39.63,-0.39,-0.59,-0.43
39.63,-0.47,-0.55,-0.41
39.64,-0.53,-0.51,-0.39
39.64,-0.59,-0.46,-0.37
39.64,-0.63,-0.41,-0.35
39.64,-0.68,-0.37,-0.34
39.65,-0.72,-0.34,-0.33
39.65,-0.77,-0.32,-0.31
39.65,-0.81,-0.30,-0.30
39.65,-0.85,-0.28,-0.28
39.65,-0.89,-0.27,-0.26
39.66,-0.93,-0.26,-0.24
39.66,-0.97,-0.25,-0.22
39.66,-1.00,-0.24,-0.20
39.66,-1.03,-0.24,-0.19
39.67,-1.06,-0.23,-0.17
39.67,-1.09,-0.23,-0.15
39.67,-1.12,-0.23,-0.14
39.67,-1.15,-0.23,-0.13
39.68,-1.18,-0.23,-0.12
39.68,-1.21,-0.23,-0.11
39.68,-1.23,-0.22,-0.10
39.68,-1.26,-0.22,-0.10
39.68,-1.29,-0.22,-0.10
39.69,-1.31,-0.21,-0.10
39.69,-1.33,-0.21,-0.10
39.69,-1.35,-0.20,-0.11
39.69,-1.37,-0.19,-0.11
39.70,-1.39,-0.18,-0.12
39.70,-1.41,-0.16,-0.13
39.70,-1.43,-0.15,-0.14
39.70,-1.45,-0.12,-0.16
39.71,-1.47,-0.10,-0.17
39.71,-1.50,-0.08,-0.18
39.71,-1.52,-0.06,-0.20
39.71,-1.55,-0.04,-0.21
39.71,-1.58,-0.01,-0.23
39.72,-1.61,0.01,-0.24
39.72,-1.65,0.04,-0.27
39.72,-1.69,0.06,-0.29
39.72,-1.73,0.07,-0.30
39.73,-1.77,0.09,-0.32
39.73,-1.81,0.11,-0.34
39.73,-1.85,0.12,-0.36
39.73,-1.89,0.14,-0.39
39.74,-1.93,0.16,-0.41
39.74,-1.96,0.18,-0.43
39.74,-2.00,0.21,-0.46
39.74,-2.03,0.25,-0.48
39.74,-2.07,0.29,-0.51
39.75,-2.10,0.32,-0.54
39.75,-2.14,0.35,-0.57
39.75,-2.17,0.38,-0.60
39.75,-2.20,0.40,-0.63
39.76,-2.23,0.42,-0.66
39.76,-2.27,0.44,-0.69
39.76,-2.30,0.45,-0.73
39.76,-2.33,0.44,-0.76
39.77,-2.36,0.41,-0.80
39.77,-2.38,0.37,-0.83
39.77,-2.41,0.32,-0.87
39.77,-2.43,0.26,-0.91
39.77,-2.45,0.20,-0.94
39.78,-2.45,0.13,-0.98
39.78,-2.45,0.04,-1.02
39.78,-2.44,-0.04,-1.05
39.78,-2.42,-0.12,-1.08
39.79,-2.38,-0.20,-1.10
39.79,-2.33,-0.27,-1.12
39.79,-2.26,-0.34,-1.14
39.79,-2.19,-0.41,-1.15
39.80,-2.09,-0.46,-1.16
39.80,-1.99,-0.51,-1.16
39.80,-1.88,-0.56,-1.14
39.80,-1.75,-0.59,-1.13
39.80,-1.62,-0.64,-1.10
39.81,-1.48,-0.69,-1.06
39.81,-1.34,-0.75,-1.01
39.81,-1.19,-0.81,-0.94
39.81,-1.04,-0.87,-0.86
39.82,-0.88,-0.95,-0.77
39.82,-0.73,-1.03,-0.67
39.82,-0.57,-1.10,-0.55
39.82,-0.41,-1.17,-0.43
39.82,-0.25,-1.22,-0.31
39.83,-0.09,-1.23,-0.19
39.83,0.05,-1.21,-0.08
39.83,0.18,-1.14,0.03
39.83,0.30,-1.03,0.12
39.84,0.39,-0.87,0.21
39.84,0.46,-0.67,0.28
39.84,0.51,-0.45,0.34
39.84,0.52,-0.23,0.39
39.85,0.52,-0.01,0.42
39.85,0.51,0.21,0.44
39.85,0.48,0.41,0.45
39.85,0.45,0.60,0.46
39.85,0.41,0.77,0.47
39.86,0.36,0.91,0.48
39.86,0.32,1.03,0.49
39.86,0.29,1.13,0.50
39.86,0.26,1.20,0.50
39.87,0.23,1.25,0.49
39.87,0.21,1.27,0.48
39.87,0.20,1.27,0.47
39.87,0.18,1.26,0.46
39.88,0.17,1.23,0.44
39.88,0.17,1.18,0.42
39.88,0.17,1.13,0.41
39.88,0.18,1.06,0.39
39.88,0.19,0.99,0.36
39.89,0.20,0.90,0.34
39.89,0.22,0.82,0.30
39.89,0.25,0.73,0.27
39.89,0.27,0.64,0.25
39.90,0.30,0.55,0.22
39.90,0.34,0.46,0.21
39.90,0.38,0.36,0.19
39.90,0.42,0.26,0.17
39.91,0.46,0.16,0.15
39.91,0.50,0.07,0.13
39.91,0.55,0.00,0.11
39.91,0.59,-0.05,0.09
39.91,0.64,-0.09,0.07
39.92,0.68,-0.13,0.04
39.92,0.72,-0.16,0.02
39.92,0.76,-0.19,0.01
39.92,0.77,-0.21,0.01
39.93,0.78,-0.21,0.02
39.93,0.76,-0.20,0.02
39.93,0.73,-0.19,0.03
39.93,0.69,-0.16,0.03
39.94,0.64,-0.12,0.01
39.94,0.59,-0.07,-0.02
39.94,0.53,-0.02,-0.07
39.94,0.46,0.05,-0.12
39.94,0.41,0.12,-0.18
39.95,0.35,0.19,-0.24
39.95,0.31,0.26,-0.29
39.95,0.27,0.32,-0.32
39.95,0.25,0.37,-0.32
39.96,0.25,0.40,-0.29
39.96,0.25,0.42,-0.25
39.96,0.25,0.41,-0.19
39.96,0.25,0.38,-0.11
39.97,0.23,0.32,-0.03
39.97,0.19,0.23,0.05
39.97,0.12,0.10,0.13
39.97,0.03,-0.06,0.19
39.97,-0.08,-0.23,0.21
39.98,-0.19,-0.41,0.21
39.98,-0.31,-0.58,0.18
39.98,-0.41,-0.74,0.13
39.98,-0.51,-0.86,0.07
39.99,-0.57,-0.94,0.00
39.99,-0.60,-0.98,-0.05
39.99,-0.59,-0.96,-0.10
39.99,-0.54,-0.89,-0.12
40.00,-0.45,-0.79,-0.13
40.00,-0.32,-0.65,-0.11
40.00,-0.17,-0.48,-0.10
40.00,0.00,-0.29,-0.08
40.00,0.20,-0.06,-0.06
40.01,0.40,0.19,-0.05
40.01,0.59,0.44,-0.02
40.01,0.74,0.67,0.03
40.01,0.86,0.87,0.10
40.02,0.94,1.02,0.16
40.02,0.98,1.11,0.22
40.02,0.97,1.15,0.26
40.02,0.92,1.14,0.29
40.02,0.83,1.08,0.30
40.03,0.72,1.00,0.31
40.03,0.58,0.89,0.32
40.03,0.44,0.77,0.34
40.03,0.29,0.64,0.35
40.04,0.13,0.50,0.37
40.04,-0.01,0.37,0.38
40.04,-0.15,0.27,0.39
40.04,-0.28,0.18,0.39
40.05,-0.41,0.10,0.38
40.05,-0.52,0.04,0.37
40.05,-0.64,0.00,0.35
40.05,-0.74,-0.02,0.32
40.05,-0.84,-0.02,0.28
40.06,-0.93,-0.02,0.24
40.06,-1.01,-0.01,0.20
40.06,-1.09,0.02,0.17
40.06,-1.17,0.05,0.14
40.07,-1.24,0.09,0.11
40.07,-1.31,0.15,0.08
40.07,-1.38,0.22,0.05
40.07,-1.45,0.29,0.03
40.08,-1.52,0.38,0.00
40.08,-1.58,0.48,-0.03
40.08,-1.64,0.56,-0.07
40.08,-1.70,0.63,-0.11
40.08,-1.75,0.67,-0.15
40.09,-1.79,0.69,-0.18
40.09,-1.82,0.69,-0.22
40.09,-1.83,0.67,-0.25
40.09,-1.82,0.64,-0.28
40.10,-1.80,0.58,-0.30
40.10,-1.77,0.50,-0.31
40.10,-1.72,0.39,-0.31
40.10,-1.64,0.26,-0.31
40.11,-1.55,0.12,-0.30
40.11,-1.46,-0.03,-0.29
40.11,-1.35,-0.19,-0.29
40.11,-1.25,-0.35,-0.28
40.11,-1.15,-0.51,-0.29
40.12,-1.05,-0.66,-0.29
40.12,-0.96,-0.80,-0.31
40.12,-0.89,-0.91,-0.33
40.12,-0.82,-1.00,-0.35
40.13,-0.77,-1.05,-0.37
40.13,-0.73,-1.07,-0.39
40.13,-0.70,-1.08,-0.40
40.13,-0.69,-1.07,-0.40
40.14,-0.69,-1.05,-0.40
40.14,-0.69,-1.01,-0.38
40.14,-0.71,-0.97,-0.37
40.14,-0.73,-0.91,-0.35
40.14,-0.76,-0.85,-0.33
40.15,-0.79,-0.78,-0.31
40.15,-0.82,-0.70,-0.28
40.15,-0.86,-0.61,-0.26
40.15,-0.88,-0.52,-0.25
40.16,-0.90,-0.42,-0.23
40.16,-0.92,-0.33,-0.22
40.16,-0.93,-0.25,-0.21
40.16,-0.92,-0.17,-0.20
40.17,-0.92,-0.10,-0.20
40.17,-0.90,-0.04,-0.20
40.17,-0.87,0.00,-0.19
40.17,-0.85,0.04,-0.19
40.17,-0.81,0.07,-0.19
40.18,-0.77,0.08,-0.19
40.18,-0.73,0.09,-0.19
40.18,-0.69,0.08,-0.20
40.18,-0.65,0.08,-0.20
40.19,-0.60,0.06,-0.20
40.19,-0.56,0.03,-0.20
40.19,-0.53,0.00,-0.20
40.19,-0.49,-0.03,-0.20
40.20,-0.46,-0.07,-0.20
40.20,-0.43,-0.11,-0.20
40.20,-0.41,-0.14,-0.20
40.20,-0.39,-0.17,-0.19
40.20,-0.36,-0.20,-0.19
40.21,-0.34,-0.21,-0.19
40.21,-0.33,-0.22,-0.19
40.21,-0.32,-0.22,-0.19
40.21,-0.31,-0.21,-0.19
40.22,-0.30,-0.20,-0.19
40.22,-0.30,-0.18,-0.19
40.22,-0.29,-0.15,-0.18
40.22,-0.29,-0.12,-0.18
40.22,-0.30,-0.09,-0.18
40.23,-0.30,-0.05,-0.17
40.23,-0.30,-0.02,-0.17
40.23,-0.31,0.01,-0.17
40.23,-0.31,0.03,-0.17
40.24,-0.31,0.05,-0.17
40.24,-0.31,0.04,-0.16
40.24,-0.31,0.04,-0.16
40.24,-0.32,0.02,-0.15
40.25,-0.31,0.00,-0.15
40.25,-0.31,-0.03,-0.15
40.25,-0.30,-0.06,-0.15
40.25,-0.30,-0.09,-0.14
40.25,-0.30,-0.11,-0.14
40.26,-0.29,-0.15,-0.14
40.26,-0.29,-0.18,-0.14
40.26,-0.29,-0.22,-0.14
40.26,-0.29,-0.26,-0.15
40.27,-0.29,-0.29,-0.15
40.27,-0.29,-0.32,-0.15
40.27,-0.29,-0.34,-0.15
40.27,-0.29,-0.36,-0.15
40.28,-0.30,-0.37,-0.15
40.28,-0.30,-0.38,-0.15
40.28,-0.30,-0.39,-0.15
40.28,-0.31,-0.39,-0.15
40.28,-0.32,-0.39,-0.14
40.29,-0.33,-0.38,-0.14
40.29,-0.34,-0.36,-0.14
40.29,-0.35,-0.35,-0.13
40.29,-0.36,-0.32,-0.12
40.30,-0.36,-0.30,-0.11
40.30,-0.38,-0.26,-0.11
40.30,-0.38,-0.23,-0.10
40.30,-0.39,-0.19,-0.09
40.31,-0.40,-0.14,-0.08
40.31,-0.40,-0.09,-0.08
40.31,-0.40,-0.05,-0.07
40.31,-0.40,0.01,-0.06
40.31,-0.40,0.07,-0.06
40.32,-0.39,0.13,-0.05
40.32,-0.39,0.20,-0.05
40.32,-0.38,0.27,-0.04
40.32,-0.37,0.34,-0.04
40.33,-0.37,0.42,-0.05
40.33,-0.37,0.50,-0.05
40.33,-0.36,0.58,-0.05
40.33,-0.36,0.67,-0.05
40.34,-0.36,0.76,-0.05
40.34,-0.36,0.86,-0.04
40.34,-0.35,0.97,-0.04
40.34,-0.35,1.08,-0.04
40.34,-0.35,1.20,-0.04
40.35,-0.35,1.30,-0.04
40.35,-0.34,1.38,-0.04
40.35,-0.34,1.43,-0.05
40.35,-0.34,1.43,-0.05
40.36,-0.33,1.37,-0.05
40.36,-0.33,1.24,-0.06
40.36,-0.32,1.05,-0.06
40.36,-0.31,0.84,-0.07
40.37,-0.30,0.62,-0.07
40.37,-0.28,0.40,-0.08
40.37,-0.25,0.21,-0.10
40.37,-0.22,0.03,-0.12
40.37,-0.20,-0.14,-0.14
40.38,-0.17,-0.28,-0.16
40.38,-0.14,-0.41,-0.19
40.38,-0.12,-0.52,-0.20
40.38,-0.10,-0.62,-0.21
40.39,-0.08,-0.71,-0.22
40.39,-0.07,-0.79,-0.22
40.39,-0.06,-0.86,-0.21
40.39,-0.06,-0.92,-0.20
40.40,-0.07,-0.96,-0.18
40.40,-0.09,-0.98,-0.17
40.40,-0.11,-0.99,-0.15
40.40,-0.14,-0.99,-0.13
40.40,-0.17,-0.97,-0.11
40.41,-0.20,-0.95,-0.09
40.41,-0.24,-0.91,-0.08
40.41,-0.27,-0.87,-0.06
40.41,-0.31,-0.83,-0.04
40.42,-0.35,-0.78,-0.02
40.42,-0.38,-0.74,-0.02
40.42,-0.41,-0.69,-0.01
40.42,-0.44,-0.63,0.00
40.42,-0.47,-0.57,0.01
40.43,-0.50,-0.53,0.01
40.43,-0.52,-0.48,0.01
40.43,-0.55,-0.44,0.01
40.43,-0.56,-0.40,0.01
40.44,-0.59,-0.37,0.01
40.44,-0.60,-0.35,0.01
40.44,-0.61,-0.33,0.00
40.44,-0.62,-0.32,0.00
40.45,-0.63,-0.32,-0.01
40.45,-0.63,-0.33,-0.02
40.45,-0.64,-0.34,-0.02
40.45,-0.64,-0.36,-0.04
40.45,-0.64,-0.38,-0.05
40.46,-0.64,-0.41,-0.06
40.46,-0.63,-0.44,-0.07
40.46,-0.63,-0.47,-0.09
40.46,-0.63,-0.50,-0.10
40.47,-0.63,-0.54,-0.11
40.47,-0.63,-0.57,-0.13
40.47,-0.63,-0.60,-0.14
40.47,-0.63,-0.63,-0.16
40.48,-0.63,-0.65,-0.17
40.48,-0.62,-0.67,-0.18
40.48,-0.62,-0.69,-0.20
40.48,-0.61,-0.71,-0.21
40.48,-0.60,-0.72,-0.23
40.49,-0.59,-0.73,-0.24
40.49,-0.58,-0.74,-0.25
40.49,-0.57,-0.73,-0.27
40.49,-0.56,-0.72,-0.28
40.50,-0.55,-0.71,-0.28
40.50,-0.54,-0.68,-0.28
40.50,-0.53,-0.65,-0.29
40.50,-0.52,-0.62,-0.29
40.51,-0.51,-0.57,-0.28
40.51,-0.51,-0.52,-0.28
40.51,-0.50,-0.47,-0.27
40.51,-0.49,-0.41,-0.26
40.51,-0.49,-0.35,-0.25
40.52,-0.48,-0.30,-0.24
40.52,-0.47,-0.24,-0.22
40.52,-0.47,-0.19,-0.21
40.52,-0.46,-0.14,-0.19
40.53,-0.46,-0.09,-0.17
40.53,-0.45,-0.05,-0.16
40.53,-0.45,-0.01,-0.15
40.53,-0.44,0.03,-0.14
40.54,-0.44,0.07,-0.13
40.54,-0.43,0.12,-0.13
40.54,-0.43,0.16,-0.12
40.54,-0.42,0.20,-0.12
40.54,-0.41,0.24,-0.12
40.55,-0.40,0.27,-0.12
40.55,-0.39,0.29,-0.12
40.55,-0.38,0.31,-0.11
40.55,-0.37,0.32,-0.12
40.56,-0.36,0.32,-0.12
40.56,-0.35,0.32,-0.13
40.56,-0.34,0.31,-0.14
40.56,-0.33,0.29,-0.14
40.57,-0.32,0.27,-0.15
40.57,-0.30,0.25,-0.15
40.57,-0.29,0.22,-0.16
40.57,-0.28,0.20,-0.16
40.57,-0.27,0.17,-0.17
40.58,-0.26,0.14,-0.17
40.58,-0.25,0.12,-0.18
40.58,-0.25,0.08,-0.18
40.58,-0.25,0.06,-0.19
40.59,-0.25,0.03,-0.20
40.59,-0.25,0.00,-0.20
40.59,-0.25,-0.03,-0.21
40.59,-0.25,-0.06,-0.21
40.60,-0.26,-0.09,-0.21
40.60,-0.26,-0.12,-0.21
40.60,-0.25,-0.14,-0.21
40.60,-0.25,-0.17,-0.21
40.60,-0.25,-0.19,-0.21
40.61,-0.24,-0.21,-0.21
40.61,-0.24,-0.22,-0.21
40.61,-0.24,-0.23,-0.20
40.61,-0.23,-0.24,-0.19
40.62,-0.22,-0.25,-0.19
40.62,-0.21,-0.25,-0.18
40.62,-0.20,-0.24,-0.17
40.62,-0.19,-0.23,-0.16
40.63,-0.18,-0.22,-0.15
40.63,-0.18,-0.19,-0.14
40.63,-0.17,-0.17,-0.13
40.63,-0.16,-0.14,-0.12
40.63,-0.16,-0.10,-0.12
40.64,-0.15,-0.06,-0.11
40.64,-0.15,-0.02,-0.09
40.64,-0.14,0.02,-0.08
40.64,-0.15,0.07,-0.07
40.65,-0.14,0.13,-0.06
40.65,-0.14,0.17,-0.05
40.65,-0.13,0.22,-0.04
40.65,-0.13,0.27,-0.03
40.65,-0.13,0.32,-0.02
40.66,-0.12,0.36,-0.01
40.66,-0.12,0.41,-0.01
40.66,-0.11,0.45,0.00
40.66,-0.11,0.49,0.01
40.67,-0.10,0.52,0.01
40.67,-0.09,0.55,0.02
40.67,-0.08,0.58,0.02
40.67,-0.07,0.59,0.02
40.68,-0.06,0.61,0.02
40.68,-0.05,0.62,0.02
40.68,-0.04,0.63,0.02
40.68,-0.02,0.63,0.02
40.68,-0.01,0.64,0.01
40.69,0.00,0.63,0.01
40.69,0.01,0.64,0.00
40.69,0.02,0.63,0.00
40.69,0.03,0.63,-0.01
40.70,0.05,0.62,-0.02
40.70,0.05,0.62,-0.02
40.70,0.06,0.61,-0.02
40.70,0.07,0.60,-0.03
40.71,0.08,0.60,-0.03
40.71,0.09,0.59,-0.03
40.71,0.09,0.59,-0.04
40.71,0.10,0.58,-0.04
40.71,0.10,0.57,-0.04
40.72,0.11,0.57,-0.04
40.72,0.11,0.57,-0.05
40.72,0.12,0.56,-0.05
40.72,0.12,0.56,-0.05
40.73,0.13,0.56,-0.06
40.73,0.14,0.56,-0.06
40.73,0.14,0.55,-0.06
40.73,0.15,0.55,-0.06
40.74,0.16,0.54,-0.07
40.74,0.17,0.54,-0.07
40.74,0.17,0.54,-0.07
40.74,0.18,0.54,-0.07
40.74,0.19,0.53,-0.07
40.75,0.20,0.53,-0.07
40.75,0.21,0.53,-0.07
40.75,0.21,0.53,-0.08
40.75,0.22,0.53,-0.07
40.76,0.22,0.53,-0.07
40.76,0.23,0.53,-0.07
40.76,0.23,0.53,-0.07
40.76,0.24,0.54,-0.07
40.77,0.24,0.54,-0.07
40.77,0.24,0.54,-0.06
40.77,0.24,0.54,-0.06
40.77,0.23,0.54,-0.06
40.77,0.23,0.54,-0.05
40.78,0.22,0.54,-0.05
40.78,0.21,0.53,-0.05
40.78,0.21,0.52,-0.05
40.78,0.20,0.51,-0.05
40.79,0.19,0.51,-0.04
40.79,0.18,0.49,-0.04
40.79,0.17,0.47,-0.04
40.79,0.16,0.46,-0.03
40.80,0.14,0.44,-0.03
40.80,0.13,0.43,-0.03
40.80,0.12,0.42,-0.02
40.80,0.11,0.41,-0.02
40.80,0.10,0.39,-0.02
40.81,0.09,0.38,-0.02
40.81,0.08,0.36,-0.02
40.81,0.07,0.35,-0.01
40.81,0.06,0.34,-0.01
40.82,0.05,0.33,-0.01
40.82,0.05,0.32,-0.01
40.82,0.04,0.31,-0.01
40.82,0.04,0.31,-0.01
40.83,0.03,0.31,0.00
40.83,0.03,0.31,0.00
40.83,0.03,0.32,0.00
40.83,0.03,0.32,0.00
40.83,0.02,0.33,0.00
40.84,0.02,0.33,0.00
40.84,0.01,0.33,0.01
40.84,0.01,0.33,0.01
40.84,0.01,0.33,0.01
40.85,0.00,0.33,0.01
40.85,0.00,0.33,0.01
40.85,0.00,0.33,0.01
40.85,-0.01,0.33,0.02
40.85,-0.01,0.32,0.02
40.86,-0.01,0.31,0.02
40.86,-0.01,0.30,0.02
40.86,-0.01,0.29,0.02
40.86,-0.01,0.28,0.02
40.87,-0.01,0.27,0.02
40.87,-0.02,0.26,0.02
40.87,-0.02,0.25,0.02
40.87,-0.02,0.24,0.02
40.88,-0.02,0.23,0.02
40.88,-0.02,0.22,0.02
40.88,-0.02,0.21,0.03
40.88,-0.02,0.21,0.02
40.88,-0.02,0.20,0.03
40.89,-0.02,0.20,0.02
40.89,-0.02,0.20,0.02
40.89,-0.02,0.20,0.02
40.89,-0.02,0.19,0.02
40.90,-0.02,0.19,0.02
40.90,-0.02,0.19,0.02
40.90,-0.02,0.19,0.02
40.90,-0.02,0.18,0.01
40.91,-0.02,0.18,0.01
40.91,-0.02,0.18,0.01
40.91,-0.02,0.18,0.00
40.91,-0.02,0.17,0.00
40.91,-0.02,0.17,-0.01
40.92,-0.01,0.17,-0.01
40.92,-0.01,0.17,-0.01
40.92,-0.01,0.17,-0.02
40.92,-0.01,0.17,-0.02
40.93,0.00,0.17,-0.03
40.93,0.00,0.17,-0.03
40.93,0.00,0.17,-0.03
40.93,0.00,0.17,-0.04
40.94,0.00,0.17,-0.04
40.94,0.00,0.17,-0.04
40.94,0.01,0.17,-0.05
40.94,0.01,0.17,-0.05
40.94,0.01,0.17,-0.06
40.95,0.01,0.17,-0.06
40.95,0.02,0.17,-0.06
40.95,0.02,0.17,-0.07
40.95,0.03,0.17,-0.07
40.96,0.03,0.17,-0.07
40.96,0.03,0.17,-0.07
40.96,0.03,0.17,-0.07
40.96,0.04,0.17,-0.07
40.97,0.04,0.16,-0.08
40.97,0.04,0.16,-0.08
40.97,0.04,0.16,-0.08
40.97,0.04,0.15,-0.08
40.97,0.04,0.15,-0.08
40.98,0.04,0.15,-0.07
40.98,0.04,0.14,-0.07
40.98,0.03,0.14,-0.07
40.98,0.03,0.13,-0.07
40.99,0.03,0.12,-0.07
40.99,0.04,0.12,-0.07
40.99,0.04,0.10,-0.07
40.99,0.04,0.10,-0.07
41.00,0.04,0.08,-0.07
41.00,0.04,0.08,-0.06
41.00,0.04,0.07,-0.06
41.00,0.03,0.07,-0.06
41.00,0.03,0.07,-0.05
41.01,0.03,0.07,-0.05
41.01,0.03,0.06,-0.05
41.01,0.03,0.06,-0.04
41.01,0.03,0.05,-0.04
41.02,0.03,0.05,-0.04
41.02,0.03,0.04,-0.03
41.02,0.03,0.04,-0.03
41.02,0.03,0.04,-0.03
41.03,0.03,0.05,-0.03
41.03,0.02,0.05,-0.03
41.03,0.02,0.06,-0.02
41.03,0.02,0.07,-0.02
41.03,0.02,0.07,-0.02
41.04,0.01,0.07,-0.02
41.04,0.01,0.07,-0.02
41.04,0.01,0.06,-0.03
41.04,0.01,0.05,-0.04
41.05,0.01,0.04,-0.04
41.05,0.01,0.02,-0.05
41.05,0.01,0.01,-0.05
41.05,0.01,0.00,-0.05
41.05,0.01,-0.01,-0.06
41.06,0.02,-0.02,-0.06
41.06,0.02,-0.02,-0.06
41.06,0.02,-0.03,-0.06
41.06,0.02,-0.04,-0.06
41.07,0.02,-0.04,-0.06
41.07,0.02,-0.05,-0.06
41.07,0.01,-0.06,-0.06
41.07,0.01,-0.06,-0.06
41.08,0.00,-0.07,-0.05
41.08,0.00,-0.07,-0.05
41.08,-0.01,-0.07,-0.05
41.08,-0.02,-0.06,-0.05
41.08,-0.02,-0.06,-0.04
41.09,-0.03,-0.06,-0.04
41.09,-0.03,-0.05,-0.04
41.09,-0.03,-0.06,-0.04
41.09,-0.04,-0.06,-0.05
41.10,-0.04,-0.05,-0.05
41.10,-0.05,-0.06,-0.05
41.10,-0.05,-0.05,-0.05
41.10,-0.05,-0.05,-0.05
41.11,-0.06,-0.04,-0.05
41.11,-0.06,-0.04,-0.05
41.11,-0.07,-0.04,-0.05
41.11,-0.07,-0.05,-0.05
41.11,-0.08,-0.06,-0.06
41.12,-0.09,-0.08,-0.06
41.12,-0.09,-0.10,-0.07
41.12,-0.10,-0.14,-0.07
41.12,-0.11,-0.17,-0.07
41.13,-0.11,-0.22,-0.07
41.13,-0.12,-0.26,-0.08
41.13,-0.13,-0.31,-0.08
41.13,-0.13,-0.36,-0.08
41.14,-0.14,-0.40,-0.08
41.14,-0.16,-0.43,-0.08
41.14,-0.17,-0.47,-0.08
41.14,-0.18,-0.50,-0.08
41.14,-0.18,-0.52,-0.08
41.15,-0.19,-0.53,-0.08
41.15,-0.19,-0.54,-0.08
41.15,-0.20,-0.54,-0.09
41.15,-0.19,-0.54,-0.09
41.16,-0.19,-0.53,-0.09
41.16,-0.18,-0.52,-0.10
41.16,-0.17,-0.51,-0.10
41.16,-0.16,-0.51,-0.11
41.17,-0.14,-0.50,-0.11
41.17,-0.13,-0.49,-0.11
41.17,-0.12,-0.48,-0.11
41.17,-0.11,-0.46,-0.11
41.17,-0.10,-0.43,-0.11
41.18,-0.10,-0.41,-0.11
41.18,-0.09,-0.37,-0.11
41.18,-0.09,-0.34,-0.11
41.18,-0.09,-0.31,-0.11
41.19,-0.08,-0.29,-0.10
41.19,-0.08,-0.27,-0.10
41.19,-0.08,-0.25,-0.10
41.19,-0.08,-0.23,-0.09
41.20,-0.07,-0.21,-0.09
41.20,-0.07,-0.21,-0.08
41.20,-0.07,-0.20,-0.08
41.20,-0.06,-0.20,-0.07
41.20,-0.06,-0.20,-0.07
41.21,-0.06,-0.19,-0.07
41.21,-0.05,-0.20,-0.07
41.21,-0.05,-0.20,-0.06
41.21,-0.05,-0.21,-0.06
41.22,-0.04,-0.21,-0.06
41.22,-0.04,-0.21,-0.06
41.22,-0.04,-0.22,-0.06
41.22,-0.04,-0.23,-0.06
41.23,-0.04,-0.23,-0.06
41.23,-0.03,-0.23,-0.06
41.23,-0.03,-0.24,-0.05
41.23,-0.03,-0.24,-0.05
41.23,-0.02,-0.24,-0.05
41.24,-0.02,-0.24,-0.05
41.24,-0.01,-0.24,-0.05
41.24,-0.01,-0.24,-0.05
41.24,-0.01,-0.24,-0.05
41.25,0.00,-0.24,-0.05
41.25,0.00,-0.24,-0.05
41.25,0.00,-0.24,-0.05
41.25,0.00,-0.23,-0.04
41.25,0.00,-0.23,-0.04
41.26,0.00,-0.22,-0.04
41.26,0.01,-0.22,-0.04
41.26,0.01,-0.21,-0.03
41.26,0.01,-0.20,-0.03
41.27,0.01,-0.20,-0.03
41.27,0.01,-0.19,-0.02
41.27,0.01,-0.19,-0.02
41.27,0.01,-0.18,-0.02
41.28,0.01,-0.18,-0.01
41.28,0.01,-0.17,-0.01
41.28,0.01,-0.17,0.00
41.28,0.01,-0.17,0.00
41.28,0.01,-0.17,0.01
41.29,0.01,-0.17,0.01
41.29,0.01,-0.17,0.01
41.29,0.01,-0.17,0.01
41.29,0.01,-0.16,0.02
41.30,0.01,-0.17,0.02
41.30,0.01,-0.17,0.03
41.30,0.01,-0.17,0.03
41.30,0.01,-0.17,0.03
41.31,0.01,-0.17,0.03
41.31,0.01,-0.18,0.03
41.31,0.01,-0.18,0.03
41.31,0.01,-0.18,0.04
41.31,0.01,-0.18,0.04
41.32,0.01,-0.19,0.04
41.32,0.01,-0.19,0.04
41.32,0.01,-0.19,0.04
41.32,0.01,-0.19,0.04
41.33,0.01,-0.20,0.04
41.33,0.01,-0.20,0.04
41.33,0.02,-0.20,0.04
41.33,0.02,-0.20,0.04
41.34,0.01,-0.21,0.04
41.34,0.02,-0.21,0.04
41.34,0.02,-0.21,0.04
41.34,0.02,-0.22,0.04
41.34,0.02,-0.22,0.04
41.35,0.03,-0.23,0.04
41.35,0.02,-0.23,0.04
41.35,0.03,-0.24,0.04
41.35,0.03,-0.24,0.04
41.36,0.03,-0.25,0.04
41.36,0.03,-0.25,0.04
41.36,0.03,-0.26,0.04
41.36,0.03,-0.26,0.05
41.37,0.04,-0.27,0.05
41.37,0.04,-0.27,0.05
41.37,0.04,-0.26,0.05
41.37,0.04,-0.25,0.06
41.37,0.04,-0.23,0.07
41.38,0.05,-0.22,0.07
41.38,0.05,-0.21,0.07
41.38,0.05,-0.20,0.07
41.38,0.05,-0.20,0.07
41.39,0.06,-0.20,0.07
41.39,0.06,-0.19,0.07
41.39,0.06,-0.19,0.07
41.39,0.07,-0.17,0.07
41.40,0.06,-0.16,0.07
41.40,0.06,-0.14,0.07
41.40,0.06,-0.13,0.07
41.40,0.06,-0.13,0.06
41.40,0.06,-0.13,0.06
41.41,0.06,-0.13,0.06
41.41,0.06,-0.14,0.05
41.41,0.06,-0.15,0.05
41.41,0.06,-0.16,0.05
41.42,0.06,-0.17,0.05
41.42,0.05,-0.17,0.05
41.42,0.05,-0.18,0.05
41.42,0.04,-0.17,0.05
41.43,0.03,-0.17,0.05
41.43,0.02,-0.17,0.05
41.43,0.00,-0.17,0.05
41.43,-0.01,-0.17,0.05
41.43,-0.02,-0.17,0.05
41.44,-0.03,-0.17,0.05
41.44,-0.04,-0.17,0.05
41.44,-0.05,-0.18,0.04
41.44,-0.06,-0.18,0.04
41.45,-0.06,-0.19,0.03
41.45,-0.07,-0.20,0.03
41.45,-0.07,-0.21,0.02
41.45,-0.08,-0.22,0.02
41.45,-0.08,-0.23,0.01
41.46,-0.08,-0.24,0.01
41.46,-0.08,-0.25,0.01
41.46,-0.09,-0.26,0.00
41.46,-0.09,-0.26,0.00
41.47,-0.10,-0.27,0.00
41.47,-0.10,-0.27,-0.01
41.47,-0.10,-0.27,-0.01
41.47,-0.11,-0.27,-0.01
41.48,-0.11,-0.26,-0.01
41.48,-0.12,-0.25,-0.01
41.48,-0.12,-0.25,-0.01
41.48,-0.12,-0.25,-0.01
41.48,-0.13,-0.25,-0.01
41.49,-0.13,-0.23,-0.01
41.49,-0.14,-0.23,-0.01
41.49,-0.13,-0.23,-0.01
41.49,-0.14,-0.23,-0.01
41.50,-0.14,-0.22,-0.01
41.50,-0.14,-0.22,-0.02
41.50,-0.14,-0.22,-0.02
41.50,-0.14,-0.22,-0.02
41.51,-0.14,-0.22,-0.02
41.51,-0.14,-0.22,-0.02
41.51,-0.14,-0.22,-0.02
41.51,-0.14,-0.22,-0.02
41.51,-0.14,-0.22,-0.02
41.52,-0.14,-0.22,-0.02
41.52,-0.13,-0.22,-0.02
41.52,-0.13,-0.23,-0.02
41.52,-0.13,-0.22,-0.02
41.53,-0.13,-0.22,-0.02
41.53,-0.13,-0.22,-0.02
41.53,-0.13,-0.22,-0.02
41.53,-0.13,-0.22,-0.01
41.54,-0.13,-0.22,-0.01
41.54,-0.12,-0.22,-0.01
41.54,-0.12,-0.22,-0.01
41.54,-0.12,-0.22,-0.01
41.54,-0.11,-0.22,-0.01
41.55,-0.11,-0.22,0.00
41.55,-0.11,-0.21,0.00
41.55,-0.11,-0.21,0.00
41.55,-0.11,-0.21,0.00
41.56,-0.11,-0.21,0.00
41.56,-0.11,-0.20,0.00
41.56,-0.10,-0.20,0.00
41.56,-0.10,-0.20,0.01
41.57,-0.09,-0.19,0.01
41.57,-0.09,-0.18,0.01
41.57,-0.08,-0.18,0.01
41.57,-0.08,-0.18,0.01
41.57,-0.08,-0.17,0.00
41.58,-0.07,-0.17,0.00
41.58,-0.07,-0.17,0.00
41.58,-0.07,-0.16,0.00
41.58,-0.06,-0.15,0.00
41.59,-0.06,-0.15,0.00
41.59,-0.05,-0.15,0.00
41.59,-0.05,-0.15,0.00
41.59,-0.04,-0.15,0.00
41.60,-0.04,-0.14,0.01
41.60,-0.04,-0.13,0.01
41.60,-0.03,-0.12,0.01
41.60,-0.03,-0.11,0.02
41.60,-0.03,-0.10,0.02
41.61,-0.03,-0.09,0.02
41.61,-0.03,-0.07,0.03
41.61,-0.03,-0.06,0.03
41.61,-0.03,-0.05,0.03
41.62,-0.03,-0.04,0.04
41.62,-0.03,-0.03,0.04
41.62,-0.03,-0.02,0.04
41.62,-0.03,-0.01,0.04
41.63,-0.03,0.00,0.04
41.63,-0.03,0.01,0.05
41.63,-0.03,0.02,0.05
41.63,-0.03,0.03,0.05
41.63,-0.03,0.04,0.05
41.64,-0.03,0.05,0.05
41.64,-0.03,0.06,0.05
41.64,-0.03,0.06,0.05
41.64,-0.03,0.07,0.05
41.65,-0.03,0.07,0.05
41.65,-0.03,0.07,0.05
41.65,-0.03,0.08,0.05
41.65,-0.03,0.08,0.04
41.65,-0.02,0.09,0.04
41.66,-0.02,0.08,0.04
41.66,-0.02,0.08,0.04
41.66,-0.02,0.08,0.04
41.66,-0.02,0.08,0.04
41.67,-0.02,0.08,0.04
41.67,-0.02,0.10,0.04
41.67,-0.02,0.10,0.04
41.67,-0.02,0.10,0.04
41.68,-0.02,0.11,0.04
41.68,-0.02,0.11,0.03
41.68,-0.02,0.10,0.03
41.68,-0.01,0.10,0.03
41.68,-0.01,0.10,0.03
41.69,-0.02,0.10,0.03
41.69,-0.02,0.10,0.03
41.69,-0.01,0.10,0.03
41.69,-0.02,0.10,0.02
41.70,-0.02,0.10,0.02
41.70,-0.01,0.09,0.02
41.70,-0.01,0.09,0.02
41.70,-0.01,0.09,0.02
41.71,-0.01,0.08,0.02