"Time (s)","Gyroscope x (rad/s)","Gyroscope y (rad/s)","Gyroscope z (rad/s)"
1.414447390E-1,8.093725890E-3,1.206423342E-2,6.719320081E-3
1.439753120E-1,6.872031838E-3,1.084253844E-2,5.497625098E-3
1.465057810E-1,6.872031838E-3,8.399149403E-3,6.719320081E-3
1.490361980E-1,8.093725890E-3,5.955760833E-3,5.497625098E-3
1.515666140E-1,8.093725890E-3,4.734066315E-3,5.497625098E-3
1.540969790E-1,8.093725890E-3,4.734066315E-3,5.497625098E-3
1.566272390E-1,9.315420873E-3,2.290677279E-3,3.054236295E-3
1.591574480E-1,9.315420873E-3,1.068982761E-3,4.275931045E-3
1.616876560E-1,9.315420873E-3,2.290677279E-3,3.054236295E-3
1.642178120E-1,9.315420873E-3,1.068982761E-3,3.054236295E-3
1.667478640E-1,9.315420873E-3,-1.527118147E-4,3.054236295E-3
1.692778640E-1,9.315420873E-3,-1.374406274E-3,1.832541777E-3
1.718078640E-1,9.315420873E-3,-1.527118147E-4,1.832541777E-3
1.743378120E-1,9.315420873E-3,-3.817795310E-3,1.832541777E-3
1.768486460E-1,9.315420873E-3,-3.817795310E-3,-6.108472589E-4
1.793277080E-1,1.053711493E-2,-7.482878864E-3,1.832541777E-3
1.818075520E-1,1.053711493E-2,-1.236965694E-2,6.108472589E-4
1.842866140E-1,9.315420873E-3,-1.359135192E-2,-6.108472589E-4
1.867648960E-1,1.053711493E-2,-1.725643501E-2,-1.832541777E-3
1.892439580E-1,1.175880991E-2,-1.725643501E-2,6.108472589E-4
1.917238540E-1,1.298050396E-2,-1.969982497E-2,6.108472589E-4
1.942029160E-1,1.298050396E-2,-2.214321308E-2,1.832541777E-3
1.966811980E-1,1.420219894E-2,-2.458660305E-2,1.832541777E-3
1.991602600E-1,1.420219894E-2,-2.336490713E-2,6.108472589E-4
2.016401560E-1,1.542389300E-2,-2.458660305E-2,1.832541777E-3
2.041192190E-1,1.542389300E-2,-2.580829710E-2,1.832541777E-3
2.065975000E-1,1.420219894E-2,-2.580829710E-2,4.275931045E-3
2.090765620E-1,1.542389300E-2,-2.458660305E-2,4.275931045E-3
2.115565100E-1,1.420219894E-2,-2.214321308E-2,4.275931045E-3
2.140355210E-1,1.420219894E-2,-1.969982497E-2,5.497625098E-3
2.165138020E-1,1.420219894E-2,-1.847812906E-2,4.275931045E-3
2.189928640E-1,1.664558798E-2,-1.847812906E-2,5.497625098E-3
2.214728120E-1,1.664558798E-2,-1.725643501E-2,6.719320081E-3
2.239518230E-1,1.664558798E-2,-1.603474095E-2,6.719320081E-3
2.264301040E-1,1.664558798E-2,-1.236965694E-2,7.941014133E-3
2.289091660E-1,1.786728203E-2,-1.236965694E-2,5.497625098E-3
2.313891140E-1,1.786728203E-2,-1.236965694E-2,4.275931045E-3
2.338681250E-1,1.908897609E-2,-1.236965694E-2,5.497625098E-3
2.363464060E-1,2.031067200E-2,-1.114796288E-2,5.497625098E-3
2.388254690E-1,1.908897609E-2,-9.926267900E-3,5.497625098E-3
2.413054160E-1,2.031067200E-2,-1.114796288E-2,4.275931045E-3
2.437844270E-1,2.031067200E-2,-1.114796288E-2,5.497625098E-3
2.462627080E-1,2.153236605E-2,-1.114796288E-2,6.719320081E-3
2.487417710E-1,2.153236605E-2,-1.236965694E-2,6.719320081E-3
2.512217190E-1,1.908897609E-2,-1.603474095E-2,5.497625098E-3
2.537007290E-1,2.031067200E-2,-1.969982497E-2,5.497625098E-3
2.561790100E-1,1.908897609E-2,-1.969982497E-2,5.497625098E-3
2.586580730E-1,1.908897609E-2,-2.336490713E-2,5.497625098E-3
2.611380210E-1,1.786728203E-2,-2.580829710E-2,5.497625098E-3
2.636170310E-1,1.786728203E-2,-2.702999115E-2,5.497625098E-3
2.660953120E-1,1.542389300E-2,-2.825168520E-2,5.497625098E-3
2.685743750E-1,1.542389300E-2,-3.069507517E-2,4.275931045E-3
2.710543230E-1,1.664558798E-2,-3.313846514E-2,4.275931045E-3
2.735333330E-1,1.420219894E-2,-3.680354729E-2,4.275931045E-3
2.760116140E-1,1.420219894E-2,-3.924693540E-2,1.832541777E-3
2.784906770E-1,1.298050396E-2,-3.680354729E-2,1.832541777E-3
2.809706250E-1,1.175880991E-2,-3.924693540E-2,-6.108472589E-4
2.834496350E-1,1.053711493E-2,-4.169032723E-2,-1.832541777E-3
2.859279160E-1,9.315420873E-3,-4.169032723E-2,-3.054236295E-3
2.884069790E-1,9.315420873E-3,-4.169032723E-2,-3.054236295E-3
2.908869270E-1,6.872031838E-3,-4.291202128E-2,-4.275931045E-3
2.933659370E-1,5.650337320E-3,-4.169032723E-2,-6.719320081E-3
2.958442190E-1,4.428642802E-3,-4.046862945E-2,-7.941014133E-3
2.983232810E-1,3.206948051E-3,-4.046862945E-2,-9.162709117E-3
3.008032290E-1,3.206948051E-3,-4.169032723E-2,-1.038440317E-2
3.032822390E-1,1.985253533E-3,-4.169032723E-2,-1.038440317E-2
3.057605210E-1,1.985253533E-3,-4.413371533E-2,-1.282779220E-2
3.082395830E-1,7.635590737E-4,-4.291202128E-2,-1.160609815E-2
3.107195310E-1,7.635590737E-4,-4.413371533E-2,-1.282779220E-2
3.131985410E-1,-1.679830020E-3,-4.413371533E-2,-1.282779220E-2
3.156768230E-1,-4.581354442E-4,-4.413371533E-2,-1.282779220E-2
3.181558850E-1,-4.581354442E-4,-4.413371533E-2,-1.282779220E-2
3.206358330E-1,-4.123218823E-3,-4.535540938E-2,-1.160609815E-2
3.231148440E-1,-5.344913341E-3,-4.779879749E-2,-1.160609815E-2
3.255931250E-1,-5.344913341E-3,-4.779879749E-2,-1.160609815E-2
3.280721870E-1,-5.344913341E-3,-4.779879749E-2,-1.160609815E-2
3.305521350E-1,-7.788302377E-3,-4.657710344E-2,-1.282779220E-2
3.330311460E-1,-9.009997360E-3,-4.291202128E-2,-1.160609815E-2
3.355094270E-1,-1.145338640E-2,-4.413371533E-2,-1.038440317E-2
3.379884890E-1,-1.145338640E-2,-3.924693540E-2,-1.282779220E-2
3.404684370E-1,-1.389677543E-2,-3.558185324E-2,-1.404948719E-2
3.429474480E-1,-1.389677543E-2,-3.191677108E-2,-1.527118124E-2
3.454257290E-1,-1.389677543E-2,-2.825168520E-2,-1.404948719E-2
3.479047910E-1,-1.389677543E-2,-2.580829710E-2,-1.649287529E-2
3.503847390E-1,-1.267508045E-2,-2.214321308E-2,-1.893626526E-2
3.528637500E-1,-1.267508045E-2,-2.214321308E-2,-2.137965336E-2
3.553420310E-1,-1.145338640E-2,-1.969982497E-2,-2.015795931E-2
3.578210940E-1,-1.023169141E-2,-1.725643501E-2,-2.137965336E-2
3.603010410E-1,-9.009997360E-3,-1.969982497E-2,-2.137965336E-2
3.627800520E-1,-1.023169141E-2,-1.969982497E-2,-2.015795931E-2
3.652583330E-1,-7.788302377E-3,-1.725643501E-2,-1.649287529E-2
3.677373960E-1,-9.009997360E-3,-1.969982497E-2,-1.771457121E-2
3.702173440E-1,-1.023169141E-2,-1.847812906E-2,-1.649287529E-2
3.726963540E-1,-1.023169141E-2,-1.847812906E-2,-1.527118124E-2
3.751746350E-1,-1.023169141E-2,-1.481304597E-2,-1.282779220E-2
3.776536980E-1,-1.145338640E-2,-1.359135192E-2,-1.160609815E-2
3.801336460E-1,-1.145338640E-2,-1.236965694E-2,-1.038440317E-2
3.826126560E-1,-1.145338640E-2,-9.926267900E-3,-1.160609815E-2
3.850909370E-1,-1.145338640E-2,-6.261184346E-3,-9.162709117E-3
3.875700000E-1,-1.145338640E-2,-5.039489828E-3,-9.162709117E-3
3.900498960E-1,-1.267508045E-2,-1.374406274E-3,-7.941014133E-3
3.925289580E-1,-1.389677543E-2,-2.596100792E-3,-1.038440317E-2
3.950072390E-1,-1.389677543E-2,-1.527118147E-4,-7.941014133E-3
3.974863020E-1,-1.511846948E-2,4.734066315E-3,-7.941014133E-3
3.999661980E-1,-1.389677543E-2,4.734066315E-3,-5.497625098E-3
4.024452600E-1,-1.267508045E-2,8.399149403E-3,-6.719320081E-3
4.049234890E-1,-1.145338640E-2,8.399149403E-3,-6.719320081E-3
4.074026040E-1,-1.145338640E-2,7.177455351E-3,-4.275931045E-3
4.098825000E-1,-1.023169141E-2,5.955760833E-3,-3.054236295E-3
4.123615620E-1,-6.566607859E-3,5.955760833E-3,-4.275931045E-3
4.148397910E-1,-4.123218823E-3,4.734066315E-3,-1.832541777E-3
4.173189060E-1,-1.679830020E-3,3.512371797E-3,-6.108472589E-4
4.197988020E-1,7.635590737E-4,1.068982761E-3,-6.108472589E-4
4.222778640E-1,4.428642802E-3,-1.527118147E-4,6.108472589E-4
4.247560940E-1,5.650337320E-3,-2.596100792E-3,1.832541777E-3
4.272352080E-1,6.872031838E-3,-5.039489828E-3,1.832541777E-3
4.297151040E-1,8.093725890E-3,-7.482878864E-3,3.054236295E-3
4.321941660E-1,9.315420873E-3,-1.236965694E-2,5.497625098E-3
4.346723960E-1,1.175880991E-2,-1.114796288E-2,6.719320081E-3
4.371514580E-1,1.298050396E-2,-1.114796288E-2,9.162709117E-3
4.396314060E-1,1.175880991E-2,-1.603474095E-2,9.162709117E-3
4.421104160E-1,1.298050396E-2,-1.603474095E-2,9.162709117E-3
4.445886980E-1,1.175880991E-2,-1.603474095E-2,1.038440317E-2
4.470677600E-1,1.053711493E-2,-1.603474095E-2,1.038440317E-2
4.495477080E-1,1.053711493E-2,-1.236965694E-2,1.282779220E-2
4.520267190E-1,1.175880991E-2,-8.704573847E-3,1.160609815E-2
4.545050000E-1,1.298050396E-2,-5.039489828E-3,1.160609815E-2
4.569840620E-1,1.420219894E-2,-2.596100792E-3,1.038440317E-2
4.594640100E-1,1.542389300E-2,2.290677279E-3,1.160609815E-2
4.619430730E-1,1.786728203E-2,4.734066315E-3,1.160609815E-2
4.644213020E-1,2.031067200E-2,9.620844387E-3,9.162709117E-3
4.669003640E-1,2.275406010E-2,1.328592747E-2,9.162709117E-3
4.693803120E-1,2.397575416E-2,1.450762246E-2,9.162709117E-3
4.718593230E-1,2.641914412E-2,1.695101149E-2,7.941014133E-3
4.743376040E-1,2.764083818E-2,1.817270555E-2,9.162709117E-3
4.768166660E-1,2.764083818E-2,2.061609551E-2,9.162709117E-3
4.792966140E-1,2.764083818E-2,2.183778957E-2,1.038440317E-2
4.817756250E-1,2.764083818E-2,2.305948362E-2,1.160609815E-2
4.842539060E-1,2.764083818E-2,2.428117767E-2,1.282779220E-2
4.867329690E-1,2.641914412E-2,2.428117767E-2,1.404948719E-2
4.892129160E-1,2.519745007E-2,2.428117767E-2,1.649287529E-2
4.916919270E-1,2.519745007E-2,2.183778957E-2,1.527118124E-2
4.941702080E-1,2.397575416E-2,2.305948362E-2,1.649287529E-2
4.966492710E-1,2.275406010E-2,2.061609551E-2,1.771457121E-2
4.991292190E-1,2.153236605E-2,1.939439960E-2,1.771457121E-2
5.016082290E-1,2.031067200E-2,1.817270555E-2,1.771457121E-2
5.040865100E-1,1.786728203E-2,1.817270555E-2,1.771457121E-2
5.065655730E-1,1.664558798E-2,1.939439960E-2,1.893626526E-2
5.090455210E-1,1.664558798E-2,1.817270555E-2,2.015795931E-2
5.115245310E-1,1.420219894E-2,1.939439960E-2,1.771457121E-2
5.140028120E-1,1.420219894E-2,1.939439960E-2,1.771457121E-2
5.164818750E-1,1.175880991E-2,2.183778957E-2,1.771457121E-2
5.189618230E-1,1.175880991E-2,1.817270555E-2,1.771457121E-2
5.214408330E-1,1.053711493E-2,1.939439960E-2,1.649287529E-2
5.239191140E-1,9.315420873E-3,1.939439960E-2,1.649287529E-2
5.263981770E-1,8.093725890E-3,1.817270555E-2,1.649287529E-2
5.288781250E-1,8.093725890E-3,1.817270555E-2,1.771457121E-2
5.313571350E-1,6.872031838E-3,1.572931744E-2,1.771457121E-2
5.338354160E-1,6.872031838E-3,1.328592747E-2,1.649287529E-2
5.363144790E-1,4.428642802E-3,1.084253844E-2,1.771457121E-2
5.387944270E-1,4.428642802E-3,7.177455351E-3,1.771457121E-2
5.412734370E-1,1.985253533E-3,7.177455351E-3,1.649287529E-2
5.437517190E-1,-4.581354442E-4,5.955760833E-3,1.404948719E-2
5.462307810E-1,-1.679830020E-3,3.512371797E-3,1.404948719E-2
5.487107290E-1,-4.123218823E-3,3.512371797E-3,1.160609815E-2
5.511897390E-1,-4.123218823E-3,4.734066315E-3,1.160609815E-2
5.536680210E-1,-6.566607859E-3,3.512371797E-3,7.941014133E-3
5.561470830E-1,-9.009997360E-3,4.734066315E-3,7.941014133E-3
5.586270310E-1,-9.009997360E-3,4.734066315E-3,6.719320081E-3
5.611060410E-1,-1.023169141E-2,5.955760833E-3,4.275931045E-3
5.635843230E-1,-1.145338640E-2,9.620844387E-3,3.054236295E-3
5.660633850E-1,-1.267508045E-2,1.328592747E-2,6.108472589E-4
5.685433330E-1,-1.511846948E-2,1.572931744E-2,-6.108472589E-4
5.710223440E-1,-1.634016447E-2,1.817270555E-2,-6.108472589E-4
5.735006250E-1,-1.756185852E-2,2.183778957E-2,-1.832541777E-3
5.759796870E-1,-2.122694254E-2,2.428117767E-2,-5.497625098E-3
5.784596350E-1,-2.122694254E-2,2.550287358E-2,-5.497625098E-3
5.809386460E-1,-2.367033064E-2,2.794626169E-2,-6.719320081E-3
5.834169270E-1,-2.855710872E-2,2.916795574E-2,-6.719320081E-3
5.858959890E-1,-3.100049868E-2,3.161134571E-2,-9.162709117E-3
5.883759370E-1,-3.100049868E-2,3.527642787E-2,-1.160609815E-2
5.908549480E-1,-3.222219273E-2,3.283303976E-2,-1.282779220E-2
5.933332290E-1,-3.100049868E-2,3.527642787E-2,-1.527118124E-2
5.958122910E-1,-3.222219273E-2,3.283303976E-2,-1.649287529E-2
5.982922390E-1,-3.100049868E-2,3.161134571E-2,-1.893626526E-2
6.007712500E-1,-2.977880463E-2,2.794626169E-2,-1.893626526E-2
6.032495310E-1,-2.611372061E-2,2.428117767E-2,-2.015795931E-2
6.057285940E-1,-2.611372061E-2,2.061609551E-2,-2.137965336E-2
6.082085410E-1,-2.489202656E-2,1.817270555E-2,-2.015795931E-2
6.106875520E-1,-2.367033064E-2,1.084253844E-2,-2.137965336E-2
6.131658330E-1,-2.367033064E-2,5.955760833E-3,-2.260134928E-2
6.156448960E-1,-2.122694254E-2,4.734066315E-3,-2.015795931E-2
6.181248440E-1,-1.878355257E-2,-1.374406274E-3,-1.893626526E-2
6.206038540E-1,-1.756185852E-2,-5.039489828E-3,-1.893626526E-2
6.230821350E-1,-1.756185852E-2,-7.482878864E-3,-1.771457121E-2
6.255611980E-1,-1.756185852E-2,-1.236965694E-2,-1.771457121E-2
6.280410940E-1,-1.634016447E-2,-1.359135192E-2,-1.649287529E-2
6.305201560E-1,-1.756185852E-2,-1.725643501E-2,-1.527118124E-2
6.329983850E-1,-1.756185852E-2,-1.847812906E-2,-1.404948719E-2
6.354775000E-1,-1.756185852E-2,-2.092151903E-2,-1.404948719E-2
6.379573960E-1,-1.756185852E-2,-2.336490713E-2,-1.404948719E-2
6.404364580E-1,-1.878355257E-2,-2.336490713E-2,-1.404948719E-2
6.429146870E-1,-2.000524849E-2,-2.458660305E-2,-1.404948719E-2
6.453938020E-1,-2.122694254E-2,-2.580829710E-2,-1.404948719E-2
6.478736980E-1,-2.244863659E-2,-2.825168520E-2,-1.404948719E-2
6.503527600E-1,-2.122694254E-2,-2.702999115E-2,-1.404948719E-2
6.528309890E-1,-2.244863659E-2,-3.191677108E-2,-1.282779220E-2
6.553101040E-1,-2.000524849E-2,-3.313846514E-2,-1.404948719E-2
6.577900000E-1,-1.756185852E-2,-3.802524135E-2,-1.404948719E-2
6.602690620E-1,-1.634016447E-2,-3.924693540E-2,-1.282779220E-2
6.627472910E-1,-1.389677543E-2,-3.924693540E-2,-1.282779220E-2
6.652264060E-1,-1.145338640E-2,-4.046862945E-2,-1.404948719E-2
6.677063020E-1,-1.023169141E-2,-4.413371533E-2,-1.160609815E-2
6.701853640E-1,-6.566607859E-3,-4.657710344E-2,-1.038440317E-2
6.726635940E-1,-4.123218823E-3,-5.024218559E-2,-1.038440317E-2
6.751427080E-1,-4.581354442E-4,-5.146388337E-2,-6.719320081E-3
6.776226040E-1,7.635590737E-4,-5.146388337E-2,-5.497625098E-3
6.801016140E-1,4.428642802E-3,-5.024218559E-2,-4.275931045E-3
6.825798960E-1,4.428642802E-3,-4.902049154E-2,-3.054236295E-3
6.850589580E-1,4.428642802E-3,-4.902049154E-2,1.832541777E-3
6.875389060E-1,4.428642802E-3,-5.024218559E-2,3.054236295E-3
6.900179160E-1,5.650337320E-3,-4.779879749E-2,5.497625098E-3
6.924961980E-1,6.872031838E-3,-4.779879749E-2,6.719320081E-3
6.949752600E-1,5.650337320E-3,-4.413371533E-2,7.941014133E-3
6.974552080E-1,6.872031838E-3,-3.924693540E-2,1.038440317E-2
6.999342190E-1,6.872031838E-3,-3.924693540E-2,1.038440317E-2
7.024125000E-1,5.650337320E-3,-3.313846514E-2,1.282779220E-2
7.048915620E-1,6.872031838E-3,-3.191677108E-2,1.282779220E-2
7.073715100E-1,5.650337320E-3,-2.336490713E-2,1.527118124E-2
7.098505210E-1,6.872031838E-3,-1.969982497E-2,1.404948719E-2
7.123288020E-1,6.872031838E-3,-1.725643501E-2,1.282779220E-2
7.148078640E-1,6.872031838E-3,-9.926267900E-3,1.649287529E-2
7.172878120E-1,6.872031838E-3,-8.704573847E-3,1.771457121E-2
7.197668230E-1,5.650337320E-3,-7.482878864E-3,1.771457121E-2
7.222451040E-1,5.650337320E-3,-2.596100792E-3,1.771457121E-2
7.247241660E-1,6.872031838E-3,1.068982761E-3,1.771457121E-2
7.272041140E-1,5.650337320E-3,5.955760833E-3,1.771457121E-2
7.296831250E-1,6.872031838E-3,9.620844387E-3,1.649287529E-2
7.321614060E-1,6.872031838E-3,1.450762246E-2,1.771457121E-2
7.346404690E-1,9.315420873E-3,1.817270555E-2,1.893626526E-2
7.371204160E-1,1.053711493E-2,2.305948362E-2,1.771457121E-2
7.395994270E-1,1.175880991E-2,2.550287358E-2,1.771457121E-2
7.420777080E-1,1.298050396E-2,2.794626169E-2,1.893626526E-2
7.445567710E-1,1.298050396E-2,2.672456764E-2,1.771457121E-2
7.470367190E-1,1.420219894E-2,3.038965166E-2,1.893626526E-2
7.495157290E-1,1.420219894E-2,2.794626169E-2,1.893626526E-2
7.519940100E-1,1.298050396E-2,3.038965166E-2,2.015795931E-2
7.544730730E-1,1.298050396E-2,3.161134571E-2,1.893626526E-2
7.569530210E-1,1.298050396E-2,3.038965166E-2,2.137965336E-2
7.594320310E-1,1.053711493E-2,2.916795574E-2,2.137965336E-2
7.619103120E-1,1.053711493E-2,2.916795574E-2,2.137965336E-2
7.643893750E-1,8.093725890E-3,2.916795574E-2,2.137965336E-2
7.668693230E-1,5.650337320E-3,3.161134571E-2,2.260134928E-2
7.693483330E-1,3.206948051E-3,3.161134571E-2,2.260134928E-2
7.718266140E-1,1.985253533E-3,3.161134571E-2,2.015795931E-2
7.743056770E-1,7.635590737E-4,3.283303976E-2,2.137965336E-2
7.767856250E-1,-4.581354442E-4,3.405473381E-2,1.893626526E-2
7.792646350E-1,-1.679830020E-3,3.771981969E-2,1.771457121E-2
7.817429160E-1,-2.901524538E-3,4.260659590E-2,1.649287529E-2
7.842219790E-1,-4.123218823E-3,4.627167806E-2,1.527118124E-2
7.867019270E-1,-6.566607859E-3,4.504998401E-2,1.404948719E-2
7.891809370E-1,-7.788302377E-3,4.627167806E-2,1.160609815E-2
7.916592190E-1,-9.009997360E-3,4.993676394E-2,1.038440317E-2
7.941382810E-1,-1.023169141E-2,5.115845799E-2,7.941014133E-3
7.966182290E-1,-1.267508045E-2,5.115845799E-2,6.719320081E-3
7.990972390E-1,-1.511846948E-2,4.993676394E-2,5.497625098E-3
8.015755210E-1,-1.756185852E-2,4.993676394E-2,4.275931045E-3
8.040545830E-1,-1.634016447E-2,4.749337584E-2,4.275931045E-3
8.065345310E-1,-1.756185852E-2,4.627167806E-2,4.275931045E-3
8.090135410E-1,-1.756185852E-2,4.382828996E-2,4.275931045E-3
8.114918230E-1,-1.756185852E-2,4.138490185E-2,3.054236295E-3
8.139708850E-1,-1.878355257E-2,4.016320780E-2,4.275931045E-3
8.164508330E-1,-1.756185852E-2,3.649812192E-2,4.275931045E-3
8.189298440E-1,-1.756185852E-2,3.527642787E-2,1.832541777E-3
8.214081250E-1,-1.756185852E-2,3.161134571E-2,3.054236295E-3
8.238871870E-1,-1.756185852E-2,2.672456764E-2,3.054236295E-3
8.263671350E-1,-1.634016447E-2,2.428117767E-2,1.832541777E-3
8.288461460E-1,-1.634016447E-2,2.183778957E-2,6.108472589E-4
8.313244270E-1,-1.634016447E-2,1.695101149E-2,6.108472589E-4
8.338034890E-1,-1.756185852E-2,1.450762246E-2,-6.108472589E-4
8.362834370E-1,-1.511846948E-2,1.084253844E-2,-6.108472589E-4
8.387624480E-1,-1.634016447E-2,8.399149403E-3,-6.108472589E-4
8.412407290E-1,-1.511846948E-2,3.512371797E-3,-6.108472589E-4
8.437197910E-1,-1.511846948E-2,1.068982761E-3,-1.832541777E-3
8.461996870E-1,-1.634016447E-2,-1.374406274E-3,-6.108472589E-4
8.486787500E-1,-1.511846948E-2,-3.817795310E-3,-1.832541777E-3
8.511570310E-1,-1.634016447E-2,-5.039489828E-3,-1.832541777E-3
8.536360940E-1,-1.634016447E-2,-7.482878864E-3,-6.108472589E-4
8.561159890E-1,-1.634016447E-2,-8.704573847E-3,-1.832541777E-3
8.585950520E-1,-1.511846948E-2,-1.236965694E-2,-3.054236295E-3
8.610733330E-1,-1.511846948E-2,-1.481304597E-2,-4.275931045E-3
8.635523960E-1,-1.634016447E-2,-1.481304597E-2,-4.275931045E-3
8.660322910E-1,-1.634016447E-2,-1.725643501E-2,-4.275931045E-3
8.685113540E-1,-1.634016447E-2,-1.603474095E-2,-5.497625098E-3
8.709895830E-1,-1.756185852E-2,-1.725643501E-2,-6.719320081E-3
8.734686980E-1,-1.756185852E-2,-1.847812906E-2,-7.941014133E-3
8.759485940E-1,-1.634016447E-2,-1.725643501E-2,-9.162709117E-3
8.784276560E-1,-1.389677543E-2,-1.725643501E-2,-1.160609815E-2
8.809058850E-1,-1.389677543E-2,-1.847812906E-2,-1.282779220E-2
8.833850000E-1,-1.145338640E-2,-2.336490713E-2,-1.282779220E-2
8.858648960E-1,-1.023169141E-2,-2.580829710E-2,-1.404948719E-2
8.883439580E-1,-7.788302377E-3,-3.069507517E-2,-1.282779220E-2
8.908221870E-1,-4.123218823E-3,-3.313846514E-2,-1.404948719E-2
8.933013020E-1,-4.123218823E-3,-3.558185324E-2,-1.160609815E-2
8.957811980E-1,-4.581354442E-4,-3.802524135E-2,-7.941014133E-3
8.982602080E-1,-1.679830020E-3,-4.046862945E-2,-6.719320081E-3
9.007384890E-1,-1.679830020E-3,-4.169032723E-2,-4.275931045E-3
9.032176040E-1,-2.901524538E-3,-4.291202128E-2,-1.832541777E-3
9.056975000E-1,-2.901524538E-3,-4.413371533E-2,-6.108472589E-4
9.081765100E-1,-5.344913341E-3,-4.535540938E-2,-6.108472589E-4
9.106547910E-1,-6.566607859E-3,-4.535540938E-2,6.108472589E-4
9.131338540E-1,-7.788302377E-3,-4.291202128E-2,6.108472589E-4
9.156138020E-1,-7.788302377E-3,-3.924693540E-2,1.832541777E-3
9.180928120E-1,-9.009997360E-3,-3.558185324E-2,6.108472589E-4
9.205710940E-1,-1.023169141E-2,-3.313846514E-2,3.054236295E-3
9.230501560E-1,-1.145338640E-2,-2.825168520E-2,3.054236295E-3
9.255301040E-1,-1.023169141E-2,-2.580829710E-2,1.832541777E-3
9.280091140E-1,-1.145338640E-2,-1.725643501E-2,6.108472589E-4
9.304873960E-1,-1.145338640E-2,-1.481304597E-2,-6.108472589E-4
9.329664580E-1,-9.009997360E-3,-1.236965694E-2,-6.108472589E-4
9.354464060E-1,-9.009997360E-3,-1.236965694E-2,-1.832541777E-3
9.379254160E-1,-7.788302377E-3,-9.926267900E-3,-1.832541777E-3
9.404036980E-1,-6.566607859E-3,-8.704573847E-3,-1.832541777E-3
9.428827600E-1,-7.788302377E-3,-9.926267900E-3,-1.832541777E-3
9.453627080E-1,-9.009997360E-3,-8.704573847E-3,-3.054236295E-3
9.478417190E-1,-9.009997360E-3,-6.261184346E-3,-6.108472589E-4
9.503200000E-1,-7.788302377E-3,-9.926267900E-3,-6.108472589E-4
9.527990620E-1,-6.566607859E-3,-1.114796288E-2,-1.832541777E-3
9.552790100E-1,-9.009997360E-3,-9.926267900E-3,-6.108472589E-4
9.577580210E-1,-9.009997360E-3,-1.236965694E-2,-1.832541777E-3
9.602363020E-1,-1.145338640E-2,-1.481304597E-2,-1.832541777E-3
9.627153640E-1,-1.389677543E-2,-1.603474095E-2,-3.054236295E-3
9.651953120E-1,-1.511846948E-2,-1.359135192E-2,-3.054236295E-3
9.676743230E-1,-1.756185852E-2,-1.481304597E-2,-4.275931045E-3
9.701526040E-1,-1.878355257E-2,-1.603474095E-2,-5.497625098E-3
9.726316660E-1,-2.000524849E-2,-1.847812906E-2,-4.275931045E-3
9.751116140E-1,-2.122694254E-2,-1.725643501E-2,-6.719320081E-3
9.775906250E-1,-2.122694254E-2,-1.603474095E-2,-6.719320081E-3
9.800689060E-1,-2.244863659E-2,-1.725643501E-2,-7.941014133E-3
9.825479690E-1,-2.489202656E-2,-1.481304597E-2,-7.941014133E-3
9.850279160E-1,-2.611372061E-2,-1.481304597E-2,-7.941014133E-3
9.875069270E-1,-2.733541466E-2,-1.481304597E-2,-7.941014133E-3
9.899852080E-1,-2.855710872E-2,-1.236965694E-2,-7.941014133E-3
9.924642710E-1,-3.100049868E-2,-1.236965694E-2,-9.162709117E-3
9.949442190E-1,-3.222219273E-2,-1.236965694E-2,-1.038440317E-2
9.974232290E-1,-3.466558084E-2,-9.926267900E-3,-1.160609815E-2
9.999015100E-1,-3.710897267E-2,-6.261184346E-3,-1.282779220E-2
1.002380573E0,-4.077405483E-2,-3.817795310E-3,-1.404948719E-2
1.004860521E0,-4.199574888E-2,-1.527118147E-4,-1.404948719E-2
1.007339531E0,-4.321744293E-2,3.512371797E-3,-1.649287529E-2
1.009817812E0,-4.077405483E-2,5.955760833E-3,-1.771457121E-2
1.012296875E0,-4.077405483E-2,8.399149403E-3,-1.771457121E-2
1.014776823E0,-4.077405483E-2,9.620844387E-3,-1.771457121E-2
1.017255833E0,-3.955236077E-2,1.328592747E-2,-1.893626526E-2
1.019734114E0,-3.833066672E-2,1.206423342E-2,-2.015795931E-2
1.022213177E0,-3.588727489E-2,1.572931744E-2,-2.015795931E-2
1.024693125E0,-3.344388679E-2,1.572931744E-2,-2.015795931E-2
1.027172135E0,-3.344388679E-2,1.817270555E-2,-1.771457121E-2
1.029650416E0,-3.100049868E-2,1.695101149E-2,-1.893626526E-2
1.032129479E0,-3.222219273E-2,1.695101149E-2,-1.893626526E-2
1.034609427E0,-3.100049868E-2,1.695101149E-2,-1.771457121E-2
1.037088437E0,-3.222219273E-2,1.450762246E-2,-1.649287529E-2
1.039566719E0,-3.222219273E-2,1.450762246E-2,-1.527118124E-2
1.042045781E0,-3.222219273E-2,1.572931744E-2,-1.282779220E-2
1.044525729E0,-3.222219273E-2,1.450762246E-2,-1.160609815E-2
1.047004739E0,-3.344388679E-2,1.328592747E-2,-1.282779220E-2
1.049483021E0,-3.222219273E-2,1.328592747E-2,-1.038440317E-2
1.051962083E0,-3.344388679E-2,1.450762246E-2,-9.162709117E-3
1.054442031E0,-3.344388679E-2,1.328592747E-2,-9.162709117E-3
1.056921041E0,-3.466558084E-2,1.450762246E-2,-9.162709117E-3
1.059399323E0,-3.344388679E-2,1.695101149E-2,-9.162709117E-3
1.061878385E0,-3.344388679E-2,1.817270555E-2,-9.162709117E-3
1.064358281E0,-3.222219273E-2,1.817270555E-2,-7.941014133E-3
1.066837344E0,-3.100049868E-2,1.939439960E-2,-9.162709117E-3
1.069315625E0,-2.977880463E-2,1.939439960E-2,-7.941014133E-3
1.071794687E0,-2.855710872E-2,2.061609551E-2,-7.941014133E-3
1.074274583E0,-2.733541466E-2,2.061609551E-2,-1.038440317E-2
1.076753646E0,-2.733541466E-2,1.939439960E-2,-1.038440317E-2
1.079231875E0,-2.611372061E-2,1.939439960E-2,-9.162709117E-3
1.081710989E0,-2.489202656E-2,1.939439960E-2,-9.162709117E-3
1.084190885E0,-2.367033064E-2,1.695101149E-2,-7.941014133E-3
1.086669948E0,-2.244863659E-2,1.695101149E-2,-7.941014133E-3
1.089148177E0,-2.000524849E-2,1.328592747E-2,-7.941014133E-3
1.091627291E0,-1.756185852E-2,1.084253844E-2,-5.497625098E-3
1.094107187E0,-1.634016447E-2,8.399149403E-3,-4.275931045E-3
1.096586250E0,-1.267508045E-2,7.177455351E-3,-3.054236295E-3
1.099064479E0,-1.145338640E-2,3.512371797E-3,-4.275931045E-3
1.101543594E0,-1.023169141E-2,1.068982761E-3,-3.054236295E-3
1.104023489E0,-6.566607859E-3,-2.596100792E-3,-6.108472589E-4
1.106502500E0,-7.788302377E-3,-5.039489828E-3,-1.832541777E-3
1.108980781E0,-9.009997360E-3,-5.039489828E-3,-6.108472589E-4
1.111459844E0,-7.788302377E-3,-2.596100792E-3,6.108472589E-4
1.113939791E0,-7.788302377E-3,-5.039489828E-3,-6.108472589E-4
1.116418802E0,-7.788302377E-3,-3.817795310E-3,1.832541777E-3
1.118897083E0,-6.566607859E-3,-3.817795310E-3,-6.108472589E-4
1.121376146E0,-7.788302377E-3,-1.374406274E-3,-6.108472589E-4
1.123856094E0,-7.788302377E-3,-3.817795310E-3,-6.108472589E-4
1.126335104E0,-9.009997360E-3,-3.817795310E-3,-6.108472589E-4
1.128813385E0,-1.023169141E-2,-1.374406274E-3,-6.108472589E-4
1.131292448E0,-1.145338640E-2,-2.596100792E-3,-1.832541777E-3
1.133772396E0,-1.267508045E-2,-3.817795310E-3,-6.108472589E-4
1.136251406E0,-1.267508045E-2,-2.596100792E-3,-3.054236295E-3
1.138729687E0,-1.389677543E-2,-3.817795310E-3,-3.054236295E-3
1.141208750E0,-1.267508045E-2,-6.261184346E-3,-3.054236295E-3
1.143688698E0,-1.145338640E-2,-3.817795310E-3,-3.054236295E-3
1.146167708E0,-1.389677543E-2,-3.817795310E-3,-4.275931045E-3
1.148645989E0,-1.511846948E-2,-5.039489828E-3,-3.054236295E-3
1.151125052E0,-1.511846948E-2,-6.261184346E-3,-3.054236295E-3
1.153605000E0,-1.634016447E-2,-5.039489828E-3,-5.497625098E-3
1.156084010E0,-1.511846948E-2,-6.261184346E-3,-5.497625098E-3
1.158562291E0,-1.756185852E-2,-7.482878864E-3,-5.497625098E-3
1.161041354E0,-1.634016447E-2,-5.039489828E-3,-6.719320081E-3
1.163521302E0,-1.511846948E-2,-7.482878864E-3,-6.719320081E-3
1.166000312E0,-1.389677543E-2,-7.482878864E-3,-5.497625098E-3
1.168478594E0,-1.389677543E-2,-8.704573847E-3,-4.275931045E-3
1.170957656E0,-1.389677543E-2,-7.482878864E-3,-4.275931045E-3
1.173437604E0,-1.389677543E-2,-8.704573847E-3,-4.275931045E-3
1.175916614E0,-1.267508045E-2,-9.926267900E-3,-5.497625098E-3
1.178394896E0,-1.267508045E-2,-1.359135192E-2,-3.054236295E-3
1.180873958E0,-1.145338640E-2,-1.603474095E-2,-3.054236295E-3
1.183353906E0,-1.023169141E-2,-1.481304597E-2,-3.054236295E-3
1.185832916E0,-9.009997360E-3,-1.603474095E-2,-6.108472589E-4
1.188311198E0,-5.344913341E-3,-1.725643501E-2,6.108472589E-4
1.190790260E0,-5.344913341E-3,-1.847812906E-2,6.108472589E-4
1.193270208E0,-4.123218823E-3,-1.847812906E-2,1.832541777E-3
1.195749219E0,-2.901524538E-3,-1.847812906E-2,3.054236295E-3
1.198227500E0,-2.901524538E-3,-1.725643501E-2,3.054236295E-3
1.200706562E0,-2.901524538E-3,-1.603474095E-2,3.054236295E-3
1.203186510E0,-4.581354442E-4,-1.847812906E-2,3.054236295E-3
1.205665521E0,-4.581354442E-4,-1.969982497E-2,5.497625098E-3
1.208143802E0,1.985253533E-3,-2.092151903E-2,5.497625098E-3
1.210622864E0,3.206948051E-3,-1.969982497E-2,7.941014133E-3
1.213102812E0,5.650337320E-3,-2.092151903E-2,6.719320081E-3
1.215581823E0,8.093725890E-3,-1.969982497E-2,9.162709117E-3
1.218060104E0,1.175880991E-2,-1.969982497E-2,9.162709117E-3
1.220539166E0,1.175880991E-2,-1.847812906E-2,1.038440317E-2
1.223019114E0,1.175880991E-2,-1.847812906E-2,1.160609815E-2
1.225498125E0,1.542389300E-2,-2.092151903E-2,1.282779220E-2
1.227976406E0,1.908897609E-2,-2.092151903E-2,1.282779220E-2
1.230455469E0,2.153236605E-2,-2.092151903E-2,1.649287529E-2
1.232935416E0,2.519745007E-2,-2.336490713E-2,1.527118124E-2
1.235414427E0,2.641914412E-2,-2.580829710E-2,1.771457121E-2
1.237892708E0,2.886253223E-2,-2.825168520E-2,1.893626526E-2
1.240371771E0,2.764083818E-2,-3.313846514E-2,2.015795931E-2
1.242851719E0,2.764083818E-2,-3.558185324E-2,2.015795931E-2
1.245330729E0,2.641914412E-2,-3.924693540E-2,2.137965336E-2
1.247809010E0,2.641914412E-2,-4.413371533E-2,2.382304333E-2
1.250288073E0,2.641914412E-2,-4.413371533E-2,2.504473738E-2
1.252768021E0,2.397575416E-2,-4.413371533E-2,2.626643144E-2
1.255247031E0,2.275406010E-2,-4.169032723E-2,2.504473738E-2
1.257725312E0,2.397575416E-2,-3.924693540E-2,2.382304333E-2
1.260204375E0,2.031067200E-2,-3.558185324E-2,2.382304333E-2
1.262684323E0,2.031067200E-2,-3.191677108E-2,2.137965336E-2
1.265163333E0,1.786728203E-2,-3.191677108E-2,2.015795931E-2
1.267641614E0,1.664558798E-2,-2.825168520E-2,1.893626526E-2
1.270120677E0,1.420219894E-2,-2.092151903E-2,1.893626526E-2
1.272600573E0,1.175880991E-2,-1.236965694E-2,1.893626526E-2
1.275079635E0,1.175880991E-2,-6.261184346E-3,1.771457121E-2
1.277557864E0,1.053711493E-2,-2.596100792E-3,1.649287529E-2
1.280036979E0,9.315420873E-3,3.512371797E-3,1.527118124E-2
1.282516875E0,6.872031838E-3,9.620844387E-3,1.527118124E-2
1.284995937E0,4.428642802E-3,1.328592747E-2,1.527118124E-2
1.287474219E0,4.428642802E-3,1.939439960E-2,1.404948719E-2
1.289953281E0,1.985253533E-3,2.183778957E-2,1.282779220E-2
1.292433177E0,3.206948051E-3,2.183778957E-2,1.404948719E-2
1.294912239E0,3.206948051E-3,2.550287358E-2,1.282779220E-2
1.297390469E0,1.985253533E-3,2.794626169E-2,1.282779220E-2
1.299869583E0,-4.581354442E-4,2.794626169E-2,1.404948719E-2
1.302349479E0,-4.581354442E-4,3.038965166E-2,1.527118124E-2
1.304828541E0,-1.679830020E-3,3.038965166E-2,1.160609815E-2
1.307306771E0,-2.901524538E-3,3.161134571E-2,1.160609815E-2
1.309785885E0,-2.901524538E-3,3.405473381E-2,1.160609815E-2
1.312265781E0,-2.901524538E-3,3.405473381E-2,1.282779220E-2
1.314744791E0,-2.901524538E-3,3.649812192E-2,1.160609815E-2
1.317223073E0,-4.123218823E-3,3.527642787E-2,1.038440317E-2
1.319702135E0,-4.123218823E-3,3.527642787E-2,1.160609815E-2
1.322182083E0,-4.123218823E-3,3.527642787E-2,9.162709117E-3
1.324661094E0,-4.123218823E-3,3.283303976E-2,9.162709117E-3
1.327139375E0,-5.344913341E-3,3.161134571E-2,9.162709117E-3
1.329618437E0,-5.344913341E-3,2.794626169E-2,6.719320081E-3
1.332098385E0,-6.566607859E-3,2.672456764E-2,6.719320081E-3
1.334577396E0,-6.566607859E-3,2.428117767E-2,5.497625098E-3
1.337055677E0,-7.788302377E-3,2.428117767E-2,4.275931045E-3
1.339534739E0,-6.566607859E-3,2.305948362E-2,3.054236295E-3
1.342014687E0,-9.009997360E-3,2.305948362E-2,3.054236295E-3
1.344493698E0,-1.023169141E-2,2.183778957E-2,1.832541777E-3
1.346971979E0,-7.788302377E-3,2.428117767E-2,-6.108472589E-4
1.349451041E0,-7.788302377E-3,2.305948362E-2,-1.832541777E-3
1.351930989E0,-9.009997360E-3,2.305948362E-2,-3.054236295E-3
1.354410000E0,-7.788302377E-3,2.305948362E-2,-4.275931045E-3
1.356888281E0,-7.788302377E-3,2.428117767E-2,-6.719320081E-3
1.359367344E0,-9.009997360E-3,2.428117767E-2,-7.941014133E-3
1.361847291E0,-9.009997360E-3,2.428117767E-2,-9.162709117E-3
1.364326302E0,-9.009997360E-3,2.428117767E-2,-9.162709117E-3
1.366804583E0,-9.009997360E-3,2.428117767E-2,-9.162709117E-3
1.369283646E0,-9.009997360E-3,2.428117767E-2,-9.162709117E-3
1.371763594E0,-7.788302377E-3,2.305948362E-2,-1.160609815E-2
1.374242604E0,-6.566607859E-3,2.183778957E-2,-1.038440317E-2
1.376720885E0,-6.566607859E-3,2.183778957E-2,-9.162709117E-3
1.379199948E0,-5.344913341E-3,2.061609551E-2,-7.941014133E-3
1.381679896E0,-4.123218823E-3,1.817270555E-2,-7.941014133E-3
1.384158906E0,-5.344913341E-3,1.450762246E-2,-7.941014133E-3
1.386637187E0,-4.123218823E-3,1.328592747E-2,-5.497625098E-3
1.389116250E0,-5.344913341E-3,1.206423342E-2,-5.497625098E-3
1.391596198E0,-6.566607859E-3,8.399149403E-3,-4.275931045E-3
1.394075208E0,-7.788302377E-3,9.620844387E-3,-4.275931045E-3
1.396553489E0,-1.023169141E-2,8.399149403E-3,-4.275931045E-3
1.399032552E0,-1.267508045E-2,9.620844387E-3,-6.108472589E-4
1.401512500E0,-1.511846948E-2,1.084253844E-2,-1.832541777E-3
1.403991510E0,-1.634016447E-2,9.620844387E-3,-1.832541777E-3
1.406469791E0,-1.756185852E-2,1.084253844E-2,-1.832541777E-3
1.408948854E0,-2.000524849E-2,1.084253844E-2,-3.054236295E-3
1.411428802E0,-2.000524849E-2,1.206423342E-2,-3.054236295E-3
1.413907812E0,-1.878355257E-2,1.572931744E-2,-1.832541777E-3
1.416386094E0,-2.000524849E-2,1.817270555E-2,-1.832541777E-3
1.418865156E0,-2.000524849E-2,2.061609551E-2,-6.108472589E-4
1.421345104E0,-2.122694254E-2,2.305948362E-2,-6.108472589E-4
1.423824114E0,-2.122694254E-2,2.428117767E-2,-6.108472589E-4
1.426302396E0,-2.000524849E-2,2.794626169E-2,-3.054236295E-3
1.428781458E0,-2.000524849E-2,2.794626169E-2,-6.108472589E-4
1.431261406E0,-1.878355257E-2,2.916795574E-2,-3.054236295E-3
1.433740416E0,-1.756185852E-2,2.916795574E-2,-3.054236295E-3
1.436218698E0,-1.756185852E-2,2.916795574E-2,-4.275931045E-3
1.438697760E0,-1.634016447E-2,2.794626169E-2,-4.275931045E-3
1.441177708E0,-1.634016447E-2,2.916795574E-2,-4.275931045E-3
1.443656719E0,-1.634016447E-2,3.038965166E-2,-4.275931045E-3
1.446135000E0,-1.511846948E-2,2.794626169E-2,-5.497625098E-3
1.448614062E0,-1.267508045E-2,3.038965166E-2,-6.719320081E-3
1.451094010E0,-1.389677543E-2,3.283303976E-2,-4.275931045E-3
1.453573021E0,-1.145338640E-2,3.161134571E-2,-7.941014133E-3
1.456051250E0,-1.145338640E-2,3.283303976E-2,-9.162709117E-3
1.458530364E0,-1.267508045E-2,3.161134571E-2,-1.038440317E-2
1.461010312E0,-1.145338640E-2,3.161134571E-2,-1.038440317E-2
1.463489323E0,-1.145338640E-2,3.283303976E-2,-1.038440317E-2
1.465967552E0,-1.267508045E-2,3.771981969E-2,-1.160609815E-2
1.468446666E0,-1.145338640E-2,4.016320780E-2,-1.038440317E-2
1.470926562E0,-1.267508045E-2,4.016320780E-2,-1.160609815E-2
1.473405625E0,-1.145338640E-2,3.771981969E-2,-1.282779220E-2
1.475883854E0,-1.145338640E-2,3.771981969E-2,-1.160609815E-2
1.478362969E0,-1.145338640E-2,4.016320780E-2,-1.038440317E-2
1.480842864E0,-1.145338640E-2,3.894151375E-2,-1.160609815E-2
1.483321927E0,-1.023169141E-2,3.771981969E-2,-9.162709117E-3
1.485800156E0,-1.145338640E-2,4.016320780E-2,-9.162709117E-3
1.488279271E0,-1.145338640E-2,3.894151375E-2,-7.941014133E-3
1.490759166E0,-1.267508045E-2,3.649812192E-2,-7.941014133E-3
1.493238229E0,-1.267508045E-2,3.649812192E-2,-7.941014133E-3
1.495716458E0,-1.267508045E-2,3.771981969E-2,-5.497625098E-3
1.498195573E0,-1.389677543E-2,3.771981969E-2,-5.497625098E-3
1.500675469E0,-1.389677543E-2,3.649812192E-2,-4.275931045E-3
1.503154479E0,-1.389677543E-2,3.649812192E-2,-4.275931045E-3
1.505632760E0,-1.634016447E-2,3.771981969E-2,-3.054236295E-3
1.508111875E0,-1.756185852E-2,3.649812192E-2,-1.832541777E-3
1.510591771E0,-1.634016447E-2,3.527642787E-2,-6.108472589E-4
1.513070781E0,-1.634016447E-2,3.283303976E-2,-6.108472589E-4
1.515549062E0,-1.634016447E-2,3.161134571E-2,-6.108472589E-4
1.518028125E0,-1.634016447E-2,3.038965166E-2,-6.108472589E-4
1.520508073E0,-1.511846948E-2,2.794626169E-2,-6.108472589E-4
1.522987083E0,-1.267508045E-2,2.428117767E-2,-6.108472589E-4
1.525465364E0,-1.267508045E-2,2.183778957E-2,-6.108472589E-4
1.527944427E0,-1.023169141E-2,1.939439960E-2,-6.108472589E-4
1.530424375E0,-1.145338640E-2,1.817270555E-2,-6.108472589E-4
1.532903385E0,-1.023169141E-2,1.328592747E-2,-1.832541777E-3
1.535381666E0,-9.009997360E-3,1.328592747E-2,-3.054236295E-3
1.537860729E0,-7.788302377E-3,8.399149403E-3,-3.054236295E-3
1.540340677E0,-5.344913341E-3,4.734066315E-3,-4.275931045E-3
1.542819687E0,-5.344913341E-3,2.290677279E-3,-4.275931045E-3
1.545297969E0,-5.344913341E-3,-2.596100792E-3,-3.054236295E-3
1.547777031E0,-4.123218823E-3,-7.482878864E-3,-1.832541777E-3
1.550256979E0,-4.123218823E-3,-7.482878864E-3,-3.054236295E-3
1.552735989E0,-4.123218823E-3,-1.236965694E-2,-3.054236295E-3
1.555214271E0,-4.123218823E-3,-1.359135192E-2,-6.108472589E-4
1.557693333E0,-4.123218823E-3,-1.603474095E-2,-3.054236295E-3
1.560173281E0,-1.679830020E-3,-1.359135192E-2,-6.108472589E-4
1.562652291E0,-1.679830020E-3,-1.236965694E-2,-1.832541777E-3
1.565130573E0,-1.679830020E-3,-1.481304597E-2,-1.832541777E-3
1.567609635E0,-2.901524538E-3,-1.725643501E-2,-6.108472589E-4
1.570089583E0,-1.679830020E-3,-1.603474095E-2,-4.275931045E-3
1.572568594E0,-1.679830020E-3,-1.359135192E-2,-3.054236295E-3
1.575046875E0,-4.581354442E-4,-1.481304597E-2,-3.054236295E-3
1.577525937E0,-1.679830020E-3,-1.603474095E-2,-3.054236295E-3
1.580005885E0,-4.581354442E-4,-1.603474095E-2,-3.054236295E-3
1.582484896E0,-4.581354442E-4,-1.725643501E-2,-3.054236295E-3
1.584963177E0,-4.581354442E-4,-1.969982497E-2,-3.054236295E-3
1.587442239E0,1.985253533E-3,-1.603474095E-2,-1.832541777E-3
1.589922187E0,3.206948051E-3,-1.847812906E-2,-1.832541777E-3
1.592401198E0,3.206948051E-3,-2.214321308E-2,-6.108472589E-4
1.594879479E0,6.872031838E-3,-2.458660305E-2,-6.108472589E-4
1.597358541E0,9.315420873E-3,-2.580829710E-2,6.108472589E-4
1.599838489E0,1.175880991E-2,-2.947338112E-2,6.108472589E-4
1.602317500E0,1.420219894E-2,-3.191677108E-2,1.832541777E-3
1.604795781E0,1.542389300E-2,-3.313846514E-2,3.054236295E-3
1.607274844E0,1.664558798E-2,-3.680354729E-2,4.275931045E-3
1.609754791E0,1.664558798E-2,-4.046862945E-2,6.719320081E-3
1.612233802E0,1.542389300E-2,-4.291202128E-2,5.497625098E-3
1.614712083E0,1.786728203E-2,-4.291202128E-2,7.941014133E-3
1.617191146E0,1.908897609E-2,-4.291202128E-2,9.162709117E-3
1.619671094E0,1.908897609E-2,-4.413371533E-2,1.038440317E-2
1.622150104E0,1.664558798E-2,-4.291202128E-2,9.162709117E-3
1.624628385E0,1.664558798E-2,-4.535540938E-2,9.162709117E-3
1.627107448E0,1.542389300E-2,-4.413371533E-2,9.162709117E-3
1.629587344E0,1.542389300E-2,-4.169032723E-2,1.038440317E-2
1.632066406E0,1.542389300E-2,-4.291202128E-2,1.160609815E-2
1.634544687E0,1.298050396E-2,-3.924693540E-2,1.160609815E-2
1.637023750E0,1.298050396E-2,-3.924693540E-2,1.038440317E-2
1.639503646E0,1.298050396E-2,-3.558185324E-2,9.162709117E-3
1.641982708E0,1.298050396E-2,-3.680354729E-2,1.038440317E-2
1.644460937E0,9.315420873E-3,-3.069507517E-2,1.160609815E-2
1.646940052E0,9.315420873E-3,-2.825168520E-2,9.162709117E-3
1.649419948E0,1.053711493E-2,-2.580829710E-2,9.162709117E-3
1.651899010E0,9.315420873E-3,-2.214321308E-2,9.162709117E-3
1.654377239E0,9.315420873E-3,-1.847812906E-2,1.038440317E-2
1.656856354E0,6.872031838E-3,-1.725643501E-2,7.941014133E-3
1.659336250E0,6.872031838E-3,-1.603474095E-2,6.719320081E-3
1.661815312E0,6.872031838E-3,-1.114796288E-2,7.941014133E-3
1.664293541E0,6.872031838E-3,-1.114796288E-2,7.941014133E-3
1.666772656E0,6.872031838E-3,-1.114796288E-2,6.719320081E-3
1.669252552E0,5.650337320E-3,-9.926267900E-3,7.941014133E-3
1.671731614E0,6.872031838E-3,-8.704573847E-3,6.719320081E-3
1.674209844E0,6.872031838E-3,-7.482878864E-3,7.941014133E-3
1.676688958E0,8.093725890E-3,-6.261184346E-3,9.162709117E-3
1.679168854E0,8.093725890E-3,-5.039489828E-3,1.038440317E-2
1.681647916E0,6.872031838E-3,-5.039489828E-3,1.282779220E-2
1.684126146E0,8.093725890E-3,-2.596100792E-3,1.160609815E-2
1.686605260E0,8.093725890E-3,-1.374406274E-3,1.282779220E-2
1.689085156E0,8.093725890E-3,-1.527118147E-4,1.282779220E-2
1.691564166E0,6.872031838E-3,2.290677279E-3,1.404948719E-2
1.694042448E0,6.872031838E-3,2.290677279E-3,1.404948719E-2
1.696521510E0,5.650337320E-3,4.734066315E-3,1.527118124E-2
1.699001458E0,5.650337320E-3,5.955760833E-3,1.527118124E-2
1.701480469E0,4.428642802E-3,5.955760833E-3,1.527118124E-2
1.703958750E0,1.985253533E-3,7.177455351E-3,1.649287529E-2
1.706437812E0,1.985253533E-3,7.177455351E-3,1.771457121E-2
1.708917760E0,7.635590737E-4,8.399149403E-3,1.527118124E-2
1.711396771E0,7.635590737E-4,8.399149403E-3,1.649287529E-2
1.713875052E0,-1.679830020E-3,8.399149403E-3,1.404948719E-2
1.716354114E0,-1.679830020E-3,9.620844387E-3,1.404948719E-2
1.718834062E0,-2.901524538E-3,9.620844387E-3,1.282779220E-2
1.721313073E0,-2.901524538E-3,8.399149403E-3,1.038440317E-2
1.723791354E0,-2.901524538E-3,1.206423342E-2,9.162709117E-3
1.726270416E0,-2.901524538E-3,1.084253844E-2,7.941014133E-3
1.728750364E0,-2.901524538E-3,1.328592747E-2,6.719320081E-3
1.731229375E0,-2.901524538E-3,1.450762246E-2,5.497625098E-3
1.733707656E0,-4.123218823E-3,1.450762246E-2,1.832541777E-3
1.736186719E0,-2.901524538E-3,1.206423342E-2,6.108472589E-4
1.738666666E0,-4.123218823E-3,1.450762246E-2,-1.832541777E-3
1.741145677E0,-4.123218823E-3,1.450762246E-2,-4.275931045E-3
1.743623958E0,-4.123218823E-3,1.206423342E-2,-7.941014133E-3
1.746103021E0,-5.344913341E-3,9.620844387E-3,-1.038440317E-2
1.748582969E0,-7.788302377E-3,9.620844387E-3,-1.038440317E-2
1.751061979E0,-9.009997360E-3,7.177455351E-3,-1.404948719E-2
1.753540260E0,-9.009997360E-3,4.734066315E-3,-1.649287529E-2
1.756019323E0,-1.145338640E-2,3.512371797E-3,-1.649287529E-2
1.758499271E0,-1.145338640E-2,1.068982761E-3,-1.771457121E-2
1.760978281E0,-1.511846948E-2,-2.596100792E-3,-1.893626526E-2
1.763456562E0,-1.511846948E-2,-6.261184346E-3,-2.137965336E-2
1.765935625E0,-1.511846948E-2,-9.926267900E-3,-2.015795931E-2
1.768415573E0,-1.756185852E-2,-1.603474095E-2,-2.260134928E-2
1.770894583E0,-2.000524849E-2,-1.847812906E-2,-2.260134928E-2
1.773372864E0,-2.244863659E-2,-2.092151903E-2,-2.260134928E-2
1.775851927E0,-2.367033064E-2,-2.336490713E-2,-2.260134928E-2
1.778331875E0,-2.367033064E-2,-2.336490713E-2,-2.015795931E-2
1.780810885E0,-2.367033064E-2,-2.702999115E-2,-2.137965336E-2
1.783289166E0,-2.489202656E-2,-2.702999115E-2,-2.015795931E-2
1.785768229E0,-2.733541466E-2,-2.580829710E-2,-1.771457121E-2
1.788248177E0,-2.611372061E-2,-2.702999115E-2,-1.649287529E-2
1.790727187E0,-2.611372061E-2,-2.580829710E-2,-1.649287529E-2
1.793205469E0,-2.733541466E-2,-2.702999115E-2,-1.649287529E-2
1.795684531E0,-2.733541466E-2,-2.580829710E-2,-1.527118124E-2
1.798164479E0,-2.733541466E-2,-2.336490713E-2,-1.527118124E-2
1.800643489E0,-2.611372061E-2,-2.092151903E-2,-1.404948719E-2
1.803121771E0,-2.489202656E-2,-1.969982497E-2,-1.527118124E-2
1.805600833E0,-2.489202656E-2,-1.359135192E-2,-1.404948719E-2
1.808080729E0,-2.244863659E-2,-1.359135192E-2,-1.404948719E-2
1.810559791E0,-2.244863659E-2,-9.926267900E-3,-1.404948719E-2
1.813038073E0,-2.000524849E-2,-8.704573847E-3,-1.404948719E-2
1.815517135E0,-2.000524849E-2,-5.039489828E-3,-1.282779220E-2
1.817997083E0,-1.878355257E-2,-1.527118147E-4,-1.160609815E-2
1.820476094E0,-1.878355257E-2,1.068982761E-3,-1.160609815E-2
1.822954323E0,-2.000524849E-2,4.734066315E-3,-1.160609815E-2
1.825433437E0,-1.878355257E-2,7.177455351E-3,-1.160609815E-2
1.827913333E0,-1.634016447E-2,9.620844387E-3,-9.162709117E-3
1.830392396E0,-1.634016447E-2,1.084253844E-2,-9.162709117E-3
1.832870625E0,-1.756185852E-2,1.206423342E-2,-1.038440317E-2
1.835349739E0,-2.000524849E-2,1.328592747E-2,-7.941014133E-3
1.837829635E0,-1.878355257E-2,1.572931744E-2,-7.941014133E-3
1.840308698E0,-1.878355257E-2,1.328592747E-2,-6.719320081E-3
1.842786927E0,-1.756185852E-2,1.817270555E-2,-4.275931045E-3
1.845266041E0,-1.511846948E-2,1.939439960E-2,-4.275931045E-3
1.847745937E0,-1.511846948E-2,2.305948362E-2,-1.832541777E-3
1.850225000E0,-1.511846948E-2,2.183778957E-2,-3.054236295E-3
1.852703229E0,-1.511846948E-2,2.550287358E-2,-6.108472589E-4
1.855182344E0,-1.389677543E-2,2.428117767E-2,6.108472589E-4
1.857662239E0,-1.267508045E-2,2.550287358E-2,1.832541777E-3
1.860141250E0,-1.267508045E-2,2.916795574E-2,4.275931045E-3
1.862619531E0,-1.267508045E-2,2.916795574E-2,5.497625098E-3
1.865098594E0,-1.267508045E-2,2.794626169E-2,4.275931045E-3
1.867578541E0,-1.023169141E-2,2.672456764E-2,4.275931045E-3
1.870057552E0,-1.145338640E-2,2.672456764E-2,5.497625098E-3
1.872535833E0,-1.023169141E-2,2.672456764E-2,6.719320081E-3
1.875014896E0,-1.023169141E-2,2.428117767E-2,6.719320081E-3
1.877494844E0,-9.009997360E-3,2.305948362E-2,9.162709117E-3
1.879973854E0,-6.566607859E-3,2.183778957E-2,1.038440317E-2
1.882452135E0,-7.788302377E-3,1.939439960E-2,1.038440317E-2
1.884931198E0,-7.788302377E-3,1.939439960E-2,1.160609815E-2
1.887411146E0,-7.788302377E-3,1.939439960E-2,1.282779220E-2
1.889890156E0,-6.566607859E-3,1.695101149E-2,1.160609815E-2
1.892368437E0,-6.566607859E-3,1.695101149E-2,1.404948719E-2
1.894847500E0,-5.344913341E-3,1.695101149E-2,1.527118124E-2
1.897327448E0,-4.123218823E-3,1.817270555E-2,1.404948719E-2
1.899806458E0,-5.344913341E-3,2.061609551E-2,1.282779220E-2
1.902284739E0,-5.344913341E-3,2.061609551E-2,1.160609815E-2
1.904763802E0,-6.566607859E-3,2.061609551E-2,1.160609815E-2
1.907243750E0,-6.566607859E-3,2.428117767E-2,1.160609815E-2
1.909722760E0,-7.788302377E-3,2.428117767E-2,1.038440317E-2
1.912201041E0,-6.566607859E-3,2.550287358E-2,1.038440317E-2
1.914680104E0,-7.788302377E-3,2.183778957E-2,9.162709117E-3
1.917160052E0,-7.788302377E-3,2.305948362E-2,7.941014133E-3
1.919639062E0,-7.788302377E-3,2.183778957E-2,7.941014133E-3
1.922117344E0,-7.788302377E-3,2.183778957E-2,7.941014133E-3
1.924596406E0,-7.788302377E-3,1.939439960E-2,5.497625098E-3
1.927076354E0,-1.023169141E-2,1.939439960E-2,5.497625098E-3
1.929555364E0,-1.023169141E-2,1.939439960E-2,5.497625098E-3
1.932033646E0,-1.145338640E-2,1.817270555E-2,5.497625098E-3
1.934512708E0,-1.023169141E-2,1.817270555E-2,3.054236295E-3
1.936992656E0,-1.023169141E-2,1.817270555E-2,3.054236295E-3
1.939471666E0,-1.023169141E-2,1.572931744E-2,6.108472589E-4
1.941949948E0,-9.009997360E-3,1.450762246E-2,6.108472589E-4
1.944429010E0,-9.009997360E-3,1.450762246E-2,-6.108472589E-4
1.946908958E0,-7.788302377E-3,1.328592747E-2,-6.108472589E-4
1.949387969E0,-6.566607859E-3,1.084253844E-2,-6.108472589E-4
1.951866250E0,-5.344913341E-3,9.620844387E-3,-1.832541777E-3
1.954345312E0,-2.901524538E-3,9.620844387E-3,-1.832541777E-3
1.956825260E0,-1.679830020E-3,8.399149403E-3,-6.108472589E-4
1.959304271E0,-1.679830020E-3,8.399149403E-3,6.108472589E-4
1.961782552E0,-1.679830020E-3,5.955760833E-3,6.108472589E-4
1.964261614E0,-1.679830020E-3,4.734066315E-3,3.054236295E-3
1.966741562E0,-2.901524538E-3,4.734066315E-3,4.275931045E-3
1.969220573E0,-4.123218823E-3,2.290677279E-3,3.054236295E-3
1.971698854E0,-4.123218823E-3,2.290677279E-3,4.275931045E-3
1.974177916E0,-4.123218823E-3,2.290677279E-3,5.497625098E-3
1.976657812E0,-4.123218823E-3,2.290677279E-3,1.832541777E-3
1.979136875E0,-5.344913341E-3,4.734066315E-3,3.054236295E-3
1.981615104E0,-4.123218823E-3,7.177455351E-3,3.054236295E-3
1.984094219E0,-2.901524538E-3,9.620844387E-3,3.054236295E-3
1.986574114E0,-5.344913341E-3,1.206423342E-2,1.832541777E-3
1.989053177E0,-5.344913341E-3,1.450762246E-2,6.108472589E-4
1.991531406E0,-5.344913341E-3,1.572931744E-2,1.832541777E-3
1.994010521E0,-6.566607859E-3,1.817270555E-2,6.108472589E-4
1.996490416E0,-5.344913341E-3,2.305948362E-2,-6.108472589E-4
1.998969479E0,-5.344913341E-3,2.672456764E-2,-6.108472589E-4
2.001447708E0,-6.566607859E-3,3.038965166E-2,-6.108472589E-4
2.003926823E0,-6.566607859E-3,3.038965166E-2,-6.108472589E-4
2.006406719E0,-6.566607859E-3,3.161134571E-2,-3.054236295E-3
2.008885781E0,-6.566607859E-3,3.161134571E-2,-3.054236295E-3
2.011364010E0,-7.788302377E-3,3.405473381E-2,-6.108472589E-4
2.013843125E0,-7.788302377E-3,3.038965166E-2,-6.108472589E-4
2.016323021E0,-9.009997360E-3,3.038965166E-2,-6.108472589E-4
2.018802031E0,-7.788302377E-3,2.672456764E-2,-1.832541777E-3
2.021280312E0,-7.788302377E-3,2.550287358E-2,6.108472589E-4
2.023759375E0,-1.145338640E-2,2.428117767E-2,6.108472589E-4
2.026239323E0,-1.145338640E-2,1.939439960E-2,-6.108472589E-4
2.028718385E0,-9.009997360E-3,1.939439960E-2,-6.108472589E-4
2.031196614E0,-1.023169141E-2,1.939439960E-2,6.108472589E-4
2.033675677E0,-1.023169141E-2,1.328592747E-2,-6.108472589E-4
2.036155625E0,-1.145338640E-2,1.817270555E-2,-6.108472589E-4
2.038634635E0,-1.267508045E-2,1.817270555E-2,-6.108472589E-4
2.041112916E0,-1.145338640E-2,1.450762246E-2,6.108472589E-4
2.043591979E0,-1.145338640E-2,1.450762246E-2,6.108472589E-4
2.046071927E0,-1.511846948E-2,1.328592747E-2,6.108472589E-4
2.048550937E0,-1.389677543E-2,1.328592747E-2,-6.108472589E-4
2.051029219E0,-1.511846948E-2,1.572931744E-2,-6.108472589E-4
2.053508281E0,-1.634016447E-2,1.572931744E-2,-6.108472589E-4
2.055988229E0,-1.634016447E-2,1.695101149E-2,-1.832541777E-3
2.058467239E0,-1.756185852E-2,2.183778957E-2,-3.054236295E-3
2.060945521E0,-1.634016447E-2,2.061609551E-2,-4.275931045E-3
2.063424583E0,-1.756185852E-2,2.428117767E-2,-5.497625098E-3
2.065904531E0,-1.878355257E-2,2.428117767E-2,-4.275931045E-3
2.068383541E0,-1.634016447E-2,2.428117767E-2,-5.497625098E-3
2.070861823E0,-1.511846948E-2,2.550287358E-2,-4.275931045E-3
2.073340885E0,-1.389677543E-2,2.794626169E-2,-4.275931045E-3
2.075820833E0,-1.389677543E-2,2.794626169E-2,-4.275931045E-3
2.078299844E0,-1.389677543E-2,2.672456764E-2,-3.054236295E-3
2.080778125E0,-1.267508045E-2,2.672456764E-2,-4.275931045E-3
2.083257187E0,-1.267508045E-2,2.794626169E-2,-3.054236295E-3
2.085737135E0,-1.389677543E-2,2.550287358E-2,-3.054236295E-3
2.088216146E0,-1.389677543E-2,2.672456764E-2,-4.275931045E-3
2.090694427E0,-1.145338640E-2,2.305948362E-2,-1.832541777E-3
2.093173489E0,-1.145338640E-2,2.183778957E-2,-1.832541777E-3
2.095653437E0,-1.267508045E-2,2.061609551E-2,-3.054236295E-3
2.098132448E0,-1.267508045E-2,1.939439960E-2,-3.054236295E-3
2.100610729E0,-1.145338640E-2,1.939439960E-2,-1.832541777E-3
2.103089791E0,-1.267508045E-2,1.817270555E-2,-1.832541777E-3
2.105569739E0,-1.145338640E-2,1.450762246E-2,-1.832541777E-3
2.108048750E0,-1.145338640E-2,1.450762246E-2,-6.108472589E-4
2.110527031E0,-1.145338640E-2,1.572931744E-2,-1.832541777E-3
2.113006094E0,-1.023169141E-2,1.572931744E-2,-6.108472589E-4
2.115486041E0,-1.023169141E-2,1.695101149E-2,6.108472589E-4
2.117965052E0,-9.009997360E-3,1.817270555E-2,1.832541777E-3
2.120443333E0,-9.009997360E-3,1.695101149E-2,6.108472589E-4
2.122922396E0,-9.009997360E-3,1.450762246E-2,1.832541777E-3
2.125402344E0,-6.566607859E-3,1.450762246E-2,1.832541777E-3
2.127881354E0,-7.788302377E-3,1.328592747E-2,3.054236295E-3
2.130359635E0,-9.009997360E-3,1.450762246E-2,3.054236295E-3
2.132838698E0,-9.009997360E-3,1.328592747E-2,3.054236295E-3
2.135318594E0,-7.788302377E-3,1.450762246E-2,3.054236295E-3
2.137797656E0,-9.009997360E-3,1.206423342E-2,4.275931045E-3
2.140275937E0,-7.788302377E-3,1.450762246E-2,3.054236295E-3
2.142755000E0,-5.344913341E-3,1.450762246E-2,3.054236295E-3
2.145234896E0,-5.344913341E-3,1.572931744E-2,3.054236295E-3
2.147713958E0,-5.344913341E-3,1.450762246E-2,3.054236295E-3
2.150192187E0,-5.344913341E-3,1.572931744E-2,3.054236295E-3
2.152671302E0,-4.123218823E-3,1.572931744E-2,3.054236295E-3
2.155151198E0,-4.123218823E-3,1.450762246E-2,3.054236295E-3
2.157630260E0,-4.123218823E-3,1.450762246E-2,3.054236295E-3
2.160108489E0,-5.344913341E-3,1.572931744E-2,4.275931045E-3
2.162587604E0,-2.901524538E-3,1.572931744E-2,4.275931045E-3
2.165067500E0,-4.123218823E-3,1.328592747E-2,6.108472589E-4
2.167546510E0,-2.901524538E-3,1.328592747E-2,1.832541777E-3
2.170024791E0,-2.901524538E-3,1.450762246E-2,1.832541777E-3
2.172503906E0,-4.123218823E-3,1.328592747E-2,3.054236295E-3
2.174983802E0,-4.123218823E-3,1.328592747E-2,1.832541777E-3
2.177462864E0,-6.566607859E-3,1.328592747E-2,1.832541777E-3
2.179941094E0,-6.566607859E-3,1.206423342E-2,1.832541777E-3
2.182420156E0,-6.566607859E-3,1.328592747E-2,4.275931045E-3
2.184900104E0,-5.344913341E-3,1.450762246E-2,3.054236295E-3
2.187379114E0,-6.566607859E-3,1.206423342E-2,6.108472589E-4
2.189857396E0,-6.566607859E-3,1.206423342E-2,1.832541777E-3
2.192336458E0,-6.566607859E-3,1.328592747E-2,4.275931045E-3
2.194816406E0,-6.566607859E-3,1.084253844E-2,3.054236295E-3
2.197295416E0,-6.566607859E-3,1.328592747E-2,1.832541777E-3
2.199773698E0,-1.023169141E-2,1.084253844E-2,1.832541777E-3
2.202252760E0,-9.009997360E-3,1.206423342E-2,3.054236295E-3
2.204732708E0,-7.788302377E-3,1.084253844E-2,4.275931045E-3
2.207211719E0,-6.566607859E-3,1.206423342E-2,5.497625098E-3
2.209690000E0,-5.344913341E-3,9.620844387E-3,5.497625098E-3
2.212169062E0,-4.123218823E-3,8.399149403E-3,6.719320081E-3
2.214649010E0,-2.901524538E-3,3.512371797E-3,9.162709117E-3
2.217128021E0,-2.901524538E-3,-1.527118147E-4,9.162709117E-3
2.219606302E0,-2.901524538E-3,-1.374406274E-3,1.160609815E-2
2.222085364E0,-1.679830020E-3,-5.039489828E-3,1.160609815E-2
2.224565312E0,-4.581354442E-4,-7.482878864E-3,1.282779220E-2
2.227044323E0,7.635590737E-4,-8.704573847E-3,1.527118124E-2
2.229522604E0,7.635590737E-4,-1.114796288E-2,1.771457121E-2
2.232001666E0,1.985253533E-3,-1.114796288E-2,1.527118124E-2
2.234481614E0,7.635590737E-4,-1.114796288E-2,1.649287529E-2
2.236960625E0,1.985253533E-3,-1.114796288E-2,1.649287529E-2
2.239438906E0,4.428642802E-3,-1.236965694E-2,1.527118124E-2
2.241917969E0,4.428642802E-3,-9.926267900E-3,1.527118124E-2
2.244397916E0,4.428642802E-3,-8.704573847E-3,1.649287529E-2
2.246876927E0,6.872031838E-3,-9.926267900E-3,1.404948719E-2
2.249355208E0,6.872031838E-3,-7.482878864E-3,1.527118124E-2
2.251834271E0,6.872031838E-3,-7.482878864E-3,1.404948719E-2
2.254314219E0,8.093725890E-3,-6.261184346E-3,1.282779220E-2
2.256793229E0,8.093725890E-3,-6.261184346E-3,1.404948719E-2
2.259271510E0,9.315420873E-3,-6.261184346E-3,1.282779220E-2
2.261750573E0,1.053711493E-2,-6.261184346E-3,1.038440317E-2
2.264230521E0,1.175880991E-2,-7.482878864E-3,1.160609815E-2
2.266709531E0,1.175880991E-2,-8.704573847E-3,1.038440317E-2
2.269187812E0,1.053711493E-2,-1.359135192E-2,9.162709117E-3
2.271666875E0,1.175880991E-2,-1.481304597E-2,7.941014133E-3
2.274146823E0,1.175880991E-2,-1.725643501E-2,6.719320081E-3
2.276625833E0,1.298050396E-2,-2.214321308E-2,6.719320081E-3
2.279104114E0,9.315420873E-3,-2.214321308E-2,6.719320081E-3
2.281583177E0,8.093725890E-3,-2.458660305E-2,6.719320081E-3
2.284063073E0,8.093725890E-3,-2.825168520E-2,7.941014133E-3
2.286542135E0,5.650337320E-3,-3.069507517E-2,7.941014133E-3
2.289020416E0,4.428642802E-3,-3.313846514E-2,6.719320081E-3
2.291499479E0,4.428642802E-3,-3.069507517E-2,4.275931045E-3
2.293979375E0,7.635590737E-4,-3.069507517E-2,3.054236295E-3
2.296458437E0,-4.581354442E-4,-2.825168520E-2,3.054236295E-3
2.298936666E0,-1.679830020E-3,-2.702999115E-2,1.832541777E-3
2.301415781E0,-4.123218823E-3,-2.580829710E-2,6.108472589E-4
2.303895677E0,-6.566607859E-3,-2.092151903E-2,-1.832541777E-3
2.306374739E0,-7.788302377E-3,-1.481304597E-2,-1.832541777E-3
2.308852969E0,-1.023169141E-2,-8.704573847E-3,-5.497625098E-3
2.311332083E0,-1.145338640E-2,-3.817795310E-3,-4.275931045E-3
2.313811979E0,-1.634016447E-2,5.955760833E-3,-6.719320081E-3
2.316291041E0,-1.756185852E-2,1.450762246E-2,-9.162709117E-3
2.318769271E0,-2.000524849E-2,2.183778957E-2,-1.160609815E-2
2.321248385E0,-2.122694254E-2,2.916795574E-2,-1.160609815E-2
2.323728281E0,-2.244863659E-2,3.771981969E-2,-1.404948719E-2
2.326207344E0,-2.367033064E-2,4.627167806E-2,-1.649287529E-2
2.328685573E0,-2.489202656E-2,5.360184610E-2,-1.649287529E-2
2.331164635E0,-2.733541466E-2,6.337540597E-2,-1.649287529E-2
2.333644583E0,-2.855710872E-2,6.826218218E-2,-1.771457121E-2
2.336123594E0,-2.977880463E-2,7.681404054E-2,-1.771457121E-2
2.338601875E0,-2.977880463E-2,8.292251825E-2,-1.771457121E-2
2.341080937E0,-3.222219273E-2,8.780929446E-2,-1.893626526E-2
2.343560885E0,-3.100049868E-2,9.391776472E-2,-1.771457121E-2
2.346039896E0,-3.222219273E-2,9.880454093E-2,-1.649287529E-2
2.348518177E0,-3.222219273E-2,1.036913246E-1,-1.771457121E-2
2.350997239E0,-3.100049868E-2,1.085781008E-1,-1.893626526E-2
2.353477187E0,-3.100049868E-2,1.134648770E-1,-1.649287529E-2
2.355956198E0,-3.100049868E-2,1.171299592E-1,-1.649287529E-2
2.358434479E0,-2.977880463E-2,1.244601309E-1,-1.404948719E-2
2.360913541E0,-2.611372061E-2,1.281252056E-1,-1.404948719E-2
2.363393489E0,-2.611372061E-2,1.317902952E-1,-1.282779220E-2
2.365872500E0,-2.244863659E-2,1.366770715E-1,-1.404948719E-2
2.368350781E0,-2.122694254E-2,1.391204596E-1,-1.160609815E-2
2.370829844E0,-1.878355257E-2,1.415638477E-1,-1.038440317E-2
2.373309791E0,-1.756185852E-2,1.415638477E-1,-6.719320081E-3
2.375788802E0,-1.634016447E-2,1.427855492E-1,-5.497625098E-3
2.378267083E0,-1.511846948E-2,1.440072358E-1,-3.054236295E-3
2.380746146E0,-1.389677543E-2,1.440072358E-1,6.108472589E-4
2.383226094E0,-1.267508045E-2,1.452289373E-1,5.497625098E-3
2.385705104E0,-1.145338640E-2,1.452289373E-1,6.719320081E-3
2.388183385E0,-1.023169141E-2,1.452289373E-1,9.162709117E-3
2.390662448E0,-1.145338640E-2,1.452289373E-1,1.282779220E-2
2.393142396E0,-1.023169141E-2,1.452289373E-1,1.527118124E-2
2.395621406E0,-1.023169141E-2,1.452289373E-1,1.893626526E-2
2.398099687E0,-9.009997360E-3,1.452289373E-1,2.260134928E-2
2.400578750E0,-6.566607859E-3,1.452289373E-1,2.504473738E-2
2.403058698E0,-5.344913341E-3,1.427855492E-1,2.870982140E-2
2.405537708E0,-2.901524538E-3,1.391204596E-1,2.870982140E-2
2.408015989E0,-1.679830020E-3,1.391204596E-1,3.359659761E-2
2.410495052E0,-4.581354442E-4,1.378987730E-1,3.481829539E-2
2.412975000E0,3.206948051E-3,1.366770715E-1,3.726168349E-2
2.415454010E0,3.206948051E-3,1.317902952E-1,3.603998944E-2
2.417932291E0,4.428642802E-3,1.305686086E-1,3.848337755E-2
2.420411354E0,4.428642802E-3,1.269035190E-1,3.970507160E-2
2.422891302E0,4.428642802E-3,1.256818175E-1,4.214845970E-2
2.425370312E0,4.428642802E-3,1.220167428E-1,4.092676565E-2
2.427848594E0,5.650337320E-3,1.171299592E-1,4.337015375E-2
2.430327656E0,4.428642802E-3,1.134648770E-1,4.459185153E-2
2.432807552E0,1.985253533E-3,1.097997949E-1,4.581354558E-2
2.435286614E0,-4.581354442E-4,1.024696305E-1,4.459185153E-2
2.437764844E0,-1.679830020E-3,9.880454093E-2,4.459185153E-2
2.440243958E0,-4.123218823E-3,9.391776472E-2,4.337015375E-2
2.442723854E0,-5.344913341E-3,9.391776472E-2,4.214845970E-2
2.445202916E0,-7.788302377E-3,9.269607067E-2,4.214845970E-2
2.447681146E0,-9.009997360E-3,9.391776472E-2,4.092676565E-2
2.450160260E0,-1.023169141E-2,9.513945878E-2,3.848337755E-2
2.452640156E0,-1.023169141E-2,9.391776472E-2,3.359659761E-2
2.455119219E0,-1.267508045E-2,9.513945878E-2,3.237490356E-2
2.457597448E0,-1.389677543E-2,9.880454093E-2,2.993151546E-2
2.460076562E0,-1.634016447E-2,9.636115283E-2,2.748812735E-2
2.462556458E0,-1.756185852E-2,9.513945878E-2,2.504473738E-2
2.465035521E0,-1.878355257E-2,9.513945878E-2,2.260134928E-2
2.467513750E0,-2.122694254E-2,9.147437662E-2,2.015795931E-2
2.469992864E0,-2.122694254E-2,9.025268257E-2,1.893626526E-2
2.472472760E0,-2.367033064E-2,8.536590636E-2,1.771457121E-2
2.474951771E0,-2.611372061E-2,7.925742865E-2,1.649287529E-2
2.477430052E0,-2.733541466E-2,7.681404054E-2,1.527118124E-2
2.479909114E0,-2.977880463E-2,6.948387623E-2,1.282779220E-2
2.482389062E0,-3.100049868E-2,6.459710002E-2,1.160609815E-2
2.484868073E0,-2.977880463E-2,6.093201414E-2,1.038440317E-2
2.487346354E0,-2.977880463E-2,5.482354015E-2,9.162709117E-3
2.489825416E0,-2.977880463E-2,4.993676394E-2,7.941014133E-3
2.492305364E0,-3.100049868E-2,4.260659590E-2,5.497625098E-3
2.494784375E0,-3.222219273E-2,3.771981969E-2,4.275931045E-3
2.497262656E0,-3.100049868E-2,3.527642787E-2,3.054236295E-3
2.499741719E0,-3.100049868E-2,3.038965166E-2,6.108472589E-4
2.502221666E0,-3.222219273E-2,2.916795574E-2,-6.108472589E-4
2.504700677E0,-3.222219273E-2,2.794626169E-2,-3.054236295E-3
2.507178958E0,-3.100049868E-2,2.428117767E-2,-6.719320081E-3
2.509658021E0,-3.344388679E-2,2.305948362E-2,-7.941014133E-3
2.512137969E0,-3.222219273E-2,1.939439960E-2,-9.162709117E-3
2.514616979E0,-3.222219273E-2,1.695101149E-2,-1.404948719E-2
2.517095260E0,-2.977880463E-2,1.328592747E-2,-1.649287529E-2
2.519574323E0,-2.733541466E-2,1.084253844E-2,-1.771457121E-2
2.522054271E0,-2.489202656E-2,5.955760833E-3,-2.137965336E-2
2.524533281E0,-2.489202656E-2,1.068982761E-3,-2.382304333E-2
2.527011562E0,-2.244863659E-2,-2.596100792E-3,-2.382304333E-2
2.529490625E0,-2.000524849E-2,-7.482878864E-3,-2.260134928E-2
2.531970573E0,-1.878355257E-2,-1.603474095E-2,-2.260134928E-2
2.534449583E0,-1.634016447E-2,-2.092151903E-2,-2.260134928E-2
2.536927864E0,-1.634016447E-2,-2.702999115E-2,-2.015795931E-2
2.539406927E0,-1.634016447E-2,-3.191677108E-2,-1.771457121E-2
2.541886875E0,-1.634016447E-2,-3.924693540E-2,-1.527118124E-2
2.544365885E0,-1.634016447E-2,-4.535540938E-2,-1.404948719E-2
2.546844166E0,-1.634016447E-2,-5.024218559E-2,-1.282779220E-2
2.549323229E0,-1.756185852E-2,-5.390727147E-2,-9.162709117E-3
2.551803177E0,-2.000524849E-2,-5.879404768E-2,-7.941014133E-3
2.554282187E0,-2.000524849E-2,-6.001574174E-2,-5.497625098E-3
2.556760469E0,-2.122694254E-2,-6.123743951E-2,-3.054236295E-3
2.559239531E0,-2.122694254E-2,-6.123743951E-2,-1.832541777E-3
2.561719479E0,-1.878355257E-2,-6.001574174E-2,-1.832541777E-3
2.564198489E0,-2.000524849E-2,-5.757235363E-2,-1.832541777E-3
2.566676771E0,-2.000524849E-2,-5.635065958E-2,-1.832541777E-3
2.569155833E0,-1.756185852E-2,-5.268557742E-2,-6.108472589E-4
2.571635729E0,-1.756185852E-2,-4.902049154E-2,6.108472589E-4
2.574114791E0,-1.634016447E-2,-4.779879749E-2,-6.108472589E-4
2.576593021E0,-1.511846948E-2,-4.413371533E-2,-6.108472589E-4
2.579072135E0,-1.511846948E-2,-4.169032723E-2,6.108472589E-4
2.581552031E0,-1.267508045E-2,-4.046862945E-2,-6.108472589E-4
2.584031094E0,-1.267508045E-2,-4.046862945E-2,-6.108472589E-4
2.586509323E0,-1.267508045E-2,-3.924693540E-2,-6.108472589E-4
2.588988437E0,-1.023169141E-2,-3.802524135E-2,-6.108472589E-4
2.591468333E0,-9.009997360E-3,-3.558185324E-2,1.832541777E-3
2.593947396E0,-9.009997360E-3,-3.436015919E-2,4.275931045E-3
2.596425625E0,-6.566607859E-3,-3.436015919E-2,3.054236295E-3
2.598904739E0,-6.566607859E-3,-3.436015919E-2,3.054236295E-3
2.601384635E0,-4.123218823E-3,-3.191677108E-2,3.054236295E-3
2.603863698E0,-1.679830020E-3,-3.069507517E-2,4.275931045E-3
2.606341927E0,-4.581354442E-4,-2.580829710E-2,6.719320081E-3
2.608821041E0,1.985253533E-3,-2.092151903E-2,5.497625098E-3
2.611300937E0,6.872031838E-3,-1.725643501E-2,5.497625098E-3
2.613779948E0,1.053711493E-2,-1.114796288E-2,5.497625098E-3
2.616258229E0,1.298050396E-2,-7.482878864E-3,6.719320081E-3
2.618737291E0,1.664558798E-2,-3.817795310E-3,6.719320081E-3
2.621217239E0,1.908897609E-2,-1.527118147E-4,7.941014133E-3
2.623696250E0,1.908897609E-2,3.512371797E-3,6.719320081E-3
2.626174531E0,2.275406010E-2,4.734066315E-3,6.719320081E-3
2.628653594E0,2.397575416E-2,3.512371797E-3,9.162709117E-3
2.631133541E0,2.641914412E-2,3.512371797E-3,1.038440317E-2
2.633612552E0,2.886253223E-2,4.734066315E-3,9.162709117E-3
2.636090833E0,3.130592033E-2,5.955760833E-3,1.038440317E-2
2.638569896E0,3.252761811E-2,5.955760833E-3,1.160609815E-2
2.641049844E0,3.497100621E-2,5.955760833E-3,1.282779220E-2
2.643528854E0,3.619270027E-2,4.734066315E-3,1.282779220E-2
2.646007135E0,3.863608837E-2,4.734066315E-3,1.404948719E-2
2.648486198E0,3.985778242E-2,4.734066315E-3,1.404948719E-2
2.650966146E0,3.741439432E-2,2.290677279E-3,1.649287529E-2
2.653445156E0,3.741439432E-2,1.068982761E-3,1.527118124E-2
2.655923437E0,3.497100621E-2,-1.527118147E-4,1.771457121E-2
2.658402500E0,3.374931216E-2,2.290677279E-3,1.893626526E-2
2.660882448E0,3.130592033E-2,-1.527118147E-4,1.527118124E-2
2.663361458E0,2.641914412E-2,-1.374406274E-3,1.404948719E-2
2.665839739E0,2.641914412E-2,-1.374406274E-3,1.404948719E-2
2.668318802E0,2.641914412E-2,-1.374406274E-3,1.404948719E-2
2.670798750E0,2.397575416E-2,-1.527118147E-4,1.038440317E-2
2.673277760E0,2.275406010E-2,-1.527118147E-4,7.941014133E-3
2.675756041E0,2.153236605E-2,-1.527118147E-4,7.941014133E-3
2.678235104E0,2.153236605E-2,1.068982761E-3,5.497625098E-3
2.680715052E0,2.397575416E-2,2.290677279E-3,4.275931045E-3
2.683194062E0,2.397575416E-2,1.068982761E-3,3.054236295E-3
2.685672344E0,2.641914412E-2,-1.374406274E-3,1.832541777E-3
2.688151406E0,2.764083818E-2,-1.374406274E-3,3.054236295E-3
2.690631354E0,2.764083818E-2,-2.596100792E-3,1.832541777E-3
2.693110364E0,2.886253223E-2,-5.039489828E-3,4.275931045E-3
2.695588646E0,2.886253223E-2,-8.704573847E-3,5.497625098E-3
2.698067708E0,2.886253223E-2,-1.359135192E-2,5.497625098E-3
2.700547656E0,2.886253223E-2,-1.847812906E-2,6.719320081E-3
2.703026666E0,2.764083818E-2,-2.092151903E-2,5.497625098E-3
2.705504948E0,2.886253223E-2,-2.336490713E-2,1.038440317E-2
2.707984010E0,2.764083818E-2,-2.947338112E-2,1.282779220E-2
2.710463958E0,2.764083818E-2,-3.191677108E-2,1.404948719E-2
2.712942969E0,2.519745007E-2,-3.313846514E-2,1.649287529E-2
2.715421250E0,2.641914412E-2,-3.558185324E-2,1.771457121E-2
2.717900312E0,2.397575416E-2,-3.680354729E-2,1.893626526E-2
2.720380208E0,2.397575416E-2,-3.680354729E-2,2.260134928E-2
2.722859271E0,2.397575416E-2,-3.802524135E-2,2.382304333E-2
2.725337500E0,2.397575416E-2,-3.802524135E-2,2.504473738E-2
2.727816614E0,2.519745007E-2,-3.802524135E-2,2.626643144E-2
2.730296510E0,2.397575416E-2,-3.558185324E-2,2.993151546E-2
2.732775573E0,2.641914412E-2,-3.069507517E-2,3.115320951E-2
2.735253802E0,2.275406010E-2,-2.947338112E-2,3.237490356E-2
2.737732916E0,2.275406010E-2,-2.458660305E-2,3.115320951E-2
2.740212812E0,2.275406010E-2,-1.969982497E-2,3.359659761E-2
2.742691875E0,2.031067200E-2,-1.603474095E-2,3.237490356E-2
2.745170104E0,2.031067200E-2,-9.926267900E-3,3.115320951E-2
2.747649166E0,1.786728203E-2,-6.261184346E-3,3.237490356E-2
2.750129114E0,1.786728203E-2,-5.039489828E-3,3.237490356E-2
2.752608125E0,1.786728203E-2,-3.817795310E-3,3.115320951E-2
2.755086406E0,1.542389300E-2,-7.482878864E-3,3.359659761E-2
2.757565469E0,1.664558798E-2,-7.482878864E-3,3.359659761E-2
2.760045416E0,1.786728203E-2,-8.704573847E-3,3.603998944E-2
2.762524427E0,1.908897609E-2,-1.359135192E-2,3.848337755E-2
2.765002708E0,2.153236605E-2,-1.603474095E-2,4.092676565E-2
2.767481771E0,2.397575416E-2,-2.092151903E-2,4.581354558E-2
2.769961719E0,2.397575416E-2,-2.702999115E-2,4.825693369E-2
2.772440729E0,2.519745007E-2,-3.313846514E-2,4.947862774E-2
2.774919010E0,2.519745007E-2,-4.046862945E-2,5.070032179E-2
2.777398073E0,2.641914412E-2,-4.779879749E-2,5.436540768E-2
2.779878021E0,2.641914412E-2,-5.390727147E-2,5.558710173E-2
2.782357031E0,2.397575416E-2,-5.879404768E-2,5.680879578E-2
2.784835312E0,2.519745007E-2,-6.368082762E-2,5.803048983E-2
2.787314375E0,2.275406010E-2,-6.856760383E-2,5.803048983E-2
2.789794323E0,2.153236605E-2,-6.978929788E-2,5.925218388E-2
2.792273333E0,2.275406010E-2,-7.345438004E-2,5.680879578E-2
2.794751614E0,2.153236605E-2,-7.589777559E-2,5.680879578E-2
2.797230677E0,2.275406010E-2,-7.467607409E-2,5.436540768E-2
2.799710625E0,2.397575416E-2,-7.467607409E-2,5.558710173E-2
2.802189635E0,2.397575416E-2,-7.589777559E-2,5.436540768E-2
2.804667916E0,2.519745007E-2,-7.467607409E-2,5.314370990E-2
2.807146979E0,2.764083818E-2,-7.467607409E-2,5.192201585E-2
2.809626927E0,3.008422814E-2,-7.345438004E-2,5.070032179E-2
2.812105937E0,3.130592033E-2,-7.223268598E-2,4.947862774E-2
2.814584219E0,3.008422814E-2,-7.223268598E-2,5.070032179E-2
2.817063281E0,3.130592033E-2,-7.223268598E-2,4.947862774E-2
2.819543229E0,3.130592033E-2,-7.223268598E-2,5.070032179E-2
2.822022239E0,3.008422814E-2,-6.978929788E-2,4.947862774E-2
2.824500521E0,3.252761811E-2,-6.978929788E-2,4.825693369E-2
2.826979583E0,3.130592033E-2,-6.856760383E-2,5.070032179E-2
2.829459531E0,3.130592033E-2,-6.978929788E-2,5.192201585E-2
2.831938541E0,2.886253223E-2,-6.856760383E-2,5.314370990E-2
2.834416823E0,3.252761811E-2,-6.734590977E-2,5.192201585E-2
2.836895885E0,3.252761811E-2,-6.490252167E-2,5.314370990E-2
2.839375833E0,3.130592033E-2,-6.612421572E-2,5.070032179E-2
2.841854844E0,3.252761811E-2,-6.123743951E-2,5.070032179E-2
2.844333125E0,3.252761811E-2,-5.635065958E-2,5.192201585E-2
2.846812187E0,3.252761811E-2,-5.268557742E-2,5.192201585E-2
2.849292083E0,3.252761811E-2,-4.902049154E-2,4.947862774E-2
2.851771146E0,3.252761811E-2,-4.291202128E-2,5.070032179E-2
2.854249375E0,3.252761811E-2,-3.436015919E-2,4.947862774E-2
2.856728489E0,3.374931216E-2,-2.825168520E-2,4.825693369E-2
2.859208385E0,3.130592033E-2,-2.092151903E-2,4.581354558E-2
2.861687448E0,3.130592033E-2,-1.481304597E-2,4.581354558E-2
2.864165677E0,3.008422814E-2,-8.704573847E-3,4.459185153E-2
2.866644791E0,2.764083818E-2,-1.374406274E-3,4.459185153E-2
2.869124687E0,2.397575416E-2,3.512371797E-3,4.337015375E-2
2.871603750E0,2.275406010E-2,9.620844387E-3,4.337015375E-2
2.874081979E0,2.031067200E-2,1.328592747E-2,4.337015375E-2
2.876561094E0,1.908897609E-2,1.817270555E-2,4.337015375E-2
2.879040989E0,1.786728203E-2,2.183778957E-2,4.214845970E-2
2.881520000E0,1.420219894E-2,2.550287358E-2,4.214845970E-2
2.883998281E0,1.053711493E-2,3.038965166E-2,4.092676565E-2
2.886477344E0,8.093725890E-3,3.649812192E-2,3.970507160E-2
2.888957291E0,5.650337320E-3,3.771981969E-2,3.726168349E-2
2.891436302E0,7.635590737E-4,4.016320780E-2,3.603998944E-2
2.893914583E0,-4.581354442E-4,4.138490185E-2,3.359659761E-2
2.896393646E0,-2.901524538E-3,4.627167806E-2,3.115320951E-2
2.898873594E0,-5.344913341E-3,4.871506989E-2,2.626643144E-2
2.901352604E0,-7.788302377E-3,5.115845799E-2,2.382304333E-2
2.903830885E0,-1.023169141E-2,5.360184610E-2,2.015795931E-2
2.906309948E0,-1.023169141E-2,5.482354015E-2,1.649287529E-2
2.908789896E0,-1.023169141E-2,5.482354015E-2,1.282779220E-2
2.911268906E0,-1.389677543E-2,5.482354015E-2,9.162709117E-3
2.913747187E0,-1.634016447E-2,5.604523420E-2,5.497625098E-3
2.916226250E0,-1.756185852E-2,5.848862603E-2,3.054236295E-3
2.918706198E0,-2.000524849E-2,5.848862603E-2,6.108472589E-4
2.921185208E0,-2.122694254E-2,5.604523420E-2,-3.054236295E-3
2.923663489E0,-2.244863659E-2,5.604523420E-2,-5.497625098E-3
2.926142552E0,-2.489202656E-2,5.848862603E-2,-6.719320081E-3
2.928622500E0,-2.611372061E-2,6.093201414E-2,-9.162709117E-3
2.931101510E0,-2.977880463E-2,6.215370819E-2,-1.282779220E-2
2.933579791E0,-3.222219273E-2,6.337540597E-2,-1.649287529E-2
2.936058854E0,-3.588727489E-2,6.581879407E-2,-1.893626526E-2
2.938538802E0,-3.833066672E-2,6.704048812E-2,-2.382304333E-2
2.941017812E0,-4.199574888E-2,7.070557028E-2,-2.504473738E-2
2.943496094E0,-4.566083103E-2,7.314895838E-2,-2.748812735E-2
2.945975156E0,-4.688252881E-2,7.437065244E-2,-3.115320951E-2
2.948455104E0,-4.932591692E-2,7.559234649E-2,-3.237490356E-2
2.950934114E0,-5.176930502E-2,8.170082420E-2,-3.481829539E-2
2.953412396E0,-5.299099907E-2,8.292251825E-2,-3.726168349E-2
2.955891458E0,-5.543438718E-2,8.414421231E-2,-3.848337755E-2
2.958371406E0,-5.665608495E-2,8.292251825E-2,-4.214845970E-2
2.960850416E0,-5.787777901E-2,8.047912270E-2,-4.581354558E-2
2.963328698E0,-5.787777901E-2,8.047912270E-2,-4.581354558E-2
2.965807760E0,-5.543438718E-2,7.925742865E-2,-4.825693369E-2
2.968287708E0,-5.299099907E-2,7.559234649E-2,-4.825693369E-2
2.970766719E0,-5.176930502E-2,7.681404054E-2,-4.825693369E-2
2.973245000E0,-4.932591692E-2,7.559234649E-2,-4.825693369E-2
2.975724062E0,-4.810422286E-2,7.437065244E-2,-4.703523964E-2
2.978203958E0,-4.688252881E-2,7.314895838E-2,-4.581354558E-2
2.980683021E0,-4.688252881E-2,7.437065244E-2,-4.337015375E-2
2.983161302E0,-4.566083103E-2,7.192726433E-2,-4.337015375E-2
2.985640364E0,-4.443913698E-2,7.314895838E-2,-4.214845970E-2
2.988120260E0,-4.321744293E-2,7.314895838E-2,-4.092676565E-2
2.990599323E0,-4.199574888E-2,7.070557028E-2,-4.092676565E-2
2.993077552E0,-3.955236077E-2,7.192726433E-2,-3.848337755E-2
2.995556666E0,-3.955236077E-2,7.070557028E-2,-3.848337755E-2
2.998036562E0,-3.955236077E-2,6.826218218E-2,-3.603998944E-2
3.000515625E0,-3.710897267E-2,6.581879407E-2,-3.726168349E-2
3.002993854E0,-3.588727489E-2,6.459710002E-2,-3.359659761E-2
3.005472969E0,-3.588727489E-2,6.215370819E-2,-3.359659761E-2
3.007952864E0,-3.466558084E-2,5.971032009E-2,-3.481829539E-2
3.010431875E0,-3.344388679E-2,5.971032009E-2,-3.359659761E-2
3.012910156E0,-3.222219273E-2,5.726693198E-2,-3.237490356E-2
3.015389271E0,-3.222219273E-2,5.726693198E-2,-2.993151546E-2
3.017869166E0,-2.977880463E-2,5.604523420E-2,-2.870982140E-2
3.020348177E0,-2.855710872E-2,5.482354015E-2,-2.748812735E-2
3.022826458E0,-2.611372061E-2,5.238015205E-2,-2.504473738E-2
3.025305521E0,-2.244863659E-2,4.871506989E-2,-2.382304333E-2
3.027785469E0,-1.878355257E-2,4.871506989E-2,-2.260134928E-2
3.030264479E0,-1.756185852E-2,4.504998401E-2,-2.137965336E-2
3.032742760E0,-1.145338640E-2,4.260659590E-2,-1.893626526E-2
3.035221823E0,-1.023169141E-2,3.894151375E-2,-1.771457121E-2
3.037701771E0,-6.566607859E-3,3.527642787E-2,-1.527118124E-2
3.040180781E0,-1.679830020E-3,2.794626169E-2,-1.160609815E-2
3.042659062E0,7.635590737E-4,2.183778957E-2,-7.941014133E-3
3.045138125E0,4.428642802E-3,1.328592747E-2,-5.497625098E-3
3.047618073E0,8.093725890E-3,5.955760833E-3,-1.832541777E-3
3.050097083E0,1.298050396E-2,-1.527118147E-4,6.108472589E-4
3.052575364E0,1.664558798E-2,-3.817795310E-3,6.719320081E-3
3.055054427E0,1.664558798E-2,-9.926267900E-3,1.038440317E-2
3.057534375E0,1.908897609E-2,-1.603474095E-2,1.404948719E-2
3.060013385E0,2.153236605E-2,-1.969982497E-2,1.771457121E-2
3.062491666E0,2.275406010E-2,-2.458660305E-2,2.137965336E-2
3.064970729E0,2.397575416E-2,-2.825168520E-2,2.504473738E-2
3.067450677E0,2.519745007E-2,-3.191677108E-2,2.870982140E-2
3.069929687E0,2.764083818E-2,-3.558185324E-2,2.870982140E-2
3.072407969E0,2.886253223E-2,-3.680354729E-2,2.993151546E-2
3.074887031E0,3.008422814E-2,-3.924693540E-2,2.993151546E-2
3.077366979E0,3.008422814E-2,-3.924693540E-2,3.115320951E-2
3.079845989E0,3.008422814E-2,-4.169032723E-2,3.237490356E-2
3.082324271E0,3.252761811E-2,-4.046862945E-2,3.237490356E-2
3.084803333E0,3.252761811E-2,-4.046862945E-2,3.359659761E-2
3.087283281E0,3.374931216E-2,-3.924693540E-2,3.359659761E-2
3.089762291E0,3.497100621E-2,-3.680354729E-2,3.359659761E-2
3.092240573E0,3.374931216E-2,-3.924693540E-2,3.115320951E-2
3.094719635E0,3.619270027E-2,-3.802524135E-2,3.237490356E-2
3.097199583E0,3.619270027E-2,-3.924693540E-2,3.359659761E-2
3.099678594E0,3.741439432E-2,-4.046862945E-2,3.237490356E-2
3.102156875E0,3.863608837E-2,-4.046862945E-2,3.237490356E-2
3.104635937E0,3.741439432E-2,-4.169032723E-2,3.115320951E-2
3.107115885E0,3.985778242E-2,-4.535540938E-2,3.115320951E-2
3.109594896E0,4.107947648E-2,-4.535540938E-2,2.870982140E-2
3.112073177E0,3.985778242E-2,-5.024218559E-2,2.748812735E-2
3.114552239E0,4.107947648E-2,-5.024218559E-2,2.870982140E-2
3.117032135E0,4.230117425E-2,-5.268557742E-2,2.870982140E-2
3.119511198E0,4.352286831E-2,-5.635065958E-2,2.870982140E-2
3.121989427E0,4.352286831E-2,-5.757235363E-2,2.870982140E-2
3.124468541E0,4.474456236E-2,-6.245913357E-2,2.748812735E-2
3.126948437E0,4.596625641E-2,-6.612421572E-2,2.748812735E-2
3.129427500E0,4.474456236E-2,-7.223268598E-2,2.504473738E-2
3.131905729E0,4.596625641E-2,-7.589777559E-2,2.748812735E-2
3.134384844E0,4.474456236E-2,-8.078455180E-2,2.870982140E-2
3.136864739E0,4.352286831E-2,-8.689302206E-2,2.748812735E-2
3.139343750E0,4.230117425E-2,-9.055810422E-2,2.748812735E-2
3.141822031E0,4.230117425E-2,-9.300149232E-2,2.504473738E-2
3.144301146E0,4.107947648E-2,-9.544488788E-2,2.504473738E-2
3.146781041E0,3.985778242E-2,-9.666658193E-2,2.382304333E-2
3.149260052E0,3.741439432E-2,-9.788827598E-2,2.504473738E-2
3.151738333E0,3.497100621E-2,-9.788827598E-2,2.260134928E-2
3.154217396E0,3.374931216E-2,-1.015533581E-1,2.015795931E-2
3.156697344E0,3.130592033E-2,-9.910997003E-2,2.137965336E-2
3.159176354E0,2.886253223E-2,-9.910997003E-2,2.015795931E-2
3.161654635E0,2.764083818E-2,-9.788827598E-2,1.771457121E-2
3.164133698E0,2.397575416E-2,-9.666658193E-2,1.527118124E-2
3.166613646E0,2.397575416E-2,-9.300149232E-2,1.404948719E-2
3.169092656E0,2.397575416E-2,-9.177979827E-2,1.038440317E-2
3.171570937E0,2.153236605E-2,-8.811471611E-2,7.941014133E-3
3.174050000E0,2.153236605E-2,-8.567132801E-2,6.719320081E-3
3.176529948E0,2.031067200E-2,-8.322793990E-2,5.497625098E-3
3.179008958E0,2.031067200E-2,-7.956285775E-2,3.054236295E-3
3.181487239E0,1.908897609E-2,-7.711946964E-2,6.108472589E-4
3.183966302E0,2.031067200E-2,-7.834116369E-2,-1.832541777E-3
3.186446250E0,2.153236605E-2,-7.834116369E-2,-3.054236295E-3
3.188925260E0,2.275406010E-2,-7.956285775E-2,-6.719320081E-3
3.191403541E0,2.275406010E-2,-7.711946964E-2,-5.497625098E-3
3.193882604E0,2.519745007E-2,-7.956285775E-2,-6.719320081E-3
3.196362552E0,2.641914412E-2,-7.834116369E-2,-7.941014133E-3
3.198841562E0,2.886253223E-2,-8.078455180E-2,-7.941014133E-3
3.201319844E0,2.886253223E-2,-8.200624585E-2,-9.162709117E-3
3.203798906E0,3.130592033E-2,-8.322793990E-2,-1.038440317E-2
3.206278854E0,3.130592033E-2,-8.322793990E-2,-1.038440317E-2
3.208757864E0,3.008422814E-2,-8.444963396E-2,-1.038440317E-2
3.211236146E0,3.008422814E-2,-8.444963396E-2,-1.038440317E-2
3.213715208E0,2.886253223E-2,-8.200624585E-2,-1.160609815E-2
3.216195156E0,2.886253223E-2,-8.200624585E-2,-1.404948719E-2
3.218674166E0,2.641914412E-2,-8.200624585E-2,-1.404948719E-2
3.221152448E0,2.519745007E-2,-8.200624585E-2,-1.649287529E-2
3.223631510E0,2.275406010E-2,-7.956285775E-2,-1.649287529E-2
3.226111458E0,2.031067200E-2,-7.834116369E-2,-1.893626526E-2
3.228590469E0,1.786728203E-2,-7.711946964E-2,-1.893626526E-2
3.231068750E0,1.420219894E-2,-7.345438004E-2,-1.893626526E-2
3.233547812E0,1.298050396E-2,-7.101099193E-2,-1.771457121E-2
3.236027760E0,1.175880991E-2,-6.856760383E-2,-1.893626526E-2
3.238506771E0,1.053711493E-2,-6.490252167E-2,-2.015795931E-2
3.240985052E0,8.093725890E-3,-6.123743951E-2,-1.893626526E-2
3.243464114E0,5.650337320E-3,-5.635065958E-2,-2.015795931E-2
3.245944010E0,4.428642802E-3,-5.268557742E-2,-2.137965336E-2
3.248423073E0,4.428642802E-3,-5.024218559E-2,-2.137965336E-2
3.250901302E0,1.985253533E-3,-4.657710344E-2,-2.015795931E-2
3.253380416E0,3.206948051E-3,-4.291202128E-2,-1.893626526E-2
3.255860312E0,1.985253533E-3,-3.924693540E-2,-1.893626526E-2
3.258339375E0,7.635590737E-4,-3.558185324E-2,-1.771457121E-2
3.260817604E0,-4.581354442E-4,-3.313846514E-2,-1.649287529E-2
3.263296719E0,-4.581354442E-4,-2.825168520E-2,-1.649287529E-2
3.265776614E0,-1.679830020E-3,-2.580829710E-2,-1.404948719E-2
3.268255677E0,-1.679830020E-3,-2.458660305E-2,-1.160609815E-2
3.270733906E0,-1.679830020E-3,-2.092151903E-2,-1.160609815E-2
3.273212969E0,-1.679830020E-3,-1.969982497E-2,-1.038440317E-2
3.275692916E0,-4.581354442E-4,-1.847812906E-2,-7.941014133E-3
3.278171927E0,-4.581354442E-4,-1.359135192E-2,-6.719320081E-3
3.280650208E0,-4.581354442E-4,-9.926267900E-3,-6.719320081E-3
3.283129271E0,7.635590737E-4,-6.261184346E-3,-6.719320081E-3
3.285609219E0,7.635590737E-4,-2.596100792E-3,-4.275931045E-3
3.288088229E0,7.635590737E-4,1.068982761E-3,-5.497625098E-3
3.290566510E0,1.985253533E-3,2.290677279E-3,-5.497625098E-3
3.293045573E0,7.635590737E-4,8.399149403E-3,-4.275931045E-3
3.295525521E0,1.985253533E-3,1.084253844E-2,-6.719320081E-3
3.298004531E0,1.985253533E-3,1.328592747E-2,-5.497625098E-3
3.300482812E0,4.428642802E-3,1.572931744E-2,-7.941014133E-3
3.302961875E0,4.428642802E-3,1.695101149E-2,-7.941014133E-3
3.305441823E0,5.650337320E-3,1.939439960E-2,-6.719320081E-3
3.307920833E0,4.428642802E-3,2.061609551E-2,-7.941014133E-3
3.310399114E0,4.428642802E-3,2.183778957E-2,-7.941014133E-3
3.312878177E0,5.650337320E-3,2.183778957E-2,-6.719320081E-3
3.315358125E0,8.093725890E-3,2.183778957E-2,-7.941014133E-3
3.317837135E0,1.053711493E-2,1.939439960E-2,-7.941014133E-3
3.320315416E0,1.175880991E-2,2.061609551E-2,-1.038440317E-2
3.322794479E0,1.420219894E-2,2.061609551E-2,-5.497625098E-3
3.325274427E0,1.664558798E-2,2.305948362E-2,-5.497625098E-3
3.327753437E0,1.786728203E-2,2.305948362E-2,-6.719320081E-3
3.330231719E0,1.908897609E-2,2.061609551E-2,-6.719320081E-3
3.332710781E0,2.153236605E-2,2.183778957E-2,-5.497625098E-3
3.335190729E0,2.397575416E-2,2.061609551E-2,-5.497625098E-3
3.337669739E0,2.519745007E-2,2.061609551E-2,-5.497625098E-3
3.340148021E0,2.641914412E-2,1.939439960E-2,-5.497625098E-3
3.342627083E0,2.764083818E-2,1.939439960E-2,-3.054236295E-3
3.345107031E0,2.641914412E-2,1.817270555E-2,-4.275931045E-3
3.347586041E0,2.764083818E-2,1.817270555E-2,-1.832541777E-3
3.350064323E0,2.764083818E-2,1.572931744E-2,-6.108472589E-4
3.352543385E0,2.886253223E-2,1.572931744E-2,-6.108472589E-4
3.355023281E0,2.886253223E-2,1.572931744E-2,6.108472589E-4
3.357502344E0,2.764083818E-2,1.450762246E-2,1.832541777E-3
3.359980625E0,2.641914412E-2,1.450762246E-2,1.832541777E-3
3.362459687E0,2.641914412E-2,1.572931744E-2,4.275931045E-3
3.364939583E0,2.519745007E-2,1.695101149E-2,3.054236295E-3
3.367418646E0,2.641914412E-2,1.817270555E-2,6.719320081E-3
3.369896875E0,2.519745007E-2,2.061609551E-2,6.719320081E-3
3.372375989E0,2.519745007E-2,2.305948362E-2,5.497625098E-3
3.374855885E0,2.519745007E-2,2.305948362E-2,7.941014133E-3
3.377334948E0,2.397575416E-2,2.305948362E-2,5.497625098E-3
3.379813177E0,2.275406010E-2,2.550287358E-2,7.941014133E-3
3.382292291E0,2.275406010E-2,2.794626169E-2,6.719320081E-3
3.384772187E0,2.275406010E-2,3.161134571E-2,5.497625098E-3
3.387251250E0,2.153236605E-2,3.161134571E-2,6.719320081E-3
3.389729479E0,2.153236605E-2,2.794626169E-2,7.941014133E-3
3.392208594E0,2.031067200E-2,2.916795574E-2,9.162709117E-3
3.394688489E0,2.031067200E-2,3.161134571E-2,9.162709117E-3
3.397167552E0,2.031067200E-2,3.527642787E-2,1.038440317E-2
3.399645781E0,1.786728203E-2,3.405473381E-2,9.162709117E-3
3.402124844E0,1.786728203E-2,3.283303976E-2,1.038440317E-2
3.404604791E0,1.908897609E-2,3.405473381E-2,1.038440317E-2
3.407083802E0,1.664558798E-2,3.527642787E-2,1.160609815E-2
3.409562083E0,1.664558798E-2,3.405473381E-2,1.038440317E-2
3.412041146E0,1.664558798E-2,3.649812192E-2,1.160609815E-2
3.414521094E0,1.542389300E-2,3.649812192E-2,9.162709117E-3
3.417000104E0,1.298050396E-2,4.138490185E-2,1.160609815E-2
3.419478385E0,1.298050396E-2,4.260659590E-2,1.160609815E-2
3.421957448E0,1.175880991E-2,4.504998401E-2,9.162709117E-3
3.424437396E0,1.175880991E-2,4.504998401E-2,6.719320081E-3
3.426916406E0,8.093725890E-3,4.627167806E-2,6.719320081E-3
3.429394687E0,6.872031838E-3,4.871506989E-2,5.497625098E-3
3.431873750E0,8.093725890E-3,4.993676394E-2,4.275931045E-3
3.434353698E0,6.872031838E-3,5.360184610E-2,6.108472589E-4
3.436832708E0,6.872031838E-3,5.360184610E-2,6.108472589E-4
3.439310989E0,5.650337320E-3,5.238015205E-2,-3.054236295E-3
3.441790052E0,5.650337320E-3,5.115845799E-2,-5.497625098E-3
3.444270000E0,4.428642802E-3,5.360184610E-2,-4.275931045E-3
3.446749010E0,4.428642802E-3,5.604523420E-2,-5.497625098E-3
3.449227291E0,5.650337320E-3,5.360184610E-2,-7.941014133E-3
3.451706354E0,6.872031838E-3,5.115845799E-2,-7.941014133E-3
3.454186302E0,6.872031838E-3,5.115845799E-2,-1.038440317E-2
3.456665312E0,5.650337320E-3,4.993676394E-2,-9.162709117E-3
3.459143594E0,4.428642802E-3,4.749337584E-2,-1.282779220E-2
3.461622656E0,5.650337320E-3,4.871506989E-2,-1.404948719E-2
3.464102604E0,3.206948051E-3,4.627167806E-2,-1.404948719E-2
3.466581614E0,3.206948051E-3,4.627167806E-2,-1.527118124E-2
3.469059896E0,7.635590737E-4,4.382828996E-2,-1.649287529E-2
3.471538958E0,-1.679830020E-3,4.382828996E-2,-1.893626526E-2
3.474018854E0,-4.123218823E-3,4.504998401E-2,-1.893626526E-2
3.476497916E0,-5.344913341E-3,4.382828996E-2,-2.015795931E-2
3.478976198E0,-5.344913341E-3,4.627167806E-2,-1.893626526E-2
3.481455260E0,-5.344913341E-3,4.504998401E-2,-2.137965336E-2
3.483935208E0,-6.566607859E-3,4.504998401E-2,-2.137965336E-2
3.486414219E0,-6.566607859E-3,4.749337584E-2,-2.382304333E-2
3.488892448E0,-6.566607859E-3,4.871506989E-2,-2.015795931E-2
3.491371562E0,-7.788302377E-3,4.871506989E-2,-2.137965336E-2
3.493851458E0,-9.009997360E-3,4.871506989E-2,-2.137965336E-2
3.496330521E0,-9.009997360E-3,4.993676394E-2,-2.015795931E-2
3.498808750E0,-9.009997360E-3,5.115845799E-2,-2.260134928E-2
3.501287864E0,-1.023169141E-2,5.115845799E-2,-2.137965336E-2
3.503767760E0,-7.788302377E-3,4.993676394E-2,-2.015795931E-2
3.506246823E0,-9.009997360E-3,4.871506989E-2,-2.015795931E-2
3.508725052E0,-1.023169141E-2,4.871506989E-2,-2.015795931E-2
3.511204166E0,-1.023169141E-2,4.749337584E-2,-1.893626526E-2
3.513684062E0,-1.023169141E-2,4.504998401E-2,-1.649287529E-2
3.516163073E0,-1.023169141E-2,4.504998401E-2,-1.771457121E-2
3.518641354E0,-1.145338640E-2,4.382828996E-2,-1.771457121E-2
3.521120416E0,-1.145338640E-2,4.260659590E-2,-1.649287529E-2
3.523600364E0,-1.145338640E-2,4.260659590E-2,-1.527118124E-2
3.526079375E0,-9.009997360E-3,4.382828996E-2,-1.527118124E-2
3.528557656E0,-7.788302377E-3,4.504998401E-2,-1.404948719E-2
3.531036719E0,-7.788302377E-3,4.138490185E-2,-1.404948719E-2
3.533516666E0,-6.566607859E-3,4.260659590E-2,-1.404948719E-2
3.535995677E0,-5.344913341E-3,4.382828996E-2,-1.282779220E-2
3.538473958E0,-4.123218823E-3,4.138490185E-2,-1.282779220E-2
3.540953021E0,-4.123218823E-3,4.260659590E-2,-1.404948719E-2
3.543432969E0,-1.679830020E-3,4.382828996E-2,-1.282779220E-2
3.545911979E0,-4.581354442E-4,4.627167806E-2,-1.282779220E-2
3.548390260E0,7.635590737E-4,4.382828996E-2,-1.282779220E-2
3.550869323E0,1.985253533E-3,4.627167806E-2,-1.282779220E-2
3.553349271E0,3.206948051E-3,4.504998401E-2,-1.282779220E-2
3.555828281E0,1.985253533E-3,4.749337584E-2,-1.160609815E-2
3.558306562E0,4.428642802E-3,4.504998401E-2,-1.160609815E-2
3.560785625E0,5.650337320E-3,4.504998401E-2,-1.038440317E-2
3.563265573E0,6.872031838E-3,4.382828996E-2,-1.038440317E-2
3.565744583E0,8.093725890E-3,4.627167806E-2,-9.162709117E-3
3.568222864E0,8.093725890E-3,4.504998401E-2,-9.162709117E-3
3.570701927E0,8.093725890E-3,4.504998401E-2,-7.941014133E-3
3.573181875E0,1.053711493E-2,4.382828996E-2,-6.719320081E-3
3.575660885E0,1.175880991E-2,4.138490185E-2,-7.941014133E-3
3.578139166E0,1.175880991E-2,3.771981969E-2,-6.719320081E-3
3.580618229E0,1.053711493E-2,3.649812192E-2,-5.497625098E-3
3.583098177E0,1.053711493E-2,3.283303976E-2,-5.497625098E-3
3.585577187E0,1.175880991E-2,3.405473381E-2,-6.719320081E-3
3.588055469E0,1.053711493E-2,3.161134571E-2,-6.719320081E-3
3.590534531E0,1.053711493E-2,3.038965166E-2,-6.719320081E-3
3.593014479E0,1.175880991E-2,2.916795574E-2,-4.275931045E-3
3.595493489E0,1.298050396E-2,2.672456764E-2,-4.275931045E-3
3.597971771E0,1.298050396E-2,2.794626169E-2,-4.275931045E-3
3.600450833E0,1.298050396E-2,2.672456764E-2,-4.275931045E-3
3.602930729E0,1.298050396E-2,2.794626169E-2,-3.054236295E-3
3.605409791E0,1.298050396E-2,2.428117767E-2,-3.054236295E-3
3.607888021E0,1.420219894E-2,2.672456764E-2,-3.054236295E-3
3.610367135E0,1.053711493E-2,2.305948362E-2,-3.054236295E-3
3.612847031E0,1.175880991E-2,2.305948362E-2,-1.832541777E-3
3.615326094E0,1.175880991E-2,2.305948362E-2,-3.054236295E-3
3.617804323E0,1.053711493E-2,2.183778957E-2,-6.108472589E-4
3.620283437E0,1.175880991E-2,2.061609551E-2,-1.832541777E-3
3.622763333E0,9.315420873E-3,2.061609551E-2,-1.832541777E-3
3.625242344E0,1.053711493E-2,1.817270555E-2,-6.108472589E-4
3.627720625E0,1.053711493E-2,1.939439960E-2,6.108472589E-4
3.630199739E0,1.175880991E-2,1.695101149E-2,-6.108472589E-4
3.632679635E0,1.298050396E-2,1.695101149E-2,6.108472589E-4
3.635158646E0,1.175880991E-2,1.572931744E-2,6.108472589E-4
3.637636927E0,1.298050396E-2,1.572931744E-2,-6.108472589E-4
3.640115989E0,1.298050396E-2,1.450762246E-2,6.108472589E-4
3.642595937E0,1.542389300E-2,1.206423342E-2,-6.108472589E-4
3.645074948E0,1.420219894E-2,1.328592747E-2,-6.108472589E-4
3.647553229E0,1.542389300E-2,1.328592747E-2,1.832541777E-3
3.650032291E0,1.664558798E-2,1.084253844E-2,6.108472589E-4
3.652512239E0,1.664558798E-2,9.620844387E-3,6.108472589E-4
3.654991250E0,1.664558798E-2,8.399149403E-3,1.832541777E-3
3.657469531E0,1.786728203E-2,8.399149403E-3,6.108472589E-4
3.659948594E0,1.908897609E-2,8.399149403E-3,1.832541777E-3
3.662428541E0,2.031067200E-2,4.734066315E-3,1.832541777E-3
3.664907552E0,2.275406010E-2,2.290677279E-3,1.832541777E-3
3.667385833E0,2.153236605E-2,3.512371797E-3,1.832541777E-3
3.669864896E0,2.153236605E-2,3.512371797E-3,1.832541777E-3
3.672344844E0,2.397575416E-2,3.512371797E-3,4.275931045E-3
3.674823854E0,2.519745007E-2,-1.527118147E-4,4.275931045E-3
3.677302135E0,2.519745007E-2,-1.527118147E-4,4.275931045E-3
3.679781198E0,2.519745007E-2,1.068982761E-3,5.497625098E-3
3.682261146E0,2.641914412E-2,-1.527118147E-4,4.275931045E-3
3.684740156E0,2.641914412E-2,-1.374406274E-3,4.275931045E-3
3.687218437E0,2.641914412E-2,-6.261184346E-3,4.275931045E-3
3.689697500E0,2.764083818E-2,-8.704573847E-3,5.497625098E-3
3.692177448E0,2.886253223E-2,-9.926267900E-3,5.497625098E-3
3.694656458E0,3.008422814E-2,-9.926267900E-3,6.719320081E-3
3.697134739E0,3.130592033E-2,-1.359135192E-2,7.941014133E-3
3.699613802E0,3.130592033E-2,-1.481304597E-2,9.162709117E-3
3.702093750E0,3.252761811E-2,-1.725643501E-2,9.162709117E-3
3.704572760E0,3.252761811E-2,-1.969982497E-2,1.038440317E-2
3.707051041E0,3.252761811E-2,-2.214321308E-2,9.162709117E-3
3.709530104E0,3.252761811E-2,-2.458660305E-2,1.038440317E-2
3.712010052E0,3.252761811E-2,-2.825168520E-2,1.038440317E-2
3.714489062E0,3.252761811E-2,-2.825168520E-2,1.160609815E-2
3.716967344E0,3.130592033E-2,-3.191677108E-2,1.160609815E-2
3.719446406E0,3.130592033E-2,-3.313846514E-2,1.160609815E-2
3.721926302E0,2.886253223E-2,-3.436015919E-2,1.160609815E-2
3.724405364E0,2.764083818E-2,-3.558185324E-2,1.160609815E-2
3.726883594E0,2.764083818E-2,-3.313846514E-2,1.282779220E-2
3.729362708E0,2.641914412E-2,-3.436015919E-2,1.160609815E-2
3.731842604E0,2.764083818E-2,-3.436015919E-2,1.282779220E-2
3.734321666E0,2.519745007E-2,-3.558185324E-2,9.162709117E-3
3.736799896E0,2.397575416E-2,-3.558185324E-2,9.162709117E-3
3.739279010E0,2.519745007E-2,-3.191677108E-2,9.162709117E-3
3.741758906E0,2.519745007E-2,-3.313846514E-2,9.162709117E-3
3.744237916E0,2.397575416E-2,-3.191677108E-2,7.941014133E-3
3.746716198E0,2.519745007E-2,-3.191677108E-2,7.941014133E-3
3.749195260E0,2.519745007E-2,-2.947338112E-2,5.497625098E-3
3.751675208E0,2.519745007E-2,-3.069507517E-2,6.719320081E-3
3.754154219E0,2.641914412E-2,-2.825168520E-2,6.719320081E-3
3.756632500E0,2.641914412E-2,-2.825168520E-2,5.497625098E-3
3.759111562E0,2.641914412E-2,-2.947338112E-2,4.275931045E-3
3.761591510E0,2.764083818E-2,-2.825168520E-2,4.275931045E-3
3.764070521E0,2.641914412E-2,-2.702999115E-2,4.275931045E-3
3.766548802E0,2.519745007E-2,-3.191677108E-2,4.275931045E-3
3.769027864E0,2.275406010E-2,-3.191677108E-2,4.275931045E-3
3.771507812E0,2.397575416E-2,-3.436015919E-2,4.275931045E-3
3.773986823E0,2.519745007E-2,-3.191677108E-2,4.275931045E-3
3.776465104E0,2.519745007E-2,-3.436015919E-2,3.054236295E-3
3.778944166E0,2.397575416E-2,-3.436015919E-2,5.497625098E-3
3.781424114E0,2.397575416E-2,-3.191677108E-2,4.275931045E-3
3.783903125E0,2.275406010E-2,-3.191677108E-2,5.497625098E-3
3.786381406E0,2.275406010E-2,-3.313846514E-2,4.275931045E-3
3.788860469E0,2.397575416E-2,-3.313846514E-2,4.275931045E-3
3.791340416E0,2.397575416E-2,-3.436015919E-2,4.275931045E-3
3.793819427E0,2.397575416E-2,-3.313846514E-2,4.275931045E-3
3.796297708E0,2.397575416E-2,-3.436015919E-2,5.497625098E-3
3.798776771E0,2.275406010E-2,-3.313846514E-2,5.497625098E-3
3.801256719E0,2.275406010E-2,-3.436015919E-2,3.054236295E-3
3.803735729E0,2.275406010E-2,-3.436015919E-2,7.941014133E-3
3.806214010E0,2.397575416E-2,-3.436015919E-2,6.719320081E-3
3.808693073E0,2.275406010E-2,-3.558185324E-2,9.162709117E-3
3.811173021E0,2.275406010E-2,-3.313846514E-2,1.038440317E-2
3.813652031E0,2.397575416E-2,-3.436015919E-2,1.038440317E-2
3.816130312E0,2.275406010E-2,-3.313846514E-2,1.160609815E-2
3.818609375E0,2.275406010E-2,-3.191677108E-2,1.160609815E-2
3.821089323E0,2.275406010E-2,-3.191677108E-2,1.038440317E-2
3.823568333E0,2.275406010E-2,-2.825168520E-2,1.282779220E-2
3.826046614E0,2.397575416E-2,-2.580829710E-2,1.160609815E-2
3.828525677E0,2.397575416E-2,-2.580829710E-2,1.282779220E-2
3.831005573E0,2.397575416E-2,-2.580829710E-2,1.282779220E-2
3.833484635E0,2.397575416E-2,-2.336490713E-2,1.282779220E-2
3.835962916E0,2.519745007E-2,-2.336490713E-2,1.160609815E-2
3.838441979E0,2.519745007E-2,-2.458660305E-2,1.282779220E-2
3.840921875E0,2.519745007E-2,-2.458660305E-2,1.404948719E-2
3.843400937E0,2.641914412E-2,-2.458660305E-2,1.282779220E-2
3.845879166E0,2.641914412E-2,-2.702999115E-2,1.160609815E-2
3.848358281E0,2.764083818E-2,-2.702999115E-2,1.404948719E-2
3.850838177E0,2.764083818E-2,-2.825168520E-2,1.404948719E-2
3.853317239E0,2.764083818E-2,-3.191677108E-2,1.404948719E-2
3.855795469E0,2.886253223E-2,-3.069507517E-2,1.527118124E-2
3.858274583E0,2.764083818E-2,-2.947338112E-2,1.527118124E-2
3.860754479E0,2.886253223E-2,-3.191677108E-2,1.404948719E-2
3.863233489E0,2.886253223E-2,-2.947338112E-2,1.404948719E-2
3.865711771E0,2.764083818E-2,-2.825168520E-2,1.527118124E-2
3.868190885E0,2.886253223E-2,-2.825168520E-2,1.404948719E-2
3.870670781E0,2.641914412E-2,-2.947338112E-2,1.404948719E-2
3.873149844E0,2.764083818E-2,-2.825168520E-2,1.404948719E-2
3.875628073E0,2.397575416E-2,-2.702999115E-2,1.527118124E-2
3.878107135E0,2.397575416E-2,-2.702999115E-2,1.527118124E-2
3.880587083E0,2.275406010E-2,-2.458660305E-2,1.649287529E-2
3.883066094E0,2.153236605E-2,-2.458660305E-2,1.649287529E-2
3.885544375E0,1.908897609E-2,-2.214321308E-2,1.649287529E-2
3.888023437E0,1.908897609E-2,-2.214321308E-2,1.527118124E-2
3.890503385E0,1.908897609E-2,-1.969982497E-2,1.527118124E-2
3.892982396E0,1.786728203E-2,-1.481304597E-2,1.282779220E-2
3.895460677E0,1.786728203E-2,-9.926267900E-3,1.404948719E-2
3.897939739E0,1.542389300E-2,-7.482878864E-3,1.282779220E-2
3.900419687E0,1.420219894E-2,-6.261184346E-3,1.282779220E-2
3.902898698E0,1.420219894E-2,-2.596100792E-3,1.160609815E-2
3.905376979E0,1.053711493E-2,-1.527118147E-4,1.282779220E-2
3.907856041E0,1.053711493E-2,3.512371797E-3,1.160609815E-2
3.910335989E0,1.053711493E-2,3.512371797E-3,1.038440317E-2
3.912815000E0,9.315420873E-3,4.734066315E-3,7.941014133E-3
3.915293281E0,8.093725890E-3,8.399149403E-3,6.719320081E-3
3.917772344E0,6.872031838E-3,1.084253844E-2,6.719320081E-3
3.920252291E0,8.093725890E-3,1.084253844E-2,5.497625098E-3
3.922731302E0,6.872031838E-3,1.450762246E-2,3.054236295E-3
3.925209583E0,4.428642802E-3,1.450762246E-2,4.275931045E-3
3.927688646E0,5.650337320E-3,1.328592747E-2,4.275931045E-3
3.930168594E0,3.206948051E-3,1.328592747E-2,3.054236295E-3
3.932647604E0,4.428642802E-3,1.328592747E-2,4.275931045E-3
3.935125885E0,3.206948051E-3,1.206423342E-2,3.054236295E-3
3.937604948E0,3.206948051E-3,9.620844387E-3,1.832541777E-3
3.940084896E0,3.206948051E-3,9.620844387E-3,6.108472589E-4
3.942563906E0,3.206948051E-3,9.620844387E-3,3.054236295E-3
3.945042187E0,5.650337320E-3,8.399149403E-3,1.832541777E-3
3.947521250E0,5.650337320E-3,5.955760833E-3,1.832541777E-3
3.950001146E0,5.650337320E-3,8.399149403E-3,6.108472589E-4
3.952480208E0,8.093725890E-3,4.734066315E-3,-6.108472589E-4
3.954958437E0,6.872031838E-3,5.955760833E-3,1.832541777E-3
3.957437552E0,6.872031838E-3,2.290677279E-3,3.054236295E-3
3.959917448E0,8.093725890E-3,1.068982761E-3,6.108472589E-4
3.962396510E0,6.872031838E-3,-1.527118147E-4,1.832541777E-3
3.964874739E0,8.093725890E-3,-1.374406274E-3,6.108472589E-4
3.967353854E0,6.872031838E-3,1.068982761E-3,6.108472589E-4
3.969833750E0,9.315420873E-3,-2.596100792E-3,6.108472589E-4
3.972312812E0,1.053711493E-2,-2.596100792E-3,6.108472589E-4
3.974791041E0,1.175880991E-2,-2.596100792E-3,1.832541777E-3
3.977270156E0,1.053711493E-2,-2.596100792E-3,3.054236295E-3
3.979750052E0,1.053711493E-2,-2.596100792E-3,1.832541777E-3
3.982229114E0,9.315420873E-3,-1.374406274E-3,1.832541777E-3
3.984707344E0,1.053711493E-2,-1.527118147E-4,1.832541777E-3
3.987186458E0,8.093725890E-3,2.290677279E-3,1.832541777E-3
3.989666354E0,9.315420873E-3,2.290677279E-3,3.054236295E-3
3.992145364E0,8.093725890E-3,3.512371797E-3,3.054236295E-3
3.994623646E0,8.093725890E-3,4.734066315E-3,3.054236295E-3
3.997102708E0,6.872031838E-3,7.177455351E-3,3.054236295E-3
3.999582656E0,6.872031838E-3,8.399149403E-3,4.275931045E-3
4.002061666E0,6.872031838E-3,1.084253844E-2,5.497625098E-3
4.004539948E0,8.093725890E-3,1.206423342E-2,3.054236295E-3
4.007019010E0,5.650337320E-3,1.328592747E-2,5.497625098E-3
4.009498958E0,5.650337320E-3,1.572931744E-2,4.275931045E-3
4.011977969E0,6.872031838E-3,1.695101149E-2,4.275931045E-3
4.014456250E0,8.093725890E-3,1.817270555E-2,4.275931045E-3
4.016935312E0,6.872031838E-3,1.939439960E-2,4.275931045E-3
4.019415260E0,5.650337320E-3,2.061609551E-2,5.497625098E-3
4.021894271E0,6.872031838E-3,2.061609551E-2,6.719320081E-3
4.024372552E0,5.650337320E-3,2.305948362E-2,6.719320081E-3
4.026851614E0,5.650337320E-3,2.305948362E-2,7.941014133E-3
4.029331562E0,6.872031838E-3,2.183778957E-2,9.162709117E-3
4.031810573E0,6.872031838E-3,2.061609551E-2,9.162709117E-3
4.034288854E0,5.650337320E-3,2.183778957E-2,1.038440317E-2
4.036767916E0,4.428642802E-3,2.061609551E-2,1.038440317E-2
4.039247864E0,4.428642802E-3,1.939439960E-2,1.038440317E-2
4.041726875E0,4.428642802E-3,1.939439960E-2,1.038440317E-2
4.044205156E0,5.650337320E-3,1.939439960E-2,1.038440317E-2
4.046684219E0,4.428642802E-3,1.817270555E-2,1.038440317E-2
4.049164166E0,3.206948051E-3,1.817270555E-2,9.162709117E-3
4.051643177E0,4.428642802E-3,1.817270555E-2,9.162709117E-3
4.054121458E0,4.428642802E-3,1.695101149E-2,9.162709117E-3
4.056600521E0,4.428642802E-3,1.572931744E-2,9.162709117E-3
4.059080469E0,5.650337320E-3,1.817270555E-2,7.941014133E-3
4.061559479E0,5.650337320E-3,1.817270555E-2,6.719320081E-3
4.064037760E0,3.206948051E-3,1.695101149E-2,7.941014133E-3
4.066516823E0,3.206948051E-3,1.572931744E-2,7.941014133E-3
4.068996719E0,4.428642802E-3,1.328592747E-2,7.941014133E-3
4.071475781E0,1.985253533E-3,1.450762246E-2,7.941014133E-3
4.073954010E0,-4.581354442E-4,1.328592747E-2,7.941014133E-3
4.076433125E0,-4.581354442E-4,1.084253844E-2,6.719320081E-3
4.078913021E0,-4.581354442E-4,9.620844387E-3,5.497625098E-3
4.081392083E0,-4.581354442E-4,8.399149403E-3,5.497625098E-3
4.083870312E0,-2.901524538E-3,7.177455351E-3,5.497625098E-3
4.086349427E0,-4.123218823E-3,8.399149403E-3,6.719320081E-3
4.088829323E0,-5.344913341E-3,7.177455351E-3,5.497625098E-3
4.091308333E0,-7.788302377E-3,8.399149403E-3,4.275931045E-3
4.093786614E0,-7.788302377E-3,7.177455351E-3,4.275931045E-3
4.096265729E0,-7.788302377E-3,9.620844387E-3,4.275931045E-3
4.098745625E0,-7.788302377E-3,7.177455351E-3,3.054236295E-3
4.101224635E0,-9.009997360E-3,9.620844387E-3,3.054236295E-3
4.103702916E0,-9.009997360E-3,1.206423342E-2,5.497625098E-3
4.106181979E0,-9.009997360E-3,1.206423342E-2,4.275931045E-3
4.108661927E0,-9.009997360E-3,1.206423342E-2,1.832541777E-3
4.111140937E0,-9.009997360E-3,1.328592747E-2,1.832541777E-3
4.113619219E0,-7.788302377E-3,9.620844387E-3,6.108472589E-4
4.116098281E0,-7.788302377E-3,8.399149403E-3,-6.108472589E-4
4.118578229E0,-7.788302377E-3,3.512371797E-3,1.832541777E-3
4.121057239E0,-5.344913341E-3,-1.527118147E-4,1.832541777E-3
4.123535521E0,-5.344913341E-3,-3.817795310E-3,1.832541777E-3
4.126014583E0,-4.123218823E-3,-5.039489828E-3,3.054236295E-3
4.128494531E0,-1.679830020E-3,-8.704573847E-3,4.275931045E-3
4.130973541E0,-4.581354442E-4,-1.481304597E-2,4.275931045E-3
4.133451823E0,-4.581354442E-4,-1.725643501E-2,4.275931045E-3
4.135930885E0,-4.581354442E-4,-1.969982497E-2,6.719320081E-3
4.138410833E0,7.635590737E-4,-2.336490713E-2,6.719320081E-3
4.140889844E0,1.985253533E-3,-2.580829710E-2,6.719320081E-3
4.143368125E0,3.206948051E-3,-2.580829710E-2,5.497625098E-3
4.145847187E0,3.206948051E-3,-2.947338112E-2,6.719320081E-3
4.148327135E0,4.428642802E-3,-3.069507517E-2,6.719320081E-3
4.150806146E0,5.650337320E-3,-3.069507517E-2,7.941014133E-3
4.153284427E0,5.650337320E-3,-3.313846514E-2,9.162709117E-3
4.155763489E0,8.093725890E-3,-3.313846514E-2,1.038440317E-2
4.158243437E0,8.093725890E-3,-3.191677108E-2,1.038440317E-2
4.160722448E0,8.093725890E-3,-3.313846514E-2,1.160609815E-2
4.163200729E0,9.315420873E-3,-3.191677108E-2,1.282779220E-2
4.165679791E0,9.315420873E-3,-2.947338112E-2,1.527118124E-2
4.168159739E0,9.315420873E-3,-2.947338112E-2,1.404948719E-2
4.170638750E0,9.315420873E-3,-2.825168520E-2,1.404948719E-2
4.173117031E0,9.315420873E-3,-2.580829710E-2,1.527118124E-2
4.175596094E0,9.315420873E-3,-2.580829710E-2,1.649287529E-2
4.178076041E0,8.093725890E-3,-2.336490713E-2,1.527118124E-2
4.180555052E0,8.093725890E-3,-2.092151903E-2,1.527118124E-2
4.183033281E0,6.872031838E-3,-1.847812906E-2,1.649287529E-2
4.185512396E0,8.093725890E-3,-1.725643501E-2,1.527118124E-2
4.187992291E0,8.093725890E-3,-1.481304597E-2,1.649287529E-2
4.190471354E0,6.872031838E-3,-1.236965694E-2,1.649287529E-2
4.192949583E0,6.872031838E-3,-1.114796288E-2,1.527118124E-2
4.195428698E0,6.872031838E-3,-8.704573847E-3,1.527118124E-2
4.197908594E0,8.093725890E-3,-1.114796288E-2,1.527118124E-2
4.200387656E0,8.093725890E-3,-9.926267900E-3,1.649287529E-2
4.202865885E0,6.872031838E-3,-9.926267900E-3,1.527118124E-2
4.205345000E0,8.093725890E-3,-1.114796288E-2,1.527118124E-2
4.207824896E0,6.872031838E-3,-1.359135192E-2,1.527118124E-2
4.210303906E0,5.650337320E-3,-1.725643501E-2,1.527118124E-2
4.212782187E0,5.650337320E-3,-1.969982497E-2,1.527118124E-2
4.215261250E0,6.872031838E-3,-2.092151903E-2,1.404948719E-2
4.217741198E0,5.650337320E-3,-2.092151903E-2,1.527118124E-2
4.220220208E0,3.206948051E-3,-2.458660305E-2,1.649287529E-2
4.222698489E0,3.206948051E-3,-2.580829710E-2,1.527118124E-2
4.225177552E0,3.206948051E-3,-2.702999115E-2,1.771457121E-2
4.227657500E0,3.206948051E-3,-2.947338112E-2,1.771457121E-2
4.230136510E0,7.635590737E-4,-2.825168520E-2,1.649287529E-2
4.232614791E0,-4.581354442E-4,-2.825168520E-2,1.771457121E-2
4.235093854E0,-4.581354442E-4,-2.702999115E-2,1.649287529E-2
4.237573802E0,-1.679830020E-3,-2.825168520E-2,1.649287529E-2
4.240052812E0,-1.679830020E-3,-2.580829710E-2,1.771457121E-2
4.242531094E0,-2.901524538E-3,-2.458660305E-2,1.649287529E-2
4.245010156E0,-2.901524538E-3,-2.214321308E-2,1.649287529E-2
4.247490104E0,-1.679830020E-3,-2.092151903E-2,1.649287529E-2
4.249969114E0,-1.679830020E-3,-1.725643501E-2,1.649287529E-2
4.252447396E0,-2.901524538E-3,-1.603474095E-2,1.527118124E-2
4.254926458E0,-2.901524538E-3,-1.359135192E-2,1.527118124E-2
4.257406406E0,-2.901524538E-3,-1.236965694E-2,1.282779220E-2
4.259885416E0,-4.123218823E-3,-9.926267900E-3,1.160609815E-2
4.262363698E0,-5.344913341E-3,-7.482878864E-3,1.404948719E-2
4.264842760E0,-5.344913341E-3,-3.817795310E-3,1.404948719E-2
4.267322708E0,-5.344913341E-3,-1.374406274E-3,1.282779220E-2
4.269801719E0,-4.123218823E-3,1.068982761E-3,1.282779220E-2
4.272280000E0,-4.123218823E-3,3.512371797E-3,1.160609815E-2
4.274759062E0,-5.344913341E-3,4.734066315E-3,1.160609815E-2
4.277239010E0,-4.123218823E-3,4.734066315E-3,1.038440317E-2
4.279718021E0,-2.901524538E-3,5.955760833E-3,1.038440317E-2
4.282196302E0,-2.901524538E-3,4.734066315E-3,1.038440317E-2
4.284675364E0,-1.679830020E-3,5.955760833E-3,1.160609815E-2
4.287155312E0,-4.581354442E-4,5.955760833E-3,1.160609815E-2
4.289634323E0,7.635590737E-4,4.734066315E-3,1.160609815E-2
4.292112552E0,1.985253533E-3,5.955760833E-3,1.282779220E-2
4.294591666E0,4.428642802E-3,4.734066315E-3,1.282779220E-2
4.297071562E0,4.428642802E-3,1.068982761E-3,1.404948719E-2
4.299550625E0,5.650337320E-3,3.512371797E-3,1.404948719E-2
4.302028854E0,4.428642802E-3,1.068982761E-3,1.527118124E-2
4.304507969E0,4.428642802E-3,-1.374406274E-3,1.649287529E-2
4.306987864E0,3.206948051E-3,-2.596100792E-3,1.527118124E-2
4.309466875E0,3.206948051E-3,-7.482878864E-3,1.649287529E-2
4.311945156E0,4.428642802E-3,-8.704573847E-3,1.771457121E-2
4.314424271E0,6.872031838E-3,-9.926267900E-3,1.771457121E-2
4.316904166E0,9.315420873E-3,-1.236965694E-2,1.649287529E-2
4.319383229E0,6.872031838E-3,-1.481304597E-2,1.893626526E-2
4.321861458E0,8.093725890E-3,-1.359135192E-2,2.015795931E-2
4.324340521E0,6.872031838E-3,-1.481304597E-2,2.015795931E-2
4.326820469E0,5.650337320E-3,-1.725643501E-2,2.137965336E-2
4.329299479E0,5.650337320E-3,-1.603474095E-2,2.015795931E-2
4.331777760E0,6.872031838E-3,-1.481304597E-2,1.893626526E-2
4.334256823E0,6.872031838E-3,-1.359135192E-2,1.893626526E-2
4.336736771E0,6.872031838E-3,-1.359135192E-2,1.893626526E-2
4.339215781E0,6.872031838E-3,-1.359135192E-2,1.771457121E-2
4.341694062E0,8.093725890E-3,-1.114796288E-2,1.649287529E-2
4.344173125E0,6.872031838E-3,-8.704573847E-3,1.649287529E-2
4.346653073E0,6.872031838E-3,-6.261184346E-3,1.527118124E-2
4.349132083E0,8.093725890E-3,-3.817795310E-3,1.527118124E-2
4.351610364E0,6.872031838E-3,-2.596100792E-3,1.527118124E-2
4.354089427E0,4.428642802E-3,-1.374406274E-3,1.404948719E-2
4.356569375E0,1.985253533E-3,2.290677279E-3,1.282779220E-2
4.359048385E0,1.985253533E-3,2.290677279E-3,1.404948719E-2
4.361526666E0,1.985253533E-3,2.290677279E-3,1.282779220E-2
4.364005729E0,7.635590737E-4,1.068982761E-3,1.160609815E-2
4.366485677E0,-4.581354442E-4,1.068982761E-3,1.038440317E-2
4.368964687E0,-1.679830020E-3,1.068982761E-3,1.038440317E-2
4.371442969E0,-4.123218823E-3,-1.527118147E-4,1.038440317E-2
4.373922031E0,-6.566607859E-3,1.068982761E-3,9.162709117E-3
4.376401979E0,-6.566607859E-3,-1.527118147E-4,7.941014133E-3
4.378880989E0,-9.009997360E-3,-1.527118147E-4,9.162709117E-3
4.381359271E0,-1.023169141E-2,-2.596100792E-3,6.719320081E-3
4.383838333E0,-1.023169141E-2,-2.596100792E-3,7.941014133E-3
4.386318281E0,-9.009997360E-3,-3.817795310E-3,6.719320081E-3
4.388797291E0,-1.023169141E-2,-5.039489828E-3,6.719320081E-3
4.391275573E0,-1.023169141E-2,-3.817795310E-3,6.719320081E-3
4.393754635E0,-1.145338640E-2,-2.596100792E-3,6.719320081E-3
4.396234583E0,-1.023169141E-2,-2.596100792E-3,6.719320081E-3
4.398713594E0,-1.145338640E-2,-2.596100792E-3,6.719320081E-3
4.401191875E0,-1.145338640E-2,1.068982761E-3,7.941014133E-3
4.403670937E0,-1.145338640E-2,-1.527118147E-4,7.941014133E-3
4.406150885E0,-1.389677543E-2,1.068982761E-3,6.719320081E-3
4.408629896E0,-1.389677543E-2,3.512371797E-3,7.941014133E-3
4.411108125E0,-1.389677543E-2,2.290677279E-3,7.941014133E-3
4.413587239E0,-1.389677543E-2,2.290677279E-3,6.719320081E-3
4.416067135E0,-1.267508045E-2,3.512371797E-3,6.719320081E-3
4.418546198E0,-1.389677543E-2,3.512371797E-3,6.719320081E-3
4.421024427E0,-1.511846948E-2,3.512371797E-3,7.941014133E-3
4.423503541E0,-1.389677543E-2,4.734066315E-3,6.719320081E-3
4.425983437E0,-1.389677543E-2,1.068982761E-3,6.719320081E-3
4.428462500E0,-1.267508045E-2,3.512371797E-3,6.719320081E-3
4.430940729E0,-1.145338640E-2,3.512371797E-3,5.497625098E-3
4.433419791E0,-9.009997360E-3,2.290677279E-3,3.054236295E-3
4.435899739E0,-1.023169141E-2,1.068982761E-3,4.275931045E-3
4.438378750E0,-7.788302377E-3,-1.374406274E-3,3.054236295E-3
4.440857031E0,-6.566607859E-3,1.068982761E-3,3.054236295E-3
4.443336094E0,-6.566607859E-3,-2.596100792E-3,3.054236295E-3
4.445816041E0,-4.123218823E-3,-5.039489828E-3,3.054236295E-3
4.448295052E0,-1.679830020E-3,-7.482878864E-3,4.275931045E-3
4.450773333E0,-1.679830020E-3,-7.482878864E-3,4.275931045E-3
4.453252396E0,-1.679830020E-3,-1.236965694E-2,4.275931045E-3
4.455732344E0,-1.679830020E-3,-1.236965694E-2,5.497625098E-3
4.458211354E0,-4.581354442E-4,-1.481304597E-2,5.497625098E-3
4.460689635E0,7.635590737E-4,-1.603474095E-2,6.719320081E-3
4.463168698E0,-4.581354442E-4,-1.603474095E-2,5.497625098E-3
4.465648646E0,-4.581354442E-4,-1.603474095E-2,5.497625098E-3
4.468127656E0,7.635590737E-4,-1.725643501E-2,4.275931045E-3
4.470605937E0,-4.581354442E-4,-1.603474095E-2,5.497625098E-3
4.473085000E0,-4.581354442E-4,-1.481304597E-2,4.275931045E-3
4.475564948E0,-4.581354442E-4,-1.481304597E-2,6.719320081E-3
4.478043958E0,-1.679830020E-3,-1.236965694E-2,4.275931045E-3
4.480522239E0,-2.901524538E-3,-1.236965694E-2,4.275931045E-3
4.483001302E0,-4.123218823E-3,-1.114796288E-2,6.719320081E-3
4.485481250E0,-2.901524538E-3,-9.926267900E-3,5.497625098E-3
4.487960260E0,-4.123218823E-3,-6.261184346E-3,1.832541777E-3
4.490438541E0,-4.123218823E-3,-2.596100792E-3,4.275931045E-3
4.492917604E0,-2.901524538E-3,-1.374406274E-3,3.054236295E-3
4.495397552E0,-5.344913341E-3,1.068982761E-3,3.054236295E-3
4.497876562E0,-7.788302377E-3,3.512371797E-3,4.275931045E-3
4.500354844E0,-7.788302377E-3,8.399149403E-3,1.832541777E-3
4.502833906E0,-7.788302377E-3,9.620844387E-3,1.832541777E-3
4.505313854E0,-6.566607859E-3,1.084253844E-2,3.054236295E-3
4.507792864E0,-6.566607859E-3,1.206423342E-2,3.054236295E-3
4.510271094E0,-6.566607859E-3,1.328592747E-2,1.832541777E-3
4.512750208E0,-7.788302377E-3,1.450762246E-2,6.108472589E-4
4.515230104E0,-6.566607859E-3,1.328592747E-2,6.108472589E-4
4.517709166E0,-6.566607859E-3,1.206423342E-2,1.832541777E-3
4.520187396E0,-5.344913341E-3,1.084253844E-2,1.832541777E-3
4.522666510E0,-2.901524538E-3,1.084253844E-2,3.054236295E-3
4.525146406E0,-2.901524538E-3,9.620844387E-3,5.497625098E-3
4.527625469E0,-2.901524538E-3,7.177455351E-3,5.497625098E-3
4.530103698E0,-2.901524538E-3,7.177455351E-3,5.497625098E-3
4.532582812E0,-1.679830020E-3,5.955760833E-3,4.275931045E-3
4.535062708E0,7.635590737E-4,4.734066315E-3,5.497625098E-3
4.537541771E0,-4.581354442E-4,3.512371797E-3,5.497625098E-3
4.540020000E0,-2.901524538E-3,4.734066315E-3,6.719320081E-3
4.542499062E0,-2.901524538E-3,2.290677279E-3,5.497625098E-3
4.544979010E0,-2.901524538E-3,2.290677279E-3,5.497625098E-3
4.547458021E0,-2.901524538E-3,2.290677279E-3,4.275931045E-3
4.549936302E0,-5.344913341E-3,4.734066315E-3,6.719320081E-3
4.552415364E0,-5.344913341E-3,3.512371797E-3,5.497625098E-3
4.554895312E0,-5.344913341E-3,3.512371797E-3,4.275931045E-3
4.557374323E0,-6.566607859E-3,4.734066315E-3,5.497625098E-3
4.559852604E0,-7.788302377E-3,3.512371797E-3,3.054236295E-3
4.562331666E0,-9.009997360E-3,7.177455351E-3,3.054236295E-3
4.564811614E0,-1.023169141E-2,8.399149403E-3,3.054236295E-3
4.567290625E0,-1.145338640E-2,1.206423342E-2,4.275931045E-3
4.569768906E0,-1.267508045E-2,1.206423342E-2,6.108472589E-4
4.572247969E0,-1.267508045E-2,1.450762246E-2,6.108472589E-4
4.574727916E0,-1.267508045E-2,1.695101149E-2,-6.108472589E-4
4.577206927E0,-1.267508045E-2,1.939439960E-2,6.108472589E-4
4.579685208E0,-1.267508045E-2,2.428117767E-2,-6.108472589E-4
4.582164271E0,-1.145338640E-2,2.428117767E-2,-6.108472589E-4
4.584644219E0,-1.267508045E-2,2.672456764E-2,-1.832541777E-3
4.587123229E0,-1.145338640E-2,2.550287358E-2,-1.832541777E-3
4.589601510E0,-1.145338640E-2,2.672456764E-2,-3.054236295E-3
4.592080573E0,-1.023169141E-2,2.672456764E-2,-1.832541777E-3
4.594560521E0,-1.023169141E-2,2.672456764E-2,-3.054236295E-3
4.597039531E0,-9.009997360E-3,2.428117767E-2,-6.108472589E-4
4.599517812E0,-7.788302377E-3,2.428117767E-2,-3.054236295E-3
4.601996875E0,-1.023169141E-2,2.550287358E-2,-6.108472589E-4
4.604476823E0,-1.023169141E-2,2.183778957E-2,-6.108472589E-4
4.606955833E0,-1.023169141E-2,2.183778957E-2,1.832541777E-3
4.609434114E0,-9.009997360E-3,2.061609551E-2,6.108472589E-4
4.611913177E0,-9.009997360E-3,1.817270555E-2,6.108472589E-4
4.614393125E0,-7.788302377E-3,1.695101149E-2,1.832541777E-3
4.616872135E0,-7.788302377E-3,1.695101149E-2,6.108472589E-4
4.619350416E0,-7.788302377E-3,1.572931744E-2,3.054236295E-3
4.621829479E0,-7.788302377E-3,1.328592747E-2,6.108472589E-4
4.624309375E0,-1.145338640E-2,1.450762246E-2,6.108472589E-4
4.626788437E0,-1.023169141E-2,1.450762246E-2,6.108472589E-4
4.629266719E0,-1.023169141E-2,1.572931744E-2,3.054236295E-3
4.631745781E0,-1.145338640E-2,1.572931744E-2,-6.108472589E-4
4.634225677E0,-1.145338640E-2,1.572931744E-2,-6.108472589E-4
4.636704739E0,-1.145338640E-2,1.450762246E-2,-6.108472589E-4
4.639182969E0,-1.267508045E-2,1.695101149E-2,-1.832541777E-3
4.641662083E0,-1.267508045E-2,1.695101149E-2,-6.108472589E-4
4.644141979E0,-1.389677543E-2,1.572931744E-2,-1.832541777E-3
4.646621041E0,-1.145338640E-2,1.572931744E-2,-3.054236295E-3
4.649099271E0,-1.267508045E-2,1.695101149E-2,-1.832541777E-3
4.651578385E0,-1.389677543E-2,1.572931744E-2,-1.832541777E-3
4.654058281E0,-1.267508045E-2,1.695101149E-2,-1.832541777E-3
4.656537291E0,-1.023169141E-2,1.572931744E-2,-1.832541777E-3
4.659015573E0,-1.145338640E-2,1.328592747E-2,-1.832541777E-3
4.661494635E0,-1.023169141E-2,1.206423342E-2,-1.832541777E-3
4.663974583E0,-1.023169141E-2,1.206423342E-2,-1.832541777E-3
4.666453594E0,-1.023169141E-2,1.084253844E-2,-1.832541777E-3
4.668931875E0,-1.023169141E-2,8.399149403E-3,-1.832541777E-3
4.671410937E0,-7.788302377E-3,4.734066315E-3,-1.832541777E-3
4.673890885E0,-9.009997360E-3,4.734066315E-3,6.108472589E-4
4.676369896E0,-6.566607859E-3,3.512371797E-3,-6.108472589E-4
4.678848177E0,-7.788302377E-3,3.512371797E-3,-1.832541777E-3
4.681327239E0,-6.566607859E-3,3.512371797E-3,6.108472589E-4
4.683807187E0,-5.344913341E-3,2.290677279E-3,-6.108472589E-4
4.686286198E0,-4.123218823E-3,1.068982761E-3,6.108472589E-4
4.688764479E0,-4.123218823E-3,2.290677279E-3,1.832541777E-3
4.691243541E0,-2.901524538E-3,1.068982761E-3,6.108472589E-4
4.693723489E0,-1.679830020E-3,1.068982761E-3,6.108472589E-4
4.696202500E0,-1.679830020E-3,1.068982761E-3,3.054236295E-3
4.698680781E0,-4.581354442E-4,-1.374406274E-3,3.054236295E-3
4.701159844E0,7.635590737E-4,-1.374406274E-3,4.275931045E-3
4.703639791E0,1.985253533E-3,-2.596100792E-3,4.275931045E-3
4.706118802E0,7.635590737E-4,-2.596100792E-3,5.497625098E-3
4.708597083E0,1.985253533E-3,-1.527118147E-4,4.275931045E-3
4.711076146E0,7.635590737E-4,-2.596100792E-3,4.275931045E-3
4.713556094E0,-4.581354442E-4,-1.374406274E-3,7.941014133E-3
4.716035104E0,-2.901524538E-3,-1.527118147E-4,7.941014133E-3
4.718513385E0,-4.581354442E-4,2.290677279E-3,7.941014133E-3
4.720992448E0,-4.581354442E-4,3.512371797E-3,6.719320081E-3
4.723472396E0,-4.581354442E-4,2.290677279E-3,6.719320081E-3
4.725951406E0,-4.581354442E-4,2.290677279E-3,6.719320081E-3
4.728429687E0,-4.581354442E-4,2.290677279E-3,5.497625098E-3
4.730908750E0,-4.581354442E-4,1.068982761E-3,7.941014133E-3
4.733388646E0,-4.581354442E-4,1.068982761E-3,6.719320081E-3
4.735867708E0,-1.679830020E-3,-1.527118147E-4,5.497625098E-3
4.738345937E0,7.635590737E-4,1.068982761E-3,6.719320081E-3
4.740825052E0,7.635590737E-4,1.068982761E-3,7.941014133E-3
4.743304948E0,7.635590737E-4,-1.527118147E-4,7.941014133E-3
4.745784010E0,7.635590737E-4,-1.527118147E-4,7.941014133E-3
4.748262239E0,7.635590737E-4,-1.527118147E-4,9.162709117E-3
4.750741302E0,1.985253533E-3,-2.596100792E-3,9.162709117E-3
4.753221250E0,1.985253533E-3,1.068982761E-3,6.719320081E-3
4.755700260E0,-4.581354442E-4,1.068982761E-3,7.941014133E-3
4.758178541E0,-4.581354442E-4,1.068982761E-3,7.941014133E-3
4.760657656E0,-1.679830020E-3,2.290677279E-3,6.719320081E-3
4.763137552E0,-1.679830020E-3,2.290677279E-3,6.719320081E-3
4.765616562E0,-4.123218823E-3,4.734066315E-3,6.719320081E-3
4.768094844E0,-2.901524538E-3,3.512371797E-3,6.719320081E-3
4.770573906E0,-2.901524538E-3,2.290677279E-3,5.497625098E-3
4.773053854E0,-5.344913341E-3,1.068982761E-3,5.497625098E-3
4.775532864E0,-7.788302377E-3,2.290677279E-3,5.497625098E-3
4.778011146E0,-7.788302377E-3,2.290677279E-3,5.497625098E-3
4.780490208E0,-1.023169141E-2,-1.527118147E-4,4.275931045E-3
4.782970156E0,-1.145338640E-2,2.290677279E-3,5.497625098E-3
4.785449166E0,-1.145338640E-2,1.068982761E-3,4.275931045E-3
4.787927448E0,-1.145338640E-2,3.512371797E-3,4.275931045E-3
4.790406510E0,-1.267508045E-2,1.068982761E-3,4.275931045E-3
4.792886458E0,-1.389677543E-2,1.068982761E-3,4.275931045E-3
4.795365469E0,-1.389677543E-2,-1.374406274E-3,3.054236295E-3
4.797843750E0,-1.389677543E-2,-1.374406274E-3,4.275931045E-3
4.800322812E0,-1.389677543E-2,-1.527118147E-4,5.497625098E-3
4.802802760E0,-1.267508045E-2,-1.374406274E-3,4.275931045E-3
4.805281771E0,-1.267508045E-2,1.068982761E-3,4.275931045E-3
4.807760052E0,-1.267508045E-2,-1.374406274E-3,4.275931045E-3
4.810239114E0,-1.145338640E-2,-3.817795310E-3,3.054236295E-3
4.812719062E0,-1.145338640E-2,-3.817795310E-3,3.054236295E-3
4.815198073E0,-1.023169141E-2,-2.596100792E-3,3.054236295E-3
4.817676354E0,-1.023169141E-2,-2.596100792E-3,3.054236295E-3
4.820155416E0,-1.023169141E-2,-2.596100792E-3,4.275931045E-3
4.822635364E0,-9.009997360E-3,-3.817795310E-3,1.832541777E-3
4.825114375E0,-9.009997360E-3,-3.817795310E-3,1.832541777E-3
4.827592656E0,-7.788302377E-3,-2.596100792E-3,1.832541777E-3
4.830071719E0,-9.009997360E-3,-2.596100792E-3,6.108472589E-4
4.832551666E0,-7.788302377E-3,-3.817795310E-3,-6.108472589E-4
4.835030677E0,-7.788302377E-3,-3.817795310E-3,-6.108472589E-4
4.837508958E0,-7.788302377E-3,-1.374406274E-3,-1.832541777E-3
4.839988021E0,-7.788302377E-3,-3.817795310E-3,-3.054236295E-3
4.842467916E0,-6.566607859E-3,-3.817795310E-3,-6.108472589E-4
4.844946979E0,-6.566607859E-3,-3.817795310E-3,-1.832541777E-3
4.847425208E0,-5.344913341E-3,-6.261184346E-3,-1.832541777E-3
4.849904323E0,-4.123218823E-3,-5.039489828E-3,-3.054236295E-3
4.852384219E0,-4.123218823E-3,-7.482878864E-3,-3.054236295E-3
4.854863281E0,-4.123218823E-3,-7.482878864E-3,-3.054236295E-3
4.857341510E0,-1.679830020E-3,-6.261184346E-3,-1.832541777E-3
4.859820625E0,-1.679830020E-3,-7.482878864E-3,-1.832541777E-3
4.862300521E0,7.635590737E-4,-6.261184346E-3,-3.054236295E-3
4.864779531E0,1.985253533E-3,-7.482878864E-3,-6.108472589E-4
4.867257812E0,-4.581354442E-4,-8.704573847E-3,-1.832541777E-3
4.869736875E0,1.985253533E-3,-7.482878864E-3,-6.108472589E-4
4.872216823E0,7.635590737E-4,-7.482878864E-3,-1.832541777E-3
4.874695833E0,7.635590737E-4,-1.114796288E-2,-3.054236295E-3
4.877174114E0,7.635590737E-4,-1.114796288E-2,-1.832541777E-3
4.879653177E0,-4.581354442E-4,-8.704573847E-3,-6.108472589E-4
4.882133125E0,-2.901524538E-3,-9.926267900E-3,6.108472589E-4
4.884612135E0,-2.901524538E-3,-8.704573847E-3,-6.108472589E-4
4.887090416E0,-2.901524538E-3,-8.704573847E-3,-6.108472589E-4
4.889569479E0,-2.901524538E-3,-7.482878864E-3,6.108472589E-4
4.892049427E0,-5.344913341E-3,-7.482878864E-3,-6.108472589E-4
4.894528437E0,-4.123218823E-3,-5.039489828E-3,-6.108472589E-4
4.897006719E0,-5.344913341E-3,-3.817795310E-3,-6.108472589E-4
4.899485781E0,-6.566607859E-3,-1.374406274E-3,-6.108472589E-4
4.901965729E0,-6.566607859E-3,-1.527118147E-4,-6.108472589E-4
4.904444739E0,-5.344913341E-3,2.290677279E-3,-6.108472589E-4
4.906923021E0,-5.344913341E-3,5.955760833E-3,6.108472589E-4
4.909402083E0,-5.344913341E-3,8.399149403E-3,-6.108472589E-4
4.911882031E0,-6.566607859E-3,9.620844387E-3,-6.108472589E-4
4.914361041E0,-7.788302377E-3,1.206423342E-2,-3.054236295E-3
4.916839323E0,-7.788302377E-3,1.206423342E-2,-1.832541777E-3
4.919318385E0,-9.009997360E-3,1.450762246E-2,-3.054236295E-3
4.921798333E0,-9.009997360E-3,1.206423342E-2,-3.054236295E-3
4.924277344E0,-7.788302377E-3,1.206423342E-2,-3.054236295E-3
4.926755625E0,-7.788302377E-3,9.620844387E-3,-5.497625098E-3
4.929234687E0,-1.023169141E-2,7.177455351E-3,-3.054236295E-3
4.931714635E0,-9.009997360E-3,7.177455351E-3,-3.054236295E-3
4.934193646E0,-1.023169141E-2,4.734066315E-3,-6.108472589E-4
4.936671927E0,-1.145338640E-2,4.734066315E-3,-1.832541777E-3
4.939150989E0,-1.389677543E-2,1.068982761E-3,-6.108472589E-4
4.941630885E0,-1.389677543E-2,-1.374406274E-3,-6.108472589E-4
4.944109948E0,-1.511846948E-2,-1.374406274E-3,-6.108472589E-4
4.946588177E0,-1.389677543E-2,-2.596100792E-3,-6.108472589E-4
4.949067291E0,-1.267508045E-2,-1.374406274E-3,6.108472589E-4
4.951547239E0,-1.389677543E-2,-2.596100792E-3,6.108472589E-4
4.954026250E0,-1.389677543E-2,-1.527118147E-4,-6.108472589E-4
4.956504479E0,-1.267508045E-2,2.290677279E-3,-6.108472589E-4
4.958983594E0,-1.389677543E-2,2.290677279E-3,-6.108472589E-4
4.961463489E0,-1.389677543E-2,1.068982761E-3,-6.108472589E-4
4.963942552E0,-1.389677543E-2,1.068982761E-3,-1.832541777E-3
4.966420781E0,-1.267508045E-2,2.290677279E-3,-1.832541777E-3
4.968899896E0,-1.389677543E-2,4.734066315E-3,-1.832541777E-3
4.971379791E0,-1.389677543E-2,3.512371797E-3,-1.832541777E-3
4.973858802E0,-1.389677543E-2,5.955760833E-3,-3.054236295E-3
4.976337083E0,-1.389677543E-2,5.955760833E-3,-1.832541777E-3
4.978816146E0,-1.389677543E-2,5.955760833E-3,-3.054236295E-3
4.981296094E0,-1.511846948E-2,7.177455351E-3,-3.054236295E-3
4.983775104E0,-1.267508045E-2,5.955760833E-3,-3.054236295E-3
4.986253385E0,-1.145338640E-2,9.620844387E-3,-1.832541777E-3
4.988732448E0,-1.267508045E-2,8.399149403E-3,-1.832541777E-3
4.991212396E0,-1.145338640E-2,7.177455351E-3,-1.832541777E-3
4.993691406E0,-1.023169141E-2,5.955760833E-3,-3.054236295E-3
4.996169687E0,-9.009997360E-3,5.955760833E-3,-3.054236295E-3
4.998648750E0,-7.788302377E-3,3.512371797E-3,-3.054236295E-3
5.001128698E0,-5.344913341E-3,4.734066315E-3,-1.832541777E-3
5.003607708E0,-2.901524538E-3,3.512371797E-3,-1.832541777E-3
5.006085989E0,-1.679830020E-3,4.734066315E-3,-4.275931045E-3
5.008565052E0,-4.581354442E-4,4.734066315E-3,-1.832541777E-3
5.011045000E0,1.985253533E-3,2.290677279E-3,6.108472589E-4
5.013524010E0,3.206948051E-3,2.290677279E-3,6.108472589E-4
5.016002291E0,4.428642802E-3,1.068982761E-3,3.054236295E-3
5.018481354E0,5.650337320E-3,2.290677279E-3,1.832541777E-3
5.020961302E0,4.428642802E-3,-1.527118147E-4,3.054236295E-3
5.023440312E0,5.650337320E-3,-1.374406274E-3,4.275931045E-3
5.025918594E0,8.093725890E-3,-1.527118147E-4,5.497625098E-3
5.028397656E0,9.315420873E-3,1.068982761E-3,6.719320081E-3
5.030877604E0,8.093725890E-3,-1.527118147E-4,6.719320081E-3
5.033356614E0,8.093725890E-3,2.290677279E-3,5.497625098E-3
5.035834896E0,9.315420873E-3,1.068982761E-3,6.719320081E-3
5.038313958E0,1.053711493E-2,1.068982761E-3,7.941014133E-3
5.040793906E0,8.093725890E-3,-1.527118147E-4,5.497625098E-3
5.043272916E0,9.315420873E-3,-1.527118147E-4,7.941014133E-3
5.045751198E0,9.315420873E-3,1.068982761E-3,7.941014133E-3
