Time (s),Gyroscope x (rad/s),Gyroscope y (rad/s),Gyroscope z (rad/s)
66.86406395,-0.001597849536,-0.06684337556,-0.008255556226
66.86653791,-0.001597849536,-0.06684337556,-0.006125089712
66.86901212,-0.002663082443,-0.06684337556,-0.009320789017
66.8714864,-0.0005326165119,-0.06790860742,-0.0114512546
66.87396062,-0.002663082443,-0.06364767253,-0.003994623665
66.87643489,-0.0037283157,-0.06258244067,-0.0007989247679
66.8789091,-0.00798924733,-0.06577813625,-0.002929390874
66.88138332,-0.01011971384,-0.06577813625,-0.003994623665
66.88385759,-0.00798924733,-0.06258244067,0.001331541222
66.88633181,-0.00798924733,-0.06364767253,0.002396774245
66.88880608,-0.01011971384,-0.06258244067,0.000266308256
66.8912803,-0.009054481052,-0.06151720881,0.004527240526
66.89375457,-0.00798924733,-0.05832150951,0.004527240526
66.89622884,-0.00798924733,-0.05938674137,0.001331541222
66.89870306,-0.006924014539,-0.05938674137,0.001331541222
66.90117733,-0.01011971384,-0.05725627393,0.002396774245
66.90365155,-0.01118494663,-0.05619104207,0.002396774245
66.90612582,-0.009054481052,-0.05619104207,0.002396774245
66.90860004,-0.01011971384,-0.05832150951,-0.00186415785
66.91107426,-0.01011971384,-0.05512581021,0.001331541222
66.91354853,-0.00798924733,-0.05406057462,0.003462007269
66.91602275,-0.00798924733,-0.05086487532,0.000266308256
66.91849702,-0.004793548491,-0.04979964346,-0.00186415785
66.92097124,-0.004793548491,-0.04660394415,0.005592473317
66.92344551,-0.005858781748,-0.05086487532,0.001331541222
66.92592025,-0.006924014539,-0.04979964346,-0.002929390874
66.92839447,-0.00798924733,-0.05299534276,0.000266308256
66.93086874,-0.006924014539,-0.0487344116,-0.002929390874
66.93334296,-0.005858781748,-0.05086487532,-0.005059856921
66.93581723,-0.002663082443,-0.04766917601,-0.007190322969
66.93829145,-0.0005326165119,-0.04660394415,-0.007190322969
66.94076567,-0.0005326165119,-0.0487344116,-0.008255556226
66.94323994,0.0005326165119,-0.04553871229,-0.005059856921
66.94571416,-0.001597849536,-0.04660394415,-0.01038602181
66.94818843,-0.001597849536,-0.04340824485,-0.009320789017
66.95066265,-0.0005326165119,-0.04340824485,-0.007190322969
66.95313692,0.002663082443,-0.04447348043,-0.01038602181
66.95561312,0.0037283157,-0.04021254554,-0.007190322969
66.95808733,0.002663082443,-0.04127778113,-0.01038602181
66.9605616,0.004793548491,-0.04127778113,-0.0114512546
66.96303582,0.004793548491,-0.03808208182,-0.01251648832
66.96551009,0.0037283157,-0.03701684624,-0.008255556226
66.96798431,0.005858781748,-0.03595161438,-0.009320789017
66.97045853,0.004793548491,-0.03275591508,-0.01358172111
66.9729328,0.0037283157,-0.02956021577,-0.009320789017
66.97540702,0.001597849536,-0.02742975019,-0.0146469539
66.97788129,0.0037283157,-0.02849498391,-0.01784265228
66.98035551,0.005858781748,-0.02636451647,-0.01038602181
66.98282973,0.005858781748,-0.02529928461,-0.009320789017
66.98530108,0.005858781748,-0.0221035853,-0.01038602181
66.9877753,0.00798924733,-0.01997311972,-0.008255556226
66.99024957,0.004793548491,-0.01784265228,-0.006125089712
66.99272379,0.004793548491,-0.01677742042,-0.009320789017
66.99519806,0.00798924733,-0.01358172111,-0.008255556226
66.99767228,0.005858781748,-0.0146469539,-0.01038602181
67.0001465,0.004793548491,-0.0146469539,-0.005059856921
67.00262077,0.0037283157,-0.0114512546,-0.005059856921
67.00509499,0.0005326165119,-0.01251648832,-0.003994623665
67.00756926,-0.0005326165119,-0.0114512546,-0.006125089712
67.01004348,0.001597849536,-0.0114512546,-0.007190322969
67.0125177,0.0005326165119,-0.009320789017,-0.006125089712
67.01499238,-0.0005326165119,-0.009320789017,-0.00186415785
67.0174666,-0.0005326165119,-0.009320789017,-0.002929390874
67.01994088,0.0005326165119,-0.009320789017,-0.006125089712
67.02241509,-0.001597849536,-0.01038602181,-0.003994623665
67.02488936,-0.0005326165119,-0.005059856921,-0.003994623665
67.02736358,-0.001597849536,-0.003994623665,-0.006125089712
67.0298378,-0.0037283157,-0.006125089712,-0.002929390874
67.03231207,-0.0037283157,-0.006125089712,-0.003994623665
67.03478629,-0.005858781748,-0.003994623665,-0.002929390874
67.03726056,-0.002663082443,-0.005059856921,-0.002929390874
67.03973478,-0.0037283157,-0.00186415785,-0.002929390874
67.04220905,-0.006924014539,-0.005059856921,-0.00186415785
67.04468145,-0.002663082443,-0.00186415785,-0.002929390874
67.04715567,-0.0037283157,-0.0007989247679,-0.005059856921
67.04962994,-0.004793548491,-0.00186415785,-0.003994623665
67.05210416,-0.0037283157,-0.0007989247679,-0.0007989247679
67.05457843,-0.004793548491,0.000266308256,0.001331541222
67.05705265,-0.004793548491,0.001331541222,0.000266308256
67.05952687,-0.005858781748,0.000266308256,-0.002929390874
67.06200114,-0.004793548491,0.001331541222,-0.002929390874
67.06447535,-0.0005326165119,0.005592473317,-0.005059856921
67.06694962,-0.004793548491,0.004527240526,-0.00186415785
67.06942384,-0.0037283157,0.004527240526,-0.002929390874
67.07189812,-0.002663082443,0.006657706574,-0.005059856921
67.0743764,-0.002663082443,0.004527240526,0.001331541222
67.07685062,-0.002663082443,0.005592473317,0.000266308256
67.07932488,-0.0037283157,0.005592473317,-0.0007989247679
67.08179905,-0.001597849536,0.004527240526,-0.0007989247679
67.08427332,-0.001597849536,0.008788172156,-0.002929390874
67.08674759,-0.0005326165119,0.01198387146,0.000266308256
67.08922181,-0.002663082443,0.009853405878,0.000266308256
67.09169608,-0.001597849536,0.01198387146,0.000266308256
67.0941703,-0.002663082443,0.01517957076,-0.002929390874
67.09664457,-0.0037283157,0.01411433797,0.000266308256
67.09911879,-0.0005326165119,0.01304910425,0.002396774245
67.10159306,-0.002663082443,0.01304910425,0.002396774245
67.10407817,-0.0037283157,0.01304910425,0.004527240526
67.10655238,-0.001597849536,0.01624480449,0.002396774245
67.10902666,-0.001597849536,0.01304910425,-0.0007989247679
67.11150088,-0.001597849536,0.01517957076,-0.00186415785
67.11397515,-0.001597849536,0.01624480449,0.002396774245
67.11644937,0.0005326165119,0.01837527007,0.000266308256
67.11892358,-0.0037283157,0.01731003635,-0.003994623665
67.12139785,-0.004793548491,0.01517957076,-0.00186415785
67.12387207,-0.0005326165119,0.01731003635,-0.002929390874
67.12634634,-0.0005326165119,0.01837527007,-0.002929390874
67.12882056,-0.001597849536,0.01517957076,-0.0007989247679
67.13129483,-0.0005326165119,0.01624480449,-0.0007989247679
67.13375843,0.0005326165119,0.01837527007,-0.0007989247679
67.13623265,-0.001597849536,0.01944050193,-0.0007989247679
67.13870692,0.0005326165119,0.02157096937,-0.0007989247679
67.14118114,-0.002663082443,0.02050573565,-0.00186415785
67.14365541,-0.001597849536,0.01837527007,-0.003994623665
67.14612962,-0.002663082443,0.01731003635,-0.002929390874
67.14860384,-0.002663082443,0.01837527007,-0.005059856921
67.15107806,-0.0037283157,0.01837527007,-0.005059856921
67.15355233,-0.002663082443,0.01624480449,-0.003994623665
67.1560266,-0.0005326165119,0.01517957076,-0.003994623665
67.15850082,-0.001597849536,0.01517957076,-0.002929390874
67.16097509,-0.004793548491,0.01411433797,-0.006125089712
67.16347202,-0.001597849536,0.01517957076,-0.0007989247679
67.16594624,-0.004793548491,0.01624480449,0.001331541222
67.16842051,-0.0037283157,0.01304910425,-0.003994623665
67.17089473,-0.002663082443,0.01304910425,-0.003994623665
67.173369,-0.005858781748,0.01304910425,-0.00186415785
67.17584317,-0.004793548491,0.01517957076,-0.00186415785
67.17831744,-0.004793548491,0.01624480449,-0.003994623665
67.18079171,-0.006924014539,0.01411433797,-0.00186415785
67.18326593,-0.006924014539,0.01517957076,0.001331541222
67.1857402,-0.005858781748,0.01517957076,0.002396774245
67.18821437,-0.00798924733,0.01304910425,-0.0007989247679
67.19068864,-0.00798924733,0.01198387146,-0.002929390874
67.19314614,-0.00798924733,0.01944050193,0.001331541222
67.19562035,-0.01011971384,0.02050573565,0.006657706574
67.19809463,-0.01011971384,0.01624480449,0.004527240526
67.20056884,-0.009054481052,0.01624480449,0.006657706574
67.20304312,-0.01118494663,0.01624480449,0.007722939365
67.20551733,-0.009054481052,0.01411433797,0.008788172156
67.20799155,-0.01011971384,0.01624480449,0.008788172156
67.21046582,-0.009054481052,0.01624480449,0.005592473317
67.21294004,-0.01118494663,0.01837527007,0.009853405878
67.21541431,-0.01225017942,0.01517957076,0.009853405878
67.21788853,-0.01225017942,0.01411433797,0.01198387146
67.2203628,-0.01118494663,0.01517957076,0.008788172156
67.22283129,-0.01011971384,0.01198387146,0.009853405878
67.22530551,-0.006924014539,0.01198387146,0.009853405878
67.22777978,-0.009054481052,0.01304910425,0.007722939365
67.230254,-0.01118494663,0.01198387146,0.008788172156
67.23272827,-0.01331541315,0.01304910425,0.008788172156
67.23520249,-0.01331541315,0.006657706574,0.008788172156
67.23767671,-0.01011971384,0.01091863867,0.006657706574
67.24015098,-0.01011971384,0.01198387146,0.007722939365
67.2426252,-0.01438064594,0.005592473317,0.006657706574
67.24509942,-0.009054481052,0.004527240526,0.007722939365
67.24757369,-0.006924014539,0.008788172156,0.007722939365
67.25004796,-0.01438064594,0.006657706574,0.005592473317
67.25252015,-0.01331541315,0.003462007269,0.003462007269
67.25499436,-0.01331541315,0.002396774245,0.001331541222
67.25746864,-0.01118494663,0.004527240526,0.006657706574
67.2599428,-0.01331541315,0.003462007269,0.004527240526
67.26241712,-0.01544587873,0.002396774245,0.003462007269
67.26489134,-0.01331541315,0.005592473317,0.008788172156
67.26736556,-0.01544587873,-0.00186415785,0.003462007269
67.26983983,-0.01225017942,-0.00186415785,0.005592473317
67.27231405,-0.01438064594,0.000266308256,0.004527240526
67.27478832,-0.01438064594,-0.002929390874,0.004527240526
67.27726254,-0.01438064594,-0.006125089712,0.001331541222
67.27973681,-0.01438064594,-0.006125089712,0.000266308256
67.28221093,-0.01225017942,-0.005059856921,-0.0007989247679
67.28468515,-0.01331541315,-0.002929390874,0.003462007269
67.28715942,-0.01438064594,-0.003994623665,0.005592473317
67.28963364,-0.01118494663,-0.005059856921,0.004527240526
67.29210791,-0.01118494663,-0.006125089712,0.002396774245
67.29458212,-0.01438064594,-0.009320789017,0.000266308256
67.29705634,-0.01651111245,-0.01251648832,0.003462007269
67.29953062,-0.01438064594,-0.01251648832,0.001331541222
67.30200483,-0.01331541315,-0.009320789017,0.002396774245
67.3044791,-0.01225017942,-0.0114512546,0.002396774245
67.30695332,-0.01011971384,-0.01251648832,0.002396774245
67.30942754,-0.01331541315,-0.01251648832,0.002396774245
67.31190114,-0.01438064594,-0.01251648832,0.002396774245
67.31437535,-0.01118494663,-0.018907886,-0.0007989247679
67.31684962,-0.01225017942,-0.0146469539,0.000266308256
67.31932384,-0.01118494663,-0.01358172111,0.001331541222
67.32179812,-0.01118494663,-0.01784265228,0.002396774245
67.32427233,-0.01225017942,-0.018907886,0.003462007269
67.32674655,-0.01225017942,-0.01784265228,0.005592473317
67.32922082,-0.009054481052,-0.018907886,0.004527240526
67.33169504,-0.00798924733,-0.01571218669,0.003462007269
67.33416931,-0.01118494663,-0.01784265228,0.002396774245
67.33664353,-0.01225017942,-0.02103835158,0.004527240526
67.33911775,-0.009054481052,-0.01997311972,0.003462007269
67.34159166,-0.01011971384,-0.02316881903,0.003462007269
67.34406588,-0.01225017942,-0.02316881903,0.000266308256
67.34654015,-0.009054481052,-0.0221035853,0.004527240526
67.34901436,-0.009054481052,-0.02423405088,0.001331541222
67.35148864,-0.01225017942,-0.02529928461,-0.00186415785
67.35396285,-0.01118494663,-0.02742975019,0.001331541222
67.35643707,-0.00798924733,-0.02423405088,0.002396774245
67.35891134,-0.01331541315,-0.02529928461,-0.0007989247679
67.36138556,-0.01438064594,-0.02423405088,0.003462007269
67.36385983,-0.01011971384,-0.02316881903,0.003462007269
67.36633405,-0.00798924733,-0.02742975019,0.001331541222
67.36880827,-0.01118494663,-0.02742975019,0.003462007269
67.37128374,-0.01118494663,-0.02423405088,0.003462007269
67.37375796,-0.009054481052,-0.02316881903,0.002396774245
67.37623223,-0.00798924733,-0.0221035853,0.005592473317
67.37870645,-0.01225017942,-0.02103835158,0.002396774245
67.38118072,-0.01438064594,-0.02316881903,0.001331541222
67.38365494,-0.01225017942,-0.02316881903,0.002396774245
67.38612916,-0.01438064594,-0.02103835158,0.002396774245
67.38860343,-0.01118494663,-0.01997311972,-0.0007989247679
67.39107765,-0.01331541315,-0.02423405088,0.005592473317
67.39355192,-0.01438064594,-0.0221035853,0.004527240526
67.39602614,-0.01225017942,-0.018907886,0.007722939365
67.39850035,-0.01331541315,-0.01677742042,0.004527240526
67.4009764,-0.01331541315,-0.01997311972,0.004527240526
67.40345062,-0.01225017942,-0.02103835158,0.005592473317
67.40592488,-0.01544587873,-0.01677742042,0.005592473317
67.4083991,-0.01331541315,-0.018907886,0.006657706574
67.41087338,-0.01225017942,-0.01997311972,0.006657706574
67.41334754,-0.01225017942,-0.02103835158,0.003462007269
67.41582181,-0.01331541315,-0.0221035853,0.004527240526
67.41829608,-0.01225017942,-0.01784265228,0.005592473317
67.4207703,-0.01331541315,-0.018907886,0.003462007269
67.42324457,-0.01225017942,-0.018907886,0.004527240526
67.42571874,-0.01225017942,-0.02103835158,0.006657706574
67.42819301,-0.01225017942,-0.01784265228,0.005592473317
67.43066358,-0.01544587873,-0.01784265228,0.000266308256
67.4331378,-0.01331541315,-0.018907886,0.001331541222
67.43561207,-0.01118494663,-0.01677742042,0.008788172156
67.43808629,-0.01331541315,-0.01571218669,0.005592473317
67.44056056,-0.01331541315,-0.01571218669,0.003462007269
67.44303478,-0.01331541315,-0.018907886,0.003462007269
67.445509,-0.01438064594,-0.018907886,0.005592473317
67.44798327,-0.01225017942,-0.01997311972,0.007722939365
67.45045749,-0.01225017942,-0.01677742042,0.001331541222
67.45293176,-0.01438064594,-0.01784265228,0.001331541222
67.45540598,-0.01225017942,-0.018907886,0.003462007269
67.4578802,-0.01011971384,-0.01677742042,0.002396774245
67.46041275,-0.01118494663,-0.01571218669,0.000266308256
67.46288702,-0.01331541315,-0.01784265228,0.002396774245
67.46536129,-0.01544587873,-0.0221035853,0.004527240526
67.46783551,-0.01331541315,-0.02103835158,0.003462007269
67.47030978,-0.009054481052,-0.01997311972,0.003462007269
67.472784,-0.01544587873,-0.01997311972,0.002396774245
67.47525822,-0.01331541315,-0.01784265228,0.002396774245
67.47773249,-0.01118494663,-0.01677742042,0.003462007269
67.48020671,-0.01118494663,-0.01784265228,0.001331541222
67.48268098,-0.01118494663,-0.01677742042,0.002396774245
67.4851552,-0.01011971384,-0.01571218669,-0.0007989247679
67.48762942,-0.00798924733,-0.0146469539,0.002396774245
67.49004843,-0.006924014539,-0.0146469539,0.003462007269
67.49252265,-0.009054481052,-0.0146469539,-0.002929390874
67.49499692,-0.01118494663,-0.018907886,-0.0007989247679
67.49747114,-0.006924014539,-0.01571218669,0.001331541222
67.49994541,-0.004793548491,-0.0146469539,0.000266308256
67.50241962,-0.0037283157,-0.01571218669,-0.00186415785
67.50489384,-0.00798924733,-0.01784265228,0.000266308256
67.50736812,-0.006924014539,-0.0146469539,0.001331541222
67.50984233,-0.004793548491,-0.01358172111,0.002396774245
67.5123166,-0.005858781748,-0.01784265228,-0.0007989247679
67.51479082,-0.002663082443,-0.01571218669,-0.00186415785
67.51726504,-0.0005326165119,-0.01251648832,0.002396774245
67.51973723,-0.002663082443,-0.0146469539,0.001331541222
67.52221145,-0.002663082443,-0.01677742042,0.002396774245
67.52468572,-0.001597849536,-0.0146469539,-0.00186415785
67.52715994,0.001597849536,-0.0146469539,-0.0007989247679
67.52963421,-0.001597849536,-0.01677742042,0.000266308256
67.53210843,-0.004793548491,-0.01571218669,0.001331541222
67.53458265,-0.0037283157,-0.01251648832,0.003462007269
67.53705692,-0.002663082443,-0.01251648832,-0.0007989247679
67.53953114,-0.0005326165119,-0.01251648832,0.004527240526
67.54200541,-0.0005326165119,-0.01358172111,-0.003994623665
67.54447963,-0.002663082443,-0.01571218669,-0.00186415785
67.54695384,-0.002663082443,-0.01677742042,-0.002929390874
67.54942817,-0.001597849536,-0.01571218669,-0.00186415785
67.55190238,-0.0037283157,-0.01358172111,-0.003994623665
67.55437666,-0.004793548491,-0.01571218669,0.000266308256
67.55685088,-0.0037283157,-0.0146469539,-0.0007989247679
67.55932515,-0.001597849536,-0.01677742042,-0.00186415785
67.56179936,-0.005858781748,-0.01677742042,-0.00186415785
67.56427358,-0.006924014539,-0.01784265228,-0.00186415785
67.56674785,-0.0037283157,-0.01571218669,-0.0007989247679
67.56922207,-0.002663082443,-0.01358172111,-0.0007989247679
67.57169634,-0.0037283157,-0.01251648832,-0.0007989247679
67.57417056,-0.002663082443,-0.0146469539,-0.0007989247679
67.57664478,-0.001597849536,-0.0146469539,-0.00186415785
67.57911775,-0.001597849536,-0.01677742042,-0.003994623665
67.58159197,-0.005858781748,-0.01571218669,-0.002929390874
67.58406624,-0.002663082443,-0.01571218669,-0.005059856921
67.58654046,-0.00798924733,-0.02103835158,-0.005059856921
67.58901473,-0.004793548491,-0.01784265228,-0.0007989247679
67.59148895,-0.004793548491,-0.01677742042,-0.002929390874
67.59396317,0.0005326165119,-0.018907886,-0.003994623665
67.59643744,-0.0005326165119,-0.018907886,0.000266308256
67.59891166,0.0005326165119,-0.01571218669,-0.00186415785
67.60138593,-0.001597849536,-0.01677742042,0.001331541222
67.60386015,-0.002663082443,-0.018907886,-0.0007989247679
67.60633437,-0.0005326165119,-0.01784265228,-0.00186415785
67.60881009,0.001597849536,-0.01677742042,-0.00186415785
67.61128431,-0.0005326165119,-0.01997311972,0.000266308256
67.61375853,-0.0005326165119,-0.018907886,0.000266308256
67.6162328,-0.0005326165119,-0.01784265228,-0.00186415785
67.61870707,-0.0005326165119,-0.01997311972,-0.00186415785
67.62118129,0.0005326165119,-0.01997311972,-0.00186415785
67.62365551,-0.0005326165119,-0.02103835158,-0.0007989247679
67.62612978,0.0005326165119,-0.01997311972,-0.003994623665
67.628604,0.0005326165119,-0.01997311972,0.000266308256
67.63107827,0.001597849536,-0.01997311972,-0.0007989247679
67.63355249,-0.001597849536,-0.0221035853,-0.005059856921
67.63602671,0.0005326165119,-0.02316881903,-0.006125089712
67.63850004,0.002663082443,-0.02423405088,-0.006125089712
67.64097426,0.0005326165119,-0.01997311972,-0.006125089712
67.64344853,0.0005326165119,-0.02103835158,-0.007190322969
67.64592275,0.005858781748,-0.02423405088,-0.005059856921
67.64839697,0.0005326165119,-0.02316881903,-0.005059856921
67.65087124,0.0005326165119,-0.02423405088,-0.006125089712
67.65334546,-0.0005326165119,-0.01997311972,-0.005059856921
67.65581973,-0.0005326165119,-0.02316881903,-0.006125089712
67.65829395,-0.0005326165119,-0.02529928461,-0.009320789017
67.66076817,-0.001597849536,-0.02103835158,-0.01038602181
67.66324244,-0.0005326165119,-0.01784265228,-0.006125089712
67.66571666,-0.001597849536,-0.01997311972,-0.006125089712
67.66819254,-0.0005326165119,-0.018907886,-0.008255556226
67.67066676,-0.0005326165119,-0.01784265228,-0.008255556226
67.67314103,0.001597849536,-0.01251648832,-0.003994623665
67.67561525,-0.0005326165119,-0.01784265228,-0.006125089712
67.67808952,-0.0037283157,-0.01997311972,-0.01038602181
67.68056374,-0.002663082443,-0.018907886,-0.009320789017
67.68303796,0.002663082443,-0.0146469539,-0.007190322969
67.68551223,0.001597849536,-0.0146469539,-0.005059856921
67.68798645,-0.001597849536,-0.01677742042,-0.006125089712
67.69046072,0.0005326165119,-0.018907886,-0.006125089712
67.69293494,0.0005326165119,-0.01571218669,-0.006125089712
67.69540916,-0.0005326165119,-0.01784265228,-0.007190322969
67.69788249,-0.0005326165119,-0.01784265228,-0.003994623665
67.70035671,-0.0005326165119,-0.0146469539,-0.006125089712
67.70283098,-0.001597849536,-0.0146469539,-0.006125089712
67.7053052,-0.0037283157,-0.01677742042,-0.006125089712
67.70777947,-0.002663082443,-0.01997311972,-0.003994623665
67.71025369,-0.004793548491,-0.0221035853,-0.007190322969
67.71272791,-0.004793548491,-0.02103835158,-0.006125089712
67.71520218,-0.001597849536,-0.018907886,-0.008255556226
67.7176764,0.001597849536,-0.018907886,-0.005059856921
67.72015067,0.0005326165119,-0.018907886,-0.002929390874
67.72262488,-0.0005326165119,-0.01997311972,-0.008255556226
67.7250991,-0.001597849536,-0.01997311972,-0.009320789017
67.72757338,-0.0005326165119,-0.018907886,-0.008255556226
67.73004759,0.0005326165119,-0.018907886,-0.009320789017
67.73252187,0.0037283157,-0.018907886,-0.008255556226
67.73499608,0.001597849536,-0.0221035853,-0.01038602181
67.73747035,0.002663082443,-0.018907886,-0.01038602181
67.73994457,0.0037283157,-0.018907886,-0.009320789017
67.74241879,0.001597849536,-0.018907886,-0.0114512546
67.74489306,0.004793548491,-0.01571218669,-0.008255556226
67.74736728,0.002663082443,-0.01571218669,-0.01038602181
67.74984155,0.0037283157,-0.01677742042,-0.01251648832
67.75231577,0.004793548491,-0.0146469539,-0.008255556226
67.75478999,0.0037283157,-0.0146469539,-0.006125089712
67.75726452,0.004793548491,-0.0146469539,-0.008255556226
67.75973874,0.0037283157,-0.01677742042,-0.008255556226
67.76221301,0.002663082443,-0.01251648832,-0.01038602181
67.76468723,0.0005326165119,-0.01251648832,-0.0114512546
67.7671615,-0.0005326165119,-0.01358172111,-0.0114512546
67.76963572,0.001597849536,-0.01571218669,-0.007190322969
67.77210994,0.0037283157,-0.01358172111,-0.009320789017
67.77458421,0.0037283157,-0.006125089712,-0.007190322969
67.77705843,0.001597849536,-0.003994623665,-0.005059856921
67.7795327,0.002663082443,-0.003994623665,-0.006125089712
67.78200692,0.00798924733,-0.006125089712,-0.006125089712
67.78448114,0.002663082443,-0.006125089712,-0.006125089712
67.78695614,0.0005326165119,-0.003994623665,-0.007190322969
67.78943035,0.002663082443,-0.002929390874,-0.003994623665
67.79190462,-0.0005326165119,-0.002929390874,-0.006125089712
67.79437884,0.0005326165119,-0.0007989247679,-0.003994623665
67.79685312,0.0005326165119,0.002396774245,-0.00186415785
67.79932733,0.0005326165119,0.001331541222,-0.005059856921
67.80180155,-0.001597849536,-0.00186415785,-0.002929390874
67.80427582,0.0005326165119,0.000266308256,-0.00186415785
67.80675004,-0.0005326165119,0.001331541222,-0.005059856921
67.80922431,-0.0037283157,0.004527240526,-0.002929390874
67.81169853,-0.002663082443,0.002396774245,-0.002929390874
67.81417275,-0.001597849536,0.003462007269,-0.003994623665
67.81664733,-0.002663082443,0.005592473317,-0.0007989247679
67.81912155,-0.002663082443,0.004527240526,-0.00186415785
67.82159577,-0.0037283157,0.002396774245,-0.002929390874
67.82407624,-0.0037283157,0.006657706574,-0.006125089712
67.82655671,-0.001597849536,0.009853405878,-0.002929390874
67.82903093,-0.001597849536,0.009853405878,-0.00186415785
67.83149155,-0.004793548491,0.007722939365,-0.0007989247679
67.83395218,-0.002663082443,0.009853405878,-0.00186415785
67.8364264,-0.001597849536,0.01091863867,0.000266308256
67.83891166,-0.002663082443,0.01517957076,-0.0007989247679
67.84139692,-0.0005326165119,0.01624480449,-0.0007989247679
67.84387114,0.0005326165119,0.01198387146,-0.0007989247679
67.84634541,-0.001597849536,0.01411433797,-0.00186415785
67.84880551,-0.001597849536,0.01411433797,-0.0007989247679
67.85127973,-0.001597849536,0.01731003635,-0.002929390874
67.85375395,0.002663082443,0.01837527007,-0.00186415785
67.85622817,0.0037283157,0.02370143496,0.003462007269
67.85870238,0.0037283157,0.02263620123,0.002396774245
67.86117666,0.002663082443,0.02157096937,-0.0007989247679
67.86365093,0.0005326165119,0.02370143496,-0.0007989247679
67.86612515,0.001597849536,0.02476666868,0.000266308256
67.86859942,0.0037283157,0.02796236612,0.003462007269
67.87107364,0.002663082443,0.02476666868,0.002396774245
67.87354785,-0.0005326165119,0.02476666868,0.002396774245
67.87602212,-0.001597849536,0.02796236612,0.005592473317
67.87849634,-0.0005326165119,0.02796236612,0.004527240526
67.88097062,0.0005326165119,0.03115806542,0.004527240526
67.88345108,-0.001597849536,0.03115806542,0.003462007269
67.8859253,0.0005326165119,0.03222329915,0.004527240526
67.88839957,-0.0005326165119,0.03222329915,0.004527240526
67.89087379,-0.002663082443,0.03435376659,0.005592473317
67.89334806,-0.005858781748,0.03754946589,0.002396774245
67.89582228,-0.004793548491,0.03861469775,0.003462007269
67.8982965,-0.001597849536,0.03967992961,0.002396774245
67.90077077,-0.0037283157,0.03861469775,0.001331541222
67.90324499,-0.004793548491,0.04074516147,0.001331541222
67.90571926,-0.001597849536,0.04394086078,0.003462007269
67.90819348,-0.001597849536,0.04394086078,-0.0007989247679
67.91066775,-0.005858781748,0.04500609636,0.000266308256
67.91314202,-0.005858781748,0.04394086078,0.001331541222
67.91561624,-0.005858781748,0.05033225939,-0.0007989247679
67.91809051,-0.002663082443,0.04713656008,-0.0007989247679
67.92056473,0.0005326165119,0.04500609636,0.002396774245
67.923039,-0.002663082443,0.04926702753,0.001331541222
67.92551322,-0.001597849536,0.05246272683,0.000266308256
67.92798744,-0.001597849536,0.05033225939,0.000266308256
67.93046171,-0.002663082443,0.05033225939,0.001331541222
67.93293593,-0.0005326165119,0.05246272683,0.003462007269
67.9354102,-0.002663082443,0.05459319428,0.003462007269
67.93788442,-0.002663082443,0.05565842614,0.004527240526
67.94035869,-0.001597849536,0.05459319428,0.002396774245
67.94285379,-0.001597849536,0.056723658,0.000266308256
67.94532801,-0.001597849536,0.05778888986,0.004527240526
67.94780228,-0.001597849536,0.056723658,0.004527240526
67.9502765,-0.001597849536,0.05885412544,0.000266308256
67.95275077,-0.001597849536,0.0599193573,0.004527240526
67.95522499,0.0005326165119,0.05778888986,0.003462007269
67.95769921,0.0005326165119,0.05778888986,0.002396774245
67.96017348,-0.0005326165119,0.05885412544,0.000266308256
67.9626477,0.0005326165119,0.056723658,0.002396774245
67.96512197,0.002663082443,0.0599193573,0.006657706574
67.96759619,-0.0005326165119,0.05885412544,0.003462007269
67.97007046,-0.002663082443,0.05778888986,0.004527240526
67.97252395,0.0005326165119,0.05778888986,0.006657706574
67.97499817,0.001597849536,0.05885412544,0.007722939365
67.97747244,-0.0005326165119,0.0599193573,0.009853405878
67.97994666,0.0005326165119,0.056723658,0.005592473317
67.98242093,-0.0005326165119,0.05885412544,0.006657706574
67.98489515,-0.001597849536,0.05778888986,0.008788172156
67.98736936,-0.0037283157,0.05778888986,0.005592473317
67.98984364,-0.0005326165119,0.05778888986,0.005592473317
67.99231785,0.001597849536,0.05885412544,0.001331541222
67.99479212,0.0005326165119,0.05778888986,0.002396774245
67.99726634,0.002663082443,0.0599193573,0.003462007269
67.99974062,0.002663082443,0.05778888986,0.005592473317
68.00221515,0.002663082443,0.05778888986,0.004527240526
68.00468936,0.002663082443,0.0599193573,0.002396774245
68.00716364,0.001597849536,0.05565842614,-0.00186415785
68.00963785,0.005858781748,0.056723658,0.002396774245
68.01211212,0.00798924733,0.05352795869,0.002396774245
68.01458629,0.004793548491,0.056723658,0.001331541222
68.01706056,0.00798924733,0.05246272683,0.002396774245
68.01953483,0.005858781748,0.04926702753,0.000266308256
68.02200905,0.01011971384,0.05139749497,0.000266308256
68.02448332,0.01225017942,0.04926702753,-0.002929390874
68.02695754,0.00798924733,0.05033225939,-0.00186415785
68.02943181,0.01011971384,0.04713656008,-0.0007989247679
68.03190364,0.01011971384,0.04713656008,-0.00186415785
68.03437785,0.01118494663,0.04926702753,-0.0007989247679
68.03685213,0.01331541315,0.04713656008,-0.0007989247679
68.03932634,0.01331541315,0.04394086078,-0.0007989247679
68.04180062,0.006924014539,0.04181039706,-0.007190322969
68.04427483,0.00798924733,0.04394086078,-0.00186415785
68.04674905,0.009054481052,0.04181039706,-0.003994623665
68.04922332,0.01011971384,0.03861469775,-0.0007989247679
68.05169754,0.01011971384,0.03754946589,0.001331541222
68.05417181,0.005858781748,0.03754946589,-0.0007989247679
68.05664603,0.006924014539,0.03648423031,-0.0007989247679
68.05912025,0.01011971384,0.03435376659,-0.002929390874
68.06159671,0.01011971384,0.03435376659,-0.0007989247679
68.06407093,0.005858781748,0.03222329915,-0.00186415785
68.0665452,0.004793548491,0.03435376659,0.000266308256
68.06901942,0.001597849536,0.02902759984,-0.002929390874
68.07149369,0.0037283157,0.02796236612,-0.0007989247679
68.07396791,0.001597849536,0.02476666868,0.001331541222
68.07644212,0.0005326165119,0.02583190054,0.002396774245
68.0789164,-0.0005326165119,0.02157096937,0.003462007269
68.08139062,0.004793548491,0.02157096937,0.006657706574
68.08386489,0.001597849536,0.01624480449,0.002396774245
68.0863391,-0.0005326165119,0.01944050193,-0.0007989247679
68.08881338,-0.001597849536,0.01731003635,0.001331541222
68.09128749,-0.0005326165119,0.01411433797,0.004527240526
68.09376171,-0.002663082443,0.01091863867,-0.0007989247679
68.09623598,-0.001597849536,0.008788172156,-0.0007989247679
68.0987102,-0.0005326165119,0.008788172156,0.000266308256
68.10118447,-0.001597849536,0.006657706574,0.000266308256
68.10365869,-0.001597849536,0.003462007269,-0.0007989247679
68.10613291,-0.001597849536,0.001331541222,-0.002929390874
68.10860718,0.001597849536,0.001331541222,-0.002929390874
68.1110814,0.002663082443,-0.0007989247679,-0.003994623665
68.11355567,0.001597849536,-0.005059856921,-0.005059856921
68.11602988,0.0037283157,-0.007190322969,-0.008255556226
68.1185041,0.0005326165119,-0.007190322969,-0.008255556226
68.12098249,-0.0005326165119,-0.007190322969,-0.01251648832
68.12346082,0.002663082443,-0.008255556226,-0.0114512546
68.12593504,0.0037283157,-0.008255556226,-0.008255556226
68.12840686,0.006924014539,-0.01038602181,-0.0114512546
68.13087864,0.00798924733,-0.0114512546,-0.0146469539
68.13335285,0.005858781748,-0.01251648832,-0.0146469539
68.13583405,0.00798924733,-0.0146469539,-0.01571218669
68.1383152,0.00798924733,-0.0146469539,-0.0146469539
68.14078942,0.00798924733,-0.01251648832,-0.01784265228
68.14326369,0.01011971384,-0.01358172111,-0.018907886
68.14573791,0.01011971384,-0.01358172111,-0.018907886
68.14821218,0.01118494663,-0.0146469539,-0.018907886
68.1506864,0.01225017942,-0.0146469539,-0.02103835158
68.15316062,0.01118494663,-0.01358172111,-0.01997311972
68.15563488,0.01011971384,-0.008255556226,-0.01784265228
68.1581091,0.01225017942,-0.009320789017,-0.01997311972
68.16058338,0.01438064594,-0.0114512546,-0.0221035853
68.16305759,0.01544587873,-0.006125089712,-0.02423405088
68.16553186,0.01864157803,-0.005059856921,-0.02316881903
68.16800608,0.01651111245,-0.009320789017,-0.02103835158
68.170464,0.02183727734,-0.006125089712,-0.01997311972
68.17293822,0.0229025092,-0.005059856921,-0.01997311972
68.17541249,0.01864157803,-0.006125089712,-0.02316881903
68.17788671,0.01651111245,-0.002929390874,-0.0221035853
68.18036098,0.02396774292,0.000266308256,-0.01677742042
68.1828352,0.02077204362,-0.00186415785,-0.01571218669
68.18530942,0.02077204362,0.000266308256,-0.018907886
68.18778369,0.02396774292,-0.0007989247679,-0.01677742042
68.19025791,0.02503297664,0.000266308256,-0.01358172111
68.19273212,0.02183727734,0.003462007269,-0.0146469539
68.1952064,0.0229025092,0.002396774245,-0.01251648832
68.19768067,0.0260982085,0.006657706574,-0.009320789017
68.20014306,0.02822867595,0.009853405878,-0.009320789017
68.20261733,0.0260982085,0.01091863867,-0.005059856921
68.20509155,0.01970681176,0.009853405878,-0.002929390874
68.20756582,0.0260982085,0.01198387146,-0.0007989247679
68.21004004,0.02503297664,0.01517957076,0.000266308256
68.21251431,0.01970681176,0.01624480449,0.004527240526
68.21498853,0.01970681176,0.01944050193,0.006657706574
68.2174628,0.01864157803,0.02476666868,0.008788172156
68.21993697,0.01651111245,0.02370143496,0.009853405878
68.22241124,0.01118494663,0.02263620123,0.008788172156
68.22488551,0.009054481052,0.02476666868,0.01304910425
68.22735973,0.01118494663,0.03009283356,0.01624480449
68.22987015,0.005858781748,0.02796236612,0.02050573565
68.23234436,0.004793548491,0.02902759984,0.01731003635
68.23481864,0.006924014539,0.03009283356,0.01731003635
68.23729285,0.0005326165119,0.02902759984,0.01731003635
68.23976712,-0.002663082443,0.03009283356,0.02050573565
68.24224134,-0.004793548491,0.03009283356,0.02263620123
68.24471556,-0.006924014539,0.02902759984,0.02157096937
68.24718983,-0.00798924733,0.02689713426,0.02263620123
68.24966405,-0.01011971384,0.02796236612,0.02050573565
68.25213832,-0.01118494663,0.02796236612,0.02476666868
68.25461254,-0.01118494663,0.02476666868,0.02476666868
68.25708681,-0.01651111245,0.02476666868,0.01944050193
68.25950905,-0.01651111245,0.02370143496,0.01624480449
68.26198327,-0.01331541315,0.02050573565,0.01944050193
68.26445754,-0.01651111245,0.01837527007,0.01837527007
68.26693171,-0.01864157803,0.01837527007,0.01837527007
68.26940598,-0.01970681176,0.01517957076,0.01517957076
68.2718802,-0.01757634431,0.008788172156,0.01624480449
68.27435447,-0.01651111245,0.006657706574,0.01624480449
68.27682874,-0.01864157803,0.007722939365,0.01304910425
68.27930296,-0.02183727734,0.003462007269,0.009853405878
68.28177718,-0.02077204362,-0.002929390874,0.006657706574
68.2842514,-0.01864157803,-0.00186415785,0.002396774245
68.28672572,-0.01651111245,-0.003994623665,0.004527240526
68.28924244,-0.01544587873,-0.0114512546,0.002396774245
68.29171666,-0.01331541315,-0.01251648832,-0.0007989247679
68.29419093,-0.01757634431,-0.01038602181,-0.002929390874
68.29666509,-0.01225017942,-0.01571218669,-0.00186415785
68.29913942,-0.01118494663,-0.02103835158,-0.00186415785
68.30161364,-0.01225017942,-0.02636451647,-0.008255556226
68.30408785,-0.01011971384,-0.02849498391,-0.009320789017
68.30656207,-0.009054481052,-0.02849498391,-0.0114512546
68.30903634,-0.01011971384,-0.03062544949,-0.008255556226
68.31151062,-0.009054481052,-0.03169068322,-0.008255556226
68.31398483,-0.005858781748,-0.03488638252,-0.01038602181
68.31645905,-0.00798924733,-0.03382114694,-0.009320789017
68.31891999,-0.001597849536,-0.04021254554,-0.008255556226
68.32139421,0.001597849536,-0.04127778113,-0.0114512546
68.32386848,0.002663082443,-0.04021254554,-0.01358172111
68.3263427,0.0037283157,-0.04021254554,-0.0114512546
68.32881697,0.0037283157,-0.04447348043,-0.009320789017
68.33129119,0.006924014539,-0.05086487532,-0.007190322969
68.33376541,0.005858781748,-0.05406057462,-0.0114512546
68.33623968,0.009054481052,-0.05725627393,-0.0114512546
68.3387139,0.01331541315,-0.05725627393,-0.01038602181
68.34118817,0.01331541315,-0.06258244067,-0.009320789017
68.34366238,0.01225017942,-0.06471290439,-0.01251648832
68.34613666,0.01651111245,-0.06577813625,-0.01784265228
68.34861187,0.01651111245,-0.06790860742,-0.01358172111
68.35108608,0.01651111245,-0.07216953486,-0.01251648832
68.35356035,0.01651111245,-0.07323476672,-0.0146469539
68.35603457,0.01757634431,-0.07216953486,-0.01784265228
68.35850884,0.01651111245,-0.07749570161,-0.01358172111
68.36098306,0.02077204362,-0.08069140464,-0.01571218669
68.36345728,0.01757634431,-0.08282186836,-0.02103835158
68.36593155,0.01864157803,-0.08495233208,-0.0221035853
68.36840577,0.01757634431,-0.08495233208,-0.01784265228
68.37088004,0.01757634431,-0.08601756394,-0.02103835158
68.37335426,0.01544587873,-0.08601756394,-0.0221035853
68.37582853,0.01438064594,-0.08708280325,-0.01997311972
68.3783003,0.01544587873,-0.08921326697,-0.02103835158
68.38077452,0.01544587873,-0.08921326697,-0.02103835158
68.38324879,0.01544587873,-0.08814803511,-0.02103835158
68.38572301,0.00798924733,-0.09347419441,-0.02529928461
68.38819728,0.009054481052,-0.09240896255,-0.01997311972
68.3906715,0.006924014539,-0.08921326697,-0.01784265228
68.39314572,0.0037283157,-0.09134373069,-0.018907886
68.39561999,0.005858781748,-0.09240896255,-0.01784265228
68.39809421,0.002663082443,-0.09347419441,-0.01571218669
68.40056848,0.006924014539,-0.09347419441,-0.01571218669
68.4030427,0.006924014539,-0.08921326697,-0.01571218669
68.40551697,0.001597849536,-0.09027849883,-0.01571218669
68.40799437,-0.002663082443,-0.09027849883,-0.0146469539
68.41046858,-0.0005326165119,-0.09134373069,-0.01358172111
68.41294285,-0.0037283157,-0.09240896255,-0.0114512546
68.41541702,-0.006924014539,-0.08921326697,-0.007190322969
68.41789134,-0.005858781748,-0.09027849883,-0.007190322969
68.42036556,-0.006924014539,-0.09134373069,-0.006125089712
68.42283978,-0.009054481052,-0.09134373069,-0.003994623665
68.42531405,-0.01331541315,-0.09347419441,-0.003994623665
68.42778827,-0.01011971384,-0.09134373069,-0.003994623665
68.43026254,-0.01225017942,-0.09027849883,-0.006125089712
68.43273676,-0.01331541315,-0.08921326697,-0.003994623665
68.43521103,-0.01225017942,-0.09134373069,-0.0007989247679
68.43768306,-0.01225017942,-0.09240896255,0.003462007269
68.44015728,-0.01118494663,-0.08921326697,-0.0007989247679
68.44263155,-0.01011971384,-0.09134373069,0.001331541222
68.44510577,-0.01118494663,-0.09134373069,0.002396774245
68.44758004,-0.01331541315,-0.08708280325,0.001331541222
68.45005426,-0.01331541315,-0.08921326697,0.005592473317
68.45252848,-0.01544587873,-0.09240896255,0.007722939365
68.45500275,-0.01225017942,-0.08921326697,0.006657706574
68.45747697,-0.01331541315,-0.08814803511,0.003462007269
68.45995119,-0.01225017942,-0.08708280325,0.005592473317
68.46242546,-0.01438064594,-0.08708280325,0.006657706574
68.46489973,-0.01651111245,-0.09027849883,0.007722939365
68.46737541,-0.01651111245,-0.09240896255,0.005592473317
68.46984963,-0.01757634431,-0.08814803511,0.003462007269
68.4723239,-0.01544587873,-0.08921326697,0.007722939365
68.47479812,-0.01544587873,-0.09134373069,0.003462007269
68.47727238,-0.01438064594,-0.08708280325,0.003462007269
68.4797466,-0.01544587873,-0.08814803511,0.003462007269
68.48222082,-0.01225017942,-0.08708280325,0.002396774245
68.48469509,-0.01544587873,-0.0817566365,0.003462007269
68.48716931,-0.01864157803,-0.08282186836,-0.0007989247679
68.48964358,-0.01651111245,-0.07962616533,-0.00186415785
68.4921178,-0.01651111245,-0.08495233208,0.000266308256
68.49459207,-0.01651111245,-0.0817566365,0.000266308256
68.49706312,-0.01651111245,-0.07962616533,-0.003994623665
68.49953733,-0.01651111245,-0.07856093347,-0.00186415785
68.5020116,-0.01544587873,-0.07856093347,-0.003994623665
68.50448582,-0.01544587873,-0.07749570161,-0.005059856921
68.50696009,-0.01544587873,-0.07536523789,-0.00186415785
68.50943431,-0.01438064594,-0.07323476672,0.000266308256
68.51190853,-0.01225017942,-0.071104303,-0.003994623665
68.5143828,-0.01118494663,-0.071104303,-0.005059856921
68.51685702,-0.01225017942,-0.06897383928,-0.00186415785
68.51933129,-0.01118494663,-0.06684337556,-0.006125089712
68.52180551,-0.01011971384,-0.06577813625,-0.006125089712
68.52427978,-0.01225017942,-0.06045197323,-0.006125089712
68.52675187,-0.00798924733,-0.05832150951,-0.008255556226
68.52922608,-0.00798924733,-0.05725627393,-0.002929390874
68.53170035,-0.009054481052,-0.05938674137,-0.005059856921
68.53417457,-0.00798924733,-0.05406057462,-0.005059856921
68.53664884,-0.004793548491,-0.05086487532,-0.006125089712
68.53912306,-0.005858781748,-0.04979964346,-0.007190322969
68.54159728,-0.004793548491,-0.05086487532,-0.006125089712
68.54407155,-0.001597849536,-0.04660394415,-0.007190322969
68.54654577,0.001597849536,-0.04234301299,-0.005059856921
68.54902004,-0.0005326165119,-0.04127778113,-0.006125089712
68.55149426,0.0005326165119,-0.04021254554,-0.006125089712
68.55396853,-0.0005326165119,-0.04127778113,-0.006125089712
68.55644629,-0.0005326165119,-0.04021254554,-0.007190322969
68.55892051,0.0037283157,-0.03488638252,-0.005059856921
68.56139478,0.001597849536,-0.03275591508,-0.002929390874
68.563869,0.0037283157,-0.03062544949,-0.003994623665
68.56634327,0.002663082443,-0.02956021577,-0.002929390874
68.56881749,0.0037283157,-0.03062544949,-0.002929390874
68.57129171,0.00798924733,-0.02742975019,-0.002929390874
68.57376598,0.00798924733,-0.01997311972,-0.002929390874
68.5762402,0.00798924733,-0.02103835158,-0.005059856921
68.57871447,0.004793548491,-0.02529928461,-0.003994623665
68.58118869,0.00798924733,-0.01997311972,-0.003994623665
68.58366296,0.00798924733,-0.01677742042,0.000266308256
68.58613436,0.005858781748,-0.01677742042,-0.002929390874
68.58860858,0.00798924733,-0.01251648832,-0.00186415785
68.59108285,0.005858781748,-0.01251648832,0.000266308256
68.59355707,0.005858781748,-0.006125089712,-0.00186415785
68.59603134,0.005858781748,-0.008255556226,-0.00186415785
68.59850556,0.005858781748,-0.003994623665,0.000266308256
68.60097978,0.005858781748,-0.0007989247679,-0.0007989247679
68.60345405,0.005858781748,-0.003994623665,0.001331541222
68.60592827,0.004793548491,0.001331541222,-0.0007989247679
68.60840254,0.001597849536,0.001331541222,-0.0007989247679
68.61087676,-0.0005326165119,0.002396774245,0.002396774245
68.61335103,-0.0005326165119,0.007722939365,0.004527240526
68.61582733,-0.0005326165119,0.007722939365,0.002396774245
68.6183016,-0.0005326165119,0.006657706574,0.001331541222
68.62077588,0.001597849536,0.009853405878,0.004527240526
68.62325009,-0.002663082443,0.009853405878,0.003462007269
68.62572431,-0.0037283157,0.008788172156,0.000266308256
68.62819858,-0.002663082443,0.01198387146,0.001331541222
68.6306728,-0.00798924733,0.01411433797,0.001331541222
68.63314707,-0.006924014539,0.01091863867,0.003462007269
68.63562129,-0.005858781748,0.01411433797,0.003462007269
68.63809551,-0.006924014539,0.01731003635,0.005592473317
68.64056978,-0.009054481052,0.01624480449,0.005592473317
68.643044,-0.01118494663,0.01944050193,0.005592473317
68.64551738,-0.01011971384,0.02157096937,0.004527240526
68.6479916,-0.00798924733,0.02157096937,0.005592473317
68.65046582,-0.009054481052,0.02370143496,0.008788172156
68.65294004,-0.009054481052,0.02583190054,0.005592473317
68.65541426,-0.00798924733,0.02476666868,0.007722939365
68.65788848,-0.00798924733,0.02263620123,0.006657706574
68.6603627,-0.01011971384,0.02476666868,0.005592473317
68.66283697,-0.01118494663,0.02476666868,0.006657706574
68.66531119,-0.009054481052,0.02157096937,0.009853405878
68.66778541,-0.01011971384,0.02157096937,0.009853405878
68.67025962,-0.01331541315,0.02263620123,0.006657706574
68.67273384,-0.009054481052,0.02263620123,0.007722939365
68.67520744,-0.01011971384,0.02157096937,0.006657706574
68.67768166,-0.01225017942,0.02476666868,0.01091863867
68.68015588,-0.01011971384,0.02263620123,0.007722939365
68.68263009,-0.009054481052,0.02476666868,0.006657706574
68.68510431,-0.006924014539,0.02263620123,0.009853405878
68.68757853,-0.006924014539,0.01837527007,0.007722939365
68.69005275,-0.006924014539,0.01944050193,0.006657706574
68.69252702,-0.005858781748,0.02263620123,0.007722939365
68.69500124,-0.006924014539,0.02050573565,0.007722939365
68.69747546,-0.004793548491,0.02157096937,0.009853405878
68.69994968,-0.00798924733,0.01837527007,0.009853405878
68.7024239,-0.01011971384,0.01731003635,0.009853405878
68.70489869,-0.00798924733,0.01837527007,0.008788172156
68.70737291,-0.00798924733,0.01837527007,0.007722939365
68.70984713,-0.00798924733,0.01517957076,0.009853405878
68.71232134,-0.01118494663,0.01624480449,0.008788172156
68.71479556,-0.01118494663,0.01731003635,0.009853405878
68.71726978,-0.01118494663,0.01731003635,0.01198387146
68.719744,-0.01118494663,0.01624480449,0.01198387146
68.72221827,-0.009054481052,0.01411433797,0.007722939365
68.72469249,-0.01225017942,0.01198387146,0.01091863867
68.72716671,-0.01438064594,0.01304910425,0.01304910425
68.72964093,-0.01225017942,0.01624480449,0.009853405878
68.73211515,-0.009054481052,0.01624480449,0.01091863867
68.73459051,-0.00798924733,0.01411433797,0.01304910425
68.73706473,-0.01331541315,0.01517957076,0.01304910425
68.73953895,-0.01544587873,0.01517957076,0.01411433797
68.74201317,-0.01331541315,0.01411433797,0.01198387146
68.74448738,-0.01438064594,0.01304910425,0.01091863867
68.7469616,-0.01225017942,0.01198387146,0.009853405878
68.74943582,-0.01225017942,0.01411433797,0.01411433797
68.75191009,-0.01225017942,0.008788172156,0.01198387146
68.75438431,-0.01331541315,0.01198387146,0.006657706574
68.75685853,-0.01225017942,0.01411433797,0.01091863867
68.7593327,-0.01225017942,0.01304910425,0.01304910425
68.76180697,-0.01331541315,0.01198387146,0.01304910425
68.76428186,-0.01011971384,0.01198387146,0.01091863867
68.76675608,-0.01331541315,0.01198387146,0.009853405878
68.7692303,-0.01118494663,0.01198387146,0.009853405878
68.77170452,-0.01225017942,0.01198387146,0.01304910425
68.77417874,-0.01225017942,0.009853405878,0.01091863867
68.77665296,-0.01011971384,0.01091863867,0.008788172156
68.77912718,-0.01011971384,0.008788172156,0.006657706574
68.78160145,-0.01118494663,0.008788172156,0.007722939365
68.78407567,-0.01225017942,0.01091863867,0.009853405878
68.78654988,-0.01118494663,0.007722939365,0.009853405878
68.7890241,-0.009054481052,0.006657706574,0.008788172156
68.79149832,-0.01225017942,0.007722939365,0.008788172156
68.79397525,-0.01118494663,0.006657706574,0.008788172156
68.79644947,-0.01118494663,0.003462007269,0.005592473317
68.79892369,-0.01011971384,0.001331541222,0.006657706574
68.80139791,-0.01225017942,0.002396774245,0.004527240526
68.80387212,-0.01331541315,0.000266308256,0.003462007269
68.80634634,-0.01011971384,0.004527240526,0.007722939365
68.80882056,-0.01225017942,0.004527240526,0.009853405878
68.81129483,-0.01225017942,0.002396774245,0.006657706574
68.81376905,-0.01118494663,0.002396774245,0.007722939365
68.81624322,-0.01011971384,0.001331541222,0.005592473317
68.81871749,-0.01118494663,0.002396774245,0.006657706574
68.82119171,-0.01225017942,0.002396774245,0.004527240526
68.82366473,-0.01225017942,0.005592473317,0.003462007269
68.82613895,-0.01225017942,0.005592473317,0.005592473317
68.82861317,-0.01225017942,0.004527240526,0.005592473317
68.83108738,-0.01225017942,0.002396774245,0.007722939365
68.8335616,-0.01438064594,0.001331541222,0.007722939365
68.83603582,-0.01225017942,0.003462007269,0.007722939365
68.83851004,-0.01331541315,0.003462007269,0.006657706574
68.84098431,-0.01438064594,0.002396774245,0.005592473317
68.84345853,-0.01438064594,0.002396774245,0.007722939365
68.84593275,-0.01225017942,0.002396774245,0.006657706574
68.84840697,-0.01438064594,0.000266308256,0.003462007269
68.85088119,-0.01438064594,0.000266308256,0.003462007269
68.85335499,-0.01544587873,0.003462007269,0.006657706574
68.85582921,-0.01544587873,0.003462007269,0.007722939365
68.85830343,-0.01651111245,-0.003994623665,0.005592473317
68.86077765,-0.01757634431,-0.0007989247679,0.007722939365
68.86325187,-0.01651111245,0.001331541222,0.005592473317
68.86572608,-0.01544587873,-0.005059856921,0.007722939365
68.8682003,-0.01651111245,-0.005059856921,0.004527240526
68.87067452,-0.01438064594,-0.002929390874,0.008788172156
68.87314879,-0.01438064594,-0.003994623665,0.006657706574
68.87562301,-0.01651111245,-0.006125089712,0.005592473317
68.87809723,-0.01651111245,-0.008255556226,0.002396774245
68.88057145,-0.01757634431,-0.006125089712,0.005592473317
68.88304759,-0.01438064594,-0.005059856921,0.006657706574
68.88552181,-0.01544587873,-0.006125089712,0.007722939365
68.88799603,-0.01438064594,-0.008255556226,0.007722939365
68.89047025,-0.01544587873,-0.01251648832,0.002396774245
68.89294447,-0.01225017942,-0.01358172111,0.004527240526
68.89541869,-0.01225017942,-0.0114512546,0.004527240526
68.89789291,-0.01438064594,-0.01038602181,0.006657706574
68.90036718,-0.01331541315,-0.01358172111,0.004527240526
68.9028414,-0.01331541315,-0.0146469539,0.003462007269
68.90531562,-0.01651111245,-0.0146469539,0.005592473317
68.90778983,-0.01331541315,-0.01358172111,0.006657706574
68.91026405,-0.01225017942,-0.01571218669,0.006657706574
68.91273749,-0.01544587873,-0.0146469539,0.004527240526
68.91521171,-0.01438064594,-0.01251648832,0.003462007269
68.91768593,-0.01331541315,-0.01251648832,0.009853405878
68.92016015,-0.01331541315,-0.01358172111,0.01091863867
68.92263437,-0.01225017942,-0.0146469539,0.005592473317
68.92510858,-0.01331541315,-0.0114512546,0.01091863867
68.9275828,-0.01544587873,-0.01251648832,0.007722939365
68.93005707,-0.01118494663,-0.01251648832,0.01091863867
68.93253129,-0.01544587873,-0.01251648832,0.008788172156
68.93500551,-0.01651111245,-0.01038602181,0.01091863867
68.93747973,-0.01438064594,-0.01038602181,0.007722939365
68.93995395,-0.01225017942,-0.0114512546,0.008788172156
68.9424278,-0.01651111245,-0.0114512546,0.009853405878
68.94490202,-0.01757634431,-0.009320789017,0.008788172156
68.94737624,-0.01544587873,-0.0114512546,0.009853405878
68.94985046,-0.01651111245,-0.0114512546,0.009853405878
68.95232468,-0.01757634431,-0.01038602181,0.009853405878
68.9547989,-0.01757634431,-0.01038602181,0.008788172156
68.95727312,-0.01757634431,-0.0114512546,0.007722939365
68.95974738,-0.01970681176,-0.01038602181,0.005592473317
68.9622216,-0.01970681176,-0.01038602181,0.008788172156
68.96469582,-0.01757634431,-0.01038602181,0.01091863867
68.96717004,-0.01757634431,-0.01251648832,0.007722939365
68.96964426,-0.01970681176,-0.01038602181,0.007722939365
68.97212056,-0.01864157803,-0.007190322969,0.008788172156
68.97459478,-0.02077204362,-0.006125089712,0.01198387146
68.977069,-0.02077204362,-0.006125089712,0.01091863867
68.97954322,-0.02183727734,-0.007190322969,0.009853405878
68.98201744,-0.0229025092,-0.009320789017,0.01091863867
68.98449166,-0.02183727734,-0.009320789017,0.008788172156
68.98696588,-0.01864157803,-0.008255556226,0.006657706574
68.98944015,-0.01864157803,-0.008255556226,0.009853405878
68.99191436,-0.01864157803,-0.007190322969,0.01198387146
68.99438858,-0.01651111245,-0.006125089712,0.008788172156
68.9968628,-0.01864157803,-0.007190322969,0.007722939365
68.99933702,-0.01864157803,-0.006125089712,0.007722939365
69.00181067,-0.01757634431,-0.008255556226,0.007722939365
69.00428488,-0.01757634431,-0.008255556226,0.004527240526
69.0067591,-0.01970681176,-0.007190322969,0.004527240526
69.00923332,-0.01970681176,-0.008255556226,0.006657706574
69.01170754,-0.01864157803,-0.01038602181,0.008788172156
69.01418176,-0.01651111245,-0.008255556226,0.003462007269
69.01665598,-0.01544587873,-0.008255556226,0.004527240526
69.0191302,-0.01438064594,-0.009320789017,0.009853405878
69.02160447,-0.01544587873,-0.009320789017,0.006657706574
69.02407869,-0.01225017942,-0.009320789017,0.006657706574
69.02655291,-0.01225017942,-0.01251648832,0.003462007269
69.02902712,-0.01544587873,-0.01251648832,0.002396774245
69.03150046,-0.01544587873,-0.008255556226,0.006657706574
69.03397468,-0.01225017942,-0.009320789017,0.006657706574
69.0364489,-0.01225017942,-0.01038602181,0.003462007269
69.03892312,-0.01331541315,-0.007190322969,0.002396774245
69.04139733,-0.01438064594,-0.007190322969,0.004527240526
69.04387155,-0.01331541315,-0.008255556226,0.003462007269
69.04634577,-0.01544587873,-0.006125089712,0.006657706574
69.04882004,-0.01544587873,-0.002929390874,0.001331541222
69.05129426,-0.01331541315,-0.002929390874,0.004527240526
69.05376848,-0.01651111245,-0.00186415785,0.01091863867
69.0562427,-0.01544587873,-0.0007989247679,0.007722939365
69.05871692,-0.01331541315,0.001331541222,0.005592473317
69.06119259,-0.01970681176,0.004527240526,0.008788172156
69.06366681,-0.01864157803,0.006657706574,0.009853405878
69.06614103,-0.01864157803,0.003462007269,0.006657706574
69.06861525,-0.02077204362,0.003462007269,0.009853405878
69.07108947,-0.0229025092,0.005592473317,0.01198387146
69.07356369,-0.01970681176,0.004527240526,0.01304910425
69.07603791,-0.02183727734,0.01091863867,0.01304910425
69.07851218,-0.01864157803,0.009853405878,0.01411433797
69.0809864,-0.01970681176,0.01091863867,0.01198387146
69.08346062,-0.02396774292,0.008788172156,0.01091863867
69.08593483,-0.01864157803,0.006657706574,0.01091863867
69.08840905,-0.02077204362,0.009853405878,0.01091863867
69.09088588,-0.01970681176,0.01091863867,0.01517957076
69.09336009,-0.01864157803,0.007722939365,0.01198387146
69.09583431,-0.01864157803,0.01091863867,0.01198387146
69.09830853,-0.01651111245,0.007722939365,0.01091863867
69.10078275,-0.01757634431,0.007722939365,0.01304910425
69.10325697,-0.01544587873,0.007722939365,0.01411433797
69.10573119,-0.01651111245,0.006657706574,0.01198387146
69.10820541,-0.01544587873,0.007722939365,0.01198387146
69.11067968,-0.01757634431,0.007722939365,0.01091863867
69.1131539,-0.01544587873,0.005592473317,0.009853405878
69.11562812,-0.01438064594,0.008788172156,0.009853405878
69.11810233,-0.01331541315,0.008788172156,0.008788172156
69.12057457,-0.01438064594,0.005592473317,0.006657706574
69.12304879,-0.01225017942,0.005592473317,0.008788172156
69.12552301,-0.01438064594,0.006657706574,0.007722939365
69.12799723,-0.01438064594,0.01091863867,0.004527240526
69.13047145,-0.01438064594,0.01091863867,0.008788172156
69.13294567,-0.01331541315,0.01091863867,0.008788172156
69.13541988,-0.01225017942,0.01091863867,0.008788172156
69.13789416,-0.01544587873,0.007722939365,0.007722939365
69.14036838,-0.01331541315,0.009853405878,0.01091863867
69.14284259,-0.01544587873,0.01517957076,0.01304910425
69.14531681,-0.01651111245,0.01837527007,0.01091863867
69.14779103,-0.01544587873,0.01517957076,0.009853405878
69.15026551,-0.01757634431,0.01624480449,0.01304910425
69.15273973,-0.01331541315,0.02050573565,0.01411433797
69.15521395,-0.01544587873,0.02157096937,0.01411433797
69.15768822,-0.01970681176,0.02157096937,0.01091863867
69.16016244,-0.01651111245,0.01944050193,0.01304910425
69.16263666,-0.01757634431,0.02157096937,0.01304910425
69.16511088,-0.02183727734,0.02370143496,0.01411433797
69.16758509,-0.01970681176,0.02157096937,0.007722939365
69.17005936,-0.01651111245,0.02370143496,0.01091863867
69.17253358,-0.01864157803,0.02370143496,0.01624480449
69.1750078,-0.02077204362,0.02476666868,0.01304910425
69.17748202,-0.01864157803,0.02157096937,0.01198387146
69.17995541,-0.01970681176,0.02583190054,0.01198387146
69.18242962,-0.0229025092,0.02796236612,0.01091863867
69.18490384,-0.01970681176,0.02476666868,0.01624480449
69.18737812,-0.02183727734,0.02263620123,0.01198387146
69.18985233,-0.0229025092,0.02583190054,0.009853405878
69.19232655,-0.02396774292,0.02157096937,0.01091863867
69.19480077,-0.0229025092,0.02157096937,0.01198387146
69.19727499,-0.02183727734,0.02050573565,0.01091863867
69.19974926,-0.02716344222,0.02157096937,0.01304910425
69.20222348,-0.02822867595,0.02050573565,0.01411433797
69.2046977,-0.0260982085,0.02263620123,0.01411433797
69.20717192,-0.03035914153,0.02263620123,0.01517957076
69.20964535,-0.03248960897,0.02263620123,0.01517957076
69.21211957,-0.03035914153,0.02689713426,0.01411433797
69.21459379,-0.03035914153,0.02370143496,0.01304910425
69.21706801,-0.02822867595,0.02370143496,0.01731003635
69.21954228,-0.02822867595,0.02370143496,0.01624480449
69.2220165,-0.03248960897,0.02370143496,0.01304910425
69.22449072,-0.02822867595,0.02370143496,0.01411433797
69.22696494,-0.02929390781,0.02583190054,0.01837527007
69.22943921,-0.02822867595,0.02476666868,0.01624480449
69.23191343,-0.02822867595,0.02583190054,0.01624480449
69.23438765,-0.02822867595,0.02583190054,0.01731003635
69.23686187,-0.02929390781,0.02796236612,0.01411433797
69.23933692,-0.02396774292,0.02796236612,0.01411433797
69.24181114,-0.0229025092,0.02796236612,0.01304910425
69.24428535,-0.02183727734,0.03222329915,0.01517957076
69.24675963,-0.01757634431,0.03115806542,0.01198387146
69.24923384,-0.01438064594,0.03222329915,0.01198387146
69.25170806,-0.01544587873,0.03222329915,0.007722939365
69.25418228,-0.01331541315,0.03222329915,0.005592473317
69.2566565,-0.009054481052,0.03328853101,0.008788172156
69.25913072,-0.006924014539,0.03541899845,0.002396774245
69.26160499,-0.002663082443,0.03328853101,0.004527240526
69.26407921,-0.001597849536,0.03435376659,0.006657706574
69.26655343,-0.0005326165119,0.03861469775,0.003462007269
69.2690277,0.001597849536,0.03754946589,0.001331541222
69.27150192,0.0005326165119,0.03435376659,0.000266308256
69.27397614,0.001597849536,0.03754946589,-0.00186415785
69.27645041,0.0037283157,0.03648423031,-0.00186415785
69.27892462,0.004793548491,0.03541899845,-0.00186415785
69.28139884,0.00798924733,0.03328853101,0.000266308256
69.28387306,0.006924014539,0.03222329915,-0.003994623665
69.28634728,0.00798924733,0.03115806542,-0.005059856921
69.28882155,0.005858781748,0.03115806542,-0.006125089712
69.29129577,0.006924014539,0.03115806542,-0.006125089712
69.29376999,0.006924014539,0.03115806542,-0.01251648832
69.29624421,0.005858781748,0.02689713426,-0.01251648832
69.29871827,0.006924014539,0.02689713426,-0.0114512546
69.30119249,0.009054481052,0.02902759984,-0.01038602181
69.30366671,0.00798924733,0.02583190054,-0.009320789017
69.30614098,0.006924014539,0.02370143496,-0.01038602181
69.30861515,0.006924014539,0.02370143496,-0.01358172111
69.31108936,0.01011971384,0.02157096937,-0.0146469539
69.31356364,0.009054481052,0.02263620123,-0.0146469539
69.31603785,0.01011971384,0.02263620123,-0.0146469539
69.31851212,0.009054481052,0.02370143496,-0.01251648832
69.32098634,0.006924014539,0.02263620123,-0.0146469539
69.32346051,0.0037283157,0.02476666868,-0.01571218669
69.32593478,0.006924014539,0.02476666868,-0.01677742042
69.32842207,0.0037283157,0.02370143496,-0.018907886
69.33089624,0.006924014539,0.02476666868,-0.01571218669
69.33337051,0.01011971384,0.02583190054,-0.0146469539
69.33584473,0.005858781748,0.02370143496,-0.01571218669
69.338319,0.004793548491,0.02583190054,-0.0146469539
69.34079322,0.005858781748,0.02583190054,-0.01251648832
69.34326744,0.009054481052,0.02370143496,-0.01251648832
69.34574166,0.00798924733,0.02796236612,-0.01358172111
69.34821593,0.006924014539,0.02902759984,-0.01251648832
69.35069015,0.006924014539,0.02796236612,-0.009320789017
69.35316436,0.004793548491,0.02796236612,-0.009320789017
69.35563858,0.002663082443,0.02902759984,-0.009320789017
69.35812692,0.00798924733,0.02476666868,-0.005059856921
69.36060114,0.004793548491,0.02476666868,-0.005059856921
69.36307535,0.00798924733,0.02796236612,-0.0007989247679
69.36554962,0.006924014539,0.02476666868,-0.003994623665
69.36802379,0.002663082443,0.02583190054,-0.003994623665
69.37049801,0.0037283157,0.02689713426,-0.0007989247679
69.37297228,0.005858781748,0.02796236612,0.000266308256
69.3754465,0.005858781748,0.02796236612,0.001331541222
69.37792077,0.002663082443,0.02689713426,0.002396774245
69.38039499,-0.0005326165119,0.02370143496,0.005592473317
69.38286921,0.0037283157,0.02796236612,0.007722939365
69.38534343,0.002663082443,0.02902759984,0.005592473317
69.38778035,0.001597849536,0.02689713426,0.008788172156
69.39025457,0.001597849536,0.02689713426,0.006657706574
69.39272884,-0.0005326165119,0.02796236612,0.007722939365
69.39520306,-0.002663082443,0.02689713426,0.009853405878
69.39767733,-0.005858781748,0.02370143496,0.007722939365
69.40015155,-0.004793548491,0.02689713426,0.007722939365
69.40262577,-0.00798924733,0.02583190054,0.01091863867
69.40509999,-0.006924014539,0.02263620123,0.007722939365
69.40757421,-0.0037283157,0.02263620123,0.007722939365
69.41004848,-0.00798924733,0.02263620123,0.007722939365
69.41252265,-0.00798924733,0.02370143496,0.005592473317
69.41499686,-0.005858781748,0.02263620123,0.009853405878
69.41750447,-0.004793548491,0.02370143496,0.007722939365
69.41997874,-0.00798924733,0.02050573565,0.005592473317
69.42245296,-0.00798924733,0.01944050193,0.009853405878
69.42492718,-0.00798924733,0.01837527007,0.008788172156
69.4274014,-0.006924014539,0.01731003635,0.004527240526
69.42987567,-0.009054481052,0.01517957076,0.005592473317
69.43234989,-0.01118494663,0.01304910425,0.005592473317
69.4348241,-0.006924014539,0.01304910425,0.002396774245
69.43729832,-0.006924014539,0.009853405878,0.005592473317
69.43977259,-0.01011971384,0.009853405878,0.002396774245
69.44224681,-0.009054481052,0.01091863867,-0.002929390874
69.44472103,-0.009054481052,0.009853405878,-0.00186415785
69.4471753,-0.00798924733,0.007722939365,0.003462007269
69.44964952,-0.00798924733,0.008788172156,0.001331541222
69.45212374,-0.01011971384,0.004527240526,-0.0007989247679
69.45459801,-0.009054481052,0.004527240526,-0.00186415785
69.45707223,-0.00798924733,0.006657706574,0.000266308256
69.45954645,-0.00798924733,0.003462007269,-0.0007989247679
69.46202067,-0.006924014539,0.003462007269,-0.002929390874
69.46449489,-0.005858781748,0.000266308256,0.000266308256
69.4669691,-0.006924014539,0.000266308256,-0.00186415785
69.46944338,-0.00798924733,0.002396774245,0.000266308256
69.47191759,-0.009054481052,0.000266308256,-0.0007989247679
69.47439181,-0.01011971384,-0.003994623665,0.003462007269
69.47686364,-0.004793548491,-0.003994623665,0.004527240526
69.47933785,-0.005858781748,-0.0007989247679,0.002396774245
69.48181207,-0.006924014539,-0.002929390874,0.004527240526
69.48428634,-0.005858781748,-0.002929390874,0.003462007269
69.48676056,-0.004793548491,-0.002929390874,0.003462007269
69.48923478,-0.005858781748,-0.0007989247679,0.002396774245
69.491709,-0.002663082443,-0.002929390874,0.000266308256
69.49418322,-0.0037283157,-0.006125089712,0.000266308256
69.49665749,-0.0037283157,-0.006125089712,0.001331541222
69.49913171,-0.001597849536,-0.005059856921,0.000266308256
69.50160593,-0.001597849536,-0.006125089712,0.000266308256
69.50408015,-0.002663082443,-0.008255556226,0.002396774245
69.50655494,-0.001597849536,-0.007190322969,0.003462007269
69.50902916,0.001597849536,-0.009320789017,0.003462007269
69.51150338,0.002663082443,-0.01038602181,0.002396774245
69.51397765,-0.0005326165119,-0.01251648832,-0.00186415785
69.51645187,0.0005326165119,-0.01251648832,0.001331541222
69.51892608,0.001597849536,-0.0146469539,0.000266308256
69.5214003,0.001597849536,-0.01571218669,-0.00186415785
69.52387452,0.0037283157,-0.01358172111,-0.0007989247679
69.52634879,0.005858781748,-0.01251648832,-0.0007989247679
69.52882301,0.002663082443,-0.018907886,-0.005059856921
69.53129723,0.002663082443,-0.018907886,-0.002929390874
69.53377145,0.0005326165119,-0.018907886,-0.007190322969
69.53623832,0.002663082443,-0.01997311972,-0.002929390874
69.53871259,0.0037283157,-0.02103835158,-0.006125089712
69.54118681,-0.002663082443,-0.02103835158,-0.008255556226
69.54366103,-0.001597849536,-0.02103835158,-0.007190322969
69.5461353,-0.0005326165119,-0.02423405088,-0.009320789017
69.54860952,0.002663082443,-0.0221035853,-0.007190322969
69.55108374,0.0005326165119,-0.02423405088,-0.01038602181
69.55355796,-0.0005326165119,-0.02423405088,-0.008255556226
69.55603218,0.0005326165119,-0.02636451647,-0.0114512546
69.55850645,-0.001597849536,-0.02742975019,-0.01358172111
69.56098067,-0.0037283157,-0.02423405088,-0.0146469539
69.56345488,-0.0037283157,-0.02423405088,-0.01358172111
69.56593723,-0.0037283157,-0.02636451647,-0.0114512546
69.56841145,-0.0005326165119,-0.02742975019,-0.0114512546
69.57088567,-0.001597849536,-0.02636451647,-0.0114512546
69.57335994,0.0005326165119,-0.02849498391,-0.01251648832
69.57583416,0.0037283157,-0.02529928461,-0.0146469539
69.57830838,0.002663082443,-0.02742975019,-0.01251648832
69.58078259,0.001597849536,-0.02849498391,-0.01251648832
69.58325681,0.0037283157,-0.02742975019,-0.0146469539
69.58573108,0.0037283157,-0.02742975019,-0.01677742042
69.5882053,0.002663082443,-0.02529928461,-0.01677742042
69.59067952,0.0037283157,-0.02636451647,-0.01677742042
69.59315374,0.005858781748,-0.02636451647,-0.0146469539
69.5956265,0.004793548491,-0.02636451647,-0.01677742042
69.59810072,0.005858781748,-0.02742975019,-0.0146469539
69.60057494,0.006924014539,-0.02636451647,-0.01358172111
69.60304921,0.005858781748,-0.02849498391,-0.0146469539
69.60552343,0.00798924733,-0.02742975019,-0.01784265228
69.60799765,0.006924014539,-0.02636451647,-0.018907886
69.61047187,0.004793548491,-0.02636451647,-0.01784265228
69.61294608,0.006924014539,-0.02636451647,-0.01784265228
69.61542035,0.009054481052,-0.02849498391,-0.0146469539
69.61789452,0.009054481052,-0.02849498391,-0.009320789017
69.62036879,0.01225017942,-0.02423405088,-0.0146469539
69.62284301,0.01011971384,-0.02423405088,-0.01571218669
69.62533749,0.01118494663,-0.02423405088,-0.01571218669
69.62781171,0.01225017942,-0.02636451647,-0.01677742042
69.63028593,0.01651111245,-0.02636451647,-0.0114512546
69.6327602,0.01757634431,-0.02423405088,-0.01358172111
69.63523442,0.01438064594,-0.02529928461,-0.01358172111
69.63770864,0.01651111245,-0.02423405088,-0.01358172111
69.64018285,0.01544587873,-0.02636451647,-0.01571218669
69.64265707,0.01331541315,-0.02636451647,-0.01358172111
69.64513134,0.01544587873,-0.02956021577,-0.01251648832
69.64760556,0.01544587873,-0.02956021577,-0.01677742042
69.65007978,0.01438064594,-0.02636451647,-0.018907886
69.652554,0.01544587873,-0.02636451647,-0.01677742042
69.65501041,0.01544587873,-0.02849498391,-0.018907886
69.65748463,0.01544587873,-0.03062544949,-0.0221035853
69.65995884,0.01438064594,-0.02742975019,-0.0221035853
69.66243312,0.01544587873,-0.03062544949,-0.02423405088
69.66490733,0.01331541315,-0.03275591508,-0.01997311972
69.66738155,0.01225017942,-0.03062544949,-0.0221035853
69.66985577,0.01331541315,-0.03062544949,-0.01997311972
69.67233004,0.009054481052,-0.02956021577,-0.02103835158
69.67480426,0.01438064594,-0.03062544949,-0.02636451647
69.67727848,0.01331541315,-0.03062544949,-0.02316881903
69.6797527,0.01118494663,-0.03062544949,-0.01997311972
69.68222697,0.01225017942,-0.03062544949,-0.018907886
69.68470212,0.01438064594,-0.02742975019,-0.01997311972
69.68717634,0.01118494663,-0.02742975019,-0.02316881903
69.68965056,0.01118494663,-0.02849498391,-0.0221035853
69.69212483,0.01651111245,-0.02529928461,-0.01997311972
69.69459905,0.01118494663,-0.02636451647,-0.0221035853
69.69707327,0.01331541315,-0.02529928461,-0.02103835158
69.69954749,0.01331541315,-0.02636451647,-0.0221035853
69.70202176,0.01331541315,-0.03062544949,-0.0221035853
69.70449598,0.01118494663,-0.02742975019,-0.02316881903
69.7069702,0.01331541315,-0.02956021577,-0.02103835158
69.70944442,0.01225017942,-0.02742975019,-0.01997311972
69.71191869,0.01225017942,-0.02316881903,-0.02103835158
69.71439207,0.01225017942,-0.02423405088,-0.02103835158
69.71686629,0.01331541315,-0.02849498391,-0.01677742042
69.71934051,0.01544587873,-0.02742975019,-0.0221035853
69.72181478,0.01225017942,-0.02742975019,-0.0221035853
69.724289,0.01544587873,-0.02529928461,-0.01784265228
69.72676322,0.01331541315,-0.02636451647,-0.01677742042
69.72923744,0.01331541315,-0.02423405088,-0.02316881903
69.73171171,0.01331541315,-0.02316881903,-0.02316881903
69.73418593,0.01331541315,-0.02103835158,-0.01997311972
69.73666015,0.01331541315,-0.01997311972,-0.01784265228
69.73913436,0.01118494663,-0.02103835158,-0.018907886
69.74160864,0.01331541315,-0.02423405088,-0.01784265228
69.74408332,0.01438064594,-0.0221035853,-0.0146469539
69.74655754,0.01438064594,-0.01997311972,-0.01358172111
69.74903176,0.01651111245,-0.02103835158,-0.0146469539
69.75150603,0.01331541315,-0.01997311972,-0.01358172111
69.75398025,0.01331541315,-0.01677742042,-0.01677742042
69.75645447,0.01438064594,-0.01997311972,-0.0146469539
69.75892869,0.01438064594,-0.018907886,-0.0114512546
69.76140291,0.009054481052,-0.018907886,-0.0114512546
69.76387718,0.009054481052,-0.01571218669,-0.01358172111
69.7663514,0.01011971384,-0.01784265228,-0.009320789017
69.76882562,0.01011971384,-0.01677742042,-0.0114512546
69.77129988,0.01011971384,-0.02103835158,-0.01677742042
69.77377535,0.01118494663,-0.01571218669,-0.01251648832
69.77624957,0.01011971384,-0.01677742042,-0.009320789017
69.77872379,0.01118494663,-0.01784265228,-0.01038602181
69.78119806,0.01011971384,-0.01677742042,-0.0114512546
69.78367228,0.01011971384,-0.01677742042,-0.0114512546
69.7861465,0.01225017942,-0.01677742042,-0.01251648832
69.78862072,0.01118494663,-0.0146469539,-0.01358172111
69.79109499,0.01011971384,-0.01784265228,-0.0114512546
69.79356921,0.01118494663,-0.01571218669,-0.0114512546
69.79604343,0.01011971384,-0.01784265228,-0.01251648832
69.79851765,0.01331541315,-0.01571218669,-0.01571218669
69.80099192,0.01438064594,-0.01358172111,-0.0146469539
69.80346437,0.01118494663,-0.01677742042,-0.01571218669
69.80593858,0.01331541315,-0.01784265228,-0.01358172111
69.8084128,0.01118494663,-0.01677742042,-0.01038602181
69.81088707,0.01225017942,-0.01571218669,-0.01358172111
69.81336129,0.01118494663,-0.0146469539,-0.01251648832
69.81583551,0.01438064594,-0.01358172111,-0.01358172111
69.81830973,0.01118494663,-0.01251648832,-0.01677742042
69.820784,0.01331541315,-0.01038602181,-0.01358172111
69.82325822,0.01544587873,-0.008255556226,-0.01251648832
69.82573244,0.01438064594,-0.0114512546,-0.01677742042
69.82820666,0.01118494663,-0.009320789017,-0.01784265228
69.83068093,0.01331541315,-0.005059856921,-0.01358172111
69.83315614,0.01225017942,-0.005059856921,-0.01038602181
69.83563035,0.01011971384,-0.008255556226,-0.0114512546
69.83810457,0.009054481052,-0.007190322969,-0.01251648832
69.84057884,0.01331541315,-0.002929390874,-0.01038602181
69.84305306,0.01225017942,-0.003994623665,-0.0114512546
69.84552728,0.01011971384,-0.00186415785,-0.0114512546
69.8480015,0.01331541315,-0.003994623665,-0.007190322969
69.85047577,0.01438064594,-0.002929390874,-0.0114512546
69.85294999,0.01331541315,-0.006125089712,-0.01358172111
69.85542421,0.01225017942,-0.002929390874,-0.009320789017
69.85789843,0.01331541315,-0.005059856921,-0.01038602181
69.86037265,0.01225017942,-0.002929390874,-0.009320789017
69.86284619,0.01438064594,-0.002929390874,-0.0114512546
69.86532041,0.01544587873,-0.002929390874,-0.01038602181
69.86779462,0.01225017942,-0.0007989247679,-0.0114512546
69.87026884,0.01225017942,-0.002929390874,-0.0114512546
69.87274312,0.01438064594,-0.003994623665,-0.01358172111
69.87521733,0.01225017942,-0.003994623665,-0.0114512546
69.87769155,0.01225017942,-0.007190322969,-0.01038602181
69.88016582,0.01331541315,-0.006125089712,-0.008255556226
69.88264004,0.01118494663,-0.002929390874,-0.007190322969
69.88511426,0.01118494663,-0.006125089712,-0.008255556226
69.88758848,0.01011971384,-0.005059856921,-0.01251648832
69.89006275,0.009054481052,-0.00186415785,-0.0114512546
69.89253785,0.00798924733,-0.005059856921,-0.009320789017
69.89501207,0.01438064594,-0.003994623665,-0.0114512546
69.89748629,0.01225017942,-0.00186415785,-0.01038602181
69.89996056,0.01118494663,-0.00186415785,-0.009320789017
69.90243478,0.01225017942,-0.0007989247679,-0.01358172111
69.904909,0.01331541315,-0.00186415785,-0.0146469539
69.90738322,0.01438064594,-0.00186415785,-0.01358172111
69.90985749,0.01438064594,-0.00186415785,-0.0114512546
69.91233171,0.01331541315,0.001331541222,-0.01038602181
69.91480593,0.01651111245,0.000266308256,-0.0114512546
69.91728015,0.01651111245,0.000266308256,-0.0146469539
69.91975442,0.01651111245,0.003462007269,-0.01571218669
69.92222843,0.01544587873,0.002396774245,-0.01358172111
69.92470265,0.01757634431,0.005592473317,-0.0114512546
69.92717686,0.01757634431,0.005592473317,-0.01251648832
69.92965114,0.01757634431,0.003462007269,-0.01358172111
69.93212535,0.02183727734,0.003462007269,-0.01358172111
69.93459957,0.01864157803,0.004527240526,-0.01677742042
69.93707379,0.01864157803,0.002396774245,-0.01251648832
69.93954806,0.01970681176,0.003462007269,-0.0146469539
69.94202228,0.01757634431,0.004527240526,-0.01677742042
69.9444965,0.0229025092,0.002396774245,-0.01571218669
69.94697072,0.02077204362,0.002396774245,-0.01571218669
69.94944499,0.01970681176,0.002396774245,-0.01358172111
69.95191978,0.02077204362,0.003462007269,-0.01251648832
69.954394,0.01970681176,0.003462007269,-0.01251648832
69.95686822,0.02077204362,0.004527240526,-0.01358172111
69.95934249,0.01970681176,-0.0007989247679,-0.01251648832
69.96181671,0.01864157803,0.000266308256,-0.01251648832
69.96429093,0.02077204362,0.003462007269,-0.01251648832
69.96676515,0.01757634431,0.001331541222,-0.01251648832
69.96923942,0.01544587873,-0.00186415785,-0.01251648832
69.97171364,0.01438064594,0.000266308256,-0.0114512546
69.97418785,0.01544587873,0.002396774245,-0.01251648832
69.97666207,0.01544587873,0.000266308256,-0.01784265228
69.97913634,0.01225017942,-0.0007989247679,-0.01251648832
69.98160707,0.01225017942,-0.00186415785,-0.008255556226
69.98408134,0.01011971384,-0.00186415785,-0.0114512546
69.98655556,0.01118494663,-0.0007989247679,-0.01251648832
69.98902978,0.01011971384,0.002396774245,-0.009320789017
69.99150405,0.01011971384,-0.0007989247679,-0.007190322969
69.99397827,0.01118494663,-0.0007989247679,-0.005059856921
69.99645249,0.01225017942,-0.0007989247679,-0.01038602181
69.99892671,0.01118494663,0.001331541222,-0.006125089712
70.00140098,0.01438064594,0.000266308256,-0.003994623665
70.0038752,0.01225017942,-0.002929390874,-0.005059856921
70.00634942,0.01011971384,0.001331541222,-0.005059856921
70.00882364,0.01225017942,0.002396774245,-0.006125089712
70.01130614,0.01011971384,0.001331541222,-0.008255556226
70.01378035,0.01225017942,0.001331541222,-0.007190322969
70.01625457,0.01118494663,-0.0007989247679,-0.009320789017
70.01872879,0.01331541315,0.002396774245,-0.008255556226
70.02120306,0.01011971384,-0.0007989247679,-0.009320789017
70.02367728,0.01225017942,0.003462007269,-0.0007989247679
70.0261515,0.01225017942,0.003462007269,-0.008255556226
70.02862577,0.01118494663,-0.00186415785,-0.009320789017
70.03109999,0.01225017942,-0.003994623665,-0.007190322969
70.03357421,0.01331541315,0.002396774245,-0.008255556226
70.03604843,0.01011971384,0.000266308256,-0.009320789017
70.0385227,0.01011971384,-0.00186415785,-0.009320789017
70.04099285,0.01118494663,-0.002929390874,-0.008255556226
70.04346707,0.01011971384,-0.007190322969,-0.008255556226
70.04594129,0.01225017942,-0.00186415785,-0.0114512546
70.04841556,0.01331541315,-0.0007989247679,-0.0114512546
70.05088978,0.01544587873,-0.00186415785,-0.0114512546
70.053364,0.01118494663,-0.006125089712,-0.009320789017
70.05583822,0.01118494663,-0.007190322969,-0.01251648832
70.05831249,0.01118494663,-0.005059856921,-0.01251648832
70.06078671,0.01438064594,-0.005059856921,-0.01038602181
70.06326093,0.01438064594,-0.007190322969,-0.009320789017
70.06573515,0.01331541315,-0.005059856921,-0.01038602181
70.06820942,0.01225017942,-0.007190322969,-0.01038602181
70.07068666,0.01544587873,-0.006125089712,-0.01358172111
70.07316088,0.01331541315,-0.003994623665,-0.0114512546
70.07563509,0.01438064594,-0.008255556226,-0.01038602181
70.07810936,0.01331541315,-0.008255556226,-0.008255556226
70.08058358,0.01544587873,-0.009320789017,-0.008255556226
70.0830578,0.01651111245,-0.008255556226,-0.009320789017
70.08553202,0.01331541315,-0.006125089712,-0.009320789017
70.08800629,0.01651111245,-0.006125089712,-0.008255556226
70.09048051,0.01438064594,-0.006125089712,-0.007190322969
70.09295473,0.01544587873,-0.009320789017,-0.007190322969
70.09542895,0.01651111245,-0.008255556226,-0.01251648832
70.09790322,0.01544587873,-0.008255556226,-0.01038602181
70.10037416,0.01438064594,-0.008255556226,-0.01038602181
70.10284838,0.01438064594,-0.007190322969,-0.008255556226
70.10532259,0.01331541315,-0.008255556226,-0.01038602181
70.10779686,0.01651111245,-0.007190322969,-0.01251648832
70.11027108,0.01757634431,-0.008255556226,-0.008255556226
70.1127453,0.01544587873,-0.005059856921,-0.009320789017
70.11521952,0.01331541315,-0.008255556226,-0.0114512546
70.11769379,0.01544587873,-0.003994623665,-0.0114512546
70.12016801,0.01544587873,-0.007190322969,-0.008255556226
70.12264223,0.01544587873,-0.005059856921,-0.01038602181
70.12511645,0.01438064594,-0.005059856921,-0.01251648832
70.12759072,0.01331541315,-0.003994623665,-0.01038602181
70.13006546,0.01225017942,-0.00186415785,-0.009320789017
70.13253968,0.01651111245,0.000266308256,-0.01358172111
70.1350139,0.01651111245,-0.00186415785,-0.0114512546
70.13748817,0.01544587873,0.002396774245,-0.009320789017
70.13996238,0.01225017942,0.001331541222,-0.009320789017
70.1424366,0.01438064594,-0.0007989247679,-0.0114512546
70.14491082,0.01757634431,0.003462007269,-0.009320789017
70.14738509,0.01651111245,0.002396774245,-0.009320789017
70.14985931,0.01544587873,0.002396774245,-0.007190322969
70.15233353,0.01544587873,-0.0007989247679,-0.009320789017
70.15480775,0.01225017942,-0.0007989247679,-0.009320789017
70.15728202,0.01544587873,0.000266308256,-0.008255556226
70.15975525,0.01438064594,0.002396774245,-0.0114512546
70.16222947,0.01544587873,0.003462007269,-0.009320789017
70.16470369,0.01544587873,-0.00186415785,-0.008255556226
70.16717796,0.01651111245,0.000266308256,-0.0114512546
70.16965218,0.01544587873,0.003462007269,-0.01251648832
70.1721264,0.01331541315,0.001331541222,-0.0114512546
70.17460067,0.01438064594,0.003462007269,-0.01038602181
70.17707489,0.01544587873,0.001331541222,-0.009320789017
70.1795491,0.01651111245,0.002396774245,-0.009320789017
70.18202332,0.01331541315,0.003462007269,-0.01358172111
70.18449759,0.01331541315,0.002396774245,-0.01038602181
70.18697181,0.01651111245,0.004527240526,-0.009320789017
70.18944796,0.01651111245,-0.00186415785,-0.0114512546
70.19192218,0.01651111245,-0.002929390874,-0.01251648832
70.1943964,0.01544587873,0.001331541222,-0.01358172111
70.19687067,0.01651111245,0.002396774245,-0.01358172111
70.19934488,0.01438064594,0.005592473317,-0.0114512546
70.2018191,0.01544587873,0.002396774245,-0.0114512546
70.20429338,0.01651111245,0.002396774245,-0.01038602181
70.20676759,0.01651111245,0.007722939365,-0.0114512546
70.20924181,0.01544587873,0.006657706574,-0.01038602181
70.21171603,0.01438064594,0.005592473317,-0.009320789017
70.2141903,0.01438064594,0.005592473317,-0.0114512546
70.21666452,0.01757634431,0.007722939365,-0.01038602181
70.21914155,0.01970681176,0.008788172156,-0.009320789017
70.22161582,0.01651111245,0.008788172156,-0.009320789017
70.22409004,0.01651111245,0.006657706574,-0.01358172111
70.22656426,0.01544587873,0.005592473317,-0.0114512546
70.22903853,0.01651111245,0.008788172156,-0.008255556226
70.23151275,0.01544587873,0.008788172156,-0.007190322969
70.23398697,0.01864157803,0.008788172156,-0.006125089712
70.23646124,0.01651111245,0.01198387146,-0.005059856921
70.23893546,0.01757634431,0.01198387146,-0.006125089712
70.24140968,0.01757634431,0.01091863867,-0.007190322969
70.2438839,0.01651111245,0.009853405878,-0.006125089712
70.24635817,0.01651111245,0.008788172156,-0.007190322969
70.24882712,0.01438064594,0.01198387146,-0.006125089712
70.25130134,0.01544587873,0.009853405878,-0.006125089712
70.25377556,0.01438064594,0.008788172156,-0.007190322969
70.25624983,0.01331541315,0.01198387146,-0.007190322969
70.25872405,0.01544587873,0.009853405878,-0.005059856921
70.26119827,0.01651111245,0.008788172156,-0.005059856921
70.26367254,0.01438064594,0.01198387146,-0.006125089712
70.26614676,0.01331541315,0.006657706574,-0.009320789017
70.26862098,0.01544587873,0.004527240526,-0.007190322969
70.2710952,0.01544587873,0.004527240526,-0.007190322969
70.27356947,0.01651111245,0.004527240526,-0.008255556226
70.27604369,0.01864157803,0.001331541222,-0.01038602181
70.27851978,0.01544587873,0.006657706574,-0.01038602181
70.280994,0.01438064594,0.004527240526,-0.009320789017
70.28346822,0.01544587873,0.001331541222,-0.009320789017
70.28594249,0.01651111245,0.000266308256,-0.01038602181
70.28841671,0.01544587873,0.001331541222,-0.009320789017
70.29089093,0.01544587873,-0.0007989247679,-0.009320789017
70.2933652,0.01331541315,-0.0007989247679,-0.01038602181
70.29583942,0.01438064594,0.001331541222,-0.01251648832
70.29831364,0.01438064594,0.001331541222,-0.009320789017
70.30078785,0.01438064594,0.004527240526,-0.008255556226
70.30326207,0.01438064594,0.002396774245,-0.007190322969
70.30573634,0.01651111245,0.002396774245,-0.007190322969
70.30821082,0.01438064594,0.000266308256,-0.009320789017
70.31068504,0.01225017942,-0.0007989247679,-0.008255556226
70.31315926,0.01544587873,-0.0007989247679,-0.007190322969
70.31563348,0.01438064594,0.002396774245,-0.006125089712
70.31810775,0.01438064594,0.000266308256,-0.008255556226
70.32058197,0.01544587873,-0.0007989247679,-0.006125089712
70.32305624,0.01544587873,-0.00186415785,-0.007190322969
70.32553046,0.01225017942,-0.002929390874,-0.009320789017
70.32800468,0.01225017942,-0.00186415785,-0.007190322969
70.3304789,0.01331541315,-0.0007989247679,-0.007190322969
70.33295317,0.01438064594,-0.0007989247679,-0.005059856921
70.33542738,0.01438064594,0.003462007269,-0.006125089712
70.33790176,0.01544587873,0.002396774245,-0.002929390874
70.34037598,0.01331541315,0.001331541222,-0.00186415785
70.3428502,0.01225017942,0.002396774245,-0.005059856921
70.34532447,0.01225017942,0.002396774245,-0.002929390874
70.34779869,0.01225017942,0.002396774245,-0.00186415785
70.35027291,0.01225017942,-0.0007989247679,-0.003994623665
70.35274718,0.01118494663,0.000266308256,-0.0007989247679
70.3552214,0.01011971384,0.002396774245,-0.003994623665
70.35769562,0.01118494663,0.002396774245,-0.0007989247679
70.36016983,0.01011971384,0.001331541222,-0.0007989247679
70.3626441,0.01118494663,0.002396774245,-0.003994623665
70.36511832,0.009054481052,0.001331541222,-0.005059856921
70.3675939,0.009054481052,0.002396774245,-0.003994623665
70.37006812,0.006924014539,0.002396774245,-0.006125089712
70.37254233,0.01118494663,0.003462007269,-0.009320789017
70.3750166,0.01118494663,0.000266308256,-0.005059856921
70.37749082,0.006924014539,0.001331541222,-0.003994623665
70.37996504,0.00798924733,0.002396774245,-0.005059856921
70.38243931,0.01225017942,0.000266308256,-0.005059856921
70.38491353,0.01118494663,0.002396774245,-0.003994623665
70.38738775,0.009054481052,0.001331541222,-0.005059856921
70.38986197,0.01225017942,0.000266308256,-0.008255556226
70.39233624,0.01011971384,-0.00186415785,-0.003994623665
70.39481046,0.006924014539,-0.002929390874,-0.006125089712
70.39728327,0.006924014539,-0.00186415785,-0.007190322969
70.39975749,0.01118494663,-0.00186415785,-0.007190322969
70.40223171,0.00798924733,-0.002929390874,-0.009320789017
70.40470598,0.009054481052,-0.002929390874,-0.009320789017
70.4071802,0.009054481052,-0.00186415785,-0.009320789017
70.40965442,0.01011971384,-0.003994623665,-0.01038602181
70.41212869,0.01118494663,-0.00186415785,-0.01358172111
70.41460291,0.01011971384,-0.0007989247679,-0.0114512546
70.41707712,0.01118494663,-0.003994623665,-0.007190322969
70.41955134,0.01331541315,-0.00186415785,-0.01038602181
70.42202562,0.01011971384,0.001331541222,-0.007190322969
70.42449983,0.006924014539,-0.0007989247679,-0.01038602181
70.42696384,0.01331541315,0.003462007269,-0.008255556226
70.42943806,0.01118494663,0.006657706574,-0.005059856921
70.43191228,0.01118494663,0.005592473317,0.000266308256
70.4343865,0.01118494663,0.004527240526,-0.002929390874
70.43686077,0.01225017942,0.005592473317,-0.005059856921
70.43933499,0.01438064594,0.005592473317,-0.002929390874
70.44180926,0.01011971384,0.003462007269,-0.002929390874
70.44428348,0.01011971384,0.003462007269,-0.005059856921
70.4467577,0.01118494663,0.004527240526,-0.002929390874
70.44923192,0.01331541315,0.002396774245,0.000266308256
70.45170614,0.01118494663,0.002396774245,-0.00186415785
70.45418035,0.01438064594,0.004527240526,0.001331541222
70.45665327,0.01438064594,0.006657706574,0.002396774245
70.45912749,0.01331541315,0.004527240526,-0.0007989247679
70.46160171,0.009054481052,0.001331541222,-0.005059856921
70.46407593,0.01225017942,0.001331541222,-0.0007989247679
70.46655015,0.01331541315,0.004527240526,0.000266308256
70.46902442,0.01118494663,0.002396774245,-0.006125089712
70.47149864,0.01331541315,0.008788172156,-0.002929390874
70.47397285,0.01011971384,0.008788172156,0.000266308256
70.47644707,0.01011971384,0.007722939365,0.000266308256
70.47892134,0.01331541315,0.005592473317,0.002396774245
70.48139556,0.01225017942,0.005592473317,0.000266308256
70.48386978,0.00798924733,0.005592473317,-0.0007989247679
70.48634405,0.01118494663,0.004527240526,-0.00186415785
70.48881822,0.01225017942,0.004527240526,-0.002929390874
70.49129244,0.01118494663,0.003462007269,-0.002929390874
70.49376671,0.01118494663,0.005592473317,0.000266308256
70.49624098,0.01118494663,0.005592473317,-0.00186415785
70.4987152,0.01011971384,0.004527240526,-0.002929390874
70.50118942,0.009054481052,0.003462007269,-0.009320789017
70.50366369,0.009054481052,0.002396774245,-0.005059856921
70.50613791,0.009054481052,0.004527240526,-0.002929390874
70.50861212,0.009054481052,0.003462007269,-0.002929390874
70.51108634,0.01118494663,0.004527240526,-0.009320789017
70.51356062,0.01331541315,0.004527240526,-0.009320789017
70.51606207,0.00798924733,0.002396774245,-0.003994623665
70.51853629,0.009054481052,0.003462007269,-0.00186415785
70.52101051,0.01331541315,0.003462007269,-0.006125089712
70.52348478,0.01225017942,0.004527240526,-0.005059856921
70.525959,0.009054481052,0.003462007269,-0.003994623665
70.52843322,0.009054481052,0.001331541222,-0.007190322969
70.53090749,0.00798924733,0.001331541222,-0.006125089712
70.53338171,0.01011971384,0.004527240526,-0.005059856921
70.53585593,0.01225017942,0.000266308256,-0.01038602181
70.53833015,0.00798924733,0.000266308256,-0.0114512546
70.54080442,0.01118494663,-0.00186415785,-0.008255556226
70.54327858,0.01438064594,-0.0007989247679,-0.006125089712
70.54573848,0.01331541315,0.003462007269,-0.005059856921
70.5482127,0.01438064594,-0.002929390874,-0.007190322969
70.55068692,0.01011971384,-0.0007989247679,-0.008255556226
70.55316119,0.009054481052,0.001331541222,-0.007190322969
70.55563541,0.01544587873,-0.0007989247679,-0.006125089712
70.55810962,0.01331541315,0.000266308256,-0.007190322969
70.5605839,0.01544587873,0.000266308256,-0.00186415785
70.56305812,0.01225017942,-0.00186415785,-0.00186415785
70.56553233,0.01225017942,-0.0007989247679,-0.006125089712
70.56800655,0.01118494663,-0.006125089712,-0.006125089712
70.57048082,0.01331541315,-0.005059856921,-0.003994623665
70.57295504,0.01225017942,-0.006125089712,-0.00186415785
70.57542947,0.01118494663,-0.002929390874,-0.00186415785
70.57790369,0.01118494663,-0.00186415785,-0.00186415785
70.58037791,0.01011971384,0.001331541222,-0.0007989247679
70.58285218,0.01118494663,0.001331541222,-0.00186415785
70.5853264,0.009054481052,0.002396774245,-0.0007989247679
70.58780062,0.009054481052,0.000266308256,-0.00186415785
70.59027488,0.01118494663,0.000266308256,-0.0007989247679
70.5927491,0.01011971384,0.002396774245,-0.00186415785
70.59523306,0.009054481052,0.003462007269,-0.0007989247679
70.59771697,0.01011971384,0.003462007269,0.000266308256
70.60019119,0.009054481052,0.005592473317,0.001331541222
70.6026564,0.01011971384,0.006657706574,0.001331541222
70.60512155,0.01011971384,0.005592473317,0.002396774245
70.60759577,0.01011971384,0.007722939365,0.001331541222
70.61006067,0.006924014539,0.008788172156,0.003462007269
70.61252551,0.005858781748,0.006657706574,0.002396774245
70.61499973,0.00798924733,0.005592473317,0.002396774245
70.6174739,0.005858781748,0.006657706574,0.003462007269
70.61994812,0.004793548491,0.006657706574,0.001331541222
70.62242239,0.009054481052,0.007722939365,-0.0007989247679
70.6248966,0.00798924733,0.007722939365,0.003462007269
70.62737082,0.004793548491,0.005592473317,0.002396774245
70.62987015,0.0037283157,0.003462007269,0.001331541222
70.63236942,0.004793548491,0.001331541222,0.002396774245
70.63484369,0.00798924733,0.003462007269,0.003462007269
70.63731791,0.006924014539,0.004527240526,0.001331541222
70.63979218,0.00798924733,0.004527240526,0.005592473317
70.6422664,0.00798924733,0.002396774245,0.002396774245
70.64474062,0.00798924733,0.001331541222,0.000266308256
70.64721483,0.00798924733,0.005592473317,0.003462007269
70.64968905,0.0037283157,0.002396774245,0.001331541222
70.65216332,0.005858781748,-0.0007989247679,-0.003994623665
70.65463754,0.009054481052,0.000266308256,0.000266308256
70.65711181,0.009054481052,0.000266308256,-0.002929390874
70.65954551,0.00798924733,0.001331541222,0.001331541222
70.66201973,0.01011971384,0.002396774245,0.001331541222
70.66449395,0.01225017942,0.000266308256,-0.0007989247679
70.66696822,0.006924014539,-0.002929390874,-0.002929390874
70.66944244,0.005858781748,-0.002929390874,0.000266308256
70.67191671,0.005858781748,-0.0007989247679,0.000266308256
70.67439093,0.00798924733,-0.00186415785,-0.003994623665
70.67686515,0.006924014539,-0.00186415785,-0.00186415785
70.67933936,0.005858781748,-0.0007989247679,0.000266308256
70.68181364,0.005858781748,-0.0007989247679,0.001331541222
70.68428785,0.006924014539,0.002396774245,0.001331541222
70.68676207,0.009054481052,0.000266308256,-0.00186415785
70.6892452,0.006924014539,-0.005059856921,0.001331541222
70.69171942,0.005858781748,0.000266308256,0.001331541222
70.69419364,0.002663082443,0.001331541222,0.000266308256
70.69666791,0.006924014539,0.000266308256,-0.00186415785
70.69914213,0.005858781748,0.000266308256,0.003462007269
70.70161634,0.00798924733,0.001331541222,0.003462007269
70.70409062,0.006924014539,0.002396774245,-0.0007989247679
70.70656483,0.005858781748,-0.0007989247679,0.001331541222
70.70903905,0.006924014539,0.000266308256,-0.00186415785
70.71151327,0.00798924733,-0.00186415785,-0.00186415785
70.71398754,0.01118494663,0.000266308256,0.000266308256
70.71646176,0.00798924733,0.002396774245,-0.002929390874
70.71893483,0.006924014539,0.001331541222,-0.002929390874
70.72140905,0.00798924733,-0.00186415785,-0.00186415785
70.72388327,0.004793548491,-0.003994623665,-0.002929390874
70.72635754,0.005858781748,-0.003994623665,0.001331541222
70.72883176,0.00798924733,-0.002929390874,0.003462007269
70.73130598,0.01118494663,-0.002929390874,0.002396774245
70.73378025,0.01011971384,-0.002929390874,0.002396774245
70.73625447,0.00798924733,-0.0007989247679,0.003462007269
70.73872869,0.006924014539,-0.002929390874,0.003462007269
70.74120291,0.005858781748,-0.003994623665,0.002396774245
70.74367718,0.00798924733,-0.002929390874,0.002396774245
70.7461514,0.006924014539,-0.008255556226,0.002396774245
70.74862801,0.006924014539,-0.006125089712,-0.0007989247679
70.75110223,0.00798924733,-0.002929390874,0.001331541222
70.75357645,0.00798924733,-0.003994623665,-0.0007989247679
70.75605072,0.00798924733,-0.006125089712,0.001331541222
70.75852494,0.006924014539,-0.002929390874,0.002396774245
70.76099916,0.006924014539,-0.002929390874,0.000266308256
70.76347343,0.006924014539,-0.006125089712,0.001331541222
70.76594765,0.005858781748,-0.006125089712,0.001331541222
70.76842187,0.005858781748,-0.008255556226,0.002396774245
70.77089608,0.006924014539,-0.006125089712,0.002396774245
70.77337035,0.005858781748,-0.006125089712,0.003462007269
70.77584457,0.0037283157,-0.006125089712,-0.00186415785
70.77831707,0.006924014539,-0.007190322969,0.003462007269
70.78079129,0.006924014539,-0.008255556226,0.001331541222
70.78326551,0.0037283157,-0.007190322969,-0.00186415785
70.78573978,0.005858781748,-0.005059856921,0.001331541222
70.788214,0.005858781748,-0.0007989247679,0.001331541222
70.79068822,0.001597849536,-0.00186415785,0.001331541222
70.79316249,0.002663082443,-0.0007989247679,0.000266308256
70.79563671,0.006924014539,-0.00186415785,0.002396774245
70.79811093,0.006924014539,-0.00186415785,0.002396774245
70.80058515,0.004793548491,-0.002929390874,-0.0007989247679
70.80305942,0.004793548491,-0.003994623665,-0.0007989247679
70.80553364,0.004793548491,0.001331541222,-0.0007989247679
70.80800853,0.006924014539,0.002396774245,-0.0007989247679
70.81048275,0.002663082443,-0.00186415785,-0.0007989247679
70.81295697,0.006924014539,0.002396774245,0.001331541222
70.81543124,0.006924014539,0.004527240526,0.000266308256
70.81790546,0.0037283157,0.004527240526,0.000266308256
70.82037968,0.005858781748,0.002396774245,0.005592473317
70.82285395,0.006924014539,0.002396774245,0.005592473317
70.82532817,0.004793548491,-0.003994623665,0.001331541222
70.82780238,0.005858781748,0.001331541222,0.001331541222
70.8302766,0.004793548491,0.003462007269,0.005592473317
70.83275088,0.002663082443,0.003462007269,0.003462007269
70.83522509,0.006924014539,0.001331541222,0.004527240526
70.83769916,0.005858781748,-0.0007989247679,0.003462007269
70.84017338,0.004793548491,0.001331541222,0.002396774245
70.84264759,0.006924014539,0.000266308256,0.001331541222
70.84512187,0.00798924733,0.001331541222,0.004527240526
70.84759608,0.005858781748,0.000266308256,0.004527240526
70.8500703,0.0037283157,-0.0007989247679,0.003462007269
70.85254457,0.00798924733,0.002396774245,0.004527240526
70.85501879,0.004793548491,0.001331541222,0.005592473317
70.85749301,0.0037283157,-0.00186415785,0.003462007269
70.85996723,0.002663082443,0.000266308256,0.002396774245
70.8624415,0.002663082443,0.002396774245,0.006657706574
70.86491572,0.005858781748,0.002396774245,0.006657706574
70.86739395,0.005858781748,0.001331541222,0.006657706574
70.86986817,0.002663082443,0.001331541222,0.002396774245
70.87234239,0.004793548491,0.001331541222,0.005592473317
70.87481666,0.005858781748,0.004527240526,0.005592473317
70.87729088,0.005858781748,0.004527240526,0.005592473317
70.87976509,0.002663082443,0.006657706574,0.006657706574
70.88223936,0.0037283157,0.005592473317,0.006657706574
70.88471358,0.006924014539,0.008788172156,0.004527240526
70.8871878,0.001597849536,0.005592473317,0.003462007269
70.88966202,0.002663082443,0.005592473317,0.004527240526
70.89213629,0.002663082443,0.005592473317,0.005592473317
70.89461051,-0.0005326165119,0.005592473317,0.005592473317
70.89708405,-0.001597849536,0.005592473317,0.009853405878
70.89955827,0.0005326165119,0.009853405878,0.006657706574
70.90203249,-0.0005326165119,0.007722939365,0.002396774245
70.90450676,0.0037283157,0.007722939365,0.005592473317
70.90698098,0.0005326165119,0.007722939365,0.005592473317
70.9094552,0.0037283157,0.008788172156,0.008788172156
70.91192947,0.0037283157,0.008788172156,0.007722939365
70.91440369,-0.0005326165119,0.006657706574,0.006657706574
70.91687791,0.001597849536,0.008788172156,0.007722939365
70.91935212,0.0037283157,0.007722939365,0.006657706574
70.9218264,0.0005326165119,0.005592473317,0.006657706574
70.92430062,0.001597849536,0.005592473317,0.003462007269
70.92677228,0.0005326165119,0.007722939365,0.000266308256
70.9292465,0.001597849536,0.005592473317,0.004527240526
70.93172072,0.0005326165119,0.005592473317,0.004527240526
70.93419499,0.004793548491,0.006657706574,0.003462007269
70.93666921,-0.0005326165119,0.005592473317,0.004527240526
70.93914343,0.0005326165119,0.002396774245,0.003462007269
70.9416177,0.0037283157,0.006657706574,0.004527240526
70.94409192,0.001597849536,0.006657706574,0.005592473317
70.94656614,-0.0005326165119,0.007722939365,0.001331541222
70.94904035,0.0037283157,0.005592473317,0.007722939365
70.95151462,0.002663082443,0.005592473317,0.008788172156
70.95398884,0.001597849536,0.001331541222,0.006657706574
70.95646463,0.001597849536,0.002396774245,0.003462007269
70.95893884,-0.001597849536,0.000266308256,0.007722939365
70.96141306,0.001597849536,0.005592473317,0.01304910425
70.96388733,-0.0005326165119,0.005592473317,0.007722939365
70.96636155,0.0005326165119,0.003462007269,0.008788172156
70.96883577,0.001597849536,0.005592473317,0.009853405878
70.97131004,-0.002663082443,0.005592473317,0.01091863867
70.97378426,-0.001597849536,0.005592473317,0.01091863867
70.97625848,-0.0037283157,0.002396774245,0.009853405878
70.9787327,-0.002663082443,0.004527240526,0.01198387146
70.98120692,-0.0037283157,0.005592473317,0.008788172156
70.98368119,-0.0037283157,0.006657706574,0.01091863867
70.98615499,-0.0037283157,0.006657706574,0.01411433797
70.98862921,-0.004793548491,0.007722939365,0.01198387146
70.99110343,-0.0037283157,0.005592473317,0.01091863867
70.9935777,-0.005858781748,0.006657706574,0.009853405878
70.99605192,-0.005858781748,0.003462007269,0.01198387146
70.99852614,-0.004793548491,0.003462007269,0.01091863867
71.00100041,-0.005858781748,0.005592473317,0.01091863867
71.00347463,-0.005858781748,0.004527240526,0.01304910425
71.00594884,-0.005858781748,0.004527240526,0.01091863867
71.00842306,-0.006924014539,0.006657706574,0.009853405878
71.01089733,-0.005858781748,0.005592473317,0.008788172156
71.01337155,-0.004793548491,0.003462007269,0.009853405878
71.01584697,-0.002663082443,0.003462007269,0.009853405878
71.01832119,-0.006924014539,0.004527240526,0.007722939365
71.02079541,-0.006924014539,0.004527240526,0.006657706574
71.02326968,-0.0037283157,0.003462007269,0.008788172156
71.0257439,-0.005858781748,0.005592473317,0.009853405878
71.02821812,-0.00798924733,0.004527240526,0.01091863867
71.03069239,-0.006924014539,0.003462007269,0.01198387146
71.0331666,-0.006924014539,0.005592473317,0.006657706574
71.03564082,-0.00798924733,0.003462007269,0.006657706574
71.03811504,-0.004793548491,0.007722939365,0.01091863867
71.04058931,-0.006924014539,0.004527240526,0.009853405878
71.04306353,-0.01225017942,0.004527240526,0.005592473317
71.04553728,-0.006924014539,0.006657706574,0.007722939365
71.0480115,-0.0037283157,0.004527240526,0.01198387146
71.05048572,-0.004793548491,0.006657706574,0.009853405878
71.05295999,-0.005858781748,0.009853405878,0.005592473317
71.05543421,-0.004793548491,0.006657706574,0.009853405878
71.05790843,-0.006924014539,0.007722939365,0.01091863867
71.06038265,-0.006924014539,0.006657706574,0.007722939365
71.06285692,-0.006924014539,0.006657706574,0.01091863867
71.06533114,-0.009054481052,0.007722939365,0.01091863867
71.06780535,-0.01011971384,0.005592473317,0.01091863867
71.07027962,-0.005858781748,0.002396774245,0.006657706574
71.07275384,-0.005858781748,0.004527240526,0.008788172156
71.07522879,-0.005858781748,0.006657706574,0.006657706574
71.07770301,-0.004793548491,0.004527240526,0.007722939365
71.08017723,-0.002663082443,0.002396774245,0.005592473317
71.0826515,-0.002663082443,0.001331541222,0.003462007269
71.08512572,-0.001597849536,0.002396774245,0.003462007269
71.08759994,-0.0005326165119,0.001331541222,0.003462007269
71.09007421,-0.001597849536,-0.00186415785,0.003462007269
71.09254838,-0.001597849536,0.000266308256,0.003462007269
71.09502265,-0.0005326165119,-0.003994623665,0.001331541222
71.09749687,0.0005326165119,-0.002929390874,-0.0007989247679
71.09997114,0.0005326165119,-0.00186415785,0.002396774245
71.10244535,0.0037283157,-0.002929390874,0.002396774245
71.10491759,0.001597849536,-0.003994623665,0.001331541222
71.10739181,-0.0005326165119,-0.0007989247679,0.005592473317
71.10986603,-0.002663082443,-0.0007989247679,0.003462007269
71.1123403,-0.0005326165119,-0.00186415785,0.003462007269
71.11481452,-0.0005326165119,-0.0007989247679,0.002396774245
71.11728874,-0.0005326165119,-0.005059856921,0.001331541222
71.11976301,0.0005326165119,-0.0007989247679,0.004527240526
71.12223723,0.0005326165119,-0.0007989247679,0.002396774245
71.12471145,0.0037283157,-0.0007989247679,0.000266308256
71.12718567,0.001597849536,0.001331541222,0.001331541222
71.12965994,0.0005326165119,0.001331541222,0.002396774245
71.13213416,0.002663082443,-0.00186415785,0.002396774245
71.13460817,0.002663082443,-0.0007989247679,0.002396774245
71.13708238,0.0005326165119,-0.0007989247679,0.002396774245
71.13955655,-0.0005326165119,-0.005059856921,0.002396774245
71.14203077,0.0005326165119,-0.00186415785,0.002396774245
71.14450499,0.002663082443,-0.0007989247679,0.001331541222
71.14697916,0.002663082443,0.003462007269,0.005592473317
71.14945338,0.004793548491,0.000266308256,0.006657706574
71.15192759,0.0037283157,0.001331541222,0.005592473317
71.15440176,0.0037283157,0.002396774245,0.005592473317
71.15687598,0.002663082443,-0.0007989247679,0.004527240526
71.1593502,0.002663082443,0.001331541222,0.005592473317
71.16182442,0.001597849536,-0.0007989247679,0.006657706574
71.16429999,0.001597849536,0.000266308256,0.003462007269
71.16677421,0.0005326165119,-0.0007989247679,0.003462007269
71.16924838,-0.001597849536,0.000266308256,0.003462007269
71.17172259,-0.0005326165119,0.000266308256,0.005592473317
71.17419681,-0.0005326165119,-0.003994623665,0.007722939365
71.17667098,0.0005326165119,0.001331541222,0.003462007269
71.1791452,-0.001597849536,-0.0007989247679,0.003462007269
71.18161942,-0.0005326165119,-0.002929390874,0.004527240526
71.18409358,-0.001597849536,-0.00186415785,0.002396774245
71.1865678,-0.0005326165119,-0.002929390874,0.003462007269
71.18904202,-0.0037283157,-0.00186415785,0.002396774245
71.19151624,0.0005326165119,-0.0007989247679,0.002396774245
71.19399129,-0.0005326165119,-0.00186415785,0.004527240526
71.19646551,-0.0005326165119,0.000266308256,0.005592473317
71.19893968,0.0005326165119,-0.0007989247679,0.004527240526
71.2014139,-0.001597849536,0.002396774245,0.004527240526
71.20388806,-0.0037283157,0.004527240526,0.007722939365
71.20636228,-0.001597849536,0.000266308256,0.005592473317
71.2088365,-0.004793548491,-0.00186415785,0.003462007269
71.21131072,-0.004793548491,0.000266308256,0.003462007269
71.21378489,-0.0037283157,-0.0007989247679,0.003462007269
71.2162591,-0.002663082443,0.002396774245,0.003462007269
71.21873332,-0.005858781748,0.003462007269,0.007722939365
71.22120754,-0.009054481052,0.000266308256,0.008788172156
71.22368374,-0.0037283157,0.000266308256,0.003462007269
71.22615796,-0.001597849536,0.000266308256,0.002396774245
71.22863212,-0.005858781748,-0.00186415785,0.004527240526
71.23110634,-0.005858781748,-0.0007989247679,0.007722939365
71.23358056,-0.002663082443,-0.0007989247679,0.005592473317
71.23605473,-0.0037283157,-0.0007989247679,0.01091863867
71.23852895,-0.004793548491,0.001331541222,0.006657706574
71.24100317,-0.002663082443,0.003462007269,0.005592473317
71.24347733,-0.004793548491,-0.00186415785,0.007722939365
71.24595155,-0.006924014539,0.002396774245,0.007722939365
71.24842577,-0.01118494663,0.000266308256,0.002396774245
71.25089999,-0.009054481052,-0.0007989247679,0.003462007269
71.25337421,-0.0037283157,0.004527240526,0.009853405878
71.25584843,-0.002663082443,0.004527240526,0.005592473317
71.25832259,-0.004793548491,0.004527240526,0.006657706574
71.26079681,-0.005858781748,0.006657706574,0.007722939365
71.26327103,-0.006924014539,0.004527240526,0.003462007269
71.2657452,-0.004793548491,0.004527240526,0.003462007269
71.26821942,-0.002663082443,0.009853405878,0.006657706574
71.27069364,-0.0037283157,0.008788172156,0.009853405878
71.2731678,-0.005858781748,0.006657706574,0.006657706574
71.27564202,-0.0037283157,0.007722939365,0.006657706574
71.27811624,-0.0037283157,0.01198387146,0.007722939365
71.28059046,-0.004793548491,0.01091863867,0.008788172156
71.28306442,-0.0037283157,0.01198387146,0.008788172156
71.28553864,-0.001597849536,0.01198387146,0.008788172156
71.2880128,-0.002663082443,0.009853405878,0.007722939365
71.29048702,-0.0037283157,0.009853405878,0.01091863867
71.29296124,-0.002663082443,0.01091863867,0.009853405878
71.29543541,-0.002663082443,0.009853405878,0.01091863867
71.29790962,-0.002663082443,0.007722939365,0.01091863867
71.30038384,-0.001597849536,0.01304910425,0.006657706574
71.30285801,-0.0005326165119,0.01198387146,0.01091863867
71.30533223,-0.002663082443,0.01517957076,0.008788172156
71.30780645,-0.005858781748,0.01091863867,0.006657706574
71.31028067,-0.0037283157,0.006657706574,0.007722939365
71.3127541,-0.002663082443,0.01198387146,0.008788172156
71.31522832,-0.005858781748,0.01091863867,0.009853405878
71.31770249,-0.004793548491,0.007722939365,0.007722939365
71.32017671,-0.001597849536,0.007722939365,0.006657706574
71.32265093,-0.006924014539,0.007722939365,0.004527240526
71.32512509,-0.005858781748,0.007722939365,0.003462007269
71.32759931,-0.006924014539,0.009853405878,0.005592473317
71.33007353,-0.009054481052,0.005592473317,0.004527240526
71.3325477,-0.004793548491,0.005592473317,0.002396774245
71.33502192,-0.006924014539,0.005592473317,0.003462007269
71.33749614,-0.006924014539,0.005592473317,0.004527240526
71.33997035,-0.004793548491,0.006657706574,0.005592473317
71.34244744,-0.006924014539,0.004527240526,0.002396774245
71.34492166,-0.006924014539,0.007722939365,0.002396774245
71.34739582,-0.004793548491,0.007722939365,0.003462007269
71.34987004,-0.0037283157,0.003462007269,0.004527240526
71.35234426,-0.002663082443,0.003462007269,0.005592473317
71.35481843,-0.005858781748,0.003462007269,0.003462007269
71.35729265,-0.004793548491,0.003462007269,0.005592473317
71.35976686,-0.004793548491,0.001331541222,0.006657706574
71.36224103,-0.002663082443,0.002396774245,0.006657706574
71.36471525,-0.0037283157,0.002396774245,0.004527240526
71.36718947,-0.002663082443,0.002396774245,0.003462007269
71.36966369,-0.0037283157,0.001331541222,0.004527240526
71.37213879,-0.005858781748,0.000266308256,0.005592473317
71.37461301,-0.004793548491,-0.0007989247679,0.004527240526
71.37708718,-0.001597849536,-0.00186415785,0.005592473317
71.3795614,-0.001597849536,-0.0007989247679,0.004527240526
71.38203562,-0.002663082443,0.001331541222,0.002396774245
71.38450978,-0.0005326165119,-0.0007989247679,0.002396774245
71.386984,-0.001597849536,0.001331541222,0.006657706574
71.38945822,-0.0005326165119,0.000266308256,0.007722939365
71.39193238,-0.0037283157,-0.002929390874,0.004527240526
71.3944066,-0.001597849536,0.000266308256,0.005592473317
71.39688082,-0.001597849536,-0.00186415785,0.006657706574
71.39935504,-0.0037283157,-0.0007989247679,0.003462007269
71.40183509,-0.0005326165119,-0.00186415785,0.003462007269
71.40430931,0.0005326165119,-0.002929390874,0.006657706574
71.40678348,0.0005326165119,-0.00186415785,0.007722939365
71.4092577,-0.0037283157,0.000266308256,0.005592473317
71.41173192,-0.002663082443,-0.00186415785,0.008788172156
71.41420608,-0.0005326165119,-0.00186415785,0.005592473317
71.4166803,-0.0037283157,-0.00186415785,0.004527240526
71.41915452,-0.002663082443,-0.002929390874,0.004527240526
71.42162874,-0.002663082443,-0.003994623665,0.006657706574
71.42410291,-0.004793548491,-0.003994623665,0.008788172156
71.42657713,-0.0037283157,-0.0007989247679,0.005592473317
71.42905129,-0.002663082443,0.000266308256,0.006657706574
71.43151999,-0.006924014539,-0.0007989247679,0.005592473317
71.43399421,-0.001597849536,-0.00186415785,0.006657706574
71.43646838,-0.002663082443,0.000266308256,0.003462007269
71.43894259,-0.005858781748,0.000266308256,0.003462007269
71.44141681,-0.0037283157,0.001331541222,0.001331541222
71.44389098,-0.0005326165119,-0.0007989247679,0.001331541222
71.4463652,-0.002663082443,0.001331541222,0.004527240526
71.44883942,-0.002663082443,0.000266308256,0.003462007269
71.45131358,-0.0037283157,-0.002929390874,0.006657706574
71.4537878,-0.0037283157,-0.002929390874,0.005592473317
71.45626202,-0.0037283157,-0.0007989247679,0.003462007269
71.45873624,-0.002663082443,-0.00186415785,0.004527240526
71.46120999,-0.0037283157,-0.00186415785,0.003462007269
71.46368421,-0.0037283157,-0.003994623665,0.004527240526
71.46615838,0.0005326165119,-0.0007989247679,0.004527240526
71.46863259,-0.0005326165119,-0.00186415785,0.003462007269
71.47110681,-0.001597849536,-0.00186415785,0.001331541222
71.47358098,-0.002663082443,-0.0007989247679,0.003462007269
71.4760552,-0.001597849536,-0.002929390874,0.005592473317
71.47852942,-0.001597849536,-0.0007989247679,0.002396774245
71.48100358,0.0005326165119,0.000266308256,0.002396774245
71.4834778,0.0005326165119,-0.00186415785,0.003462007269
71.48595202,0.0005326165119,-0.005059856921,0.003462007269
71.48842624,-0.002663082443,-0.006125089712,-0.00186415785
71.49090233,-0.001597849536,-0.003994623665,0.001331541222
71.49337655,-0.0005326165119,-0.005059856921,0.003462007269
71.49585072,0.001597849536,-0.003994623665,0.003462007269
71.49832494,-0.0005326165119,-0.005059856921,0.002396774245
71.50079916,-0.001597849536,-0.008255556226,0.002396774245
71.50327332,-0.0005326165119,-0.006125089712,0.000266308256
71.50574754,-0.001597849536,-0.006125089712,-0.00186415785
71.50822176,-0.002663082443,-0.006125089712,0.000266308256
71.51069593,-0.001597849536,-0.006125089712,0.000266308256
71.51317015,-0.001597849536,-0.006125089712,0.000266308256
71.51564436,-0.001597849536,-0.006125089712,0.005592473317
71.51811858,-0.0005326165119,-0.007190322969,0.001331541222
71.52059332,-0.001597849536,-0.003994623665,0.001331541222
71.52306754,-0.002663082443,-0.0007989247679,0.002396774245
71.52554171,0.001597849536,-0.003994623665,0.004527240526
71.52801593,0.002663082443,-0.002929390874,0.003462007269
71.53049015,-0.001597849536,0.000266308256,0.003462007269
71.53296431,0.0005326165119,-0.003994623665,0.003462007269
71.53543853,-0.002663082443,-0.002929390874,0.000266308256
71.53791275,-0.0037283157,0.000266308256,0.000266308256
71.54038692,-0.001597849536,-0.0007989247679,0.005592473317
71.54286114,-0.002663082443,0.001331541222,0.006657706574
71.54533535,-0.005858781748,0.001331541222,0.003462007269
71.54780957,-0.00798924733,0.000266308256,0.005592473317
71.55027155,-0.004793548491,0.004527240526,0.006657706574
71.55274572,-0.0037283157,0.003462007269,0.005592473317
71.55521994,-0.006924014539,0.000266308256,0.006657706574
71.55769416,-0.0037283157,-0.0007989247679,0.004527240526
71.56016832,-0.002663082443,0.003462007269,0.006657706574
71.56264254,-0.004793548491,0.002396774245,0.004527240526
71.56511676,-0.004793548491,0.004527240526,0.000266308256
71.56759098,-0.0037283157,0.002396774245,0.002396774245
71.57006515,0.0005326165119,-0.0007989247679,0.003462007269
71.57253937,-0.001597849536,0.000266308256,0.005592473317
71.57501358,-0.004793548491,0.002396774245,0.003462007269
71.57748775,-0.002663082443,0.000266308256,0.005592473317
71.57997624,-0.001597849536,-0.00186415785,0.005592473317
71.58245046,-0.004793548491,0.000266308256,0.002396774245
71.58492462,-0.002663082443,0.000266308256,0.004527240526
71.58739884,-0.001597849536,-0.00186415785,0.003462007269
71.58987306,-0.006924014539,-0.00186415785,0.003462007269
71.59234723,-0.004793548491,-0.00186415785,0.002396774245
71.59482145,-0.0037283157,-0.003994623665,0.004527240526
71.59729567,-0.004793548491,-0.0007989247679,0.001331541222
71.59976983,-0.004793548491,-0.00186415785,0.001331541222
71.60224405,-0.002663082443,-0.002929390874,0.003462007269
71.60471827,-0.0037283157,-0.00186415785,0.002396774245
71.60719249,-0.001597849536,-0.003994623665,0.003462007269
71.60969166,-0.002663082443,-0.002929390874,0.002396774245
71.61216588,-0.0005326165119,-0.003994623665,0.000266308256
71.61464004,-0.002663082443,-0.005059856921,0.000266308256
71.61711426,-0.002663082443,-0.002929390874,0.000266308256
71.61958848,-0.002663082443,-0.002929390874,0.002396774245
71.6220627,-0.001597849536,-0.003994623665,0.000266308256
71.62453687,-0.001597849536,-0.00186415785,0.002396774245
71.62701108,-0.001597849536,-0.003994623665,0.004527240526
71.6294853,-0.0005326165119,-0.003994623665,0.003462007269
71.63195947,-0.001597849536,-0.002929390874,0.000266308256
71.63443369,-0.002663082443,-0.005059856921,-0.0007989247679
71.63690791,-0.001597849536,-0.005059856921,0.001331541222
71.6393827,-0.0005326165119,-0.00186415785,0.003462007269
71.64185692,-0.0005326165119,-0.005059856921,0.001331541222
71.64433119,-0.0005326165119,-0.003994623665,-0.00186415785
71.64680541,-0.001597849536,-0.002929390874,0.003462007269
71.64927968,-0.0005326165119,-0.002929390874,0.002396774245
71.6517539,-0.0037283157,-0.00186415785,0.002396774245
71.65422812,-0.001597849536,-0.00186415785,0.001331541222
71.65670238,0.0005326165119,0.000266308256,0.001331541222
71.6591766,0.0005326165119,0.003462007269,-0.0007989247679
71.66165088,-0.002663082443,-0.00186415785,0.001331541222
71.66412504,0.001597849536,-0.0007989247679,0.001331541222
71.66659931,0.0005326165119,0.001331541222,0.002396774245
71.66904947,-0.001597849536,0.001331541222,0.002396774245
71.67152369,-0.0005326165119,0.001331541222,0.002396774245
71.67399796,0.0005326165119,0.002396774245,0.003462007269
71.67647218,0.0005326165119,0.002396774245,0.007722939365
71.67894645,0.001597849536,0.003462007269,0.006657706574
71.68142067,-0.002663082443,0.004527240526,0.004527240526
71.68389488,0.0005326165119,0.005592473317,0.003462007269
71.68636916,0.0005326165119,0.003462007269,0.003462007269
71.68884338,-0.002663082443,0.006657706574,0.003462007269
71.69131765,-0.0005326165119,0.006657706574,0.004527240526
71.69379187,-0.001597849536,0.003462007269,0.004527240526
71.69626608,-0.0005326165119,0.007722939365,0.003462007269
71.69874405,0.0005326165119,0.01198387146,0.003462007269
71.70121827,-0.001597849536,0.005592473317,0.005592473317
71.70369254,-0.001597849536,0.005592473317,0.006657706574
71.70616676,-0.001597849536,0.008788172156,0.003462007269
71.70864103,-0.0005326165119,0.01091863867,0.004527240526
71.71111525,-0.0037283157,0.009853405878,0.006657706574
71.71358947,-0.0037283157,0.01304910425,0.007722939365
71.71606374,-0.002663082443,0.01411433797,0.006657706574
71.71853796,-0.0037283157,0.008788172156,0.006657706574
71.72101223,-0.004793548491,0.01304910425,0.009853405878
71.72348645,-0.004793548491,0.01411433797,0.007722939365
71.72596067,-0.004793548491,0.01411433797,0.007722939365
71.72843088,-0.004793548491,0.009853405878,0.006657706574
71.73090509,-0.004793548491,0.01411433797,0.007722939365
71.73337936,-0.005858781748,0.01304910425,0.007722939365
71.73585358,-0.004793548491,0.01091863867,0.006657706574
71.73832785,-0.004793548491,0.01091863867,0.003462007269
71.74080207,-0.004793548491,0.01091863867,0.004527240526
71.74327629,-0.0037283157,0.007722939365,0.004527240526
71.74575056,-0.005858781748,0.009853405878,0.001331541222
71.74822478,-0.0037283157,0.01091863867,0.004527240526
71.75069905,-0.004793548491,0.008788172156,0.004527240526
71.75317327,-0.0037283157,0.007722939365,0.001331541222
71.75564749,-0.0037283157,0.006657706574,0.001331541222
71.75812176,-0.0037283157,0.006657706574,-0.0007989247679
71.76059598,-0.0005326165119,0.006657706574,0.001331541222
71.76307025,-0.0037283157,0.009853405878,0.000266308256
71.76554447,-0.0037283157,0.01198387146,0.004527240526
71.76801874,-0.0037283157,0.007722939365,-0.0007989247679
71.77049296,-0.0005326165119,0.007722939365,-0.0007989247679
71.77296718,0.001597849536,0.01198387146,0.000266308256
71.77544145,-0.0037283157,0.01198387146,-0.00186415785
71.77791567,-0.0037283157,0.008788172156,0.002396774245
71.78038994,0.001597849536,0.01091863867,0.001331541222
71.78286416,-0.001597849536,0.01304910425,-0.0007989247679
71.78533838,-0.0037283157,0.01198387146,0.001331541222
71.78781093,-0.001597849536,0.01198387146,0.004527240526
71.79028515,-0.0005326165119,0.01198387146,0.002396774245
71.79275942,-0.0005326165119,0.01304910425,0.002396774245
71.79523364,0.001597849536,0.01198387146,0.002396774245
71.79770791,0.001597849536,0.01091863867,0.005592473317
71.80018212,-0.0005326165119,0.01091863867,0.005592473317
71.80265634,-0.0005326165119,0.008788172156,0.000266308256
71.80513062,0.0037283157,0.007722939365,0.001331541222
71.80760483,0.001597849536,0.01198387146,0.002396774245
71.8100791,0.002663082443,0.008788172156,0.003462007269
71.81255332,0.0005326165119,0.009853405878,0.004527240526
71.81502754,0.0005326165119,0.008788172156,0.002396774245
71.81750088,-0.0005326165119,0.006657706574,0.003462007269
71.81997509,0.0037283157,0.007722939365,0.005592473317
71.82244931,0.0037283157,0.007722939365,0.002396774245
71.82492358,0.002663082443,0.008788172156,0.001331541222
71.82739785,0.002663082443,0.007722939365,0.000266308256
71.82987207,0.001597849536,0.005592473317,0.001331541222
71.83234629,0.004793548491,0.006657706574,0.003462007269
71.83482056,0.0037283157,0.007722939365,0.003462007269
71.83729478,0.001597849536,0.003462007269,-0.00186415785
71.83976905,-0.0005326165119,0.004527240526,-0.00186415785
71.84224327,0.0005326165119,0.005592473317,0.000266308256
71.84471749,-0.0005326165119,0.003462007269,-0.0007989247679
71.84719431,-0.0005326165119,0.003462007269,-0.002929390874
71.84966853,-0.0005326165119,0.003462007269,-0.0007989247679
71.8521428,-0.0005326165119,0.004527240526,-0.0007989247679
71.85461702,0.0005326165119,0.004527240526,-0.00186415785
71.85709129,0.0005326165119,0.002396774245,-0.00186415785
71.85956551,0.0005326165119,0.001331541222,0.001331541222
71.86203973,0.002663082443,0.004527240526,0.004527240526
71.864514,0.0005326165119,0.003462007269,-0.00186415785
71.86698822,-0.0005326165119,-0.0007989247679,-0.005059856921
71.86946249,0.001597849536,0.002396774245,-0.003994623665
71.87193671,0.0037283157,0.004527240526,-0.0007989247679
71.87441093,0.002663082443,0.001331541222,-0.00186415785
71.87688291,0.002663082443,0.001331541222,-0.00186415785
71.87935712,-0.0005326165119,0.000266308256,-0.0007989247679
71.8818314,0.001597849536,0.001331541222,-0.006125089712
71.88430562,-0.0005326165119,0.000266308256,0.000266308256
71.88677989,0.001597849536,0.000266308256,-0.0007989247679
71.8892541,0.002663082443,0.000266308256,-0.0007989247679
71.89172832,-0.002663082443,0.001331541222,-0.0007989247679
71.89420259,0.001597849536,0.001331541222,-0.002929390874
71.89667681,0.002663082443,0.001331541222,-0.002929390874
71.89915108,0.001597849536,-0.0007989247679,0.000266308256
71.9016253,0.004793548491,-0.002929390874,0.002396774245
71.90409952,0.001597849536,-0.006125089712,-0.0007989247679
71.90657535,0.0005326165119,-0.002929390874,0.000266308256
71.90904957,-0.0005326165119,-0.005059856921,-0.0007989247679
71.91152384,0.0005326165119,-0.003994623665,-0.0007989247679
71.91399806,0.0037283157,-0.0007989247679,-0.00186415785
71.91647233,0.002663082443,-0.0007989247679,0.001331541222
71.91894655,-0.0005326165119,0.001331541222,-0.0007989247679
71.92142077,0.0005326165119,-0.002929390874,0.004527240526
71.92389504,-0.0005326165119,0.000266308256,0.003462007269
71.92636926,-0.002663082443,0.001331541222,0.004527240526
71.92884353,-0.0005326165119,0.001331541222,0.006657706574
71.93131775,-0.001597849536,0.004527240526,0.003462007269
71.93379197,-0.001597849536,-0.0007989247679,0.003462007269
71.93626572,-0.0005326165119,0.003462007269,0.002396774245
71.93873994,-0.0005326165119,0.006657706574,0.004527240526
71.94121421,-0.0037283157,0.005592473317,0.005592473317
71.94368843,-0.001597849536,0.005592473317,0.004527240526
71.9461627,-0.0005326165119,0.005592473317,0.004527240526
71.94863692,-0.0005326165119,0.007722939365,0.004527240526
71.95111114,-0.002663082443,0.007722939365,0.004527240526
71.95358541,-0.005858781748,0.002396774245,0.003462007269
71.95605963,-0.0037283157,0.004527240526,0.003462007269
71.9585339,-0.001597849536,0.007722939365,0.003462007269
71.96100812,-0.004793548491,0.01091863867,0.005592473317
71.96348233,-0.0037283157,0.007722939365,0.002396774245
71.96595796,-0.001597849536,0.005592473317,-0.00186415785
71.96843218,-0.0037283157,0.005592473317,0.001331541222
71.97090645,-0.002663082443,0.006657706574,0.002396774245
71.97338067,0.0005326165119,0.006657706574,0.005592473317
71.97585494,0.001597849536,0.009853405878,0.003462007269
71.97832916,-0.001597849536,0.007722939365,-0.0007989247679
71.98080338,-0.004793548491,0.006657706574,-0.0007989247679
71.98327759,-0.0037283157,0.005592473317,0.002396774245
71.98575186,-0.001597849536,0.005592473317,-0.0007989247679
71.98822614,-0.002663082443,0.003462007269,-0.00186415785
71.99070035,-0.002663082443,0.000266308256,0.000266308256
71.99317457,-0.002663082443,0.000266308256,0.000266308256
71.99564744,-0.0037283157,0.002396774245,0.000266308256
71.99812166,-0.001597849536,-0.00186415785,0.000266308256
72.00059593,-0.0037283157,0.001331541222,-0.00186415785
72.00307015,-0.0037283157,0.002396774245,-0.00186415785
72.00554442,-0.0005326165119,0.002396774245,0.001331541222
72.00801864,-0.002663082443,0.003462007269,0.001331541222
72.01049285,-0.002663082443,0.002396774245,-0.00186415785
72.01296712,-0.002663082443,0.001331541222,0.002396774245
72.01544134,-0.001597849536,0.006657706574,0.000266308256
72.01791562,-0.0037283157,0.004527240526,0.000266308256
72.02038983,-0.0005326165119,0.003462007269,0.001331541222
72.02286405,0.0005326165119,0.002396774245,0.000266308256
72.02535238,-0.001597849536,0.004527240526,0.001331541222
72.02782666,-0.0005326165119,0.003462007269,-0.00186415785
72.03030088,-0.0005326165119,0.002396774245,-0.0007989247679
72.03277509,0.001597849536,0.002396774245,0.005592473317
72.03524936,-0.0005326165119,0.004527240526,0.000266308256
72.03772358,0.001597849536,0.002396774245,0.001331541222
72.04019785,0.0005326165119,0.002396774245,0.002396774245
72.04267207,0.0005326165119,0.005592473317,0.002396774245
72.04514629,-0.0005326165119,0.005592473317,0.000266308256
72.04762056,-0.001597849536,0.001331541222,0.002396774245
72.05009478,-0.001597849536,0.002396774245,0.002396774245
72.05256905,0.0005326165119,0.004527240526,0.005592473317
72.05502874,-0.0005326165119,0.003462007269,0.002396774245
72.05750296,0.002663082443,0.002396774245,0.000266308256
72.05997723,0.0005326165119,0.002396774245,-0.0007989247679
