"Time (s)","Acceleration x (m/s^2)","Acceleration y (m/s^2)","Acceleration z (m/s^2)"
3.482328600E-2,1.006181955E0,6.076872349E0,1.540977836E0
3.735771300E-2,1.073180914E0,6.328417778E0,1.303789258E0
3.989063000E-2,1.133001566E0,6.591628075E0,1.109970570E0
4.242276500E-2,1.226321578E0,6.895815849E0,9.592227936E-1
4.495438000E-2,1.341177106E0,7.218846798E0,7.938188910E-1
4.748542200E-2,1.547258973E0,7.523034573E0,7.172485590E-1
5.001615100E-2,1.762612939E0,7.827221870E0,6.454638839E-1
5.254662000E-2,1.990230203E0,8.135895729E0,5.688936114E-1
5.507698400E-2,2.289333105E0,8.435297966E0,4.899304509E-1
5.760714000E-2,2.603091955E0,8.743971825E0,3.846462369E-1
6.013714000E-2,2.804089069E0,9.052945137E0,3.499503061E-2
6.266703600E-2,3.318845034E0,9.392725945E0,-5.114658549E-2
6.519688000E-2,3.759423494E0,9.718449593E0,8.763712645E-2
6.772662000E-2,4.180859566E0,1.006570721E1,3.020938672E-2
7.025630700E-2,4.412963390E0,1.034566784E1,-1.013958603E-1
7.278594200E-2,4.635495663E0,1.047966576E1,-2.138585299E-1
7.531552600E-2,4.781756878E0,1.045334530E1,-1.947159469E-1
7.784505700E-2,4.879862785E0,1.024995518E1,-2.482553571E-2
8.037453600E-2,4.977968216E0,1.002233791E1,2.766701281E-1
8.290396300E-2,5.042574406E0,9.754341125E0,7.004988194E-1
8.543333800E-2,5.071288586E0,9.510273933E0,1.299003601E0
8.796271300E-2,4.980361462E0,9.244371414E0,1.952543259E0
9.049198400E-2,4.767399788E0,9.074481010E0,2.773879766E0
9.302125500E-2,4.436891556E0,9.045766830E0,3.563810110E0
9.555052600E-2,3.993920088E0,8.882756233E0,4.535894394E0
9.807969200E-2,3.471985579E0,8.724829674E0,5.543870926E0
1.006088590E-1,2.928515911E0,8.700901031E0,6.240481377E0
1.031380260E-1,2.224726915E0,8.784649849E0,6.805486679E0
1.056671920E-1,1.532902002E0,9.009874344E0,7.231708050E0
1.081962550E-1,8.315058947E-1,9.277871132E0,7.320242882E0
1.107253170E-1,1.657029688E-1,9.579665184E0,7.348956585E0
1.132543800E-1,-3.897309899E-1,9.921838760E0,7.317849636E0
1.157834420E-1,-8.419744968E-1,1.035763168E1,7.344171047E0
1.183125050E-1,-1.162911773E0,1.081735325E1,7.403991699E0
1.208415150E-1,-1.289731383E0,1.131057358E1,7.313064098E0
1.233705260E-1,-1.304088354E0,1.188993549E1,7.135995388E0
1.258995360E-1,-1.210768223E0,1.244536972E1,6.755237579E0
1.284284950E-1,-9.619147182E-1,1.303669643E1,6.266802311E0
1.309574530E-1,-5.261218548E-1,1.363520050E1,5.649155140E0
1.334864110E-1,7.477571070E-2,1.415474224E1,4.885545731E0
1.360153700E-1,7.259225845E-1,1.445384502E1,3.994817495E0
1.385443280E-1,1.458724499E0,1.452323723E1,2.958127022E0
1.410732340E-1,2.124228239E0,1.428874016E1,1.806581140E0
1.436021400E-1,2.782553673E0,1.373091316E1,4.588237405E-1
1.461068800E-1,3.388236761E0,1.301516056E1,-9.969097376E-1
1.485859950E-1,3.821636915E0,1.209811115E1,-2.449951172E0
1.510641720E-1,4.127918243E0,1.117866898E1,-3.759722471E0
1.535431820E-1,4.365106583E0,1.028824043E1,-4.765306473E0
1.560221400E-1,4.575675011E0,9.498010635E0,-5.418846130E0
1.585003170E-1,4.702494621E0,8.736793518E0,-5.833103180E0
1.609784950E-1,4.748257637E0,7.946863174E0,-6.237490654E0
1.634575050E-1,4.716851711E0,7.329215527E0,-6.620641232E0
1.659364630E-1,4.623531342E0,6.926922321E0,-6.999006271E0
1.684145880E-1,4.441677094E0,6.859923363E0,-7.259823799E0
1.708927650E-1,4.226323128E0,6.711568356E0,-7.082755089E0
1.733717760E-1,3.895814419E0,6.740282059E0,-6.625426769E0
1.758507340E-1,3.495913982E0,7.044170856E0,-5.835496426E0
1.783289110E-1,3.017050266E0,7.661818027E0,-5.097908497E0
1.808070880E-1,2.423331022E0,8.416155815E0,-4.300799370E0
1.832860990E-1,1.858325839E0,9.165408134E0,-3.400500059E0
1.857650570E-1,1.427617788E0,1.013031387E1,-2.198704958E0
1.882431820E-1,8.697910309E-1,1.141107178E1,-5.850451589E-1
1.907213590E-1,8.195417374E-2,1.293141174E1,1.361217022E0
1.932003700E-1,-1.091127157E0,1.460489178E1,3.563810110E0
1.956793280E-1,-2.714358091E0,1.638126373E1,5.764010429E0
1.981575050E-1,-4.481158733E0,1.811217117E1,7.717750549E0
2.006356820E-1,-6.046961784E0,1.950539207E1,8.783154488E0
2.031146920E-1,-6.930212498E0,2.046311951E1,8.754141808E0
2.055936510E-1,-7.315756321E0,2.087498474E1,7.751249790E0
2.080717760E-1,-7.279863834E0,2.087498474E1,5.912365437E0
2.105499530E-1,-6.801000118E0,2.047747803E1,3.664308786E0
2.130289630E-1,-5.944070339E0,1.978086662E1,1.409073472E0
2.155079220E-1,-4.780261517E0,1.888056755E1,-5.922235847E-1
2.179860990E-1,-3.360719442E0,1.771945000E1,-2.138884306E0
2.204642760E-1,-1.620239973E0,1.624247932E1,-3.089433193E0
2.229432860E-1,8.434699476E-2,1.469342613E1,-3.512962818E0
2.254222450E-1,1.518545032E0,1.326879978E1,-3.644867182E0
2.279003700E-1,2.749054193E0,1.203111267E1,-3.563211918E0
2.303785470E-1,3.788137436E0,1.088195896E1,-3.390928745E0
2.328575570E-1,4.587639332E0,9.816555023E0,-3.185146093E0
2.353365150E-1,5.066503048E0,8.779864311E0,-2.888136864E0
2.378146920E-1,5.296513081E0,7.764709473E0,-2.531606436E0
2.402928700E-1,5.238786221E0,6.871887684E0,-2.258525372E0
2.427718800E-1,4.896612644E0,6.052944183E0,-2.215454578E0
2.452508380E-1,4.446462631E0,5.397011280E0,-2.179562330E0
2.477289630E-1,3.934099436E0,4.973182678E0,-2.028814554E0
2.502071400E-1,3.318845034E0,4.810471058E0,-1.669592023E0
2.526861510E-1,2.772982359E0,5.023731232E0,-1.197906852E0
2.551651090E-1,2.229512453E0,5.559723377E0,-5.252245665E-1
2.576432860E-1,1.712363720E0,6.309275150E0,1.163510010E-1
2.601214630E-1,1.257428288E0,7.149455070E0,8.847461939E-1
2.626004740E-1,8.075776696E-1,8.071290016E0,1.497906923E0
2.650794320E-1,4.387838542E-1,8.959625244E0,2.132304192E0
2.675575570E-1,8.913264424E-2,9.783055305E0,2.462513685E0
2.700357340E-1,-1.956132501E-1,1.054187965E1,2.680559635E0
2.725147450E-1,-4.328017831E-1,1.118584728E1,2.493620396E0
2.749937030E-1,-6.050850153E-1,1.174128151E1,2.242373943E0
2.774718800E-1,-8.060821295E-1,1.218425274E1,1.696511269E0
2.799500570E-1,-9.451649189E-1,1.253390408E1,1.234397411E0
2.824290670E-1,-1.076770186E0,1.282582855E1,5.760720372E-1
2.849080260E-1,-1.148554921E0,1.301516056E1,1.211366430E-1
2.873861510E-1,-1.174875975E0,1.315394402E1,-3.912265003E-1
2.898643280E-1,-1.155733347E0,1.319222927E1,-6.568298340E-1
2.923433380E-1,-1.131805062E0,1.310130215E1,-1.028016448E0
2.948222970E-1,-1.131805062E0,1.292423344E1,-1.363310695E0
2.973004740E-1,-9.978070259E-1,1.272533035E1,-1.614557028E0
2.997786510E-1,-7.893323898E-1,1.246211910E1,-1.727019787E0
3.022576610E-1,-5.572285652E-1,1.220578861E1,-1.734198213E0
3.047366200E-1,-2.937189937E-1,1.196172047E1,-1.722234130E0
3.072147450E-1,-3.290131316E-2,1.172453213E1,-1.597807288E0
3.096929220E-1,2.569293380E-1,1.151396370E1,-1.442273855E0
3.121719320E-1,5.368895531E-1,1.133689499E1,-1.185942769E0
3.146508900E-1,8.051848412E-1,1.118345451E1,-9.777671695E-1
3.171290670E-1,1.037288666E0,1.106620693E1,-6.783652306E-1
3.196072450E-1,1.245464206E0,1.097527885E1,-5.252245665E-1
3.220862550E-1,1.410868049E0,1.085563850E1,-2.787638307E-1
3.245652130E-1,1.530509233E0,1.075992489E1,-2.018944174E-1
3.270433380E-1,1.611865163E0,1.064746284E1,-5.114658549E-2
3.295215150E-1,1.614257932E0,1.051077271E1,-9.421738982E-2
3.320005260E-1,1.578365684E0,1.037438202E1,-8.225327730E-2
3.344794840E-1,1.501795292E0,1.023081207E1,-2.883351147E-1
3.369576610E-1,1.425225019E0,1.011595726E1,-3.840480447E-1
3.394358380E-1,1.374975681E0,1.004387283E1,-6.305087805E-1
3.419148490E-1,1.259821177E0,9.962516785E0,-6.927221417E-1
3.443938070E-1,1.171286702E0,9.881160736E0,-8.796614408E-1
3.468719320E-1,1.111466169E0,9.828518867E0,-9.131609201E-1
3.493501090E-1,1.025324464E0,9.756733894E0,-9.729815125E-1
3.518291200E-1,9.631111026E-1,9.687342644E0,-9.275178909E-1
3.543080780E-1,9.080761671E-1,9.634700775E0,-9.227322340E-1
3.567862550E-1,8.697910309E-1,9.591629982E0,-8.629116416E-1
3.592644320E-1,8.458628058E-1,9.572486877E0,-7.668996453E-1
3.617434420E-1,8.338986635E-1,9.550951958E0,-6.472585201E-1
3.642224010E-1,8.338986635E-1,9.515059471E0,-5.132604837E-1
3.667005260E-1,8.315058947E-1,9.515059471E0,-4.223332107E-1
3.691787030E-1,8.291130662E-1,9.488439560E0,-2.285145670E-1
3.716577130E-1,8.362914920E-1,9.438189507E0,-1.181456149E-1
3.741366720E-1,8.147560954E-1,9.387940407E0,3.499503061E-2
3.766148490E-1,7.761718631E-1,9.277871132E0,7.567301393E-2
3.790930260E-1,7.666005492E-1,9.184550285E0,2.216351926E-1
3.815720360E-1,7.666005492E-1,9.079266548E0,2.216351926E-1
3.840509950E-1,8.003991842E-1,9.031410217E0,3.966103494E-1
3.865291200E-1,8.362914920E-1,8.997910500E0,3.774677813E-1
3.890072970E-1,8.482556343E-1,9.014659882E0,4.707878530E-1
3.914863070E-1,8.554341197E-1,8.995517731E0,4.157529473E-1
3.939652650E-1,8.243274093E-1,8.983553886E0,4.540380836E-1
3.964434420E-1,8.697910309E-1,9.000303268E0,3.388835192E-1
3.989216200E-1,8.650053740E-1,9.052945137E0,3.655036688E-1
4.014006300E-1,8.530412912E-1,9.160622597E0,2.599203587E-1
4.038795880E-1,8.482556343E-1,9.330513000E0,2.862414122E-1
4.063577130E-1,8.027920127E-1,9.538987160E0,1.737787426E-1
4.088358900E-1,8.243274093E-1,9.761520386E0,1.498505175E-1
4.113149010E-1,7.929216027E-1,9.991230965E0,1.283151209E-1
4.137938590E-1,7.737790346E-1,1.022363377E1,1.307079345E-1
4.162720360E-1,7.761718631E-1,1.043898773E1,1.402792335E-1
4.187502130E-1,7.785646915E-1,1.062831974E1,1.498505175E-1
4.212292240E-1,7.857431173E-1,1.082453156E1,1.546361595E-1
4.237081820E-1,8.338986635E-1,1.098485088E1,1.259222925E-1
4.261863070E-1,9.032905698E-1,1.113081264E1,1.235294715E-1
4.286644840E-1,9.750752449E-1,1.123639584E1,7.328019291E-2
4.311434950E-1,1.054038405E0,1.128185940E1,1.019940674E-1
4.336224530E-1,1.156929731E0,1.134168053E1,3.888336709E-3
4.361006300E-1,1.278963685E0,1.135364437E1,1.106680464E-2
4.385788070E-1,1.360618830E0,1.135364437E1,-7.986045629E-2
4.410578170E-1,1.473081470E0,1.132493019E1,-5.832505226E-2
4.435367760E-1,1.571187139E0,1.129621696E1,-1.253240854E-1
4.460149010E-1,1.671685696E0,1.124596691E1,-2.003988996E-2
4.484930780E-1,1.776969910E0,1.121725368E1,-4.875376076E-2
4.509720880E-1,1.853540182E0,1.117627621E1,7.328019291E-2
4.534510470E-1,1.918146491E0,1.113799095E1,5.653043464E-2
4.559292240E-1,1.956730723E0,1.104706383E1,1.546361595E-1
4.584074010E-1,1.980658889E0,1.099681473E1,1.259222925E-1
4.608864110E-1,1.985444546E0,1.090110207E1,2.264208496E-1
4.633653700E-1,1.987837434E0,1.085803127E1,1.953141540E-1
4.658434950E-1,1.973480463E0,1.076471043E1,3.005983531E-1
4.683216720E-1,1.937588096E0,1.071206856E1,2.599203587E-1
4.708006820E-1,1.903789520E0,1.064746284E1,2.383849621E-1
4.732796400E-1,1.822433591E0,1.058255768E1,1.666002721E-1
4.757578170E-1,1.786541224E0,1.051316547E1,1.259222925E-1
4.782359950E-1,1.688435435E0,1.048684406E1,1.115653589E-1
4.807150050E-1,1.595115423E0,1.045813084E1,3.978067636E-2
4.831939630E-1,1.499402523E0,1.041745281E1,9.720841795E-2
4.856720880E-1,1.410868049E0,1.038873863E1,6.610172242E-2
4.881502650E-1,1.329213023E0,1.035045338E1,1.115653589E-1
4.906292760E-1,1.257428288E0,1.032891846E1,4.695914313E-2
4.931082340E-1,1.135394335E0,1.030020428E1,9.960123897E-2
4.955864110E-1,1.075573802E0,1.031456089E1,1.495514181E-3
4.980645880E-1,9.798609018E-1,1.032413197E1,4.935196787E-2
5.005435990E-1,9.200403094E-1,1.036959648E1,-8.464609832E-2
5.030225570E-1,8.697910309E-1,1.041027355E1,-7.028916478E-2
5.055006820E-1,8.075776696E-1,1.047488022E1,-1.947159469E-1
5.079788590E-1,7.354938388E-1,1.054905796E1,-1.875374764E-1
5.104578700E-1,6.756733060E-1,1.061127090E1,-3.170489967E-1
5.129368280E-1,5.991029739E-1,1.065464115E1,-3.002992272E-1
5.154150050E-1,5.177469850E-1,1.067617607E1,-3.888336718E-1
5.178931820E-1,4.555336237E-1,1.070010471E1,-3.577269912E-1
5.203721920E-1,4.028915167E-1,1.071924686E1,-4.342973232E-1
5.228511510E-1,3.741776347E-1,1.073838997E1,-4.342973232E-1
5.253292760E-1,3.693920076E-1,1.075753212E1,-4.773681164E-1
5.278074530E-1,3.717848063E-1,1.075274658E1,-5.012963414E-1
5.302864630E-1,3.717848063E-1,1.077428246E1,-6.017948985E-1
5.327654220E-1,3.789632916E-1,1.077906799E1,-6.759724021E-1
5.352435990E-1,3.933202326E-1,1.078624630E1,-7.597211599E-1
5.377217760E-1,4.339981973E-1,1.076231766E1,-8.437690735E-1
5.402007860E-1,4.722833633E-1,1.075035381E1,-8.892326951E-1
5.426797450E-1,5.225326419E-1,1.073360443E1,-9.945169091E-1
5.451578700E-1,5.321039557E-1,1.068574810E1,-1.042373419E0
5.476360470E-1,5.560321808E-1,1.066421223E1,-1.133300662E0
5.501150570E-1,5.823532343E-1,1.064746284E1,-1.106979609E0
5.525940150E-1,6.014958024E-1,1.062323570E1,-1.202692509E0
5.550721920E-1,6.469594240E-1,1.058255768E1,-1.145264745E0
5.575503700E-1,6.996015310E-1,1.057298565E1,-1.243370414E0
5.600293800E-1,7.283154130E-1,1.058255768E1,-1.193121195E0
5.625083380E-1,7.642077208E-1,1.062562847E1,-1.339083314E0
5.649864630E-1,8.458628058E-1,1.063310528E1,-1.236191988E0
5.674646400E-1,8.913264275E-1,1.068814087E1,-1.327119231E0
5.699436510E-1,9.128618240E-1,1.074556828E1,-1.310369492E0
5.724226090E-1,9.367900491E-1,1.079581738E1,-1.401595831E0
5.749007860E-1,9.966106415E-1,1.083888817E1,-1.351346612E0
5.773789630E-1,1.044467092E0,1.087956619E1,-1.399203062E0
5.798579740E-1,1.082752228E0,1.092024422E1,-1.351346612E0
5.823369320E-1,1.125823021E0,1.092024422E1,-1.413560033E0
5.848150570E-1,1.173679471E0,1.091545868E1,-1.396810174E0
5.872932340E-1,1.223928809E0,1.089153004E1,-1.413560033E0
5.897722450E-1,1.312463164E0,1.081974602E1,-1.401595831E0
5.922512030E-1,1.391725421E0,1.077188969E1,-1.341775298E0
5.947293800E-1,1.482652783E0,1.066899776E1,-1.336690545E0
5.972075570E-1,1.561615825E0,1.059930706E1,-1.252941728E0
5.996865670E-1,1.698006749E0,1.053470039E1,-1.193121195E0
6.021655260E-1,1.817647934E0,1.046052361E1,-1.061515927E0
6.046436510E-1,1.932802439E0,1.040788078E1,-1.071087241E0
6.071218280E-1,2.069193363E0,1.036241722E1,-9.418748021E-1
6.096008380E-1,2.181656122E0,1.032173920E1,-9.729815125E-1
6.120797970E-1,2.308475733E0,1.026909733E1,-9.035896659E-1
6.145579740E-1,2.416152716E0,1.022841930E1,-9.394819736E-1
6.170361510E-1,2.509771824E0,1.017577744E1,-8.557332158E-1
6.195151610E-1,2.622234583E0,1.012074280E1,-9.394819736E-1
6.219941200E-1,2.720340252E0,1.004148006E1,-8.389834166E-1
6.244722450E-1,2.804089069E0,9.981659889E0,-9.107680917E-1
6.269504220E-1,2.906980515E0,9.921838760E0,-8.030911088E-1
6.294294320E-1,2.990729094E0,9.854840279E0,-8.270193338E-1
6.319083900E-1,3.048455954E0,9.780662537E0,-6.903293133E-1
6.343865670E-1,3.105883837E0,9.790233612E0,-6.927221417E-1
6.368647450E-1,3.144168854E0,9.771091461E0,-6.041877270E-1
6.393437550E-1,3.211168051E0,9.754341125E0,-6.233302951E-1
6.418227130E-1,3.225524902E0,9.737591743E0,-4.989035130E-1
6.443008380E-1,3.215953588E0,9.720842361E0,-4.725824594E-1
6.467790150E-1,3.263810158E0,9.687342644E0,-4.199403822E-1
6.492580260E-1,3.294916868E0,9.646664619E0,-3.888336718E-1
6.517369840E-1,3.297309637E0,9.651450157E0,-3.768695593E-1
6.542151610E-1,3.263810158E0,9.651450157E0,-3.098705411E-1
6.566933380E-1,3.232703447E0,9.665806770E0,-2.572284341E-1
6.591723490E-1,3.218346357E0,9.653842926E0,-9.421738982E-2
6.616513070E-1,3.184846878E0,9.696913719E0,-8.075776510E-3
6.641294320E-1,3.125026464E0,9.742377281E0,1.737787426E-1
6.666076090E-1,3.062813044E0,9.778269768E0,2.431706041E-1
6.690866200E-1,2.993122101E0,9.792626381E0,3.846462369E-1
6.715655780E-1,2.902194738E0,9.821340561E0,3.511467278E-1
6.740437550E-1,2.861516714E0,9.840482712E0,4.875376225E-1
6.765219320E-1,2.761018276E0,9.838089943E0,4.516452849E-1
6.790009420E-1,2.672483683E0,9.869196892E0,4.803591371E-1
6.814799010E-1,2.567199707E0,9.878767967E0,3.894318938E-1
6.839580780E-1,2.449652195E0,9.854840279E0,4.061816335E-1
6.864362030E-1,2.334796667E0,9.862018585E0,3.269194067E-1
6.889152130E-1,2.239083767E0,9.847661972E0,3.245265782E-1
6.913941720E-1,2.150549412E0,9.830911636E0,2.551347017E-1
6.938723490E-1,2.052443504E0,9.802198410E0,2.072782665E-1
6.963505260E-1,1.935195327E0,9.809376717E0,8.524430543E-2
6.988295360E-1,1.843968987E0,9.828518867E0,7.806584239E-2
7.013084950E-1,1.765005827E0,9.850054741E0,1.495514181E-3
7.037866200E-1,1.702792406E0,9.890732765E0,-5.353940651E-2
7.062647970E-1,1.619043589E0,9.955338478E0,-1.636092514E-1
7.087438070E-1,1.573580027E0,9.967302322E0,-2.691925466E-1
7.112227650E-1,1.547258973E0,1.000798035E1,-3.026920557E-1
7.137009420E-1,1.497009635E0,1.004626560E1,-4.055834413E-1
7.161791200E-1,1.458724499E0,1.006570721E1,-4.510470629E-1
7.186581300E-1,1.441974759E0,1.008485031E1,-5.754738450E-1
7.211370880E-1,1.432403445E0,1.011835003E1,-6.233302951E-1
7.236152650E-1,1.386939883E0,1.013509941E1,-7.740781307E-1
7.260933900E-1,1.396511078E0,1.016381359E1,-7.815557122E-1
7.285724010E-1,1.427617788E0,1.019013405E1,-9.562317729E-1
7.310513590E-1,1.437189102E0,1.021406269E1,-9.323035479E-1
7.335295360E-1,1.473081470E0,1.023320484E1,-1.044766188E0
7.360077130E-1,1.487438321E0,1.028106117E1,-9.969097376E-1
7.384867240E-1,1.511366606E0,1.032173920E1,-1.085444212E0
7.409656820E-1,1.542473316E0,1.031934643E1,-9.993025661E-1
7.434438590E-1,1.544866085E0,1.030498981E1,-9.705886841E-1
7.459219840E-1,1.688435435E0,1.047966576E1,-9.418748021E-1
7.484009950E-1,1.774577141E0,1.064028454E1,-9.969097376E-1
7.508799530E-1,1.843968987E0,1.076710415E1,-9.945169091E-1
7.533581300E-1,1.935195327E0,1.092981529E1,-9.897312522E-1
7.558363070E-1,2.030908108E0,1.104467106E1,-9.634101987E-1
7.583153170E-1,2.121835470E0,1.117866898E1,-9.873384237E-1
7.607942760E-1,2.231905222E0,1.130100250E1,-9.418748021E-1
7.632724010E-1,2.341975212E0,1.139671516E1,-9.179465771E-1
7.657505780E-1,2.475973129E0,1.144935703E1,-8.700901270E-1
7.682295880E-1,2.545664072E0,1.148285675E1,-8.030911088E-1
7.707085470E-1,2.610270500E0,1.149003506E1,-6.975077987E-1
7.731867240E-1,2.653341293E0,1.147089291E1,-6.185446382E-1
7.756649010E-1,2.665305376E0,1.143739319E1,-5.108676553E-1
7.781439110E-1,2.698804855E0,1.136800098E1,-3.864408433E-1
7.806228700E-1,2.691626310E0,1.131296635E1,-2.715853751E-1
7.831009950E-1,2.660519600E0,1.126032448E1,-1.803590059E-1
7.855791720E-1,2.622234583E0,1.120768261E1,-8.943174779E-2
7.880581820E-1,2.526521683E0,1.112602711E1,-1.286142133E-2
7.905371400E-1,2.449652195E0,1.107577801E1,-1.046859939E-2
7.930153170E-1,2.334796667E0,1.102313614E1,5.653043464E-2
7.954934950E-1,2.251047850E0,1.095852947E1,1.043868884E-1
7.979725050E-1,2.117049932E0,1.091306591E1,1.546361595E-1
8.004514630E-1,2.006979942E0,1.087956619E1,1.450648755E-1
8.029296400E-1,1.918146491E0,1.081974602E1,1.474576890E-1
8.054077650E-1,1.800898194E0,1.077428246E1,1.067797095E-1
8.078867760E-1,1.714756489E0,1.073360443E1,4.217349738E-2
8.103657340E-1,1.659721613E0,1.068574810E1,-1.764706708E-2
8.128439110E-1,1.619043589E0,1.064985561E1,-8.703892678E-2
8.153220880E-1,1.595115423E0,1.063789082E1,-1.923231184E-1
8.178010990E-1,1.578365684E0,1.062084198E1,-2.931207716E-1
8.202800570E-1,1.564008713E0,1.057777119E1,-3.840480447E-1
8.227582340E-1,1.547258973E0,1.056820011E1,-4.654040039E-1
8.252363590E-1,1.547258973E0,1.053230762E1,-5.539384484E-1
8.277153700E-1,1.552044630E0,1.050359440E1,-6.711867452E-1
8.301943800E-1,1.516152263E0,1.048205853E1,-7.621139884E-1
8.326725050E-1,1.540080428E0,1.046770191E1,-8.581260443E-1
8.351506820E-1,1.542473316E0,1.044616604E1,-9.179465771E-1
8.376296920E-1,1.568794370E0,1.044138050E1,-9.634101987E-1
8.401086510E-1,1.583151340E0,1.043898773E1,-1.032802105E0
8.425868280E-1,1.566401482E0,1.044377327E1,-1.063908815E0
8.450649530E-1,1.580758452E0,1.047727299E1,-1.075872898E0
8.475439630E-1,1.607079506E0,1.045334530E1,-1.073480010E0
8.500229220E-1,1.595115423E0,1.045095158E1,-1.071087241E0
8.525010990E-1,1.614257932E0,1.047966576E1,-1.073480010E0
8.549792760E-1,1.590329766E0,1.050359440E1,-1.032802105E0
8.574582860E-1,1.590329766E0,1.049880886E1,-9.753743410E-1
8.599372450E-1,1.561615825E0,1.045573807E1,-8.461619020E-1
8.624154220E-1,1.575972795E0,1.045813084E1,-7.046862841E-1
8.648935470E-1,1.626222134E0,1.055145073E1,-8.246265054E-1
8.673725570E-1,1.669292927E0,1.063071251E1,-9.179465771E-1
8.698515150E-1,1.683649778E0,1.068096161E1,-9.131609201E-1
8.723296920E-1,1.719542146E0,1.071206856E1,-9.203394055E-1
8.748078700E-1,1.705185294E0,1.069292641E1,-9.251250625E-1
8.772868800E-1,1.765005827E0,1.066660500E1,-9.514461160E-1
8.797658380E-1,1.779362798E0,1.064507008E1,-9.514461160E-1
8.822440150E-1,1.860718727E0,1.060169983E1,-9.681958556E-1
8.847221400E-1,1.855933070E0,1.052991486E1,-9.969097376E-1
8.872011510E-1,1.887039781E0,1.045095158E1,-1.030409217E0
8.896801090E-1,1.913360834E0,1.041506004E1,-1.085444212E0
8.921582860E-1,1.928016901E0,1.034088230E1,-1.123729348E0
8.946364630E-1,1.963909149E0,1.030259705E1,-1.162014484E0
8.971154740E-1,1.997408748E0,1.027149010E1,-1.197906852E0
8.995944320E-1,2.021337032E0,1.021166992E1,-1.262513041E0
9.020726090E-1,2.076371908E0,1.016620636E1,-1.281655669E0
9.045507340E-1,2.131406784E0,1.013988495E1,-1.315155149E0
9.070297450E-1,2.155334949E0,1.010877800E1,-1.329512119E0
9.095087030E-1,2.231905222E0,1.011356354E1,-1.377667665E0
9.119868800E-1,2.310868502E0,1.007049274E1,-1.411167145E0
9.144650570E-1,2.385046005E0,1.005105114E1,-1.430309772E0
9.169440670E-1,2.442473650E0,1.002473068E1,-1.466202021E0
9.194230260E-1,2.512164593E0,9.998409271E0,-1.478166223E0
9.219012030E-1,2.581556559E0,9.962516785E0,-1.447059512E0
9.243793280E-1,2.658126831E0,9.926624298E0,-1.451845169E0
9.268583380E-1,2.732304335E0,9.926624298E0,-1.451845169E0
9.293372970E-1,2.768196583E0,9.938589096E0,-1.432702541E0
9.318154740E-1,2.832803011E0,9.938589096E0,-1.427916884E0
9.342936510E-1,2.859123945E0,9.929018021E0,-1.341775298E0
9.367726610E-1,2.895016193E0,9.964909554E0,-1.334297776E0
9.392516200E-1,2.935694218E0,9.972088814E0,-1.276870012E0
9.417297970E-1,2.964408159E0,9.962516785E0,-1.264905930E0
9.442079220E-1,2.983550787E0,9.986445427E0,-1.200299621E0
9.466869320E-1,3.040978432E0,9.979267120E0,-1.171585798E0
9.491659420E-1,3.074777126E0,9.984052658E0,-1.128515005E0
9.516440670E-1,3.086741209E0,1.001276588E1,-1.087836981E0
9.541222450E-1,3.113062143E0,1.006062317E1,-1.066301584E0
9.566012550E-1,3.160918713E0,1.008963585E1,-1.013659477E0
9.590802130E-1,3.163311481E0,1.012792110E1,-9.586246014E-1
9.615583900E-1,3.203989506E0,1.017577744E1,-9.035896659E-1
9.640365150E-1,3.206382275E0,1.024995518E1,-8.485547304E-1
9.665155260E-1,3.199203968E0,1.029302597E1,-8.198408484E-1
9.689944840E-1,3.172882795E0,1.035523891E1,-7.429714203E-1
9.714726610E-1,3.153740168E0,1.038395309E1,-6.855437160E-1
9.739508380E-1,3.105883837E0,1.043420219E1,-6.329016089E-1
9.764298490E-1,3.072384357E0,1.044377327E1,-5.994020700E-1
9.789088070E-1,3.017050266E0,1.045095158E1,-5.778666735E-1
9.813869840E-1,2.962015390E0,1.048205853E1,-5.706881881E-1
9.838651090E-1,2.904587507E0,1.048445129E1,-5.635097623E-1
9.863441200E-1,2.847159863E0,1.047966576E1,-5.850451589E-1
9.888231300E-1,2.801696301E0,1.049880886E1,-6.089733839E-1
9.913012550E-1,2.751446962E0,1.050598717E1,-6.376872063E-1
9.937794320E-1,2.710768938E0,1.049880886E1,-6.711867452E-1
9.962584420E-1,2.696412086E0,1.047727299E1,-6.927221417E-1
9.987374010E-1,2.646162748E0,1.047727299E1,-7.214360237E-1
1.001215578E0,2.598306179E0,1.047966576E1,-7.429714203E-1
1.003693703E0,2.583949327E0,1.046291637E1,-7.959126234E-1
1.006172713E0,2.562413931E0,1.046291637E1,-8.294121623E-1
1.008651724E0,2.540878534E0,1.049641609E1,-8.605188727E-1
1.011129849E0,2.531307220E0,1.052034378E1,-8.868398666E-1
1.013608026E0,2.543271303E0,1.051555824E1,-9.179465771E-1
1.016087036E0,2.548057079E0,1.051795101E1,-9.155537486E-1
1.018565995E0,2.569592476E0,1.052752209E1,-9.490532875E-1
1.021044172E0,2.612663269E0,1.053470039E1,-9.658030272E-1
1.023522297E0,2.631805897E0,1.053470039E1,-9.945169091E-1
1.026001307E0,2.641377211E0,1.052034378E1,-1.018445134E0
1.028480317E0,2.643769979E0,1.049880886E1,-1.023230791E0
1.030958442E0,2.655734062E0,1.048205853E1,-1.020837903E0
1.033436620E0,2.679662228E0,1.045334530E1,-1.032802105E0
1.035915630E0,2.665305376E0,1.041984558E1,-1.020837903E0
1.038394588E0,2.682054996E0,1.040788078E1,-1.020837903E0
1.040872765E0,2.660519600E0,1.036241722E1,-1.032802105E0
1.043350890E0,2.684448004E0,1.034327507E1,-1.011266708E0
1.045829901E0,2.679662228E0,1.033131123E1,-1.035194874E0
1.048308911E0,2.684448004E0,1.028584766E1,-1.011266708E0
1.050787036E0,2.677269459E0,1.024516964E1,-9.705886841E-1
1.053265213E0,2.653341293E0,1.024995518E1,-9.729815125E-1
1.055744224E0,2.665305376E0,1.024995518E1,-9.538389444E-1
1.058223182E0,2.605484724E0,1.024995518E1,-9.490532875E-1
1.060701359E0,2.588735104E0,1.022841930E1,-9.514461160E-1
1.063179484E0,2.550449848E0,1.023081207E1,-9.777671695E-1
1.065658495E0,2.495414972E0,1.025713348E1,-9.969097376E-1
1.068137505E0,2.480758905E0,1.025474072E1,-9.897312522E-1
1.070615630E0,2.444866419E0,1.026431179E1,-1.004088163E0
1.073093807E0,2.392224550E0,1.029063320E1,-9.945169091E-1
1.075572817E0,2.358724833E0,1.028345394E1,-9.777671695E-1
1.078051776E0,2.346760750E0,1.025713348E1,-9.418748021E-1
1.080529953E0,2.351546526E0,1.022841930E1,-8.796614408E-1
1.083008078E0,2.351546526E0,1.022602654E1,-7.740781307E-1
1.085487088E0,2.356332064E0,1.022841930E1,-6.903293133E-1
1.087966099E0,2.365903378E0,1.031456089E1,-5.778666735E-1
1.090444224E0,2.385046005E0,1.037198925E1,-4.917250574E-1
1.092922401E0,2.380260229E0,1.046052361E1,-4.055834413E-1
1.095401411E0,2.389831543E0,1.057059288E1,-3.218346536E-1
1.097880370E0,2.411366940E0,1.064746284E1,-2.691925466E-1
1.100358547E0,2.425724030E0,1.075035381E1,-1.875374764E-1
1.102836724E0,2.408974171E0,1.083649540E1,-1.564307809E-1
1.105315734E0,2.406581402E0,1.089392376E1,-9.182456881E-2
1.107794692E0,2.368296146E0,1.097527885E1,-4.875376076E-2
1.110272817E0,2.332403898E0,1.101117134E1,2.542374097E-2
1.112750995E0,2.286940336E0,1.105424213E1,8.524430543E-2
1.115230005E0,2.198405743E0,1.108295631E1,9.720841795E-2
1.117708963E0,2.136192322E0,1.108534908E1,9.960123897E-2
1.120187140E0,2.081157446E0,1.108295631E1,8.763712645E-2
1.122665317E0,2.016551256E0,1.109252739E1,4.456632212E-2
1.125144328E0,1.935195327E0,1.104227829E1,3.499503061E-2
1.127623286E0,1.891825438E0,1.101595688E1,-5.682953633E-3
1.130101411E0,1.817647934E0,1.096810055E1,-5.353940651E-2
1.132579588E0,1.772184253E0,1.088195896E1,-9.661021084E-2
1.135058599E0,1.717149377E0,1.081496048E1,-1.803590059E-1
1.137537557E0,1.693221092E0,1.073360443E1,-2.189432681E-1
1.140015734E0,1.678864241E0,1.065942669E1,-2.763710022E-1
1.142493859E0,1.647757530E0,1.055384350E1,-3.290131092E-1
1.144972870E0,1.628614902E0,1.046291637E1,-3.984049559E-1
1.147451880E0,1.621436477E0,1.041266727E1,-4.390829504E-1
1.149930005E0,1.623829246E0,1.034566784E1,-5.156532526E-1
1.152408182E0,1.633400559E0,1.027149010E1,-5.970092416E-1
1.154887192E0,1.631007791E0,1.025713348E1,-6.544370055E-1
1.157366151E0,1.654935956E0,1.023320484E1,-6.879364848E-1
1.159844328E0,1.698006749E0,1.021166992E1,-7.525427341E-1
1.162322505E0,1.714756489E0,1.019731236E1,-8.102695942E-1
1.164801515E0,1.765005827E0,1.019491959E1,-8.318049908E-1
1.167280474E0,1.800898194E0,1.019731236E1,-8.222336769E-1
1.169758599E0,1.841576099E0,1.019013405E1,-8.461619020E-1
1.172236776E0,1.925624013E0,1.019252682E1,-8.054839373E-1
1.174715786E0,1.987837434E0,1.021166992E1,-7.621139884E-1
1.177194745E0,2.045265198E0,1.020688438E1,-7.094719410E-1
1.179672922E0,2.107478619E0,1.019491959E1,-6.568298340E-1
1.182151099E0,2.148156643E0,1.020209885E1,-6.089733839E-1
1.184630109E0,2.181656122E0,1.017817020E1,-5.156532526E-1
1.187109067E0,2.241476536E0,1.019731236E1,-4.582255483E-1
1.189587192E0,2.279761791E0,1.021166992E1,-4.055834413E-1
1.192065370E0,2.267797709E0,1.020688438E1,-3.385843933E-1
1.194544380E0,2.267797709E0,1.017577744E1,-3.218346536E-1
1.197023338E0,2.231905222E0,1.015663528E1,-2.404786795E-1
1.199501515E0,2.167299032E0,1.014467049E1,-1.612164229E-1
1.201979692E0,2.109871387E0,1.015424156E1,-7.986045629E-2
1.204458703E0,2.050050735E0,1.014467049E1,-8.973084623E-4
1.206937661E0,2.002194405E0,1.013270664E1,3.978067636E-2
1.209415786E0,1.928016901E0,1.012074280E1,1.307079345E-1
1.211893963E0,1.870290041E0,1.010638523E1,1.905284971E-1
1.214372974E0,1.808076620E0,1.010638523E1,2.886342406E-1
1.216851932E0,1.772184253E0,1.010877800E1,3.364906907E-1
1.219330109E0,1.753041744E0,1.009681416E1,4.229314029E-1
1.221808286E0,1.753041744E0,1.012074280E1,4.947160780E-1
1.224287297E0,1.738684773E0,1.013031387E1,5.688936114E-1
1.226766255E0,1.731506228E0,1.014227772E1,6.023930907E-1
1.229244380E0,1.741077542E0,1.014706326E1,6.215356588E-1
1.231722557E0,1.741077542E0,1.014706326E1,6.430711150E-1
1.234201567E0,1.736291885E0,1.016620636E1,6.622136831E-1
1.236680526E0,1.760220170E0,1.016381359E1,6.837490797E-1
1.239158703E0,1.796112537E0,1.018534851E1,7.220342159E-1
1.241636880E0,1.820040703E0,1.019491959E1,7.196413875E-1
1.244115890E0,1.820040703E0,1.017817020E1,6.981059909E-1
1.246594849E0,1.822433591E0,1.017577744E1,6.861419082E-1
1.249072974E0,1.803290963E0,1.014945602E1,6.813562512E-1
1.251551151E0,1.824826360E0,1.012074280E1,6.957131624E-1
1.254030161E0,1.820040703E0,1.009920692E1,7.220342159E-1
1.256509120E0,1.848754644E0,1.001515961E1,7.507480979E-1
1.258987297E0,1.827219248E0,9.950552940E0,8.153542876E-1
1.261465474E0,1.788933992E0,9.890732765E0,8.153542876E-1
1.263944484E0,1.760220170E0,9.828518867E0,8.392825127E-1
1.266423442E0,1.743470430E0,9.763913155E0,8.775677085E-1
1.268901567E0,1.731506228E0,9.718449593E0,9.041878581E-1
1.271379745E0,1.688435435E0,9.699306488E0,9.041878581E-1
1.273858755E0,1.702792406E0,9.677771568E0,8.560323119E-1
1.276337713E0,1.686042666E0,9.668199539E0,7.866404653E-1
1.278815890E0,1.686042666E0,9.684949875E0,7.196413875E-1
1.281294067E0,1.709970832E0,9.680164337E0,5.449653864E-1
1.283773078E0,1.726720691E0,9.716055870E0,3.655036688E-1
1.286252036E0,1.748256087E0,9.744770050E0,1.953141540E-1
1.288730161E0,1.745863199E0,9.747162819E0,3.738785535E-2
1.291208338E0,1.755434513E0,9.768698692E0,-9.900303930E-2
1.293687349E0,1.793719649E0,9.773484230E0,-1.875374764E-1
1.296166307E0,1.786541224E0,9.766305923E0,-2.500499785E-1
1.298644484E0,1.810469389E0,9.756733894E0,-2.691925466E-1
1.301122661E0,1.855933070E0,9.768698692E0,-2.763710022E-1
1.303601672E0,1.894218206E0,9.783055305E0,-2.237289101E-1
1.306080630E0,1.930409670E0,9.766305923E0,-1.683948934E-1
1.308558755E0,1.954337835E0,9.747162819E0,-1.013958603E-1
1.311036932E0,1.932802439E0,9.720842361E0,-5.832505226E-2
1.313515942E0,1.903789520E0,9.680164337E0,-6.311069429E-2
1.315994901E0,1.896611094E0,9.658628464E0,-4.157529399E-2
1.318473078E0,1.870290041E0,9.641879082E0,-5.593222752E-2
1.320951255E0,1.853540182E0,9.615557671E0,-1.253240854E-1
1.323430265E0,1.875075698E0,9.615557671E0,-1.612164229E-1
1.325909224E0,1.867897153E0,9.603593826E0,-2.356930375E-1
1.328387349E0,1.896611094E0,9.565308571E0,-3.098705411E-1
1.330865526E0,1.920838356E0,9.541379929E0,-3.672982752E-1
1.333344536E0,1.906182289E0,9.524630547E0,-4.414757788E-1
1.335823495E0,1.899003863E0,9.490832329E0,-4.725824594E-1
1.338301672E0,1.899003863E0,9.481260300E0,-4.486542344E-1
1.340779849E0,1.925624013E0,9.476474762E0,-4.151547253E-1
1.343258859E0,1.910967946E0,9.478867531E0,-3.696911037E-1
1.345737817E0,1.906182289E0,9.529416084E0,-3.194418252E-1
1.348215995E0,1.920838356E0,9.591629982E0,-2.261217386E-1
1.350694120E0,1.913360834E0,9.658628464E0,-1.731805354E-1
1.353173130E0,1.939980984E0,9.766305923E0,-1.061815023E-1
1.355652088E0,1.949552298E0,9.888339996E0,-3.918246925E-2
1.358130265E0,1.980658889E0,1.001037312E1,-3.290131222E-3
1.360608442E0,2.042872429E0,1.012552834E1,2.542374097E-2
1.363087453E0,2.124228239E0,1.025713348E1,4.695914313E-2
1.365566411E0,2.205584288E0,1.036959648E1,3.020938672E-2
1.368044536E0,2.325225353E0,1.048445129E1,3.260220960E-2
1.370522713E0,2.423331022E0,1.053948689E1,3.260220960E-2
1.373001724E0,2.536092997E0,1.062831974E1,6.849455088E-2
1.375480682E0,2.646162748E0,1.067617607E1,8.285148442E-2
1.377958859E0,2.782553673E0,1.073360443E1,1.283151209E-1
1.380437036E0,2.938086987E0,1.076949692E1,1.857428551E-1
1.382916047E0,3.091526747E0,1.081496048E1,2.551347017E-1
1.385395005E0,3.220739365E0,1.083410263E1,3.412763178E-1
1.387873130E0,3.409772158E0,1.084606647E1,4.468596280E-1
1.390351307E0,3.512663603E0,1.084128094E1,5.521438122E-1
1.392830317E0,3.620639801E0,1.082931709E1,6.215356588E-1
1.395309276E0,3.699602842E0,1.080538845E1,7.435696125E-1
1.397787453E0,3.761816263E0,1.076231766E1,8.105686903E-1
1.400265630E0,3.807279825E0,1.075274658E1,8.823533654E-1
1.402744640E0,3.835993767E0,1.071924686E1,9.520443082E-1
1.405223599E0,3.840779543E0,1.065942669E1,9.759725332E-1
1.407701776E0,3.804887056E0,1.061366367E1,9.879366755E-1
1.410179901E0,3.766602039E0,1.050359440E1,9.831510186E-1
1.412658911E0,3.685245991E0,1.046291637E1,9.687940478E-1
1.415137870E0,3.558127165E0,1.039113140E1,9.616156220E-1
1.417616047E0,3.462414265E0,1.035763168E1,9.014959335E-1
1.420094224E0,3.354737282E0,1.031695366E1,8.584251404E-1
1.422573234E0,3.270988464E0,1.028106117E1,8.057830334E-1
1.425052192E0,3.168097258E0,1.026909733E1,7.627122402E-1
1.427530317E0,3.077169895E0,1.026191902E1,6.885347366E-1
1.430008495E0,3.021835804E0,1.027627563E1,6.023930907E-1
1.432487505E0,2.911766052E0,1.026670456E1,5.090730190E-1
1.434966463E0,2.832803011E0,1.024995518E1,4.109672904E-1
1.437444640E0,2.777767897E0,1.025234795E1,3.053839803E-1
1.439922817E0,2.682054996E0,1.026909733E1,2.048854381E-1
1.442401828E0,2.615056038E0,1.028106117E1,9.002995491E-2
1.444880786E0,2.557628393E0,1.032652569E1,-1.764706708E-2
1.447358963E0,2.504986286E0,1.032891846E1,-1.253240854E-1
1.449837088E0,2.425724030E0,1.036241722E1,-2.285145670E-1
1.452316099E0,2.353939295E0,1.038156033E1,-3.337987661E-1
1.454795057E0,2.267797709E0,1.038873863E1,-4.390829504E-1
1.457273234E0,2.203191519E0,1.040788078E1,-5.252245665E-1
1.459751411E0,2.133799553E0,1.037916756E1,-5.682953596E-1
1.462230422E0,2.033301115E0,1.037677479E1,-6.209374666E-1
1.464709380E0,1.937588096E0,1.037677479E1,-6.711867452E-1
1.467187557E0,1.870290041E0,1.034806061E1,-6.879364848E-1
1.469665682E0,1.788933992E0,1.035763168E1,-6.520441771E-1
1.472144692E0,1.702792406E0,1.039830971E1,-6.544370055E-1
1.474623703E0,1.619043589E0,1.041984558E1,-6.640082598E-1
1.477101828E0,1.532902002E0,1.043898773E1,-6.424728632E-1
1.479580005E0,1.453938842E0,1.047966576E1,-6.352944374E-1
1.482059015E0,1.374975681E0,1.052512932E1,-6.257231236E-1
1.484537974E0,1.300499082E0,1.056102180E1,-5.706881881E-1
1.487016151E0,1.188036442E0,1.058973598E1,-5.898307562E-1
1.489494276E0,1.089930773E0,1.061844921E1,-5.347958803E-1
1.491973286E0,1.010967612E0,1.064507008E1,-5.084748268E-1
1.494452245E0,9.320043921E-1,1.065703392E1,-4.893322289E-1
1.496930422E0,8.865407705E-1,1.065703392E1,-4.606183469E-1
1.499408599E0,8.099704385E-1,1.067856884E1,-4.534398913E-1
1.501887609E0,7.115656137E-1,1.071685410E1,-4.510470629E-1
1.504366567E0,6.972087026E-1,1.074078274E1,-4.462614357E-1
1.506844745E0,6.804589629E-1,1.077906799E1,-4.582255483E-1
1.509322870E0,6.708876491E-1,1.082453156E1,-4.366901219E-1
1.511801880E0,6.804589629E-1,1.088435173E1,-4.223332107E-1
1.514280890E0,6.708876491E-1,1.091785145E1,-4.223332107E-1
1.516759015E0,6.996015310E-1,1.095374393E1,-4.295116663E-1
1.519237192E0,7.402794957E-1,1.098485088E1,-4.007977843E-1
1.521716203E0,7.881359458E-1,1.101834965E1,-3.888336718E-1
1.524195161E0,8.051848412E-1,1.102074242E1,-3.816552162E-1
1.526673338E0,8.650053740E-1,1.103749275E1,-3.816552162E-1
1.529151463E0,9.008977413E-1,1.102074242E1,-3.960121572E-1
1.531630474E0,9.726824164E-1,1.104227829E1,-4.199403822E-1
1.534109484E0,1.034895778E0,1.103749275E1,-4.486542344E-1
1.536587609E0,1.089930773E0,1.101117134E1,-5.515456200E-1
1.539065786E0,1.149751306E0,1.096092224E1,-5.730810165E-1
1.541544797E0,1.185643673E0,1.092502975E1,-6.137589812E-1
1.544023755E0,1.214357495E0,1.085803127E1,-6.855437160E-1
1.546501932E0,1.219143152E0,1.075753212E1,-7.046862841E-1
1.548980057E0,1.226321578E0,1.066181946E1,-7.118647099E-1
1.551459067E0,1.231107235E0,1.054427242E1,-7.166503668E-1
1.553938026E0,1.223928809E0,1.038156033E1,-7.262216806E-1
1.556416203E0,1.235892892E0,1.027627563E1,-7.286145091E-1
1.558894380E0,1.271785259E0,1.016381359E1,-7.334001660E-1
1.561373390E0,1.293320656E0,1.007049274E1,-7.214360237E-1
1.563852349E0,1.357926846E0,1.001994514E1,-7.166503668E-1
1.566330526E0,1.403689623E0,9.976874352E0,-7.310073376E-1
1.568808651E0,1.513759375E0,9.957731247E0,-7.070791125E-1
1.571287661E0,1.599901080E0,9.952945709E0,-6.975077987E-1
1.573766672E0,1.709970832E0,9.964909554E0,-6.903293133E-1
1.576244797E0,1.822433591E0,9.986445427E0,-6.568298340E-1
1.578722974E0,1.935195327E0,1.001276588E1,-6.137589812E-1
1.581201984E0,2.045265198E0,1.001037312E1,-5.754738450E-1
1.583680942E0,2.172084808E0,1.002712345E1,-5.060819983E-1
1.586159120E0,2.260619164E0,1.003669453E1,-4.247260094E-1
1.588637297E0,2.363510609E0,1.001276588E1,-3.457628787E-1
1.591116307E0,2.430509567E0,1.001037312E1,-2.428714931E-1
1.593595265E0,2.548057079E0,1.001037312E1,-1.707877219E-1
1.596073390E0,2.605484724E0,1.001276588E1,-8.464609832E-2
1.598551567E0,2.672483683E0,9.979267120E0,-3.918246925E-2
1.601030578E0,2.732304335E0,9.991230965E0,-3.290131222E-3
1.603509536E0,2.770589590E0,9.984052658E0,4.217349738E-2
1.605987713E0,2.823231697E0,9.986445427E0,8.045866340E-2
1.608465890E0,2.863909483E0,1.000080204E1,9.960123897E-2
1.610944901E0,2.883052111E0,1.000558758E1,1.211366430E-1
1.613423859E0,2.918944597E0,1.002951622E1,1.354935765E-1
1.615901984E0,2.950051308E0,1.006062317E1,1.283151209E-1
1.618380161E0,2.973979473E0,1.011356354E1,1.354935765E-1
1.620859172E0,2.983550787E0,1.015424156E1,1.426720470E-1
1.623338130E0,3.002693415E0,1.020688438E1,1.283151209E-1
1.625816307E0,3.002693415E0,1.025952625E1,1.091725305E-1
1.628294484E0,2.988336325E0,1.031216812E1,1.019940674E-1
1.630773495E0,2.985943556E0,1.035284615E1,8.285148442E-2
1.633252453E0,2.969193697E0,1.039830971E1,3.738785535E-2
1.635730578E0,2.957229614E0,1.044377327E1,1.585244946E-2
1.638208755E0,2.921337366E0,1.046770191E1,-2.482553571E-2
1.640687765E0,2.887837887E0,1.051077271E1,-9.421738982E-2
1.643166724E0,2.847159863E0,1.050837994E1,-1.396810263E-1
1.645644901E0,2.832803011E0,1.047248745E1,-2.114657015E-1
1.648123078E0,2.804089069E0,1.046291637E1,-2.548356056E-1
1.650602088E0,2.804089069E0,1.044616604E1,-3.098705411E-1
1.653081047E0,2.756232500E0,1.042223835E1,-3.457628787E-1
1.655559172E0,2.708376169E0,1.039830971E1,-3.840480447E-1
1.658037349E0,2.662912607E0,1.039113140E1,-4.247260094E-1
1.660516359E0,2.619841576E0,1.039352417E1,-4.582255483E-1
1.662995317E0,2.550449848E0,1.040788078E1,-4.606183469E-1
1.665473495E0,2.456830740E0,1.039113140E1,-4.630111754E-1
1.667951672E0,2.392224550E0,1.042941666E1,-4.701896608E-1
1.670430682E0,2.315654039E0,1.044855881E1,-4.510470629E-1
1.672909640E0,2.243869543E0,1.049880886E1,-4.390829504E-1
1.675387765E0,2.167299032E0,1.055145073E1,-4.295116663E-1
1.677865942E0,2.102692842E0,1.060648537E1,-4.295116663E-1
1.680344953E0,2.030908108E0,1.060409260E1,-4.510470629E-1
1.682823911E0,1.961516380E0,1.062323570E1,-4.534398913E-1
1.685302088E0,1.908575177E0,1.061605644E1,-4.821537733E-1
1.687780265E0,1.867897153E0,1.061605644E1,-4.941178858E-1
1.690259276E0,1.829612017E0,1.060169983E1,-4.965106845E-1
1.692738234E0,1.788933992E0,1.058255768E1,-5.036891699E-1
1.695216359E0,1.776969910E0,1.057537842E1,-5.276173949E-1
1.697694536E0,1.741077542E0,1.054905796E1,-5.515456200E-1
1.700173547E0,1.721935034E0,1.055623627E1,-5.276173949E-1
1.702652505E0,1.745863199E0,1.054427242E1,-5.730810165E-1
1.705130682E0,1.738684773E0,1.055384350E1,-5.635097623E-1
1.707608859E0,1.733899117E0,1.056580734E1,-5.754738450E-1
1.710087870E0,1.721935034E0,1.058973598E1,-5.802595019E-1
1.712566828E0,1.757827282E0,1.062084198E1,-5.970092416E-1
1.715044953E0,1.798505306E0,1.067378330E1,-6.137589812E-1
1.717523130E0,1.800898194E0,1.071206856E1,-6.640082598E-1
1.720002140E0,1.851147413E0,1.075035381E1,-6.759724021E-1
1.722481099E0,1.896611094E0,1.080778122E1,-7.118647099E-1
1.724959276E0,1.930409670E0,1.081256771E1,-7.453642488E-1
1.727437453E0,1.980658889E0,1.081496048E1,-7.740781307E-1
1.729916463E0,1.973480463E0,1.082453156E1,-7.863413692E-1
1.732395422E0,1.975873351E0,1.079342461E1,-8.318049908E-1
1.734873599E0,1.992623091E0,1.073838997E1,-8.318049908E-1
1.737351724E0,1.966302037E0,1.069053364E1,-8.461619020E-1
1.739830734E0,1.968694806E0,1.064507008E1,-8.700901270E-1
1.742309692E0,1.913360834E0,1.062562847E1,-9.083753228E-1
1.744787870E0,1.891825438E0,1.057059288E1,-9.155537486E-1
1.747266047E0,1.865504384E0,1.053709316E1,-9.610173702E-1
1.749745057E0,1.824826360E0,1.050359440E1,-1.032802105E0
1.752224015E0,1.820040703E0,1.045573807E1,-1.090229869E0
1.754702192E0,1.791326880E0,1.044138050E1,-1.135693431E0
1.757180317E0,1.738684773E0,1.036720276E1,-1.183549881E0
1.759659328E0,1.705185294E0,1.031934643E1,-1.214656591E0
1.762138338E0,1.635793328E0,1.025234795E1,-1.293619752E0
1.764616463E0,1.597508192E0,1.018774128E1,-1.272084355E0
1.767094640E0,1.535294771E0,1.012552834E1,-1.317547917E0
1.769573651E0,1.489831209E0,1.006062317E1,-1.298405409E0
1.772052609E0,1.408475280E0,1.000558758E1,-1.336690545E0
1.774530786E0,1.360618830E0,9.929018021E0,-1.310369492E0
1.777008911E0,1.290927768E0,9.878767967E0,-1.296012521E0
1.779487922E0,1.214357495E0,9.828518867E0,-1.257727385E0
1.781966932E0,1.168893814E0,9.783055305E0,-1.200299621E0
1.784445057E0,1.130608678E0,9.783055305E0,-1.183549881E0
1.786923234E0,1.104287624E0,9.778269768E0,-1.118943691E0
1.789402245E0,1.097109199E0,9.814162254E0,-1.073480010E0
1.791881203E0,1.099501967E0,9.850054741E0,-1.030409217E0
1.794359380E0,1.130608678E0,9.876375198E0,-9.610173702E-1
1.796837505E0,1.154536963E0,9.931410789E0,-8.892326951E-1
1.799316515E0,1.197607756E0,9.991230965E0,-8.509475589E-1
1.801795474E0,1.245464206E0,1.000558758E1,-7.911269665E-1
1.804273651E0,1.338784218E0,1.003430176E1,-7.429714203E-1
1.806751828E0,1.422832131E0,1.006062317E1,-6.711867452E-1
1.809230838E0,1.485045552E0,1.007527924E1,-6.113662124E-1
1.811709797E0,1.590329766E0,1.009442139E1,-5.706881881E-1
1.814187974E0,1.657328725E0,1.013031387E1,-5.252245665E-1
1.816666099E0,1.788933992E0,1.013031387E1,-5.228317380E-1
1.819145109E0,1.846361756E0,1.014706326E1,-5.132604837E-1
1.821624120E0,1.939980984E0,1.014945602E1,-4.893322289E-1
1.824102245E0,2.047657967E0,1.015902805E1,-4.677968323E-1
1.826580422E0,2.121835470E0,1.016142082E1,-4.582255483E-1
1.829059432E0,2.210369825E0,1.017099190E1,-4.558327198E-1
1.831538390E0,2.294118643E0,1.016620636E1,-4.223332107E-1
1.834016567E0,2.377867460E0,1.019491959E1,-3.936193287E-1
1.836494692E0,2.464009047E0,1.019731236E1,-3.672982752E-1
1.838973703E0,2.557628393E0,1.021884823E1,-3.481557071E-1
1.841452661E0,2.627020121E0,1.023799038E1,-3.361915946E-1
1.843930838E0,2.691626310E0,1.021884823E1,-3.218346536E-1
1.846409015E0,2.765803814E0,1.019731236E1,-3.314059377E-1
1.848888026E0,2.842374086E0,1.016859913E1,-3.098705411E-1
1.851366984E0,2.895016193E0,1.015663528E1,-3.194418252E-1
1.853845161E0,2.962015390E0,1.013509941E1,-3.337987661E-1
1.856323286E0,3.024228811E0,1.011117077E1,-2.883351147E-1
1.858802297E0,3.086741209E0,1.009202862E1,-3.026920557E-1
1.861281307E0,3.158525944E0,1.009681416E1,-3.194418252E-1
1.863759432E0,3.235096216E0,1.007527924E1,-3.361915946E-1
1.866237609E0,3.309273720E0,1.010399246E1,-3.242274821E-1
1.868716620E0,3.383451223E0,1.013749218E1,-3.505485058E-1
1.871195578E0,3.476771355E0,1.015424156E1,-3.649054468E-1
1.873673755E0,3.548556089E0,1.017817020E1,-3.696911037E-1
1.876151932E0,3.644567966E0,1.019970608E1,-3.840480447E-1
1.878630942E0,3.730709553E0,1.022124100E1,-3.840480447E-1
1.881109901E0,3.807279825E0,1.025713348E1,-3.984049559E-1
1.883588026E0,3.886243105E0,1.023799038E1,-3.984049559E-1
1.886066203E0,3.936492443E0,1.026431179E1,-3.601198196E-1
1.888545213E0,3.977170229E0,1.027627563E1,-3.696911037E-1
1.891024172E0,3.984348774E0,1.027149010E1,-3.361915946E-1
1.893502349E0,3.989134550E0,1.026670456E1,-3.266202807E-1
1.895980526E0,3.986741543E0,1.027627563E1,-3.026920557E-1
1.898459536E0,3.946063757E0,1.029541874E1,-2.955136001E-1
1.900938495E0,3.883850336E0,1.030020428E1,-2.524427772E-1
1.903416620E0,3.792922974E0,1.030977535E1,-2.715853751E-1
1.905894797E0,3.692424536E0,1.034088230E1,-2.859423161E-1
1.908373807E0,3.565305710E0,1.036959648E1,-3.194418252E-1
1.910852765E0,3.460021496E0,1.041266727E1,-3.649054468E-1
1.913330942E0,3.299702406E0,1.046052361E1,-3.912265003E-1
1.915809120E0,3.175275564E0,1.052991486E1,-4.558327198E-1
1.918288130E0,3.021835804E0,1.061127090E1,-5.371887088E-1
1.920767088E0,2.878266573E0,1.070489025E1,-6.041877270E-1
1.923245213E0,2.739482880E0,1.079821014E1,-6.879364848E-1
1.925723390E0,2.617448807E0,1.087717342E1,-7.429714203E-1
1.928202401E0,2.504986286E0,1.090588760E1,-7.740781307E-1
1.930681359E0,2.368296146E0,1.093938732E1,-8.413762450E-1
1.933159536E0,2.251047850E0,1.097527885E1,-8.820542693E-1
1.935637713E0,2.162513494E0,1.097527885E1,-9.155537486E-1
1.938116724E0,2.085943222E0,1.097767162E1,-9.394819736E-1
1.940595682E0,1.995015860E0,1.098245811E1,-1.004088163E0
1.943073807E0,1.930409670E0,1.093699455E1,-1.044766188E0
1.945551984E0,1.872682810E0,1.090588760E1,-1.068694472E0
1.948030995E0,1.827219248E0,1.084367371E1,-1.092622638E0
1.950509953E0,1.745863199E0,1.078624630E1,-1.087836981E0
1.952988130E0,1.686042666E0,1.073121166E1,-1.140479088E0
1.955466307E0,1.614257932E0,1.064985561E1,-1.130907774E0
1.957945317E0,1.564008713E0,1.057298565E1,-1.123729348E0
1.960424276E0,1.480259895E0,1.050598717E1,-1.140479088E0
1.962902401E0,1.422832131E0,1.040309525E1,-1.152443171E0
1.965380578E0,1.300499082E0,1.034088230E1,-1.154836059E0
1.967859588E0,1.185643673E0,1.026909733E1,-1.157228827E0
1.970338547E0,1.082752228E0,1.019252682E1,-1.178764224E0
1.972816724E0,9.798609018E-1,1.013509941E1,-1.178764224E0
1.975294901E0,8.721838593E-1,1.009681416E1,-1.197906852E0
1.977773911E0,7.570292354E-1,1.004865837E1,-1.224227905E0
1.980252870E0,6.349952817E-1,1.007527924E1,-1.262513041E0
1.982730995E0,5.297111273E-1,1.007767200E1,-1.298405409E0
1.985209172E0,4.316053987E-1,1.007767200E1,-1.303191066E0
1.987688182E0,3.311068416E-1,1.012552834E1,-1.339083314E0
1.990167140E0,2.401795685E-1,1.017817020E1,-1.377667665E0
1.992645317E0,1.561316848E-1,1.021884823E1,-1.408774376E0
1.995123495E0,6.999006122E-2,1.027627563E1,-1.420738459E0
1.997602505E0,1.974078640E-2,1.032891846E1,-1.451845169E0
2.000081463E0,-3.050848842E-2,1.038156033E1,-1.454237938E0
2.002559640E0,-8.973085321E-3,1.040788078E1,-1.442273855E0
2.005037765E0,-6.580262445E-3,1.042941666E1,-1.435095429E0
2.007516776E0,-6.580262445E-3,1.045573807E1,-1.425524116E0
2.009995734E0,5.802594870E-2,1.046052361E1,-1.387238979E0
2.012473911E0,1.298106313E-1,1.044616604E1,-1.331904888E0
2.014952088E0,2.521436810E-1,1.043659496E1,-1.264905930E0
2.017431099E0,3.526422381E-1,1.040788078E1,-1.205085278E0
2.019910057E0,4.818546474E-1,1.037198925E1,-1.171585798E0
2.022388234E0,5.751747489E-1,1.031934643E1,-1.092622638E0
2.024866359E0,7.283154130E-1,1.025952625E1,-1.042373419E0
2.027345370E0,8.482556343E-1,1.020449162E1,-9.418748021E-1
2.029824328E0,9.990034699E-1,1.016620636E1,-8.844470978E-1
2.032302505E0,1.128215909E0,1.010638523E1,-8.341978192E-1
2.034780682E0,1.271785259E0,1.006809998E1,-7.668996453E-1
2.037259692E0,1.413260818E0,1.001037312E1,-7.046862841E-1
2.039738651E0,1.542473316E0,9.952945709E0,-6.592226624E-1
2.042216828E0,1.690828323E0,9.914660454E0,-6.089733839E-1
2.044694953E0,1.851147413E0,9.902696609E0,-5.347958803E-1
2.047173963E0,1.980658889E0,9.907482147E0,-4.989035130E-1
2.049652922E0,2.100300074E0,9.909874916E0,-4.534398913E-1
2.052131099E0,2.239083767E0,9.929018021E0,-4.055834413E-1
2.054609276E0,2.373081923E0,9.972088814E0,-3.672982752E-1
2.057088286E0,2.497807741E0,1.003430176E1,-3.074777126E-1
2.059567245E0,2.600699186E0,1.006809998E1,-2.739782035E-1
2.062045422E0,2.729911566E0,1.014706326E1,-2.237289101E-1
2.064523547E0,2.844767094E0,1.021166992E1,-1.588236094E-1
2.067002557E0,2.940479994E0,1.029063320E1,-1.157527938E-1
2.069481567E0,3.046063185E0,1.040070248E1,-7.986045629E-2
2.071959692E0,3.160918713E0,1.047966576E1,-6.311069429E-2
2.074437870E0,3.263810158E0,1.053948689E1,-5.832505226E-2
2.076916880E0,3.328416348E0,1.059212875E1,-7.746763527E-2
2.079395838E0,3.407379389E0,1.060409260E1,-6.789634377E-2
2.081874015E0,3.469592810E0,1.062323570E1,-8.225327730E-2
2.084352192E0,3.524627686E0,1.061366367E1,-1.085743308E-1
2.086831203E0,3.536591768E0,1.060648537E1,-1.396810263E-1
2.089310161E0,3.572484255E0,1.056580734E1,-1.588236094E-1
2.091788286E0,3.608675718E0,1.055384350E1,-1.947159469E-1
2.094266463E0,3.651746511E0,1.047248745E1,-2.213360965E-1
2.096745474E0,3.661317825E0,1.041745281E1,-2.620140910E-1
2.099224432E0,3.670889139E0,1.035045338E1,-3.122633696E-1
2.101702609E0,3.673281908E0,1.029781151E1,-2.907279432E-1
2.104180786E0,3.701995850E0,1.023799038E1,-3.385843933E-1
2.106659797E0,3.723531246E0,1.021166992E1,-3.649054468E-1
2.109138755E0,3.745066643E0,1.022363377E1,-4.199403822E-1
2.111616880E0,3.802494287E0,1.019013405E1,-4.223332107E-1
2.114095057E0,3.821636915E0,1.018056297E1,-4.606183469E-1
2.116574067E0,3.840779543E0,1.019252682E1,-4.845465720E-1
2.119053026E0,3.857529163E0,1.017338467E1,-4.677968323E-1
2.121531203E0,3.831208229E0,1.015424156E1,-4.654040039E-1
2.124009380E0,3.812065601E0,1.014945602E1,-4.558327198E-1
2.126488390E0,3.745066643E0,1.013509941E1,-4.558327198E-1
2.128967349E0,3.704388618E0,1.013988495E1,-4.606183469E-1
2.131445474E0,3.649353743E0,1.014227772E1,-4.965106845E-1
2.133923651E0,3.582055569E0,1.017338467E1,-5.060819983E-1
2.136402661E0,3.460021496E0,1.022124100E1,-5.443671346E-1
2.138881620E0,3.354737282E0,1.027388287E1,-5.778666735E-1
2.141359797E0,3.247060299E0,1.031456089E1,-6.520441771E-1
2.143837974E0,3.151347399E0,1.039591694E1,-7.070791125E-1
2.146316984E0,3.024228811E0,1.045095158E1,-7.621139884E-1
2.148795942E0,2.871088028E0,1.050598717E1,-8.270193338E-1
2.151274067E0,2.770589590E0,1.058973598E1,-9.035896659E-1
2.153752245E0,2.682054996E0,1.067617607E1,-9.251250625E-1
2.156231255E0,2.600699186E0,1.076231766E1,-9.969097376E-1
2.158710213E0,2.536092997E0,1.085324574E1,-1.025623560E0
2.161188390E0,2.475973129E0,1.092981529E1,-1.056730270E0
2.163666567E0,2.423331022E0,1.099202919E1,-1.071087241E0
2.166145578E0,2.365903378E0,1.102792168E1,-1.090229869E0
2.168624536E0,2.315654039E0,1.103749275E1,-1.128515005E0
2.171102661E0,2.243869543E0,1.101117134E1,-1.154836059E0
2.173580838E0,2.176870346E0,1.095852947E1,-1.169192910E0
2.176059849E0,2.069193363E0,1.087956619E1,-1.178764224E0
2.178538807E0,1.959123492E0,1.078863907E1,-1.183549881E0
2.181016984E0,1.882254124E0,1.069531918E1,-1.193121195E0
2.183495161E0,1.760220170E0,1.055862904E1,-1.214656591E0
2.185974172E0,1.654935956E0,1.046052361E1,-1.219442248E0
2.188453130E0,1.516152263E0,1.036002445E1,-1.212263823E0
2.190931307E0,1.384546995E0,1.024277687E1,-1.226620674E0
2.193409432E0,1.283749342E0,1.013031387E1,-1.236191988E0
2.195888442E0,1.166501045E0,1.003669453E1,-1.250548959E0
2.198367401E0,1.070788145E0,9.909874916E0,-1.288834095E0
2.200845578E0,9.774680734E-1,9.826126099E0,-1.286441326E0
2.203323755E0,8.673982024E-1,9.730413437E0,-1.307976723E0
2.205802765E0,7.857431173E-1,9.725627899E0,-1.339083314E0
2.208281724E0,7.091727853E-1,9.708877563E0,-1.365703583E0
2.210759901E0,6.206383705E-1,9.680164337E0,-1.372882009E0
2.213238026E0,5.608177781E-1,9.682557106E0,-1.360917926E0
2.215717036E0,5.177469850E-1,9.689735413E0,-1.351346612E0
2.218195995E0,4.627120793E-1,9.704092026E0,-1.348953724E0
2.220674172E0,4.292125702E-1,9.751948357E0,-1.339083314E0
2.223152349E0,3.957130313E-1,9.792626381E0,-1.327119231E0
2.225631359E0,3.622135222E-1,9.883553505E0,-1.300798178E0
2.228110317E0,3.406781256E-1,9.981659889E0,-1.303191066E0
2.230588495E0,3.215355575E-1,1.008963585E1,-1.303191066E0
2.233066620E0,2.904288471E-1,1.016859913E1,-1.281655669E0
2.235545630E0,2.736790776E-1,1.022602654E1,-1.291226864E0
2.238024640E0,2.327020019E-1,1.029302597E1,-1.272084355E0
2.240502765E0,2.087737769E-1,1.034088230E1,-1.272084355E0
2.242980942E0,1.776670814E-1,1.033848953E1,-1.257727385E0
2.245459953E0,1.585244983E-1,1.037677479E1,-1.214656591E0
2.247938911E0,1.345962733E-1,1.041984558E1,-1.173978567E0
2.250417088E0,1.250249892E-1,1.043898773E1,-1.181157112E0
2.252895213E0,1.393819153E-1,1.046052361E1,-1.142871857E0
2.255374224E0,1.776670814E-1,1.047248745E1,-1.111765265E0
2.257853234E0,2.111666054E-1,1.046770191E1,-1.063908815E0
2.260331359E0,2.641077936E-1,1.047966576E1,-1.006481051E0
2.262809536E0,3.430709541E-1,1.048684406E1,-9.251250625E-1
2.265288547E0,4.316053987E-1,1.047009468E1,-8.988040090E-1
2.267767505E0,5.201398134E-1,1.042702389E1,-8.581260443E-1
2.270245682E0,6.326025128E-1,1.041506004E1,-8.150551915E-1
2.272723807E0,7.594220638E-1,1.038634586E1,-7.453642488E-1
2.275202817E0,8.650053740E-1,1.036720276E1,-6.975077987E-1
2.277681828E0,9.990034699E-1,1.031456089E1,-6.257231236E-1
2.280159953E0,1.118644595E0,1.026191902E1,-5.611169338E-1
2.282638130E0,1.264606714E0,1.020927715E1,-5.252245665E-1
2.285117140E0,1.398903966E0,1.019013405E1,-4.295116663E-1
2.287596099E0,1.525723577E0,1.016859913E1,-3.720839322E-1
2.290074276E0,1.635793328E0,1.013749218E1,-2.931207716E-1
2.292552453E0,1.760220170E0,1.014467049E1,-2.356930375E-1
2.295031463E0,1.882254124E0,1.016620636E1,-1.779661775E-1
2.297510422E0,1.985444546E0,1.018534851E1,-1.372881979E-1
2.299988547E0,2.112264156E0,1.023559761E1,-1.205384433E-1
2.302466724E0,2.217548370E0,1.027627563E1,-8.703892678E-2
2.304945734E0,2.313261271E0,1.033609676E1,-6.789634377E-2
2.307424692E0,2.416152716E0,1.036959648E1,-3.439682722E-2
2.309902870E0,2.545664072E0,1.039352417E1,-2.482553571E-2
2.312381047E0,2.629412889E0,1.041027355E1,6.281159353E-3
2.314860057E0,2.722733021E0,1.041266727E1,2.303091809E-2
2.317339015E0,2.808874607E0,1.046291637E1,5.892325938E-2
2.319817140E0,2.928515911E0,1.049641609E1,4.695914313E-2
2.322295317E0,3.029014349E0,1.051795101E1,3.499503061E-2
2.324774328E0,3.115455151E0,1.052034378E1,1.585244946E-2
2.327253286E0,3.201596737E0,1.056341457E1,-3.439682722E-2
2.329731463E0,3.285345554E0,1.055384350E1,-4.636093974E-2
2.332209640E0,3.414557934E0,1.052991486E1,-9.900303930E-2
2.334688651E0,3.507878065E0,1.050359440E1,-1.444666684E-1
2.337167609E0,3.591626883E0,1.049641609E1,-2.018944174E-1
2.339645734E0,3.692424536E0,1.047488022E1,-2.404786795E-1
2.342123911E0,3.780958891E0,1.047727299E1,-3.098705411E-1
2.344602922E0,3.867100477E0,1.043420219E1,-3.385843933E-1
2.347081880E0,3.950849295E0,1.042463112E1,-3.792623878E-1
2.349560057E0,4.044169426E0,1.040788078E1,-4.031906128E-1
2.352038234E0,4.108775616E0,1.041027355E1,-4.199403822E-1
2.354517245E0,4.159024715E0,1.040070248E1,-4.127618968E-1
2.356996203E0,4.245465755E0,1.039830971E1,-4.175475538E-1
2.359474328E0,4.295714855E0,1.041027355E1,-4.055834413E-1
2.361952505E0,4.341178417E0,1.041984558E1,-3.840480447E-1
2.364431515E0,4.360321045E0,1.043420219E1,-3.625126183E-1
2.366910474E0,4.326821327E0,1.045095158E1,-3.505485058E-1
2.369388651E0,4.314857483E0,1.048445129E1,-3.122633696E-1
2.371866828E0,4.274179459E0,1.049880886E1,-3.242274821E-1
2.374345838E0,4.226323128E0,1.053470039E1,-3.218346536E-1
2.376824797E0,4.149453640E0,1.056102180E1,-3.074777126E-1
2.379302974E0,4.075275898E0,1.056820011E1,-3.290131092E-1
2.381781099E0,3.986741543E0,1.060169983E1,-3.696911037E-1
2.384260109E0,3.869493246E0,1.062084198E1,-4.103690982E-1
2.386739067E0,3.754637718E0,1.062084198E1,-4.486542344E-1
2.389217245E0,3.623032570E0,1.062084198E1,-5.036891699E-1
2.391695422E0,3.471985579E0,1.062323570E1,-5.754738450E-1
2.394174432E0,3.333201885E0,1.060648537E1,-6.496513486E-1
2.396653390E0,3.170490026E0,1.060648537E1,-7.142575383E-1
2.399131567E0,3.000300407E0,1.060648537E1,-8.006982803E-1
2.401609692E0,2.839981318E0,1.057537842E1,-8.724829555E-1
2.404088703E0,2.679662228E0,1.057298565E1,-9.586246014E-1
2.406567661E0,2.500200510E0,1.054187965E1,-1.075872898E0
2.409045838E0,2.334796667E0,1.052752209E1,-1.128515005E0
2.411524015E0,2.176870346E0,1.050598717E1,-1.231406331E0
2.414003026E0,2.023729801E0,1.047488022E1,-1.300798178E0
2.416481984E0,1.867897153E0,1.043898773E1,-1.375274777E0
2.418960161E0,1.741077542E0,1.039591694E1,-1.451845169E0
2.421438286E0,1.628614902E0,1.036480999E1,-1.506880045E0
2.423917297E0,1.494616866E0,1.031695366E1,-1.571486235E0
2.426396255E0,1.406082392E0,1.027388287E1,-1.614557028E0
2.428874432E0,1.305284739E0,1.019252682E1,-1.657627940E0
2.431352609E0,1.209571838E0,1.016620636E1,-1.679163337E0
2.433831620E0,1.121037364E0,1.008006477E1,-1.693520188E0
2.436310578E0,1.034895778E0,1.001515961E1,-1.693520188E0
2.438788755E0,9.774680734E-1,9.948160172E0,-1.691127419E0
2.441266880E0,8.889335990E-1,9.897911072E0,-1.660020709E0
2.443745890E0,8.362914920E-1,9.847661972E0,-1.626521230E0
2.446224901E0,7.953144312E-1,9.792626381E0,-1.566700578E0
2.448703026E0,7.546364665E-1,9.751948357E0,-1.533201098E0
2.451181203E0,7.091727853E-1,9.732806206E0,-1.478166223E0
2.453660213E0,6.230311990E-1,9.718449593E0,-1.461416483E0
2.456139172E0,5.703890920E-1,9.684949875E0,-1.423131227E0
2.458617349E0,5.727819204E-1,9.704092026E0,-1.380060434E0
2.461095526E0,5.153541565E-1,9.725627899E0,-1.372882009E0
2.463574536E0,4.722833633E-1,9.795019150E0,-1.315155149E0
2.466053495E0,4.339981973E-1,9.862018585E0,-1.300798178E0
2.468531620E0,3.885345757E-1,9.929018021E0,-1.293619752E0
2.471009797E0,3.358924687E-1,1.003908730E1,-1.307976723E0
2.473488807E0,3.215355575E-1,1.014945602E1,-1.298405409E0
2.475967765E0,2.976073027E-1,1.022124100E1,-1.296012521E0
2.478445942E0,2.832503915E-1,1.028824043E1,-1.272084355E0
2.480924120E0,2.279163599E-1,1.034327507E1,-1.269691467E0
2.483403130E0,2.255235314E-1,1.040548801E1,-1.252941728E0
2.485882088E0,2.111666054E-1,1.044138050E1,-1.219442248E0
2.488360213E0,2.231307179E-1,1.047727299E1,-1.209870934E0
2.490838390E0,2.183450609E-1,1.048923683E1,-1.193121195E0
2.493317401E0,2.425723970E-1,1.051316547E1,-1.138086319E0
2.495796359E0,2.665006220E-1,1.050359440E1,-1.121336460E0
2.498274536E0,3.143570721E-1,1.050837994E1,-1.068694472E0
2.500752713E0,3.717848063E-1,1.051795101E1,-1.018445134E0
2.503231724E0,4.316053987E-1,1.051316547E1,-9.825528264E-1
2.505710682E0,5.201398134E-1,1.048445129E1,-9.586246014E-1
2.508188807E0,6.158527136E-1,1.046291637E1,-9.203394055E-1
2.510666984E0,7.139584422E-1,1.044138050E1,-8.796614408E-1
2.513145995E0,8.123632669E-1,1.039352417E1,-8.365905881E-1
2.515624953E0,9.320043921E-1,1.035523891E1,-7.764709592E-1
2.518103130E0,1.039681435E0,1.031216812E1,-6.975077987E-1
2.520581307E0,1.149751306E0,1.028106117E1,-5.730810165E-1
2.523060317E0,1.264606714E0,1.022841930E1,-4.917250574E-1
2.525539276E0,1.391725421E0,1.018534851E1,-3.888336718E-1
2.528017401E0,1.513759375E0,1.018056297E1,-2.667997181E-1
2.530495578E0,1.626222134E0,1.014945602E1,-1.660020649E-1
2.532974588E0,1.731506228E0,1.019491959E1,-7.746763527E-2
2.535453547E0,1.848754644E0,1.024038315E1,-5.682953633E-3
2.537931724E0,2.018944025E0,1.031695366E1,9.720841795E-2
2.540409901E0,2.114656925E0,1.041745281E1,1.857428551E-1
2.542888911E0,2.241476536E0,1.047966576E1,2.647060156E-1
2.545367870E0,2.361117840E0,1.055384350E1,3.053839803E-1
2.547845995E0,2.490629196E0,1.064267731E1,3.798605800E-1
2.550324172E0,2.619841576E0,1.069771194E1,4.181457460E-1
2.552803182E0,2.763411045E0,1.075753212E1,4.588237405E-1
2.555282140E0,2.885445118E0,1.083649540E1,4.540380836E-1
2.557760317E0,2.990729094E0,1.087956619E1,4.420739710E-1
2.560238495E0,3.110669374E0,1.092742252E1,3.798605800E-1
2.562717505E0,3.215953588E0,1.090828037E1,3.607180119E-1
2.565196463E0,3.330809116E0,1.089153004E1,2.934198678E-1
2.567674640E0,3.440878868E0,1.091067314E1,2.407777756E-1
2.570152765E0,3.534198999E0,1.086281681E1,1.929213256E-1
2.572631776E0,3.632603884E0,1.077428246E1,1.331007630E-1
2.575110734E0,3.701995850E0,1.069053364E1,9.002995491E-2
2.577588911E0,3.783351660E0,1.062323570E1,1.345962752E-2
2.580067088E0,3.843172312E0,1.049880886E1,-4.157529399E-2
2.582546099E0,3.895814419E0,1.041266727E1,-8.464609832E-2
2.585025057E0,3.953242064E0,1.034327507E1,-1.253240854E-1
2.587503234E0,4.013062477E0,1.027388287E1,-1.851446480E-1
2.589981359E0,4.063312054E0,1.023559761E1,-2.500499785E-1
2.592460370E0,4.113561153E0,1.021645546E1,-2.715853751E-1
2.594939328E0,4.173680782E0,1.017338467E1,-3.385843933E-1
2.597417505E0,4.216751575E0,1.017099190E1,-3.816552162E-1
2.599895682E0,4.250251293E0,1.017577744E1,-4.319044948E-1
2.602374692E0,4.288536549E0,1.017577744E1,-4.582255483E-1
2.604853651E0,4.274179459E0,1.019491959E1,-5.108676553E-1
2.607331828E0,4.247858524E0,1.020927715E1,-5.228317380E-1
2.609809953E0,4.185645103E0,1.023320484E1,-5.563312769E-1
2.612288963E0,4.096811295E0,1.024516964E1,-5.706881881E-1
2.614767974E0,3.974777460E0,1.026191902E1,-5.994020700E-1
2.617246099E0,3.859921932E0,1.028345394E1,-6.568298340E-1
2.619724276E0,3.713959932E0,1.030498981E1,-6.951149702E-1
2.622203286E0,3.562912941E0,1.035763168E1,-7.262216806E-1
2.624682245E0,3.393022537E0,1.043898773E1,-7.815557122E-1
2.627160422E0,3.259024382E0,1.051077271E1,-8.365905881E-1
2.629638599E0,3.096312523E0,1.056341457E1,-9.035896659E-1
2.632117609E0,2.935694218E0,1.062562847E1,-9.538389444E-1
2.634596567E0,2.756232500E0,1.065942669E1,-1.001695395E0
2.637074692E0,2.638984203E0,1.070010471E1,-1.016052365E0
2.639552870E0,2.461616278E0,1.073121166E1,-1.080658555E0
2.642031880E0,2.325225353E0,1.070967579E1,-1.138086319E0
2.644510838E0,2.174477577E0,1.070010471E1,-1.145264745E0
2.646989015E0,2.030908108E0,1.068096161E1,-1.173978567E0
2.649467192E0,1.894218206E0,1.067856884E1,-1.231406331E0
2.651946203E0,1.748256087E0,1.062831974E1,-1.284048438E0
2.654425161E0,1.645364642E0,1.058255768E1,-1.315155149E0
2.656903286E0,1.544866085E0,1.053709316E1,-1.368096352E0
2.659381463E0,1.446760416E0,1.051316547E1,-1.435095429E0
2.661860474E0,1.398903966E0,1.043180943E1,-1.442273855E0
2.664339432E0,1.338784218E0,1.033848953E1,-1.485344648E0
2.666817609E0,1.259821177E0,1.028106117E1,-1.537986755E0
2.669295786E0,1.211964726E0,1.016620636E1,-1.533201098E0
2.671774797E0,1.202393413E0,1.005344391E1,-1.554736495E0
2.674253755E0,1.166501045E0,9.929018021E0,-1.549950838E0
2.676731880E0,1.123430252E0,9.809376717E0,-1.554736495E0
2.679210057E0,1.116251707E0,9.694520950E0,-1.576271892E0
2.681689067E0,1.113858938E0,9.591629982E0,-1.578664780E0
2.684168026E0,1.101894855E0,9.488439560E0,-1.578664780E0
2.686646203E0,1.075573802E0,9.395118713E0,-1.559522152E0
2.689124380E0,1.066002488E0,9.325727463E0,-1.535593987E0
2.691603390E0,1.051645517E0,9.297013283E0,-1.528415442E0
2.694082349E0,1.027717352E0,9.304191589E0,-1.497308731E0
2.696560474E0,1.027717352E0,9.335298538E0,-1.487737536E0
2.699038651E0,9.942178130E-1,9.399904251E0,-1.468594909E0
2.701517661E0,9.391828775E-1,9.531808853E0,-1.423131227E0
2.703996620E0,8.793623447E-1,9.706484795E0,-1.425524116E0
2.706474797E0,8.315058947E-1,9.840482712E0,-1.406381488E0
2.708952974E0,7.689933777E-1,9.993623734E0,-1.377667665E0
2.711431984E0,7.091727853E-1,1.010159969E1,-1.360917926E0
2.713910942E0,6.613163352E-1,1.022124100E1,-1.303191066E0
2.716389067E0,5.895316601E-1,1.031695366E1,-1.243370414E0
2.718867245E0,5.488536954E-1,1.043180943E1,-1.217049360E0
2.721346255E0,5.201398134E-1,1.051077271E1,-1.138086319E0
2.723825213E0,5.392823815E-1,1.059212875E1,-1.078265667E0
2.726303390E0,5.129613280E-1,1.064985561E1,-1.001695395E0
2.728781567E0,5.392823815E-1,1.067617607E1,-9.849455953E-1
2.731260578E0,5.416752100E-1,1.072163963E1,-9.203394055E-1
2.733739536E0,5.943173170E-1,1.071206856E1,-8.557332158E-1
2.736217713E0,6.493522525E-1,1.070728302E1,-8.126623631E-1
2.738695838E0,7.067800164E-1,1.069531918E1,-7.597211599E-1
2.741174849E0,7.737790346E-1,1.066899776E1,-7.405785918E-1
2.743653807E0,8.650053740E-1,1.062323570E1,-7.238288522E-1
2.746131984E0,9.511470199E-1,1.058495045E1,-6.903293133E-1
2.748610161E0,1.046859860E0,1.050598717E1,-6.783652306E-1
2.751089172E0,1.135394335E0,1.045813084E1,-6.568298340E-1
2.753568130E0,1.240678549E0,1.041745281E1,-6.209374666E-1
2.756046307E0,1.365404367E0,1.034806061E1,-5.946164131E-1
2.758524484E0,1.446760416E0,1.030020428E1,-5.347958803E-1
2.761003495E0,1.566401482E0,1.026670456E1,-4.582255483E-1
2.763482453E0,1.674078584E0,1.025952625E1,-3.840480447E-1
2.765960578E0,1.800898194E0,1.025474072E1,-3.314059377E-1
2.768438755E0,1.928016901E0,1.023559761E1,-2.500499785E-1
2.770917765E0,2.059622049E0,1.023559761E1,-1.779661775E-1
2.773396724E0,2.196012974E0,1.028345394E1,-1.085743308E-1
2.775874901E0,2.320439816E0,1.031456089E1,-3.290131222E-3
2.778353026E0,2.478366137E0,1.035763168E1,6.849455088E-2
2.780832036E0,2.653341293E0,1.040309525E1,1.378864050E-1
2.783311047E0,2.839981318E0,1.046770191E1,1.953141540E-1
2.785789172E0,3.005086184E0,1.050120163E1,2.527419031E-1
2.788267349E0,3.163311481E0,1.053709316E1,3.631108403E-1
2.790746359E0,3.314059258E0,1.056341457E1,4.013960063E-1
2.793225317E0,3.498306751E0,1.060169983E1,4.109672904E-1
2.795703495E0,3.637389421E0,1.059930706E1,4.205385745E-1
2.798181672E0,3.790530205E0,1.057777119E1,4.420739710E-1
2.800660682E0,3.926921129E0,1.056341457E1,4.181457460E-1
2.803139640E0,4.075275898E0,1.054666519E1,4.109672904E-1
2.805617765E0,4.159024715E0,1.049402237E1,3.870390654E-1
2.808095942E0,4.269393921E0,1.044377327E1,3.511467278E-1
2.810574953E0,4.345963955E0,1.039591694E1,3.149552941E-1
2.813053911E0,4.427320004E0,1.036959648E1,2.694916427E-1
2.815532088E0,4.506283283E0,1.032413197E1,2.312064916E-1
2.818010265E0,4.551746845E0,1.031934643E1,1.977069676E-1
2.820489276E0,4.590032101E0,1.026191902E1,1.378864050E-1
2.822968234E0,4.621138573E0,1.023559761E1,1.331007630E-1
2.825446359E0,4.635495663E0,1.023559761E1,1.067797095E-1
2.827924536E0,4.676173687E0,1.025474072E1,6.849455088E-2
2.830403547E0,4.649852753E0,1.026670456E1,3.888336709E-3
2.832882505E0,4.645066738E0,1.026909733E1,-1.525424421E-2
2.835360682E0,4.645066738E0,1.029781151E1,-2.961117961E-2
2.837838859E0,4.616353035E0,1.031456089E1,-7.028916478E-2
2.840317870E0,4.570889473E0,1.032891846E1,-7.268198580E-2
2.842796828E0,4.513461590E0,1.035763168E1,-1.277169138E-1
2.845274953E0,4.429712772E0,1.036480999E1,-1.779661775E-1
2.847753130E0,4.343571186E0,1.041745281E1,-2.285145670E-1
2.850232140E0,4.243072987E0,1.045334530E1,-3.122633696E-1
2.852711099E0,4.080061913E0,1.049162960E1,-3.696911037E-1
2.855189276E0,3.907778502E0,1.049641609E1,-4.295116663E-1
2.857667453E0,3.737888098E0,1.052991486E1,-5.108676553E-1
2.860146463E0,3.522234917E0,1.055862904E1,-6.113662124E-1
2.862625422E0,3.318845034E0,1.060409260E1,-6.855437160E-1
2.865103599E0,3.081955671E0,1.060648537E1,-7.645068169E-1
2.867581724E0,2.828017235E0,1.063071251E1,-8.413762450E-1
2.870060734E0,2.576770782E0,1.064507008E1,-9.346963167E-1
2.872539692E0,2.291725874E0,1.067139053E1,-1.011266708E0
2.875017870E0,2.071586132E0,1.068096161E1,-1.111765265E0
2.877496047E0,1.791326880E0,1.066181946E1,-1.185942769E0
2.879975057E0,1.535294771E0,1.064746284E1,-1.260120273E0
2.882454015E0,1.290927768E0,1.064985561E1,-1.339083314E0
2.884932192E0,1.046859860E0,1.061844921E1,-1.420738459E0
2.887410317E0,8.291130662E-1,1.060887814E1,-1.518844128E0
2.889889328E0,6.373881102E-1,1.060409260E1,-1.604985833E0
2.892368286E0,4.483551383E-1,1.057059288E1,-1.674377680E0
2.894846463E0,2.880360186E-1,1.055862904E1,-1.741376638E0
2.897324640E0,1.322034448E-1,1.054666519E1,-1.822732687E0
2.899803651E0,4.606183618E-2,1.052273655E1,-1.882553220E0
2.902282609E0,-7.836493850E-2,1.051795101E1,-1.935494423E0
2.904760786E0,-1.429711580E-1,1.049162960E1,-1.964208245E0
2.907238911E0,-1.932204217E-1,1.048205853E1,-1.985743642E0
2.909717922E0,-2.195414752E-1,1.047966576E1,-1.949851394E0
2.912196932E0,-2.219343036E-1,1.044855881E1,-1.935494423E0
2.914675057E0,-2.003988922E-1,1.040548801E1,-1.884945989E0
2.917153234E0,-1.764706671E-1,1.039591694E1,-1.808375716E0
2.919632245E0,-1.142572835E-1,1.035284615E1,-1.743769526E0
2.922111203E0,-5.922235921E-2,1.032891846E1,-1.700698733E0
2.924589380E0,3.649054468E-2,1.029063320E1,-1.621735573E0
2.927067505E0,1.226321608E-1,1.024516964E1,-1.547558069E0
2.929546515E0,1.920240223E-1,1.018774128E1,-1.502094388E0
2.932025526E0,2.712862790E-1,1.013988495E1,-1.442273855E0
2.934503651E0,3.358924687E-1,1.007049274E1,-1.377667665E0
2.936981828E0,3.933202326E-1,1.001755238E1,-1.264905930E0
2.939460838E0,4.220340848E-1,9.964909554E0,-1.190728426E0
2.941939797E0,5.129613280E-1,9.933803558E0,-1.078265667E0
2.944417974E0,5.273182988E-1,9.873982430E0,-9.849455953E-1
2.946896099E0,5.608177781E-1,9.854840279E0,-9.083753228E-1
2.949375109E0,5.943173170E-1,9.799804688E0,-8.102695942E-1
2.951854120E0,6.349952817E-1,9.759127617E0,-7.310073376E-1
2.954332245E0,6.589235067E-1,9.730413437E0,-6.161518097E-1
2.956810422E0,7.115656137E-1,9.708877563E0,-5.563312769E-1
2.959289432E0,7.378866673E-1,9.696913719E0,-4.654040039E-1
2.961768390E0,7.737790346E-1,9.680164337E0,-3.912265003E-1
2.964246567E0,8.530412912E-1,9.684949875E0,-3.242274821E-1
2.966724745E0,8.961120844E-1,9.699306488E0,-2.189432681E-1
2.969203755E0,9.750752449E-1,9.744770050E0,-1.827518344E-1
2.971682713E0,1.049252748E0,9.806983948E0,-1.085743308E-1
2.974160838E0,1.154536963E0,9.842875481E0,-6.071787328E-2
2.976639015E0,1.259821177E0,9.876375198E0,-1.286142133E-2
2.979118026E0,1.353141189E0,9.943374634E0,3.260220960E-2
2.981596984E0,1.444367528E0,1.000798035E1,4.695914313E-2
2.984075161E0,1.568794370E0,1.002951622E1,7.088737190E-2
2.986553338E0,1.683649778E0,1.006570721E1,9.481559694E-2
2.989032349E0,1.767398596E0,1.009920692E1,1.211366430E-1
2.991511307E0,1.882254124E0,1.013988495E1,1.594218016E-1
2.993989432E0,1.973480463E0,1.017577744E1,1.761715710E-1
2.996467609E0,2.073979139E0,1.021166992E1,1.881356835E-1
2.998946620E0,2.169692039E0,1.024516964E1,2.288136631E-1
3.001425578E0,2.248655081E0,1.032173920E1,2.479562461E-1
3.003903755E0,2.337189436E0,1.038156033E1,3.149552941E-1
3.006381932E0,2.408974171E0,1.043659496E1,3.559323549E-1
3.008860942E0,2.478366137E0,1.051077271E1,3.798605800E-1
3.011339901E0,2.560021162E0,1.059452152E1,4.253242314E-1
3.013818026E0,2.624627352E0,1.065224838E1,4.731806815E-1
3.016296203E0,2.674876690E0,1.072403336E1,5.090730190E-1
3.018775213E0,2.741875648E0,1.079821014E1,5.282155871E-1
3.021254172E0,2.799303293E0,1.083170986E1,5.377869010E-1
3.023732349E0,2.854338408E0,1.085563850E1,5.880361795E-1
3.026210526E0,2.914158821E0,1.089153004E1,6.071787477E-1
3.028689536E0,2.969193697E0,1.091306591E1,6.071787477E-1
3.031168495E0,2.985943556E0,1.090828037E1,6.095715761E-1
3.033646672E0,3.040978432E0,1.090588760E1,5.808576941E-1
3.036124797E0,3.125026464E0,1.087238789E1,5.569294691E-1
3.038603807E0,3.156133175E0,1.082213879E1,5.306084156E-1
3.041082765E0,3.213560820E0,1.077188969E1,5.090730190E-1
3.043560942E0,3.242274761E0,1.074078274E1,4.971089065E-1
3.046039120E0,3.297309637E0,1.070010471E1,4.325026870E-1
3.048518130E0,3.359523058E0,1.067139053E1,3.990031779E-1
3.050997088E0,3.390629768E0,1.060887814E1,3.269194067E-1
3.053475265E0,3.450450182E0,1.056580734E1,2.694916427E-1
3.055953390E0,3.491128206E0,1.053470039E1,2.240280211E-1
3.058432401E0,3.543770313E0,1.048684406E1,1.450648755E-1
3.060911411E0,3.611068487E0,1.048205853E1,1.259222925E-1
3.063389536E0,3.649353743E0,1.044855881E1,4.456632212E-2
3.065867713E0,3.711566925E0,1.043420219E1,-2.961117961E-2
3.068346724E0,3.766602039E0,1.039352417E1,-6.311069429E-2
3.070825682E0,3.809672832E0,1.037916756E1,-1.468594968E-1
3.073303859E0,3.874279022E0,1.035523891E1,-2.285145670E-1
3.075781984E0,3.898207188E0,1.031456089E1,-2.835494876E-1
3.078260995E0,3.914957047E0,1.029541874E1,-3.553341627E-1
3.080740005E0,3.948456526E0,1.030977535E1,-3.888336718E-1
3.083218130E0,3.986741543E0,1.029781151E1,-4.295116663E-1
3.085696307E0,3.998705626E0,1.031934643E1,-5.084748268E-1
3.088175317E0,3.969991922E0,1.033609676E1,-5.276173949E-1
3.090654276E0,3.938885212E0,1.034566784E1,-5.443671346E-1
3.093132453E0,3.902992725E0,1.036241722E1,-5.850451589E-1
3.095610630E0,3.831208229E0,1.038873863E1,-6.137589812E-1
3.098089640E0,3.759423494E0,1.039352417E1,-6.400800347E-1
3.100568599E0,3.658924818E0,1.041506004E1,-6.735795736E-1
3.103046724E0,3.517449379E0,1.040788078E1,-6.879364848E-1
3.105524901E0,3.390629768E0,1.039830971E1,-7.142575383E-1
3.108003911E0,3.254238844E0,1.042702389E1,-7.887341380E-1
3.110482870E0,3.067598581E0,1.043898773E1,-8.389834166E-1
3.112961047E0,2.899801970E0,1.045095158E1,-8.653044701E-1
3.115439224E0,2.705983400E0,1.045095158E1,-9.346963167E-1
3.117918234E0,2.488236427E0,1.045573807E1,-1.025623560E0
3.120397192E0,2.277369022E0,1.047248745E1,-1.078265667E0
3.122875317E0,2.102692842E0,1.044855881E1,-1.138086319E0
3.125353495E0,1.896611094E0,1.045573807E1,-1.171585798E0
3.127832505E0,1.712363720E0,1.045813084E1,-1.233799219E0
3.130311463E0,1.532902002E0,1.044855881E1,-1.281655669E0
3.132789640E0,1.391725421E0,1.041266727E1,-1.334297776E0
3.135267817E0,1.240678549E0,1.040548801E1,-1.375274777E0
3.137746828E0,1.135394335E0,1.038634586E1,-1.420738459E0
3.140225786E0,1.022931695E0,1.036241722E1,-1.463809252E0
3.142703911E0,9.128618240E-1,1.031695366E1,-1.514058471E0
3.145182088E0,8.315058947E-1,1.028584766E1,-1.557129383E0
3.147661099E0,7.594220638E-1,1.021645546E1,-1.602592945E0
3.150140057E0,6.661019921E-1,1.017099190E1,-1.631306887E0
3.152618234E0,6.421737671E-1,1.014706326E1,-1.645663738E0
3.155096411E0,5.967101455E-1,1.012074280E1,-1.636092424E0
3.157575422E0,5.871388316E-1,1.008724308E1,-1.616949916E0
3.160054380E0,5.895316601E-1,1.007767200E1,-1.609771490E0
3.162532557E0,5.632106066E-1,1.005823040E1,-1.549950838E0
3.165010682E0,6.014958024E-1,1.004387283E1,-1.502094388E0
3.167489692E0,6.206383705E-1,1.000558758E1,-1.461416483E0
3.169968651E0,6.421737671E-1,9.988838196E0,-1.415952802E0
3.172446828E0,6.493522525E-1,9.962516785E0,-1.348953724E0
3.174925005E0,6.756733060E-1,9.933803558E0,-1.288834095E0
3.177404015E0,6.924230456E-1,9.924231529E0,-1.212263823E0
3.179882974E0,7.115656137E-1,9.914660454E0,-1.133300662E0
3.182361151E0,7.450651526E-1,9.914660454E0,-1.073480010E0
3.184839276E0,7.570292354E-1,9.917053223E0,-1.011266708E0
3.187318286E0,7.689933777E-1,9.921838760E0,-9.586246014E-1
3.189797245E0,7.953144312E-1,9.931410789E0,-8.892326951E-1
3.192275422E0,8.123632669E-1,9.926624298E0,-8.102695942E-1
3.194753599E0,8.219345808E-1,9.957731247E0,-7.692924738E-1
3.197232609E0,8.434699774E-1,9.984052658E0,-7.238288522E-1
3.199711567E0,8.578268886E-1,1.001515961E1,-6.999006271E-1
3.202189745E0,8.626125455E-1,1.005344391E1,-6.783652306E-1
3.204667870E0,8.650053740E-1,1.008006477E1,-6.640082598E-1
3.207146880E0,8.841479421E-1,1.010399246E1,-6.687939167E-1
3.209625890E0,8.913264275E-1,1.014467049E1,-6.592226624E-1
3.212104015E0,9.367900491E-1,1.018774128E1,-6.520441771E-1
3.214582192E0,9.439685345E-1,1.021884823E1,-6.640082598E-1
3.217061203E0,9.631111026E-1,1.024995518E1,-6.472585201E-1
3.219540161E0,9.990034699E-1,1.026670456E1,-6.592226624E-1
3.222018338E0,1.034895778E0,1.028824043E1,-6.568298340E-1
3.224496515E0,1.063609719E0,1.030498981E1,-6.568298340E-1
3.226975526E0,1.101894855E0,1.032413197E1,-6.257231236E-1
3.229454484E0,1.144965649E0,1.035284615E1,-5.946164131E-1
3.231932609E0,1.200000525E0,1.041266727E1,-5.754738450E-1
3.234410786E0,1.245464206E0,1.045334530E1,-5.587241054E-1
3.236889797E0,1.329213023E0,1.047727299E1,-5.252245665E-1
3.239368755E0,1.386939883E0,1.050598717E1,-5.084748268E-1
3.241846932E0,1.453938842E0,1.053948689E1,-4.725824594E-1
3.244325109E0,1.516152263E0,1.057298565E1,-4.366901219E-1
3.246804120E0,1.609472275E0,1.057059288E1,-3.744767308E-1
3.249283078E0,1.705185294E0,1.055623627E1,-3.529413342E-1
3.251761203E0,1.786541224E0,1.051795101E1,-3.098705411E-1
3.254239380E0,1.853540182E0,1.050359440E1,-2.428714931E-1
3.256718390E0,1.935195327E0,1.048684406E1,-1.851446480E-1
3.259197349E0,2.009372711E0,1.045573807E1,-1.468594968E-1
3.261675526E0,2.097907305E0,1.044377327E1,-1.109671518E-1
3.264153703E0,2.150549412E0,1.042702389E1,-3.200400248E-2
3.266632713E0,2.227119684E0,1.043180943E1,3.499503061E-2
3.269111672E0,2.272583246E0,1.043180943E1,8.524430543E-2
3.271589797E0,2.322832584E0,1.041266727E1,1.426720470E-1
3.274067974E0,2.375474691E0,1.040070248E1,1.881356835E-1
3.276546984E0,2.430509567E0,1.040309525E1,2.455634177E-1
3.279025942E0,2.483450890E0,1.037438202E1,2.886342406E-1
3.281504120E0,2.519343138E0,1.037438202E1,2.886342406E-1
3.283982297E0,2.557628393E0,1.035045338E1,3.317050338E-1
3.286461307E0,2.591127872E0,1.035523891E1,3.583251834E-1
3.288940265E0,2.624627352E0,1.036241722E1,3.559323549E-1
3.291418442E0,2.674876690E0,1.036720276E1,3.535395563E-1
3.293896567E0,2.701197624E0,1.035045338E1,3.221337497E-1
3.296375578E0,2.727518797E0,1.036002445E1,3.077768087E-1
3.298854536E0,2.763411045E0,1.034806061E1,2.766701281E-1
3.301332713E0,2.808874607E0,1.036002445E1,2.383849621E-1
3.303810890E0,2.825624466E0,1.033370399E1,1.905284971E-1
3.306289901E0,2.863909483E0,1.033131123E1,1.522433460E-1
3.308768859E0,2.906980515E0,1.029302597E1,1.115653589E-1
3.311247036E0,2.945265532E0,1.026670456E1,6.131608039E-2
3.313725161E0,2.985943556E0,1.025952625E1,1.106680464E-2
3.316204172E0,3.036192894E0,1.024038315E1,-3.439682722E-2
3.318683130E0,3.103491068E0,1.023559761E1,-6.550352275E-2
3.321161307E0,3.170490026E0,1.024995518E1,-1.013958603E-1
3.323639484E0,3.220739365E0,1.028584766E1,-1.181456149E-1
3.326118495E0,3.268595695E0,1.028106117E1,-1.564307809E-1
3.328597453E0,3.342773199E0,1.029541874E1,-1.995015889E-1
3.331075630E0,3.409772158E0,1.032652569E1,-2.138585299E-1
3.333553755E0,3.457628727E0,1.033609676E1,-2.261217386E-1
3.336032765E0,3.483949661E0,1.034566784E1,-2.476571500E-1
3.338511724E0,3.519842148E0,1.035523891E1,-2.476571500E-1
3.340989901E0,3.558127165E0,1.035284615E1,-2.644068897E-1
3.343468078E0,3.560520172E0,1.036959648E1,-2.572284341E-1
3.345947088E0,3.536591768E0,1.035763168E1,-2.715853751E-1
3.348426047E0,3.512663603E0,1.038873863E1,-2.955136001E-1
3.350904224E0,3.474378586E0,1.038873863E1,-3.002992272E-1
3.353382349E0,3.407379389E0,1.040548801E1,-3.122633696E-1
3.355861359E0,3.335594654E0,1.041984558E1,-3.433700502E-1
3.358340370E0,3.237488985E0,1.045095158E1,-3.601198196E-1
3.360818495E0,3.125026464E0,1.045334530E1,-3.912265003E-1
3.363296672E0,3.024228811E0,1.048684406E1,-4.103690982E-1
3.365775682E0,2.921337366E0,1.053230762E1,-4.558327198E-1
3.368254640E0,2.794517756E0,1.057537842E1,-4.725824594E-1
3.370732817E0,2.691626310E0,1.062084198E1,-5.324030519E-1
3.373210995E0,2.591127872E0,1.068335533E1,-5.874379873E-1
3.375690005E0,2.475973129E0,1.070010471E1,-6.281159520E-1
3.378168963E0,2.334796667E0,1.070249748E1,-6.927221417E-1
3.380647088E0,2.239083767E0,1.068814087E1,-7.429714203E-1
3.383125265E0,2.095514536E0,1.067856884E1,-8.078767657E-1
3.385604276E0,1.949552298E0,1.065224838E1,-8.820542693E-1
3.388083234E0,1.839183331E0,1.062562847E1,-9.394819736E-1
3.390561411E0,1.721935034E0,1.060887814E1,-9.849455953E-1
3.393039588E0,1.619043589E0,1.058255768E1,-1.063908815E0
3.395518599E0,1.504188180E0,1.055384350E1,-1.123729348E0
3.397997557E0,1.425225019E0,1.054666519E1,-1.164407372E0
3.400475682E0,1.343569875E0,1.050837994E1,-1.205085278E0
3.402953859E0,1.257428288E0,1.047727299E1,-1.255334616E0
3.405432870E0,1.200000525E0,1.045095158E1,-1.250548959E0
3.407911828E0,1.133001566E0,1.040070248E1,-1.269691467E0
3.410390005E0,1.111466169E0,1.037677479E1,-1.255334616E0
3.412868182E0,1.080359459E0,1.032652569E1,-1.243370414E0
3.415347192E0,1.044467092E0,1.029063320E1,-1.221835017E0
3.417826151E0,1.051645517E0,1.026670456E1,-1.212263823E0
3.420304328E0,1.030110121E0,1.026191902E1,-1.185942769E0
3.422782453E0,9.942178130E-1,1.020449162E1,-1.123729348E0
3.425261463E0,9.726824164E-1,1.019970608E1,-1.095015407E0
3.427740474E0,9.439685345E-1,1.019970608E1,-1.075872898E0
3.430218599E0,9.128618240E-1,1.020449162E1,-1.020837903E0
3.432696776E0,8.793623447E-1,1.019252682E1,-9.705886841E-1
3.435175786E0,8.386843204E-1,1.017577744E1,-9.059824944E-1
3.437654745E0,8.291130662E-1,1.015663528E1,-8.509475589E-1
3.440132922E0,7.737790346E-1,1.016859913E1,-8.126623631E-1
3.442611047E0,7.761718631E-1,1.017338467E1,-7.597211599E-1
3.445090057E0,7.498508096E-1,1.016859913E1,-7.142575383E-1
3.447569067E0,7.259225845E-1,1.019013405E1,-6.783652306E-1
3.450047192E0,6.900302172E-1,1.022124100E1,-6.568298340E-1
3.452525370E0,6.637091637E-1,1.020927715E1,-6.209374666E-1
3.455004380E0,6.278168559E-1,1.022602654E1,-6.185446382E-1
3.457483338E0,5.751747489E-1,1.025474072E1,-5.874379873E-1
3.459961515E0,5.488536954E-1,1.027866840E1,-5.659025311E-1
3.462439640E0,4.962115884E-1,1.030020428E1,-5.611169338E-1
3.464918651E0,4.603192508E-1,1.033609676E1,-5.563312769E-1
3.467397661E0,4.196412563E-1,1.037198925E1,-5.898307562E-1
3.469875786E0,3.957130313E-1,1.040070248E1,-5.946164131E-1
3.472353963E0,3.646063507E-1,1.043659496E1,-6.017948985E-1
3.474832974E0,3.239283562E-1,1.041745281E1,-6.520441771E-1
3.477311932E0,3.311068416E-1,1.043659496E1,-6.544370055E-1
3.479790109E0,3.167499006E-1,1.042941666E1,-6.975077987E-1
3.482268286E0,3.287140131E-1,1.042941666E1,-7.238288522E-1
3.484747297E0,3.717848063E-1,1.044138050E1,-7.357929349E-1
3.487226255E0,4.172484577E-1,1.046291637E1,-7.453642488E-1
3.489704380E0,5.033900738E-1,1.049402237E1,-7.788637877E-1
3.492182557E0,5.751747489E-1,1.051795101E1,-7.935197949E-1
3.494661567E0,6.445665956E-1,1.054427242E1,-7.911269665E-1
3.497140526E0,7.426723242E-1,1.056102180E1,-7.788637877E-1
3.499618703E0,8.865407705E-1,1.055862904E1,-7.764709592E-1
3.502096880E0,1.006181955E0,1.053948689E1,-7.262216806E-1
3.504575890E0,1.140179992E0,1.054427242E1,-6.831508875E-1
3.507054849E0,1.243071318E0,1.051795101E1,-6.161518097E-1
3.509532974E0,1.394118309E0,1.052034378E1,-5.587241054E-1
3.512011151E0,1.537687659E0,1.050120163E1,-4.797609448E-1
3.514490161E0,1.657328725E0,1.048684406E1,-3.768695593E-1
3.516969120E0,1.812862277E0,1.046770191E1,-2.787638307E-1
3.519447297E0,1.928016901E0,1.046291637E1,-1.707877219E-1
3.521925474E0,2.081157446E0,1.044616604E1,-8.225327730E-2
3.524404484E0,2.186441660E0,1.045813084E1,2.063809521E-2
3.526883442E0,2.306082726E0,1.044855881E1,1.163510010E-1
3.529361620E0,2.416152716E0,1.046291637E1,1.785643846E-1
3.531839745E0,2.524128675E0,1.046770191E1,2.599203587E-1
3.534318755E0,2.643769979E0,1.047727299E1,2.982055247E-1
3.536797713E0,2.727518797E0,1.046052361E1,3.535395563E-1
3.539275890E0,2.806481838E0,1.044138050E1,3.918247223E-1
3.541754067E0,2.883052111E0,1.041027355E1,4.348955154E-1
3.544233078E0,2.923730135E0,1.041027355E1,4.588237405E-1
3.546712036E0,2.964408159E0,1.039352417E1,4.636093974E-1
3.549190213E0,3.012264490E0,1.038395309E1,4.564309120E-1
3.551668338E0,3.036192894E0,1.039113140E1,4.444667995E-1
3.554147349E0,3.079562664E0,1.036720276E1,3.822534084E-1
3.556626307E0,3.108276606E0,1.036241722E1,3.412763178E-1
3.559104484E0,3.127419233E0,1.036002445E1,3.029911816E-1
3.561582661E0,3.170490026E0,1.036959648E1,2.407777756E-1
3.564061672E0,3.203989506E0,1.036241722E1,1.857428551E-1
3.566540630E0,3.211168051E0,1.032173920E1,8.763712645E-2
3.569018807E0,3.297309637E0,1.030498981E1,5.892325938E-2
3.571496984E0,3.345165968E0,1.027149010E1,8.673981763E-3
3.573975995E0,3.373879910E0,1.022363377E1,-5.593222752E-2
3.576454953E0,3.414557934E0,1.014945602E1,-8.225327730E-2
3.578933078E0,3.460021496E0,1.014467049E1,-1.229312643E-1
3.581411255E0,3.500699520E0,1.011595726E1,-1.516451389E-1
3.583890265E0,3.527020693E0,1.011117077E1,-1.995015889E-1
3.586369224E0,3.577269793E0,1.010399246E1,-2.356930375E-1
3.588847401E0,3.620639801E0,1.009442139E1,-2.500499785E-1
3.591325578E0,3.680460215E0,1.011595726E1,-2.739782035E-1
3.593804588E0,3.718745470E0,1.010638523E1,-3.098705411E-1
3.596283547E0,3.735495329E0,1.012792110E1,-3.218346536E-1
3.598761672E0,3.749852180E0,1.013031387E1,-3.577269912E-1
3.601239849E0,3.749852180E0,1.013749218E1,-3.744767308E-1
3.603718859E0,3.723531246E0,1.011835003E1,-3.888336718E-1
3.606197817E0,3.682853222E0,1.014706326E1,-3.840480447E-1
3.608675995E0,3.579662561E0,1.013509941E1,-3.936193287E-1
3.611154172E0,3.505485058E0,1.015184879E1,-3.577269912E-1
3.613633182E0,3.414557934E0,1.012552834E1,-3.577269912E-1
3.616112140E0,3.311666489E0,1.016620636E1,-3.577269912E-1
3.618590265E0,3.192025423E0,1.015184879E1,-3.649054468E-1
3.621068442E0,3.050848961E0,1.017817020E1,-3.816552162E-1
3.623547453E0,2.921337366E0,1.018774128E1,-4.127618968E-1
3.626026411E0,2.763411045E0,1.022124100E1,-4.271188378E-1
3.628504588E0,2.607877493E0,1.023320484E1,-4.630111754E-1
3.630982765E0,2.437688112E0,1.023799038E1,-5.180460811E-1
3.633461776E0,2.222334146E0,1.025234795E1,-5.515456200E-1
3.635940734E0,2.071586132E0,1.026670456E1,-6.137589812E-1
3.638418859E0,1.882254124E0,1.027866840E1,-6.616154313E-1
3.640897036E0,1.714756489E0,1.029063320E1,-6.807580590E-1
3.643376047E0,1.547258973E0,1.033848953E1,-7.621139884E-1
3.645855005E0,1.398903966E0,1.035763168E1,-8.605188727E-1
3.648333182E0,1.274178028E0,1.039352417E1,-9.035896659E-1
3.650811359E0,1.142572761E0,1.041506004E1,-9.825528264E-1
3.653290370E0,1.015753269E0,1.041506004E1,-1.068694472E0
3.655769328E0,9.248259664E-1,1.040070248E1,-1.116550922E0
3.658247505E0,8.338986635E-1,1.037438202E1,-1.178764224E0
3.660725630E0,7.642077208E-1,1.035045338E1,-1.238584876E0
3.663204640E0,7.259225845E-1,1.034806061E1,-1.276870012E0
3.665683651E0,7.139584422E-1,1.031934643E1,-1.276870012E0
3.668161776E0,6.996015310E-1,1.026670456E1,-1.300798178E0
3.670639953E0,7.259225845E-1,1.026431179E1,-1.264905930E0
3.673118963E0,7.426723242E-1,1.023081207E1,-1.269691467E0
3.675597922E0,7.642077208E-1,1.022841930E1,-1.217049360E0
3.678076099E0,8.123632669E-1,1.020449162E1,-1.202692509E0
3.680554276E0,8.482556343E-1,1.019491959E1,-1.159621716E0
3.683033234E0,9.128618240E-1,1.022124100E1,-1.102193952E0
3.685512192E0,9.774680734E-1,1.024756241E1,-1.035194874E0
3.687990370E0,1.039681435E0,1.025474072E1,-9.945169091E-1
3.690468547E0,1.085145116E0,1.027149010E1,-9.442676306E-1
3.692947557E0,1.161715388E0,1.027149010E1,-8.772686124E-1
3.695426515E0,1.209571838E0,1.027866840E1,-8.126623631E-1
3.697904692E0,1.259821177E0,1.026670456E1,-7.597211599E-1
3.700382870E0,1.319641709E0,1.028584766E1,-6.879364848E-1
3.702861880E0,1.329213023E0,1.028106117E1,-6.352944374E-1
3.705340838E0,1.377368569E0,1.031216812E1,-5.730810165E-1
3.707818963E0,1.418046474E0,1.033131123E1,-5.300102234E-1
3.710297140E0,1.465902925E0,1.034327507E1,-4.582255483E-1
3.712776151E0,1.473081470E0,1.039113140E1,-4.414757788E-1
3.715255109E0,1.516152263E0,1.041027355E1,-3.864408433E-1
3.717733286E0,1.552044630E0,1.042702389E1,-3.936193287E-1
3.720211463E0,1.597508192E0,1.044138050E1,-4.031906128E-1
3.722690474E0,1.647757530E0,1.047009468E1,-3.912265003E-1
3.725169432E0,1.678864241E0,1.048684406E1,-4.127618968E-1
3.727647557E0,1.698006749E0,1.051795101E1,-4.031906128E-1
3.730125734E0,1.721935034E0,1.054427242E1,-4.558327198E-1
3.732604745E0,1.760220170E0,1.055384350E1,-4.606183469E-1
3.735083703E0,1.812862277E0,1.058016396E1,-4.749752879E-1
3.737561880E0,1.846361756E0,1.060409260E1,-4.965106845E-1
3.740040057E0,1.858325839E0,1.062323570E1,-5.228317380E-1
3.742519067E0,1.889432549E0,1.064267731E1,-5.252245665E-1
3.744998026E0,1.894218206E0,1.063549805E1,-5.371887088E-1
3.747476151E0,1.906182289E0,1.063549805E1,-5.371887088E-1
3.749954328E0,1.939980984E0,1.065464115E1,-5.036891699E-1
3.752433338E0,1.937588096E0,1.064028454E1,-4.845465720E-1
3.754912297E0,1.944766641E0,1.062831974E1,-4.893322289E-1
3.757390474E0,1.975873351E0,1.063071251E1,-4.677968323E-1
3.759868651E0,1.966302037E0,1.062084198E1,-4.223332107E-1
3.762347661E0,1.983051777E0,1.061127090E1,-3.864408433E-1
3.764826620E0,1.971087694E0,1.057059288E1,-3.314059377E-1
3.767304797E0,2.004587173E0,1.057298565E1,-2.979064286E-1
3.769782922E0,2.002194405E0,1.053470039E1,-2.739782035E-1
3.772261932E0,1.999801517E0,1.051316547E1,-2.739782035E-1
3.774740890E0,2.021337032E0,1.051555824E1,-2.285145670E-1
3.777219067E0,2.018944025E0,1.049402237E1,-2.138585299E-1
3.779697245E0,2.040479422E0,1.046530914E1,-2.404786795E-1
3.782176255E0,2.042872429E0,1.046770191E1,-2.189432681E-1
3.784655213E0,2.035693884E0,1.042702389E1,-2.042872310E-1
3.787133390E0,2.045265198E0,1.039591694E1,-2.189432681E-1
3.789611515E0,2.066800594E0,1.038395309E1,-2.356930375E-1
3.792090526E0,2.066800594E0,1.037438202E1,-2.380858511E-1
3.794569536E0,2.066800594E0,1.035284615E1,-2.715853751E-1
3.797047661E0,2.114656925E0,1.034327507E1,-2.763710022E-1
3.799525838E0,2.100300074E0,1.032652569E1,-2.715853751E-1
3.802004849E0,2.140978098E0,1.030498981E1,-2.907279432E-1
3.804483807E0,2.145763636E0,1.030259705E1,-3.122633696E-1
3.806961984E0,2.172084808E0,1.030020428E1,-3.290131092E-1
3.809440161E0,2.188834429E0,1.030738258E1,-3.409772217E-1
3.811919172E0,2.198405743E0,1.029781151E1,-3.409772217E-1
3.814398130E0,2.184048891E0,1.029541874E1,-3.314059377E-1
3.816876255E0,2.198405743E0,1.031456089E1,-3.337987661E-1
3.819354432E0,2.188834429E0,1.030498981E1,-3.577269912E-1
3.821833442E0,2.181656122E0,1.030498981E1,-3.385843933E-1
3.824312401E0,2.167299032E0,1.030259705E1,-3.409772217E-1
3.826790578E0,2.198405743E0,1.029781151E1,-3.768695593E-1
3.829268755E0,2.200798512E0,1.029063320E1,-3.984049559E-1
3.831747765E0,2.198405743E0,1.030498981E1,-3.936193287E-1
3.834226724E0,2.217548370E0,1.031695366E1,-3.936193287E-1
3.836704849E0,2.227119684E0,1.031934643E1,-4.031906128E-1
3.839183026E0,2.236690998E0,1.032891846E1,-4.007977843E-1
3.841662036E0,2.284547329E0,1.032652569E1,-3.936193287E-1
3.844140995E0,2.296511650E0,1.032652569E1,-3.768695593E-1
3.846619172E0,2.337189436E0,1.033370399E1,-3.601198196E-1
3.849097349E0,2.363510609E0,1.032413197E1,-3.768695593E-1
3.851576359E0,2.373081923E0,1.030977535E1,-3.649054468E-1
3.854055317E0,2.397010088E0,1.028106117E1,-3.409772217E-1
3.856533495E0,2.387438774E0,1.024995518E1,-3.074777126E-1
3.859011620E0,2.365903378E0,1.020688438E1,-3.122633696E-1
3.861490630E0,2.377867460E0,1.020209885E1,-2.979064286E-1
3.863969588E0,2.368296146E0,1.015902805E1,-3.146561682E-1
3.866447765E0,2.337189436E0,1.018534851E1,-3.122633696E-1
3.868925942E0,2.322832584E0,1.019013405E1,-3.337987661E-1
3.871404953E0,2.322832584E0,1.020209885E1,-3.457628787E-1
3.873883911E0,2.291725874E0,1.022363377E1,-3.553341627E-1
3.876362088E0,2.279761791E0,1.020927715E1,-3.601198196E-1
3.878840213E0,2.241476536E0,1.020927715E1,-3.649054468E-1
3.881319224E0,2.222334146E0,1.024038315E1,-3.816552162E-1
3.883798182E0,2.191227436E0,1.024516964E1,-3.744767308E-1
3.886276359E0,2.179263115E0,1.025234795E1,-3.984049559E-1
3.888754536E0,2.133799553E0,1.027149010E1,-3.864408433E-1
3.891233547E0,2.131406784E0,1.028106117E1,-3.936193287E-1
3.893712505E0,2.126621008E0,1.030020428E1,-4.055834413E-1
3.896190682E0,2.093121529E0,1.031216812E1,-4.103690982E-1
3.898668807E0,2.088335991E0,1.031934643E1,-4.223332107E-1
3.901147817E0,2.083550215E0,1.034327507E1,-4.486542344E-1
3.903626776E0,2.064407825E0,1.034806061E1,-4.438686073E-1
3.906104953E0,2.064407825E0,1.035763168E1,-4.534398913E-1
3.908583130E0,2.071586132E0,1.036002445E1,-4.725824594E-1
3.911062140E0,2.045265198E0,1.036002445E1,-4.606183469E-1
3.913541099E0,2.009372711E0,1.035523891E1,-4.749752879E-1
3.916019276E0,2.026122570E0,1.035045338E1,-4.821537733E-1
3.918497453E0,2.021337032E0,1.035523891E1,-5.132604837E-1
3.920976463E0,2.042872429E0,1.032413197E1,-5.228317380E-1
3.923455422E0,2.026122570E0,1.029541874E1,-5.108676553E-1
3.925933547E0,1.999801517E0,1.026909733E1,-4.965106845E-1
3.928411724E0,1.990230203E0,1.027388287E1,-4.725824594E-1
3.930890734E0,1.949552298E0,1.027388287E1,-4.797609448E-1
3.933369692E0,1.942373753E0,1.026670456E1,-4.917250574E-1
3.935847870E0,1.920838356E0,1.028106117E1,-4.941178858E-1
3.938326047E0,1.906182289E0,1.029541874E1,-5.156532526E-1
3.940805057E0,1.918146491E0,1.031934643E1,-4.821537733E-1
3.943284015E0,1.889432549E0,1.032413197E1,-4.797609448E-1
3.945762140E0,1.901396751E0,1.031695366E1,-4.893322289E-1
3.948240317E0,1.891825438E0,1.034566784E1,-4.677968323E-1
3.950719328E0,1.901396751E0,1.036959648E1,-4.414757788E-1
3.953198286E0,1.884646893E0,1.040788078E1,-4.319044948E-1
3.955676463E0,1.908575177E0,1.041745281E1,-4.127618968E-1
3.958154640E0,1.923231244E0,1.042223835E1,-4.007977843E-1
3.960633651E0,1.932802439E0,1.044138050E1,-4.055834413E-1
3.963112609E0,1.942373753E0,1.043659496E1,-3.864408433E-1
3.965590734E0,1.954337835E0,1.044377327E1,-3.649054468E-1
3.968068911E0,1.954337835E0,1.044855881E1,-3.433700502E-1
3.970547922E0,1.959123492E0,1.045095158E1,-3.385843933E-1
3.973026880E0,1.961516380E0,1.044138050E1,-3.457628787E-1
3.975505057E0,1.980658889E0,1.046052361E1,-3.337987661E-1
3.977983234E0,1.985444546E0,1.046530914E1,-3.218346536E-1
3.980462245E0,1.973480463E0,1.045095158E1,-3.290131092E-1
3.982941203E0,1.973480463E0,1.045813084E1,-3.026920557E-1
3.985419380E0,1.947159410E0,1.044855881E1,-3.266202807E-1
3.987897505E0,1.956730723E0,1.042463112E1,-3.481557071E-1
3.990376515E0,1.944766641E0,1.041266727E1,-3.385843933E-1
3.992855474E0,1.925624013E0,1.039591694E1,-3.385843933E-1
3.995333651E0,1.899003863E0,1.037677479E1,-3.649054468E-1
3.997811828E0,1.875075698E0,1.036959648E1,-3.553341627E-1
4.000290838E0,1.853540182E0,1.036720276E1,-3.625126183E-1
4.002769797E0,1.827219248E0,1.037438202E1,-3.505485058E-1
4.005247974E0,1.824826360E0,1.036241722E1,-3.529413342E-1
4.007726099E0,1.803290963E0,1.040070248E1,-3.649054468E-1
4.010205109E0,1.808076620E0,1.043659496E1,-3.840480447E-1
4.012684120E0,1.784148335E0,1.046052361E1,-3.888336718E-1
4.015162245E0,1.812862277E0,1.047727299E1,-4.103690982E-1
4.017640422E0,1.803290963E0,1.051795101E1,-4.223332107E-1
4.020119432E0,1.820040703E0,1.053230762E1,-4.414757788E-1
4.022598390E0,1.803290963E0,1.053948689E1,-4.510470629E-1
4.025076567E0,1.803290963E0,1.056341457E1,-4.151547253E-1
4.027554692E0,1.803290963E0,1.057298565E1,-4.175475538E-1
4.030033703E0,1.791326880E0,1.058016396E1,-4.486542344E-1
4.032512713E0,1.800898194E0,1.055384350E1,-4.486542344E-1
4.034990838E0,1.788933992E0,1.056102180E1,-4.414757788E-1
4.037469015E0,1.774577141E0,1.055623627E1,-4.295116663E-1
4.039948026E0,1.748256087E0,1.055145073E1,-4.271188378E-1
4.042426984E0,1.738684773E0,1.052512932E1,-3.936193287E-1
4.044905161E0,1.724327803E0,1.049880886E1,-4.055834413E-1
4.047383338E0,1.702792406E0,1.048923683E1,-4.055834413E-1
4.049862349E0,1.688435435E0,1.045573807E1,-3.649054468E-1
4.052341307E0,1.650150299E0,1.042702389E1,-3.744767308E-1
4.054819432E0,1.669292927E0,1.045095158E1,-3.744767308E-1
4.057297609E0,1.664507270E0,1.043420219E1,-3.601198196E-1
4.059776620E0,1.669292927E0,1.043420219E1,-3.505485058E-1
4.062255578E0,1.698006749E0,1.042941666E1,-3.744767308E-1
4.064733755E0,1.717149377E0,1.041745281E1,-4.055834413E-1
4.067211932E0,1.719542146E0,1.039830971E1,-4.223332107E-1
4.069690942E0,1.741077542E0,1.039352417E1,-4.103690982E-1
4.072169901E0,1.760220170E0,1.037916756E1,-4.390829504E-1
4.074648026E0,1.791326880E0,1.034806061E1,-4.342973232E-1
4.077126203E0,1.815255046E0,1.035045338E1,-4.486542344E-1
4.079605213E0,1.820040703E0,1.032173920E1,-4.630111754E-1
4.082084172E0,1.843968987E0,1.029302597E1,-4.534398913E-1
4.084562349E0,1.863111496E0,1.026909733E1,-4.654040039E-1
4.087040526E0,1.870290041E0,1.023559761E1,-4.558327198E-1
4.089519536E0,1.877468467E0,1.025713348E1,-4.319044948E-1
4.091998495E0,1.882254124E0,1.028824043E1,-4.199403822E-1
4.094476672E0,1.889432549E0,1.027388287E1,-3.984049559E-1
4.096954797E0,1.910967946E0,1.031456089E1,-4.414757788E-1
4.099433807E0,1.887039781E0,1.033609676E1,-4.295116663E-1
4.101912817E0,1.913360834E0,1.034806061E1,-4.462614357E-1
4.104390942E0,1.918146491E0,1.034088230E1,-4.271188378E-1
4.106869120E0,1.910967946E0,1.034566784E1,-4.199403822E-1
4.109348130E0,1.887039781E0,1.034327507E1,-4.366901219E-1
4.111827088E0,1.894218206E0,1.035045338E1,-4.486542344E-1
4.114305265E0,1.882254124E0,1.036959648E1,-4.677968323E-1
4.116783390E0,1.867897153E0,1.038156033E1,-4.606183469E-1
4.119262401E0,1.879861236E0,1.038634586E1,-4.582255483E-1
4.121741411E0,1.851147413E0,1.040070248E1,-4.677968323E-1
4.124219536E0,1.848754644E0,1.041027355E1,-4.725824594E-1
4.126697713E0,1.865504384E0,1.040548801E1,-4.606183469E-1
4.129176724E0,1.851147413E0,1.041745281E1,-4.749752879E-1
4.131655682E0,1.853540182E0,1.042223835E1,-4.725824594E-1
4.134133859E0,1.834397674E0,1.041506004E1,-4.749752879E-1
4.136612036E0,1.846361756E0,1.040548801E1,-4.773681164E-1
4.139091047E0,1.841576099E0,1.037677479E1,-4.893322289E-1
4.141570005E0,1.827219248E0,1.035045338E1,-5.012963414E-1
4.144048130E0,1.839183331E0,1.034088230E1,-4.845465720E-1
4.146526307E0,1.841576099E0,1.033609676E1,-5.204389095E-1
4.149005317E0,1.841576099E0,1.029541874E1,-5.156532526E-1
4.151484276E0,1.855933070E0,1.028584766E1,-5.300102234E-1
4.153962453E0,1.889432549E0,1.030498981E1,-5.252245665E-1
4.156440630E0,1.910967946E0,1.029302597E1,-5.347958803E-1
4.158919640E0,1.942373753E0,1.029781151E1,-5.515456200E-1
4.161398599E0,1.973480463E0,1.029063320E1,-5.443671346E-1
4.163876724E0,1.997408748E0,1.029063320E1,-5.611169338E-1
4.166354901E0,2.006979942E0,1.028345394E1,-5.611169338E-1
4.168833911E0,2.030908108E0,1.028824043E1,-5.443671346E-1
4.171312870E0,2.011765718E0,1.026191902E1,-5.371887088E-1
4.173791047E0,2.054836512E0,1.028106117E1,-5.324030519E-1
4.176269224E0,2.059622049E0,1.029063320E1,-5.300102234E-1
4.178748234E0,2.073979139E0,1.032891846E1,-5.060819983E-1
4.181227192E0,2.071586132E0,1.034566784E1,-5.156532526E-1
4.183705370E0,2.090728760E0,1.038634586E1,-4.917250574E-1
4.186183495E0,2.088335991E0,1.040309525E1,-4.773681164E-1
4.188662505E0,2.083550215E0,1.042223835E1,-4.677968323E-1
4.191141515E0,2.107478619E0,1.041745281E1,-4.462614357E-1
4.193619640E0,2.109871387E0,1.041984558E1,-4.510470629E-1
4.196097817E0,2.105085611E0,1.043659496E1,-4.151547253E-1
4.198576828E0,2.109871387E0,1.042941666E1,-4.079762697E-1
4.201055786E0,2.109871387E0,1.042702389E1,-3.984049559E-1
4.203533963E0,2.107478619E0,1.042223835E1,-3.816552162E-1
4.206012140E0,2.102692842E0,1.041506004E1,-3.864408433E-1
4.208491151E0,2.105085611E0,1.040788078E1,-3.960121572E-1
4.210970109E0,2.097907305E0,1.041266727E1,-4.007977843E-1
4.213448234E0,2.095514536E0,1.038634586E1,-4.342973232E-1
4.215926411E0,2.095514536E0,1.036959648E1,-4.247260094E-1
4.218405422E0,2.071586132E0,1.036002445E1,-4.462614357E-1
4.220884380E0,2.071586132E0,1.032652569E1,-4.630111754E-1
4.223362557E0,2.040479422E0,1.032413197E1,-4.701896608E-1
4.225840734E0,2.014158487E0,1.029302597E1,-5.036891699E-1
4.228319745E0,1.995015860E0,1.028345394E1,-5.084748268E-1
4.230798703E0,1.980658889E0,1.027149010E1,-5.371887088E-1
4.233276828E0,1.983051777E0,1.025952625E1,-5.970092416E-1
4.235755005E0,1.978266120E0,1.024995518E1,-6.161518097E-1
4.238234015E0,1.949552298E0,1.024995518E1,-6.472585201E-1
4.240712974E0,1.935195327E0,1.021884823E1,-6.711867452E-1
4.243191151E0,1.949552298E0,1.022124100E1,-6.903293133E-1
4.245669328E0,1.944766641E0,1.023081207E1,-7.214360237E-1
4.248148338E0,1.956730723E0,1.023081207E1,-7.214360237E-1
4.250627297E0,1.963909149E0,1.026191902E1,-7.381857634E-1
4.253105422E0,1.995015860E0,1.027866840E1,-7.597211599E-1
4.255583599E0,2.002194405E0,1.029302597E1,-7.525427341E-1
4.258062609E0,2.026122570E0,1.029063320E1,-7.477570772E-1
4.260541567E0,2.030908108E0,1.028824043E1,-7.549355626E-1
4.263019745E0,2.035693884E0,1.028584766E1,-7.501499057E-1
4.265497922E0,2.040479422E0,1.030259705E1,-7.190431952E-1
4.267976932E0,2.030908108E0,1.027149010E1,-7.094719410E-1
4.270455890E0,2.023729801E0,1.029541874E1,-7.118647099E-1
4.272934015E0,2.004587173E0,1.026670456E1,-6.759724021E-1
4.275412192E0,1.980658889E0,1.028584766E1,-6.831508875E-1
4.277891203E0,1.963909149E0,1.024038315E1,-6.879364848E-1
4.280370161E0,1.937588096E0,1.022841930E1,-6.496513486E-1
4.282848338E0,1.944766641E0,1.023320484E1,-6.592226624E-1
4.285326515E0,1.930409670E0,1.022363377E1,-6.472585201E-1
4.287805526E0,1.889432549E0,1.023799038E1,-6.185446382E-1
4.290284484E0,1.896611094E0,1.026191902E1,-6.305087805E-1
4.292762661E0,1.903789520E0,1.028345394E1,-6.448656917E-1
4.295240786E0,1.913360834E0,1.029302597E1,-6.233302951E-1
4.297719797E0,1.896611094E0,1.029541874E1,-5.994020700E-1
4.300198807E0,1.899003863E0,1.031456089E1,-6.400800347E-1
4.302676932E0,1.906182289E0,1.030259705E1,-6.209374666E-1
4.305155109E0,1.918146491E0,1.032173920E1,-6.017948985E-1
4.307634120E0,1.901396751E0,1.031216812E1,-6.065805554E-1
4.310113078E0,1.906182289E0,1.033848953E1,-6.209374666E-1
4.312591255E0,1.891825438E0,1.033131123E1,-6.209374666E-1
4.315069432E0,1.879861236E0,1.030020428E1,-5.970092416E-1
4.317548442E0,1.901396751E0,1.031216812E1,-6.017948985E-1
4.320027401E0,1.908575177E0,1.029541874E1,-5.874379873E-1
4.322505526E0,1.901396751E0,1.028824043E1,-5.826523304E-1
4.324983703E0,1.913360834E0,1.029302597E1,-5.898307562E-1
4.327462713E0,1.930409670E0,1.031216812E1,-6.017948985E-1
4.329941672E0,1.939980984E0,1.031216812E1,-6.305087805E-1
4.332419849E0,1.961516380E0,1.032891846E1,-6.544370055E-1
4.334898026E0,1.987837434E0,1.032891846E1,-6.616154313E-1
4.337377036E0,2.009372711E0,1.031216812E1,-6.783652306E-1
4.339855995E0,1.990230203E0,1.031934643E1,-6.687939167E-1
4.342334120E0,1.992623091E0,1.028824043E1,-6.831508875E-1
4.344812297E0,1.966302037E0,1.027866840E1,-6.783652306E-1
4.347291307E0,1.961516380E0,1.027627563E1,-6.879364848E-1
4.349770265E0,1.961516380E0,1.026909733E1,-6.903293133E-1
4.352248442E0,1.959123492E0,1.029063320E1,-6.759724021E-1
4.354726620E0,1.937588096E0,1.028824043E1,-6.903293133E-1
4.357205630E0,1.942373753E0,1.030977535E1,-6.831508875E-1
4.359684588E0,1.928016901E0,1.031456089E1,-6.568298340E-1
4.362162713E0,1.910967946E0,1.035045338E1,-6.640082598E-1
4.364640890E0,1.930409670E0,1.035523891E1,-6.472585201E-1
4.367119901E0,1.937588096E0,1.040070248E1,-6.544370055E-1
4.369598859E0,1.932802439E0,1.043180943E1,-6.448656917E-1
4.372077036E0,1.935195327E0,1.041745281E1,-6.376872063E-1
4.374555213E0,1.930409670E0,1.044616604E1,-6.400800347E-1
4.377034224E0,1.968694806E0,1.045813084E1,-6.281159520E-1
4.379513182E0,1.951945066E0,1.043659496E1,-6.305087805E-1
4.381991359E0,1.954337835E0,1.041027355E1,-6.161518097E-1
4.384469484E0,1.951945066E0,1.042463112E1,-6.089733839E-1
4.386948495E0,1.944766641E0,1.044138050E1,-6.041877270E-1
4.389427505E0,1.935195327E0,1.040548801E1,-5.970092416E-1
4.391905630E0,1.968694806E0,1.041027355E1,-6.089733839E-1
4.394383807E0,1.963909149E0,1.039591694E1,-5.778666735E-1
4.396862817E0,1.930409670E0,1.039830971E1,-5.946164131E-1
4.399341776E0,1.930409670E0,1.040788078E1,-5.706881881E-1
4.401819953E0,1.947159410E0,1.038873863E1,-5.587241054E-1
4.404298130E0,1.942373753E0,1.039830971E1,-5.491527915E-1
4.406777140E0,1.939980984E0,1.038156033E1,-5.611169338E-1
4.409256099E0,1.932802439E0,1.038156033E1,-5.539384484E-1
4.411734224E0,1.930409670E0,1.037438202E1,-5.491527915E-1
4.414212401E0,1.920838356E0,1.036959648E1,-5.778666735E-1
4.416691411E0,1.906182289E0,1.035523891E1,-5.826523304E-1
4.419170370E0,1.891825438E0,1.037916756E1,-6.113662124E-1
4.421648547E0,1.901396751E0,1.036241722E1,-6.209374666E-1
4.424126724E0,1.867897153E0,1.038634586E1,-6.161518097E-1
4.426605734E0,1.889432549E0,1.036959648E1,-6.472585201E-1
4.429084692E0,1.903789520E0,1.038634586E1,-6.496513486E-1
4.431562817E0,1.896611094E0,1.037198925E1,-6.711867452E-1
4.434040995E0,1.915753603E0,1.038395309E1,-6.640082598E-1
4.436520005E0,1.915753603E0,1.039352417E1,-6.568298340E-1
4.438998963E0,1.915753603E0,1.040309525E1,-6.520441771E-1
4.441477140E0,1.918146491E0,1.036720276E1,-6.568298340E-1
4.443955317E0,1.930409670E0,1.037438202E1,-6.448656917E-1
4.446434328E0,1.925624013E0,1.036720276E1,-6.520441771E-1
4.448913286E0,1.913360834E0,1.036720276E1,-6.352944374E-1
4.451391411E0,1.908575177E0,1.035763168E1,-6.329016089E-1
4.453869588E0,1.899003863E0,1.034327507E1,-6.209374666E-1
4.456348599E0,1.867897153E0,1.034327507E1,-6.113662124E-1
4.458827557E0,1.851147413E0,1.031695366E1,-6.257231236E-1
4.461305734E0,1.832004786E0,1.028106117E1,-6.137589812E-1
4.463783911E0,1.812862277E0,1.030259705E1,-6.329016089E-1
4.466262922E0,1.760220170E0,1.031216812E1,-5.922235847E-1
4.468741880E0,1.748256087E0,1.030738258E1,-6.017948985E-1
4.471220057E0,1.714756489E0,1.034566784E1,-5.754738450E-1
4.473698182E0,1.702792406E0,1.033370399E1,-5.922235847E-1
4.476177192E0,1.664507270E0,1.035045338E1,-5.754738450E-1
4.478656151E0,1.640578985E0,1.038873863E1,-5.922235847E-1
4.481134328E0,1.623829246E0,1.037916756E1,-5.970092416E-1
4.483612505E0,1.611865163E0,1.037198925E1,-6.233302951E-1
4.486091515E0,1.583151340E0,1.036959648E1,-6.305087805E-1
4.488570474E0,1.583151340E0,1.034327507E1,-6.879364848E-1
4.491048651E0,1.583151340E0,1.035284615E1,-6.664010882E-1
4.493526828E0,1.566401482E0,1.034088230E1,-6.735795736E-1
4.496005838E0,1.547258973E0,1.036241722E1,-6.711867452E-1
4.498484797E0,1.547258973E0,1.035523891E1,-6.903293133E-1
4.500962922E0,1.578365684E0,1.038395309E1,-6.903293133E-1
4.503441099E0,1.547258973E0,1.041027355E1,-7.118647099E-1
4.505920109E0,1.604686737E0,1.042941666E1,-6.975077987E-1
4.508399067E0,1.590329766E0,1.044377327E1,-7.094719410E-1
4.510877245E0,1.623829246E0,1.046770191E1,-6.855437160E-1
4.513355422E0,1.676471353E0,1.046530914E1,-6.951149702E-1
4.515834432E0,1.712363720E0,1.045813084E1,-6.735795736E-1
4.518313390E0,1.724327803E0,1.044138050E1,-6.544370055E-1
4.520791515E0,1.788933992E0,1.044377327E1,-6.329016089E-1
4.523269692E0,1.800898194E0,1.043898773E1,-6.257231236E-1
4.525748703E0,1.800898194E0,1.041506004E1,-6.089733839E-1
4.528227661E0,1.822433591E0,1.043420219E1,-5.802595019E-1
4.530705838E0,1.822433591E0,1.040788078E1,-5.946164131E-1
4.533184015E0,1.827219248E0,1.041506004E1,-5.659025311E-1
4.535663026E0,1.836790442E0,1.041027355E1,-5.611169338E-1
4.538141984E0,1.848754644E0,1.041506004E1,-5.276173949E-1
4.540620109E0,1.865504384E0,1.042223835E1,-4.989035130E-1
4.543098286E0,1.901396751E0,1.043659496E1,-4.989035130E-1
4.545577297E0,1.923231244E0,1.046052361E1,-4.845465720E-1
4.548056255E0,1.968694806E0,1.046770191E1,-4.701896608E-1
4.550534432E0,1.959123492E0,1.048684406E1,-4.510470629E-1
4.553012609E0,1.968694806E0,1.044138050E1,-4.366901219E-1
4.555491620E0,1.987837434E0,1.041027355E1,-4.247260094E-1
4.557970578E0,1.995015860E0,1.040788078E1,-4.103690982E-1
4.560448755E0,1.990230203E0,1.037198925E1,-4.175475538E-1
4.562926880E0,1.973480463E0,1.036002445E1,-4.295116663E-1
4.565405890E0,1.959123492E0,1.034088230E1,-4.366901219E-1
4.567884901E0,1.968694806E0,1.032173920E1,-4.486542344E-1
4.570363026E0,1.961516380E0,1.033609676E1,-4.534398913E-1
4.572841203E0,1.954337835E0,1.033848953E1,-4.845465720E-1
4.575320213E0,1.963909149E0,1.032173920E1,-4.941178858E-1
4.577799172E0,1.951945066E0,1.031934643E1,-5.108676553E-1
4.580277349E0,1.959123492E0,1.032652569E1,-5.419743061E-1
4.582755526E0,1.990230203E0,1.031695366E1,-5.443671346E-1
4.585234536E0,1.963909149E0,1.031456089E1,-5.635097623E-1
4.587713495E0,1.978266120E0,1.033131123E1,-5.491527915E-1
4.590191620E0,1.997408748E0,1.031456089E1,-5.300102234E-1
4.592669797E0,1.990230203E0,1.032891846E1,-5.515456200E-1
4.595148807E0,2.006979942E0,1.033848953E1,-5.156532526E-1
4.597627765E0,1.992623091E0,1.034088230E1,-5.276173949E-1
4.600105942E0,2.004587173E0,1.033370399E1,-5.180460811E-1
4.602584120E0,1.997408748E0,1.033609676E1,-5.108676553E-1
4.605063130E0,1.973480463E0,1.032652569E1,-4.869394004E-1
4.607542088E0,1.999801517E0,1.032173920E1,-4.845465720E-1
4.610020213E0,1.980658889E0,1.031456089E1,-5.060819983E-1
4.612498390E0,1.987837434E0,1.029781151E1,-5.036891699E-1
4.614977401E0,1.980658889E0,1.024995518E1,-5.156532526E-1
4.617456359E0,1.990230203E0,1.024516964E1,-5.539384484E-1
4.619934536E0,1.971087694E0,1.021884823E1,-5.539384484E-1
4.622412713E0,1.959123492E0,1.019731236E1,-5.682953596E-1
4.624891724E0,1.973480463E0,1.020209885E1,-5.778666735E-1
4.627370682E0,1.983051777E0,1.021406269E1,-5.826523304E-1
4.629848859E0,1.990230203E0,1.021645546E1,-5.994020700E-1
4.632326984E0,2.038086653E0,1.022124100E1,-6.137589812E-1
4.634805995E0,2.057229280E0,1.025234795E1,-6.400800347E-1
4.637285005E0,2.059622049E0,1.025952625E1,-6.592226624E-1
4.639763130E0,2.078764677E0,1.026431179E1,-6.616154313E-1
4.642241307E0,2.090728760E0,1.027388287E1,-6.424728632E-1
4.644720317E0,2.107478619E0,1.029063320E1,-6.424728632E-1
4.647199276E0,2.131406784E0,1.030498981E1,-6.329016089E-1
4.649677453E0,2.138585329E0,1.030738258E1,-6.017948985E-1
4.652155578E0,2.136192322E0,1.030977535E1,-5.970092416E-1
4.654634588E0,2.152942181E0,1.031216812E1,-5.826523304E-1
4.657113599E0,2.140978098E0,1.030977535E1,-5.611169338E-1
4.659591724E0,2.124228239E0,1.031456089E1,-5.682953596E-1
4.662069901E0,2.143370867E0,1.030259705E1,-5.395814776E-1
4.664548911E0,2.121835470E0,1.029063320E1,-5.300102234E-1
4.667027870E0,2.107478619E0,1.029541874E1,-5.012963414E-1
4.669506047E0,2.095514536E0,1.028106117E1,-5.060819983E-1
4.671984224E0,2.100300074E0,1.028824043E1,-4.725824594E-1
4.674463234E0,2.081157446E0,1.028584766E1,-4.773681164E-1
4.676942192E0,2.085943222E0,1.029781151E1,-4.821537733E-1
4.679420317E0,2.095514536E0,1.030498981E1,-5.012963414E-1
4.681898495E0,2.095514536E0,1.029302597E1,-5.036891699E-1
4.684377505E0,2.085943222E0,1.032173920E1,-5.108676553E-1
4.686856463E0,2.069193363E0,1.029302597E1,-5.539384484E-1
4.689334640E0,2.095514536E0,1.029541874E1,-5.659025311E-1
4.691812817E0,2.076371908E0,1.028824043E1,-5.467599630E-1
4.694291828E0,2.071586132E0,1.025713348E1,-5.611169338E-1
4.696770786E0,2.100300074E0,1.024516964E1,-5.778666735E-1
4.699248911E0,2.066800594E0,1.025234795E1,-5.826523304E-1
4.701727088E0,2.064407825E0,1.024038315E1,-5.898307562E-1
4.704206099E0,2.093121529E0,1.024756241E1,-6.065805554E-1
4.706685057E0,2.052443504E0,1.024756241E1,-6.281159520E-1
4.709163234E0,2.069193363E0,1.022363377E1,-6.329016089E-1
4.711641411E0,2.066800594E0,1.023320484E1,-6.161518097E-1
4.714120422E0,2.071586132E0,1.025713348E1,-6.233302951E-1
4.716599380E0,2.073979139E0,1.027866840E1,-6.113662124E-1
4.719077557E0,2.073979139E0,1.031216812E1,-5.994020700E-1
4.721555682E0,2.059622049E0,1.032891846E1,-6.257231236E-1
4.724034692E0,2.054836512E0,1.032891846E1,-6.257231236E-1
4.726513651E0,2.028515339E0,1.031695366E1,-6.041877270E-1
4.728991828E0,2.016551256E0,1.032652569E1,-5.994020700E-1
4.731470005E0,2.006979942E0,1.035045338E1,-5.874379873E-1
4.733949015E0,1.985444546E0,1.032891846E1,-5.515456200E-1
4.736427974E0,1.987837434E0,1.036959648E1,-5.467599630E-1
4.738906151E0,1.963909149E0,1.036480999E1,-5.180460811E-1
4.741384276E0,1.939980984E0,1.037198925E1,-5.156532526E-1
4.743863286E0,1.930409670E0,1.037916756E1,-5.156532526E-1
4.746342297E0,1.937588096E0,1.038156033E1,-4.941178858E-1
4.748820422E0,1.899003863E0,1.036241722E1,-4.558327198E-1
4.751298599E0,1.894218206E0,1.034088230E1,-4.701896608E-1
4.753777609E0,1.834397674E0,1.036002445E1,-4.558327198E-1
4.756256567E0,1.829612017E0,1.033609676E1,-4.510470629E-1
4.758734745E0,1.810469389E0,1.031934643E1,-4.486542344E-1
4.761212922E0,1.800898194E0,1.031456089E1,-4.630111754E-1
4.763691932E0,1.745863199E0,1.030259705E1,-4.749752879E-1
4.766170890E0,1.750648856E0,1.030020428E1,-4.725824594E-1
4.768649015E0,1.733899117E0,1.029541874E1,-5.012963414E-1
4.771127192E0,1.748256087E0,1.028824043E1,-5.084748268E-1
4.773606203E0,1.717149377E0,1.027388287E1,-5.467599630E-1
4.776085161E0,1.705185294E0,1.027866840E1,-5.515456200E-1
4.778563338E0,1.671685696E0,1.028106117E1,-5.659025311E-1
4.781041515E0,1.671685696E0,1.028345394E1,-5.994020700E-1
4.783520526E0,1.676471353E0,1.026909733E1,-6.041877270E-1
4.785999484E0,1.666900039E0,1.027388287E1,-6.065805554E-1
4.788477661E0,1.671685696E0,1.030977535E1,-6.281159520E-1
4.790955786E0,1.712363720E0,1.034088230E1,-6.520441771E-1
4.793434797E0,1.709970832E0,1.035523891E1,-6.544370055E-1
4.795913807E0,1.741077542E0,1.038873863E1,-6.544370055E-1
4.798391932E0,1.760220170E0,1.042941666E1,-6.544370055E-1
4.800870109E0,1.784148335E0,1.044616604E1,-6.448656917E-1
4.803349120E0,1.803290963E0,1.047009468E1,-6.137589812E-1
4.805828078E0,1.822433591E0,1.046530914E1,-5.515456200E-1
4.808306255E0,1.748256087E0,1.014706326E1,-1.827518344E-1
4.810784380E0,1.923231244E0,1.041266727E1,-2.835494876E-1
4.813263390E0,2.071586132E0,1.069053364E1,-5.730810165E-1
4.815742349E0,2.109871387E0,1.076949692E1,-7.286145091E-1
4.818220526E0,2.040479422E0,1.075035381E1,-6.496513486E-1
4.820698703E0,2.021337032E0,1.072403336E1,-5.994020700E-1
4.823177713E0,2.016551256E0,1.070728302E1,-4.725824594E-1
4.825656672E0,2.038086653E0,1.066181946E1,-4.175475538E-1
4.828134849E0,2.040479422E0,1.068096161E1,-4.031906128E-1
4.830613026E0,2.059622049E0,1.062323570E1,-3.840480447E-1
4.833092036E0,2.071586132E0,1.061127090E1,-3.529413342E-1
4.835570995E0,2.054836512E0,1.057777119E1,-3.337987661E-1
4.838049120E0,2.047657967E0,1.052991486E1,-3.218346536E-1
4.840527297E0,2.033301115E0,1.051077271E1,-3.122633696E-1
4.843006307E0,2.016551256E0,1.047248745E1,-3.194418252E-1
4.845485265E0,2.026122570E0,1.046291637E1,-3.625126183E-1
4.847963442E0,2.047657967E0,1.044616604E1,-3.936193287E-1
4.850441620E0,2.038086653E0,1.043420219E1,-3.864408433E-1
4.852920630E0,2.035693884E0,1.042463112E1,-3.960121572E-1
4.855399588E0,2.040479422E0,1.040548801E1,-4.558327198E-1
4.857877713E0,2.057229280E0,1.038395309E1,-5.036891699E-1
4.860355890E0,2.026122570E0,1.033848953E1,-5.300102234E-1
4.862834901E0,1.999801517E0,1.032173920E1,-5.682953596E-1
4.865313859E0,1.980658889E0,1.030738258E1,-5.754738450E-1
4.867792036E0,1.983051777E0,1.030020428E1,-6.137589812E-1
4.870270213E0,1.973480463E0,1.030738258E1,-6.233302951E-1
4.872749224E0,1.963909149E0,1.030498981E1,-6.616154313E-1
4.875228182E0,1.992623091E0,1.031695366E1,-6.687939167E-1
4.877706359E0,1.990230203E0,1.033848953E1,-6.999006271E-1
4.880184484E0,1.995015860E0,1.034566784E1,-7.118647099E-1
4.882663495E0,2.023729801E0,1.037438202E1,-7.238288522E-1
4.885142453E0,2.026122570E0,1.040548801E1,-7.310073376E-1
4.887620630E0,2.038086653E0,1.039352417E1,-7.286145091E-1
4.890098807E0,2.078764677E0,1.040788078E1,-7.405785918E-1
4.892577817E0,2.097907305E0,1.042941666E1,-7.190431952E-1
4.895056776E0,2.121835470E0,1.043659496E1,-7.357929349E-1
4.897534953E0,2.133799553E0,1.043659496E1,-7.214360237E-1
4.900013130E0,2.140978098E0,1.042941666E1,-6.975077987E-1
4.902492140E0,2.138585329E0,1.044855881E1,-6.783652306E-1
4.904971099E0,2.145763636E0,1.042463112E1,-6.592226624E-1
4.907449224E0,2.119442701E0,1.040788078E1,-6.544370055E-1
4.909927401E0,2.121835470E0,1.038156033E1,-6.448656917E-1
4.912406411E0,2.133799553E0,1.038873863E1,-6.520441771E-1
4.914885370E0,2.107478619E0,1.037438202E1,-6.496513486E-1
4.917363547E0,2.100300074E0,1.034327507E1,-6.640082598E-1
4.919841724E0,2.071586132E0,1.033848953E1,-6.664010882E-1
4.922320734E0,2.071586132E0,1.033370399E1,-6.640082598E-1
4.924799692E0,2.040479422E0,1.032413197E1,-6.807580590E-1
4.927277817E0,2.045265198E0,1.032173920E1,-6.807580590E-1
4.929755995E0,2.052443504E0,1.032891846E1,-6.975077987E-1
4.932235005E0,2.033301115E0,1.033370399E1,-7.094719410E-1
4.934713963E0,2.042872429E0,1.033370399E1,-7.453642488E-1
4.937192140E0,2.045265198E0,1.033131123E1,-7.334001660E-1
4.939670317E0,2.059622049E0,1.031216812E1,-7.310073376E-1
4.942149328E0,2.085943222E0,1.032413197E1,-7.597211599E-1
4.944628286E0,2.112264156E0,1.031695366E1,-7.764709592E-1
4.947106411E0,2.129014015E0,1.029302597E1,-7.887341380E-1
4.949584588E0,2.136192322E0,1.028824043E1,-8.078767657E-1
4.952063599E0,2.169692039E0,1.030020428E1,-7.959126234E-1
4.954542557E0,2.172084808E0,1.028345394E1,-7.839485407E-1
4.957020734E0,2.181656122E0,1.027388287E1,-7.887341380E-1
4.959498911E0,2.179263115E0,1.029541874E1,-7.525427341E-1
4.961977922E0,2.207977057E0,1.029541874E1,-7.381857634E-1
4.964456880E0,2.205584288E0,1.031695366E1,-7.166503668E-1
4.966935057E0,2.243869543E0,1.030977535E1,-7.166503668E-1
4.969413234E0,2.236690998E0,1.031695366E1,-7.094719410E-1
4.971892245E0,2.248655081E0,1.031934643E1,-6.927221417E-1
4.974371203E0,2.248655081E0,1.030498981E1,-6.999006271E-1
4.976849328E0,2.253440619E0,1.027627563E1,-6.711867452E-1
4.979327505E0,2.234298229E0,1.027627563E1,-6.759724021E-1
4.981806515E0,2.234298229E0,1.025474072E1,-6.664010882E-1
4.984285474E0,2.236690998E0,1.026909733E1,-6.735795736E-1
4.986763651E0,2.217548370E0,1.026431179E1,-6.855437160E-1
4.989241828E0,2.227119684E0,1.026670456E1,-6.640082598E-1
4.991720838E0,2.224726915E0,1.027866840E1,-6.855437160E-1
4.994199797E0,2.224726915E0,1.027627563E1,-6.711867452E-1
4.996677922E0,2.231905222E0,1.027866840E1,-7.118647099E-1
4.999156099E0,2.231905222E0,1.026191902E1,-7.070791125E-1
5.001635109E0,2.217548370E0,1.024516964E1,-7.286145091E-1
5.004114067E0,2.219941139E0,1.024516964E1,-7.070791125E-1
5.006592245E0,2.224726915E0,1.023320484E1,-7.142575383E-1
5.009070422E0,2.205584288E0,1.022124100E1,-7.094719410E-1
5.011549432E0,2.222334146E0,1.021884823E1,-7.046862841E-1
5.014028390E0,2.205584288E0,1.021645546E1,-7.166503668E-1
5.016506567E0,2.205584288E0,1.021884823E1,-7.214360237E-1
5.018984692E0,2.217548370E0,1.023559761E1,-7.238288522E-1
5.021463703E0,2.215155602E0,1.023320484E1,-7.310073376E-1
5.023942661E0,2.215155602E0,1.027388287E1,-7.238288522E-1
5.026420838E0,2.200798512E0,1.027388287E1,-7.142575383E-1
5.028899015E0,2.188834429E0,1.029302597E1,-7.310073376E-1
5.031378026E0,2.188834429E0,1.032413197E1,-7.118647099E-1
5.033856984E0,2.179263115E0,1.035284615E1,-6.999006271E-1
5.036335161E0,2.181656122E0,1.037438202E1,-6.807580590E-1
5.038813286E0,2.164906263E0,1.039591694E1,-7.022934556E-1
5.041292297E0,2.176870346E0,1.041027355E1,-6.903293133E-1
5.043771307E0,2.169692039E0,1.042941666E1,-6.807580590E-1
5.046249432E0,2.164906263E0,1.041506004E1,-6.879364848E-1
5.048727609E0,2.157727718E0,1.040548801E1,-7.046862841E-1
5.051206620E0,2.169692039E0,1.038634586E1,-6.903293133E-1
5.053685578E0,2.145763636E0,1.036720276E1,-7.046862841E-1
5.056163755E0,2.140978098E0,1.033609676E1,-6.807580590E-1
5.058641932E0,2.112264156E0,1.030738258E1,-6.807580590E-1
5.061120942E0,2.117049932E0,1.027866840E1,-7.022934556E-1
5.063599901E0,2.090728760E0,1.026909733E1,-6.999006271E-1
5.066078026E0,2.090728760E0,1.028345394E1,-6.975077987E-1
5.068556203E0,2.069193363E0,1.026431179E1,-7.070791125E-1
5.071035213E0,2.064407825E0,1.027388287E1,-7.286145091E-1
5.073514172E0,2.069193363E0,1.026909733E1,-7.429714203E-1
5.075992349E0,2.064407825E0,1.026909733E1,-7.429714203E-1
5.078470526E0,2.057229280E0,1.026670456E1,-7.597211599E-1
5.080949536E0,2.078764677E0,1.029541874E1,-7.525427341E-1
5.083428495E0,2.062014818E0,1.027866840E1,-7.334001660E-1
5.085906672E0,2.083550215E0,1.029063320E1,-7.262216806E-1
5.088384797E0,2.066800594E0,1.027866840E1,-7.214360237E-1
5.090863807E0,2.059622049E0,1.029302597E1,-7.262216806E-1
5.093342765E0,2.042872429E0,1.029063320E1,-7.238288522E-1
5.095820942E0,2.033301115E0,1.030498981E1,-7.190431952E-1
5.098299120E0,2.016551256E0,1.031695366E1,-7.214360237E-1
5.100778130E0,2.021337032E0,1.034566784E1,-7.070791125E-1
5.103257088E0,2.018944025E0,1.034566784E1,-6.999006271E-1
5.105735265E0,1.990230203E0,1.035284615E1,-7.022934556E-1
5.108213390E0,1.999801517E0,1.038634586E1,-7.070791125E-1
5.110692401E0,1.992623091E0,1.038873863E1,-7.214360237E-1
5.113171411E0,1.997408748E0,1.041027355E1,-7.070791125E-1
5.115649536E0,2.018944025E0,1.039591694E1,-6.951149702E-1
5.118127713E0,2.011765718E0,1.040070248E1,-7.286145091E-1
5.120606724E0,1.997408748E0,1.039113140E1,-7.405785918E-1
5.123085682E0,1.983051777E0,1.041027355E1,-6.879364848E-1
5.125563859E0,1.983051777E0,1.040788078E1,-7.070791125E-1
5.128042036E0,1.951945066E0,1.040548801E1,-7.046862841E-1
5.130521047E0,1.973480463E0,1.040070248E1,-7.094719410E-1
5.133000005E0,1.949552298E0,1.040309525E1,-6.951149702E-1
5.135478130E0,1.944766641E0,1.039113140E1,-6.927221417E-1
5.137956307E0,1.932802439E0,1.041266727E1,-6.640082598E-1
5.140435317E0,1.930409670E0,1.040309525E1,-6.520441771E-1
5.142914276E0,1.920838356E0,1.038634586E1,-6.376872063E-1
5.145392453E0,1.923231244E0,1.040070248E1,-6.233302951E-1
5.147870630E0,1.920838356E0,1.040070248E1,-6.161518097E-1
5.150349640E0,1.949552298E0,1.039830971E1,-6.089733839E-1
5.152828599E0,1.949552298E0,1.041984558E1,-6.089733839E-1
5.155306724E0,1.968694806E0,1.038873863E1,-6.233302951E-1
5.157784901E0,1.971087694E0,1.037198925E1,-6.017948985E-1
