"Time (s)","Acceleration x (m/s^2)","Acceleration y (m/s^2)","Acceleration z (m/s^2)"
3.448265500E-2,4.173680782E0,9.768698692E0,-9.083753228E-1
3.699005100E-2,4.178466320E0,9.783055305E0,-9.251250625E-1
3.947510300E-2,4.163810730E0,9.768698692E0,-9.155537486E-1
4.195307200E-2,4.163810730E0,9.778269768E0,-9.323035479E-1
4.443104100E-2,4.154239178E0,9.773484230E0,-9.299107194E-1
4.690984300E-2,4.163810730E0,9.763913155E0,-9.299107194E-1
4.938859300E-2,4.142275333E0,9.775876999E0,-9.323035479E-1
5.186656200E-2,4.166502476E0,9.775876999E0,-9.299107194E-1
5.434458200E-2,4.149453640E0,9.780662537E0,-9.418748021E-1
5.682333200E-2,4.142275333E0,9.773484230E0,-9.370891452E-1
5.930213500E-2,4.125525475E0,9.783055305E0,-9.394819736E-1
6.178010300E-2,4.144668102E0,9.766305923E0,-9.466604590E-1
6.425807200E-2,4.137489319E0,9.778269768E0,-9.323035479E-1
6.673682200E-2,4.125525475E0,9.775876999E0,-9.490532875E-1
6.921562400E-2,4.130311012E0,9.761520386E0,-9.299107194E-1
7.169354100E-2,4.144668102E0,9.759127617E0,-9.203394055E-1
7.417151000E-2,4.118346691E0,9.768698692E0,-9.442676306E-1
7.665036400E-2,4.142275333E0,9.768698692E0,-9.466604590E-1
7.912911400E-2,4.154239178E0,9.775876999E0,-9.179465771E-1
8.160708200E-2,4.142275333E0,9.763913155E0,-9.299107194E-1
8.408505100E-2,4.144668102E0,9.747162819E0,-9.107680917E-1
8.656385300E-2,4.161417484E0,9.756733894E0,-9.299107194E-1
8.904265500E-2,4.139882088E0,9.766305923E0,-9.370891452E-1
9.152057200E-2,4.147060871E0,9.735198975E0,-9.299107194E-1
9.399854100E-2,4.154239178E0,9.763913155E0,-9.394819736E-1
9.647734300E-2,4.135096550E0,9.759127617E0,-9.466604590E-1
9.895614500E-2,4.149453640E0,9.773484230E0,-9.466604590E-1
1.014340620E-1,4.168895245E0,9.768698692E0,-9.346963167E-1
1.039120300E-1,4.163810730E0,9.756733894E0,-9.538389444E-1
1.063908320E-1,4.168895245E0,9.744770050E0,-9.346963167E-1
1.088696350E-1,4.154239178E0,9.761520386E0,-9.490532875E-1
1.113476030E-1,4.166502476E0,9.768698692E0,-9.227322340E-1
1.138255720E-1,4.159024715E0,9.778269768E0,-9.203394055E-1
1.163043740E-1,4.144668102E0,9.771091461E0,-9.299107194E-1
1.187831760E-1,4.147060871E0,9.778269768E0,-9.418748021E-1
1.212610930E-1,4.161417484E0,9.790233612E0,-9.131609201E-1
1.237390620E-1,4.130311012E0,9.795019150E0,-9.466604590E-1
1.262178640E-1,4.135096550E0,9.783055305E0,-9.227322340E-1
1.286966660E-1,4.127918243E0,9.775876999E0,-9.203394055E-1
1.311745820E-1,4.132703781E0,9.790233612E0,-9.083753228E-1
1.336525510E-1,4.118346691E0,9.790233612E0,-8.940183520E-1
1.361313530E-1,4.118346691E0,9.785448074E0,-9.346963167E-1
1.386101550E-1,4.103990078E0,9.802198410E0,-8.988040090E-1
1.410880720E-1,4.096811295E0,9.799804688E0,-9.346963167E-1
1.435660410E-1,4.118346691E0,9.773484230E0,-8.748757839E-1
1.460448950E-1,4.103990078E0,9.802198410E0,-9.634101987E-1
1.485236970E-1,4.101597309E0,9.787840843E0,-8.796614408E-1
1.510016140E-1,4.087240219E0,9.797411919E0,-9.275178909E-1
1.534795820E-1,4.056133270E0,9.790233612E0,-8.796614408E-1
1.559583850E-1,4.068097591E0,9.809376717E0,-9.514461160E-1
1.584371870E-1,4.056133270E0,9.802198410E0,-8.820542693E-1
1.609151030E-1,4.084847450E0,9.811769485E0,-9.466604590E-1
1.633930720E-1,4.056133270E0,9.785448074E0,-8.916255236E-1
1.658718740E-1,4.077668667E0,9.818947792E0,-9.514461160E-1
1.683506760E-1,4.053740501E0,9.816555023E0,-8.676972985E-1
1.708285930E-1,4.068097591E0,9.821340561E0,-9.346963167E-1
1.733065620E-1,4.063312054E0,9.806983948E0,-8.748757839E-1
1.757854160E-1,4.060919285E0,9.830911636E0,-9.346963167E-1
1.782641660E-1,4.058526516E0,9.821340561E0,-8.892326951E-1
1.807421350E-1,4.072883129E0,9.823733330E0,-9.107680917E-1
1.832201030E-1,4.072883129E0,9.840482712E0,-8.868398666E-1
1.856989050E-1,4.077668667E0,9.840482712E0,-8.892326951E-1
1.881777070E-1,4.080061913E0,9.830911636E0,-8.988040090E-1
1.906556240E-1,4.082454681E0,9.850054741E0,-8.844470978E-1
1.931335930E-1,4.103990078E0,9.828518867E0,-9.059824944E-1
1.956123950E-1,4.096811295E0,9.840482712E0,-8.892326951E-1
1.980911970E-1,4.089632988E0,9.835697174E0,-9.370891452E-1
2.005691140E-1,4.077668667E0,9.840482712E0,-8.868398666E-1
2.030470820E-1,4.099204063E0,9.830911636E0,-9.299107194E-1
2.055258850E-1,4.092025757E0,9.814162254E0,-8.748757839E-1
2.080046870E-1,4.094418526E0,9.840482712E0,-9.394819736E-1
2.104826550E-1,4.084847450E0,9.840482712E0,-8.724829555E-1
2.129606240E-1,4.096811295E0,9.821340561E0,-9.323035479E-1
2.154394260E-1,4.103990078E0,9.809376717E0,-8.629116416E-1
2.179182280E-1,4.087240219E0,9.826126099E0,-9.466604590E-1
2.203961450E-1,4.108775616E0,9.814162254E0,-8.748757839E-1
2.228741140E-1,4.142275333E0,9.799804688E0,-9.538389444E-1
2.253529160E-1,4.135096550E0,9.806983948E0,-8.964111805E-1
2.278317180E-1,4.132703781E0,9.771091461E0,-9.466604590E-1
2.303096350E-1,4.142275333E0,9.775876999E0,-8.988040090E-1
2.327876030E-1,4.156631947E0,9.773484230E0,-9.466604590E-1
2.352664050E-1,4.163810730E0,9.749555588E0,-9.107680917E-1
2.377452070E-1,4.190430641E0,9.723235130E0,-9.275178909E-1
2.402231760E-1,4.180859566E0,9.725627899E0,-9.155537486E-1
2.427011450E-1,4.183252335E0,9.742377281E0,-9.394819736E-1
2.451799470E-1,4.207180500E0,9.718449593E0,-9.466604590E-1
2.476586970E-1,4.216751575E0,9.730413437E0,-9.131609201E-1
2.501366660E-1,4.223930359E0,9.737591743E0,-9.562317729E-1
2.526146350E-1,4.216751575E0,9.730413437E0,-9.059824944E-1
2.550934370E-1,4.235894203E0,9.725627899E0,-9.681958556E-1
2.575722390E-1,4.235894203E0,9.739984512E0,-9.227322340E-1
2.600501550E-1,4.235894203E0,9.749555588E0,-9.801599979E-1
2.625281240E-1,4.209573269E0,9.747162819E0,-9.227322340E-1
2.650069260E-1,4.214358807E0,9.744770050E0,-9.993025661E-1
2.674857280E-1,4.207180500E0,9.766305923E0,-9.155537486E-1
2.699636970E-1,4.204787731E0,9.771091461E0,-9.945169091E-1
2.724416660E-1,4.185645103E0,9.766305923E0,-9.155537486E-1
2.749204680E-1,4.168895245E0,9.775876999E0,-9.969097376E-1
2.773992180E-1,4.171288013E0,9.787840843E0,-9.035896659E-1
2.798771870E-1,4.168895245E0,9.814162254E0,-9.801599979E-1
2.823551550E-1,4.142275333E0,9.816555023E0,-9.155537486E-1
2.848339570E-1,4.137489319E0,9.811769485E0,-9.753743410E-1
2.873127600E-1,4.125525475E0,9.802198410E0,-9.155537486E-1
2.897906760E-1,4.132703781E0,9.838089943E0,-9.753743410E-1
2.922686450E-1,4.132703781E0,9.809376717E0,-9.227322340E-1
2.947474470E-1,4.139882088E0,9.816555023E0,-9.538389444E-1
2.972262490E-1,4.120739460E0,9.830911636E0,-9.275178909E-1
2.997041660E-1,4.130311012E0,9.828518867E0,-9.394819736E-1
3.021821350E-1,4.120739460E0,9.830911636E0,-9.610173702E-1
3.046609890E-1,4.103990078E0,9.845269203E0,-9.346963167E-1
3.071397390E-1,4.103990078E0,9.826126099E0,-9.466604590E-1
3.096177070E-1,4.111168385E0,9.833304405E0,-9.299107194E-1
3.120956760E-1,4.118346691E0,9.826126099E0,-9.681958556E-1
3.145744780E-1,4.120739460E0,9.806983948E0,-9.107680917E-1
3.170532800E-1,4.106382847E0,9.821340561E0,-9.681958556E-1
3.195311970E-1,4.080061913E0,9.785448074E0,-9.323035479E-1
3.220091660E-1,4.101597309E0,9.795019150E0,-9.969097376E-1
3.244879680E-1,4.137489319E0,9.809376717E0,-9.131609201E-1
3.269667700E-1,4.156631947E0,9.845269203E0,-9.897312522E-1
3.294446870E-1,4.151846409E0,9.821340561E0,-9.035896659E-1
3.319226550E-1,4.166502476E0,9.811769485E0,-1.008873820E0
3.344015100E-1,4.147060871E0,9.780662537E0,-9.323035479E-1
3.368802600E-1,4.147060871E0,9.787840843E0,-1.008873820E0
3.393582280E-1,4.151846409E0,9.783055305E0,-9.394819736E-1
3.418361970E-1,4.173680782E0,9.749555588E0,-9.945169091E-1
3.443149990E-1,4.192823410E0,9.754341125E0,-9.370891452E-1
3.467938010E-1,4.185645103E0,9.747162819E0,-1.006481051E0
3.492717180E-1,4.192823410E0,9.759127617E0,-9.346963167E-1
3.517496870E-1,4.185645103E0,9.737591743E0,-9.873384237E-1
3.542284890E-1,4.176073551E0,9.725627899E0,-9.466604590E-1
3.567072910E-1,4.159024715E0,9.720842361E0,-9.299107194E-1
3.591852070E-1,4.192823410E0,9.716055870E0,-9.370891452E-1
3.616631760E-1,4.197608948E0,9.713663101E0,-9.562317729E-1
3.641419780E-1,4.200001717E0,9.723235130E0,-9.921240807E-1
3.666207800E-1,4.171288013E0,9.723235130E0,-9.634101987E-1
3.690987490E-1,4.195216179E0,9.728020668E0,-9.825528264E-1
3.715767180E-1,4.200001717E0,9.718449593E0,-9.586246014E-1
3.740555200E-1,4.192823410E0,9.723235130E0,-9.969097376E-1
3.765343220E-1,4.183252335E0,9.704092026E0,-9.346963167E-1
3.790122390E-1,4.204787731E0,9.732806206E0,-1.011266708E0
3.814902070E-1,4.209573269E0,9.720842361E0,-9.753743410E-1
3.839690100E-1,4.209573269E0,9.718449593E0,-1.042373419E0
3.864478120E-1,4.214358807E0,9.716055870E0,-9.586246014E-1
3.889257280E-1,4.202394962E0,9.701699257E0,-1.037587762E0
3.914036970E-1,4.223930359E0,9.706484795E0,-9.729815125E-1
3.938824990E-1,4.228715897E0,9.723235130E0,-1.025623560E0
3.963613010E-1,4.207180500E0,9.706484795E0,-9.681958556E-1
3.988392700E-1,4.211966038E0,9.708877563E0,-1.018445134E0
4.013172390E-1,4.214358807E0,9.704092026E0,-9.562317729E-1
4.037960410E-1,4.204787731E0,9.730413437E0,-1.016052365E0
4.062748430E-1,4.211966038E0,9.720842361E0,-9.514461160E-1
4.087527600E-1,4.228715897E0,9.720842361E0,-1.011266708E0
4.112307280E-1,4.228715897E0,9.696913719E0,-9.801599979E-1
4.137095300E-1,4.192823410E0,9.708877563E0,-1.013659477E0
4.161883320E-1,4.221537113E0,9.699306488E0,-9.921240807E-1
4.186662490E-1,4.202394962E0,9.708877563E0,-9.921240807E-1
4.211442180E-1,4.204787731E0,9.684949875E0,-1.016052365E0
4.236230200E-1,4.188037872E0,9.689735413E0,-9.658030272E-1
4.261018220E-1,4.228715897E0,9.701699257E0,-1.032802105E0
4.285797910E-1,4.216751575E0,9.701699257E0,-9.897312522E-1
4.310577600E-1,4.245465755E0,9.672985077E0,-1.016052365E0
4.335365620E-1,4.209573269E0,9.670592308E0,-9.490532875E-1
4.360153640E-1,4.219144344E0,9.723235130E0,-1.028016448E0
4.384932800E-1,4.214358807E0,9.716055870E0,-9.586246014E-1
4.409712490E-1,4.207180500E0,9.713663101E0,-1.051944613E0
4.434500510E-1,4.185645103E0,9.716055870E0,-9.897312522E-1
4.459288530E-1,4.190430641E0,9.701699257E0,-1.051944613E0
4.484067700E-1,4.178466320E0,9.716055870E0,-9.729815125E-1
4.508847390E-1,4.183252335E0,9.699306488E0,-1.049551845E0
4.533635410E-1,4.185645103E0,9.699306488E0,-9.610173702E-1
4.558423430E-1,4.180859566E0,9.718449593E0,-1.042373419E0
4.583202600E-1,4.156631947E0,9.701699257E0,-9.705886841E-1
4.607982280E-1,4.142275333E0,9.696913719E0,-1.042373419E0
4.632770820E-1,4.163810730E0,9.689735413E0,-1.004088163E0
4.657558320E-1,4.151846409E0,9.711270332E0,-1.047158957E0
4.682338010E-1,4.139882088E0,9.718449593E0,-9.993025661E-1
4.707117700E-1,4.156631947E0,9.732806206E0,-1.018445134E0
4.731905720E-1,4.142275333E0,9.708877563E0,-1.001695395E0
4.756693740E-1,4.161417484E0,9.718449593E0,-9.825528264E-1
4.781472910E-1,4.159024715E0,9.732806206E0,-9.897312522E-1
4.806252600E-1,4.151846409E0,9.720842361E0,-9.610173702E-1
4.831040620E-1,4.151846409E0,9.708877563E0,-1.013659477E0
4.855828640E-1,4.135096550E0,9.708877563E0,-9.705886841E-1
4.880607800E-1,4.144668102E0,9.713663101E0,-1.016052365E0
4.905387490E-1,4.139882088E0,9.708877563E0,-9.705886841E-1
4.930176030E-1,4.147060871E0,9.706484795E0,-1.035194874E0
4.954963530E-1,4.163810730E0,9.699306488E0,-9.634101987E-1
4.979743220E-1,4.159024715E0,9.704092026E0,-1.047158957E0
5.004522910E-1,4.149453640E0,9.694520950E0,-9.634101987E-1
5.029310930E-1,4.144668102E0,9.708877563E0,-1.020837903E0
5.054098950E-1,4.144668102E0,9.694520950E0,-9.442676306E-1
5.078878120E-1,4.147060871E0,9.730413437E0,-1.032802105E0
5.103657800E-1,4.123132706E0,9.704092026E0,-9.681958556E-1
5.128445820E-1,4.127918243E0,9.711270332E0,-1.016052365E0
5.153233850E-1,4.120739460E0,9.708877563E0,-9.466604590E-1
5.178013010E-1,4.118346691E0,9.728020668E0,-1.004088163E0
5.202792700E-1,4.115953922E0,9.711270332E0,-9.370891452E-1
5.227581240E-1,4.108775616E0,9.720842361E0,-9.969097376E-1
5.252368740E-1,4.106382847E0,9.723235130E0,-9.418748021E-1
5.277148430E-1,4.075275898E0,9.689735413E0,-9.466604590E-1
5.301928120E-1,4.063312054E0,9.704092026E0,-9.634101987E-1
5.326716140E-1,4.092025757E0,9.718449593E0,-9.681958556E-1
5.351504160E-1,4.082454681E0,9.739984512E0,-9.658030272E-1
5.376283320E-1,4.072883129E0,9.742377281E0,-9.346963167E-1
5.401063010E-1,4.072883129E0,9.730413437E0,-9.586246014E-1
5.425851030E-1,4.053740501E0,9.735198975E0,-9.179465771E-1
5.450639050E-1,4.056133270E0,9.718449593E0,-9.777671695E-1
5.475418220E-1,4.051347733E0,9.728020668E0,-9.131609201E-1
5.500197910E-1,4.056133270E0,9.756733894E0,-9.825528264E-1
5.524985930E-1,4.056133270E0,9.763913155E0,-9.203394055E-1
5.549773950E-1,4.034597874E0,9.744770050E0,-9.993025661E-1
5.574553640E-1,4.036991119E0,9.744770050E0,-9.179465771E-1
5.599333320E-1,4.048954964E0,9.761520386E0,-9.969097376E-1
5.624121350E-1,4.044169426E0,9.754341125E0,-9.035896659E-1
5.648909370E-1,4.044169426E0,9.749555588E0,-9.634101987E-1
5.673688530E-1,4.022634029E0,9.747162819E0,-8.964111805E-1
5.698468220E-1,4.027419567E0,9.730413437E0,-9.658030272E-1
5.723256240E-1,4.034597874E0,9.787840843E0,-9.179465771E-1
5.748044260E-1,4.053740501E0,9.780662537E0,-9.562317729E-1
5.772823430E-1,4.048954964E0,9.763913155E0,-9.059824944E-1
5.797603120E-1,4.032205105E0,9.780662537E0,-9.155537486E-1
5.822391140E-1,4.032205105E0,9.768698692E0,-8.796614408E-1
5.847179160E-1,4.029812336E0,9.783055305E0,-9.035896659E-1
5.871958850E-1,4.027419567E0,9.806983948E0,-8.868398666E-1
5.896738530E-1,4.010669708E0,9.771091461E0,-8.653044701E-1
5.921526550E-1,3.996312857E0,9.792626381E0,-8.892326951E-1
5.946314570E-1,3.998705626E0,9.790233612E0,-8.844470978E-1
5.971093740E-1,3.986741543E0,9.787840843E0,-8.868398666E-1
5.995873430E-1,3.965206146E0,9.814162254E0,-8.653044701E-1
6.020661450E-1,3.967599154E0,9.797411919E0,-8.916255236E-1
6.045449470E-1,3.967599154E0,9.806983948E0,-8.174480200E-1
6.070228640E-1,3.953242064E0,9.778269768E0,-8.533403873E-1
6.095008320E-1,3.948456526E0,9.806983948E0,-8.198408484E-1
6.119796870E-1,3.929313898E0,9.804591179E0,-8.988040090E-1
6.144584370E-1,3.936492443E0,9.797411919E0,-8.078767657E-1
6.169364050E-1,3.941277981E0,9.816555023E0,-8.772686124E-1
6.194143740E-1,3.922135353E0,9.806983948E0,-8.030911088E-1
6.218931760E-1,3.910171270E0,9.809376717E0,-8.653044701E-1
6.243719780E-1,3.914957047E0,9.823733330E0,-8.389834166E-1
6.268498950E-1,3.914957047E0,9.811769485E0,-8.605188727E-1
6.293278640E-1,3.907778502E0,9.823733330E0,-8.653044701E-1
6.318066660E-1,3.924528122E0,9.818947792E0,-8.629116416E-1
6.342854680E-1,3.914957047E0,9.833304405E0,-8.485547304E-1
6.367633850E-1,3.914957047E0,9.821340561E0,-8.653044701E-1
6.392413530E-1,3.902992725E0,9.835697174E0,-8.653044701E-1
6.417201550E-1,3.888635874E0,9.838089943E0,-8.676972985E-1
6.441989570E-1,3.910171270E0,9.828518867E0,-8.629116416E-1
6.466769260E-1,3.905385733E0,9.845269203E0,-8.700901270E-1
6.491548950E-1,3.893421650E0,9.847661972E0,-8.700901270E-1
6.516336970E-1,3.902992725E0,9.847661972E0,-8.605188727E-1
6.541124990E-1,3.914957047E0,9.840482712E0,-8.437690735E-1
6.565904160E-1,3.907778502E0,9.862018585E0,-8.605188727E-1
6.590683850E-1,3.917349815E0,9.840482712E0,-8.533403873E-1
6.615471870E-1,3.898207188E0,9.830911636E0,-8.581260443E-1
6.640259890E-1,3.924528122E0,9.840482712E0,-8.485547304E-1
6.665039050E-1,3.934099436E0,9.842875481E0,-8.533403873E-1
6.689818740E-1,3.926921129E0,9.818947792E0,-8.581260443E-1
6.714606760E-1,3.914957047E0,9.835697174E0,-8.246265054E-1
6.739394780E-1,3.924528122E0,9.838089943E0,-8.318049908E-1
6.764174470E-1,3.958027840E0,9.833304405E0,-8.150551915E-1
6.788954160E-1,3.946063757E0,9.830911636E0,-8.294121623E-1
6.813742180E-1,3.946063757E0,9.850054741E0,-8.150551915E-1
6.838530200E-1,3.931706667E0,9.835697174E0,-8.246265054E-1
6.863309370E-1,3.946063757E0,9.842875481E0,-8.174480200E-1
6.888089050E-1,3.953242064E0,9.835697174E0,-8.006982803E-1
6.912877070E-1,3.977170229E0,9.857233047E0,-7.839485407E-1
6.937665100E-1,3.946063757E0,9.823733330E0,-8.030911088E-1
6.962444260E-1,3.981956005E0,9.838089943E0,-7.983054519E-1
6.987223950E-1,3.989134550E0,9.842875481E0,-7.983054519E-1
7.012011970E-1,3.991527319E0,9.818947792E0,-7.716853023E-1
7.036799990E-1,3.986741543E0,9.835697174E0,-8.006982803E-1
7.061579680E-1,3.984348774E0,9.818947792E0,-7.935197949E-1
7.086359370E-1,3.979563236E0,9.840482712E0,-7.887341380E-1
7.111147390E-1,3.996312857E0,9.854840279E0,-7.740781307E-1
7.135934890E-1,3.998705626E0,9.850054741E0,-7.740781307E-1
7.160714570E-1,4.020241261E0,9.842875481E0,-7.815557122E-1
7.185494260E-1,4.034597874E0,9.850054741E0,-7.911269665E-1
7.210282280E-1,4.022634029E0,9.833304405E0,-8.006982803E-1
7.235070300E-1,4.032205105E0,9.847661972E0,-7.764709592E-1
7.259849470E-1,4.039383888E0,9.850054741E0,-7.959126234E-1
7.284629160E-1,4.027419567E0,9.816555023E0,-7.740781307E-1
7.309417180E-1,4.034597874E0,9.833304405E0,-8.006982803E-1
7.334205200E-1,4.056133270E0,9.845269203E0,-7.935197949E-1
7.358984890E-1,4.051347733E0,9.823733330E0,-8.006982803E-1
7.383764570E-1,4.051347733E0,9.814162254E0,-8.246265054E-1
7.408552600E-1,4.053740501E0,9.830911636E0,-7.887341380E-1
7.433340620E-1,4.041776657E0,9.816555023E0,-7.788637877E-1
7.458119780E-1,4.056133270E0,9.809376717E0,-7.839485407E-1
7.482899470E-1,4.070490360E0,9.821340561E0,-7.959126234E-1
7.507687490E-1,4.051347733E0,9.804591179E0,-7.887341380E-1
7.532475510E-1,4.046562195E0,9.806983948E0,-8.054839373E-1
7.557254680E-1,4.032205105E0,9.804591179E0,-7.983054519E-1
7.582034370E-1,4.022634029E0,9.802198410E0,-7.887341380E-1
7.606822390E-1,4.029812336E0,9.823733330E0,-7.839485407E-1
7.631610410E-1,4.027419567E0,9.826126099E0,-7.716853023E-1
7.656390100E-1,4.025026798E0,9.821340561E0,-7.887341380E-1
7.681169780E-1,4.008276939E0,9.821340561E0,-7.839485407E-1
7.705957800E-1,4.022634029E0,9.823733330E0,-7.740781307E-1
7.730745820E-1,3.998705626E0,9.835697174E0,-7.863413692E-1
7.755524990E-1,4.010669708E0,9.838089943E0,-7.477570772E-1
7.780304680E-1,4.005884171E0,9.828518867E0,-7.381857634E-1
7.805092700E-1,3.993920088E0,9.809376717E0,-7.764709592E-1
7.829880720E-1,3.993920088E0,9.835697174E0,-7.645068169E-1
7.854659890E-1,3.977170229E0,9.857233047E0,-7.740781307E-1
7.879439570E-1,3.981956005E0,9.835697174E0,-7.501499057E-1
7.904227600E-1,3.965206146E0,9.857233047E0,-7.549355626E-1
7.929015620E-1,3.955634832E0,9.866804123E0,-7.573283911E-1
7.953795300E-1,3.969991922E0,9.854840279E0,-7.453642488E-1
7.978574990E-1,3.989134550E0,9.871589661E0,-7.692924738E-1
8.003363010E-1,3.967599154E0,9.857233047E0,-7.887341380E-1
8.028151030E-1,3.984348774E0,9.859625816E0,-7.788637877E-1
8.052930200E-1,3.977170229E0,9.871589661E0,-7.668996453E-1
8.077709890E-1,3.974777460E0,9.859625816E0,-7.668996453E-1
8.102497910E-1,4.013062477E0,9.854840279E0,-7.621139884E-1
8.127285930E-1,4.029812336E0,9.857233047E0,-7.597211599E-1
8.152065100E-1,4.020241261E0,9.854840279E0,-7.815557122E-1
8.176844780E-1,4.005884171E0,9.866804123E0,-7.716853023E-1
8.201632800E-1,4.032205105E0,9.854840279E0,-7.863413692E-1
8.226420820E-1,4.039383888E0,9.830911636E0,-7.764709592E-1
8.251200510E-1,4.036991119E0,9.840482712E0,-7.525427341E-1
8.275980200E-1,4.060919285E0,9.850054741E0,-7.764709592E-1
8.300768220E-1,4.051347733E0,9.828518867E0,-7.525427341E-1
8.325556240E-1,4.056133270E0,9.830911636E0,-7.621139884E-1
8.350335410E-1,4.075275898E0,9.847661972E0,-7.815557122E-1
8.375115100E-1,4.084847450E0,9.850054741E0,-7.740781307E-1
8.399903120E-1,4.087240219E0,9.838089943E0,-7.716853023E-1
8.424691140E-1,4.072883129E0,9.842875481E0,-7.668996453E-1
8.449470300E-1,4.075275898E0,9.818947792E0,-7.334001660E-1
8.474249990E-1,4.070490360E0,9.821340561E0,-7.764709592E-1
8.499038010E-1,4.063312054E0,9.809376717E0,-7.788637877E-1
8.523826030E-1,4.075275898E0,9.823733330E0,-7.573283911E-1
8.548605720E-1,4.058526516E0,9.840482712E0,-7.453642488E-1
8.573385410E-1,4.063312054E0,9.821340561E0,-7.405785918E-1
8.598173430E-1,4.053740501E0,9.818947792E0,-7.621139884E-1
8.622961450E-1,4.072883129E0,9.821340561E0,-7.668996453E-1
8.647740620E-1,4.053740501E0,9.826126099E0,-7.621139884E-1
8.672520300E-1,4.068097591E0,9.823733330E0,-7.357929349E-1
8.697308320E-1,4.072883129E0,9.821340561E0,-7.262216806E-1
8.722096350E-1,4.075275898E0,9.833304405E0,-7.477570772E-1
8.746875510E-1,4.072883129E0,9.830911636E0,-7.477570772E-1
8.771655200E-1,4.070490360E0,9.840482712E0,-7.405785918E-1
8.796443220E-1,4.068097591E0,9.838089943E0,-7.477570772E-1
8.821231240E-1,4.060919285E0,9.847661972E0,-7.525427341E-1
8.846010930E-1,4.060919285E0,9.828518867E0,-7.692924738E-1
8.870790620E-1,4.063312054E0,9.854840279E0,-7.645068169E-1
8.895578640E-1,4.077668667E0,9.852447510E0,-7.668996453E-1
8.920366660E-1,4.082454681E0,9.854840279E0,-7.668996453E-1
8.945145820E-1,4.087240219E0,9.859625816E0,-7.839485407E-1
8.969925510E-1,4.063312054E0,9.873982430E0,-7.621139884E-1
8.994713530E-1,4.070490360E0,9.881160736E0,-7.863413692E-1
9.019501550E-1,4.072883129E0,9.876375198E0,-7.716853023E-1
9.044280720E-1,4.058526516E0,9.905089378E0,-7.983054519E-1
9.069060410E-1,4.065704823E0,9.888339996E0,-7.788637877E-1
9.093848430E-1,4.080061913E0,9.869196892E0,-7.959126234E-1
9.118636450E-1,4.075275898E0,9.864411354E0,-7.959126234E-1
9.143416140E-1,4.082454681E0,9.866804123E0,-7.788637877E-1
9.168195820E-1,4.072883129E0,9.857233047E0,-7.839485407E-1
9.192983850E-1,4.080061913E0,9.859625816E0,-7.716853023E-1
9.217771870E-1,4.068097591E0,9.833304405E0,-7.597211599E-1
9.242551030E-1,4.080061913E0,9.833304405E0,-7.549355626E-1
9.267330720E-1,4.072883129E0,9.842875481E0,-7.525427341E-1
9.292118740E-1,4.077668667E0,9.830911636E0,-7.501499057E-1
9.316906760E-1,4.080061913E0,9.835697174E0,-7.477570772E-1
9.341685930E-1,4.092025757E0,9.816555023E0,-7.262216806E-1
9.366465620E-1,4.072883129E0,9.799804688E0,-7.334001660E-1
9.391253640E-1,4.077668667E0,9.795019150E0,-7.310073376E-1
9.416041660E-1,4.070490360E0,9.802198410E0,-7.477570772E-1
9.440821350E-1,4.065704823E0,9.797411919E0,-7.477570772E-1
9.465601030E-1,4.060919285E0,9.790233612E0,-7.357929349E-1
9.490389050E-1,4.053740501E0,9.787840843E0,-7.501499057E-1
9.515177070E-1,4.072883129E0,9.806983948E0,-7.549355626E-1
9.539956240E-1,4.080061913E0,9.785448074E0,-7.525427341E-1
9.564735930E-1,4.063312054E0,9.799804688E0,-7.764709592E-1
9.589523950E-1,4.068097591E0,9.823733330E0,-8.054839373E-1
9.614311970E-1,4.065704823E0,9.797411919E0,-8.102695942E-1
9.639091140E-1,4.072883129E0,9.790233612E0,-8.078767657E-1
9.663870820E-1,4.092025757E0,9.792626381E0,-8.318049908E-1
9.688658850E-1,4.089632988E0,9.775876999E0,-8.246265054E-1
9.713446870E-1,4.082454681E0,9.792626381E0,-8.413762450E-1
9.738226550E-1,4.101597309E0,9.773484230E0,-8.365905881E-1
9.763006240E-1,4.092025757E0,9.778269768E0,-8.581260443E-1
9.787794260E-1,4.130311012E0,9.766305923E0,-8.581260443E-1
9.812582280E-1,4.106382847E0,9.771091461E0,-8.629116416E-1
9.837361450E-1,4.113561153E0,9.768698692E0,-8.748757839E-1
9.862141140E-1,4.127918243E0,9.775876999E0,-8.653044701E-1
9.886929160E-1,4.139882088E0,9.759127617E0,-8.868398666E-1
9.911717180E-1,4.147060871E0,9.778269768E0,-8.676972985E-1
9.936496350E-1,4.139882088E0,9.771091461E0,-8.700901270E-1
9.961276030E-1,4.120739460E0,9.742377281E0,-8.820542693E-1
9.986064570E-1,4.115953922E0,9.761520386E0,-8.533403873E-1
1.001085207E0,4.149453640E0,9.739984512E0,-8.724829555E-1
1.003563176E0,4.144668102E0,9.737591743E0,-8.629116416E-1
1.006041145E0,4.144668102E0,9.747162819E0,-8.629116416E-1
1.008519947E0,4.142275333E0,9.768698692E0,-8.509475589E-1
1.010998749E0,4.142275333E0,9.766305923E0,-8.605188727E-1
1.013476666E0,4.144668102E0,9.749555588E0,-8.868398666E-1
1.015954635E0,4.142275333E0,9.754341125E0,-8.509475589E-1
1.018433437E0,4.159024715E0,9.756733894E0,-8.581260443E-1
1.020912239E0,4.147060871E0,9.747162819E0,-8.629116416E-1
1.023390155E0,4.142275333E0,9.754341125E0,-8.676972985E-1
1.025868124E0,4.156631947E0,9.768698692E0,-8.629116416E-1
1.028346978E0,4.147060871E0,9.744770050E0,-8.820542693E-1
1.030825728E0,4.154239178E0,9.739984512E0,-8.772686124E-1
1.033303697E0,4.154239178E0,9.737591743E0,-8.844470978E-1
1.035781666E0,4.154239178E0,9.749555588E0,-9.035896659E-1
1.038260468E0,4.149453640E0,9.763913155E0,-9.131609201E-1
1.040739270E0,4.159024715E0,9.739984512E0,-9.203394055E-1
1.043217187E0,4.168895245E0,9.754341125E0,-9.155537486E-1
1.045695155E0,4.156631947E0,9.739984512E0,-9.155537486E-1
1.048173957E0,4.156631947E0,9.749555588E0,-9.442676306E-1
1.050652760E0,4.159024715E0,9.742377281E0,-9.658030272E-1
1.053130676E0,4.166502476E0,9.749555588E0,-9.418748021E-1
1.055608645E0,4.151846409E0,9.742377281E0,-9.466604590E-1
1.058087499E0,4.159024715E0,9.749555588E0,-9.562317729E-1
1.060566249E0,4.156631947E0,9.737591743E0,-9.562317729E-1
1.063044218E0,4.178466320E0,9.737591743E0,-9.394819736E-1
1.065522187E0,4.176073551E0,9.759127617E0,-9.346963167E-1
1.068000989E0,4.188037872E0,9.749555588E0,-9.466604590E-1
1.070479791E0,4.173680782E0,9.759127617E0,-9.418748021E-1
1.072957707E0,4.173680782E0,9.742377281E0,-9.466604590E-1
1.075435676E0,4.166502476E0,9.744770050E0,-9.538389444E-1
1.077914478E0,4.180859566E0,9.763913155E0,-9.370891452E-1
1.080393280E0,4.161417484E0,9.744770050E0,-9.634101987E-1
1.082871249E0,4.156631947E0,9.778269768E0,-9.466604590E-1
1.085349218E0,4.154239178E0,9.744770050E0,-9.323035479E-1
1.087828020E0,4.178466320E0,9.756733894E0,-9.227322340E-1
1.090306770E0,4.163810730E0,9.766305923E0,-9.179465771E-1
1.092784739E0,4.163810730E0,9.761520386E0,-9.251250625E-1
1.095262707E0,4.156631947E0,9.783055305E0,-9.083753228E-1
1.097741510E0,4.142275333E0,9.766305923E0,-8.988040090E-1
1.100220312E0,4.147060871E0,9.783055305E0,-9.107680917E-1
1.102698228E0,4.156631947E0,9.763913155E0,-8.724829555E-1
1.105176197E0,4.166502476E0,9.763913155E0,-9.083753228E-1
1.107654999E0,4.159024715E0,9.775876999E0,-9.059824944E-1
1.110133801E0,4.142275333E0,9.787840843E0,-9.011968374E-1
1.112611770E0,4.147060871E0,9.780662537E0,-9.107680917E-1
1.115089739E0,4.159024715E0,9.785448074E0,-9.011968374E-1
1.117568541E0,4.147060871E0,9.766305923E0,-8.964111805E-1
1.120047343E0,4.137489319E0,9.768698692E0,-8.916255236E-1
1.122525260E0,4.127918243E0,9.773484230E0,-8.676972985E-1
1.125003228E0,4.139882088E0,9.799804688E0,-8.964111805E-1
1.127482030E0,4.113561153E0,9.790233612E0,-9.107680917E-1
1.129960832E0,4.125525475E0,9.783055305E0,-9.083753228E-1
1.132438749E0,4.123132706E0,9.761520386E0,-9.083753228E-1
1.134916718E0,4.135096550E0,9.773484230E0,-9.155537486E-1
1.137395520E0,4.113561153E0,9.763913155E0,-9.155537486E-1
1.139874322E0,4.120739460E0,9.768698692E0,-9.251250625E-1
1.142352291E0,4.111168385E0,9.778269768E0,-9.107680917E-1
1.144830260E0,4.103990078E0,9.795019150E0,-9.107680917E-1
1.147309062E0,4.111168385E0,9.773484230E0,-9.323035479E-1
1.149787864E0,4.113561153E0,9.766305923E0,-9.323035479E-1
1.152265780E0,4.101597309E0,9.763913155E0,-9.299107194E-1
1.154743749E0,4.096811295E0,9.773484230E0,-9.107680917E-1
1.157222551E0,4.092025757E0,9.778269768E0,-9.275178909E-1
1.159701353E0,4.115953922E0,9.768698692E0,-9.035896659E-1
1.162179270E0,4.123132706E0,9.768698692E0,-9.155537486E-1
1.164657239E0,4.101597309E0,9.766305923E0,-9.083753228E-1
1.167136041E0,4.135096550E0,9.754341125E0,-9.299107194E-1
1.169614843E0,4.115953922E0,9.754341125E0,-9.203394055E-1
1.172092812E0,4.156631947E0,9.751948357E0,-9.155537486E-1
1.174570780E0,4.125525475E0,9.747162819E0,-9.107680917E-1
1.177049582E0,4.147060871E0,9.739984512E0,-9.155537486E-1
1.179528385E0,4.151846409E0,9.749555588E0,-8.940183520E-1
1.182006301E0,4.147060871E0,9.754341125E0,-9.203394055E-1
1.184484270E0,4.118346691E0,9.766305923E0,-9.059824944E-1
1.186963072E0,4.118346691E0,9.768698692E0,-8.988040090E-1
1.189441874E0,4.127918243E0,9.763913155E0,-8.868398666E-1
1.191919791E0,4.154239178E0,9.780662537E0,-8.964111805E-1
1.194397760E0,4.137489319E0,9.778269768E0,-8.892326951E-1
1.196876562E0,4.137489319E0,9.771091461E0,-8.940183520E-1
1.199355364E0,4.147060871E0,9.778269768E0,-8.892326951E-1
1.201833332E0,4.149453640E0,9.761520386E0,-8.772686124E-1
1.204311301E0,4.137489319E0,9.797411919E0,-9.059824944E-1
1.206790103E0,4.130311012E0,9.802198410E0,-9.011968374E-1
1.209268905E0,4.130311012E0,9.787840843E0,-9.155537486E-1
1.211746822E0,4.159024715E0,9.787840843E0,-9.131609201E-1
1.214224791E0,4.147060871E0,9.795019150E0,-9.203394055E-1
1.216703593E0,4.137489319E0,9.804591179E0,-9.346963167E-1
1.219182395E0,4.144668102E0,9.790233612E0,-9.418748021E-1
1.221660312E0,4.151846409E0,9.785448074E0,-9.131609201E-1
1.224138280E0,4.135096550E0,9.797411919E0,-9.370891452E-1
1.226617135E0,4.139882088E0,9.790233612E0,-9.299107194E-1
1.229095885E0,4.111168385E0,9.795019150E0,-9.275178909E-1
1.231573853E0,4.151846409E0,9.763913155E0,-9.323035479E-1
1.234051822E0,4.144668102E0,9.792626381E0,-8.988040090E-1
1.236530624E0,4.159024715E0,9.747162819E0,-8.700901270E-1
1.239009426E0,4.156631947E0,9.768698692E0,-8.892326951E-1
1.241487343E0,4.149453640E0,9.754341125E0,-8.772686124E-1
1.243965312E0,4.156631947E0,9.763913155E0,-8.820542693E-1
1.246444114E0,4.156631947E0,9.768698692E0,-8.820542693E-1
1.248922916E0,4.166502476E0,9.763913155E0,-8.868398666E-1
1.251400885E0,4.178466320E0,9.749555588E0,-8.868398666E-1
1.253878853E0,4.176073551E0,9.756733894E0,-8.964111805E-1
1.256357655E0,4.163810730E0,9.780662537E0,-8.964111805E-1
1.258836405E0,4.168895245E0,9.773484230E0,-9.131609201E-1
1.261314374E0,4.173680782E0,9.747162819E0,-8.916255236E-1
1.263792343E0,4.139882088E0,9.763913155E0,-8.653044701E-1
1.266271145E0,4.127918243E0,9.773484230E0,-8.892326951E-1
1.268749947E0,4.142275333E0,9.759127617E0,-8.629116416E-1
1.271227864E0,4.118346691E0,9.749555588E0,-8.964111805E-1
1.273705832E0,4.103990078E0,9.761520386E0,-8.700901270E-1
1.276184635E0,4.070490360E0,9.735198975E0,-8.748757839E-1
1.278663437E0,4.048954964E0,9.756733894E0,-8.892326951E-1
1.281141405E0,4.053740501E0,9.766305923E0,-9.059824944E-1
1.283619374E0,4.041776657E0,9.756733894E0,-9.083753228E-1
1.286098176E0,4.025026798E0,9.761520386E0,-9.059824944E-1
1.288576978E0,4.017848492E0,9.742377281E0,-8.988040090E-1
1.291054895E0,4.015455723E0,9.771091461E0,-9.155537486E-1
1.293532864E0,4.034597874E0,9.756733894E0,-9.275178909E-1
1.296011666E0,4.013062477E0,9.775876999E0,-9.107680917E-1
1.298490468E0,3.996312857E0,9.766305923E0,-9.083753228E-1
1.300968385E0,4.015455723E0,9.785448074E0,-9.083753228E-1
1.303446353E0,4.005884171E0,9.773484230E0,-9.011968374E-1
1.305925155E0,4.017848492E0,9.766305923E0,-8.940183520E-1
1.308403957E0,4.013062477E0,9.783055305E0,-8.940183520E-1
1.310881926E0,4.017848492E0,9.778269768E0,-8.820542693E-1
1.313359895E0,3.998705626E0,9.778269768E0,-8.940183520E-1
1.315838697E0,4.029812336E0,9.795019150E0,-8.796614408E-1
1.318317499E0,4.039383888E0,9.780662537E0,-8.796614408E-1
1.320795416E0,4.036991119E0,9.799804688E0,-8.581260443E-1
1.323273385E0,4.015455723E0,9.804591179E0,-8.629116416E-1
1.325752187E0,4.029812336E0,9.806983948E0,-8.724829555E-1
1.328230989E0,4.041776657E0,9.816555023E0,-8.557332158E-1
1.330708905E0,4.032205105E0,9.833304405E0,-8.605188727E-1
1.333186874E0,4.046562195E0,9.828518867E0,-8.437690735E-1
1.335665676E0,4.025026798E0,9.850054741E0,-8.389834166E-1
1.338144478E0,4.027419567E0,9.847661972E0,-8.365905881E-1
1.340622447E0,4.041776657E0,9.847661972E0,-8.389834166E-1
1.343100416E0,4.032205105E0,9.840482712E0,-7.983054519E-1
1.345579218E0,4.034597874E0,9.852447510E0,-8.054839373E-1
1.348058020E0,4.060919285E0,9.866804123E0,-7.935197949E-1
1.350535937E0,4.022634029E0,9.864411354E0,-7.935197949E-1
1.353013905E0,4.010669708E0,9.862018585E0,-8.006982803E-1
1.355492707E0,4.015455723E0,9.842875481E0,-7.839485407E-1
1.357971510E0,4.027419567E0,9.845269203E0,-7.788637877E-1
1.360449426E0,4.036991119E0,9.833304405E0,-7.959126234E-1
1.362927395E0,4.036991119E0,9.850054741E0,-7.839485407E-1
1.365406249E0,4.025026798E0,9.840482712E0,-7.788637877E-1
1.367884999E0,4.041776657E0,9.852447510E0,-8.054839373E-1
1.370362968E0,4.044169426E0,9.828518867E0,-7.983054519E-1
1.372840937E0,4.053740501E0,9.838089943E0,-8.054839373E-1
1.375319739E0,4.058526516E0,9.840482712E0,-8.294121623E-1
1.377798541E0,4.060919285E0,9.828518867E0,-7.983054519E-1
1.380276457E0,4.077668667E0,9.826126099E0,-8.222336769E-1
1.382754426E0,4.084847450E0,9.816555023E0,-8.102695942E-1
1.385233228E0,4.101597309E0,9.799804688E0,-8.222336769E-1
1.387712030E0,4.096811295E0,9.816555023E0,-8.341978192E-1
1.390189947E0,4.106382847E0,9.799804688E0,-8.341978192E-1
1.392667916E0,4.120739460E0,9.792626381E0,-8.461619020E-1
1.395146770E0,4.115953922E0,9.790233612E0,-8.485547304E-1
1.397625520E0,4.125525475E0,9.780662537E0,-8.533403873E-1
1.400103489E0,4.127918243E0,9.799804688E0,-8.533403873E-1
1.402581457E0,4.115953922E0,9.785448074E0,-8.365905881E-1
1.405060260E0,4.123132706E0,9.790233612E0,-8.653044701E-1
1.407539062E0,4.137489319E0,9.771091461E0,-8.605188727E-1
1.410016978E0,4.130311012E0,9.792626381E0,-8.700901270E-1
1.412494947E0,4.118346691E0,9.790233612E0,-8.629116416E-1
1.414973749E0,4.123132706E0,9.775876999E0,-8.629116416E-1
1.417452551E0,4.113561153E0,9.773484230E0,-8.844470978E-1
1.419930520E0,4.120739460E0,9.790233612E0,-8.629116416E-1
1.422408489E0,4.094418526E0,9.802198410E0,-8.629116416E-1
1.424887291E0,4.099204063E0,9.809376717E0,-8.461619020E-1
1.427366093E0,4.089632988E0,9.783055305E0,-8.653044701E-1
1.429844010E0,4.077668667E0,9.783055305E0,-8.653044701E-1
1.432321978E0,4.065704823E0,9.787840843E0,-8.629116416E-1
1.434800780E0,4.072883129E0,9.814162254E0,-8.365905881E-1
1.437279582E0,4.082454681E0,9.790233612E0,-8.485547304E-1
1.439757499E0,4.101597309E0,9.809376717E0,-8.581260443E-1
1.442235468E0,4.082454681E0,9.792626381E0,-8.318049908E-1
1.444714270E0,4.070490360E0,9.783055305E0,-8.437690735E-1
1.447193072E0,4.077668667E0,9.802198410E0,-8.533403873E-1
1.449671041E0,4.070490360E0,9.804591179E0,-8.413762450E-1
1.452149010E0,4.075275898E0,9.804591179E0,-8.270193338E-1
1.454627812E0,4.072883129E0,9.818947792E0,-8.341978192E-1
1.457106614E0,4.063312054E0,9.792626381E0,-8.318049908E-1
1.459584530E0,4.075275898E0,9.783055305E0,-8.222336769E-1
1.462062499E0,4.075275898E0,9.799804688E0,-8.461619020E-1
1.464541301E0,4.063312054E0,9.795019150E0,-8.437690735E-1
1.467020103E0,4.068097591E0,9.795019150E0,-8.365905881E-1
1.469498020E0,4.070490360E0,9.806983948E0,-8.341978192E-1
1.471975989E0,4.068097591E0,9.799804688E0,-8.198408484E-1
1.474454843E0,4.063312054E0,9.804591179E0,-8.461619020E-1
1.476933593E0,4.058526516E0,9.797411919E0,-8.389834166E-1
1.479411562E0,4.068097591E0,9.792626381E0,-8.461619020E-1
1.481889530E0,4.070490360E0,9.802198410E0,-8.222336769E-1
1.484368332E0,4.053740501E0,9.785448074E0,-8.413762450E-1
1.486847135E0,4.056133270E0,9.790233612E0,-8.174480200E-1
1.489325051E0,4.046562195E0,9.814162254E0,-8.461619020E-1
1.491803020E0,4.041776657E0,9.823733330E0,-8.389834166E-1
1.494281822E0,4.034597874E0,9.792626381E0,-8.557332158E-1
1.496760624E0,4.022634029E0,9.806983948E0,-8.461619020E-1
1.499238593E0,4.029812336E0,9.792626381E0,-8.389834166E-1
1.501716562E0,4.044169426E0,9.792626381E0,-8.318049908E-1
1.504195364E0,4.036991119E0,9.797411919E0,-8.054839373E-1
1.506674166E0,4.027419567E0,9.804591179E0,-8.389834166E-1
1.509152082E0,4.034597874E0,9.821340561E0,-8.318049908E-1
1.511630051E0,4.032205105E0,9.821340561E0,-8.413762450E-1
1.514108853E0,4.046562195E0,9.790233612E0,-8.294121623E-1
1.516587655E0,4.039383888E0,9.823733330E0,-8.150551915E-1
1.519065572E0,4.032205105E0,9.835697174E0,-8.198408484E-1
1.521543541E0,4.053740501E0,9.854840279E0,-8.102695942E-1
1.524022343E0,4.048954964E0,9.850054741E0,-8.150551915E-1
1.526501145E0,4.034597874E0,9.857233047E0,-8.294121623E-1
1.528979114E0,4.044169426E0,9.857233047E0,-8.270193338E-1
1.531457082E0,4.036991119E0,9.871589661E0,-8.198408484E-1
1.533935885E0,4.058526516E0,9.888339996E0,-8.222336769E-1
1.536414687E0,4.032205105E0,9.854840279E0,-8.078767657E-1
1.538892603E0,4.036991119E0,9.840482712E0,-8.389834166E-1
1.541370572E0,4.044169426E0,9.838089943E0,-8.413762450E-1
1.543849374E0,4.065704823E0,9.850054741E0,-8.078767657E-1
1.546328176E0,4.060919285E0,9.847661972E0,-8.174480200E-1
1.548806093E0,4.075275898E0,9.857233047E0,-8.102695942E-1
1.551284062E0,4.056133270E0,9.869196892E0,-8.078767657E-1
1.553762916E0,4.092025757E0,9.864411354E0,-8.126623631E-1
1.556241666E0,4.096811295E0,9.854840279E0,-7.788637877E-1
1.558719635E0,4.108775616E0,9.859625816E0,-7.935197949E-1
1.561197603E0,4.089632988E0,9.854840279E0,-7.645068169E-1
1.563676405E0,4.103990078E0,9.850054741E0,-7.597211599E-1
1.566155207E0,4.111168385E0,9.833304405E0,-7.525427341E-1
1.568633124E0,4.130311012E0,9.835697174E0,-7.740781307E-1
1.571111093E0,4.108775616E0,9.818947792E0,-7.597211599E-1
1.573589895E0,4.127918243E0,9.804591179E0,-7.429714203E-1
1.576068697E0,4.111168385E0,9.797411919E0,-7.525427341E-1
1.578546666E0,4.111168385E0,9.806983948E0,-7.334001660E-1
1.581024635E0,4.127918243E0,9.797411919E0,-7.262216806E-1
1.583503437E0,4.127918243E0,9.806983948E0,-7.166503668E-1
1.585982239E0,4.113561153E0,9.795019150E0,-7.453642488E-1
1.588460155E0,4.096811295E0,9.790233612E0,-7.238288522E-1
1.590938124E0,4.106382847E0,9.778269768E0,-7.525427341E-1
1.593416926E0,4.094418526E0,9.778269768E0,-7.453642488E-1
1.595895728E0,4.092025757E0,9.787840843E0,-7.692924738E-1
1.598373645E0,4.075275898E0,9.792626381E0,-7.716853023E-1
1.600851614E0,4.084847450E0,9.787840843E0,-7.740781307E-1
1.603330416E0,4.080061913E0,9.790233612E0,-7.764709592E-1
1.605809218E0,4.044169426E0,9.804591179E0,-7.788637877E-1
1.608287187E0,4.025026798E0,9.795019150E0,-7.911269665E-1
1.610765155E0,4.025026798E0,9.816555023E0,-7.983054519E-1
1.613243957E0,4.005884171E0,9.816555023E0,-8.150551915E-1
1.615722760E0,4.027419567E0,9.821340561E0,-8.150551915E-1
1.618200676E0,3.989134550E0,9.811769485E0,-8.294121623E-1
1.620678645E0,3.998705626E0,9.814162254E0,-8.270193338E-1
1.623157447E0,3.991527319E0,9.830911636E0,-8.533403873E-1
1.625636249E0,3.991527319E0,9.821340561E0,-8.509475589E-1
1.628114166E0,4.010669708E0,9.806983948E0,-8.581260443E-1
1.630592135E0,4.010669708E0,9.806983948E0,-8.605188727E-1
1.633070989E0,4.008276939E0,9.799804688E0,-8.365905881E-1
1.635549739E0,4.005884171E0,9.804591179E0,-8.724829555E-1
1.638027707E0,4.020241261E0,9.806983948E0,-8.413762450E-1
1.640505676E0,4.039383888E0,9.802198410E0,-8.318049908E-1
1.642984478E0,4.041776657E0,9.783055305E0,-8.533403873E-1
1.645463280E0,4.058526516E0,9.790233612E0,-8.341978192E-1
1.647941197E0,4.058526516E0,9.780662537E0,-8.150551915E-1
1.650419166E0,4.048954964E0,9.771091461E0,-8.318049908E-1
1.652897968E0,4.068097591E0,9.775876999E0,-8.294121623E-1
1.655376770E0,4.070490360E0,9.759127617E0,-8.270193338E-1
1.657854687E0,4.063312054E0,9.763913155E0,-8.054839373E-1
1.660332707E0,4.056133270E0,9.771091461E0,-8.150551915E-1
1.662811510E0,4.053740501E0,9.771091461E0,-7.983054519E-1
1.665290312E0,4.060919285E0,9.778269768E0,-7.887341380E-1
1.667768228E0,4.092025757E0,9.759127617E0,-7.692924738E-1
1.670246197E0,4.099204063E0,9.771091461E0,-7.477570772E-1
1.672724999E0,4.084847450E0,9.775876999E0,-7.525427341E-1
1.675203801E0,4.099204063E0,9.768698692E0,-7.429714203E-1
1.677681718E0,4.096811295E0,9.775876999E0,-7.405785918E-1
1.680159687E0,4.094418526E0,9.795019150E0,-7.477570772E-1
1.682638489E0,4.108775616E0,9.799804688E0,-7.357929349E-1
1.685117291E0,4.130311012E0,9.778269768E0,-7.429714203E-1
1.687595260E0,4.147060871E0,9.835697174E0,-7.573283911E-1
1.690073228E0,4.123132706E0,9.809376717E0,-7.334001660E-1
1.692552030E0,4.113561153E0,9.785448074E0,-7.214360237E-1
1.695030832E0,4.115953922E0,9.780662537E0,-7.429714203E-1
1.697508749E0,4.137489319E0,9.795019150E0,-7.166503668E-1
1.699986718E0,4.149453640E0,9.809376717E0,-7.357929349E-1
1.702465520E0,4.125525475E0,9.783055305E0,-7.310073376E-1
1.704944322E0,4.127918243E0,9.802198410E0,-7.357929349E-1
1.707422239E0,4.154239178E0,9.809376717E0,-7.381857634E-1
1.709900207E0,4.125525475E0,9.797411919E0,-7.549355626E-1
1.712379062E0,4.132703781E0,9.802198410E0,-7.597211599E-1
1.714857812E0,4.115953922E0,9.797411919E0,-7.525427341E-1
1.717335780E0,4.142275333E0,9.826126099E0,-7.573283911E-1
1.719813749E0,4.125525475E0,9.806983948E0,-7.621139884E-1
1.722292551E0,4.118346691E0,9.787840843E0,-7.477570772E-1
1.724771353E0,4.099204063E0,9.811769485E0,-7.525427341E-1
1.727249270E0,4.115953922E0,9.818947792E0,-7.357929349E-1
1.729727239E0,4.115953922E0,9.823733330E0,-7.310073376E-1
1.732206041E0,4.120739460E0,9.818947792E0,-7.118647099E-1
1.734684843E0,4.111168385E0,9.826126099E0,-7.286145091E-1
1.737162812E0,4.108775616E0,9.818947792E0,-6.951149702E-1
1.739640780E0,4.113561153E0,9.823733330E0,-6.927221417E-1
1.742119582E0,4.108775616E0,9.828518867E0,-6.759724021E-1
1.744598385E0,4.123132706E0,9.818947792E0,-6.568298340E-1
1.747076301E0,4.132703781E0,9.847661972E0,-6.424728632E-1
1.749554270E0,4.111168385E0,9.847661972E0,-6.496513486E-1
1.752033072E0,4.123132706E0,9.830911636E0,-6.281159520E-1
1.754511874E0,4.139882088E0,9.821340561E0,-6.352944374E-1
1.756989791E0,4.147060871E0,9.814162254E0,-6.257231236E-1
1.759467760E0,4.149453640E0,9.806983948E0,-6.329016089E-1
1.761946614E0,4.159024715E0,9.809376717E0,-6.089733839E-1
1.764425364E0,4.166502476E0,9.785448074E0,-6.137589812E-1
1.766903332E0,4.166502476E0,9.780662537E0,-6.065805554E-1
1.769381301E0,4.178466320E0,9.775876999E0,-6.089733839E-1
1.771860103E0,4.166502476E0,9.773484230E0,-6.089733839E-1
1.774338905E0,4.192823410E0,9.761520386E0,-5.946164131E-1
1.776816822E0,4.163810730E0,9.766305923E0,-5.946164131E-1
1.779294791E0,4.207180500E0,9.763913155E0,-5.898307562E-1
1.781773593E0,4.197608948E0,9.759127617E0,-5.730810165E-1
1.784252395E0,4.185645103E0,9.747162819E0,-5.850451589E-1
1.786730312E0,4.202394962E0,9.749555588E0,-6.017948985E-1
1.789208280E0,4.209573269E0,9.749555588E0,-6.089733839E-1
1.791687135E0,4.219144344E0,9.749555588E0,-5.994020700E-1
1.794165885E0,4.223930359E0,9.756733894E0,-6.017948985E-1
1.796643853E0,4.192823410E0,9.739984512E0,-6.137589812E-1
1.799121822E0,4.223930359E0,9.730413437E0,-6.017948985E-1
1.801600624E0,4.257429600E0,9.728020668E0,-6.233302951E-1
1.804079426E0,4.243072987E0,9.723235130E0,-6.329016089E-1
1.806557343E0,4.245465755E0,9.699306488E0,-6.496513486E-1
1.809035312E0,4.262215137E0,9.689735413E0,-6.711867452E-1
1.811514114E0,4.262215137E0,9.661021233E0,-6.711867452E-1
1.813992916E0,4.271786690E0,9.668199539E0,-6.879364848E-1
1.816470885E0,4.293322086E0,9.639486313E0,-6.999006271E-1
1.818948853E0,4.281357765E0,9.627521515E0,-7.238288522E-1
1.821427655E0,4.278964996E0,9.598808289E0,-7.310073376E-1
1.823906457E0,4.300500393E0,9.603593826E0,-7.453642488E-1
1.826384374E0,4.293322086E0,9.596415520E0,-7.501499057E-1
1.828862343E0,4.305285931E0,9.601201057E0,-7.621139884E-1
1.831341145E0,4.302893162E0,9.586843491E0,-7.668996453E-1
1.833819947E0,4.324428558E0,9.594022751E0,-7.716853023E-1
1.836297864E0,4.324428558E0,9.579665184E0,-7.788637877E-1
1.838775832E0,4.334000111E0,9.589237213E0,-7.815557122E-1
1.841254687E0,4.338785648E0,9.586843491E0,-7.959126234E-1
1.843733437E0,4.322035789E0,9.567701340E0,-7.935197949E-1
1.846211405E0,4.317250252E0,9.560523033E0,-7.983054519E-1
1.848689374E0,4.341178417E0,9.577272415E0,-8.174480200E-1
1.851168176E0,4.350749969E0,9.574879646E0,-7.911269665E-1
1.853646978E0,4.341178417E0,9.596415520E0,-7.764709592E-1
1.856124895E0,4.343571186E0,9.589237213E0,-8.030911088E-1
1.858602864E0,4.326821327E0,9.605986595E0,-7.764709592E-1
1.861081666E0,4.343571186E0,9.625128746E0,-7.645068169E-1
1.863560468E0,4.353142738E0,9.610772133E0,-7.549355626E-1
1.866038437E0,4.345963955E0,9.613164902E0,-7.621139884E-1
1.868516405E0,4.331607342E0,9.601201057E0,-7.429714203E-1
1.870995207E0,4.326821327E0,9.605986595E0,-7.477570772E-1
1.873474010E0,4.334000111E0,9.627521515E0,-7.645068169E-1
1.875951926E0,4.310071945E0,9.632308006E0,-7.405785918E-1
1.878429895E0,4.314857483E0,9.646664619E0,-7.094719410E-1
1.880908697E0,4.312464714E0,9.639486313E0,-7.046862841E-1
1.883387499E0,4.326821327E0,9.658628464E0,-6.759724021E-1
1.885865416E0,4.326821327E0,9.646664619E0,-6.616154313E-1
1.888343385E0,4.300500393E0,9.637093544E0,-6.711867452E-1
1.890822239E0,4.322035789E0,9.641879082E0,-6.640082598E-1
1.893300989E0,4.314857483E0,9.639486313E0,-6.687939167E-1
1.895778957E0,4.302893162E0,9.637093544E0,-6.711867452E-1
1.898256926E0,4.305285931E0,9.661021233E0,-6.616154313E-1
1.900735728E0,4.286143780E0,9.668199539E0,-6.496513486E-1
1.903214530E0,4.288536549E0,9.680164337E0,-6.305087805E-1
1.905692447E0,4.312464714E0,9.682557106E0,-6.376872063E-1
1.908170416E0,4.295714855E0,9.694520950E0,-6.161518097E-1
1.910649218E0,4.286143780E0,9.704092026E0,-6.161518097E-1
1.913128020E0,4.283750534E0,9.699306488E0,-6.209374666E-1
1.915605989E0,4.288536549E0,9.706484795E0,-6.305087805E-1
1.918083957E0,4.317250252E0,9.708877563E0,-6.137589812E-1
1.920562760E0,4.305285931E0,9.725627899E0,-6.233302951E-1
1.923041562E0,4.307679176E0,9.737591743E0,-6.113662124E-1
1.925519478E0,4.305285931E0,9.706484795E0,-6.017948985E-1
1.927997447E0,4.336392879E0,9.735198975E0,-5.994020700E-1
1.930476249E0,4.329214573E0,9.747162819E0,-5.994020700E-1
1.932955051E0,4.334000111E0,9.751948357E0,-5.946164131E-1
1.935432968E0,4.341178417E0,9.735198975E0,-5.850451589E-1
1.937910937E0,4.334000111E0,9.725627899E0,-5.826523304E-1
1.940389791E0,4.336392879E0,9.725627899E0,-5.754738450E-1
1.942868541E0,4.331607342E0,9.737591743E0,-5.922235847E-1
1.945346510E0,4.329214573E0,9.742377281E0,-5.754738450E-1
1.947824478E0,4.355535507E0,9.742377281E0,-5.730810165E-1
1.950303280E0,4.345963955E0,9.756733894E0,-5.587241054E-1
1.952782082E0,4.331607342E0,9.754341125E0,-5.635097623E-1
1.955259999E0,4.317250252E0,9.756733894E0,-5.491527915E-1
1.957737968E0,4.345963955E0,9.783055305E0,-5.587241054E-1
1.960216770E0,4.350749969E0,9.778269768E0,-5.300102234E-1
1.962695572E0,4.334000111E0,9.790233612E0,-5.276173949E-1
1.965173489E0,4.343571186E0,9.787840843E0,-5.300102234E-1
1.967651457E0,4.369892120E0,9.816555023E0,-5.156532526E-1
1.970130312E0,4.355535507E0,9.809376717E0,-5.084748268E-1
1.972609114E0,4.338785648E0,9.816555023E0,-5.180460811E-1
1.975087030E0,4.348356724E0,9.823733330E0,-5.108676553E-1
1.977564999E0,4.355535507E0,9.816555023E0,-4.941178858E-1
1.980043801E0,4.348356724E0,9.799804688E0,-4.845465720E-1
1.982522603E0,4.360321045E0,9.797411919E0,-4.725824594E-1
1.985000520E0,4.348356724E0,9.799804688E0,-4.845465720E-1
1.987478489E0,4.384249210E0,9.799804688E0,-4.893322289E-1
1.989957291E0,4.381856441E0,9.814162254E0,-4.677968323E-1
1.992436093E0,4.398606300E0,9.804591179E0,-4.749752879E-1
1.994914062E0,4.396213531E0,9.816555023E0,-4.725824594E-1
1.997392030E0,4.393820763E0,9.814162254E0,-4.558327198E-1
1.999870832E0,4.408177376E0,9.802198410E0,-4.390829504E-1
2.002349635E0,4.403391838E0,9.804591179E0,-4.486542344E-1
2.004827551E0,4.398606300E0,9.814162254E0,-4.366901219E-1
2.007305520E0,4.391427994E0,9.826126099E0,-4.199403822E-1
2.009784322E0,4.396213531E0,9.814162254E0,-4.414757788E-1
2.012263124E0,4.398606300E0,9.811769485E0,-4.390829504E-1
2.014741093E0,4.379463673E0,9.806983948E0,-4.462614357E-1
2.017219062E0,4.367499352E0,9.806983948E0,-4.271188378E-1
2.019697864E0,4.372285366E0,9.795019150E0,-4.175475538E-1
2.022176666E0,4.365106583E0,9.802198410E0,-4.055834413E-1
2.024654582E0,4.365106583E0,9.780662537E0,-4.103690982E-1
2.027132551E0,4.353142738E0,9.778269768E0,-4.223332107E-1
2.029611353E0,4.350749969E0,9.792626381E0,-4.342973232E-1
2.032090155E0,4.345963955E0,9.763913155E0,-4.677968323E-1
2.034568072E0,4.345963955E0,9.768698692E0,-4.725824594E-1
2.037046041E0,4.322035789E0,9.773484230E0,-4.749752879E-1
2.039524843E0,4.326821327E0,9.763913155E0,-4.821537733E-1
2.042003645E0,4.314857483E0,9.756733894E0,-4.965106845E-1
2.044481614E0,4.319643021E0,9.730413437E0,-5.228317380E-1
2.046959582E0,4.322035789E0,9.749555588E0,-5.300102234E-1
2.049438385E0,4.295714855E0,9.728020668E0,-5.395814776E-1
2.051917187E0,4.302893162E0,9.749555588E0,-5.443671346E-1
2.054395103E0,4.302893162E0,9.725627899E0,-5.467599630E-1
2.056873072E0,4.288536549E0,9.718449593E0,-5.611169338E-1
2.059351874E0,4.255036831E0,9.713663101E0,-5.682953596E-1
2.061830676E0,4.269393921E0,9.725627899E0,-5.874379873E-1
2.064308593E0,4.286143780E0,9.699306488E0,-5.898307562E-1
2.066786562E0,4.269393921E0,9.708877563E0,-6.017948985E-1
2.069265416E0,4.252644062E0,9.708877563E0,-6.257231236E-1
2.071744166E0,4.271786690E0,9.701699257E0,-6.113662124E-1
2.074222135E0,4.252644062E0,9.708877563E0,-6.496513486E-1
2.076700103E0,4.271786690E0,9.696913719E0,-6.520441771E-1
2.079178905E0,4.300500393E0,9.692128181E0,-6.711867452E-1
2.081657707E0,4.288536549E0,9.689735413E0,-6.783652306E-1
2.084135624E0,4.286143780E0,9.708877563E0,-6.711867452E-1
2.086613593E0,4.283750534E0,9.701699257E0,-7.166503668E-1
2.089092447E0,4.293322086E0,9.701699257E0,-7.262216806E-1
2.091571197E0,4.283750534E0,9.706484795E0,-7.046862841E-1
2.094049166E0,4.278964996E0,9.718449593E0,-7.286145091E-1
2.096527135E0,4.274179459E0,9.694520950E0,-6.975077987E-1
2.099005937E0,4.305285931E0,9.711270332E0,-7.094719410E-1
2.101484739E0,4.298107624E0,9.694520950E0,-7.262216806E-1
2.103962655E0,4.290929317E0,9.687342644E0,-7.046862841E-1
2.106440624E0,4.293322086E0,9.706484795E0,-7.262216806E-1
2.108919426E0,4.298107624E0,9.706484795E0,-7.310073376E-1
2.111398228E0,4.302893162E0,9.701699257E0,-7.238288522E-1
2.113876197E0,4.322035789E0,9.701699257E0,-7.070791125E-1
2.116354166E0,4.310071945E0,9.711270332E0,-7.070791125E-1
2.118832968E0,4.322035789E0,9.701699257E0,-6.999006271E-1
2.121311718E0,4.348356724E0,9.694520950E0,-6.975077987E-1
2.123789687E0,4.345963955E0,9.684949875E0,-6.735795736E-1
2.126267655E0,4.341178417E0,9.696913719E0,-6.640082598E-1
2.128746457E0,4.329214573E0,9.668199539E0,-6.592226624E-1
2.131225260E0,4.353142738E0,9.661021233E0,-6.448656917E-1
2.133703176E0,4.341178417E0,9.680164337E0,-6.496513486E-1
2.136181145E0,4.343571186E0,9.677771568E0,-6.424728632E-1
2.138659947E0,4.345963955E0,9.684949875E0,-6.496513486E-1
2.141138749E0,4.353142738E0,9.670592308E0,-6.424728632E-1
2.143616718E0,4.350749969E0,9.675378799E0,-6.352944374E-1
2.146094687E0,4.360321045E0,9.687342644E0,-6.281159520E-1
2.148573489E0,4.362713814E0,9.684949875E0,-6.305087805E-1
2.151052291E0,4.353142738E0,9.684949875E0,-6.400800347E-1
2.153530207E0,4.336392879E0,9.687342644E0,-6.281159520E-1
2.156008176E0,4.367499352E0,9.687342644E0,-6.281159520E-1
2.158486978E0,4.331607342E0,9.689735413E0,-6.592226624E-1
2.160965780E0,4.338785648E0,9.701699257E0,-6.496513486E-1
2.163443749E0,4.343571186E0,9.689735413E0,-6.448656917E-1
2.165921718E0,4.353142738E0,9.696913719E0,-6.640082598E-1
2.168400520E0,4.360321045E0,9.682557106E0,-6.496513486E-1
2.170879270E0,4.348356724E0,9.689735413E0,-6.879364848E-1
2.173357239E0,4.367499352E0,9.694520950E0,-6.759724021E-1
2.175835207E0,4.362713814E0,9.680164337E0,-6.999006271E-1
2.178314010E0,4.329214573E0,9.689735413E0,-6.855437160E-1
2.180792812E0,4.345963955E0,9.675378799E0,-6.999006271E-1
2.183270728E0,4.357928276E0,9.672985077E0,-6.927221417E-1
2.185748697E0,4.341178417E0,9.682557106E0,-6.999006271E-1
2.188227499E0,4.329214573E0,9.677771568E0,-7.142575383E-1
2.190706301E0,4.317250252E0,9.680164337E0,-7.046862841E-1
2.193184270E0,4.307679176E0,9.672985077E0,-7.046862841E-1
2.195662239E0,4.324428558E0,9.682557106E0,-7.022934556E-1
2.198141041E0,4.314857483E0,9.687342644E0,-7.070791125E-1
2.200619843E0,4.319643021E0,9.682557106E0,-6.951149702E-1
2.203097760E0,4.305285931E0,9.661021233E0,-6.831508875E-1
2.205575728E0,4.298107624E0,9.677771568E0,-6.640082598E-1
2.208054530E0,4.300500393E0,9.677771568E0,-6.711867452E-1
2.210533332E0,4.281357765E0,9.689735413E0,-6.711867452E-1
2.213011301E0,4.271786690E0,9.692128181E0,-6.831508875E-1
2.215489270E0,4.274179459E0,9.684949875E0,-6.855437160E-1
2.217968072E0,4.264608383E0,9.701699257E0,-6.759724021E-1
2.220446874E0,4.283750534E0,9.694520950E0,-6.759724021E-1
2.222924791E0,4.310071945E0,9.704092026E0,-6.807580590E-1
2.225402760E0,4.283750534E0,9.687342644E0,-6.711867452E-1
2.227881562E0,4.293322086E0,9.694520950E0,-6.616154313E-1
2.230360364E0,4.295714855E0,9.701699257E0,-6.783652306E-1
2.232838280E0,4.293322086E0,9.699306488E0,-6.831508875E-1
2.235316249E0,4.288536549E0,9.711270332E0,-6.448656917E-1
2.237795103E0,4.281357765E0,9.696913719E0,-6.496513486E-1
2.240273853E0,4.269393921E0,9.711270332E0,-6.424728632E-1
2.242751822E0,4.298107624E0,9.713663101E0,-6.424728632E-1
2.245229791E0,4.307679176E0,9.711270332E0,-6.352944374E-1
2.247708593E0,4.298107624E0,9.708877563E0,-6.329016089E-1
2.250187395E0,4.312464714E0,9.701699257E0,-6.257231236E-1
2.252665312E0,4.293322086E0,9.706484795E0,-6.376872063E-1
2.255143280E0,4.288536549E0,9.708877563E0,-6.137589812E-1
2.257622082E0,4.290929317E0,9.708877563E0,-6.185446382E-1
2.260100885E0,4.300500393E0,9.706484795E0,-6.329016089E-1
2.262578853E0,4.293322086E0,9.708877563E0,-6.257231236E-1
2.265056822E0,4.310071945E0,9.716055870E0,-6.496513486E-1
2.267535624E0,4.307679176E0,9.720842361E0,-6.113662124E-1
2.270014426E0,4.286143780E0,9.716055870E0,-6.209374666E-1
2.272492343E0,4.293322086E0,9.716055870E0,-6.257231236E-1
2.274970312E0,4.288536549E0,9.718449593E0,-6.209374666E-1
2.277449114E0,4.317250252E0,9.718449593E0,-6.329016089E-1
2.279927916E0,4.305285931E0,9.732806206E0,-6.544370055E-1
2.282405832E0,4.322035789E0,9.713663101E0,-6.329016089E-1
2.284883801E0,4.319643021E0,9.761520386E0,-6.257231236E-1
2.287362655E0,4.314857483E0,9.732806206E0,-6.400800347E-1
2.289841457E0,4.310071945E0,9.744770050E0,-6.209374666E-1
2.292319374E0,4.324428558E0,9.735198975E0,-6.544370055E-1
2.294797343E0,4.314857483E0,9.723235130E0,-6.759724021E-1
2.297276145E0,4.329214573E0,9.723235130E0,-6.448656917E-1
2.299754947E0,4.338785648E0,9.720842361E0,-6.807580590E-1
2.302232864E0,4.341178417E0,9.718449593E0,-6.640082598E-1
2.304710832E0,4.334000111E0,9.723235130E0,-6.544370055E-1
2.307189635E0,4.348356724E0,9.718449593E0,-6.664010882E-1
2.309668437E0,4.341178417E0,9.735198975E0,-6.592226624E-1
2.312146405E0,4.322035789E0,9.711270332E0,-6.759724021E-1
2.314624374E0,4.345963955E0,9.716055870E0,-6.831508875E-1
2.317103176E0,4.319643021E0,9.696913719E0,-6.855437160E-1
2.319581978E0,4.336392879E0,9.716055870E0,-6.951149702E-1
2.322059895E0,4.322035789E0,9.706484795E0,-6.855437160E-1
2.324537864E0,4.341178417E0,9.718449593E0,-6.999006271E-1
2.327016666E0,4.355535507E0,9.713663101E0,-6.855437160E-1
2.329495468E0,4.348356724E0,9.723235130E0,-6.951149702E-1
2.331973437E0,4.334000111E0,9.713663101E0,-6.759724021E-1
2.334451405E0,4.338785648E0,9.718449593E0,-7.022934556E-1
2.336930207E0,4.343571186E0,9.713663101E0,-6.831508875E-1
2.339408957E0,4.345963955E0,9.692128181E0,-6.664010882E-1
2.341886926E0,4.360321045E0,9.704092026E0,-6.783652306E-1
2.344364895E0,4.348356724E0,9.682557106E0,-6.951149702E-1
2.346843697E0,4.336392879E0,9.689735413E0,-6.807580590E-1
2.349322499E0,4.336392879E0,9.675378799E0,-6.927221417E-1
2.351800416E0,4.331607342E0,9.682557106E0,-6.616154313E-1
2.354278385E0,4.355535507E0,9.704092026E0,-6.640082598E-1
2.356757239E0,4.360321045E0,9.670592308E0,-6.759724021E-1
2.359235989E0,4.345963955E0,9.672985077E0,-6.927221417E-1
2.361713957E0,4.348356724E0,9.663414001E0,-6.664010882E-1
2.364191926E0,4.331607342E0,9.672985077E0,-6.735795736E-1
2.366670728E0,4.336392879E0,9.687342644E0,-6.783652306E-1
2.369149530E0,4.341178417E0,9.684949875E0,-6.520441771E-1
2.371627447E0,4.348356724E0,9.689735413E0,-6.616154313E-1
2.374105416E0,4.341178417E0,9.684949875E0,-6.664010882E-1
2.376584218E0,4.336392879E0,9.696913719E0,-6.759724021E-1
2.379063020E0,4.374678135E0,9.696913719E0,-6.735795736E-1
2.381540989E0,4.348356724E0,9.699306488E0,-6.664010882E-1
2.384018957E0,4.355535507E0,9.706484795E0,-6.616154313E-1
2.386497760E0,4.365106583E0,9.708877563E0,-6.616154313E-1
2.388976562E0,4.360321045E0,9.701699257E0,-6.664010882E-1
2.391454478E0,4.365106583E0,9.701699257E0,-6.759724021E-1
2.393932447E0,4.348356724E0,9.699306488E0,-6.664010882E-1
2.396411249E0,4.367499352E0,9.716055870E0,-6.783652306E-1
2.398890051E0,4.362713814E0,9.699306488E0,-6.711867452E-1
2.401367968E0,4.374678135E0,9.696913719E0,-6.831508875E-1
2.403845937E0,4.353142738E0,9.720842361E0,-6.903293133E-1
2.406324791E0,4.377070904E0,9.708877563E0,-7.142575383E-1
2.408803541E0,4.360321045E0,9.713663101E0,-6.855437160E-1
2.411281510E0,4.377070904E0,9.720842361E0,-6.951149702E-1
2.413759478E0,4.350749969E0,9.689735413E0,-6.879364848E-1
2.416238280E0,4.365106583E0,9.706484795E0,-6.903293133E-1
2.418717082E0,4.362713814E0,9.720842361E0,-6.879364848E-1
2.421194999E0,4.377070904E0,9.689735413E0,-6.664010882E-1
2.423672968E0,4.372285366E0,9.692128181E0,-6.592226624E-1
2.426151770E0,4.360321045E0,9.689735413E0,-6.640082598E-1
2.428630572E0,4.365106583E0,9.699306488E0,-6.735795736E-1
2.431108541E0,4.372285366E0,9.699306488E0,-6.592226624E-1
2.433586510E0,4.362713814E0,9.687342644E0,-6.520441771E-1
2.436065312E0,4.386641979E0,9.692128181E0,-6.520441771E-1
2.438544114E0,4.355535507E0,9.706484795E0,-6.520441771E-1
2.441022030E0,4.372285366E0,9.699306488E0,-6.520441771E-1
2.443499999E0,4.374678135E0,9.689735413E0,-6.544370055E-1
2.445978801E0,4.372285366E0,9.694520950E0,-6.472585201E-1
2.448457603E0,4.362713814E0,9.682557106E0,-6.281159520E-1
2.450935572E0,4.377070904E0,9.684949875E0,-6.687939167E-1
2.453413541E0,4.369892120E0,9.680164337E0,-6.616154313E-1
2.455892343E0,4.379463673E0,9.701699257E0,-6.664010882E-1
2.458371145E0,4.377070904E0,9.682557106E0,-6.616154313E-1
2.460849062E0,4.362713814E0,9.696913719E0,-6.664010882E-1
2.463327030E0,4.377070904E0,9.677771568E0,-6.616154313E-1
2.465805832E0,4.367499352E0,9.687342644E0,-6.807580590E-1
2.468284635E0,4.379463673E0,9.708877563E0,-6.783652306E-1
2.470762551E0,4.396213531E0,9.708877563E0,-6.927221417E-1
2.473240520E0,4.365106583E0,9.701699257E0,-6.855437160E-1
2.475719374E0,4.367499352E0,9.687342644E0,-7.046862841E-1
2.478198124E0,4.384249210E0,9.694520950E0,-6.975077987E-1
2.480676093E0,4.369892120E0,9.696913719E0,-6.951149702E-1
2.483154062E0,4.360321045E0,9.699306488E0,-7.094719410E-1
2.485632864E0,4.379463673E0,9.696913719E0,-7.094719410E-1
2.488111666E0,4.369892120E0,9.704092026E0,-7.190431952E-1
2.490589582E0,4.379463673E0,9.706484795E0,-7.046862841E-1
2.493067551E0,4.360321045E0,9.701699257E0,-7.142575383E-1
2.495546353E0,4.348356724E0,9.682557106E0,-7.094719410E-1
2.498025155E0,4.350749969E0,9.677771568E0,-7.094719410E-1
2.500503124E0,4.365106583E0,9.689735413E0,-7.070791125E-1
2.502981093E0,4.357928276E0,9.689735413E0,-6.903293133E-1
2.505459895E0,4.341178417E0,9.680164337E0,-6.759724021E-1
2.507938697E0,4.345963955E0,9.687342644E0,-6.735795736E-1
2.510416614E0,4.355535507E0,9.704092026E0,-6.711867452E-1
2.512894582E0,4.350749969E0,9.694520950E0,-6.520441771E-1
2.515373385E0,4.357928276E0,9.694520950E0,-6.544370055E-1
2.517852187E0,4.367499352E0,9.684949875E0,-6.496513486E-1
2.520330103E0,4.353142738E0,9.692128181E0,-6.520441771E-1
2.522808072E0,4.367499352E0,9.677771568E0,-6.664010882E-1
2.525286926E0,4.345963955E0,9.694520950E0,-6.400800347E-1
2.527765728E0,4.355535507E0,9.680164337E0,-6.448656917E-1
2.530243645E0,4.360321045E0,9.689735413E0,-6.640082598E-1
2.532721614E0,4.372285366E0,9.675378799E0,-6.400800347E-1
2.535200416E0,4.367499352E0,9.687342644E0,-6.687939167E-1
2.537679218E0,4.377070904E0,9.684949875E0,-6.568298340E-1
2.540157135E0,4.389034748E0,9.689735413E0,-6.592226624E-1
2.542635103E0,4.379463673E0,9.692128181E0,-6.879364848E-1
2.545113905E0,4.357928276E0,9.680164337E0,-7.070791125E-1
2.547592707E0,4.367499352E0,9.677771568E0,-6.759724021E-1
2.550070676E0,4.389034748E0,9.675378799E0,-6.903293133E-1
2.552548645E0,4.389034748E0,9.672985077E0,-7.070791125E-1
2.555027447E0,4.384249210E0,9.677771568E0,-6.999006271E-1
2.557506249E0,4.384249210E0,9.689735413E0,-7.070791125E-1
2.559984166E0,4.396213531E0,9.680164337E0,-7.166503668E-1
2.562462135E0,4.396213531E0,9.677771568E0,-7.070791125E-1
2.564940937E0,4.377070904E0,9.680164337E0,-7.118647099E-1
2.567419739E0,4.360321045E0,9.665806770E0,-7.166503668E-1
2.569897707E0,4.386641979E0,9.680164337E0,-6.687939167E-1
2.572375676E0,4.343571186E0,9.684949875E0,-6.855437160E-1
2.574854478E0,4.372285366E0,9.675378799E0,-6.783652306E-1
2.577333280E0,4.357928276E0,9.680164337E0,-6.903293133E-1
2.579811197E0,4.357928276E0,9.675378799E0,-6.927221417E-1
2.582289166E0,4.362713814E0,9.687342644E0,-6.855437160E-1
2.584767968E0,4.345963955E0,9.680164337E0,-6.664010882E-1
2.587246770E0,4.350749969E0,9.680164337E0,-6.759724021E-1
2.589724687E0,4.353142738E0,9.675378799E0,-6.879364848E-1
2.592202655E0,4.343571186E0,9.699306488E0,-6.544370055E-1
2.594681510E0,4.367499352E0,9.689735413E0,-6.544370055E-1
2.597160260E0,4.336392879E0,9.701699257E0,-6.400800347E-1
2.599638228E0,4.350749969E0,9.699306488E0,-6.448656917E-1
2.602116197E0,4.345963955E0,9.704092026E0,-6.664010882E-1
2.604594999E0,4.348356724E0,9.706484795E0,-6.592226624E-1
2.607073801E0,4.336392879E0,9.718449593E0,-6.687939167E-1
2.609551718E0,4.331607342E0,9.706484795E0,-6.592226624E-1
2.612029687E0,4.326821327E0,9.713663101E0,-6.568298340E-1
2.614508541E0,4.312464714E0,9.696913719E0,-6.424728632E-1
2.616987291E0,4.336392879E0,9.701699257E0,-6.544370055E-1
2.619465260E0,4.324428558E0,9.708877563E0,-6.329016089E-1
2.621943228E0,4.331607342E0,9.713663101E0,-6.592226624E-1
2.624422030E0,4.298107624E0,9.723235130E0,-6.520441771E-1
2.626900832E0,4.307679176E0,9.735198975E0,-6.616154313E-1
2.629378749E0,4.317250252E0,9.699306488E0,-6.664010882E-1
2.631856718E0,4.307679176E0,9.708877563E0,-6.855437160E-1
2.634335520E0,4.300500393E0,9.711270332E0,-6.664010882E-1
2.636814322E0,4.288536549E0,9.689735413E0,-6.616154313E-1
2.639292291E0,4.302893162E0,9.723235130E0,-6.711867452E-1
2.641770260E0,4.312464714E0,9.737591743E0,-6.568298340E-1
2.644249062E0,4.298107624E0,9.735198975E0,-6.448656917E-1
2.646727864E0,4.305285931E0,9.725627899E0,-6.448656917E-1
2.649205780E0,4.288536549E0,9.718449593E0,-6.568298340E-1
2.651683749E0,4.286143780E0,9.718449593E0,-6.352944374E-1
2.654162551E0,4.283750534E0,9.723235130E0,-6.472585201E-1
2.656641353E0,4.322035789E0,9.723235130E0,-6.376872063E-1
2.659119270E0,4.295714855E0,9.718449593E0,-6.424728632E-1
2.661597239E0,4.307679176E0,9.720842361E0,-6.424728632E-1
2.664076093E0,4.305285931E0,9.728020668E0,-6.352944374E-1
2.666554843E0,4.295714855E0,9.723235130E0,-6.329016089E-1
2.669032812E0,4.302893162E0,9.718449593E0,-6.400800347E-1
2.671510780E0,4.314857483E0,9.706484795E0,-6.448656917E-1
2.673989582E0,4.298107624E0,9.689735413E0,-6.400800347E-1
2.676468385E0,4.307679176E0,9.716055870E0,-6.448656917E-1
2.678946301E0,4.326821327E0,9.730413437E0,-6.568298340E-1
2.681424270E0,4.312464714E0,9.711270332E0,-6.496513486E-1
2.683903124E0,4.307679176E0,9.728020668E0,-6.376872063E-1
2.686381874E0,4.314857483E0,9.711270332E0,-6.496513486E-1
2.688859843E0,4.312464714E0,9.725627899E0,-6.616154313E-1
2.691337812E0,4.302893162E0,9.718449593E0,-6.544370055E-1
2.693816614E0,4.307679176E0,9.725627899E0,-6.544370055E-1
2.696295416E0,4.326821327E0,9.716055870E0,-6.711867452E-1
2.698773332E0,4.319643021E0,9.718449593E0,-6.496513486E-1
2.701251301E0,4.295714855E0,9.725627899E0,-6.305087805E-1
2.703730103E0,4.298107624E0,9.723235130E0,-6.376872063E-1
2.706208905E0,4.314857483E0,9.725627899E0,-6.281159520E-1
2.708686874E0,4.295714855E0,9.718449593E0,-6.305087805E-1
2.711164843E0,4.305285931E0,9.706484795E0,-6.376872063E-1
2.713643645E0,4.302893162E0,9.723235130E0,-6.305087805E-1
2.716122447E0,4.317250252E0,9.701699257E0,-6.209374666E-1
2.718600364E0,4.305285931E0,9.723235130E0,-6.472585201E-1
2.721078332E0,4.319643021E0,9.699306488E0,-6.257231236E-1
2.723557135E0,4.319643021E0,9.718449593E0,-6.400800347E-1
2.726035937E0,4.307679176E0,9.699306488E0,-6.400800347E-1
2.728513905E0,4.312464714E0,9.694520950E0,-6.424728632E-1
2.730991874E0,4.295714855E0,9.696913719E0,-6.376872063E-1
2.733470676E0,4.312464714E0,9.684949875E0,-5.994020700E-1
2.735949478E0,4.319643021E0,9.696913719E0,-6.233302951E-1
2.738427395E0,4.314857483E0,9.687342644E0,-6.424728632E-1
2.740905364E0,4.319643021E0,9.694520950E0,-6.352944374E-1
2.743384166E0,4.290929317E0,9.713663101E0,-6.400800347E-1
2.745862968E0,4.307679176E0,9.684949875E0,-6.448656917E-1
2.748340885E0,4.307679176E0,9.706484795E0,-6.640082598E-1
2.750818853E0,4.290929317E0,9.716055870E0,-6.472585201E-1
2.753297707E0,4.295714855E0,9.711270332E0,-6.376872063E-1
2.755776457E0,4.310071945E0,9.728020668E0,-6.281159520E-1
2.758254426E0,4.288536549E0,9.716055870E0,-6.783652306E-1
2.760732395E0,4.326821327E0,9.720842361E0,-6.616154313E-1
2.763211197E0,4.307679176E0,9.732806206E0,-6.711867452E-1
2.765689999E0,4.302893162E0,9.723235130E0,-6.687939167E-1
2.768167916E0,4.302893162E0,9.716055870E0,-6.640082598E-1
2.770645885E0,4.307679176E0,9.728020668E0,-6.831508875E-1
2.773124687E0,4.288536549E0,9.728020668E0,-6.783652306E-1
2.775603489E0,4.295714855E0,9.737591743E0,-6.664010882E-1
2.778081457E0,4.298107624E0,9.732806206E0,-6.376872063E-1
2.780559426E0,4.278964996E0,9.725627899E0,-6.640082598E-1
2.783038228E0,4.305285931E0,9.723235130E0,-6.424728632E-1
2.785517030E0,4.271786690E0,9.732806206E0,-6.735795736E-1
2.787994947E0,4.298107624E0,9.723235130E0,-6.544370055E-1
2.790472916E0,4.307679176E0,9.716055870E0,-6.759724021E-1
2.792951718E0,4.290929317E0,9.716055870E0,-6.687939167E-1
2.795430520E0,4.293322086E0,9.723235130E0,-6.448656917E-1
2.797908489E0,4.278964996E0,9.725627899E0,-6.376872063E-1
2.800386457E0,4.295714855E0,9.723235130E0,-6.305087805E-1
2.802865260E0,4.276572227E0,9.716055870E0,-6.352944374E-1
2.805344062E0,4.283750534E0,9.718449593E0,-6.161518097E-1
2.807821978E0,4.271786690E0,9.735198975E0,-6.089733839E-1
2.810299947E0,4.300500393E0,9.728020668E0,-6.233302951E-1
2.812778749E0,4.293322086E0,9.728020668E0,-5.946164131E-1
2.815257551E0,4.271786690E0,9.725627899E0,-5.970092416E-1
2.817735520E0,4.281357765E0,9.732806206E0,-5.778666735E-1
2.820213489E0,4.290929317E0,9.723235130E0,-5.970092416E-1
2.822692291E0,4.288536549E0,9.739984512E0,-5.635097623E-1
2.825171041E0,4.302893162E0,9.728020668E0,-5.563312769E-1
2.827649010E0,4.298107624E0,9.739984512E0,-5.826523304E-1
2.830126978E0,4.290929317E0,9.723235130E0,-5.922235847E-1
2.832605780E0,4.288536549E0,9.723235130E0,-5.754738450E-1
2.835084582E0,4.293322086E0,9.739984512E0,-5.946164131E-1
2.837562499E0,4.286143780E0,9.732806206E0,-5.754738450E-1
2.840040468E0,4.298107624E0,9.720842361E0,-5.754738450E-1
2.842519322E0,4.300500393E0,9.739984512E0,-5.515456200E-1
2.844998072E0,4.295714855E0,9.718449593E0,-5.874379873E-1
2.847476041E0,4.262215137E0,9.728020668E0,-6.137589812E-1
2.849954010E0,4.310071945E0,9.737591743E0,-6.113662124E-1
2.852432812E0,4.314857483E0,9.723235130E0,-6.161518097E-1
2.854911614E0,4.288536549E0,9.728020668E0,-6.257231236E-1
2.857389530E0,4.307679176E0,9.749555588E0,-5.874379873E-1
2.859867499E0,4.305285931E0,9.739984512E0,-6.065805554E-1
2.862346301E0,4.319643021E0,9.711270332E0,-6.161518097E-1
2.864825103E0,4.324428558E0,9.747162819E0,-6.137589812E-1
2.867303072E0,4.322035789E0,9.732806206E0,-6.209374666E-1
2.869781041E0,4.293322086E0,9.716055870E0,-6.137589812E-1
2.872259843E0,4.300500393E0,9.728020668E0,-6.185446382E-1
2.874738645E0,4.305285931E0,9.725627899E0,-6.089733839E-1
2.877216562E0,4.338785648E0,9.730413437E0,-6.185446382E-1
2.879694530E0,4.324428558E0,9.728020668E0,-6.209374666E-1
2.882173332E0,4.324428558E0,9.720842361E0,-6.233302951E-1
2.884652135E0,4.319643021E0,9.732806206E0,-6.448656917E-1
2.887130103E0,4.314857483E0,9.749555588E0,-6.113662124E-1
2.889608072E0,4.324428558E0,9.730413437E0,-6.161518097E-1
2.892086874E0,4.307679176E0,9.742377281E0,-6.305087805E-1
2.894565676E0,4.334000111E0,9.716055870E0,-6.329016089E-1
2.897043593E0,4.326821327E0,9.735198975E0,-6.448656917E-1
2.899521562E0,4.326821327E0,9.728020668E0,-6.185446382E-1
2.902000364E0,4.317250252E0,9.744770050E0,-6.376872063E-1
2.904479166E0,4.324428558E0,9.732806206E0,-6.472585201E-1
2.906957082E0,4.331607342E0,9.732806206E0,-6.448656917E-1
2.909435051E0,4.326821327E0,9.728020668E0,-6.496513486E-1
2.911913905E0,4.324428558E0,9.708877563E0,-6.448656917E-1
2.914392655E0,4.319643021E0,9.725627899E0,-6.400800347E-1
2.916870624E0,4.348356724E0,9.716055870E0,-6.257231236E-1
2.919348593E0,4.350749969E0,9.716055870E0,-6.185446382E-1
2.921827395E0,4.329214573E0,9.711270332E0,-6.305087805E-1
2.924306197E0,4.334000111E0,9.716055870E0,-6.281159520E-1
2.926784114E0,4.360321045E0,9.692128181E0,-6.520441771E-1
2.929262082E0,4.357928276E0,9.692128181E0,-6.400800347E-1
2.931740885E0,4.329214573E0,9.670592308E0,-6.424728632E-1
2.934219687E0,4.365106583E0,9.694520950E0,-6.424728632E-1
2.936697655E0,4.355535507E0,9.706484795E0,-6.448656917E-1
2.939175624E0,4.341178417E0,9.701699257E0,-6.664010882E-1
2.941654426E0,4.331607342E0,9.699306488E0,-6.735795736E-1
2.944133228E0,4.341178417E0,9.701699257E0,-6.448656917E-1
2.946611145E0,4.355535507E0,9.699306488E0,-6.592226624E-1
2.949089114E0,4.338785648E0,9.704092026E0,-6.448656917E-1
2.951567916E0,4.336392879E0,9.694520950E0,-6.472585201E-1
2.954046718E0,4.312464714E0,9.704092026E0,-6.496513486E-1
2.956524687E0,4.338785648E0,9.701699257E0,-6.352944374E-1
2.959002655E0,4.307679176E0,9.696913719E0,-6.352944374E-1
2.961481457E0,4.295714855E0,9.713663101E0,-6.113662124E-1
2.963960260E0,4.322035789E0,9.706484795E0,-6.233302951E-1
2.966438176E0,4.317250252E0,9.708877563E0,-6.233302951E-1
2.968916145E0,4.302893162E0,9.720842361E0,-6.472585201E-1
2.971394947E0,4.319643021E0,9.720842361E0,-6.329016089E-1
2.973873749E0,4.329214573E0,9.708877563E0,-6.400800347E-1
2.976351718E0,4.322035789E0,9.711270332E0,-6.209374666E-1
2.978829687E0,4.336392879E0,9.701699257E0,-6.448656917E-1
2.981308489E0,4.343571186E0,9.704092026E0,-6.424728632E-1
2.983787291E0,4.317250252E0,9.708877563E0,-6.472585201E-1
2.986265207E0,4.302893162E0,9.711270332E0,-6.544370055E-1
2.988743176E0,4.319643021E0,9.718449593E0,-6.616154313E-1
2.991221978E0,4.324428558E0,9.728020668E0,-6.352944374E-1
2.993700780E0,4.317250252E0,9.728020668E0,-6.400800347E-1
2.996178697E0,4.312464714E0,9.718449593E0,-6.257231236E-1
2.998656666E0,4.324428558E0,9.701699257E0,-6.161518097E-1
3.001135520E0,4.310071945E0,9.716055870E0,-5.970092416E-1
3.003614270E0,4.307679176E0,9.699306488E0,-6.400800347E-1
3.006092239E0,4.314857483E0,9.687342644E0,-6.400800347E-1
3.008570207E0,4.326821327E0,9.701699257E0,-6.305087805E-1
3.011049010E0,4.334000111E0,9.696913719E0,-6.472585201E-1
3.013527812E0,4.341178417E0,9.689735413E0,-6.472585201E-1
3.016005728E0,4.341178417E0,9.718449593E0,-6.568298340E-1
3.018483697E0,4.355535507E0,9.699306488E0,-6.257231236E-1
3.020962499E0,4.338785648E0,9.708877563E0,-6.329016089E-1
3.023441301E0,4.350749969E0,9.692128181E0,-6.329016089E-1
3.025919270E0,4.357928276E0,9.684949875E0,-6.137589812E-1
3.028397239E0,4.362713814E0,9.699306488E0,-6.233302951E-1
3.030876041E0,4.360321045E0,9.677771568E0,-6.209374666E-1
3.033354843E0,4.345963955E0,9.696913719E0,-6.448656917E-1
3.035832760E0,4.343571186E0,9.696913719E0,-6.257231236E-1
3.038310728E0,4.345963955E0,9.684949875E0,-6.544370055E-1
3.040789530E0,4.336392879E0,9.699306488E0,-6.544370055E-1
3.043268332E0,4.338785648E0,9.711270332E0,-6.472585201E-1
3.045746301E0,4.345963955E0,9.699306488E0,-6.640082598E-1
3.048224270E0,4.343571186E0,9.713663101E0,-6.352944374E-1
3.050703072E0,4.369892120E0,9.713663101E0,-6.687939167E-1
3.053181874E0,4.374678135E0,9.713663101E0,-6.496513486E-1
3.055659791E0,4.365106583E0,9.711270332E0,-6.496513486E-1
3.058137760E0,4.367499352E0,9.718449593E0,-6.592226624E-1
3.060616562E0,4.350749969E0,9.711270332E0,-6.448656917E-1
3.063095364E0,4.338785648E0,9.711270332E0,-6.424728632E-1
3.065573332E0,4.345963955E0,9.711270332E0,-6.592226624E-1
3.068051301E0,4.326821327E0,9.711270332E0,-6.735795736E-1
3.070530103E0,4.336392879E0,9.720842361E0,-6.807580590E-1
3.073008905E0,4.329214573E0,9.704092026E0,-6.855437160E-1
3.075486822E0,4.324428558E0,9.704092026E0,-6.687939167E-1
3.077964791E0,4.319643021E0,9.708877563E0,-6.664010882E-1
3.080443593E0,4.300500393E0,9.694520950E0,-6.640082598E-1
3.082922395E0,4.331607342E0,9.723235130E0,-6.807580590E-1
3.085400364E0,4.329214573E0,9.706484795E0,-6.640082598E-1
3.087878332E0,4.329214573E0,9.701699257E0,-6.592226624E-1
3.090357135E0,4.326821327E0,9.706484795E0,-6.616154313E-1
3.092835937E0,4.336392879E0,9.694520950E0,-6.640082598E-1
3.095313853E0,4.343571186E0,9.701699257E0,-6.544370055E-1
3.097791822E0,4.338785648E0,9.680164337E0,-6.616154313E-1
3.100270624E0,4.355535507E0,9.687342644E0,-6.831508875E-1
3.102749426E0,4.350749969E0,9.701699257E0,-6.759724021E-1
3.105227343E0,4.355535507E0,9.708877563E0,-6.664010882E-1
3.107705312E0,4.357928276E0,9.704092026E0,-6.735795736E-1
3.110184166E0,4.341178417E0,9.680164337E0,-6.687939167E-1
3.112662968E0,4.360321045E0,9.682557106E0,-6.400800347E-1
3.115140885E0,4.362713814E0,9.682557106E0,-6.520441771E-1
3.117618853E0,4.350749969E0,9.684949875E0,-6.735795736E-1
3.120097655E0,4.360321045E0,9.675378799E0,-6.496513486E-1
3.122576457E0,4.341178417E0,9.689735413E0,-6.544370055E-1
3.125054374E0,4.348356724E0,9.689735413E0,-6.592226624E-1
3.127532343E0,4.338785648E0,9.696913719E0,-6.759724021E-1
3.130011145E0,4.322035789E0,9.699306488E0,-6.640082598E-1
3.132489947E0,4.331607342E0,9.701699257E0,-6.424728632E-1
3.134967916E0,4.329214573E0,9.689735413E0,-6.831508875E-1
3.137445885E0,4.324428558E0,9.692128181E0,-6.855437160E-1
3.139924687E0,4.324428558E0,9.699306488E0,-6.903293133E-1
3.142403489E0,4.302893162E0,9.696913719E0,-6.687939167E-1
3.144881405E0,4.305285931E0,9.713663101E0,-6.759724021E-1
3.147359374E0,4.314857483E0,9.704092026E0,-6.568298340E-1
3.149838176E0,4.312464714E0,9.713663101E0,-6.664010882E-1
3.152316978E0,4.312464714E0,9.713663101E0,-6.664010882E-1
3.154794947E0,4.290929317E0,9.711270332E0,-6.855437160E-1
3.157272916E0,4.312464714E0,9.716055870E0,-6.520441771E-1
3.159751718E0,4.307679176E0,9.696913719E0,-6.568298340E-1
3.162230520E0,4.312464714E0,9.708877563E0,-6.640082598E-1
3.164708437E0,4.307679176E0,9.704092026E0,-6.568298340E-1
3.167186405E0,4.295714855E0,9.716055870E0,-6.568298340E-1
3.169665207E0,4.317250252E0,9.706484795E0,-6.616154313E-1
3.172144010E0,4.317250252E0,9.713663101E0,-6.424728632E-1
3.174621978E0,4.326821327E0,9.713663101E0,-6.233302951E-1
3.177099947E0,4.310071945E0,9.711270332E0,-6.352944374E-1
3.179578749E0,4.286143780E0,9.720842361E0,-6.209374666E-1
3.182057551E0,4.314857483E0,9.720842361E0,-6.568298340E-1
3.184535468E0,4.305285931E0,9.725627899E0,-6.329016089E-1
3.187013437E0,4.331607342E0,9.730413437E0,-6.257231236E-1
3.189492239E0,4.295714855E0,9.725627899E0,-6.400800347E-1
3.191971041E0,4.288536549E0,9.728020668E0,-6.400800347E-1
3.194449010E0,4.288536549E0,9.732806206E0,-6.329016089E-1
3.196926978E0,4.283750534E0,9.718449593E0,-6.376872063E-1
3.199405780E0,4.288536549E0,9.723235130E0,-6.305087805E-1
3.201884582E0,4.300500393E0,9.747162819E0,-6.352944374E-1
3.204362499E0,4.314857483E0,9.747162819E0,-6.257231236E-1
3.206840468E0,4.302893162E0,9.739984512E0,-6.376872063E-1
3.209319270E0,4.302893162E0,9.737591743E0,-6.281159520E-1
3.211798072E0,4.307679176E0,9.732806206E0,-6.209374666E-1
3.214275989E0,4.314857483E0,9.728020668E0,-6.281159520E-1
3.216753957E0,4.302893162E0,9.728020668E0,-6.544370055E-1
3.219232812E0,4.314857483E0,9.725627899E0,-6.472585201E-1
3.221711614E0,4.319643021E0,9.723235130E0,-6.520441771E-1
3.224189530E0,4.317250252E0,9.718449593E0,-6.424728632E-1
3.226667499E0,4.329214573E0,9.728020668E0,-6.376872063E-1
3.229146301E0,4.341178417E0,9.728020668E0,-6.616154313E-1
3.231625103E0,4.314857483E0,9.716055870E0,-6.568298340E-1
3.234103072E0,4.317250252E0,9.723235130E0,-6.472585201E-1
3.236581041E0,4.295714855E0,9.723235130E0,-6.472585201E-1
3.239059843E0,4.322035789E0,9.723235130E0,-6.424728632E-1
3.241538645E0,4.310071945E0,9.713663101E0,-6.424728632E-1
3.244016562E0,4.317250252E0,9.704092026E0,-6.424728632E-1
3.246494530E0,4.324428558E0,9.708877563E0,-6.568298340E-1
3.248973332E0,4.314857483E0,9.692128181E0,-6.472585201E-1
3.251452135E0,4.341178417E0,9.701699257E0,-6.544370055E-1
3.253930051E0,4.338785648E0,9.704092026E0,-6.520441771E-1
3.256408020E0,4.331607342E0,9.680164337E0,-6.616154313E-1
3.258886874E0,4.343571186E0,9.696913719E0,-6.759724021E-1
3.261365624E0,4.334000111E0,9.692128181E0,-6.592226624E-1
3.263843593E0,4.357928276E0,9.677771568E0,-6.544370055E-1
3.266321562E0,4.326821327E0,9.699306488E0,-6.735795736E-1
3.268800364E0,4.353142738E0,9.694520950E0,-6.855437160E-1
3.271279166E0,4.345963955E0,9.696913719E0,-6.759724021E-1
3.273757082E0,4.357928276E0,9.701699257E0,-6.879364848E-1
3.276235051E0,4.326821327E0,9.699306488E0,-6.855437160E-1
3.278713853E0,4.336392879E0,9.692128181E0,-6.687939167E-1
3.281192655E0,4.345963955E0,9.692128181E0,-6.903293133E-1
3.283670624E0,4.329214573E0,9.689735413E0,-6.592226624E-1
3.286148593E0,4.322035789E0,9.692128181E0,-6.496513486E-1
3.288627395E0,4.322035789E0,9.670592308E0,-6.616154313E-1
3.291106197E0,4.319643021E0,9.696913719E0,-6.735795736E-1
3.293584114E0,4.324428558E0,9.718449593E0,-6.711867452E-1
3.296062082E0,4.312464714E0,9.701699257E0,-6.640082598E-1
3.298540885E0,4.300500393E0,9.689735413E0,-6.496513486E-1
3.301019687E0,4.302893162E0,9.689735413E0,-6.616154313E-1
3.303497655E0,4.310071945E0,9.699306488E0,-6.711867452E-1
3.305975624E0,4.324428558E0,9.694520950E0,-6.568298340E-1
3.308454426E0,4.305285931E0,9.701699257E0,-6.687939167E-1
3.310933228E0,4.317250252E0,9.701699257E0,-6.759724021E-1
3.313411145E0,4.331607342E0,9.706484795E0,-6.616154313E-1
3.315889114E0,4.314857483E0,9.696913719E0,-6.711867452E-1
3.318367916E0,4.312464714E0,9.711270332E0,-6.711867452E-1
3.320846718E0,4.295714855E0,9.696913719E0,-6.735795736E-1
3.323324687E0,4.343571186E0,9.704092026E0,-6.687939167E-1
3.325802655E0,4.317250252E0,9.696913719E0,-6.711867452E-1
3.328281457E0,4.314857483E0,9.694520950E0,-6.879364848E-1
3.330760260E0,4.326821327E0,9.696913719E0,-6.855437160E-1
3.333238176E0,4.314857483E0,9.704092026E0,-6.831508875E-1
3.335716145E0,4.334000111E0,9.699306488E0,-6.783652306E-1
3.338194947E0,4.326821327E0,9.675378799E0,-6.783652306E-1
3.340673749E0,4.331607342E0,9.711270332E0,-6.664010882E-1
3.343151718E0,4.322035789E0,9.708877563E0,-6.568298340E-1
3.345629687E0,4.338785648E0,9.692128181E0,-6.783652306E-1
3.348108489E0,4.334000111E0,9.692128181E0,-6.807580590E-1
3.350587291E0,4.314857483E0,9.699306488E0,-6.640082598E-1
3.353065207E0,4.345963955E0,9.708877563E0,-6.687939167E-1
3.355543176E0,4.343571186E0,9.687342644E0,-6.544370055E-1
3.358021978E0,4.343571186E0,9.694520950E0,-6.520441771E-1
3.360500780E0,4.322035789E0,9.694520950E0,-6.568298340E-1
3.362978749E0,4.314857483E0,9.720842361E0,-6.448656917E-1
3.365456718E0,4.345963955E0,9.711270332E0,-6.520441771E-1
3.367935520E0,4.324428558E0,9.704092026E0,-6.520441771E-1
3.370414322E0,4.324428558E0,9.704092026E0,-6.616154313E-1
3.372892239E0,4.305285931E0,9.713663101E0,-6.352944374E-1
3.375370207E0,4.300500393E0,9.704092026E0,-6.376872063E-1
3.377849010E0,4.324428558E0,9.718449593E0,-6.424728632E-1
3.380327812E0,4.314857483E0,9.732806206E0,-6.472585201E-1
3.382805780E0,4.317250252E0,9.723235130E0,-6.520441771E-1
3.385283749E0,4.319643021E0,9.735198975E0,-6.520441771E-1
3.387762551E0,4.305285931E0,9.742377281E0,-6.472585201E-1
3.390241353E0,4.312464714E0,9.739984512E0,-6.400800347E-1
3.392719270E0,4.290929317E0,9.747162819E0,-6.496513486E-1
3.395197239E0,4.286143780E0,9.730413437E0,-6.305087805E-1
3.397676041E0,4.298107624E0,9.744770050E0,-6.329016089E-1
3.400154843E0,4.290929317E0,9.739984512E0,-6.305087805E-1
3.402632812E0,4.302893162E0,9.756733894E0,-6.400800347E-1
3.405110780E0,4.302893162E0,9.751948357E0,-6.305087805E-1
3.407589582E0,4.298107624E0,9.756733894E0,-6.257231236E-1
3.410068385E0,4.298107624E0,9.747162819E0,-6.257231236E-1
3.412546301E0,4.298107624E0,9.742377281E0,-6.568298340E-1
3.415024270E0,4.302893162E0,9.759127617E0,-6.472585201E-1
3.417503072E0,4.326821327E0,9.754341125E0,-6.376872063E-1
3.419981874E0,4.298107624E0,9.756733894E0,-6.376872063E-1
3.422459843E0,4.305285931E0,9.749555588E0,-6.233302951E-1
3.424937812E0,4.293322086E0,9.739984512E0,-6.305087805E-1
3.427416614E0,4.300500393E0,9.737591743E0,-6.329016089E-1
3.429895416E0,4.302893162E0,9.739984512E0,-6.185446382E-1
3.432373332E0,4.326821327E0,9.739984512E0,-6.329016089E-1
3.434851301E0,4.317250252E0,9.737591743E0,-6.376872063E-1
3.437330103E0,4.312464714E0,9.718449593E0,-6.376872063E-1
3.439808905E0,4.326821327E0,9.728020668E0,-6.329016089E-1
3.442286822E0,4.312464714E0,9.725627899E0,-6.329016089E-1
3.444764791E0,4.295714855E0,9.720842361E0,-6.161518097E-1
3.447243645E0,4.302893162E0,9.711270332E0,-6.041877270E-1
3.449722447E0,4.295714855E0,9.735198975E0,-5.970092416E-1
3.452200364E0,4.307679176E0,9.716055870E0,-6.209374666E-1
3.454678332E0,4.322035789E0,9.713663101E0,-6.137589812E-1
3.457157135E0,4.317250252E0,9.713663101E0,-6.185446382E-1
3.459635937E0,4.302893162E0,9.718449593E0,-6.305087805E-1
3.462113905E0,4.298107624E0,9.713663101E0,-6.305087805E-1
3.464591874E0,4.312464714E0,9.716055870E0,-6.257231236E-1
3.467070676E0,4.322035789E0,9.728020668E0,-6.257231236E-1
3.469549478E0,4.326821327E0,9.737591743E0,-6.544370055E-1
3.472027395E0,4.298107624E0,9.720842361E0,-6.472585201E-1
3.474505364E0,4.319643021E0,9.720842361E0,-6.352944374E-1
3.476984166E0,4.307679176E0,9.725627899E0,-6.544370055E-1
3.479462968E0,4.312464714E0,9.728020668E0,-6.352944374E-1
3.481940937E0,4.326821327E0,9.728020668E0,-6.568298340E-1
3.484418905E0,4.310071945E0,9.728020668E0,-6.592226624E-1
3.486897707E0,4.298107624E0,9.711270332E0,-6.783652306E-1
3.489376510E0,4.322035789E0,9.706484795E0,-6.544370055E-1
3.491854426E0,4.322035789E0,9.711270332E0,-6.568298340E-1
3.494332395E0,4.322035789E0,9.696913719E0,-6.640082598E-1
3.496811197E0,4.319643021E0,9.699306488E0,-6.759724021E-1
3.499289999E0,4.324428558E0,9.694520950E0,-6.855437160E-1
3.501767968E0,4.317250252E0,9.713663101E0,-6.640082598E-1
3.504245937E0,4.322035789E0,9.723235130E0,-6.616154313E-1
3.506724739E0,4.322035789E0,9.694520950E0,-6.568298340E-1
3.509203541E0,4.300500393E0,9.699306488E0,-6.664010882E-1
3.511681457E0,4.324428558E0,9.704092026E0,-6.496513486E-1
3.514159426E0,4.312464714E0,9.730413437E0,-6.759724021E-1
3.516638228E0,4.305285931E0,9.737591743E0,-6.807580590E-1
3.519117030E0,4.302893162E0,9.730413437E0,-6.664010882E-1
3.521594999E0,4.302893162E0,9.713663101E0,-6.496513486E-1
3.524072968E0,4.300500393E0,9.720842361E0,-6.520441771E-1
3.526551770E0,4.290929317E0,9.713663101E0,-6.496513486E-1
3.529030572E0,4.295714855E0,9.728020668E0,-6.544370055E-1
3.531508489E0,4.281357765E0,9.725627899E0,-6.400800347E-1
3.533986457E0,4.302893162E0,9.716055870E0,-6.496513486E-1
3.536465260E0,4.274179459E0,9.725627899E0,-6.376872063E-1
3.538944062E0,4.276572227E0,9.711270332E0,-6.496513486E-1
3.541422030E0,4.276572227E0,9.718449593E0,-6.472585201E-1
3.543899999E0,4.302893162E0,9.723235130E0,-6.257231236E-1
3.546378801E0,4.283750534E0,9.723235130E0,-6.496513486E-1
3.548857603E0,4.274179459E0,9.718449593E0,-6.616154313E-1
3.551335520E0,4.302893162E0,9.720842361E0,-6.472585201E-1
3.553813489E0,4.300500393E0,9.713663101E0,-6.496513486E-1
3.556292291E0,4.278964996E0,9.716055870E0,-6.376872063E-1
3.558771093E0,4.274179459E0,9.716055870E0,-6.257231236E-1
3.561249062E0,4.283750534E0,9.694520950E0,-6.400800347E-1
3.563727030E0,4.271786690E0,9.708877563E0,-6.233302951E-1
3.566205832E0,4.274179459E0,9.706484795E0,-6.233302951E-1
3.568684635E0,4.276572227E0,9.706484795E0,-6.257231236E-1
3.571162551E0,4.281357765E0,9.713663101E0,-6.329016089E-1
3.573640520E0,4.290929317E0,9.716055870E0,-6.233302951E-1
3.576119322E0,4.283750534E0,9.720842361E0,-6.113662124E-1
3.578598124E0,4.262215137E0,9.723235130E0,-6.257231236E-1
3.581076093E0,4.276572227E0,9.728020668E0,-6.257231236E-1
3.583554062E0,4.262215137E0,9.742377281E0,-6.209374666E-1
3.586032864E0,4.274179459E0,9.751948357E0,-6.089733839E-1
3.588511666E0,4.271786690E0,9.759127617E0,-6.065805554E-1
3.590989582E0,4.281357765E0,9.739984512E0,-6.089733839E-1
3.593467551E0,4.252644062E0,9.751948357E0,-6.233302951E-1
3.595946353E0,4.269393921E0,9.737591743E0,-6.137589812E-1
3.598425155E0,4.274179459E0,9.744770050E0,-6.257231236E-1
3.600903124E0,4.290929317E0,9.747162819E0,-6.376872063E-1
3.603381093E0,4.293322086E0,9.735198975E0,-6.209374666E-1
3.605859895E0,4.290929317E0,9.751948357E0,-6.137589812E-1
3.608338697E0,4.288536549E0,9.744770050E0,-6.137589812E-1
3.610816614E0,4.298107624E0,9.723235130E0,-6.209374666E-1
3.613294582E0,4.307679176E0,9.728020668E0,-6.376872063E-1
3.615773385E0,4.288536549E0,9.716055870E0,-6.257231236E-1
3.618252187E0,4.290929317E0,9.706484795E0,-6.257231236E-1
3.620730155E0,4.269393921E0,9.713663101E0,-6.496513486E-1
3.623208124E0,4.281357765E0,9.718449593E0,-6.424728632E-1
3.625686926E0,4.293322086E0,9.701699257E0,-6.592226624E-1
3.628165728E0,4.293322086E0,9.728020668E0,-6.305087805E-1
3.630643645E0,4.288536549E0,9.725627899E0,-6.520441771E-1
3.633121614E0,4.305285931E0,9.723235130E0,-6.376872063E-1
3.635600468E0,4.310071945E0,9.725627899E0,-6.257231236E-1
3.638079218E0,4.314857483E0,9.716055870E0,-6.568298340E-1
3.640557187E0,4.329214573E0,9.744770050E0,-6.472585201E-1
3.643035155E0,4.324428558E0,9.718449593E0,-6.376872063E-1
3.645513957E0,4.319643021E0,9.708877563E0,-6.496513486E-1
3.647992760E0,4.317250252E0,9.749555588E0,-6.448656917E-1
3.650470676E0,4.324428558E0,9.730413437E0,-6.257231236E-1
3.652948645E0,4.312464714E0,9.720842361E0,-6.233302951E-1
3.655427499E0,4.310071945E0,9.735198975E0,-6.329016089E-1
3.657906249E0,4.302893162E0,9.739984512E0,-6.305087805E-1
3.660384218E0,4.329214573E0,9.723235130E0,-6.424728632E-1
3.662862187E0,4.307679176E0,9.704092026E0,-6.329016089E-1
3.665340989E0,4.290929317E0,9.706484795E0,-6.400800347E-1
3.667819791E0,4.312464714E0,9.704092026E0,-6.352944374E-1
3.670297707E0,4.319643021E0,9.720842361E0,-6.352944374E-1
3.672775676E0,4.310071945E0,9.718449593E0,-6.376872063E-1
3.675254530E0,4.326821327E0,9.720842361E0,-6.640082598E-1
3.677733332E0,4.319643021E0,9.728020668E0,-6.376872063E-1
3.680211249E0,4.322035789E0,9.728020668E0,-6.759724021E-1
3.682689218E0,4.336392879E0,9.749555588E0,-6.831508875E-1
3.685168020E0,4.326821327E0,9.735198975E0,-6.855437160E-1
3.687646822E0,4.336392879E0,9.730413437E0,-6.592226624E-1
3.690124791E0,4.331607342E0,9.720842361E0,-6.592226624E-1
3.692602760E0,4.314857483E0,9.735198975E0,-6.520441771E-1
3.695081562E0,4.322035789E0,9.730413437E0,-6.592226624E-1
3.697560364E0,4.324428558E0,9.747162819E0,-6.759724021E-1
3.700038280E0,4.312464714E0,9.730413437E0,-6.879364848E-1
3.702516249E0,4.322035789E0,9.739984512E0,-6.783652306E-1
3.704995051E0,4.310071945E0,9.720842361E0,-6.496513486E-1
3.707473853E0,4.310071945E0,9.735198975E0,-6.855437160E-1
3.709951822E0,4.307679176E0,9.716055870E0,-6.927221417E-1
3.712429791E0,4.312464714E0,9.730413437E0,-6.831508875E-1
3.714908593E0,4.288536549E0,9.720842361E0,-6.831508875E-1
3.717387395E0,4.305285931E0,9.713663101E0,-6.735795736E-1
3.719865312E0,4.290929317E0,9.718449593E0,-6.664010882E-1
3.722343280E0,4.288536549E0,9.713663101E0,-6.831508875E-1
3.724822082E0,4.286143780E0,9.713663101E0,-6.735795736E-1
3.727300885E0,4.305285931E0,9.728020668E0,-6.687939167E-1
3.729778853E0,4.305285931E0,9.713663101E0,-6.544370055E-1
3.732256822E0,4.302893162E0,9.713663101E0,-6.616154313E-1
3.734735624E0,4.300500393E0,9.720842361E0,-6.687939167E-1
3.737214426E0,4.298107624E0,9.706484795E0,-6.424728632E-1
3.739692343E0,4.293322086E0,9.711270332E0,-6.448656917E-1
3.742170312E0,4.288536549E0,9.725627899E0,-6.544370055E-1
3.744649166E0,4.302893162E0,9.706484795E0,-6.664010882E-1
3.747127916E0,4.283750534E0,9.701699257E0,-6.544370055E-1
3.749605885E0,4.305285931E0,9.711270332E0,-6.376872063E-1
3.752083853E0,4.293322086E0,9.711270332E0,-6.496513486E-1
3.754562655E0,4.302893162E0,9.701699257E0,-6.233302951E-1
3.757041457E0,4.298107624E0,9.718449593E0,-6.496513486E-1
3.759519374E0,4.293322086E0,9.718449593E0,-6.424728632E-1
3.761997343E0,4.305285931E0,9.706484795E0,-6.520441771E-1
3.764476197E0,4.281357765E0,9.708877563E0,-6.735795736E-1
3.766954999E0,4.300500393E0,9.711270332E0,-6.496513486E-1
3.769432916E0,4.290929317E0,9.706484795E0,-6.616154313E-1
3.771910885E0,4.293322086E0,9.704092026E0,-6.520441771E-1
3.774389687E0,4.302893162E0,9.711270332E0,-6.687939167E-1
3.776868489E0,4.307679176E0,9.704092026E0,-6.687939167E-1
3.779346405E0,4.300500393E0,9.718449593E0,-6.640082598E-1
3.781824374E0,4.271786690E0,9.711270332E0,-6.496513486E-1
3.784303228E0,4.293322086E0,9.708877563E0,-6.664010882E-1
3.786782030E0,4.288536549E0,9.696913719E0,-6.592226624E-1
3.789259947E0,4.295714855E0,9.704092026E0,-6.711867452E-1
3.791737916E0,4.302893162E0,9.708877563E0,-6.687939167E-1
3.794216718E0,4.298107624E0,9.699306488E0,-6.472585201E-1
3.796695520E0,4.288536549E0,9.718449593E0,-6.616154313E-1
3.799173437E0,4.293322086E0,9.720842361E0,-6.376872063E-1
3.801651405E0,4.290929317E0,9.706484795E0,-6.376872063E-1
3.804130260E0,4.269393921E0,9.720842361E0,-6.568298340E-1
3.806609062E0,4.276572227E0,9.720842361E0,-6.544370055E-1
3.809086978E0,4.290929317E0,9.706484795E0,-6.640082598E-1
3.811564947E0,4.264608383E0,9.713663101E0,-6.544370055E-1
3.814043749E0,4.276572227E0,9.735198975E0,-6.568298340E-1
3.816522551E0,4.271786690E0,9.725627899E0,-6.592226624E-1
3.819000520E0,4.269393921E0,9.723235130E0,-6.687939167E-1
3.821478489E0,4.257429600E0,9.720842361E0,-6.520441771E-1
3.823957291E0,4.271786690E0,9.718449593E0,-6.664010882E-1
3.826436093E0,4.264608383E0,9.716055870E0,-6.807580590E-1
3.828914010E0,4.274179459E0,9.718449593E0,-6.951149702E-1
3.831391978E0,4.286143780E0,9.737591743E0,-6.831508875E-1
3.833870780E0,4.269393921E0,9.713663101E0,-6.879364848E-1
3.836349582E0,4.286143780E0,9.723235130E0,-6.879364848E-1
3.838827551E0,4.267001152E0,9.723235130E0,-7.094719410E-1
3.841305520E0,4.281357765E0,9.708877563E0,-7.094719410E-1
3.843784322E0,4.269393921E0,9.711270332E0,-7.118647099E-1
3.846263124E0,4.262215137E0,9.723235130E0,-7.094719410E-1
3.848741093E0,4.264608383E0,9.711270332E0,-7.046862841E-1
3.851219062E0,4.255036831E0,9.701699257E0,-7.046862841E-1
3.853697864E0,4.262215137E0,9.725627899E0,-6.903293133E-1
3.856176666E0,4.269393921E0,9.701699257E0,-7.046862841E-1
3.858654582E0,4.271786690E0,9.716055870E0,-6.975077987E-1
3.861132551E0,4.259822369E0,9.708877563E0,-6.855437160E-1
3.863611353E0,4.267001152E0,9.706484795E0,-6.640082598E-1
3.866090155E0,4.250251293E0,9.716055870E0,-6.879364848E-1
3.868568124E0,4.274179459E0,9.706484795E0,-6.879364848E-1
3.871046093E0,4.257429600E0,9.692128181E0,-6.711867452E-1
3.873524895E0,4.264608383E0,9.694520950E0,-6.544370055E-1
3.876003697E0,4.267001152E0,9.687342644E0,-6.544370055E-1
3.878481614E0,4.281357765E0,9.689735413E0,-6.544370055E-1
3.880959582E0,4.264608383E0,9.677771568E0,-6.616154313E-1
3.883438437E0,4.305285931E0,9.682557106E0,-6.400800347E-1
3.885917187E0,4.264608383E0,9.704092026E0,-6.544370055E-1
3.888395155E0,4.293322086E0,9.708877563E0,-6.664010882E-1
3.890873124E0,4.290929317E0,9.687342644E0,-6.448656917E-1
3.893351926E0,4.295714855E0,9.725627899E0,-6.424728632E-1
3.895830728E0,4.288536549E0,9.701699257E0,-6.448656917E-1
3.898308645E0,4.281357765E0,9.701699257E0,-6.544370055E-1
3.900786614E0,4.298107624E0,9.689735413E0,-6.400800347E-1
3.903265468E0,4.286143780E0,9.682557106E0,-6.592226624E-1
3.905744270E0,4.288536549E0,9.684949875E0,-6.520441771E-1
3.908222187E0,4.314857483E0,9.689735413E0,-6.472585201E-1
3.910700155E0,4.305285931E0,9.675378799E0,-6.735795736E-1
3.913178957E0,4.310071945E0,9.689735413E0,-6.855437160E-1
3.915657760E0,4.305285931E0,9.694520950E0,-6.664010882E-1
3.918135728E0,4.290929317E0,9.708877563E0,-6.759724021E-1
3.920613697E0,4.305285931E0,9.687342644E0,-6.664010882E-1
3.923092499E0,4.295714855E0,9.696913719E0,-6.759724021E-1
3.925571301E0,4.281357765E0,9.689735413E0,-6.855437160E-1
3.928049218E0,4.302893162E0,9.687342644E0,-6.687939167E-1
3.930527187E0,4.290929317E0,9.718449593E0,-6.927221417E-1
3.933005989E0,4.276572227E0,9.701699257E0,-6.711867452E-1
3.935484791E0,4.293322086E0,9.689735413E0,-6.783652306E-1
3.937962760E0,4.281357765E0,9.706484795E0,-6.664010882E-1
3.940440728E0,4.276572227E0,9.713663101E0,-6.711867452E-1
3.942919530E0,4.286143780E0,9.699306488E0,-6.783652306E-1
3.945398332E0,4.295714855E0,9.708877563E0,-6.520441771E-1
3.947876249E0,4.307679176E0,9.718449593E0,-6.616154313E-1
3.950354218E0,4.293322086E0,9.728020668E0,-6.616154313E-1
3.952833072E0,4.312464714E0,9.720842361E0,-6.664010882E-1
3.955311822E0,4.305285931E0,9.723235130E0,-6.687939167E-1
3.957789791E0,4.293322086E0,9.723235130E0,-6.711867452E-1
3.960267760E0,4.310071945E0,9.732806206E0,-6.855437160E-1
3.962746562E0,4.314857483E0,9.728020668E0,-6.927221417E-1
3.965225364E0,4.286143780E0,9.723235130E0,-6.903293133E-1
3.967703332E0,4.300500393E0,9.728020668E0,-6.759724021E-1
3.970181301E0,4.324428558E0,9.723235130E0,-6.783652306E-1
3.972660103E0,4.290929317E0,9.718449593E0,-6.807580590E-1
3.975138905E0,4.307679176E0,9.718449593E0,-6.735795736E-1
3.977616822E0,4.305285931E0,9.732806206E0,-6.831508875E-1
3.980094791E0,4.326821327E0,9.730413437E0,-6.831508875E-1
3.982573593E0,4.326821327E0,9.735198975E0,-6.807580590E-1
3.985052395E0,4.322035789E0,9.749555588E0,-6.640082598E-1
3.987530364E0,4.305285931E0,9.730413437E0,-6.376872063E-1
3.990008332E0,4.319643021E0,9.732806206E0,-6.305087805E-1
3.992487135E0,4.312464714E0,9.749555588E0,-6.305087805E-1
3.994965937E0,4.305285931E0,9.749555588E0,-6.185446382E-1
3.997443853E0,4.331607342E0,9.756733894E0,-6.065805554E-1
3.999921822E0,4.353142738E0,9.725627899E0,-5.898307562E-1
4.002400676E0,4.345963955E0,9.749555588E0,-5.850451589E-1
4.004879478E0,4.341178417E0,9.732806206E0,-5.730810165E-1
4.007357395E0,4.345963955E0,9.725627899E0,-5.539384484E-1
4.009835364E0,4.326821327E0,9.739984512E0,-5.706881881E-1
4.012314166E0,4.319643021E0,9.732806206E0,-5.730810165E-1
4.014792968E0,4.319643021E0,9.737591743E0,-5.659025311E-1
4.017270937E0,4.343571186E0,9.737591743E0,-5.682953596E-1
4.019748905E0,4.319643021E0,9.739984512E0,-5.563312769E-1
4.022227707E0,4.343571186E0,9.744770050E0,-5.587241054E-1
4.024706510E0,4.341178417E0,9.749555588E0,-5.706881881E-1
4.027184426E0,4.336392879E0,9.747162819E0,-5.778666735E-1
4.029662395E0,4.314857483E0,9.725627899E0,-5.635097623E-1
4.032141249E0,4.331607342E0,9.749555588E0,-5.802595019E-1
4.034619999E0,4.317250252E0,9.737591743E0,-5.850451589E-1
4.037097968E0,4.307679176E0,9.747162819E0,-5.754738450E-1
4.039575937E0,4.329214573E0,9.739984512E0,-6.089733839E-1
4.042054739E0,4.324428558E0,9.749555588E0,-5.682953596E-1
4.044533541E0,4.322035789E0,9.761520386E0,-6.017948985E-1
4.047011510E0,4.324428558E0,9.751948357E0,-5.946164131E-1
4.049489478E0,4.329214573E0,9.725627899E0,-5.826523304E-1
4.051968280E0,4.307679176E0,9.747162819E0,-5.659025311E-1
4.054447082E0,4.319643021E0,9.744770050E0,-5.730810165E-1
4.056924999E0,4.307679176E0,9.732806206E0,-5.754738450E-1
4.059402968E0,4.288536549E0,9.723235130E0,-5.611169338E-1
4.061881770E0,4.298107624E0,9.737591743E0,-5.635097623E-1
4.064360572E0,4.305285931E0,9.747162819E0,-5.659025311E-1
4.066838541E0,4.286143780E0,9.751948357E0,-5.659025311E-1
4.069316510E0,4.278964996E0,9.718449593E0,-5.587241054E-1
4.071795312E0,4.267001152E0,9.739984512E0,-5.659025311E-1
4.074274114E0,4.278964996E0,9.720842361E0,-5.467599630E-1
4.076752030E0,4.281357765E0,9.730413437E0,-5.611169338E-1
4.079229999E0,4.288536549E0,9.728020668E0,-5.802595019E-1
4.081708853E0,4.276572227E0,9.725627899E0,-5.682953596E-1
4.084187655E0,4.295714855E0,9.742377281E0,-5.946164131E-1
4.086665572E0,4.276572227E0,9.730413437E0,-5.994020700E-1
4.089143541E0,4.293322086E0,9.747162819E0,-6.017948985E-1
4.091622343E0,4.286143780E0,9.739984512E0,-6.065805554E-1
4.094101145E0,4.300500393E0,9.732806206E0,-6.161518097E-1
4.096579114E0,4.312464714E0,9.749555588E0,-6.305087805E-1
4.099057082E0,4.302893162E0,9.725627899E0,-6.305087805E-1
4.101535885E0,4.317250252E0,9.735198975E0,-6.496513486E-1
4.104014687E0,4.326821327E0,9.728020668E0,-6.592226624E-1
4.106492603E0,4.290929317E0,9.716055870E0,-6.568298340E-1
4.108970572E0,4.300500393E0,9.708877563E0,-6.496513486E-1
4.111449426E0,4.319643021E0,9.708877563E0,-6.424728632E-1
4.113928176E0,4.322035789E0,9.706484795E0,-6.376872063E-1
4.116406145E0,4.319643021E0,9.720842361E0,-6.544370055E-1
4.118884114E0,4.310071945E0,9.716055870E0,-6.520441771E-1
4.121362916E0,4.300500393E0,9.728020668E0,-6.448656917E-1
4.123841718E0,4.326821327E0,9.713663101E0,-6.257231236E-1
4.126319687E0,4.305285931E0,9.718449593E0,-6.424728632E-1
4.128797655E0,4.319643021E0,9.696913719E0,-6.376872063E-1
4.131276457E0,4.312464714E0,9.699306488E0,-6.472585201E-1
4.133755260E0,4.300500393E0,9.711270332E0,-6.305087805E-1
4.136233176E0,4.300500393E0,9.728020668E0,-6.400800347E-1
4.138711145E0,4.300500393E0,9.704092026E0,-6.472585201E-1
4.141189947E0,4.307679176E0,9.692128181E0,-6.568298340E-1
4.143668749E0,4.307679176E0,9.699306488E0,-6.640082598E-1
4.146146718E0,4.310071945E0,9.716055870E0,-6.400800347E-1
4.148624687E0,4.302893162E0,9.718449593E0,-6.448656917E-1
4.151103489E0,4.300500393E0,9.725627899E0,-6.568298340E-1
4.153582291E0,4.305285931E0,9.720842361E0,-6.592226624E-1
4.156060207E0,4.283750534E0,9.723235130E0,-6.544370055E-1
4.158538176E0,4.295714855E0,9.711270332E0,-6.257231236E-1
4.161017030E0,4.295714855E0,9.708877563E0,-6.281159520E-1
4.163495832E0,4.305285931E0,9.704092026E0,-6.281159520E-1
4.165973749E0,4.290929317E0,9.720842361E0,-6.233302951E-1
4.168451718E0,4.278964996E0,9.716055870E0,-6.161518097E-1
4.170930520E0,4.290929317E0,9.728020668E0,-6.161518097E-1
4.173409322E0,4.290929317E0,9.718449593E0,-6.233302951E-1
4.175887291E0,4.290929317E0,9.728020668E0,-6.161518097E-1
4.178365260E0,4.295714855E0,9.723235130E0,-6.065805554E-1
4.180844062E0,4.307679176E0,9.744770050E0,-6.089733839E-1
4.183322864E0,4.286143780E0,9.737591743E0,-6.017948985E-1
4.185800832E0,4.293322086E0,9.732806206E0,-6.161518097E-1
4.188278801E0,4.286143780E0,9.718449593E0,-5.874379873E-1
4.190757603E0,4.281357765E0,9.718449593E0,-6.065805554E-1
4.193236405E0,4.293322086E0,9.723235130E0,-5.970092416E-1
4.195714322E0,4.286143780E0,9.732806206E0,-6.185446382E-1
4.198192291E0,4.300500393E0,9.735198975E0,-6.137589812E-1
4.200671093E0,4.281357765E0,9.737591743E0,-6.065805554E-1
4.203149895E0,4.283750534E0,9.730413437E0,-5.946164131E-1
4.205627864E0,4.300500393E0,9.735198975E0,-6.041877270E-1
4.208105832E0,4.276572227E0,9.728020668E0,-6.089733839E-1
4.210584635E0,4.293322086E0,9.742377281E0,-6.161518097E-1
4.213063437E0,4.283750534E0,9.747162819E0,-6.257231236E-1
4.215541405E0,4.302893162E0,9.742377281E0,-6.161518097E-1
4.218019374E0,4.295714855E0,9.737591743E0,-6.017948985E-1
4.220498176E0,4.290929317E0,9.737591743E0,-5.826523304E-1
4.222976978E0,4.278964996E0,9.751948357E0,-6.209374666E-1
4.225454895E0,4.269393921E0,9.747162819E0,-6.113662124E-1
4.227932864E0,4.278964996E0,9.742377281E0,-5.922235847E-1
4.230411666E0,4.278964996E0,9.742377281E0,-5.970092416E-1
4.232890468E0,4.271786690E0,9.739984512E0,-5.946164131E-1
4.235368437E0,4.262215137E0,9.742377281E0,-5.874379873E-1
4.237846405E0,4.269393921E0,9.737591743E0,-5.874379873E-1
4.240325207E0,4.271786690E0,9.737591743E0,-5.922235847E-1
4.242804010E0,4.250251293E0,9.732806206E0,-5.994020700E-1
4.245281978E0,4.264608383E0,9.723235130E0,-6.089733839E-1
4.247759947E0,4.257429600E0,9.732806206E0,-6.089733839E-1
4.250238749E0,4.262215137E0,9.725627899E0,-6.017948985E-1
4.252717551E0,4.262215137E0,9.725627899E0,-6.113662124E-1
4.255195468E0,4.276572227E0,9.725627899E0,-5.946164131E-1
4.257673437E0,4.259822369E0,9.728020668E0,-5.994020700E-1
4.260152239E0,4.267001152E0,9.744770050E0,-6.065805554E-1
4.262631041E0,4.276572227E0,9.747162819E0,-6.041877270E-1
4.265109010E0,4.295714855E0,9.728020668E0,-6.329016089E-1
4.267586978E0,4.290929317E0,9.747162819E0,-6.257231236E-1
4.270065780E0,4.295714855E0,9.747162819E0,-6.041877270E-1
4.272544582E0,4.286143780E0,9.744770050E0,-6.161518097E-1
4.275022551E0,4.288536549E0,9.720842361E0,-6.161518097E-1
4.277500520E0,4.274179459E0,9.732806206E0,-6.161518097E-1
4.279979322E0,4.274179459E0,9.735198975E0,-6.257231236E-1
4.282458124E0,4.278964996E0,9.737591743E0,-6.305087805E-1
4.284936041E0,4.278964996E0,9.747162819E0,-6.041877270E-1
4.287414010E0,4.298107624E0,9.742377281E0,-6.257231236E-1
4.289892864E0,4.278964996E0,9.735198975E0,-6.352944374E-1
4.292371614E0,4.281357765E0,9.742377281E0,-6.329016089E-1
4.294849582E0,4.281357765E0,9.744770050E0,-6.281159520E-1
4.297327551E0,4.274179459E0,9.763913155E0,-6.329016089E-1
4.299806353E0,4.274179459E0,9.751948357E0,-6.161518097E-1
4.302285155E0,4.288536549E0,9.761520386E0,-6.089733839E-1
4.304763124E0,4.276572227E0,9.751948357E0,-6.089733839E-1
4.307241093E0,4.298107624E0,9.751948357E0,-6.281159520E-1
4.309719895E0,4.278964996E0,9.754341125E0,-6.185446382E-1
4.312198697E0,4.283750534E0,9.737591743E0,-6.137589812E-1
4.314676614E0,4.307679176E0,9.720842361E0,-6.257231236E-1
4.317154582E0,4.295714855E0,9.737591743E0,-6.257231236E-1
4.319633437E0,4.278964996E0,9.730413437E0,-6.161518097E-1
4.322112239E0,4.274179459E0,9.716055870E0,-6.233302951E-1
4.324590155E0,4.271786690E0,9.725627899E0,-6.281159520E-1
4.327068124E0,4.264608383E0,9.720842361E0,-6.376872063E-1
4.329546926E0,4.278964996E0,9.711270332E0,-6.185446382E-1
4.332025728E0,4.271786690E0,9.708877563E0,-6.137589812E-1
4.334503697E0,4.278964996E0,9.704092026E0,-6.329016089E-1
4.336981666E0,4.267001152E0,9.704092026E0,-6.424728632E-1
4.339460468E0,4.264608383E0,9.701699257E0,-6.400800347E-1
4.341939270E0,4.283750534E0,9.704092026E0,-6.257231236E-1
4.344417187E0,4.264608383E0,9.716055870E0,-6.352944374E-1
4.346895155E0,4.274179459E0,9.689735413E0,-6.161518097E-1
4.349374010E0,4.267001152E0,9.689735413E0,-6.352944374E-1
4.351852812E0,4.276572227E0,9.699306488E0,-6.376872063E-1
4.354330728E0,4.269393921E0,9.696913719E0,-6.233302951E-1
4.356808697E0,4.278964996E0,9.706484795E0,-6.472585201E-1
4.359287499E0,4.267001152E0,9.696913719E0,-6.376872063E-1
4.361766301E0,4.264608383E0,9.711270332E0,-6.161518097E-1
4.364244270E0,4.278964996E0,9.696913719E0,-6.041877270E-1
4.366722239E0,4.264608383E0,9.718449593E0,-6.113662124E-1
4.369201041E0,4.281357765E0,9.720842361E0,-6.376872063E-1
4.371679843E0,4.252644062E0,9.716055870E0,-6.400800347E-1
4.374157812E0,4.278964996E0,9.711270332E0,-6.400800347E-1
4.376635780E0,4.267001152E0,9.718449593E0,-6.568298340E-1
4.379114582E0,4.264608383E0,9.706484795E0,-6.568298340E-1
4.381593385E0,4.274179459E0,9.723235130E0,-6.664010882E-1
4.384071301E0,4.288536549E0,9.716055870E0,-6.807580590E-1
4.386549270E0,4.278964996E0,9.735198975E0,-6.759724021E-1
4.389028124E0,4.276572227E0,9.739984512E0,-6.544370055E-1
4.391506874E0,4.276572227E0,9.728020668E0,-6.783652306E-1
4.393984843E0,4.274179459E0,9.720842361E0,-6.711867452E-1
4.396462812E0,4.293322086E0,9.732806206E0,-6.831508875E-1
4.398941614E0,4.259822369E0,9.732806206E0,-6.975077987E-1
4.401420416E0,4.274179459E0,9.730413437E0,-6.927221417E-1
4.403898385E0,4.269393921E0,9.732806206E0,-7.094719410E-1
4.406376353E0,4.233501434E0,9.720842361E0,-7.046862841E-1
4.408855155E0,4.250251293E0,9.701699257E0,-7.310073376E-1
4.411333957E0,4.223930359E0,9.687342644E0,-7.190431952E-1
4.413811874E0,4.233501434E0,9.682557106E0,-7.405785918E-1
4.416289843E0,4.252644062E0,9.689735413E0,-7.477570772E-1
4.418768697E0,4.238286972E0,9.689735413E0,-7.549355626E-1
4.421247499E0,4.228715897E0,9.689735413E0,-7.429714203E-1
4.423725416E0,4.231108665E0,9.692128181E0,-7.716853023E-1
4.426203385E0,4.235894203E0,9.665806770E0,-7.911269665E-1
4.428682239E0,4.233501434E0,9.665806770E0,-7.453642488E-1
4.431160989E0,4.223930359E0,9.644271851E0,-7.764709592E-1
4.433638957E0,4.228715897E0,9.668199539E0,-7.573283911E-1
4.436116926E0,4.240679741E0,9.663414001E0,-7.094719410E-1
4.438595728E0,4.255036831E0,9.634700775E0,-7.070791125E-1
4.441074530E0,4.255036831E0,9.656235695E0,-6.711867452E-1
4.443552499E0,4.264608383E0,9.632308006E0,-6.664010882E-1
4.446030468E0,4.262215137E0,9.622735977E0,-6.305087805E-1
4.448509270E0,4.259822369E0,9.613164902E0,-5.802595019E-1
4.450988072E0,4.293322086E0,9.596415520E0,-5.754738450E-1
4.453465989E0,4.302893162E0,9.613164902E0,-5.276173949E-1
4.455943957E0,4.295714855E0,9.601201057E0,-5.252245665E-1
4.458422812E0,4.276572227E0,9.605986595E0,-5.132604837E-1
4.460901562E0,4.310071945E0,9.617950439E0,-4.821537733E-1
4.463379530E0,4.314857483E0,9.632308006E0,-4.462614357E-1
4.465857499E0,4.307679176E0,9.577272415E0,-4.151547253E-1
4.468336301E0,4.314857483E0,9.567701340E0,-3.888336718E-1
4.470815103E0,4.317250252E0,9.567701340E0,-3.505485058E-1
4.473293072E0,4.317250252E0,9.577272415E0,-3.218346536E-1
4.475771041E0,4.324428558E0,9.627521515E0,-2.979064286E-1
4.478249843E0,4.322035789E0,9.651450157E0,-2.763710022E-1
4.480728645E0,4.336392879E0,9.680164337E0,-2.572284341E-1
4.483206562E0,4.317250252E0,9.713663101E0,-2.237289101E-1
4.485684530E0,4.312464714E0,9.747162819E0,-2.189432681E-1
4.488163385E0,4.305285931E0,9.792626381E0,-1.947159469E-1
4.490642187E0,4.262215137E0,9.811769485E0,-1.779661775E-1
4.493120103E0,4.267001152E0,9.842875481E0,-1.612164229E-1
4.495598072E0,4.276572227E0,9.876375198E0,-1.133599728E-1
4.498076926E0,4.250251293E0,9.900303841E0,-9.900303930E-2
4.500555676E0,4.264608383E0,9.919445992E0,-5.353940651E-2
4.503033645E0,4.245465755E0,9.960124016E0,-2.482553571E-2
4.505511614E0,4.240679741E0,9.986445427E0,-8.075776510E-3
4.507990416E0,4.180859566E0,1.001515961E1,1.824527234E-2
4.510469218E0,4.139882088E0,1.003190899E1,3.738785535E-2
4.512947187E0,4.084847450E0,1.006570721E1,5.174478889E-2
4.515425155E0,4.072883129E0,1.008485031E1,8.285148442E-2
4.517903957E0,4.060919285E0,1.009681416E1,8.524430543E-2
4.520382760E0,4.013062477E0,1.015184879E1,1.163510010E-1
4.522860728E0,3.991527319E0,1.016859913E1,1.211366430E-1
4.525338697E0,3.953242064E0,1.018056297E1,1.354935765E-1
4.527817499E0,3.922135353E0,1.021884823E1,1.378864050E-1
4.530296301E0,3.922135353E0,1.024277687E1,1.139581800E-1
4.532774218E0,3.917349815E0,1.027388287E1,1.307079345E-1
4.535252187E0,3.912564039E0,1.034327507E1,1.402792335E-1
4.537731041E0,3.895814419E0,1.035523891E1,1.881356835E-1
4.540209843E0,3.902992725E0,1.036959648E1,2.120639086E-1
4.542687760E0,3.895814419E0,1.040070248E1,2.431706041E-1
4.545165728E0,3.879064560E0,1.043420219E1,3.077768087E-1
4.547644530E0,3.881457329E0,1.047727299E1,3.317050338E-1
4.550123332E0,3.867100477E0,1.048445129E1,3.966103494E-1
4.552601301E0,3.845565081E0,1.049880886E1,4.492524564E-1
4.555079270E0,3.838386536E0,1.050359440E1,4.899304509E-1
4.557558072E0,3.828815222E0,1.051555824E1,5.138586760E-1
4.560036874E0,3.838386536E0,1.055862904E1,5.617151260E-1
4.562514843E0,3.833600998E0,1.057059288E1,6.119644046E-1
4.564992812E0,3.857529163E0,1.058255768E1,7.004988194E-1
4.567471614E0,3.838386536E0,1.061127090E1,7.531409264E-1
4.569950416E0,3.879064560E0,1.063789082E1,8.105686903E-1
4.572428332E0,3.914957047E0,1.066899776E1,8.775677085E-1
4.574906301E0,3.943670750E0,1.073360443E1,9.352945685E-1
4.577385155E0,3.972384691E0,1.075035381E1,9.879366755E-1
4.579863957E0,3.936492443E0,1.071206856E1,1.066899776E0
4.582341874E0,3.946063757E0,1.063071251E1,1.191326618E0
4.584819843E0,3.931706667E0,1.054666519E1,1.308574915E0
4.587298645E0,3.943670750E0,1.050359440E1,1.397109270E0
4.589777447E0,3.962813377E0,1.048684406E1,1.500299811E0
4.592255416E0,3.962813377E0,1.045573807E1,1.629512191E0
4.594733385E0,3.986741543E0,1.041027355E1,1.753939033E0
4.597212187E0,3.979563236E0,1.038156033E1,1.866401672E0
4.599690989E0,4.010669708E0,1.036241722E1,1.942971945E0
4.602168957E0,4.008276939E0,1.032891846E1,2.031805515E0
4.604646926E0,4.008276939E0,1.027149010E1,2.129911184E0
4.607125728E0,4.003491402E0,1.027149010E1,2.213660002E0
4.609604530E0,3.984348774E0,1.026670456E1,2.306980133E0
4.612082447E0,3.974777460E0,1.026431179E1,2.433799744E0
4.614560416E0,3.998705626E0,1.025234795E1,2.517548561E0
4.617039270E0,4.017848492E0,1.022602654E1,2.615953445E0
4.619518072E0,4.001098633E0,1.018774128E1,2.723630428E0
4.621995989E0,4.013062477E0,1.025713348E1,2.824128866E0
4.624473957E0,4.056133270E0,1.032173920E1,2.998805046E0
4.626952812E0,4.087240219E0,1.035763168E1,3.214458227E0
4.629431562E0,4.103990078E0,1.043420219E1,3.401098251E0
4.631909530E0,4.072883129E0,1.050120163E1,3.578167200E0
4.634387499E0,4.075275898E0,1.053709316E1,3.704986811E0
4.636866301E0,4.149453640E0,1.062084198E1,3.693022728E0
4.639345103E0,4.243072987E0,1.070967579E1,3.884747505E0
4.641823072E0,4.255036831E0,1.073360443E1,3.925425529E0
4.644301041E0,4.290929317E0,1.076710415E1,4.006781578E0
4.646779843E0,4.257429600E0,1.084367371E1,4.073780537E0
4.649258645E0,4.185645103E0,1.095135117E1,4.013959885E0
4.651736562E0,4.115953922E0,1.106859970E1,3.856033802E0
4.654214530E0,4.065704823E0,1.115713406E1,3.614059448E0
4.656693385E0,4.247858524E0,1.113081264E1,3.501596928E0
4.659172187E0,4.252644062E0,1.098963642E1,3.322135210E0
4.661650103E0,4.068097591E0,1.086520958E1,3.075375319E0
4.664128072E0,3.950849295E0,1.087956619E1,2.869592667E0
4.666606926E0,3.941277981E0,1.091785145E1,2.606382132E0
4.669085676E0,3.967599154E0,1.088913727E1,2.187339067E0
4.671563645E0,3.974777460E0,1.076710415E1,1.698904037E0
4.674041614E0,3.917349815E0,1.065464115E1,1.141077280E0
4.676520416E0,4.111168385E0,1.078624630E1,8.703892231E-1
4.678999218E0,4.343571186E0,1.095135117E1,1.095613718E0
4.681477187E0,4.549354076E0,1.109970570E1,1.634297848E0
4.683955155E0,4.585246563E0,1.143500042E1,1.942971945E0
4.686433957E0,4.130311012E0,1.133210850E1,8.823533654E-1
4.688912760E0,3.498306751E0,1.101834965E1,-1.300798178E0
4.691390728E0,3.292523861E0,1.078385353E1,-3.110968590E0
4.693868697E0,3.457628727E0,1.076949692E1,-4.307978153E0
4.696347499E0,3.754637718E0,1.068574810E1,-4.688436985E0
4.698826301E0,3.948456526E0,1.046530914E1,-4.595116615E0
4.701304218E0,4.154239178E0,1.050120163E1,-4.094717979E0
4.703782187E0,4.334000111E0,1.046052361E1,-3.647259951E0
4.706261041E0,4.374678135E0,1.031934643E1,-3.455534935E0
4.708739843E0,4.441677094E0,1.015902805E1,-3.228216887E0
4.711217760E0,4.501497746E0,9.986445427E0,-3.024827003E0
4.713695728E0,4.609174728E0,9.823733330E0,-2.723032236E0
4.716174530E0,4.724030018E0,9.651450157E0,-2.454736948E0
4.718653332E0,4.820042133E0,9.515059471E0,-2.141277075E0
4.721131301E0,4.815256596E0,9.407083511E0,-1.870589137E0
4.723609270E0,4.803292274E0,9.275477409E0,-1.576271892E0
4.726088072E0,4.817649364E0,9.206086159E0,-1.229013562E0
4.728566874E0,4.843970299E0,9.208478928E0,-8.437690735E-1
4.731044843E0,4.793721199E0,9.119944572E0,-4.845465720E-1
4.733522812E0,4.707280159E0,9.021839142E0,-1.923231184E-1
4.736001614E0,4.628317356E0,8.940183640E0,3.888336709E-3
4.738480416E0,4.592424870E0,8.906683922E0,1.737787426E-1
4.740958385E0,4.530211449E0,8.894720078E0,4.827519655E-1
4.743436353E0,4.477569580E0,8.873184204E0,8.105686903E-1
4.745915155E0,4.420141697E0,8.854042053E0,1.062114120E0
4.748393957E0,4.326821327E0,8.877969742E0,1.303789258E0
4.750871874E0,4.269393921E0,8.928219795E0,1.449751377E0
4.753349843E0,4.176073551E0,8.923434258E0,1.545763373E0
4.755828697E0,4.111168385E0,8.901898384E0,1.600798368E0
4.758307499E0,4.036991119E0,8.870791435E0,1.629512191E0
4.760785416E0,3.950849295E0,8.880363464E0,1.677368641E0
4.763263385E0,3.900599957E0,8.868398666E0,1.667797327E0
4.765742239E0,3.847957850E0,8.863613129E0,1.665404558E0
4.768221041E0,3.804887056E0,8.856434822E0,1.610369682E0
4.770698957E0,3.764209032E0,8.842078209E0,1.519442320E0
4.773176926E0,3.747459412E0,8.854042053E0,1.385145187E0
4.775655728E0,3.735495329E0,8.834898949E0,1.243968725E0
4.778134530E0,3.718745470E0,8.820542336E0,1.102792144E0
4.780612499E0,3.709174156E0,8.784649849E0,9.855438471E-1
4.783090468E0,3.723531246E0,8.796614647E0,8.488538265E-1
4.785569270E0,3.768994808E0,8.796614647E0,7.459624410E-1
4.788048072E0,3.795315742E0,8.796614647E0,6.550351977E-1
4.790526041E0,3.785744429E0,8.796614647E0,6.406782866E-1
4.793004010E0,3.795315742E0,8.803792953E0,6.167500615E-1
4.795482812E0,3.821636915E0,8.820542336E0,5.784648657E-1
4.797961614E0,3.824029684E0,8.794221878E0,6.502495408E-1
4.800439530E0,3.819244146E0,8.775078773E0,6.765705943E-1
4.802917499E0,3.814458370E0,8.787042618E0,7.004988194E-1
4.805396353E0,3.824029684E0,8.830113411E0,7.459624410E-1
4.807875155E0,3.821636915E0,8.818149567E0,8.297112584E-1
4.810353072E0,3.780958891E0,8.791828156E0,1.023828983E0
4.812831041E0,3.766602039E0,8.820542336E0,1.131505966E0
4.815309895E0,3.747459412E0,8.794221878E0,1.306182027E0
4.817788697E0,3.723531246E0,8.808578491E0,1.358824134E0
4.820266614E0,3.716352701E0,8.815756798E0,1.413859129E0
4.822744582E0,3.749852180E0,8.710473061E0,1.569691658E0
4.825223437E0,3.721138239E0,8.722436905E0,1.574477315E0
4.827702239E0,3.740280867E0,8.734400749E0,1.584048629E0
4.830180155E0,3.761816263E0,8.808578491E0,1.497906923E0
4.832658124E0,3.766602039E0,8.837292671E0,1.428215981E0
4.835136926E0,3.776173353E0,8.842078209E0,1.344467282E0
4.837615728E0,3.788137436E0,8.808578491E0,1.351645708E0
4.840093697E0,3.785744429E0,8.810971260E0,1.342074394E0
4.842571666E0,3.792922974E0,8.825327873E0,1.284646630E0
4.845050468E0,3.850350618E0,8.844470978E0,1.220040441E0
4.847529270E0,3.828815222E0,8.892327309E0,1.126720309E0
4.850007239E0,3.828815222E0,8.894720078E0,1.162612677E0
4.852485207E0,3.835993767E0,8.911469460E0,1.117149115E0
4.854964010E0,3.831208229E0,8.913862228E0,1.100399256E0
4.857442812E0,3.847957850E0,8.866005898E0,1.186540961E0
4.859920728E0,3.919742584E0,8.954839706E0,1.181755304E0
4.862398749E0,3.950849295E0,9.014659882E0,1.270289779E0
4.864877551E0,3.924528122E0,9.052945137E0,1.299003601E0
4.867356353E0,3.946063757E0,9.098408699E0,1.222433209E0
4.869834270E0,4.029812336E0,9.019445419E0,1.370788217E0
4.872312239E0,4.051347733E0,9.009874344E0,1.555334687E0
4.874791093E0,4.084847450E0,8.990732193E0,1.603191137E0
4.877269895E0,4.108775616E0,8.935398102E0,1.734796405E0
4.879747812E0,4.137489319E0,8.937790871E0,1.902294040E0
4.882225780E0,4.192823410E0,8.837292671E0,2.017149448E0
4.884704635E0,4.211966038E0,8.875576973E0,2.113161564E0
4.887183385E0,4.231108665E0,8.918647766E0,2.168196440E0
4.889661353E0,4.255036831E0,8.925827026E0,2.216052771E0
4.892139322E0,4.360321045E0,8.899505615E0,2.328515530E0
4.894618124E0,4.415356159E0,8.909076691E0,2.476870537E0
4.897096926E0,4.396213531E0,8.962018013E0,2.543869495E0
4.899574895E0,4.393820763E0,8.966803551E0,2.565404892E0
4.902052864E0,4.432105541E0,8.973981857E0,2.582154751E0
4.904531666E0,4.456034184E0,8.909076691E0,2.613560438E0
4.907010468E0,4.446462631E0,8.866005898E0,2.680559635E0
4.909488437E0,4.439284325E0,8.897112846E0,2.709273338E0
4.911966405E0,4.434498787E0,8.901898384E0,2.728415966E0
4.914445207E0,4.405784607E0,8.889934540E0,2.730808735E0
4.916924010E0,4.393820763E0,8.913862228E0,2.795415163E0
4.919401978E0,4.360321045E0,8.940183640E0,2.869592667E0
4.921879947E0,4.374678135E0,8.957232475E0,2.895913601E0
4.924358749E0,4.372285366E0,8.935398102E0,2.929413080E0
4.926837551E0,4.357928276E0,8.930612564E0,2.883949518E0
4.929315468E0,4.381856441E0,8.969196320E0,2.840878725E0
4.931793437E0,4.417748928E0,8.990732193E0,2.714059114E0
4.934272291E0,4.420141697E0,9.019445419E0,2.632703066E0
4.936751093E0,4.417748928E0,9.036195755E0,2.503191471E0
4.939229010E0,4.360321045E0,9.029017448E0,2.440978289E0
4.941706978E0,4.305285931E0,9.033802986E0,2.369193554E0
4.944185832E0,4.243072987E0,9.024231911E0,2.318944216E0
4.946664635E0,4.185645103E0,9.055337906E0,2.302194595E0
4.949142551E0,4.111168385E0,9.153444290E0,2.278266191E0
4.951620520E0,4.046562195E0,9.182157516E0,2.304587364E0
4.954099322E0,3.941277981E0,9.285049438E0,2.295016050E0
4.956578124E0,3.840779543E0,9.354440689E0,2.261516571E0
4.959056093E0,3.723531246E0,9.371191025E0,2.208874464E0
4.961534062E0,3.608675718E0,9.414261818E0,2.204088688E0
4.964012864E0,3.495913982E0,9.464510918E0,2.192124605E0
4.966491666E0,3.381058455E0,9.488439560E0,2.177767754E0
4.968969635E0,3.237488985E0,9.560523033E0,2.137089729E0
4.971447603E0,3.129812002E0,9.577272415E0,2.101197481E0
4.973926405E0,3.038585663E0,9.634700775E0,2.115554333E0
4.976405207E0,2.914158821E0,9.670592308E0,2.082054853E0
4.978883176E0,2.808874607E0,9.668199539E0,2.091626167E0
4.981361145E0,2.708376169E0,9.675378799E0,2.067697763E0
4.983839947E0,2.605484724E0,9.718449593E0,2.091626167E0
4.986318749E0,2.504986286E0,9.728020668E0,2.084447622E0
4.988796718E0,2.437688112E0,9.732806206E0,2.067697763E0
4.991274687E0,2.337189436E0,9.749555588E0,2.036591291E0
4.993753489E0,2.272583246E0,9.804591179E0,1.978864312E0
4.996232291E0,2.243869543E0,9.797411919E0,1.931007862E0
4.998710207E0,2.217548370E0,9.775876999E0,1.835294962E0
5.001188176E0,2.210369825E0,9.749555588E0,1.677368641E0
5.003667030E0,2.224726915E0,9.744770050E0,1.612762451E0
5.006145832E0,2.267797709E0,9.701699257E0,1.562513232E0
5.008623749E0,2.289333105E0,9.613164902E0,1.665404558E0
5.011101718E0,2.330011129E0,9.515059471E0,1.674975872E0
5.013580572E0,2.416152716E0,9.387940407E0,1.763510346E0
5.016059374E0,2.488236427E0,9.330513000E0,1.878365755E0
5.018537291E0,2.567199707E0,9.292227745E0,2.021935225E0
5.021015260E0,2.653341293E0,9.285049438E0,2.055733681E0
5.023494114E0,2.758625507E0,9.268299103E0,2.165803671E0
5.025972916E0,2.830410004E0,9.177371979E0,2.297408819E0
5.028450832E0,2.930908680E0,9.119944572E0,2.362015009E0
5.030928801E0,2.993122101E0,9.119944572E0,2.362015009E0
5.033407655E0,3.069991350E0,9.100801468E0,2.491227388E0
5.035886457E0,3.148954630E0,9.031410217E0,2.601596355E0
5.038364374E0,3.278167009E0,9.048159599E0,2.565404892E0
5.040842343E0,3.369094372E0,9.000303268E0,2.635095835E0
5.043321145E0,3.452843189E0,8.945268631E0,2.728415966E0
5.045799947E0,3.550948858E0,8.858827591E0,2.850450039E0
5.048277916E0,3.625425339E0,8.863613129E0,2.900699139E0
5.050755885E0,3.716352701E0,8.830113411E0,2.982055187E0
5.053234687E0,3.792922974E0,8.779864311E0,3.005983353E0
5.055713489E0,3.905385733E0,8.808578491E0,3.005983353E0
5.058191457E0,3.946063757E0,8.813364029E0,2.950948477E0
5.060669426E0,3.955634832E0,8.858827591E0,2.809772015E0
5.063148228E0,3.984348774E0,8.885149002E0,2.714059114E0
5.065627030E0,4.029812336E0,8.906683922E0,2.709273338E0
5.068104999E0,4.070490360E0,8.957232475E0,2.706880569E0
5.070582968E0,4.099204063E0,9.009874344E0,2.728415966E0
5.073061770E0,4.125525475E0,9.117551804E0,2.800200701E0
5.075540572E0,4.151846409E0,9.208478928E0,2.809772015E0
5.078018489E0,4.154239178E0,9.299406052E0,2.828914642E0
5.080496510E0,4.147060871E0,9.397511482E0,2.826521635E0
5.082975312E0,4.144668102E0,9.529416084E0,2.826521635E0
5.085454114E0,4.176073551E0,9.675378799E0,2.826521635E0
5.087932030E0,4.173680782E0,9.802198410E0,2.826521635E0
5.090409999E0,4.200001717E0,9.931410789E0,2.809772015E0
5.092888853E0,4.238286972E0,1.003430176E1,2.793022156E0
5.095367655E0,4.271786690E0,1.013031387E1,2.773879766E0
5.097845572E0,4.295714855E0,1.020688438E1,2.759522676E0
5.100323541E0,4.357928276E0,1.026909733E1,2.737987280E0
5.102802395E0,4.396213531E0,1.027627563E1,2.745165825E0
5.105281197E0,4.475176334E0,1.028584766E1,2.800200701E0
5.107759114E0,4.523033142E0,1.027149010E1,2.840878725E0
5.110237082E0,4.539782524E0,1.030020428E1,2.800200701E0
5.112715937E0,4.527818680E0,1.032891846E1,2.690130949E0
5.115194739E0,4.518247128E0,1.036002445E1,2.563012123E0
5.117672655E0,4.539782524E0,1.039113140E1,2.462513685E0
5.120150624E0,4.539782524E0,1.042463112E1,2.407478571E0
5.122629478E0,4.590032101E0,1.046291637E1,2.419442892E0
5.125108280E0,4.604389191E0,1.049641609E1,2.421835661E0
5.127586197E0,4.625924587E0,1.051316547E1,2.417049885E0
5.130064166E0,4.623531342E0,1.052752209E1,2.436192513E0
5.132543020E0,4.625924587E0,1.052273655E1,2.452942371E0
5.135021770E0,4.618745804E0,1.052512932E1,2.469691992E0
5.137499739E0,4.625924587E0,1.055384350E1,2.522334099E0
5.139977707E0,4.640281200E0,1.056580734E1,2.574976206E0
5.142456510E0,4.642673969E0,1.056820011E1,2.599203587E0
5.144935312E0,4.647459984E0,1.056580734E1,2.659024239E0
5.147413280E0,4.676173687E0,1.055145073E1,2.711666346E0
5.149891249E0,4.649852753E0,1.051555824E1,2.747558594E0
5.152370051E0,4.680959225E0,1.046530914E1,2.824128866E0
5.154848853E0,4.654638290E0,1.045095158E1,2.891128063E0
5.157326822E0,4.652245522E0,1.041745281E1,2.941377163E0
5.159804791E0,4.633102894E0,1.039352417E1,2.986840963E0
