"Time (s)","Acceleration x (m/s^2)","Acceleration y (m/s^2)","Acceleration z (m/s^2)"
2.155891800E-2,-4.538586140E0,3.837788343E0,7.027122021E0
2.402308500E-2,-4.452444553E0,4.079762459E0,6.945466995E0
2.648730400E-2,-4.385445595E0,4.178167343E0,6.816254616E0
2.895147000E-2,-4.466801643E0,4.180560112E0,6.773183823E0
3.141563700E-2,-4.466801643E0,4.192524433E0,6.761219501E0
3.387980400E-2,-4.426123619E0,4.221238136E0,6.669992924E0
3.634397000E-2,-4.406980991E0,4.242773533E0,6.538387775E0
3.880813700E-2,-4.402195454E0,4.285844326E0,6.500102520E0
4.127230400E-2,-4.387838364E0,4.223630905E0,6.480959892E0
4.373647000E-2,-4.330111504E0,4.156332970E0,6.394519329E0
4.620058500E-2,-4.325325966E0,4.113262177E0,6.473482609E0
4.866475200E-2,-4.260719776E0,3.967299938E0,6.435197353E0
5.112897000E-2,-4.346861362E0,3.430709362E0,6.559923172E0
5.359313700E-2,-4.409373760E0,2.529811859E0,6.674778938E0
5.665485600E-2,-3.827319860E0,2.798106909E0,6.732206345E0
5.911902200E-2,-3.352942705E0,3.195913792E0,6.792325974E0
6.158313700E-2,-3.223431110E0,3.315554857E0,6.813861370E0
6.404735600E-2,-3.077469110E0,3.337090254E0,6.833003998E0
6.651147000E-2,-2.947957516E0,3.457030535E0,6.787540436E0
6.897563700E-2,-2.861815929E0,3.540779352E0,6.739385128E0
7.143985600E-2,-2.854637384E0,3.653541088E0,6.770790577E0
7.390402200E-2,-2.916850805E0,3.679862022E0,6.794719219E0
7.636813700E-2,-3.094218731E0,3.593421459E0,6.787540436E0
7.883230400E-2,-3.726522207E0,3.238984585E0,6.696314335E0
8.129652200E-2,-3.911068678E0,2.975475073E0,6.437590122E0
8.376068900E-2,-3.185146093E0,3.243770123E0,6.361020088E0
8.672219900E-2,-2.770888567E0,3.394817114E0,6.387341022E0
8.918641800E-2,-2.545664072E0,3.368496180E0,6.353841305E0
9.165058500E-2,-2.337189436E0,3.274876833E0,6.454339981E0
9.411475200E-2,-2.207977057E0,3.188735247E0,6.543173313E0
9.657891800E-2,-2.147857428E0,3.006581545E0,6.500102520E0
9.904308500E-2,-2.092822552E0,2.802892685E0,6.564708710E0
1.015072520E-1,-2.030609131E0,2.776571512E0,6.497709751E0
1.039714180E-1,-2.028216362E0,2.798106909E0,6.665207386E0
1.064355850E-1,-1.992323995E0,2.759821892E0,6.821040154E0
1.088997520E-1,-2.059323072E0,2.711965322E0,6.983751774E0
1.113639180E-1,-2.116750717E0,2.697608471E0,7.230511665E0
1.138280850E-1,-2.188535452E0,2.666501760E0,7.486843109E0
1.168523560E-1,-2.308475733E0,2.548954248E0,7.697710514E0
1.193165220E-1,-2.318047047E0,2.386242390E0,7.949255943E0
1.217806890E-1,-2.260619164E0,2.213660002E0,8.210372925E0
1.242448560E-1,-2.284547329E0,2.050948143E0,8.346763611E0
1.267089700E-1,-2.260619164E0,1.911865234E0,8.540881157E0
1.291731890E-1,-2.176571369E0,1.749153376E0,8.701499939E0
1.316373560E-1,-2.119143486E0,1.732104540E0,8.830712318E0
1.341015220E-1,-2.186142683E0,2.009970903E0,8.976973534E0
1.365656890E-1,-2.248655081E0,2.304886341E0,8.668000221E0
1.390298560E-1,-2.011466503E0,2.053340912E0,8.052146912E0
1.414940220E-1,-1.632802367E0,1.926222205E0,7.613961697E0
1.439581890E-1,-1.216152072E0,1.797009826E0,7.225726128E0
1.469453240E-1,-9.191430211E-1,1.703390598E0,6.947859764E0
1.494094910E-1,-6.891329288E-1,1.600499272E0,6.691528320E0
1.518737100E-1,-6.101697683E-1,1.423131227E0,6.420840263E0
1.543378240E-1,-5.958128572E-1,1.281954765E0,6.303592205E0
1.568019910E-1,-5.838487148E-1,1.116550922E0,6.078367710E0
1.592661580E-1,-5.333003402E-1,1.006481051E0,5.917749405E0
1.617303240E-1,-5.428716540E-1,9.296116233E-1,5.869893074E0
1.641944910E-1,-5.117649436E-1,9.681958556E-1,5.977869034E0
1.666586580E-1,-4.782654345E-1,9.634101987E-1,6.126224041E0
1.691228240E-1,-4.878367186E-1,1.049551845E0,6.337091446E0
1.715870430E-1,-6.053841114E-1,1.056730270E0,6.698707104E0
1.740511580E-1,-7.489534616E-1,1.047158957E0,7.007680416E0
1.770674600E-1,-9.119645357E-1,1.104586720E0,7.280761242E0
1.795316270E-1,-1.153938770E0,1.166800141E0,7.575676441E0
1.819957930E-1,-1.350150228E0,1.243669510E0,7.889435291E0
1.844599600E-1,-1.570588946E0,1.325025558E0,8.078468323E0
1.869241270E-1,-1.683350682E0,1.420738459E0,8.193622589E0
1.893882930E-1,-1.901097536E0,1.500000715E0,8.457132339E0
1.918524600E-1,-2.054537296E0,1.538285851E0,8.631808281E0
1.943166270E-1,-2.157428741E0,1.588535190E0,8.773283958E0
1.967807930E-1,-2.217548370E0,1.626820326E0,8.950652122E0
1.992449600E-1,-2.234298229E0,1.648355722E0,9.122935295E0
2.017091270E-1,-2.188535452E0,1.610070586E0,9.226125717E0
2.041732930E-1,-2.104786634E0,1.478166223E0,9.300303459E0
2.071585540E-1,-2.361117840E0,1.066301584E0,1.044287586E1
2.096227720E-1,-2.222334146E0,9.586246014E-1,1.241695499E1
2.120869390E-1,-1.649552107E0,1.214955688E0,1.291974640E1
2.145511060E-1,-1.891526341E0,1.360917926E0,1.232812119E1
2.170152720E-1,-2.430509567E0,1.394417405E0,1.201436234E1
2.194794390E-1,-2.940778971E0,1.475773335E0,1.165753269E1
2.219435540E-1,-3.182753325E0,1.602892041E0,1.081675434E1
2.244077720E-1,-3.309871912E0,1.657927036E0,9.999904633E0
2.268719390E-1,-3.522833109E0,1.679462433E0,9.695418358E0
2.293361060E-1,-3.683451414E0,1.693819284E0,9.805787086E0
2.318002720E-1,-3.771985769E0,1.674676776E0,1.008365345E1
2.342644390E-1,-3.798306942E0,1.593320727E0,1.049073315E1
2.372783970E-1,-3.685844183E0,1.500000715E0,1.073749256E1
2.397425640E-1,-3.590131283E0,1.336989641E0,1.096750259E1
2.422067310E-1,-3.470191002E0,1.118943691E0,1.116162014E1
2.446708970E-1,-3.477369547E0,9.104689956E-1,1.125494003E1
2.471350640E-1,-3.419941664E0,7.788637877E-1,1.135095215E1
2.495992310E-1,-3.419941664E0,6.421737671E-1,1.140598774E1
2.520633970E-1,-3.340978622E0,5.057829022E-1,1.146102238E1
2.545275640E-1,-3.244966507E0,3.284149170E-1,1.154955673E1
2.569917310E-1,-3.187538862E0,1.271187067E-1,1.165992546E1
2.594558970E-1,-3.180360317E0,-4.995017126E-2,1.165753269E1
2.619200640E-1,-3.010469913E0,-2.464607358E-1,1.175085258E1
2.643842310E-1,-2.823530674E0,-4.166502357E-1,1.177478123E1
2.673785540E-1,-2.629412889E0,-4.884349108E-1,1.158544922E1
2.698426680E-1,-2.552842617E0,-5.075774789E-1,1.172453213E1
2.723068350E-1,-2.447259426E0,-4.091726840E-1,1.174367428E1
2.747710020E-1,-2.353939295E0,-2.895315289E-1,1.171256733E1
2.772351680E-1,-2.361117840E0,-2.225325108E-1,1.155673504E1
2.796993350E-1,-2.464308262E0,-1.001994461E-1,1.137727356E1
2.821635020E-1,-2.603091955E0,7.447660714E-2,1.105125141E1
2.846276680E-1,-2.713161707E0,2.422732860E-1,1.077817059E1
2.870918350E-1,-2.878565550E0,4.363910258E-1,1.048116112E1
2.895560020E-1,-3.022433996E0,6.855437160E-1,1.033280659E1
2.920201680E-1,-3.130111217E0,9.320043921E-1,1.022722340E1
2.944843350E-1,-3.139682293E0,1.171585798E0,1.006211853E1
2.974919910E-1,-3.223431110E0,1.432702541E0,1.001665497E1
2.999561580E-1,-3.192324400E0,1.607677698E0,9.937392235E0
3.024203240E-1,-3.228216887E0,1.780260086E0,9.801001549E0
3.048844910E-1,-3.355335474E0,1.998006940E0,9.693025589E0
3.073486580E-1,-3.355335474E0,2.129911184E0,9.460921288E0
3.098128240E-1,-3.415156126E0,2.220838547E0,9.537491798E0
3.122769910E-1,-3.470191002E0,2.369492531E0,9.508777618E0
3.147411580E-1,-3.431905985E0,2.450848579E0,9.496813774E0
3.172053240E-1,-3.364906788E0,2.501097918E0,9.544670105E0
3.196694910E-1,-3.307479143E0,2.481955290E0,9.704989433E0
3.221336580E-1,-3.233002424E0,2.455634356E0,9.915857315E0
3.245978240E-1,-3.206681490E0,2.407777786E0,1.018893814E1
3.275785020E-1,-3.173182011E0,2.350350142E0,1.042134094E1
3.300426680E-1,-3.199502945E0,2.172981977E0,1.060110188E1
3.325068350E-1,-3.261716366E0,1.887937069E0,1.090528965E1
3.349710020E-1,-3.319443226E0,1.657927036E0,1.110419273E1
3.374351680E-1,-3.419941664E0,1.475773335E0,1.119272709E1
3.398993350E-1,-3.396013498E0,1.322632670E0,1.121426201E1
3.423635020E-1,-3.170789003E0,1.346560955E0,1.122144127E1
3.448277200E-1,-2.912065268E0,1.384846091E0,1.120947647E1
3.472918870E-1,-2.926422119E0,1.456630826E0,1.122144127E1
3.497560020E-1,-3.084647417E0,1.495215058E0,1.117358398E1
3.522201680E-1,-3.439084291E0,1.555035591E0,1.126451206E1
3.546843350E-1,-3.805485249E0,1.655534148E0,1.136291695E1
3.577013660E-1,-4.203291893E0,1.835294962E0,1.145145130E1
3.601655330E-1,-4.418945312E0,1.974078655E0,1.143948650E1
3.626296990E-1,-4.629812717E0,2.098804474E0,1.149691486E1
3.650938660E-1,-4.677669048E0,2.201695919E0,1.143230820E1
3.675579810E-1,-4.653740883E0,2.302493572E0,1.127886868E1
3.700221990E-1,-4.744668007E0,2.438884497E0,1.124058342E1
3.724863660E-1,-4.797310352E0,2.625823736E0,1.122622681E1
3.749505330E-1,-5.000999451E0,2.755036116E0,1.125015450E1
3.774146990E-1,-5.151747227E0,2.826820850E0,1.122144127E1
3.798788660E-1,-5.254937649E0,2.860619545E0,1.122622681E1
3.823430330E-1,-5.319543839E0,2.886940479E0,1.119033432E1
3.848071470E-1,-5.298008442E0,2.925225735E0,1.114487076E1
3.877970430E-1,-5.207081318E0,2.886940479E0,1.100339508E1
3.902612100E-1,-5.079962254E0,2.906083107E0,1.095075321E1
3.927253770E-1,-4.859523773E0,2.886940479E0,1.091007519E1
3.951895430E-1,-4.672883511E0,2.762214661E0,1.080957603E1
3.976537100E-1,-4.497908592E0,2.714358091E0,1.075424194E1
4.001178770E-1,-4.227220535E0,2.611466885E0,1.068963623E1
4.025820430E-1,-4.030709743E0,2.520240545E0,1.064895821E1
4.050461580E-1,-3.875176191E0,2.376671076E0,1.053888798E1
4.075103770E-1,-3.614059448E0,2.022234201E0,1.046680450E1
4.099745430E-1,-3.271586657E0,1.605284929E0,1.033998489E1
4.124387100E-1,-2.890529871E0,1.353739381E0,1.017458057E1
4.149028770E-1,-2.538485765E0,1.176371455E0,1.011954594E1
4.179063660E-1,-2.341975212E0,1.118943691E0,1.016740227E1
4.203705330E-1,-2.332403898E0,1.099801064E0,1.035434151E1
4.228346990E-1,-2.490629196E0,1.037587762E0,1.046919727E1
4.252988660E-1,-2.682054996E0,1.008873820E0,1.049791145E1
4.277630330E-1,-2.876172781E0,1.006481051E0,1.050748253E1
4.302271990E-1,-3.051147938E0,1.011266708E0,1.046441174E1
4.326913660E-1,-3.293122053E0,1.106979609E0,1.044048309E1
4.351555330E-1,-3.498904943E0,1.193121195E0,1.029452133E1
4.376196990E-1,-3.606881142E0,1.267597795E0,1.000947666E1
4.400838660E-1,-3.640380621E0,1.265205026E0,9.393623352E0
4.425480330E-1,-3.614059448E0,1.193121195E0,8.387741089E0
4.450121470E-1,-3.602095366E0,1.121336460E0,7.642675400E0
4.480122520E-1,-3.707379580E0,1.274776220E0,7.702496052E0
4.504763660E-1,-3.832105398E0,1.214955688E0,8.500203133E0
4.529405330E-1,-3.659523249E0,1.106979609E0,9.391230583E0
4.554046990E-1,-3.367299557E0,1.066301584E0,9.777072906E0
4.578688660E-1,-3.000898600E0,1.181157112E0,9.865608215E0
4.603330330E-1,-2.703590393E0,1.396810174E0,9.642776489E0
4.627971990E-1,-2.603091955E0,1.677069545E0,9.161220551E0
4.652613660E-1,-2.550449848E0,1.916650891E0,8.708678246E0
4.677255330E-1,-2.655734062E0,2.070090771E0,8.363512993E0
4.701896990E-1,-2.761317253E0,2.192124605E0,8.117053032E0
4.726538660E-1,-2.833101988E0,2.283051968E0,7.980362415E0
4.751180330E-1,-2.861815929E0,2.280659199E0,7.994719505E0
4.781245950E-1,-2.864208698E0,2.307279348E0,8.028219223E0
4.805887620E-1,-2.837887764E0,2.247159481E0,8.023433685E0
4.830529290E-1,-2.730210543E0,2.158625126E0,7.944470406E0
4.855170950E-1,-2.658126831E0,2.096411705E0,7.908577919E0
4.879812620E-1,-2.617448807E0,1.990828395E0,7.901399612E0
4.904454290E-1,-2.519343138E0,1.847259045E0,7.973184109E0
4.929095950E-1,-2.413759947E0,1.736890078E0,8.035397530E0
4.953737620E-1,-2.318047047E0,1.633998752E0,8.179265976E0
4.978379290E-1,-2.210369825E0,1.571785331E0,8.334799767E0
5.003020950E-1,-2.263011932E0,1.543071508E0,8.495417595E0
5.027662620E-1,-2.380260229E0,1.600499272E0,8.708678246E0
5.052304290E-1,-2.536092997E0,1.739282966E0,8.895318031E0
5.082300120E-1,-2.763710260E0,1.974078655E0,9.067900658E0
5.106941790E-1,-2.991028309E0,2.204088688E0,9.369695663E0
5.131583450E-1,-3.225824118E0,2.472383976E0,9.637990952E0
5.156225120E-1,-3.525225878E0,2.733500719E0,9.803394318E0
5.180866790E-1,-3.810570002E0,3.001796007E0,1.005254745E1
5.205508450E-1,-4.049852371E0,3.224627733E0,1.026102161E1
5.230150120E-1,-4.220041752E0,3.406781197E0,1.035434151E1
5.254791790E-1,-4.342075825E0,3.545564890E0,1.046919727E1
5.279433450E-1,-4.428516388E0,3.694219112E0,1.051944637E1
5.304075120E-1,-4.395017147E0,3.830610037E0,1.050030422E1
5.328716790E-1,-4.246362686E0,3.914657831E0,1.042612648E1
5.353358450E-1,-4.016352654E0,4.027120590E0,1.028016472E1
5.383348560E-1,-3.817748547E0,4.144368649E0,1.011954594E1
5.407990220E-1,-3.544667721E0,4.199702740E0,1.000708294E1
5.432631890E-1,-3.317050457E0,4.254737854E0,9.722038269E0
5.457273560E-1,-3.075076103E0,4.211667061E0,9.434301376E0
5.481915220E-1,-2.864208698E0,4.165904045E0,9.247661591E0
5.506556890E-1,-2.615056038E0,4.130012035E0,9.017651558E0
5.531198560E-1,-2.363510609E0,4.055834293E0,8.892925262E0
5.555840220E-1,-2.210369825E0,3.991228104E0,8.708678246E0
5.580481890E-1,-2.116750717E0,3.880859137E0,8.461917877E0
5.605123560E-1,-1.973181367E0,3.742075443E0,8.174480438E0
5.629765220E-1,-1.874776483E0,3.643969774E0,7.922935009E0
5.654406890E-1,-1.747956991E0,3.480958700E0,7.673782349E0
5.684401680E-1,-1.546660781E0,3.310769320E0,7.321738243E0
5.709043350E-1,-1.352542996E0,3.162414312E0,7.122834682E0
5.733685020E-1,-1.137188911E0,3.035295486E0,6.876074791E0
5.758326680E-1,-8.712865710E-1,2.999403238E0,6.586244106E0
5.782968350E-1,-7.513462901E-1,2.822035313E0,6.238986015E0
5.807610020E-1,-6.005984545E-1,2.601895571E0,6.032904148E0
5.832251680E-1,-4.160520434E-1,1.861616015E0,5.922534943E0
5.856892830E-1,-3.729812205E-1,-2.361716032E0,5.692824364E0
5.881535020E-1,-1.118644550E-1,-3.470789194E0,6.147759438E0
5.906176680E-1,-2.697907388E-1,-2.488535643E0,6.449554443E0
5.930818350E-1,-4.136592150E-1,-1.944766641E0,6.190830231E0
5.955460020E-1,-2.542374097E-2,-1.638186216E0,6.059225082E0
5.985426680E-1,2.306082845E-1,-1.271785259E0,5.721538067E0
6.010068350E-1,1.516451389E-1,-9.723833203E-1,5.304588795E0
6.034710020E-1,-5.204389244E-2,-6.080760360E-1,4.815854549E0
6.059351680E-1,-9.622138143E-1,-2.153540403E-1,4.353740692E0
6.083993350E-1,-1.970788598E0,1.824527234E-1,3.979862213E0
6.108635020E-1,-2.167000055E0,3.379862010E-1,3.994219303E0
6.133276680E-1,-2.234298229E0,4.004986882E-1,4.059124470E0
6.157918350E-1,-2.224726915E0,3.427718580E-1,4.542773724E0
6.182560020E-1,-2.073679924E0,2.374876440E-1,5.115256786E0
6.207201680E-1,-1.942074656E0,1.223330572E-1,5.532206059E0
6.231843350E-1,-1.724028707E0,-1.166501082E-2,5.963512421E0
6.256484490E-1,-1.484447360E0,-1.603191197E-1,6.361020088E0
6.286553240E-1,-1.125224829E0,-2.895315289E-1,6.775576591E0
6.311194910E-1,-8.928219676E-1,-3.732803464E-1,7.273582458E0
6.335836580E-1,-5.667998791E-1,-4.692923427E-1,7.697710514E0
6.360478240E-1,-1.764706671E-1,-5.434698462E-1,8.033004761E0
6.385119910E-1,2.234298140E-1,-5.889334679E-1,8.423632622E0
6.409761580E-1,6.092724800E-1,-5.554339290E-1,8.801998138E0
6.434403240E-1,1.035493970E0,-5.075774789E-1,9.091828346E0
6.459044390E-1,1.418943882E0,-3.661018610E-1,9.326624870E0
6.483686580E-1,1.759023786E0,-2.225325108E-1,9.606884003E0
6.508328240E-1,2.123031855E0,-9.272187948E-3,9.810572624E0
6.532969910E-1,2.484946251E0,1.848455518E-1,9.980463028E0
6.557611580E-1,2.746062994E0,3.906283081E-1,1.018893814E1
6.587573040E-1,2.995215654E0,6.038886309E-1,1.032802105E1
6.612214700E-1,3.230011463E0,8.003991842E-1,1.043569756E1
6.636856370E-1,3.380759239E0,1.008873820E0,1.048116112E1
6.661497520E-1,3.474079370E0,1.197906852E0,1.058674431E1
6.686139700E-1,3.553341627E0,1.329811215E0,1.071117115E1
6.710781370E-1,3.577269793E0,1.430309772E0,1.082393360E1
6.735423040E-1,3.622733593E0,1.507179141E0,1.088375378E1
6.760064700E-1,3.524627686E0,1.540678620E0,1.096989536E1
6.784706370E-1,3.476771355E0,1.562214136E0,1.104168034E1
6.809348040E-1,3.452543974E0,1.581356645E0,1.108983612E1
6.833989700E-1,3.383152008E0,1.552642822E0,1.112572765E1
6.858631370E-1,3.246761322E0,1.495215058E0,1.118554878E1
6.888626680E-1,3.184248686E0,1.375274777E0,1.119990540E1
6.913268350E-1,3.035893679E0,1.258026481E0,1.125494003E1
6.937910020E-1,2.942573547E0,1.106979609E0,1.115922737E1
6.962551680E-1,2.841775894E0,9.705886841E-1,1.109462166E1
6.987193350E-1,2.781955481E0,8.434699774E-1,1.094357395E1
7.011835020E-1,2.702992201E0,6.951149702E-1,1.085025406E1
7.036476680E-1,2.671885490E0,5.799604058E-1,1.072074318E1
7.061117830E-1,2.621337175E0,4.028915167E-1,1.054606628E1
7.085760020E-1,2.587837696E0,3.116651475E-1,1.030887794E1
7.110401680E-1,2.535195589E0,1.848455518E-1,1.012193871E1
7.135043350E-1,2.472982168E0,-4.486542661E-3,9.968499184E0
7.159685020E-1,2.444268227E0,-1.384846121E-1,9.695418358E0
7.189649080E-1,2.405983210E0,-3.230310678E-1,9.472886086E0
7.214290740E-1,2.391327143E0,-5.099703074E-1,9.252447128E0
7.238932410E-1,2.302792788E0,-6.607181430E-1,9.048757553E0
7.263574080E-1,2.286042929E0,-8.213363886E-1,8.811569214E0
7.288215740E-1,2.228615284E0,-1.036989570E0,8.648857117E0
7.312857410E-1,2.233400822E0,-1.226321578E0,8.459525108E0
7.337499080E-1,2.211865425E0,-1.362712502E0,8.310871124E0
7.362140740E-1,2.278864384E0,-1.458425403E0,8.080861092E0
7.386782410E-1,2.381755829E0,-1.497009635E0,7.968398571E0
7.411424080E-1,2.475374937E0,-1.475175142E0,7.930113316E0
7.436065740E-1,2.638087034E0,-1.458425403E0,7.781459332E0
7.460706890E-1,2.741277456E0,-1.357926846E0,7.712067604E0
7.490711060E-1,2.908775091E0,-1.243071318E0,7.594819069E0
7.515352720E-1,3.157927752E0,-1.096810102E0,7.513164043E0
7.539994390E-1,3.273082256E0,-9.747761488E-1,7.431807995E0
7.564636060E-1,3.423830032E0,-8.045865893E-1,7.446165085E0
7.589277720E-1,3.541377544E0,-7.064808607E-1,7.520342350E0
7.613919390E-1,3.665804386E0,-6.631109715E-1,7.601997375E0
7.638561060E-1,3.802494287E0,-6.152545214E-1,7.692924976E0
7.663202200E-1,3.919742584E0,-6.415755749E-1,7.812565804E0
7.687844390E-1,4.077968121E0,-6.873382926E-1,7.956434250E0
7.712486060E-1,4.255036831E0,-7.280163169E-1,8.073682785E0
7.737127720E-1,4.379762650E0,-8.835497499E-1,8.236693382E0
7.761769390E-1,4.576273441E0,-1.154237866E0,8.531310081E0
7.791771990E-1,4.748556614E0,-1.494616866E0,8.864211082E0
7.816413660E-1,4.827818871E0,-1.822732687E0,9.012866020E0
7.841055330E-1,4.863711357E0,-2.117348909E0,9.190233231E0
7.865696990E-1,4.988137722E0,-2.328216314E0,9.290732384E0
7.890338660E-1,5.146363258E0,-2.447857618E0,9.321838379E0
7.914980330E-1,5.292325497E0,-2.567498684E0,9.331410408E0
7.939621990E-1,5.443372250E0,-2.694617510E0,9.276374817E0
7.964263660E-1,5.570191860E0,-2.742473841E0,9.183054924E0
7.988905330E-1,5.661418438E0,-2.869592667E0,9.178269386E0
8.013546990E-1,5.812166214E0,-3.010769129E0,9.161220551E0
8.038188660E-1,5.898307800E0,-3.154637575E0,9.067900658E0
8.062830330E-1,5.917749405E0,-3.245564699E0,8.988937378E0
8.092813140E-1,5.975177288E0,-3.348456144E0,8.818747520E0
8.117454810E-1,6.018248081E0,-3.372384310E0,8.663214684E0
8.142096470E-1,6.023033619E0,-3.403790236E0,8.485846519E0
8.166738140E-1,6.039783478E0,-3.415754318E0,8.332406998E0
8.191379810E-1,6.104389668E0,-3.442075491E0,8.148159027E0
8.216021470E-1,6.161817551E0,-3.516252756E0,7.951648712E0
8.240663140E-1,6.219544411E0,-3.568894863E0,7.819744587E0
8.265304810E-1,6.336792469E0,-3.592823267E0,7.676175117E0
8.289946470E-1,6.375077724E0,-3.640679598E0,7.570890903E0
8.314588140E-1,6.427719593E0,-3.638286829E0,7.470093250E0
8.339229810E-1,6.518946171E0,-3.638286829E0,7.300202847E0
8.363871470E-1,6.638587475E0,-3.628715515E0,7.223333359E0
8.393913140E-1,6.758527756E0,-3.628715515E0,7.086942673E0
8.418554810E-1,6.863811970E0,-3.674478292E0,7.005287170E0
8.443196470E-1,6.969096184E0,-3.688835144E0,6.976573467E0
8.467838140E-1,7.062715054E0,-3.717549086E0,6.833003998E0
8.492479810E-1,7.177570820E0,-3.705585003E0,6.797111988E0
8.517121470E-1,7.275975227E0,-3.631108284E0,6.761219501E0
8.541763140E-1,7.366902828E0,-3.604787350E0,6.722635269E0
8.566404810E-1,7.412366390E0,-3.614358664E0,6.715456963E0
8.591046470E-1,7.503293514E0,-3.648157120E0,6.729813576E0
8.615688140E-1,7.604091167E0,-3.674478292E0,6.655636311E0
8.640329810E-1,7.706982613E0,-3.727120399E0,6.569494724E0
8.664971470E-1,7.805387497E0,-3.861118555E0,6.483353138E0
8.694966790E-1,7.843672752E0,-3.928416491E0,6.411269188E0
8.719608450E-1,7.858029366E0,-4.009772778E0,6.389733791E0
8.744250120E-1,7.886743546E0,-4.208675861E0,6.358626842E0
8.768891790E-1,7.810173035E0,-4.479363918E0,6.313163280E0
8.793533450E-1,7.692625523E0,-4.675575256E0,6.241378784E0
8.818175120E-1,7.604091167E0,-4.893621445E0,6.111867428E0
8.842816790E-1,7.395616531E0,-5.027918816E0,5.956333637E0
8.867458450E-1,7.256833076E0,-5.118845940E0,5.826822281E0
8.892100120E-1,7.151249409E0,-5.181059361E0,5.666203976E0
8.916741790E-1,7.053143978E0,-5.252843857E0,5.469992638E0
8.941383450E-1,6.966702938E0,-5.420640469E0,5.424529076E0
8.966025120E-1,6.926024914E0,-5.583651543E0,5.244768143E0
8.996017830E-1,6.875775814E0,-5.655436516E0,5.141876698E0
9.020659490E-1,6.796812534E0,-5.755934715E0,5.024329185E0
9.045300640E-1,6.705586433E0,-5.791827202E0,4.935794830E0
9.069942830E-1,6.679265499E0,-5.844768524E0,4.760819912E0
9.094584490E-1,6.681658268E0,-5.878267765E0,4.571487427E0
9.119226160E-1,6.688836575E0,-5.854339600E0,4.449453831E0
9.143867830E-1,6.707979202E0,-5.794219971E0,4.233800411E0
9.168509490E-1,6.849454880E0,-5.818447590E0,4.095016956E0
9.193151160E-1,6.993323326E0,-5.799005508E0,3.903291941E0
9.217792830E-1,7.153642178E0,-5.753541946E0,3.697210073E0
9.242434490E-1,7.369295597E0,-5.751149178E0,3.575176239E0
9.267076160E-1,7.587341309E0,-5.741578102E0,3.469592810E0
9.297037620E-1,7.814958572E0,-5.715256691E0,3.314059258E0
9.321679290E-1,7.992027760E0,-5.736792088E0,3.146262646E0
9.346320950E-1,8.181359291E0,-5.729613781E0,3.045764208E0
9.370962620E-1,8.397012711E0,-5.751149178E0,2.911466837E0
9.395604290E-1,8.540582657E0,-5.791827202E0,2.834896564E0
9.420245950E-1,8.677271843E0,-5.835196972E0,2.827718258E0
9.444887620E-1,8.794520378E0,-5.962016582E0,2.746362209E0
9.469529290E-1,8.888139725E0,-6.009873390E0,2.736790895E0
9.494170950E-1,8.928817749E0,-6.113063812E0,2.751147747E0
9.518812620E-1,8.919246674E0,-6.287739754E0,2.775076151E0
9.543454290E-1,8.902496338E0,-6.359823704E0,2.880360365E0
9.568095950E-1,8.787342072E0,-6.414858341E0,2.985943556E0
9.598086060E-1,8.696414948E0,-6.417251110E0,3.050549746E0
9.622727720E-1,8.533403397E0,-6.445965290E0,3.107977629E0
9.647369390E-1,8.373085022E0,-6.388537407E0,3.151048422E0
9.672011060E-1,8.138288498E0,-6.350252151E0,3.174976587E0
9.696652720E-1,7.941778183E0,-6.309275150E0,3.242274761E0
9.721294390E-1,7.702197075E0,-6.218348026E0,3.306880951E0
9.745936060E-1,7.412366390E0,-6.115456581E0,3.347558975E0
9.770577720E-1,7.160820961E0,-6.019444466E0,3.505485058E0
9.795219390E-1,7.036394119E0,-6.108277798E0,3.520141125E0
9.819861060E-1,7.041179657E0,-6.321238995E0,3.488735437E0
9.844502720E-1,7.034001350E0,-6.460321903E0,3.582354546E0
9.869144390E-1,7.067500591E0,-6.551249504E0,3.646960735E0
9.899200120E-1,7.103393078E0,-6.544070721E0,3.699602842E0
9.923841790E-1,7.182356358E0,-6.472286224E0,3.718745470E0
9.948483450E-1,7.196712971E0,-6.412465572E0,3.706781387E0
9.973125120E-1,7.227819920E0,-6.422036648E0,3.764209032E0
9.997766790E-1,7.252047062E0,-6.429215431E0,3.675674677E0
1.002240845E0,7.311867714E0,-6.436393738E0,3.623032570E0
1.004705012E0,7.283154011E0,-6.500999928E0,3.670889139E0
1.007169179E0,7.244569778E0,-6.642475605E0,3.658924818E0
1.009633345E0,7.203891754E0,-6.716653347E0,3.620639801E0
1.012097512E0,7.177570820E0,-6.805187702E0,3.591925859E0
1.014561679E0,7.156035423E0,-6.932306290E0,3.548855066E0
1.017025845E0,7.089035988E0,-7.030412197E0,3.510569811E0
1.020024283E0,7.022037029E0,-7.044768810E0,3.515355587E0
1.022488449E0,7.034001350E0,-7.066304207E0,3.414557934E0
1.024952616E0,7.041179657E0,-7.035197735E0,3.402593851E0
1.027416731E0,7.026822567E0,-7.023233414E0,3.357130051E0
1.029880949E0,7.014858723E0,-7.020840645E0,3.299702406E0
1.032345116E0,6.993323326E0,-6.987341404E0,3.299702406E0
1.034809283E0,6.988537788E0,-6.949056149E0,3.333201885E0
1.037273397E0,7.007680416E0,-6.939484596E0,3.275774240E0
1.039737616E0,6.966702938E0,-6.841079712E0,3.198904753E0
1.042201783E0,6.954739094E0,-6.793223381E0,3.172583818E0
1.044665949E0,6.940382004E0,-6.754938126E0,3.129513025E0
1.047130116E0,6.837490559E0,-6.702296257E0,3.060121059E0
1.050126991E0,6.796812534E0,-6.654439926E0,2.995514870E0
1.052626939E0,6.859025955E0,-6.577570438E0,2.899502754E0
1.055126887E0,6.830312252E0,-6.544070721E0,2.818146944E0
1.057626835E0,6.827919483E0,-6.517749786E0,2.758326292E0
1.060126783E0,6.823133945E0,-6.553642273E0,2.739183664E0
1.062626731E0,6.815955162E0,-6.551249504E0,2.724826813E0
1.065126679E0,6.825526714E0,-6.618547440E0,2.674278498E0
1.067626627E0,6.868597507E0,-6.625725746E0,2.669492722E0
1.070126627E0,6.851847649E0,-6.675975323E0,2.635993242E0
1.072626574E0,6.868597507E0,-6.707081795E0,2.607279301E0
1.075126522E0,6.863811970E0,-6.726224422E0,2.597707987E0
1.077626470E0,6.918846607E0,-6.762116909E0,2.640778780E0
1.080233189E0,6.961917400E0,-6.776473522E0,2.635993242E0
1.082733137E0,6.957131863E0,-6.769295216E0,2.571387053E0
1.085233085E0,7.017251492E0,-6.704689026E0,2.537887573E0
1.087733033E0,7.093822002E0,-6.668796539E0,2.422732830E0
1.090232981E0,7.139285564E0,-6.623332977E0,2.355733871E0
1.092732929E0,7.187141895E0,-6.589534283E0,2.303091764E0
1.095232877E0,7.199106216E0,-6.611069679E0,2.245664120E0
1.097732824E0,7.208677292E0,-6.647261143E0,2.226521492E0
1.100232824E0,7.230212688E0,-6.678368092E0,2.248056889E0
1.102732772E0,7.242177010E0,-6.731009960E0,2.169093609E0
1.105232720E0,7.244569778E0,-6.781259537E0,2.137687922E0
1.107732668E0,7.266404152E0,-6.800402164E0,2.068295956E0
1.110338033E0,7.242177010E0,-6.798008919E0,2.027618170E0
1.112837981E0,7.232605457E0,-6.807580471E0,1.878963947E0
1.115337929E0,7.225427151E0,-6.836294174E0,1.778465390E0
1.117837877E0,7.230212688E0,-6.817151546E0,1.754537225E0
1.120337824E0,7.199106216E0,-6.805187702E0,1.656431437E0
1.122837772E0,7.129714012E0,-6.776473522E0,1.572383523E0
1.125337720E0,7.067500591E0,-6.711867332E0,1.517348647E0
1.127837668E0,6.993323326E0,-6.603891373E0,1.409671664E0
1.130337668E0,6.902096748E0,-6.512964249E0,1.371386528E0
1.132837616E0,6.803991318E0,-6.417251110E0,1.339980721E0
1.135337564E0,6.777669907E0,-6.362216473E0,1.256231904E0
1.137837512E0,6.746563435E0,-6.297310829E0,1.275374413E0
1.140433710E0,6.717849731E0,-6.184848309E0,1.201196909E0
1.142933658E0,6.760920525E0,-6.184848309E0,1.052542806E0
1.145433606E0,6.775277138E0,-6.168098450E0,1.088734269E0
1.147933554E0,6.847062111E0,-6.134599209E0,1.059721351E0
1.150433502E0,6.847062111E0,-6.134599209E0,1.011864901E0
1.152933449E0,6.892525673E0,-6.074479580E0,9.831510186E-1
1.155433397E0,6.916453838E0,-6.009873390E0,1.004686356E0
1.157933397E0,6.928418159E0,-6.017051697E0,9.065806866E-1
1.160433345E0,6.949953556E0,-5.983551979E0,9.448658228E-1
1.162933293E0,6.969096184E0,-5.940481186E0,9.017950296E-1
1.165433241E0,6.995716095E0,-5.969195366E0,8.467600942E-1
1.167933189E0,7.014858723E0,-6.021837234E0,8.922237158E-1
1.170537772E0,6.961917400E0,-6.103492260E0,8.587242365E-1
1.173037720E0,6.947560310E0,-6.081956863E0,8.491529226E-1
1.175537668E0,6.981060028E0,-6.089135647E0,8.659027219E-1
1.178037616E0,7.036394119E0,-6.086742401E0,8.371888399E-1
1.180537564E0,7.065107822E0,-6.057729721E0,9.065806866E-1
1.183037512E0,7.141678333E0,-6.055336952E0,9.017950296E-1
1.185537460E0,7.246962547E0,-6.084349632E0,8.659027219E-1
1.188037408E0,7.350152969E0,-6.101099491E0,8.563314080E-1
1.190537408E0,7.362117290E0,-6.105885029E0,8.515457511E-1
1.193037356E0,7.407580853E0,-6.151348591E0,8.563314080E-1
1.195537304E0,7.426723480E0,-6.172883987E0,8.563314080E-1
1.198037252E0,7.390830994E0,-6.223133564E0,8.204390407E-1
1.200655637E0,7.383652687E0,-6.239883423E0,8.826524615E-1
1.203155585E0,7.350152969E0,-6.314060688E0,9.376873970E-1
1.205655533E0,7.278368473E0,-6.309275150E0,9.496514797E-1
1.208155481E0,7.275975227E0,-6.254240036E0,9.257232547E-1
1.210655429E0,7.213462830E0,-6.254240036E0,9.400802255E-1
1.213155377E0,7.175177574E0,-6.211169243E0,1.004686356E0
1.215655324E0,7.213462830E0,-6.122634888E0,1.035793066E0
1.218155272E0,7.227819920E0,-6.125027657E0,1.047757268E0
1.220655272E0,7.206284523E0,-6.120242119E0,1.165304661E0
1.223155220E0,7.201498985E0,-6.093921185E0,1.311266780E0
1.225655116E0,7.203891754E0,-6.040979862E0,1.433599830E0
1.228155116E0,7.189534664E0,-5.983551979E0,1.526919961E0
1.230758189E0,7.206284523E0,-5.909374714E0,1.692323804E0
1.233258137E0,7.146463871E0,-5.823233128E0,1.795215130E0
1.235758085E0,7.089035988E0,-5.755934715E0,1.866999865E0
1.238258033E0,7.081857681E0,-5.684150219E0,1.862214208E0
1.240757981E0,6.990930557E0,-5.636293888E0,1.780858278E0
1.243257929E0,6.887740135E0,-5.578866005E0,1.816750646E0
1.245757877E0,6.851847649E0,-5.564508915E0,1.661217093E0
1.248257824E0,6.751348972E0,-5.588437080E0,1.447956800E0
1.250757824E0,6.734599113E0,-5.617151260E0,1.215553880E0
1.253257772E0,6.662515640E0,-5.638686657E0,9.927222729E-1
1.255757720E0,6.605087757E0,-5.700900078E0,6.693921089E-1
1.258257668E0,6.559624195E0,-5.763113499E0,3.173480928E-1
1.260861731E0,6.581159592E0,-5.835196972E0,7.776673883E-2
1.263361679E0,6.578766823E0,-6.012266159E0,-1.689931005E-1
1.265861627E0,6.564409733E0,-6.120242119E0,-3.774677813E-1
1.268361574E0,6.600302219E0,-6.232704639E0,-4.779663086E-1
1.270861522E0,6.590730667E0,-6.287739754E0,-6.074778438E-1
1.273361470E0,6.638587475E0,-6.321238995E0,-6.170491576E-1
1.275861418E0,6.765706062E0,-6.386144638E0,-5.572285652E-1
1.278361366E0,6.844669342E0,-6.364609241E0,-4.420739710E-1
1.280861366E0,6.954739094E0,-6.314060688E0,-2.793620527E-1
1.283361314E0,7.108178616E0,-6.359823704E0,2.261217386E-1
1.285861262E0,7.271189690E0,-6.395715714E0,8.730811477E-1
1.288361210E0,7.407580853E0,-6.330810547E0,1.306481123E0
1.290971470E0,7.481758118E0,-6.194419384E0,1.553241014E0
1.293471418E0,7.476972580E0,-6.089135647E0,1.680359721E0
1.295971366E0,7.424330235E0,-5.978766441E0,1.697109461E0
1.298471314E0,7.383652687E0,-5.851946831E0,1.608275890E0
1.300971262E0,7.321439266E0,-5.765506268E0,1.421635747E0
1.303471210E0,7.203891754E0,-5.811268806E0,1.189232826E0
1.305971158E0,7.093822002E0,-5.811268806E0,9.831510186E-1
1.308471106E0,7.022037029E0,-5.909374714E0,7.555337548E-1
1.310971106E0,6.947560310E0,-6.040979862E0,5.425725579E-1
1.313471054E0,6.856633186E0,-6.208776474E0,3.915255964E-1
1.315971002E0,6.825526714E0,-6.352644920E0,3.293122053E-1
1.318470949E0,6.803991318E0,-6.436393738E0,1.950150430E-1
1.321075793E0,6.739385128E0,-6.536892414E0,1.399801224E-1
1.323575741E0,6.674479485E0,-6.683153629E0,1.423729509E-1
1.326075689E0,6.614659309E0,-6.857829571E0,9.212367237E-2
1.328575637E0,6.645765781E0,-6.982555389E0,1.136590764E-1
1.331075585E0,6.578766823E0,-7.039983273E0,2.189432681E-1
1.333575533E0,6.588337898E0,-7.083054066E0,2.766701281E-1
1.336075481E0,6.621837616E0,-6.982555389E0,3.173480928E-1
1.338575429E0,6.614659309E0,-6.894021034E0,3.556332588E-1
1.341075429E0,6.619444847E0,-6.802794933E0,2.910270393E-1
1.343575377E0,6.631408691E0,-6.680760860E0,3.795614839E-1
1.346075324E0,6.621837616E0,-6.608676910E0,4.968098104E-1
1.348575272E0,6.597909451E0,-6.625725746E0,5.183451772E-1
1.351186939E0,6.585945129E0,-6.668796539E0,6.191428304E-1
1.353686887E0,6.542874336E0,-6.630511761E0,6.382854581E-1
1.356186835E0,6.495018005E0,-6.683153629E0,6.382854581E-1
1.358686783E0,6.454339981E0,-6.771687984E0,6.741777658E-1
1.361186731E0,6.355935097E0,-6.860222340E0,6.287141442E-1
1.363686679E0,6.276971817E0,-6.845865726E0,5.497509837E-1
1.366186627E0,6.164210320E0,-6.894021034E0,4.298107624E-1
1.368686574E0,6.023033619E0,-6.956234455E0,4.058825374E-1
1.371186574E0,5.944070339E0,-7.037590504E0,3.245265782E-1
1.373686522E0,5.828916073E0,-7.073482990E0,2.309073806E-1
1.376186470E0,5.718846321E0,-7.155138016E0,2.045863420E-1
1.378686418E0,5.613262653E0,-7.262814999E0,1.040877849E-1
1.381283970E0,5.551049232E0,-7.384849072E0,-2.063809521E-2
1.383783918E0,5.486443043E0,-7.444968700E0,-9.960123897E-2
1.386283866E0,5.407480240E0,-7.497610569E0,-5.174478889E-2
1.388783814E0,5.366802216E0,-7.574181080E0,-4.456632212E-2
1.391283762E0,5.373980522E0,-7.581359386E0,-5.174478889E-2
1.393783710E0,5.395515919E0,-7.657929897E0,1.076770201E-2
1.396283658E0,5.412265778E0,-7.706085205E0,-8.673981763E-3
1.398783606E0,5.472086430E0,-7.749155998E0,-5.653043464E-2
1.401283606E0,5.586941719E0,-7.804191113E0,-8.045866340E-2
1.403783554E0,5.706882000E0,-7.792226791E0,-9.002995491E-2
1.406283502E0,5.795416355E0,-7.727620602E0,-1.163510010E-1
1.408783449E0,5.843272686E0,-7.710870743E0,-2.623131871E-1
1.411393241E0,5.917749405E0,-7.650751114E0,-3.152543902E-1
1.413893189E0,6.023033619E0,-7.612466335E0,-3.439682424E-1
1.416393137E0,6.090032578E0,-7.555038452E0,-3.655036688E-1
1.418893085E0,6.174080849E0,-7.485646725E0,-3.487538993E-1
1.421393033E0,6.248258114E0,-7.521538734E0,-1.498505175E-1
1.423892981E0,6.367899418E0,-7.528717518E0,-5.653043464E-2
1.426392929E0,6.471089840E0,-7.459325314E0,6.101697683E-2
1.428892877E0,6.588337898E0,-7.488039494E0,2.333002090E-1
1.431392877E0,6.710371971E0,-7.531110287E0,3.053839803E-1
1.433892824E0,6.820741177E0,-7.634001732E0,3.771686554E-1
1.436392772E0,6.882954121E0,-7.667500973E0,5.015954375E-1
1.438892720E0,6.897311211E0,-7.706085205E0,5.593222976E-1
1.441500116E0,6.859025955E0,-7.761120319E0,5.976074338E-1
1.444000064E0,6.882954121E0,-7.756334782E0,6.454638839E-1
1.446500012E0,6.815955162E0,-7.770691395E0,7.387840152E-1
1.448999960E0,6.815955162E0,-7.868797302E0,7.316055298E-1
1.451499908E0,6.835097790E0,-7.935796261E0,7.244270444E-1
1.453999856E0,6.768098831E0,-8.031807899E0,7.196413875E-1
1.456499804E0,6.746563435E0,-8.077271461E0,7.674978375E-1
1.458999752E0,6.732206345E0,-8.074878693E0,7.100701332E-1
1.461499752E0,7.407580853E0,-8.058129311E0,3.364906907E-1
1.463999699E0,8.387441635E0,-8.070093155E0,-3.152543902E-1
1.466499647E0,9.012566566E0,-8.031807899E0,-4.372883439E-1
1.468999595E0,9.460622787E0,-8.125128746E0,-4.133601189E-1
1.471605272E0,9.915557861E0,-8.266604424E0,-2.096710801E-1
1.474105220E0,1.011924744E1,-8.429315567E0,6.819544733E-2
1.476605168E0,1.009771156E1,-8.580363274E0,3.867399693E-1
1.479105116E0,1.003789139E1,-8.623434067E0,6.717849374E-1
1.481605064E0,9.767203331E0,-8.654540062E0,9.352945685E-1
1.484105012E0,9.419944763E0,-8.587541580E0,1.127019525E0
1.486604960E0,9.043673515E0,-8.422137260E0,1.167697430E0
1.489104960E0,8.492725372E0,-8.261817932E0,1.287338614E0
1.491604908E0,8.001599312E0,-8.005487442E0,1.244267821E0
1.494104856E0,7.529913902E0,-7.818548203E0,1.129412293E0
1.496604804E0,7.124928474E0,-7.710870743E0,9.855438471E-1
1.499104752E0,6.784848690E0,-7.674679756E0,8.081758618E-1
1.501707252E0,6.578766823E0,-7.703692436E0,7.124629617E-1
1.504207199E0,6.442076683E0,-7.816154957E0,5.231308341E-1
1.506707147E0,6.379863262E0,-7.991130352E0,3.963112533E-1
1.509207095E0,6.296114445E0,-8.113163948E0,2.404786795E-1
1.511707043E0,6.334399700E0,-8.268997192E0,1.232303679E-1
1.514206991E0,6.463911057E0,-8.362317085E0,3.948157281E-2
1.516706939E0,6.509375095E0,-8.383852005E0,8.374879137E-3
1.519206887E0,6.595516682E0,-8.405387878E0,3.708875179E-2
1.521706887E0,6.710371971E0,-8.410173416E0,7.058826834E-2
1.524206835E0,6.765706062E0,-8.383852005E0,1.806581169E-1
1.526706783E0,6.868597507E0,-8.352746010E0,2.237289101E-1
1.529206731E0,6.878168583E0,-8.302495956E0,2.524427772E-1
1.531817252E0,6.794419765E0,-8.189734459E0,2.667997181E-1
1.534317199E0,6.753741741E0,-8.065307617E0,3.269194067E-1
1.536817147E0,6.760920525E0,-7.935796261E0,2.838485837E-1
1.539317095E0,6.698407650E0,-7.773084164E0,3.939184248E-1
1.541817043E0,6.631408691E0,-7.648358345E0,4.561318159E-1
1.544316991E0,6.530910492E0,-7.452147007E0,5.183451772E-1
1.546816939E0,6.559624195E0,-7.325028419E0,5.015954375E-1
1.549316887E0,6.459125519E0,-7.238886833E0,5.856433511E-1
1.551816887E0,6.471089840E0,-7.226922512E0,6.191428304E-1
1.554316835E0,6.439683914E0,-7.281957626E0,6.717849374E-1
1.556816783E0,6.315257072E0,-7.344171047E0,7.244270444E-1
1.559316731E0,6.272186279E0,-7.394420147E0,7.579265833E-1
1.561922824E0,6.198009014E0,-7.480860710E0,8.252246976E-1
1.564422772E0,6.111567974E0,-7.528717518E0,7.028916478E-1
1.566922720E0,6.042176247E0,-7.567002296E0,7.339983582E-1
1.569422668E0,5.941677570E0,-7.559823990E0,6.861419082E-1
1.571922616E0,5.948856354E0,-7.583752155E0,6.837490797E-1
1.574422564E0,5.932106495E0,-7.607680321E0,5.976074338E-1
1.576922512E0,5.948856354E0,-7.641180038E0,6.095715761E-1
1.579422460E0,5.960820198E0,-7.665108204E0,5.521438122E-1
1.581922460E0,5.881557941E0,-7.727620602E0,5.784648657E-1
1.584422408E0,5.855237007E0,-7.780262947E0,4.944169819E-1
1.586922356E0,5.843272686E0,-7.813762188E0,4.585246444E-1
1.589422304E0,5.747560024E0,-7.849654675E0,4.848456979E-1
1.592026991E0,5.699703693E0,-7.792226791E0,4.465605319E-1
1.594526939E0,5.702096462E0,-7.804191113E0,3.580260873E-1
1.597026887E0,5.632405281E0,-7.785048485E0,3.364906907E-1
1.599526835E0,5.591727257E0,-7.741977692E0,3.005983531E-1
1.602026783E0,5.572584629E0,-7.808976650E0,2.572284341E-1
1.604526731E0,5.579763412E0,-7.880761147E0,2.404786795E-1
1.607026679E0,5.546263695E0,-7.988737583E0,1.734796464E-1
1.609526627E0,5.457729340E0,-8.027022362E0,1.399801224E-1
1.612026627E0,5.361717224E0,-8.062914848E0,2.862414122E-1
1.614526574E0,5.277968407E0,-8.038987160E0,3.628117442E-1
1.617026522E0,5.129613400E0,-7.928617954E0,4.848456979E-1
1.619526470E0,4.959424019E0,-7.840083599E0,6.574280262E-1
1.622134908E0,4.820341110E0,-7.708477974E0,8.611170650E-1
1.624634856E0,4.805984497E0,-7.550252914E0,9.903294444E-1
1.627134804E0,4.959424019E0,-7.610073090E0,1.038185954E0
1.629634752E0,5.182255745E0,-7.806583881E0,1.059721351E0
1.632134699E0,5.361717224E0,-7.842476368E0,1.014257669E0
1.634634647E0,5.515157223E0,-7.737192154E0,1.124626637E0
1.637134595E0,5.579763412E0,-7.559823990E0,1.174875975E0
1.639634543E0,5.625226974E0,-7.377670288E0,1.280160069E0
1.642134543E0,5.625226974E0,-7.298707485E0,1.428814173E0
1.644634491E0,5.598906040E0,-7.250850677E0,1.371386528E0
1.647134439E0,5.541478157E0,-7.274778843E0,1.388136268E0
1.649634387E0,5.574977875E0,-7.284350395E0,1.424028635E0
1.652235324E0,5.565406322E0,-7.317849636E0,1.471885085E0
1.654735272E0,5.476871967E0,-7.418348312E0,1.414457321E0
1.657235220E0,5.452943802E0,-7.344171047E0,1.220339537E0
1.659735168E0,5.582156181E0,-7.384849072E0,1.170090318E0
1.662235116E0,5.594120026E0,-7.403991699E0,1.100698471E0
1.664735064E0,5.548656464E0,-7.408777237E0,1.038185954E0
1.667235012E0,5.632405281E0,-7.619644642E0,1.119840980E0
1.669734960E0,5.500800133E0,-7.624430180E0,9.376873970E-1
1.672234960E0,5.457729340E0,-7.602894783E0,1.002293587E0
1.674734908E0,5.486443043E0,-7.820940971E0,1.110269666E0
1.677234856E0,5.409873009E0,-7.830512047E0,9.329017401E-1
1.679734804E0,5.383552074E0,-7.885547161E0,9.807581902E-1
1.682344387E0,5.381158829E0,-8.065307617E0,8.371888399E-1
1.684844335E0,5.359324455E0,-8.041379929E0,6.358926296E-1
1.687344283E0,5.189434052E0,-8.266604424E0,6.765705943E-1
1.689844231E0,5.103292465E0,-8.292924881E0,5.015954375E-1
1.692344179E0,5.071886539E0,-8.137092590E0,3.029911816E-1
1.694844127E0,4.897210598E0,-8.249854088E0,3.317050338E-1
1.697344074E0,4.822733879E0,-8.211270332E0,3.221337497E-1
1.699844022E0,4.727021217E0,-8.098807335E0,2.862414122E-1
1.702344022E0,4.717449665E0,-8.036594391E0,2.790629268E-1
1.704843970E0,4.528117657E0,-8.029415131E0,3.436691463E-1
1.707343918E0,4.360620022E0,-7.995915890E0,4.585246444E-1
1.709843866E0,4.389334202E0,-8.067700386E0,4.920241535E-1
1.712447929E0,4.492225647E0,-8.132307053E0,6.095715761E-1
1.714947877E0,4.508975029E0,-8.153841972E0,6.023930907E-1
1.717447824E0,4.715056896E0,-7.993523121E0,5.350949764E-1
1.719947772E0,4.803591251E0,-7.785048485E0,6.311069727E-1
1.722447720E0,4.906782150E0,-7.602894783E0,8.324031830E-1
1.724947668E0,5.158327579E0,-7.504789352E0,1.134197950E0
1.727447616E0,5.560620785E0,-7.375277519E0,1.400100350E0
1.729947564E0,5.929713726E0,-7.313064098E0,1.538884044E0
1.732447564E0,6.178866386E0,-7.224529743E0,1.601097465E0
1.734947512E0,6.168995857E0,-7.162316322E0,1.526919961E0
1.737447460E0,5.979962826E0,-7.121339321E0,1.390529037E0
1.739947408E0,5.709274769E0,-7.123732090E0,1.313659668E0
1.742552512E0,5.467300415E0,-7.140481949E0,1.165304661E0
1.745052460E0,5.294718266E0,-7.205387115E0,1.165304661E0
1.747552408E0,5.220541000E0,-7.291528702E0,9.951151013E-1
1.750052356E0,5.139184952E0,-7.461718082E0,8.443672657E-1
1.752552304E0,4.988137722E0,-7.655537128E0,7.866404653E-1
1.755052252E0,4.817948341E0,-7.847261906E0,8.057830334E-1
1.757552199E0,4.830211639E0,-8.050951004E0,7.316055298E-1
1.760052147E0,4.825426102E0,-8.240283012E0,6.502495408E-1
1.762552147E0,4.770092010E0,-8.412566185E0,4.968098104E-1
1.765052095E0,4.748556614E0,-8.640183449E0,3.891327679E-1
1.767552043E0,4.782055855E0,-8.896514893E0,3.053839803E-1
1.770051991E0,4.758127689E0,-9.100203514E0,2.742772996E-1
1.772658397E0,4.753342152E0,-9.282057762E0,1.710868180E-1
1.775158345E0,4.842175961E0,-9.397212982E0,1.543370634E-1
1.777658293E0,4.770092010E0,-9.459425926E0,1.878365725E-1
1.780158241E0,4.532903194E0,-9.409176826E0,2.476571500E-1
1.782658189E0,4.331906319E0,-9.305986404E0,3.891327679E-1
1.785158137E0,4.147359848E0,-9.193523407E0,5.617151260E-1
1.787658085E0,3.993920088E0,-8.961120605E0,7.483552694E-1
1.790158033E0,3.950849295E0,-8.767003059E0,9.616156220E-1
1.792658033E0,3.902992725E0,-8.630612373E0,1.191625714E0
1.795157981E0,3.802494287E0,-8.429315567E0,1.380957723E0
1.797657929E0,3.708875179E0,-8.240283012E0,1.450349569E0
1.800157877E0,3.661018610E0,-8.170592308E0,1.435992718E0
1.802778502E0,3.682554007E0,-8.141878128E0,1.486241937E0
1.805278449E0,3.622733593E0,-8.115556717E0,1.654038668E0
1.807778397E0,3.591626883E0,-8.074878693E0,1.675574064E0
1.810278345E0,3.584448338E0,-8.077271461E0,1.687538147E0
1.812778293E0,3.634697676E0,-8.003094673E0,1.670788407E0
1.815278241E0,3.711267948E0,-7.909475327E0,1.723430514E0
1.817778189E0,3.824029684E0,-7.926225185E0,1.756929994E0
1.820278189E0,3.864707708E0,-7.995915890E0,1.625324726E0
1.822778137E0,3.960420609E0,-8.103592873E0,1.457528114E0
1.825278085E0,4.085146427E0,-8.240283012E0,1.337587833E0
1.827778033E0,4.140181541E0,-8.304888725E0,1.277767301E0
1.830277981E0,4.240679741E0,-8.343173981E0,1.342373490E0
1.832874283E0,4.262215137E0,-8.328817368E0,1.337587833E0
1.835374231E0,4.343870640E0,-8.398209572E0,1.311266780E0
1.837874179E0,4.508975029E0,-8.393424034E0,1.292124271E0
1.840374127E0,4.676771641E0,-8.489136696E0,1.217946768E0
1.842874074E0,4.856532574E0,-8.714361191E0,1.261017561E0
1.845374022E0,4.911567688E0,-8.956335068E0,1.124626637E0
1.847873970E0,4.798805714E0,-9.234201431E0,1.081256747E0
1.850373918E0,4.597808838E0,-9.375677109E0,1.066899776E0
1.852873918E0,4.437190533E0,-9.320642471E0,9.616156220E-1
1.855373866E0,4.288835526E0,-9.253344536E0,9.496514797E-1
1.857873814E0,4.077968121E0,-9.109774590E0,1.002293587E0
1.860373762E0,3.895814419E0,-8.977870941E0,9.640084505E-1
1.862975481E0,3.704089403E0,-8.894122124E0,9.975079298E-1
1.865475429E0,3.498306751E0,-8.776873589E0,1.150947690E0
1.867975377E0,3.311367512E0,-8.537292480E0,1.244267821E0
1.870475324E0,3.179463148E0,-8.352746010E0,1.366600871E0
1.872975272E0,3.126821041E0,-8.271389961E0,1.435992718E0
1.875475220E0,2.894418001E0,-8.194519997E0,1.467099428E0
1.877975168E0,2.798705101E0,-8.295317650E0,1.555633783E0
1.880475116E0,2.602194548E0,-8.522934914E0,1.433599830E0
1.882975116E0,2.578266382E0,-8.872586250E0,1.189232826E0
1.885475012E0,2.662015200E0,-9.069096565E0,1.093519926E0
1.887975012E0,2.777169704E0,-9.179166794E0,9.975079298E-1
1.890474960E0,2.930310488E0,-9.267701149E0,1.062114120E0
1.893085220E0,3.057429075E0,-9.272486687E0,1.088734269E0
1.895585168E0,3.126821041E0,-9.308379173E0,1.203589797E0
1.898085116E0,3.263510942E0,-9.624830246E0,1.344766378E0
1.900585064E0,3.256332397E0,-9.524032593E0,1.220339537E0
1.903085012E0,2.906382322E0,-8.939585686E0,1.220339537E0
1.905584960E0,2.789133787E0,-8.561220169E0,1.332802176E0
1.908084908E0,2.863311291E0,-8.429315567E0,1.479063511E0
1.910584856E0,2.705385208E0,-8.388637543E0,1.634896040E0
1.913084856E0,2.587837696E0,-8.462815285E0,1.675574064E0
1.915584804E0,2.781955481E0,-8.561220169E0,1.682752490E0
1.918084752E0,3.021536827E0,-8.436494827E0,1.811964989E0
1.920584699E0,3.234797001E0,-8.419744492E0,1.747358680E0
1.923186939E0,2.820240498E0,-7.933403492E0,1.800000787E0
1.925686887E0,2.662015200E0,-7.564609528E0,1.905584097E0
1.928186835E0,3.193820000E0,-7.825726509E0,1.766501307E0
1.930686783E0,3.112463951E0,-7.964809418E0,1.668395638E0
1.933186731E0,2.606980324E0,-8.005487442E0,1.711466432E0
1.935686679E0,2.642872572E0,-8.369495392E0,1.866999865E0
1.938186627E0,2.918346405E0,-8.570791245E0,1.754537225E0
1.940686574E0,3.078964472E0,-8.735896111E0,1.488634825E0
1.943186574E0,3.050250769E0,-8.843872070E0,1.306481123E0
1.945686470E0,2.906382322E0,-8.970691681E0,1.328016520E0
1.948186470E0,2.915953398E0,-9.179166794E0,1.306481123E0
1.950686418E0,2.978466034E0,-9.270093918E0,1.086341500E0
1.953291314E0,2.983251572E0,-9.148059845E0,9.520443082E-1
1.955791262E0,2.851347208E0,-8.925228119E0,1.042971611E0
1.958291210E0,2.585444927E0,-8.623434067E0,1.100698471E0
1.960791158E0,2.446661234E0,-8.568398476E0,1.167697430E0
1.963291106E0,2.276471615E0,-8.582756042E0,1.134197950E0
1.965791054E0,2.298007011E0,-8.666504860E0,9.568299651E-1
1.968291002E0,2.233400822E0,-8.836693764E0,8.467600942E-1
1.970790949E0,1.929213285E0,-8.982656479E0,8.611170650E-1
1.973290949E0,1.828415632E0,-9.217452049E0,9.089735150E-1
1.975790897E0,1.866999865E0,-9.397212982E0,7.866404653E-1
1.978290845E0,1.929213285E0,-9.492925644E0,8.057830334E-1
1.980790793E0,1.981855392E0,-9.246166229E0,9.831510186E-1
1.983400272E0,2.195115566E0,-8.980263710E0,1.103091240E0
1.985900220E0,2.410768747E0,-8.784051895E0,1.361815214E0
1.988400168E0,2.369791746E0,-8.355138779E0,1.529312730E0
1.990900116E0,2.298007011E0,-8.003094673E0,1.644467354E0
1.993400064E0,2.084746838E0,-7.581359386E0,1.759322882E0
1.995900012E0,2.123031855E0,-7.217351437E0,1.951047778E0
1.998399960E0,2.190330029E0,-7.212565422E0,2.214557409E0
2.000899908E0,2.554338217E0,-7.162316322E0,2.494816780E0
2.003399908E0,3.093321562E0,-7.564609528E0,2.583351135E0
2.005899856E0,3.641875982E0,-8.005487442E0,2.518744946E0
2.008399804E0,4.073182583E0,-8.594719887E0,2.358126640E0
2.010899752E0,4.581058979E0,-9.648757935E0,2.195414782E0
2.013506939E0,5.182255745E0,-1.063789082E1,1.835893154E0
2.016006887E0,5.323431969E0,-1.062831974E1,1.249053478E0
2.018506835E0,5.354538918E0,-1.064507008E1,9.520443082E-1
2.021006783E0,5.316253662E0,-1.057807064E1,6.550351977E-1
2.023506731E0,5.129613400E0,-1.055653572E1,5.087739229E-1
2.026006679E0,4.822733879E0,-1.030498981E1,5.760720372E-1
2.028506627E0,4.636094093E0,-1.048953629E1,6.263213158E-1
2.031006574E0,4.494618416E0,-1.074347496E1,7.627122402E-1
2.033506574E0,4.200001717E0,-1.044885826E1,9.544371367E-1
2.036006522E0,3.510270834E0,-1.043928719E1,1.083948612E0
2.038506470E0,2.403590441E0,-1.183819103E1,1.124626637E0
2.041006418E0,1.859821439E0,-1.283480167E1,9.376873970E-1
2.043613085E0,1.751845241E0,-1.284197998E1,8.009973764E-1
2.046113033E0,2.154437780E0,-1.203948689E1,1.217946768E0
2.048612981E0,2.777169704E0,-1.061874866E1,1.922333837E0
2.051112929E0,2.913560629E0,-9.576674461E0,2.219342947E0
2.053612877E0,2.566302299E0,-9.399605751E0,2.037189484E0
2.056112824E0,2.360220432E0,-8.700003624E0,2.065903187E0
2.058612772E0,2.465803623E0,-7.186244488E0,2.518744946E0
2.061112720E0,1.735095501E0,-5.710471153E0,1.654038668E0
2.063612720E0,1.181755304E0,-5.056632519E0,6.023930907E-1
2.066112616E0,1.737488389E0,-3.482753277E0,1.951047778E0
2.068612616E0,1.871785522E0,-3.885046721E0,2.592922449E0
2.071112564E0,1.883749604E0,-4.728516579E0,2.667099953E0
2.073713658E0,1.263111234E0,-5.039882660E0,2.559422970E0
2.076220689E0,5.327021480E-1,-5.588437080E0,2.516352177E0
2.078727720E0,3.200400248E-2,-5.734399319E0,2.260020971E0
2.081234699E0,-3.529413417E-2,-5.866303921E0,2.262413740E0
2.083741731E0,1.851446480E-1,-6.683153629E0,2.398804665E0
2.086248710E0,3.936193287E-1,-7.358527660E0,2.497209549E0
2.088755793E0,3.194418252E-1,-8.125128746E0,2.626421928E0
2.091262824E0,3.912265003E-1,-9.195916176E0,2.317448616E0
2.093769856E0,9.589236975E-1,-9.464211464E0,2.140080690E0
2.096276887E0,1.473978758E0,-9.612865448E0,2.065903187E0
2.098783866E0,1.806880236E0,-1.021166992E1,1.747358680E0
2.101290897E0,2.113460541E0,-1.070997524E1,1.577169180E0
2.103822668E0,2.266900301E0,-1.125374413E1,1.339980721E0
2.106329647E0,2.451446772E0,-1.162014484E1,1.241874933E0
2.108836731E0,2.566302299E0,-1.198893833E1,1.076471090E0
2.111343710E0,2.611765862E0,-1.227159119E1,9.281160831E-1
2.113850741E0,2.781955481E0,-1.266221905E1,9.759725332E-1
2.116357772E0,2.884846687E0,-1.321795273E1,8.898309469E-1
2.118864804E0,2.779562712E0,-1.349103355E1,6.765705943E-1
2.121371835E0,2.537588358E0,-1.359153175E1,6.741777658E-1
2.123878866E0,2.269293070E0,-1.346231937E1,8.300103545E-1
2.126385845E0,2.147259235E0,-1.306451225E1,8.563314080E-1
2.128892877E0,2.118246317E0,-1.255932808E1,8.539385796E-1
2.131399908E0,2.056032896E0,-1.200329590E1,1.031007409E0
2.133928241E0,2.091925144E0,-1.145474148E1,1.246660590E0
2.136435272E0,2.128116608E0,-1.094716358E1,1.526919961E0
2.138942304E0,2.082353830E0,-1.045842934E1,1.639681697E0
2.141449283E0,2.036890268E0,-1.000558758E1,1.651645780E0
2.143956314E0,1.871785522E0,-9.543174744E0,1.721037745E0
2.146463293E0,1.699203134E0,-9.145667076E0,1.790429592E0
2.148970377E0,1.620239973E0,-8.819944382E0,1.749751568E0
2.151477408E0,1.550549030E0,-8.577970505E0,1.756929994E0
2.153984439E0,1.488335729E0,-8.402995110E0,1.764108539E0
2.156491470E0,1.430907965E0,-8.218448639E0,1.685145378E0
2.158998449E0,1.378265858E0,-8.010272980E0,1.656431437E0
2.161505481E0,1.315753341E0,-7.847261906E0,1.519741535E0
2.164035220E0,1.279860973E0,-7.763513088E0,1.613061547E0
2.166542199E0,1.335195065E0,-7.840083599E0,1.771286964E0
2.169049283E0,1.397408366E0,-7.945367813E0,1.807179332E0
2.171556262E0,1.445264935E0,-8.129914284E0,1.713859200E0
2.174063293E0,1.466800332E0,-8.201698303E0,1.701895118E0
2.176570272E0,1.557727575E0,-8.357531548E0,1.675574064E0
2.179077356E0,1.696810365E0,-8.527720451E0,1.598704576E0
2.181584387E0,1.845165372E0,-8.750253677E0,1.481456280E0
2.184091418E0,1.991426587E0,-9.047561646E0,1.500598907E0
2.186598397E0,2.140080690E0,-9.382855415E0,1.550848126E0
2.189105377E0,2.115853310E0,-9.325428009E0,1.543669701E0
2.191612460E0,2.113460541E0,-9.236594200E0,1.510170221E0
2.194139439E0,2.070389748E0,-8.925228119E0,1.428814173E0
2.196646470E0,2.120639086E0,-8.810373306E0,1.203589797E0
2.199153502E0,2.106282234E0,-8.987442017E0,9.592227936E-1
2.201660481E0,2.077568293E0,-9.112167358E0,8.276175261E-1
2.204167512E0,2.017747641E0,-9.399605751E0,7.603194118E-1
2.206674491E0,1.806880236E0,-9.557532310E0,9.113663435E-1
2.209181574E0,1.596311808E0,-9.655936241E0,1.050150037E0
2.211688606E0,1.409372568E0,-9.758828163E0,1.308874011E0
2.214195637E0,1.323230863E0,-9.782755852E0,1.376172066E0
2.216702668E0,1.296610713E0,-9.794720650E0,1.443171144E0
2.219209647E0,1.301396370E0,-9.844969749E0,1.536491275E0
2.221716679E0,1.308574915E0,-1.006301594E1,1.661217093E0
2.224242981E0,1.212862015E0,-1.022841930E1,1.735394597E0
2.226749960E0,9.254241586E-1,-1.031934643E1,1.807179332E0
2.229256991E0,7.360920906E-1,-1.044646549E1,1.857428551E0
2.231763970E0,6.188437343E-1,-1.048953629E1,1.896012783E0
2.234271054E0,4.271188378E-1,-1.051585770E1,1.943869352E0
2.236778085E0,3.122633696E-1,-1.053739262E1,1.881356835E0
2.239285116E0,2.353939265E-1,-1.045364380E1,1.859821439E0
2.241792095E0,1.636092514E-1,-1.037916756E1,1.826321840E0
2.244299179E0,2.811566591E-1,-1.057089233E1,1.792822361E0
2.246806158E0,9.541380405E-1,-1.142363453E1,1.768894196E0
2.249313189E0,1.859821439E0,-1.225005531E1,1.766501307E0
2.251820220E0,2.463410854E0,-1.282283783E1,1.783251047E0
2.254349960E0,2.935096025E0,-1.311984634E1,1.725823283E0
2.256856991E0,3.294617653E0,-1.306211948E1,1.656431437E0
2.259363970E0,3.620340586E0,-1.295205021E1,1.486241937E0
2.261871002E0,3.912564039E0,-1.270528984E1,1.258624673E0
2.264378033E0,4.085146427E0,-1.242742348E1,1.148554921E0
2.266885012E0,4.166502476E0,-1.205384445E1,1.127019525E0
2.269392095E0,3.989134550E0,-1.168953705E1,1.124626637E0
2.271899127E0,3.788137436E0,-1.136620712E1,1.112662554E0
2.274406158E0,3.505485058E0,-1.107159042E1,1.091127157E0
2.276913137E0,3.232404232E0,-1.088704395E1,1.158126116E0
2.279420168E0,2.937788010E0,-1.072672462E1,1.258624673E0
2.281927199E0,2.722134829E0,-1.065703392E1,1.404886007E0
2.284450585E0,2.482553482E0,-1.060439205E1,1.491027594E0
2.286957616E0,2.214258194E0,-1.056849957E1,1.502991676E0
2.289464647E0,1.984248161E0,-1.059003448E1,1.577169180E0
2.291971627E0,1.818844318E0,-1.068126106E1,1.627717614E0
2.294478710E0,1.739881158E0,-1.075543880E1,1.670788407E0
2.296985689E0,1.615454435E0,-1.078415298E1,1.697109461E0
2.299492720E0,1.488335729E0,-1.080568790E1,1.754537225E0
2.301999804E0,1.423729420E0,-1.080329514E1,1.716252089E0
2.304506783E0,1.404586911E0,-1.076261711E1,1.721037745E0
2.307013814E0,1.416550994E0,-1.078175926E1,1.730608940E0
2.309520793E0,1.323230863E0,-1.082483101E1,1.689931035E0
2.312027877E0,1.330409408E0,-1.076740265E1,1.704287887E0
2.314582147E0,1.229611754E0,-1.075304604E1,1.649253011E0
2.317089179E0,1.114756227E0,-1.076500988E1,1.558026671E0
2.319596210E0,1.037886858E0,-1.082483101E1,1.435992718E0
2.322103189E0,8.321040869E-1,-1.082722378E1,1.203589797E0
2.324610168E0,6.499504447E-1,-1.080808067E1,1.081256747E0
2.327117199E0,5.566303730E-1,-1.087986565E1,1.103091240E0
2.329624283E0,4.366901219E-1,-1.085832977E1,1.110269666E0
2.332131314E0,3.601198196E-1,-1.084875870E1,1.148554921E0
2.334638345E0,3.026920557E-1,-1.087986565E1,1.339980721E0
2.337145324E0,1.899302900E-1,-1.094955635E1,1.522134304E0
2.339652356E0,1.013958603E-1,-1.093011475E1,1.687538147E0
2.342159335E0,8.225327730E-2,-1.099023438E1,1.835893154E0
2.344665116E0,6.071787328E-2,-1.118883896E1,1.850250125E0
2.347172147E0,9.661021084E-2,-1.128245831E1,1.771286964E0
2.349679179E0,3.385843933E-1,-1.094477081E1,1.816750646E0
2.352186158E0,6.308078766E-1,-1.055174923E1,1.941476464E0
2.354693189E0,7.767700553E-1,-1.034566784E1,1.917548299E0
2.357200220E0,8.703892231E-1,-1.031216812E1,1.888535261E0
2.359707252E0,9.708877802E-1,-1.030259705E1,1.896012783E0
2.362214283E0,1.021137118E0,-1.030259705E1,1.823929071E0
2.364721314E0,1.064507008E0,-1.030977535E1,1.761715651E0
2.367228293E0,1.143470168E0,-1.037438202E1,1.687538147E0
2.369735324E0,1.210469127E0,-1.029541874E1,1.603490233E0
2.372242356E0,1.277468204E0,-1.022841930E1,1.550848126E0
2.374776002E0,1.368694544E0,-1.017338467E1,1.538884044E0
2.377282981E0,1.452443361E0,-1.006301594E1,1.550848126E0
2.379790064E0,1.656132340E0,-9.905089378E0,1.951047778E0
2.382297043E0,1.543370605E0,-9.739685059E0,1.905584097E0
2.384804074E0,1.411765337E0,-9.639186859E0,1.713859200E0
2.387311106E0,1.347159147E0,-9.514460564E0,1.658824325E0
2.389818085E0,1.275075316E0,-9.373284340E0,1.577169180E0
2.392325116E0,1.284646630E0,-9.238986969E0,1.512562990E0
2.394832199E0,1.212862015E0,-9.066703796E0,1.481456280E0
2.397339231E0,1.179362416E0,-8.903693199E0,1.510170221E0
2.399846210E0,8.943174481E-1,-8.436494827E0,1.519741535E0
2.402353241E0,2.931207716E-1,-7.581359386E0,1.407278776E0
2.404874543E0,7.600203156E-1,-8.379066467E0,1.320838094E0
2.407381574E0,1.157827020E0,-9.016156197E0,1.241874933E0
2.409888606E0,1.328016520E0,-9.200701714E0,1.272981644E0
2.412395585E0,1.514656782E0,-9.325428009E0,1.306481123E0
2.414902616E0,1.677667737E0,-9.330213547E0,1.385743380E0
2.417409647E0,1.991426587E0,-8.980263710E0,1.299302697E0
2.419916679E0,2.865704298E0,-7.715656757E0,1.227517962E0
2.422423710E0,3.088535786E0,-8.050951004E0,1.308874011E0
2.424930741E0,2.480160713E0,-9.821041107E0,1.550848126E0
2.427437772E0,2.067996979E0,-1.042253685E1,1.852642894E0
2.429944752E0,1.962712765E0,-1.028106117E1,1.979761600E0
2.432451783E0,1.926820397E0,-9.940981865E0,1.898405671E0
2.434984804E0,1.977069736E0,-9.792327881E0,1.792822361E0
2.437491835E0,1.924427629E0,-9.789935112E0,1.761715651E0
2.439998866E0,1.833201289E0,-9.878767967E0,1.639681697E0
2.442505845E0,1.677667737E0,-9.912267685E0,1.534098387E0
2.445012877E0,1.581655741E0,-1.000080204E1,1.517348647E0
2.447519908E0,1.481157184E0,-1.011565781E1,1.488634825E0
2.450026939E0,1.502692580E0,-1.013988495E1,1.435992718E0
2.452533970E0,1.483550072E0,-1.006301594E1,1.421635747E0
2.455041002E0,1.493121386E0,-9.986445427E0,1.459920883E0
2.457548033E0,1.519442320E0,-9.883553505E0,1.493420482E0
2.460055012E0,1.416550994E0,-9.871589661E0,1.426421404E0
2.462562043E0,1.236790180E0,-9.727721214E0,1.392921925E0
2.465090897E0,9.206385016E-1,-9.385248184E0,1.359422326E0
2.467597929E0,5.853442550E-1,-9.107381821E0,1.256231904E0
2.470105012E0,5.111667514E-1,-9.183952332E0,1.464706540E0
2.472611991E0,7.001997232E-1,-9.361320496E0,1.603490233E0
2.475119022E0,8.488538265E-1,-9.492925644E0,1.761715651E0
2.477626002E0,9.493523836E-1,-9.550353050E0,1.776072621E0
2.480133085E0,1.119541883E0,-9.497711182E0,1.730608940E0
2.482640116E0,1.251147151E0,-9.461818695E0,1.764108539E0
2.485147095E0,1.378265858E0,-9.488140106E0,1.701895118E0
2.487654179E0,1.428515077E0,-9.521639824E0,1.692323804E0
2.490161158E0,1.481157184E0,-9.504889488E0,1.716252089E0
2.492668189E0,1.586441398E0,-9.514460564E0,1.749751568E0
2.495196262E0,1.625025630E0,-9.524032593E0,1.675574064E0
2.497703293E0,1.648953915E0,-9.569496155E0,1.639681697E0
2.500210324E0,1.576870084E0,-9.600901604E0,1.642074585E0
2.502717304E0,1.531406522E0,-9.629615784E0,1.591526151E0
2.505224283E0,1.418943882E0,-9.675079346E0,1.548455358E0
2.507731366E0,1.287039518E0,-9.734899521E0,1.536491275E0
2.510238397E0,1.200897813E0,-9.730113983E0,1.555633783E0
2.512745429E0,1.025922656E0,-9.684650421E0,1.562812328E0
2.515252460E0,1.028315544E0,-9.677472115E0,1.500598907E0
2.517759491E0,1.114756227E0,-9.576674461E0,1.491027594E0
2.520266470E0,1.160219908E0,-9.531210899E0,1.483849168E0
2.522773502E0,1.320838094E0,-9.519247055E0,1.476670623E0
2.525301314E0,1.687239051E0,-9.679864883E0,1.486241937E0
2.527808345E0,2.084746838E0,-1.007019424E1,1.565205097E0
2.530315429E0,2.393719912E0,-1.051107121E1,1.613061547E0
2.532822408E0,2.350649118E0,-1.036720276E1,1.639681697E0
2.535329439E0,1.620239973E0,-9.742077827E0,1.680359721E0
2.537836470E0,1.086042404E0,-9.480961800E0,1.481456280E0
2.540343502E0,9.708877802E-1,-9.559925079E0,1.296909928E0
2.542850533E0,1.119541883E0,-9.653543472E0,1.292124271E0
2.545357512E0,1.203290701E0,-9.710971832E0,1.280160069E0
2.547864595E0,1.263111234E0,-9.627223015E0,1.232303619E0
2.550371574E0,1.232004523E0,-9.535996437E0,1.272981644E0
2.552878606E0,1.342373490E0,-9.373284340E0,1.330409408E0
2.555404074E0,1.354337573E0,-9.289237022E0,1.409671664E0
2.557911106E0,1.430907965E0,-9.323035240E0,1.625324726E0
2.560418137E0,1.490728498E0,-9.286844254E0,1.955833435E0
2.562925116E0,1.371087432E0,-9.339784622E0,1.613061547E0
2.565432095E0,1.320838094E0,-9.358927727E0,1.464706540E0
2.567939127E0,1.404586911E0,-9.310771942E0,1.581954837E0
2.570446210E0,1.414158225E0,-9.301200867E0,1.596311808E0
2.572953241E0,1.409372568E0,-9.267701149E0,1.586740494E0
2.575460272E0,1.347159147E0,-9.246166229E0,1.601097465E0
2.577967252E0,1.258325577E0,-9.265308380E0,1.529312730E0
2.580474283E0,1.176969647E0,-9.255737305E0,1.431207061E0
2.582981314E0,1.078863859E0,-9.195916176E0,1.534098387E0
2.585492304E0,1.121934772E0,-9.323035240E0,1.646860242E0
2.587999335E0,1.105184913E0,-9.392427444E0,1.613061547E0
2.590506366E0,1.083649516E0,-9.437891006E0,1.687538147E0
2.593013397E0,9.445667267E-1,-9.356534958E0,1.610668778E0
2.595520429E0,9.541380405E-1,-9.483354568E0,1.644467354E0
2.598027460E0,1.176969647E0,-9.813862801E0,1.771286964E0
2.600534491E0,1.289432287E0,-9.873982430E0,1.773679733E0
2.603041522E0,1.385444283E0,-9.782755852E0,1.821536183E0
2.605548502E0,1.416550994E0,-9.593723297E0,1.725823283E0
2.608055533E0,1.380658627E0,-9.588937759E0,1.689931035E0
2.610562564E0,1.459621787E0,-9.675079346E0,1.941476464E0
2.613069595E0,1.263111234E0,-9.540781975E0,1.943869352E0
2.615618189E0,1.066899776E0,-9.490532875E0,1.541276932E0
2.618125220E0,1.030708313E0,-9.449854851E0,1.531705618E0
2.620632252E0,1.105184913E0,-9.461818695E0,1.574776411E0
2.623139231E0,1.270289779E0,-9.449854851E0,1.565205097E0
2.625646262E0,1.323230863E0,-9.452247620E0,1.639681697E0
2.628153293E0,1.368694544E0,-9.445069313E0,1.680359721E0
2.630660324E0,1.469193101E0,-9.457033157E0,1.675574064E0
2.633167356E0,1.557727575E0,-9.476176262E0,1.658824325E0
2.635674387E0,1.615454435E0,-9.540781975E0,1.649253011E0
2.638181418E0,1.696810365E0,-9.651150703E0,1.534098387E0
2.640688397E0,1.718345761E0,-9.725328445E0,1.553241014E0
2.643195429E0,1.809273005E0,-9.806684494E0,1.534098387E0
2.645690116E0,1.775773525E0,-9.828220367E0,1.500598907E0
2.648197147E0,1.775773525E0,-9.905089378E0,1.469492197E0
2.650704179E0,1.823629975E0,-9.924231529E0,1.541276932E0
2.653211210E0,1.725524187E0,-9.936196327E0,1.495813251E0
2.655718241E0,1.680060625E0,-9.984052658E0,1.462313771E0
2.658225272E0,1.632204175E0,-9.818648338E0,1.548455358E0
2.660732304E0,1.418943882E0,-9.435498238E0,1.613061547E0
2.663239335E0,1.145862937E0,-9.176774025E0,1.625324726E0
2.665746314E0,1.059721351E0,-9.198308945E0,1.689931035E0
2.668253345E0,1.037886858E0,-9.358927727E0,1.747358680E0
2.670760377E0,1.064507008E0,-9.447462082E0,1.778465390E0
2.673267408E0,1.232004523E0,-9.507282257E0,2.018046856E0
2.675827252E0,1.198505044E0,-9.584152222E0,1.838286042E0
2.678334283E0,1.243968725E0,-9.720542908E0,1.598704576E0
2.680841314E0,1.222433209E0,-9.758828163E0,1.502991676E0
2.683348293E0,1.078863859E0,-9.605687141E0,1.412064433E0
2.685855324E0,1.030708313E0,-9.528818130E0,1.325623751E0
2.688362356E0,9.493523836E-1,-9.497711182E0,1.352243900E0
2.690869387E0,8.368897438E-1,-9.368498802E0,1.364207983E0
2.693376418E0,6.116653085E-1,-9.143274307E0,1.308874011E0
2.695883449E0,5.327021480E-1,-9.004191399E0,1.296909928E0
2.698390481E0,8.871390224E-1,-9.219844818E0,1.610668778E0
2.700897460E0,1.234397411E0,-9.569496155E0,1.646860242E0
2.703404491E0,1.301396370E0,-9.749257088E0,1.589133382E0
2.705938345E0,1.243968725E0,-9.071489334E0,1.565205097E0
2.708445377E0,1.392622828E0,-8.196912766E0,1.986940145E0
2.710952408E0,1.179362416E0,-8.290532112E0,1.776072621E0
2.713459439E0,7.818548083E-1,-8.022236824E0,1.517348647E0
2.715966470E0,2.931207716E-1,-7.519145966E0,1.431207061E0
2.718473502E0,4.701896608E-1,-8.156234741E0,1.160519004E0
2.720980533E0,5.614160299E-1,-8.855836868E0,1.246660590E0
2.723487564E0,2.787638307E-1,-8.817551613E0,1.668395638E0
2.725994543E0,-6.879365444E-2,-8.264211655E0,1.939083695E0
2.728501574E0,-5.443671346E-2,-7.983952045E0,2.015654087E0
2.731008606E0,2.667997181E-1,-8.426922798E0,1.927119493E0
2.733515637E0,5.350949764E-1,-8.882157326E0,1.852642894E0
2.736036418E0,6.044868231E-1,-9.231808662E0,1.811964989E0
2.738543449E0,5.183451772E-1,-9.457033157E0,1.891227245E0
2.741050481E0,4.414757788E-1,-8.968298912E0,1.929512382E0
2.743557460E0,8.033902049E-1,-9.564710617E0,1.788036704E0
2.746064491E0,8.919246197E-1,-9.785149574E0,1.773679733E0
2.748571522E0,9.349954724E-1,-9.646365166E0,1.704287887E0
2.751078554E0,9.349954724E-1,-9.504889488E0,1.644467354E0
2.753585585E0,1.081256747E0,-9.440283775E0,1.562812328E0
2.756092616E0,1.332802176E0,-9.751649857E0,1.347159147E0
2.758599647E0,1.507478237E0,-9.931410789E0,1.222732425E0
2.761106627E0,1.603490233E0,-9.897911072E0,1.208375454E0
2.763613658E0,1.617847204E0,-9.768399239E0,1.201196909E0
2.766117095E0,1.603490233E0,-9.579067230E0,1.131805062E0
2.768624179E0,1.730309844E0,-9.646365166E0,1.225125194E0
2.771131210E0,1.802094579E0,-9.708579063E0,1.275374413E0
2.773638189E0,1.735095501E0,-9.706186295E0,1.354636669E0
2.776145220E0,1.660917997E0,-9.794720650E0,1.349551916E0
2.778652252E0,1.613061547E0,-9.816255569E0,1.364207983E0
2.781159283E0,1.593919039E0,-9.857233047E0,1.361815214E0
2.783666314E0,1.533799291E0,-9.917053223E0,1.320838094E0
2.786173293E0,1.385444283E0,-9.862018585E0,1.201196909E0
2.788680377E0,1.289432287E0,-9.797113419E0,1.172483087E0
2.791187356E0,1.109970570E0,-9.775577545E0,1.222732425E0
2.793694387E0,1.021137118E0,-9.811470032E0,1.213161111E0
2.796251731E0,8.895317912E-1,-9.706186295E0,1.344766378E0
2.798758762E0,8.105686903E-1,-9.632008553E0,1.409671664E0
2.801265793E0,7.842476368E-1,-9.495318413E0,1.371386528E0
2.803772772E0,7.671987414E-1,-9.411569595E0,1.438385487E0
2.806279804E0,8.057830334E-1,-9.411569595E0,1.438385487E0
2.808786835E0,7.648059130E-1,-9.246166229E0,1.524527073E0
2.811293866E0,6.954140663E-1,-9.121739388E0,1.593919039E0
2.813800845E0,6.786643267E-1,-9.083454132E0,1.553241014E0
2.816307929E0,6.619145870E-1,-8.941978455E0,1.562812328E0
2.818814960E0,5.805585980E-1,-8.798408508E0,1.598704576E0
2.821321939E0,5.255236626E-1,-8.719146729E0,1.625324726E0
2.823828970E0,4.869394004E-1,-8.587541580E0,1.615454435E0
2.826335897E0,4.941178858E-1,-8.623434067E0,1.632503271E0
2.828842981E0,5.997011662E-1,-8.656932831E0,1.574776411E0
2.831350012E0,6.236293912E-1,-8.589934349E0,1.577169180E0
2.833856991E0,6.810571551E-1,-8.479565620E0,1.502991676E0
2.836364022E0,7.480561733E-1,-8.407780647E0,1.608275890E0
2.838871054E0,7.914260626E-1,-8.292924881E0,1.632503271E0
2.841378085E0,8.679963946E-1,-8.134699821E0,1.675574064E0
2.843885116E0,8.775677085E-1,-8.060522079E0,1.658824325E0
2.846392095E0,8.871390224E-1,-8.113163948E0,1.584347725E0
2.848899179E0,8.416753411E-1,-8.220841408E0,1.524527073E0
2.851406158E0,7.289136052E-1,-8.474779129E0,1.424028635E0
2.853913189E0,4.342973232E-1,-8.549256325E0,1.284945726E0
2.856463449E0,1.947159469E-1,-8.585148811E0,1.155733347E0
2.858970481E0,-8.315058798E-2,-8.668897629E0,1.172483087E0
2.861477512E0,-1.597209126E-1,-9.049954414E0,1.352243900E0
2.863984491E0,-6.640082598E-2,-9.222237587E0,1.459920883E0
2.866491470E0,-6.879365444E-2,-9.241379738E0,1.543669701E0
2.868998554E0,-8.673981763E-3,-9.397212982E0,1.543669701E0
2.871505533E0,3.918246925E-2,-9.387641907E0,1.479063511E0
2.874012616E0,-1.495514181E-3,-9.272486687E0,1.421635747E0
2.876519647E0,7.507480681E-2,-9.507282257E0,1.455135226E0
2.879026679E0,1.157527938E-1,-9.535996437E0,1.419242978E0
2.881533658E0,4.636093974E-2,-9.495318413E0,1.424028635E0
2.884040689E0,2.596212626E-1,-9.708579063E0,1.440778375E0
2.886553554E0,3.433700502E-1,-9.794720650E0,1.421635747E0
2.889060637E0,4.486542344E-1,-9.873982430E0,1.373779297E0
2.891567668E0,4.295116663E-1,-9.823433876E0,1.572383523E0
2.894074647E0,2.138585299E-1,-9.789935112E0,1.811964989E0
2.896581679E0,-2.063809521E-2,-1.001276588E1,1.826321840E0
2.899088710E0,-2.243271172E-1,-1.003908730E1,1.838286042E0
2.901595741E0,-3.658027649E-1,-9.909874916E0,2.032403708E0
2.904102772E0,-4.878367186E-1,-9.495318413E0,2.911466837E0
2.906609752E0,-2.650051117E-1,-9.703793526E0,3.210868835E0
2.909116835E0,9.661021084E-2,-1.002473068E1,3.036192894E0
2.911623814E0,3.912265003E-1,-1.018774128E1,2.772683144E0
2.914130845E0,7.743772268E-1,-1.014227772E1,2.365305185E0
2.916674439E0,1.157827020E0,-1.004626560E1,1.809572101E0
2.919181470E0,1.495514154E0,-1.006540871E1,1.347159147E0
2.921688449E0,1.742274046E0,-1.007258701E1,9.520443082E-1
2.924195481E0,1.938784599E0,-1.006780148E1,6.095715761E-1
2.926702460E0,2.017747641E0,-1.003190899E1,4.130610228E-1
2.929209543E0,1.945963025E0,-1.001755238E1,2.814557552E-1
2.931716574E0,1.806880236E0,-1.005583763E1,2.982055247E-1
2.934223606E0,1.653739572E0,-1.005344391E1,5.231308341E-1
2.936730637E0,1.361516118E0,-9.988838196E0,7.555337548E-1
2.939237668E0,1.188933730E0,-9.984052658E0,1.011864901E0
2.941744647E0,9.397810698E-1,-9.813862801E0,1.428814173E0
2.944251679E0,7.648059130E-1,-9.813862801E0,1.795215130E0
2.946748762E0,6.044868231E-1,-9.967302322E0,1.797608018E0
2.949255793E0,2.955136001E-1,-9.768399239E0,1.955833435E0
2.951762824E0,1.061815023E-1,-9.751649857E0,2.092224360E0
2.954269804E0,4.396811500E-2,-9.914660454E0,2.037189484E0
2.956776835E0,-1.585244946E-2,-1.007737255E1,1.610668778E0
2.959283866E0,-1.214357466E-1,-1.000319481E1,1.536491275E0
2.961790897E0,-1.429711580E-1,-9.926624298E0,1.603490233E0
2.964297877E0,-9.511470050E-2,-9.952945709E0,1.579562068E0
2.966804908E0,-4.007977992E-2,-1.012313557E1,1.603490233E0
2.969311991E0,-1.824527234E-2,-1.020209885E1,1.634896040E0
2.971818970E0,-7.118647546E-2,-1.027388287E1,1.615454435E0
2.974326002E0,-1.357926875E-1,-1.030259705E1,1.723430514E0
2.976886366E0,-4.965107143E-2,-1.048953629E1,1.658824325E0
2.979393397E0,3.678964823E-2,-1.067647552E1,1.620239973E0
2.981900429E0,1.046859939E-2,-1.072911739E1,1.744965911E0
2.984407356E0,8.703892678E-2,-1.081047344E1,1.716252089E0
2.986914387E0,1.157527938E-1,-1.081286621E1,1.687538147E0
2.989421470E0,1.181456149E-1,-1.091097260E1,1.581954837E0
2.991928502E0,2.066800594E-1,-1.100459099E1,1.325623751E0
2.994435533E0,3.194418252E-1,-1.101894855E1,1.268195987E0
2.996942564E0,3.744767308E-1,-1.098784161E1,1.205982566E0
2.999449595E0,3.601198196E-1,-1.082961655E1,1.308874011E0
3.001956522E0,4.773681164E-1,-1.082004452E1,1.337587833E0
3.004463606E0,4.606183469E-1,-1.096630573E1,1.277767301E0
3.006966627E0,3.960121572E-1,-1.099023438E1,1.220339537E0
3.009473658E0,3.553341627E-1,-1.097827053E1,1.217946768E0
3.011980689E0,4.247260094E-1,-1.104526901E1,1.253839016E0
3.014487668E0,4.127618968E-1,-1.093998528E1,1.364207983E0
3.016994699E0,4.223332107E-1,-1.085115147E1,1.361815214E0
3.019501731E0,4.677968323E-1,-1.076261711E1,1.479063511E0
3.022008762E0,4.893322289E-1,-1.073390293E1,1.541276932E0
3.024515793E0,5.470590591E-1,-1.061874866E1,1.524527073E0
3.027022824E0,5.662016869E-1,-1.057807064E1,1.457528114E0
3.029529856E0,5.638088584E-1,-1.051585770E1,1.400100350E0
3.032036835E0,5.829514265E-1,-1.054217815E1,1.385743380E0
3.034543866E0,6.571289301E-1,-1.033370399E1,1.426421404E0
3.037097356E0,6.810571551E-1,-1.012552834E1,1.371386528E0
3.039604387E0,8.081758618E-1,-9.974481583E0,1.390529037E0
3.042111418E0,8.464609981E-1,-9.859625816E0,1.383350611E0
3.044618397E0,9.038887620E-1,-9.818648338E0,1.292124271E0
3.047125429E0,9.517452121E-1,-9.718150139E0,1.412064433E0
3.049632460E0,9.589236975E-1,-9.207880974E0,1.541276932E0
3.052139491E0,8.847461939E-1,-8.079665184E0,1.934298038E0
3.054646522E0,3.577269912E-1,-5.595615864E0,-6.218347549E-1
3.057153554E0,8.225327730E-1,-5.114060402E0,-5.371886730E0
3.059660585E0,2.523231506E0,-6.294918060E0,1.734796464E-1
3.062167564E0,2.048854351E0,-7.214958668E0,1.735394597E0
3.064674595E0,2.300399780E0,-7.986344814E0,2.008475542E0
3.067187564E0,2.015354872E0,-9.289237022E0,1.859821439E0
3.069694595E0,1.782951951E0,-1.088225842E1,1.857428551E0
3.072201574E0,1.866999865E0,-1.163689518E1,2.041975021E0
3.074708606E0,1.773380637E0,-1.198176003E1,2.279163599E0
3.077215637E0,1.260718465E0,-1.234367466E1,2.295913219E0
3.079722668E0,1.035493970E0,-1.274118233E1,2.444567442E0
3.082229699E0,7.217351198E-1,-1.284437275E1,2.501995087E0
3.084736731E0,3.146561682E-1,-1.295922852E1,2.362912416E0
3.087243762E0,8.943174779E-2,-1.298794174E1,2.250449657E0
3.089750793E0,8.973084623E-4,-1.225962639E1,2.178664923E0
3.092257772E0,1.525424421E-2,-1.132074261E1,2.142473459E0
3.094764804E0,2.234298140E-1,-1.081525898E1,2.152044773E0
3.097305741E0,4.342973232E-1,-1.057328510E1,2.044367790E0
3.099814179E0,6.164509058E-1,-1.045603657E1,1.970190287E0
3.102322616E0,6.906284094E-1,-1.030020428E1,1.855035782E0
3.104831106E0,7.528418303E-1,-1.017338467E1,1.740180254E0
3.107339491E0,8.129615188E-1,-1.005823040E1,1.589133382E0
3.109847981E0,7.842476368E-1,-9.929018021E0,1.385743380E0
3.112356418E0,7.025925517E-1,-9.758828163E0,1.342373490E0
3.114864856E0,5.060819983E-1,-9.557532310E0,1.440778375E0
3.117373345E0,5.255236626E-1,-9.610472679E0,1.680359721E0
3.119881783E0,5.973083377E-1,-9.737292290E0,1.828714728E0
3.122390220E0,6.020939946E-1,-9.873982430E0,1.783251047E0
3.124898658E0,6.954140663E-1,-9.885947227E0,1.615454435E0
3.127417460E0,6.834499836E-1,-9.804291725E0,1.467099428E0
3.129925949E0,6.403791308E-1,-9.756435394E0,1.275374413E0
3.132434387E0,5.949155092E-1,-9.679864883E0,1.138983607E0
3.134942824E0,5.060819983E-1,-9.552745819E0,1.196411371E0
3.137451314E0,4.390829504E-1,-9.591330528E0,1.263410330E0
3.139959752E0,5.422734022E-1,-9.643972397E0,1.158126116E0
3.142468189E0,5.805585980E-1,-9.699007034E0,1.160519004E0
3.144976627E0,6.403791308E-1,-9.708579063E0,1.127019525E0
3.147485064E0,6.786643267E-1,-9.658329964E0,1.165304661E0
3.149993554E0,6.834499836E-1,-9.655936241E0,1.241874933E0
3.152501991E0,7.600203156E-1,-9.670293808E0,1.289731383E0
3.155010429E0,7.767700553E-1,-9.643972397E0,1.368993640E0
3.157517668E0,7.169494629E-1,-9.665508270E0,1.342373490E0
3.160026106E0,6.810571551E-1,-9.651150703E0,1.316052437E0
3.162534543E0,6.332007051E-1,-9.617651939E0,1.344766378E0
3.165043033E0,5.757729411E-1,-9.559925079E0,1.357029557E0
3.167551470E0,5.374878049E-1,-9.622437477E0,1.424028635E0
3.170059908E0,4.917250574E-1,-9.612865448E0,1.529312730E0
3.172568345E0,4.151547253E-1,-9.612865448E0,1.617847204E0
3.175076783E0,4.534398913E-1,-9.574281693E0,1.651645780E0
3.177585220E0,3.960121572E-1,-9.579067230E0,1.687538147E0
3.180093710E0,3.720839322E-1,-9.643972397E0,1.778465390E0
3.182602147E0,3.720839322E-1,-9.663115501E0,1.713859200E0
3.185110585E0,3.361915946E-1,-9.675079346E0,1.668395638E0
3.187608085E0,3.864408433E-1,-9.710971832E0,1.644467354E0
3.190116574E0,3.433700502E-1,-9.775577545E0,1.574776411E0
3.192625012E0,3.601198196E-1,-9.844969749E0,1.517348647E0
3.195133502E0,3.481557071E-1,-9.878767967E0,1.428814173E0
3.197641939E0,3.314059377E-1,-9.907482147E0,1.407278776E0
3.200150377E0,2.979064286E-1,-9.919445992E0,1.332802176E0
3.202658814E0,3.577269912E-1,-9.940981865E0,1.292124271E0
3.205167252E0,3.409772217E-1,-9.991230965E0,1.287338614E0
3.207675741E0,2.620140910E-1,-9.984052658E0,1.277767301E0
3.210184179E0,2.691925466E-1,-9.976874352E0,1.251446247E0
3.212692616E0,2.596212626E-1,-9.952945709E0,1.299302697E0
3.215201054E0,2.210369855E-1,-9.976874352E0,1.232303619E0
3.217731210E0,1.660020649E-1,-9.933803558E0,1.143769264E0
3.220239647E0,2.042872310E-1,-9.909874916E0,1.172483087E0
3.222748085E0,1.995015889E-1,-9.857233047E0,1.131805062E0
3.225256522E0,2.066800594E-1,-9.761220932E0,1.153340459E0
3.227765012E0,3.242274821E-1,-9.696614265E0,1.220339537E0
3.230273449E0,3.553341627E-1,-9.725328445E0,1.265803218E0
3.232781887E0,3.505485058E-1,-9.655936241E0,1.241874933E0
3.235290324E0,3.649054468E-1,-9.610472679E0,1.308874011E0
3.237798814E0,4.319044948E-1,-9.605687141E0,1.337587833E0
3.240307252E0,4.917250574E-1,-9.571888924E0,1.368993640E0
3.242815689E0,4.965106845E-1,-9.519247055E0,1.421635747E0
3.245324127E0,4.941178858E-1,-9.466604233E0,1.395314693E0
3.247835481E0,5.159524083E-1,-9.464211464E0,1.421635747E0
3.250343970E0,5.135595798E-1,-9.440283775E0,1.392921925E0
3.252852408E0,4.989035130E-1,-9.490532875E0,1.366600871E0
3.255360897E0,5.374878049E-1,-9.555138588E0,1.385743380E0
3.257869335E0,4.773681164E-1,-9.524032593E0,1.337587833E0
3.260377772E0,4.390829504E-1,-9.574281693E0,1.323230863E0
3.262886210E0,4.462614357E-1,-9.620044708E0,1.294517040E0
3.265394647E0,4.390829504E-1,-9.643972397E0,1.325623751E0
3.267903137E0,4.247260094E-1,-9.677472115E0,1.330409408E0
3.270411574E0,3.553341627E-1,-9.687043190E0,1.261017561E0
3.272920012E0,3.457628787E-1,-9.730113983E0,1.182054400E0
3.275428449E0,3.098705411E-1,-9.749257088E0,1.170090318E0
3.277945689E0,3.050848842E-1,-9.789935112E0,1.186840057E0
3.280454127E0,3.074777126E-1,-9.854840279E0,1.134197950E0
3.282962564E0,3.649054468E-1,-9.847362518E0,1.184447169E0
3.285471002E0,3.385843933E-1,-9.873982430E0,1.205982566E0
3.287979491E0,3.625126183E-1,-9.905089378E0,1.182054400E0
3.290487929E0,3.505485058E-1,-9.893125534E0,1.229910851E0
3.292996366E0,4.366901219E-1,-9.871589661E0,1.263410330E0
3.295504804E0,4.654040039E-1,-9.883553505E0,1.308874011E0
3.298013241E0,4.917250574E-1,-9.883553505E0,1.357029557E0
3.300521731E0,5.135595798E-1,-9.914660454E0,1.287338614E0
3.303030168E0,5.590232015E-1,-9.900303841E0,1.277767301E0
3.305538606E0,5.733801126E-1,-9.830613136E0,1.244267821E0
3.308041470E0,5.829514265E-1,-9.869196892E0,1.277767301E0
3.310549908E0,5.949155092E-1,-9.881160736E0,1.347159147E0
3.313058345E0,6.355935335E-1,-9.871589661E0,1.364207983E0
3.315566835E0,6.164509058E-1,-9.799506187E0,1.361815214E0
3.318075272E0,5.901299119E-1,-9.789935112E0,1.320838094E0
3.320583710E0,5.757729411E-1,-9.775577545E0,1.364207983E0
3.323092147E0,5.614160299E-1,-9.737292290E0,1.328016520E0
3.325600637E0,5.566303730E-1,-9.722935677E0,1.318445325E0
3.328109074E0,5.949155092E-1,-9.725328445E0,1.316052437E0
3.330617460E0,5.279164910E-1,-9.725328445E0,1.299302697E0
3.333125949E0,4.965106845E-1,-9.677472115E0,1.311266780E0
3.335634387E0,4.582255483E-1,-9.708579063E0,1.332802176E0
3.338153293E0,4.558327198E-1,-9.725328445E0,1.311266780E0
3.340661731E0,4.295116663E-1,-9.744471550E0,1.330409408E0
3.343170168E0,4.247260094E-1,-9.720542908E0,1.373779297E0
3.345678606E0,4.175475538E-1,-9.751649857E0,1.390529037E0
3.348187043E0,4.055834413E-1,-9.734899521E0,1.400100350E0
3.350695481E0,3.960121572E-1,-9.730113983E0,1.414457321E0
3.353203970E0,4.486542344E-1,-9.756435394E0,1.404886007E0
3.355712408E0,4.223332107E-1,-9.787542343E0,1.400100350E0
3.358220845E0,4.438686073E-1,-9.746864319E0,1.402493119E0
3.360729335E0,4.582255483E-1,-9.775577545E0,1.320838094E0
3.363237772E0,4.295116663E-1,-9.734899521E0,1.318445325E0
3.365746210E0,4.773681164E-1,-9.770792007E0,1.294517040E0
3.368275012E0,5.446662307E-1,-9.777970314E0,1.229910851E0
3.370783502E0,5.805585980E-1,-9.773184776E0,1.330409408E0
3.373291939E0,6.403791308E-1,-9.737292290E0,1.332802176E0
3.375800377E0,6.260222197E-1,-9.777970314E0,1.306481123E0
3.378308814E0,6.403791308E-1,-9.804291725E0,1.304088354E0
3.380817304E0,6.858428121E-1,-9.777970314E0,1.289731383E0
3.383325741E0,6.786643267E-1,-9.780363083E0,1.241874933E0
3.385834231E0,6.523432732E-1,-9.751649857E0,1.227517962E0
3.388342616E0,6.762714982E-1,-9.761220932E0,1.234696507E0
3.390851106E0,6.451647878E-1,-9.758828163E0,1.251446247E0
3.393359543E0,6.332007051E-1,-9.777970314E0,1.237089276E0
3.395867981E0,6.427719593E-1,-9.730113983E0,1.232303619E0
3.398364699E0,5.853442550E-1,-9.770792007E0,1.292124271E0
3.400873137E0,6.308078766E-1,-9.749257088E0,1.323230863E0
3.403381574E0,6.427719593E-1,-9.775577545E0,1.337587833E0
3.405890064E0,6.116653085E-1,-9.794720650E0,1.400100350E0
3.408398502E0,5.829514265E-1,-9.777970314E0,1.455135226E0
3.410906939E0,6.236293912E-1,-9.756435394E0,1.426421404E0
3.413415377E0,5.757729411E-1,-9.785149574E0,1.407278776E0
3.415923814E0,5.494518876E-1,-9.766006470E0,1.371386528E0
3.418432304E0,5.183451772E-1,-9.713364601E0,1.361815214E0
3.420940689E0,5.446662307E-1,-9.742077827E0,1.385743380E0
3.423449179E0,5.638088584E-1,-9.744471550E0,1.462313771E0
3.425957616E0,5.303093195E-1,-9.722935677E0,1.479063511E0
3.428451939E0,5.327021480E-1,-9.732506752E0,1.424028635E0
3.430960429E0,5.853442550E-1,-9.701400757E0,1.388136268E0
3.433468866E0,5.781657696E-1,-9.699007034E0,1.402493119E0
3.435977304E0,6.164509058E-1,-9.715757370E0,1.409671664E0
3.438485741E0,6.595217586E-1,-9.670293808E0,1.419242978E0
3.440994179E0,6.475576162E-1,-9.660722733E0,1.373779297E0
3.443502668E0,6.571289301E-1,-9.620044708E0,1.296909928E0
3.446011106E0,6.475576162E-1,-9.584152222E0,1.378564954E0
3.448519543E0,6.499504447E-1,-9.600901604E0,1.311266780E0
3.451027981E0,6.188437343E-1,-9.608079910E0,1.308874011E0
3.453536418E0,6.499504447E-1,-9.617651939E0,1.311266780E0
3.456044908E0,6.092724800E-1,-9.653543472E0,1.342373490E0
3.458569908E0,5.518447161E-1,-9.634401321E0,1.344766378E0
3.461078345E0,5.518447161E-1,-9.682257652E0,1.366600871E0
3.463586783E0,5.398806334E-1,-9.708579063E0,1.354636669E0
3.466095220E0,4.510470629E-1,-9.706186295E0,1.373779297E0
3.468603710E0,4.582255483E-1,-9.732506752E0,1.373779297E0
3.471112147E0,4.725824594E-1,-9.763613701E0,1.459920883E0
3.473620585E0,4.462614357E-1,-9.746864319E0,1.435992718E0
3.476129022E0,3.720839322E-1,-9.777970314E0,1.467099428E0
3.478637512E0,3.649054468E-1,-9.799506187E0,1.577169180E0
3.481145949E0,3.314059377E-1,-9.854840279E0,1.603490233E0
3.483654387E0,3.194418252E-1,-9.847362518E0,1.569990754E0
3.486162824E0,2.955136001E-1,-9.857233047E0,1.572383523E0
3.488679647E0,3.026920557E-1,-9.912267685E0,1.560419440E0
3.491188085E0,3.218346536E-1,-9.871589661E0,1.565205097E0
3.493696522E0,3.098705411E-1,-9.890732765E0,1.507777333E0
3.496205012E0,3.649054468E-1,-9.864411354E0,1.538884044E0
3.498713397E0,3.672982752E-1,-9.869196892E0,1.479063511E0
3.501221887E0,3.337987661E-1,-9.876375198E0,1.553241014E0
3.503730324E0,3.242274821E-1,-9.893125534E0,1.522134304E0
3.506238762E0,2.596212626E-1,-9.895518303E0,1.598704576E0
3.508747252E0,2.644068897E-1,-9.893125534E0,1.637288928E0
3.511255689E0,3.194418252E-1,-9.825826645E0,1.498206019E0
3.513764127E0,3.337987661E-1,-9.821041107E0,1.404886007E0
3.516272564E0,3.744767308E-1,-9.816255569E0,1.428814173E0
3.518787043E0,3.984049559E-1,-9.775577545E0,1.452742457E0
3.521295481E0,4.486542344E-1,-9.804291725E0,1.471885085E0
3.523803918E0,5.111667514E-1,-9.816255569E0,1.455135226E0
3.526312408E0,5.590232015E-1,-9.806684494E0,1.452742457E0
3.528820845E0,5.901299119E-1,-9.806684494E0,1.502991676E0
3.531329231E0,5.901299119E-1,-9.737292290E0,1.445564032E0
3.533837720E0,6.212365627E-1,-9.732506752E0,1.383350611E0
3.536346158E0,6.427719593E-1,-9.715757370E0,1.376172066E0
3.538854647E0,6.427719593E-1,-9.713364601E0,1.435992718E0
3.541363085E0,6.188437343E-1,-9.677472115E0,1.409671664E0
3.543871522E0,5.997011662E-1,-9.648757935E0,1.407278776E0
3.546379960E0,6.667001843E-1,-9.643972397E0,1.380957723E0
3.548887408E0,6.451647878E-1,-9.713364601E0,1.380957723E0
3.551395845E0,6.427719593E-1,-9.732506752E0,1.378564954E0
3.553904283E0,6.978068948E-1,-9.694221497E0,1.364207983E0
3.556412720E0,6.906284094E-1,-9.677472115E0,1.330409408E0
3.558921210E0,6.954140663E-1,-9.691828728E0,1.344766378E0
3.561429647E0,7.169494629E-1,-9.682257652E0,1.457528114E0
3.563938085E0,7.097710371E-1,-9.706186295E0,1.424028635E0
3.566446522E0,6.786643267E-1,-9.699007034E0,1.462313771E0
3.568955012E0,6.308078766E-1,-9.689435959E0,1.500598907E0
3.571463449E0,5.877370834E-1,-9.730113983E0,1.483849168E0
3.573971887E0,5.159524083E-1,-9.770792007E0,1.483849168E0
3.576480324E0,4.989035130E-1,-9.739685059E0,1.524527073E0
3.578997408E0,4.390829504E-1,-9.766006470E0,1.546062589E0
3.581505845E0,4.319044948E-1,-9.782755852E0,1.510170221E0
3.584014283E0,3.840480447E-1,-9.785149574E0,1.536491275E0
3.586522772E0,3.529413342E-1,-9.804291725E0,1.562812328E0
3.589031210E0,3.553341627E-1,-9.789935112E0,1.519741535E0
3.591539647E0,2.979064286E-1,-9.804291725E0,1.459920883E0
3.594048085E0,2.763710022E-1,-9.787542343E0,1.452742457E0
3.596556522E0,2.500499785E-1,-9.787542343E0,1.412064433E0
3.599065012E0,1.971087605E-1,-9.766006470E0,1.366600871E0
3.601573449E0,1.564307809E-1,-9.691828728E0,1.354636669E0
3.604081887E0,9.661021084E-2,-9.722935677E0,1.342373490E0
3.606590324E0,8.225327730E-2,-9.742077827E0,1.301695466E0
3.609113710E0,6.071787328E-2,-9.672686577E0,1.332802176E0
3.611622199E0,4.875376076E-2,-9.691828728E0,1.371386528E0
3.614130637E0,-1.824527234E-2,-9.672686577E0,1.335195065E0
3.616639074E0,-3.290131316E-2,-9.658329964E0,1.337587833E0
3.619147512E0,-2.781656384E-2,-9.648757935E0,1.325623751E0
3.621655949E0,-2.063809521E-2,-9.639186859E0,1.339980721E0
3.624164439E0,3.439682722E-2,-9.655936241E0,1.335195065E0
3.626672877E0,2.003988996E-2,-9.660722733E0,1.352243900E0
3.629181314E0,-8.673981763E-3,-9.588937759E0,1.385743380E0
3.631689752E0,-2.303091809E-2,-9.648757935E0,1.344766378E0
3.634198189E0,-2.303091809E-2,-9.660722733E0,1.397707582E0
3.636706679E0,-1.824527234E-2,-9.617651939E0,1.407278776E0
3.639201314E0,-3.020938672E-2,-9.643972397E0,1.373779297E0
3.641709752E0,-1.106680464E-2,-9.660722733E0,1.376172066E0
3.644218189E0,8.973084623E-4,-9.636794090E0,1.426421404E0
3.646726679E0,3.678964823E-2,-9.675079346E0,1.419242978E0
3.649235116E0,2.243271284E-2,-9.696614265E0,1.342373490E0
3.651743554E0,1.253240854E-1,-9.696614265E0,1.364207983E0
3.654251991E0,2.090728730E-1,-9.617651939E0,1.277767301E0
3.656760429E0,2.306082845E-1,-9.643972397E0,1.210768223E0
3.659268918E0,2.955136001E-1,-9.663115501E0,1.220339537E0
3.661777304E0,2.835494876E-1,-9.653543472E0,1.237089276E0
3.664285793E0,2.715853751E-1,-9.682257652E0,1.227517962E0
3.666794231E0,2.380858511E-1,-9.648757935E0,1.241874933E0
3.669326991E0,1.923231184E-1,-9.665508270E0,1.258624673E0
3.671835429E0,2.042872310E-1,-9.715757370E0,1.282552958E0
3.674343918E0,1.372881979E-1,-9.718150139E0,1.354636669E0
3.676852356E0,1.157527938E-1,-9.715757370E0,1.364207983E0
3.679360793E0,6.550352275E-2,-9.761220932E0,1.301695466E0
3.681869231E0,8.703892678E-2,-9.758828163E0,1.328016520E0
3.684377720E0,9.421738982E-2,-9.742077827E0,1.318445325E0
3.686886158E0,4.157529399E-2,-9.780363083E0,1.282552958E0
3.689394595E0,4.875376076E-2,-9.756435394E0,1.373779297E0
3.691903033E0,6.071787328E-2,-9.775577545E0,1.407278776E0
3.694411470E0,1.013958603E-1,-9.734899521E0,1.447956800E0
3.696919960E0,1.157527938E-1,-9.727721214E0,1.364207983E0
3.699415585E0,8.943174779E-2,-9.737292290E0,1.318445325E0
3.701924022E0,1.229312643E-1,-9.715757370E0,1.368993640E0
3.704432460E0,2.210369855E-1,-9.713364601E0,1.368993640E0
3.706940949E0,2.667997181E-1,-9.699007034E0,1.325623751E0
3.709449387E0,2.210369855E-1,-9.718150139E0,1.301695466E0
3.711957824E0,2.620140910E-1,-9.687043190E0,1.311266780E0
3.714466262E0,3.457628787E-1,-9.682257652E0,1.357029557E0
3.716974699E0,3.816552162E-1,-9.658329964E0,1.366600871E0
3.719483189E0,3.505485058E-1,-9.636794090E0,1.390529037E0
3.721991627E0,3.768695593E-1,-9.651150703E0,1.412064433E0
3.724500064E0,3.553341627E-1,-9.689435959E0,1.397707582E0
3.727008502E0,3.242274821E-1,-9.725328445E0,1.416850090E0
3.729519595E0,3.601198196E-1,-9.720542908E0,1.435992718E0
3.732028033E0,3.601198196E-1,-9.739685059E0,1.435992718E0
3.734536470E0,4.007977843E-1,-9.768399239E0,1.462313771E0
3.737044908E0,3.792623878E-1,-9.777970314E0,1.459920883E0
3.739553397E0,4.103690982E-1,-9.749257088E0,1.498206019E0
3.742061835E0,4.031906128E-1,-9.775577545E0,1.510170221E0
3.744570272E0,3.936193287E-1,-9.799506187E0,1.512562990E0
3.747078710E0,4.366901219E-1,-9.787542343E0,1.479063511E0
3.749587199E0,4.271188378E-1,-9.780363083E0,1.483849168E0
3.752095637E0,4.319044948E-1,-9.785149574E0,1.452742457E0
3.754604074E0,4.821537733E-1,-9.785149574E0,1.469492197E0
3.757112512E0,5.135595798E-1,-9.792327881E0,1.438385487E0
3.759631158E0,4.654040039E-1,-9.744471550E0,1.433599830E0
3.762139595E0,4.606183469E-1,-9.739685059E0,1.412064433E0
3.764648033E0,4.893322289E-1,-9.744471550E0,1.464706540E0
3.767156522E0,4.414757788E-1,-9.744471550E0,1.435992718E0
3.769664960E0,4.103690982E-1,-9.722935677E0,1.435992718E0
3.772173397E0,4.127618968E-1,-9.734899521E0,1.507777333E0
3.774681835E0,4.007977843E-1,-9.730113983E0,1.476670623E0
3.777190272E0,4.414757788E-1,-9.710971832E0,1.438385487E0
3.779698762E0,4.486542344E-1,-9.684650421E0,1.476670623E0
3.782207199E0,4.055834413E-1,-9.689435959E0,1.510170221E0
3.784715637E0,4.055834413E-1,-9.706186295E0,1.507777333E0
3.787224074E0,4.630111754E-1,-9.682257652E0,1.488634825E0
3.789736262E0,4.342973232E-1,-9.699007034E0,1.488634825E0
3.792244699E0,5.087739229E-1,-9.624830246E0,1.493420482E0
3.794753137E0,5.446662307E-1,-9.593723297E0,1.483849168E0
3.797261627E0,5.350949764E-1,-9.593723297E0,1.395314693E0
3.799770064E0,5.518447161E-1,-9.552745819E0,1.421635747E0
3.802278502E0,5.566303730E-1,-9.588937759E0,1.376172066E0
3.804786939E0,5.925226808E-1,-9.545567513E0,1.373779297E0
3.807295377E0,5.566303730E-1,-9.504889488E0,1.311266780E0
3.809803866E0,5.518447161E-1,-9.500103951E0,1.289731383E0
3.812312304E0,5.327021480E-1,-9.514460564E0,1.332802176E0
3.814820741E0,5.231308341E-1,-9.579067230E0,1.376172066E0
3.817329179E0,4.869394004E-1,-9.571888924E0,1.402493119E0
3.819841522E0,4.630111754E-1,-9.569496155E0,1.388136268E0
3.822349960E0,4.630111754E-1,-9.629615784E0,1.400100350E0
3.824858397E0,4.654040039E-1,-9.665508270E0,1.385743380E0
3.827366887E0,4.558327198E-1,-9.675079346E0,1.416850090E0
3.829875324E0,4.534398913E-1,-9.696614265E0,1.388136268E0
3.832383762E0,4.845465720E-1,-9.766006470E0,1.438385487E0
3.834892199E0,4.390829504E-1,-9.775577545E0,1.438385487E0
3.837400637E0,4.869394004E-1,-9.746864319E0,1.467099428E0
3.839909127E0,4.749752879E-1,-9.763613701E0,1.440778375E0
3.842417564E0,4.869394004E-1,-9.777970314E0,1.414457321E0
3.844926002E0,4.989035130E-1,-9.794720650E0,1.400100350E0
3.847434439E0,5.060819983E-1,-9.813862801E0,1.407278776E0
3.849949439E0,4.630111754E-1,-9.854840279E0,1.366600871E0
3.852457877E0,4.486542344E-1,-9.801898956E0,1.361815214E0
3.854966314E0,4.199403822E-1,-9.787542343E0,1.268195987E0
3.857474804E0,4.127618968E-1,-9.811470032E0,1.328016520E0
3.859983241E0,3.768695593E-1,-9.794720650E0,1.320838094E0
3.862491679E0,3.768695593E-1,-9.744471550E0,1.265803218E0
3.865000116E0,3.720839322E-1,-9.763613701E0,1.256231904E0
3.867508554E0,3.266202807E-1,-9.777970314E0,1.301695466E0
3.870017043E0,2.859423161E-1,-9.749257088E0,1.316052437E0
3.872525481E0,3.840480447E-1,-9.746864319E0,1.287338614E0
3.875033918E0,3.242274821E-1,-9.687043190E0,1.275374413E0
3.877542356E0,3.170489967E-1,-9.687043190E0,1.251446247E0
3.880052720E0,3.314059377E-1,-9.677472115E0,1.222732425E0
3.882561158E0,2.500499785E-1,-9.677472115E0,1.244267821E0
3.885069595E0,2.210369855E-1,-9.660722733E0,1.256231904E0
3.887578085E0,2.114657015E-1,-9.641579628E0,1.349551916E0
3.890086522E0,2.428714931E-1,-9.672686577E0,1.256231904E0
3.892594960E0,2.138585299E-1,-9.648757935E0,1.160519004E0
3.895103397E0,1.851446480E-1,-9.658329964E0,1.158126116E0
3.897611835E0,2.428714931E-1,-9.658329964E0,1.215553880E0
3.900120272E0,2.404786795E-1,-9.643972397E0,1.179661512E0
3.902628762E0,2.210369855E-1,-9.655936241E0,1.201196909E0
3.905137199E0,1.995015889E-1,-9.675079346E0,1.306481123E0
3.907645637E0,2.404786795E-1,-9.687043190E0,1.301695466E0
3.910158710E0,2.428714931E-1,-9.670293808E0,1.265803218E0
3.912667147E0,2.452643216E-1,-9.694221497E0,1.378564954E0
3.915175585E0,3.026920557E-1,-9.708579063E0,1.388136268E0
3.917684074E0,2.931207716E-1,-9.758828163E0,1.366600871E0
3.920192460E0,3.170489967E-1,-9.751649857E0,1.339980721E0
3.922700949E0,3.744767308E-1,-9.792327881E0,1.344766378E0
3.925209387E0,4.151547253E-1,-9.770792007E0,1.311266780E0
3.927717824E0,4.630111754E-1,-9.785149574E0,1.347159147E0
3.930226314E0,4.654040039E-1,-9.828220367E0,1.347159147E0
3.932734752E0,4.965106845E-1,-9.818648338E0,1.383350611E0
3.935243189E0,4.677968323E-1,-9.821041107E0,1.347159147E0
3.937751627E0,4.462614357E-1,-9.789935112E0,1.339980721E0
3.940264074E0,5.422734022E-1,-9.773184776E0,1.339980721E0
3.942772512E0,5.231308341E-1,-9.789935112E0,1.342373490E0
3.945280949E0,4.989035130E-1,-9.777970314E0,1.289731383E0
3.947789439E0,5.470590591E-1,-9.727721214E0,1.313659668E0
3.950297877E0,5.183451772E-1,-9.758828163E0,1.361815214E0
3.952806314E0,4.630111754E-1,-9.746864319E0,1.330409408E0
3.955314752E0,4.654040039E-1,-9.718150139E0,1.311266780E0
3.957823189E0,3.744767308E-1,-9.720542908E0,1.328016520E0
3.960331679E0,3.409772217E-1,-9.768399239E0,1.301695466E0
3.962840116E0,3.098705411E-1,-9.722935677E0,1.320838094E0
3.965348554E0,2.620140910E-1,-9.720542908E0,1.275374413E0
3.967856991E0,2.739782035E-1,-9.713364601E0,1.287338614E0
3.970369908E0,2.500499785E-1,-9.684650421E0,1.244267821E0
3.972878345E0,2.548356056E-1,-9.703793526E0,1.241874933E0
3.975386783E0,3.218346536E-1,-9.715757370E0,1.256231904E0
3.977895272E0,3.026920557E-1,-9.708579063E0,1.344766378E0
3.980403710E0,2.691925466E-1,-9.687043190E0,1.344766378E0
3.982912147E0,2.620140910E-1,-9.708579063E0,1.347159147E0
3.985420585E0,2.644068897E-1,-9.732506752E0,1.318445325E0
3.987929022E0,2.907279432E-1,-9.703793526E0,1.282552958E0
3.990437512E0,2.380858511E-1,-9.710971832E0,1.357029557E0
3.992945949E0,2.330010980E-1,-9.713364601E0,1.323230863E0
3.995454387E0,3.266202807E-1,-9.706186295E0,1.354636669E0
3.997962824E0,2.353939265E-1,-9.687043190E0,1.306481123E0
4.000470793E0,2.763710022E-1,-9.703793526E0,1.354636669E0
4.002979231E0,3.290131092E-1,-9.720542908E0,1.323230863E0
4.005487668E0,3.290131092E-1,-9.696614265E0,1.318445325E0
4.007996158E0,2.907279432E-1,-9.687043190E0,1.308874011E0
4.010504595E0,2.811566591E-1,-9.667901039E0,1.354636669E0
4.013013033E0,2.715853751E-1,-9.639186859E0,1.328016520E0
4.015521470E0,3.098705411E-1,-9.608079910E0,1.352243900E0
4.018029908E0,3.625126183E-1,-9.655936241E0,1.347159147E0
4.020538397E0,3.792623878E-1,-9.648757935E0,1.328016520E0
4.023046835E0,3.385843933E-1,-9.612865448E0,1.292124271E0
4.025555272E0,3.840480447E-1,-9.639186859E0,1.292124271E0
4.028063710E0,3.816552162E-1,-9.617651939E0,1.323230863E0
4.030574856E0,3.984049559E-1,-9.632008553E0,1.277767301E0
4.033083345E0,3.505485058E-1,-9.679864883E0,1.237089276E0
4.035591783E0,3.912265003E-1,-9.658329964E0,1.304088354E0
4.038100220E0,4.127618968E-1,-9.694221497E0,1.275374413E0
4.040608658E0,4.438686073E-1,-9.737292290E0,1.277767301E0
4.043117095E0,4.582255483E-1,-9.739685059E0,1.249053478E0
4.045625585E0,4.989035130E-1,-9.782755852E0,1.272981644E0
4.048134022E0,5.159524083E-1,-9.794720650E0,1.328016520E0
4.050642460E0,5.207380056E-1,-9.801898956E0,1.277767301E0
4.053150897E0,5.327021480E-1,-9.828220367E0,1.306481123E0
4.055659335E0,5.255236626E-1,-9.847362518E0,1.313659668E0
4.058167824E0,5.566303730E-1,-9.825826645E0,1.335195065E0
4.060684752E0,4.821537733E-1,-9.830613136E0,1.376172066E0
4.063193189E0,4.534398913E-1,-9.823433876E0,1.320838094E0
4.065701627E0,4.295116663E-1,-9.813862801E0,1.268195987E0
4.068210116E0,3.816552162E-1,-9.792327881E0,1.256231904E0
4.070718554E0,3.672982752E-1,-9.789935112E0,1.263410330E0
4.073226991E0,4.031906128E-1,-9.789935112E0,1.237089276E0
4.075735429E0,3.433700502E-1,-9.794720650E0,1.249053478E0
4.078243866E0,3.002992272E-1,-9.787542343E0,1.258624673E0
4.080752304E0,2.667997181E-1,-9.775577545E0,1.323230863E0
4.083260793E0,2.691925466E-1,-9.761220932E0,1.361815214E0
4.085769231E0,2.428714931E-1,-9.720542908E0,1.335195065E0
4.088277668E0,2.644068897E-1,-9.754042625E0,1.270588875E0
4.090791158E0,2.524427772E-1,-9.751649857E0,1.354636669E0
4.093299595E0,2.018944174E-1,-9.739685059E0,1.332802176E0
4.095808033E0,2.234298140E-1,-9.758828163E0,1.308874011E0
4.098316522E0,1.899302900E-1,-9.789935112E0,1.364207983E0
4.100824960E0,1.995015889E-1,-9.756435394E0,1.371386528E0
4.103333397E0,2.282154560E-1,-9.742077827E0,1.397707582E0
4.105841835E0,2.404786795E-1,-9.749257088E0,1.450349569E0
4.108350272E0,2.524427772E-1,-9.732506752E0,1.479063511E0
4.110858762E0,2.979064286E-1,-9.766006470E0,1.385743380E0
4.113367199E0,3.457628787E-1,-9.732506752E0,1.395314693E0
4.115875637E0,3.792623878E-1,-9.734899521E0,1.373779297E0
4.118384074E0,3.505485058E-1,-9.751649857E0,1.311266780E0
4.120896939E0,3.672982752E-1,-9.730113983E0,1.313659668E0
4.123405689E0,4.127618968E-1,-9.715757370E0,1.335195065E0
4.125914439E0,4.127618968E-1,-9.710971832E0,1.316052437E0
4.128423137E0,3.577269912E-1,-9.727721214E0,1.332802176E0
4.130931887E0,4.103690982E-1,-9.725328445E0,1.308874011E0
4.133440585E0,3.912265003E-1,-9.696614265E0,1.270588875E0
4.135949335E0,3.553341627E-1,-9.706186295E0,1.304088354E0
4.138458033E0,3.050848842E-1,-9.715757370E0,1.316052437E0
4.140966783E0,3.002992272E-1,-9.684650421E0,1.258624673E0
4.143475533E0,2.596212626E-1,-9.742077827E0,1.284945726E0
4.145984283E0,2.452643216E-1,-9.694221497E0,1.287338614E0
4.148492981E0,2.114657015E-1,-9.689435959E0,1.342373490E0
4.150998606E0,1.564307809E-1,-9.730113983E0,1.339980721E0
4.153507356E0,1.468594968E-1,-9.732506752E0,1.354636669E0
4.156016054E0,1.947159469E-1,-9.715757370E0,1.325623751E0
4.158524804E0,2.114657015E-1,-9.730113983E0,1.275374413E0
4.161033554E0,1.253240854E-1,-9.756435394E0,1.282552958E0
4.163542252E0,1.540379524E-1,-9.751649857E0,1.222732425E0
4.166051002E0,1.037886813E-1,-9.751649857E0,1.249053478E0
4.168559699E0,8.703892678E-2,-9.780363083E0,1.225125194E0
4.171068449E0,1.516451389E-1,-9.758828163E0,1.165304661E0
4.173577199E0,1.181456149E-1,-9.809077263E0,1.203589797E0
4.176085897E0,7.986045629E-2,-9.833005905E0,1.241874933E0
4.178594647E0,1.037886813E-1,-9.833005905E0,1.275374413E0
4.181096158E0,8.464609832E-2,-9.835398674E0,1.241874933E0
4.183604856E0,5.353940651E-2,-9.789935112E0,1.251446247E0
4.186113606E0,3.439682722E-2,-9.794720650E0,1.275374413E0
4.188622356E0,5.593222752E-2,-9.849755287E0,1.325623751E0
4.191131106E0,2.003988996E-2,-9.847362518E0,1.249053478E0
4.193639804E0,6.071787328E-2,-9.835398674E0,1.246660590E0
4.196148502E0,2.243271284E-2,-9.844969749E0,1.189232826E0
4.198657252E0,8.075776510E-3,-9.847362518E0,1.162911773E0
4.201166002E0,-3.888336709E-3,-9.794720650E0,1.112662554E0
4.203674699E0,2.243271284E-2,-9.809077263E0,1.103091240E0
4.206183449E0,5.832505226E-2,-9.842576981E0,1.026221752E0
4.208692199E0,3.439682722E-2,-9.825826645E0,1.028614640E0
4.211209699E0,5.593222752E-2,-9.804291725E0,1.021436214E0
4.213718449E0,-6.281159353E-3,-9.797113419E0,1.042971611E0
4.216227147E0,1.525424421E-2,-9.787542343E0,1.103091240E0
4.218735897E0,5.682953633E-3,-9.823433876E0,1.098305583E0
4.221244647E0,3.200400248E-2,-9.789935112E0,1.131805062E0
4.223753345E0,5.353940651E-2,-9.787542343E0,1.158126116E0
4.226262095E0,3.678964823E-2,-9.766006470E0,1.127019525E0
4.228770793E0,7.028916478E-2,-9.720542908E0,1.098305583E0
4.231279543E0,9.182456881E-2,-9.691828728E0,1.023828983E0
4.233788293E0,1.013958603E-1,-9.679864883E0,1.028614640E0
4.236296991E0,1.277169138E-1,-9.665508270E0,9.664012194E-1
4.238805741E0,1.037886813E-1,-9.677472115E0,9.352945685E-1
4.241319960E0,7.507480681E-2,-9.648757935E0,8.587242365E-1
4.243828710E0,8.943174779E-2,-9.646365166E0,9.065806866E-1
4.246337408E0,2.961117961E-2,-9.660722733E0,8.730811477E-1
4.248846158E0,4.157529399E-2,-9.725328445E0,8.754739761E-1
4.251354908E0,1.286142133E-2,-9.725328445E0,9.281160831E-1
4.253863606E0,-1.585244946E-2,-9.730113983E0,9.257232547E-1
4.256372356E0,-4.486542568E-2,-9.787542343E0,8.946165442E-1
4.258881106E0,-5.682953820E-2,-9.794720650E0,8.826524615E-1
4.261389804E0,-7.357929647E-2,-9.799506187E0,9.113663435E-1
4.263898554E0,-7.597211748E-2,-9.823433876E0,8.682954907E-1
4.266407252E0,-7.597211748E-2,-9.852447510E0,8.826524615E-1
4.268916002E0,-8.554340899E-2,-9.821041107E0,8.754739761E-1
4.271422408E0,-8.554340899E-2,-9.816255569E0,9.161519408E-1
4.273931158E0,-3.529413417E-2,-9.789935112E0,9.233304262E-1
4.276439856E0,-1.585244946E-2,-9.794720650E0,9.017950296E-1
4.278948606E0,5.682953633E-3,-9.792327881E0,8.946165442E-1
4.281457356E0,1.286142133E-2,-9.797113419E0,9.185447693E-1
4.283966054E0,2.003988996E-2,-9.823433876E0,9.209375978E-1
4.286474804E0,4.875376076E-2,-9.835398674E0,9.592227936E-1
4.288983502E0,4.396811500E-2,-9.871589661E0,1.002293587E0
4.291492252E0,8.464609832E-2,-9.840184212E0,1.004686356E0
4.294001002E0,1.348953694E-1,-9.837791443E0,1.023828983E0
4.296509699E0,1.277169138E-1,-9.866804123E0,1.042971611E0
4.299018449E0,5.353940651E-2,-9.878767967E0,1.100698471E0
4.301527720E0,8.943174779E-2,-9.890732765E0,1.122233868E0
4.304036470E0,7.028916478E-2,-9.929018021E0,1.100698471E0
4.306545220E0,6.789634377E-2,-9.991230965E0,1.136590719E0
4.309053918E0,7.986045629E-2,-9.988838196E0,1.078863859E0
4.311562668E0,1.181456149E-1,-1.001755238E1,1.117448211E0
4.314071366E0,1.564307809E-1,-1.008215809E1,1.086341500E0
4.316580116E0,1.707877219E-1,-1.003190899E1,1.045364380E0
4.319088814E0,1.971087605E-1,-1.002473068E1,9.664012194E-1
4.321597564E0,1.707877219E-1,-1.000558758E1,9.879366755E-1
4.324106314E0,2.186441720E-1,-9.986445427E0,9.472586513E-1
4.326615064E0,2.524427772E-1,-9.952945709E0,9.209375978E-1
4.329123762E0,2.715853751E-1,-9.948160172E0,9.329017401E-1
4.331635897E0,2.835494876E-1,-9.957731247E0,9.281160831E-1
4.334144647E0,2.282154560E-1,-9.936196327E0,9.137591720E-1
4.336653397E0,2.066800594E-1,-9.917053223E0,9.041878581E-1
4.339162095E0,2.234298140E-1,-9.902696609E0,9.209375978E-1
4.341670845E0,1.372881979E-1,-9.895518303E0,9.065806866E-1
4.344179543E0,1.205384433E-1,-9.852447510E0,8.347960114E-1
4.346688293E0,1.540379524E-1,-9.888339996E0,8.300103545E-1
4.349196991E0,1.851446480E-1,-9.804291725E0,8.539385796E-1
4.351705741E0,1.348953694E-1,-9.792327881E0,8.730811477E-1
4.354214491E0,7.028916478E-2,-9.799506187E0,9.161519408E-1
4.356723189E0,6.311069429E-2,-9.816255569E0,9.424729943E-1
4.359231939E0,1.061815023E-1,-9.766006470E0,9.687940478E-1
4.361742304E0,1.396810263E-1,-9.746864319E0,1.047757268E0
4.364251054E0,1.564307809E-1,-9.737292290E0,9.472586513E-1
4.366759752E0,1.420738399E-1,-9.725328445E0,9.687940478E-1
4.369268502E0,1.707877219E-1,-9.718150139E0,9.735797048E-1
4.371777252E0,1.612164229E-1,-9.715757370E0,9.903294444E-1
4.374285949E0,2.018944174E-1,-9.696614265E0,9.640084505E-1
4.376794699E0,2.162513435E-1,-9.732506752E0,9.975079298E-1
4.379303397E0,2.380858511E-1,-9.720542908E0,1.009472013E0
4.381812147E0,2.234298140E-1,-9.715757370E0,1.021436214E0
4.384320897E0,2.066800594E-1,-9.756435394E0,1.035793066E0
4.386829647E0,2.353939265E-1,-9.763613701E0,1.007079244E0
4.389338345E0,2.548356056E-1,-9.789935112E0,1.021436214E0
4.391828710E0,2.979064286E-1,-9.813862801E0,1.066899776E0
4.394337408E0,2.452643216E-1,-9.852447510E0,1.033400297E0
4.396846158E0,3.553341627E-1,-9.871589661E0,9.975079298E-1
4.399354908E0,3.146561682E-1,-9.866804123E0,1.076471090E0
4.401863606E0,3.170489967E-1,-9.917053223E0,1.019043326E0
4.404372408E0,3.720839322E-1,-9.919445992E0,9.951151013E-1
4.406881106E0,4.223332107E-1,-9.929018021E0,1.014257669E0
4.409389804E0,4.079762697E-1,-9.940981865E0,1.014257669E0
4.411898554E0,3.649054468E-1,-9.938589096E0,1.071685433E0
4.414407252E0,4.486542344E-1,-9.917053223E0,1.081256747E0
4.416916002E0,4.845465720E-1,-9.909874916E0,1.035793066E0
4.419424752E0,5.111667514E-1,-9.945767403E0,1.057328463E0
4.421968085E0,5.374878049E-1,-9.960124016E0,1.047757268E0
4.424476835E0,5.853442550E-1,-9.869196892E0,1.004686356E0
4.426985533E0,6.355935335E-1,-9.801898956E0,9.640084505E-1
4.429494283E0,5.949155092E-1,-9.785149574E0,1.035793066E0
4.432003033E0,5.949155092E-1,-9.730113983E0,1.062114120E0
4.434511783E0,5.997011662E-1,-9.675079346E0,1.014257669E0
4.437020481E0,5.303093195E-1,-9.655936241E0,9.664012194E-1
4.439529179E0,5.279164910E-1,-9.691828728E0,9.711868763E-1
4.442037929E0,4.390829504E-1,-9.615258217E0,9.855438471E-1
4.444546679E0,4.438686073E-1,-9.608079910E0,9.616156220E-1
4.447055377E0,4.510470629E-1,-9.632008553E0,9.711868763E-1
4.449564127E0,4.342973232E-1,-9.624830246E0,9.783653617E-1
4.452045481E0,4.486542344E-1,-9.639186859E0,9.664012194E-1
4.454554179E0,4.486542344E-1,-9.643972397E0,1.054935694E0
4.457062929E0,4.079762697E-1,-9.699007034E0,1.076471090E0
4.459571627E0,4.271188378E-1,-9.722935677E0,1.088734269E0
4.462080377E0,4.271188378E-1,-9.746864319E0,1.138983607E0
4.464589127E0,4.462614357E-1,-9.722935677E0,1.131805062E0
4.467097824E0,4.725824594E-1,-9.739685059E0,1.059721351E0
4.469606574E0,5.327021480E-1,-9.720542908E0,1.054935694E0
4.472115324E0,5.877370834E-1,-9.792327881E0,1.054935694E0
4.474624074E0,5.973083377E-1,-9.833005905E0,9.951151013E-1
4.477132772E0,6.643074155E-1,-9.828220367E0,1.011864901E0
4.479641470E0,6.978068948E-1,-9.828220367E0,9.759725332E-1
4.482178814E0,7.336992621E-1,-9.852447510E0,9.017950296E-1
4.484687564E0,7.097710371E-1,-9.842576981E0,9.305089116E-1
4.487196314E0,6.834499836E-1,-9.809077263E0,9.568299651E-1
4.489705012E0,7.073782086E-1,-9.794720650E0,8.587242365E-1
4.492213762E0,7.097710371E-1,-9.828220367E0,8.443672657E-1
4.494722460E0,6.810571551E-1,-9.859625816E0,9.041878581E-1
4.497231210E0,7.121638656E-1,-9.828220367E0,9.496514797E-1
4.499739908E0,7.480561733E-1,-9.862018585E0,8.898309469E-1
4.502248710E0,7.432705164E-1,-9.873982430E0,9.161519408E-1
4.504757408E0,7.480561733E-1,-9.821041107E0,9.305089116E-1
4.507266106E0,7.336992621E-1,-9.780363083E0,9.137591720E-1
4.509774856E0,7.169494629E-1,-9.789935112E0,8.635098934E-1
4.512273502E0,7.097710371E-1,-9.811470032E0,8.635098934E-1
4.514782252E0,6.427719593E-1,-9.768399239E0,8.491529226E-1
4.517290949E0,5.853442550E-1,-9.775577545E0,8.826524615E-1
4.519799647E0,5.398806334E-1,-9.746864319E0,8.682954907E-1
4.522308449E0,4.654040039E-1,-9.715757370E0,8.970093727E-1
4.524817147E0,4.295116663E-1,-9.725328445E0,9.161519408E-1
4.527325845E0,3.672982752E-1,-9.651150703E0,9.185447693E-1
4.529834595E0,2.763710022E-1,-9.691828728E0,9.185447693E-1
4.532343345E0,2.042872310E-1,-9.675079346E0,8.994022012E-1
4.534852043E0,1.181456149E-1,-9.624830246E0,9.089735150E-1
4.537360793E0,7.028916478E-2,-9.605687141E0,9.544371367E-1
4.539869491E0,-1.345962752E-2,-9.600901604E0,9.472586513E-1
4.542376887E0,-2.063809521E-2,-9.579067230E0,9.113663435E-1
4.544885637E0,-8.315058798E-2,-9.624830246E0,9.568299651E-1
4.547394335E0,-1.573280841E-1,-9.603294373E0,9.329017401E-1
4.549903085E0,-1.980060786E-1,-9.598508835E0,9.257232547E-1
4.552411835E0,-2.315055877E-1,-9.617651939E0,9.496514797E-1
4.554920533E0,-2.482553422E-1,-9.615258217E0,8.994022012E-1
4.557429283E0,-2.793620527E-1,-9.629615784E0,8.180462122E-1
4.559937981E0,-2.626122832E-1,-9.682257652E0,8.467600942E-1
4.562446731E0,-2.985046208E-1,-9.706186295E0,8.802596331E-1
4.564955481E0,-2.841476798E-1,-9.715757370E0,8.659027219E-1
4.567464179E0,-3.131606579E-1,-9.785149574E0,8.730811477E-1
4.569972929E0,-3.370888829E-1,-9.806684494E0,9.089735150E-1
4.572477199E0,-3.466601670E-1,-9.844969749E0,8.970093727E-1
4.574985949E0,-3.466601670E-1,-9.844969749E0,8.778668046E-1
4.577494647E0,-4.136592150E-1,-9.857233047E0,8.611170650E-1
4.580003397E0,-4.519443810E-1,-9.897911072E0,9.257232547E-1
4.582512147E0,-4.495515525E-1,-9.917053223E0,8.347960114E-1
4.585020845E0,-4.304089844E-1,-9.957731247E0,7.986045480E-1
4.587529595E0,-4.471587241E-1,-9.945767403E0,8.156534433E-1
4.590038293E0,-4.830510616E-1,-9.950552940E0,7.818548083E-1
4.592547043E0,-4.806582630E-1,-9.974481583E0,7.722834945E-1
4.595055793E0,-4.950151742E-1,-9.972088814E0,6.885347366E-1
4.597564491E0,-5.524429083E-1,-9.976874352E0,7.028916478E-1
4.600073241E0,-6.388836503E-1,-1.000319481E1,6.406782866E-1
4.602585168E0,-6.771687865E-1,-9.996016502E0,6.622136831E-1
4.605093918E0,-7.082754970E-1,-1.000080204E1,7.076773047E-1
4.607602616E0,-7.082754970E-1,-9.945767403E0,6.861419082E-1
4.610111366E0,-7.250252366E-1,-9.909874916E0,6.957131624E-1
4.612620116E0,-7.585247755E-1,-9.862018585E0,6.885347366E-1
4.615128814E0,-7.657032609E-1,-9.842576981E0,7.124629617E-1
4.617637564E0,-7.896314859E-1,-9.787542343E0,7.220342159E-1
4.620146262E0,-8.207381964E-1,-9.713364601E0,7.651050687E-1
4.622655012E0,-8.327022791E-1,-9.675079346E0,7.483552694E-1
4.625163762E0,-9.095717072E-1,-9.617651939E0,8.009973764E-1
4.627672460E0,-9.454640746E-1,-9.524032593E0,7.579265833E-1
4.630181210E0,-9.263214469E-1,-9.524032593E0,7.698906660E-1
4.632682147E0,-9.478568435E-1,-9.521639824E0,8.539385796E-1
4.635190845E0,-9.837492108E-1,-9.502496719E0,9.209375978E-1
4.637699595E0,-1.026820064E0,-9.504889488E0,8.874381185E-1
4.640208293E0,-1.019641519E0,-9.447462082E0,8.371888399E-1
4.642717043E0,-1.033998489E0,-9.500103951E0,8.057830334E-1
4.645225793E0,-1.033998489E0,-9.540781975E0,8.252246976E-1
4.647734491E0,-9.837492108E-1,-9.543174744E0,8.252246976E-1
4.650243241E0,-9.047860503E-1,-9.569496155E0,8.395816684E-1
4.652751939E0,-9.000003934E-1,-9.622437477E0,8.276175261E-1
4.655260741E0,-8.449655175E-1,-9.687043190E0,8.467600942E-1
4.657769439E0,-8.111668825E-1,-9.725328445E0,8.587242365E-1
4.660278137E0,-7.585247755E-1,-9.799506187E0,8.081758618E-1
4.662797824E0,-7.561319470E-1,-9.873982430E0,8.180462122E-1
4.665306522E0,-7.106683254E-1,-9.900303841E0,8.105686903E-1
4.667815324E0,-6.580262184E-1,-9.890732765E0,8.300103545E-1
4.670324022E0,-6.532405615E-1,-1.000319481E1,8.156534433E-1
4.672832772E0,-6.580262184E-1,-1.008215809E1,8.204390407E-1
4.675341470E0,-6.412764788E-1,-1.010369396E1,8.802596331E-1
4.677850220E0,-6.173482537E-1,-1.014227772E1,8.587242365E-1
4.680358918E0,-6.029912829E-1,-1.015663528E1,8.539385796E-1
4.682867720E0,-6.029912829E-1,-1.014706326E1,8.587242365E-1
4.685376418E0,-5.572285652E-1,-1.013509941E1,8.491529226E-1
4.687885116E0,-5.766702294E-1,-1.014706326E1,8.009973764E-1
4.690393866E0,-5.644070506E-1,-1.011326504E1,7.962117195E-1
4.692900220E0,-5.404788256E-1,-1.005344391E1,8.081758618E-1
4.695408970E0,-5.141577721E-1,-1.001755238E1,7.962117195E-1
4.697917668E0,-5.165506005E-1,-9.979267120E0,7.986045480E-1
4.700426418E0,-5.428716540E-1,-9.940981865E0,8.009973764E-1
4.702935168E0,-5.117649436E-1,-9.869196892E0,7.674978375E-1
4.705443866E0,-4.806582630E-1,-9.893125534E0,8.081758618E-1
4.707952616E0,-4.854438901E-1,-9.809077263E0,7.818548083E-1
4.710461314E0,-4.639084935E-1,-9.799506187E0,7.411768436E-1
4.712970064E0,-4.543372095E-1,-9.797113419E0,8.081758618E-1
4.715478814E0,-4.375874400E-1,-9.775577545E0,8.156534433E-1
4.717987512E0,-4.208376706E-1,-9.792327881E0,7.746763229E-1
4.720496262E0,-4.088735580E-1,-9.797113419E0,8.371888399E-1
4.723010741E0,-3.107678294E-1,-9.761220932E0,8.802596331E-1
4.725519491E0,-3.155534863E-1,-9.744471550E0,8.009973764E-1
4.728028189E0,-3.008974493E-1,-9.777970314E0,8.324031830E-1
4.730536939E0,-2.626122832E-1,-9.754042625E0,8.419744968E-1
4.733045689E0,-2.386840582E-1,-9.725328445E0,7.938188910E-1
4.735554387E0,-2.434697002E-1,-9.682257652E0,7.986045480E-1
4.738063137E0,-2.243271172E-1,-9.725328445E0,8.081758618E-1
4.740571835E0,-1.980060786E-1,-9.749257088E0,7.962117195E-1
4.743080585E0,-1.884347796E-1,-9.682257652E0,8.276175261E-1
4.745589335E0,-1.405783296E-1,-9.667901039E0,7.818548083E-1
4.748098085E0,-1.501496136E-1,-9.722935677E0,8.081758618E-1
4.750606783E0,-1.692921966E-1,-9.710971832E0,8.228318691E-1
4.753115689E0,-1.477568001E-1,-9.684650421E0,8.994022012E-1
4.755624439E0,-1.190429255E-1,-9.720542908E0,8.515457511E-1
4.758133137E0,-1.381855011E-1,-9.732506752E0,8.874381185E-1
4.760641887E0,-1.310070455E-1,-9.787542343E0,9.616156220E-1
4.763150637E0,-6.879365444E-2,-9.806684494E0,9.065806866E-1
4.765659387E0,-7.836493850E-2,-9.835398674E0,9.711868763E-1
4.768168085E0,-2.781656384E-2,-9.857233047E0,1.009472013E0
4.770676783E0,-8.673981763E-3,-9.844969749E0,9.711868763E-1
4.773185533E0,-5.443671346E-2,-9.782755852E0,9.257232547E-1
4.775694283E0,-1.345962752E-2,-9.873982430E0,9.855438471E-1
4.778202981E0,1.731805354E-1,-9.907482147E0,1.107876897E0
4.780711731E0,1.923231184E-1,-9.869196892E0,1.083948612E0
4.783219752E0,1.492523104E-1,-9.847362518E0,9.855438471E-1
4.785728502E0,1.564307809E-1,-9.878767967E0,9.472586513E-1
4.788237199E0,1.588236094E-1,-9.895518303E0,9.879366755E-1
4.790745949E0,1.277169138E-1,-9.914660454E0,9.927222729E-1
4.793254699E0,1.157527938E-1,-9.909874916E0,9.592227936E-1
4.795763397E0,1.181456149E-1,-9.900303841E0,9.759725332E-1
4.798272147E0,1.205384433E-1,-9.907482147E0,1.009472013E0
4.800780845E0,6.789634377E-2,-9.897911072E0,9.927222729E-1
4.803289595E0,1.181456149E-1,-9.902696609E0,9.855438471E-1
4.805798345E0,9.900303930E-2,-9.881160736E0,9.927222729E-1
4.808307043E0,1.372881979E-1,-9.912267685E0,9.879366755E-1
4.810815793E0,9.900303930E-2,-9.914660454E0,9.664012194E-1
4.813321158E0,8.943174779E-2,-9.902696609E0,9.735797048E-1
4.815829908E0,1.253240854E-1,-9.917053223E0,1.014257669E0
4.818338606E0,1.372881979E-1,-9.950552940E0,1.040578723E0
4.820847356E0,1.205384433E-1,-9.905089378E0,9.472586513E-1
4.823356106E0,1.277169138E-1,-9.897911072E0,9.711868763E-1
4.825864856E0,1.468594968E-1,-9.895518303E0,9.783653617E-1
4.828373554E0,1.540379524E-1,-9.873982430E0,9.257232547E-1
4.830882252E0,9.900303930E-2,-9.864411354E0,9.735797048E-1
4.833391002E0,5.832505226E-2,-9.821041107E0,9.687940478E-1
4.835899752E0,7.986045629E-2,-9.789935112E0,1.021436214E0
4.838408449E0,-2.781656384E-2,-9.727721214E0,9.520443082E-1
4.840917199E0,-1.286142170E-1,-9.655936241E0,8.180462122E-1
4.843431627E0,2.482553571E-2,-9.768399239E0,1.011864901E0
4.845940377E0,5.114658549E-2,-9.761220932E0,1.086341500E0
4.848449074E0,2.243271284E-2,-9.679864883E0,1.042971611E0
4.850957824E0,-4.965107143E-2,-9.571888924E0,9.735797048E-1
4.853466574E0,-1.022931710E-1,-9.571888924E0,8.898309469E-1
4.855975272E0,-1.070788130E-1,-9.574281693E0,9.999007583E-1
4.858484022E0,-1.022931710E-1,-9.516854286E0,9.400802255E-1
4.860992720E0,-1.716850251E-1,-9.464211464E0,9.113663435E-1
4.863501470E0,-2.362912297E-1,-9.442676544E0,9.711868763E-1
4.866010220E0,-2.099701911E-1,-9.476176262E0,9.209375978E-1
4.868518918E0,-2.027917206E-1,-9.459425926E0,9.831510186E-1
4.871027668E0,-2.578266263E-1,-9.425926208E0,9.711868763E-1
4.873537720E0,-3.849453330E-1,-9.397212982E0,8.898309469E-1
4.876046470E0,-2.673979402E-1,-9.581459999E0,9.640084505E-1
4.878555168E0,-1.980060786E-1,-9.646365166E0,1.076471090E0
4.881063918E0,-2.291127741E-1,-9.608079910E0,1.071685433E0
4.883572668E0,-2.602194548E-1,-9.658329964E0,9.544371367E-1
4.886081418E0,-2.338984162E-1,-9.706186295E0,9.735797048E-1
4.888590116E0,-2.458625287E-1,-9.730113983E0,1.023828983E0
4.891098814E0,-3.203391433E-1,-9.785149574E0,1.009472013E0
4.893607564E0,-3.562314808E-1,-9.842576981E0,9.903294444E-1
4.896116314E0,-3.083750308E-1,-9.900303841E0,1.064507008E0
4.898625012E0,-3.514458239E-1,-9.948160172E0,1.143769264E0
4.901133762E0,-3.729812205E-1,-9.979267120E0,1.165304661E0
4.903637564E0,-3.729812205E-1,-1.001994514E1,1.196411371E0
4.906146314E0,-3.658027649E-1,-1.000080204E1,1.210768223E0
4.908655012E0,-3.059822023E-1,-1.002712345E1,1.227517962E0
4.911163762E0,-3.275175989E-1,-1.004387283E1,1.239482164E0
4.913672512E0,-2.865405083E-1,-9.979267120E0,1.268195987E0
4.916181210E0,-2.889333367E-1,-9.996016502E0,1.287338614E0
4.918689960E0,-3.035893738E-1,-9.991230965E0,1.268195987E0
4.921198658E0,-2.602194548E-1,-9.967302322E0,1.287338614E0
4.923707408E0,-1.788634956E-1,-9.960124016E0,1.272981644E0
4.926216158E0,-1.692921966E-1,-9.859625816E0,1.323230863E0
4.928724856E0,-1.166501045E-1,-9.809077263E0,1.282552958E0
4.931233606E0,-9.032905847E-2,-9.766006470E0,1.364207983E0
4.933748033E0,-3.290131316E-2,-9.703793526E0,1.373779297E0
4.936256783E0,-3.888336709E-3,-9.603294373E0,1.407278776E0
4.938765481E0,-3.888336709E-3,-9.615258217E0,1.354636669E0
4.941274231E0,-1.585244946E-2,-9.581459999E0,1.339980721E0
4.943782981E0,2.721835673E-2,-9.514460564E0,1.400100350E0
4.946291679E0,1.764706708E-2,-9.478569031E0,1.316052437E0
4.948800429E0,3.918246925E-2,-9.473783493E0,1.400100350E0
4.951309127E0,8.973084623E-4,-9.473783493E0,1.328016520E0
4.953817877E0,-7.357929647E-2,-9.509675026E0,1.366600871E0
4.956326627E0,-7.836493850E-2,-9.516854286E0,1.376172066E0
4.958835324E0,-6.640082598E-2,-9.545567513E0,1.412064433E0
4.961344074E0,-8.793623000E-2,-9.648757935E0,1.383350611E0
4.963854127E0,-4.486542568E-2,-9.694221497E0,1.376172066E0
4.966362877E0,-4.965107143E-2,-9.734899521E0,1.462313771E0
4.968871574E0,-1.262213886E-1,-9.830613136E0,1.407278776E0
4.971380324E0,-1.333998591E-1,-9.912267685E0,1.435992718E0
4.973889074E0,-4.965107143E-2,-9.964909554E0,1.495813251E0
4.976397772E0,-1.860419661E-1,-1.004387283E1,1.447956800E0
4.978906522E0,-1.788634956E-1,-1.008694363E1,1.424028635E0
4.981415220E0,-1.381855011E-1,-1.016142082E1,1.424028635E0
4.983923970E0,-2.243271172E-1,-1.025952625E1,1.426421404E0
4.986432720E0,-2.458625287E-1,-1.035523891E1,1.495813251E0
4.988941418E0,-2.362912297E-1,-1.040818024E1,1.479063511E0
4.991450168E0,-1.908276081E-1,-1.041775131E1,1.538884044E0
4.993960220E0,-2.051845491E-1,-1.047278690E1,1.510170221E0
4.996468970E0,-2.291127741E-1,-1.041535854E1,1.634896040E0
4.998977668E0,-1.836491376E-1,-1.048475075E1,1.677966833E0
5.001486418E0,-2.099701911E-1,-1.052782154E1,1.589133382E0
5.003995168E0,-2.291127741E-1,-1.059242725E1,1.709073544E0
5.006503918E0,-1.645065546E-1,-1.057807064E1,1.752144337E0
5.009012616E0,-2.075773627E-1,-1.057328510E1,1.689931035E0
5.011521314E0,-1.764706671E-1,-1.054935646E1,1.740180254E0
5.014030064E0,-8.793623000E-2,-1.055892849E1,1.814357758E0
5.016538814E0,-9.511470050E-2,-1.057328510E1,1.778465390E0
5.019047512E0,-3.529413417E-2,-1.058046341E1,1.816750646E0
5.021556262E0,2.243271284E-2,-1.056610680E1,1.845464468E0
5.024060064E0,9.900303930E-2,-1.060917759E1,1.761715651E0
5.026568814E0,1.731805354E-1,-1.054217815E1,1.747358680E0
5.029077512E0,2.811566591E-1,-1.046560764E1,1.778465390E0
5.031586262E0,3.505485058E-1,-1.045125103E1,1.804786444E0
5.034095012E0,3.888336718E-1,-1.041775131E1,1.771286964E0
5.036603710E0,4.390829504E-1,-1.031695366E1,1.709073544E0
5.039112460E0,5.350949764E-1,-1.020688438E1,1.737787485E0
5.041621158E0,5.685944557E-1,-1.008694363E1,1.723430514E0
5.044129908E0,5.446662307E-1,-1.012044334E1,1.694716692E0
5.046638658E0,5.470590591E-1,-1.007737255E1,1.661217093E0
5.049147356E0,5.733801126E-1,-9.957731247E0,1.644467354E0
5.051656106E0,5.709872842E-1,-9.835398674E0,1.617847204E0
5.054169699E0,5.398806334E-1,-9.785149574E0,1.553241014E0
5.056678449E0,4.821537733E-1,-9.830613136E0,1.572383523E0
5.059187147E0,4.821537733E-1,-9.825826645E0,1.565205097E0
5.061695897E0,5.207380056E-1,-9.766006470E0,1.565205097E0
5.064204647E0,5.255236626E-1,-9.732506752E0,1.558026671E0
5.066713397E0,4.582255483E-1,-9.847362518E0,1.622931957E0
5.069222095E0,4.462614357E-1,-9.957731247E0,1.661217093E0
5.071730793E0,5.060819983E-1,-1.001276588E1,1.634896040E0
5.074239543E0,5.012963414E-1,-1.002951622E1,1.666002750E0
5.076748293E0,4.510470629E-1,-9.984052658E0,1.668395638E0
5.079256991E0,4.510470629E-1,-9.883553505E0,1.670788407E0
5.081765741E0,4.342973232E-1,-9.929018021E0,1.704287887E0
5.084274752E0,5.255236626E-1,-1.003908730E1,1.704287887E0
5.086783502E0,5.590232015E-1,-1.008455086E1,1.699502230E0
5.089292199E0,5.135595798E-1,-1.000080204E1,1.692323804E0
5.091800949E0,4.558327198E-1,-9.950552940E0,1.699502230E0
5.094309699E0,5.231308341E-1,-9.969695091E0,1.689931035E0
5.096818397E0,5.135595798E-1,-9.924231529E0,1.654038668E0
5.099327147E0,4.797609448E-1,-9.917053223E0,1.673181176E0
5.101835845E0,4.175475538E-1,-9.926624298E0,1.725823283E0
5.104344595E0,3.481557071E-1,-9.917053223E0,1.780858278E0
5.106853345E0,3.266202807E-1,-9.869196892E0,1.874178290E0
5.109362043E0,3.002992272E-1,-9.943374634E0,1.970190287E0
5.111870793E0,3.649054468E-1,-9.972088814E0,2.068295956E0
5.114376158E0,3.792623878E-1,-9.936196327E0,2.169093609E0
5.116884908E0,3.433700502E-1,-9.984052658E0,2.252842426E0
5.119393606E0,2.931207716E-1,-1.000798035E1,2.245664120E0
5.121902356E0,3.505485058E-1,-9.986445427E0,2.367697954E0
5.124411106E0,3.314059377E-1,-9.940981865E0,2.384447813E0
5.126919856E0,3.170489967E-1,-9.950552940E0,2.446960211E0
5.129428554E0,3.194418252E-1,-1.001037312E1,2.401197433E0
5.131937252E0,3.744767308E-1,-1.003669453E1,2.513959408E0
5.134446002E0,4.271188378E-1,-1.001994514E1,2.492423773E0
5.136954752E0,5.446662307E-1,-1.007497978E1,2.504388094E0
5.139463449E0,6.834499836E-1,-1.011087227E1,2.463710070E0
5.141972199E0,8.129615188E-1,-1.014227772E1,2.533101797E0
5.144487929E0,9.852447510E-1,-1.017577744E1,2.604886532E0
5.146996731E0,1.145862937E0,-1.030259705E1,2.607279301E0
5.149505533E0,1.100399256E0,-1.039382362E1,2.681456804E0
5.152014283E0,1.133898854E0,-1.044167995E1,2.784647465E0
5.154523085E0,1.131505966E0,-1.046800041E1,2.949752092E0
5.157031887E0,1.078863859E0,-1.055414295E1,3.105584621E0
5.159540637E0,1.025922656E0,-1.056132126E1,3.270988464E0
5.162049439E0,1.050150037E0,-1.056371403E1,3.479164124E0
5.164558241E0,1.136291623E0,-1.062353420E1,3.666103363E0
5.167067043E0,1.169791222E0,-1.061635590E1,3.716352701E0
5.169575793E0,1.217647672E0,-1.061874866E1,3.941577196E0
5.172084595E0,1.217647672E0,-1.056371403E1,4.032504559E0
5.174606158E0,1.088435173E0,-1.061396313E1,4.073481560E0
5.177114908E0,9.158528447E-1,-1.062353420E1,4.068696022E0
5.179623710E0,7.336992621E-1,-1.053260708E1,3.927220106E0
5.182132512E0,5.805585980E-1,-1.035045338E1,3.737888098E0
5.184641314E0,3.768695593E-1,-1.033609676E1,3.606282711E0
5.187150064E0,3.242274821E-1,-1.032891846E1,3.431307554E0
5.189658866E0,2.306082845E-1,-1.036720276E1,3.160619497E0
5.192167616E0,2.186441720E-1,-1.036241722E1,2.956930637E0
5.194676470E0,1.660020649E-1,-1.013270664E1,2.760719061E0
5.197185220E0,1.779661775E-1,-1.002473068E1,2.643171787E0
5.199694022E0,2.306082845E-1,-1.003190899E1,2.530709028E0
