"Time (s)","Gyroscope x (rad/s)","Gyroscope y (rad/s)","Gyroscope z (rad/s)"
7.130160000E-3,-5.436700583E-2,-2.278527319E-1,9.896016866E-2
9.113802000E-3,-5.436700583E-2,-2.278527319E-1,9.896016866E-2
1.112796200E-2,-5.436700583E-2,-2.278527319E-1,9.896016866E-2
1.308108700E-2,-5.436700583E-2,-2.278527319E-1,9.896016866E-2
1.509524700E-2,-5.436700583E-2,-2.278527319E-1,9.896016866E-2
1.707889000E-2,-5.436700583E-2,-2.278527319E-1,9.896016866E-2
1.909305000E-2,-5.436700583E-2,-2.278527319E-1,9.896016866E-2
2.110721000E-2,-5.436700583E-2,-2.278527319E-1,9.896016866E-2
2.309085300E-2,-5.436700583E-2,-2.278527319E-1,9.896016866E-2
2.510501300E-2,-5.436700583E-2,-2.278527319E-1,9.896016866E-2
2.708865600E-2,-5.436700583E-2,-2.278527319E-1,9.896016866E-2
2.910281600E-2,-5.436700583E-2,-2.278527319E-1,9.896016866E-2
3.108645800E-2,-5.436700583E-2,-2.278527319E-1,9.896016866E-2
3.310061800E-2,-5.436700583E-2,-2.278527319E-1,9.896016866E-2
3.511477900E-2,-5.436700583E-2,-2.278527319E-1,9.896016866E-2
3.709842100E-2,-5.436700583E-2,-2.278527319E-1,9.896016866E-2
3.908206400E-2,-5.436700583E-2,-2.278527319E-1,9.896016866E-2
4.109622400E-2,-5.436700583E-2,-2.278527319E-1,9.896016866E-2
4.304934900E-2,-5.436700583E-2,-2.278527319E-1,9.896016866E-2
4.506350900E-2,-5.436700583E-2,-2.278527319E-1,9.896016866E-2
4.707766900E-2,-5.436700583E-2,-2.278527319E-1,9.896016866E-2
4.906131200E-2,-5.436700583E-2,-2.278527319E-1,9.896016866E-2
5.107547200E-2,-5.436700583E-2,-2.278527319E-1,9.896016866E-2
5.308963200E-2,-5.436700583E-2,-2.278527319E-1,9.896016866E-2
5.507327500E-2,-5.436700583E-2,-2.278527319E-1,9.896016866E-2
5.708743500E-2,-5.436700583E-2,-2.278527319E-1,9.896016866E-2
5.907107700E-2,-5.436700583E-2,-2.278527319E-1,9.896016866E-2
6.105472000E-2,-5.436700583E-2,-2.278527319E-1,9.896016866E-2
6.306888000E-2,-5.436700583E-2,-2.278527319E-1,9.896016866E-2
6.508304000E-2,-5.436700583E-2,-2.278527319E-1,9.896016866E-2
6.703616500E-2,-5.436700583E-2,-2.278527319E-1,9.896016866E-2
6.901980800E-2,-5.436700583E-2,-2.278527319E-1,9.896016866E-2
7.103396800E-2,-1.564425945E0,-1.081231460E-1,1.205847979E0
7.298709300E-2,-1.566869378E0,-1.001819000E-1,1.233336926E0
7.500125300E-2,-1.566258430E0,-9.407325089E-2,1.232115149E0
7.698489600E-2,-1.564425945E0,-8.796459436E-2,1.243721604E0
7.899905600E-2,-1.559538960E0,-7.941248268E-2,1.281595230E0
8.101321600E-2,-1.554652095E0,-8.124507964E-2,1.299921274E0
8.299685900E-2,-1.539991260E0,-7.269296050E-2,1.306640744E0
8.501101900E-2,-1.524108768E0,-6.352998316E-2,1.334129691E0
8.699466100E-2,-1.512502313E0,-5.742133409E-2,1.351233959E0
8.900882200E-2,-1.484402537E0,-5.619960278E-2,1.381777167E0
9.099246400E-2,-1.456302762E0,-6.047565863E-2,1.395827055E0
9.300662400E-2,-1.443474531E0,-5.986479297E-2,1.413542151E0
9.499026700E-2,-1.412320495E0,-6.780604273E-2,1.454470158E0
9.697391000E-2,-1.398270488E0,-7.086037099E-2,1.472185254E0
9.898807000E-2,-1.365894675E0,-7.574728876E-2,1.496008992E0
1.009717120E-1,-1.337184072E0,-7.696902007E-2,1.530828357E0
1.029858720E-1,-1.321301579E0,-7.696902007E-2,1.554652095E0
1.050000330E-1,-1.291369081E0,-7.635815442E-2,1.590693116E0
1.069531580E-1,-1.263269305E0,-7.147123665E-2,1.621847272E0
1.089673180E-1,-1.250441194E0,-6.597344577E-2,1.641394973E0
1.109204430E-1,-1.221730471E0,-4.886921868E-2,1.687820673E0
1.129346030E-1,-1.196074128E0,-3.176499158E-2,1.729970336E0
1.149182450E-1,-1.185689449E0,-2.504547499E-2,1.748296380E0
1.169324060E-1,-1.161254883E0,2.443460980E-3,1.795332909E0
1.189465660E-1,-1.138652802E0,2.932153270E-2,1.844812989E0
1.208996910E-1,-1.129489779E0,4.337143153E-2,1.866804242E0
1.229138510E-1,-1.114218235E0,6.780604273E-2,1.907121301E0
1.249280110E-1,-1.097724795E0,8.979719132E-2,1.954768777E0
1.268811360E-1,-1.087340117E0,9.957103431E-2,1.973705649E0
1.288647790E-1,-1.076955438E0,1.087340117E-1,2.009746552E0
1.308789390E-1,-1.071457624E0,1.123992056E-1,2.025629044E0
1.328625810E-1,-1.061683774E0,1.069014147E-1,2.054339886E0
1.348767420E-1,-1.050688267E0,9.651670605E-2,2.078163624E0
1.368603840E-1,-1.043357849E0,9.101892263E-2,2.086715698E0
1.388440270E-1,-1.035416603E0,6.230825558E-2,2.092824221E0
1.408581870E-1,-1.023199320E0,1.649336144E-2,2.094656944E0
1.428418290E-1,-1.014036298E0,-6.108652335E-3,2.094656944E0
1.448865070E-1,-9.987646937E-1,-6.963863969E-2,2.081218004E0
1.468396320E-1,-9.773843884E-1,-1.368338168E-1,2.060448408E0
1.488232750E-1,-9.676105380E-1,-1.759291887E-1,2.051285505E0
1.508374350E-1,-9.443976879E-1,-2.492330223E-1,2.026850939E0
1.527905600E-1,-9.181304574E-1,-3.237585723E-1,1.993864179E0
1.548047200E-1,-9.053022861E-1,-3.689626157E-1,1.976149082E0
1.567883630E-1,-8.802568316E-1,-4.538728893E-1,1.943162322E0
1.588025230E-1,-8.509352803E-1,-5.448917747E-1,1.905899525E0
1.608166830E-1,-8.368853927E-1,-5.864306092E-1,1.885130167E0
1.627698080E-1,-8.106181622E-1,-6.756169796E-1,1.843591332E0
1.648144860E-1,-7.935139537E-1,-7.165449262E-1,1.825265408E0
1.667676110E-1,-7.690793276E-1,-8.032878041E-1,1.782504797E0
1.687817710E-1,-7.391469479E-1,-8.814785480E-1,1.739744186E0
1.707654130E-1,-7.269296646E-1,-9.248499870E-1,1.718363881E0
1.727490560E-1,-7.031059265E-1,-1.006705880E0,1.674381614E0
1.747632160E-1,-6.750060916E-1,-1.088561893E0,1.633453608E0
1.767468590E-1,-6.664539576E-1,-1.131322384E0,1.612073421E0
1.787610190E-1,-6.432411075E-1,-1.212567568E0,1.569312811E0
1.807446610E-1,-6.212499738E-1,-1.294423461E0,1.530828357E0
1.827283040E-1,-6.078109145E-1,-1.336573124E0,1.513113260E0
1.847729820E-1,-5.937610269E-1,-1.417207360E0,1.477683067E0
1.867261070E-1,-5.760459304E-1,-1.500285029E0,1.448361516E0
1.887402670E-1,-5.650503635E-1,-1.541823864E0,1.436144233E0
1.907239100E-1,-5.503895879E-1,-1.628566742E0,1.410487890E0
1.927380700E-1,-5.400048494E-1,-1.711033583E0,1.387885809E0
1.947522300E-1,-5.338962078E-1,-1.756848454E0,1.375057697E0
1.967358720E-1,-5.265658498E-1,-1.842369556E0,1.354899168E0
1.987500330E-1,-5.167919993E-1,-1.927890658E0,1.337794900E0
2.007336750E-1,-5.137376785E-1,-1.974316478E0,1.332297087E0
2.027173180E-1,-5.088507533E-1,-2.063502789E0,1.319468975E0
2.047619950E-1,-5.051855445E-1,-2.108706713E0,1.314581990E0
2.067151200E-1,-4.972442985E-1,-2.199114799E0,1.306640744E0
2.086987630E-1,-4.874704778E-1,-2.280970812E0,1.304808140E0
2.106824060E-1,-4.819726646E-1,-2.313957453E0,1.301753879E0
2.126965660E-1,-4.734205604E-1,-2.379320145E0,1.301142931E0
2.146802080E-1,-4.636467099E-1,-2.433076382E0,1.302364707E0
2.166943680E-1,-4.581489265E-1,-2.450791359E0,1.307251573E0
2.187085290E-1,-4.502076805E-1,-2.479501963E0,1.310305953E0
2.206921710E-1,-4.386012554E-1,-2.490497589E0,1.320079803E0
2.227063310E-1,-4.276056588E-1,-2.495384455E0,1.325577617E0
2.247204920E-1,-4.178318381E-1,-2.495384455E0,1.340849161E0
2.266736170E-1,-4.050036669E-1,-2.478891134E0,1.355509996E0
2.286572590E-1,-3.995058835E-1,-2.464230299E0,1.365283847E0
2.306409020E-1,-3.854559660E-1,-2.428189278E0,1.379944563E0
2.326550620E-1,-3.775147200E-1,-2.376265764E0,1.396438003E0
2.346387040E-1,-3.720169365E-1,-2.348165989E0,1.403157473E0
2.366528650E-1,-3.695734739E-1,-2.279749155E0,1.419039965E0
2.386670250E-1,-3.616322279E-1,-2.244929790E0,1.428202987E0
2.406201500E-1,-3.591887653E-1,-2.170404196E0,1.444696307E0
2.426343100E-1,-3.579670191E-1,-2.088548183E0,1.458746195E0
2.446484700E-1,-3.561344445E-1,-2.042122602E0,1.470352650E0
2.466321130E-1,-3.567453027E-1,-1.955379605E0,1.485624313E0
2.486157550E-1,-3.567453027E-1,-1.855808616E0,1.503339410E0
2.505993980E-1,-3.579670191E-1,-1.808161139E0,1.513113260E0
2.526135580E-1,-3.591887653E-1,-1.700037956E0,1.527773976E0
2.545972010E-1,-3.665191531E-1,-1.591914773E0,1.546099901E0
2.566113610E-1,-3.659082949E-1,-1.539380431E0,1.557095528E0
2.585950030E-1,-3.726277947E-1,-1.436144233E0,1.578475833E0
2.605786460E-1,-3.775147200E-1,-1.342070937E0,1.596801758E0
2.625928060E-1,-3.811798990E-1,-1.297477722E0,1.605353832E0
2.646069660E-1,-3.872885704E-1,-1.217454433E0,1.623068929E0
2.665906090E-1,-3.933972120E-1,-1.152091861E0,1.642616630E0
2.685742510E-1,-3.995058835E-1,-1.123992085E0,1.648725271E0
2.705578940E-1,-4.092797041E-1,-1.069625020E0,1.663996935E0
2.726025720E-1,-4.190535545E-1,-1.030529618E0,1.676214218E0
2.745251790E-1,-4.214970171E-1,-1.011592865E0,1.681712031E0
2.765393390E-1,-4.349360466E-1,-9.773843884E-1,1.692096710E0
2.785534990E-1,-4.447098970E-1,-9.645562172E-1,1.698205352E0
2.805066240E-1,-4.599815309E-1,-9.358455539E-1,1.702481389E0
2.825207850E-1,-4.789183438E-1,-9.071348906E-1,1.705535769E0
2.845349450E-1,-4.874704778E-1,-8.955284357E-1,1.707979202E0
2.865185870E-1,-5.082398653E-1,-8.729264140E-1,1.711644411E0
2.885022300E-1,-5.314527750E-1,-8.546004891E-1,1.712866187E0
2.905163900E-1,-5.424483418E-1,-8.484918475E-1,1.706146598E0
2.925305500E-1,-5.668829679E-1,-8.350527883E-1,1.704924941E0
2.945141930E-1,-5.888741016E-1,-8.277224302E-1,1.701259732E0
2.965283530E-1,-6.017022729E-1,-8.283332586E-1,1.701259732E0
2.985425130E-1,-6.273586154E-1,-8.338310719E-1,1.697594523E0
3.004956380E-1,-6.524040699E-1,-8.454375267E-1,1.693929315E0
3.025097980E-1,-6.652322412E-1,-8.527678847E-1,1.690875053E0
3.045239580E-1,-6.908885837E-1,-8.692612648E-1,1.685988069E0
3.065076010E-1,-7.147123218E-1,-8.918632865E-1,1.681101203E0
3.084912430E-1,-7.287622094E-1,-9.077457786E-1,1.679879427E0
3.104748860E-1,-7.550294399E-1,-9.352346659E-1,1.675603390E0
3.124890460E-1,-7.703011036E-1,-9.547823668E-1,1.671938181E0
3.144726890E-1,-7.959573865E-1,-9.981538057E-1,1.667662144E0
3.164868490E-1,-8.203920126E-1,-1.049466491E0,1.663996935E0
3.185010090E-1,-8.338310719E-1,-1.075122833E0,1.658499122E0
3.204541340E-1,-8.600982428E-1,-1.125824690E0,1.651168704E0
3.224682940E-1,-8.857545853E-1,-1.172250390E0,1.645671010E0
3.244824540E-1,-8.985827565E-1,-1.189354658E0,1.640784025E0
3.264660970E-1,-9.242390990E-1,-1.232115149E0,1.637118816E0
3.284497400E-1,-9.529497623E-1,-1.266323686E0,1.635286212E0
3.304333820E-1,-9.669997096E-1,-1.280984402E0,1.631621122E0
3.324475420E-1,-9.914342761E-1,-1.300532103E0,1.630399346E0
3.344311850E-1,-1.019534111E0,-1.312138557E0,1.630399346E0
3.364453450E-1,-1.032362223E0,-1.310305953E0,1.637729764E0
3.384595050E-1,-1.058629513E0,-1.310305953E0,1.649947047E0
3.404431480E-1,-1.083674908E0,-1.295645237E0,1.660331726E0
3.424573080E-1,-1.093448758E0,-1.288925648E0,1.671327353E0
3.444714680E-1,-1.121548533E0,-1.276097536E0,1.691485882E0
3.464245930E-1,-1.131322384E0,-1.269377947E0,1.702481389E0
3.484387530E-1,-1.153313637E0,-1.248608589E0,1.731802940E0
3.503918780E-1,-1.175915599E0,-1.236391306E0,1.763567924E0
3.524060380E-1,-1.187522054E0,-1.228450060E0,1.775785327E0
3.544201990E-1,-1.208902359E0,-1.214400053E0,1.811215401E0
3.563733240E-1,-1.229060888E0,-1.209513187E0,1.842369556E0
3.583874840E-1,-1.238834739E0,-1.205237150E0,1.863139033E0
3.603711260E-1,-1.261436701E0,-1.202182770E0,1.897958279E0
3.623852860E-1,-1.280984402E0,-1.210734963E0,1.932777643E0
3.644299640E-1,-1.290758252E0,-1.221119642E0,1.955990553E0
3.663830890E-1,-1.310916781E0,-1.233336926E0,1.993253350E0
3.683972490E-1,-1.335962296E0,-1.241889000E0,2.030516148E0
3.703808920E-1,-1.349401355E0,-1.243721604E0,2.048841953E0
3.723950520E-1,-1.370170712E0,-1.254717231E0,2.081828833E0
3.743786950E-1,-1.395216227E0,-1.258382440E0,2.115426302E0
3.763623370E-1,-1.411709547E0,-1.259604096E0,2.132530689E0
3.783764970E-1,-1.436755061E0,-1.260825872E0,2.165517330E0
3.803601400E-1,-1.464244008E0,-1.272432327E0,2.202169180E0
3.823743000E-1,-1.479515672E0,-1.280373573E0,2.213775635E0
3.843884600E-1,-1.508226275E0,-1.293812633E0,2.244929790E0
3.863415850E-1,-1.525941372E0,-1.308473349E0,2.255925417E0
3.883557450E-1,-1.555262923E0,-1.344514370E0,2.280359983E0
3.903088700E-1,-1.585806131E0,-1.392161846E0,2.298686028E0
3.923230310E-1,-1.604743004E0,-1.422705173E0,2.307238102E0
3.943066730E-1,-1.637118816E0,-1.475239515E0,2.320677042E0
3.963208330E-1,-1.673159957E0,-1.544878244E0,2.332894325E0
3.983349930E-1,-1.687209845E0,-1.585806131E0,2.339613914E0
4.003186360E-1,-1.723861694E0,-1.665218711E0,2.351831198E0
4.023327960E-1,-1.759902716E0,-1.752572417E0,2.364659309E0
4.043469560E-1,-1.778839588E0,-1.794111252E0,2.368935347E0
4.063000810E-1,-1.817324162E0,-1.874134541E0,2.375044107E0
4.083142420E-1,-1.853365183E0,-1.933999419E0,2.375044107E0
4.102673670E-1,-1.870469332E0,-1.960877419E0,2.372600555E0
4.122815270E-1,-1.902845263E0,-1.988366365E0,2.357939959E0
4.142651690E-1,-1.933999419E0,-2.015244484E0,2.335337877E0
4.162488120E-1,-1.950492740E0,-2.023185730E0,2.323120594E0
4.182629720E-1,-1.977370739E0,-2.037846565E0,2.290744781E0
4.202466150E-1,-1.992642403E0,-2.038457394E0,2.274862289E0
4.222607750E-1,-2.020742178E0,-2.027461767E0,2.239432096E0
4.242749350E-1,-2.051285505E0,-2.012190104E0,2.200336695E0
4.262280600E-1,-2.065946341E0,-2.005470514E0,2.182621479E0
4.282422200E-1,-2.090380907E0,-1.988977194E0,2.145969629E0
4.301953450E-1,-2.111150265E0,-1.974927306E0,2.105652571E0
4.322095050E-1,-2.117259026E0,-1.971873045E0,2.086104870E0
4.341931480E-1,-2.132530689E0,-1.962710023E0,2.048841953E0
4.361767900E-1,-2.142304420E0,-1.966375232E0,2.016466141E0
4.381909510E-1,-2.144136906E0,-1.966375232E0,2.001805305E0
4.401440760E-1,-2.146580458E0,-1.976759911E0,1.974316478E0
4.421582360E-1,-2.141082764E0,-1.992031574E0,1.951103568E0
4.441723960E-1,-2.122756720E0,-1.993253350E0,1.939497113E0
4.461560380E-1,-2.040289879E0,-1.934610248E0,1.926058173E0
4.481396810E-1,-1.973094702E0,-1.888795376E0,1.923614621E0
4.501538410E-1,-1.837482691E0,-1.790446043E0,1.912619114E0
4.521374840E-1,-1.707368374E0,-1.648114443E0,1.896736622E0
4.541211260E-1,-1.638951421E0,-1.571756244E0,1.890017033E0
4.561352860E-1,-1.492343783E0,-1.417207360E0,1.882075787E0
4.581189290E-1,-1.326799273E0,-1.275486588E0,1.873523712E0
4.601330890E-1,-1.235169530E0,-1.221119642E0,1.869858503E0
4.621472490E-1,-1.047023058E0,-1.146594048E0,1.852143407E0
4.641308920E-1,-8.429940343E-1,-1.091616154E0,1.825876236E0
4.661145350E-1,-7.403686643E-1,-1.071457624E0,1.805717707E0
4.680981770E-1,-5.412266254E-1,-1.032973170E0,1.765400529E0
4.701123370E-1,-3.414736688E-1,-9.975429177E-1,1.709811807E0
4.721264970E-1,-2.455678284E-1,-9.773843884E-1,1.682322860E0
4.740796220E-1,-5.742133409E-2,-9.498954415E-1,1.613906026E0
4.760937830E-1,1.221730486E-1,-9.205739498E-1,1.539991260E0
4.780774250E-1,2.076941878E-1,-9.083566070E-1,1.494787216E0
4.800610680E-1,3.646865487E-1,-8.845328689E-1,1.402546644E0
4.820752280E-1,4.373795092E-1,-8.717046976E-1,1.355509996E0
4.840588700E-1,5.687155724E-1,-8.576548100E-1,1.250441194E0
4.860425130E-1,6.762278080E-1,-8.558222055E-1,1.145372391E0
4.880261560E-1,7.250970602E-1,-8.637634516E-1,1.100168347E0
4.900403160E-1,7.971791625E-1,-8.796459436E-1,1.010982037E0
4.920544760E-1,8.497135639E-1,-9.028588533E-1,9.413433671E-1
4.940076010E-1,8.717046976E-1,-9.114109278E-1,9.077457786E-1
4.960217610E-1,9.028588533E-1,-9.260717034E-1,8.564330935E-1
4.980054040E-1,9.156870246E-1,-9.187413454E-1,8.118399382E-1
4.999890460E-1,9.144652486E-1,-9.114109278E-1,7.941248417E-1
5.020032060E-1,9.022479653E-1,-8.998045325E-1,7.678576112E-1
5.040173670E-1,8.790351152E-1,-8.814785480E-1,7.501425147E-1
5.060010090E-1,8.607091308E-1,-8.717046976E-1,7.440338731E-1
5.079846520E-1,8.173376918E-1,-8.564330935E-1,7.379252315E-1
5.099682940E-1,7.586946487E-1,-8.271115422E-1,7.391469479E-1
5.119824540E-1,7.269296646E-1,-8.038986921E-1,7.403686643E-1
5.139355790E-1,6.524040699E-1,-7.605272532E-1,7.422012687E-1
5.159497400E-1,6.145304441E-1,-7.318165898E-1,7.434229851E-1
5.179639000E-1,5.326744914E-1,-6.860016584E-1,7.519751191E-1
5.199170250E-1,4.440990388E-1,-6.346889734E-1,7.623597980E-1
5.219311850E-1,4.019493461E-1,-6.084218025E-1,7.593054771E-1
5.239453450E-1,3.109304011E-1,-5.436700583E-1,7.629706860E-1
5.258984700E-1,2.247984111E-1,-4.850270152E-1,7.605272532E-1
5.278821130E-1,1.820378453E-1,-4.593706727E-1,7.593054771E-1
5.298962730E-1,1.032362282E-1,-4.153883755E-1,7.531968355E-1
5.318493980E-1,2.748893574E-2,-3.671300113E-1,7.434229851E-1
5.338635580E-1,-5.497787148E-3,-3.451388776E-1,7.415903807E-1
5.358472010E-1,-6.597344577E-2,-3.017674387E-1,7.281513810E-1
5.378308430E-1,-1.093448773E-1,-2.712241709E-1,7.147123218E-1
5.398450030E-1,-1.295034289E-1,-2.510656118E-1,7.098253965E-1
5.417981280E-1,-1.588249654E-1,-2.254092693E-1,7.024950385E-1
5.438428060E-1,-1.777617931E-1,-1.985312104E-1,6.914994717E-1
5.457959310E-1,-1.826487035E-1,-1.905899495E-1,6.884451509E-1
5.478100910E-1,-1.887573600E-1,-1.716531366E-1,6.817256212E-1
5.497937340E-1,-1.863138974E-1,-1.692096740E-1,6.786713004E-1
5.517773760E-1,-1.814269722E-1,-1.649336219E-1,6.713408828E-1
5.537915360E-1,-1.710422635E-1,-1.612684280E-1,6.640105247E-1
5.557751790E-1,-1.618792862E-1,-1.649336219E-1,6.597344875E-1
5.577893390E-1,-1.435533315E-1,-1.728748679E-1,6.548475623E-1
5.598034990E-1,-1.233947799E-1,-1.942551434E-1,6.432411075E-1
5.617871420E-1,-1.136209369E-1,-2.052507252E-1,6.346889734E-1
5.638318200E-1,-8.918632567E-2,-2.272418737E-1,6.310238242E-1
5.657849450E-1,-6.536258012E-2,-2.516764700E-1,6.212499738E-1
5.677991050E-1,-5.436700583E-2,-2.608394623E-1,6.212499738E-1
5.698132650E-1,-3.604105115E-2,-2.693915665E-1,6.072000265E-1
5.717969080E-1,-2.076941915E-2,-2.846632004E-1,5.949827433E-1
5.738110680E-1,-1.099557430E-2,-2.968805134E-1,5.888741016E-1
5.757947100E-1,0.000000000E0,-3.213151097E-1,5.748242140E-1
5.777783530E-1,1.099557430E-2,-3.634648323E-1,5.687155724E-1
5.797925130E-1,1.343903504E-2,-3.799581826E-1,5.674937963E-1
5.817761560E-1,2.015855350E-2,-4.062253833E-1,5.619960427E-1
5.838208330E-1,2.443460934E-2,-4.276056588E-1,5.564982295E-1
5.857739580E-1,2.565634064E-2,-4.392121136E-1,5.571091175E-1
5.877881180E-1,2.687807009E-2,-4.624249935E-1,5.503895879E-1
5.898022790E-1,2.748893574E-2,-4.703662395E-1,5.491678715E-1
5.917859210E-1,2.443460934E-2,-4.917465150E-1,5.406157374E-1
5.938000810E-1,1.954768784E-2,-5.155702829E-1,5.406157374E-1
5.957837240E-1,1.588249579E-2,-5.290092826E-1,5.400048494E-1
5.977673670E-1,1.160643995E-2,-5.534439087E-1,5.345070958E-1
5.997815270E-1,7.330383174E-3,-5.754350424E-1,5.363397002E-1
6.017651690E-1,6.719517522E-3,-5.888741016E-1,5.418374538E-1
6.038098470E-1,9.162978269E-3,-6.151412725E-1,5.461135507E-1
6.057629720E-1,1.404990070E-2,-6.383541822E-1,5.540547967E-1
6.077771320E-1,1.282817032E-2,-6.517932415E-1,5.626068711E-1
6.097607750E-1,1.343903504E-2,-7.018841505E-1,5.882632136E-1
6.117444170E-1,1.160643995E-2,-7.556403279E-1,6.212499738E-1
6.137585770E-1,1.160643995E-2,-7.788531780E-1,6.383541822E-1
6.157422200E-1,7.330383174E-3,-8.307767510E-1,6.701191664E-1
6.177563800E-1,1.099557430E-2,-8.827002645E-1,7.079927921E-1
6.197705400E-1,9.162978269E-3,-9.089674950E-1,7.220427394E-1
6.217541830E-1,1.221730467E-2,-9.553932548E-1,7.568620443E-1
6.237988610E-1,1.466076635E-2,-1.006095052E0,7.910705209E-1
6.257519860E-1,1.588249579E-2,-1.026864529E0,8.057312369E-1
6.277356280E-1,1.954768784E-2,-1.067181587E0,8.344419003E-1
6.297497880E-1,2.138028294E-2,-1.083674908E0,8.527678847E-1
6.317029130E-1,2.382374369E-2,-1.117883444E0,8.796459436E-1
6.337170740E-1,3.298672289E-2,-1.145372391E0,9.016370773E-1
6.357007160E-1,3.420845419E-2,-1.159422278E0,9.132435322E-1
6.377148760E-1,4.214970022E-2,-1.186911225E0,9.285151958E-1
6.397290360E-1,4.948008433E-2,-1.215621829E0,9.450085163E-1
6.416821610E-1,5.314527452E-2,-1.226006508E0,9.492846131E-1
6.437268390E-1,5.986479297E-2,-1.252884626E0,9.663888216E-1
6.456799640E-1,6.597344577E-2,-1.279762745E0,9.737191796E-1
6.476941240E-1,7.086037099E-2,-1.295645237E0,9.779952765E-1
6.496777670E-1,7.757988572E-2,-1.320079803E0,9.871582389E-1
6.516614100E-1,8.613199741E-2,-1.348179579E0,9.908234477E-1
6.536755700E-1,8.674286306E-2,-1.361618638E0,9.889908433E-1
6.556592120E-1,8.979719132E-2,-1.383609772E0,9.859365225E-1
6.576733720E-1,9.285151958E-2,-1.411709547E0,9.816604257E-1
6.596875330E-1,9.101892263E-2,-1.425759435E0,9.755517840E-1
6.616406580E-1,8.918632567E-2,-1.470963478E0,9.712757468E-1
6.636853350E-1,8.979719132E-2,-1.493565559E0,9.669997096E-1
6.656384600E-1,8.735372871E-2,-1.528995752E0,9.572258592E-1
6.676526200E-1,8.918632567E-2,-1.565647602E0,9.468411207E-1
6.696362630E-1,8.735372871E-2,-1.580308437E0,9.407324791E-1
6.716504230E-1,8.613199741E-2,-1.602910399E0,9.297369123E-1
6.736035480E-1,8.246681094E-2,-1.630399346E0,9.156870246E-1
6.756177080E-1,7.635815442E-2,-1.641394973E0,9.132435322E-1
6.775708330E-1,6.780604273E-2,-1.666440368E0,9.022479653E-1
6.795849930E-1,5.619960278E-2,-1.689653277E0,8.930850029E-1
6.815686360E-1,5.009094998E-2,-1.694540143E0,8.900306821E-1
6.835827960E-1,3.543018550E-2,-1.709811807E0,8.851437569E-1
6.855359210E-1,1.649336144E-2,-1.732413888E0,8.808676600E-1
6.875500810E-1,4.276056774E-3,-1.744020224E0,8.802568316E-1
6.895337240E-1,-1.588249579E-2,-1.758681059E0,8.802568316E-1
6.915173670E-1,-2.993239649E-2,-1.772730947E0,8.833111525E-1
6.935315270E-1,-5.131268129E-2,-1.793500304E0,8.827002645E-1
6.955151690E-1,-8.124507964E-2,-1.806939363E0,8.863654733E-1
6.975293290E-1,-9.712757170E-2,-1.809993744E0,8.857545853E-1
6.995434900E-1,-1.331686229E-1,-1.816713214E0,8.918632865E-1
7.014966150E-1,-1.673770845E-1,-1.822821856E0,9.010262489E-1
7.035412920E-1,-1.863138974E-1,-1.824654460E0,9.077457786E-1
7.054944170E-1,-2.223549485E-1,-1.813048005E0,9.156870246E-1
7.075085770E-1,-2.632829249E-1,-1.789835215E0,9.279043078E-1
7.094922200E-1,-2.883284092E-1,-1.773952723E0,9.309586287E-1
7.114758630E-1,-3.237585723E-1,-1.745852828E0,9.419541955E-1
7.134900230E-1,-3.683517575E-1,-1.711644411E0,9.535606503E-1
7.154736650E-1,-3.872885704E-1,-1.686598897E0,9.596692920E-1
7.174878260E-1,-4.257730842E-1,-1.634064555E0,9.731083512E-1
7.194714680E-1,-4.630358517E-1,-1.567480206E0,9.834930301E-1
7.214551110E-1,-4.850270152E-1,-1.533271790E0,9.896016717E-1
7.234692710E-1,-5.131267905E-1,-1.472185254E0,9.993755221E-1
7.254223960E-1,-5.308418870E-1,-1.439198494E0,1.004262447E0
7.274365560E-1,-5.638286471E-1,-1.386053205E0,1.014647126E0
7.293896810E-1,-5.882632136E-1,-1.332907915E0,1.034194827E0
7.314038410E-1,-5.980370641E-1,-1.310916781E0,1.045801282E0
7.333874840E-1,-6.188064814E-1,-1.269377947E0,1.071457624E0
7.354016440E-1,-6.310238242E-1,-1.243110776E0,1.102611780E0
7.374158040E-1,-6.346889734E-1,-1.226006508E0,1.119716048E0
7.393689290E-1,-6.359107494E-1,-1.209513187E0,1.160033107E0
7.413830890E-1,-6.273586154E-1,-1.188132882E0,1.202793717E0
7.433972490E-1,-6.206390858E-1,-1.174693823E0,1.224173903E0
7.453808920E-1,-6.023131609E-1,-1.153924465E0,1.269377947E0
7.473645350E-1,-5.784893632E-1,-1.123992085E0,1.315803766E0
7.493481770E-1,-5.644394755E-1,-1.103833556E0,1.336573124E0
7.513623370E-1,-5.314527750E-1,-1.061683774E0,1.373835921E0
7.533459800E-1,-4.996877611E-1,-1.015258074E0,1.410487890E0
7.553601400E-1,-4.825835526E-1,-9.877691269E-1,1.423316002E0
7.573743000E-1,-4.453207552E-1,-9.309586287E-1,1.445918083E0
7.593274250E-1,-4.233296216E-1,-9.071348906E-1,1.458135366E0
7.613415850E-1,-3.854559660E-1,-8.564330935E-1,1.467298269E0
7.633557450E-1,-3.506366611E-1,-8.100073338E-1,1.474017859E0
7.653393880E-1,-3.304781020E-1,-7.867944241E-1,1.475239515E0
7.673230310E-1,-2.962696552E-1,-7.476990819E-1,1.469741821E0
7.693371910E-1,-2.620611787E-1,-7.171558142E-1,1.456913590E0
7.713208330E-1,-2.467895597E-1,-7.086036801E-1,1.447139740E0
7.733044760E-1,-2.162462920E-1,-6.945537925E-1,1.426981211E0
7.753186360E-1,-1.850921661E-1,-6.988298297E-1,1.402546644E0
7.773022790E-1,-1.685988009E-1,-6.969972253E-1,1.392772794E0
7.793164390E-1,-1.325577646E-1,-7.086036801E-1,1.378722906E0
7.813305990E-1,-9.651670605E-2,-7.293730974E-1,1.368338108E0
7.833142420E-1,-7.757988572E-2,-7.428121567E-1,1.371392488E0
7.852978840E-1,-3.543018550E-2,-7.648032904E-1,1.379944563E0
7.872815270E-1,6.108652335E-3,-7.977899909E-1,1.390940189E0
7.892956870E-1,3.115412779E-2,-8.142833710E-1,1.403157473E0
7.912793290E-1,8.002334833E-2,-8.478809595E-1,1.432479024E0
7.932629720E-1,1.075122803E-1,-8.680394888E-1,1.447750688E0
7.952771320E-1,1.594358236E-1,-9.089674950E-1,1.486845970E0
7.972302570E-1,2.131919712E-1,-9.541715384E-1,1.523497939E0
7.992444170E-1,2.412917763E-1,-9.712757468E-1,1.538769603E0
8.012280600E-1,3.005456924E-1,-1.009149432E0,1.575421453E0
8.032727380E-1,3.604104817E-1,-1.042136073E0,1.610240817E0
8.052258630E-1,3.909537494E-1,-1.060462117E0,1.628566742E0
8.072095050E-1,4.495968223E-1,-1.118494272E0,1.660942554E0
8.092236650E-1,5.125159621E-1,-1.179580808E0,1.681712031E0
8.112073080E-1,5.467243791E-1,-1.211345792E0,1.688431501E0
8.132214680E-1,6.072000265E-1,-1.285260439E0,1.696983695E0
8.152051110E-1,6.743952036E-1,-1.373225093E0,1.685377240E0
8.171887530E-1,7.067710757E-1,-1.419650793E0,1.681101203E0
8.192029130E-1,7.703011036E-1,-1.524108768E0,1.648114443E0
8.211865560E-1,8.381071091E-1,-1.631010175E0,1.591303945E0
8.232312340E-1,8.723155856E-1,-1.685988069E0,1.555873752E0
8.251843590E-1,9.291260242E-1,-1.784948230E0,1.464244008E0
8.271680010E-1,9.572258592E-1,-1.831984878E0,1.408655286E0
8.291821610E-1,1.010371089E0,-1.911397338E0,1.280984402E0
8.311658040E-1,1.061072946E0,-1.962710023E0,1.128878951E0
8.331799640E-1,1.083064079E0,-1.982868552E0,1.052520871E0
8.351941240E-1,1.119716048E0,-2.002416372E0,8.814785480E-1
8.371777670E-1,1.144150615E0,-1.998140216E0,7.073819637E-1
8.391919270E-1,1.152091861E0,-1.988977194E0,6.212499738E-1
8.411755700E-1,1.156978726E0,-1.955990553E0,4.489859641E-1
8.431897300E-1,1.151481032E0,-1.912008166E0,2.883284092E-1
8.451428550E-1,1.142318010E0,-1.885740995E0,2.156354338E-1
8.471570150E-1,1.118494272E0,-1.833817482E0,8.429940045E-2
8.491406580E-1,1.078788042E0,-1.777006984E0,-2.932153270E-2
8.511243000E-1,1.059240341E0,-1.751350641E0,-7.391469181E-2
8.531384600E-1,1.013425469E0,-1.703703165E0,-1.429424733E-1
8.550915850E-1,9.608910084E-1,-1.662775159E0,-1.844813079E-1
8.571057450E-1,9.346238375E-1,-1.644449234E0,-1.985312104E-1
8.590893880E-1,8.833111525E-1,-1.617571115E0,-2.070833147E-1
8.611035480E-1,8.332201838E-1,-1.599856019E0,-2.009746730E-1
8.631177080E-1,8.106181622E-1,-1.587027907E0,-1.948660165E-1
8.650708330E-1,7.709119320E-1,-1.576643229E0,-1.747074574E-1
8.670849930E-1,7.513642311E-1,-1.570534587E0,-1.673770845E-1
8.690686360E-1,7.177666426E-1,-1.557095528E0,-1.490511149E-1
8.710827960E-1,6.908885837E-1,-1.541213036E0,-1.362229437E-1
8.730969560E-1,6.756169796E-1,-1.531439185E0,-1.276708394E-1
8.750500810E-1,6.517932415E-1,-1.513724089E0,-1.172861308E-1
8.770642420E-1,6.316346526E-1,-1.508226275E0,-1.117883399E-1
8.790478840E-1,6.224716902E-1,-1.507615447E0,-1.093448773E-1
8.810620440E-1,6.041457057E-1,-1.513724089E0,-1.087340117E-1
8.830762040E-1,5.870414972E-1,-1.534493446E0,-1.062905490E-1
8.850293290E-1,5.797111392E-1,-1.549154282E0,-1.075122803E-1
8.870434900E-1,5.668829679E-1,-1.581530094E0,-1.099557430E-1
8.889966150E-1,5.613851547E-1,-1.618792892E0,-1.130100712E-1
8.910107750E-1,5.552765131E-1,-1.631010175E0,-1.166752651E-1
8.929944170E-1,5.552765131E-1,-1.654223084E0,-1.203404516E-1
8.949780600E-1,5.583308339E-1,-1.662775159E0,-1.191187203E-1
8.969922200E-1,5.656611919E-1,-1.683544636E0,-1.148426682E-1
8.989453450E-1,5.711590052E-1,-1.696372747E0,-1.087340117E-1
9.009595050E-1,5.736024380E-1,-1.703703165E0,-1.062905490E-1
9.029736650E-1,5.778785348E-1,-1.712255239E0,-9.651670605E-2
9.049573080E-1,5.870414972E-1,-1.715309620E0,-8.307767659E-2
9.069409510E-1,5.888741016E-1,-1.712255239E0,-7.574728876E-2
9.089245930E-1,5.937610269E-1,-1.700037956E0,-6.108652428E-2
9.109387530E-1,5.968153477E-1,-1.680490255E0,-4.337143153E-2
9.128918780E-1,5.992587805E-1,-1.673159957E0,-3.604105115E-2
9.149060380E-1,6.010913849E-1,-1.655444860E0,-2.443460934E-2
9.168896810E-1,5.968153477E-1,-1.638340592E0,-8.552113548E-3
9.189038410E-1,5.943718553E-1,-1.631010175E0,1.221730490E-3
9.209180010E-1,5.864306092E-1,-1.615127683E0,1.893682219E-2
9.229016440E-1,5.687155724E-1,-1.611462474E0,4.153883830E-2
9.248547690E-1,5.638286471E-1,-1.612073421E0,5.253441259E-2
9.268689290E-1,5.436700583E-1,-1.618792892E0,8.063421398E-2
9.288830890E-1,5.375614166E-1,-1.619403720E0,9.346238524E-2
9.308667320E-1,5.161811113E-1,-1.626734138E0,1.258382350E-1
9.328808920E-1,4.954117239E-1,-1.635286212E0,1.576032341E-1
9.348645350E-1,4.844161272E-1,-1.635286212E0,1.728748679E-1
9.368481770E-1,4.581489265E-1,-1.629788518E0,2.028072625E-1
9.388623370E-1,4.300491214E-1,-1.618792892E0,2.339613885E-1
9.408459800E-1,4.178318381E-1,-1.610240817E0,2.486221492E-1
9.428906580E-1,3.854559660E-1,-1.594969153E0,2.748893499E-1
9.448437830E-1,3.561344445E-1,-1.578475833E0,2.993239760E-1
9.468274250E-1,3.402519524E-1,-1.577254057E0,3.090978265E-1
9.488415850E-1,3.103195429E-1,-1.578475833E0,3.262020350E-1
9.508252280E-1,2.871066630E-1,-1.578475833E0,3.359758854E-1
9.528393880E-1,2.755002379E-1,-1.576032281E0,3.396410644E-1
9.548535480E-1,2.510656118E-1,-1.583362699E0,3.475823104E-1
9.568066730E-1,2.388483137E-1,-1.583973527E0,3.591887653E-1
9.588208330E-1,2.321287990E-1,-1.585806131E0,3.695734739E-1
9.608044760E-1,2.211332172E-1,-1.580308437E0,3.824016452E-1
9.628491540E-1,2.150245607E-1,-1.582751870E0,3.988949955E-1
9.648022790E-1,2.144137025E-1,-1.583973527E0,4.098905921E-1
9.668164390E-1,2.168571651E-1,-1.581530094E0,4.233296216E-1
9.688305990E-1,2.162462920E-1,-1.581530094E0,4.300491214E-1
9.707837240E-1,2.254092693E-1,-1.583362699E0,4.453207552E-1
9.727978840E-1,2.388483137E-1,-1.591303945E0,4.581489265E-1
9.747815270E-1,2.425135076E-1,-1.593136549E0,4.630358517E-1
9.767956870E-1,2.577851415E-1,-1.585195303E0,4.746423066E-1
9.788098470E-1,2.700024247E-1,-1.581530094E0,4.923573732E-1
9.807629720E-1,2.761110961E-1,-1.579697490E0,4.972442985E-1
9.828076500E-1,2.950479090E-1,-1.576643229E0,5.149593949E-1
9.847607750E-1,3.054326177E-1,-1.538158655E0,5.387831330E-1
9.867749350E-1,3.048217595E-1,-1.511891484E0,5.540547967E-1
9.887585770E-1,3.060434759E-1,-1.452637553E0,6.010913849E-1
9.907422200E-1,3.017674387E-1,-1.397659659E0,6.548475623E-1
9.927563800E-1,2.981022298E-1,-1.373225093E0,6.798930168E-1
9.947400230E-1,2.877175212E-1,-1.330464482E0,7.367035151E-1
9.967541830E-1,2.706133127E-1,-1.293201685E0,7.892379165E-1
9.987683430E-1,2.620611787E-1,-1.273653984E0,8.136724830E-1
1.000721468E0,2.315179259E-1,-1.241889000E0,8.753699064E-1
1.002766146E0,2.125810981E-1,-1.222952247E0,9.083566070E-1
1.004719271E0,1.655444801E-1,-1.187522054E0,9.779952765E-1
1.006733431E0,1.160643995E-1,-1.165530920E0,1.036638379E0
1.008686556E0,8.918632567E-2,-1.157589674E0,1.061072946E0
1.010700716E0,2.748893574E-2,-1.142318010E0,1.111163855E0
1.012684359E0,-4.092797264E-2,-1.117883444E0,1.164919972E0
1.014668001E0,-7.452555746E-2,-1.103833556E0,1.187522054E0
1.016682161E0,-1.490511149E-1,-1.095892191E0,1.235169530E0
1.018635286E0,-2.247984111E-1,-1.097724795E0,1.272432327E0
1.020649447E0,-2.638937831E-1,-1.103833556E0,1.293812633E0
1.022663607E0,-3.414736688E-1,-1.114829063E0,1.329853654E0
1.024647249E0,-4.196644127E-1,-1.135598540E0,1.360396862E0
1.026630892E0,-4.563163519E-1,-1.160033107E0,1.373225093E0
1.028614535E0,-5.320636034E-1,-1.189354658E0,1.395827055E0
1.030628695E0,-6.010913849E-1,-1.235169530E0,1.416596532E0
1.032612337E0,-6.316346526E-1,-1.262047648E0,1.428813815E0
1.034626497E0,-6.927211881E-1,-1.328631878E0,1.441641927E0
1.036640658E0,-7.208209634E-1,-1.367116451E0,1.441641927E0
1.038593783E0,-7.751879692E-1,-1.439198494E0,1.442863703E0
1.040607943E0,-8.240572214E-1,-1.510669708E0,1.448361516E0
1.042622103E0,-8.448266387E-1,-1.555873752E0,1.450804949E0
1.044605745E0,-8.796459436E-1,-1.645671010E0,1.450194120E0
1.046589388E0,-9.034696817E-1,-1.747685432E0,1.439198494E0
1.048573031E0,-9.150761366E-1,-1.794111252E0,1.430646420E0
1.050587191E0,-9.321803451E-1,-1.888184428E0,1.422094345E0
1.052540316E0,-9.382890463E-1,-1.972483873E0,1.418429136E0
1.054554476E0,-9.407324791E-1,-2.011579275E0,1.411098719E0
1.056538118E0,-9.321803451E-1,-2.099543810E0,1.394605398E0
1.058552279E0,-9.181304574E-1,-2.176512957E0,1.368949056E0
1.060566439E0,-9.095783234E-1,-2.208888769E0,1.358564258E0
1.062550081E0,-8.906415105E-1,-2.255925417E0,1.334740520E0
1.064533724E0,-8.765916228E-1,-2.277916431E0,1.321912408E0
1.066486849E0,-8.497135639E-1,-2.315790176E0,1.297477722E0
1.068501009E0,-8.216137290E-1,-2.335337877E0,1.267545342E0
1.070515169E0,-8.063421249E-1,-2.340835571E0,1.257771492E0
1.072468294E0,-7.733554244E-1,-2.339003086E0,1.233947754E0
1.074482454E0,-7.428121567E-1,-2.332283497E0,1.202182770E0
1.076466097E0,-7.238753438E-1,-2.325563908E0,1.183246017E0
1.078480257E0,-6.902777553E-1,-2.301129341E0,1.143539786E0
1.080494417E0,-6.603453159E-1,-2.268753529E0,1.108720422E0
1.082478060E0,-6.426302195E-1,-2.255314589E0,1.090394497E0
1.084431185E0,-6.133087277E-1,-2.229658127E0,1.051299095E0
1.086414827E0,-5.754350424E-1,-2.202780008E0,1.007927656E0
1.088428988E0,-5.552765131E-1,-2.186897516E0,9.859365225E-1
1.090382113E0,-5.167919993E-1,-2.145969629E0,9.407324791E-1
1.092396273E0,-4.789183438E-1,-2.102598190E0,8.961393237E-1
1.094379915E0,-4.618141353E-1,-2.080606937E0,8.753699064E-1
1.096394076E0,-4.190535545E-1,-2.030516148E0,8.246681094E-1
1.098408236E0,-3.976732790E-1,-2.008524895E0,7.959573865E-1
1.100361361E0,-3.500257730E-1,-1.966986060E0,7.422012687E-1
1.102406038E0,-3.005456924E-1,-1.915062547E0,6.823364496E-1
1.104359163E0,-2.767219543E-1,-1.887573600E0,6.524040699E-1
1.106373324E0,-2.235766798E-1,-1.833817482E0,5.931501389E-1
1.108356966E0,-1.740965992E-1,-1.771509171E0,5.393940210E-1
1.110340609E0,-1.447750628E-1,-1.741576791E0,5.076290369E-1
1.112354769E0,-9.407325089E-2,-1.674992561E0,4.575380683E-1
1.114307894E0,-4.337143153E-2,-1.615738630E0,4.123340547E-1
1.116322054E0,-2.015855350E-2,-1.583973527E0,3.903428912E-1
1.118305697E0,2.932153270E-2,-1.530828357E0,3.579670191E-1
1.120319857E0,7.147123665E-2,-1.480126500E0,3.323107064E-1
1.122364535E0,9.162978828E-2,-1.455691934E0,3.249803185E-1
1.124317660E0,1.288925707E-1,-1.404990077E0,3.133738637E-1
1.126331820E0,1.624901593E-1,-1.362229466E0,3.017674387E-1
1.128315462E0,1.789835095E-1,-1.340238333E0,2.987131178E-1
1.130329622E0,2.015855312E-1,-1.302364707E0,2.883284092E-1
1.132343783E0,2.119702399E-1,-1.282206178E0,2.858849466E-1
1.134327425E0,2.345722616E-1,-1.237002134E0,2.797762752E-1
1.136341585E0,2.486221492E-1,-1.196684957E0,2.785545588E-1
1.138325228E0,2.541199327E-1,-1.178359032E0,2.767219543E-1
1.140308870E0,2.638937831E-1,-1.143539786E0,2.669481039E-1
1.142353548E0,2.632829249E-1,-1.119105101E0,2.565633953E-1
1.144306673E0,2.632829249E-1,-1.106276989E0,2.498438805E-1
1.146320833E0,2.553416789E-1,-1.091616154E0,2.388483137E-1
1.148304476E0,2.455678284E-1,-1.087950945E0,2.229658216E-1
1.150288118E0,2.370157093E-1,-1.087950945E0,2.138028294E-1
1.152302279E0,2.174680233E-1,-1.092837930E0,2.083050460E-1
1.154285921E0,1.985312104E-1,-1.105666041E0,2.028072625E-1
1.156300081E0,1.887573600E-1,-1.111774802E0,2.034181207E-1
1.158314242E0,1.679879427E-1,-1.129489779E0,2.015855312E-1
1.160297884E0,1.496619880E-1,-1.145983219E0,2.052507252E-1
1.162342562E0,1.362229437E-1,-1.161254883E0,2.101376504E-1
1.164295687E0,1.197295859E-1,-1.178969979E0,2.162462920E-1
1.166309847E0,1.001819000E-1,-1.193630695E0,2.229658216E-1
1.168293490E0,9.162978828E-2,-1.202182770E0,2.241875380E-1
1.170307650E0,7.819075137E-2,-1.224784851E0,2.345722616E-1
1.172321810E0,6.169738993E-2,-1.251052022E0,2.419026345E-1
1.174274935E0,5.314527452E-2,-1.265101910E0,2.486221492E-1
1.176289095E0,3.543018550E-2,-1.302975535E0,2.583959997E-1
1.178272738E0,2.932153270E-2,-1.324966669E0,2.614503205E-1
1.180286898E0,1.588249579E-2,-1.375057697E0,2.700024247E-1
1.182331576E0,0.000000000E0,-1.428813815E0,2.809980214E-1
1.184254183E0,-4.276056774E-3,-1.459967971E0,2.846632004E-1
1.186268343E0,-2.015855350E-2,-1.523497939E0,2.883284092E-1
1.188251986E0,-3.481931984E-2,-1.588249683E0,2.944370508E-1
1.190266146E0,-4.092797264E-2,-1.616349459E0,2.993239760E-1
1.192280306E0,-5.803219974E-2,-1.679268599E0,3.005456924E-1
1.194233431E0,-7.391469181E-2,-1.733635545E0,2.907718420E-1
1.196247591E0,-8.246681094E-2,-1.761124492E0,2.840523422E-1
1.198231234E0,-1.044579595E-1,-1.811826348E0,2.675589919E-1
1.200214876E0,-1.233947799E-1,-1.858252048E0,2.357939780E-1
1.202259554E0,-1.331686229E-1,-1.871080279E0,2.150245607E-1
1.204212679E0,-1.508837193E-1,-1.911397338E0,1.667662114E-1
1.206226839E0,-1.649336219E-1,-1.943773150E0,1.148426682E-1
1.208210482E0,-1.704314053E-1,-1.962099195E0,8.918632567E-2
1.210224642E0,-1.789835095E-1,-1.993253350E0,3.420845419E-2
1.212238802E0,-1.808161139E-1,-1.999972820E0,9.162978269E-3
1.214191927E0,-1.777617931E-1,-2.026240110E0,-3.115412779E-2
1.216206087E0,-1.685988009E-1,-2.043344259E0,-6.475171447E-2
1.218189730E0,-1.612684280E-1,-2.051285505E0,-7.696902007E-2
1.220173372E0,-1.435533315E-1,-2.075109243E0,-9.101892263E-2
1.222187533E0,-1.203404516E-1,-2.092213392E0,-9.590584040E-2
1.224140658E0,-1.093448773E-1,-2.104430676E0,-9.346238524E-2
1.226154818E0,-8.429940045E-2,-2.129476309E0,-8.918632567E-2
1.228138460E0,-5.375614017E-2,-2.156354427E0,-7.880161703E-2
1.230152620E0,-3.970624134E-2,-2.167349815E0,-7.330382615E-2
1.232136263E0,-1.221730467E-2,-2.193617105E0,-6.780604273E-2
1.234119906E0,1.466076635E-2,-2.218051672E0,-5.986479297E-2
1.236134066E0,2.504547499E-2,-2.226603746E0,-5.253441259E-2
1.238117708E0,5.192354694E-2,-2.246151447E0,-5.070181563E-2
1.240131868E0,6.902777404E-2,-2.246151447E0,-5.314527452E-2
1.242146029E0,7.574728876E-2,-2.246762276E0,-5.742133409E-2
1.244129671E0,9.162978828E-2,-2.230879784E0,-6.230825558E-2
1.246113314E0,9.651670605E-2,-2.222938538E0,-6.597344577E-2
1.248127474E0,1.062905490E-1,-2.204612732E0,-7.269296050E-2
1.250141634E0,1.056796908E-1,-2.179567099E0,-8.063421398E-2
1.252125277E0,1.087340117E-1,-2.163073778E0,-8.429940045E-2
1.254139437E0,1.075122803E-1,-2.136195660E0,-8.796459436E-2
1.256123079E0,1.056796908E-1,-2.108095884E0,-8.246681094E-2
1.258106722E0,1.001819000E-1,-2.097711325E0,-8.185594529E-2
1.260120882E0,9.101892263E-2,-2.076330900E0,-7.757988572E-2
1.262135042E0,7.513642311E-2,-2.057394028E0,-7.147123665E-2
1.264118685E0,6.658431143E-2,-2.048841953E0,-7.086037099E-2
1.266102327E0,4.642575979E-2,-2.028683424E0,-7.391469181E-2
1.268085970E0,2.748893574E-2,-1.999972820E0,-7.086037099E-2
1.270100130E0,1.710422710E-2,-1.983479500E0,-7.024950534E-2
1.272053255E0,-9.162978269E-3,-1.944994926E0,-6.475171447E-2
1.274067415E0,-3.359758854E-2,-1.891238809E0,-5.864306539E-2
1.276051058E0,-4.764748737E-2,-1.858862996E0,-5.497787148E-2
1.278034701E0,-7.941248268E-2,-1.786170006E0,-4.459316283E-2
1.280048861E0,-9.712757170E-2,-1.747074604E0,-3.665191308E-2
1.282063021E0,-1.295034289E-1,-1.668272972E0,-2.504547499E-2
1.284046663E0,-1.722639948E-1,-1.583362699E0,-1.404990070E-2
1.286030306E0,-1.924225539E-1,-1.532050014E0,-1.099557430E-2
1.288044466E0,-2.327396572E-1,-1.435533285E0,-3.054326167E-3
1.290058626E0,-2.791654170E-1,-1.335351467E0,-1.221730490E-3
1.292042269E0,-2.999348342E-1,-1.285871387E0,-6.108652451E-4
1.294056429E0,-3.384193480E-1,-1.197906733E0,-3.054326167E-3
1.296040072E0,-3.793473244E-1,-1.121548533E0,-1.282817032E-2
1.298023714E0,-3.964515328E-1,-1.089783549E0,-1.771509275E-2
1.300037874E0,-4.202753007E-1,-1.039692640E0,-3.604105115E-2
1.302021517E0,-4.434881806E-1,-9.993755221E-1,-6.475171447E-2
1.304005160E0,-4.477642179E-1,-9.853256345E-1,-7.941248268E-2
1.305988802E0,-4.508185387E-1,-9.761626720E-1,-1.148426682E-1
1.308002962E0,-4.453207552E-1,-9.816604257E-1,-1.514945775E-1
1.309986605E0,-4.343251884E-1,-9.896016717E-1,-1.722639948E-1
1.311970247E0,-4.074471295E-1,-1.009760261E0,-2.186897546E-1
1.313984408E0,-3.720169365E-1,-1.042747021E0,-2.675589919E-1
1.315968050E0,-3.494149148E-1,-1.058629513E0,-2.877175212E-1
1.317951693E0,-2.981022298E-1,-1.094670534E0,-3.365867436E-1
1.319965853E0,-2.693915665E-1,-1.114218235E0,-3.597996235E-1
1.321949495E0,-2.095267773E-1,-1.156978726E0,-3.988949955E-1
1.323902620E0,-1.404990107E-1,-1.204626322E0,-4.367686510E-1
1.325916781E0,-1.032362282E-1,-1.225395679E0,-4.532620013E-1
1.327900423E0,-2.443460934E-2,-1.277319193E0,-4.813618064E-1
1.329884066E0,5.497787148E-2,-1.331075311E0,-5.027421117E-1
1.331898226E0,9.285151958E-2,-1.359175205E0,-5.094616413E-1
1.333881868E0,1.594358236E-1,-1.415374756E0,-5.271766782E-1
1.335896029E0,2.223549485E-1,-1.464244008E0,-5.418374538E-1
1.337910189E0,2.504547536E-1,-1.485624313E0,-5.448917747E-1
1.339893831E0,2.968805134E-1,-1.527163148E0,-5.516113043E-1
1.341938509E0,3.298672438E-1,-1.561371565E0,-5.589417219E-1
1.343891634E0,3.408628106E-1,-1.572367191E0,-5.632177591E-1
1.345875277E0,3.536909819E-1,-1.586417079E0,-5.662720799E-1
1.347889437E0,3.512475193E-1,-1.592525721E0,-5.711590052E-1
1.349842562E0,3.494149148E-1,-1.587638736E0,-5.742133260E-1
1.351856722E0,3.323107064E-1,-1.577254057E0,-5.711590052E-1
1.353840365E0,3.145956099E-1,-1.567480206E0,-5.723807216E-1
1.355824007E0,2.828305960E-1,-1.543045640E0,-5.723807216E-1
1.357838167E0,2.480112910E-1,-1.516167521E0,-5.742133260E-1
1.359791292E0,2.278527319E-1,-1.500285029E0,-5.711590052E-1
1.361835970E0,1.838704348E-1,-1.464854836E0,-5.729916096E-1
1.363789095E0,1.453859210E-1,-1.426981211E0,-5.736024380E-1
1.365803255E0,1.264491081E-1,-1.403768301E0,-5.748242140E-1
1.367786898E0,8.796459436E-2,-1.360396862E0,-5.699372888E-1
1.369770540E0,5.375614017E-2,-1.304808140E0,-5.583308339E-1
1.371784701E0,3.787364438E-2,-1.271821499E0,-5.552765131E-1
1.373768343E0,3.054326167E-3,-1.199739337E0,-5.357288122E-1
1.375782503E0,-3.176499158E-2,-1.118494272E0,-5.137376785E-1
1.377796663E0,-4.703662544E-2,-1.081231475E0,-5.002986193E-1
1.379749788E0,-7.574728876E-2,-9.969320893E-1,-4.697553813E-1
1.381794466E0,-9.896016866E-2,-9.242390990E-1,-4.361577928E-1
1.383747591E0,-1.087340117E-1,-8.820894361E-1,-4.184426963E-1
1.385761751E0,-1.209513173E-1,-8.210029006E-1,-3.848451078E-1
1.387745394E0,-1.233947799E-1,-7.922922373E-1,-3.714060783E-1
1.389729036E0,-1.185078546E-1,-7.367035151E-1,-3.304781020E-1
1.391743197E0,-1.093448773E-1,-6.951646209E-1,-2.968805134E-1
1.393726839E0,-1.038470939E-1,-6.780604124E-1,-2.846632004E-1
1.395740999E0,-8.552113175E-2,-6.499606371E-1,-2.590068579E-1
1.397724642E0,-5.803219974E-2,-6.273586154E-1,-2.345722616E-1
1.399708285E0,-4.214970022E-2,-6.218608022E-1,-2.260201424E-1
1.401752962E0,-7.941247895E-3,-6.133087277E-1,-2.058615834E-1
1.403706087E0,2.871066704E-2,-6.096435189E-1,-1.912008226E-1
1.405720247E0,4.825835302E-2,-6.126978397E-1,-1.844813079E-1
1.407703890E0,8.552113175E-2,-6.224716902E-1,-1.753183305E-1
1.409687533E0,1.178969890E-1,-6.346889734E-1,-1.661553532E-1
1.411701693E0,1.356120855E-1,-6.444628239E-1,-1.594358236E-1
1.413685335E0,1.588249654E-1,-6.652322412E-1,-1.502728462E-1
1.415699495E0,1.802052408E-1,-6.884451509E-1,-1.411098689E-1
1.417683138E0,1.875356287E-1,-6.939429045E-1,-1.411098689E-1
1.419666781E0,1.973094791E-1,-7.043276429E-1,-1.343903542E-1
1.421711458E0,2.009746730E-1,-7.055493593E-1,-1.270599663E-1
1.423664583E0,2.052507252E-1,-7.055493593E-1,-1.185078546E-1
1.425678743E0,2.046398520E-1,-7.037167549E-1,-1.081231460E-1
1.427662386E0,2.046398520E-1,-7.031059265E-1,-9.896016866E-2
1.429676546E0,1.991420686E-1,-6.921103001E-1,-8.002334833E-2
1.431690706E0,1.918116808E-1,-6.847799420E-1,-5.681046844E-2
1.433643831E0,1.893682331E-1,-6.798930168E-1,-4.337143153E-2
1.435657992E0,1.808161139E-1,-6.762278080E-1,-2.260201424E-2
1.437641634E0,1.710422635E-1,-6.866125464E-1,2.443460980E-3
1.439655794E0,1.692096740E-1,-6.902777553E-1,1.282817032E-2
1.441669954E0,1.637118906E-1,-7.037167549E-1,3.481931984E-2
1.443623079E0,1.576032341E-1,-7.263187766E-1,5.681046844E-2
1.445637240E0,1.533271819E-1,-7.373143435E-1,7.086037099E-2
1.447590365E0,1.539380401E-1,-7.635815740E-1,9.468411654E-2
1.449604525E0,1.533271819E-1,-7.910705209E-1,1.203404516E-1
1.451588167E0,1.569923609E-1,-8.032878041E-1,1.313360333E-1
1.453602327E0,1.631010175E-1,-8.277224302E-1,1.606575549E-1
1.455616488E0,1.649336219E-1,-8.374962807E-1,1.753183305E-1
1.457600130E0,1.753183305E-1,-8.631525636E-1,2.009746730E-1
1.459614290E0,1.869247705E-1,-8.814785480E-1,2.327396572E-1
1.461628451E0,1.942551434E-1,-8.955284357E-1,2.492330223E-1
1.463581576E0,2.052507252E-1,-9.169087410E-1,2.736676335E-1
1.465565218E0,2.150245607E-1,-9.340129495E-1,2.974913716E-1
1.467548861E0,2.217440903E-1,-9.443976879E-1,3.072652221E-1
1.469593538E0,2.266310006E-1,-9.566149712E-1,3.274237812E-1
1.471577181E0,2.327396572E-1,-9.608910084E-1,3.414736688E-1
1.473560824E0,2.333505303E-1,-9.633345008E-1,3.488040566E-1
1.475574984E0,2.412917763E-1,-9.529497623E-1,3.585779071E-1
1.477558626E0,2.425135076E-1,-9.382890463E-1,3.665191531E-1
1.479542269E0,2.492330223E-1,-9.297369123E-1,3.671300113E-1
1.481586947E0,2.541199327E-1,-9.083566070E-1,3.726277947E-1
1.483570589E0,2.663372457E-1,-8.704829812E-1,3.824016452E-1
1.485584749E0,2.742784917E-1,-8.521569967E-1,3.848451078E-1
1.487537874E0,2.968805134E-1,-8.045095205E-1,3.995058835E-1
1.489552035E0,3.078760803E-1,-7.696902156E-1,4.043927789E-1
1.491535677E0,3.378084898E-1,-6.988298297E-1,4.233296216E-1
1.493549837E0,3.652974069E-1,-6.298020482E-1,4.422664344E-1
1.495533480E0,3.781255782E-1,-5.919284225E-1,4.508185387E-1
1.497517122E0,4.013384581E-1,-5.332853794E-1,4.740314186E-1
1.499531283E0,4.172209501E-1,-4.740314186E-1,4.899139404E-1
1.501545443E0,4.196644127E-1,-4.477642179E-1,5.015203953E-1
1.503529085E0,4.306600094E-1,-4.001167417E-1,5.149593949E-1
1.505512728E0,4.379903674E-1,-3.524692357E-1,5.369505286E-1
1.507496370E0,4.422664344E-1,-3.353650272E-1,5.442809463E-1
1.509510531E0,4.471533597E-1,-3.048217595E-1,5.552765131E-1
1.511494173E0,4.575380683E-1,-2.767219543E-1,5.693264008E-1
1.513508333E0,4.618141353E-1,-2.687807083E-1,5.772676468E-1
1.515491976E0,4.728097022E-1,-2.608394623E-1,5.870414972E-1
1.517475618E0,4.874704778E-1,-2.577851415E-1,5.943718553E-1
1.519489779E0,4.960225821E-1,-2.577851415E-1,5.998696685E-1
1.521503939E0,5.112941861E-1,-2.651155293E-1,6.108652353E-1
1.523487581E0,5.235115290E-1,-2.730567753E-1,6.236934066E-1
1.525471224E0,5.247332454E-1,-2.779437006E-1,6.304129362E-1
1.527454867E0,5.345070958E-1,-2.901609838E-1,6.432411075E-1
1.529469027E0,5.351179838E-1,-2.907718420E-1,6.487388611E-1
1.531452669E0,5.351179838E-1,-2.938261926E-1,6.627888083E-1
1.533466829E0,5.351179838E-1,-2.834414840E-1,6.792821288E-1
1.535450472E0,5.326744914E-1,-2.730567753E-1,6.860016584E-1
1.537434115E0,5.290092826E-1,-2.583959997E-1,6.969972253E-1
1.539448275E0,5.174028873E-1,-2.510656118E-1,7.134906054E-1
1.541462435E0,5.112941861E-1,-2.461786866E-1,7.189884186E-1
1.543446077E0,4.905247986E-1,-2.357939780E-1,7.269296646E-1
1.545429720E0,4.630358517E-1,-2.260201424E-1,7.367035151E-1
1.547413363E0,4.453207552E-1,-2.235766798E-1,7.403686643E-1
1.549427523E0,4.031710625E-1,-2.180788964E-1,7.525860071E-1
1.551411165E0,3.488040566E-1,-2.266310006E-1,7.580837607E-1
1.553425326E0,3.139847219E-1,-2.364048511E-1,7.593054771E-1
1.555408968E0,2.443460971E-1,-2.632829249E-1,7.574729323E-1
1.557392611E0,1.631010175E-1,-2.919935882E-1,7.476990819E-1
1.559406771E0,1.246165112E-1,-3.139847219E-1,7.440338731E-1
1.561420931E0,3.787364438E-2,-3.384193480E-1,7.446447611E-1
1.563404574E0,3.054326167E-3,-3.451388776E-1,7.458664775E-1
1.565388216E0,-5.742133409E-2,-3.481931984E-1,7.489207983E-1
1.567402376E0,-1.148426682E-1,-3.457497358E-1,7.599163651E-1
1.569386019E0,-1.343903542E-1,-3.316998184E-1,7.751879692E-1
1.571369661E0,-1.679879427E-1,-3.097086847E-1,8.100073338E-1
1.573383822E0,-2.021963894E-1,-2.846632004E-1,8.344419003E-1
1.575367464E0,-2.156354338E-1,-2.803871334E-1,8.442157507E-1
1.577381624E0,-2.480112910E-1,-2.809980214E-1,8.680394888E-1
1.579365267E0,-2.809980214E-1,-2.981022298E-1,8.912523985E-1
1.581379427E0,-3.023782969E-1,-3.090978265E-1,9.059131742E-1
1.583363070E0,-3.378084898E-1,-3.500257730E-1,9.266825914E-1
1.585316195E0,-3.622430861E-1,-3.964515328E-1,9.450085163E-1
1.587330355E0,-3.689626157E-1,-4.214970171E-1,9.517280459E-1
1.589313997E0,-3.781255782E-1,-4.789183438E-1,9.566149712E-1
1.591328158E0,-3.891211748E-1,-5.406157374E-1,9.523389339E-1
1.593342318E0,-3.921754956E-1,-5.766568184E-1,9.486737251E-1
1.595295443E0,-3.878994286E-1,-6.414085031E-1,9.370672703E-1
1.597309603E0,-3.885102868E-1,-6.737843752E-1,9.248499870E-1
1.599293245E0,-3.817907870E-1,-7.501425147E-1,9.016370773E-1
1.601307406E0,-3.695734739E-1,-8.197811842E-1,8.649851680E-1
1.603260531E0,-3.567453027E-1,-8.576548100E-1,8.448266387E-1
1.605244173E0,-3.158173263E-1,-9.162978530E-1,8.008443117E-1
1.607258333E0,-2.669481039E-1,-9.712757468E-1,7.605272532E-1
1.609241976E0,-2.388483137E-1,-9.889908433E-1,7.464773059E-1
1.611256136E0,-1.832595766E-1,-1.029918790E0,7.134906054E-1
1.613270296E0,-1.282816976E-1,-1.065348983E0,6.933320761E-1
1.615253939E0,-1.050688252E-1,-1.072068453E0,6.835582256E-1
1.617268099E0,-5.864306539E-2,-1.078788042E0,6.695083380E-1
1.619251742E0,-2.321287990E-2,-1.061072946E0,6.627888083E-1
1.621265902E0,-6.108652335E-3,-1.040914416E0,6.621779203E-1
1.623249544E0,2.626720630E-2,-9.908234477E-1,6.725626588E-1
1.625202669E0,5.192354694E-2,-9.205739498E-1,6.933320761E-1
1.627216829E0,6.291911751E-2,-8.790351152E-1,7.037167549E-1
1.629200472E0,6.902777404E-2,-8.106181622E-1,7.220427394E-1
1.631184115E0,7.147123665E-2,-7.733554244E-1,7.336491346E-1
1.633198275E0,7.269296050E-2,-7.092145681E-1,7.574729323E-1
1.635181917E0,7.024950534E-2,-6.615670323E-1,7.867944241E-1
1.637196077E0,6.780604273E-2,-6.450737119E-1,8.063421249E-1
1.639210238E0,6.719517708E-2,-6.328563690E-1,8.460483551E-1
1.641193880E0,7.757988572E-2,-6.359107494E-1,8.881980777E-1
1.643147005E0,7.819075137E-2,-6.432411075E-1,9.053022861E-1
1.645161165E0,9.224065393E-2,-6.847799420E-1,9.401215911E-1
1.647144808E0,1.099557430E-1,-7.263187766E-1,9.724974632E-1
1.649128451E0,1.197295859E-1,-7.458664775E-1,9.871582389E-1
1.651142611E0,1.417207420E-1,-7.929030657E-1,1.017701507E0
1.653126253E0,1.637118906E-1,-8.399397135E-1,1.052520871E0
1.655140413E0,1.814269722E-1,-8.637634516E-1,1.071457624E0
1.657154574E0,2.021963894E-1,-9.083566070E-1,1.100779176E0
1.659107699E0,2.296853364E-1,-9.517280459E-1,1.138041973E0
1.661152376E0,2.425135076E-1,-9.602801800E-1,1.157589674E0
1.663105501E0,2.626720667E-1,-9.902125597E-1,1.187522054E0
1.665119661E0,2.724458873E-1,-1.001208186E0,1.202182770E0
1.667103304E0,2.828305960E-1,-1.004262447E0,1.234558702E0
1.669086947E0,2.877175212E-1,-1.009760261E0,1.261436701E0
1.671101107E0,2.913827300E-1,-1.003040791E0,1.274264932E0
1.673084749E0,2.797762752E-1,-9.932668805E-1,1.299310327E0
1.675098910E0,2.553416789E-1,-9.908234477E-1,1.313971162E0
1.677082552E0,2.394591719E-1,-9.883799553E-1,1.321301579E0
1.679066195E0,1.991420686E-1,-9.914342761E-1,1.327410221E0
1.681110872E0,1.588249654E-1,-1.004262447E0,1.338405728E0
1.683063997E0,1.423316002E-1,-9.963212013E-1,1.349401355E0
1.685078158E0,1.032362282E-1,-9.902125597E-1,1.372003317E0
1.687061800E0,8.063421398E-2,-9.700540304E-1,1.404379249E0
1.689075960E0,7.147123665E-2,-9.590584636E-1,1.421483397E0
1.691090120E0,5.375614017E-2,-9.474520087E-1,1.442863703E0
1.693043245E0,2.932153270E-2,-9.560040832E-1,1.460578799E0
1.695057406E0,1.466076635E-2,-9.663888216E-1,1.464854836E0
1.697041048E0,-2.443460980E-3,-9.578366876E-1,1.484402537E0
1.699024691E0,-3.054326167E-3,-9.608910084E-1,1.489900351E0
1.701038851E0,-8.552113548E-3,-9.700540304E-1,1.501506805E0
1.702991976E0,-2.138028294E-2,-9.633345008E-1,1.512502313E0
1.705006136E0,-2.260201424E-2,-9.541715384E-1,1.519832730E0
1.706989779E0,-3.237585723E-2,-9.529497623E-1,1.514945865E0
1.709003939E0,-4.459316283E-2,-9.535606503E-1,1.505782843E0
1.710987581E0,-5.803219974E-2,-9.572258592E-1,1.500895858E0
1.712971224E0,-6.597344577E-2,-9.590584636E-1,1.486845970E0
1.714985384E0,-7.391469181E-2,-9.120218158E-1,1.464244008E0
1.716969027E0,-8.002334833E-2,-9.089674950E-1,1.453248382E0
1.718983187E0,-9.651670605E-2,-8.710938692E-1,1.434922457E0
1.720997347E0,-1.166752651E-1,-8.173376918E-1,1.411098719E0
1.722980990E0,-1.276708394E-1,-8.075638413E-1,1.403157473E0
1.724964632E0,-1.588249654E-1,-7.660250068E-1,1.390940189E0
1.726948275E0,-1.857030392E-1,-7.195992470E-1,1.376890302E0
1.728962435E0,-1.960877478E-1,-6.976081133E-1,1.368338108E0
1.730915560E0,-2.193006277E-1,-6.847799420E-1,1.354288220E0
1.732929720E0,-2.254092693E-1,-6.743952036E-1,1.348179579E0
1.734913363E0,-2.388483137E-1,-6.682865620E-1,1.339627504E0
1.736897005E0,-2.333505303E-1,-6.933320761E-1,1.336573124E0
1.738911165E0,-2.339613885E-1,-7.031059265E-1,1.339627504E0
1.740925326E0,-2.138028294E-1,-7.513642311E-1,1.339016676E0
1.742908968E0,-2.034181207E-1,-7.880161405E-1,1.340849161E0
1.744892611E0,-1.979203373E-1,-8.265006542E-1,1.338405728E0
1.746876253E0,-1.820378453E-1,-8.906415105E-1,1.340238333E0
1.748890413E0,-1.631010175E-1,-9.566149712E-1,1.350012183E0
1.750843538E0,-1.533271819E-1,-9.865473509E-1,1.351233959E0
1.752857699E0,-1.380555481E-1,-1.052520871E0,1.348790407E0
1.754841341E0,-1.209513173E-1,-1.105055213E0,1.349401355E0
1.756855501E0,-1.093448773E-1,-1.111774802E0,1.347568750E0
1.758869661E0,-8.124507964E-2,-1.149648428E0,1.335962296E0
1.760883822E0,-5.375614017E-2,-1.141707182E0,1.325577617E0
1.762867464E0,-5.497787148E-2,-1.134376764E0,1.331075311E0
1.764851107E0,-4.886921868E-2,-1.106276989E0,1.340849161E0
1.766865267E0,-6.230825558E-2,-1.133765936E0,1.358564258E0
1.768879427E0,-6.047565863E-2,-1.113607287E0,1.365894675E0
1.770832552E0,-6.597344577E-2,-1.108720422E0,1.386664152E0
1.772846712E0,-8.796459436E-2,-1.174082994E0,1.404990077E0
1.774830355E0,-8.979719132E-2,-1.174082994E0,1.424537778E0
1.776844515E0,-7.819075137E-2,-1.212567568E0,1.441641927E0
1.778858675E0,-6.658431143E-2,-1.201571941E0,1.450194120E0
1.780872835E0,-4.153883830E-2,-1.235780358E0,1.476461291E0
1.782856478E0,-3.970624134E-2,-1.258382440E0,1.511891484E0
1.784840120E0,-2.932153270E-2,-1.274264932E0,1.522276163E0
1.786854281E0,-3.176499158E-2,-1.301753879E0,1.534493446E0
1.788837923E0,-1.588249579E-2,-1.301753879E0,1.533882618E0
1.790821566E0,-2.871066704E-2,-1.361007810E0,1.547321677E0
1.792835726E0,-2.687807009E-2,-1.362229466E0,1.563204169E0
1.794819368E0,-1.771509275E-2,-1.369559884E0,1.565036774E0
1.796803011E0,-1.893682219E-2,-1.370170712E0,1.561371565E0
1.798817171E0,-1.832595794E-3,-1.337184072E0,1.544267297E0
1.800831331E0,-3.176499158E-2,-1.395216227E0,1.557095528E0
1.802784456E0,-2.504547499E-2,-1.404379249E0,1.558928132E0
1.804768099E0,-1.404990070E-2,-1.476461291E0,1.568091035E0
1.806782259E0,-2.076941915E-2,-1.492954612E0,1.578475833E0
1.808765902E0,1.282817032E-2,-1.514945865E0,1.573588848E0
1.810780062E0,6.108652335E-3,-1.629788518E0,1.601688623E0
1.812763704E0,1.466076635E-2,-1.683544636E0,1.611462474E0
1.814747347E0,3.726277873E-2,-1.714698792E0,1.615127683E0
1.816761507E0,5.986479297E-2,-1.764178872E0,1.620014668E0
1.818745150E0,7.819075137E-2,-1.771509171E0,1.616960287E0
1.820789827E0,7.330382615E-2,-1.858862996E0,1.649336219E0
1.822742952E0,9.590584040E-2,-1.921782017E0,1.663996935E0
1.824757113E0,9.834930301E-2,-1.960877419E0,1.667051196E0
1.826771273E0,1.099557430E-1,-2.015855312E0,1.676825047E0
1.828724398E0,1.032362282E-1,-2.092213392E0,1.700648785E0
1.830738558E0,1.130100712E-1,-2.124589205E0,1.698205352E0
1.832722201E0,1.417207420E-1,-2.189951897E0,1.667051196E0
1.834736361E0,1.814269722E-1,-2.202169180E0,1.651168704E0
1.836750521E0,1.912008226E-1,-2.232101679E0,1.651779652E0
1.838703646E0,2.083050460E-1,-2.315790176E0,1.679879427E0
1.840748324E0,1.985312104E-1,-2.372600555E0,1.705535769E0
1.842701449E0,1.905899495E-1,-2.415361166E0,1.721418262E0
1.844715609E0,1.960877478E-1,-2.442850113E0,1.722640038E0
1.846699251E0,1.966986060E-1,-2.479501963E0,1.723250866E0
1.848682894E0,2.034181207E-1,-2.550973177E0,1.700037956E0
1.850697054E0,2.364048511E-1,-2.615114212E0,1.684155464E0
1.852680697E0,2.547308207E-1,-2.635272741E0,1.679268599E0
1.854694857E0,3.060434759E-1,-2.648100853E0,1.671938181E0
1.856709017E0,3.078760803E-1,-2.724458933E0,1.717753053E0
1.858662142E0,3.213151097E-1,-2.735454559E0,1.722640038E0
1.860706820E0,3.072652221E-1,-2.829527855E0,1.766622305E0
1.862659945E0,3.176499307E-1,-2.896112204E0,1.781283021E0
1.864674105E0,3.268128932E-1,-2.951090097E0,1.800219893E0
1.866657747E0,3.481931984E-1,-3.065321684E0,1.806939363E0
1.868671908E0,3.903428912E-1,-3.167947054E0,1.820378423E0
1.870655550E0,4.178318381E-1,-3.208875179E0,1.832595706E0
1.872639193E0,4.557054639E-1,-3.269961596E0,1.873523712E0
1.874622835E0,4.813618064E-1,-3.291342020E0,1.888184428E0
1.876636995E0,5.106833577E-1,-3.311500549E0,1.923003793E0
1.878620638E0,5.186246037E-1,-3.318830967E0,1.951103568E0
1.880665316E0,5.308418870E-1,-3.303559303E0,1.941940665E0
1.882618441E0,5.607742667E-1,-3.268739939E0,1.905899525E0
1.884632601E0,6.047565937E-1,-3.211929560E0,1.853365183E0
1.886616243E0,6.096435189E-1,-3.197268724E0,1.846645594E0
1.888630404E0,6.420193911E-1,-3.092199802E0,1.800219893E0
1.890644564E0,6.524040699E-1,-2.980411530E0,1.750128984E0
1.892597689E0,6.530149579E-1,-2.905885935E0,1.721418262E0
1.894611849E0,6.389650702E-1,-2.753780603E0,1.657277465E0
1.896595492E0,6.181956530E-1,-2.617557526E0,1.574810624E0
1.898609652E0,6.151412725E-1,-2.547919035E0,1.530828357E0
1.900623812E0,6.126978397E-1,-2.360383272E0,1.455080986E0
1.902576937E0,6.133087277E-1,-2.164295673E0,1.391551018E0
1.904591097E0,6.151412725E-1,-2.075720072E0,1.368949056E0
1.906544222E0,5.919284225E-1,-1.916895151E0,1.351233959E0
1.908558382E0,5.687155724E-1,-1.745242000E0,1.329853654E0
1.910542025E0,5.619960427E-1,-1.651168704E0,1.309695125E0
1.912556185E0,5.461135507E-1,-1.496008992E0,1.263269305E0
1.914570345E0,5.393940210E-1,-1.428813815E0,1.239445567E0
1.916523470E0,5.338962078E-1,-1.314581990E0,1.196074128E0
1.918537630E0,5.363397002E-1,-1.238834739E0,1.174082994E0
1.920551790E0,5.406157374E-1,-1.219897866E0,1.170417786E0
1.922535433E0,5.619960427E-1,-1.172250390E0,1.169196129E0
1.924519076E0,5.900958180E-1,-1.091616154E0,1.157589674E0
1.926502718E0,6.120869517E-1,-1.045190454E0,1.149037480E0
1.928516878E0,6.420193911E-1,-9.773843884E-1,1.134376764E0
1.930500521E0,6.695083380E-1,-9.401215911E-1,1.119716048E0
1.932514681E0,6.768386960E-1,-9.285151958E-1,1.116050839E0
1.934498324E0,6.908885837E-1,-9.199630618E-1,1.112996459E0
1.936481966E0,7.049384713E-1,-9.230173826E-1,1.104444385E0
1.938496126E0,7.073819637E-1,-9.230173826E-1,1.100168347E0
1.940510286E0,7.195992470E-1,-9.254608750E-1,1.094670534E0
1.942493929E0,7.299839854E-1,-9.199630618E-1,1.090394497E0
1.944477572E0,7.360926270E-1,-9.272934198E-1,1.091005325E0
1.946461214E0,7.428121567E-1,-9.462302923E-1,1.100779176E0
1.948444857E0,7.483099103E-1,-9.541715384E-1,1.111163855E0
1.950428499E0,7.629706860E-1,-9.572258592E-1,1.114829063E0
1.952442660E0,7.812966704E-1,-9.492846131E-1,1.120937705E0
1.954426302E0,7.922922373E-1,-9.468411207E-1,1.115439892E0
1.956409945E0,8.063421249E-1,-9.645562172E-1,1.120937705E0
1.958424105E0,8.142833710E-1,-1.016479731E0,1.147815824E0
1.960407747E0,8.136724830E-1,-1.054964304E0,1.172861218E0
1.962391390E0,8.185594082E-1,-1.122770309E0,1.224173903E0
1.964375033E0,8.277224302E-1,-1.176526427E0,1.277930140E0
1.966389193E0,8.326093554E-1,-1.194241524E0,1.298088670E0
1.968372835E0,8.405506015E-1,-1.219897866E0,1.327410221E0
1.970356478E0,8.448266387E-1,-1.230893493E0,1.354288220E0
1.972370638E0,8.472700715E-1,-1.227839112E0,1.364672899E0
1.974354281E0,8.411614299E-1,-1.211345792E0,1.364672899E0
1.976368441E0,8.258898258E-1,-1.174082994E0,1.331075311E0
1.978352083E0,8.130616546E-1,-1.161865711E0,1.315192819E0
1.980366243E0,7.715228200E-1,-1.140485406E0,1.302364707E0
1.982349886E0,7.513642311E-1,-1.132544160E0,1.307862520E0
1.984333529E0,7.318165898E-1,-1.130100727E0,1.345125318E0
1.986347689E0,7.257078886E-1,-1.144150615E0,1.404379249E0
1.988331331E0,7.250970602E-1,-1.153924465E0,1.436144233E0
1.990314974E0,7.354817390E-1,-1.159422278E0,1.478293896E0
1.992329134E0,7.556403279E-1,-1.146594048E0,1.498452425E0
1.994312777E0,7.678576112E-1,-1.129489779E0,1.503950238E0
1.996326937E0,7.855727077E-1,-1.095892191E0,1.512502313E0
1.998310579E0,7.929030657E-1,-1.054964304E0,1.517389297E0
2.000324740E0,7.892379165E-1,-1.039081812E0,1.519221902E0
2.002277865E0,7.825183868E-1,-1.020755768E0,1.532660842E0
2.004261507E0,7.629706860E-1,-1.022588372E0,1.545489073E0
2.006275667E0,7.513642311E-1,-1.017701507E0,1.549154282E0
2.008259310E0,7.373143435E-1,-1.015868902E0,1.552208543E0
2.010273470E0,7.202101350E-1,-1.006705880E0,1.546099901E0
2.012257113E0,7.141014934E-1,-1.006095052E0,1.546099901E0
2.014240755E0,7.012733221E-1,-1.012203693E0,1.560149789E0
2.016254915E0,6.957755089E-1,-1.020144939E0,1.568091035E0
2.018238558E0,6.866125464E-1,-1.058629513E0,1.593136549E0
2.020283236E0,6.853908300E-1,-1.099557400E0,1.612684250E0
2.022236361E0,6.866125464E-1,-1.116661668E0,1.621236324E0
2.024250521E0,7.018841505E-1,-1.161865711E0,1.628566742E0
2.026264681E0,7.165449262E-1,-1.210734963E0,1.625512362E0
2.028217806E0,7.226535678E-1,-1.236391306E0,1.629788518E0
2.030231966E0,7.385360599E-1,-1.295034289E0,1.626123309E0
2.032215609E0,7.489207983E-1,-1.365283847E0,1.621847272E0
2.034229769E0,7.519751191E-1,-1.399492264E0,1.629177570E0
2.036213411E0,7.586946487E-1,-1.468520045E0,1.639562368E0
2.038197054E0,7.611380816E-1,-1.530217409E0,1.652390480E0
2.040241732E0,7.617489696E-1,-1.564425945E0,1.660331726E0
2.042194857E0,7.660250068E-1,-1.612684250E0,1.666440368E0
2.044209017E0,7.635815740E-1,-1.646892667E0,1.673159957E0
2.046162142E0,7.580837607E-1,-1.654833913E0,1.672549009E0
2.048176302E0,7.281513810E-1,-1.678046823E0,1.678657651E0
2.050159945E0,7.098253965E-1,-1.685988069E0,1.679879427E0
2.052174105E0,6.664539576E-1,-1.682322860E0,1.685377240E0
2.054188265E0,6.175847650E-1,-1.695151091E0,1.689653277E0
2.056141390E0,5.931501389E-1,-1.696372747E0,1.694540143E0
2.058155550E0,5.448917747E-1,-1.692707539E0,1.701870561E0
2.060169710E0,5.070181489E-1,-1.681712031E0,1.702481389E0
2.062153353E0,4.917465150E-1,-1.671327353E0,1.703092337E0
2.064136995E0,4.538728893E-1,-1.659109950E0,1.698205352E0
2.066120638E0,4.153883755E-1,-1.650557876E0,1.694540143E0
2.068134798E0,3.952298164E-1,-1.647503614E0,1.692096710E0
2.070118441E0,3.591887653E-1,-1.637729764E0,1.683544636E0
2.072132601E0,3.139847219E-1,-1.634064555E0,1.669494748E0
2.074116243E0,2.962696552E-1,-1.629788518E0,1.664607763E0
2.076099886E0,2.541199327E-1,-1.610240817E0,1.653612256E0
2.078114046E0,2.180788964E-1,-1.583973527E0,1.642616630E0
2.080097689E0,1.991420686E-1,-1.566258430E0,1.629177570E0
2.082081331E0,1.667662114E-1,-1.540602207E0,1.596190929E0
2.084034456E0,1.551597714E-1,-1.530217409E0,1.574810624E0
2.086048617E0,1.398881376E-1,-1.491732955E0,1.538158655E0
2.088032259E0,1.368338168E-1,-1.424537778E0,1.505172014E0
2.090046419E0,1.386664063E-1,-1.378722906E0,1.486235142E0
2.092060579E0,1.374446750E-1,-1.301142931E0,1.448972344E0
2.094013704E0,1.240056455E-1,-1.216843605E0,1.408655286E0
2.096027865E0,1.142318025E-1,-1.174693823E0,1.386664152E0
2.098011507E0,8.979719132E-2,-1.081231475E0,1.348179579E0
2.100056185E0,6.047565863E-2,-9.914342761E-1,1.311527729E0
2.102009310E0,4.214970022E-2,-9.419541955E-1,1.289536476E0
2.104023470E0,1.404990070E-2,-8.405506015E-1,1.240056396E0
2.106037630E0,-1.099557430E-2,-7.422012687E-1,1.189965487E0
2.107990755E0,-2.138028294E-2,-6.878342628E-1,1.171028733E0
2.110004915E0,-3.787364438E-2,-5.980370641E-1,1.141707182E0
2.112019076E0,-5.131268129E-2,-5.149593949E-1,1.120937705E0
2.113972201E0,-5.681046844E-2,-4.740314186E-1,1.108109593E0
2.115986361E0,-6.597344577E-2,-4.025602043E-1,1.080620646E0
2.117970003E0,-6.841690838E-2,-3.720169365E-1,1.061683774E0
2.120014681E0,-7.086037099E-2,-3.237585723E-1,1.028697014E0
2.121967806E0,-6.475171447E-2,-2.883284092E-1,9.944885969E-1
2.123981966E0,-5.742133409E-2,-2.730567753E-1,9.798278809E-1
2.125965609E0,-4.214970022E-2,-2.437352389E-1,9.492846131E-1
2.127979769E0,-2.687807009E-2,-2.272418737E-1,9.162978530E-1
2.129963411E0,-1.832595654E-2,-2.254092693E-1,8.998045325E-1
2.131947054E0,-4.276056774E-3,-2.370157093E-1,8.692612648E-1
2.133961214E0,-2.443460980E-3,-2.785545588E-1,8.448266387E-1
2.135944857E0,0.000000000E0,-2.974913716E-1,8.301658630E-1
2.137959017E0,4.276056774E-3,-3.243694305E-1,7.971791625E-1
2.139973177E0,6.719517522E-3,-3.310889602E-1,7.617489696E-1
2.141926302E0,7.330383174E-3,-3.329215646E-1,7.464773059E-1
2.143940462E0,9.162978269E-3,-3.280346394E-1,7.110471725E-1
2.145893587E0,1.832595654E-2,-3.280346394E-1,6.731734872E-1
2.147907747E0,2.260201424E-2,-3.268128932E-1,6.530149579E-1
2.149891390E0,3.237585723E-2,-3.298672438E-1,6.133087277E-1
2.151905550E0,4.214970022E-2,-3.310889602E-1,5.949827433E-1
2.153919710E0,6.230825558E-2,-3.329215646E-1,5.595525503E-1
2.155872835E0,8.491026610E-2,-3.335324228E-1,5.253441334E-1
2.157886995E0,9.285151958E-2,-3.341432810E-1,5.106833577E-1
2.159901156E0,1.130100712E-1,-3.408628106E-1,4.758640230E-1
2.161884798E0,1.301143020E-1,-3.445279896E-1,4.416555762E-1
2.163868441E0,1.362229437E-1,-3.481931984E-1,4.257730842E-1
2.165852083E0,1.404990107E-1,-3.585779071E-1,3.842342496E-1
2.167866243E0,1.453859210E-1,-3.707951903E-1,3.347541690E-1
2.169849886E0,1.441642046E-1,-3.830125034E-1,3.097086847E-1
2.171864046E0,1.350012124E-1,-4.068362415E-1,2.577851415E-1
2.173847689E0,1.264491081E-1,-4.257730842E-1,2.040289938E-1
2.175831331E0,1.191187203E-1,-4.459316432E-1,1.771509200E-1
2.177845492E0,1.062905490E-1,-4.838052690E-1,1.258382350E-1
2.179859652E0,9.040805697E-2,-5.210680366E-1,7.757988572E-2
2.181843294E0,8.368854225E-2,-5.418374538E-1,5.131268129E-2
2.183826937E0,6.536258012E-2,-5.760459304E-1,1.221730490E-3
2.185841097E0,5.009094998E-2,-5.998696685E-1,-5.558873713E-2
2.187855257E0,4.398229718E-2,-6.169738770E-1,-8.185594529E-2
2.189838900E0,2.565634064E-2,-6.395758986E-1,-1.343903542E-1
2.191853060E0,1.588249579E-2,-6.475171447E-1,-1.655444801E-1
2.193867220E0,-3.665191587E-3,-6.603453159E-1,-2.162462920E-1
2.195820345E0,-2.321287990E-2,-6.646214128E-1,-2.638937831E-1
2.197834505E0,-2.809980139E-2,-6.591235995E-1,-2.871066630E-1
2.199848665E0,-4.459316283E-2,-6.530149579E-1,-3.268128932E-1
2.201801790E0,-6.047565863E-2,-6.340781450E-1,-3.646865487E-1
2.203785433E0,-6.719517708E-2,-6.273586154E-1,-3.817907870E-1
2.205799593E0,-8.735372871E-2,-6.273586154E-1,-3.775147200E-1
2.207783236E0,-1.032362282E-1,-6.163630486E-1,-3.530801237E-1
2.209797396E0,-1.087340117E-1,-6.163630486E-1,-3.365867436E-1
2.211781038E0,-1.185078546E-1,-6.004805565E-1,-3.011565804E-1
2.213764681E0,-1.307251602E-1,-5.852088928E-1,-2.553416789E-1
2.215778841E0,-1.441642046E-1,-5.803219676E-1,-2.278527319E-1
2.217762484E0,-1.789835095E-1,-5.638286471E-1,-1.850921661E-1
2.219807161E0,-2.083050460E-1,-5.448917747E-1,-1.429424733E-1
2.221760286E0,-2.351831198E-1,-5.418374538E-1,-1.301143020E-1
2.223774447E0,-2.907718420E-1,-5.320636034E-1,-1.032362282E-1
2.225788607E0,-3.225368559E-1,-5.369505286E-1,-8.429940045E-2
2.227741732E0,-4.037819207E-1,-5.607742667E-1,-5.070181563E-2
2.229755892E0,-5.002986193E-1,-5.797111392E-1,-1.649336144E-2
2.231739535E0,-5.534439087E-1,-5.943718553E-1,2.443460980E-3
2.233753695E0,-6.658431292E-1,-6.322455406E-1,3.237585723E-2
2.235767855E0,-7.861835957E-1,-6.621779203E-1,5.558873713E-2
2.237751497E0,-8.436049223E-1,-6.774495840E-1,6.536258012E-2
2.239796175E0,-9.517280459E-1,-6.914994717E-1,8.857546002E-2
2.241749300E0,-1.049466491E0,-7.024950385E-1,1.252273768E-1
2.243763460E0,-1.096503139E0,-7.067710757E-1,1.447750628E-1
2.245777620E0,-1.182635069E0,-7.189884186E-1,1.771509200E-1
2.247761263E0,-1.271210551E0,-7.141014934E-1,2.156354338E-1
2.249775423E0,-1.308473349E0,-7.098253965E-1,2.406809032E-1
2.251789583E0,-1.385442376E0,-6.939429045E-1,2.871066630E-1
2.253742708E0,-1.456913590E0,-6.890559793E-1,3.353650272E-1
2.255756868E0,-1.492343783E0,-6.933320761E-1,3.634648323E-1
2.257740511E0,-1.558928132E0,-6.927211881E-1,4.123340547E-1
2.259754671E0,-1.630399346E0,-7.055493593E-1,4.569272101E-1
2.261707796E0,-1.667662144E0,-7.092145681E-1,4.752531648E-1
2.263691439E0,-1.739744186E0,-7.305948138E-1,5.070181489E-1
2.265705599E0,-1.769676566E0,-7.385360599E-1,5.229006410E-1
2.267689242E0,-1.835039139E0,-7.556403279E-1,5.430592299E-1
2.269642367E0,-1.894293070E0,-7.782423496E-1,5.558874011E-1
2.271656527E0,-1.924225569E0,-7.941248417E-1,5.601634383E-1
2.273640169E0,-1.976759911E0,-8.191702962E-1,5.650503635E-1
2.275654329E0,-2.025018215E0,-8.491026759E-1,5.626068711E-1
2.277637972E0,-2.045787811E0,-8.613200188E-1,5.607742667E-1
2.279652132E0,-2.073276758E0,-8.753699064E-1,5.436700583E-1
2.281605257E0,-2.101987362E0,-8.918632865E-1,5.283984542E-1
2.283588900E0,-2.112371922E0,-9.010262489E-1,5.204572082E-1
2.285603060E0,-2.118480682E0,-8.961393237E-1,4.996877611E-1
2.287556185E0,-2.111150265E0,-8.729264140E-1,4.856378734E-1
2.289570345E0,-2.102598190E0,-8.588765264E-1,4.813618064E-1
2.291553988E0,-2.067167997E0,-8.155050874E-1,4.734205604E-1
2.293568148E0,-2.045176744E0,-7.892379165E-1,4.715879560E-1
2.295582308E0,-1.995085835E0,-7.360926270E-1,4.740314186E-1
2.297535433E0,-1.935221076E0,-6.798930168E-1,4.685336351E-1
2.299580111E0,-1.904677868E0,-6.530149579E-1,4.605923891E-1
2.301533236E0,-1.843591332E0,-5.974262357E-1,4.361577928E-1
2.303547396E0,-1.765400529E0,-5.546656251E-1,4.172209501E-1
2.305531038E0,-1.717753053E0,-5.265658498E-1,4.098905921E-1
2.307514681E0,-1.618182063E0,-4.453207552E-1,3.946189582E-1
2.309528841E0,-1.508226275E0,-3.518583775E-1,3.671300113E-1
2.311512484E0,-1.445918083E0,-3.023782969E-1,3.433062732E-1
2.313526644E0,-1.321912408E0,-2.162462920E-1,2.981022298E-1
2.315510286E0,-1.183856845E0,-1.472185254E-1,2.345722616E-1
2.317493929E0,-1.114829063E0,-1.160643995E-1,1.942551434E-1
2.319538607E0,-9.645562172E-1,-6.414084882E-2,1.154535338E-1
2.321491732E0,-8.087855577E-1,-2.626720630E-2,3.359758854E-2
2.323505892E0,-7.299839854E-1,-1.527163107E-2,-6.719517522E-3
2.325489535E0,-5.681046844E-1,9.162978269E-3,-7.757988572E-2
2.327473177E0,-4.844161272E-1,1.404990070E-2,-1.105666086E-1
2.329487337E0,-3.286454976E-1,2.871066704E-2,-1.753183305E-1
2.331440462E0,-1.838704348E-1,1.771509275E-2,-2.205223590E-1
2.333454622E0,-1.142318025E-1,1.282817032E-2,-2.449569702E-1
2.335438265E0,2.382374369E-2,3.665191587E-3,-2.828305960E-1
2.337421908E0,1.386664063E-1,-1.038470957E-2,-3.060434759E-1
2.339436068E0,1.924225539E-1,-1.282817032E-2,-3.164281845E-1
2.341389193E0,2.883284092E-1,-1.588249579E-2,-3.353650272E-1
2.343403353E0,3.671300113E-1,-1.282817032E-2,-3.543018401E-1
2.345386995E0,4.050036669E-1,-1.404990070E-2,-3.634648323E-1
2.347401156E0,4.642575979E-1,-2.443460980E-3,-3.940080702E-1
2.349384798E0,5.155702829E-1,1.527163107E-2,-4.288274050E-1
2.351368441E0,5.381723046E-1,2.993239649E-2,-4.520402849E-1
2.353382601E0,5.766568184E-1,7.452555746E-2,-5.057964325E-1
2.355366243E0,6.084218025E-1,1.178969890E-1,-5.913175344E-1
2.357380404E0,6.224716902E-1,1.466076523E-1,-6.383541822E-1
2.359394564E0,6.499606371E-1,2.180788964E-1,-7.470881939E-1
2.361378206E0,6.621779203E-1,2.522873580E-1,-8.032878041E-1
2.363361849E0,6.853908300E-1,3.133738637E-1,-9.205739498E-1
2.365345492E0,7.128797174E-1,3.775147200E-1,-1.046412110E0
2.367359652E0,7.281513810E-1,4.074471295E-1,-1.111774802E0
2.369343294E0,7.617489696E-1,4.654793143E-1,-1.245554209E0
2.371357454E0,8.020660877E-1,5.033529401E-1,-1.382387996E0
2.373371615E0,8.216137290E-1,5.222898126E-1,-1.448361516E0
2.375324740E0,8.686503768E-1,5.442809463E-1,-1.573588848E0
2.377338900E0,9.169087410E-1,5.479460955E-1,-1.690264106E0
2.379353060E0,9.443976879E-1,5.552765131E-1,-1.742798567E0
2.381336702E0,1.003040791E0,5.656611919E-1,-1.838704348E0
2.383320345E0,1.064738154E0,5.699372888E-1,-1.918116927E0
2.385303988E0,1.095281363E0,5.711590052E-1,-1.949881911E0
2.387318148E0,1.156978726E0,5.601634383E-1,-1.999972820E0
2.389271273E0,1.214400053E0,5.345070958E-1,-2.017687798E0
2.391285433E0,1.239445567E0,5.180137157E-1,-2.019520521E0
2.393269076E0,1.285260439E0,4.929682612E-1,-2.001805305E0
2.395283236E0,1.307862520E0,4.801400900E-1,-1.988366365E0
2.397297396E0,1.332907915E0,4.813618064E-1,-1.935221076E0
2.399311556E0,1.344514370E0,5.271766782E-1,-1.860084653E0
2.401295199E0,1.339016676E0,5.632177591E-1,-1.813048005E0
2.403278841E0,1.289536476E0,6.805039048E-1,-1.707979202E0
2.405293001E0,1.205847979E0,8.106181622E-1,-1.598634362E0
2.407307161E0,1.153313637E0,8.753699064E-1,-1.536326051E0
2.409260286E0,1.023199320E0,9.993755221E-1,-1.404379249E0
2.411274447E0,8.631525636E-1,1.114218235E0,-1.273653984E0
2.413258089E0,7.776314616E-1,1.166141748E0,-1.209513187E0
2.415272249E0,6.047565937E-1,1.291980028E0,-1.084285855E0
2.417286410E0,4.410447180E-1,1.416596532E0,-9.731083512E-1
2.419300570E0,3.671300113E-1,1.484402537E0,-9.242390990E-1
2.421284212E0,2.364048511E-1,1.627955914E0,-8.387179971E-1
2.423267855E0,1.337794960E-1,1.783726573E0,-7.586946487E-1
2.425251497E0,9.773843735E-2,1.858862996E0,-7.257078886E-1
2.427265658E0,4.581489414E-2,2.017076969E0,-6.682865620E-1
2.429218783E0,2.382374369E-2,2.192395449E0,-6.133087277E-1
2.431232943E0,2.199114859E-2,2.275473118E0,-5.894849896E-1
2.433216585E0,3.909537569E-2,2.445293665E0,-5.424483418E-1
2.435200228E0,5.436700583E-2,2.524706125E0,-5.253441334E-1
2.437214388E0,1.020144969E-1,2.668259382E0,-4.929682612E-1
2.439228548E0,1.551597714E-1,2.786767244E0,-4.728097022E-1
2.441212191E0,1.893682331E-1,2.834414721E0,-4.667010605E-1
2.443165316E0,2.706133127E-1,2.901609898E0,-4.642575979E-1
2.445179476E0,3.567453027E-1,2.931542397E0,-4.642575979E-1
2.447163118E0,4.037819207E-1,2.933374882E0,-4.703662395E-1
2.449177279E0,5.021312237E-1,2.913827181E0,-4.911356568E-1
2.451191439E0,6.004805565E-1,2.846021175E0,-5.259549618E-1
2.453175081E0,6.542366743E-1,2.802038908E0,-5.455026627E-1
2.455189242E0,7.599163651E-1,2.680476665E0,-5.821545720E-1
2.457172884E0,8.717046976E-1,2.525927782E0,-6.126978397E-1
2.459187044E0,9.285151958E-1,2.441628456E0,-6.261368990E-1
2.461170687E0,1.044579625E0,2.266309977E0,-6.469063163E-1
2.463123812E0,1.108109593E0,2.179567099E0,-6.597344875E-1
2.465137972E0,1.234558702E0,2.008524895E0,-6.713408828E-1
2.467121615E0,1.362229466E0,1.842980504E0,-6.823364496E-1
2.469135775E0,1.419650793E0,1.772120118E0,-6.866125464E-1
2.471119417E0,1.540602207E0,1.648725271E0,-6.921103001E-1
2.473103060E0,1.642005801E0,1.540602207E0,-6.988298297E-1
2.475117220E0,1.684155464E0,1.492954612E0,-7.018841505E-1
2.477100863E0,1.758070230E0,1.416596532E0,-6.976081133E-1
2.479145540E0,1.817324162E0,1.374446750E0,-6.982190013E-1
2.481098665E0,1.842369556E0,1.370170712E0,-6.957755089E-1
2.483082308E0,1.882075787E0,1.387274981E0,-6.896668673E-1
2.485096468E0,1.908953905E0,1.431868076E0,-6.792821288E-1
2.487049593E0,1.919338584E0,1.463633180E0,-6.737843752E-1
2.489063753E0,1.929112434E0,1.554041147E0,-6.603453159E-1
2.491047396E0,1.933388472E0,1.660942554E0,-6.517932415E-1
2.493061556E0,1.927890658E0,1.715309620E0,-6.432411075E-1
2.495075716E0,1.910175562E0,1.844812989E0,-6.267477274E-1
2.497028841E0,1.897347450E0,1.915673375E0,-6.200281978E-1
2.499073519E0,1.860695481E0,2.047009468E0,-6.010913849E-1
2.501026644E0,1.808771968E0,2.177123785E0,-5.888741016E-1
2.503040804E0,1.774563551E0,2.241875410E0,-5.815436840E-1
2.505024447E0,1.703703165E0,2.361604929E0,-5.626068711E-1
2.507008089E0,1.621236324E0,2.468506575E0,-5.503895879E-1
2.509022249E0,1.573588848E0,2.513710499E0,-5.485569835E-1
2.511005892E0,1.484402537E0,2.596788168E0,-5.436700583E-1
2.513020052E0,1.398270488E0,2.659707308E0,-5.351179838E-1
2.515003695E0,1.356120825E0,2.682309389E0,-5.332853794E-1
2.516987337E0,1.270599723E0,2.711630821E0,-5.290092826E-1
2.519032015E0,1.183856845E0,2.720793724E0,-5.192354321E-1
2.520985140E0,1.141707182E0,2.711019993E0,-5.137376785E-1
2.522999300E0,1.062294602E0,2.685363531E0,-5.009095073E-1
2.524982943E0,9.859365225E-1,2.638326883E0,-4.764748812E-1
2.526997103E0,9.492846131E-1,2.605340242E0,-4.667010605E-1
2.529011263E0,8.802568316E-1,2.523484230E0,-4.318817258E-1
2.530964388E0,8.191702962E-1,2.419026375E0,-3.897320330E-1
2.532978548E0,7.922922373E-1,2.359772444E0,-3.714060783E-1
2.534962191E0,7.446447611E-1,2.222938538E0,-3.231477141E-1
2.536976351E0,7.238753438E-1,2.150856495E0,-2.999348342E-1
2.538990511E0,6.902777553E-1,2.001805305E0,-2.522873580E-1
2.540943636E0,6.536257863E-1,1.854586840E0,-2.058615834E-1
2.542957796E0,6.328563690E-1,1.776396155E0,-1.875356287E-1
2.544941439E0,5.693264008E-1,1.619403720E0,-1.392772794E-1
2.546955599E0,5.076290369E-1,1.467298269E0,-9.162978828E-2
2.548939242E0,4.783074856E-1,1.397659659E0,-6.963863969E-2
2.550922884E0,4.257730842E-1,1.263880134E0,-2.015855350E-2
2.552937044E0,3.805690408E-1,1.155757070E0,2.076941915E-2
2.554890169E0,3.567453027E-1,1.105055213E0,4.092797264E-2
2.556904329E0,3.139847219E-1,1.015868902E0,7.330382615E-2
2.558918490E0,2.693915665E-1,9.474520087E-1,9.896016866E-2
2.560902132E0,2.486221492E-1,9.187413454E-1,1.123992056E-1
2.562885775E0,2.040289938E-1,8.643743396E-1,1.246165112E-1
2.564869417E0,1.655444801E-1,8.265006542E-1,1.282816976E-1
2.566883577E0,1.472185254E-1,8.100073338E-1,1.307251602E-1
2.568867220E0,1.142318025E-1,7.861835957E-1,1.276708394E-1
2.570881380E0,9.896016866E-2,7.733554244E-1,1.276708394E-1
2.572895540E0,7.696902007E-2,7.611380816E-1,1.178969890E-1
2.574848665E0,6.230825558E-2,7.470881939E-1,1.148426682E-1
2.576862826E0,5.497787148E-2,7.403686643E-1,1.178969890E-1
2.578876986E0,5.375614017E-2,7.354817390E-1,1.288925707E-1
2.580860628E0,5.314527452E-2,7.391469479E-1,1.295034289E-1
2.582844271E0,4.948008433E-2,7.360926270E-1,1.319468915E-1
2.584827913E0,4.581489414E-2,7.422012687E-1,1.258382350E-1
2.586842074E0,4.520402849E-2,7.373143435E-1,1.270599663E-1
2.588795199E0,4.825835302E-2,7.202101350E-1,1.240056455E-1
2.590809359E0,4.825835302E-2,6.792821288E-1,1.227839142E-1
2.592823519E0,5.314527452E-2,6.230825782E-1,1.191187203E-1
2.594776644E0,5.497787148E-2,5.888741016E-1,1.197295859E-1
2.596790804E0,6.658431143E-2,5.192354321E-1,1.142318025E-1
2.598804964E0,7.819075137E-2,4.514294267E-1,1.154535338E-1
2.600788607E0,8.552113175E-2,4.208861589E-1,1.148426682E-1
2.602741732E0,1.062905490E-1,3.659082949E-1,1.154535338E-1
2.604755892E0,1.142318025E-1,3.426954150E-1,1.148426682E-1
2.606739535E0,1.313360333E-1,3.011565804E-1,1.166752651E-1
2.608753695E0,1.447750628E-1,2.779437006E-1,1.197295859E-1
2.610767855E0,1.466076523E-1,2.638937831E-1,1.203404516E-1
2.612751497E0,1.508837193E-1,2.504547536E-1,1.246165112E-1
2.614765658E0,1.514945775E-1,2.315179259E-1,1.288925707E-1
2.616749300E0,1.472185254E-1,2.217440903E-1,1.319468915E-1
2.618763460E0,1.429424733E-1,2.058615834E-1,1.325577646E-1
2.620716585E0,1.374446750E-1,1.863138974E-1,1.313360333E-1
2.622700228E0,1.331686229E-1,1.838704348E-1,1.282816976E-1
2.624714388E0,1.258382350E-1,1.716531366E-1,1.264491081E-1
2.626698031E0,1.233947799E-1,1.624901593E-1,1.197295859E-1
2.628712191E0,1.197295859E-1,1.624901593E-1,1.240056455E-1
2.630695833E0,1.221730486E-1,1.576032341E-1,1.252273768E-1
2.632679476E0,1.295034289E-1,1.569923609E-1,1.295034289E-1
2.634693636E0,1.331686229E-1,1.582140923E-1,1.337794960E-1
2.636677279E0,1.386664063E-1,1.704314053E-1,1.411098689E-1
2.638721956E0,1.472185254E-1,1.765400618E-1,1.478293836E-1
2.640675081E0,1.508837193E-1,1.783726513E-1,1.514945775E-1
2.642658724E0,1.582140923E-1,1.881465018E-1,1.545489132E-1
2.644672884E0,1.600466967E-1,1.899790913E-1,1.594358236E-1
2.646656527E0,1.716531366E-1,1.960877478E-1,1.685988009E-1
2.648670687E0,1.777617931E-1,2.064724565E-1,1.765400618E-1
2.650654329E0,1.820378453E-1,2.107485086E-1,1.795943826E-1
2.652637972E0,1.838704348E-1,2.083050460E-1,1.887573600E-1
2.654652132E0,1.881465018E-1,2.021963894E-1,1.948660165E-1
2.656635775E0,1.893682331E-1,1.966986060E-1,1.936442852E-1
2.658680452E0,1.881465018E-1,1.759291887E-1,1.912008226E-1
2.660633577E0,1.869247705E-1,1.472185254E-1,1.832595766E-1
2.662617220E0,1.869247705E-1,1.350012124E-1,1.765400618E-1
2.664631380E0,1.777617931E-1,1.172861308E-1,1.698205322E-1
2.666645540E0,1.661553532E-1,9.957103431E-2,1.667662114E-1
2.668598665E0,1.588249654E-1,9.407325089E-2,1.685988009E-1
2.670582308E0,1.502728462E-1,7.819075137E-2,1.704314053E-1
2.672565951E0,1.429424733E-1,7.330382615E-2,1.747074574E-1
2.674580111E0,1.331686229E-1,6.597344577E-2,1.857030392E-1
2.676563753E0,1.221730486E-1,5.497787148E-2,1.960877478E-1
2.678608431E0,1.148426682E-1,6.108652428E-2,1.966986060E-1
2.680561556E0,1.050688252E-1,6.536258012E-2,2.034181207E-1
2.682575716E0,9.162978828E-2,7.941248268E-2,2.076941878E-1
2.684559359E0,8.307767659E-2,8.613199741E-2,2.076941878E-1
2.686543001E0,7.330382615E-2,1.069014147E-1,2.083050460E-1
2.688557161E0,6.230825558E-2,1.123992056E-1,2.113593817E-1
2.690540804E0,5.619960278E-2,1.093448773E-1,2.131919712E-1
2.692554964E0,4.520402849E-2,1.050688252E-1,2.083050460E-1
2.694569124E0,3.359758854E-2,1.014036313E-1,2.070833147E-1
2.696522249E0,3.176499158E-2,9.590584040E-2,2.009746730E-1
2.698566927E0,2.809980139E-2,8.307767659E-2,1.930334121E-1
2.700520052E0,2.443460934E-2,6.841690838E-2,1.869247705E-1
2.702534212E0,2.871066704E-2,5.681046844E-2,1.820378453E-1
2.704517855E0,3.359758854E-2,3.420845419E-2,1.740965992E-1
2.706501497E0,4.092797264E-2,2.871066704E-2,1.734857261E-1
2.708515658E0,5.497787148E-2,1.343903504E-2,1.685988009E-1
2.710499300E0,6.963863969E-2,6.108652451E-4,1.631010175E-1
2.712513460E0,7.696902007E-2,-6.719517522E-3,1.618792862E-1
2.714527620E0,9.101892263E-2,-2.565634064E-2,1.569923609E-1
2.716480745E0,1.081231460E-1,-5.375614017E-2,1.527163088E-1
2.718525423E0,1.136209369E-1,-7.452555746E-2,1.514945775E-1
2.720478548E0,1.301143020E-1,-1.093448773E-1,1.466076523E-1
2.722492708E0,1.423316002E-1,-1.514945775E-1,1.404990107E-1
2.724476351E0,1.472185254E-1,-1.661553532E-1,1.380555481E-1
2.726459993E0,1.533271819E-1,-1.979203373E-1,1.319468915E-1
2.728474154E0,1.569923609E-1,-2.474004179E-1,1.209513173E-1
2.730457796E0,1.618792862E-1,-2.736676335E-1,1.197295859E-1
2.732471956E0,1.624901593E-1,-3.255911767E-1,1.185078546E-1
2.734455599E0,1.569923609E-1,-3.640756905E-1,1.148426682E-1
2.736439242E0,1.545489132E-1,-3.811798990E-1,1.148426682E-1
2.738483919E0,1.447750628E-1,-4.147774875E-1,1.160643995E-1
2.740437044E0,1.282816976E-1,-4.214970171E-1,1.221730486E-1
2.742451204E0,1.178969890E-1,-4.257730842E-1,1.252273768E-1
2.744434847E0,1.026253626E-1,-4.465425014E-1,1.331686229E-1
2.746418490E0,9.468411654E-2,-4.520402849E-1,1.368338168E-1
2.748432650E0,7.941248268E-2,-4.563163519E-1,1.417207420E-1
2.750416292E0,6.902777404E-2,-4.605923891E-1,1.441642046E-1
2.752430452E0,6.597344577E-2,-4.630358517E-1,1.478293836E-1
2.754444613E0,5.864306539E-2,-4.703662395E-1,1.496619880E-1
2.756428255E0,5.497787148E-2,-4.801400900E-1,1.435533315E-1
2.758472933E0,5.742133409E-2,-4.819726646E-1,1.368338168E-1
2.760426058E0,5.803219974E-2,-4.886921942E-1,1.258382350E-1
2.762440218E0,5.314527452E-2,-4.905247986E-1,1.185078546E-1
2.764454378E0,5.070181563E-2,-4.941899776E-1,1.087340117E-1
2.766407503E0,5.009094998E-2,-5.149593949E-1,9.468411654E-2
2.768421663E0,4.642575979E-2,-5.155702829E-1,7.452555746E-2
2.770405306E0,4.398229718E-2,-5.161811113E-1,7.086037099E-2
2.772419466E0,3.298672289E-2,-5.253441334E-1,5.986479297E-2
2.774433626E0,2.565634064E-2,-5.332853794E-1,4.948008433E-2
2.776417269E0,2.199114859E-2,-5.308418870E-1,4.825835302E-2
2.778461947E0,1.527163107E-2,-5.265658498E-1,3.543018550E-2
2.780415072E0,1.099557430E-2,-5.235115290E-1,2.809980139E-2
2.782429232E0,1.221730467E-2,-5.283984542E-1,2.138028294E-2
2.784443392E0,4.886921961E-3,-5.192354321E-1,1.404990070E-2
2.786396517E0,2.443460980E-3,-5.143485069E-1,9.773843922E-3
2.788410677E0,-8.552113548E-3,-4.954117239E-1,1.832595794E-3
2.790394320E0,-1.893682219E-2,-4.764748812E-1,-1.832595794E-3
2.792377962E0,-2.443460934E-2,-4.630358517E-1,-6.108652335E-3
2.794392122E0,-3.115412779E-2,-4.440990388E-1,-1.282817032E-2
2.796345247E0,-3.665191308E-2,-4.337143302E-1,-1.649336144E-2
2.798389925E0,-3.909537569E-2,-4.245513380E-1,-1.710422710E-2
2.800343050E0,-4.459316283E-2,-4.098905921E-1,-1.771509275E-2
2.802357210E0,-4.764748737E-2,-4.031710625E-1,-1.588249579E-2
2.804340853E0,-5.009094998E-2,-4.025602043E-1,-1.527163107E-2
2.806324495E0,-5.192354694E-2,-4.062253833E-1,-7.330383174E-3
2.808338656E0,-5.375614017E-2,-4.147774875E-1,3.054326167E-3
2.810322298E0,-5.192354694E-2,-4.117231667E-1,9.773843922E-3
2.812336458E0,-4.948008433E-2,-4.056145251E-1,2.199114859E-2
2.814320101E0,-3.726277873E-2,-3.885102868E-1,3.481931984E-2
2.816303743E0,-3.176499158E-2,-3.805690408E-1,4.153883830E-2
2.818317904E0,-2.504547499E-2,-3.536909819E-1,5.192354694E-2
2.820271029E0,-2.138028294E-2,-3.384193480E-1,6.475171447E-2
2.822285189E0,-1.893682219E-2,-3.103195429E-1,8.063421398E-2
2.824238314E0,-1.954768784E-2,-2.748893499E-1,9.651670605E-2
2.826252474E0,-2.076941915E-2,-2.547308207E-1,1.056796908E-1
2.828236117E0,-2.626720630E-2,-2.107485086E-1,1.209513173E-1
2.830250277E0,-4.276056588E-2,-1.704314053E-1,1.368338168E-1
2.832264437E0,-4.886921868E-2,-1.539380401E-1,1.429424733E-1
2.834248079E0,-6.841690838E-2,-1.233947799E-1,1.545489132E-1
2.836262240E0,-9.407325089E-2,-8.857546002E-2,1.643227488E-1
2.838276400E0,-1.075122803E-1,-7.880161703E-2,1.740965992E-1
2.840260042E0,-1.429424733E-1,-5.619960278E-2,1.881465018E-1
2.842243685E0,-1.704314053E-1,-4.764748737E-2,1.954768747E-1
2.844227327E0,-1.850921661E-1,-4.153883830E-2,1.991420686E-1
2.846241488E0,-2.193006277E-1,-3.970624134E-2,2.125810981E-1
2.848194613E0,-2.351831198E-1,-5.375614017E-2,2.180788964E-1
2.850208773E0,-2.700024247E-1,-6.963863969E-2,2.400700450E-1
2.852192415E0,-3.109304011E-1,-7.819075137E-2,2.583959997E-1
2.854176058E0,-3.255911767E-1,-8.246681094E-2,2.669481039E-1
2.856190218E0,-3.616322279E-1,-9.040805697E-2,2.773328125E-1
2.858173861E0,-3.866777122E-1,-1.044579595E-1,2.858849466E-1
2.860157503E0,-4.031710625E-1,-1.087340117E-1,2.877175212E-1
2.862110628E0,-4.257730842E-1,-1.105666086E-1,2.907718420E-1
2.864124788E0,-4.447098970E-1,-1.203404516E-1,2.950479090E-1
2.866108431E0,-4.520402849E-1,-1.191187203E-1,2.993239760E-1
2.868122591E0,-4.709770977E-1,-1.203404516E-1,3.103195429E-1
2.870136751E0,-4.886921942E-1,-1.221730486E-1,3.243694305E-1
2.872120394E0,-5.015203953E-1,-1.203404516E-1,3.310889602E-1
2.874134554E0,-5.247332454E-1,-1.295034289E-1,3.414736688E-1
2.876148714E0,-5.485569835E-1,-1.411098689E-1,3.579670191E-1
2.878132357E0,-5.632177591E-1,-1.472185254E-1,3.604104817E-1
2.880115999E0,-5.882632136E-1,-1.618792862E-1,3.726277947E-1
2.882069124E0,-6.023131609E-1,-1.667662114E-1,3.817907870E-1
2.884083285E0,-6.236934066E-1,-1.734857261E-1,3.988949955E-1
2.886066927E0,-6.450737119E-1,-1.838704348E-1,4.105014503E-1
2.888081087E0,-6.566801667E-1,-1.857030392E-1,4.202753007E-1
2.890095247E0,-6.725626588E-1,-1.795943826E-1,4.422664344E-1
2.892078890E0,-6.927211881E-1,-1.679879427E-1,4.563163519E-1
2.894093050E0,-7.061602473E-1,-1.539380401E-1,4.685336351E-1
2.896076693E0,-7.220427394E-1,-1.362229437E-1,4.838052690E-1
2.898090853E0,-7.385360599E-1,-1.160643995E-1,5.033529401E-1
2.900043978E0,-7.513642311E-1,-1.087340117E-1,5.112941861E-1
2.902027620E0,-7.672467232E-1,-8.979719132E-2,5.296201706E-1
2.904041781E0,-7.843509912E-1,-8.552113175E-2,5.473352671E-1
2.906025423E0,-7.929030657E-1,-7.147123665E-2,5.571091175E-1
2.908009066E0,-8.032878041E-1,-6.475171447E-2,5.748242140E-1
2.910023226E0,-8.179485798E-1,-4.642575979E-2,5.882632136E-1
2.911976351E0,-8.197811842E-1,-3.481931984E-2,5.937610269E-1
2.913990511E0,-8.307767510E-1,-1.404990070E-2,6.047565937E-1
2.915974154E0,-8.381071091E-1,1.221730490E-3,6.084218025E-1
2.917988314E0,-8.478809595E-1,2.871066704E-2,6.133087277E-1
2.919941439E0,-8.607091308E-1,5.192354694E-2,6.169738770E-1
2.921955599E0,-8.613200188E-1,6.169738993E-2,6.188064814E-1
2.923939242E0,-8.643743396E-1,8.185594529E-2,6.151412725E-1
2.925922884E0,-8.607091308E-1,1.142318025E-1,6.133087277E-1
2.927937044E0,-8.594874144E-1,1.350012124E-1,6.108652353E-1
2.929890169E0,-8.552113175E-1,1.692096740E-1,6.035348773E-1
2.931904329E0,-8.399397135E-1,1.973094791E-1,6.023131609E-1
2.933887972E0,-8.362745047E-1,2.101376504E-1,6.035348773E-1
2.935902132E0,-8.271115422E-1,2.443460971E-1,6.035348773E-1
2.937946810E0,-8.148942590E-1,2.877175212E-1,6.029239893E-1
2.939899935E0,-8.081747293E-1,3.036000133E-1,6.047565937E-1
2.941914095E0,-7.990117669E-1,3.488040566E-1,6.065891981E-1
2.943897738E0,-7.916813493E-1,3.915646076E-1,6.090326309E-1
2.945911898E0,-7.880161405E-1,4.227187634E-1,6.096435189E-1
2.947926058E0,-7.849618196E-1,4.734205604E-1,6.114761233E-1
2.949879183E0,-7.794640660E-1,5.021312237E-1,6.072000265E-1
2.951893343E0,-7.764097452E-1,5.619960427E-1,6.072000265E-1
2.953876986E0,-7.739662528E-1,6.151412725E-1,5.980370641E-1
2.955891146E0,-7.739662528E-1,6.517932415E-1,5.931501389E-1
2.957905306E0,-7.660250068E-1,6.988298297E-1,5.870414972E-1
2.959858431E0,-7.531968355E-1,7.397578359E-1,5.791002512E-1
2.961872591E0,-7.428121567E-1,7.611380816E-1,5.736024380E-1
2.963856234E0,-7.226535678E-1,8.051204085E-1,5.711590052E-1
2.965870394E0,-7.049384713E-1,8.442157507E-1,5.711590052E-1
2.967854036E0,-6.976081133E-1,8.588765264E-1,5.723807216E-1
2.969837679E0,-6.835582256E-1,8.625417352E-1,5.687155724E-1
2.971851839E0,-6.572909951E-1,8.582656980E-1,5.760459304E-1
2.973835482E0,-6.469063163E-1,8.558222055E-1,5.815436840E-1
2.975849642E0,-6.188064814E-1,8.472700715E-1,5.809328556E-1
2.977863802E0,-5.888741016E-1,8.417723179E-1,5.821545720E-1
2.979816927E0,-5.736024380E-1,8.411614299E-1,5.821545720E-1
2.981831087E0,-5.430592299E-1,8.374962807E-1,5.766568184E-1
2.983784212E0,-5.308418870E-1,8.344419003E-1,5.748242140E-1
2.985798372E0,-5.009095073E-1,8.130616546E-1,5.699372888E-1
2.987782015E0,-4.795292318E-1,7.843509912E-1,5.668829679E-1
2.989765658E0,-4.691445231E-1,7.727445364E-1,5.619960427E-1
2.991779818E0,-4.459316432E-1,7.544185519E-1,5.601634383E-1
2.993732943E0,-4.282165468E-1,7.250970602E-1,5.546656251E-1
2.995747103E0,-4.190535545E-1,7.153232098E-1,5.448917747E-1
2.997761263E0,-4.043927789E-1,6.921103001E-1,5.302310586E-1
2.999744906E0,-3.976732790E-1,6.768386960E-1,5.082398653E-1
3.001728548E0,-3.946189582E-1,6.768386960E-1,5.015203953E-1
3.003712191E0,-3.854559660E-1,6.835582256E-1,4.923573732E-1
3.005726351E0,-3.940080702E-1,6.762278080E-1,4.825835526E-1
3.007679476E0,-3.964515328E-1,6.750060916E-1,4.764748812E-1
3.009693636E0,-4.050036669E-1,6.646214128E-1,4.709770977E-1
3.011677279E0,-4.105014503E-1,6.579018831E-1,4.624249935E-1
3.013691439E0,-4.086688459E-1,6.505714655E-1,4.618141353E-1
3.015705599E0,-3.995058835E-1,6.407976151E-1,4.495968223E-1
3.017689242E0,-3.933972120E-1,6.279694438E-1,4.495968223E-1
3.019672884E0,-3.836233616E-1,5.870414972E-1,4.471533597E-1
3.021656527E0,-3.530801237E-1,5.564982295E-1,4.495968223E-1
3.023670687E0,-3.359758854E-1,5.534439087E-1,4.514294267E-1
3.025654329E0,-3.060434759E-1,5.277875662E-1,4.544837475E-1
3.027637972E0,-2.755002379E-1,4.893030524E-1,4.599815309E-1
3.029652132E0,-2.626720667E-1,4.697553813E-1,4.630358517E-1
3.031635775E0,-2.327396572E-1,4.440990388E-1,4.667010605E-1
3.033649935E0,-2.144137025E-1,4.355469346E-1,4.636467099E-1
3.035664095E0,-2.101376504E-1,4.251621962E-1,4.630358517E-1
3.037647738E0,-2.052507252E-1,3.817907870E-1,4.526511431E-1
3.039631380E0,-2.083050460E-1,3.396410644E-1,4.392121136E-1
3.041584505E0,-2.205223590E-1,3.103195429E-1,4.337143302E-1
3.043598665E0,-2.419026345E-1,2.663372457E-1,4.111123085E-1
3.045582308E0,-2.596177161E-1,2.168571651E-1,3.909537494E-1
3.047596468E0,-2.803871334E-1,1.875356287E-1,3.793473244E-1
3.049610628E0,-3.115412891E-1,1.209513173E-1,3.433062732E-1
3.051594271E0,-3.219259977E-1,8.918632567E-2,3.353650272E-1
3.053608431E0,-3.591887653E-1,1.893682219E-2,3.170390725E-1
3.055592074E0,-3.866777122E-1,-5.192354694E-2,3.005456924E-1
3.057606234E0,-3.946189582E-1,-8.796459436E-2,2.932153046E-1
3.059589876E0,-4.172209501E-1,-1.740965992E-1,2.785545588E-1
3.061543001E0,-4.300491214E-1,-2.504547536E-1,2.486221492E-1
3.063557161E0,-4.300491214E-1,-3.090978265E-1,2.205223590E-1
3.065571322E0,-4.398229718E-1,-4.386012554E-1,1.631010175E-1
3.067524447E0,-4.569272101E-1,-5.259549618E-1,1.166752651E-1
3.069538607E0,-4.575380683E-1,-5.748242140E-1,8.429940045E-2
3.071522249E0,-4.654793143E-1,-6.536257863E-1,2.871066704E-2
3.073505892E0,-4.721988440E-1,-6.945537925E-1,-2.321287990E-2
3.075520052E0,-4.685336351E-1,-7.116580009E-1,-4.642575979E-2
3.077503695E0,-4.746423066E-1,-7.275404930E-1,-8.491026610E-2
3.079456820E0,-4.831944108E-1,-7.281513810E-1,-1.007927656E-1
3.081440462E0,-4.807509482E-1,-7.250970602E-1,-1.252273768E-1
3.083454622E0,-4.929682612E-1,-6.872233748E-1,-1.380555481E-1
3.085438265E0,-4.923573732E-1,-6.621779203E-1,-1.478293836E-1
3.087452425E0,-5.076290369E-1,-6.267477274E-1,-1.637118906E-1
3.089436068E0,-5.106833577E-1,-5.888741016E-1,-1.795943826E-1
3.091419710E0,-5.125159621E-1,-5.711590052E-1,-1.881465018E-1
3.093433870E0,-5.088507533E-1,-5.277875662E-1,-2.009746730E-1
3.095417513E0,-4.941899776E-1,-4.764748812E-1,-2.070833147E-1
3.097462191E0,-4.709770977E-1,-4.575380683E-1,-2.076941878E-1
3.099415316E0,-4.630358517E-1,-4.043927789E-1,-2.009746730E-1
3.101429476E0,-4.343251884E-1,-3.555235863E-1,-2.021963894E-1
3.103443636E0,-4.117231667E-1,-3.274237812E-1,-1.991420686E-1
3.105427279E0,-3.750712574E-1,-2.620611787E-1,-1.783726513E-1
3.107441439E0,-3.164281845E-1,-1.857030392E-1,-1.533271819E-1
3.109425081E0,-2.913827300E-1,-1.466076523E-1,-1.392772794E-1
3.111408724E0,-2.388483137E-1,-1.087340117E-1,-1.044579595E-1
3.113422884E0,-1.924225539E-1,-6.719517708E-2,-6.291911751E-2
3.115406527E0,-1.685988009E-1,-6.963863969E-2,-4.459316283E-2
3.117451204E0,-1.136209369E-1,-2.504547499E-2,-5.497787148E-3
3.119404329E0,-7.452555746E-2,-1.221730490E-3,1.404990070E-2
3.121418490E0,-2.015855350E-2,1.954768784E-2,5.131268129E-2
3.123432650E0,3.848451003E-2,3.848451003E-2,8.491026610E-2
3.125385775E0,6.658431143E-2,5.864306539E-2,9.834930301E-2
3.127399935E0,1.136209369E-1,7.269296050E-2,1.209513173E-1
3.129383577E0,1.649336219E-1,8.552113175E-2,1.423316002E-1
3.131397738E0,1.838704348E-1,8.979719132E-2,1.466076523E-1
3.133411898E0,2.217440903E-1,8.674286306E-2,1.539380401E-1
3.135365023E0,2.626720667E-1,9.346238524E-2,1.606575549E-1
3.137409701E0,2.773328125E-1,1.020144969E-1,1.637118906E-1
3.139362826E0,3.121521473E-1,1.197295859E-1,1.563815027E-1
3.141376986E0,3.396410644E-1,1.252273768E-1,1.459967941E-1
3.143360628E0,3.506366611E-1,1.166752651E-1,1.435533315E-1
3.145344271E0,3.720169365E-1,1.069014147E-1,1.386664063E-1
3.147358431E0,3.836233616E-1,9.468411654E-2,1.270599663E-1
3.149342074E0,3.921754956E-1,9.834930301E-2,1.191187203E-1
3.151356234E0,3.964515328E-1,9.773843735E-2,1.093448773E-1
3.153339876E0,3.915646076E-1,9.651670605E-2,9.285151958E-2
3.155323519E0,3.860668242E-1,9.590584040E-2,8.491026610E-2
3.157368197E0,3.744603992E-1,9.651670605E-2,6.352998316E-2
3.159351839E0,3.689626157E-1,9.712757170E-2,5.497787148E-2
3.161335482E0,3.445279896E-1,9.529497474E-2,3.359758854E-2
3.163319124E0,3.194825351E-1,9.712757170E-2,1.343903504E-2
3.165333285E0,3.023782969E-1,9.773843735E-2,1.832595794E-3
3.167316927E0,2.681698501E-1,8.491026610E-2,-6.719517522E-3
3.169331087E0,2.315179259E-1,6.230825558E-2,-1.832595654E-2
3.171314730E0,2.101376504E-1,4.948008433E-2,-2.382374369E-2
3.173298372E0,1.698205322E-1,2.015855350E-2,-3.298672289E-2
3.175312533E0,1.307251602E-1,-1.649336144E-2,-4.398229718E-2
3.177326693E0,1.160643995E-1,-3.543018550E-2,-4.764748737E-2
3.179310335E0,7.880161703E-2,-8.185594529E-2,-5.375614017E-2
3.181293978E0,4.886921868E-2,-1.276708394E-1,-6.414084882E-2
3.183277620E0,3.237585723E-2,-1.539380401E-1,-6.658431143E-2
3.185291781E0,6.108652335E-3,-2.058615834E-1,-8.368854225E-2
3.187275423E0,-2.504547499E-2,-2.773328125E-1,-7.452555746E-2
3.189289583E0,-4.031710699E-2,-3.170390725E-1,-5.314527452E-2
3.191303743E0,-3.054326214E-2,-3.329215646E-1,-2.932153270E-2
3.193256868E0,-2.932153270E-2,-3.384193480E-1,-2.382374369E-2
3.195271029E0,-3.420845419E-2,-3.732386529E-1,3.054326167E-3
3.197285189E0,-4.276056588E-2,-4.013384581E-1,1.588249579E-2
3.199268831E0,-4.459316283E-2,-4.196644127E-1,1.588249579E-2
3.201252474E0,-6.108652428E-2,-4.550946057E-1,1.710422710E-2
3.203236117E0,-8.246681094E-2,-4.880813360E-1,1.588249579E-2
3.205250277E0,-9.346238524E-2,-5.064072609E-1,1.099557430E-2
3.207233919E0,-1.178969890E-1,-5.387831330E-1,-4.276056774E-3
3.209248079E0,-1.508837193E-1,-5.754350424E-1,-1.527163107E-2
3.211231722E0,-1.631010175E-1,-5.919284225E-1,-2.565634064E-2
3.213215365E0,-1.875356287E-1,-6.334672570E-1,-4.398229718E-2
3.215229525E0,-2.089159191E-1,-6.774495840E-1,-6.597344577E-2
3.217243685E0,-2.180788964E-1,-7.061602473E-1,-7.880161703E-2
3.219227327E0,-2.406809032E-1,-7.586946487E-1,-9.957103431E-2
3.221210970E0,-2.626720667E-1,-8.179485798E-1,-1.264491081E-1
3.223194613E0,-2.755002379E-1,-8.436049223E-1,-1.356120855E-1
3.225208773E0,-3.017674387E-1,-8.998045325E-1,-1.588249654E-1
3.227192415E0,-3.213151097E-1,-9.266825914E-1,-1.734857261E-1
3.229176058E0,-3.555235863E-1,-9.810495973E-1,-1.936442852E-1
3.231190218E0,-3.866777122E-1,-1.014647126E0,-2.101376504E-1
3.233173861E0,-4.074471295E-1,-1.034805775E0,-2.101376504E-1
3.235188021E0,-4.477642179E-1,-1.064127207E0,-2.186897546E-1
3.237202181E0,-4.972442985E-1,-1.098335743E0,-2.193006277E-1
3.239155306E0,-5.186246037E-1,-1.108109593E0,-2.199114859E-1
3.241138949E0,-5.674937963E-1,-1.122159481E0,-2.193006277E-1
3.243122591E0,-6.157521605E-1,-1.131322384E0,-2.089159191E-1
3.245136751E0,-6.401867867E-1,-1.134376764E0,-2.052507252E-1
3.247120394E0,-6.872233748E-1,-1.147204876E0,-1.979203373E-1
3.249134554E0,-7.391469479E-1,-1.163698316E0,-1.857030392E-1
3.251118197E0,-7.599163651E-1,-1.169196129E0,-1.698205322E-1
3.253101839E0,-8.002334833E-1,-1.176526427E0,-1.478293836E-1
3.255115999E0,-8.344419003E-1,-1.182635069E0,-1.246165112E-1
3.257130160E0,-8.564330935E-1,-1.185078621E0,-1.117883399E-1
3.259113802E0,-8.936958313E-1,-1.198517561E0,-8.735372871E-2
3.261097445E0,-9.065240026E-1,-1.204626322E0,-7.635815442E-2
3.263081087E0,-9.303477407E-1,-1.211956620E0,-5.619960278E-2
3.265095247E0,-9.511171579E-1,-1.227839112E0,-4.337143153E-2
3.267048372E0,-9.608910084E-1,-1.240056396E0,-3.054326214E-2
3.269062533E0,-9.737191796E-1,-1.257160664E0,-2.504547499E-2
3.271046175E0,-9.743300676E-1,-1.273653984E0,-1.649336144E-2
3.273029818E0,-9.767735004E-1,-1.285260439E0,-1.466076635E-2
3.275043978E0,-9.779952765E-1,-1.304197311E0,-1.588249579E-2
3.277027620E0,-9.792169929E-1,-1.328021049E0,-2.565634064E-2
3.279011263E0,-9.786061049E-1,-1.339627504E0,-3.543018550E-2
3.280964388E0,-9.761626720E-1,-1.365894675E0,-6.230825558E-2
3.282978548E0,-9.743300676E-1,-1.397659659E0,-9.651670605E-2
3.284962191E0,-9.755517840E-1,-1.417818189E0,-1.105666086E-1
3.286945833E0,-9.706648588E-1,-1.465465665E0,-1.386664063E-1
3.288959993E0,-9.688322544E-1,-1.485624313E0,-1.551597714E-1
3.290913118E0,-9.627236128E-1,-1.518610954E0,-1.655444801E-1
3.292927279E0,-9.553932548E-1,-1.549765110E0,-1.685988009E-1
3.294910921E0,-9.486737251E-1,-1.576032281E0,-1.667662114E-1
3.296925081E0,-9.401215911E-1,-1.632231951E0,-1.453859210E-1
3.298878206E0,-9.346238375E-1,-1.698205352E0,-1.148426682E-1
3.300861849E0,-9.327912331E-1,-1.737300754E0,-9.040805697E-2
3.302876009E0,-9.266825914E-1,-1.833817482E0,-4.092797264E-2
3.304859652E0,-9.340129495E-1,-1.966986060E0,1.954768784E-2
3.306873812E0,-9.382890463E-1,-2.048841953E0,5.192354694E-2
3.308857454E0,-9.566149712E-1,-2.231490850E0,1.130100712E-1
3.310841097E0,-9.822713137E-1,-2.447126150E0,1.698205322E-1
3.312855257E0,-9.908234477E-1,-2.564412355E0,1.930334121E-1
3.314838900E0,-1.005484223E0,-2.800206184E0,2.272418737E-1
3.316883577E0,-1.012814522E0,-3.039054632E0,2.553416789E-1
3.318836702E0,-1.012203693E0,-3.160005808E0,2.632829249E-1
3.320850863E0,-1.008538485E0,-3.402519464E0,2.822197378E-1
3.322834505E0,-1.007316828E0,-3.527135849E0,2.901609838E-1
3.324848665E0,-9.963212013E-1,-3.770260334E0,3.048217595E-1
3.326832308E0,-9.798278809E-1,-4.007276058E0,3.219259977E-1
3.328815951E0,-9.724974632E-1,-4.133114338E0,3.341432810E-1
3.330830111E0,-9.560040832E-1,-4.378071308E0,3.628539443E-1
3.332783236E0,-9.407324791E-1,-4.621806622E0,4.068362415E-1
3.334797396E0,-9.358455539E-1,-4.747033596E0,4.355469346E-1
3.336811556E0,-9.236282706E-1,-4.999931812E0,4.935791194E-1
3.338795199E0,-9.046914577E-1,-5.260160446E0,5.626068711E-1
3.340778841E0,-8.991936445E-1,-5.387831688E0,5.992587805E-1
3.342762484E0,-8.820894361E-1,-5.646838188E0,6.835582256E-1
3.344776644E0,-8.649851680E-1,-5.907677650E0,7.837401032E-1
3.346760286E0,-8.515461683E-1,-6.016411781E0,8.289441466E-1
3.348774447E0,-7.965682745E-1,-6.130643368E0,9.205739498E-1
3.350788607E0,-7.024950385E-1,-6.045733452E0,9.914342761E-1
3.352741732E0,-6.383541822E-1,-5.900347233E0,1.017090678E0
3.354755892E0,-4.764748812E-1,-5.392107487E0,1.039692640E0
3.356770052E0,-3.762930036E-1,-5.035362244E0,1.036027431E0
3.358753695E0,-1.545489132E-1,-4.145331383E0,1.001819015E0
3.360767855E0,9.407325089E-2,-3.098919392E0,9.407324791E-1
3.362720980E0,2.217440903E-1,-2.546697140E0,8.912523985E-1
3.364735140E0,4.734205604E-1,-1.463022232E0,7.819074988E-1
3.366718783E0,6.951646209E-1,-4.715879560E-1,6.462954283E-1
3.368732943E0,7.916813493E-1,-5.986479297E-2,5.760459304E-1
3.370747103E0,9.401215911E-1,5.791002512E-1,4.282165468E-1
3.372730745E0,1.009149432E0,9.914342761E-1,2.834414840E-1
3.374744906E0,1.001208186E0,1.119105101E0,2.095267773E-1
3.376759066E0,9.199630618E-1,1.240056396E0,7.391469181E-2
3.378712191E0,7.092145681E-1,1.206458807E0,-5.497787148E-2
3.380726351E0,5.736024380E-1,1.140485406E0,-1.081231460E-1
3.382679476E0,3.414736688E-1,1.017701507E0,-1.893682331E-1
3.384693636E0,2.052507252E-1,9.492846131E-1,-2.284636050E-1
3.386677279E0,1.576032341E-1,9.040805697E-1,-2.382374406E-1
3.388660921E0,5.619960278E-2,7.574729323E-1,-2.443460971E-1
3.390675081E0,8.552113548E-3,6.627888083E-1,-2.406809032E-1
3.392658724E0,-8.613199741E-2,4.471533597E-1,-2.290744632E-1
3.394672884E0,-1.704314053E-1,1.912008226E-1,-2.028072625E-1
3.396687044E0,-2.107485086E-1,6.230825558E-2,-1.912008226E-1
3.398670687E0,-2.858849466E-1,-1.991420686E-1,-1.661553532E-1
3.400654329E0,-3.604104817E-1,-4.269948006E-1,-1.496619880E-1
3.402637972E0,-3.909537494E-1,-5.241223574E-1,-1.398881376E-1
3.404652132E0,-4.514294267E-1,-6.621779203E-1,-1.343903542E-1
3.406605257E0,-5.064072609E-1,-7.403686643E-1,-1.337794960E-1
3.408619417E0,-5.375614166E-1,-7.507534027E-1,-1.362229437E-1
3.410603060E0,-6.035348773E-1,-7.312057018E-1,-1.423316002E-1
3.412617220E0,-6.743952036E-1,-6.707300544E-1,-1.527163088E-1
3.414631380E0,-7.098253965E-1,-6.334672570E-1,-1.600466967E-1
3.416615023E0,-7.843509912E-1,-5.357288122E-1,-1.722639948E-1
3.418598665E0,-8.607091308E-1,-4.159992337E-1,-1.850921661E-1
3.420582308E0,-8.930850029E-1,-3.543018401E-1,-1.912008226E-1
3.422596468E0,-9.590584636E-1,-2.327396572E-1,-2.015855312E-1
3.424580111E0,-9.902125597E-1,-1.783726513E-1,-2.028072625E-1
3.426563753E0,-1.047633886E0,-8.307767659E-2,-2.076941878E-1
3.428577913E0,-1.090394497E0,-6.719517522E-3,-1.991420686E-1
3.430561556E0,-1.103833556E0,2.076941915E-2,-1.954768747E-1
3.432575716E0,-1.131322384E0,6.658431143E-2,-1.814269722E-1
3.434589876E0,-1.141096234E0,8.796459436E-2,-1.588249654E-1
3.436573519E0,-1.141096234E0,9.590584040E-2,-1.533271819E-1
3.438557161E0,-1.130711555E0,1.014036313E-1,-1.301143020E-1
3.440540804E0,-1.108720422E0,9.651670605E-2,-1.081231460E-1
3.442554964E0,-1.087340117E0,9.468411654E-2,-9.712757170E-2
3.444569124E0,-1.048855662E0,7.696902007E-2,-7.269296050E-2
3.446522249E0,-9.889908433E-1,5.864306539E-2,-5.558873713E-2
3.448536410E0,-9.596692920E-1,5.253441259E-2,-4.581489414E-2
3.450520052E0,-8.949176073E-1,3.726277873E-2,-2.809980139E-2
3.452534212E0,-8.216137290E-1,2.321287990E-2,-1.588249579E-2
3.454548372E0,-7.825183868E-1,1.527163107E-2,-1.221730467E-2
3.456532015E0,-7.079927921E-1,-5.497787148E-3,-1.282817032E-2
3.458515658E0,-6.316346526E-1,-3.481931984E-2,-1.221730467E-2
3.460499300E0,-5.955936313E-1,-4.764748737E-2,-1.649336144E-2
3.462513460E0,-5.180137157E-1,-7.574728876E-2,-2.504547499E-2
3.464558138E0,-4.789183438E-1,-8.063421398E-2,-3.176499158E-2
3.466480745E0,-4.031710625E-1,-1.001819000E-1,-3.726277873E-2
3.468494906E0,-3.353650272E-1,-1.050688252E-1,-5.192354694E-2
3.470478548E0,-3.036000133E-1,-1.032362282E-1,-5.497787148E-2
3.472462191E0,-2.419026345E-1,-9.896016866E-2,-5.986479297E-2
3.474476351E0,-1.863138974E-1,-9.101892263E-2,-6.230825558E-2
3.476490511E0,-1.569923609E-1,-8.857546002E-2,-6.291911751E-2
3.478443636E0,-1.056796908E-1,-8.246681094E-2,-6.169738993E-2
3.480427279E0,-5.497787148E-2,-7.452555746E-2,-6.047565863E-2
3.482441439E0,-3.298672289E-2,-7.391469181E-2,-5.803219974E-2
3.484425081E0,1.527163107E-2,-6.780604273E-2,-4.703662544E-2
3.486439242E0,5.742133409E-2,-6.475171447E-2,-3.726277873E-2
3.488453402E0,8.124507964E-2,-6.719517708E-2,-3.481931984E-2
3.490406527E0,1.136209369E-1,-7.452555746E-2,-2.321287990E-2
3.492420687E0,1.435533315E-1,-8.063421398E-2,-9.773843922E-3
3.494404329E0,1.606575549E-1,-8.552113175E-2,-4.276056774E-3
3.496449007E0,1.979203373E-1,-9.712757170E-2,0.000000000E0
3.498402132E0,2.186897546E-1,-1.038470939E-1,3.665191587E-3
3.500385775E0,2.474004179E-1,-1.105666086E-1,2.443460980E-3
3.502399935E0,2.785545588E-1,-1.111774743E-1,-1.221730490E-3
3.504383577E0,2.932153046E-1,-1.130100712E-1,-4.276056774E-3
3.506397738E0,3.152064681E-1,-1.178969890E-1,-6.108652335E-3
3.508411898E0,3.298672438E-1,-1.227839142E-1,-7.330383174E-3
3.510365023E0,3.316998184E-1,-1.227839142E-1,-1.466076635E-2
3.512379183E0,3.335324228E-1,-1.288925707E-1,-2.076941915E-2
3.514362826E0,3.378084898E-1,-1.307251602E-1,-2.260201424E-2
3.516407503E0,3.371976018E-1,-1.270599663E-1,-2.321287990E-2
3.518360628E0,3.329215646E-1,-1.191187203E-1,-1.588249579E-2
3.520344271E0,3.347541690E-1,-1.056796908E-1,5.497787148E-3
3.522358431E0,3.335324228E-1,-1.050688252E-1,1.710422710E-2
3.524342074E0,3.335324228E-1,-1.093448773E-1,4.031710699E-2
3.526356234E0,3.414736688E-1,-1.185078546E-1,6.780604273E-2
3.528339876E0,3.457497358E-1,-1.295034289E-1,8.429940045E-2
3.530323519E0,3.616322279E-1,-1.441642046E-1,1.209513173E-1
3.532337679E0,3.714060783E-1,-1.582140923E-1,1.435533315E-1
3.534321322E0,3.940080702E-1,-1.783726513E-1,1.954768747E-1
3.536365999E0,4.159992337E-1,-2.070833147E-1,2.412917763E-1
3.538319124E0,4.233296216E-1,-2.241875380E-1,2.687807083E-1
3.540333285E0,4.282165468E-1,-2.528982162E-1,3.176499307E-1
3.542347445E0,4.123340547E-1,-2.693915665E-1,3.524692357E-1
3.544331087E0,3.964515328E-1,-2.632829249E-1,3.652974069E-1
3.546314730E0,3.488040566E-1,-2.107485086E-1,3.860668242E-1
3.548328890E0,2.883284092E-1,-1.447750628E-1,3.970624208E-1
3.550312533E0,2.480112910E-1,-1.117883399E-1,3.976732790E-1
3.552326693E0,1.716531366E-1,-4.886921868E-2,3.952298164E-1
3.554340853E0,8.552113175E-2,9.162978269E-3,3.817907870E-1
3.556324495E0,4.459316283E-2,4.642575979E-2,3.665191531E-1
3.558277620E0,-3.237585723E-2,1.038470939E-1,3.066543639E-1
3.560291781E0,-9.590584040E-2,1.661553532E-1,2.205223590E-1
3.562275423E0,-1.258382350E-1,1.826487035E-1,1.740965992E-1
3.564259066E0,-1.734857261E-1,1.966986060E-1,8.796459436E-2
3.566273226E0,-1.924225539E-1,1.912008226E-1,5.070181563E-2
3.568256868E0,-2.131919712E-1,1.698205322E-1,-1.282817032E-2
3.570271029E0,-2.205223590E-1,1.600466967E-1,-5.253441259E-2
3.572285189E0,-2.235766798E-1,1.679879427E-1,-6.597344577E-2
3.574238314E0,-2.205223590E-1,1.924225539E-1,-7.452555746E-2
3.576282992E0,-2.131919712E-1,2.211332172E-1,-6.230825558E-2
3.578236117E0,-2.083050460E-1,2.284636050E-1,-4.948008433E-2
3.580250277E0,-1.924225539E-1,2.254092693E-1,-2.015855350E-2
3.582233919E0,-1.692096740E-1,2.070833147E-1,6.719517522E-3
3.584217562E0,-1.557706445E-1,1.875356287E-1,1.893682219E-2
3.586231722E0,-1.252273768E-1,1.380555481E-1,3.604105115E-2
3.588215365E0,-8.796459436E-2,9.407325089E-2,4.337143153E-2
3.590229525E0,-6.719517708E-2,6.963863969E-2,5.253441259E-2
3.592243685E0,-2.382374369E-2,2.932153270E-2,5.864306539E-2
3.594227327E0,1.588249579E-2,3.054326167E-3,6.475171447E-2
3.596272005E0,3.970624134E-2,-7.941247895E-3,6.536258012E-2
3.598225130E0,8.796459436E-2,-1.038470957E-2,7.024950534E-2
3.600239290E0,1.392772794E-1,-1.160643995E-2,7.330382615E-2
3.602222933E0,1.612684280E-1,-1.771509275E-2,7.819075137E-2
3.604206576E0,2.003637999E-1,-2.809980139E-2,8.246681094E-2
3.606220736E0,2.180788964E-1,-3.909537569E-2,8.552113175E-2
3.608204378E0,2.486221492E-1,-5.497787148E-2,8.307767659E-2
3.610218538E0,2.822197378E-1,-6.352998316E-2,8.124507964E-2
3.612232699E0,3.011565804E-1,-6.108652428E-2,7.574728876E-2
3.614185824E0,3.329215646E-1,-6.352998316E-2,7.086037099E-2
3.616230501E0,3.738495409E-1,-5.497787148E-2,6.841690838E-2
3.618183626E0,3.891211748E-1,-5.314527452E-2,6.658431143E-2
3.620197786E0,4.086688459E-1,-5.314527452E-2,6.658431143E-2
3.622181429E0,4.251621962E-1,-5.375614017E-2,6.658431143E-2
3.624165072E0,4.343251884E-1,-4.886921868E-2,6.414084882E-2
3.626179232E0,4.514294267E-1,-3.665191308E-2,6.841690838E-2
3.628162874E0,4.740314186E-1,-2.504547499E-2,6.414084882E-2
3.630177035E0,4.819726646E-1,-1.710422710E-2,6.047565863E-2
3.632160677E0,4.935791194E-1,-1.588249579E-2,6.291911751E-2
3.634144320E0,4.972442985E-1,-1.588249579E-2,6.719517708E-2
3.636188997E0,4.972442985E-1,-1.221730467E-2,6.719517708E-2
3.638142122E0,5.015203953E-1,-1.343903504E-2,6.841690838E-2
3.640156283E0,4.923573732E-1,-1.221730490E-3,7.330382615E-2
3.642109408E0,4.831944108E-1,2.138028294E-2,7.513642311E-2
3.644123568E0,4.300491214E-1,9.468411654E-2,8.124507964E-2
3.646107210E0,3.909537494E-1,1.527163088E-1,8.307767659E-2
3.648121370E0,2.834414840E-1,2.712241709E-1,8.796459436E-2
3.650135531E0,1.258382350E-1,3.897320330E-1,9.529497474E-2
3.652119173E0,4.092797264E-2,4.294382632E-1,9.651670605E-2
3.654133333E0,-1.197295859E-1,4.477642179E-1,9.407325089E-2
3.656147493E0,-2.504547536E-1,4.025602043E-1,8.002334833E-2
3.658131136E0,-3.048217595E-1,3.695734739E-1,6.780604273E-2
3.660145296E0,-3.866777122E-1,2.999348342E-1,3.665191308E-2
3.662098421E0,-4.367686510E-1,2.388483137E-1,3.665191587E-3
3.664112581E0,-4.526511431E-1,2.211332172E-1,-3.054326167E-3
3.666096224E0,-4.709770977E-1,2.217440903E-1,-2.871066704E-2
3.668110384E0,-4.648684561E-1,2.467895597E-1,-4.031710699E-2
3.670124544E0,-4.575380683E-1,2.681698501E-1,-4.825835302E-2
3.672077669E0,-4.373795092E-1,3.109304011E-1,-5.558873713E-2
3.674091829E0,-4.111123085E-1,3.512475193E-1,-5.986479297E-2
3.676105990E0,-3.976732790E-1,3.695734739E-1,-6.352998316E-2
3.678089632E0,-3.714060783E-1,3.940080702E-1,-6.414084882E-2
3.680073275E0,-3.567453027E-1,4.019493461E-1,-6.658431143E-2
3.682056917E0,-3.341432810E-1,4.007275999E-1,-6.536258012E-2
3.684071077E0,-3.097086847E-1,3.909537494E-1,-6.536258012E-2
3.686024202E0,-2.968805134E-1,3.799581826E-1,-6.230825558E-2
3.688038363E0,-2.785545588E-1,3.536909819E-1,-5.925392732E-2
3.690022005E0,-2.645046413E-1,3.176499307E-1,-5.864306539E-2
3.692036165E0,-2.577851415E-1,3.005456924E-1,-5.681046844E-2
3.694050326E0,-2.443460971E-1,2.706133127E-1,-5.864306539E-2
3.696064486E0,-2.345722616E-1,2.394591719E-1,-5.681046844E-2
3.698048128E0,-2.309070677E-1,2.247984111E-1,-5.864306539E-2
3.700031771E0,-2.241875380E-1,2.034181207E-1,-6.536258012E-2
3.702015413E0,-2.174680233E-1,1.765400618E-1,-6.597344577E-2
3.704029574E0,-2.131919712E-1,1.631010175E-1,-6.841690838E-2
3.706013216E0,-2.021963894E-1,1.441642046E-1,-7.147123665E-2
3.707996859E0,-1.875356287E-1,1.319468915E-1,-6.841690838E-2
3.710011019E0,-1.777617931E-1,1.233947799E-1,-6.963863969E-2
3.711964144E0,-1.612684280E-1,1.185078546E-1,-6.902777404E-2
3.713978304E0,-1.539380401E-1,1.148426682E-1,-6.902777404E-2
3.715992464E0,-1.331686229E-1,1.105666086E-1,-7.147123665E-2
3.717976107E0,-1.105666086E-1,1.062905490E-1,-7.147123665E-2
3.719929232E0,-9.896016866E-2,1.075122803E-1,-7.696902007E-2
3.721943392E0,-7.391469181E-2,1.075122803E-1,-8.002334833E-2
3.723927035E0,-4.642575979E-2,1.142318025E-1,-8.491026610E-2
3.725941195E0,-3.359758854E-2,1.154535338E-1,-8.857546002E-2
3.727955355E0,-9.162978269E-3,1.227839142E-1,-8.185594529E-2
3.729938997E0,6.719517522E-3,1.227839142E-1,-8.246681094E-2
3.731953158E0,1.466076635E-2,1.209513173E-1,-8.491026610E-2
3.733936800E0,2.504547499E-2,1.148426682E-1,-8.124507964E-2
3.735950960E0,2.138028294E-2,1.032362282E-1,-8.246681094E-2
3.737934603E0,2.015855350E-2,9.529497474E-2,-8.124507964E-2
3.739887728E0,1.527163107E-2,7.513642311E-2,-8.124507964E-2
3.741901888E0,1.343903504E-2,4.520402849E-2,-7.819075137E-2
3.743885531E0,1.588249579E-2,2.687807009E-2,-7.696902007E-2
3.745869173E0,2.321287990E-2,-7.330383174E-3,-7.147123665E-2
3.747883333E0,2.504547499E-2,-2.687807009E-2,-6.658431143E-2
3.749836458E0,3.359758854E-2,-5.986479297E-2,-6.047565863E-2
3.751850618E0,3.420845419E-2,-8.979719132E-2,-5.314527452E-2
3.753834261E0,3.909537569E-2,-1.069014147E-1,-4.703662544E-2
3.755848421E0,3.909537569E-2,-1.337794960E-1,-3.420845419E-2
3.757801546E0,3.359758854E-2,-1.600466967E-1,-2.382374369E-2
3.759785189E0,3.237585723E-2,-1.759291887E-1,-1.466076635E-2
3.761799349E0,2.260201424E-2,-2.046398520E-1,1.832595794E-3
3.763782992E0,1.527163107E-2,-2.315179259E-1,1.832595654E-2
3.765797152E0,1.282817032E-2,-2.486221492E-1,2.748893574E-2
3.767780794E0,6.108652335E-3,-2.755002379E-1,4.581489414E-2
3.769764437E0,7.941247895E-3,-2.968805134E-1,6.536258012E-2
3.771778597E0,9.773843922E-3,-3.097086847E-1,7.574728876E-2
3.773762240E0,2.260201424E-2,-3.310889602E-1,9.346238524E-2
3.775806917E0,3.726277873E-2,-3.469714522E-1,1.032362282E-1
3.777760042E0,4.642575979E-2,-3.567453027E-1,1.111774743E-1
3.779743685E0,7.208210230E-2,-3.549126983E-1,1.240056455E-1
3.781757845E0,8.552113175E-2,-3.536909819E-1,1.307251602E-1
3.783710970E0,1.093448773E-1,-3.488040566E-1,1.301143020E-1
3.785725130E0,1.368338168E-1,-3.268128932E-1,1.295034289E-1
3.787708773E0,1.514945775E-1,-3.121521473E-1,1.282816976E-1
3.789722933E0,1.698205322E-1,-2.822197378E-1,1.227839142E-1
3.791737093E0,1.838704348E-1,-2.419026345E-1,1.123992056E-1
3.793690218E0,1.875356287E-1,-2.211332172E-1,1.069014147E-1
3.795734896E0,1.899790913E-1,-1.820378453E-1,9.773843735E-2
3.797688021E0,1.844813079E-1,-1.411098689E-1,8.857546002E-2
3.799702181E0,1.795943826E-1,-1.203404516E-1,7.941248268E-2
3.801685824E0,1.661553532E-1,-8.063421398E-2,6.658431143E-2
3.803669466E0,1.453859210E-1,-3.848451003E-2,5.070181563E-2
3.805683626E0,1.337794960E-1,-2.138028294E-2,4.398229718E-2
3.807636751E0,1.069014147E-1,2.015855350E-2,3.115412779E-2
3.809650911E0,9.346238524E-2,3.726277873E-2,2.871066704E-2
3.811634554E0,6.169738993E-2,6.047565863E-2,1.893682219E-2
3.813648714E0,2.993239649E-2,7.757988572E-2,1.099557430E-2
3.815693392E0,1.649336144E-2,8.613199741E-2,7.941247895E-3
3.817615999E0,-5.497787148E-3,1.020144969E-1,6.108652335E-3
3.819630160E0,-2.504547499E-2,1.142318025E-1,4.276056774E-3
3.821613802E0,-3.665191308E-2,1.246165112E-1,2.443460980E-3
3.823627962E0,-5.070181563E-2,1.386664063E-1,4.886921961E-3
3.825642122E0,-5.619960278E-2,1.521054506E-1,1.038470957E-2
3.827595247E0,-6.291911751E-2,1.612684280E-1,1.466076635E-2
3.829609408E0,-6.658431143E-2,1.637118906E-1,1.832595654E-2
3.831593050E0,-6.963863969E-2,1.747074574E-1,2.443460934E-2
3.833607210E0,-6.475171447E-2,1.808161139E-1,2.932153270E-2
3.835651888E0,-5.253441259E-2,1.960877478E-1,3.359758854E-2
3.837605013E0,-3.543018550E-2,2.083050460E-1,3.481931984E-2
3.839619173E0,-3.298672289E-2,2.150245607E-1,3.726277873E-2
3.841602816E0,-2.138028294E-2,2.266310006E-1,3.176499158E-2
3.843616976E0,-8.552113548E-3,2.425135076E-1,2.626720630E-2
3.845631136E0,-6.108652451E-4,2.626720667E-1,2.199114859E-2
3.847584261E0,1.771509275E-2,2.932153046E-1,1.343903504E-2
3.849598421E0,2.687807009E-2,3.090978265E-1,7.330383174E-3
3.851582064E0,4.398229718E-2,3.488040566E-1,-2.443460980E-3
3.853596224E0,5.619960278E-2,3.866777122E-1,-1.954768784E-2
3.855640902E0,6.536258012E-2,4.147774875E-1,-2.626720630E-2
3.857594027E0,8.002334833E-2,4.660901725E-1,-4.092797264E-2
3.859608187E0,9.224065393E-2,5.216789246E-1,-6.658431143E-2
3.861591829E0,1.001819000E-1,5.473352671E-1,-7.635815442E-2
3.863636507E0,1.203404516E-1,5.864306092E-1,-1.026253626E-1
3.865620150E0,1.490511149E-1,6.218608022E-1,-1.282816976E-1
3.867634310E0,1.710422635E-1,6.456845403E-1,-1.417207420E-1
3.869587435E0,2.241875380E-1,6.817256212E-1,-1.631010175E-1
3.871601595E0,2.907718420E-1,7.226535678E-1,-1.808161139E-1
3.873585238E0,3.316998184E-1,7.470881939E-1,-1.850921661E-1
3.875599398E0,4.221078753E-1,8.075638413E-1,-1.912008226E-1
3.877552523E0,5.247332454E-1,8.845328689E-1,-1.942551434E-1
3.879566683E0,5.797111392E-1,9.303477407E-1,-1.954768747E-1
3.881580843E0,6.969972253E-1,1.025642753E0,-1.942551434E-1
3.883564486E0,8.271115422E-1,1.130711555E0,-1.893682331E-1
3.885578646E0,8.943067193E-1,1.183246017E0,-1.887573600E-1
3.887562288E0,1.025031924E0,1.301142931E0,-1.857030392E-1
3.889545931E0,1.092837930E0,1.367727280E0,-1.857030392E-1
3.891560091E0,1.226617455E0,1.511891484E0,-1.838704348E-1
3.893543734E0,1.357953429E0,1.685988069E0,-1.826487035E-1
3.895588411E0,1.428202987E0,1.777617812E0,-1.826487035E-1
3.897541536E0,1.568091035E0,2.014633656E0,-1.844813079E-1
3.899525179E0,1.701259732E0,2.282192469E0,-1.850921661E-1
3.901539339E0,1.773952723E0,2.425135136E0,-1.850921661E-1
3.903522982E0,1.916895151E0,2.728734970E0,-1.881465018E-1
3.905537142E0,2.042122602E0,3.064100027E0,-1.893682331E-1
3.907551302E0,2.097100496E0,3.248581409E0,-1.930334121E-1
3.909504427E0,2.198503971E0,3.620598316E0,-1.979203373E-1
3.911518587E0,2.277916431E0,4.000556469E0,-1.997529417E-1
3.913502230E0,2.312735796E0,4.189313889E0,-2.028072625E-1
3.915516390E0,2.368324518E0,4.546059132E0,-2.070833147E-1
3.917469515E0,2.408030748E0,4.868596077E0,-2.186897546E-1
3.919453158E0,2.423302412E0,5.018258095E0,-2.241875380E-1
3.921467318E0,2.434908867E0,5.296201706E0,-2.412917763E-1
3.923450960E0,2.433687210E0,5.414098740E0,-2.498438805E-1
3.925465120E0,2.425745964E0,5.600412369E0,-2.742784917E-1
3.927448763E0,2.408641577E0,5.733581066E0,-2.938261926E-1
3.929432406E0,2.400089502E0,5.776341915E0,-3.036000133E-1
3.931446566E0,2.397646189E0,5.820323944E0,-3.127630055E-1
3.933430208E0,2.404976368E0,5.798332691E0,-3.164281845E-1
3.935474886E0,2.412917614E0,5.766567707E0,-3.145956099E-1
3.937428011E0,2.435519695E0,5.633399487E0,-2.993239760E-1
3.939411654E0,2.456900120E0,5.444642067E0,-2.785545588E-1
3.941425814E0,2.463619471E0,5.324912548E0,-2.608394623E-1
3.943378939E0,2.491719246E0,5.046357632E0,-2.083050460E-1
3.945393099E0,2.517375708E0,4.747033596E0,-1.411098689E-1
3.947376742E0,2.528982162E0,4.595539093E0,-9.773843735E-2
3.949360384E0,2.563801527E0,4.286441326E0,1.221730490E-3
3.951374544E0,2.596788168E0,3.990171671E0,1.172861308E-1
3.953358187E0,2.609005451E0,3.861279249E0,1.747074574E-1
3.955402865E0,2.622444391E0,3.619987488E0,2.779437006E-1
3.957355990E0,2.620001078E0,3.502701283E0,3.268128932E-1
3.959370150E0,2.613281488E0,3.292563677E0,4.141666293E-1
3.961353792E0,2.601064205E0,3.133738756E0,4.996877611E-1
3.963337435E0,2.594344616E0,3.072652102E0,5.332853794E-1
3.965351595E0,2.578462124E0,2.984687567E0,5.925393105E-1
3.967335238E0,2.555860281E0,2.919935942E0,6.371324658E-1
3.969349398E0,2.543642998E0,2.897333860E0,6.517932415E-1
3.971363558E0,2.512488842E0,2.846632004E0,6.762278080E-1
3.973316683E0,2.472171545E0,2.809369326E0,7.006624341E-1
3.975361361E0,2.451402187E0,2.791654110E0,7.134906054E-1
3.977314486E0,2.402533054E0,2.747061014E0,7.281513810E-1
3.979328646E0,2.342668295E0,2.672535419E0,7.440338731E-1
3.981312288E0,2.306627274E0,2.634050846E0,7.544185519E-1
3.983326449E0,2.226603746E0,2.525316954E0,7.727445364E-1
3.985340609E0,2.130087137E0,2.408641577E0,7.855727077E-1
3.987324251E0,2.077552795E0,2.344500780E0,7.941248417E-1
3.989338411E0,1.970651269E0,2.210721254E0,7.990117669E-1
3.991322054E0,1.864360690E0,2.087326527E0,8.063421249E-1
3.993305697E0,1.814269781E0,2.022574902E0,8.112290502E-1
3.995350374E0,1.720196486E0,1.895514846E0,8.142833710E-1
3.997303499E0,1.672549009E0,1.828319669E0,8.155050874E-1
