"Time (s)","Gyroscope x (rad/s)","Gyroscope y (rad/s)","Gyroscope z (rad/s)"
5.384938800E-2,-4.092676565E-2,-1.666085869E-1,5.665608495E-2
5.625641900E-2,-4.092676565E-2,-1.666085869E-1,5.665608495E-2
5.866423100E-2,-4.092676565E-2,-1.666085869E-1,5.665608495E-2
6.107282500E-2,-4.092676565E-2,-1.666085869E-1,5.665608495E-2
6.348058600E-2,-4.092676565E-2,-1.666085869E-1,5.665608495E-2
6.588761700E-2,-4.092676565E-2,-1.666085869E-1,5.665608495E-2
6.829542900E-2,-4.092676565E-2,-1.666085869E-1,5.665608495E-2
7.070402300E-2,-4.092676565E-2,-1.666085869E-1,5.665608495E-2
7.311178400E-2,-4.092676565E-2,-1.666085869E-1,5.665608495E-2
7.551881500E-2,-4.092676565E-2,-1.666085869E-1,5.665608495E-2
7.792662700E-2,-4.092676565E-2,-1.666085869E-1,5.665608495E-2
8.033522100E-2,-4.092676565E-2,-1.666085869E-1,5.665608495E-2
8.274298100E-2,-4.092676565E-2,-1.666085869E-1,5.665608495E-2
8.515001300E-2,-4.092676565E-2,-1.666085869E-1,5.665608495E-2
8.755782500E-2,-4.092676565E-2,-1.666085869E-1,5.665608495E-2
8.996641900E-2,-4.092676565E-2,-1.666085869E-1,5.665608495E-2
9.237417900E-2,-4.092676565E-2,-1.666085869E-1,5.665608495E-2
9.478121100E-2,4.337015375E-2,2.121167034E-1,1.511846948E-2
9.718902300E-2,4.581354558E-2,2.084516287E-1,1.511846948E-2
9.959756500E-2,4.459185153E-2,2.023431510E-1,1.389677543E-2
1.020053770E-1,4.337015375E-2,1.937913001E-1,9.009997360E-3
1.044124090E-1,4.459185153E-2,1.827960461E-1,2.901524538E-3
1.068202210E-1,4.092676565E-2,1.669140160E-1,-1.985253533E-3
1.092287630E-1,4.581354558E-2,1.449235082E-1,-9.315420873E-3
1.116365750E-1,4.947862774E-2,1.265980899E-1,-1.664558798E-2
1.140435540E-1,5.680879578E-2,1.204896197E-1,-2.397575416E-2
1.164514190E-1,5.192201585E-2,1.314848661E-1,-3.130592033E-2
1.188599610E-1,4.947862774E-2,1.498102844E-1,-3.863608837E-2
1.212677730E-1,4.214845970E-2,1.656923145E-1,-4.230117425E-2
1.236747520E-1,3.726168349E-2,1.840177327E-1,-4.474456236E-2
1.260825650E-1,3.603998944E-2,1.998997629E-1,-4.963133857E-2
1.284911590E-1,2.870982140E-2,2.133384049E-1,-5.085303262E-2
1.308989710E-1,2.748812735E-2,2.206685692E-1,-5.085303262E-2
1.333059500E-1,2.504473738E-2,2.255553454E-1,-4.840964451E-2
1.357137630E-1,2.504473738E-2,2.231119573E-1,-3.985778242E-2
1.381223560E-1,2.382304333E-2,2.145601064E-1,-2.641914412E-2
1.405301690E-1,2.382304333E-2,2.011214644E-1,-1.664558798E-2
1.429371480E-1,2.015795931E-2,1.827960461E-1,-3.206948051E-3
1.453450130E-1,1.771457121E-2,1.644706279E-1,1.023169141E-2
1.477535540E-1,1.282779220E-2,1.424801201E-1,2.367033064E-2
1.501613670E-1,1.404948719E-2,1.204896197E-1,3.100049868E-2
1.525683460E-1,6.719320081E-3,9.727742523E-2,3.833066672E-2
1.549761590E-1,7.941014133E-3,8.139539510E-2,4.321744293E-2
1.573847520E-1,7.941014133E-3,6.917845458E-2,4.566083103E-2
1.597925650E-1,5.497625098E-3,5.573981255E-2,4.688252881E-2
1.621995440E-1,3.054236295E-3,4.963133857E-2,4.566083103E-2
1.646073560E-1,4.275931045E-3,4.840964451E-2,3.955236077E-2
1.670159500E-1,-6.108472589E-4,4.840964451E-2,3.222219273E-2
1.694237630E-1,-6.108472589E-4,5.451811850E-2,2.244863659E-2
1.718307420E-1,3.054236295E-3,6.551336497E-2,1.023169141E-2
1.742385540E-1,1.832541777E-3,8.017370105E-2,-7.635590737E-4
1.766471480E-1,4.275931045E-3,1.009425074E-1,-1.298050396E-2
1.790549610E-1,4.275931045E-3,1.217113137E-1,-2.519745007E-2
1.814619400E-1,7.941014133E-3,1.498102844E-1,-3.741439432E-2
1.838697520E-1,1.404948719E-2,1.791309565E-1,-4.840964451E-2
1.862783460E-1,1.649287529E-2,2.145601064E-1,-6.306997687E-2
1.886861590E-1,2.015795931E-2,2.475458533E-1,-7.406523079E-2
1.910931380E-1,1.527118124E-2,2.744231224E-1,-8.261708915E-2
1.935009500E-1,1.893626526E-2,2.976353168E-1,-8.750387281E-2
1.959095440E-1,1.771457121E-2,3.171824515E-1,-8.994726092E-2
1.983173560E-1,1.404948719E-2,3.245126009E-1,-9.116895497E-2
2.007242840E-1,1.527118124E-2,3.318427801E-1,-8.872556686E-2
2.031321480E-1,1.282779220E-2,3.293993771E-1,-8.383878320E-2
2.055407420E-1,7.941014133E-3,3.196258247E-1,-7.528692484E-2
2.079485540E-1,5.497625098E-3,2.988570333E-1,-6.429167092E-2
2.103554810E-1,6.719320081E-3,2.768665254E-1,-5.207473040E-2
2.127633460E-1,6.719320081E-3,2.475458533E-1,-4.230117425E-2
2.151719400E-1,7.941014133E-3,2.170034945E-1,-3.008422814E-2
2.175797520E-1,7.941014133E-3,1.791309565E-1,-1.664558798E-2
2.199866790E-1,7.941014133E-3,1.498102844E-1,-6.872031838E-3
2.223945440E-1,9.162709117E-3,1.217113137E-1,4.123218823E-3
2.248031380E-1,1.038440317E-2,9.972081333E-2,1.511846948E-2
2.272108980E-1,1.404948719E-2,8.261708915E-2,2.000524849E-2
2.296178770E-1,1.527118124E-2,6.795676053E-2,2.244863659E-2
2.320257420E-1,2.015795931E-2,7.040014863E-2,2.122694254E-2
2.344343360E-1,2.382304333E-2,7.406523079E-2,1.634016447E-2
2.368420960E-1,2.382304333E-2,8.139539510E-2,6.566607859E-3
2.392490750E-1,2.504473738E-2,9.605573118E-2,-3.206948051E-3
2.416569400E-1,2.870982140E-2,1.070509851E-1,-1.908897609E-2
2.440655340E-1,2.993151546E-2,1.253764033E-1,-3.374931216E-2
2.464732940E-1,3.359659761E-2,1.400367320E-1,-4.718795046E-2
2.488802730E-1,3.603998944E-2,1.608055383E-1,-6.306997687E-2
2.512881380E-1,3.970507160E-2,1.827960461E-1,-7.773031294E-2
2.536967310E-1,4.337015375E-2,2.023431510E-1,-8.994726092E-2
2.561044920E-1,4.947862774E-2,2.255553454E-1,-9.849911928E-2
2.585114710E-1,4.825693369E-2,2.463241518E-1,-1.058292910E-1
2.609193360E-1,4.947862774E-2,2.609844804E-1,-1.119377613E-1
2.633279290E-1,4.825693369E-2,2.622061968E-1,-1.082726792E-1
2.657356900E-1,4.459185153E-2,2.560977042E-1,-9.972081333E-2
2.681426690E-1,4.703523964E-2,2.426590770E-1,-9.116895497E-2
2.705505340E-1,4.092676565E-2,2.267770469E-1,-7.650861889E-2
2.729590750E-1,3.603998944E-2,2.060082406E-1,-6.306997687E-2
2.753668880E-1,3.481829539E-2,1.840177327E-1,-4.963133857E-2
2.777738670E-1,3.237490356E-2,1.571404636E-1,-3.863608837E-2
2.801817310E-1,2.748812735E-2,1.290414780E-1,-2.764083818E-2
2.825902730E-1,2.137965336E-2,1.033858955E-1,-1.786728203E-2
2.849980860E-1,2.015795931E-2,8.017370105E-2,-8.093725890E-3
2.874050650E-1,1.282779220E-2,6.062658876E-2,-7.635590737E-4
2.898129290E-1,9.162709117E-3,4.596625641E-2,4.123218823E-3
2.922214710E-1,9.162709117E-3,3.374931216E-2,6.566607859E-3
2.946292840E-1,6.719320081E-3,2.519745007E-2,1.023169141E-2
2.970362630E-1,3.054236295E-3,1.664558798E-2,7.788302377E-3
2.994441270E-1,1.832541777E-3,1.542389300E-2,4.123218823E-3
3.018526690E-1,-6.108472589E-4,1.420219894E-2,-1.985253533E-3
3.042604810E-1,-3.054236295E-3,1.175880991E-2,-8.093725890E-3
3.066674610E-1,-7.941014133E-3,1.420219894E-2,-1.664558798E-2
3.090753250E-1,-7.941014133E-3,1.542389300E-2,-2.275406010E-2
3.114838670E-1,-7.941014133E-3,1.786728203E-2,-2.764083818E-2
3.138916790E-1,-5.497625098E-3,2.397575416E-2,-3.252761811E-2
3.162986590E-1,-6.719320081E-3,3.130592033E-2,-3.619270027E-2
3.187064710E-1,-5.497625098E-3,3.985778242E-2,-4.107947648E-2
3.211150650E-1,-7.941014133E-3,4.718795046E-2,-4.107947648E-2
3.235228770E-1,-9.162709117E-3,5.329642445E-2,-4.474456236E-2
3.259298560E-1,-1.160609815E-2,5.696150661E-2,-4.474456236E-2
3.283377210E-1,-1.160609815E-2,5.818320066E-2,-4.596625641E-2
3.307462630E-1,-1.404948719E-2,5.940489471E-2,-4.352286831E-2
3.331540750E-1,-1.404948719E-2,6.062658876E-2,-4.107947648E-2
3.355610540E-1,-1.282779220E-2,5.818320066E-2,-3.863608837E-2
3.379688670E-1,-1.527118124E-2,5.451811850E-2,-3.497100621E-2
3.403774610E-1,-1.527118124E-2,4.963133857E-2,-3.130592033E-2
3.427852730E-1,-1.649287529E-2,4.474456236E-2,-2.519745007E-2
3.451922520E-1,-1.404948719E-2,3.863608837E-2,-2.031067200E-2
3.476000650E-1,-1.527118124E-2,3.497100621E-2,-1.786728203E-2
3.500086590E-1,-1.160609815E-2,3.252761811E-2,-1.664558798E-2
3.524164710E-1,-1.038440317E-2,3.374931216E-2,-1.542389300E-2
3.548234500E-1,-9.162709117E-3,3.252761811E-2,-1.542389300E-2
3.572312630E-1,-6.719320081E-3,3.008422814E-2,-1.542389300E-2
3.596398560E-1,-4.275931045E-3,2.764083818E-2,-1.420219894E-2
3.620476690E-1,-3.054236295E-3,2.764083818E-2,-1.298050396E-2
3.644546480E-1,-4.275931045E-3,2.275406010E-2,-1.298050396E-2
3.668624610E-1,-4.275931045E-3,2.031067200E-2,-1.298050396E-2
3.692710540E-1,-3.054236295E-3,1.786728203E-2,-1.542389300E-2
3.716788670E-1,-6.108472589E-4,1.786728203E-2,-1.664558798E-2
3.740857940E-1,-6.108472589E-4,1.420219894E-2,-2.153236605E-2
3.764936590E-1,-6.108472589E-4,1.175880991E-2,-2.275406010E-2
3.789022520E-1,3.054236295E-3,1.298050396E-2,-2.641914412E-2
3.813100650E-1,1.832541777E-3,1.786728203E-2,-3.130592033E-2
3.837169920E-1,4.275931045E-3,2.519745007E-2,-3.497100621E-2
3.861248560E-1,6.719320081E-3,3.252761811E-2,-4.107947648E-2
3.885334500E-1,7.941014133E-3,4.230117425E-2,-4.718795046E-2
3.909412630E-1,1.038440317E-2,5.207473040E-2,-5.207473040E-2
3.933481900E-1,1.282779220E-2,6.062658876E-2,-5.573981255E-2
3.957560540E-1,1.038440317E-2,6.795676053E-2,-5.573981255E-2
3.981646480E-1,1.282779220E-2,7.406523079E-2,-5.696150661E-2
4.005724610E-1,1.282779220E-2,7.650861889E-2,-5.818320066E-2
4.029793880E-1,7.941014133E-3,7.406523079E-2,-5.451811850E-2
4.053872520E-1,6.719320081E-3,7.040014863E-2,-5.451811850E-2
4.077958460E-1,1.832541777E-3,6.306997687E-2,-5.207473040E-2
4.102036590E-1,1.832541777E-3,6.062658876E-2,-5.085303262E-2
4.126105860E-1,3.054236295E-3,5.085303262E-2,-4.840964451E-2
4.150184500E-1,1.832541777E-3,4.230117425E-2,-4.474456236E-2
4.174270440E-1,-1.832541777E-3,3.008422814E-2,-4.107947648E-2
4.198348040E-1,-6.719320081E-3,1.908897609E-2,-3.741439432E-2
4.222417840E-1,-4.275931045E-3,1.053711493E-2,-3.497100621E-2
4.246496480E-1,-4.275931045E-3,-4.581354442E-4,-3.252761811E-2
4.270582420E-1,-5.497625098E-3,-7.788302377E-3,-3.008422814E-2
4.294660020E-1,-5.497625098E-3,-1.634016447E-2,-2.764083818E-2
4.318729810E-1,-6.719320081E-3,-2.367033064E-2,-2.764083818E-2
4.342808460E-1,-7.941014133E-3,-2.977880463E-2,-2.764083818E-2
4.366894400E-1,-6.719320081E-3,-3.588727489E-2,-2.641914412E-2
4.390972000E-1,-6.719320081E-3,-3.588727489E-2,-2.519745007E-2
4.415041790E-1,-7.941014133E-3,-3.588727489E-2,-2.397575416E-2
4.439120440E-1,-7.941014133E-3,-3.710897267E-2,-2.641914412E-2
4.463205860E-1,-7.941014133E-3,-3.833066672E-2,-2.886253223E-2
4.487283980E-1,-6.719320081E-3,-3.833066672E-2,-2.641914412E-2
4.511353770E-1,-5.497625098E-3,-3.955236077E-2,-2.886253223E-2
4.535432420E-1,-5.497625098E-3,-3.833066672E-2,-3.130592033E-2
4.559517840E-1,-3.054236295E-3,-3.466558084E-2,-3.252761811E-2
4.583595960E-1,-3.054236295E-3,-3.344388679E-2,-3.374931216E-2
4.607665750E-1,6.108472589E-4,-3.222219273E-2,-3.741439432E-2
4.631744400E-1,-3.054236295E-3,-2.855710872E-2,-4.107947648E-2
4.655829810E-1,-3.054236295E-3,-2.611372061E-2,-4.352286831E-2
4.679907940E-1,6.108472589E-4,-2.367033064E-2,-4.352286831E-2
4.703977730E-1,1.832541777E-3,-2.122694254E-2,-4.474456236E-2
4.728056380E-1,1.832541777E-3,-2.122694254E-2,-4.474456236E-2
4.752141790E-1,4.275931045E-3,-2.367033064E-2,-4.596625641E-2
4.776219920E-1,3.054236295E-3,-2.489202656E-2,-4.352286831E-2
4.800289710E-1,7.941014133E-3,-2.611372061E-2,-4.107947648E-2
4.824368360E-1,7.941014133E-3,-2.733541466E-2,-3.985778242E-2
4.848453770E-1,7.941014133E-3,-3.100049868E-2,-3.741439432E-2
4.872531900E-1,1.160609815E-2,-3.466558084E-2,-3.497100621E-2
4.896601690E-1,1.527118124E-2,-3.833066672E-2,-3.252761811E-2
4.920680340E-1,1.282779220E-2,-4.199574888E-2,-2.886253223E-2
4.944765750E-1,1.527118124E-2,-4.077405483E-2,-2.886253223E-2
4.968843880E-1,1.893626526E-2,-4.077405483E-2,-2.886253223E-2
4.992913670E-1,2.015795931E-2,-4.199574888E-2,-3.008422814E-2
5.016991790E-1,2.260134928E-2,-4.443913698E-2,-3.008422814E-2
5.041077730E-1,2.748812735E-2,-4.566083103E-2,-3.252761811E-2
5.065155860E-1,2.626643144E-2,-4.688252881E-2,-3.252761811E-2
5.089225650E-1,2.993151546E-2,-4.688252881E-2,-3.619270027E-2
5.113303770E-1,3.115320951E-2,-4.810422286E-2,-3.497100621E-2
5.137389710E-1,3.359659761E-2,-4.566083103E-2,-3.130592033E-2
5.161467840E-1,3.726168349E-2,-4.077405483E-2,-3.130592033E-2
5.185537630E-1,4.581354558E-2,-3.588727489E-2,-3.008422814E-2
5.209615750E-1,4.825693369E-2,-3.588727489E-2,-2.886253223E-2
5.233701690E-1,4.947862774E-2,-3.833066672E-2,-2.641914412E-2
5.257779810E-1,5.070032179E-2,-4.443913698E-2,-2.031067200E-2
5.281849610E-1,5.070032179E-2,-5.054761097E-2,-1.908897609E-2
5.305927730E-1,5.192201585E-2,-5.787777901E-2,-1.908897609E-2
5.330013670E-1,5.436540768E-2,-6.520794332E-2,-1.664558798E-2
5.354091790E-1,5.314370990E-2,-6.765133142E-2,-1.664558798E-2
5.378161060E-1,5.192201585E-2,-7.009471953E-2,-1.420219894E-2
5.402239710E-1,5.558710173E-2,-7.131642103E-2,-1.175880991E-2
5.426325650E-1,5.680879578E-2,-7.253811508E-2,-8.093725890E-3
5.450403770E-1,6.047387794E-2,-7.253811508E-2,-6.872031838E-3
5.474473560E-1,6.536065787E-2,-6.887302548E-2,-4.428642802E-3
5.498551690E-1,6.902574003E-2,-6.765133142E-2,-6.872031838E-3
5.522637630E-1,7.391251624E-2,-6.154286116E-2,-5.650337320E-3
5.546715750E-1,7.879929990E-2,-5.909947306E-2,-6.872031838E-3
5.570785020E-1,8.124268800E-2,-5.543438718E-2,-9.315420873E-3
5.594863670E-1,8.124268800E-2,-5.299099907E-2,-1.053711493E-2
5.618949610E-1,8.612946421E-2,-4.688252881E-2,-1.053711493E-2
5.643027730E-1,8.735115826E-2,-4.199574888E-2,-1.053711493E-2
5.667097000E-1,9.101624042E-2,-3.833066672E-2,-9.315420873E-3
5.691175650E-1,9.468132257E-2,-3.710897267E-2,-8.093725890E-3
5.715261590E-1,9.834641218E-2,-3.588727489E-2,-6.872031838E-3
5.739339710E-1,1.007898003E-1,-3.344388679E-2,-5.650337320E-3
5.763408980E-1,1.044548824E-1,-3.100049868E-2,-3.206948051E-3
5.787487630E-1,1.093416587E-1,-2.855710872E-2,-4.428642802E-3
5.811573560E-1,1.178935245E-1,-2.855710872E-2,-5.650337320E-3
5.835651690E-1,1.240019947E-1,-2.977880463E-2,-5.650337320E-3
5.859720960E-1,1.252236813E-1,-3.100049868E-2,-6.872031838E-3
5.883799610E-1,1.325538605E-1,-3.466558084E-2,-4.428642802E-3
5.907885540E-1,1.386623234E-1,-3.588727489E-2,-4.428642802E-3
5.931963150E-1,1.411057115E-1,-3.710897267E-2,-1.985253533E-3
5.956032940E-1,1.423274130E-1,-3.955236077E-2,-7.635590737E-4
5.980111590E-1,1.472141892E-1,-4.077405483E-2,1.679830020E-3
6.004197520E-1,1.557660550E-1,-3.833066672E-2,4.123218823E-3
6.028275650E-1,1.606528312E-1,-3.833066672E-2,5.344913341E-3
6.052344920E-1,1.667613089E-1,-3.588727489E-2,7.788302377E-3
6.076423560E-1,1.692046970E-1,-3.222219273E-2,1.023169141E-2
6.100509500E-1,1.740914732E-1,-2.733541466E-2,1.267508045E-2
6.124587110E-1,1.777565479E-1,-2.000524849E-2,1.634016447E-2
6.148656900E-1,1.777565479E-1,-1.267508045E-2,2.000524849E-2
6.172735540E-1,1.753131598E-1,-7.788302377E-3,2.855710872E-2
6.196821480E-1,1.740914732E-1,-4.581354442E-4,3.344388679E-2
6.220899090E-1,1.716480851E-1,4.428642802E-3,4.199574888E-2
6.244968880E-1,1.728697717E-1,9.315420873E-3,4.566083103E-2
6.269047520E-1,1.740914732E-1,1.420219894E-2,5.054761097E-2
6.293133460E-1,1.753131598E-1,1.664558798E-2,5.543438718E-2
6.317211060E-1,1.753131598E-1,1.664558798E-2,5.787777901E-2
6.341280860E-1,1.728697717E-1,1.786728203E-2,6.276455522E-2
6.365359500E-1,1.753131598E-1,2.031067200E-2,6.276455522E-2
6.389445440E-1,1.728697717E-1,2.153236605E-2,6.154286116E-2
6.413523040E-1,1.679829955E-1,2.275406010E-2,6.032116711E-2
6.437592840E-1,1.655396074E-1,1.786728203E-2,5.665608495E-2
6.461671480E-1,1.618745178E-1,1.298050396E-2,4.932591692E-2
6.485757420E-1,1.533226669E-1,9.315420873E-3,4.443913698E-2
6.509835020E-1,1.484358907E-1,5.650337320E-3,3.833066672E-2
6.533904810E-1,1.411057115E-1,3.206948051E-3,3.222219273E-2
6.557983460E-1,1.349972486E-1,3.206948051E-3,2.855710872E-2
6.582069400E-1,1.313321590E-1,8.093725890E-3,2.367033064E-2
6.606147000E-1,1.325538605E-1,1.298050396E-2,2.122694254E-2
6.630216790E-1,1.337755471E-1,2.031067200E-2,1.756185852E-2
6.654295440E-1,1.337755471E-1,2.886253223E-2,1.145338640E-2
6.678381380E-1,1.337755471E-1,3.497100621E-2,7.788302377E-3
6.702458980E-1,1.337755471E-1,4.107947648E-2,-7.635590737E-4
6.726528770E-1,1.325538605E-1,4.230117425E-2,-9.315420873E-3
6.750607420E-1,1.288887709E-1,4.352286831E-2,-1.542389300E-2
6.774692840E-1,1.276670843E-1,4.107947648E-2,-2.275406010E-2
6.798770960E-1,1.227803007E-1,3.619270027E-2,-3.130592033E-2
6.822840750E-1,1.203369126E-1,3.497100621E-2,-3.374931216E-2
6.846919400E-1,1.166718230E-1,3.374931216E-2,-3.374931216E-2
6.871004810E-1,1.142284349E-1,3.863608837E-2,-3.252761811E-2
6.895082940E-1,1.166718230E-1,4.230117425E-2,-2.764083818E-2
6.919152730E-1,1.215586066E-1,4.718795046E-2,-2.397575416E-2
6.943231380E-1,1.252236813E-1,4.963133857E-2,-1.786728203E-2
6.967316790E-1,1.276670843E-1,4.840964451E-2,-1.420219894E-2
6.991394920E-1,1.301104724E-1,4.963133857E-2,-9.315420873E-3
7.015464710E-1,1.313321590E-1,4.474456236E-2,-5.650337320E-3
7.039542840E-1,1.349972486E-1,4.352286831E-2,-4.428642802E-3
7.063628770E-1,1.374406368E-1,4.107947648E-2,-7.635590737E-4
7.087706900E-1,1.411057115E-1,3.741439432E-2,1.679830020E-3
7.111776690E-1,1.423274130E-1,3.252761811E-2,6.566607859E-3
7.135855340E-1,1.472141892E-1,2.886253223E-2,9.009997360E-3
7.159940750E-1,1.496575773E-1,2.641914412E-2,1.145338640E-2
7.184018880E-1,1.533226669E-1,2.519745007E-2,1.145338640E-2
7.208088670E-1,1.545443535E-1,2.397575416E-2,1.634016447E-2
7.232166790E-1,1.594311297E-1,2.153236605E-2,1.878355257E-2
7.256252730E-1,1.606528312E-1,2.031067200E-2,2.000524849E-2
7.280330860E-1,1.655396074E-1,1.908897609E-2,2.122694254E-2
7.304400650E-1,1.679829955E-1,2.031067200E-2,2.000524849E-2
7.328478770E-1,1.692046970E-1,2.153236605E-2,2.000524849E-2
7.352564710E-1,1.753131598E-1,2.275406010E-2,1.878355257E-2
7.376642840E-1,1.789782494E-1,2.275406010E-2,1.634016447E-2
7.400712630E-1,1.801999360E-1,2.397575416E-2,1.389677543E-2
7.424790750E-1,1.826433241E-1,2.519745007E-2,1.145338640E-2
7.448876690E-1,1.838650256E-1,2.397575416E-2,9.009997360E-3
7.472954810E-1,1.838650256E-1,2.031067200E-2,1.023169141E-2
7.497024610E-1,1.814216375E-1,2.031067200E-2,6.566607859E-3
7.521102730E-1,1.789782494E-1,1.786728203E-2,4.123218823E-3
7.545188670E-1,1.814216375E-1,1.664558798E-2,4.581354442E-4
7.569266790E-1,1.814216375E-1,1.298050396E-2,-7.635590737E-4
7.593336590E-1,1.826433241E-1,9.315420873E-3,-7.635590737E-4
7.617414710E-1,1.801999360E-1,4.428642802E-3,-1.985253533E-3
7.641500650E-1,1.814216375E-1,1.985253533E-3,-1.985253533E-3
7.665578770E-1,1.850867122E-1,-2.901524538E-3,-4.428642802E-3
7.689648560E-1,1.863084137E-1,-5.344913341E-3,-6.872031838E-3
7.713726690E-1,1.875301152E-1,-9.009997360E-3,-8.093725890E-3
7.737812630E-1,1.875301152E-1,-1.389677543E-2,-1.053711493E-2
7.761890750E-1,1.875301152E-1,-1.878355257E-2,-1.175880991E-2
7.785960020E-1,1.863084137E-1,-2.367033064E-2,-1.542389300E-2
7.810038670E-1,1.875301152E-1,-2.611372061E-2,-1.542389300E-2
7.834124610E-1,1.899735034E-1,-3.222219273E-2,-2.031067200E-2
7.858202730E-1,1.887518018E-1,-4.443913698E-2,-2.397575416E-2
7.882272000E-1,1.899735034E-1,-5.054761097E-2,-2.641914412E-2
7.906350650E-1,1.911951900E-1,-5.909947306E-2,-2.886253223E-2
7.930436590E-1,1.899735034E-1,-6.520794332E-2,-3.130592033E-2
7.954514710E-1,1.863084137E-1,-7.253811508E-2,-3.130592033E-2
7.978583980E-1,1.863084137E-1,-7.742489129E-2,-3.497100621E-2
8.002662630E-1,1.863084137E-1,-8.597674966E-2,-3.863608837E-2
8.026748560E-1,1.863084137E-1,-9.452861547E-2,-4.352286831E-2
8.050826690E-1,1.826433241E-1,-1.006370857E-1,-4.596625641E-2
8.074895960E-1,1.838650256E-1,-1.091889441E-1,-5.085303262E-2
8.098974610E-1,1.826433241E-1,-1.128540337E-1,-5.451811850E-2
8.123060540E-1,1.789782494E-1,-1.189625040E-1,-5.940489471E-2
8.147138670E-1,1.765348613E-1,-1.250709742E-1,-6.062658876E-2
8.171207940E-1,1.753131598E-1,-1.311794519E-1,-6.551336497E-2
8.195286590E-1,1.716480851E-1,-1.360662282E-1,-7.040014863E-2
8.219372520E-1,1.728697717E-1,-1.397313178E-1,-7.162184268E-2
8.243450650E-1,1.728697717E-1,-1.421747059E-1,-7.528692484E-2
8.267519920E-1,1.692046970E-1,-1.470614821E-1,-7.895200700E-2
8.291598560E-1,1.630962193E-1,-1.507265568E-1,-8.139539510E-2
8.315684500E-1,1.606528312E-1,-1.556133330E-1,-8.261708915E-2
8.339762630E-1,1.594311297E-1,-1.617218107E-1,-8.383878320E-2
8.363831900E-1,1.582094431E-1,-1.666085869E-1,-8.628217876E-2
8.387910540E-1,1.557660550E-1,-1.690519750E-1,-8.506047726E-2
8.411996480E-1,1.545443535E-1,-1.776038408E-1,-8.628217876E-2
8.436074610E-1,1.508792788E-1,-1.849340051E-1,-8.628217876E-2
8.460143880E-1,1.521009654E-1,-1.959292591E-1,-8.750387281E-2
8.484222520E-1,1.496575773E-1,-2.093679011E-1,-8.628217876E-2
8.508308460E-1,1.472141892E-1,-2.215848416E-1,-8.383878320E-2
8.532386590E-1,1.472141892E-1,-2.374668717E-1,-8.017370105E-2
8.556455860E-1,1.447708011E-1,-2.557922900E-1,-8.017370105E-2
8.580534500E-1,1.398840249E-1,-2.753393948E-1,-7.773031294E-2
8.604620440E-1,1.411057115E-1,-2.973299026E-1,-7.406523079E-2
8.628698560E-1,1.398840249E-1,-3.168770075E-1,-7.284353673E-2
8.652767840E-1,1.349972486E-1,-3.352024257E-1,-6.795676053E-2
8.676846480E-1,1.337755471E-1,-3.535278440E-1,-6.429167092E-2
8.700932420E-1,1.349972486E-1,-3.706315756E-1,-6.184828654E-2
8.725010540E-1,1.252236813E-1,-3.914003670E-1,-5.573981255E-2
8.749079810E-1,1.264453828E-1,-4.072824121E-1,-5.329642445E-2
8.773158460E-1,1.227803007E-1,-4.243861437E-1,-5.207473040E-2
8.797244400E-1,1.215586066E-1,-4.402681589E-1,-4.963133857E-2
8.821322520E-1,1.191152185E-1,-4.537068009E-1,-5.207473040E-2
8.845391790E-1,1.154501289E-1,-4.659237564E-1,-5.329642445E-2
8.869470440E-1,1.142284349E-1,-4.744756222E-1,-5.818320066E-2
8.893556380E-1,1.105633527E-1,-4.781406820E-1,-6.306997687E-2
8.917633980E-1,1.093416587E-1,-4.842491746E-1,-7.040014863E-2
8.941703770E-1,1.032331884E-1,-4.879142344E-1,-7.895200700E-2
8.965782420E-1,1.032331884E-1,-4.866925478E-1,-9.239064902E-2
8.989868360E-1,9.956810623E-2,-4.842491746E-1,-1.046075895E-1
9.013946480E-1,9.468132257E-2,-4.781406820E-1,-1.143811494E-1
9.038015750E-1,9.345962852E-2,-4.708105326E-1,-1.241547018E-1
9.062094400E-1,8.979454637E-2,-4.585935771E-1,-1.327065676E-1
9.086180340E-1,8.857285231E-2,-4.451549351E-1,-1.412584335E-1
9.110257940E-1,8.979454637E-2,-4.329380095E-1,-1.461452097E-1
9.134327730E-1,8.979454637E-2,-4.231644273E-1,-1.510319859E-1
9.158406380E-1,8.612946421E-2,-4.109475017E-1,-1.546970755E-1
9.182492310E-1,8.612946421E-2,-4.036173224E-1,-1.583621502E-1
9.206569920E-1,7.879929990E-2,-3.987305462E-1,-1.595838517E-1
9.230639710E-1,7.879929990E-2,-3.962871730E-1,-1.620272398E-1
9.254718360E-1,7.635590434E-2,-3.962871730E-1,-1.632489264E-1
9.278804290E-1,7.146912813E-2,-4.011739492E-1,-1.632489264E-1
9.302881900E-1,6.780404598E-2,-4.085040987E-1,-1.644706279E-1
9.326951690E-1,6.658235192E-2,-4.121691883E-1,-1.632489264E-1
9.351030340E-1,6.413896382E-2,-4.182776511E-1,-1.608055383E-1
9.375116270E-1,5.803048983E-2,-4.243861437E-1,-1.559187621E-1
9.399193880E-1,5.558710173E-2,-4.292729199E-1,-1.498102844E-1
9.423263670E-1,5.192201585E-2,-4.378247857E-1,-1.461452097E-1
9.447342310E-1,5.070032179E-2,-4.463766217E-1,-1.412584335E-1
9.471428250E-1,4.337015375E-2,-4.585935771E-1,-1.363716573E-1
9.495505860E-1,3.970507160E-2,-4.622586668E-1,-1.351499557E-1
9.519575650E-1,3.848337755E-2,-4.598152637E-1,-1.339282542E-1
9.543654290E-1,3.603998944E-2,-4.537068009E-1,-1.327065676E-1
9.567740230E-1,3.359659761E-2,-4.500417113E-1,-1.327065676E-1
9.591817840E-1,3.237490356E-2,-4.488200247E-1,-1.339282542E-1
9.615887630E-1,3.603998944E-2,-4.341596961E-1,-1.388150454E-1
9.639966270E-1,3.726168349E-2,-4.207210541E-1,-1.449235082E-1
9.664052210E-1,3.726168349E-2,-4.072824121E-1,-1.498102844E-1
9.688129810E-1,3.726168349E-2,-3.938437700E-1,-1.559187621E-1
9.712199610E-1,4.214845970E-2,-3.767400384E-1,-1.632489264E-1
9.736278250E-1,4.703523964E-2,-3.584146202E-1,-1.608055383E-1
9.760364190E-1,5.314370990E-2,-3.425326049E-1,-1.314848661E-1
9.784441790E-1,5.070032179E-2,-3.339807391E-1,-9.972081333E-2
9.808511590E-1,5.558710173E-2,-3.242071867E-1,-7.528692484E-2
9.832590230E-1,6.902574003E-2,-3.254288733E-1,-5.451811850E-2
9.856676170E-1,7.757759839E-2,-3.205420971E-1,-3.619270027E-2
9.880753770E-1,8.735115826E-2,-3.156553209E-1,-2.519745007E-2
9.904823560E-1,1.007898003E-1,-3.119902313E-1,-1.664558798E-2
9.928902210E-1,1.105633527E-1,-3.058817685E-1,-1.175880991E-2
9.952987630E-1,1.191152185E-1,-2.997733057E-1,-8.093725890E-3
9.977065750E-1,1.337755471E-1,-2.948864996E-1,-4.428642802E-3
1.000113554E0,1.459924877E-1,-2.875563502E-1,-5.650337320E-3
1.002521419E0,1.557660550E-1,-2.777827978E-1,-1.053711493E-2
1.004930013E0,1.643179059E-1,-2.692309320E-1,-1.908897609E-2
1.007337773E0,1.679829955E-1,-2.594573796E-1,-2.886253223E-2
1.009744752E0,1.716480851E-1,-2.484621257E-1,-3.741439432E-2
1.012152617E0,1.728697717E-1,-2.386885732E-1,-4.718795046E-2
1.014561211E0,1.728697717E-1,-2.325800955E-1,-5.696150661E-2
1.016968971E0,1.740914732E-1,-2.325800955E-1,-6.551336497E-2
1.019375950E0,1.716480851E-1,-2.338017821E-1,-7.773031294E-2
1.021783815E0,1.692046970E-1,-2.313583940E-1,-8.628217876E-2
1.024192356E0,1.606528312E-1,-2.264716178E-1,-9.239064902E-2
1.026600169E0,1.521009654E-1,-2.215848416E-1,-9.972081333E-2
1.029007148E0,1.472141892E-1,-2.191414535E-1,-1.082726792E-1
1.031415013E0,1.362189353E-1,-2.179197669E-1,-1.131594554E-1
1.033823606E0,1.301104724E-1,-2.191414535E-1,-1.241547018E-1
1.036231367E0,1.227803007E-1,-2.228065431E-1,-1.314848661E-1
1.038638346E0,1.215586066E-1,-2.252499312E-1,-1.424801201E-1
1.041046211E0,1.142284349E-1,-2.301367074E-1,-1.510319859E-1
1.043454752E0,1.130067408E-1,-2.338017821E-1,-1.559187621E-1
1.045862565E0,1.105633527E-1,-2.399102598E-1,-1.595838517E-1
1.048269544E0,1.105633527E-1,-2.460187376E-1,-1.632489264E-1
1.050677409E0,1.081199646E-1,-2.545706034E-1,-1.669140160E-1
1.053086002E0,1.117850468E-1,-2.741177082E-1,-1.730224788E-1
1.055493763E0,1.215586066E-1,-3.022166789E-1,-1.852394342E-1
1.057900742E0,1.288887709E-1,-3.315373361E-1,-1.950129867E-1
1.060308606E0,1.398840249E-1,-3.633013964E-1,-2.060082406E-1
1.062717148E0,1.521009654E-1,-3.877353072E-1,-2.145601064E-1
1.065124961E0,1.618745178E-1,-4.011739492E-1,-2.206685692E-1
1.067531940E0,1.679829955E-1,-4.121691883E-1,-2.279987335E-1
1.069939804E0,1.753131598E-1,-4.219427407E-1,-2.341072112E-1
1.072348346E0,1.814216375E-1,-4.366030693E-1,-2.389939874E-1
1.074756159E0,1.875301152E-1,-4.475983381E-1,-2.402156889E-1
1.077163138E0,1.973036677E-1,-4.598152637E-1,-2.414373755E-1
1.079571002E0,1.997470558E-1,-4.720322192E-1,-2.426590770E-1
1.081979544E0,2.058555335E-1,-4.842491746E-1,-2.463241518E-1
1.084387356E0,2.095206082E-1,-4.952444136E-1,-2.487675399E-1
1.086794336E0,2.107423097E-1,-5.025745630E-1,-2.512109280E-1
1.089202200E0,2.156290859E-1,-5.050179958E-1,-2.536543310E-1
1.091610742E0,2.144073844E-1,-5.074613690E-1,-2.573194206E-1
1.094018554E0,2.119639963E-1,-5.111264586E-1,-2.609844804E-1
1.096425534E0,2.058555335E-1,-5.123481154E-1,-2.634278834E-1
1.098833398E0,1.960819662E-1,-5.074613690E-1,-2.646495700E-1
1.101241940E0,1.899735034E-1,-5.001311898E-1,-2.646495700E-1
1.103649752E0,1.801999360E-1,-4.940227270E-1,-2.646495700E-1
1.106056731E0,1.655396074E-1,-4.818057716E-1,-2.634278834E-1
1.108464596E0,1.533226669E-1,-4.695888162E-1,-2.634278834E-1
1.110873138E0,1.374406368E-1,-4.512633979E-1,-2.634278834E-1
1.113280950E0,1.191152185E-1,-4.304946065E-1,-2.609844804E-1
1.115687929E0,1.032331884E-1,-4.109475017E-1,-2.597627938E-1
1.118095794E0,8.857285231E-2,-3.877353072E-1,-2.560977042E-1
1.120504336E0,7.269082218E-2,-3.645231128E-1,-2.524326444E-1
1.122912148E0,6.047387794E-2,-3.388675153E-1,-2.487675399E-1
1.125319127E0,4.459185153E-2,-3.144336343E-1,-2.451024652E-1
1.127726992E0,3.115320951E-2,-2.851129472E-1,-2.414373755E-1
1.130135534E0,1.649287529E-2,-2.606790662E-1,-2.389939874E-1
1.132543346E0,3.054236295E-3,-2.350234836E-1,-2.365505993E-1
1.134950325E0,-4.275931045E-3,-2.118112892E-1,-2.341072112E-1
1.137358190E0,-1.282779220E-2,-1.873773932E-1,-2.304421216E-1
1.139766731E0,-2.382304333E-2,-1.641651988E-1,-2.292204350E-1
1.142174544E0,-3.237490356E-2,-1.397313178E-1,-2.292204350E-1
1.144581523E0,-4.337015375E-2,-1.189625040E-1,-2.292204350E-1
1.146989336E0,-4.581354558E-2,-9.941539168E-2,-2.316638231E-1
1.149397929E0,-5.558710173E-2,-8.353336155E-2,-2.328855246E-1
1.151805742E0,-6.291726977E-2,-7.009471953E-2,-2.365505993E-1
1.154212721E0,-6.658235192E-2,-5.543438718E-2,-2.365505993E-1
1.156620586E0,-6.536065787E-2,-4.199574888E-2,-2.402156889E-1
1.159029127E0,-6.413896382E-2,-2.977880463E-2,-2.438807636E-1
1.161436940E0,-6.780404598E-2,-2.122694254E-2,-2.451024652E-1
1.163843919E0,-6.413896382E-2,-1.267508045E-2,-2.463241518E-1
1.166251784E0,-6.536065787E-2,-4.123218823E-3,-2.426590770E-1
1.168660325E0,-6.413896382E-2,3.206948051E-3,-2.365505993E-1
1.171068138E0,-6.169557199E-2,1.053711493E-2,-2.304421216E-1
1.173475117E0,-6.169557199E-2,1.298050396E-2,-2.243336588E-1
1.175882981E0,-5.925218388E-2,9.315420873E-3,-2.145601064E-1
1.178291523E0,-5.925218388E-2,7.635590737E-4,-2.108950168E-1
1.180699336E0,-5.680879578E-2,4.428642802E-3,-2.035648525E-1
1.183106315E0,-4.825693369E-2,1.175880991E-2,-1.925695986E-1
1.185514179E0,-3.970507160E-2,2.031067200E-2,-1.803526580E-1
1.187922721E0,-2.993151546E-2,3.130592033E-2,-1.705790907E-1
1.190330534E0,-1.771457121E-2,3.619270027E-2,-1.632489264E-1
1.192737513E0,-4.275931045E-3,4.352286831E-2,-1.571404636E-1
1.195145325E0,1.038440317E-2,4.474456236E-2,-1.510319859E-1
1.197553919E0,2.382304333E-2,4.718795046E-2,-1.485885978E-1
1.199961731E0,3.848337755E-2,4.352286831E-2,-1.461452097E-1
1.202368711E0,5.436540768E-2,4.107947648E-2,-1.437018216E-1
1.204776523E0,6.902574003E-2,3.619270027E-2,-1.473668963E-1
1.207185117E0,7.879929990E-2,3.130592033E-2,-1.449235082E-1
1.209592929E0,9.223793447E-2,2.397575416E-2,-1.473668963E-1
1.211999909E0,1.068982705E-1,1.542389300E-2,-1.510319859E-1
1.214407773E0,1.203369126E-1,3.206948051E-3,-1.522536725E-1
1.216816315E0,1.301104724E-1,-9.009997360E-3,-1.534753740E-1
1.219224127E0,1.423274130E-1,-2.733541466E-2,-1.583621502E-1
1.221631106E0,1.533226669E-1,-4.566083103E-2,-1.620272398E-1
1.224038919E0,1.606528312E-1,-6.642963737E-2,-1.656923145E-1
1.226447513E0,1.667613089E-1,-8.964183182E-2,-1.693574041E-1
1.228855325E0,1.704263836E-1,-1.116323397E-1,-1.693574041E-1
1.231262304E0,1.728697717E-1,-1.348445266E-1,-1.730224788E-1
1.233670169E0,1.728697717E-1,-1.629435122E-1,-1.754658818E-1
1.236078711E0,1.740914732E-1,-1.873773932E-1,-1.766875684E-1
1.238486523E0,1.716480851E-1,-2.118112892E-1,-1.791309565E-1
1.240893502E0,1.679829955E-1,-2.374668717E-1,-1.827960461E-1
1.243301315E0,1.655396074E-1,-2.594573796E-1,-1.864611208E-1
1.245709909E0,1.594311297E-1,-2.814478874E-1,-1.901262105E-1
1.248117721E0,1.533226669E-1,-2.985515893E-1,-1.925695986E-1
1.250524700E0,1.472141892E-1,-3.156553209E-1,-1.962346882E-1
1.252932565E0,1.435490996E-1,-3.315373361E-1,-2.023431510E-1
1.255341106E0,1.374406368E-1,-3.400892019E-1,-2.072299272E-1
1.257748919E0,1.337755471E-1,-3.474193811E-1,-2.133384049E-1
1.260155898E0,1.301104724E-1,-3.535278440E-1,-2.194468826E-1
1.262563711E0,1.288887709E-1,-3.608580232E-1,-2.267770469E-1
1.264972304E0,1.240019947E-1,-3.657447994E-1,-2.316638231E-1
1.267380117E0,1.215586066E-1,-3.669664860E-1,-2.377723008E-1
1.269787096E0,1.203369126E-1,-3.681881726E-1,-2.426590770E-1
1.272194909E0,1.166718230E-1,-3.718532622E-1,-2.499892414E-1
1.274603502E0,1.130067408E-1,-3.718532622E-1,-2.548760176E-1
1.277011315E0,1.117850468E-1,-3.718532622E-1,-2.597627938E-1
1.279418294E0,1.093416587E-1,-3.694098890E-1,-2.646495700E-1
1.281826106E0,1.081199646E-1,-3.645231128E-1,-2.707580328E-1
1.284234700E0,1.020114943E-1,-3.571929336E-1,-2.744231224E-1
1.286642513E0,9.956810623E-2,-3.510844707E-1,-2.793098986E-1
1.289049492E0,9.712471068E-2,-3.388675153E-1,-2.841966748E-1
1.291457304E0,9.834641218E-2,-3.278722763E-1,-2.878617644E-1
1.293865898E0,9.834641218E-2,-3.144336343E-1,-2.927485406E-1
1.296273711E0,9.712471068E-2,-2.997733057E-1,-2.976353168E-1
1.298680690E0,1.007898003E-1,-2.814478874E-1,-3.025220931E-1
1.301088502E0,1.007898003E-1,-2.655658424E-1,-3.049654961E-1
1.303497096E0,1.044548824E-1,-2.509055138E-1,-3.122956753E-1
1.305904909E0,1.105633527E-1,-2.350234836E-1,-3.171824515E-1
1.308311888E0,1.117850468E-1,-2.154763639E-1,-3.220692277E-1
1.310719700E0,1.130067408E-1,-1.947075576E-1,-3.269560039E-1
1.313128294E0,1.154501289E-1,-1.751604527E-1,-3.342861533E-1
1.315536106E0,1.166718230E-1,-1.556133330E-1,-3.391729295E-1
1.317943086E0,1.142284349E-1,-1.360662282E-1,-3.403946459E-1
1.320350950E0,1.142284349E-1,-1.177408099E-1,-3.452814221E-1
1.322759492E0,1.142284349E-1,-1.006370857E-1,-3.489464819E-1
1.325167304E0,1.093416587E-1,-8.231166750E-2,-3.526115716E-1
1.327574284E0,1.056765765E-1,-6.642963737E-2,-3.538332880E-1
1.329982096E0,1.032331884E-1,-4.688252881E-2,-3.562766612E-1
1.332390690E0,1.007898003E-1,-2.977880463E-2,-3.611634374E-1
1.334798502E0,9.712471068E-2,-1.145338640E-2,-3.636068404E-1
1.337205481E0,8.979454637E-2,5.650337320E-3,-3.660502136E-1
1.339613294E0,8.246438205E-2,2.397575416E-2,-3.697153032E-1
1.342021888E0,7.635590434E-2,4.107947648E-2,-3.709369898E-1
1.344429700E0,7.391251624E-2,5.573981255E-2,-3.721587062E-1
1.346836679E0,7.269082218E-2,7.162184268E-2,-3.758237660E-1
1.349244492E0,6.536065787E-2,8.628217876E-2,-3.733803928E-1
1.351653086E0,6.169557199E-2,9.849911928E-2,-3.733803928E-1
1.354060898E0,6.291726977E-2,1.131594554E-1,-3.746020794E-1
1.356467877E0,6.169557199E-2,1.265980899E-1,-3.746020794E-1
1.358875690E0,6.291726977E-2,1.388150454E-1,-3.733803928E-1
1.361284284E0,6.413896382E-2,1.485885978E-1,-3.733803928E-1
1.363692096E0,6.536065787E-2,1.583621502E-1,-3.721587062E-1
1.366099075E0,6.780404598E-2,1.656923145E-1,-3.709369898E-1
1.368506888E0,7.146912813E-2,1.730224788E-1,-3.684936166E-1
1.370915481E0,7.269082218E-2,1.779092699E-1,-3.660502136E-1
1.373323294E0,7.269082218E-2,1.852394342E-1,-3.636068404E-1
1.375730273E0,7.757759839E-2,1.925695986E-1,-3.611634374E-1
1.378138086E0,8.246438205E-2,1.974563748E-1,-3.562766612E-1
1.380546679E0,8.368607610E-2,1.998997629E-1,-3.526115716E-1
1.382954492E0,8.612946421E-2,2.011214644E-1,-3.489464819E-1
1.385361471E0,8.735115826E-2,2.011214644E-1,-3.465031087E-1
1.387769284E0,8.979454637E-2,2.023431510E-1,-3.440597057E-1
1.390177877E0,8.979454637E-2,2.047865391E-1,-3.367295563E-1
1.392585690E0,8.857285231E-2,2.023431510E-1,-3.355078697E-1
1.394992669E0,8.490777016E-2,2.011214644E-1,-3.330644667E-1
1.397400481E0,8.368607610E-2,2.060082406E-1,-3.269560039E-1
1.399809075E0,8.246438205E-2,2.096733153E-1,-3.232909143E-1
1.402216888E0,8.124268800E-2,2.157817930E-1,-3.196258247E-1
1.404623867E0,8.002099395E-2,2.243336588E-1,-3.171824515E-1
1.407031679E0,7.269082218E-2,2.328855246E-1,-3.098522723E-1
1.409440273E0,7.269082218E-2,2.438807636E-1,-3.061871827E-1
1.411848086E0,7.391251624E-2,2.512109280E-1,-3.037438095E-1
1.414255065E0,7.635590434E-2,2.573194206E-1,-3.025220931E-1
1.416662877E0,7.757759839E-2,2.646495700E-1,-2.964136302E-1
1.419071471E0,7.635590434E-2,2.695363462E-1,-2.939702570E-1
1.421479284E0,8.002099395E-2,2.768665254E-1,-2.890834510E-1
1.423886211E0,8.246438205E-2,2.829749882E-1,-2.854183912E-1
1.426294075E0,8.368607610E-2,2.854183912E-1,-2.817533016E-1
1.428702669E0,8.857285231E-2,2.903051674E-1,-2.805316150E-1
1.431110481E0,9.101624042E-2,2.964136302E-1,-2.744231224E-1
1.433517461E0,9.712471068E-2,3.049654961E-1,-2.707580328E-1
1.435925273E0,1.007898003E-1,3.147390485E-1,-2.670929730E-1
1.438333867E0,9.834641218E-2,3.269560039E-1,-2.622061968E-1
1.440741679E0,1.020114943E-1,3.452814221E-1,-2.548760176E-1
1.443148659E0,1.093416587E-1,3.611634374E-1,-2.512109280E-1
1.445556471E0,1.117850468E-1,3.807105422E-1,-2.463241518E-1
1.447965065E0,1.166718230E-1,4.014793634E-1,-2.426590770E-1
1.450372877E0,1.191152185E-1,4.210264683E-1,-2.389939874E-1
1.452779856E0,1.215586066E-1,4.430169761E-1,-2.316638231E-1
1.455187669E0,1.240019947E-1,4.625640810E-1,-2.267770469E-1
1.457596263E0,1.301104724E-1,4.808894992E-1,-2.231119573E-1
1.460004075E0,1.325538605E-1,5.004366040E-1,-2.194468826E-1
1.462411002E0,1.374406368E-1,5.212054253E-1,-2.157817930E-1
1.464818867E0,1.447708011E-1,5.407525301E-1,-2.145601064E-1
1.467227461E0,1.459924877E-1,5.602996349E-1,-2.096733153E-1
1.469635273E0,1.508792788E-1,5.774033666E-1,-2.084516287E-1
1.472042200E0,1.569877416E-1,5.932853818E-1,-2.084516287E-1
1.474450065E0,1.582094431E-1,6.091674566E-1,-2.084516287E-1
1.476858659E0,1.630962193E-1,6.299362183E-1,-2.096733153E-1
1.479266471E0,1.667613089E-1,6.458182931E-1,-2.096733153E-1
1.481673398E0,1.704263836E-1,6.617003083E-1,-2.121167034E-1
1.484081263E0,1.777565479E-1,6.788040400E-1,-2.133384049E-1
1.486489856E0,1.801999360E-1,6.959077120E-1,-2.157817930E-1
1.488897669E0,1.850867122E-1,7.117897868E-1,-2.157817930E-1
1.491304648E0,1.924168915E-1,7.264500856E-1,-2.194468826E-1
1.493712461E0,1.973036677E-1,7.459971905E-1,-2.231119573E-1
1.496121054E0,2.034121305E-1,7.594358325E-1,-2.267770469E-1
1.498528867E0,2.131856978E-1,7.789829373E-1,-2.292204350E-1
1.500935794E0,2.192941606E-1,7.936432958E-1,-2.316638231E-1
1.503343659E0,2.229592502E-1,8.107470274E-1,-2.328855246E-1
1.505752252E0,2.266243398E-1,8.278507590E-1,-2.341072112E-1
1.508160065E0,2.363978922E-1,8.425110579E-1,-2.365505993E-1
1.510566992E0,2.388412803E-1,8.571714163E-1,-2.341072112E-1
1.512974856E0,2.449497581E-1,8.693883419E-1,-2.328855246E-1
1.515383450E0,2.510582209E-1,8.816053271E-1,-2.304421216E-1
1.517791263E0,2.547233105E-1,8.926005363E-1,-2.255553454E-1
1.520198190E0,2.559449971E-1,8.999307156E-1,-2.243336588E-1
1.522606054E0,2.620534599E-1,9.145910740E-1,-2.194468826E-1
1.525014648E0,2.608317733E-1,9.255862832E-1,-2.121167034E-1
1.527422461E0,2.644968629E-1,9.353598356E-1,-2.060082406E-1
1.529829388E0,2.657185495E-1,9.426900148E-1,-1.998997629E-1
1.532237252E0,2.657185495E-1,9.536852837E-1,-1.913478971E-1
1.534645846E0,2.657185495E-1,9.622371197E-1,-1.840177327E-1
1.537053659E0,2.693836391E-1,9.744541049E-1,-1.730224788E-1
1.539460586E0,2.681619525E-1,9.805625677E-1,-1.620272398E-1
1.541868450E0,2.681619525E-1,9.866710305E-1,-1.498102844E-1
1.544277044E0,2.693836391E-1,9.927794933E-1,-1.375933439E-1
1.546684856E0,2.693836391E-1,9.988879561E-1,-1.265980899E-1
1.549091784E0,2.681619525E-1,1.000109673E0,-1.131594554E-1
1.551499648E0,2.693836391E-1,1.000109673E0,-9.849911928E-2
1.553908242E0,2.718270421E-1,9.976662993E-1,-8.506047726E-2
1.556316054E0,2.693836391E-1,9.952229261E-1,-7.040014863E-2
1.558722981E0,2.730487287E-1,9.915578365E-1,-5.940489471E-2
1.561130846E0,2.754921019E-1,9.830059409E-1,-4.840964451E-2
1.563539440E0,2.791571915E-1,9.756757617E-1,-3.863608837E-2
1.565947252E0,2.767138183E-1,9.683456421E-1,-2.764083818E-2
1.568354179E0,2.816005945E-1,9.585720897E-1,-1.908897609E-2
1.570762044E0,2.828222811E-1,9.487984776E-1,-1.175880991E-2
1.573170638E0,2.889307439E-1,9.414683580E-1,-1.985253533E-3
1.575578450E0,2.987042964E-1,9.365815520E-1,5.344913341E-3
1.577985377E0,3.035911024E-1,9.292513728E-1,1.267508045E-2
1.580393242E0,3.145863414E-1,9.268079996E-1,1.878355257E-2
1.582801836E0,3.243598938E-1,9.304730892E-1,2.611372061E-2
1.585209648E0,3.316900730E-1,9.280297160E-1,3.344388679E-2
1.587616575E0,3.463504016E-1,9.292513728E-1,3.710897267E-2
1.590024440E0,3.585673273E-1,9.304730892E-1,4.199574888E-2
1.592433034E0,3.695625961E-1,9.353598356E-1,4.810422286E-2
1.594840846E0,3.793361485E-1,9.390249252E-1,5.176930502E-2
1.597247773E0,3.866663277E-1,9.390249252E-1,5.421269313E-2
1.599655638E0,3.952181637E-1,9.353598356E-1,5.787777901E-2
1.602064231E0,3.988832533E-1,9.206995368E-1,5.909947306E-2
1.604471992E0,4.111002088E-1,9.048175216E-1,5.909947306E-2
1.606878971E0,4.184303582E-1,8.816053271E-1,5.909947306E-2
1.609286836E0,4.257605374E-1,8.620582223E-1,6.154286116E-2
1.611695429E0,4.282039404E-1,8.315158486E-1,6.398624927E-2
1.614103242E0,4.330907166E-1,8.058602214E-1,6.520794332E-2
1.616510169E0,4.391991794E-1,7.789829373E-1,6.398624927E-2
1.618918034E0,4.404208660E-1,7.557707429E-1,6.642963737E-2
1.621326627E0,4.404208660E-1,7.313368917E-1,6.887302548E-2
1.623734440E0,4.391991794E-1,7.093463540E-1,6.765133142E-2
1.626141367E0,4.343124032E-1,6.885775924E-1,6.765133142E-2
1.628549231E0,4.269822240E-1,6.690304875E-1,6.887302548E-2
1.630957825E0,4.245388508E-1,6.445965767E-1,7.009471953E-2
1.633365638E0,4.135435820E-1,6.226060390E-1,7.131642103E-2
1.635772565E0,4.123218954E-1,6.006155610E-1,7.009471953E-2
1.638180429E0,4.074351192E-1,5.761816502E-1,6.887302548E-2
1.640589023E0,3.976615667E-1,5.529694557E-1,7.131642103E-2
1.642996836E0,3.903313875E-1,5.285356045E-1,7.131642103E-2
1.645403763E0,3.805578351E-1,5.041016936E-1,7.498150319E-2
1.647811627E0,3.744493723E-1,4.808894992E-1,7.742489129E-2
1.650220221E0,3.658975065E-1,4.552339315E-1,8.108997345E-2
1.652627981E0,3.512371778E-1,4.320217371E-1,8.842013776E-2
1.655034961E0,3.439069986E-1,4.112529159E-1,9.452861547E-2
1.657442825E0,3.341334462E-1,3.892624080E-1,1.043021679E-1
1.659851419E0,3.194731176E-1,3.672719002E-1,1.128540337E-1
1.662259179E0,3.060344756E-1,3.452814221E-1,1.238492802E-1
1.664666159E0,2.864873707E-1,3.257342875E-1,1.409530044E-1
1.667074023E0,2.718270421E-1,3.061871827E-1,1.543916464E-1
1.669482617E0,2.510582209E-1,2.854183912E-1,1.727170646E-1
1.671890377E0,2.278460264E-1,2.646495700E-1,1.922641695E-1
1.674297356E0,2.046338320E-1,2.438807636E-1,2.142546773E-1
1.676705221E0,1.789782494E-1,2.206685692E-1,2.350234836E-1
1.679113815E0,1.472141892E-1,2.023431510E-1,2.582356930E-1
1.681521575E0,1.154501289E-1,1.791309565E-1,2.826695740E-1
1.683928554E0,8.612946421E-2,1.583621502E-1,3.058817685E-1
1.686336419E0,5.070032179E-2,1.363716573E-1,3.303156495E-1
1.688745013E0,2.015795931E-2,1.168245375E-1,3.559712470E-1
1.691152773E0,-1.527118124E-2,9.849911928E-2,3.779617548E-1
1.693559752E0,-5.192201585E-2,7.895200700E-2,3.999522328E-1
1.695967617E0,-8.857285231E-2,6.062658876E-2,4.219427407E-1
1.698376211E0,-1.252236813E-1,3.985778242E-2,4.390464723E-1
1.700783971E0,-1.630962193E-1,1.664558798E-2,4.573718905E-1
1.703190950E0,-2.009687424E-1,-1.145338640E-2,4.744756222E-1
1.705598815E0,-2.351761907E-1,-4.443913698E-2,4.879142344E-1
1.708007409E0,-2.767138183E-1,-8.108997345E-2,5.025745630E-1
1.710415169E0,-3.145863414E-1,-1.262926757E-1,5.147915483E-1
1.712822148E0,-3.536805511E-1,-1.727170646E-1,5.270084739E-1
1.715230013E0,-3.866663277E-1,-2.252499312E-1,5.392253995E-1
1.717638554E0,-4.220954478E-1,-2.814478874E-1,5.514423847E-1
1.720046367E0,-4.575245976E-1,-3.388675153E-1,5.624375939E-1
1.722453346E0,-4.868452549E-1,-3.999522328E-1,5.734328628E-1
1.724861211E0,-5.137225389E-1,-4.622586668E-1,5.856497884E-1
1.727269804E0,-5.381564498E-1,-5.294518471E-1,5.954233408E-1
1.729677565E0,-5.613686442E-1,-5.942016840E-1,6.088619828E-1
1.732084544E0,-5.845808387E-1,-6.662816405E-1,6.235223413E-1
1.734492409E0,-6.090146899E-1,-7.359182239E-1,6.357392669E-1
1.736901002E0,-6.273401380E-1,-8.043331504E-1,6.491779089E-1
1.739308763E0,-6.505523324E-1,-8.739697337E-1,6.650599241E-1
1.741715742E0,-6.774296165E-1,-9.374978542E-1,6.809419990E-1
1.744123606E0,-6.994200945E-1,-1.001025915E0,6.980457306E-1
1.746532200E0,-7.250757217E-1,-1.062110662E0,7.139277458E-1
1.748939961E0,-7.507312894E-1,-1.118308663E0,7.322531343E-1
1.751346940E0,-7.812736630E-1,-1.173284888E0,7.542436719E-1
1.753754804E0,-8.069292307E-1,-1.227039456E0,7.811209559E-1
1.756163346E0,-8.399149776E-1,-1.274685502E0,8.092198968E-1
1.758571159E0,-8.692356348E-1,-1.316223145E0,8.409839869E-1
1.760978138E0,-8.948912621E-1,-1.356539011E0,8.727480173E-1
1.763386002E0,-9.193251133E-1,-1.391968250E0,9.130639434E-1
1.765794596E0,-9.413156509E-1,-1.421288848E0,9.521581531E-1
1.768202356E0,-9.645278454E-1,-1.448166132E0,9.949174523E-1
1.770609336E0,-9.828532338E-1,-1.468934894E0,1.041341901E0
1.773017200E0,-9.975135922E-1,-1.484817028E0,1.092653036E0
1.775425742E0,-1.018282413E0,-1.498255610E0,1.143964171E0
1.777833554E0,-1.028055906E0,-1.501920700E0,1.196497083E0
1.780240534E0,-1.040272832E0,-1.501920700E0,1.253916740E0
1.782648398E0,-1.052489877E0,-1.495812178E0,1.308892965E0
1.785056940E0,-1.061041713E0,-1.484817028E0,1.363869190E0
1.787464752E0,-1.068371892E0,-1.462826490E0,1.418845415E0
1.789871731E0,-1.074633002E0,-1.437170863E0,1.470156670E0
1.792279596E0,-1.081963181E0,-1.407850266E0,1.521467805E0
1.794688138E0,-1.088071704E0,-1.371199369E0,1.570335627E0
1.797095950E0,-1.095401883E0,-1.328440070E0,1.615538239E0
1.799502929E0,-1.097845197E0,-1.282015681E0,1.654632568E0
1.801910794E0,-1.105175376E0,-1.230704546E0,1.688839912E0
1.804319336E0,-1.117392302E0,-1.176949978E0,1.718160629E0
1.806727148E0,-1.123500824E0,-1.119530320E0,1.740151167E0
1.809134127E0,-1.136939406E0,-1.057223916E0,1.758476496E0
1.811541992E0,-1.155264854E0,-9.900307059E-1,1.769471765E0
1.813950534E0,-1.174811959E0,-9.240592122E-1,1.775580287E0
1.816358346E0,-1.194359064E0,-8.568660021E-1,1.770693541E0
1.818765325E0,-1.223679781E0,-7.860077024E-1,1.762141585E0
1.821173190E0,-1.251778722E0,-7.163711190E-1,1.743816257E0
1.823581731E0,-1.281099439E0,-6.467345357E-1,1.718160629E0
1.825989544E0,-1.316528559E0,-5.795413256E-1,1.686396599E0
1.828396523E0,-1.353179336E0,-5.209000111E-1,1.649745703E0
1.830804388E0,-1.389830232E0,-4.610369802E-1,1.609429836E0
1.833212929E0,-1.424037695E0,-4.023956358E-1,1.569113851E0
1.835620742E0,-1.459466815E0,-3.510844707E-1,1.521467805E0
1.838027721E0,-1.491230845E0,-3.046600819E-1,1.473821759E0
1.840435586E0,-1.521773219E0,-2.631224692E-1,1.421288848E0
1.842844127E0,-1.555980682E0,-2.154763639E-1,1.363869190E0
1.845251940E0,-1.596296549E0,-1.641651988E-1,1.300341129E0
1.847658919E0,-1.636612535E0,-1.238492802E-1,1.236812949E0
1.850066731E0,-1.672041655E0,-1.030804738E-1,1.170841455E0
1.852475325E0,-1.697697282E0,-9.452861547E-2,1.107313395E0
1.854883138E0,-1.724574566E0,-9.575030953E-2,1.043785214E0
1.857290117E0,-1.745343328E0,-1.043021679E-1,9.802571535E-1
1.859697929E0,-1.764890432E0,-1.165191159E-1,9.240592122E-1
1.862106523E0,-1.778329134E0,-1.348445266E-1,8.715263009E-1
1.864514336E0,-1.790546060E0,-1.605001241E-1,8.238802552E-1
1.866921315E0,-1.800319552E0,-1.885990947E-1,7.811209559E-1
1.869329127E0,-1.811314821E0,-2.203631550E-1,7.420266867E-1
1.871737721E0,-1.817423344E0,-2.557922900E-1,7.065975666E-1
1.874145534E0,-1.824753523E0,-2.924431264E-1,6.772769094E-1
1.876552513E0,-1.827196836E0,-3.290939629E-1,6.528429985E-1
1.878960325E0,-1.830861926E0,-3.645231128E-1,6.308525205E-1
1.881368919E0,-1.839413762E0,-3.987305462E-1,6.076403260E-1
1.883776731E0,-1.846743941E0,-4.317162931E-1,5.893148780E-1
1.886183711E0,-1.854074121E0,-4.647020400E-1,5.734328628E-1
1.888591523E0,-1.858960867E0,-5.025745630E-1,5.612159371E-1
1.891000117E0,-1.860182643E0,-5.416688323E-1,5.526640415E-1
1.893407929E0,-1.855295897E0,-5.856497884E-1,5.465555787E-1
1.895814909E0,-1.851630807E0,-6.271874309E-1,5.477772951E-1
1.898222721E0,-1.841857195E0,-6.760551929E-1,5.489989519E-1
1.900631315E0,-1.827196836E0,-7.212579250E-1,5.538857579E-1
1.903039127E0,-1.810093164E0,-7.579087615E-1,5.624375939E-1
1.905446054E0,-1.781994224E0,-7.908945084E-1,5.758762360E-1
1.907853919E0,-1.753895164E0,-8.177717924E-1,5.929799676E-1
1.910262513E0,-1.716022611E0,-8.409839869E-1,6.161921620E-1
1.912670325E0,-1.678150177E0,-8.641961813E-1,6.418477297E-1
1.915077304E0,-1.632947445E0,-8.800781965E-1,6.711684465E-1
1.917485117E0,-1.587744713E0,-8.947384953E-1,7.017107606E-1
1.919893711E0,-1.542542100E0,-9.057337642E-1,7.334748507E-1
1.922301523E0,-1.493674278E0,-9.069554806E-1,7.640172243E-1
1.924708450E0,-1.446028233E0,-9.081771374E-1,7.921161652E-1
1.927116315E0,-1.397160411E0,-9.032903910E-1,8.165500760E-1
1.929524909E0,-1.344627500E0,-8.935168386E-1,8.397622705E-1
1.931932721E0,-1.298203111E0,-8.861866593E-1,8.617527485E-1
1.934339648E0,-1.248113632E0,-8.800781965E-1,8.812998533E-1
1.936747513E0,-1.190693974E0,-8.690829277E-1,8.971819282E-1
1.939156106E0,-1.136939406E0,-8.629744649E-1,9.081771374E-1
1.941563919E0,-1.083184958E0,-8.532009125E-1,9.179506898E-1
1.943970846E0,-1.034164429E0,-8.446490765E-1,9.313893318E-1
1.946378711E0,-9.914051294E-1,-8.348754644E-1,9.423846006E-1
1.948787304E0,-9.474241138E-1,-8.287670016E-1,9.533798695E-1
1.951195117E0,-9.119949341E-1,-8.226585388E-1,9.668185115E-1
1.953602044E0,-8.814526200E-1,-8.226585388E-1,9.802571535E-1
1.956009909E0,-8.533536196E-1,-8.202151656E-1,9.900307059E-1
1.958418502E0,-8.301414251E-1,-8.226585388E-1,9.985825419E-1
1.960826315E0,-8.093726039E-1,-8.238802552E-1,1.009577751E0
1.963233242E0,-7.849387527E-1,-8.312104344E-1,1.018129706E0
1.965641106E0,-7.641699314E-1,-8.348754644E-1,1.027903199E0
1.968049700E0,-7.409577370E-1,-8.409839869E-1,1.032789946E0
1.970457513E0,-7.226322889E-1,-8.483141065E-1,1.037676811E0
1.972864440E0,-6.981984377E-1,-8.544226289E-1,1.043785214E0
1.975272304E0,-6.835380793E-1,-8.580876589E-1,1.048672080E0
1.977680898E0,-6.664343476E-1,-8.617527485E-1,1.053558826E0
1.980088659E0,-6.493306160E-1,-8.641961813E-1,1.054780483E0
1.982495638E0,-6.322268844E-1,-8.690829277E-1,1.054780483E0
1.984903502E0,-6.151232123E-1,-8.727480173E-1,1.056002140E0
1.987312096E0,-6.004628539E-1,-8.764131069E-1,1.052337170E0
1.989719856E0,-5.858024955E-1,-8.776348233E-1,1.046228647E0
1.992126836E0,-5.723638535E-1,-8.776348233E-1,1.035233378E0
1.994534700E0,-5.577035546E-1,-8.764131069E-1,1.020573020E0
1.996943294E0,-5.405998230E-1,-8.764131069E-1,1.003469348E0
1.999351054E0,-5.271611810E-1,-8.764131069E-1,9.888089895E-1
2.001758034E0,-5.088357925E-1,-8.739697337E-1,9.753703475E-1
2.004165898E0,-4.917320311E-1,-8.764131069E-1,9.631534219E-1
2.006574492E0,-4.782933891E-1,-8.776348233E-1,9.546015263E-1
2.008982252E0,-4.599680007E-1,-8.825215697E-1,9.472714067E-1
2.011389231E0,-4.489727318E-1,-8.849649429E-1,9.411629438E-1
2.013797096E0,-4.404208660E-1,-8.935168386E-1,9.362761378E-1
2.016205690E0,-4.269822240E-1,-8.984035850E-1,9.313893318E-1
2.018613450E0,-4.172086716E-1,-9.032903910E-1,9.265025854E-1
2.021020429E0,-4.001049399E-1,-9.069554806E-1,9.191724062E-1
2.023428294E0,-3.903313875E-1,-9.130639434E-1,9.118422270E-1
2.025836888E0,-3.793361485E-1,-9.167290330E-1,9.008470178E-1
2.028244648E0,-3.658975065E-1,-9.203941226E-1,8.898517489E-1
2.030651627E0,-3.536805511E-1,-9.228374958E-1,8.739697337E-1
2.033059492E0,-3.390202224E-1,-9.240592122E-1,8.568660021E-1
2.035468086E0,-3.206948042E-1,-9.216157794E-1,8.360971808E-1
2.037875846E0,-3.060344756E-1,-9.179506898E-1,8.141067028E-1
2.040282825E0,-2.913741469E-1,-9.142856598E-1,7.884510756E-1
2.042690690E0,-2.706053257E-1,-9.081771374E-1,7.603521347E-1
2.045099284E0,-2.583884001E-1,-9.008470178E-1,7.334748507E-1
2.047507044E0,-2.437280566E-1,-8.935168386E-1,7.004891038E-1
2.049914023E0,-2.254026383E-1,-8.837432861E-1,6.711684465E-1
2.052321888E0,-2.082989216E-1,-8.715263009E-1,6.381826997E-1
2.054730429E0,-1.936385781E-1,-8.568660021E-1,6.100836992E-1
2.057138242E0,-1.801999360E-1,-8.409839869E-1,5.783196688E-1
2.059545221E0,-1.655396074E-1,-8.214368224E-1,5.489989519E-1
2.061953086E0,-1.472141892E-1,-8.006680608E-1,5.160132051E-1
2.064361627E0,-1.276670843E-1,-7.762341499E-1,4.842491746E-1
2.066769440E0,-1.068982705E-1,-7.505785823E-1,4.488200247E-1
2.069176419E0,-8.857285231E-2,-7.261446714E-1,4.133908749E-1
2.071584284E0,-7.146912813E-2,-6.980457306E-1,3.791834414E-1
2.073992825E0,-5.314370990E-2,-6.687250137E-1,3.474193811E-1
2.076400638E0,-3.603998944E-2,-6.394043565E-1,3.095468581E-1
2.078807617E0,-1.649287529E-2,-6.100836992E-1,2.777827978E-1
2.081215481E0,6.108472589E-4,-5.807630420E-1,2.423536479E-1
2.083624023E0,1.893626526E-2,-5.526640415E-1,2.069245130E-1
2.086031836E0,3.481829539E-2,-5.245651007E-1,1.690519750E-1
2.088438815E0,4.947862774E-2,-4.964661002E-1,1.299577504E-1
2.090846679E0,6.413896382E-2,-4.695888162E-1,9.452861547E-2
2.093255221E0,7.757759839E-2,-4.439332485E-1,5.421269313E-2
2.095663034E0,9.712471068E-2,-4.182776511E-1,1.756185852E-2
2.098070013E0,1.117850468E-1,-3.962871730E-1,-2.031067200E-2
2.100477877E0,1.288887709E-1,-3.767400384E-1,-5.940489471E-2
2.102886419E0,1.447708011E-1,-3.608580232E-1,-9.727742523E-2
2.105294231E0,1.594311297E-1,-3.461976945E-1,-1.351499557E-1
2.107701211E0,1.728697717E-1,-3.339807391E-1,-1.730224788E-1
2.110109023E0,1.863084137E-1,-3.205420971E-1,-2.096733153E-1
2.112517617E0,1.997470558E-1,-3.107685447E-1,-2.463241518E-1
2.114925429E0,2.119639963E-1,-3.034383655E-1,-2.805316150E-1
2.117332409E0,2.180724740E-1,-3.022166789E-1,-3.159607351E-1
2.119740221E0,2.266243398E-1,-2.973299026E-1,-3.538332880E-1
2.122148815E0,2.339545041E-1,-2.961082160E-1,-3.929274976E-1
2.124556627E0,2.412846684E-1,-2.875563502E-1,-4.356867969E-1
2.126963606E0,2.510582209E-1,-2.826695740E-1,-4.808894992E-1
2.129371419E0,2.608317733E-1,-2.741177082E-1,-5.224271417E-1
2.131780013E0,2.706053257E-1,-2.667875290E-1,-5.602996349E-1
2.134187825E0,2.767138183E-1,-2.570139766E-1,-5.981721878E-1
2.136594804E0,2.901524603E-1,-2.509055138E-1,-6.360446811E-1
2.139002617E0,2.974826097E-1,-2.423536479E-1,-6.714738607E-1
2.141411211E0,3.048127890E-1,-2.301367074E-1,-7.056813240E-1
2.143819023E0,3.158080280E-1,-2.191414535E-1,-7.386670709E-1
2.146226002E0,3.280249834E-1,-2.069245130E-1,-7.679877281E-1
2.148633815E0,3.377985358E-1,-1.934858710E-1,-7.960866690E-1
2.151042409E0,3.487937748E-1,-1.788255423E-1,-8.229639530E-1
2.153450221E0,3.634541333E-1,-1.629435122E-1,-8.473978639E-1
2.155857200E0,3.817795515E-1,-1.482831687E-1,-8.718317747E-1
2.158265013E0,3.952181637E-1,-1.336228400E-1,-8.926005363E-1
2.160673606E0,4.123218954E-1,-1.214058921E-1,-9.133693576E-1
2.163081419E0,4.330907166E-1,-1.091889441E-1,-9.316948056E-1
2.165488346E0,4.538595080E-1,-9.575030953E-2,-9.500201941E-1
2.167896211E0,4.746283293E-1,-8.475505561E-2,-9.646805525E-1
2.170304804E0,5.027272701E-1,-7.620319724E-2,-9.768974781E-1
2.172712617E0,5.308262706E-1,-6.642963737E-2,-9.866710305E-1
2.175119544E0,5.577035546E-1,-5.787777901E-2,-9.964445829E-1
2.177527409E0,5.870242119E-1,-5.054761097E-2,-1.004996419E0
2.179936002E0,6.175665855E-1,-4.077405483E-2,-1.009883285E0
2.182343815E0,6.432221532E-1,-3.100049868E-2,-1.012326598E0
2.184750742E0,6.700994372E-1,-2.122694254E-2,-1.008661509E0
2.187158606E0,6.969767213E-1,-1.511846948E-2,-1.003774762E0
2.189567200E0,7.214106321E-1,-1.023169141E-2,-9.915578365E-1
2.191975013E0,7.421793938E-1,-6.566607859E-3,-9.756757617E-1
2.194381940E0,7.629482150E-1,-7.788302377E-3,-9.549070001E-1
2.196789804E0,7.812736630E-1,-1.145338640E-2,-9.329164624E-1
2.199198398E0,7.971556783E-1,-1.878355257E-2,-9.072608948E-1
2.201606211E0,8.081509471E-1,-2.977880463E-2,-8.791618943E-1
2.204013138E0,8.191461563E-1,-3.955236077E-2,-8.522846103E-1
2.206421002E0,8.252546191E-1,-5.299099907E-2,-8.229639530E-1
2.208829596E0,8.289197087E-1,-6.887302548E-2,-7.887565494E-1
2.211237409E0,8.276980519E-1,-8.475505561E-2,-7.533273697E-1
2.213644336E0,8.264763355E-1,-1.006370857E-1,-7.117897868E-1
2.216052200E0,8.191461563E-1,-1.201841980E-1,-6.702521443E-1
2.218460794E0,8.093726039E-1,-1.446180940E-1,-6.201626658E-1
2.220868554E0,7.910472155E-1,-1.714953631E-1,-5.664080977E-1
2.223275534E0,7.678350210E-1,-2.044811249E-1,-5.089884996E-1
2.225683398E0,7.348492742E-1,-2.386885732E-1,-4.393518865E-1
2.228091992E0,6.933116317E-1,-2.741177082E-1,-3.648285270E-1
2.230499752E0,6.383354068E-1,-3.083251417E-1,-2.841966748E-1
2.232906731E0,5.821374655E-1,-3.437542915E-1,-1.950129867E-1
2.235314596E0,5.198310018E-1,-3.767400384E-1,-1.033858955E-1
2.237723190E0,4.538595080E-1,-4.121691883E-1,-1.053711493E-2
2.240130950E0,3.842229247E-1,-4.488200247E-1,8.108997345E-2
2.242537929E0,3.121429384E-1,-4.866925478E-1,1.666085869E-1
2.244945794E0,2.363978922E-1,-5.196782947E-1,2.484621257E-1
2.247354388E0,1.606528312E-1,-5.453338623E-1,3.278722763E-1
2.249762148E0,8.735115826E-2,-5.673243999E-1,4.011739492E-1
2.252169127E0,7.941014133E-3,-5.819846988E-1,4.695888162E-1
2.254576992E0,-7.269082218E-2,-5.929799676E-1,5.441122055E-1
2.256985586E0,-1.569877416E-1,-6.064186096E-1,6.161921620E-1
2.259393346E0,-2.412846684E-1,-6.223006248E-1,6.894938350E-1
2.261800325E0,-3.243598938E-1,-6.455128193E-1,7.579087615E-1
2.264208190E0,-4.111002088E-1,-6.748335361E-1,8.251019120E-1
2.266616731E0,-4.966188073E-1,-7.078192830E-1,8.849649429E-1
2.269024544E0,-5.809157491E-1,-7.456917763E-1,9.399412274E-1
2.271431523E0,-6.652126908E-1,-7.823426127E-1,9.851438999E-1
2.273839388E0,-7.434011102E-1,-8.116632700E-1,1.023016453E0
2.276247929E0,-8.130376935E-1,-8.324320912E-1,1.052337170E0
2.278655742E0,-8.790091872E-1,-8.385405540E-1,1.068219185E0
2.281062721E0,-9.290986657E-1,-8.287670016E-1,1.068219185E0
2.283470586E0,-9.681929350E-1,-8.055548072E-1,1.057223916E0
2.285879127E0,-9.901834130E-1,-7.713474035E-1,1.029124975E0
2.288286940E0,-1.001178622E0,-7.212579250E-1,9.875873327E-1
2.290693919E0,-9.914051294E-1,-6.638382673E-1,9.301676750E-1
2.293101784E0,-9.706363082E-1,-6.003101468E-1,8.593093753E-1
2.295510325E0,-9.315420985E-1,-5.318952799E-1,7.798992395E-1
2.297918138E0,-8.729007244E-1,-4.683671296E-1,6.882721782E-1
2.300325117E0,-7.983773947E-1,-4.133908749E-1,5.954233408E-1
2.302732929E0,-7.091936469E-1,-3.694098890E-1,4.964661002E-1
2.305141523E0,-6.077930331E-1,-3.425326049E-1,3.975088596E-1
2.307549336E0,-4.990622103E-1,-3.315373361E-1,2.985515893E-1
2.309956315E0,-3.878880143E-1,-3.376458287E-1,2.032594234E-1
2.312364127E0,-2.730487287E-1,-3.559712470E-1,1.079672500E-1
2.314772721E0,-1.606528312E-1,-3.914003670E-1,1.511846948E-2
2.317180534E0,-4.581354558E-2,-4.378247857E-1,-7.650861889E-2
2.319587513E0,6.169557199E-2,-4.976878166E-1,-1.632489264E-1
2.321995325E0,1.618745178E-1,-5.697677732E-1,-2.414373755E-1
2.324403919E0,2.535016239E-1,-6.455128193E-1,-3.110739589E-1
2.326811731E0,3.353551328E-1,-7.200362086E-1,-3.746020794E-1
2.329218711E0,4.123218954E-1,-7.896727920E-1,-4.308000207E-1
2.331626523E0,4.807367921E-1,-8.495358229E-1,-4.869979918E-1
2.334035117E0,5.430431962E-1,-8.971819282E-1,-5.419742465E-1
2.336442929E0,6.004628539E-1,-9.387195110E-1,-5.957288146E-1
2.338849856E0,6.529957056E-1,-9.655967951E-1,-6.458182931E-1
2.341257721E0,7.006418109E-1,-9.863656163E-1,-6.946860552E-1
2.343666315E0,7.458444834E-1,-9.973608851E-1,-7.350019813E-1
2.346074127E0,7.861604095E-1,-1.008356094E0,-7.728744745E-1
2.348481054E0,8.264763355E-1,-1.019351363E0,-8.058602214E-1
2.350888919E0,8.643488884E-1,-1.030346632E0,-8.327375054E-1
2.353297513E0,8.973346353E-1,-1.041341901E0,-8.522846103E-1
2.355705325E0,9.290986657E-1,-1.051115394E0,-8.681666851E-1
2.358112252E0,9.486457705E-1,-1.060889006E0,-8.803836107E-1
2.360520117E0,9.669712186E-1,-1.070662498E0,-8.877137899E-1
2.362928711E0,9.779664874E-1,-1.079214454E0,-8.877137899E-1
2.365336523E0,9.840749502E-1,-1.088987947E0,-8.864920735E-1
2.367743450E0,9.779664874E-1,-1.099983215E0,-8.791618943E-1
2.370151315E0,9.620844126E-1,-1.108535051E0,-8.669449687E-1
2.372559909E0,9.388722181E-1,-1.118308663E0,-8.522846103E-1
2.374967721E0,9.119949341E-1,-1.118308663E0,-8.290724158E-1
2.377374648E0,8.826742768E-1,-1.112200141E0,-8.021951914E-1
2.379782513E0,8.484668136E-1,-1.088987947E0,-7.679877281E-1
2.382191106E0,8.093726039E-1,-1.054780483E0,-7.240067124E-1
2.384598867E0,7.702783942E-1,-1.002247691E0,-6.726955175E-1
2.387005846E0,7.287407517E-1,-9.301676750E-1,-6.128324866E-1
2.389413711E0,6.872031689E-1,-8.409839869E-1,-5.480827093E-1
2.391822304E0,6.420004964E-1,-7.383615971E-1,-4.784461260E-1
2.394230065E0,5.943543911E-1,-6.284091473E-1,-4.075878263E-1
2.396637044E0,5.503733754E-1,-5.172349215E-1,-3.403946459E-1
2.399044909E0,5.051707029E-1,-4.158342779E-1,-2.744231224E-1
2.401453502E0,4.611896873E-1,-3.290939629E-1,-2.096733153E-1
2.403861263E0,4.233171642E-1,-2.594573796E-1,-1.485885978E-1
2.406268242E0,3.842229247E-1,-2.081461996E-1,-8.994726092E-2
2.408676106E0,3.475720882E-1,-1.751604527E-1,-3.619270027E-2
2.411084700E0,3.133646548E-1,-1.531699449E-1,1.511846948E-2
2.413492461E0,2.816005945E-1,-1.421747059E-1,5.787777901E-2
2.415899440E0,2.522799075E-1,-1.397313178E-1,9.330692142E-2
2.418307304E0,2.254026383E-1,-1.372879148E-1,1.250709742E-1
2.420715846E0,1.911951900E-1,-1.275143623E-1,1.470614821E-1
2.423123659E0,1.655396074E-1,-1.104106456E-1,1.605001241E-1
2.425530638E0,1.398840249E-1,-8.353336155E-2,1.690519750E-1
2.427938502E0,1.093416587E-1,-4.566083103E-2,1.690519750E-1
2.430347044E0,8.612946421E-2,-4.581354442E-4,1.629435122E-1
2.432754856E0,7.024743408E-2,5.207473040E-2,1.507265568E-1
2.435161836E0,6.047387794E-2,1.094943732E-1,1.311794519E-1
2.437569700E0,5.070032179E-2,1.669140160E-1,1.091889441E-1
2.439978242E0,4.703523964E-2,2.206685692E-1,8.475505561E-2
2.442386054E0,4.581354558E-2,2.744231224E-1,5.665608495E-2
2.444793034E0,4.214845970E-2,3.257342875E-1,2.367033064E-2
2.447200898E0,4.214845970E-2,3.782671690E-1,-1.298050396E-2
2.449609440E0,3.970507160E-2,4.271349311E-1,-5.329642445E-2
2.452017252E0,3.603998944E-2,4.723376334E-1,-9.727742523E-2
2.454424231E0,2.626643144E-2,5.163186193E-1,-1.485885978E-1
2.456832044E0,1.771457121E-2,5.566345453E-1,-2.035648525E-1
2.459240638E0,3.054236295E-3,5.932853818E-1,-2.646495700E-1
2.461648450E0,-1.893626526E-2,6.287145615E-1,-3.293993771E-1
2.464055429E0,-4.703523964E-2,6.568135023E-1,-4.002576768E-1
2.466463242E0,-7.879929990E-2,6.800256968E-1,-4.760027230E-1
2.468871836E0,-1.117850468E-1,6.971294284E-1,-5.590779781E-1
2.471279648E0,-1.447708011E-1,7.081246972E-1,-6.409314871E-1
2.473686627E0,-1.753131598E-1,7.069029808E-1,-7.252284288E-1
2.476094440E0,-2.034121305E-1,6.959077120E-1,-8.034168482E-1
2.478503034E0,-2.315111160E-1,6.763606071E-1,-8.791618943E-1
2.480910846E0,-2.583884001E-1,6.678087711E-1,-9.512419105E-1
2.483317825E0,-2.938175201E-1,6.739172339E-1,-1.017213345E0
2.485725638E0,-3.292466700E-1,6.824691296E-1,-1.069746256E0
2.488134231E0,-3.646758199E-1,6.763606071E-1,-1.105175376E0
2.490542044E0,-3.915531039E-1,6.617003083E-1,-1.122279167E0
2.492948971E0,-4.135435820E-1,6.433748603E-1,-1.124722481E0
2.495356836E0,-4.318690002E-1,6.250494719E-1,-1.119835734E0
2.497765429E0,-4.465293586E-1,6.116108298E-1,-1.102732062E0
2.500173242E0,-4.538595080E-1,5.920637250E-1,-1.080741525E0
2.502580169E0,-4.575245976E-1,5.725166202E-1,-1.052642584E0
2.504988034E0,-4.526378214E-1,5.505260825E-1,-1.019656777E0
2.507396627E0,-4.367557764E-1,5.212054253E-1,-9.842276573E-1
2.509804440E0,-4.159869850E-1,4.918847680E-1,-9.439117312E-1
2.512211367E0,-3.817795515E-1,4.613423944E-1,-9.048175216E-1
2.514619231E0,-3.463504016E-1,4.308000207E-1,-8.669449687E-1
2.517027825E0,-3.023693860E-1,3.953709006E-1,-8.302941322E-1
2.519435638E0,-2.559449971E-1,3.611634374E-1,-7.936432958E-1
2.521842565E0,-1.973036677E-1,3.355078697E-1,-7.618792653E-1
2.524250429E0,-1.313321590E-1,3.098522723E-1,-7.350019813E-1
2.526659023E0,-6.658235192E-2,2.890834510E-1,-7.093463540E-1
2.529066784E0,1.160609815E-2,2.658712566E-1,-6.922426820E-1
2.531473763E0,8.735115826E-2,2.536543310E-1,-6.812474132E-1
2.533881627E0,1.582094431E-1,2.744231224E-1,-6.751389503E-1
2.536290221E0,2.144073844E-1,3.110739589E-1,-6.763606071E-1
2.538697981E0,2.620534599E-1,3.648285270E-1,-6.788040400E-1
2.541104961E0,3.072561622E-1,4.332434237E-1,-6.897992492E-1
2.543512825E0,3.439069986E-1,5.041016936E-1,-6.995728016E-1
2.545921419E0,3.695625961E-1,5.725166202E-1,-7.081246972E-1
2.548329179E0,4.037700295E-1,6.421532035E-1,-7.166765332E-1
2.550736159E0,4.282039404E-1,7.117897868E-1,-7.227849960E-1
2.553144023E0,4.465293586E-1,7.826480269E-1,-7.276718020E-1
2.555552617E0,4.587462842E-1,8.547280431E-1,-7.301151752E-1
2.557960377E0,4.660764635E-1,9.243646264E-1,-7.301151752E-1
2.560367356E0,4.636330605E-1,1.000109673E0,-7.325585485E-1
2.562775221E0,4.538595080E-1,1.077076435E0,-7.301151752E-1
2.565183815E0,4.428642690E-1,1.149156451E0,-7.276718020E-1
2.567591575E0,4.233171642E-1,1.218793035E0,-7.227849960E-1
2.569998554E0,4.074351192E-1,1.277434349E0,-7.166765332E-1
2.572406419E0,3.878880143E-1,1.332410574E0,-7.044596076E-1
2.574814961E0,3.622324169E-1,1.383721709E0,-6.934643388E-1
2.577222773E0,3.341334462E-1,1.435032964E0,-6.800256968E-1
2.579629752E0,3.023693860E-1,1.486344099E0,-6.653653979E-1
2.582037617E0,2.779355049E-1,1.532768488E0,-6.507050395E-1
2.584446159E0,2.620534599E-1,1.553537250E0,-6.360446811E-1
2.586853971E0,2.632751763E-1,1.555980682E0,-6.287145615E-1
2.589260950E0,2.620534599E-1,1.568197608E0,-6.201626658E-1
2.591668763E0,2.535016239E-1,1.588966489E0,-6.152759194E-1
2.594077356E0,2.449497581E-1,1.623173833E0,-6.103891134E-1
2.596485169E0,2.278460264E-1,1.658603072E0,-6.067240238E-1
2.598892148E0,2.021904439E-1,1.716022611E0,-6.103891134E-1
2.601299961E0,1.753131598E-1,1.786880970E0,-6.164975762E-1
2.603708554E0,1.472141892E-1,1.857739210E0,-6.287145615E-1
2.606116367E0,1.264453828E-1,1.917755008E0,-6.445965767E-1
2.608523346E0,1.117850468E-1,1.967844486E0,-6.604785919E-1
2.610931159E0,1.068982705E-1,2.003273487E0,-6.775823236E-1
2.613339752E0,1.044548824E-1,2.027707577E0,-6.922426820E-1
2.615747565E0,1.117850468E-1,2.043589592E0,-7.056813240E-1
2.618154492E0,1.215586066E-1,2.049697876E0,-7.178982496E-1
2.620562356E0,1.325538605E-1,2.049697876E0,-7.313368917E-1
2.622970950E0,1.386623234E-1,2.049697876E0,-7.423321605E-1
2.625378763E0,1.508792788E-1,2.047254562E0,-7.533273697E-1
2.627785690E0,1.594311297E-1,2.044811249E0,-7.618792653E-1
2.630193554E0,1.667613089E-1,2.039924383E0,-7.704311013E-1
2.632602148E0,1.728697717E-1,2.037481070E0,-7.728744745E-1
2.635009961E0,1.753131598E-1,2.036259413E0,-7.740961909E-1
2.637416888E0,1.777565479E-1,2.036259413E0,-7.728744745E-1
2.639824752E0,1.704263836E-1,2.038702726E0,-7.679877281E-1
2.642233346E0,1.618745178E-1,2.042367697E0,-7.618792653E-1
2.644641159E0,1.545443535E-1,2.036259413E0,-7.569924593E-1
2.647048086E0,1.447708011E-1,2.030150890E0,-7.484406233E-1
2.649455950E0,1.374406368E-1,2.011825562E0,-7.423321605E-1
2.651864544E0,1.313321590E-1,1.992278337E0,-7.313368917E-1
2.654272304E0,1.203369126E-1,1.967844486E0,-7.215633392E-1
2.656679284E0,1.154501289E-1,1.939745426E0,-7.117897868E-1
2.659087148E0,1.130067408E-1,1.905538082E0,-7.020162344E-1
2.661495742E0,1.117850468E-1,1.867512822E0,-6.934643388E-1
2.663903502E0,1.105633527E-1,1.822310090E0,-6.849125028E-1
2.666310481E0,1.154501289E-1,1.783215880E0,-6.739172339E-1
2.668718346E0,1.240019947E-1,1.736791492E0,-6.690304875E-1
2.671126940E0,1.276670843E-1,1.685480356E0,-6.629219651E-1
2.673534700E0,1.398840249E-1,1.640277624E0,-6.555918455E-1
2.675941679E0,1.508792788E-1,1.588966489E0,-6.543701291E-1
2.678349544E0,1.643179059E-1,1.537655234E0,-6.519267559E-1
2.680758138E0,1.838650256E-1,1.485122442E0,-6.494833231E-1
2.683165898E0,2.021904439E-1,1.431367874E0,-6.519267559E-1
2.685572877E0,2.241809368E-1,1.376391530E0,-6.519267559E-1
2.687980742E0,2.461714447E-1,1.321415305E0,-6.543701291E-1
2.690389284E0,2.718270421E-1,1.259108901E0,-6.580352187E-1
2.692797096E0,2.999260128E-1,1.199245930E0,-6.592568755E-1
2.695204075E0,3.316900730E-1,1.139382839E0,-6.568135023E-1
2.697611940E0,3.695625961E-1,1.078298092E0,-6.617003083E-1
2.700020481E0,4.001049399E-1,1.017213345E0,-6.604785919E-1
2.702428294E0,4.330907166E-1,9.573503733E-1,-6.617003083E-1
2.704835273E0,4.697415531E-1,8.999307156E-1,-6.629219651E-1
2.707243138E0,5.063923597E-1,8.473978639E-1,-6.641436815E-1
2.709651679E0,5.369347334E-1,7.936432958E-1,-6.678087711E-1
2.712059492E0,5.723638535E-1,7.447755337E-1,-6.678087711E-1
2.714466471E0,6.065713167E-1,6.983511448E-1,-6.629219651E-1
2.716874284E0,6.407787800E-1,6.568135023E-1,-6.629219651E-1
2.719282877E0,6.725428104E-1,6.213843822E-1,-6.629219651E-1
2.721690690E0,7.043069005E-1,5.835118294E-1,-6.580352187E-1
2.724097669E0,7.336275578E-1,5.517477989E-1,-6.531484127E-1
2.726505481E0,7.641699314E-1,5.248705149E-1,-6.494833231E-1
2.728914075E0,7.898254991E-1,4.943281412E-1,-6.433748603E-1
2.731321888E0,8.167027831E-1,4.662291706E-1,-6.372663975E-1
2.733728815E0,8.411366940E-1,4.442386627E-1,-6.299362183E-1
2.736136679E0,8.680139780E-1,4.210264683E-1,-6.238277555E-1
2.738545273E0,8.863393664E-1,3.978142738E-1,-6.128324866E-1
2.740953086E0,9.083298445E-1,3.770454824E-1,-6.079457402E-1
2.743360013E0,9.266552925E-1,3.623851240E-1,-5.993938446E-1
2.745767877E0,9.388722181E-1,3.428380191E-1,-5.920637250E-1
2.748176471E0,9.510892034E-1,3.293993771E-1,-5.883986354E-1
2.750584284E0,9.620844126E-1,3.147390485E-1,-5.835118294E-1
2.752991211E0,9.730796814E-1,2.951919436E-1,-5.786250830E-1
2.755399075E0,9.779664874E-1,2.744231224E-1,-5.749599934E-1
2.757807669E0,9.828532338E-1,2.512109280E-1,-5.749599934E-1
2.760215429E0,9.865183234E-1,2.316638231E-1,-5.725166202E-1
2.762622409E0,9.889616966E-1,2.096733153E-1,-5.676298141E-1
2.765030273E0,9.840749502E-1,1.889045089E-1,-5.627430081E-1
2.767438867E0,9.816315174E-1,1.693574041E-1,-5.615213513E-1
2.769846627E0,9.791881442E-1,1.485885978E-1,-5.578562617E-1
2.772253606E0,9.755230546E-1,1.253764033E-1,-5.590779781E-1
2.774661471E0,9.657495022E-1,1.070509851E-1,-5.578562617E-1
2.777070065E0,9.596410394E-1,8.628217876E-2,-5.541911721E-1
2.779477825E0,9.523108602E-1,6.795676053E-2,-5.554128885E-1
2.781884804E0,9.400939345E-1,5.329642445E-2,-5.529694557E-1
2.784292669E0,9.339854717E-1,3.374931216E-2,-5.517477989E-1
2.786701263E0,9.278770089E-1,1.786728203E-2,-5.517477989E-1
2.789109023E0,9.205468297E-1,-1.679830020E-3,-5.505260825E-1
2.791516002E0,9.144383669E-1,-2.367033064E-2,-5.505260825E-1
2.793923867E0,9.071081877E-1,-3.710897267E-2,-5.529694557E-1
2.796332409E0,8.973346353E-1,-4.810422286E-2,-5.578562617E-1
2.798740221E0,8.838959932E-1,-5.299099907E-2,-5.602996349E-1
2.801147200E0,8.753440976E-1,-5.665608495E-2,-5.651864409E-1
2.803555065E0,8.594620824E-1,-6.032116711E-2,-5.725166202E-1
2.805963606E0,8.460234404E-1,-6.154286116E-2,-5.774033666E-1
2.808371419E0,8.325847983E-1,-6.276455522E-2,-5.847335458E-1
2.810778398E0,8.154810667E-1,-5.787777901E-2,-5.932853818E-1
2.813186211E0,7.983773947E-1,-5.543438718E-2,-5.993938446E-1
2.815594804E0,7.776085734E-1,-4.566083103E-2,-6.030589342E-1
2.818002617E0,7.653915882E-1,-3.588727489E-2,-6.091674566E-1
2.820409596E0,7.446228266E-1,-2.122694254E-2,-6.152759194E-1
2.822817409E0,7.201889157E-1,-4.123218823E-3,-6.201626658E-1
2.825226002E0,7.030851841E-1,2.031067200E-2,-6.238277555E-1
2.827633815E0,6.823163629E-1,4.596625641E-2,-6.287145615E-1
2.830040794E0,6.652126908E-1,7.528692484E-2,-6.336013079E-1
2.832448606E0,6.456655264E-1,1.058292910E-1,-6.348230243E-1
2.834857200E0,6.261184216E-1,1.412584335E-1,-6.360446811E-1
2.837265013E0,6.065713167E-1,1.779092699E-1,-6.348230243E-1
2.839671992E0,5.894675851E-1,2.157817930E-1,-6.323796511E-1
2.842079804E0,5.686988235E-1,2.597627938E-1,-6.274928451E-1
2.844488398E0,5.528167486E-1,3.074088693E-1,-6.213843822E-1
2.846896211E0,5.357130170E-1,3.550549746E-1,-6.128324866E-1
2.849303138E0,5.137225389E-1,4.075878263E-1,-6.042806506E-1
2.851711002E0,4.978405237E-1,4.588989913E-1,-5.920637250E-1
2.854119596E0,4.856235683E-1,5.065450668E-1,-5.761816502E-1
2.856527409E0,4.685198367E-1,5.529694557E-1,-5.615213513E-1
2.858934336E0,4.428642690E-1,6.030589342E-1,-5.407525301E-1
2.861342200E0,4.147652984E-1,6.617003083E-1,-5.199837089E-1
2.863750794E0,3.939964771E-1,7.130114436E-1,-4.979932308E-1
2.866158606E0,3.683409095E-1,7.496622801E-1,-4.747810364E-1
2.868565534E0,3.524588645E-1,7.838697433E-1,-4.515688419E-1
2.870973398E0,3.316900730E-1,8.070819378E-1,-4.271349311E-1
2.873381992E0,3.121429384E-1,8.266290426E-1,-4.002576768E-1
2.875789752E0,2.950392365E-1,8.425110579E-1,-3.758237660E-1
2.878196731E0,2.767138183E-1,8.559496999E-1,-3.452814221E-1
2.880604596E0,2.596100867E-1,8.657232523E-1,-3.184041381E-1
2.883013190E0,2.461714447E-1,8.693883419E-1,-2.890834510E-1
2.885420950E0,2.339545041E-1,8.645015955E-1,-2.609844804E-1
2.887827929E0,2.241809368E-1,8.620582223E-1,-2.341072112E-1
2.890235794E0,2.119639963E-1,8.608365059E-1,-2.108950168E-1
2.892644388E0,2.009687424E-1,8.583931327E-1,-1.889045089E-1
2.895052148E0,1.948602796E-1,8.461761475E-1,-1.669140160E-1
2.897459127E0,1.936385781E-1,8.327375054E-1,-1.461452097E-1
2.899866992E0,1.936385781E-1,8.241856694E-1,-1.278197914E-1
2.902275534E0,1.911951900E-1,8.217422962E-1,-1.119377613E-1
2.904683346E0,1.924168915E-1,8.205205798E-1,-9.727742523E-2
2.907090325E0,1.960819662E-1,8.229639530E-1,-8.139539510E-2
2.909498138E0,2.070772201E-1,8.241856694E-1,-6.429167092E-2
2.911906731E0,2.144073844E-1,8.254073858E-1,-5.207473040E-2
2.914314544E0,2.254026383E-1,8.290724158E-1,-3.863608837E-2
2.916721523E0,2.315111160E-1,8.339592218E-1,-2.275406010E-2
2.919129388E0,2.400629669E-1,8.425110579E-1,-9.315420873E-3
2.921537929E0,2.449497581E-1,8.522846103E-1,5.344913341E-3
2.923945742E0,2.498365343E-1,8.657232523E-1,2.000524849E-2
2.926352721E0,2.498365343E-1,8.816053271E-1,3.466558084E-2
2.928760534E0,2.437280566E-1,8.974873424E-1,4.810422286E-2
2.931169127E0,2.351761907E-1,9.206995368E-1,6.398624927E-2
2.933576940E0,2.290677279E-1,9.426900148E-1,7.375980914E-2
2.935983919E0,2.119639963E-1,9.720106721E-1,8.475505561E-2
2.938391731E0,1.911951900E-1,1.004996419E0,9.941539168E-2
2.940800325E0,1.716480851E-1,1.036760569E0,1.104106456E-1
2.943208138E0,1.508792788E-1,1.069746256E0,1.226275861E-1
2.945615117E0,1.288887709E-1,1.102732062E0,1.385096163E-1
2.948022929E0,1.056765765E-1,1.139382839E0,1.543916464E-1
2.950431523E0,8.246438205E-2,1.172368646E0,1.690519750E-1
2.952839336E0,6.291726977E-2,1.205354333E0,1.837123185E-1
2.955246263E0,4.214845970E-2,1.235896707E0,2.032594234E-1
2.957654127E0,2.748812735E-2,1.266439080E0,2.228065431E-1
2.960062721E0,1.160609815E-2,1.295759797E0,2.399102598E-1
2.962470534E0,-6.108472589E-4,1.325080395E0,2.582356930E-1
2.964877461E0,-9.162709117E-3,1.355622768E0,2.765611112E-1
2.967285325E0,-2.015795931E-2,1.380056620E0,2.973299026E-1
2.969693919E0,-2.626643144E-2,1.408155680E0,3.180987239E-1
2.972101679E0,-3.237490356E-2,1.431367874E0,3.388675153E-1
2.974508659E0,-3.848337755E-2,1.444806457E0,3.547495604E-1
2.976916523E0,-4.703523964E-2,1.448471546E0,3.694098890E-1
2.979325117E0,-4.825693369E-2,1.442363143E0,3.804051280E-1
2.981732877E0,-5.192201585E-2,1.422815919E0,3.914003670E-1
2.984139856E0,-5.558710173E-2,1.391051888E0,4.036173224E-1
2.986547721E0,-6.169557199E-2,1.349514365E0,4.158342779E-1
2.988956315E0,-7.146912813E-2,1.300646544E0,4.268295169E-1
2.991364075E0,-8.246438205E-2,1.251778722E0,4.414898455E-1
2.993771054E0,-1.007898003E-1,1.196802497E0,4.549284875E-1
2.996178919E0,-1.215586066E-1,1.139382839E0,4.744756222E-1
2.998587513E0,-1.472141892E-1,1.079519868E0,4.964661002E-1
3.000995273E0,-1.765348613E-1,1.017213345E0,5.196782947E-1
3.003402252E0,-2.021904439E-1,9.487984776E-1,5.392253995E-1
3.005810117E0,-2.339545041E-1,8.742751479E-1,5.599942207E-1
3.008218659E0,-2.669402659E-1,7.997517586E-1,5.819846988E-1
3.010626471E0,-2.987042964E-1,7.240067124E-1,6.051968932E-1
3.013033450E0,-3.304683566E-1,6.445965767E-1,6.296308041E-1
3.015441315E0,-3.634541333E-1,5.688515306E-1,6.516213417E-1
3.017849856E0,-3.976615667E-1,4.906630516E-1,6.760551929E-1
3.020257669E0,-4.294256270E-1,4.149180055E-1,6.992673874E-1
3.022664648E0,-4.624113739E-1,3.403946459E-1,7.212579250E-1
3.025072461E0,-4.990622103E-1,2.658712566E-1,7.444701195E-1
3.027481054E0,-5.332696438E-1,1.913478971E-1,7.652388811E-1
3.029888867E0,-5.699204803E-1,1.180462316E-1,7.884510756E-1
3.032295846E0,-6.090146899E-1,4.352286831E-2,8.116632700E-1
3.034703659E0,-6.517740488E-1,-3.344388679E-2,8.348754644E-1
3.037112252E0,-6.920899153E-1,-1.116323397E-1,8.605310917E-1
3.039520065E0,-7.348492742E-1,-1.971509457E-1,8.861866593E-1
3.041926992E0,-7.800519466E-1,-2.838912606E-1,9.118422270E-1
3.044334856E0,-8.215895891E-1,-3.730749488E-1,9.411629438E-1
3.046743450E0,-8.667922616E-1,-4.647020400E-1,9.717052579E-1
3.049151263E0,-9.046648145E-1,-5.575508475E-1,1.005912781E0
3.051558190E0,-9.388722181E-1,-6.528429985E-1,1.041341901E0
3.053966054E0,-9.706363082E-1,-7.444701195E-1,1.084101200E0
3.056374648E0,-9.975135922E-1,-8.299887180E-1,1.125638843E0
3.058782461E0,-1.025612593E0,-9.069554806E-1,1.170841455E0
3.061189388E0,-1.042716265E0,-9.790354371E-1,1.213600755E0
3.063597252E0,-1.057376623E0,-1.056002140E0,1.260025144E0
3.066005846E0,-1.068371892E0,-1.123195410E0,1.307671309E0
3.068413606E0,-1.075854778E0,-1.185501814E0,1.356539011E0
3.070820586E0,-1.080741525E0,-1.242921472E0,1.406628489E0
3.073228450E0,-1.085628271E0,-1.291789293E0,1.460383058E0
3.075637044E0,-1.085628271E0,-1.332105160E0,1.514137626E0
3.078044804E0,-1.081963181E0,-1.360204101E0,1.567892194E0
3.080451784E0,-1.079519868E0,-1.378529549E0,1.619203329E0
3.082859648E0,-1.069746256E0,-1.394411564E0,1.668071151E0
3.085268242E0,-1.067302823E0,-1.402963400E0,1.715717196E0
3.087676002E0,-1.061041713E0,-1.411515355E0,1.758476496E0
3.090082981E0,-1.054933190E0,-1.417623758E0,1.797570825E0
3.092490846E0,-1.048824787E0,-1.426175594E0,1.830556512E0
3.094899388E0,-1.045159698E0,-1.438392639E0,1.859877229E0
3.097307200E0,-1.039051175E0,-1.455496311E0,1.883089423E0
3.099714179E0,-1.037829518E0,-1.473821759E0,1.902636528E0
3.102122044E0,-1.037829518E0,-1.499477267E0,1.919740200E0
3.104530586E0,-1.035386086E0,-1.525132895E0,1.931957126E0
3.106938398E0,-1.045159698E0,-1.563005447E0,1.945395827E0
3.109345377E0,-1.054933190E0,-1.606986403E0,1.957612753E0
3.111753190E0,-1.067302823E0,-1.657075882E0,1.977159858E0
3.114161784E0,-1.085628271E0,-1.720604062E0,2.000372171E0
3.116569596E0,-1.107618809E0,-1.784132123E0,2.026027679E0
3.118976575E0,-1.125944257E0,-1.853768706E0,2.052904844E0
3.121384388E0,-1.146713018E0,-1.933178902E0,2.078560591E0
3.123792981E0,-1.173590302E0,-2.016254187E0,2.100551128E0
3.126200794E0,-1.200467587E0,-2.099329233E0,2.120098114E0
3.128607721E0,-1.232231617E0,-2.179961205E0,2.134758472E0
3.131015586E0,-1.262773991E0,-2.256927967E0,2.149418831E0
3.133424179E0,-1.294538021E0,-2.331451178E0,2.162857533E0
3.135831992E0,-1.320193648E0,-2.396201134E0,2.167744160E0
3.138238919E0,-1.349514365E0,-2.454842329E0,2.157970667E0
3.140646784E0,-1.373948216E0,-2.501266718E0,2.134758472E0
3.143055377E0,-1.397160411E0,-2.529365778E0,2.099329233E0
3.145463190E0,-1.414264083E0,-2.534252644E0,2.051683187E0
3.147870117E0,-1.431367874E0,-2.513483763E0,1.986933470E0
3.150277981E0,-1.442363143E0,-2.459729195E0,1.909966707E0
3.152686575E0,-1.453358293E0,-2.375432253E0,1.815896153E0
3.155094388E0,-1.464353561E0,-2.265479803E0,1.707165360E0
3.157501315E0,-1.474127173E0,-2.139645338E0,1.581330895E0
3.159909179E0,-1.488787532E0,-2.005258799E0,1.443279386E0
3.162317773E0,-1.499782681E0,-1.874537468E0,1.294232607E0
3.164725534E0,-1.509556293E0,-1.756033182E0,1.139077425E0
3.167132513E0,-1.521773219E0,-1.650967479E0,9.827005267E-1
3.169540377E0,-1.537655234E0,-1.563005447E0,8.275453448E-1
3.171948971E0,-1.555980682E0,-1.490925431E0,6.784985662E-1
3.174356731E0,-1.579192877E0,-1.433505774E0,5.392253995E-1
3.176763711E0,-1.602405071E0,-1.387081385E0,4.146125913E-1
3.179171575E0,-1.635390878E0,-1.361425877E0,3.083251417E-1
3.181580117E0,-1.665933132E0,-1.354095697E0,2.276933193E-1
3.183987929E0,-1.686702013E0,-1.367534280E0,1.714953631E-1
3.186394909E0,-1.708692551E0,-1.395633221E0,1.385096163E-1
3.188802721E0,-1.728239655E0,-1.429840684E0,1.201841980E-1
3.191211315E0,-1.740456581E0,-1.464048147E0,1.140757278E-1
3.193619127E0,-1.750230074E0,-1.500699043E0,1.140757278E-1
3.196026106E0,-1.760003686E0,-1.526354551E0,1.177408099E-1
3.198433919E0,-1.764890432E0,-1.542236567E0,1.275143623E-1
3.200842513E0,-1.773442268E0,-1.549566746E0,1.372879148E-1
3.203250325E0,-1.777107358E0,-1.553231835E0,1.507265568E-1
3.205657304E0,-1.781994224E0,-1.565448761E0,1.702736765E-1
3.208065117E0,-1.772220612E0,-1.580109119E0,1.947075576E-1
3.210473711E0,-1.751451850E0,-1.608208179E0,2.240282297E-1
3.212881523E0,-1.727017879E0,-1.644858956E0,2.533488870E-1
3.215288502E0,-1.696475506E0,-1.685174823E0,2.802261710E-1
3.217696315E0,-1.664711475E0,-1.720604062E0,3.046600819E-1
3.220104909E0,-1.631725788E0,-1.751146436E0,3.266505599E-1
3.222512721E0,-1.597518325E0,-1.776801944E0,3.523061574E-1
3.224919648E0,-1.549872160E0,-1.793905735E0,3.779617548E-1
3.227327513E0,-1.499782681E0,-1.809787750E0,4.036173224E-1
3.229736106E0,-1.448471546E0,-1.822004676E0,4.268295169E-1
3.232143867E0,-1.387386799E0,-1.822004676E0,4.524851143E-1
3.234550846E0,-1.326302052E0,-1.815896153E0,4.744756222E-1
3.236958711E0,-1.263995647E0,-1.802457571E0,4.964661002E-1
3.239367304E0,-1.199245930E0,-1.782910466E0,5.160132051E-1
3.241775065E0,-1.129609346E0,-1.759698272E0,5.367820263E-1
3.244182044E0,-1.061041713E0,-1.730377555E0,5.575508475E-1
3.246589909E0,-9.914051294E-1,-1.697391868E0,5.770979524E-1
3.248998502E0,-9.254335761E-1,-1.661962628E0,5.929799676E-1
3.251406263E0,-8.643488884E-1,-1.617981672E0,6.088619828E-1
3.253813242E0,-8.081509471E-1,-1.574000716E0,6.186355352E-1
3.256221106E0,-7.543963790E-1,-1.521467805E0,6.235223413E-1
3.258629648E0,-7.079719901E-1,-1.459161401E0,6.308525205E-1
3.261037461E0,-6.639909744E-1,-1.396854997E0,6.357392669E-1
3.263444440E0,-6.212316751E-1,-1.336991906E0,6.406260729E-1
3.265852304E0,-5.833591223E-1,-1.283237338E0,6.503996253E-1
3.268260846E0,-5.467082858E-1,-1.240478039E0,6.662816405E-1
3.270668659E0,-5.076140761E-1,-1.205048919E0,6.821636558E-1
3.273075638E0,-4.672981501E-1,-1.173284888E0,7.004891038E-1
3.275483502E0,-4.294256270E-1,-1.141520858E0,7.200362086E-1
3.277892044E0,-3.939964771E-1,-1.107313395E0,7.371399403E-1
3.280299856E0,-3.646758199E-1,-1.075549364E0,7.542436719E-1
3.282706836E0,-3.402419090E-1,-1.046228647E0,7.640172243E-1
3.285114700E0,-3.206948042E-1,-1.024238110E0,7.664605975E-1
3.287523242E0,-3.048127890E-1,-1.004691005E0,7.640172243E-1
3.289931054E0,-2.901524603E-1,-9.924740791E-1,7.566870451E-1
3.292338034E0,-2.767138183E-1,-9.827005267E-1,7.493568659E-1
3.294745846E0,-2.657185495E-1,-9.717052579E-1,7.359182239E-1
3.297154440E0,-2.596100867E-1,-9.631534219E-1,7.212579250E-1
3.299562252E0,-2.559449971E-1,-9.607100487E-1,7.029324770E-1
3.301969179E0,-2.535016239E-1,-9.582666159E-1,6.809419990E-1
3.304377044E0,-2.522799075E-1,-9.594883323E-1,6.601731777E-1
3.306785638E0,-2.559449971E-1,-9.631534219E-1,6.345176101E-1
3.309193450E0,-2.596100867E-1,-9.741486907E-1,6.064186096E-1
3.311600377E0,-2.644968629E-1,-9.839222431E-1,5.758762360E-1
3.314008242E0,-2.693836391E-1,-9.961391687E-1,5.441122055E-1
3.316416836E0,-2.828222811E-1,-1.013242841E0,5.135698318E-1
3.318824648E0,-2.938175201E-1,-1.035233378E0,4.854708612E-1
3.321231575E0,-3.035911024E-1,-1.051115394E0,4.585935771E-1
3.323639440E0,-3.145863414E-1,-1.071884274E0,4.329380095E-1
3.326048034E0,-3.255815804E-1,-1.086544514E0,4.060607255E-1
3.328455794E0,-3.377985358E-1,-1.099983215E0,3.779617548E-1
3.330862773E0,-3.487937748E-1,-1.107313395E0,3.547495604E-1
3.333270638E0,-3.585673273E-1,-1.114643574E0,3.266505599E-1
3.335679231E0,-3.646758199E-1,-1.115865231E0,3.034383655E-1
3.338086992E0,-3.744493723E-1,-1.113421798E0,2.753393948E-1
3.340493971E0,-3.720059693E-1,-1.103648305E0,2.509055138E-1
3.342901836E0,-3.707842827E-1,-1.093874693E0,2.228065431E-1
3.345310429E0,-3.597890437E-1,-1.077992678E0,1.934858710E-1
3.347718190E0,-3.536805511E-1,-1.060889006E0,1.641651988E-1
3.350125169E0,-3.377985358E-1,-1.038898468E0,1.348445266E-1
3.352533034E0,-3.219164908E-1,-1.016907930E0,1.043021679E-1
3.354941575E0,-2.974826097E-1,-9.924740791E-1,7.009471953E-2
3.357349388E0,-2.730487287E-1,-9.668185115E-1,3.710897267E-2
3.359756367E0,-2.425063550E-1,-9.399412274E-1,2.901524538E-3
3.362164179E0,-2.131856978E-1,-9.130639434E-1,-3.374931216E-2
3.364572773E0,-1.814216375E-1,-8.849649429E-1,-7.284353673E-2
3.366980586E0,-1.496575773E-1,-8.568660021E-1,-1.070509851E-1
3.369387565E0,-1.130067408E-1,-8.287670016E-1,-1.437018216E-1
3.371795377E0,-7.757759839E-2,-7.945595980E-1,-1.791309565E-1
3.374203971E0,-4.459185153E-2,-7.652388811E-1,-2.170034945E-1
3.376611784E0,-9.162709117E-3,-7.334748507E-1,-2.512109280E-1
3.379018711E0,2.626643144E-2,-7.017107606E-1,-2.878617644E-1
3.381426575E0,5.925218388E-2,-6.662816405E-1,-3.232909143E-1
3.383835169E0,9.101624042E-2,-6.320741773E-1,-3.587200642E-1
3.386242981E0,1.178935245E-1,-5.966450572E-1,-3.953709006E-1
3.388649909E0,1.435490996E-1,-5.599942207E-1,-4.308000207E-1
3.391057773E0,1.679829955E-1,-5.209000111E-1,-4.698942602E-1
3.393466367E0,1.899735034E-1,-4.866925478E-1,-5.089884996E-1
3.395874179E0,2.144073844E-1,-4.475983381E-1,-5.480827093E-1
3.398281106E0,2.376195788E-1,-4.097257853E-1,-5.883986354E-1
3.400688971E0,2.559449971E-1,-3.681881726E-1,-6.262711287E-1
3.403097565E0,2.767138183E-1,-3.278722763E-1,-6.629219651E-1
3.405505325E0,2.962609231E-1,-2.851129472E-1,-7.007945180E-1
3.407912304E0,3.158080280E-1,-2.374668717E-1,-7.411104441E-1
3.410320169E0,3.365768492E-1,-1.885990947E-1,-7.777612805E-1
3.412728763E0,3.549022675E-1,-1.458397806E-1,-8.180772066E-1
3.415136523E0,3.720059693E-1,-1.043021679E-1,-8.559496999E-1
3.417543502E0,3.903313875E-1,-6.887302548E-2,-8.901571631E-1
3.419951367E0,4.123218954E-1,-3.710897267E-2,-9.243646264E-1
3.422359909E0,4.306473136E-1,-1.023169141E-2,-9.585720897E-1
3.424767721E0,4.489727318E-1,1.175880991E-2,-9.940012097E-1
3.427174700E0,4.660764635E-1,3.130592033E-2,-1.028208613E0
3.429582565E0,4.868452549E-1,4.596625641E-2,-1.057529330E0
3.431991106E0,5.100574493E-1,5.451811850E-2,-1.089293361E0
3.434398919E0,5.357130170E-1,6.306997687E-2,-1.119835734E0
3.436805898E0,5.589252710E-1,7.040014863E-2,-1.146713018E0
3.439213763E0,5.809157491E-1,7.528692484E-2,-1.168703556E0
3.441622304E0,6.041279435E-1,8.017370105E-2,-1.190693974E0
3.444030117E0,6.261184216E-1,8.506047726E-2,-1.209019423E0
3.446437096E0,6.493306160E-1,8.506047726E-2,-1.224901438E0
3.448844909E0,6.713211536E-1,8.628217876E-2,-1.240783453E0
3.451253502E0,6.908682585E-1,8.506047726E-2,-1.254222155E0
3.453661315E0,7.055285573E-1,8.261708915E-2,-1.266439080E0
3.456068242E0,7.201889157E-1,7.773031294E-2,-1.278656006E0
3.458476106E0,7.311841846E-1,6.795676053E-2,-1.285986185E0
3.460884700E0,7.348492742E-1,5.696150661E-2,-1.298203111E0
3.463292513E0,7.360709310E-1,4.230117425E-2,-1.303089857E0
3.465699440E0,7.311841846E-1,2.641914412E-2,-1.304311633E0
3.468107304E0,7.165238261E-1,1.298050396E-2,-1.300646544E0
3.470515898E0,6.969767213E-1,1.985253533E-3,-1.289651275E0
3.472923711E0,6.676560640E-1,-5.344913341E-3,-1.271325827E0
3.475330638E0,6.273401380E-1,-1.267508045E-2,-1.243226886E0
3.477738502E0,5.833591223E-1,-1.634016447E-2,-1.209019423E0
3.480147096E0,5.271611810E-1,-1.756185852E-2,-1.167481780E0
3.482554856E0,4.624113739E-1,-1.756185852E-2,-1.118614078E0
3.484961836E0,3.903313875E-1,-2.122694254E-2,-1.066081166E0
3.487369700E0,3.121429384E-1,-3.100049868E-2,-1.008661509E0
3.489778294E0,2.327328026E-1,-4.077405483E-2,-9.426900148E-1
3.492186054E0,1.472141892E-1,-5.421269313E-2,-8.730534315E-1
3.494593034E0,5.558710173E-2,-7.009471953E-2,-7.997517586E-1
3.497000898E0,-3.848337755E-2,-8.597674966E-2,-7.191199064E-1
3.499409492E0,-1.374406368E-1,-9.941539168E-2,-6.348230243E-1
3.501817252E0,-2.376195788E-1,-1.091889441E-1,-5.456393361E-1
3.504224231E0,-3.304683566E-1,-1.152974218E-1,-4.527905285E-1
3.506632096E0,-4.208737612E-1,-1.214058921E-1,-3.538332880E-1
3.509040638E0,-5.039489865E-1,-1.262926757E-1,-2.548760176E-1
3.511448450E0,-5.760289431E-1,-1.275143623E-1,-1.498102844E-1
3.513855429E0,-6.432221532E-1,-1.324011385E-1,-4.352286831E-2
3.516263242E0,-6.969767213E-1,-1.385096163E-1,6.642963737E-2
3.518671836E0,-7.458444834E-1,-1.507265568E-1,1.800472289E-1
3.521079648E0,-7.886037827E-1,-1.678302884E-1,2.936648130E-1
3.523486627E0,-8.301414251E-1,-1.849340051E-1,4.146125913E-1
3.525894440E0,-8.655705452E-1,-2.093679011E-1,5.380037427E-1
3.528303034E0,-9.022213817E-1,-2.386885732E-1,6.638382673E-1
3.530710846E0,-9.400939345E-1,-2.802261710E-1,7.872294188E-1
3.533117773E0,-9.730796814E-1,-3.352024257E-1,9.057337642E-1
3.535525638E0,-1.009730577E0,-4.023956358E-1,1.016907930E0
3.537934231E0,-1.045159698E0,-4.805840850E-1,1.115865231E0
3.540342044E0,-1.080741525E0,-5.612159371E-1,1.202605486E0
3.542748971E0,-1.112505555E0,-6.442911625E-1,1.269798756E0
3.545156836E0,-1.136939406E0,-7.285880446E-1,1.315001488E0
3.547565429E0,-1.156486630E0,-7.957812548E-1,1.341878772E0
3.549973242E0,-1.165038466E0,-8.470924497E-1,1.341878772E0
3.552380169E0,-1.158929944E0,-8.764131069E-1,1.325996637E0
3.554788034E0,-1.141826272E0,-8.849649429E-1,1.290567517E0
3.557196627E0,-1.108840466E0,-8.751913905E-1,1.234369636E0
3.559604388E0,-1.058598280E0,-8.495358229E-1,1.163511276E0
3.562011367E0,-9.950701594E-1,-8.128849864E-1,1.077992678E0
3.564419231E0,-9.266552925E-1,-7.713474035E-1,9.790354371E-1
3.566827825E0,-8.496885300E-1,-7.249229550E-1,8.739697337E-1
3.569235586E0,-7.629482150E-1,-6.907155514E-1,7.713474035E-1
3.571642565E0,-6.627692580E-1,-6.809419990E-1,6.723901033E-1
3.574050429E0,-5.552601814E-1,-6.919372082E-1,5.795413256E-1
3.576458971E0,-4.404208660E-1,-7.127060294E-1,4.879142344E-1
3.578866784E0,-3.231382072E-1,-7.371399403E-1,3.962871730E-1
3.581273763E0,-2.046338320E-1,-7.591304183E-1,3.034383655E-1
3.583681575E0,-8.857285231E-2,-7.762341499E-1,2.069245130E-1
3.586090169E0,2.015795931E-2,-7.896727920E-1,1.079672500E-1
3.588497981E0,1.178935245E-1,-8.043331504E-1,1.145338640E-2
3.590904961E0,2.082989216E-1,-8.177717924E-1,-8.628217876E-2
3.593312773E0,2.999260128E-1,-8.360971808E-1,-1.791309565E-1
3.595721367E0,3.732276857E-1,-8.593093753E-1,-2.695363462E-1
3.598129179E0,4.440859556E-1,-8.849649429E-1,-3.526115716E-1
3.600536106E0,5.027272701E-1,-9.216157794E-1,-4.308000207E-1
3.602943971E0,5.540384650E-1,-9.619317055E-1,-5.004366040E-1
3.605352565E0,5.967977643E-1,-1.005912781E0,-5.578562617E-1
3.607760377E0,6.383354068E-1,-1.047450304E0,-6.055023670E-1
3.610167304E0,6.688777208E-1,-1.088987947E0,-6.470399499E-1
3.612575169E0,7.018635273E-1,-1.128082156E0,-6.849125028E-1
3.614983763E0,7.311841846E-1,-1.161067963E0,-7.215633392E-1
3.617391575E0,7.617265582E-1,-1.191610336E0,-7.569924593E-1
3.619798502E0,7.922688723E-1,-1.218487620E0,-7.936432958E-1
3.622206367E0,8.215895891E-1,-1.242921472E0,-8.254073858E-1
3.624614961E0,8.521319032E-1,-1.262468576E0,-8.571714163E-1
3.627022721E0,8.716790676E-1,-1.282015681E0,-8.816053271E-1
3.629429700E0,8.936695457E-1,-1.300341129E0,-9.023740888E-1
3.631837565E0,9.107732773E-1,-1.312558055E0,-9.194778204E-1
3.634246106E0,9.229902029E-1,-1.323553324E0,-9.316948056E-1
3.636653919E0,9.290986657E-1,-1.329661727E0,-9.341381788E-1
3.639060898E0,9.290986657E-1,-1.329661727E0,-9.329164624E-1
3.641468763E0,9.266552925E-1,-1.327218413E0,-9.255862832E-1
3.643877304E0,9.132166505E-1,-1.308892965E0,-9.121476412E-1
3.646285117E0,8.948912621E-1,-1.282015681E0,-8.974873424E-1
3.648692096E0,8.753440976E-1,-1.244143128E0,-8.754968047E-1
3.651099961E0,8.521319032E-1,-1.203827262E0,-8.449544907E-1
3.653508502E0,8.301414251E-1,-1.163511276E0,-8.107470274E-1
3.655916315E0,7.922688723E-1,-1.109756708E0,-7.777612805E-1
3.658323294E0,7.372926474E-1,-1.037676811E0,-7.362236381E-1
3.660731106E0,6.664343476E-1,-9.533798695E-1,-6.885775924E-1
3.663139700E0,5.967977643E-1,-8.544226289E-1,-6.262711287E-1
3.665547513E0,5.259394646E-1,-7.432484031E-1,-5.554128885E-1
3.667954492E0,4.563029110E-1,-6.259657145E-1,-4.747810364E-1
3.670362304E0,3.817795515E-1,-5.147915483E-1,-3.904841244E-1
3.672770898E0,3.206948042E-1,-4.097257853E-1,-3.086305857E-1
3.675178711E0,2.681619525E-1,-3.180987239E-1,-2.328855246E-1
3.677585638E0,2.229592502E-1,-2.435753495E-1,-1.644706279E-1
3.679993502E0,1.863084137E-1,-1.922641695E-1,-1.033858955E-1
3.682402096E0,1.594311297E-1,-1.617218107E-1,-4.840964451E-2
3.684809909E0,1.398840249E-1,-1.470614821E-1,-1.985253533E-3
3.687216836E0,1.252236813E-1,-1.458397806E-1,3.833066672E-2
3.689624700E0,1.178935245E-1,-1.470614821E-1,7.131642103E-2
3.692033294E0,1.191152185E-1,-1.470614821E-1,9.697200358E-2
3.694441054E0,1.178935245E-1,-1.360662282E-1,1.189625040E-1
3.696848034E0,1.276670843E-1,-1.128540337E-1,1.336228400E-1
3.699255898E0,1.386623234E-1,-7.742489129E-2,1.470614821E-1
3.701664492E0,1.521009654E-1,-2.977880463E-2,1.568350345E-1
3.704072252E0,1.692046970E-1,2.764083818E-2,1.641651988E-1
3.706479231E0,1.838650256E-1,9.483403713E-2,1.678302884E-1
3.708887096E0,1.924168915E-1,1.669140160E-1,1.678302884E-1
3.711295638E0,1.985253543E-1,2.475458533E-1,1.678302884E-1
3.713703450E0,2.009687424E-1,3.330644667E-1,1.629435122E-1
3.716110429E0,1.936385781E-1,4.185830951E-1,1.556133330E-1
3.718518294E0,1.863084137E-1,5.065450668E-1,1.421747059E-1
3.720926836E0,1.679829955E-1,5.883986354E-1,1.226275861E-1
3.723334648E0,1.459924877E-1,6.641436815E-1,9.452861547E-2
3.725741627E0,1.166718230E-1,7.374453545E-1,5.909947306E-2
3.728149440E0,8.002099395E-2,8.058602214E-1,1.389677543E-2
3.730558034E0,3.481829539E-2,8.681666851E-1,-3.985778242E-2
3.732965846E0,-9.162709117E-3,9.219212532E-1,-1.058292910E-1
3.735372825E0,-4.825693369E-2,9.597937465E-1,-1.864611208E-1
3.737780638E0,-9.101624042E-2,9.842276573E-1,-2.744231224E-1
3.740189231E0,-1.325538605E-1,1.011104941E0,-3.733803928E-1
3.742597044E0,-1.789782494E-1,1.039203882E0,-4.796678126E-1
3.745003971E0,-2.290677279E-1,1.067302823E0,-5.871769190E-1
3.747411836E0,-2.803788781E-1,1.091736794E0,-6.959077120E-1
3.749820429E0,-3.341334462E-1,1.099066973E0,-8.058602214E-1
3.752228242E0,-3.781144619E-1,1.094180107E0,-9.072608948E-1
3.754635169E0,-4.196520746E-1,1.078298092E0,-9.964445829E-1
3.757043034E0,-4.501944184E-1,1.050199151E0,-1.074633002E0
3.759451627E0,-4.770717025E-1,1.004996419E0,-1.136939406E0
3.761859440E0,-4.990622103E-1,9.573503733E-1,-1.185807228E0
3.764266367E0,-5.100574493E-1,9.121476412E-1,-1.215127945E0
3.766674231E0,-5.100574493E-1,8.669449687E-1,-1.227344871E0
3.769082825E0,-4.990622103E-1,8.192988634E-1,-1.222458124E0
3.771490586E0,-4.795151055E-1,7.692093849E-1,-1.204132676E0
3.773897565E0,-4.477510452E-1,7.203416228E-1,-1.169925213E0
3.776305429E0,-4.123218954E-1,6.714738607E-1,-1.128387570E0
3.778713971E0,-3.720059693E-1,6.213843822E-1,-1.080741525E0
3.781121784E0,-3.243598938E-1,5.712949038E-1,-1.028208613E0
3.783528763E0,-2.657185495E-1,5.150969625E-1,-9.744541049E-1
3.785936627E0,-2.082989216E-1,4.564556181E-1,-9.170344472E-1
3.788345169E0,-1.435490996E-1,3.990359604E-1,-8.620582223E-1
3.790752981E0,-8.368607610E-2,3.440597057E-1,-8.083036542E-1
3.793159961E0,-2.260134928E-2,2.976353168E-1,-7.631009221E-1
3.795567773E0,3.603998944E-2,2.646495700E-1,-7.252284288E-1
3.797976367E0,8.857285231E-2,2.463241518E-1,-6.959077120E-1
3.800384179E0,1.435490996E-1,2.451024652E-1,-6.800256968E-1
3.802791159E0,1.973036677E-1,2.609844804E-1,-6.751389503E-1
3.805198971E0,2.461714447E-1,2.866400778E-1,-6.788040400E-1
3.807607565E0,2.987042964E-1,3.257342875E-1,-6.897992492E-1
3.810015377E0,3.475720882E-1,3.746020794E-1,-7.069029808E-1
3.812422304E0,3.952181637E-1,4.344651103E-1,-7.252284288E-1
3.814830169E0,4.416425824E-1,5.028799772E-1,-7.447755337E-1
3.817238763E0,4.795151055E-1,5.725166202E-1,-7.606575489E-1
3.819646575E0,5.186093450E-1,6.409314871E-1,-7.728744745E-1
3.822053502E0,5.699204803E-1,6.714738607E-1,-7.765395641E-1
3.824461367E0,6.261184216E-1,7.032378912E-1,-7.765395641E-1
3.826869961E0,6.566607952E-1,7.692093849E-1,-7.814263701E-1
3.829277721E0,6.639909744E-1,8.608365059E-1,-7.875348330E-1
3.831684700E0,6.468872428E-1,9.683456421E-1,-7.924215794E-1
3.834092565E0,6.126797795E-1,1.095401883E0,-8.046385646E-1
3.836501159E0,5.735855699E-1,1.233453274E0,-8.168554902E-1
3.838908919E0,5.296045542E-1,1.359287858E0,-8.364025950E-1
3.841315898E0,4.819584787E-1,1.472905397E0,-8.535063267E-1
3.843723763E0,4.391991794E-1,1.570641041E0,-8.730534315E-1
3.846132356E0,3.988832533E-1,1.653716207E0,-8.926005363E-1
3.848540117E0,3.585673273E-1,1.727017879E0,-9.097042680E-1
3.850947096E0,3.268032968E-1,1.786880970E0,-9.268079996E-1
3.853354961E0,2.974826097E-1,1.834527016E0,-9.402466416E-1
3.855763502E0,2.718270421E-1,1.872552276E0,-9.536852837E-1
3.858171315E0,2.510582209E-1,1.901872993E0,-9.634588361E-1
3.860578294E0,2.339545041E-1,1.923863411E0,-9.695672989E-1
3.862986106E0,2.217375487E-1,1.942188859E0,-9.683456421E-1
3.865394700E0,2.107423097E-1,1.961735964E0,-9.646805525E-1
3.867802513E0,2.021904439E-1,1.982504725E0,-9.561286569E-1
3.870209492E0,1.936385781E-1,2.005717039E0,-9.475768209E-1
3.872617304E0,1.887518018E-1,2.033815861E0,-9.341381788E-1
3.875025898E0,1.875301152E-1,2.052141428E0,-9.206995368E-1
3.877433711E0,1.997470558E-1,2.042367697E0,-8.999307156E-1
3.879840638E0,2.388412803E-1,1.994721770E0,-8.803836107E-1
3.882248502E0,2.718270421E-1,1.958070874E0,-8.596147895E-1
3.884657096E0,2.889307439E-1,1.953184128E0,-8.327375054E-1
3.887064909E0,2.864873707E-1,1.978839636E0,-8.083036542E-1
3.889471836E0,2.608317733E-1,2.015490532E0,-7.887565494E-1
3.891879700E0,2.229592502E-1,2.069245100E0,-7.716528177E-1
3.894288294E0,1.753131598E-1,2.131551504E0,-7.582141757E-1
3.896696054E0,1.240019947E-1,2.199966431E0,-7.496622801E-1
3.899103034E0,7.757759839E-2,2.263494492E0,-7.423321605E-1
3.901510898E0,3.848337755E-2,2.317249060E0,-7.374453545E-1
3.903919440E0,1.832541777E-3,2.352678299E0,-7.301151752E-1
3.906327252E0,-2.748812735E-2,2.375890493E0,-7.203416228E-1
3.908734231E0,-4.703523964E-2,2.383220673E0,-7.142331600E-1
3.911142096E0,-6.047387794E-2,2.378333807E0,-7.032378912E-1
3.913550638E0,-7.024743408E-2,2.367338657E0,-6.910209656E-1
3.915958450E0,-7.757759839E-2,2.349013090E0,-6.763606071E-1
3.918365429E0,-8.735115826E-2,2.323357582E0,-6.617003083E-1
3.920773294E0,-9.223793447E-2,2.300145388E0,-6.458182931E-1
3.923181836E0,-9.712471068E-2,2.275711536E0,-6.274928451E-1
3.925589648E0,-1.032331884E-1,2.252499342E0,-6.116108298E-1
3.927996627E0,-1.044548824E-1,2.230508804E0,-5.957288146E-1
3.930404440E0,-1.093416587E-1,2.209739923E0,-5.835118294E-1
3.932813034E0,-1.142284349E-1,2.185306072E0,-5.712949038E-1
3.935220846E0,-1.154501289E-1,2.157207012E0,-5.639647245E-1
3.937627825E0,-1.130067408E-1,2.126664639E0,-5.541911721E-1
3.940035638E0,-1.117850468E-1,2.093678951E0,-5.493044257E-1
3.942444231E0,-1.056765765E-1,2.055806398E0,-5.480827093E-1
3.944852044E0,-9.345962852E-2,2.009382010E0,-5.468609929E-1
3.947258971E0,-8.124268800E-2,1.962957621E0,-5.505260825E-1
3.949666836E0,-6.780404598E-2,1.916533232E0,-5.529694557E-1
3.952075429E0,-5.192201585E-2,1.868734479E0,-5.578562617E-1
3.954483242E0,-2.993151546E-2,1.819866657E0,-5.639647245E-1
3.956890169E0,-5.497625098E-3,1.768555522E0,-5.700731874E-1
3.959298034E0,2.015795931E-2,1.719687700E0,-5.749599934E-1
3.961706627E0,4.825693369E-2,1.665933132E0,-5.798467398E-1
3.964114388E0,7.879929990E-2,1.614621997E0,-5.810684562E-1
3.966521367E0,1.093416587E-1,1.560867429E0,-5.810684562E-1
3.968929231E0,1.423274130E-1,1.510777950E0,-5.810684562E-1
3.971337825E0,1.740914732E-1,1.464353561E0,-5.798467398E-1
3.973745586E0,2.046338320E-1,1.420372605E0,-5.749599934E-1
3.976152565E0,2.400629669E-1,1.376391530E0,-5.651864409E-1
3.978560429E0,2.754921019E-1,1.327523828E0,-5.578562617E-1
3.980968971E0,3.121429384E-1,1.277434349E0,-5.480827093E-1
3.983376784E0,3.475720882E-1,1.234675050E0,-5.358657837E-1
3.985783763E0,3.805578351E-1,1.198024154E0,-5.236487985E-1
3.988191575E0,4.123218954E-1,1.163816690E0,-5.089884996E-1
3.990600169E0,4.453076422E-1,1.130831003E0,-4.979932308E-1
3.993007981E0,4.770717025E-1,1.100288630E0,-4.845545888E-1
3.995414909E0,5.063923597E-1,1.066081166E0,-4.735593498E-1
3.997822773E0,5.344913602E-1,1.030652046E0,-4.601207078E-1
4.000231367E0,5.662553906E-1,9.964445829E-1,-4.466820657E-1
4.002639179E0,5.943543911E-1,9.610154629E-1,-4.381301999E-1
4.005046106E0,6.248967648E-1,9.243646264E-1,-4.308000207E-1
4.007453971E0,6.529957056E-1,8.889354467E-1,-4.222481549E-1
4.009862565E0,6.835380793E-1,8.535063267E-1,-4.161396921E-1
4.012270377E0,7.104153633E-1,8.131904006E-1,-4.100312293E-1
4.014677304E0,7.397360206E-1,7.704311013E-1,-4.051444530E-1
4.017085169E0,7.592831254E-1,7.264500856E-1,-4.002576768E-1
4.019493763E0,7.837170362E-1,6.861341596E-1,-3.953709006E-1
4.021901523E0,8.044858575E-1,6.458182931E-1,-3.941491842E-1
4.024308502E0,8.215895891E-1,6.067240238E-1,-3.929274976E-1
4.026716367E0,8.411366940E-1,5.676298141E-1,-3.941491842E-1
4.029124961E0,8.582404256E-1,5.309789777E-1,-3.953709006E-1
4.031532721E0,8.729007244E-1,4.931064546E-1,-3.953709006E-1
4.033939700E0,8.851176500E-1,4.540122151E-1,-4.002576768E-1
4.036347565E0,8.948912621E-1,4.198047817E-1,-4.027010500E-1
4.038756106E0,9.107732773E-1,3.868190348E-1,-4.075878263E-1
4.041163919E0,9.181034565E-1,3.550549746E-1,-4.112529159E-1
4.043570898E0,9.254335761E-1,3.257342875E-1,-4.198047817E-1
4.045978763E0,9.364288449E-1,2.976353168E-1,-4.283566475E-1
4.048387304E0,9.425373077E-1,2.695363462E-1,-4.369085133E-1
4.050795117E0,9.474241138E-1,2.463241518E-1,-4.442386627E-1
4.053202096E0,9.547542930E-1,2.243336588E-1,-4.527905285E-1
4.055609909E0,9.584193230E-1,2.060082406E-1,-4.650074840E-1
4.058018502E0,9.596410394E-1,1.889045089E-1,-4.760027230E-1
4.060426315E0,9.645278454E-1,1.766875684E-1,-4.857762754E-1
4.062833242E0,9.645278454E-1,1.669140160E-1,-4.967715442E-1
4.065241106E0,9.620844126E-1,1.583621502E-1,-5.077667832E-1
4.067649700E0,9.608627558E-1,1.559187621E-1,-5.187620521E-1
4.070057513E0,9.559759498E-1,1.522536725E-1,-5.297572613E-1
4.072464440E0,9.559759498E-1,1.485885978E-1,-5.395308137E-1
4.074872304E0,9.498674870E-1,1.449235082E-1,-5.493044257E-1
4.077280898E0,9.449806809E-1,1.461452097E-1,-5.615213513E-1
4.079688711E0,9.400939345E-1,1.461452097E-1,-5.725166202E-1
4.082095638E0,9.339854717E-1,1.498102844E-1,-5.835118294E-1
4.084503502E0,9.205468297E-1,1.571404636E-1,-5.932853818E-1
4.086912096E0,9.095515609E-1,1.656923145E-1,-6.042806506E-1
4.089319856E0,8.985562921E-1,1.779092699E-1,-6.128324866E-1
4.091726836E0,8.875610828E-1,1.889045089E-1,-6.189410090E-1
4.094134700E0,8.814526200E-1,1.974563748E-1,-6.250494719E-1
4.096543242E0,8.667922616E-1,2.157817930E-1,-6.299362183E-1
4.098951054E0,8.521319032E-1,2.475458533E-1,-6.348230243E-1
4.101358034E0,8.338065147E-1,2.841966748E-1,-6.397097707E-1
4.103765898E0,8.179244995E-1,3.196258247E-1,-6.409314871E-1
4.106174440E0,7.971556783E-1,3.562766612E-1,-6.372663975E-1
4.108582252E0,7.763868570E-1,3.904841244E-1,-6.348230243E-1
4.110989231E0,7.543963790E-1,4.259132445E-1,-6.274928451E-1
4.113397044E0,7.311841846E-1,4.564556181E-1,-6.164975762E-1
4.115805638E0,7.055285573E-1,4.821111858E-1,-6.055023670E-1
4.118213450E0,6.823163629E-1,5.126535892E-1,-5.883986354E-1
4.120620429E0,6.517740488E-1,5.383091569E-1,-5.688515306E-1
4.123028242E0,6.175665855E-1,5.602996349E-1,-5.456393361E-1
4.125436836E0,5.833591223E-1,5.859552622E-1,-5.187620521E-1
4.127844648E0,5.454866290E-1,6.140542030E-1,-4.931064546E-1
4.130251575E0,4.990622103E-1,6.409314871E-1,-4.662291706E-1
4.132659440E0,4.575245976E-1,6.702521443E-1,-4.356867969E-1
4.135068034E0,4.111002088E-1,6.995728016E-1,-4.063661397E-1
4.137475794E0,3.683409095E-1,7.240067124E-1,-3.794888556E-1
4.139882773E0,3.268032968E-1,7.496622801E-1,-3.501681983E-1
4.142290638E0,2.840439677E-1,7.789829373E-1,-3.281776905E-1
4.144699231E0,2.461714447E-1,8.095253110E-1,-3.061871827E-1
4.147106992E0,2.107423097E-1,8.412894011E-1,-2.866400778E-1
4.149513971E0,1.814216375E-1,8.779402375E-1,-2.707580328E-1
4.151921836E0,1.569877416E-1,9.170344472E-1,-2.597627938E-1
4.154330377E0,1.325538605E-1,9.585720897E-1,-2.475458533E-1
4.156738190E0,1.154501289E-1,1.003774762E0,-2.353289127E-1
4.159145169E0,1.007898003E-1,1.052642584E0,-2.243336588E-1
4.161552981E0,8.979454637E-2,1.101510286E0,-2.121167034E-1
4.163961575E0,8.246438205E-2,1.147934675E0,-2.047865391E-1
4.166369388E0,7.513421029E-2,1.198024154E0,-1.950129867E-1
4.168776367E0,6.780404598E-2,1.250557065E0,-1.815743446E-1
4.171184179E0,5.680879578E-2,1.304311633E0,-1.693574041E-1
4.173592773E0,4.703523964E-2,1.354401112E0,-1.546970755E-1
4.176000586E0,3.481829539E-2,1.406933904E0,-1.400367320E-1
4.178407513E0,2.015795931E-2,1.457023382E0,-1.241547018E-1
4.180815377E0,1.832541777E-3,1.507112861E0,-1.107160673E-1
4.183223971E0,-2.015795931E-2,1.555980682E0,-9.483403713E-2
4.185631784E0,-4.214845970E-2,1.598739982E0,-7.650861889E-2
4.188038711E0,-6.780404598E-2,1.639055848E0,-5.696150661E-2
4.190446575E0,-9.345962852E-2,1.672041655E0,-3.252761811E-2
4.192855169E0,-1.191152185E-1,1.705027461E0,-8.093725890E-3
4.195262981E0,-1.459924877E-1,1.729461312E0,1.878355257E-2
4.197669909E0,-1.753131598E-1,1.749008417E0,4.932591692E-2
4.200077773E0,-2.009687424E-1,1.763668776E0,8.353336155E-2
4.202486367E0,-2.254026383E-1,1.769777179E0,1.177408099E-1
4.204894127E0,-2.449497581E-1,1.772220612E0,1.543916464E-1
4.207301106E0,-2.596100867E-1,1.767333865E0,1.947075576E-1
4.209708971E0,-2.730487287E-1,1.753895164E0,2.374668717E-1
4.212117513E0,-2.779355049E-1,1.729461312E0,2.802261710E-1
4.214525325E0,-2.779355049E-1,1.702584028E0,3.217637837E-1
4.216932304E0,-2.779355049E-1,1.668376565E0,3.657447994E-1
4.219340169E0,-2.754921019E-1,1.624395609E0,4.085040987E-1
4.221748711E0,-2.718270421E-1,1.571862698E0,4.500417113E-1
4.224156523E0,-2.669402659E-1,1.522994876E0,4.915793240E-1
4.226563502E0,-2.681619525E-1,1.471683741E0,5.306735635E-1
4.228971315E0,-2.669402659E-1,1.422815919E0,5.636593103E-1
4.231379909E0,-2.730487287E-1,1.370283127E0,5.966450572E-1
4.233787721E0,-2.791571915E-1,1.315306902E0,6.235223413E-1
4.236194700E0,-2.938175201E-1,1.255443811E0,6.491779089E-1
4.238602513E0,-3.072561622E-1,1.196802497E0,6.699467301E-1
4.241011106E0,-3.231382072E-1,1.135717750E0,6.907155514E-1
4.243418919E0,-3.439069986E-1,1.070967913E0,7.114843726E-1
4.245825846E0,-3.646758199E-1,1.006218195E0,7.322531343E-1
4.248233711E0,-3.842229247E-1,9.365815520E-1,7.469134927E-1
4.250642304E0,-4.037700295E-1,8.669449687E-1,7.615737915E-1
4.253050065E0,-4.282039404E-1,7.911999226E-1,7.750124335E-1
4.255457044E0,-4.526378214E-1,7.203416228E-1,7.896727920E-1
4.257864909E0,-4.856235683E-1,6.531484127E-1,8.031114340E-1
4.260273502E0,-5.137225389E-1,5.835118294E-1,8.153283596E-1
4.262681263E0,-5.479300022E-1,5.150969625E-1,8.275453448E-1
4.265088242E0,-5.845808387E-1,4.479037523E-1,8.397622705E-1
4.267496106E0,-6.163448691E-1,3.782671690E-1,8.507575393E-1
4.269904700E0,-6.554391384E-1,3.049654961E-1,8.617527485E-1
4.272312461E0,-6.957550049E-1,2.279987335E-1,8.764131069E-1
4.274719440E0,-7.372926474E-1,1.473668963E-1,8.910734653E-1
4.277127304E0,-7.812736630E-1,6.429167092E-2,9.057337642E-1
4.279535846E0,-8.203678727E-1,-1.756185852E-2,9.216157794E-1
4.281943659E0,-8.606837988E-1,-9.819369763E-2,9.350544214E-1
4.284350638E0,-9.034430981E-1,-1.763821393E-1,9.546015263E-1
4.286758450E0,-9.437590241E-1,-2.472404242E-1,9.753703475E-1
4.289167044E0,-9.840749502E-1,-3.144336343E-1,9.973608851E-1
4.291574856E0,-1.019504070E0,-3.706315756E-1,1.020573020E0
4.293981836E0,-1.056154966E0,-4.231644273E-1,1.045006990E0
4.296389648E0,-1.085628271E0,-4.671454430E-1,1.074327588E0
4.298798242E0,-1.112505555E0,-5.099047422E-1,1.109756708E0
4.301206054E0,-1.139382839E0,-5.489989519E-1,1.147629261E0
4.303612981E0,-1.154043198E0,-5.880932212E-1,1.192831993E0
4.306020846E0,-1.158929944E0,-6.198572516E-1,1.246586561E0
4.308429440E0,-1.162595034E0,-6.455128193E-1,1.305227876E0
4.310837200E0,-1.161373377E0,-6.723901033E-1,1.368755937E0
4.313244179E0,-1.157708287E0,-6.956022978E-1,1.434727550E0
4.315652044E0,-1.145491362E0,-7.200362086E-1,1.505585790E0
4.318060638E0,-1.127165914E0,-7.371399403E-1,1.577665806E0
4.320468398E0,-1.112505555E0,-7.530219555E-1,1.648524046E0
4.322875377E0,-1.094180107E0,-7.627955079E-1,1.715717196E0
4.325283242E0,-1.077076435E0,-7.689039707E-1,1.780467033E0
4.327691784E0,-1.056154966E0,-7.725690603E-1,1.842773438E0
4.330099596E0,-1.041494608E0,-7.786775231E-1,1.901414752E0
4.332506575E0,-1.024390817E0,-7.835643291E-1,1.956391096E0
4.334914440E0,-1.006065488E0,-7.872294188E-1,2.005258799E0
4.337322981E0,-9.914051294E-1,-7.896727920E-1,2.050461531E0
4.339730794E0,-9.804098606E-1,-7.982246280E-1,2.088334084E0
4.342137773E0,-9.743013978E-1,-8.067765236E-1,2.122541428E0
4.344545586E0,-9.669712186E-1,-8.189934492E-1,2.155527353E0
4.346954179E0,-9.633061290E-1,-8.422056437E-1,2.186069727E0
4.349361992E0,-9.681929350E-1,-8.812998533E-1,2.222720385E0
4.351768971E0,-9.681929350E-1,-9.326110482E-1,2.263036489E0
4.354176784E0,-9.706363082E-1,-1.004691005E0,2.305795670E0
4.356585377E0,-9.706363082E-1,-1.082879424E0,2.348555088E0
4.358993190E0,-9.706363082E-1,-1.173284888E0,2.392535925E0
4.361400117E0,-9.730796814E-1,-1.272242069E0,2.434073687E0
4.363807981E0,-9.706363082E-1,-1.371199369E0,2.469502687E0
4.366216575E0,-9.743013978E-1,-1.470156670E0,2.503710270E0
4.368624336E0,-9.840749502E-1,-1.567892194E0,2.533030987E0
4.371031315E0,-9.962918758E-1,-1.657075882E0,2.557464838E0
4.373439179E0,-1.006065488E0,-1.743816257E0,2.577011824E0
4.375847773E0,-1.017060637E0,-1.823226333E0,2.585563660E0
4.378255534E0,-1.026834249E0,-1.885532737E0,2.579455376E0
4.380662513E0,-1.037829518E0,-1.931957126E0,2.558686495E0
4.383070377E0,-1.052489877E0,-1.956391096E0,2.528144121E0
4.385478919E0,-1.068371892E0,-1.950282574E0,2.484163046E0
4.387886731E0,-1.081963181E0,-1.918518543E0,2.421856642E0
4.390293711E0,-1.097845197E0,-1.856212139E0,2.344889879E0
4.392701575E0,-1.112505555E0,-1.767028451E0,2.252041101E0
4.395110117E0,-1.130831003E0,-1.659519315E0,2.144531965E0
4.397517929E0,-1.151599765E0,-1.531241417E0,2.019919157E0
4.399924909E0,-1.174811959E0,-1.396854997E0,1.881867647E0
4.402332721E0,-1.206575990E0,-1.263690233E0,1.734042645E0
4.404741315E0,-1.242005229E0,-1.145185947E0,1.572778940E0
4.407149127E0,-1.272547603E0,-1.043785214E0,1.398076653E0
4.409556054E0,-1.310420036E0,-9.717052579E-1,1.218487620E0
4.411963919E0,-1.343405843E0,-9.252808690E-1,1.037676811E0
4.414372513E0,-1.370283127E0,-8.984035850E-1,8.629744649E-1
4.416780325E0,-1.397160411E0,-8.935168386E-1,7.065975666E-1
4.419187252E0,-1.420372605E0,-9.118422270E-1,5.783196688E-1
4.421595117E0,-1.433811188E0,-9.521581531E-1,4.793623984E-1
4.424003711E0,-1.444806457E0,-1.016907930E0,4.121691883E-1
4.426411471E0,-1.452136636E0,-1.098761559E0,3.681881726E-1
4.428818450E0,-1.460688472E0,-1.194053650E0,3.486410677E-1
4.431226315E0,-1.464353561E0,-1.291789293E0,3.413109183E-1
4.433634909E0,-1.469240427E0,-1.385859728E0,3.474193811E-1
4.436042669E0,-1.476570487E0,-1.468934894E0,3.620797098E-1
4.438449648E0,-1.485122442E0,-1.534906507E0,3.828485310E-1
4.440857513E0,-1.492452621E0,-1.582552552E0,4.036173224E-1
4.443266054E0,-1.503447771E0,-1.614316583E0,4.256078303E-1
4.445673867E0,-1.515664816E0,-1.633863688E0,4.512633979E-1
4.448080846E0,-1.520551562E0,-1.649745703E0,4.781406820E-1
4.450488659E0,-1.520551562E0,-1.659519315E0,5.086830258E-1
4.452897252E0,-1.511999726E0,-1.660740972E0,5.380037427E-1
4.455305065E0,-1.501004457E0,-1.653410792E0,5.673243999E-1
4.457711992E0,-1.481457353E0,-1.636307120E0,5.978667736E-1
4.460119856E0,-1.458245158E0,-1.614316583E0,6.235223413E-1
4.462528450E0,-1.427702785E0,-1.582552552E0,6.503996253E-1
4.464936263E0,-1.389830232E0,-1.542236567E0,6.736118197E-1
4.467343190E0,-1.349514365E0,-1.493368864E0,6.943806410E-1
4.469751054E0,-1.312863469E0,-1.428619027E0,7.078192830E-1
4.472159648E0,-1.272547603E0,-1.347987175E0,7.200362086E-1
4.474567461E0,-1.228566527E0,-1.272242069E0,7.334748507E-1
4.476974388E0,-1.173590302E0,-1.213600755E0,7.493568659E-1
4.479382252E0,-1.111283898E0,-1.163511276E0,7.640172243E-1
4.481790846E0,-1.045159698E0,-1.121973753E0,7.762341499E-1
4.484198606E0,-9.779664874E-1,-1.081657767E0,7.896727920E-1
4.486605586E0,-9.058864713E-1,-1.046228647E0,8.031114340E-1
4.489013450E0,-8.338065147E-1,-1.013242841E0,8.177717924E-1
4.491421992E0,-7.592831254E-1,-9.778137207E-1,8.360971808E-1
4.493829804E0,-6.847597957E-1,-9.460496902E-1,8.507575393E-1
4.496236784E0,-6.053496599E-1,-9.167290330E-1,8.641961813E-1
4.498644648E0,-5.320479870E-1,-8.837432861E-1,8.764131069E-1
4.501053190E0,-4.611896873E-1,-8.580876589E-1,8.898517489E-1
4.503461002E0,-3.927747905E-1,-8.324320912E-1,8.996253014E-1
4.505867981E0,-3.268032968E-1,-8.165500760E-1,9.118422270E-1
4.508275794E0,-2.693836391E-1,-8.006680608E-1,9.191724062E-1
4.510684388E0,-2.229592502E-1,-7.908945084E-1,9.240592122E-1
4.513092200E0,-1.716480851E-1,-7.762341499E-1,9.228374958E-1
4.515499127E0,-1.337755471E-1,-7.591304183E-1,9.203941226E-1
4.517906992E0,-1.020114943E-1,-7.395833135E-1,9.155073166E-1
4.520315586E0,-7.513421029E-2,-7.212579250E-1,9.081771374E-1
4.522723398E0,-5.314370990E-2,-7.017107606E-1,8.984035850E-1
4.525130325E0,-3.359659761E-2,-6.809419990E-1,8.861866593E-1
4.527538190E0,-1.893626526E-2,-6.662816405E-1,8.690829277E-1
4.529946784E0,-1.160609815E-2,-6.577298045E-1,8.544226289E-1
4.532354544E0,-3.054236295E-3,-6.479562521E-1,8.348754644E-1
4.534761523E0,1.832541777E-3,-6.418477297E-1,8.141067028E-1
4.537169388E0,5.497625098E-3,-6.430694461E-1,7.933378816E-1
4.539577981E0,7.941014133E-3,-6.442911625E-1,7.713474035E-1
4.541985742E0,6.719320081E-3,-6.455128193E-1,7.469134927E-1
4.544392721E0,5.497625098E-3,-6.491779089E-1,7.249229550E-1
4.546800586E0,6.108472589E-4,-6.565080881E-1,6.992673874E-1
4.549209127E0,4.275931045E-3,-6.589514613E-1,6.723901033E-1
4.551616940E0,-6.108472589E-4,-6.687250137E-1,6.442911625E-1
4.554023919E0,-1.832541777E-3,-6.736118197E-1,6.125270724E-1
4.556431731E0,-6.719320081E-3,-6.809419990E-1,5.770979524E-1
4.558840325E0,-1.038440317E-2,-6.858287454E-1,5.416688323E-1
4.561248138E0,-1.282779220E-2,-6.894938350E-1,5.050179958E-1
4.563655117E0,-2.137965336E-2,-6.992673874E-1,4.695888162E-1
4.566062929E0,-2.260134928E-2,-7.053758502E-1,4.317162931E-1
4.568471523E0,-2.748812735E-2,-7.139277458E-1,3.938437700E-1
4.570879336E0,-2.870982140E-2,-7.175928354E-1,3.559712470E-1
4.573286263E0,-3.237490356E-2,-7.261446714E-1,3.180987239E-1
4.575694127E0,-3.603998944E-2,-7.334748507E-1,2.802261710E-1
4.578102721E0,-3.481829539E-2,-7.359182239E-1,2.411319613E-1
4.580510481E0,-3.726168349E-2,-7.383615971E-1,2.008160353E-1
4.582917461E0,-3.603998944E-2,-7.383615971E-1,1.617218107E-1
4.585325325E0,-3.359659761E-2,-7.395833135E-1,1.226275861E-1
4.587733919E0,-2.748812735E-2,-7.383615971E-1,7.986827940E-2
4.590141679E0,-2.382304333E-2,-7.371399403E-1,4.077405483E-2
4.592548659E0,-1.893626526E-2,-7.334748507E-1,-3.206948051E-3
4.594956523E0,-7.941014133E-3,-7.261446714E-1,-4.474456236E-2
4.597365065E0,1.832541777E-3,-7.175928354E-1,-8.994726092E-2
4.599772877E0,1.160609815E-2,-7.065975666E-1,-1.302631795E-1
4.602179856E0,2.260134928E-2,-6.943806410E-1,-1.718007922E-1
4.604587669E0,3.359659761E-2,-6.784985662E-1,-2.170034945E-1
4.606996263E0,4.581354558E-2,-6.675033569E-1,-2.573194206E-1
4.609404075E0,6.413896382E-2,-6.589514613E-1,-3.000787199E-1
4.611811054E0,8.124268800E-2,-6.528429985E-1,-3.428380191E-1
4.614218867E0,1.007898003E-1,-6.455128193E-1,-3.831539452E-1
4.616627461E0,1.215586066E-1,-6.381826997E-1,-4.222481549E-1
4.619035273E0,1.459924877E-1,-6.332958937E-1,-4.625640810E-1
4.621442200E0,1.679829955E-1,-6.247440577E-1,-5.016583204E-1
4.623850065E0,1.911951900E-1,-6.137487888E-1,-5.383091569E-1
4.626258659E0,2.168507725E-1,-6.015318632E-1,-5.749599934E-1
4.628666471E0,2.388412803E-1,-5.783196688E-1,-6.091674566E-1
4.631073398E0,2.583884001E-1,-5.563291311E-1,-6.445965767E-1
4.633481263E0,2.779355049E-1,-5.343386531E-1,-6.824691296E-1
4.635889856E0,2.999260128E-1,-5.062396526E-1,-7.178982496E-1
4.638297617E0,3.158080280E-1,-4.720322192E-1,-7.545490861E-1
4.640704596E0,3.292466700E-1,-4.378247857E-1,-7.911999226E-1
4.643112461E0,3.500154912E-1,-3.999522328E-1,-8.241856694E-1
4.645521002E0,3.658975065E-1,-3.596363366E-1,-8.547280431E-1
4.647928815E0,3.878880143E-1,-3.156553209E-1,-8.852704167E-1
4.650335794E0,4.037700295E-1,-2.741177082E-1,-9.133693576E-1
4.652743606E0,4.245388508E-1,-2.313583940E-1,-9.402466416E-1
4.655152200E0,4.440859556E-1,-1.898207814E-1,-9.622371197E-1
4.657560013E0,4.648547769E-1,-1.519482583E-1,-9.854493141E-1
4.659966992E0,4.844018817E-1,-1.177408099E-1,-1.006218195E0
4.662374804E0,5.076140761E-1,-8.475505561E-2,-1.024543524E0
4.664783398E0,5.320479870E-1,-5.787777901E-2,-1.039203882E0
4.667191211E0,5.601469278E-1,-3.466558084E-2,-1.053864241E0
4.669598190E0,5.858024955E-1,-1.756185852E-2,-1.067302823E0
4.672006002E0,6.187883019E-1,-4.581354442E-4,-1.079519868E0
4.674414596E0,6.529957056E-1,1.664558798E-2,-1.090515018E0
4.676822409E0,6.847597957E-1,3.252761811E-2,-1.097845197E0
4.679229336E0,7.153021693E-1,4.230117425E-2,-1.102732062E0
4.681637200E0,7.470661998E-1,5.085303262E-2,-1.108840466E0
4.684045794E0,7.788302302E-1,6.062658876E-2,-1.110062122E0
4.686453554E0,8.069292307E-1,6.795676053E-2,-1.110062122E0
4.688860534E0,8.313631415E-1,6.917845458E-2,-1.107618809E0
4.691268398E0,8.521319032E-1,7.040014863E-2,-1.105175376E0
4.693676940E0,8.667922616E-1,7.284353673E-2,-1.096623540E0
4.696084752E0,8.753440976E-1,7.406523079E-2,-1.084406614E0
4.698491731E0,8.741224408E-1,7.284353673E-2,-1.062416077E0
4.700899596E0,8.631271720E-1,6.917845458E-2,-1.036760569E0
4.703308138E0,8.472451568E-1,6.551336497E-2,-1.004996419E0
4.705715950E0,8.228112459E-1,5.451811850E-2,-9.646805525E-1
4.708122929E0,7.898254991E-1,3.863608837E-2,-9.243646264E-1
4.710530742E0,7.507312894E-1,2.031067200E-2,-8.779402375E-1
4.712939336E0,7.030851841E-1,-4.123218823E-3,-8.278507590E-1
4.715347148E0,6.493306160E-1,-3.710897267E-2,-7.765395641E-1
4.717754127E0,5.858024955E-1,-7.864658535E-2,-7.240067124E-1
4.720161940E0,5.149442554E-1,-1.226275861E-1,-6.678087711E-1
4.722570534E0,4.355340898E-1,-1.653869003E-1,-6.055023670E-1
4.724978346E0,3.524588645E-1,-2.044811249E-1,-5.395308137E-1
4.727385273E0,2.608317733E-1,-2.386885732E-1,-4.711159468E-1
4.729793138E0,1.582094431E-1,-2.655658424E-1,-3.953709006E-1
4.732201731E0,5.803048983E-2,-2.887780368E-1,-3.196258247E-1
4.734609492E0,-4.459185153E-2,-3.144336343E-1,-2.377723008E-1
4.737016471E0,-1.484358907E-1,-3.461976945E-1,-1.559187621E-1
4.739424336E0,-2.461714447E-1,-3.804051280E-1,-7.284353673E-2
4.741832929E0,-3.439069986E-1,-4.194993675E-1,9.009997360E-3
4.744240690E0,-4.355340898E-1,-4.549284875E-1,9.086353332E-2
4.746647669E0,-5.234960914E-1,-4.964661002E-1,1.763821393E-1
4.749055534E0,-6.102364063E-1,-5.306735635E-1,2.619007528E-1
4.751464075E0,-6.920899153E-1,-5.612159371E-1,3.474193811E-1
4.753871888E0,-7.751652002E-1,-5.844281316E-1,4.378247857E-1
4.756278867E0,-8.533536196E-1,-6.003101468E-1,5.282301903E-1
4.758686679E0,-9.303203821E-1,-6.113054156E-1,6.186355352E-1
4.761095273E0,-1.003622055E0,-6.247440577E-1,7.041541934E-1
4.763503086E0,-1.072189689E0,-6.430694461E-1,7.860077024E-1
4.765910065E0,-1.138161182E0,-6.736118197E-1,8.593093753E-1
4.768317877E0,-1.196802497E0,-7.114843726E-1,9.240592122E-1
4.770726471E0,-1.248113632E0,-7.566870451E-1,9.765920639E-1
4.773134284E0,-1.289651275E0,-8.018897176E-1,1.015686274E0
4.775541211E0,-1.325080395E0,-8.495358229E-1,1.037676811E0
4.777949075E0,-1.345849276E0,-8.959602118E-1,1.049893737E0
4.780357669E0,-1.350736022E0,-9.277243018E-1,1.048672080E0
4.782765429E0,-1.343405843E0,-9.546015263E-1,1.034011722E0
4.785172409E0,-1.317750216E0,-9.643751383E-1,1.008356094E0
4.787580273E0,-1.278656006E0,-9.655967951E-1,9.704836011E-1
4.789988867E0,-1.220014691E0,-9.570449591E-1,9.191724062E-1
4.792396627E0,-1.147934675E0,-9.399412274E-1,8.568660021E-1
4.794803606E0,-1.061041713E0,-9.179506898E-1,7.847860456E-1
4.797211471E0,-9.596410394E-1,-8.886300325E-1,7.017107606E-1
4.799620013E0,-8.496885300E-1,-8.593093753E-1,6.137487888E-1
4.802027825E0,-7.360709310E-1,-8.336538076E-1,5.221216679E-1
4.804434804E0,-6.151232123E-1,-8.128849864E-1,4.243861437E-1
4.806842617E0,-4.990622103E-1,-7.945595980E-1,3.254288733E-1
4.809251211E0,-3.817795515E-1,-7.798992395E-1,2.252499312E-1
4.811659023E0,-2.730487287E-1,-7.725690603E-1,1.238492802E-1
4.814065950E0,-1.667613089E-1,-7.676823139E-1,2.611372061E-2
4.816473815E0,-7.024743408E-2,-7.664605975E-1,-6.917845458E-2
4.818882409E0,2.015795931E-2,-7.725690603E-1,-1.644706279E-1
4.821290221E0,9.956810623E-2,-7.835643291E-1,-2.524326444E-1
4.823697148E0,1.753131598E-1,-8.006680608E-1,-3.330644667E-1
4.826105013E0,2.400629669E-1,-8.275453448E-1,-4.014793634E-1
4.828513606E0,2.987042964E-1,-8.641961813E-1,-4.564556181E-1
4.830921367E0,3.512371778E-1,-9.106205702E-1,-5.004366040E-1
4.833328346E0,3.964398801E-1,-9.717052579E-1,-5.395308137E-1
4.835736211E0,4.440859556E-1,-1.040120125E0,-5.712949038E-1
4.838144804E0,4.844018817E-1,-1.121973753E0,-6.018372774E-1
4.840552565E0,5.198310018E-1,-1.216044188E0,-6.287145615E-1
