"Time (s)","Gyroscope x (rad/s)","Gyroscope y (rad/s)","Gyroscope z (rad/s)"
1.399815740E-1,-4.451549351E-1,7.751652002E-1,1.801999472E-2
1.424496470E-1,-4.585935771E-1,7.861604095E-1,2.046338283E-2
1.449177720E-1,-4.695888162E-1,7.983773947E-1,1.924168877E-2
1.473860010E-1,-4.781406820E-1,8.130376935E-1,2.046338283E-2
1.498542830E-1,-4.903576374E-1,8.338065147E-1,2.168507688E-2
1.523225640E-1,-5.001311898E-1,8.557969928E-1,2.046338283E-2
1.547908970E-1,-5.062396526E-1,8.790091872E-1,1.801999472E-2
1.572593350E-1,-5.123481154E-1,9.071081877E-1,1.679829881E-2
1.597278240E-1,-5.184566379E-1,9.376505613E-1,1.435491070E-2
1.621963140E-1,-5.221216679E-1,9.681929350E-1,1.191152167E-2
1.646648560E-1,-5.233433843E-1,1.002400398E0,9.468132630E-3
1.671334490E-1,-5.257867575E-1,1.035386086E0,7.024743594E-3
1.696020950E-1,-5.233433843E-1,1.068371892E0,4.581354558E-3
1.720707410E-1,-5.221216679E-1,1.100135922E0,2.137965523E-3
1.745393870E-1,-5.196782947E-1,1.131899953E0,2.137965523E-3
1.770080850E-1,-5.135698318E-1,1.159998894E0,-1.527118147E-3
1.794767830E-1,-5.050179958E-1,1.184432864E0,-6.413896102E-3
1.819454810E-1,-5.001311898E-1,1.210088372E0,-8.857285604E-3
1.844058970E-1,-4.940227270E-1,1.234522343E0,-1.252236869E-2
1.868279280E-1,-4.866925478E-1,1.258956194E0,-1.863084175E-2
1.892491780E-1,-4.805840850E-1,1.279724956E0,-2.473931387E-2
1.916696990E-1,-4.769189954E-1,1.301715493E0,-2.840439789E-2
1.940909490E-1,-4.708105326E-1,1.320040941E0,-3.695625812E-2
1.965129810E-1,-4.671454430E-1,1.338366389E0,-4.672981426E-2
1.989342310E-1,-4.647020400E-1,1.354248405E0,-5.405998230E-2
2.013546990E-1,-4.634803534E-1,1.371352077E0,-6.383354217E-2
2.037759490E-1,-4.647020400E-1,1.387234092E0,-7.482878864E-2
2.061979810E-1,-4.647020400E-1,1.401894450E0,-8.704573661E-2
2.086192310E-1,-4.671454430E-1,1.417776465E0,-9.804098308E-2
2.110396990E-1,-4.695888162E-1,1.431215167E0,-1.090362370E-1
2.134610010E-1,-4.720322192E-1,1.447097182E0,-1.163664013E-1
2.158830330E-1,-4.793623984E-1,1.461757541E0,-1.273616552E-1
2.183042830E-1,-4.854708612E-1,1.472752690E0,-1.383569092E-1
2.207246990E-1,-4.952444136E-1,1.484969735E0,-1.493521482E-1
2.231460010E-1,-5.086830258E-1,1.498408318E0,-1.591257155E-1
2.255680330E-1,-5.209000111E-1,1.505738497E0,-1.688992679E-1
2.279892830E-1,-5.331169367E-1,1.514290333E0,-1.786728203E-1
2.304096990E-1,-5.477772951E-1,1.519177079E0,-1.896680743E-1
2.328310010E-1,-5.624375939E-1,1.530172348E0,-1.994416267E-1
2.352530850E-1,-5.770979524E-1,1.539945960E0,-2.092151791E-1
2.376743350E-1,-5.893148780E-1,1.547276139E0,-2.177670449E-1
2.400947510E-1,-6.015318632E-1,1.552162886E0,-2.226538211E-1
2.425160530E-1,-6.100836992E-1,1.553384542E0,-2.250972092E-1
2.449380850E-1,-6.149705052E-1,1.553384542E0,-2.275405973E-1
2.473593350E-1,-6.186355352E-1,1.549719453E0,-2.263189107E-1
2.497797510E-1,-6.198572516E-1,1.544832706E0,-2.214321345E-1
2.522010530E-1,-6.174138784E-1,1.532615781E0,-2.141019702E-1
2.546231370E-1,-6.137487888E-1,1.519177079E0,-2.043284029E-1
2.570443350E-1,-6.100836992E-1,1.502073407E0,-1.933331639E-1
2.594648030E-1,-6.027535200E-1,1.482526302E0,-1.823379099E-1
2.618861060E-1,-5.917583108E-1,1.458092451E0,-1.688992679E-1
2.643081370E-1,-5.844281316E-1,1.433658481E0,-1.554606259E-1
2.667293870E-1,-5.734328628E-1,1.408002973E0,-1.420219839E-1
2.691498030E-1,-5.624375939E-1,1.384790778E0,-1.298050433E-1
2.715711060E-1,-5.526640415E-1,1.359135151E0,-1.188097894E-1
2.739931370E-1,-5.502206683E-1,1.329814434E0,-1.127013192E-1
2.764143870E-1,-5.489989519E-1,1.287055135E0,-1.078145429E-1
2.788348030E-1,-5.514423847E-1,1.236965656E0,-1.041494608E-1
2.812561060E-1,-5.563291311E-1,1.179545999E0,-1.017060652E-1
2.836781890E-1,-5.612159371E-1,1.122126460E0,-1.017060652E-1
2.860994390E-1,-5.648810267E-1,1.064706802E0,-1.065928489E-1
2.885198560E-1,-5.697677732E-1,1.012173891E0,-1.151447073E-1
2.909411580E-1,-5.783196688E-1,9.657495022E-1,-1.224748790E-1
2.933631890E-1,-5.905365944E-1,9.242119193E-1,-1.310267299E-1
2.957844390E-1,-6.039752364E-1,8.875610828E-1,-1.383569092E-1
2.982048560E-1,-6.198572516E-1,8.484668136E-1,-1.469087601E-1
3.006261580E-1,-6.332958937E-1,8.081509471E-1,-1.542389393E-1
3.030482410E-1,-6.418477297E-1,7.653915882E-1,-1.615691036E-1
3.054694910E-1,-6.528429985E-1,7.226322889E-1,-1.701209545E-1
3.078899080E-1,-6.613948941E-1,6.896465421E-1,-1.798945218E-1
3.103112100E-1,-6.748335361E-1,6.713211536E-1,-1.884463727E-1
3.127332410E-1,-6.943806410E-1,6.664343476E-1,-1.957765520E-1
3.151544910E-1,-7.163711190E-1,6.639909744E-1,-2.018850148E-1
3.175749080E-1,-7.359182239E-1,6.566607952E-1,-2.031067163E-1
3.199962100E-1,-7.566870451E-1,6.420004964E-1,-2.055501044E-1
3.224182410E-1,-7.737907767E-1,6.236750484E-1,-2.031067163E-1
3.248394910E-1,-7.884510756E-1,5.955760479E-1,-1.982199401E-1
3.272599600E-1,-8.018897176E-1,5.711421967E-1,-1.884463727E-1
3.296812620E-1,-8.092198968E-1,5.442649126E-1,-1.774511337E-1
3.321032930E-1,-8.141067028E-1,5.210527182E-1,-1.615691036E-1
3.345245430E-1,-8.153283596E-1,5.039489865E-1,-1.444653720E-1
3.369449600E-1,-8.128849864E-1,4.905103445E-1,-1.236965731E-1
3.393662620E-1,-8.104416132E-1,4.819584787E-1,-1.041494608E-1
3.417882930E-1,-8.018897176E-1,4.746283293E-1,-8.460234851E-2
3.442095430E-1,-7.896727920E-1,4.648547769E-1,-6.627693027E-2
3.466299600E-1,-7.713474035E-1,4.599680007E-1,-4.795150831E-2
3.490512620E-1,-7.530219555E-1,4.575245976E-1,-2.962609194E-2
3.514733450E-1,-7.334748507E-1,4.575245976E-1,-1.252236869E-2
3.538945950E-1,-7.090409398E-1,4.563029110E-1,4.581354558E-3
3.563150120E-1,-6.821636558E-1,4.599680007E-1,1.801999472E-2
3.587363140E-1,-6.528429985E-1,4.636330605E-1,2.657185495E-2
3.611583450E-1,-6.223006248E-1,4.697415531E-1,3.268032894E-2
3.635795950E-1,-5.917583108E-1,4.831801951E-1,3.390202299E-2
3.660000120E-1,-5.587725043E-1,4.953971207E-1,3.145863488E-2
3.684213140E-1,-5.257867575E-1,5.100574493E-1,2.779355086E-2
3.708433970E-1,-4.928010404E-1,5.210527182E-1,1.679829881E-2
3.732646470E-1,-4.585935771E-1,5.320479870E-1,5.803049076E-3
3.756850640E-1,-4.268295169E-1,5.369347334E-1,-1.007897966E-2
3.781063660E-1,-4.011739492E-1,5.467082858E-1,-2.596100792E-2
3.805283970E-1,-3.742966652E-1,5.515950918E-1,-4.428642616E-2
3.829496470E-1,-3.523061574E-1,5.564818382E-1,-6.505523622E-2
3.853700640E-1,-3.290939629E-1,5.589252710E-1,-8.704573661E-2
3.877913660E-1,-3.119902313E-1,5.589252710E-1,-1.090362370E-1
3.902133970E-1,-2.936648130E-1,5.528167486E-1,-1.310267299E-1
3.926346470E-1,-2.802261710E-1,5.442649126E-1,-1.530172378E-1
3.950550640E-1,-2.667875290E-1,5.344913602E-1,-1.713426560E-1
3.974764180E-1,-2.570139766E-1,5.186093450E-1,-1.933331639E-1
3.998984490E-1,-2.472404242E-1,5.002838969E-1,-2.128802687E-1
4.023196990E-1,-2.386885732E-1,4.795151055E-1,-2.275405973E-1
4.047401160E-1,-2.338017821E-1,4.526378214E-1,-2.397575527E-1
4.071614180E-1,-2.289150059E-1,4.269822240E-1,-2.519744933E-1
4.095834490E-1,-2.240282297E-1,3.988832533E-1,-2.617480457E-1
4.120046990E-1,-2.191414535E-1,3.671191931E-1,-2.690782249E-1
4.144251160E-1,-2.154763639E-1,3.329117596E-1,-2.727433145E-1
4.168464180E-1,-2.130329758E-1,2.962609231E-1,-2.739650011E-1
4.192685010E-1,-2.105895877E-1,2.620534599E-1,-2.715215981E-1
4.216897510E-1,-2.093679011E-1,2.254026383E-1,-2.678565085E-1
4.241101680E-1,-2.069245130E-1,1.936385781E-1,-2.605263591E-1
4.265314700E-1,-2.032594234E-1,1.582094431E-1,-2.519744933E-1
4.289535010E-1,-2.032594234E-1,1.227803007E-1,-2.397575527E-1
4.313747510E-1,-2.093679011E-1,8.857285231E-2,-2.250972092E-1
4.337951680E-1,-2.130329758E-1,4.703523964E-2,-2.116585821E-1
4.362164700E-1,-2.203631550E-1,1.527118124E-2,-1.969982386E-1
4.386385010E-1,-2.313583940E-1,-6.719320081E-3,-1.847812980E-1
4.410597510E-1,-2.411319613E-1,-2.015795931E-2,-1.737860441E-1
4.434802200E-1,-2.509055138E-1,-2.748812735E-2,-1.652341783E-1
4.459015220E-1,-2.619007528E-1,-2.870982140E-2,-1.615691036E-1
4.483235530E-1,-2.716743052E-1,-1.649287529E-2,-1.591257155E-1
4.507448030E-1,-2.802261710E-1,-1.832541777E-3,-1.554606259E-1
4.531652200E-1,-2.851129472E-1,1.282779220E-2,-1.542389393E-1
4.555865220E-1,-2.899997234E-1,3.115320951E-2,-1.542389393E-1
4.580085530E-1,-2.912214398E-1,4.581354558E-2,-1.542389393E-1
4.604298030E-1,-2.899997234E-1,5.680879578E-2,-1.566823274E-1
4.628502200E-1,-2.875563502E-1,7.024743408E-2,-1.603474021E-1
4.652715220E-1,-2.826695740E-1,8.490777016E-2,-1.640124917E-1
4.676936060E-1,-2.765611112E-1,9.712471068E-2,-1.688992679E-1
4.701148560E-1,-2.680092454E-1,1.068982705E-1,-1.774511337E-1
4.725352720E-1,-2.594573796E-1,1.178935245E-1,-1.860029846E-1
4.749565740E-1,-2.460187376E-1,1.252236813E-1,-1.957765520E-1
4.773786060E-1,-2.325800955E-1,1.337755471E-1,-2.067717910E-1
4.797998560E-1,-2.215848416E-1,1.435490996E-1,-2.165453583E-1
4.822202720E-1,-2.081461996E-1,1.508792788E-1,-2.250972092E-1
4.846415740E-1,-1.947075576E-1,1.582094431E-1,-2.348707765E-1
4.870636060E-1,-1.849340051E-1,1.692046970E-1,-2.422009408E-1
4.894849080E-1,-1.739387512E-1,1.740914732E-1,-2.495311052E-1
4.919053240E-1,-1.641651988E-1,1.777565479E-1,-2.556395829E-1
4.943266260E-1,-1.580567211E-1,1.826433241E-1,-2.617480457E-1
4.967486580E-1,-1.470614821E-1,1.850867122E-1,-2.666348219E-1
4.991699080E-1,-1.385096163E-1,1.875301152E-1,-2.727433145E-1
5.015903240E-1,-1.324011385E-1,1.875301152E-1,-2.776300907E-1
5.040116260E-1,-1.250709742E-1,1.814216375E-1,-2.800734639E-1
5.064336580E-1,-1.152974218E-1,1.704263836E-1,-2.776300907E-1
5.088549080E-1,-9.941539168E-2,1.374406368E-1,-2.739650011E-1
5.112753240E-1,-7.742489129E-2,8.735115826E-2,-2.690782249E-1
5.136966260E-1,-5.299099907E-2,3.603998944E-2,-2.641914487E-1
5.161187100E-1,-2.244863659E-2,-9.162709117E-3,-2.605263591E-1
5.185399600E-1,8.093725890E-3,-4.337015375E-2,-2.568612695E-1
5.209603760E-1,3.741439432E-2,-6.169557199E-2,-2.531961799E-1
5.233816780E-1,6.917845458E-2,-7.879929990E-2,-2.470877171E-1
5.258037100E-1,9.605573118E-2,-8.612946421E-2,-2.422009408E-1
5.282249600E-1,1.180462316E-1,-8.490777016E-2,-2.312056869E-1
5.306453760E-1,1.412584335E-1,-8.368607610E-2,-2.177670449E-1
5.330666780E-1,1.559187621E-1,-7.269082218E-2,-2.055501044E-1
5.354887100E-1,1.681357026E-1,-5.558710173E-2,-1.896680743E-1
5.379099600E-1,1.754658818E-1,-3.359659761E-2,-1.774511337E-1
5.403304280E-1,1.803526580E-1,-6.719320081E-3,-1.640124917E-1
5.427517310E-1,1.791309565E-1,2.382304333E-2,-1.542389393E-1
5.451737620E-1,1.779092699E-1,5.803048983E-2,-1.481304616E-1
5.475950120E-1,1.742441803E-1,9.223793447E-2,-1.444653720E-1
5.500154280E-1,1.718007922E-1,1.264453828E-1,-1.456870735E-1
5.524367310E-1,1.681357026E-1,1.594311297E-1,-1.505738497E-1
5.548587620E-1,1.693574041E-1,1.911951900E-1,-1.554606259E-1
5.572800120E-1,1.705790907E-1,2.254026383E-1,-1.615691036E-1
5.597004280E-1,1.730224788E-1,2.571666837E-1,-1.688992679E-1
5.621217830E-1,1.766875684E-1,2.864873707E-1,-1.737860441E-1
5.645438140E-1,1.815743446E-1,3.182514310E-1,-1.762294322E-1
5.669650640E-1,1.901262105E-1,3.451287150E-1,-1.762294322E-1
5.693854810E-1,1.998997629E-1,3.658975065E-1,-1.750077456E-1
5.718067830E-1,2.060082406E-1,3.781144619E-1,-1.676775664E-1
5.742288140E-1,2.145601064E-1,3.866663277E-1,-1.579040140E-1
5.766500640E-1,2.218902707E-1,3.976615667E-1,-1.456870735E-1
5.790704810E-1,2.279987335E-1,4.147652984E-1,-1.261399537E-1
5.814917830E-1,2.316638231E-1,4.355340898E-1,-1.078145429E-1
5.839138140E-1,2.365505993E-1,4.636330605E-1,-8.704573661E-2
5.863351160E-1,2.414373755E-1,4.856235683E-1,-7.116370648E-2
5.887555330E-1,2.451024652E-1,5.039489865E-1,-5.894676223E-2
5.911768350E-1,2.524326444E-1,5.161659122E-1,-4.917320609E-2
5.935988660E-1,2.622061968E-1,5.283828974E-1,-4.184303805E-2
5.960201160E-1,2.732014358E-1,5.405998230E-1,-3.573456407E-2
5.984405330E-1,2.817533016E-1,5.589252710E-1,-2.840439789E-2
6.008618350E-1,2.903051674E-1,5.784723759E-1,-2.229592577E-2
6.032838660E-1,3.000787199E-1,5.992411375E-1,-1.007897966E-2
6.057051160E-1,3.061871827E-1,6.236750484E-1,2.137965523E-3
6.081255330E-1,3.159607351E-1,6.432221532E-1,1.191152167E-2
6.105468870E-1,3.245126009E-1,6.664343476E-1,2.412846684E-2
6.129689180E-1,3.293993771E-1,6.859814525E-1,3.634541109E-2
6.153901680E-1,3.367295563E-1,7.006418109E-1,4.611896724E-2
6.178105850E-1,3.440597057E-1,7.128587365E-1,5.711421743E-2
6.202318870E-1,3.501681983E-1,7.189671993E-1,6.566607952E-2
6.226539180E-1,3.513898849E-1,7.226322889E-1,7.543963939E-2
6.250751680E-1,3.550549746E-1,7.226322889E-1,8.521319181E-2
6.274955850E-1,3.574983478E-1,7.201889157E-1,9.620844573E-2
6.299168870E-1,3.574983478E-1,7.140804529E-1,1.047603041E-1
6.323389180E-1,3.574983478E-1,7.091936469E-1,1.133121699E-1
6.347602200E-1,3.562766612E-1,7.067502737E-1,1.206423342E-1
6.371806370E-1,3.538332880E-1,7.030851841E-1,1.230857223E-1
6.396019390E-1,3.513898849E-1,7.006418109E-1,1.243074164E-1
6.420239700E-1,3.489464819E-1,6.994200945E-1,1.243074164E-1
6.444452200E-1,3.452814221E-1,6.981984377E-1,1.206423342E-1
6.468656370E-1,3.440597057E-1,6.969767213E-1,1.145338640E-1
6.492869390E-1,3.403946459E-1,6.994200945E-1,1.047603041E-1
6.517089700E-1,3.403946459E-1,6.969767213E-1,9.376505762E-2
6.541302200E-1,3.379512429E-1,6.994200945E-1,8.032641560E-2
6.565506370E-1,3.342861533E-1,7.043069005E-1,6.566607952E-2
6.589719910E-1,3.318427801E-1,7.091936469E-1,4.978405312E-2
6.613940220E-1,3.257342875E-1,7.128587365E-1,3.390202299E-2
6.638152720E-1,3.220692277E-1,7.104153633E-1,1.557660475E-2
6.662356890E-1,3.159607351E-1,7.055285573E-1,-3.054236295E-4
6.686569910E-1,3.122956753E-1,6.859814525E-1,-1.740914769E-2
6.710790220E-1,3.098522723E-1,6.676560640E-1,-3.206948191E-2
6.735002720E-1,3.086305857E-1,6.468872428E-1,-4.672981426E-2
6.759206890E-1,3.061871827E-1,6.285618544E-1,-6.016845629E-2
6.783419910E-1,3.074088693E-1,6.065713167E-1,-6.994201243E-2
6.807640220E-1,3.049654961E-1,5.943543911E-1,-7.727217674E-2
6.831853240E-1,3.037438095E-1,5.809157491E-1,-8.215895295E-2
6.856057410E-1,3.013004065E-1,5.674771070E-1,-8.704573661E-2
6.880270430E-1,2.976353168E-1,5.503733754E-1,-9.315420687E-2
6.904490740E-1,2.927485406E-1,5.332696438E-1,-9.681928903E-2
6.928703240E-1,2.878617644E-1,5.137225389E-1,-1.017060652E-1
6.952907410E-1,2.793098986E-1,4.917320311E-1,-1.090362370E-1
6.977120430E-1,2.719797492E-1,4.709632397E-1,-1.163664013E-1
7.001340740E-1,2.609844804E-1,4.526378214E-1,-1.273616552E-1
7.025553240E-1,2.463241518E-1,4.306473136E-1,-1.359135211E-1
7.049757410E-1,2.292204350E-1,4.025483429E-1,-1.444653720E-1
7.073970950E-1,2.060082406E-1,3.781144619E-1,-1.530172378E-1
7.098191260E-1,1.827960461E-1,3.536805511E-1,-1.615691036E-1
7.122403760E-1,1.608055383E-1,3.353551328E-1,-1.664558798E-1
7.146607930E-1,1.327065676E-1,3.182514310E-1,-1.774511337E-1
7.170820950E-1,1.009425074E-1,3.035911024E-1,-1.884463727E-1
7.195041260E-1,6.917845458E-2,2.938175201E-1,-1.994416267E-1
7.219253760E-1,3.497100621E-2,2.864873707E-1,-2.079934925E-1
7.243457930E-1,3.206948051E-3,2.840439677E-1,-2.141019702E-1
7.267670950E-1,-2.855710872E-2,2.791571915E-1,-2.153236568E-1
7.291891260E-1,-5.787777901E-2,2.742704153E-1,-2.153236568E-1
7.316104280E-1,-8.475505561E-2,2.706053257E-1,-2.128802687E-1
7.340307930E-1,-1.116323397E-1,2.718270421E-1,-2.092151791E-1
7.364521470E-1,-1.275143623E-1,2.718270421E-1,-2.079934925E-1
7.388741780E-1,-1.385096163E-1,2.852656841E-1,-2.128802687E-1
7.412954280E-1,-1.397313178E-1,3.145863414E-1,-2.275405973E-1
7.437158450E-1,-1.324011385E-1,3.414636254E-1,-2.483094037E-1
7.461371470E-1,-1.165191159E-1,3.622324169E-1,-2.739650011E-1
7.485591780E-1,-9.330692142E-2,3.732276857E-1,-3.008422852E-1
7.509804280E-1,-7.009471953E-2,3.756710589E-1,-3.264978528E-1
7.534008450E-1,-4.321744293E-2,3.695625961E-1,-3.521534503E-1
7.558221470E-1,-2.000524849E-2,3.658975065E-1,-3.729222417E-1
7.582442310E-1,4.428642802E-3,3.671191931E-1,-3.888042867E-1
7.606654810E-1,2.397575416E-2,3.768927455E-1,-3.985778391E-1
7.630858970E-1,4.352286831E-2,3.903313875E-1,-4.034646153E-1
7.655071990E-1,5.940489471E-2,4.111002088E-1,-4.010212123E-1
7.679292310E-1,7.406523079E-2,4.282039404E-1,-3.924693763E-1
7.703504810E-1,8.383878320E-2,4.404208660E-1,-3.790307343E-1
7.727708970E-1,9.483403713E-2,4.416425824E-1,-3.594835997E-1
7.751921990E-1,1.021642014E-1,4.379774928E-1,-3.399364948E-1
7.776142310E-1,1.082726792E-1,4.355340898E-1,-3.179459870E-1
7.800354810E-1,1.107160673E-1,4.343124032E-1,-2.959555089E-1
7.824559490E-1,1.119377613E-1,4.343124032E-1,-2.727433145E-1
7.848772510E-1,1.131594554E-1,4.367557764E-1,-2.531961799E-1
7.872992830E-1,1.107160673E-1,4.343124032E-1,-2.360924631E-1
7.897205330E-1,1.082726792E-1,4.282039404E-1,-2.226538211E-1
7.921409490E-1,1.082726792E-1,4.196520746E-1,-2.079934925E-1
7.945622510E-1,1.046075895E-1,4.086568058E-1,-2.006633282E-1
7.969842830E-1,9.849911928E-2,3.988832533E-1,-1.945548505E-1
7.994055330E-1,9.361234307E-2,3.891097009E-1,-1.921114624E-1
8.018259490E-1,8.506047726E-2,3.781144619E-1,-1.908897758E-1
8.042472510E-1,7.406523079E-2,3.683409095E-1,-1.957765520E-1
8.066692830E-1,6.306997687E-2,3.573456407E-1,-2.031067163E-1
8.090905850E-1,5.329642445E-2,3.536805511E-1,-2.128802687E-1
8.115110010E-1,4.230117425E-2,3.549022675E-1,-2.238755226E-1
8.139323030E-1,2.764083818E-2,3.597890437E-1,-2.373141646E-1
8.163543350E-1,1.298050396E-2,3.671191931E-1,-2.507528067E-1
8.187755850E-1,-4.123218823E-3,3.830012381E-1,-2.641914487E-1
8.211960010E-1,-2.000524849E-2,3.988832533E-1,-2.764083743E-1
8.236173030E-1,-3.833066672E-2,4.184303582E-1,-2.874036431E-1
8.260393350E-1,-5.421269313E-2,4.391991794E-1,-2.959555089E-1
8.284605850E-1,-6.765133142E-2,4.563029110E-1,-3.032856584E-1
8.308810010E-1,-7.864658535E-2,4.709632397E-1,-3.069507480E-1
8.333023030E-1,-8.842013776E-2,4.831801951E-1,-3.045073450E-1
8.357243870E-1,-9.575030953E-2,4.929537475E-1,-3.020639718E-1
8.381456370E-1,-9.819369763E-2,5.027272701E-1,-2.935121059E-1
8.405660530E-1,-9.819369763E-2,5.161659122E-1,-2.800734639E-1
8.429873560E-1,-9.697200358E-2,5.259394646E-1,-2.641914487E-1
8.454093870E-1,-8.964183182E-2,5.308262706E-1,-2.470877171E-1
8.478306370E-1,-8.353336155E-2,5.308262706E-1,-2.287622988E-1
8.502510530E-1,-7.375980914E-2,5.271611810E-1,-2.079934925E-1
8.526723560E-1,-6.032116711E-2,5.125008225E-1,-1.884463727E-1
8.550943870E-1,-4.566083103E-2,4.966188073E-1,-1.688992679E-1
8.575156890E-1,-2.855710872E-2,4.782933891E-1,-1.493521482E-1
8.599361060E-1,-1.145338640E-2,4.624113739E-1,-1.346918195E-1
8.623574080E-1,9.315420873E-3,4.453076422E-1,-1.200314835E-1
8.647794390E-1,3.008422814E-2,4.282039404E-1,-1.065928489E-1
8.672006890E-1,5.573981255E-2,4.049917459E-1,-9.437590092E-2
8.696211060E-1,8.017370105E-2,3.866663277E-1,-8.093725890E-2
8.720424080E-1,1.070509851E-1,3.658975065E-1,-6.872031838E-2
8.744644390E-1,1.351499557E-1,3.524588645E-1,-5.405998230E-2
8.768856890E-1,1.608055383E-1,3.377985358E-1,-4.062134400E-2
8.793061060E-1,1.876828223E-1,3.292466700E-1,-2.840439789E-2
8.817274080E-1,2.133384049E-1,3.206948042E-1,-1.496575773E-2
8.841494910E-1,2.402156889E-1,3.170297146E-1,-2.748812549E-3
8.865707410E-1,2.609844804E-1,3.182514310E-1,7.024743594E-3
8.889911580E-1,2.841966748E-1,3.194731176E-1,1.313321572E-2
8.914124600E-1,3.025220931E-1,3.255815804E-1,1.557660475E-2
8.938344910E-1,3.159607351E-1,3.316900730E-1,1.557660475E-2
8.962557410E-1,3.281776905E-1,3.487937748E-1,1.313321572E-2
8.986761580E-1,3.355078697E-1,3.732276857E-1,9.468132630E-3
9.010974600E-1,3.391729295E-1,4.013266563E-1,9.162708884E-4
9.035194910E-1,3.452814221E-1,4.294256270E-1,-6.413896102E-3
9.059407410E-1,3.513898849E-1,4.563029110E-1,-1.374406368E-2
9.083611580E-1,3.562766612E-1,4.868452549E-1,-2.107422985E-2
9.107824600E-1,3.611634374E-1,5.149442554E-1,-2.840439789E-2
9.132045430E-1,3.697153032E-1,5.405998230E-1,-3.573456407E-2
9.156257930E-1,3.819322586E-1,5.686988235E-1,-4.184303805E-2
9.180462100E-1,3.965925872E-1,5.955760479E-1,-4.672981426E-2
9.204675120E-1,4.100312293E-1,6.163448691E-1,-5.528167635E-2
9.228895430E-1,4.295783341E-1,6.310052276E-1,-6.139015034E-2
9.253107930E-1,4.491254389E-1,6.420004964E-1,-6.994201243E-2
9.277312100E-1,4.711159468E-1,6.505523324E-1,-7.605048269E-2
9.301525120E-1,4.906630516E-1,6.529957056E-1,-8.460234851E-2
9.325745430E-1,5.102101564E-1,6.554391384E-1,-9.193251282E-2
9.349958450E-1,5.334223509E-1,6.542174220E-1,-1.017060652E-1
9.374162620E-1,5.517477989E-1,6.493306160E-1,-1.090362370E-1
9.398375640E-1,5.712949038E-1,6.420004964E-1,-1.188097894E-1
9.422595950E-1,5.871769190E-1,6.346703172E-1,-1.310267299E-1
9.446808450E-1,6.042806506E-1,6.236750484E-1,-1.420219839E-1
9.471012620E-1,6.201626658E-1,6.090146899E-1,-1.530172378E-1
9.495225640E-1,6.336013079E-1,5.943543911E-1,-1.627907902E-1
9.519445950E-1,6.445965767E-1,5.796940327E-1,-1.725643575E-1
9.543658450E-1,6.555918455E-1,5.686988235E-1,-1.786728203E-1
9.567862620E-1,6.629219651E-1,5.601469278E-1,-1.847812980E-1
9.592075640E-1,6.690304875E-1,5.503733754E-1,-1.896680743E-1
9.616296470E-1,6.739172339E-1,5.454866290E-1,-1.945548505E-1
9.640508970E-1,6.739172339E-1,5.430431962E-1,-1.982199401E-1
9.664713140E-1,6.702521443E-1,5.393781066E-1,-2.006633282E-1
9.688926160E-1,6.665870547E-1,5.381564498E-1,-2.055501044E-1
9.713146470E-1,6.592568755E-1,5.332696438E-1,-2.092151791E-1
9.737358970E-1,6.531484127E-1,5.296045542E-1,-2.116585821E-1
9.761563140E-1,6.470399499E-1,5.222744346E-1,-2.128802687E-1
9.785776160E-1,6.397097707E-1,5.198310018E-1,-2.141019702E-1
9.809996470E-1,6.323796511E-1,5.161659122E-1,-2.141019702E-1
9.834208970E-1,6.116108298E-1,4.990622103E-1,-2.116585821E-1
9.858413140E-1,5.676298141E-1,4.624113739E-1,-1.982199401E-1
9.882626680E-1,5.004366040E-1,4.098785222E-1,-1.737860441E-1
9.906846990E-1,4.149180055E-1,3.536805511E-1,-1.408002973E-1
9.931059490E-1,3.318427801E-1,2.987042964E-1,-1.163664013E-1
9.955263660E-1,2.609844804E-1,2.632751763E-1,-1.200314835E-1
9.979476680E-1,2.084516287E-1,2.547233105E-1,-1.542389393E-1
1.000369699E0,1.705790907E-1,2.693836391E-1,-2.043284029E-1
1.002790949E0,1.351499557E-1,3.096995652E-1,-2.409792393E-1
1.005211366E0,1.009425074E-1,3.524588645E-1,-2.593046725E-1
1.007632668E0,6.429167092E-2,3.817795515E-1,-2.593046725E-1
1.010054699E0,2.397575416E-2,3.891097009E-1,-2.483094037E-1
1.012476001E0,-1.267508045E-2,3.744493723E-1,-2.299840003E-1
1.014896418E0,-4.688252881E-2,3.426853120E-1,-2.165453583E-1
1.017317720E0,-6.887302548E-2,2.987042964E-1,-2.067717910E-1
1.019739751E0,-8.964183182E-2,2.498365343E-1,-2.067717910E-1
1.022161001E0,-1.018587798E-1,2.156290859E-1,-2.116585821E-1
1.024581418E0,-1.091889441E-1,2.217375487E-1,-2.116585821E-1
1.027002720E0,-1.104106456E-1,2.522799075E-1,-2.055501044E-1
1.029424751E0,-1.079672500E-1,2.864873707E-1,-1.957765520E-1
1.031846001E0,-1.030804738E-1,3.182514310E-1,-1.835595965E-1
1.034266418E0,-9.208522737E-2,3.316900730E-1,-1.713426560E-1
1.036687720E0,-8.231166750E-2,3.365768492E-1,-1.603474021E-1
1.039109803E0,-6.765133142E-2,3.268032968E-1,-1.493521482E-1
1.041531053E0,-5.665608495E-2,3.096995652E-1,-1.444653720E-1
1.043951470E0,-5.299099907E-2,2.852656841E-1,-1.408002973E-1
1.046372772E0,-5.665608495E-2,2.644968629E-1,-1.359135211E-1
1.048794803E0,-6.642963737E-2,2.290677279E-1,-1.273616552E-1
1.051216053E0,-7.864658535E-2,1.459924877E-1,-1.273616552E-1
1.053636470E0,-9.452861547E-2,4.275931045E-3,-1.359135211E-1
1.056057772E0,-1.104106456E-1,-1.423274130E-1,-1.432436854E-1
1.058479803E0,-1.201841980E-1,-2.522799075E-1,-1.432436854E-1
1.060901053E0,-1.226275861E-1,-3.182514310E-1,-1.298050433E-1
1.063321470E0,-1.201841980E-1,-3.463504016E-1,-1.053711548E-1
1.065742772E0,-1.140757278E-1,-3.402419090E-1,-7.238540053E-2
1.068164856E0,-1.043021679E-1,-3.158080280E-1,-3.695625812E-2
1.070586106E0,-9.452861547E-2,-2.791571915E-1,-3.054236295E-4
1.073006522E0,-8.475505561E-2,-2.376195788E-1,3.390202299E-2
1.075427824E0,-7.864658535E-2,-1.899735034E-1,6.200099736E-2
1.077849856E0,-7.742489129E-2,-1.398840249E-1,8.521319181E-2
1.080271106E0,-8.475505561E-2,-9.223793447E-2,1.035386100E-1
1.082691522E0,-9.330692142E-2,-5.436540768E-2,1.133121699E-1
1.085112824E0,-1.067455560E-1,-2.137965336E-2,1.206423342E-1
1.087534856E0,-1.238492802E-1,3.054236295E-3,1.206423342E-1
1.089956106E0,-1.409530044E-1,2.260134928E-2,1.157555580E-1
1.092376574E0,-1.605001241E-1,3.726168349E-2,1.108687744E-1
1.094797876E0,-1.824906170E-1,5.192201585E-2,1.072036922E-1
1.097219908E0,-2.105895877E-1,6.780404598E-2,1.096470803E-1
1.099641158E0,-2.362451702E-1,8.612946421E-2,1.157555580E-1
1.102061574E0,-2.582356930E-1,1.056765765E-1,1.243074164E-1
1.104482876E0,-2.777827978E-1,1.313321590E-1,1.340809762E-1
1.106904908E0,-2.924431264E-1,1.594311297E-1,1.438545287E-1
1.109326158E0,-3.058817685E-1,1.936385781E-1,1.536280811E-1
1.111746574E0,-3.107685447E-1,2.180724740E-1,1.597365588E-1
1.114167876E0,-3.132119179E-1,2.473931462E-1,1.634016484E-1
1.116589908E0,-3.156553209E-1,2.864873707E-1,1.658450365E-1
1.119011210E0,-3.193204105E-1,3.316900730E-1,1.658450365E-1
1.121431626E0,-3.254288733E-1,3.768927455E-1,1.682884246E-1
1.123852928E0,-3.315373361E-1,4.196520746E-1,1.695101112E-1
1.126274960E0,-3.413109183E-1,4.550811946E-1,1.719534993E-1
1.128696210E0,-3.523061574E-1,4.844018817E-1,1.780619770E-1
1.131116626E0,-3.633013964E-1,5.002838969E-1,1.841704547E-1
1.133537928E0,-3.742966652E-1,5.137225389E-1,1.902789176E-1
1.135959960E0,-3.852919042E-1,5.247178078E-1,2.000524700E-1
1.138381210E0,-3.999522328E-1,5.357130170E-1,2.122694254E-1
1.140801626E0,-4.182776511E-1,5.503733754E-1,2.269297540E-1
1.143222928E0,-4.402681589E-1,5.674771070E-1,2.428117841E-1
1.145645012E0,-4.622586668E-1,5.943543911E-1,2.599155009E-1
1.148066262E0,-4.891359508E-1,6.261184216E-1,2.782409191E-1
1.150486678E0,-5.160132051E-1,6.591041684E-1,2.929012477E-1
1.152907981E0,-5.404471159E-1,6.908682585E-1,3.063398898E-1
1.155330012E0,-5.673243999E-1,7.214106321E-1,3.185568452E-1
1.157751262E0,-5.917583108E-1,7.409577370E-1,3.332171738E-1
1.160171678E0,-6.174138784E-1,7.470661998E-1,3.454341292E-1
1.162592981E0,-6.369609833E-1,7.397360206E-1,3.576510847E-1
1.165015012E0,-6.577298045E-1,7.226322889E-1,3.710896969E-1
1.167436262E0,-6.760551929E-1,7.018635273E-1,3.833066523E-1
1.169856678E0,-6.907155514E-1,6.700994372E-1,3.943018913E-1
1.172277981E0,-7.041541934E-1,6.322268844E-1,4.028537571E-1
1.174700064E0,-7.114843726E-1,5.858024955E-1,4.126273096E-1
1.177121314E0,-7.163711190E-1,5.296045542E-1,4.248442650E-1
1.179541731E0,-7.151494026E-1,4.721849263E-1,4.382829070E-1
1.181963033E0,-7.114843726E-1,4.111002088E-1,4.529432356E-1
1.184385064E0,-7.029324770E-1,3.487937748E-1,4.688252807E-1
1.186806314E0,-6.907155514E-1,2.852656841E-1,4.859289825E-1
1.189226731E0,-6.748335361E-1,2.229592502E-1,4.993676245E-1
1.191648033E0,-6.565080881E-1,1.679829955E-1,5.140279531E-1
1.194070064E0,-6.418477297E-1,1.203369126E-1,5.262449384E-1
1.196491366E0,-6.284091473E-1,8.124268800E-2,5.384618640E-1
1.198911731E0,-6.174138784E-1,5.314370990E-2,5.506787896E-1
1.201333085E0,-6.076403260E-1,2.748812735E-2,5.628957748E-1
1.203755116E0,-6.003101468E-1,4.275931045E-3,5.751127005E-1
1.206176366E0,-5.929799676E-1,-2.015795931E-2,5.873296261E-1
1.208596783E0,-5.844281316E-1,-4.581354558E-2,5.995466113E-1
1.211018085E0,-5.709894896E-1,-7.024743408E-2,6.080984473E-1
1.213440116E0,-5.575508475E-1,-9.101624042E-2,6.190937161E-1
1.215861366E0,-5.465555787E-1,-1.032331884E-1,6.288672686E-1
1.218281783E0,-5.355603099E-1,-1.130067408E-1,6.349757314E-1
1.220703085E0,-5.245651007E-1,-1.191152185E-1,6.435275674E-1
1.223125116E0,-5.160132051E-1,-1.227803007E-1,6.533011198E-1
1.225546418E0,-5.086830258E-1,-1.215586066E-1,6.630746722E-1
1.227966783E0,-5.001311898E-1,-1.227803007E-1,6.728482842E-1
1.230388137E0,-4.915793240E-1,-1.301104724E-1,6.789567471E-1
1.232810168E0,-4.830274582E-1,-1.362189353E-1,6.862868667E-1
1.235231418E0,-4.732539058E-1,-1.447708011E-1,6.936170459E-1
1.237651835E0,-4.634803534E-1,-1.545443535E-1,7.009472251E-1
1.240073137E0,-4.488200247E-1,-1.667613089E-1,7.107207775E-1
1.242495168E0,-4.329380095E-1,-1.838650256E-1,7.168292403E-1
1.244916418E0,-4.121691883E-1,-2.034121305E-1,7.253811359E-1
1.247336835E0,-3.938437700E-1,-2.217375487E-1,7.388197780E-1
1.249758137E0,-3.755183518E-1,-2.388412803E-1,7.510367036E-1
1.252180220E0,-3.608580232E-1,-2.510582209E-1,7.644753456E-1
1.254601470E0,-3.461976945E-1,-2.632751763E-1,7.791357040E-1
1.257021887E0,-3.315373361E-1,-2.816005945E-1,7.925743461E-1
1.259443189E0,-3.217637837E-1,-2.974826097E-1,8.060129285E-1
1.261865220E0,-3.095468581E-1,-3.145863414E-1,8.182299137E-1
1.264286470E0,-2.985515893E-1,-3.231382072E-1,8.280034661E-1
1.266706887E0,-2.851129472E-1,-3.255815804E-1,8.389987350E-1
1.269128189E0,-2.704526186E-1,-3.243598938E-1,8.475505710E-1
1.271550220E0,-2.509055138E-1,-3.194731176E-1,8.585458398E-1
1.273971470E0,-2.338017821E-1,-3.133646548E-1,8.732061386E-1
1.276391887E0,-2.179197669E-1,-3.121429384E-1,8.866447806E-1
1.278813189E0,-2.020377368E-1,-3.109212518E-1,9.025267959E-1
1.281235272E0,-1.898207814E-1,-3.182514310E-1,9.208522439E-1
1.283656522E0,-1.788255423E-1,-3.353551328E-1,9.403993487E-1
1.286076939E0,-1.776038408E-1,-3.561239541E-1,9.623898268E-1
1.288498241E0,-1.739387512E-1,-3.830012381E-1,9.868237376E-1
1.290920272E0,-1.714953631E-1,-4.111002088E-1,1.007592559E0
1.293341522E0,-1.690519750E-1,-4.379774928E-1,1.029583097E0
1.295761939E0,-1.666085869E-1,-4.648547769E-1,1.047908425E0
1.298183241E0,-1.617218107E-1,-4.868452549E-1,1.066233873E0
1.300605272E0,-1.580567211E-1,-5.039489865E-1,1.083337665E0
1.303026522E0,-1.470614821E-1,-5.234960914E-1,1.097997904E0
1.305446939E0,-1.372879148E-1,-5.369347334E-1,1.110214949E0
1.307868293E0,-1.189625040E-1,-5.491516590E-1,1.122431874E0
1.310290324E0,-9.452861547E-2,-5.601469278E-1,1.132205367E0
1.312711574E0,-6.642963737E-2,-5.748072863E-1,1.143200636E0
1.315131991E0,-3.588727489E-2,-5.906893015E-1,1.152974248E0
1.317553293E0,-1.679830020E-3,-6.065713167E-1,1.166412830E0
1.319975324E0,3.252761811E-2,-6.261184216E-1,1.181073189E0
1.322396574E0,6.673506647E-2,-6.542174220E-1,1.196955204E0
1.324816991E0,9.727742523E-2,-6.896465421E-1,1.212837219E0
1.327238293E0,1.265980899E-1,-7.299624681E-1,1.227497578E0
1.329660324E0,1.461452097E-1,-7.653915882E-1,1.242157936E0
1.332081626E0,1.608055383E-1,-7.947123051E-1,1.256818295E0
1.334502043E0,1.730224788E-1,-7.873821259E-1,1.270256877E0
1.336923293E0,1.827960461E-1,-7.507312894E-1,1.277587056E0
1.339345376E0,1.889045089E-1,-7.177455425E-1,1.275143623E0
1.341766626E0,1.901262105E-1,-7.055285573E-1,1.264148355E0
1.344187043E0,1.937913001E-1,-7.140804529E-1,1.250709772E0
1.346608345E0,1.913478971E-1,-7.275190949E-1,1.239714503E0
1.349030376E0,1.889045089E-1,-7.311841846E-1,1.233605981E0
1.351451626E0,1.852394342E-1,-7.140804529E-1,1.229941010E0
1.353872043E0,1.827960461E-1,-6.810947061E-1,1.227497578E0
1.356293345E0,1.815743446E-1,-6.432221532E-1,1.225054145E0
1.358715428E0,1.840177327E-1,-6.126797795E-1,1.221389055E0
1.361136678E0,1.889045089E-1,-5.845808387E-1,1.216502309E0
1.363557043E0,1.962346882E-1,-5.662553906E-1,1.210393786E0
1.365978397E0,2.084516287E-1,-5.515950918E-1,1.204285383E0
1.368400428E0,2.194468826E-1,-5.357130170E-1,1.194511771E0
1.370821678E0,2.341072112E-1,-5.186093450E-1,1.183516622E0
1.373242095E0,2.548760176E-1,-5.039489865E-1,1.170077920E0
1.375663397E0,2.793098986E-1,-4.929537475E-1,1.148087382E0
1.378085428E0,3.147390485E-1,-4.831801951E-1,1.112658262E0
1.380506678E0,3.660502136E-1,-4.648547769E-1,1.056460381E0
1.382927095E0,4.271349311E-1,-3.903313875E-1,9.794935584E-1
1.385348397E0,5.004366040E-1,-2.486148328E-1,8.805363178E-1
1.387770428E0,5.822901726E-1,-6.780404598E-2,7.510367036E-1
1.390191731E0,6.702521443E-1,8.368607610E-2,5.983248949E-1
1.392612147E0,7.582141757E-1,1.740914732E-1,4.370612204E-1
1.395033449E0,8.400676847E-1,1.973036677E-1,2.721324563E-1
1.397455481E0,9.121476412E-1,1.679829955E-1,1.133121699E-1
1.399876731E0,9.756757617E-1,1.264453828E-1,-4.184303805E-2
1.402297147E0,1.025765300E0,1.142284349E-1,-1.921114624E-1
1.404718449E0,1.068524599E0,1.301104724E-1,-3.387148082E-1
1.407140481E0,1.101510286E0,1.704263836E-1,-4.779879749E-1
1.409561731E0,1.127165914E0,2.278460264E-1,-6.050441861E-1
1.411982147E0,1.143047929E0,2.950392365E-1,-7.223268747E-1
1.414403449E0,1.149156451E0,3.683409095E-1,-8.298360109E-1
1.416825533E0,1.150378108E0,4.355340898E-1,-9.263498783E-1
1.419246783E0,1.141826272E0,5.051707029E-1,-1.016755223E0
1.421667199E0,1.125944257E0,5.577035546E-1,-1.097387075E0
1.424088501E0,1.103953719E0,5.980194807E-1,-1.169467092E0
1.426510533E0,1.073411345E0,6.212316751E-1,-1.234216928E0
1.428931783E0,1.040425539E0,6.248967648E-1,-1.290414810E0
1.431352199E0,1.003774762E0,6.053496599E-1,-1.338060975E0
1.433773501E0,9.671239257E-1,5.699204803E-1,-1.375933409E0
1.436195533E0,9.316948056E-1,5.234960914E-1,-1.405254126E0
1.438616783E0,9.011524320E-1,4.624113739E-1,-1.427244663E0
1.441037199E0,8.657232523E-1,4.233171642E-1,-1.437018156E0
1.443458501E0,8.290724158E-1,3.830012381E-1,-1.437018156E0
1.445880585E0,7.899782062E-1,3.414636254E-1,-1.426022887E0
1.448301835E0,7.521057129E-1,2.950392365E-1,-1.406475782E0
1.450722251E0,7.203416228E-1,2.290677279E-1,-1.377155185E0
1.453143553E0,6.934643388E-1,1.557660550E-1,-1.338060975E0
1.455565585E0,6.739172339E-1,1.154501289E-1,-1.289193153E0
1.457986835E0,6.653653979E-1,1.374406368E-1,-1.226886749E0
1.460407251E0,6.665870547E-1,2.461714447E-1,-1.149919987E0
1.462828553E0,6.775823236E-1,3.304683566E-1,-1.057071209E0
1.465250585E0,6.946860552E-1,2.327328026E-1,-9.605573416E-1
1.467671835E0,7.154548764E-1,-2.504473738E-2,-8.750386834E-1
1.470092251E0,7.337802649E-1,-3.206948042E-1,-7.944068313E-1
1.472513553E0,7.484406233E-1,-5.699204803E-1,-7.113316059E-1
1.474935637E0,7.582141757E-1,-7.360709310E-1,-6.148177385E-1
1.477356887E0,7.679877281E-1,-8.203678727E-1,-5.036435723E-1
1.479777303E0,7.594358325E-1,-7.886037827E-1,-3.619270027E-1
1.482198606E0,6.555918455E-1,-4.575245976E-1,-1.603474021E-1
1.484620637E0,5.114318728E-1,-1.704263836E-1,6.077930331E-2
1.487041887E0,3.562766612E-1,-9.834641218E-2,2.721324563E-1
1.489462303E0,2.084516287E-1,-1.765348613E-1,4.419479966E-1
1.491883606E0,8.017370105E-2,-3.072561622E-1,5.665608048E-1
1.494305637E0,-1.267508045E-2,-4.306473136E-1,6.484143734E-1
1.496726887E0,-7.986827940E-2,-5.515950918E-1,7.009472251E-1
1.499147303E0,-1.372879148E-1,-6.981984377E-1,7.400414348E-1
1.501568606E0,-2.008160353E-1,-8.777875304E-1,7.828007340E-1
1.503990689E0,-2.814478874E-1,-1.052489877E0,8.389987350E-1
1.506411939E0,-3.816268146E-1,-1.168550849E0,9.086353183E-1
1.508832356E0,-4.964661002E-1,-1.192984700E0,9.794935584E-1
1.511253658E0,-6.113054156E-1,-1.144116879E0,1.044243336E0
1.513675689E0,-7.151494026E-1,-1.050046444E0,1.093111157E0
1.516096939E0,-7.908945084E-1,-9.596410394E-1,1.121210098E0
1.518517356E0,-8.373188972E-1,-8.838959932E-1,1.130983710E0
1.520938658E0,-8.556442857E-1,-8.386932611E-1,1.121210098E0
1.523360689E0,-8.483141065E-1,-8.154810667E-1,1.100441337E0
1.525781939E0,-8.238802552E-1,-8.118160367E-1,1.072342396E0
1.528202356E0,-7.933378816E-1,-8.105943203E-1,1.043021679E0
1.530623658E0,-7.530219555E-1,-8.008207679E-1,1.010035992E0
1.533045741E0,-7.127060294E-1,-7.763868570E-1,9.770501852E-1
1.535466991E0,-6.650599241E-1,-7.397360206E-1,9.403993487E-1
1.537887408E0,-6.137487888E-1,-6.981984377E-1,8.988617659E-1
1.540308710E0,-5.563291311E-1,-6.529957056E-1,8.548807502E-1
1.542730741E0,-4.964661002E-1,-6.163448691E-1,8.047912717E-1
1.545151991E0,-4.304946065E-1,-5.833591223E-1,7.559235096E-1
1.547572408E0,-3.620797098E-1,-5.552601814E-1,7.046123147E-1
1.549993710E0,-2.985515893E-1,-5.332696438E-1,6.557445526E-1
1.552415741E0,-2.374668717E-1,-5.100574493E-1,6.068767309E-1
1.554837043E0,-1.812689304E-1,-4.905103445E-1,5.653391480E-1
1.557257408E0,-1.336228400E-1,-4.697415531E-1,5.250232220E-1
1.559678710E0,-8.964183182E-2,-4.514161348E-1,4.871506989E-1
1.562100793E0,-5.054761097E-2,-4.282039404E-1,4.529432356E-1
1.564522043E0,-1.756185852E-2,-4.123218954E-1,4.199574888E-1
1.566942460E0,1.298050396E-2,-3.988832533E-1,3.894151151E-1
1.569363762E0,4.107947648E-2,-3.878880143E-1,3.600944579E-1
1.571785793E0,6.673506647E-2,-3.817795515E-1,3.319954872E-1
1.574207043E0,9.116895497E-2,-3.744493723E-1,3.063398898E-1
1.576627460E0,1.131594554E-1,-3.756710589E-1,2.819060087E-1
1.579048762E0,1.339282542E-1,-3.720059693E-1,2.599155009E-1
1.581470793E0,1.522536725E-1,-3.707842827E-1,2.403683960E-1
1.583892043E0,1.705790907E-1,-3.732276857E-1,2.220429778E-1
1.586312460E0,1.876828223E-1,-3.756710589E-1,2.049392611E-1
1.588733762E0,2.047865391E-1,-3.830012381E-1,1.902789176E-1
1.591155845E0,2.231119573E-1,-3.927747905E-1,1.780619770E-1
1.593577095E0,2.426590770E-1,-4.037700295E-1,1.670667231E-1
1.595997512E0,2.573194206E-1,-4.123218954E-1,1.572931707E-1
1.598418814E0,2.756448388E-1,-4.172086716E-1,1.499630064E-1
1.600840845E0,2.878617644E-1,-4.135435820E-1,1.450762302E-1
1.603262095E0,3.049654961E-1,-4.086568058E-1,1.414111406E-1
1.605682512E0,3.232909143E-1,-4.111002088E-1,1.377460510E-1
1.608103814E0,3.355078697E-1,-4.062134326E-1,1.365243644E-1
1.610525845E0,3.538332880E-1,-4.062134326E-1,1.377460510E-1
1.612947095E0,3.672719002E-1,-4.062134326E-1,1.389677525E-1
1.615367512E0,3.819322586E-1,-4.074351192E-1,1.414111406E-1
1.617788814E0,3.953709006E-1,-4.086568058E-1,1.462979168E-1
1.620210897E0,4.088095427E-1,-4.135435820E-1,1.524063945E-1
1.622632147E0,4.210264683E-1,-4.196520746E-1,1.597365588E-1
1.625052564E0,4.320217371E-1,-4.294256270E-1,1.682884246E-1
1.627473866E0,4.405735731E-1,-4.404208660E-1,1.792836636E-1
1.629895897E0,4.515688419E-1,-4.538595080E-1,1.902789176E-1
1.632317147E0,4.576773047E-1,-4.672981501E-1,2.024958730E-1
1.634737564E0,4.637857676E-1,-4.807367921E-1,2.134911120E-1
1.637158866E0,4.686725736E-1,-4.941754341E-1,2.281514555E-1
1.639580897E0,4.735593498E-1,-5.149442554E-1,2.428117841E-1
1.642002147E0,4.772244096E-1,-5.320479870E-1,2.599155009E-1
1.644422564E0,4.833329022E-1,-5.540384650E-1,2.770192325E-1
1.646843866E0,4.882196784E-1,-5.772506595E-1,2.965663373E-1
1.649265949E0,4.918847680E-1,-6.077930331E-1,3.173351586E-1
1.651687199E0,4.967715442E-1,-6.358919740E-1,3.405473530E-1
1.654107616E0,5.028799772E-1,-6.713211536E-1,3.637595475E-1
1.656528918E0,5.126535892E-1,-7.091936469E-1,3.881934285E-1
1.658950949E0,5.187620521E-1,-7.446228266E-1,4.114056230E-1
1.661372199E0,5.273138881E-1,-7.812736630E-1,4.346178174E-1
1.663792616E0,5.370874405E-1,-8.203678727E-1,4.553866386E-1
1.666213918E0,5.468609929E-1,-8.570187092E-1,4.749337435E-1
1.668635949E0,5.529694557E-1,-8.985562921E-1,4.908157587E-1
1.671057199E0,5.627430081E-1,-9.388722181E-1,5.042544007E-1
1.673477616E0,5.676298141E-1,-9.767447710E-1,5.128062963E-1
1.675898918E0,5.725166202E-1,-1.013395548E0,5.225798488E-1
1.678321001E0,5.761816502E-1,-1.043937922E0,5.274665952E-1
1.680742251E0,5.786250830E-1,-1.076923728E0,5.323534012E-1
1.683162668E0,5.822901726E-1,-1.108687758E0,5.360184908E-1
1.685583970E0,5.847335458E-1,-1.140451789E0,5.384618640E-1
1.688006001E0,5.883986354E-1,-1.175881028E0,5.396835804E-1
1.690427251E0,5.932853818E-1,-1.208866715E0,5.384618640E-1
1.692847668E0,5.957288146E-1,-1.239409089E0,5.372401476E-1
1.695268970E0,6.018372774E-1,-1.269951463E0,5.335750580E-1
1.697691001E0,6.055023670E-1,-1.294385314E0,5.299099684E-1
1.700112251E0,6.067240238E-1,-1.312710762E0,5.238015056E-1
1.702532668E0,6.103891134E-1,-1.328592777E0,5.176930428E-1
1.704953970E0,6.103891134E-1,-1.338366389E0,5.115845799E-1
1.707376053E0,6.128324866E-1,-1.344474792E0,5.042544007E-1
1.709797303E0,6.201626658E-1,-1.350583315E0,4.981459379E-1
1.712217720E0,6.250494719E-1,-1.355470061E0,4.908157587E-1
1.714639022E0,6.348230243E-1,-1.364021897E0,4.847072959E-1
1.717061053E0,6.507050395E-1,-1.373795509E0,4.785988331E-1
1.719482303E0,6.665870547E-1,-1.383569002E0,4.749337435E-1
1.721902720E0,6.861341596E-1,-1.390899181E0,4.737120569E-1
1.724324022E0,7.093463540E-1,-1.401894450E0,4.712686539E-1
1.726746053E0,7.337802649E-1,-1.406781197E0,4.724903405E-1
1.729167303E0,7.631009221E-1,-1.411668062E0,4.712686539E-1
1.731587720E0,7.924215794E-1,-1.406781197E0,4.676035643E-1
1.734009022E0,8.241856694E-1,-1.397007704E0,4.590517282E-1
1.736431106E0,8.596147895E-1,-1.386012435E0,4.468347728E-1
1.738852356E0,8.962656260E-1,-1.362800241E0,4.297310412E-1
1.741272772E0,9.341381788E-1,-1.335922956E0,4.089622498E-1
1.743694074E0,9.695672989E-1,-1.302937150E0,3.820849657E-1
1.746116106E0,1.008661509E0,-1.266286373E0,3.490992188E-1
1.748537356E0,1.048977494E0,-1.228413820E0,3.136700690E-1
1.750957772E0,1.085628271E0,-1.185654521E0,2.806843221E-1
1.753379074E0,1.108840466E0,-1.133121610E0,2.721324563E-1
1.755801106E0,1.117392302E0,-1.094027400E0,2.867927849E-1
1.758222356E0,1.122279167E0,-1.086697221E0,2.929012477E-1
1.760642772E0,1.125944257E0,-1.102579355E0,2.880144715E-1
1.763064074E0,1.124722481E0,-1.134343386E0,2.794626355E-1
1.765486158E0,1.123500824E0,-1.178324342E0,2.721324563E-1
1.767907408E0,1.125944257E0,-1.223527074E0,2.635805905E-1
1.770327824E0,1.133274436E0,-1.265064716E0,2.574721277E-1
1.772749126E0,1.147934675E0,-1.294385314E0,2.513636351E-1
1.775171158E0,1.167481780E0,-1.311489105E0,2.452551723E-1
1.777592408E0,1.195580840E0,-1.326149344E0,2.415900975E-1
1.780012824E0,1.222458124E0,-1.328592777E0,2.391466945E-1
1.782434126E0,1.246891975E0,-1.324927688E0,2.367033064E-1
1.784856158E0,1.270104170E0,-1.318819284E0,2.354816198E-1
1.787277408E0,1.287207842E0,-1.313932419E0,2.318165302E-1
1.789697824E0,1.298203111E0,-1.311489105E0,2.281514555E-1
1.792119126E0,1.300646544E0,-1.311489105E0,2.220429778E-1
1.794541158E0,1.299424887E0,-1.317597508E0,2.134911120E-1
1.796962460E0,1.290872931E0,-1.321262598E0,2.061609477E-1
1.799382876E0,1.276212692E0,-1.321262598E0,1.988307834E-1
1.801804178E0,1.257887244E0,-1.320040941E0,1.939440072E-1
1.804226210E0,1.234675050E0,-1.313932419E0,1.927223057E-1
1.806647460E0,1.212684512E0,-1.310267329E0,1.963873953E-1
1.809067876E0,1.185807228E0,-1.305380583E0,2.049392611E-1
1.811489178E0,1.157708287E0,-1.299272060E0,2.195995897E-1
1.813911210E0,1.129609346E0,-1.291942000E0,2.342599183E-1
1.816332460E0,1.092958450E0,-1.277281642E0,2.538070381E-1
1.818752876E0,1.056307673E0,-1.262621284E0,2.782409191E-1
1.821174178E0,1.015991688E0,-1.245517612E0,3.002314270E-1
1.823596210E0,9.744541049E-1,-1.227192163E0,3.234436214E-1
1.826017512E0,9.316948056E-1,-1.207645059E0,3.466558158E-1
1.828437928E0,8.889354467E-1,-1.189319611E0,3.698680103E-1
1.830859231E0,8.425110579E-1,-1.169772506E0,3.918585181E-1
1.833281262E0,7.973083854E-1,-1.153890491E0,4.101839364E-1
1.835702512E0,7.557707429E-1,-1.146560311E0,4.321744442E-1
1.838122928E0,7.105680704E-1,-1.138008475E0,4.517215490E-1
1.840544231E0,6.714738607E-1,-1.136786699E0,4.700469673E-1
1.842966262E0,6.299362183E-1,-1.138008475E0,4.883723855E-1
1.845387512E0,5.920637250E-1,-1.147781968E0,5.066977739E-1
1.847807928E0,5.554128885E-1,-1.158777237E0,5.238015056E-1
1.850229231E0,5.199837089E-1,-1.174659252E0,5.409052372E-1
1.852651262E0,4.869979918E-1,-1.195428133E0,5.567872524E-1
1.855072564E0,4.552339315E-1,-1.221083641E0,5.738909841E-1
1.857492981E0,4.246915579E-1,-1.250404358E0,5.873296261E-1
1.859914231E0,3.953709006E-1,-1.282168388E0,6.044333577E-1
1.862336314E0,3.697153032E-1,-1.318819284E0,6.227588058E-1
1.864757564E0,3.428380191E-1,-1.355470061E0,6.410841942E-1
1.867177981E0,3.159607351E-1,-1.390899181E0,6.606312990E-1
1.869599283E0,2.915268540E-1,-1.422663212E0,6.814001203E-1
1.872021314E0,2.683146596E-1,-1.448318839E0,6.997255087E-1
1.874442564E0,2.475458533E-1,-1.465422630E0,7.168292403E-1
1.876862981E0,2.292204350E-1,-1.470309377E0,7.314895988E-1
1.879284283E0,2.121167034E-1,-1.467865944E0,7.461498976E-1
1.881706314E0,1.962346882E-1,-1.464200854E0,7.571451664E-1
1.884127564E0,1.815743446E-1,-1.455649018E0,7.632536292E-1
1.886547981E0,1.681357026E-1,-1.451983929E0,7.656970620E-1
1.888969283E0,1.546970755E-1,-1.449540496E0,7.644753456E-1
1.891391366E0,1.424801201E-1,-1.451983929E0,7.583668828E-1
1.893812616E0,1.314848661E-1,-1.451983929E0,7.510367036E-1
1.896233033E0,1.217113137E-1,-1.454427361E0,7.400414348E-1
1.898654335E0,1.131594554E-1,-1.458092451E0,7.253811359E-1
1.901076366E0,1.021642014E-1,-1.454427361E0,7.107207775E-1
1.903497616E0,9.727742523E-2,-1.444653749E0,6.911736727E-1
1.905918033E0,9.605573118E-2,-1.436101913E0,6.728482842E-1
1.908339335E0,9.361234307E-2,-1.416554809E0,6.533011198E-1
1.910761366E0,9.972081333E-2,-1.398229361E0,6.337540150E-1
1.913182616E0,1.070509851E-1,-1.376238823E0,6.142069101E-1
1.915603033E0,1.168245375E-1,-1.354248405E0,5.934380889E-1
1.918024335E0,1.302631795E-1,-1.332257867E0,5.702258945E-1
1.920446418E0,1.449235082E-1,-1.311489105E0,5.470137000E-1
1.922867668E0,1.632489264E-1,-1.291942000E0,5.189147592E-1
1.925288085E0,1.803526580E-1,-1.269951463E0,4.883723855E-1
1.927709387E0,2.011214644E-1,-1.243074179E0,4.529432356E-1
1.930131418E0,2.218902707E-1,-1.211310148E0,4.138490260E-1
1.932552668E0,2.426590770E-1,-1.177102685E0,3.723114133E-1
1.934973085E0,2.646495700E-1,-1.139230132E0,3.258870244E-1
1.937394387E0,2.903051674E-1,-1.102579355E0,2.770192325E-1
1.939816418E0,3.171824515E-1,-1.063485026E0,2.281514555E-1
1.942237668E0,3.416163325E-1,-1.018282413E0,1.805053651E-1
1.944658085E0,3.697153032E-1,-9.804098606E-1,1.291942000E-1
1.947079387E0,4.002576768E-1,-9.388722181E-1,7.910472155E-2
1.949501470E0,4.295783341E-1,-8.948912621E-1,3.145863488E-2
1.951922720E0,4.650074840E-1,-8.472451568E-1,-1.618745178E-2
1.954343137E0,4.955498278E-1,-7.959339619E-1,-6.139015034E-2
1.956764439E0,5.322006941E-1,-7.348492742E-1,-1.029277667E-1
1.959186470E0,5.676298141E-1,-6.713211536E-1,-1.420219839E-1
1.961607720E0,6.055023670E-1,-6.029062271E-1,-1.774511337E-1
1.964028137E0,6.421532035E-1,-5.308262706E-1,-2.055501044E-1
1.966449439E0,6.836907864E-1,-4.550811946E-1,-2.312056869E-1
1.968871470E0,7.264500856E-1,-3.805578351E-1,-2.531961799E-1
1.971292720E0,7.704311013E-1,-3.084778786E-1,-2.727433145E-1
1.973713137E0,8.144121170E-1,-2.388412803E-1,-2.886253297E-1
1.976134439E0,8.620582223E-1,-1.777565479E-1,-3.020639718E-1
1.978556470E0,9.060391784E-1,-1.203369126E-1,-3.106158376E-1
1.980977720E0,9.536852837E-1,-7.269082218E-2,-3.142809272E-1
1.983398137E0,9.988879561E-1,-3.237490356E-2,-3.142809272E-1
1.985819491E0,1.041647315E0,3.054236295E-3,-3.081724346E-1
1.988241522E0,1.086849928E0,3.237490356E-2,-2.947337925E-1
1.990662772E0,1.130831003E0,5.558710173E-2,-2.764083743E-1
1.993083189E0,1.172368646E0,7.879929990E-2,-2.507528067E-1
1.995504491E0,1.217571259E0,9.223793447E-2,-2.177670449E-1
1.997926522E0,1.257887244E0,1.105633527E-1,-1.811162084E-1
2.000347772E0,1.295759797E0,1.252236813E-1,-1.408002973E-1
2.002768189E0,1.333632231E0,1.411057115E-1,-9.804098308E-2
2.005189491E0,1.370283127E0,1.496575773E-1,-5.161659420E-2
2.007611522E0,1.400825500E0,1.545443535E-1,-3.970507067E-3
2.010032772E0,1.432589531E0,1.496575773E-1,4.123219103E-2
2.012453189E0,1.459466815E0,1.386623234E-1,8.154810965E-2
2.014874491E0,1.486344099E0,1.227803007E-1,1.218640283E-1
2.017296574E0,1.507112861E0,1.044548824E-1,1.572931707E-1
2.019717824E0,1.524216652E0,8.612946421E-2,1.915006191E-1
2.022138241E0,1.538877010E0,6.169557199E-2,2.208212912E-1
2.024559543E0,1.548650503E0,3.970507160E-2,2.464768738E-1
2.026981574E0,1.557202339E0,1.282779220E-2,2.709107697E-1
2.029402824E0,1.558424115E0,-1.038440317E-2,2.941229641E-1
2.031823241E0,1.555980682E0,-3.481829539E-2,3.161134422E-1
2.034244543E0,1.549872160E0,-6.413896382E-2,3.356605768E-1
2.036666574E0,1.537655234E0,-8.612946421E-2,3.527642787E-1
2.039087824E0,1.525438309E0,-1.044548824E-1,3.674246371E-1
2.041508241E0,1.505891204E0,-1.227803007E-1,3.771981895E-1
2.043929543E0,1.485122442E0,-1.398840249E-1,3.833066523E-1
2.046351574E0,1.457023382E0,-1.545443535E-1,3.881934285E-1
2.048772876E0,1.427702785E0,-1.728697717E-1,3.906368315E-1
2.051193293E0,1.395938754E0,-1.960819662E-1,3.930802047E-1
2.053614595E0,1.361731291E0,-2.217375487E-1,3.943018913E-1
2.056036626E0,1.321415305E0,-2.535016239E-1,3.943018913E-1
2.058457876E0,1.281099439E0,-2.791571915E-1,3.943018913E-1
2.060878293E0,1.239561796E0,-3.011476994E-1,3.943018913E-1
2.063299595E0,1.196802497E0,-3.170297146E-1,3.906368315E-1
2.065721626E0,1.149156451E0,-3.255815804E-1,3.869717419E-1
2.068142876E0,1.099066973E0,-3.329117596E-1,3.808632791E-1
2.070563293E0,1.048977494E0,-3.365768492E-1,3.735330999E-1
2.072984595E0,1.000109673E0,-3.377985358E-1,3.637595475E-1
2.075406626E0,9.487984776E-1,-3.402419090E-1,3.539859951E-1
2.077827876E0,8.987090588E-1,-3.402419090E-1,3.454341292E-1
2.080248293E0,8.510629535E-1,-3.402419090E-1,3.356605768E-1
2.082669647E0,8.021951914E-1,-3.377985358E-1,3.295520842E-1
2.085091678E0,7.533273697E-1,-3.329117596E-1,3.234436214E-1
2.087512928E0,7.069029808E-1,-3.292466700E-1,3.185568452E-1
2.089933345E0,6.617003083E-1,-3.304683566E-1,3.148917556E-1
2.092354647E0,6.213843822E-1,-3.390202224E-1,3.124483824E-1
2.094776678E0,5.822901726E-1,-3.500154912E-1,3.124483824E-1
2.097197928E0,5.468609929E-1,-3.622324169E-1,3.100049794E-1
2.099618345E0,5.126535892E-1,-3.756710589E-1,3.100049794E-1
2.102039647E0,4.808894992E-1,-3.878880143E-1,3.100049794E-1
2.104461678E0,4.491254389E-1,-3.976615667E-1,3.075616062E-1
2.106882928E0,4.198047817E-1,-4.086568058E-1,3.051182032E-1
2.109303345E0,3.941491842E-1,-4.123218954E-1,3.014531136E-1
2.111724647E0,3.721587062E-1,-4.147652984E-1,2.977880239E-1
2.114146731E0,3.526115716E-1,-4.123218954E-1,2.929012477E-1
2.116567981E0,3.391729295E-1,-4.037700295E-1,2.892361879E-1
2.118988397E0,3.306210935E-1,-3.927747905E-1,2.855710983E-1
2.121409699E0,3.281776905E-1,-3.768927455E-1,2.806843221E-1
2.123831731E0,3.318427801E-1,-3.573456407E-1,2.770192325E-1
2.126252981E0,3.367295563E-1,-3.390202224E-1,2.733541429E-1
2.128673397E0,3.513898849E-1,-3.158080280E-1,2.696890533E-1
2.131094699E0,3.672719002E-1,-2.938175201E-1,2.635805905E-1
2.133516731E0,3.868190348E-1,-2.693836391E-1,2.599155009E-1
2.135937981E0,4.075878263E-1,-2.486148328E-1,2.550287247E-1
2.138358397E0,4.308000207E-1,-2.241809368E-1,2.513636351E-1
2.140779699E0,4.564556181E-1,-2.009687424E-1,2.513636351E-1
2.143201731E0,4.833329022E-1,-1.753131598E-1,2.538070381E-1
2.145623033E0,5.114318728E-1,-1.496575773E-1,2.562504113E-1
2.148043397E0,5.419742465E-1,-1.276670843E-1,2.635805905E-1
2.150464751E0,5.737382770E-1,-1.117850468E-1,2.721324563E-1
2.152886783E0,6.079457402E-1,-1.044548824E-1,2.831276953E-1
2.155308033E0,6.470399499E-1,-9.834641218E-2,2.929012477E-1
2.157728449E0,6.873558760E-1,-9.468132257E-2,3.063398898E-1
2.160149751E0,7.301151752E-1,-8.612946421E-2,3.197785318E-1
2.162571783E0,7.765395641E-1,-7.269082218E-2,3.344388604E-1
2.164993033E0,8.254073858E-1,-5.436540768E-2,3.490992188E-1
2.167413449E0,8.779402375E-1,-2.015795931E-2,3.674246371E-1
2.169834751E0,9.353598356E-1,1.282779220E-2,3.857500553E-1
2.172256783E0,9.940012097E-1,5.192201585E-2,4.077405334E-1
2.174678033E0,1.058750987E0,9.101624042E-2,4.285093546E-1
2.177098449E0,1.123500824E0,1.313321590E-1,4.492781460E-1
2.179519751E0,1.189472318E0,1.606528312E-1,4.663818777E-1
2.181941783E0,1.259108901E0,1.814216375E-1,4.834856093E-1
2.184363085E0,1.331188917E0,2.009687424E-1,4.981459379E-1
2.186783501E0,1.402047157E0,2.278460264E-1,5.103628635E-1
2.189204803E0,1.472905397E0,2.522799075E-1,5.262449384E-1
2.191626835E0,1.541320324E0,2.779355049E-1,5.421269536E-1
2.194048085E0,1.606070161E0,3.035911024E-1,5.616740584E-1
2.196468501E0,1.668376565E0,3.255815804E-1,5.824428797E-1
2.198889803E0,1.731904745E0,3.451287150E-1,6.080984473E-1
2.201311835E0,1.785659194E0,3.585673273E-1,6.374191046E-1
2.203733085E0,1.833305359E0,3.707842827E-1,6.716265678E-1
2.206153501E0,1.874843001E0,3.768927455E-1,7.094991207E-1
2.208574803E0,1.910272121E0,3.793361485E-1,7.534800768E-1
2.210996835E0,1.933484316E0,3.793361485E-1,7.999044657E-1
2.213418085E0,1.954253078E0,3.707842827E-1,8.512156606E-1
2.215838501E0,1.968913436E0,3.585673273E-1,9.037485123E-1
2.218259803E0,1.973800182E0,3.426853120E-1,9.562813640E-1
2.220681887E0,1.972578526E0,3.268032968E-1,1.011257648E0
2.223103137E0,1.967691779E0,3.060344756E-1,1.063790560E0
2.225523553E0,1.954253078E0,2.864873707E-1,1.119988441E0
2.227944856E0,1.937149405E0,2.632751763E-1,1.174964666E0
2.230366887E0,1.916380525E0,2.339545041E-1,1.227497578E0
2.232788137E0,1.888281584E0,2.021904439E-1,1.278808713E0
2.235208553E0,1.854074121E0,1.655396074E-1,1.328898191E0
2.237629856E0,1.817423344E0,1.264453828E-1,1.374100924E0
2.240051887E0,1.773442268E0,8.612946421E-2,1.416860223E0
2.242473137E0,1.725796223E0,3.848337755E-2,1.454732776E0
2.244893553E0,1.672041655E0,-1.832541777E-3,1.488940239E0
2.247314856E0,1.618287086E0,-5.070032179E-2,1.514595747E0
2.249736887E0,1.558424115E0,-9.223793447E-2,1.537807941E0
2.252158189E0,1.498561025E0,-1.362189353E-1,1.554911733E0
2.254578606E0,1.432589531E0,-1.704263836E-1,1.568350315E0
2.256999908E0,1.365396380E0,-1.973036677E-1,1.576902151E0
2.259421939E0,1.296981454E0,-2.156290859E-1,1.580567241E0
2.261843189E0,1.224901438E0,-2.254026383E-1,1.579345584E0
2.264263606E0,1.152821541E0,-2.229592502E-1,1.574458838E0
2.266684908E0,1.081963181E0,-2.156290859E-1,1.565907001E0
2.269106939E0,1.011104941E0,-2.046338320E-1,1.554911733E0
2.271528189E0,9.414683580E-1,-1.924168915E-1,1.545138121E0
2.273948606E0,8.718317747E-1,-1.765348613E-1,1.534142852E0
2.276369908E0,8.034168482E-1,-1.569877416E-1,1.525591016E0
2.278791939E0,7.374453545E-1,-1.398840249E-1,1.519482613E0
2.281213189E0,6.702521443E-1,-1.191152185E-1,1.517039180E0
2.283633606E0,6.067240238E-1,-1.007898003E-1,1.513374090E0
2.286054908E0,5.419742465E-1,-9.223793447E-2,1.509709001E0
2.288476991E0,4.772244096E-1,-8.612946421E-2,1.503600478E0
2.290898241E0,4.198047817E-1,-8.857285231E-2,1.496270418E0
2.293318658E0,3.611634374E-1,-1.007898003E-1,1.486496806E0
2.295739960E0,3.061871827E-1,-1.240019947E-1,1.476723194E0
2.298161991E0,2.524326444E-1,-1.484358907E-1,1.464506269E0
2.300583241E0,2.035648525E-1,-1.740914732E-1,1.454732776E0
2.303003658E0,1.595838517E-1,-2.009687424E-1,1.441294074E0
2.305424960E0,1.217113137E-1,-2.254026383E-1,1.431520581E0
2.307846991E0,8.506047726E-2,-2.461714447E-1,1.421746969E0
2.310268241E0,5.696150661E-2,-2.718270421E-1,1.413195133E0
2.312688658E0,3.252761811E-2,-2.974826097E-1,1.404643297E0
2.315109960E0,1.298050396E-2,-3.243598938E-1,1.398534775E0
2.317531991E0,1.985253533E-3,-3.549022675E-1,1.392426372E0
2.319953293E0,-5.344913341E-3,-3.866663277E-1,1.386317849E0
2.322373658E0,-7.788302377E-3,-4.172086716E-1,1.381431103E0
2.324795012E0,-4.123218823E-3,-4.453076422E-1,1.376544356E0
2.327217043E0,3.206948051E-3,-4.672981501E-1,1.369214177E0
2.329638293E0,1.420219894E-2,-4.782933891E-1,1.365549088E0
2.332058710E0,3.008422814E-2,-4.844018817E-1,1.358218908E0
2.334480012E0,5.329642445E-2,-4.831801951E-1,1.350888729E0
2.336902043E0,7.650861889E-2,-4.795151055E-1,1.343558550E0
2.339323293E0,1.046075895E-1,-4.746283293E-1,1.333784938E0
2.341743710E0,1.400367320E-1,-4.685198367E-1,1.321568012E0
2.344165012E0,1.803526580E-1,-4.624113739E-1,1.305685997E0
2.346587043E0,2.231119573E-1,-4.489727318E-1,1.283695459E0
2.349008293E0,2.744231224E-1,-4.330907166E-1,1.260483265E0
2.351428710E0,3.257342875E-1,-4.123218954E-1,1.236049414E0
2.353850012E0,3.794888556E-1,-3.878880143E-1,1.204285383E0
2.356272095E0,4.369085133E-1,-3.597890437E-1,1.171299577E0
2.358693345E0,4.979932308E-1,-3.280249834E-1,1.132205367E0
2.361113762E0,5.578562617E-1,-2.925958335E-1,1.091889501E0
2.363535064E0,6.226060390E-1,-2.547233105E-1,1.046686769E0
2.365957095E0,6.849125028E-1,-2.082989216E-1,1.001484036E0
2.368378345E0,7.484406233E-1,-1.545443535E-1,9.538379908E-1
2.370798762E0,8.095253110E-1,-1.007898003E-1,9.049702287E-1
2.373220064E0,8.706100583E-1,-5.436540768E-2,8.524373770E-1
2.375642095E0,9.304730892E-1,-9.162709117E-3,7.999044657E-1
2.378063345E0,9.903361201E-1,2.993151546E-2,7.437065244E-1
2.380483762E0,1.046534061E0,6.780404598E-2,6.862868667E-1
2.382905064E0,1.099066973E0,1.044548824E-1,6.288672686E-1
2.385327095E0,1.149156451E0,1.435490996E-1,5.702258945E-1
2.387748345E0,1.194359064E0,1.801999360E-1,5.103628635E-1
2.390168762E0,1.237118363E0,2.168507725E-1,4.504998624E-1
2.392590064E0,1.273769259E0,2.498365343E-1,3.918585181E-1
2.395012147E0,1.305533290E0,2.767138183E-1,3.319954872E-1
2.397433397E0,1.329967141E0,2.999260128E-1,2.696890533E-1
2.399853814E0,1.350736022E0,3.096995652E-1,2.086043358E-1
2.402275116E0,1.361731291E0,3.158080280E-1,1.487413049E-1
2.404697147E0,1.366618037E0,3.170297146E-1,8.887827396E-2
2.407118397E0,1.366618037E0,3.158080280E-1,3.268032894E-2
2.409538814E0,1.360509515E0,3.158080280E-1,-1.740914769E-2
2.411960116E0,1.344627500E0,3.182514310E-1,-6.261184067E-2
2.414382147E0,1.318971992E0,3.243598938E-1,-1.041494608E-1
2.416803397E0,1.285986185E0,3.329117596E-1,-1.408002973E-1
2.419223814E0,1.245670319E0,3.353551328E-1,-1.750077456E-1
2.421645116E0,1.198024154E0,3.390202224E-1,-2.079934925E-1
2.424067147E0,1.141826272E0,3.426853120E-1,-2.360924631E-1
2.426488397E0,1.078298092E0,3.451287150E-1,-2.605263591E-1
2.428908866E0,1.012326598E0,3.451287150E-1,-2.812951505E-1
2.431330116E0,9.378032684E-1,3.500154912E-1,-2.922904193E-1
2.433752199E0,8.608365059E-1,3.524588645E-1,-2.996205688E-1
2.436173449E0,7.789829373E-1,3.524588645E-1,-2.959555089E-1
2.438593866E0,6.922426820E-1,3.500154912E-1,-2.861819267E-1
2.441015168E0,6.042806506E-1,3.414636254E-1,-2.690782249E-1
2.443437199E0,5.126535892E-1,3.255815804E-1,-2.470877171E-1
2.445858449E0,4.161396921E-1,3.072561622E-1,-2.202104330E-1
2.448278866E0,3.208475113E-1,2.925958335E-1,-1.908897758E-1
2.450700168E0,2.218902707E-1,2.828222811E-1,-1.615691036E-1
2.453122199E0,1.229330078E-1,2.816005945E-1,-1.298050433E-1
2.455543449E0,2.641914412E-2,2.840439677E-1,-9.926267713E-2
2.457963866E0,-6.765133142E-2,2.889307439E-1,-7.116370648E-2
2.460385168E0,-1.556133330E-1,2.925958335E-1,-4.672981426E-2
2.462807199E0,-2.386885732E-1,2.962609231E-1,-2.473931387E-2
2.465228449E0,-3.156553209E-1,2.974826097E-1,-3.970507067E-3
2.467648918E0,-3.852919042E-1,2.974826097E-1,1.435491070E-2
2.470070220E0,-4.488200247E-1,2.901524603E-1,3.390202299E-2
2.472492251E0,-5.074613690E-1,2.779355049E-1,5.344913527E-2
2.474913501E0,-5.636593103E-1,2.632751763E-1,7.299624383E-2
2.477333918E0,-6.149705052E-1,2.461714447E-1,9.254335612E-2
2.479755220E0,-6.601731777E-1,2.278460264E-1,1.120904684E-1
2.482177251E0,-7.053758502E-1,2.131856978E-1,1.328592747E-1
2.484598501E0,-7.469134927E-1,1.997470558E-1,1.511846930E-1
2.487018918E0,-7.847860456E-1,1.875301152E-1,1.670667231E-1
2.489440220E0,-8.128849864E-1,1.728697717E-1,1.817270666E-1
2.491862251E0,-8.373188972E-1,1.594311297E-1,1.951656938E-1
2.494283501E0,-8.519791961E-1,1.423274130E-1,2.037175596E-1
2.496703918E0,-8.617527485E-1,1.301104724E-1,2.122694254E-1
2.499125220E0,-8.593093753E-1,1.142284349E-1,2.195995897E-1
2.501547251E0,-8.470924497E-1,9.834641218E-2,2.305948436E-1
2.503968553E0,-8.275453448E-1,8.368607610E-2,2.452551723E-1
2.506388970E0,-7.970029712E-1,7.146912813E-2,2.623589039E-1
2.508810272E0,-7.603521347E-1,6.536065787E-2,2.843494117E-1
2.511232303E0,-7.163711190E-1,6.658235192E-2,3.063398898E-1
2.513653553E0,-6.675033569E-1,7.757759839E-2,3.319954872E-1
2.516073970E0,-6.113054156E-1,9.712471068E-2,3.539859951E-1
2.518495272E0,-5.514423847E-1,1.203369126E-1,3.735330999E-1
2.520917303E0,-4.891359508E-1,1.472141892E-1,3.894151151E-1
2.523338553E0,-4.231644273E-1,1.801999360E-1,3.979669809E-1
2.525758970E0,-3.498627543E-1,2.180724740E-1,4.065188468E-1
2.528180272E0,-2.765611112E-1,2.583884001E-1,4.114056230E-1
2.530602303E0,-1.983726472E-1,2.974826097E-1,4.126273096E-1
2.533023553E0,-1.152974218E-1,3.353551328E-1,4.126273096E-1
2.535443970E0,-3.100049868E-2,3.707842827E-1,4.114056230E-1
2.537865272E0,5.573981255E-2,4.037700295E-1,4.077405334E-1
2.540287303E0,1.412584335E-1,4.379774928E-1,4.077405334E-1
2.542708606E0,2.218902707E-1,4.758500159E-1,4.101839364E-1
2.545129022E0,3.025220931E-1,5.100574493E-1,4.138490260E-1
2.547550324E0,3.807105422E-1,5.418215394E-1,4.187358022E-1
2.549972356E0,4.527905285E-1,5.625903010E-1,4.272876680E-1
2.552393606E0,5.236487985E-1,5.723638535E-1,4.346178174E-1
2.554814022E0,5.896202922E-1,5.674771070E-1,4.431696832E-1
2.557235324E0,6.470399499E-1,5.577035546E-1,4.529432356E-1
2.559657356E0,6.995728016E-1,5.430431962E-1,4.639385045E-1
2.562078606E0,7.459971905E-1,5.283828974E-1,4.773771465E-1
2.564499022E0,7.850914598E-1,5.149442554E-1,4.908157587E-1
2.566920324E0,8.168554902E-1,5.088357925E-1,5.042544007E-1
2.569342356E0,8.425110579E-1,5.063923597E-1,5.152496696E-1
2.571763606E0,8.620582223E-1,5.027272701E-1,5.238015056E-1
2.574184022E0,8.767185211E-1,5.002838969E-1,5.323534012E-1
2.576605324E0,8.828269839E-1,4.978405237E-1,5.347967744E-1
2.579027356E0,8.864920735E-1,4.929537475E-1,5.360184908E-1
2.581448658E0,8.877137899E-1,4.795151055E-1,5.311316848E-1
2.583869074E0,8.816053271E-1,4.648547769E-1,5.238015056E-1
2.586290376E0,8.730534315E-1,4.428642690E-1,5.140279531E-1
2.588712408E0,8.583931327E-1,4.196520746E-1,5.018110275E-1
2.591133658E0,8.412894011E-1,3.988832533E-1,4.859289825E-1
2.593554074E0,8.205205798E-1,3.878880143E-1,4.663818777E-1
2.595975376E0,8.021951914E-1,3.988832533E-1,4.395045936E-1
2.598397408E0,7.850914598E-1,4.379774928E-1,4.040754735E-1
2.600818658E0,7.728744745E-1,4.966188073E-1,3.613161445E-1
2.603239074E0,7.569924593E-1,5.625903010E-1,3.112266660E-1
2.605660376E0,7.337802649E-1,6.065713167E-1,2.550287247E-1
2.608082408E0,6.885775924E-1,6.175665855E-1,1.841704547E-1
2.610503658E0,6.262711287E-1,6.212316751E-1,1.010952219E-1
2.612924074E0,5.468609929E-1,6.395570636E-1,1.435491070E-2
2.615345376E0,4.527905285E-1,6.591041684E-1,-6.994201243E-2
2.617767460E0,3.440597057E-1,6.859814525E-1,-1.456870735E-1
2.620188710E0,2.279987335E-1,7.153021693E-1,-2.141019702E-1
2.622609126E0,1.156028435E-1,7.372926474E-1,-2.702999115E-1
2.625030428E0,1.175880991E-2,7.470661998E-1,-3.167243004E-1
2.627452460E0,-7.253811508E-2,7.360709310E-1,-3.545968235E-1
2.629873710E0,-1.433963925E-1,7.055285573E-1,-3.790307343E-1
2.632294126E0,-1.947075576E-1,6.591041684E-1,-3.949127495E-1
2.634715428E0,-2.252499312E-1,6.004628539E-1,-4.022429287E-1
2.637137460E0,-2.386885732E-1,5.454866290E-1,-4.010212123E-1
2.639558710E0,-2.362451702E-1,4.905103445E-1,-3.888042867E-1
2.641979126E0,-2.240282297E-1,4.306473136E-1,-3.655920923E-1
2.644400428E0,-2.057028115E-1,3.817795515E-1,-3.362714052E-1
2.646822460E0,-1.788255423E-1,3.402419090E-1,-2.996205688E-1
2.649243710E0,-1.446180940E-1,2.999260128E-1,-2.617480457E-1
2.651664126E0,-1.067455560E-1,2.608317733E-1,-2.214321345E-1
2.654085428E0,-7.009471953E-2,2.156290859E-1,-1.847812980E-1
2.656507460E0,-3.344388679E-2,1.667613089E-1,-1.517955512E-1
2.658928762E0,-4.581354442E-4,1.130067408E-1,-1.224748790E-1
2.661349178E0,2.886253223E-2,5.436540768E-2,-9.804098308E-2
2.663770481E0,4.840964451E-2,3.054236295E-3,-7.238540053E-2
2.666192512E0,5.696150661E-2,-3.970507160E-2,-4.795150831E-2
2.668613762E0,6.184828654E-2,-7.269082218E-2,-2.840439789E-2
2.671034178E0,5.940489471E-2,-1.007898003E-1,-1.252236869E-2
2.673455481E0,5.207473040E-2,-1.264453828E-1,-3.054236295E-4
2.675877512E0,4.230117425E-2,-1.423274130E-1,9.468132630E-3
2.678298762E0,3.130592033E-2,-1.521009654E-1,2.168507688E-2
2.680719178E0,2.397575416E-2,-1.545443535E-1,3.634541109E-2
2.683140481E0,2.275406010E-2,-1.643179059E-1,6.077930331E-2
2.685562512E0,3.008422814E-2,-1.863084137E-1,9.132166207E-2
2.687983762E0,4.107947648E-2,-2.107423097E-1,1.230857223E-1
2.690404178E0,5.696150661E-2,-2.449497581E-1,1.548497826E-1
2.692825481E0,7.284353673E-2,-2.840439677E-1,1.841704547E-1
2.695247512E0,8.872556686E-2,-3.316900730E-1,2.098260373E-1
2.697668814E0,1.033858955E-1,-3.707842827E-1,2.330382317E-1
2.700089231E0,1.168245375E-1,-4.037700295E-1,2.501419485E-1
2.702510533E0,1.241547018E-1,-4.233171642E-1,2.635805905E-1
2.704932564E0,1.253764033E-1,-4.306473136E-1,2.757975459E-1
2.707353814E0,1.229330078E-1,-4.318690002E-1,2.855710983E-1
2.709774231E0,1.156028435E-1,-4.220954478E-1,2.929012477E-1
2.712195533E0,1.033858955E-1,-4.086568058E-1,2.941229641E-1
2.714617564E0,8.994726092E-2,-3.903313875E-1,2.929012477E-1
2.717038814E0,7.528692484E-2,-3.646758199E-1,2.892361879E-1
2.719459231E0,5.818320066E-2,-3.365768492E-1,2.806843221E-1
2.721880533E0,4.474456236E-2,-3.096995652E-1,2.696890533E-1
2.724302564E0,3.497100621E-2,-2.791571915E-1,2.574721277E-1
2.726723814E0,2.153236605E-2,-2.571666837E-1,2.452551723E-1
2.729144231E0,4.428642802E-3,-2.400629669E-1,2.367033064E-1
2.731565533E0,-4.123218823E-3,-2.217375487E-1,2.415900975E-1
2.733987564E0,-1.679830020E-3,-1.997470558E-1,2.599155009E-1
2.736408814E0,1.664558798E-2,-1.863084137E-1,2.916795611E-1
2.738829231E0,4.718795046E-2,-1.875301152E-1,3.246653080E-1
2.741250585E0,8.994726092E-2,-2.095206082E-1,3.576510847E-1
2.743672616E0,1.375933439E-1,-2.412846684E-1,3.894151151E-1
2.746093866E0,1.889045089E-1,-2.718270421E-1,4.248442650E-1
2.748514283E0,2.414373755E-1,-2.901524603E-1,4.602734149E-1
2.750935585E0,2.854183912E-1,-3.084778786E-1,4.908157587E-1
2.753357616E0,3.086305857E-1,-3.426853120E-1,5.042544007E-1
2.755778866E0,3.037438095E-1,-3.622324169E-1,5.030327439E-1
2.758199283E0,2.793098986E-1,-3.646758199E-1,4.981459379E-1
2.760620585E0,2.377723008E-1,-3.524588645E-1,4.895940721E-1
2.763042616E0,1.840177327E-1,-3.390202224E-1,4.798205197E-1
2.765463866E0,1.204896197E-1,-3.316900730E-1,4.712686539E-1
2.767884283E0,5.818320066E-2,-3.304683566E-1,4.676035643E-1
2.770305585E0,3.206948051E-3,-3.390202224E-1,4.700469673E-1
2.772727616E0,-3.588727489E-2,-3.463504016E-1,4.773771465E-1
2.775148866E0,-5.787777901E-2,-3.549022675E-1,4.871506989E-1
2.777569283E0,-5.787777901E-2,-3.683409095E-1,5.042544007E-1
2.779990585E0,-4.321744293E-2,-3.891097009E-1,5.140279531E-1
2.782412668E0,-1.756185852E-2,-4.233171642E-1,5.152496696E-1
2.784833918E0,1.175880991E-2,-4.587462842E-1,5.066977739E-1
2.787254335E0,2.397575416E-2,-4.538595080E-1,4.920374751E-1
2.789675637E0,4.474456236E-2,-3.671191931E-1,4.993676245E-1
2.792097668E0,8.139539510E-2,-3.182514310E-1,5.506787896E-1
2.794518918E0,1.192679256E-1,-3.707842827E-1,6.459710002E-1
2.796939335E0,1.522536725E-1,-5.027272701E-1,7.779139876E-1
2.799360637E0,1.681357026E-1,-6.652126908E-1,9.208522439E-1
2.801782668E0,1.766875684E-1,-8.057075143E-1,1.039356589E0
2.804203918E0,1.876828223E-1,-8.912261724E-1,1.105328083E0
2.806624335E0,2.084516287E-1,-9.633061290E-1,1.126096964E0
2.809045637E0,2.438807636E-1,-1.035386086E0,1.138313890E0
2.811467668E0,2.866400778E-1,-1.078145385E0,1.160304427E0
2.813888918E0,3.318427801E-1,-1.070815206E0,1.196955204E0
2.816309335E0,3.746020794E-1,-1.023169160E0,1.231162667E0
2.818730689E0,4.100312293E-1,-9.523108602E-1,1.253153205E0
2.821152720E0,4.344651103E-1,-8.851176500E-1,1.259261608E0
2.823573970E0,4.503471553E-1,-8.301414251E-1,1.250709772E0
2.825994387E0,4.613423944E-1,-8.032641411E-1,1.228719234E0
2.828415689E0,4.637857676E-1,-8.142594099E-1,1.200620294E0
2.830837720E0,4.650074840E-1,-8.594620824E-1,1.173743010E0
2.833258970E0,4.662291706E-1,-8.973346353E-1,1.139535546E0
2.835679387E0,4.637857676E-1,-8.875610828E-1,1.093111157E0
2.838100689E0,4.662291706E-1,-8.252546191E-1,1.033248186E0
2.840522720E0,4.613423944E-1,-7.287407517E-1,9.599464536E-1
2.842943970E0,4.540122151E-1,-6.310052276E-1,8.768712282E-1
2.845364387E0,4.405735731E-1,-5.442649126E-1,7.962393761E-1
2.847785689E0,4.198047817E-1,-4.758500159E-1,7.266027927E-1
2.850207720E0,3.978142738E-1,-4.306473136E-1,6.752916574E-1
2.852628970E0,3.770454824E-1,-4.062134326E-1,6.410841942E-1
2.855049387E0,3.562766612E-1,-4.025483429E-1,6.227588058E-1
2.857470689E0,3.452814221E-1,-4.086568058E-1,6.154286265E-1
2.859892720E0,3.391729295E-1,-4.159869850E-1,6.190937161E-1
2.862314022E0,3.330644667E-1,-4.159869850E-1,6.349757314E-1
2.864734387E0,3.281776905E-1,-4.135435820E-1,6.557445526E-1
2.867155689E0,3.220692277E-1,-4.135435820E-1,6.826218367E-1
2.869577772E0,3.147390485E-1,-4.111002088E-1,7.046123147E-1
2.871999022E0,3.110739589E-1,-4.098785222E-1,7.229377031E-1
2.874419439E0,3.049654961E-1,-4.086568058E-1,7.339329720E-1
2.876840741E0,3.013004065E-1,-3.976615667E-1,7.327113152E-1
2.879262772E0,2.988570333E-1,-3.830012381E-1,7.217160463E-1
2.881684022E0,2.976353168E-1,-3.597890437E-1,7.046123147E-1
2.884104439E0,2.939702570E-1,-3.292466700E-1,6.826218367E-1
2.886525741E0,2.854183912E-1,-2.938175201E-1,6.581879258E-1
2.888947772E0,2.768665254E-1,-2.596100867E-1,6.349757314E-1
2.891369022E0,2.646495700E-1,-2.339545041E-1,6.117635369E-1
2.893789439E0,2.438807636E-1,-2.095206082E-1,5.922164321E-1
2.896210741E0,2.194468826E-1,-1.911951900E-1,5.775560737E-1
2.898632772E0,1.913478971E-1,-1.704263836E-1,5.702258945E-1
2.901054074E0,1.595838517E-1,-1.618745178E-1,5.677825212E-1
2.903474439E0,1.290414780E-1,-1.655396074E-1,5.787777901E-1
2.905895793E0,9.849911928E-2,-1.753131598E-1,6.007682681E-1
2.908317824E0,6.795676053E-2,-1.887518018E-1,6.374191046E-1
2.910739074E0,3.863608837E-2,-2.070772201E-1,6.850652099E-1
2.913159491E0,1.053711493E-2,-2.315111160E-1,7.424848676E-1
2.915580793E0,-1.634016447E-2,-2.632751763E-1,8.108997345E-1
2.918002824E0,-4.321744293E-2,-3.023693860E-1,8.866447806E-1
2.920424074E0,-6.887302548E-2,-3.475720882E-1,9.684983492E-1
2.922844491E0,-9.330692142E-2,-3.927747905E-1,1.055238605E0
2.925265793E0,-1.165191159E-1,-4.404208660E-1,1.146865726E0
2.927687824E0,-1.421747059E-1,-4.880669713E-1,1.242157936E0
2.930109074E0,-1.666085869E-1,-5.405998230E-1,1.342336893E0
2.932529491E0,-1.910424829E-1,-5.931326747E-1,1.447402596E0
2.934950793E0,-2.118112892E-1,-6.420004964E-1,1.552468300E0
2.937372824E0,-2.276933193E-1,-6.835380793E-1,1.654021621E0
2.939794074E0,-2.411319613E-1,-7.275190949E-1,1.745648742E0
2.942214491E0,-2.533488870E-1,-7.678350210E-1,1.822615504E0
2.944635793E0,-2.643441558E-1,-8.020424247E-1,1.883700252E0
2.947057876E0,-2.704526186E-1,-8.228112459E-1,1.935011387E0
2.949479126E0,-2.753393948E-1,-8.399149776E-1,1.976549029E0
2.951899543E0,-2.777827978E-1,-8.570187092E-1,2.008313179E0
2.954320845E0,-2.741177082E-1,-8.680139780E-1,2.035190344E0
2.956742876E0,-2.667875290E-1,-8.619054556E-1,2.065732718E0
2.959164126E0,-2.472404242E-1,-8.545753360E-1,2.088944912E0
2.961584543E0,-2.166980654E-1,-8.448017836E-1,2.104826927E0
2.964005845E0,-1.751604527E-1,-8.325847983E-1,2.108492136E0
2.966427876E0,-1.250709742E-1,-8.252546191E-1,2.096275091E0
2.968849126E0,-7.131642103E-2,-8.179244995E-1,2.068176031E0
2.971269543E0,-2.122694254E-2,-8.105943203E-1,2.021751642E0
2.973690845E0,2.153236605E-2,-7.947123051E-1,1.959445238E0
2.976112876E0,5.329642445E-2,-7.702783942E-1,1.882478595E0
2.978534126E0,6.917845458E-2,-7.360709310E-1,1.785964727E0
2.980954543E0,6.673506647E-2,-6.786513329E-1,1.674790502E0
2.983375845E0,5.329642445E-2,-6.053496599E-1,1.548803210E0
2.985797876E0,3.008422814E-2,-5.198310018E-1,1.410751700E0
2.988219178E0,3.206948051E-3,-4.355340898E-1,1.272700310E0
2.990639543E0,-2.977880463E-2,-3.610107303E-1,1.133427143E0
2.993060845E0,-6.642963737E-2,-2.950392365E-1,9.978190064E-1
2.995482928E0,-1.006370857E-1,-2.339545041E-1,8.732061386E-1
2.997904178E0,-1.385096163E-1,-1.740914732E-1,7.595885396E-1
3.000324595E0,-1.788255423E-1,-1.142284349E-1,6.581879258E-1
3.002745897E0,-2.179197669E-1,-6.047387794E-2,5.677825212E-1
3.005167928E0,-2.533488870E-1,-1.160609815E-2,4.944808483E-1
3.007589178E0,-2.851129472E-1,2.748812735E-2,4.333961308E-1
3.010009595E0,-3.119902313E-1,5.192201585E-2,3.857500553E-1
3.012430897E0,-3.352024257E-1,6.536065787E-2,3.442124426E-1
3.014852928E0,-3.510844707E-1,6.413896382E-2,3.136700690E-1
3.017274178E0,-3.657447994E-1,6.169557199E-2,2.916795611E-1
3.019694595E0,-3.767400384E-1,5.680879578E-2,2.782409191E-1
3.022115897E0,-3.877353072E-1,4.825693369E-2,2.745758295E-1
3.024537928E0,-3.962871730E-1,3.970507160E-2,2.782409191E-1
3.026959178E0,-4.036173224E-1,2.626643144E-2,2.855710983E-1
3.029379595E0,-4.072824121E-1,4.275931045E-3,2.990097404E-1
3.031800897E0,-4.121691883E-1,-2.260134928E-2,3.148917556E-1
3.034222981E0,-4.170559645E-1,-5.314370990E-2,3.307738006E-1
3.036644231E0,-4.231644273E-1,-8.368607610E-2,3.454341292E-1
3.039064647E0,-4.268295169E-1,-1.166718230E-1,3.613161445E-1
3.041485949E0,-4.317162931E-1,-1.496575773E-1,3.771981895E-1
3.043907981E0,-4.414898455E-1,-1.838650256E-1,3.918585181E-1
3.046329231E0,-4.524851143E-1,-2.156290859E-1,4.065188468E-1
3.048749647E0,-4.634803534E-1,-2.412846684E-1,4.211791754E-1
3.051170949E0,-4.732539058E-1,-2.657185495E-1,4.370612204E-1
3.053592981E0,-4.818057716E-1,-2.925958335E-1,4.517215490E-1
3.056014231E0,-4.854708612E-1,-3.231382072E-1,4.700469673E-1
3.058434647E0,-4.842491746E-1,-3.549022675E-1,4.895940721E-1
3.060855949E0,-4.769189954E-1,-3.842229247E-1,5.140279531E-1
3.063277981E0,-4.720322192E-1,-4.147652984E-1,5.409052372E-1
3.065699231E0,-4.634803534E-1,-4.428642690E-1,5.690042377E-1
3.068119647E0,-4.573718905E-1,-4.721849263E-1,6.019899845E-1
3.070540949E0,-4.512633979E-1,-5.015056133E-1,6.398624778E-1
3.072962981E0,-4.427115619E-1,-5.320479870E-1,6.752916574E-1
3.075384231E0,-4.353813827E-1,-5.638120174E-1,7.107207775E-1
3.077804647E0,-4.317162931E-1,-5.980194807E-1,7.449282408E-1
3.080225949E0,-4.268295169E-1,-6.285618544E-1,7.754706144E-1
3.082648033E0,-4.243861437E-1,-6.591041684E-1,8.035695553E-1
3.085069283E0,-4.219427407E-1,-6.859814525E-1,8.255600929E-1
3.087489699E0,-4.170559645E-1,-7.006418109E-1,8.426637650E-1
3.089911001E0,-4.097257853E-1,-7.153021693E-1,8.548807502E-1
3.092333033E0,-4.011739492E-1,-7.201889157E-1,8.597674966E-1
3.094754283E0,-3.914003670E-1,-7.189671993E-1,8.561024070E-1
3.097174699E0,-3.791834414E-1,-7.128587365E-1,8.463288546E-1
3.099596001E0,-3.681881726E-1,-7.067502737E-1,8.341119289E-1
3.102018033E0,-3.608580232E-1,-7.030851841E-1,8.194515705E-1
3.104439283E0,-3.510844707E-1,-6.981984377E-1,8.023478985E-1
3.106859699E0,-3.437542915E-1,-6.933116317E-1,7.803573608E-1
3.109281001E0,-3.364241421E-1,-6.945333481E-1,7.608102560E-1
3.111703033E0,-3.290939629E-1,-6.994200945E-1,7.424848676E-1
3.114124283E0,-3.229855001E-1,-6.884248853E-1,7.253811359E-1
3.116544699E0,-3.193204105E-1,-6.603258848E-1,7.070556879E-1
3.118966001E0,-3.144336343E-1,-6.334486008E-1,6.887302995E-1
3.121388033E0,-3.156553209E-1,-6.102364063E-1,6.655181050E-1
3.123809335E0,-3.193204105E-1,-5.919110179E-1,6.410841942E-1
3.126229699E0,-3.278722763E-1,-5.723638535E-1,6.190937161E-1
3.128651053E0,-3.364241421E-1,-5.491516590E-1,5.958815217E-1
3.131073085E0,-3.486410677E-1,-5.234960914E-1,5.763344169E-1
3.133494335E0,-3.645231128E-1,-5.015056133E-1,5.592306852E-1
3.135914751E0,-3.742966652E-1,-4.905103445E-1,5.482354164E-1
3.138336053E0,-3.865135908E-1,-4.856235683E-1,5.457920432E-1
3.140758085E0,-3.987305462E-1,-4.929537475E-1,5.482354164E-1
3.143179335E0,-4.109475017E-1,-5.088357925E-1,5.567872524E-1
3.145599751E0,-4.219427407E-1,-5.308262706E-1,5.690042377E-1
3.148021053E0,-4.292729199E-1,-5.540384650E-1,5.861079693E-1
3.150443085E0,-4.366030693E-1,-5.796940327E-1,6.032116413E-1
3.152864335E0,-4.427115619E-1,-6.016845703E-1,6.203153729E-1
3.155284751E0,-4.524851143E-1,-6.224533319E-1,6.349757314E-1
3.157706053E0,-4.622586668E-1,-6.395570636E-1,6.533011198E-1
3.160128085E0,-4.756973088E-1,-6.688777208E-1,6.716265678E-1
3.162549335E0,-4.866925478E-1,-6.994200945E-1,6.899519563E-1
3.164969751E0,-5.013529062E-1,-7.275190949E-1,7.107207775E-1
3.167391053E0,-5.123481154E-1,-7.446228266E-1,7.302678823E-1
3.169813085E0,-5.221216679E-1,-7.629482150E-1,7.485933304E-1
3.172234387E0,-5.245651007E-1,-7.763868570E-1,7.608102560E-1
3.174654803E0,-5.221216679E-1,-7.922688723E-1,7.681404352E-1
3.177076106E0,-5.135698318E-1,-8.069292307E-1,7.705838084E-1
3.179498137E0,-5.013529062E-1,-8.203678727E-1,7.681404352E-1
3.181919387E0,-4.903576374E-1,-8.338065147E-1,7.632536292E-1
3.184339803E0,-4.793623984E-1,-8.533536196E-1,7.559235096E-1
3.186761106E0,-4.683671296E-1,-8.716790676E-1,7.498149872E-1
3.189183137E0,-4.573718905E-1,-8.851176500E-1,7.449282408E-1
3.191604387E0,-4.475983381E-1,-9.009997249E-1,7.351546884E-1
3.194024803E0,-4.427115619E-1,-9.144383669E-1,7.241594195E-1
3.196446106E0,-4.463766217E-1,-9.144383669E-1,7.094991207E-1
3.198868137E0,-4.512633979E-1,-9.119949341E-1,6.911736727E-1
3.201289387E0,-4.537068009E-1,-9.107732773E-1,6.704048514E-1
3.203709803E0,-4.524851143E-1,-9.217684865E-1,6.459710002E-1
3.206131106E0,-4.402681589E-1,-9.449806809E-1,6.276455522E-1
3.208553137E0,-4.182776511E-1,-9.767447710E-1,6.117635369E-1
3.210974387E0,-3.926220834E-1,-1.017060637E0,5.995466113E-1
3.213394803E0,-3.608580232E-1,-1.062263370E0,5.885513425E-1
3.215816106E0,-3.290939629E-1,-1.108687758E0,5.726693273E-1
3.218238137E0,-2.985515893E-1,-1.155112147E0,5.543438792E-1
3.220659439E0,-2.692309320E-1,-1.195428133E0,5.372401476E-1
3.223079803E0,-2.423536479E-1,-1.233300567E0,5.201364160E-1
3.225501158E0,-2.228065431E-1,-1.267508030E0,5.079194903E-1
3.227923189E0,-2.044811249E-1,-1.299272060E0,4.981459379E-1
3.230344439E0,-1.898207814E-1,-1.318819284E0,4.895940721E-1
3.232764856E0,-1.751604527E-1,-1.323706031E0,4.798205197E-1
3.235186158E0,-1.641651988E-1,-1.320040941E0,4.688252807E-1
3.237608189E0,-1.543916464E-1,-1.315154195E0,4.578300118E-1
3.240029439E0,-1.446180940E-1,-1.307824016E0,4.443913698E-1
3.242449856E0,-1.385096163E-1,-1.298050404E0,4.321744442E-1
3.244871158E0,-1.360662282E-1,-1.290720224E0,4.187358022E-1
3.247293189E0,-1.336228400E-1,-1.288276911E0,4.065188468E-1
3.249714439E0,-1.336228400E-1,-1.290720224E0,3.991886973E-1
3.252134856E0,-1.311794519E-1,-1.309045672E0,3.918585181E-1
3.254556158E0,-1.250709742E-1,-1.332257867E0,3.833066523E-1
3.256978189E0,-1.189625040E-1,-1.344474792E0,3.735330999E-1
3.259399439E0,-1.140757278E-1,-1.349361539E0,3.649812341E-1
3.261819856E0,-1.091889441E-1,-1.350583315E0,3.539859951E-1
3.264241158E0,-1.067455560E-1,-1.345696568E0,3.393256664E-1
3.266663189E0,-1.055238619E-1,-1.331036210E0,3.271087110E-1
3.269084491E0,-1.043021679E-1,-1.318819284E0,3.136700690E-1
3.271504856E0,-1.006370857E-1,-1.298050404E0,2.990097404E-1
3.273926158E0,-9.208522737E-2,-1.273616552E0,2.831276953E-1
3.276348241E0,-8.231166750E-2,-1.244295835E0,2.648022771E-1
3.278769491E0,-7.375980914E-2,-1.213753462E0,2.452551723E-1
3.281189908E0,-7.253811508E-2,-1.185654521E0,2.257080674E-1
3.283611210E0,-7.375980914E-2,-1.157555580E0,2.098260373E-1
3.286033241E0,-7.742489129E-2,-1.130678296E0,1.963873953E-1
3.288454491E0,-8.231166750E-2,-1.106244445E0,1.829487532E-1
3.290874908E0,-8.964183182E-2,-1.089140654E0,1.719534993E-1
3.293296210E0,-9.697200358E-2,-1.076923728E0,1.646233350E-1
3.295718241E0,-1.043021679E-1,-1.067150116E0,1.572931707E-1
3.298139491E0,-1.128540337E-1,-1.056154966E0,1.487413049E-1
3.300559908E0,-1.189625040E-1,-1.041494608E0,1.389677525E-1
3.302981210E0,-1.214058921E-1,-1.026834249E0,1.279724985E-1
3.305403241E0,-1.177408099E-1,-1.017060637E0,1.133121699E-1
3.307824491E0,-1.165191159E-1,-1.010952234E0,9.620844573E-2
3.310244908E0,-1.104106456E-1,-1.014617324E0,7.543963939E-2
3.312666210E0,-1.055238619E-1,-1.020725727E0,5.222744122E-2
3.315088241E0,-1.006370857E-1,-1.029277682E0,2.290677279E-2
3.317509543E0,-1.018587798E-1,-1.025612593E0,-1.130067464E-2
3.319929908E0,-9.941539168E-2,-1.018282413E0,-5.650337040E-2
3.322351262E0,-9.941539168E-2,-1.002400398E0,-1.078145429E-1
3.324773293E0,-9.941539168E-2,-9.767447710E-1,-1.640124917E-1
3.327194543E0,-9.941539168E-2,-9.339854717E-1,-2.263189107E-1
3.329614960E0,-1.030804738E-1,-8.729007244E-1,-2.947337925E-1
3.332036262E0,-1.043021679E-1,-8.057075143E-1,-3.668137789E-1
3.334458293E0,-1.079672500E-1,-7.311841846E-1,-4.388937652E-1
3.336879543E0,-1.104106456E-1,-6.603258848E-1,-5.158604980E-1
3.339299960E0,-1.091889441E-1,-6.041279435E-1,-5.903838873E-1
3.341721262E0,-1.055238619E-1,-5.564818382E-1,-6.636855602E-1
3.344143293E0,-9.208522737E-2,-5.259394646E-1,-7.357655168E-1
3.346564543E0,-7.498150319E-2,-4.966188073E-1,-8.102889061E-1
3.348984960E0,-4.443913698E-2,-4.501944184E-1,-8.762603998E-1
3.351406262E0,-1.145338640E-2,-3.915531039E-1,-9.324583411E-1
3.353828293E0,5.650337320E-3,-3.573456407E-1,-9.837695360E-1
3.356249543E0,2.153236605E-2,-3.353551328E-1,-1.021642089E0
3.358669960E0,4.840964451E-2,-2.974826097E-1,-1.014311910E0
3.361091262E0,6.306997687E-2,-2.938175201E-1,-9.739959836E-1
3.363513293E0,5.940489471E-2,-3.707842827E-1,-9.177979827E-1
3.365934543E0,6.062658876E-2,-4.844018817E-1,-8.481613994E-1
3.368354960E0,8.017370105E-2,-5.931326747E-1,-7.650861740E-1
3.370776262E0,1.082726792E-1,-6.823163629E-1,-6.832326651E-1
3.373198293E0,1.424801201E-1,-7.568397522E-1,-6.135960817E-1
3.375619543E0,1.742441803E-1,-8.130376935E-1,-5.647283196E-1
3.378040012E0,2.035648525E-1,-8.509102464E-1,-5.366293192E-1
3.380461314E0,2.304421216E-1,-8.741224408E-1,-5.231906772E-1
3.382883345E0,2.573194206E-1,-8.863393664E-1,-5.244123936E-1
3.385304595E0,2.854183912E-1,-8.790091872E-1,-5.329642296E-1
3.387725012E0,3.122956753E-1,-8.594620824E-1,-5.476245880E-1
3.390146314E0,3.452814221E-1,-8.411366940E-1,-5.683933496E-1
3.392568345E0,3.794888556E-1,-8.142594099E-1,-5.940489769E-1
3.394989595E0,4.136963189E-1,-7.922688723E-1,-6.209262609E-1
3.397410012E0,4.503471553E-1,-7.715001106E-1,-6.490252018E-1
3.399831314E0,4.821111858E-1,-7.629482150E-1,-6.759024858E-1
3.402253345E0,5.053234100E-1,-7.641699314E-1,-7.015580535E-1
3.404674595E0,5.248705149E-1,-7.776085734E-1,-7.284353375E-1
3.407095012E0,5.370874405E-1,-7.934905887E-1,-7.516475320E-1
3.409516314E0,5.419742465E-1,-8.228112459E-1,-7.736380696E-1
3.411938345E0,5.395308137E-1,-8.509102464E-1,-7.931851745E-1
3.414359595E0,5.285356045E-1,-8.765658140E-1,-8.102889061E-1
3.416780012E0,5.126535892E-1,-9.046648145E-1,-8.273926377E-1
3.419201314E0,4.943281412E-1,-9.364288449E-1,-8.432746530E-1
3.421623345E0,4.711159468E-1,-9.718579650E-1,-8.591566682E-1
3.424044595E0,4.491254389E-1,-1.014617324E0,-8.750386834E-1
3.426465012E0,4.234698713E-1,-1.072036982E0,-8.909206986E-1
3.428886314E0,3.965925872E-1,-1.141673565E0,-9.080244303E-1
3.431308345E0,3.648285270E-1,-1.213753462E0,-9.226847887E-1
3.433729595E0,3.342861533E-1,-1.295607090E0,-9.373451471E-1
3.436150012E0,3.049654961E-1,-1.371352077E0,-9.495620728E-1
3.438571314E0,2.744231224E-1,-1.442210436E0,-9.605573416E-1
3.440993397E0,2.402156889E-1,-1.502073407E0,-9.703308940E-1
3.443414595E0,2.133384049E-1,-1.538724303E0,-9.788827300E-1
3.445835064E0,1.876828223E-1,-1.550941229E0,-9.874345660E-1
3.448256366E0,1.669140160E-1,-1.543611050E0,-9.947647452E-1
3.450678397E0,1.546970755E-1,-1.521620512E0,-1.004538298E0
3.453099647E0,1.498102844E-1,-1.494743228E0,-1.015533566E0
3.455520064E0,1.510319859E-1,-1.471531034E0,-1.031415582E0
3.457941366E0,1.559187621E-1,-1.438545346E0,-1.046075940E0
3.460363397E0,1.608055383E-1,-1.395785928E0,-1.058292866E0
3.462784647E0,1.620272398E-1,-1.343253136E0,-1.069288135E0
3.465205064E0,1.644706279E-1,-1.289498568E0,-1.077839971E0
3.467626366E0,1.620272398E-1,-1.243074179E0,-1.085170150E0
3.470048397E0,1.608055383E-1,-1.206423283E0,-1.090056896E0
3.472469647E0,1.620272398E-1,-1.177102685E0,-1.088835239E0
3.474890064E0,1.644706279E-1,-1.158777237E0,-1.085170150E0
3.477311366E0,1.718007922E-1,-1.141673565E0,-1.076618314E0
3.479733397E0,1.791309565E-1,-1.123348117E0,-1.066844702E0
3.482154647E0,1.827960461E-1,-1.095249176E0,-1.053406119E0
3.484575064E0,1.864611208E-1,-1.080588818E0,-1.038745761E0
3.486996366E0,1.852394342E-1,-1.068371892E0,-1.021642089E0
3.489418397E0,1.791309565E-1,-1.063485026E0,-1.006981730E0
3.491839647E0,1.705790907E-1,-1.057376623E0,-9.947647452E-1
3.494260064E0,1.644706279E-1,-1.057376623E0,-9.886562824E-1
3.496681366E0,1.608055383E-1,-1.051268101E0,-9.837695360E-1
3.499103397E0,1.595838517E-1,-1.042716265E0,-9.801044464E-1
3.501524699E0,1.632489264E-1,-1.025612593E0,-9.801044464E-1
3.503945116E0,1.730224788E-1,-9.962918758E-1,-9.910996556E-1
3.506366366E0,1.852394342E-1,-9.620844126E-1,-1.009425044E0
3.508788449E0,2.011214644E-1,-9.290986657E-1,-1.031415582E0
3.511209699E0,2.157817930E-1,-8.985562921E-1,-1.059514523E0
3.513630116E0,2.194468826E-1,-8.667922616E-1,-1.086391807E0
3.516051418E0,2.206685692E-1,-8.386932611E-1,-1.112047434E0
3.518473449E0,2.255553454E-1,-8.142594099E-1,-1.135259628E0
3.520894699E0,2.255553454E-1,-7.898254991E-1,-1.159693480E0
3.523315116E0,2.292204350E-1,-7.666133046E-1,-1.181684017E0
3.525736418E0,2.316638231E-1,-7.336275578E-1,-1.201231122E0
3.528158449E0,2.377723008E-1,-6.884248853E-1,-1.220778227E0
3.530579699E0,2.426590770E-1,-6.322268844E-1,-1.239103675E0
3.533000116E0,2.499892414E-1,-5.625903010E-1,-1.253764033E0
3.535421418E0,2.573194206E-1,-4.868452549E-1,-1.263537526E0
3.537843449E0,2.646495700E-1,-4.074351192E-1,-1.272089362E0
3.540264699E0,2.744231224E-1,-3.316900730E-1,-1.272089362E0
3.542685116E0,2.878617644E-1,-2.657185495E-1,-1.269646049E0
3.545106418E0,2.976353168E-1,-2.009687424E-1,-1.262315869E0
3.547528449E0,3.049654961E-1,-1.484358907E-1,-1.248877168E0
3.549949699E0,3.049654961E-1,-9.956810623E-2,-1.230551839E0
3.552370116E0,2.976353168E-1,-6.291726977E-2,-1.206117868E0
3.554791418E0,2.841966748E-1,-3.726168349E-2,-1.174353838E0
3.557213449E0,2.695363462E-1,-2.260134928E-2,-1.140146375E0
3.559634699E0,2.524326444E-1,-2.504473738E-2,-1.105938911E0
3.562055116E0,2.328855246E-1,-2.870982140E-2,-1.069288135E0
3.564476418E0,2.121167034E-1,-4.092676565E-2,-1.030193925E0
3.566898501E0,1.864611208E-1,-5.436540768E-2,-9.910996556E-1
3.569319751E0,1.620272398E-1,-7.879929990E-2,-9.544488192E-1
3.571740168E0,1.375933439E-1,-1.032331884E-1,-9.214630723E-1
3.574161470E0,1.131594554E-1,-1.301104724E-1,-8.933641315E-1
3.576583501E0,8.994726092E-2,-1.557660550E-1,-8.713735938E-1
3.579004751E0,6.429167092E-2,-1.740914732E-1,-8.530482054E-1
3.581425168E0,4.230117425E-2,-1.985253543E-1,-8.420529366E-1
3.583846470E0,2.764083818E-2,-2.192941606E-1,-8.335011005E-1
3.586268501E0,1.542389300E-2,-2.437280566E-1,-8.298360109E-1
3.588689751E0,4.428642802E-3,-2.535016239E-1,-8.261709213E-1
3.591110168E0,-1.679830020E-3,-2.559449971E-1,-8.225058317E-1
3.593531470E0,-6.566607859E-3,-2.461714447E-1,-8.200624585E-1
3.595953501E0,-6.566607859E-3,-2.254026383E-1,-8.176190853E-1
3.598374751E0,-2.901524538E-3,-2.046338320E-1,-8.176190853E-1
3.600795168E0,3.206948051E-3,-1.838650256E-1,-8.188407421E-1
3.603216470E0,1.298050396E-2,-1.606528312E-1,-8.225058317E-1
3.605638501E0,2.519745007E-2,-1.374406368E-1,-8.286142945E-1
3.608059751E0,3.741439432E-2,-1.105633527E-1,-8.310576677E-1
3.610480168E0,4.840964451E-2,-9.345962852E-2,-8.371661901E-1
3.612901470E0,5.940489471E-2,-7.757759839E-2,-8.396095634E-1
3.615323501E0,6.673506647E-2,-6.658235192E-2,-8.396095634E-1
3.617744751E0,7.406523079E-2,-5.680879578E-2,-8.383878469E-1
3.620165168E0,8.139539510E-2,-5.680879578E-2,-8.298360109E-1
3.622586470E0,8.628217876E-2,-6.536065787E-2,-8.151756525E-1
3.625008501E0,8.750387281E-2,-8.490777016E-2,-7.944068313E-1
3.627429803E0,8.261708915E-2,-1.142284349E-1,-7.650861740E-1
3.629850168E0,7.773031294E-2,-1.411057115E-1,-7.345438004E-1
3.632271522E0,6.673506647E-2,-1.716480851E-1,-7.003363967E-1
3.634693553E0,5.818320066E-2,-2.058555335E-1,-6.661289334E-1
3.637114803E0,4.352286831E-2,-2.388412803E-1,-6.270347238E-1
3.639535220E0,3.497100621E-2,-2.852656841E-1,-5.891621709E-1
3.641956522E0,2.153236605E-2,-3.231382072E-1,-5.525113344E-1
3.644378553E0,1.053711493E-2,-3.561239541E-1,-5.195255876E-1
3.646799803E0,-2.901524538E-3,-3.817795515E-1,-4.902049303E-1
3.649220220E0,-6.566607859E-3,-4.001049399E-1,-4.694361091E-1
3.651641522E0,-4.123218823E-3,-4.220954478E-1,-4.547757804E-1
3.654063553E0,1.985253533E-3,-4.404208660E-1,-4.486673176E-1
3.656484803E0,1.420219894E-2,-4.440859556E-1,-4.413371384E-1
3.658905220E0,2.886253223E-2,-4.465293586E-1,-4.364503622E-1
3.661326522E0,4.963133857E-2,-4.245388508E-1,-3.924693763E-1
3.663748553E0,7.040014863E-2,-4.440859556E-1,-2.189887464E-1
3.666169803E0,8.139539510E-2,-5.320479870E-1,-1.188097894E-1
3.668590220E0,1.033858955E-1,-5.283828974E-1,-1.065928489E-1
3.671011522E0,1.864611208E-1,-3.952181637E-1,-1.640124917E-1
3.673433553E0,3.281776905E-1,-2.302894145E-1,-2.825168669E-1
3.675854803E0,4.650074840E-1,-1.411057115E-1,-4.230117202E-1
3.678275220E0,5.224271417E-1,-1.545443535E-1,-5.121954083E-1
3.680696522E0,4.882196784E-1,-2.388412803E-1,-5.195255876E-1
3.683118553E0,3.978142738E-1,-3.365768492E-1,-4.694361091E-1
3.685539803E0,3.110739589E-1,-4.049917459E-1,-4.083513916E-1
3.687960220E0,2.609844804E-1,-4.367557764E-1,-3.692571819E-1
3.690381522E0,2.609844804E-1,-4.599680007E-1,-3.558185399E-1
3.692803606E0,2.866400778E-1,-4.892886579E-1,-3.545968235E-1
3.695224856E0,3.147390485E-1,-5.210527182E-1,-3.509317636E-1
3.697645272E0,3.269560039E-1,-5.613686442E-1,-3.423798978E-1
3.700066574E0,3.269560039E-1,-5.870242119E-1,-3.289412558E-1
3.702488606E0,3.208475113E-1,-6.053496599E-1,-3.216110766E-1
3.704909856E0,3.220692277E-1,-6.114581227E-1,-3.191677034E-1
3.707330272E0,3.318427801E-1,-6.077930331E-1,-3.167243004E-1
3.709751574E0,3.501681983E-1,-6.053496599E-1,-3.142809272E-1
3.712173606E0,3.709369898E-1,-6.077930331E-1,-3.106158376E-1
3.714594856E0,3.892624080E-1,-6.175665855E-1,-3.045073450E-1
3.717015272E0,4.075878263E-1,-6.371136904E-1,-2.996205688E-1
3.719436574E0,4.210264683E-1,-6.517740488E-1,-2.959555089E-1
3.721858606E0,4.295783341E-1,-6.493306160E-1,-2.947337925E-1
3.724279856E0,4.454603493E-1,-6.481089592E-1,-2.971771955E-1
3.726700272E0,4.576773047E-1,-6.334486008E-1,-2.971771955E-1
3.729121574E0,4.686725736E-1,-6.139014959E-1,-2.959555089E-1
3.731543606E0,4.772244096E-1,-5.931326747E-1,-2.910687327E-1
3.733964856E0,4.833329022E-1,-5.760289431E-1,-2.849602401E-1
3.736385272E0,4.869979918E-1,-5.577035546E-1,-2.800734639E-1
3.738806574E0,4.918847680E-1,-5.418215394E-1,-2.825168669E-1
3.741228606E0,4.992149174E-1,-5.234960914E-1,-2.935121059E-1
3.743649856E0,5.102101564E-1,-5.063923597E-1,-3.093941510E-1
3.746070272E0,5.199837089E-1,-4.953971207E-1,-3.362714052E-1
3.748491574E0,5.260922313E-1,-4.758500159E-1,-3.607053161E-1
3.750913606E0,5.309789777E-1,-4.501944184E-1,-3.778090179E-1
3.753334908E0,5.370874405E-1,-4.294256270E-1,-3.912476599E-1
3.755755272E0,5.431959033E-1,-4.062134326E-1,-3.973561525E-1
3.758176626E0,5.456393361E-1,-3.842229247E-1,-3.997995257E-1
3.760598658E0,5.419742465E-1,-3.671191931E-1,-3.949127495E-1
3.763019908E0,5.297572613E-1,-3.561239541E-1,-3.875826001E-1
3.765440324E0,5.126535892E-1,-3.390202224E-1,-3.668137789E-1
3.767861626E0,4.918847680E-1,-3.206948042E-1,-3.423798978E-1
3.770283658E0,4.760027230E-1,-3.109212518E-1,-3.191677034E-1
3.772704908E0,4.662291706E-1,-2.987042964E-1,-2.947337925E-1
3.775125324E0,4.613423944E-1,-2.962609231E-1,-2.739650011E-1
3.777546626E0,4.588989913E-1,-2.987042964E-1,-2.495311052E-1
3.779968658E0,4.564556181E-1,-3.023693860E-1,-2.189887464E-1
3.782389908E0,4.515688419E-1,-3.084778786E-1,-1.798945218E-1
3.784810324E0,4.466820657E-1,-3.145863414E-1,-1.273616552E-1
3.787231626E0,4.344651103E-1,-3.329117596E-1,-4.306473210E-2
3.789653658E0,4.051444530E-1,-3.720059693E-1,1.316375881E-1
3.792074908E0,3.367295563E-1,-4.587462842E-1,3.600944579E-1
3.794495324E0,2.402156889E-1,-5.357130170E-1,5.457920432E-1
3.796916626E0,1.278197914E-1,-5.858024955E-1,6.777350307E-1
3.799338658E0,1.420219894E-2,-6.053496599E-1,7.693621516E-1
3.801759908E0,-9.575030953E-2,-6.322268844E-1,8.304468393E-1
3.804180324E0,-1.947075576E-1,-6.591041684E-1,8.768712282E-1
3.806601626E0,-2.863346636E-1,-7.177455425E-1,9.184088707E-1
3.809023658E0,-3.791834414E-1,-7.873821259E-1,9.697200060E-1
3.811444908E0,-4.842491746E-1,-8.826742768E-1,1.045465112E0
3.813865324E0,-6.051968932E-1,-1.004843712E0,1.154195905E0
3.816286626E0,-7.444701195E-1,-1.131899953E0,1.309351087E0
3.818708710E0,-8.984035850E-1,-1.245517612E0,1.495048642E0
3.821129960E0,-1.052337170E0,-1.344474792E0,1.701667786E0
3.823550376E0,-1.196497083E0,-1.429993391E0,1.908134103E0
3.825971678E0,-1.310114622E0,-1.497186661E0,2.104826927E0
3.828393710E0,-1.388303161E0,-1.531394124E0,2.275864124E0
3.830814960E0,-1.409071922E0,-1.519177079E0,2.416358948E0
3.833235376E0,-1.369977713E0,-1.465422630E0,2.504321098E0
3.835656678E0,-1.258803487E0,-1.343253136E0,2.514094591E0
3.838078710E0,-1.066997409E0,-1.166107416E0,2.409028769E0
3.840499960E0,-8.067765236E-1,-9.462023973E-1,2.180572033E0
3.842920376E0,-5.086830258E-1,-7.214106321E-1,1.851936221E0
3.845341678E0,-2.105895877E-1,-4.966188073E-1,1.468171358E0
3.847763710E0,6.917845458E-2,-2.938175201E-1,1.072342396E0
3.850184960E0,3.037438095E-1,-1.093416587E-1,7.143858671E-1
3.852605376E0,4.882196784E-1,4.825693369E-2,4.358395338E-1
3.855026678E0,6.055023670E-1,1.789782494E-1,2.611372173E-1
3.857448710E0,6.568135023E-1,2.852656841E-1,1.841704547E-1
3.859869960E0,6.494833231E-1,3.622324169E-1,1.780619770E-1
3.862290376E0,5.859552622E-1,4.269822240E-1,2.086043358E-1
3.864711678E0,4.821111858E-1,4.905103445E-1,2.440334857E-1
3.867133710E0,3.428380191E-1,5.613686442E-1,2.648022771E-1
3.869554960E0,1.901262105E-1,6.273401380E-1,2.550287247E-1
3.871975376E0,4.352286831E-2,6.823163629E-1,2.122694254E-1
3.874396678E0,-9.452861547E-2,7.226322889E-1,1.401894391E-1
3.876818710E0,-2.142546773E-1,7.580614686E-1,5.100574717E-2
3.879239960E0,-3.144336343E-1,7.947123051E-1,-3.451287001E-2
3.881660376E0,-3.877353072E-1,8.301414251E-1,-1.004843712E-1
3.884081678E0,-4.304946065E-1,8.570187092E-1,-1.481304616E-1
3.886503762E0,-4.512633979E-1,8.814526200E-1,-1.762294322E-1
3.888925012E0,-4.549284875E-1,9.022213817E-1,-1.908897758E-1
3.891345428E0,-4.512633979E-1,9.242119193E-1,-1.982199401E-1
3.893766731E0,-4.414898455E-1,9.462023973E-1,-1.969982386E-1
3.896188762E0,-4.366030693E-1,9.755230546E-1,-1.884463727E-1
3.898610012E0,-4.341596961E-1,9.999569654E-1,-1.774511337E-1
3.901030428E0,-4.353813827E-1,1.018282413E0,-1.713426560E-1
3.903451731E0,-4.439332485E-1,1.031720996E0,-1.676775664E-1
3.905873762E0,-4.659237564E-1,1.042716265E0,-1.688992679E-1
3.908295012E0,-4.940227270E-1,1.046381354E0,-1.737860441E-1
3.910715428E0,-5.245651007E-1,1.042716265E0,-1.847812980E-1
3.913136731E0,-5.526640415E-1,1.035386086E0,-1.982199401E-1
3.915558762E0,-5.783196688E-1,1.026834249E0,-2.189887464E-1
3.917980012E0,-5.917583108E-1,1.018282413E0,-2.422009408E-1
3.920400428E0,-6.003101468E-1,1.014617324E0,-2.617480457E-1
3.922821731E0,-6.015318632E-1,1.002400398E0,-2.776300907E-1
3.925243762E0,-5.917583108E-1,9.840749502E-1,-2.935121059E-1
3.927665012E0,-5.795413256E-1,9.681929350E-1,-3.020639718E-1
3.930085428E0,-5.624375939E-1,9.523108602E-1,-3.057290614E-1
3.932506731E0,-5.428904891E-1,9.364288449E-1,-3.093941510E-1
3.934928762E0,-5.196782947E-1,9.242119193E-1,-3.130592108E-1
3.937350012E0,-4.952444136E-1,9.181034565E-1,-3.155026138E-1
3.939770428E0,-4.708105326E-1,9.205468297E-1,-3.240544796E-1
3.942191731E0,-4.475983381E-1,9.327637553E-1,-3.326063454E-1
3.944613762E0,-4.268295169E-1,9.474241138E-1,-3.362714052E-1
3.947035012E0,-4.036173224E-1,9.584193230E-1,-3.399364948E-1
3.949455428E0,-3.804051280E-1,9.571976662E-1,-3.423798978E-1
3.951876731E0,-3.608580232E-1,9.339854717E-1,-3.423798978E-1
3.954298814E0,-3.437542915E-1,9.144383669E-1,-3.399364948E-1
3.956720064E0,-3.278722763E-1,8.936695457E-1,-3.338280320E-1
3.959140481E0,-3.144336343E-1,8.667922616E-1,-3.240544796E-1
3.961561783E0,-3.058817685E-1,8.448017836E-1,-3.069507480E-1
3.963983814E0,-2.961082160E-1,8.240329623E-1,-2.849602401E-1
3.966405064E0,-2.875563502E-1,7.971556783E-1,-2.568612695E-1
3.968825481E0,-2.790044844E-1,7.543963790E-1,-2.312056869E-1
3.971246783E0,-2.692309320E-1,6.981984377E-1,-2.092151791E-1
3.973668814E0,-2.643441558E-1,6.407787800E-1,-1.896680743E-1
3.976090064E0,-2.545706034E-1,5.772506595E-1,-1.688992679E-1
3.978510481E0,-2.484621257E-1,5.308262706E-1,-1.505738497E-1
3.980931783E0,-2.435753495E-1,4.941754341E-1,-1.310267299E-1
3.983353814E0,-2.399102598E-1,4.624113739E-1,-1.127013192E-1
3.985775064E0,-2.325800955E-1,4.379774928E-1,-9.681928903E-2
3.988195481E0,-2.264716178E-1,4.196520746E-1,-8.215895295E-2
3.990616783E0,-2.191414535E-1,3.915531039E-1,-7.238540053E-2
3.993038814E0,-2.093679011E-1,3.634541333E-1,-6.627693027E-2
3.995460064E0,-1.995943487E-1,3.329117596E-1,-6.016845629E-2
3.997880481E0,-1.922641695E-1,2.987042964E-1,-4.428642616E-2
4.000301783E0,-1.824906170E-1,2.657185495E-1,-1.130067464E-2
4.002723814E0,-1.739387512E-1,2.437280566E-1,4.001049697E-2
4.005145064E0,-1.641651988E-1,2.241809368E-1,9.743013978E-2
4.007565481E0,-1.543916464E-1,2.119639963E-1,1.487413049E-1
4.009986783E0,-1.397313178E-1,2.021904439E-1,1.927223057E-1
4.012408814E0,-1.287360638E-1,1.936385781E-1,2.318165302E-1
4.014830064E0,-1.214058921E-1,1.801999360E-1,2.586938143E-1
4.017250481E0,-1.140757278E-1,1.679829955E-1,2.721324563E-1
4.019671783E0,-1.079672500E-1,1.533226669E-1,2.770192325E-1
4.022093866E0,-1.030804738E-1,1.325538605E-1,2.721324563E-1
4.024515116E0,-9.941539168E-2,1.032331884E-1,2.562504113E-1
4.026935481E0,-9.575030953E-2,7.269082218E-2,2.330382317E-1
4.029356783E0,-9.208522737E-2,4.214845970E-2,2.049392611E-1
4.031778866E0,-8.475505561E-2,1.038440317E-2,1.731752008E-1
4.034200116E0,-7.742489129E-2,-1.404948719E-2,1.401894391E-1
4.036620533E0,-7.009471953E-2,-3.237490356E-2,1.072036922E-1
4.039041835E0,-6.032116711E-2,-4.947862774E-2,7.910472155E-2
4.041463866E0,-5.543438718E-2,-6.902574003E-2,5.711421743E-2
4.043885116E0,-5.054761097E-2,-8.612946421E-2,3.878879920E-2
4.046305533E0,-4.810422286E-2,-9.345962852E-2,2.901524492E-2
4.048726835E0,-4.443913698E-2,-1.056765765E-1,2.535016090E-2
4.051148866E0,-4.566083103E-2,-1.093416587E-1,2.412846684E-2
4.053570116E0,-4.810422286E-2,-1.056765765E-1,3.023693897E-2
4.055990533E0,-5.176930502E-2,-1.068982705E-1,3.512371704E-2
4.058411835E0,-5.665608495E-2,-1.081199646E-1,4.367557913E-2
4.060833866E0,-6.276455522E-2,-1.117850468E-1,5.100574717E-2
4.063255116E0,-6.765133142E-2,-1.154501289E-1,5.833591148E-2
4.065675533E0,-7.131642103E-2,-1.227803007E-1,6.566607952E-2
4.068096835E0,-7.498150319E-2,-1.362189353E-1,7.055285573E-2
4.070518866E0,-8.108997345E-2,-1.496575773E-1,7.788302749E-2
4.072940116E0,-8.597674966E-2,-1.630962193E-1,8.643488586E-2
4.075360533E0,-9.330692142E-2,-1.863084137E-1,9.498675168E-2
4.077781835E0,-1.055238619E-1,-2.034121305E-1,1.047603041E-1
4.080203866E0,-1.214058921E-1,-2.205158621E-1,1.181989461E-1
4.082625116E0,-1.372879148E-1,-2.400629669E-1,1.328592747E-1
4.085045533E0,-1.556133330E-1,-2.583884001E-1,1.499630064E-1
4.087466835E0,-1.751604527E-1,-2.730487287E-1,1.646233350E-1
4.089888866E0,-1.947075576E-1,-2.938175201E-1,1.743968874E-1
4.092310168E0,-2.093679011E-1,-3.243598938E-1,1.792836636E-1
4.094730533E0,-2.203631550E-1,-3.683409095E-1,1.756185889E-1
4.097151835E0,-2.276933193E-1,-4.196520746E-1,1.597365588E-1
4.099573918E0,-2.276933193E-1,-4.990622103E-1,1.230857223E-1
4.101995168E0,-2.191414535E-1,-5.870242119E-1,7.055285573E-2
4.104415585E0,-2.032594234E-1,-6.872031689E-1,1.191152167E-2
4.106836887E0,-1.837123185E-1,-7.849387527E-1,-4.672981426E-2
4.109258918E0,-1.641651988E-1,-8.851176500E-1,-1.017060652E-1
4.111680168E0,-1.470614821E-1,-9.962918758E-1,-1.554606259E-1
4.114100585E0,-1.348445266E-1,-1.106244445E0,-2.043284029E-1
4.116521887E0,-1.287360638E-1,-1.214975238E0,-2.495311052E-1
4.118943918E0,-1.360662282E-1,-1.295607090E0,-2.874036431E-1
4.121365168E0,-1.629435122E-1,-1.339588046E0,-3.155026138E-1
4.123785585E0,-2.081461996E-1,-1.326149344E0,-3.338280320E-1
4.126206887E0,-2.631224692E-1,-1.312710762E0,-3.411581814E-1
4.128628918E0,-3.144336343E-1,-1.327371120E0,-3.436015844E-1
4.131050168E0,-3.510844707E-1,-1.376238823E0,-3.497100472E-1
4.133470585E0,-3.816268146E-1,-1.454427361E0,-3.582619131E-1
4.135891887E0,-3.987305462E-1,-1.549719453E0,-3.668137789E-1
4.138313918E0,-4.133908749E-1,-1.660893679E0,-3.717005551E-1
4.140735168E0,-4.231644273E-1,-1.784284830E0,-3.717005551E-1
4.143155585E0,-4.280512035E-1,-1.921267390E0,-3.802524209E-1
4.145576887E0,-4.317162931E-1,-2.060540438E0,-3.936910629E-1
4.147998918E0,-4.292729199E-1,-2.213252306E0,-4.156815708E-1
4.150420168E0,-4.268295169E-1,-2.385511160E0,-4.437805414E-1
4.152840585E0,-4.207210541E-1,-2.574873924E0,-4.779879749E-1
4.155261887E0,-4.219427407E-1,-2.752019644E0,-5.012001991E-1
4.157683918E0,-4.292729199E-1,-2.904731512E0,-5.121954083E-1
4.160105168E0,-4.353813827E-1,-3.070881844E0,-5.231906772E-1
4.162525585E0,-4.414898455E-1,-3.267574787E0,-5.525113344E-1
4.164946887E0,-4.549284875E-1,-3.475262880E0,-5.989357233E-1
4.167368918E0,-4.793623984E-1,-3.668290615E0,-6.575770974E-1
4.169790168E0,-5.172349215E-1,-3.821002245E0,-7.235485911E-1
4.172210637E0,-5.758762360E-1,-3.943171740E0,-7.895200849E-1
4.174631939E0,-6.369609833E-1,-4.078779697E0,-8.408312798E-1
4.177053970E0,-7.017107606E-1,-4.233934879E0,-8.787037730E-1
4.179475220E0,-7.701256871E-1,-4.406194210E0,-9.068027735E-1
4.181895637E0,-8.409839869E-1,-4.591891766E0,-9.263498783E-1
4.184316939E0,-9.069554806E-1,-4.798357964E0,-9.422318935E-1
4.186738970E0,-9.655967951E-1,-5.012154579E0,-9.532271624E-1
4.189160220E0,-1.019351363E0,-5.232059479E0,-9.617789984E-1
4.191580637E0,-1.073105931E0,-5.440969467E0,-9.630007148E-1
4.194001939E0,-1.037676811E0,-5.599789619E0,-9.397885203E-1
4.196423970E0,-8.079982400E-1,-5.629110336E0,-8.567132950E-1
4.198845220E0,-4.439332485E-1,-5.511827469E0,-7.357655168E-1
4.201265637E0,-1.679830020E-3,-5.151427746E0,-6.013791561E-1
4.203686939E0,5.932853818E-1,-3.627974510E0,-4.694361091E-1
4.206108970E0,1.303089857E0,-5.454866290E-1,-4.169032574E-1
4.208530220E0,1.731904745E0,1.632794738E0,-4.633276463E-1
4.210950637E0,1.791767716E0,2.255858898E0,-5.256340504E-1
4.213371939E0,1.571862698E0,1.947991967E0,-5.903838873E-1
4.215793970E0,1.157708287E0,1.212531805E0,-6.514685750E-1
4.218215220E0,6.922426820E-1,3.707842827E-1,-6.820109487E-1
4.220635637E0,2.890834510E-1,-3.145863414E-1,-6.563553810E-1
4.223056939E0,-4.581354442E-4,-6.762079000E-1,-5.512896776E-1
4.225478970E0,-1.678302884E-1,-6.749862432E-1,-3.814741075E-1
4.227900220E0,-2.545706034E-1,-4.404208660E-1,-1.908897758E-1
4.230320637E0,-3.071034551E-1,-1.521009654E-1,-3.206948191E-2
4.232741939E0,-3.694098890E-1,3.481829539E-2,7.177454978E-2
4.235163970E0,-4.439332485E-1,1.130067408E-1,1.389677525E-1
4.237585272E0,-5.050179958E-1,1.459924877E-1,1.878355294E-1
4.240005637E0,-5.477772951E-1,1.545443535E-1,2.318165302E-1
4.242426939E0,-5.746545792E-1,1.557660550E-1,2.672456801E-1
4.244849022E0,-5.942016840E-1,1.655396074E-1,2.904578745E-1
4.247270272E0,-6.125270724E-1,1.777565479E-1,3.014531136E-1
4.249690689E0,-6.320741773E-1,1.887518018E-1,3.051182032E-1
4.252111991E0,-6.516213417E-1,2.070772201E-1,3.038965166E-1
4.254534022E0,-6.711684465E-1,2.339545041E-1,3.014531136E-1
4.256955272E0,-6.907155514E-1,2.681619525E-1,2.990097404E-1
4.259375689E0,-7.102626562E-1,3.023693860E-1,2.941229641E-1
4.261796991E0,-7.273663878E-1,3.255815804E-1,2.880144715E-1
4.264219022E0,-7.456917763E-1,3.439069986E-1,2.794626355E-1
4.266640272E0,-7.566870451E-1,3.439069986E-1,2.696890533E-1
4.269060689E0,-7.627955079E-1,3.377985358E-1,2.562504113E-1
4.271481991E0,-7.591304183E-1,3.170297146E-1,2.391466945E-1
4.273904022E0,-7.518002391E-1,2.877090573E-1,2.232646793E-1
4.276325272E0,-7.383615971E-1,2.510582209E-1,2.037175596E-1
4.278745689E0,-7.188144922E-1,2.034121305E-1,1.866138428E-1
4.281166991E0,-6.992673874E-1,1.508792788E-1,1.695101112E-1
4.283589022E0,-6.809419990E-1,9.712471068E-2,1.548497826E-1
4.286010272E0,-6.626165509E-1,3.481829539E-2,1.414111406E-1
4.288430689E0,-5.954233408E-1,-1.276670843E-1,1.340809762E-1
4.290851991E0,-4.976878166E-1,-3.671191931E-1,1.267508119E-1
4.293274022E0,-4.146125913E-1,-5.699204803E-1,1.145338640E-1
4.295695272E0,-3.425326049E-1,-7.336275578E-1,1.059819981E-1
4.298115689E0,-2.728960216E-1,-8.411366940E-1,1.010952219E-1
4.300536991E0,-2.020377368E-1,-8.704573512E-1,9.987352788E-2
4.302959022E0,-1.226275861E-1,-7.495095730E-1,9.498675168E-2
4.305380272E0,-3.466558084E-2,-3.426853120E-1,7.788302749E-2
4.307800689E0,4.963133857E-2,4.074351192E-1,2.657185495E-2
4.310221991E0,8.628217876E-2,1.164885759E0,-5.650337040E-2
4.312644074E0,7.773031294E-2,1.618134379E0,-1.310267299E-1
4.315065324E0,4.230117425E-2,1.773289561E0,-1.860029846E-1
4.317485741E0,3.206948051E-3,1.781841397E0,-2.275405973E-1
4.319907043E0,-9.009997360E-3,1.778176427E0,-2.617480457E-1
4.322329074E0,8.093725890E-3,1.842926145E0,-2.947337925E-1
4.324750324E0,4.963133857E-2,1.957765460E0,-3.289412558E-1
4.327170741E0,1.009425074E-1,2.084821701E0,-3.655920923E-1
4.329592043E0,1.546970755E-1,2.191109180E0,-4.107947946E-1
4.332014074E0,2.084516287E-1,2.272962570E0,-4.645493329E-1
4.334435324E0,2.573194206E-1,2.329160690E0,-5.231906772E-1
4.336855741E0,3.110739589E-1,2.348707676E0,-5.867187977E-1
4.339277043E0,3.574983478E-1,2.357259512E0,-6.551336646E-1
4.341699074E0,3.868190348E-1,2.379250050E0,-7.198835015E-1
4.344120324E0,3.965925872E-1,2.408570766E0,-7.797465324E-1
4.346540741E0,3.807105422E-1,2.445221663E0,-8.347227573E-1
4.348962043E0,3.379512429E-1,2.473320484E0,-8.774821162E-1
4.351384074E0,2.793098986E-1,2.486759186E0,-9.068027735E-1
4.353805324E0,2.084516287E-1,2.485537529E0,-9.214630723E-1
4.356225741E0,1.388150454E-1,2.474542141E0,-9.214630723E-1
4.358647043E0,6.551336497E-2,2.458660126E0,-9.104678631E-1
4.361069074E0,-4.123218823E-3,2.441556454E0,-8.860339522E-1
4.363490324E0,-6.765133142E-2,2.417122602E0,-8.506048322E-1
4.365910741E0,-1.201841980E-1,2.392688751E0,-8.127322793E-1
4.368332043E0,-1.617218107E-1,2.359703064E0,-7.773031592E-1
4.370754074E0,-1.947075576E-1,2.316943645E0,-7.455390692E-1
4.373175324E0,-2.154763639E-1,2.266854286E0,-7.186617851E-1
4.375595741E0,-2.252499312E-1,2.214321375E0,-6.966713071E-1
4.378017043E0,-2.252499312E-1,2.155679941E0,-6.795675755E-1
4.380439126E0,-2.191414535E-1,2.089708567E0,-6.673506498E-1
4.382860376E0,-2.057028115E-1,2.011519909E0,-6.612421870E-1
4.385280793E0,-1.910424829E-1,1.929666519E0,-6.600204706E-1
4.387702095E0,-1.751604527E-1,1.849034667E0,-6.587987542E-1
4.390124126E0,-1.641651988E-1,1.765959382E0,-6.612421870E-1
4.392545376E0,-1.495048702E-1,1.690214396E0,-6.587987542E-1
4.394965793E0,-1.299577504E-1,1.623021126E0,-6.575770974E-1
4.397387095E0,-9.941539168E-2,1.565601468E0,-6.502469182E-1
4.399809126E0,-6.520794332E-2,1.515512109E0,-6.465818286E-1
4.402230376E0,-3.100049868E-2,1.475196123E0,-6.502469182E-1
4.404650793E0,1.985253533E-3,1.443432093E0,-6.563553810E-1
4.407072095E0,3.497100621E-2,1.420219898E0,-6.636855602E-1
4.409494126E0,5.940489471E-2,1.400672793E0,-6.685723066E-1
4.411915376E0,8.017370105E-2,1.389677525E0,-6.636855602E-1
4.414335793E0,9.849911928E-2,1.395785928E0,-6.490252018E-1
4.416757095E0,1.278197914E-1,1.400672793E0,-6.306998134E-1
4.419179126E0,1.632489264E-1,1.397007704E0,-6.087092757E-1
4.421600376E0,2.011214644E-1,1.382347345E0,-5.806103349E-1
4.424020793E0,2.267770469E-1,1.353026628E0,-5.476245880E-1
4.426442095E0,2.402156889E-1,1.316375852E0,-5.121954083E-1
4.428864126E0,2.414373755E-1,1.269951463E0,-4.779879749E-1
4.431285376E0,2.304421216E-1,1.210088372E0,-4.437805414E-1
4.433705793E0,2.047865391E-1,1.150225401E0,-4.120164812E-1
4.436127095E0,1.718007922E-1,1.091584086E0,-3.802524209E-1
4.438549126E0,1.327065676E-1,1.041494608E0,-3.497100472E-1
4.440970376E0,9.727742523E-2,1.002400398E0,-3.228327632E-1
4.443390793E0,6.306997687E-2,9.596410394E-1,-2.983988822E-1
4.445812095E0,2.764083818E-2,9.156600237E-1,-2.751866877E-1
4.448234178E0,-5.344913341E-3,8.765658140E-1,-2.531961799E-1
4.450655376E0,-3.466558084E-2,8.338065147E-1,-2.348707765E-1
4.453075793E0,-6.765133142E-2,7.922688723E-1,-2.153236568E-1
4.455497095E0,-9.697200358E-2,7.568397522E-1,-1.933331639E-1
4.457919178E0,-1.262926757E-1,7.250757217E-1,-1.750077456E-1
4.460340428E0,-1.519482583E-1,6.957550049E-1,-1.566823274E-1
4.462760845E0,-1.763821393E-1,6.774296165E-1,-1.383569092E-1
4.465182147E0,-1.983726472E-1,6.664343476E-1,-1.224748790E-1
4.467604178E0,-2.215848416E-1,6.700994372E-1,-1.102579311E-1
4.470025428E0,-2.545706034E-1,6.847597957E-1,-1.029277667E-1
4.472445845E0,-2.973299026E-1,7.067502737E-1,-1.017060652E-1
4.474867147E0,-3.571929336E-1,7.458444834E-1,-1.102579311E-1
4.477289178E0,-4.329380095E-1,7.824953198E-1,-1.334701329E-1
4.479710428E0,-5.001311898E-1,7.873821259E-1,-1.517955512E-1
4.482130845E0,-5.563291311E-1,7.751652002E-1,-1.603474021E-1
4.484552147E0,-5.954233408E-1,7.470661998E-1,-1.688992679E-1
4.486974178E0,-6.088619828E-1,7.079719901E-1,-1.811162084E-1
4.489395428E0,-6.113054156E-1,6.835380793E-1,-1.982199401E-1
4.491815845E0,-6.100836992E-1,6.676560640E-1,-2.202104330E-1
4.494237147E0,-5.978667736E-1,6.529957056E-1,-2.409792393E-1
4.496659178E0,-5.599942207E-1,6.090146899E-1,-2.507528067E-1
4.499080428E0,-5.062396526E-1,5.699204803E-1,-2.483094037E-1
4.501500845E0,-4.463766217E-1,5.515950918E-1,-2.422009408E-1
4.503922147E0,-3.865135908E-1,5.381564498E-1,-2.324273884E-1
4.506344178E0,-3.242071867E-1,5.222744346E-1,-2.263189107E-1
4.508765428E0,-2.619007528E-1,5.051707029E-1,-2.299840003E-1
4.511185845E0,-2.032594234E-1,4.892886579E-1,-2.397575527E-1
4.513607147E0,-1.495048702E-1,4.746283293E-1,-2.531961799E-1
4.516029178E0,-1.079672500E-1,4.575245976E-1,-2.739650011E-1
4.518450428E0,-7.375980914E-2,4.404208660E-1,-2.983988822E-1
4.520870845E0,-4.688252881E-2,4.184303582E-1,-3.240544796E-1
4.523292147E0,-2.244863659E-2,3.939964771E-1,-3.497100472E-1
4.525714231E0,-4.123218823E-3,3.695625961E-1,-3.753656447E-1
4.528135481E0,6.872031838E-3,3.536805511E-1,-4.010212123E-1
4.530555845E0,1.786728203E-2,3.451287150E-1,-4.291202128E-1
4.532977147E0,2.397575416E-2,3.304683566E-1,-4.572191834E-1
4.535399231E0,2.886253223E-2,3.280249834E-1,-4.804313779E-1
4.537820481E0,2.886253223E-2,3.280249834E-1,-4.987567961E-1
4.540240897E0,3.374931216E-2,3.219164908E-1,-5.146388412E-1
4.542662199E0,4.107947648E-2,3.072561622E-1,-5.207473040E-1
4.545084231E0,4.596625641E-2,2.925958335E-1,-5.256340504E-1
4.547505481E0,5.451811850E-2,2.718270421E-1,-5.244123936E-1
4.549925897E0,6.306997687E-2,2.473931462E-1,-5.207473040E-1
4.552347199E0,7.040014863E-2,2.254026383E-1,-5.121954083E-1
4.554769231E0,7.650861889E-2,2.034121305E-1,-5.012001991E-1
4.557190481E0,8.017370105E-2,1.777565479E-1,-4.865398407E-1
4.559610897E0,8.261708915E-2,1.545443535E-1,-4.706578255E-1
4.562032199E0,7.895200700E-2,1.374406368E-1,-4.535540938E-1
4.564454231E0,7.773031294E-2,1.154501289E-1,-4.364503622E-1
4.566875481E0,7.528692484E-2,9.712471068E-2,-4.230117202E-1
4.569295897E0,7.040014863E-2,8.246438205E-2,-4.107947946E-1
4.571717199E0,6.795676053E-2,7.146912813E-2,-3.997995257E-1
4.574139231E0,6.184828654E-2,6.047387794E-2,-3.949127495E-1
4.576560481E0,5.207473040E-2,4.947862774E-2,-3.924693763E-1
4.578980897E0,3.863608837E-2,4.092676565E-2,-3.900259733E-1
4.581402199E0,3.130592033E-2,3.481829539E-2,-3.826957941E-1
4.583824231E0,2.397575416E-2,2.626643144E-2,-3.778090179E-1
4.586245481E0,1.786728203E-2,2.137965336E-2,-3.643703759E-1
4.588665897E0,1.664558798E-2,1.649287529E-2,-3.472666740E-1
4.591087199E0,1.664558798E-2,1.038440317E-2,-3.252761662E-1
4.593509231E0,1.786728203E-2,5.497625098E-3,-3.008422852E-1
4.595930533E0,2.031067200E-2,1.832541777E-3,-2.727433145E-1
4.598350897E0,2.275406010E-2,-6.108472589E-4,-2.373141646E-1
4.600772199E0,2.641914412E-2,-7.941014133E-3,-2.043284029E-1
4.603194283E0,3.130592033E-2,-1.404948719E-2,-1.701209545E-1
4.605615533E0,3.497100621E-2,-2.260134928E-2,-1.371352077E-1
4.608035897E0,3.619270027E-2,-2.993151546E-2,-1.053711548E-1
4.610457199E0,3.374931216E-2,-3.726168349E-2,-7.482878864E-2
4.612879283E0,2.886253223E-2,-4.703523964E-2,-5.283828825E-2
4.615300533E0,2.275406010E-2,-5.680879578E-2,-3.451287001E-2
4.617720949E0,1.298050396E-2,-6.902574003E-2,-2.596100792E-2
4.620142251E0,-4.581354442E-4,-8.124268800E-2,-2.229592577E-2
4.622564283E0,-1.756185852E-2,-9.590301663E-2,-2.473931387E-2
4.624985533E0,-3.710897267E-2,-1.093416587E-1,-2.962609194E-2
4.627405949E0,-6.276455522E-2,-1.215586066E-1,-3.573456407E-2
4.629827251E0,-8.719844371E-2,-1.349972486E-1,-4.306473210E-2
4.632249283E0,-1.091889441E-1,-1.508792788E-1,-5.039490014E-2
4.634670533E0,-1.299577504E-1,-1.692046970E-1,-5.772506446E-2
4.637090949E0,-1.470614821E-1,-1.936385781E-1,-6.627693027E-2
4.639512251E0,-1.605001241E-1,-2.144073844E-1,-7.605048269E-2
4.641934283E0,-1.690519750E-1,-2.290677279E-1,-8.460234851E-2
4.644355533E0,-1.751604527E-1,-2.339545041E-1,-9.071081877E-2
4.646775949E0,-1.812689304E-1,-2.363978922E-1,-9.926267713E-2
4.649197251E0,-1.837123185E-1,-2.376195788E-1,-1.065928489E-1
4.651619283E0,-1.922641695E-1,-2.327328026E-1,-1.041494608E-1
4.654040533E0,-2.057028115E-1,-2.205158621E-1,-9.193251282E-2
4.656460949E0,-2.252499312E-1,-2.070772201E-1,-7.238540053E-2
4.658882251E0,-2.509055138E-1,-1.936385781E-1,-4.184303805E-2
4.661304283E0,-2.777827978E-1,-1.899735034E-1,-1.527118147E-3
4.663725533E0,-2.948864996E-1,-2.058555335E-1,3.512371704E-2
4.666145949E0,-2.997733057E-1,-2.327328026E-1,6.200099736E-2
4.668567251E0,-2.948864996E-1,-2.644968629E-1,7.543963939E-2
4.670989283E0,-2.875563502E-1,-2.901524603E-1,8.154810965E-2
4.673410533E0,-2.863346636E-1,-2.999260128E-1,8.276980370E-2
4.675830949E0,-2.899997234E-1,-2.987042964E-1,8.154810965E-2
4.678252251E0,-2.961082160E-1,-2.852656841E-1,7.666133344E-2
4.680674335E0,-3.071034551E-1,-2.644968629E-1,6.566607952E-2
4.683095585E0,-3.193204105E-1,-2.412846684E-1,5.344913527E-2
4.685516001E0,-3.327590525E-1,-2.168507725E-1,4.123219103E-2
4.687937303E0,-3.474193811E-1,-1.936385781E-1,3.145863488E-2
4.690359335E0,-3.596363366E-1,-1.777565479E-1,2.535016090E-2
4.692780585E0,-3.694098890E-1,-1.716480851E-1,2.046338283E-2
4.695201001E0,-3.742966652E-1,-1.777565479E-1,1.435491070E-2
4.697622303E0,-3.730749488E-1,-1.924168915E-1,1.191152167E-2
4.700044335E0,-3.730749488E-1,-2.070772201E-1,5.803049076E-3
4.702465585E0,-3.742966652E-1,-2.217375487E-1,9.162708884E-4
4.704886001E0,-3.767400384E-1,-2.315111160E-1,-3.970507067E-3
4.707307303E0,-3.816268146E-1,-2.339545041E-1,-6.413896102E-3
4.709729335E0,-3.828485310E-1,-2.351761907E-1,-5.192201585E-3
4.712150585E0,-3.840702176E-1,-2.388412803E-1,-5.192201585E-3
4.714571001E0,-3.828485310E-1,-2.425063550E-1,-2.748812549E-3
4.716992303E0,-3.816268146E-1,-2.412846684E-1,3.359660041E-3
4.719414335E0,-3.804051280E-1,-2.412846684E-1,8.246437646E-3
4.721835585E0,-3.828485310E-1,-2.437280566E-1,1.801999472E-2
4.724256001E0,-3.901786804E-1,-2.437280566E-1,3.145863488E-2
4.726677303E0,-3.975088596E-1,-2.473931462E-1,4.734066129E-2
4.729099335E0,-4.036173224E-1,-2.571666837E-1,6.322269142E-2
4.731520585E0,-4.060607255E-1,-2.632751763E-1,7.788302749E-2
4.733941001E0,-4.072824121E-1,-2.718270421E-1,9.009996802E-2
4.736362303E0,-4.072824121E-1,-2.803788781E-1,1.035386100E-1
4.738784335E0,-4.072824121E-1,-2.864873707E-1,1.145338640E-1
4.741205585E0,-4.060607255E-1,-2.913741469E-1,1.255291104E-1
4.743626001E0,-4.048390090E-1,-2.950392365E-1,1.340809762E-1
4.746047303E0,-4.023956358E-1,-2.962609231E-1,1.401894391E-1
4.748469387E0,-4.048390090E-1,-2.962609231E-1,1.450762302E-1
4.750890637E0,-4.085040987E-1,-2.962609231E-1,1.475196183E-1
4.753311001E0,-4.133908749E-1,-2.974826097E-1,1.475196183E-1
4.755732356E0,-4.207210541E-1,-2.999260128E-1,1.475196183E-1
4.758154387E0,-4.231644273E-1,-3.060344756E-1,1.450762302E-1
4.760575637E0,-4.280512035E-1,-3.109212518E-1,1.414111406E-1
4.762996053E0,-4.329380095E-1,-3.145863414E-1,1.353026628E-1
4.765417356E0,-4.402681589E-1,-3.133646548E-1,1.279724985E-1
4.767839387E0,-4.488200247E-1,-3.084778786E-1,1.157555580E-1
4.770260637E0,-4.561502039E-1,-3.035911024E-1,1.010952219E-1
4.772681053E0,-4.585935771E-1,-2.913741469E-1,8.276980370E-2
4.775102356E0,-4.622586668E-1,-2.730487287E-1,6.322269142E-2
4.777524387E0,-4.671454430E-1,-2.473931462E-1,4.001049697E-2
4.779945637E0,-4.708105326E-1,-2.192941606E-1,1.679829881E-2
4.782366053E0,-4.732539058E-1,-1.924168915E-1,-6.413896102E-3
4.784787356E0,-4.793623984E-1,-1.630962193E-1,-3.084778599E-2
4.787209387E0,-4.830274582E-1,-1.362189353E-1,-5.161659420E-2
4.789630637E0,-4.854708612E-1,-1.056765765E-1,-6.994201243E-2
4.792051053E0,-4.842491746E-1,-7.513421029E-2,-8.582404256E-2
4.794472356E0,-4.818057716E-1,-4.825693369E-2,-9.681928903E-2
4.796894387E0,-4.830274582E-1,-2.870982140E-2,-1.053711548E-1
4.799315637E0,-4.818057716E-1,-1.649287529E-2,-1.102579311E-1
4.801736053E0,-4.854708612E-1,-1.038440317E-2,-1.127013192E-1
4.804157356E0,-4.928010404E-1,-4.275931045E-3,-1.114796251E-1
4.806579387E0,-5.050179958E-1,-6.108472589E-4,-1.053711548E-1
4.809000637E0,-5.209000111E-1,-7.941014133E-3,-9.804098308E-2
4.811421053E0,-5.355603099E-1,-2.137965336E-2,-8.826743066E-2
4.813842356E0,-5.502206683E-1,-3.726168349E-2,-7.727217674E-2
4.816264387E0,-5.636593103E-1,-5.314370990E-2,-6.627693027E-2
4.818685689E0,-5.770979524E-1,-7.146912813E-2,-5.528167635E-2
4.821106053E0,-5.868715048E-1,-9.345962852E-2,-4.428642616E-2
4.823527408E0,-5.942016840E-1,-1.240019947E-1,-3.206948191E-2
4.825949439E0,-6.064186096E-1,-1.423274130E-1,-1.863084175E-2
4.828370689E0,-6.186355352E-1,-1.508792788E-1,-5.192201585E-3
4.830791106E0,-6.247440577E-1,-1.679829955E-1,5.803049076E-3
4.833212408E0,-6.284091473E-1,-1.740914732E-1,1.557660475E-2
4.835634439E0,-6.296308041E-1,-1.850867122E-1,2.657185495E-2
4.838055689E0,-6.320741773E-1,-1.973036677E-1,3.390202299E-2
4.840476106E0,-6.332958937E-1,-2.082989216E-1,4.001049697E-2
4.842897408E0,-6.381826997E-1,-2.168507725E-1,4.978405312E-2
4.845319439E0,-6.430694461E-1,-2.254026383E-1,5.711421743E-2
4.847740689E0,-6.467345357E-1,-2.290677279E-1,6.810946763E-2
4.850161106E0,-6.491779089E-1,-2.315111160E-1,7.910472155E-2
4.852582408E0,-6.491779089E-1,-2.290677279E-1,9.132166207E-2
4.855004439E0,-6.503996253E-1,-2.192941606E-1,1.035386100E-1
4.857425689E0,-6.467345357E-1,-2.034121305E-1,1.169772521E-1
4.859846106E0,-6.455128193E-1,-1.789782494E-1,1.304158866E-1
4.862267408E0,-6.406260729E-1,-1.521009654E-1,1.426328421E-1
4.864689439E0,-6.357392669E-1,-1.227803007E-1,1.548497826E-1
4.867110689E0,-6.284091473E-1,-9.712471068E-2,1.658450365E-1
4.869531106E0,-6.259657145E-1,-6.413896382E-2,1.756185889E-1
4.871952408E0,-6.198572516E-1,-2.993151546E-2,1.878355294E-1
4.874374439E0,-6.174138784E-1,5.497625098E-3,1.939440072E-1
4.876795689E0,-6.210789680E-1,4.337015375E-2,1.976090819E-1
4.879216106E0,-6.247440577E-1,7.757759839E-2,2.037175596E-1
4.881637408E0,-6.332958937E-1,1.093416587E-1,2.037175596E-1
4.884059439E0,-6.467345357E-1,1.349972486E-1,2.086043358E-1
4.886480741E0,-6.662816405E-1,1.508792788E-1,2.098260373E-1
4.888901106E0,-6.919372082E-1,1.618745178E-1,2.122694254E-1
4.891322408E0,-7.212579250E-1,1.728697717E-1,2.122694254E-1
4.893744491E0,-7.530219555E-1,1.838650256E-1,2.098260373E-1
4.896165741E0,-7.847860456E-1,1.814216375E-1,2.049392611E-1
4.898586158E0,-8.177717924E-1,1.789782494E-1,2.012741715E-1
4.901007460E0,-8.483141065E-1,1.838650256E-1,1.988307834E-1
4.903429491E0,-8.800781965E-1,1.838650256E-1,2.012741715E-1
4.905850741E0,-9.093988538E-1,1.606528312E-1,2.049392611E-1
4.908271158E0,-9.387195110E-1,1.325538605E-1,2.122694254E-1
4.910692460E0,-9.704836011E-1,1.178935245E-1,2.269297540E-1
4.913114491E0,-9.949174523E-1,8.857285231E-2,2.391466945E-1
4.915535741E0,-1.010799527E0,4.459185153E-2,2.489202619E-1
4.917956158E0,-1.030346632E0,2.993151546E-2,2.599155009E-1
4.920377460E0,-1.041341901E0,1.527118124E-2,2.709107697E-1
4.922799491E0,-1.048672080E0,-4.275931045E-3,2.757975459E-1
4.925220741E0,-1.049893737E0,-9.162709117E-3,2.794626355E-1
4.927641158E0,-1.047450304E0,-5.497625098E-3,2.904578745E-1
4.930062460E0,-1.037676811E0,-3.054236295E-3,3.002314270E-1
4.932484491E0,-1.025459886E0,-6.108472589E-4,3.112266660E-1
4.934905741E0,-1.008356094E0,1.160609815E-2,3.234436214E-1
4.937326158E0,-9.900307059E-1,2.015795931E-2,3.332171738E-1
4.939747460E0,-9.704836011E-1,2.015795931E-2,3.381039500E-1
4.942169491E0,-9.497147799E-1,2.137965336E-2,3.417690396E-1
4.944590741E0,-9.277243018E-1,2.504473738E-2,3.429907262E-1
4.947011158E0,-9.032903910E-1,2.748812735E-2,3.405473530E-1
4.949432460E0,-8.739697337E-1,2.626643144E-2,3.356605768E-1
4.951854491E0,-8.458707333E-1,2.748812735E-2,3.307738006E-1
4.954275793E0,-8.165500760E-1,2.993151546E-2,3.258870244E-1
