"Time (s)","Acceleration x (m/s^2)","Acceleration y (m/s^2)","Acceleration z (m/s^2)"
2.940864000E-2,-3.629776001E0,4.378631592E0,7.464416504E0
3.191108100E-2,-3.684844971E0,4.419326782E0,7.545822144E0
3.438300500E-2,-3.646545410E0,4.409744263E0,7.533843994E0
3.688544600E-2,-3.658508301E0,4.397781372E0,7.493148804E0
3.932685300E-2,-3.675277710E0,4.392990112E0,7.478775024E0
4.179877600E-2,-3.665695190E0,4.306793213E0,7.488357544E0
4.424018300E-2,-3.639358521E0,4.342712402E0,7.541030884E0
4.671210700E-2,-3.598663330E0,4.323562622E0,7.531448364E0
4.915351300E-2,-3.574722290E0,4.232574463E0,7.521881104E0
5.162543700E-2,-3.569931030E0,4.191879272E0,7.545822144E0
5.412787800E-2,-3.553161621E0,4.160751343E0,7.617645264E0
5.659980200E-2,-3.531616211E0,4.096115112E0,7.588912964E0
5.907172600E-2,-3.526840210E0,4.141601562E0,7.560180664E0
6.154365000E-2,-3.493316650E0,4.143997192E0,7.603286743E0
6.401557300E-2,-3.713577271E0,4.244552612E0,7.277664185E0
6.648749700E-2,-3.806961060E0,4.055404663E0,6.995147705E0
6.892890300E-2,-3.833297729E0,3.820770264E0,6.885025024E0
7.140082700E-2,-3.749496460E0,3.710647583E0,6.827560425E0
7.387275100E-2,-3.627395630E0,3.612472534E0,7.002334595E0
7.631415700E-2,-3.462188721E0,3.564590454E0,7.181900024E0
7.878608100E-2,-3.280227661E0,3.612472534E0,7.409347534E0
8.125800500E-2,-3.141372681E0,3.645996094E0,7.509902954E0
8.372992900E-2,-3.083908081E0,3.634033203E0,7.584121704E0
8.617133500E-2,-3.002502441E0,3.679519653E0,7.524276733E0
8.864325900E-2,-3.064758301E0,3.717819214E0,7.428497314E0
9.111518300E-2,-3.057571411E0,3.643600464E0,7.284851074E0
9.355658900E-2,-2.980957031E0,3.581359863E0,7.143600464E0
9.602851300E-2,-3.045593262E0,3.574172974E0,7.045425415E0
9.850043700E-2,-3.047988892E0,3.552627563E0,6.997543335E0
1.009418430E-1,-3.038421631E0,3.578964233E0,6.911361694E0
1.034137670E-1,-2.976165771E0,3.569381714E0,6.911361694E0
1.058856910E-1,-2.839691162E0,3.607696533E0,6.920928955E0
1.083576140E-1,-2.985748291E0,3.492767334E0,6.856292725E0
1.107990210E-1,-3.584289551E0,3.404190063E0,6.724609375E0
1.132709440E-1,-3.818923950E0,2.951675415E0,7.057403564E0
1.157428680E-1,-3.646545410E0,2.731414795E0,6.880233765E0
1.181842750E-1,-3.450225830E0,2.709869385E0,6.585739136E0
1.206561980E-1,-3.560348511E0,2.618881226E0,6.758132935E0
1.231281220E-1,-3.704010010E0,2.542266846E0,7.028671265E0
1.255695280E-1,-3.756683350E0,2.487197876E0,7.069366455E0
1.280414520E-1,-3.799774170E0,2.494384766E0,6.999938965E0
1.305133760E-1,-3.857238770E0,2.487197876E0,6.952056885E0
1.329547820E-1,-3.917083740E0,2.465652466E0,7.019088745E0
1.354267060E-1,-4.237915039E0,2.784088135E0,7.167541504E0
1.378986300E-1,-4.486907959E0,3.452072144E0,7.804397583E0
1.403400360E-1,-4.091857910E0,3.306015015E0,8.005508423E0
1.428119600E-1,-3.871597290E0,3.033081055E0,8.199432373E0
1.452838840E-1,-3.883575439E0,2.764938354E0,8.249710083E0
1.477252900E-1,-3.957794189E0,2.606918335E0,8.161132812E0
1.501972140E-1,-4.046371460E0,2.470443726E0,8.058181763E0
1.526691380E-1,-4.094253540E0,2.326797485E0,7.830734253E0
1.551105440E-1,-4.154113770E0,2.274124146E0,7.581726074E0
1.575824680E-1,-4.257064819E0,2.235809326E0,7.347106934E0
1.600543920E-1,-4.352828979E0,2.185531616E0,7.296829224E0
1.625263160E-1,-4.388748169E0,2.075408936E0,8.173095703E0
1.649677220E-1,-4.213973999E0,1.943725586E0,1.019859314E1
1.674396460E-1,-4.070312500E0,1.797668457E0,1.276518250E1
1.699115690E-1,-4.192413330E0,1.919784546E0,1.269096375E1
1.723529760E-1,-4.599441528E0,2.207077026E0,9.537796021E0
1.748249000E-1,-5.051940918E0,2.551849365E0,7.825942993E0
1.772968230E-1,-5.499649048E0,2.937316895E0,8.144363403E0
1.797382300E-1,-5.621765137E0,3.203063965E0,9.078109741E0
1.822101530E-1,-5.463745117E0,3.296447754E0,9.774826050E0
1.846820770E-1,-5.430221558E0,3.183914185E0,9.681442261E0
1.871234830E-1,-5.420639038E0,2.992385864E0,8.829116821E0
1.895954070E-1,-5.209960938E0,2.798446655E0,8.280838013E0
1.920673310E-1,-5.150100708E0,2.587768555E0,8.201828003E0
1.945087370E-1,-5.142913818E0,2.470443726E0,8.072540283E0
1.969806610E-1,-5.174041748E0,2.456085205E0,7.938461304E0
1.994525850E-1,-5.157287598E0,2.441711426E0,7.878616333E0
2.018939910E-1,-4.925048828E0,2.417770386E0,7.919311523E0
2.043659150E-1,-4.814910889E0,2.460876465E0,7.983963013E0
2.068378390E-1,-4.779006958E0,2.396224976E0,8.022262573E0
2.093097630E-1,-4.599441528E0,2.436920166E0,8.115646362E0
2.117511690E-1,-4.364807129E0,2.496780396E0,8.163528442E0
2.142230930E-1,-3.914688110E0,2.472839355E0,8.156341553E0
2.166950170E-1,-3.687240601E0,2.570999146E0,8.050994873E0
2.191364230E-1,-3.399932861E0,2.609313965E0,8.077331543E0
2.216083470E-1,-3.342483521E0,2.760147095E0,8.012695312E0
2.240802710E-1,-3.311355591E0,2.867889404E0,8.058181763E0
2.265216770E-1,-3.239532471E0,2.963653564E0,8.151550293E0
2.289936010E-1,-3.354446411E0,3.064208984E0,8.091690063E0
2.314655250E-1,-3.174880981E0,3.061813354E0,8.395767212E0
2.339069310E-1,-2.904342651E0,3.006744385E0,8.654327393E0
2.363788550E-1,-2.923492432E0,3.033081055E0,8.498718262E0
2.388507780E-1,-2.710403442E0,2.906188965E0,8.723770142E0
2.412921850E-1,-2.772659302E0,2.836761475E0,8.977554321E0
2.437641080E-1,-2.729568481E0,2.767333984E0,9.078109741E0
2.462360320E-1,-2.717590332E0,2.642822266E0,9.367813110E0
2.487079560E-1,-3.150939941E0,2.508758545E0,9.463577271E0
2.511493620E-1,-3.694427490E0,2.223846436E0,9.202606201E0
2.536212860E-1,-3.869201660E0,2.001174927E0,8.941635132E0
2.560932100E-1,-3.629776001E0,2.187927246E0,9.109237671E0
2.585346160E-1,-3.677673340E0,2.293273926E0,9.164306641E0
2.610065400E-1,-3.730346680E0,2.259750366E0,9.406112671E0
2.634784640E-1,-3.799774170E0,2.149627686E0,9.741302490E0
2.659198700E-1,-3.890747070E0,1.955688477E0,9.892135620E0
2.683917940E-1,-4.082290649E0,1.752182007E0,1.020817566E1
2.708637180E-1,-4.292984009E0,1.644439697E0,1.031112671E1
2.733051240E-1,-4.498886108E0,1.694717407E0,1.036380005E1
2.757770480E-1,-4.790969849E0,1.725845337E0,1.033506775E1
2.782489720E-1,-5.047149658E0,1.713882446E0,1.030154419E1
2.806903780E-1,-5.159683228E0,1.742614746E0,1.018183899E1
2.831623020E-1,-4.999267578E0,1.699508667E0,1.060560608E1
2.856342260E-1,-5.423034668E0,1.895843506E0,1.045956421E1
2.881061500E-1,-5.770202637E0,1.972457886E0,1.027999878E1
2.905475560E-1,-5.844421387E0,2.025131226E0,1.048829651E1
2.930194800E-1,-5.784561157E0,1.982025146E0,1.068701172E1
2.954914030E-1,-5.753433228E0,1.931747437E0,1.084263611E1
2.979328100E-1,-5.638519287E0,1.950897217E0,1.105332947E1
3.004047330E-1,-5.461349487E0,1.967666626E0,1.110839844E1
3.028766570E-1,-5.336853027E0,1.960479736E0,1.110360718E1
3.053180640E-1,-5.174041748E0,1.941329956E0,1.104853821E1
3.077899870E-1,-5.016021729E0,1.941329956E0,1.088333130E1
3.102619110E-1,-4.831665039E0,1.955688477E0,1.075164795E1
3.127033170E-1,-4.637741089E0,2.015548706E0,1.064152527E1
3.151752410E-1,-4.563522339E0,2.087371826E0,1.055772400E1
3.176471650E-1,-4.814910889E0,2.590148926E0,1.086657715E1
3.200885710E-1,-4.786178589E0,2.743377686E0,1.094079590E1
3.225604950E-1,-4.458175659E0,2.566207886E0,1.051702881E1
3.250324190E-1,-4.324096680E0,2.518325806E0,1.003578186E1
3.275043430E-1,-4.355224609E0,2.408203125E0,9.583282471E0
3.299457490E-1,-4.333679199E0,2.302856445E0,9.176269531E0
3.324176730E-1,-4.319320679E0,2.219055176E0,8.690246582E0
3.348590790E-1,-4.309738159E0,2.156799316E0,8.223373413E0
3.373310030E-1,-4.355224609E0,2.183135986E0,7.818756104E0
3.398029270E-1,-4.321701050E0,2.159194946E0,7.514694214E0
3.422748510E-1,-4.383956909E0,2.192718506E0,7.213027954E0
3.447162570E-1,-4.474929810E0,2.226242065E0,6.935302734E0
3.471881810E-1,-4.443817139E0,2.417770386E0,6.822769165E0
3.496601050E-1,-4.585067749E0,2.681137085E0,6.743759155E0
3.521015110E-1,-4.704772949E0,2.752960205E0,6.638412476E0
3.545734350E-1,-4.886734009E0,2.858306885E0,6.621658325E0
3.570453580E-1,-5.016021729E0,2.956466675E0,6.561798096E0
3.594867650E-1,-5.099822998E0,2.956466675E0,6.566589355E0
3.619586890E-1,-5.188415527E0,2.930130005E0,6.578567505E0
3.644306120E-1,-5.152496338E0,2.839157104E0,6.760513306E0
3.669025360E-1,-5.128555298E0,2.654800415E0,6.794036865E0
3.693439420E-1,-5.147705078E0,2.456085205E0,6.829956055E0
3.718158660E-1,-5.162078857E0,2.286087036E0,6.940078735E0
3.742877900E-1,-5.193191528E0,2.053848267E0,6.990356445E0
3.767291960E-1,-5.272201538E0,1.828796387E0,7.045425415E0
3.792011200E-1,-5.300933838E0,1.467269897E0,7.117263794E0
3.816730440E-1,-5.133346558E0,1.354751587E0,7.138809204E0
3.841144500E-1,-4.915466309E0,1.366714478E0,7.186691284E0
3.865863740E-1,-4.676055908E0,1.292495728E0,7.272872925E0
3.890582980E-1,-4.472549438E0,1.203918457E0,7.418930054E0
3.914997040E-1,-4.340866089E0,1.172790527E0,7.526672363E0
3.939716280E-1,-4.283401489E0,1.108139038E0,7.579330444E0
3.964435520E-1,-4.223541260E0,1.014770508E0,7.682281494E0
3.988849580E-1,-4.235519409E0,8.543548584E-1,7.667922974E0
4.013568820E-1,-4.211578369E0,7.418365479E-1,7.648773193E0
4.038288060E-1,-4.161300659E0,5.933990479E-1,7.770874023E0
4.063007300E-1,-4.204391479E0,3.252410889E-1,7.926498413E0
4.087421360E-1,-4.185241699E0,2.597045898E-2,8.113250732E0
4.112140600E-1,-4.192413330E0,-3.116149902E-1,8.304779053E0
4.136554660E-1,-4.166091919E0,-5.582122803E-1,8.347869873E0
4.161273900E-1,-4.290588379E0,-7.569427490E-1,8.309570312E0
4.185993140E-1,-4.417480469E0,-8.598937988E-1,8.209014893E0
4.210712370E-1,-4.419876099E0,-8.431243896E-1,8.141967773E0
4.235126440E-1,-4.439025879E0,-8.766479492E-1,8.070144653E0
4.259845670E-1,-4.376770020E0,-7.976379395E-1,8.144363403E0
4.284564910E-1,-4.290588379E0,-6.444091797E-1,8.271255493E0
4.308978980E-1,-4.357620239E0,-5.869445801E-1,8.489135742E0
4.333698210E-1,-4.333679199E0,-5.965270996E-1,8.790802002E0
4.358417450E-1,-4.197204590E0,-5.989227295E-1,8.991912842E0
4.382831510E-1,-4.077499390E0,-4.959716797E-1,8.982345581E0
4.407550750E-1,-3.984130859E0,-6.085052490E-1,8.790802002E0
4.432269990E-1,-3.505279541E0,-4.696350098E-1,8.556167603E0
4.456684050E-1,-3.510070801E0,-4.289398193E-1,8.362243652E0
4.481403290E-1,-3.299377441E0,-4.768218994E-1,8.098876953E0
4.506122530E-1,-3.170089722E0,-3.379516602E-1,7.921707153E0
4.530841770E-1,-3.256286621E0,-3.475341797E-1,7.857070923E0
4.555255830E-1,-3.194046021E0,-1.895141602E-1,7.840301514E0
4.579975070E-1,-3.126998901E0,1.336975098E-1,7.995925903E0
4.604694310E-1,-3.047988892E0,4.210052490E-1,8.170700073E0
4.629108370E-1,-2.985748291E0,5.550842285E-1,8.194641113E0
4.653827610E-1,-3.148544312E0,4.066467285E-1,8.273651123E0
4.678546850E-1,-3.622604370E0,-5.303955078E-2,8.872207642E0
4.702960910E-1,-4.269027710E0,-6.180725098E-1,1.014831543E1
4.727680150E-1,-5.097427368E0,-1.207046509E0,1.176679993E1
4.752399390E-1,-5.061523438E0,-1.336334229E0,1.103416443E1
4.776813450E-1,-3.864410400E0,-1.286056519E0,8.127609253E0
4.801532690E-1,-3.067138672E0,-1.300415039E0,6.327163696E0
4.826251920E-1,-2.856460571E0,-1.367462158E0,5.721435547E0
4.850665990E-1,-3.100662231E0,-1.288452148E0,5.491592407E0
4.875385230E-1,-3.629776001E0,-1.061004639E0,5.534683228E0
4.900104460E-1,-4.132568359E0,-7.928466797E-1,5.924942017E0
4.924823700E-1,-4.446212769E0,-6.444091797E-1,6.432510376E0
4.949237760E-1,-4.436630249E0,-5.438537598E-1,6.767700195E0
4.973957000E-1,-4.369598389E0,-5.247039795E-1,6.987976074E0
4.998676240E-1,-4.261856079E0,-5.438537598E-1,7.117263794E0
5.023090300E-1,-4.185241699E0,-4.911804199E-1,7.287246704E0
5.047809540E-1,-4.182846069E0,-5.677947998E-1,7.344711304E0
5.072528780E-1,-4.190032959E0,-7.018737793E-1,7.404556274E0
5.096942840E-1,-4.266647339E0,-6.707458496E-1,7.536239624E0
5.121662080E-1,-4.465362549E0,-6.539916992E-1,7.543426514E0
5.146381320E-1,-4.640136719E0,-5.893402100E-1,7.421325684E0
5.170795380E-1,-4.790969849E0,-5.893402100E-1,7.095703125E0
5.195514620E-1,-4.822097778E0,-5.965270996E-1,6.786849976E0
5.220233860E-1,-4.764633179E0,-6.707458496E-1,6.597717285E0
5.244647920E-1,-4.637741089E0,-7.904510498E-1,6.389419556E0
5.269367160E-1,-4.529998779E0,-9.029846191E-1,6.195495605E0
5.294086400E-1,-4.434234619E0,-1.065795898E0,6.152389526E0
5.318805640E-1,-4.427047729E0,-1.168746948E0,5.984802246E0
5.343219700E-1,-4.501266479E0,-1.309997559E0,5.805236816E0
5.367938940E-1,-4.601821899E0,-1.499145508E0,5.671157837E0
5.392658170E-1,-4.745483398E0,-1.578155518E0,5.493988037E0
5.417072240E-1,-4.836456299E0,-1.611663818E0,5.381454468E0
5.441791480E-1,-4.879562378E0,-1.640396118E0,5.312026978E0
5.466510710E-1,-4.953781128E0,-1.652374268E0,5.362304688E0
5.490924780E-1,-5.006454468E0,-1.707443237E0,5.347946167E0
5.515644010E-1,-5.042358398E0,-1.726593018E0,5.273727417E0
5.540363250E-1,-5.095031738E0,-1.685882568E0,5.314422607E0
5.564777320E-1,-5.126159668E0,-1.633209229E0,5.333572388E0
5.589496550E-1,-5.205169678E0,-1.566177368E0,5.501174927E0
5.614215790E-1,-5.202774048E0,-1.547027588E0,5.575393677E0
5.638629850E-1,-5.233901978E0,-1.503921509E0,5.546661377E0
5.663349090E-1,-5.224319458E0,-1.501541138E0,5.522720337E0
5.688068330E-1,-5.262634277E0,-1.496749878E0,5.544265747E0
5.712787570E-1,-5.298538208E0,-1.520690918E0,5.537078857E0
5.737201630E-1,-5.391921997E0,-1.661941528E0,5.731018066E0
5.761920870E-1,-5.528381348E0,-1.925308228E0,6.094924927E0
5.786640110E-1,-5.868362427E0,-2.212615967E0,6.920928955E0
5.811054170E-1,-6.105392456E0,-2.399353027E0,7.526672363E0
5.835773410E-1,-6.150878906E0,-2.425689697E0,6.966415405E0
5.860492650E-1,-6.016799927E0,-2.413726807E0,5.936920166E0
5.884906710E-1,-5.729492188E0,-2.361053467E0,5.304840088E0
5.909625950E-1,-5.308120728E0,-2.413726807E0,5.019943237E0
5.934345190E-1,-4.927444458E0,-2.619628906E0,5.165985107E0
5.959064420E-1,-4.790969849E0,-3.273239136E0,6.056625366E0
5.983478490E-1,-4.719146729E0,-3.646743774E0,6.154785156E0
6.008197730E-1,-4.556335449E0,-3.467178345E0,5.213867188E0
6.032611790E-1,-4.484512329E0,-3.179870605E0,4.919372559E0
6.057331030E-1,-4.537185669E0,-2.935668945E0,5.065429688E0
6.082050260E-1,-4.510848999E0,-2.849472046E0,5.168380737E0
6.106769500E-1,-4.503662109E0,-2.784820557E0,5.154006958E0
6.131183570E-1,-4.580276489E0,-2.868621826E0,5.180343628E0
6.155902800E-1,-4.649719238E0,-2.933273315E0,5.163589478E0
6.180622040E-1,-4.604217529E0,-3.033828735E0,4.998382568E0
6.205036100E-1,-4.553939819E0,-3.086502075E0,4.945709229E0
6.229755340E-1,-4.508453369E0,-2.921295166E0,5.101333618E0
6.254474580E-1,-4.594650269E0,-2.356262207E0,5.917755127E0
6.278888640E-1,-4.731109619E0,-2.255706787E0,5.936920166E0
6.303607880E-1,-4.898712158E0,-2.346694946E0,5.687911987E0
6.328327120E-1,-4.932235718E0,-2.377807617E0,5.671157837E0
6.352741180E-1,-4.903503418E0,-2.418518066E0,5.699890137E0
6.377460420E-1,-4.920257568E0,-2.454421997E0,5.747772217E0
6.402179660E-1,-4.946594238E0,-2.590896606E0,5.630462646E0
6.426593720E-1,-5.008850098E0,-2.732147217E0,5.537078857E0
6.451312960E-1,-5.027999878E0,-2.873413086E0,5.381454468E0
6.476032200E-1,-5.056732178E0,-2.954818726E0,5.230621338E0
6.500751440E-1,-5.011230469E0,-3.112838745E0,5.070220947E0
6.525165500E-1,-5.063903809E0,-3.155929565E0,5.015151978E0
6.549884740E-1,-5.107009888E0,-3.213394165E0,4.967269897E0
6.574603980E-1,-5.193191528E0,-3.179870605E0,5.027114868E0
6.599018040E-1,-5.291366577E0,-3.155929565E0,5.168380737E0
6.623737280E-1,-5.475708008E0,-3.131988525E0,5.297668457E0
6.648456510E-1,-5.597824097E0,-3.036224365E0,5.561019897E0
6.672870580E-1,-5.734283447E0,-3.014663696E0,5.817199707E0
6.697589820E-1,-5.892303467E0,-2.935668945E0,6.027893066E0
6.722309050E-1,-6.043136597E0,-2.878204346E0,6.214645386E0
6.746723120E-1,-6.234680176E0,-2.868621826E0,6.372665405E0
6.771442350E-1,-6.387908936E0,-2.904541016E0,6.545043945E0
6.796161590E-1,-6.565078735E0,-2.961990356E0,6.774887085E0
6.820575660E-1,-6.735061646E0,-2.990722656E0,6.971206665E0
6.845294890E-1,-6.945755005E0,-3.064941406E0,7.215423584E0
6.870014130E-1,-7.134887695E0,-3.167892456E0,7.354278564E0
6.894733370E-1,-7.300094604E0,-3.220565796E0,7.591308594E0
6.919147430E-1,-7.417404175E0,-3.292404175E0,7.758895874E0
6.943866670E-1,-7.505996704E0,-3.455200195E0,7.979171753E0
6.968585910E-1,-7.455718994E0,-3.706588745E0,8.053390503E0
6.992999970E-1,-7.424591064E0,-3.886154175E0,8.046203613E0
7.017719210E-1,-7.623306274E0,-3.989105225E0,8.084518433E0
7.042438450E-1,-7.673583984E0,-4.077697754E0,8.065353394E0
7.066852510E-1,-7.661621094E0,-4.163894653E0,8.024658203E0
7.091571750E-1,-7.618530273E0,-4.211776733E0,8.019866943E0
7.116290990E-1,-7.496414185E0,-4.314727783E0,7.900161743E0
7.140705050E-1,-7.331222534E0,-4.463165283E0,7.782852173E0
7.165424290E-1,-7.304885864E0,-4.444015503E0,7.756515503E0
7.190143530E-1,-7.177993774E0,-4.403305054E0,7.732559204E0
7.214557590E-1,-7.055892944E0,-4.393737793E0,7.658340454E0
7.239276830E-1,-6.763793945E0,-4.436828613E0,7.596099854E0
7.263996070E-1,-6.572250366E0,-4.470352173E0,7.541030884E0
7.288715300E-1,-6.330444336E0,-4.542175293E0,7.651168823E0
7.313129370E-1,-5.684005737E0,-4.989883423E0,7.792419434E0
7.337848600E-1,-5.276992798E0,-5.305923462E0,7.969589233E0
7.362262670E-1,-5.327270508E0,-5.375350952E0,8.036636353E0
7.386981910E-1,-5.279388428E0,-5.619567871E0,7.991134644E0
7.411701140E-1,-5.367980957E0,-5.588439941E0,7.883407593E0
7.436420380E-1,-5.406280518E0,-5.650680542E0,7.873825073E0
7.460834440E-1,-5.411071777E0,-5.827850342E0,7.900161743E0
7.485553680E-1,-5.468536377E0,-5.818283081E0,7.857070923E0
7.510272920E-1,-5.514022827E0,-5.801513672E0,7.904953003E0
7.534686980E-1,-5.485290527E0,-5.777572632E0,7.830734253E0
7.559406220E-1,-5.408676147E0,-5.729690552E0,7.727783203E0
7.584125460E-1,-5.245864868E0,-5.835037231E0,7.545822144E0
7.608539520E-1,-5.276992798E0,-5.866165161E0,7.287246704E0
7.633258760E-1,-5.456558228E0,-5.679412842E0,7.205841064E0
7.657978000E-1,-5.518814087E0,-5.669845581E0,7.083740234E0
7.682697240E-1,-5.478103638E0,-5.574066162E0,6.856292725E0
7.707111300E-1,-5.399093628E0,-5.571670532E0,6.614471436E0
7.731830540E-1,-5.487686157E0,-5.526184082E0,6.470825195E0
7.756549780E-1,-5.473312378E0,-5.540557861E0,6.291259766E0
7.780963840E-1,-5.511627197E0,-5.473510742E0,6.166763306E0
7.805683080E-1,-5.518814087E0,-5.449569702E0,6.011138916E0
7.830402320E-1,-5.537963867E0,-5.437606812E0,5.855514526E0
7.854816380E-1,-5.681610107E0,-5.301132202E0,5.731018066E0
7.879535620E-1,-5.892303467E0,-5.157485962E0,5.613693237E0
7.904254850E-1,-6.007232666E0,-5.035369873E0,5.594543457E0
7.928668920E-1,-5.947372437E0,-5.035369873E0,5.501174927E0
7.953388160E-1,-5.681610107E0,-5.188598633E0,5.367095947E0
7.978107390E-1,-5.607391357E0,-5.193389893E0,5.357513428E0
8.002521460E-1,-5.724716187E0,-5.128753662E0,5.510742188E0
8.027240690E-1,-5.561904907E0,-5.179031372E0,5.477233887E0
8.051959930E-1,-5.367980957E0,-5.109603882E0,5.350341797E0
8.076679170E-1,-5.384735107E0,-5.080871582E0,5.244995117E0
8.101093230E-1,-5.504440308E0,-5.064102173E0,5.137252808E0
8.125812470E-1,-5.600204468E0,-5.114379883E0,5.015151978E0
8.150531710E-1,-5.786956787E0,-5.049743652E0,4.928955078E0
8.174945770E-1,-6.184402466E0,-4.944396973E0,5.046264648E0
8.199665010E-1,-6.600982666E0,-4.810317993E0,5.144439697E0
8.224384250E-1,-6.964904785E0,-4.738494873E0,5.233016968E0
8.248502540E-1,-7.257003784E0,-4.683425903E0,5.319213867E0
8.273221780E-1,-7.561065674E0,-4.613998413E0,5.410186768E0
8.297941020E-1,-7.829208374E0,-4.640335083E0,5.486801147E0
8.322355080E-1,-8.047088623E0,-4.580474854E0,5.539474487E0
8.347074320E-1,-8.209884644E0,-4.556533813E0,5.613693237E0
8.371793560E-1,-8.415786743E0,-4.549346924E0,5.711853027E0
8.396207620E-1,-8.561843872E0,-4.532592773E0,5.764526367E0
8.420926860E-1,-8.743804932E0,-4.582870483E0,5.752563477E0
8.445646100E-1,-8.844360352E0,-4.685821533E0,5.826782227E0
8.470365330E-1,-8.959274292E0,-4.750473022E0,5.874664307E0
8.494779400E-1,-9.038284302E0,-4.872573853E0,5.960861206E0
8.519498640E-1,-9.071807861E0,-4.975524902E0,6.027893066E0
8.544217870E-1,-9.134048462E0,-5.155090332E0,6.130844116E0
8.568631940E-1,-9.229827881E0,-5.258041382E0,6.243377686E0
8.593351170E-1,-9.198699951E0,-5.392105103E0,6.413360596E0
8.618070410E-1,-9.201095581E0,-5.571670532E0,6.518707275E0
8.642484480E-1,-9.201095581E0,-5.729690552E0,6.657577515E0
8.667203710E-1,-9.181930542E0,-5.959533691E0,6.731796265E0
8.691922950E-1,-9.157989502E0,-6.160644531E0,6.885025024E0
8.716337010E-1,-9.114898682E0,-6.356979370E0,6.973602295E0
8.741056250E-1,-9.016738892E0,-6.601181030E0,7.035858154E0
8.765775490E-1,-8.935333252E0,-6.819061279E0,7.059799194E0
8.790189550E-1,-8.762954712E0,-7.051300049E0,7.184295654E0
8.814908790E-1,-8.583389282E0,-7.163818359E0,7.318374634E0
8.839628030E-1,-8.320022583E0,-7.228469849E0,7.452438354E0
8.864042090E-1,-8.102157593E0,-7.300292969E0,7.567367554E0
8.888761330E-1,-7.889068604E0,-7.336196899E0,7.720596313E0
8.913480570E-1,-7.683166504E0,-7.340988159E0,7.821151733E0
8.937894630E-1,-7.527542114E0,-7.319442749E0,8.007904053E0
8.962613870E-1,-7.340789795E0,-7.307479858E0,8.161132812E0
8.987333110E-1,-7.180389404E0,-7.223678589E0,8.309570312E0
9.012052350E-1,-7.027160645E0,-7.223678589E0,8.460403442E0
9.036466410E-1,-6.859558105E0,-7.149459839E0,8.525039673E0
9.061185650E-1,-6.761398315E0,-7.106353760E0,8.654327393E0
9.085904890E-1,-6.732666016E0,-7.063262939E0,8.740524292E0
9.110318950E-1,-6.727874756E0,-6.981857300E0,8.826721191E0
9.135038190E-1,-6.792526245E0,-6.893280029E0,8.920089722E0
9.159757420E-1,-6.873931885E0,-6.807083130E0,9.039794922E0
9.184171490E-1,-7.017578125E0,-6.756805420E0,9.152328491E0
9.208890730E-1,-7.185165405E0,-6.675399780E0,9.200210571E0
9.233609960E-1,-7.321640015E0,-6.546112061E0,9.269638062E0
9.258024030E-1,-7.553878784E0,-6.416824341E0,9.401321411E0
9.282743260E-1,-7.762176514E0,-6.345001221E0,9.465972900E0
9.307462500E-1,-7.891464233E0,-6.282760620E0,9.518646240E0
9.332181740E-1,-8.114120483E0,-6.208541870E0,9.595260620E0
9.356595800E-1,-8.286499023E0,-6.186981201E0,9.662292480E0
9.381315040E-1,-8.439727783E0,-6.107986450E0,9.712570190E0
9.406034280E-1,-8.693527222E0,-6.096008301E0,9.688629150E0
9.430448340E-1,-8.894638062E0,-6.074462891E0,9.712570190E0
9.455167580E-1,-9.095748901E0,-6.045730591E0,9.700607300E0
9.479886820E-1,-9.193908691E0,-6.074462891E0,9.674270630E0
9.504300880E-1,-9.251373291E0,-6.064880371E0,9.698211670E0
9.529020120E-1,-9.395019531E0,-6.093612671E0,9.734115601E0
9.553739360E-1,-9.490783691E0,-6.112762451E0,9.676651001E0
9.578153420E-1,-9.526702881E0,-6.175018311E0,9.698211670E0
9.602872660E-1,-9.565002441E0,-6.242050171E0,9.628768921E0
9.627591900E-1,-9.754150391E0,-6.340209961E0,9.880172729E0
9.652311140E-1,-9.972030640E0,-6.349792480E0,1.066786194E1
9.676725200E-1,-1.033354187E1,-6.440765381E0,1.193917847E1
9.701444440E-1,-1.040298462E1,-6.615554810E0,1.337570190E1
9.726163670E-1,-1.040538025E1,-6.740051270E0,1.397903442E1
9.750577740E-1,-1.064958191E1,-6.874130249E0,1.366778564E1
9.775296980E-1,-1.093688965E1,-6.967498779E0,1.287530518E1
9.800016210E-1,-1.115475464E1,-7.063262939E0,1.202537537E1
9.824430280E-1,-1.119786072E1,-7.242828369E0,1.170214844E1
9.849149510E-1,-1.107096863E1,-7.429580688E0,1.177159119E1
9.873868750E-1,-1.077168274E1,-7.616333008E0,1.192002869E1
9.898282810E-1,-1.031918335E1,-7.714492798E0,1.204212952E1
9.923002050E-1,-9.837951660E0,-7.779129028E0,1.208282471E1
9.947721290E-1,-9.447692871E0,-7.767166138E0,1.200621033E1
9.972135350E-1,-9.150817871E0,-7.774337769E0,1.194157410E1
9.996854590E-1,-8.988006592E0,-7.805465698E0,1.192959595E1
1.002157383E0,-8.832382202E0,-7.795898438E0,1.192242432E1
1.004598789E0,-8.700698853E0,-7.805465698E0,1.179553223E1
1.007070713E0,-8.557052612E0,-7.822219849E0,1.162792969E1
1.009542637E0,-8.473251343E0,-7.791107178E0,1.136935425E1
1.011984043E0,-8.391845703E0,-7.788711548E0,1.117782593E1
1.014455967E0,-8.305664062E0,-7.719284058E0,1.095755005E1
1.016927891E0,-8.257781982E0,-7.664215088E0,1.074926758E1
1.019399815E0,-8.214675903E0,-7.613937378E0,1.065588379E1
1.021841221E0,-8.202713013E0,-7.518157959E0,1.055293274E1
1.024313145E0,-8.315231323E0,-7.520553589E0,1.039251709E1
1.026785069E0,-8.343963623E0,-7.391265869E0,1.023928833E1
1.029226475E0,-8.463684082E0,-7.283538818E0,1.004057312E1
1.031698399E0,-8.597747803E0,-7.211700439E0,9.820312500E0
1.034170323E0,-8.762954712E0,-7.053695679E0,9.647933960E0
1.036611729E0,-8.901809692E0,-6.886093140E0,9.511459351E0
1.039083653E0,-9.112503052E0,-6.752014160E0,9.365417480E0
1.041555576E0,-9.260940552E0,-6.562881470E0,9.188247681E0
1.043996983E0,-9.450088501E0,-6.385711670E0,8.994308472E0
1.046468906E0,-9.567398071E0,-6.246841431E0,8.838684082E0
1.048940830E0,-9.660781860E0,-6.064880371E0,8.625610352E0
1.051412754E0,-9.830764771E0,-5.892501831E0,8.527435303E0
1.053854160E0,-9.943298340E0,-5.722518921E0,8.374206543E0
1.056326084E0,-1.007019043E1,-5.624343872E0,8.175491333E0
1.058798008E0,-1.018270874E1,-5.463943481E0,7.938461304E0
1.061239414E0,-1.026411438E1,-5.313110352E0,7.727783203E0
1.063711338E0,-9.476425171E0,-5.016220093E0,8.369430542E0
1.066183262E0,-9.512344360E0,-4.872573853E0,8.355056763E0
1.068624668E0,-9.869079590E0,-4.800750732E0,7.895370483E0
1.071096592E0,-1.012046814E1,-4.719345093E0,7.600891113E0
1.073568516E0,-1.035987854E1,-4.666671753E0,7.445266724E0
1.076009922E0,-1.074534607E1,-4.724136353E0,7.181900024E0
1.078481846E0,-1.114758301E1,-4.788772583E0,6.841918945E0
1.080953770E0,-1.144445801E1,-4.867782593E0,6.523498535E0
1.083395176E0,-1.161444092E1,-5.011428833E0,6.248168945E0
1.085867100E0,-1.171499634E1,-5.116775513E0,6.078170776E0
1.088339024E0,-1.176527405E1,-5.190994263E0,5.896209717E0
1.090780430E0,-1.182752991E1,-5.339447021E0,5.671157837E0
1.093252354E0,-1.190174866E1,-5.456756592E0,5.503570557E0
1.095724278E0,-1.188259888E1,-5.578857422E0,5.312026978E0
1.098196201E0,-1.161444092E1,-5.736877441E0,5.343154907E0
1.100637608E0,-1.130320740E1,-5.777572632E0,5.422164917E0
1.103109531E0,-1.098237610E1,-5.849411011E0,5.484405518E0
1.105581455E0,-1.076928711E1,-5.945175171E0,5.510742188E0
1.108022862E0,-1.052987671E1,-6.040939331E0,5.510742188E0
1.110494785E0,-1.027609253E1,-6.115158081E0,5.620880127E0
1.112966709E0,-1.006300354E1,-6.239654541E0,5.762145996E0
1.115408115E0,-9.833160400E0,-6.352188110E0,5.884246826E0
1.117880039E0,-9.634445190E0,-6.467102051E0,5.989593506E0
1.120351963E0,-9.785278320E0,-6.567672729E0,6.130844116E0
1.122793369E0,-1.012525940E1,-6.443161011E0,6.130844116E0
1.125265293E0,-1.059930420E1,-6.263595581E0,6.054229736E0
1.127737217E0,-1.129841614E1,-5.978698730E0,6.078170776E0
1.130178623E0,-1.209329224E1,-5.569290161E0,6.030288696E0
1.132650547E0,-1.276365662E1,-5.167053223E0,5.414978027E0
1.135122471E0,-1.307730103E1,-4.906082153E0,4.260971069E0
1.137594395E0,-1.314672852E1,-4.673858643E0,2.812484741E0
1.140035801E0,-1.297914124E1,-4.542175293E0,1.330474854E0
1.142507725E0,-1.274929810E1,-4.417678833E0,1.357574463E-1
1.144979649E0,-1.247636414E1,-4.412887573E0,-5.705261230E-1
1.147421055E0,-1.226327515E1,-4.396118164E0,-8.578338623E-1
1.149892979E0,-1.210525513E1,-4.290786743E0,-8.075561523E-1
1.152364903E0,-1.199511719E1,-4.262054443E0,-7.261505127E-1
1.154806309E0,-1.186105347E1,-4.321899414E0,-7.572784424E-1
1.157278233E0,-1.188739014E1,-4.302749634E0,-7.548828125E-1
1.159750156E0,-1.198315430E1,-4.393737793E0,-8.123321533E-1
1.162191563E0,-1.198554993E1,-4.628356934E0,-7.788238525E-1
1.164663487E0,-1.196400452E1,-4.870178223E0,-7.333374023E-1
1.167135410E0,-1.189695740E1,-5.121566772E0,-7.812194824E-1
1.169576817E0,-1.179400635E1,-5.392105103E0,-8.817749023E-1
1.172048740E0,-1.164077759E1,-5.693786621E0,-8.003692627E-1
1.174520664E0,-1.138699341E1,-6.021789551E0,-4.532165527E-1
1.176992588E0,-1.100871277E1,-6.392883301E0,-1.778717041E-1
1.179433994E0,-1.064239502E1,-6.768783569E0,8.787536621E-2
1.181905918E0,-1.031918335E1,-7.180587769E0,4.733428955E-1
1.184377842E0,-1.003427124E1,-7.546890259E0,9.306335449E-1
1.186819248E0,-9.677536011E0,-7.862930298E0,1.287368774E0
1.189291172E0,-9.313613892E0,-8.155014038E0,1.409484863E0
1.191763096E0,-9.019134521E0,-8.413589478E0,1.617782593E0
1.194204502E0,-8.695907593E0,-8.688934326E0,1.883529663E0
1.196676426E0,-8.351150513E0,-8.964263916E0,2.264205933E0
1.199148350E0,-8.047088623E0,-9.213256836E0,2.589828491E0
1.201589756E0,-7.826812744E0,-9.488586426E0,3.013595581E0
1.204061680E0,-7.580215454E0,-9.735198975E0,3.312866211E0
1.206533604E0,-7.290512085E0,-9.912368774E0,3.841995239E0
1.208975010E0,-7.060668945E0,-1.006320190E1,4.138870239E0
1.211446934E0,-7.055892944E0,-1.014939880E1,4.627288818E0
1.213918858E0,-6.988845825E0,-1.032177734E1,5.264144897E0
1.216390781E0,-6.701538086E0,-1.043669128E1,5.678344727E0
1.218832188E0,-6.646484375E0,-1.049415588E1,6.006347656E0
1.221304112E0,-6.481277466E0,-1.052049255E1,6.255340576E0
1.223776035E0,-6.196365356E0,-1.052288818E1,6.513916016E0
1.226217442E0,-5.995254517E0,-1.055401611E1,6.667144775E0
1.228689365E0,-5.822875977E0,-1.070005798E1,6.698272705E0
1.231130772E0,-5.576263428E0,-1.084370422E1,6.353500366E0
1.233602696E0,-5.267410278E0,-1.092271423E1,5.836364746E0
1.236074619E0,-5.047149658E0,-1.092750549E1,5.814804077E0
1.238546543E0,-4.779006958E0,-1.093469238E1,6.092544556E0
1.240987949E0,-4.403106689E0,-1.087004089E1,6.518707275E0
1.243459873E0,-4.077499390E0,-1.077427673E1,6.952056885E0
1.245931797E0,-3.763854980E0,-1.083653259E1,7.292037964E0
1.248403721E0,-3.502883911E0,-1.092750549E1,7.457229614E0
1.250845127E0,-3.407119751E0,-1.103764343E1,7.672714233E0
1.253317051E0,-3.186859131E0,-1.103285217E1,7.478775024E0
1.255788975E0,-3.179672241E0,-1.094665527E1,7.268096924E0
1.258230381E0,-3.093475342E0,-1.081976318E1,7.071762085E0
1.260702305E0,-2.822937012E0,-1.068330383E1,7.359069824E0
1.263174229E0,-2.475784302E0,-1.072160339E1,7.720596313E0
1.265615635E0,-2.279449463E0,-1.072639465E1,7.433288574E0
1.268087559E0,-2.360855103E0,-1.050851440E1,7.136413574E0
1.270559483E0,-2.545211792E0,-1.026670837E1,7.411743164E0
1.273000889E0,-2.770263672E0,-1.002967834E1,7.564971924E0
1.275472813E0,-2.856460571E0,-9.876449585E0,7.442871094E0
1.277944737E0,-2.753509521E0,-9.783081055E0,7.241760254E0
1.280386143E0,-2.561965942E0,-9.692092896E0,6.971206665E0
1.282858067E0,-2.435073853E0,-9.656188965E0,6.758132935E0
1.285329990E0,-2.245941162E0,-9.658584595E0,6.738967896E0
1.287771397E0,-2.011306763E0,-9.663375854E0,6.949661255E0
1.290243321E0,-1.819763184E0,-9.749557495E0,7.313583374E0
1.292715244E0,-1.659362793E0,-9.797439575E0,7.718200684E0
1.295156651E0,-1.587524414E0,-9.905181885E0,8.125213623E0
1.297628574E0,-1.532455444E0,-9.991378784E0,8.419708252E0
1.300100498E0,-1.599502563E0,-1.001052856E1,8.486740112E0
1.302572422E0,-1.683303833E0,-9.945877075E0,8.359848022E0
1.305013828E0,-1.759918213E0,-9.699279785E0,8.307174683E0
1.307485752E0,-1.992156982E0,-9.474227905E0,8.314361572E0
1.309957676E0,-2.255508423E0,-9.131851196E0,8.302383423E0
1.312399082E0,-2.533233643E0,-8.753570557E0,8.213806152E0
1.314871006E0,-2.753509521E0,-8.384857178E0,8.019866943E0
1.317342930E0,-2.856460571E0,-8.066436768E0,8.101272583E0
1.319784336E0,-2.933074951E0,-7.783920288E0,8.173095703E0
1.322256260E0,-3.160522461E0,-7.728851318E0,8.079727173E0
1.324728184E0,-3.392761230E0,-7.685760498E0,7.904953003E0
1.327169590E0,-3.476547241E0,-7.453521729E0,7.816360474E0
1.329641514E0,-3.672882080E0,-7.250015259E0,7.605667114E0
1.332113438E0,-3.905120850E0,-6.962707520E0,7.371047974E0
1.334585362E0,-4.010467529E0,-6.854965210E0,7.342315674E0
1.337026768E0,-4.216369629E0,-6.670623779E0,7.418930054E0
1.339498692E0,-4.484512329E0,-6.356979370E0,7.361465454E0
1.341970615E0,-4.723937988E0,-6.088821411E0,7.284851074E0
1.344412022E0,-5.020812988E0,-5.844619751E0,7.162750244E0
1.346883946E0,-5.250656128E0,-5.588439941E0,7.066970825E0
1.349355869E0,-5.446975708E0,-5.353805542E0,7.043029785E0
1.351797276E0,-5.703155518E0,-5.104812622E0,6.968811035E0
1.354269199E0,-5.909057617E0,-4.903701782E0,6.997543335E0
1.356741123E0,-5.992858887E0,-4.764831543E0,7.088531494E0
1.359182530E0,-6.067077637E0,-4.693008423E0,7.107681274E0
1.361654453E0,-6.126937866E0,-4.654693604E0,7.011917114E0
1.364126377E0,-6.148483276E0,-4.563720703E0,6.973602295E0
1.366567783E0,-6.155670166E0,-4.554138184E0,6.968811035E0
1.369039707E0,-6.186798096E0,-4.472732544E0,6.834747314E0
1.371511631E0,-6.220306396E0,-4.410491943E0,6.652786255E0
1.373953037E0,-6.284957886E0,-4.372177124E0,6.619262695E0
1.376424961E0,-6.277770996E0,-4.307540894E0,6.600112915E0
1.378896885E0,-6.253829956E0,-4.319503784E0,6.592926025E0
1.381368809E0,-6.229888916E0,-4.338668823E0,6.516311646E0
1.383810215E0,-6.253829956E0,-4.408096313E0,6.523498535E0
1.386282139E0,-6.205947876E0,-4.503860474E0,6.540252686E0
1.388754063E0,-6.138900757E0,-4.513442993E0,6.571380615E0
1.391195469E0,-6.038345337E0,-4.508651733E0,6.516311646E0
1.393667393E0,-5.899490356E0,-4.487106323E0,6.542648315E0
1.396139317E0,-5.846817017E0,-4.460769653E0,6.554626465E0
1.398580723E0,-5.815689087E0,-4.525405884E0,6.559402466E0
1.401052647E0,-5.801330566E0,-4.590057373E0,6.525894165E0
1.403524571E0,-5.755828857E0,-4.673858643E0,6.621658325E0
1.405965977E0,-5.669647217E0,-4.839050293E0,6.640808105E0
1.408437901E0,-5.561904907E0,-4.939605713E0,6.777282715E0
1.410909824E0,-5.485290527E0,-5.097625732E0,6.870651245E0
1.413381748E0,-5.394317627E0,-5.229309082E0,6.968811035E0
1.415823155E0,-5.394317627E0,-5.337051392E0,7.004730225E0
1.418295078E0,-5.305725098E0,-5.444778442E0,7.040649414E0
1.420767002E0,-5.248260498E0,-5.538162231E0,7.081344604E0
1.423208408E0,-5.169250488E0,-5.547729492E0,7.076553345E0
1.425680332E0,-5.032791138E0,-5.624343872E0,7.090927124E0
1.428152256E0,-4.941802979E0,-5.732086182E0,7.129226685E0
1.430593662E0,-4.834060669E0,-5.746459961E0,7.177108765E0
1.433065586E0,-4.757446289E0,-5.827850342E0,7.136413574E0
1.435537510E0,-4.719146729E0,-5.911651611E0,7.059799194E0
1.437978916E0,-4.707168579E0,-5.973907471E0,6.992752075E0
1.440450840E0,-4.767028809E0,-5.981079102E0,6.983184814E0
1.442922764E0,-4.793365479E0,-5.985870361E0,6.944869995E0
1.445364170E0,-4.819702148E0,-5.923629761E0,6.908966064E0
1.447836094E0,-4.795761108E0,-5.926025391E0,6.803619385E0
1.450308018E0,-4.764633179E0,-5.882919312E0,6.784469604E0
1.452779942E0,-4.664077759E0,-5.868560791E0,6.803619385E0
1.455221348E0,-4.630554199E0,-5.887710571E0,6.736572266E0
1.457693272E0,-4.525207520E0,-5.914047241E0,6.585739136E0
1.460165196E0,-4.522827148E0,-5.844619751E0,6.525894165E0
1.462606602E0,-4.419876099E0,-5.885314941E0,6.444488525E0
1.465078526E0,-4.398315430E0,-5.914047241E0,6.291259766E0
1.467550449E0,-4.424652100E0,-5.899688721E0,6.224212646E0
1.469991856E0,-4.458175659E0,-5.811096191E0,6.061416626E0
1.472463780E0,-4.613800049E0,-5.712936401E0,5.742980957E0
1.474935703E0,-4.735900879E0,-5.653076172E0,5.343154907E0
1.477377110E0,-4.774215698E0,-5.598007202E0,5.096557617E0
1.479849033E0,-4.860397339E0,-5.533370972E0,4.852340698E0
1.482320957E0,-5.042358398E0,-5.542953491E0,4.785308838E0
1.484762364E0,-4.982513428E0,-5.803909302E0,5.391036987E0
1.487234287E0,-4.913070679E0,-6.052917480E0,6.240982056E0
1.489706211E0,-4.762237549E0,-6.139099121E0,6.667144775E0
1.492147617E0,-4.716751099E0,-6.136703491E0,6.463638306E0
1.494619541E0,-4.790969849E0,-6.280364990E0,6.296051025E0
1.497091465E0,-4.628158569E0,-6.491058350E0,6.892196655E0
1.499563389E0,-4.386352539E0,-6.409652710E0,7.220214844E0
1.502004795E0,-4.235519409E0,-6.277969360E0,7.155563354E0
1.504476719E0,-4.087081909E0,-6.242050171E0,7.138809204E0
1.506948643E0,-3.534011841E0,-6.105590820E0,6.999938965E0
1.509390049E0,-3.541198730E0,-5.720123291E0,5.821990967E0
1.511861973E0,-3.998489380E0,-6.232482910E0,6.181121826E0
1.514333897E0,-3.608230591E0,-5.557312012E0,6.537857056E0
1.516775303E0,-4.321701050E0,-4.575683594E0,4.782913208E0
1.519247227E0,-4.269027710E0,-4.721740723E0,5.489196777E0
1.521719151E0,-4.795761108E0,-4.690612793E0,6.336746216E0
1.524160557E0,-5.674438477E0,-4.925247192E0,6.190704346E0
1.526632481E0,-5.918640137E0,-5.123962402E0,5.956069946E0
1.529104405E0,-5.559509277E0,-4.934814453E0,5.857910156E0
1.531576328E0,-5.128555298E0,-4.798355103E0,5.647216797E0
1.534017735E0,-4.759841919E0,-4.652297974E0,5.929733276E0
1.536489658E0,-4.297760010E0,-4.558929443E0,6.375061035E0
1.538961582E0,-3.962570190E0,-4.532592773E0,6.691085815E0
1.541402989E0,-3.620208740E0,-4.594848633E0,6.791641235E0
1.543874912E0,-2.231567383E0,-4.973129272E0,7.684677124E0
1.546346836E0,-2.277053833E0,-5.451965332E0,7.849884033E0
1.548788242E0,-3.045593262E0,-5.633926392E0,6.920928955E0
1.551260166E0,-3.323318481E0,-5.396896362E0,7.940856934E0
1.553732090E0,-3.134185791E0,-5.238876343E0,1.073728943E1
1.556173496E0,-3.598663330E0,-6.141494751E0,1.550415039E1
1.558645420E0,-6.000045776E0,-8.073623657E0,2.363246155E1
1.561117344E0,-4.474929810E0,-8.052078247E0,1.787919617E1
1.563558750E0,-2.540420532E0,-8.121505737E0,1.351217651E1
1.566030674E0,-7.974395752E-1,-8.368103027E0,1.438604736E1
1.568502598E0,-3.018493652E-1,-7.455917358E0,1.097911072E1
1.570944004E0,-1.118270874E0,-5.861373901E0,8.671096802E0
1.573415928E0,-1.630630493E0,-4.503860474E0,8.927276611E0
1.575887852E0,-1.831741333E0,-3.984329224E0,9.430053711E0
1.578359776E0,-2.365646362E0,-4.087280273E0,9.777221680E0
1.580801182E0,-3.517257690E0,-5.234100342E0,8.307174683E0
1.583273106E0,-3.234741211E0,-5.344223022E0,7.428497314E0
1.585745030E0,-2.705627441E0,-4.853424072E0,7.603286743E0
1.588186436E0,-1.841308594E0,-4.319503784E0,7.430892944E0
1.590658360E0,-1.314590454E0,-3.495910645E0,7.011917114E0
1.593130283E0,-1.623443604E0,-2.981155396E0,7.552993774E0
1.595571690E0,-1.788635254E0,-2.851867676E0,7.823547363E0
1.598043614E0,-2.104675293E0,-3.096069336E0,7.241760254E0
1.600515537E0,-2.657730103E0,-4.005874634E0,6.370269775E0
1.602956944E0,-2.154953003E0,-4.094451904E0,6.219436646E0
1.605428867E0,-1.690475464E0,-3.962768555E0,5.692703247E0
1.607900791E0,-1.582748413E0,-3.596466064E0,4.687149048E0
1.610372715E0,-1.898773193E0,-3.191848755E0,4.462081909E0
1.612814121E0,-2.267486572E0,-3.086502075E0,4.905014038E0
1.615286045E0,-2.389587402E0,-3.196624756E0,5.896209717E0
1.617757969E0,-2.382400513E0,-3.345077515E0,6.128448486E0
1.620199375E0,-2.121429443E0,-3.560546875E0,5.984802246E0
1.622671299E0,-1.925109863E0,-3.440841675E0,4.845153809E0
1.625143223E0,-2.157348633E0,-3.215789795E0,3.616928101E0
1.627584629E0,-2.380004883E0,-3.021850586E0,3.269775391E0
1.630056553E0,-1.637802124E0,-3.333099365E0,4.890655518E0
1.632528477E0,-1.968200684E0,-3.603637695E0,4.931350708E0
1.634969883E0,-2.597885132E0,-3.943618774E0,4.055068970E0
1.637441807E0,-2.669708252E0,-4.211776733E0,3.566650391E0
1.639913731E0,-2.808578491E0,-4.240509033E0,3.109359741E0
1.642355137E0,-3.071929932E0,-4.180648804E0,3.188369751E0
1.644827061E0,-3.098266602E0,-4.199798584E0,3.739044189E0
1.647298985E0,-3.057571411E0,-4.235717773E0,4.126892090E0
1.649740391E0,-3.136581421E0,-4.288391113E0,4.222671509E0
1.652212315E0,-3.313751221E0,-4.353027344E0,4.311248779E0
1.654684239E0,-3.534011841E0,-4.415283203E0,4.366317749E0
1.657156162E0,-3.816528320E0,-4.539779663E0,4.421386719E0
1.659597569E0,-3.931457520E0,-4.695404053E0,4.586578369E0
1.662069492E0,-3.986526489E0,-4.836654663E0,4.806854248E0
1.664541416E0,-3.988906860E0,-5.016220093E0,4.945709229E0
1.666982823E0,-4.015243530E0,-5.150299072E0,5.113311768E0
1.669454746E0,-4.072708130E0,-5.167053223E0,5.364700317E0
1.671926670E0,-4.108627319E0,-5.262832642E0,5.520324707E0
1.674368076E0,-4.170867920E0,-5.224517822E0,5.489196777E0
1.676840000E0,-4.237915039E0,-5.238876343E0,5.410186768E0
1.679311924E0,-4.237915039E0,-5.100021362E0,5.474838257E0
1.681753330E0,-4.144531250E0,-4.628356934E0,5.742980957E0
1.684225254E0,-4.331283569E0,-4.657089233E0,5.410186768E0
1.686697178E0,-4.695205688E0,-4.570907593E0,5.060638428E0
1.689169102E0,-4.944198608E0,-4.520629883E0,4.885864258E0
1.691610508E0,-5.008850098E0,-4.573303223E0,4.866714478E0
1.694082432E0,-4.956176758E0,-4.604415894E0,4.725448608E0
1.696554356E0,-5.059127808E0,-4.817504883E0,4.948104858E0
1.698995762E0,-4.980117798E0,-4.961151123E0,5.458068848E0
1.701467686E0,-5.037567139E0,-4.539779663E0,4.744598389E0
1.703939610E0,-4.910675049E0,-4.369781494E0,4.129287720E0
1.706381016E0,-4.695205688E0,-4.317123413E0,3.952117920E0
1.708852940E0,-4.642532349E0,-3.960372925E0,3.042327881E0
1.711324864E0,-4.810119629E0,-3.807144165E0,2.716720581E0
1.713766270E0,-4.714355469E0,-3.732925415E0,3.176406860E0
1.716238194E0,-4.695205688E0,-3.421691895E0,2.960922241E0
1.718710117E0,-4.573104858E0,-3.400131226E0,2.805297852E0
1.721151524E0,-4.544372559E0,-3.500686646E0,2.453353882E0
1.723623448E0,-5.612182617E0,-3.409713745E0,2.015213013E0
1.726095371E0,-6.177215576E0,-3.491119385E0,1.823669434E0
1.728536778E0,-5.633728027E0,-3.685043335E0,2.307312012E0
1.731008701E0,-5.013626099E0,-3.802368164E0,2.735870361E0
1.733480625E0,-4.599441528E0,-3.931655884E0,2.620941162E0
1.735952549E0,-3.921875000E0,-4.178253174E0,2.774169922E0
1.738393955E0,-3.560348511E0,-4.369781494E0,2.750228882E0
1.740865879E0,-3.371215820E0,-4.587661743E0,2.534759521E0
1.743337803E0,-3.383178711E0,-4.721740723E0,2.374343872E0
1.745779209E0,-3.557952881E0,-4.755249023E0,2.106185913E0
1.748251133E0,-3.536407471E0,-4.913269043E0,2.163650513E0
1.750723057E0,-3.933853149E0,-5.032989502E0,2.003234863E0
1.753164463E0,-4.465362549E0,-5.334655762E0,1.861984253E0
1.755636387E0,-4.264251709E0,-5.954742432E0,2.934585571E0
1.758108311E0,-4.036804199E0,-6.589218140E0,4.330398560E0
1.760549717E0,-4.166091919E0,-7.135086060E0,5.369491577E0
1.763021641E0,-4.429443359E0,-7.709701538E0,6.315200806E0
1.765493565E0,-4.537185669E0,-8.246002197E0,7.627227783E0
1.767934971E0,-4.532394409E0,-8.734420776E0,9.406112671E0
1.770406895E0,-4.520431519E0,-9.055236816E0,1.094079590E1
1.772878819E0,-4.549163818E0,-9.256347656E0,1.210438538E1
1.775350742E0,-4.427047729E0,-9.421554565E0,1.307164001E1
1.777792149E0,-4.570709229E0,-9.488586426E0,1.346907043E1
1.780264073E0,-4.661682129E0,-9.502960205E0,1.360554504E1
1.782735996E0,-4.637741089E0,-9.490982056E0,1.363427734E1
1.785177403E0,-4.649719238E0,-9.419158936E0,1.350978088E1
1.787649326E0,-4.405502319E0,-9.373672485E0,1.346427917E1
1.790121250E0,-3.881179810E0,-9.273117065E0,1.385693359E1
1.792562656E0,-3.289810181E0,-9.206069946E0,1.408917236E1
1.795034580E0,-2.992919922E0,-9.088760376E0,1.366061401E1
1.797506504E0,-2.873214722E0,-8.894836426E0,1.291601562E1
1.799947910E0,-2.868423462E0,-8.736816406E0,1.204452515E1
1.802419834E0,-2.787017822E0,-8.514144897E0,1.127598572E1
1.804891758E0,-2.837295532E0,-8.217269897E0,1.048350525E1
1.807363682E0,-2.928283691E0,-7.997009277E0,9.691024780E0
1.809805088E0,-3.184463501E0,-7.695327759E0,8.953613281E0
1.812277012E0,-3.538803101E0,-7.350570679E0,8.288024902E0
1.814718418E0,-3.845260620E0,-7.029739380E0,7.715805054E0
1.817190342E0,-3.993698120E0,-6.756805420E0,7.375823975E0
1.819662266E0,-3.950607300E0,-6.548507690E0,7.165145874E0
1.822134190E0,-3.900329590E0,-6.352188110E0,6.937698364E0
1.824575596E0,-3.823715210E0,-6.261215210E0,6.729400635E0
1.827047520E0,-3.682449341E0,-6.218109131E0,6.767700195E0
1.829519444E0,-3.761459351E0,-6.148681641E0,6.839523315E0
1.831960850E0,-3.792587280E0,-6.074462891E0,6.908966064E0
1.834432774E0,-3.979339600E0,-6.007415771E0,6.920928955E0
1.836904698E0,-4.472549438E0,-5.981079102E0,6.892196655E0
1.839346104E0,-4.831665039E0,-6.019393921E0,6.822769165E0
1.841818028E0,-5.025604248E0,-6.081649780E0,6.904174805E0
1.844289951E0,-5.047149658E0,-6.148681641E0,7.007125854E0
1.846731358E0,-5.056732178E0,-6.275573730E0,7.105285645E0
1.849203281E0,-5.135742188E0,-6.349792480E0,7.148376465E0
1.851675205E0,-5.324874878E0,-6.435989380E0,7.011917114E0
1.854147129E0,-5.504440308E0,-6.503021240E0,6.877838135E0
1.856588535E0,-5.674438477E0,-6.584426880E0,6.813186646E0
1.859060459E0,-5.693588257E0,-6.591613770E0,6.992752075E0
1.861532383E0,-5.712738037E0,-6.574844360E0,7.035858154E0
1.863973789E0,-5.643310547E0,-6.505416870E0,7.038253784E0
1.866445713E0,-5.660064697E0,-6.467102051E0,6.932907104E0
1.868917637E0,-5.796539307E0,-6.349792480E0,6.779678345E0
1.871359043E0,-5.755828857E0,-6.268386841E0,6.446884155E0
1.873830967E0,-5.554718018E0,-6.220504761E0,6.229003906E0
1.876302891E0,-5.312911987E0,-6.342605591E0,6.367874146E0
1.878744297E0,-5.178833008E0,-6.524566650E0,6.573776245E0
1.881216221E0,-5.207565308E0,-6.668228149E0,6.470825195E0
1.883688145E0,-5.415863037E0,-6.608367920E0,5.915374756E0
1.886129551E0,-5.717529297E0,-6.457534790E0,5.338363647E0
1.888601475E0,-6.253829956E0,-6.256423950E0,4.579406738E0
1.891073399E0,-6.744644165E0,-6.146286011E0,3.925781250E0
1.893514805E0,-7.690353394E0,-6.057693481E0,3.296112061E0
1.895986729E0,-8.363113403E0,-5.983474731E0,3.159637451E0
1.898458653E0,-7.695144653E0,-5.724899292E0,4.349563599E0
1.900930576E0,-7.412628174E0,-5.456756592E0,5.027114868E0
1.903371983E0,-7.156448364E0,-5.322677612E0,5.309631348E0
1.905843906E0,-6.936172485E0,-5.298736572E0,5.177947998E0
1.908285313E0,-6.816467285E0,-5.392105103E0,5.022323608E0
1.910757237E0,-6.747039795E0,-5.428024292E0,4.945709229E0
1.913229160E0,-6.572250366E0,-5.435211182E0,4.778121948E0
1.915701084E0,-6.687179565E0,-5.248458862E0,4.215484619E0
1.918142490E0,-6.804489136E0,-5.025802612E0,3.662429810E0
1.920614414E0,-6.641693115E0,-4.951583862E0,3.353576660E0
1.923086338E0,-6.533950806E0,-4.812713623E0,2.980072021E0
1.925558262E0,-6.529159546E0,-4.709762573E0,2.484481812E0
1.927999668E0,-6.280166626E0,-4.664276123E0,1.938598633E0
1.930471592E0,-6.012008667E0,-4.726531982E0,1.608200073E0
1.932943516E0,-5.612182617E0,-4.898910522E0,1.488494873E0
1.935384922E0,-5.075881958E0,-5.119171143E0,1.419052124E0
1.937856846E0,-4.556335449E0,-5.224517822E0,1.579467773E0
1.940328770E0,-4.017639160E0,-5.406478882E0,1.881134033E0
1.942770176E0,-3.627395630E0,-5.468719482E0,2.022399902E0
1.945242100E0,-3.493316650E0,-5.418441772E0,1.615386963E0
1.947714024E0,-3.103057861E0,-5.246063232E0,1.553131104E0
1.950155430E0,-2.729568481E0,-5.308319092E0,2.245056152E0
1.952627354E0,-3.009689331E0,-5.700958252E0,2.778961182E0
1.955099278E0,-3.560348511E0,-6.412048340E0,2.762207031E0
1.957540684E0,-3.960189819E0,-7.178192139E0,2.558700562E0
1.960012608E0,-4.345642090E0,-7.671386719E0,1.763824463E0
1.962484531E0,-4.281005859E0,-8.032913208E0,1.495666504E0
1.964925938E0,-3.747100830E0,-8.236419678E0,2.261810303E0
1.967397862E0,-3.083908081E0,-8.351348877E0,3.231460571E0
1.969869785E0,-2.236358643E0,-8.494995117E0,4.241821289E0
1.972341709E0,-1.803009033E0,-8.813430786E0,5.108520508E0
1.974783115E0,-1.575561523E0,-8.990600586E0,5.304840088E0
1.977255039E0,-1.259521484E0,-9.275512695E0,5.450897217E0
1.979696446E0,-9.961547852E-1,-9.565200806E0,6.219436646E0
1.982168369E0,-8.285675049E-1,-9.783081055E0,6.932907104E0
1.984640293E0,-1.005737305E0,-1.005122375E1,7.213027954E0
1.987112217E0,-1.527679443E0,-1.015177917E1,7.282455444E0
1.989553623E0,-1.901168823E0,-1.041754150E1,7.256118774E0
1.992025547E0,-2.475784302E0,-1.090116882E1,7.428497314E0
1.994497471E0,-3.074325562E0,-1.128184509E1,7.433288574E0
1.996969395E0,-3.359237671E0,-1.158113098E1,7.318374634E0
1.999410801E0,-3.601058960E0,-1.166731262E1,7.174713135E0
2.001882725E0,-3.711181641E0,-1.165534973E1,7.074157715E0
2.004354649E0,-4.070312500E0,-1.153323364E1,6.966415405E0
2.006796055E0,-4.216369629E0,-1.126029968E1,6.691085815E0
2.009267979E0,-4.106231689E0,-1.075752258E1,6.173934937E0
2.011739903E0,-3.852447510E0,-1.020924377E1,5.379058838E0
2.014181309E0,-3.639358521E0,-9.854904175E0,4.773330688E0
2.016653233E0,-3.658508301E0,-9.615478516E0,4.385467529E0
2.019125156E0,-3.464584351E0,-9.505355835E0,3.717483521E0
2.021566563E0,-3.057571411E0,-9.481414795E0,3.116546631E0
2.024038487E0,-2.930679321E0,-9.629852295E0,2.805297852E0
2.026510410E0,-2.968978882E0,-9.761535645E0,2.747833252E0
2.028951817E0,-2.739135742E0,-9.842926025E0,2.613769531E0
2.031423740E0,-2.667312622E0,-9.948272705E0,2.498840332E0
2.033895664E0,-2.521270752E0,-1.011827087E1,1.957748413E0
2.036337071E0,-2.257904053E0,-1.031219482E1,1.445388794E0
2.038808994E0,-1.707244873E0,-1.039360046E1,1.119781494E0
2.041280918E0,-1.470214844E0,-1.057316589E1,8.037414551E-1
2.043722324E0,-1.884414673E0,-1.087962341E1,5.020751953E-1
2.046194248E0,-2.518875122E0,-1.140394592E1,-1.491394043E-1
2.048666172E0,-2.200439453E0,-1.149732971E1,-1.371765137E-1
2.051138096E0,-2.020874023E0,-1.147099304E1,2.770233154E-1
2.053579502E0,-1.884414673E0,-1.166252136E1,7.112121582E-2
2.056051426E0,-1.735977173E0,-1.152606201E1,2.219543457E-1
2.058523350E0,-1.340927124E0,-1.123396301E1,1.836547852E-1
2.060964756E0,-1.065597534E0,-1.089877319E1,2.937774658E-1
2.063436680E0,-1.318511963E-1,-1.041514587E1,7.079772949E-1
2.065908604E0,1.530609131E-1,-1.006080627E1,1.629745483E0
2.068350010E0,-5.723876953E-1,-1.048936462E1,2.005630493E0
2.070821934E0,-1.644989014E0,-1.111665344E1,1.888320923E0
2.073293858E0,-2.875610352E0,-1.205996704E1,1.232315063E0
2.075735264E0,-3.328109741E0,-1.282131958E1,1.562713623E0
2.078207188E0,-3.972152710E0,-1.301763916E1,3.504409790E0
2.080679112E0,-4.807723999E0,-1.297694397E1,5.029510498E0
2.083120518E0,-5.207565308E0,-1.279737854E1,4.871490479E0
2.085592442E0,-4.841247559E0,-1.264414978E1,4.356735229E0
2.088064365E0,-4.632949829E0,-1.250289917E1,4.519546509E0
2.090536289E0,-4.072708130E0,-1.211503601E1,4.474060059E0
2.092977696E0,-3.421493530E0,-1.161703491E1,4.246612549E0
2.095449619E0,-2.911529541E0,-1.138479614E1,3.875503540E0
2.097921543E0,-2.746322632E0,-1.147578430E1,3.504409790E0
2.100362949E0,-3.751892090E0,-1.189715576E1,2.989654541E0
2.102834873E0,-4.197204590E0,-1.249331665E1,2.391098022E0
2.105306797E0,-3.534011841E0,-1.282131958E1,2.228302002E0
2.107748203E0,-2.913909912E0,-1.286441040E1,3.470886230E0
2.110220127E0,-2.291427612E0,-1.267288208E1,4.950500488E0
2.112692051E0,-2.585906982E0,-1.244303894E1,5.606521606E0
2.115133457E0,-3.196426392E0,-1.225628662E1,5.324005127E0
2.117605381E0,-3.095870972E0,-1.202404785E1,4.507583618E0
2.120077305E0,-2.708023071E0,-1.181097412E1,4.038314819E0
2.122518711E0,-2.142990112E0,-1.159548950E1,3.679183960E0
2.124990635E0,-1.585128784E0,-1.162901306E1,3.547500610E0
2.127462559E0,-8.237762451E-1,-1.181814575E1,3.413421631E0
2.129934483E0,-3.640899658E-1,-1.181575012E1,3.822830200E0
2.132375889E0,-1.318511963E-1,-1.179420471E1,4.387863159E0
2.134847813E0,8.066711426E-1,-1.189236450E1,4.294494629E0
2.137319737E0,2.075592041E0,-1.174153137E1,3.906631470E0
2.139761143E0,3.904769897E0,-1.091554260E1,2.120559692E0
2.142233067E0,8.665313721E-1,-1.048219299E1,2.323913574E-2
2.144704990E0,-9.698181152E-1,-1.093948364E1,1.526794434E0
2.147146397E0,-2.516479492E0,-1.093708801E1,4.514755249E0
2.149618321E0,-3.919479370E0,-1.109510803E1,4.593765259E0
2.152090244E0,-5.537963867E0,-1.118608093E1,3.518768311E0
2.154531651E0,-6.213119507E0,-1.100411987E1,3.442153931E0
2.157003574E0,-5.169250488E0,-1.080300903E1,3.176406860E0
2.159475498E0,-5.600204468E0,-1.021403503E1,3.573837280E0
2.161916905E0,-6.172424316E0,-9.574783325E0,4.047897339E0
2.164388828E0,-6.040740967E0,-8.947509766E0,4.756576538E0
2.166860752E0,-5.588241577E0,-8.372894287E0,5.175552368E0
2.169332676E0,-4.908294678E0,-7.819839478E0,4.871490479E0
2.171774082E0,-5.181228638E0,-7.202133179E0,5.338363647E0
2.174246006E0,-5.403884888E0,-6.589218140E0,5.757354736E0
2.176717930E0,-5.717529297E0,-6.134307861E0,5.572998047E0
2.179159336E0,-6.131729126E0,-5.775192261E0,5.350341797E0
2.181631260E0,-6.466918945E0,-5.672241211E0,5.491592407E0
2.184072666E0,-6.435791016E0,-5.727294922E0,5.335968018E0
2.186544590E0,-6.265792847E0,-5.770401001E0,5.053451538E0
2.189016514E0,-6.114959717E0,-5.775192261E0,4.785308838E0
2.191488438E0,-6.138900757E0,-5.684204102E0,4.395050049E0
2.193929844E0,-6.919418335E0,-5.559707642E0,4.011978149E0
2.196401768E0,-8.260162354E0,-5.344223022E0,3.341598511E0
2.198873692E0,-9.366287231E0,-5.042556763E0,2.731079102E0
2.201315098E0,-1.001033020E1,-4.798355103E0,2.156463623E0
2.203787022E0,-1.088900757E1,-4.501464844E0,1.459762573E0
2.206258946E0,-1.140376282E1,-4.202194214E0,1.450180054E0
2.208700352E0,-1.160247803E1,-4.295562744E0,1.553131104E0
2.211172276E0,-1.172697449E1,-4.573303223E0,2.027191162E0
2.213644199E0,-1.181555176E1,-4.855804443E0,2.271392822E0
2.216116123E0,-1.175331116E1,-5.143112183E0,2.482086182E0
2.218557530E0,-1.148754883E1,-5.495056152E0,2.604187012E0
2.221029453E0,-1.133432007E1,-5.708145142E0,2.355194092E0
2.223501377E0,-1.137982178E1,-5.914047241E0,1.869171143E0
2.225942783E0,-1.159289551E1,-6.129531860E0,1.526794434E0
2.228414707E0,-1.148275757E1,-6.376129150E0,1.567489624E0
2.230886631E0,-1.103504944E1,-6.582031250E0,1.890716553E0
2.233328037E0,-1.041494751E1,-6.711318970E0,2.616149902E0
2.235799961E0,-9.816406250E0,-7.175796509E0,3.332031250E0
2.238271885E0,-9.466842651E0,-7.767166138E0,3.885086060E0
2.240713291E0,-9.430938721E0,-8.217269897E0,4.313644409E0
2.243185215E0,-9.213058472E0,-8.712875366E0,4.818817139E0
2.245657139E0,-8.976028442E0,-9.218048096E0,4.818817139E0
2.248129063E0,-8.705490112E0,-9.517318726E0,4.430969238E0
2.250570469E0,-8.501983643E0,-9.634643555E0,4.083801270E0
2.253042393E0,-8.054275513E0,-9.749557495E0,4.040710449E0
2.255514317E0,-7.551483154E0,-9.593933105E0,4.081405640E0
2.257955723E0,-7.096588135E0,-9.292266846E0,3.760589600E0
2.260427647E0,-6.677597046E0,-9.292266846E0,3.360748291E0
2.262899571E0,-6.335235596E0,-9.495773315E0,2.843612671E0
2.265340977E0,-6.466918945E0,-9.033691406E0,2.376739502E0
2.267812901E0,-6.378326416E0,-8.878067017E0,2.130126953E0
2.270284824E0,-6.201156616E0,-9.136642456E0,1.785369873E0
2.272726231E0,-6.136505127E0,-9.378463745E0,1.414260864E0
2.275198155E0,-6.081451416E0,-9.395217896E0,1.091049194E0
2.277670078E0,-6.038345337E0,-9.134246826E0,8.683929443E-1
2.280111485E0,-5.832443237E0,-9.115097046E0,8.683929443E-1
2.282583408E0,-5.612182617E0,-9.191711426E0,8.468475342E-1
2.285055332E0,-5.365585327E0,-9.179733276E0,5.810852051E-1
2.287496739E0,-4.968139648E0,-9.215652466E0,3.273010254E-1
2.289968662E0,-4.249877930E0,-9.057632446E0,4.039154053E-1
2.292440586E0,-3.974548340E0,-9.237197876E0,3.823699951E-1
2.294912510E0,-3.993698120E0,-9.323394775E0,7.319183350E-1
2.297353916E0,-3.778228760E0,-9.287475586E0,4.134979248E-1
2.299825840E0,-3.469375610E0,-9.392822266E0,1.285858154E-1
2.302297764E0,-2.947433472E0,-9.605911255E0,-1.060485840E-1
2.304739170E0,-2.688858032E0,-9.874053955E0,-3.191375732E-1
2.307211094E0,-2.447052002E0,-1.025473022E1,-5.705261230E-1
2.309683018E0,-1.858078003E0,-1.069766235E1,-8.530426025E-1
2.312124424E0,-1.446273804E0,-1.108073425E1,-7.237548828E-1
2.314596348E0,-1.044052124E0,-1.083174133E1,-4.651794434E-1
2.317068272E0,-1.366424561E-1,-9.706466675E0,-1.683044434E-1
2.319509678E0,1.434783936E-1,-1.001771545E1,3.009643555E-1
2.321981602E0,1.817932129E-1,-1.036486816E1,4.063110352E-1
2.324453526E0,2.296752930E-1,-1.045823669E1,4.278564453E-1
2.326894932E0,3.206481934E-1,-1.050373840E1,3.488464355E-1
2.329366856E0,2.584075928E-1,-1.067132568E1,2.698364258E-1
2.331838780E0,3.094482422E-2,-1.118847656E1,-6.902313232E-1
2.334310703E0,-2.395935059E-1,-1.142550659E1,-6.136169434E-1
2.336752110E0,-2.994537354E-1,-1.133691406E1,1.007247925E0
2.339224033E0,-2.587432861E-1,-1.129142761E1,1.677627563E0
2.341695957E0,-3.090209961E-1,-1.130818176E1,1.759033203E0
2.344137364E0,-3.162078857E-1,-1.112382507E1,1.842834473E0
2.346609287E0,-5.149230957E-1,-1.098497009E1,1.766220093E0
2.349081211E0,-7.663116455E-1,-1.092031860E1,1.462158203E0
2.351522617E0,-8.333587646E-1,-1.071681213E1,1.296951294E0
2.353994541E0,-8.165893555E-1,-1.055880737E1,1.292160034E0
2.356466465E0,-1.032073975E0,-1.050851440E1,1.486099243E0
2.358907871E0,-1.199661255E0,-1.049415588E1,1.452575684E0
2.361379795E0,-1.374450684E0,-1.043669128E1,1.368774414E0
2.363851719E0,-1.623443604E0,-1.051091003E1,1.488494873E0
2.366293125E0,-1.862869263E0,-1.048219299E1,1.533981323E0
2.368765049E0,-2.044815063E0,-1.027389526E1,1.569885254E0
2.371236973E0,-2.449447632E0,-9.550842285E0,1.548339844E0
2.373708897E0,-2.463806152E0,-9.361694336E0,1.469329834E0
2.376150303E0,-2.334518433E0,-9.129455566E0,1.323287964E0
2.378622227E0,-2.277053833E0,-8.940322876E0,1.553131104E0
2.381094151E0,-1.901168823E0,-8.614715576E0,1.663269043E0
2.383535557E0,-1.635406494E0,-8.439926147E0,1.708755493E0
2.386007481E0,-1.350509644E0,-8.095169067E0,1.615386963E0
2.388479405E0,-1.053619385E0,-7.850952148E0,1.478912354E0
2.390920811E0,-1.008132935E0,-7.757583618E0,1.445388794E0
2.393392735E0,-1.032073975E0,-7.518157959E0,1.464553833E0
2.395864658E0,-1.072769165E0,-7.434371948E0,1.653686523E0
2.398306065E0,-1.032073975E0,-7.410430908E0,1.725509644E0
2.400777989E0,-1.111083984E0,-7.364929199E0,2.012817383E0
2.403249912E0,-8.716583252E-1,-7.408035278E0,2.139709473E0
2.405721836E0,-3.449401855E-1,-7.257202148E0,2.106185913E0
2.408163242E0,-6.002807617E-2,-7.190155029E0,1.924240112E0
2.410635166E0,1.554565430E-1,-7.044113159E0,1.854797363E0
2.413107090E0,9.239807129E-1,-6.333038330E0,1.572280884E0
2.415548496E0,9.886322021E-1,-5.947570801E0,5.715026855E-1
2.418020420E0,6.606292725E-1,-5.878128052E0,1.014434814E0
2.420492344E0,5.672454834E-1,-5.583648682E0,1.431030273E0
2.422933750E0,4.068450928E-1,-5.270004272E0,9.833068848E-1
2.425405674E0,2.560119629E-1,-5.088043213E0,8.923339844E-1
2.427877598E0,1.602325439E-1,-4.922851562E0,1.119781494E0
2.430319004E0,-2.410888672E-2,-4.769622803E0,1.009643555E0
2.432790928E0,-1.581878662E-1,-4.645126343E0,1.093444824E0
2.435262852E0,-2.348022461E-1,-4.573303223E0,1.117385864E0
2.437704258E0,-3.449401855E-1,-4.439224243E0,9.785308838E-1
2.440176182E0,-5.556335449E-1,-4.321899414E0,7.343139648E-1
2.442648106E0,-7.375946045E-1,-4.211776733E0,5.858764648E-1
2.445089512E0,-9.171600342E-1,-4.173461914E0,2.698364258E-1
2.447561436E0,-7.040710449E-1,-4.080093384E0,4.374389648E-1
2.450033360E0,-5.675964355E-1,-4.218948364E0,1.751846313E0
2.452505283E0,-6.274566650E-1,-4.393737793E0,2.668823242E0
2.454946690E0,-7.711029053E-1,-4.566116333E0,3.243438721E0
2.457418614E0,-8.740539551E-1,-4.637939453E0,3.042327881E0
2.459890537E0,-9.099731445E-1,-4.594848633E0,2.367156982E0
2.462331944E0,-8.429260254E-1,-4.618789673E0,1.787765503E0
2.464803867E0,-6.705474854E-1,-4.546966553E0,1.158081055E0
2.467275791E0,-5.532379150E-1,-4.417678833E0,5.020751953E-1
2.469717198E0,-5.125274658E-1,-4.494293213E0,-3.182983398E-2
2.472189121E0,-1.115875244E0,-5.212554932E0,-5.513763428E-1
2.474661045E0,-2.832519531E0,-7.606750488E0,1.094207764E-1
2.477102451E0,-3.972152710E0,-9.445495605E0,2.539535522E0
2.479574375E0,-3.055175781E0,-9.459854126E0,3.059082031E0
2.482046299E0,-1.108688354E0,-1.052528381E1,5.613693237E0
2.484518223E0,1.698150635E-1,-1.247894287E1,7.445266724E0
2.486959629E0,-1.630630493E0,-1.105918884E1,5.400619507E0
2.489431553E0,-2.449447632E0,-9.763931274E0,2.726287842E0
2.491903477E0,-1.594711304E0,-9.809417725E0,1.414260864E0
2.494344883E0,-6.107025146E-1,-9.510147095E0,-1.970367432E-1
2.496816807E0,-6.873168945E-1,-7.922790527E0,-3.175415039E0
2.499288731E0,-1.003341675E0,-6.926788330E0,-4.791503906E0
2.501730137E0,-1.206848145E0,-6.843002319E0,-4.372512817E0
2.504202061E0,-1.391204834E0,-7.460708618E0,-3.302307129E0
2.506673985E0,-1.252334595E0,-8.212478638E0,-1.825088501E0
2.509115391E0,-1.376846313E0,-8.559646606E0,8.787536621E-2
2.511587315E0,-2.107070923E0,-8.894836426E0,2.027191162E0
2.514059239E0,-2.588302612E0,-9.318603516E0,4.023941040E0
2.516500645E0,-2.770263672E0,-1.002967834E1,5.604125977E0
2.518972569E0,-3.648941040E0,-1.022361755E1,6.631240845E0
2.521444492E0,-4.989685059E0,-1.058992004E1,7.270492554E0
2.523916416E0,-6.715911865E0,-1.073835754E1,7.241760254E0
2.526357823E0,-8.267349243E0,-1.031698608E1,7.981567383E0
2.528829746E0,-8.949707031E0,-9.826171875E0,9.722152710E0
2.531301670E0,-8.569015503E0,-9.292266846E0,1.088093567E1
2.533743076E0,-7.482055664E0,-9.361694336E0,9.975936890E0
2.536215000E0,-6.770980835E0,-9.572387695E0,9.058959961E0
2.538686924E0,-6.797317505E0,-8.902008057E0,8.951217651E0
2.541128330E0,-6.739852905E0,-8.140655518E0,8.163528442E0
2.543600254E0,-5.830047607E0,-7.716888428E0,6.932907104E0
2.546072178E0,-4.515640259E0,-7.154251099E0,5.659194946E0
2.548513584E0,-2.470993042E0,-7.743225098E0,4.466873169E0
2.550985508E0,-7.184295654E-1,-8.854125977E0,2.841217041E0
2.553457432E0,8.361816406E-2,-9.292266846E0,-5.493164062E-3
2.555898838E0,3.374023438E-1,-9.383239746E0,-1.717346191E0
2.558370762E0,3.086853027E-1,-9.368881226E0,-1.987899780E0
2.560842686E0,2.392425537E-1,-9.493377686E0,-2.411666870E0
2.563284092E0,-1.342468262E-1,-1.004882812E1,-2.727706909E0
2.565756016E0,-5.125274658E-1,-1.062104797E1,-2.368576050E0
2.568227940E0,-4.215545654E-1,-1.142071533E1,-1.676651001E0
2.570699864E0,1.007781982E0,-1.439669800E1,-2.222518921E0
2.573141270E0,5.149749756E0,-2.059768677E1,-5.124298096E0
2.575613194E0,1.043136597E1,-2.789761353E1,-7.379638672E0
2.578085117E0,1.156620789E1,-3.149609375E1,-5.538497925E0
2.580526524E0,1.099639893E1,-3.369636536E1,-1.137954712E0
2.582998448E0,1.112808228E1,-3.646885681E1,1.105422974E0
2.585470371E0,1.061093140E1,-3.844885254E1,1.536376953E0
2.587911778E0,9.116943359E0,-3.935147095E1,2.913040161E0
2.590383701E0,7.491287231E0,-3.974172974E1,4.735031128E0
2.592855625E0,5.180877686E0,-3.932273865E1,5.470046997E0
2.595327549E0,2.626266479E0,-3.820704651E1,4.672775269E0
2.597768955E0,-1.821289062E-1,-3.640660095E1,3.315261841E0
2.600240879E0,-3.026443481E0,-3.370115662E1,2.448562622E0
2.602682285E0,-4.905899048E0,-3.038040161E1,1.593826294E0
2.605154209E0,-5.267410278E0,-2.643235779E1,6.912231445E-1
2.607626133E0,-4.580276489E0,-2.203900146E1,3.967285156E-1
2.610098057E0,-3.754287720E0,-1.814602661E1,3.656005859E-1
2.612539463E0,-3.064758301E0,-1.506468201E1,5.116577148E-1
2.615011387E0,-2.459014893E0,-1.267048645E1,7.247314453E-1
2.617483311E0,-1.951446533E0,-1.076708984E1,9.474029541E-1
2.619924717E0,-1.384017944E0,-9.215652466E0,1.138931274E0
2.622396641E0,-8.572998047E-1,-8.138259888E0,1.299346924E0
2.624868565E0,-3.473358154E-1,-7.329025269E0,1.328079224E0
2.627309971E0,1.179504395E-2,-6.737655640E0,1.359207153E0
2.629781895E0,4.690856934E-1,-6.395278931E0,1.411880493E0
2.632253819E0,8.377990723E-1,-6.148681641E0,1.397506714E0
2.634695225E0,1.139465332E0,-6.134307861E0,1.414260864E0
2.637167149E0,1.421981812E0,-6.421615601E0,1.210754395E0
2.639639073E0,1.591964722E0,-6.938766479E0,9.641571045E-1
2.642080479E0,1.697311401E0,-7.530136108E0,8.276824951E-1
2.644552403E0,1.615905762E0,-8.111923218E0,9.019165039E-1
2.647024326E0,1.405227661E0,-8.684143066E0,1.014434814E0
2.649496250E0,9.790496826E-1,-9.021728516E0,1.306533813E0
2.651937656E0,4.427490234E-1,-9.196502686E0,1.713546753E0
2.654409580E0,-1.270599365E-1,-9.330581665E0,2.180419922E0
2.656881504E0,-6.226654053E-1,-9.268325806E0,2.697555542E0
2.659322910E0,-1.060806274E0,-9.189315796E0,3.090209961E0
2.661794834E0,-1.467819214E0,-9.057632446E0,3.391876221E0
2.664266758E0,-1.783859253E0,-8.894836426E0,3.602569580E0
2.666708164E0,-1.958633423E0,-8.801452637E0,3.657638550E0
2.669180088E0,-2.013702393E0,-8.784698486E0,3.499618530E0
2.671652012E0,-2.008911133E0,-8.703292847E0,3.286529541E0
2.674093418E0,-1.956237793E0,-8.595550537E0,3.176406860E0
2.676565342E0,-1.793426514E0,-8.693710327E0,2.886703491E0
2.679037266E0,-1.647384644E0,-8.760757446E0,2.513214111E0
2.681478672E0,-1.472610474E0,-8.822998047E0,2.261810303E0
2.683950596E0,-1.283462524E0,-9.016937256E0,1.984085083E0
2.686422520E0,-1.056015015E0,-9.232406616E0,1.756637573E0
2.688894444E0,-9.794006348E-1,-9.467041016E0,1.545944214E0
2.691335850E0,-9.027862549E-1,-9.768707275E0,1.414260864E0
2.693807774E0,-9.722137451E-1,-9.998550415E0,1.261032104E0
2.696279698E0,-9.458770752E-1,-1.028106689E1,1.153305054E0
2.698721104E0,-9.458770752E-1,-1.055401611E1,1.095840454E0
2.701193028E0,-9.889831543E-1,-1.072160339E1,9.617614746E-1
2.703664951E0,-1.032073975E0,-1.082934570E1,9.114837646E-1
2.706106358E0,-9.482727051E-1,-1.102806091E1,9.354248047E-1
2.708578281E0,-8.333587646E-1,-1.111186218E1,1.055145264E0
2.711050205E0,-7.232208252E-1,-1.116932678E1,1.141326904E0
2.713491612E0,-5.963287354E-1,-1.115734863E1,1.392715454E0
2.715963535E0,-5.484466553E-1,-1.121241760E1,1.574676514E0
2.718435459E0,-5.125274658E-1,-1.130339050E1,1.648895264E0
2.720907383E0,-4.215545654E-1,-1.158590698E1,2.087036133E0
2.723348789E0,-3.569030762E-1,-1.194026184E1,2.228302002E0
2.725820713E0,-5.771789551E-1,-1.183731079E1,1.955352783E0
2.728292637E0,-6.896972656E-1,-1.169604492E1,1.782974243E0
2.730734043E0,-6.777343750E-1,-1.158113098E1,1.885925293E0
2.733205967E0,-7.495574951E-1,-1.138000488E1,2.101409912E0
2.735677891E0,-7.280120850E-1,-1.121720886E1,2.173233032E0
2.738119297E0,-7.711029053E-1,-1.097299194E1,2.345611572E0
2.740591221E0,-8.405456543E-1,-1.076231384E1,2.508422852E0
2.743063145E0,-8.668670654E-1,-1.043669128E1,2.879516602E0
2.745474033E0,-8.716583252E-1,-1.017094421E1,3.051895142E0
2.747945957E0,-7.495574951E-1,-9.881240845E0,3.106964111E0
2.750417881E0,-6.561889648E-1,-9.723220825E0,2.968109131E0
2.752889805E0,-4.909820557E-1,-9.605911255E0,2.798110962E0
2.755361729E0,-2.755126953E-1,-9.586761475E0,2.628128052E0
2.757833653E0,-1.294555664E-1,-9.591537476E0,2.506027222E0
2.760305576E0,6.207275391E-2,-9.558029175E0,2.388702393E0
2.762746983E0,2.129058838E-1,-9.572387695E0,2.218719482E0
2.765218906E0,3.805084229E-1,-9.656188965E0,2.027191162E0
2.767690830E0,4.642944336E-1,-9.634643555E0,1.850006104E0
2.770132237E0,5.720367432E-1,-9.692092896E0,1.744674683E0
2.772604160E0,8.665313721E-1,-1.001052856E1,4.230651855E-1
2.775076084E0,1.084396362E0,-1.025712585E1,-1.803543091E0
2.777517490E0,1.273544312E0,-1.018051147E1,-9.607849121E-1
2.779989414E0,1.323822021E0,-1.007995605E1,5.379943848E-1
2.782461338E0,1.180160522E0,-9.974609375E0,1.134140015E0
2.784902744E0,9.646911621E-1,-9.864486694E0,1.440597534E0
2.787374668E0,8.330078125E-1,-9.840545654E0,1.780578613E0
2.789846592E0,8.473663330E-1,-9.787872314E0,2.209136963E0
2.792287998E0,8.354034424E-1,-9.742370605E0,2.711929321E0
2.794759922E0,6.797790527E-1,-9.706466675E0,3.140487671E0
2.797231846E0,5.074005127E-1,-9.790267944E0,3.439758301E0
2.799673252E0,4.427490234E-1,-9.850112915E0,3.609756470E0
2.802145176E0,5.265502930E-1,-9.960250854E0,4.287307739E0
2.804617100E0,1.650238037E-1,-1.004644775E1,3.693542480E0
2.807089024E0,-6.002807617E-2,-1.024995422E1,2.788543701E0
2.809530430E0,-2.371978760E-1,-1.035528564E1,2.438980103E0
2.812002354E0,-3.928222656E-1,-1.034571838E1,2.051132202E0
2.814474278E0,-5.077514648E-1,-1.038880920E1,1.500457764E0
2.816915684E0,-3.808441162E-1,-1.037445068E1,1.146118164E0
2.819387608E0,-2.491760254E-1,-1.045823669E1,8.923339844E-1
2.821859531E0,-5.763244629E-2,-1.046781921E1,6.768493652E-1
2.824300938E0,7.644653320E-2,-1.048696899E1,4.278564453E-1
2.826772862E0,2.057342529E-1,-1.054922485E1,1.764678955E-1
2.829244785E0,3.445892334E-1,-1.053247070E1,1.213989258E-1
2.831686192E0,5.457000732E-1,-1.064978027E1,8.787536621E-2
2.834158115E0,6.773834229E-1,-1.072879028E1,1.692810059E-1
2.836630039E0,7.109069824E-1,-1.074794006E1,2.482910156E-1
2.839101963E0,6.749877930E-1,-1.068807983E1,1.477355957E-1
2.841543369E0,7.444305420E-1,-1.067132568E1,3.153228760E-1
2.844015293E0,8.952636719E-1,-1.064738464E1,5.930633545E-1
2.846487217E0,8.090667725E-1,-1.047500610E1,9.617614746E-1
2.848928623E0,8.138580322E-1,-1.035528564E1,1.296951294E0
2.851400547E0,7.731475830E-1,-1.015657043E1,1.574676514E0
2.853872471E0,7.180938721E-1,-1.006559753E1,1.964935303E0
2.856313877E0,5.217590332E-1,-1.028825378E1,2.307312012E0
2.858785801E0,5.552825928E-1,-1.012544250E1,2.778961182E0
2.861257725E0,5.050048828E-1,-9.895599365E0,3.008804321E0
2.863699131E0,5.337371826E-1,-9.842926025E0,3.279357910E0
2.866171055E0,6.103515625E-1,-9.948272705E0,3.159637451E0
2.868642979E0,5.840148926E-1,-9.948272705E0,3.229080200E0
2.871084385E0,6.486511230E-1,-9.900390625E0,3.267379761E0
2.873556309E0,7.851257324E-1,-9.854904175E0,3.035140991E0
2.876028233E0,9.096221924E-1,-9.874053955E0,2.853179932E0
2.878500156E0,9.766540527E-1,-9.737594604E0,2.647277832E0
2.880941563E0,9.192047119E-1,-9.728012085E0,2.369552612E0
2.883413487E0,8.689270020E-1,-9.716033936E0,2.199569702E0
2.885885410E0,8.880767822E-1,-9.720825195E0,1.991271973E0
2.888326817E0,8.737030029E-1,-9.732803345E0,1.842834473E0
2.890798740E0,8.569488525E-1,-9.835754395E0,1.809310913E0
2.893270664E0,8.665313721E-1,-9.917160034E0,1.826065063E0
2.895712071E0,8.282165527E-1,-9.943496704E0,1.833251953E0
2.898183994E0,6.414794922E-1,-1.003446960E1,1.778182983E0
2.900655918E0,4.379577637E-1,-1.005841064E1,1.780578613E0
2.903097324E0,3.086853027E-1,-9.996170044E0,1.749450684E0
2.905569248E0,1.937561035E-1,-9.988983154E0,1.656082153E0
2.908041172E0,1.219329834E-1,-9.972213745E0,1.603408813E0
2.910482578E0,5.488586426E-2,-1.001052856E1,1.517211914E0
2.912954502E0,5.010986328E-2,-9.988983154E0,1.510040283E0
2.915426426E0,9.080505371E-2,-1.001771545E1,1.543548584E0
2.917898350E0,4.771423340E-2,-9.984191895E0,1.507644653E0
2.920339756E0,8.122253418E-2,-9.991378784E0,1.524398804E0
2.922811680E0,1.578369141E-1,-9.874053955E0,1.543548584E0
2.925253086E0,1.865692139E-1,-9.886032104E0,1.536376953E0
2.927725010E0,2.320709229E-1,-9.859695435E0,1.636932373E0
2.930196934E0,2.033386230E-1,-9.953063965E0,1.562713623E0
2.932668858E0,2.607879639E-1,-9.926727295E0,1.632141113E0
2.935110264E0,2.823486328E-1,-9.890823364E0,1.663269043E0
2.937582188E0,2.416381836E-1,-1.003207397E1,1.601013184E0
2.940054112E0,2.033386230E-1,-1.008474731E1,1.622558594E0
2.942495518E0,1.913604736E-1,-1.014700317E1,1.653686523E0
2.944967442E0,1.650238037E-1,-1.014700317E1,1.703964233E0
2.947439365E0,8.361816406E-2,-1.024516296E1,1.742279053E0
2.949880772E0,1.338958740E-1,-1.019967651E1,1.744674683E0
2.952352696E0,1.865692139E-1,-1.024755859E1,1.692001343E0
2.954824619E0,2.057342529E-1,-1.031219482E1,1.680023193E0
2.957266026E0,2.416381836E-1,-1.025233459E1,1.656082153E0
2.959737949E0,3.445892334E-1,-1.025952148E1,1.593826294E0
2.962209873E0,4.331817627E-1,-1.027389526E1,1.658477783E0
2.964681797E0,3.757171631E-1,-1.029064941E1,1.634536743E0
2.967123203E0,4.044494629E-1,-1.028585815E1,1.677627563E0
2.969595127E0,4.666900635E-1,-1.020205688E1,1.689605713E0
2.972067051E0,5.121917725E-1,-1.020924377E1,1.756637573E0
2.974508457E0,5.385284424E-1,-1.019009399E1,1.771011353E0
2.976980381E0,5.145721436E-1,-1.013502502E1,1.852401733E0
2.979452305E0,5.720367432E-1,-1.006799316E1,1.964935303E0
2.981893711E0,6.223144531E-1,-1.010389709E1,1.962539673E0
2.984365635E0,6.103515625E-1,-1.011108398E1,1.996063232E0
2.986837559E0,6.031646729E-1,-1.020205688E1,1.890716553E0
2.989278965E0,5.792236328E-1,-1.021882629E1,1.806915283E0
2.991750889E0,5.433044434E-1,-1.026670837E1,1.790161133E0
2.994222813E0,5.480957031E-1,-1.026670837E1,1.756637573E0
2.996664219E0,5.026092529E-1,-1.041035461E1,1.653686523E0
2.999136143E0,5.121917725E-1,-1.051330566E1,1.622558594E0
3.001608067E0,5.600738525E-1,-1.042233276E1,1.708755493E0
3.004079990E0,5.409088135E-1,-1.044148254E1,1.742279053E0
3.006521397E0,4.547271729E-1,-1.063302612E1,1.402297974E0
3.008993321E0,3.852996826E-1,-1.065217590E1,1.280197144E0
3.011434727E0,4.619140625E-1,-1.053724670E1,1.409484863E0
3.013906651E0,5.480957031E-1,-1.058274841E1,1.411880493E0
3.016378574E0,5.983734131E-1,-1.050613403E1,1.459762573E0
3.018850498E0,5.648651123E-1,-1.040795898E1,1.481307983E0
3.021291905E0,6.151428223E-1,-1.026431274E1,1.624954224E0
3.023763828E0,6.103515625E-1,-1.021643066E1,1.644104004E0
3.026235752E0,5.504913330E-1,-1.032417297E1,1.620162964E0
3.028677158E0,5.840148926E-1,-1.026191711E1,1.739883423E0
3.031149082E0,5.600738525E-1,-1.018051147E1,1.850006104E0
3.033621006E0,5.361328125E-1,-1.013502502E1,2.254638672E0
3.036062412E0,4.786682129E-1,-1.019248962E1,2.546722412E0
3.038534336E0,4.164123535E-1,-1.028585815E1,2.769393921E0
3.041006260E0,3.565673828E-1,-1.053724670E1,2.695159912E0
3.043447666E0,2.320709229E-1,-1.076948547E1,2.276184082E0
3.045919590E0,-1.454162598E-2,-1.085807800E1,1.165267944E0
3.048391514E0,-2.348022461E-1,-1.093948364E1,-1.180267334E-1
3.050863438E0,-3.664855957E-1,-1.110946655E1,-1.202590942E0
3.053304844E0,-3.401489258E-1,-1.117410278E1,-1.755661011E0
3.055776768E0,-7.917785645E-2,-1.107594299E1,-1.640731812E0
3.058248692E0,2.560119629E-1,-1.096821594E1,-1.037399292E0
3.060690098E0,4.738769531E-1,-1.090356445E1,-1.659088135E-1
3.063162022E0,5.241546631E-1,-1.077667236E1,7.319183350E-1
3.065633946E0,5.217590332E-1,-1.062104797E1,1.536376953E0
3.068075352E0,4.619140625E-1,-1.058035278E1,2.146896362E0
3.070547276E0,5.121917725E-1,-1.052767944E1,2.678405762E0
3.073019199E0,4.523315430E-1,-1.048219299E1,2.891494751E0
3.075460606E0,4.307861328E-1,-1.043908691E1,2.953735352E0
3.077932530E0,4.068450928E-1,-1.039360046E1,2.908248901E0
3.080404453E0,3.613433838E-1,-1.033374023E1,2.731079102E0
3.082876377E0,3.493804932E-1,-1.036007690E1,2.501235962E0
3.085317783E0,3.805084229E-1,-1.033853149E1,2.187591553E0
3.087789707E0,3.637390137E-1,-1.031698608E1,1.929016113E0
3.090261631E0,3.924713135E-1,-1.032417297E1,1.706359863E0
3.092703037E0,4.475402832E-1,-1.026431274E1,1.629745483E0
3.095174961E0,4.690856934E-1,-1.023797607E1,1.581863403E0
3.097646885E0,5.097961426E-1,-1.020205688E1,1.495666504E0
3.100088291E0,5.912017822E-1,-1.013742065E1,1.536376953E0
3.102560215E0,5.912017822E-1,-1.008235168E1,1.531585693E0
3.105032139E0,6.007690430E-1,-1.008714294E1,1.517211914E0
3.107473545E0,5.696411133E-1,-1.002011108E1,1.486099243E0
3.109945469E0,5.409088135E-1,-9.988983154E0,1.431030273E0
3.112417393E0,4.978179932E-1,-1.000813293E1,1.435821533E0
3.114858799E0,4.523315430E-1,-1.002728271E1,1.445388794E0
3.117330723E0,4.331817627E-1,-1.004882812E1,1.433425903E0
3.119802647E0,4.451446533E-1,-1.003686523E1,1.447784424E0
3.122244053E0,3.900756836E-1,-1.006320190E1,1.486099243E0
3.124715977E0,3.637390137E-1,-1.010389709E1,1.531585693E0
3.127187901E0,3.469848633E-1,-1.022361755E1,1.615386963E0
3.129659824E0,3.062896729E-1,-1.027867126E1,1.629745483E0
3.132101231E0,3.589630127E-1,-1.026191711E1,1.694396973E0
3.134573155E0,3.350219727E-1,-1.034571838E1,1.696777344E0
3.137045078E0,3.230438232E-1,-1.042233276E1,1.720733643E0
3.139486485E0,3.014984131E-1,-1.055880737E1,1.739883423E0
3.141958408E0,2.655792236E-1,-1.059950256E1,1.732696533E0
3.144430332E0,2.943115234E-1,-1.058512878E1,1.682418823E0
3.146871739E0,2.943115234E-1,-1.063780212E1,1.617782593E0
3.149343662E0,2.967071533E-1,-1.070245361E1,1.617782593E0
3.151815586E0,3.326263428E-1,-1.065217590E1,1.622558594E0
3.154256992E0,3.254394531E-1,-1.063063049E1,1.517211914E0
3.156728916E0,2.703704834E-1,-1.068090820E1,1.560317993E0
3.159200840E0,2.727661133E-1,-1.068330383E1,1.510040283E0
3.161672764E0,2.847290039E-1,-1.063063049E1,1.526794434E0
3.164114170E0,2.895202637E-1,-1.066413879E1,1.586654663E0
3.166586094E0,3.062896729E-1,-1.069287109E1,1.596221924E0
3.169058018E0,2.991027832E-1,-1.062104797E1,1.620162964E0
3.171499424E0,3.014984131E-1,-1.055401611E1,1.651290894E0
3.173971348E0,3.206481934E-1,-1.058752441E1,1.725509644E0
3.176443272E0,3.206481934E-1,-1.060908508E1,1.763824463E0
3.178884678E0,3.589630127E-1,-1.058274841E1,1.751846313E0
3.181356602E0,3.661346436E-1,-1.052049255E1,1.816497803E0
3.183828526E0,4.044494629E-1,-1.047979736E1,1.842834473E0
3.186269932E0,4.738769531E-1,-1.032417297E1,1.859588623E0
3.188741856E0,4.834594727E-1,-1.024516296E1,1.876342773E0
3.191213780E0,4.642944336E-1,-1.016615295E1,1.976898193E0
3.193655186E0,4.906311035E-1,-1.010389709E1,2.041549683E0
3.196127110E0,5.002136230E-1,-9.979400635E0,2.146896362E0
3.198599033E0,5.026092529E-1,-9.907577515E0,2.206756592E0
3.201070957E0,5.002136230E-1,-9.890823364E0,2.237869263E0
3.203512364E0,4.714813232E-1,-9.924331665E0,2.297729492E0
3.205984287E0,5.121917725E-1,-9.838150024E0,2.206756592E0
3.208456211E0,5.935821533E-1,-9.718429565E0,2.338424683E0
3.210897617E0,6.271057129E-1,-9.639419556E0,2.386306763E0
3.213369541E0,5.935821533E-1,-9.627456665E0,2.630523682E0
3.215810948E0,5.864105225E-1,-9.627456665E0,3.150070190E0
3.218282871E0,5.576782227E-1,-9.718429565E0,3.904235840E0
3.220754795E0,4.690856934E-1,-9.984191895E0,4.383071899E0
3.223226719E0,4.020538330E-1,-1.002967834E1,4.007186890E0
3.225668125E0,4.355773926E-1,-9.857299805E0,2.958526611E0
3.228140049E0,4.666900635E-1,-9.775894165E0,2.031967163E0
3.230611973E0,5.145721436E-1,-9.763931274E0,1.320892334E0
3.233083897E0,5.026092529E-1,-9.811813354E0,7.750091553E-1
3.235525303E0,5.552825928E-1,-9.840545654E0,1.692810059E-1
3.237997227E0,5.959777832E-1,-9.998550415E0,-1.922454834E-1
3.240469151E0,6.678161621E-1,-1.016136169E1,-4.268798828E-1
3.242910557E0,7.731475830E-1,-1.022122192E1,-4.987030029E-1
3.245382481E0,8.066711426E-1,-1.039120483E1,-2.736511230E-1
3.247854405E0,8.760986328E-1,-1.061625671E1,1.126098633E-2
3.250295811E0,8.928680420E-1,-1.079342651E1,5.260162354E-1
3.252767735E0,8.497619629E-1,-1.084370422E1,1.071899414E0
3.255239658E0,7.156982422E-1,-1.093229675E1,1.701568604E0
3.257681065E0,4.906311035E-1,-1.102326965E1,2.187591553E0
3.260152989E0,2.560119629E-1,-1.099693298E1,2.642486572E0
3.262624912E0,1.171417236E-1,-1.094905090E1,2.920227051E0
3.265066319E0,-7.200622559E-2,-1.087243652E1,3.013595581E0
3.267538242E0,-1.821289062E-1,-1.087004089E1,2.934585571E0
3.270010166E0,-2.731170654E-1,-1.083413696E1,2.766998291E0
3.272451573E0,-3.377532959E-1,-1.072160339E1,2.527572632E0
3.274923496E0,-3.473358154E-1,-1.065936279E1,2.348007202E0
3.277395420E0,-3.497314453E-1,-1.057556152E1,2.254638672E0
3.279867344E0,-2.276153564E-1,-1.058035278E1,1.912261963E0
3.282308750E0,-4.566955566E-2,-1.063063049E1,1.581863403E0
3.284780674E0,1.003875732E-1,-1.063780212E1,1.454971313E0
3.287252598E0,7.644653320E-2,-1.052288818E1,1.373565674E0
3.289694004E0,1.362915039E-1,-1.039360046E1,1.397506714E0
3.292165928E0,2.464294434E-1,-1.034332275E1,1.407089233E0
3.294637852E0,2.943115234E-1,-1.030740356E1,1.426239014E0
3.297079258E0,3.541717529E-1,-1.030979919E1,1.416656494E0
3.299551182E0,4.714813232E-1,-1.036007690E1,1.471725464E0
3.302023106E0,5.385284424E-1,-1.034092712E1,1.433425903E0
3.304495030E0,5.504913330E-1,-1.034332275E1,1.421447754E0
3.306936436E0,5.265502930E-1,-1.034811401E1,1.428634644E0
3.309408360E0,4.738769531E-1,-1.041754150E1,1.426239014E0
3.311880283E0,4.834594727E-1,-1.043429565E1,1.411880493E0
3.314321690E0,3.972625732E-1,-1.037684631E1,1.387939453E0
3.316793614E0,3.469848633E-1,-1.037924194E1,1.488494873E0
3.319235020E0,3.397979736E-1,-1.032656860E1,1.476516724E0
3.321706944E0,3.541717529E-1,-1.029304504E1,1.502853394E0
3.324178867E0,3.972625732E-1,-1.035290527E1,1.526794434E0
3.326650791E0,4.188079834E-1,-1.042233276E1,1.486099243E0
3.329092198E0,3.589630127E-1,-1.043429565E1,1.531585693E0
3.331564121E0,3.637390137E-1,-1.043190002E1,1.507644653E0
3.334036045E0,3.709259033E-1,-1.044387817E1,1.500457764E0
3.336477451E0,4.092407227E-1,-1.054443359E1,1.543548584E0
3.338949375E0,4.882507324E-1,-1.072399902E1,1.545944214E0
3.341421299E0,4.307861328E-1,-1.075033569E1,1.510040283E0
3.343862705E0,2.943115234E-1,-1.071203613E1,1.510040283E0
3.346334629E0,1.746063232E-1,-1.065696716E1,1.529190063E0
3.348806553E0,2.057342529E-1,-1.056597900E1,1.505249023E0
3.351278477E0,2.679748535E-1,-1.054203796E1,1.507644653E0
3.353719883E0,3.350219727E-1,-1.050851440E1,1.531585693E0
3.356191807E0,3.996582031E-1,-1.050613403E1,1.478912354E0
3.358663731E0,4.283905029E-1,-1.049894714E1,1.440597534E0
3.361105137E0,4.858551025E-1,-1.056358337E1,1.517211914E0
3.363577061E0,4.379577637E-1,-1.056597900E1,1.548339844E0
3.366048985E0,4.140167236E-1,-1.052767944E1,1.608200073E0
3.368490391E0,3.421936035E-1,-1.045823669E1,1.658477783E0
3.370962315E0,3.924713135E-1,-1.038162231E1,1.658477783E0
3.373434239E0,3.876800537E-1,-1.039599609E1,1.665664673E0
3.375875645E0,4.523315430E-1,-1.042951965E1,1.612991333E0
3.378347569E0,4.762725830E-1,-1.039839172E1,1.579467773E0
3.380819492E0,4.714813232E-1,-1.040078735E1,1.603408813E0
3.383260899E0,4.259948730E-1,-1.035290527E1,1.622558594E0
3.385732823E0,4.235992432E-1,-1.036965942E1,1.601013184E0
3.388204746E0,4.451446533E-1,-1.031938171E1,1.567489624E0
3.390646153E0,4.547271729E-1,-1.030979919E1,1.543548584E0
3.393118076E0,4.619140625E-1,-1.027867126E1,1.517211914E0
3.395590000E0,4.666900635E-1,-1.021403503E1,1.469329834E0
3.398061924E0,4.786682129E-1,-1.014221191E1,1.545944214E0
3.400503330E0,4.810638428E-1,-1.018051147E1,1.541168213E0
3.402975254E0,4.714813232E-1,-1.013981628E1,1.512435913E0
3.405447178E0,4.714813232E-1,-1.016136169E1,1.533981323E0
3.407888584E0,5.145721436E-1,-1.018530273E1,1.481307983E0
3.410360508E0,5.672454834E-1,-1.021163940E1,1.495666504E0
3.412832432E0,5.289459229E-1,-1.023558044E1,1.548339844E0
3.415273838E0,5.026092529E-1,-1.027867126E1,1.584259033E0
3.417745762E0,5.002136230E-1,-1.030979919E1,1.581863403E0
3.420217686E0,5.050048828E-1,-1.034092712E1,1.569885254E0
3.422689610E0,4.954223633E-1,-1.036007690E1,1.629745483E0
3.425131016E0,5.217590332E-1,-1.040318298E1,1.579467773E0
3.427602940E0,5.720367432E-1,-1.042233276E1,1.562713623E0
3.430044346E0,5.337371826E-1,-1.040557861E1,1.639328003E0
3.432516270E0,5.361328125E-1,-1.046063232E1,1.608200073E0
3.434988194E0,5.672454834E-1,-1.048219299E1,1.615386963E0
3.437460117E0,5.433044434E-1,-1.048696899E1,1.605804443E0
3.439901524E0,5.313415527E-1,-1.051091003E1,1.517211914E0
3.442373448E0,5.145721436E-1,-1.057077026E1,1.522003174E0
3.444845371E0,4.834594727E-1,-1.055162048E1,1.517211914E0
3.447317295E0,4.523315430E-1,-1.058992004E1,1.536376953E0
3.449758701E0,4.283905029E-1,-1.062583923E1,1.505249023E0
3.452230625E0,3.852996826E-1,-1.061625671E1,1.519607544E0
3.454672031E0,3.637390137E-1,-1.063542175E1,1.505249023E0
3.457143955E0,3.829040527E-1,-1.065457153E1,1.438217163E0
3.459615879E0,3.900756836E-1,-1.064498901E1,1.454971313E0
3.462057285E0,4.235992432E-1,-1.068569946E1,1.426239014E0
3.464529209E0,4.116363525E-1,-1.069047546E1,1.399902344E0
3.467001133E0,3.685302734E-1,-1.066174316E1,1.390319824E0
3.469473057E0,3.829040527E-1,-1.068807983E1,1.347229004E0
3.471914463E0,3.757171631E-1,-1.069287109E1,1.306533813E0
3.474386387E0,3.972625732E-1,-1.070245361E1,1.225128174E0
3.476858311E0,3.302307129E-1,-1.070005798E1,1.253860474E0
3.479299717E0,3.374023438E-1,-1.071441650E1,1.304138184E0
3.481771641E0,4.379577637E-1,-1.071441650E1,1.251464844E0
3.484243565E0,4.571228027E-1,-1.068330383E1,1.150909424E0
3.486684971E0,4.954223633E-1,-1.073597717E1,1.071899414E0
3.489156895E0,5.313415527E-1,-1.065457153E1,1.067108154E0
3.491628819E0,4.954223633E-1,-1.064978027E1,1.035980225E0
3.494070225E0,5.385284424E-1,-1.064498901E1,1.105422974E0
3.496542149E0,5.840148926E-1,-1.064978027E1,1.126968384E0
3.499014073E0,6.821746826E-1,-1.060429382E1,1.153305054E0
3.501485996E0,6.678161621E-1,-1.058035278E1,1.203582764E0
3.503927403E0,6.893615723E-1,-1.053007507E1,1.191604614E0
3.506399326E0,6.366882324E-1,-1.045585632E1,1.153305054E0
3.508871250E0,7.228698730E-1,-1.046781921E1,1.170059204E0
3.511312656E0,7.109069824E-1,-1.046302795E1,1.136535645E0
3.513784580E0,6.893615723E-1,-1.045346069E1,1.296951294E0
3.516256504E0,6.821746826E-1,-1.048219299E1,1.371170044E0
3.518697910E0,7.420349121E-1,-1.043669128E1,1.337646484E0
3.521169834E0,7.444305420E-1,-1.044148254E1,1.330474854E0
3.523641758E0,6.678161621E-1,-1.041993713E1,1.328079224E0
3.526083164E0,6.582336426E-1,-1.039839172E1,1.225128174E0
3.528555088E0,6.582336426E-1,-1.037924194E1,1.150909424E0
3.531027012E0,6.606292725E-1,-1.038401794E1,1.299346924E0
3.533468418E0,6.582336426E-1,-1.033374023E1,1.323287964E0
3.535940342E0,6.941375732E-1,-1.028585815E1,1.342437744E0
3.538412266E0,6.965332031E-1,-1.029783630E1,1.301742554E0
3.540853672E0,6.414794922E-1,-1.030023193E1,1.311325073E0
3.543325596E0,6.127471924E-1,-1.030500793E1,1.402297974E0
3.545797520E0,5.935821533E-1,-1.027389526E1,1.433425903E0
3.548269444E0,5.576782227E-1,-1.025473022E1,1.538772583E0
3.550710850E0,5.433044434E-1,-1.021403503E1,1.612991333E0
3.553182774E0,5.074005127E-1,-1.023558044E1,1.723114014E0
3.555654698E0,4.571228027E-1,-1.025233459E1,1.771011353E0
3.558096104E0,5.504913330E-1,-1.028346252E1,1.792556763E0
3.560568028E0,4.714813232E-1,-1.032417297E1,1.744674683E0
3.563039951E0,4.666900635E-1,-1.034092712E1,1.694396973E0
3.565481358E0,3.733215332E-1,-1.035290527E1,1.790161133E0
3.567953281E0,2.991027832E-1,-1.041993713E1,1.701568604E0
3.570425205E0,3.230438232E-1,-1.042951965E1,1.653686523E0
3.572866612E0,3.014984131E-1,-1.047979736E1,1.744674683E0
3.575338535E0,2.823486328E-1,-1.047261047E1,1.759033203E0
3.577810459E0,2.751617432E-1,-1.053724670E1,1.744674683E0
3.580251865E0,2.560119629E-1,-1.052288818E1,1.682418823E0
3.582723789E0,2.392425537E-1,-1.057077026E1,1.696777344E0
3.585195713E0,2.536163330E-1,-1.056597900E1,1.708755493E0
3.587667637E0,2.344512939E-1,-1.059471130E1,1.749450684E0
3.590109043E0,2.344512939E-1,-1.064738464E1,1.701568604E0
3.592580967E0,2.224884033E-1,-1.061146545E1,1.682418823E0
3.595052891E0,2.129058838E-1,-1.060429382E1,1.708755493E0
3.597494297E0,2.392425537E-1,-1.056597900E1,1.682418823E0
3.599966221E0,3.397979736E-1,-1.057556152E1,1.639328003E0
3.602438145E0,3.733215332E-1,-1.061146545E1,1.589050293E0
3.604879551E0,3.541717529E-1,-1.060668945E1,1.584259033E0
3.607351475E0,3.350219727E-1,-1.058512878E1,1.610595703E0
3.609823399E0,3.637390137E-1,-1.058274841E1,1.584259033E0
3.612264805E0,3.948669434E-1,-1.062344360E1,1.601013184E0
3.614736729E0,3.948669434E-1,-1.061146545E1,1.567489624E0
3.617208653E0,4.595184326E-1,-1.057556152E1,1.565109253E0
3.619650059E0,4.140167236E-1,-1.054922485E1,1.567489624E0
3.622121983E0,4.403533936E-1,-1.055880737E1,1.538772583E0
3.624593906E0,5.121917725E-1,-1.052049255E1,1.577072144E0
3.627065830E0,4.642944336E-1,-1.049415588E1,1.550735474E0
3.629507237E0,4.642944336E-1,-1.054203796E1,1.572280884E0
3.631979160E0,4.571228027E-1,-1.053247070E1,1.584259033E0
3.634420567E0,4.762725830E-1,-1.049655151E1,1.567489624E0
3.636892490E0,5.409088135E-1,-1.046302795E1,1.596221924E0
3.639364414E0,5.145721436E-1,-1.044866943E1,1.562713623E0
3.641836338E0,5.361328125E-1,-1.046063232E1,1.502853394E0
3.644277744E0,5.337371826E-1,-1.046781921E1,1.529190063E0
3.646749668E0,5.217590332E-1,-1.043190002E1,1.545944214E0
3.649221592E0,5.983734131E-1,-1.036726379E1,1.620162964E0
3.651662998E0,6.390838623E-1,-1.032894897E1,1.670440674E0
3.654134922E0,7.061157227E-1,-1.034811401E1,1.677627563E0
3.656606846E0,6.941375732E-1,-1.031219482E1,1.730300903E0
3.659048252E0,7.539978027E-1,-1.028585815E1,1.713546753E0
3.661520176E0,7.372436523E-1,-1.028825378E1,1.727905273E0
3.663992100E0,7.827301025E-1,-1.024995422E1,1.826065063E0
3.666464024E0,8.090667725E-1,-1.018769836E1,1.967330933E0
3.668905430E0,8.234252930E-1,-1.018769836E1,1.871566772E0
3.671377354E0,8.737030029E-1,-1.020924377E1,1.763824463E0
3.673818760E0,8.521575928E-1,-1.013742065E1,1.701568604E0
3.676290684E0,8.473663330E-1,-1.009910583E1,1.620162964E0
3.678762608E0,8.018798828E-1,-1.007516479E1,1.519607544E0
3.681234531E0,8.018798828E-1,-9.984191895E0,1.433425903E0
3.683675938E0,8.210449219E-1,-1.001292419E1,1.426239014E0
3.686147862E0,8.090667725E-1,-9.988983154E0,1.328079224E0
3.688619785E0,7.827301025E-1,-9.924331665E0,1.380752563E0
3.691061192E0,7.611846924E-1,-9.850112915E0,1.478912354E0
3.693533115E0,7.156982422E-1,-9.912368774E0,1.411880493E0
3.696005039E0,7.324523926E-1,-9.881240845E0,1.342437744E0
3.698476963E0,6.749877930E-1,-9.811813354E0,1.340042114E0
3.700918369E0,6.462554932E-1,-9.732803345E0,1.330474854E0
3.703390293E0,5.552825928E-1,-9.751953125E0,1.426239014E0
3.705862217E0,5.026092529E-1,-9.725616455E0,1.433425903E0
3.708303623E0,5.002136230E-1,-9.751953125E0,1.330474854E0
3.710775547E0,5.337371826E-1,-9.751953125E0,1.208374023E0
3.713247471E0,5.217590332E-1,-9.818984985E0,1.234710693E0
3.715688877E0,5.145721436E-1,-9.857299805E0,1.225128174E0
3.718160801E0,5.576782227E-1,-9.876449585E0,1.170059204E0
3.720632725E0,5.433044434E-1,-9.890823364E0,1.198791504E0
3.723074131E0,5.337371826E-1,-9.938705444E0,1.237091064E0
3.725546055E0,4.666900635E-1,-9.953063965E0,1.177246094E0
3.728017979E0,4.810638428E-1,-9.950668335E0,1.198791504E0
3.730459385E0,4.331817627E-1,-9.969833374E0,1.299346924E0
3.732931309E0,4.379577637E-1,-1.001771545E1,1.366378784E0
3.735403233E0,4.427490234E-1,-9.967437744E0,1.347229004E0
3.737844639E0,4.331817627E-1,-9.972213745E0,1.344833374E0
3.740316563E0,4.595184326E-1,-9.984191895E0,1.332870483E0
3.742788487E0,4.475402832E-1,-9.979400635E0,1.344833374E0
3.745260410E0,4.259948730E-1,-9.986587524E0,1.268218994E0
3.747701817E0,3.948669434E-1,-9.981796265E0,1.349624634E0
3.750173740E0,4.235992432E-1,-9.974609375E0,1.383148193E0
3.752645664E0,4.044494629E-1,-9.962646484E0,1.419052124E0
3.755087071E0,3.948669434E-1,-9.957855225E0,1.663269043E0
3.757558994E0,4.307861328E-1,-9.993774414E0,1.577072144E0
3.760030918E0,4.379577637E-1,-1.004882812E1,1.450180054E0
3.762472324E0,4.283905029E-1,-1.008714294E1,1.390319824E0
3.764944248E0,3.445892334E-1,-1.012306213E1,1.387939453E0
3.767416172E0,3.589630127E-1,-1.017811584E1,1.342437744E0
3.769857578E0,3.110656738E-1,-1.018530273E1,1.373565674E0
3.772329502E0,2.631835938E-1,-1.024516296E1,1.423843384E0
3.774801426E0,2.560119629E-1,-1.028106689E1,1.407089233E0
3.777242832E0,2.631835938E-1,-1.030262756E1,1.447784424E0
3.779714756E0,2.751617432E-1,-1.037684631E1,1.548339844E0
3.782186680E0,2.512207031E-1,-1.047261047E1,1.538772583E0
3.784658604E0,2.057342529E-1,-1.050613403E1,1.536376953E0
3.787100010E0,2.057342529E-1,-1.053964233E1,1.553131104E0
3.789571934E0,2.105102539E-1,-1.061625671E1,1.505249023E0
3.792043858E0,1.985473633E-1,-1.066653442E1,1.608200073E0
3.794485264E0,1.458740234E-1,-1.067851257E1,1.577072144E0
3.796957188E0,1.099548340E-1,-1.069287109E1,1.555526733E0
3.799429112E0,1.267242432E-1,-1.071920776E1,1.531585693E0
3.801870518E0,1.219329834E-1,-1.074314880E1,1.557922363E0
3.804342442E0,1.147460938E-1,-1.073835754E1,1.555526733E0
3.806814365E0,9.320068359E-2,-1.070245361E1,1.567489624E0
3.809255772E0,3.813171387E-2,-1.064738464E1,1.483703613E0
3.811727696E0,5.967712402E-2,-1.068807983E1,1.493270874E0
3.814199619E0,4.771423340E-2,-1.071681213E1,1.435821533E0
3.816671543E0,2.854919434E-2,-1.066174316E1,1.447784424E0
3.819112949E0,-2.563476562E-3,-1.070005798E1,1.440597534E0
3.821584873E0,-5.044555664E-2,-1.065696716E1,1.457366943E0
3.824056797E0,-3.608703613E-2,-1.063542175E1,1.433425903E0
3.826498203E0,-2.890014648E-2,-1.059231567E1,1.438217163E0
3.828970127E0,-4.806518555E-2,-1.058274841E1,1.411880493E0
3.831442051E0,-7.917785645E-2,-1.060429382E1,1.385543823E0
3.833883457E0,-8.636474609E-2,-1.057556152E1,1.311325073E0
3.836355381E0,-9.355163574E-2,-1.056118774E1,1.344833374E0
3.838827305E0,-7.917785645E-2,-1.058512878E1,1.356811523E0
3.841268711E0,-7.917785645E-2,-1.059710693E1,1.347229004E0
3.843740635E0,-1.031188965E-1,-1.056597900E1,1.311325073E0
3.846212559E0,-1.294555664E-1,-1.053724670E1,1.294555664E0
3.848653965E0,-1.174926758E-1,-1.049894714E1,1.308929443E0
3.851125889E0,-9.594726562E-2,-1.053247070E1,1.356811523E0
3.853597813E0,-7.200622559E-2,-1.049415588E1,1.292160034E0
3.856069737E0,-5.284118652E-2,-1.048696899E1,1.284988403E0
3.858511143E0,-1.103057861E-1,-1.052767944E1,1.304138184E0
3.860983067E0,-1.510009766E-1,-1.048936462E1,1.239486694E0
3.863454990E0,-9.355163574E-2,-1.052528381E1,1.258651733E0
3.865896397E0,-1.390380859E-1,-1.050851440E1,1.316101074E0
3.868368321E0,-9.594726562E-2,-1.051570129E1,1.261032104E0
3.870809727E0,-9.594726562E-2,-1.049176025E1,1.287368774E0
3.873281651E0,-1.318511963E-1,-1.047261047E1,1.289764404E0
3.875753574E0,-1.079101562E-1,-1.045346069E1,1.304138184E0
3.878225498E0,-1.486206055E-1,-1.041754150E1,1.296951294E0
3.880666905E0,-1.821289062E-1,-1.038162231E1,1.435821533E0
3.883138828E0,-1.198883057E-1,-1.033134460E1,1.648895264E0
3.885610752E0,-7.678222656E-2,-1.032894897E1,1.457366943E0
3.888082676E0,-6.961059570E-2,-1.030979919E1,1.304138184E0
3.890524082E0,-6.002807617E-2,-1.029304504E1,1.162872314E0
3.892996006E0,-6.721496582E-2,-1.025712585E1,1.076690674E0
3.895467930E0,-1.007232666E-1,-1.026910400E1,1.086257935E0
3.897909336E0,-8.396911621E-2,-1.026910400E1,1.045562744E0
3.900381260E0,-7.917785645E-2,-1.029544067E1,1.076690674E0
3.902853184E0,-6.481933594E-2,-1.033374023E1,1.129364014E0
3.905294590E0,-1.198883057E-1,-1.030500793E1,1.103027344E0
3.907766514E0,-1.773376465E-1,-1.033613586E1,1.103027344E0
3.910238438E0,-1.845245361E-1,-1.037924194E1,1.107803345E0
3.912679844E0,-2.132568359E-1,-1.041514587E1,1.162872314E0
3.915151768E0,-1.533966064E-1,-1.040557861E1,1.184417725E0
3.917623692E0,-1.510009766E-1,-1.041993713E1,1.184417725E0
3.920065098E0,-1.677703857E-1,-1.043908691E1,1.194000244E0
3.922537022E0,-2.012939453E-1,-1.047500610E1,1.256256104E0
3.925008946E0,-1.869201660E-1,-1.045585632E1,1.253860474E0
3.927450352E0,-1.869201660E-1,-1.047261047E1,1.289764404E0
3.929922276E0,-1.773376465E-1,-1.045823669E1,1.311325073E0
3.932394199E0,-1.821289062E-1,-1.049655151E1,1.308929443E0
3.934866123E0,-1.749572754E-1,-1.049894714E1,1.301742554E0
3.937307530E0,-9.115600586E-2,-1.052049255E1,1.335266113E0
3.939779453E0,-1.079101562E-1,-1.053964233E1,1.306533813E0
3.942251377E0,-8.636474609E-2,-1.051570129E1,1.390319824E0
3.944692783E0,-7.200622559E-2,-1.051330566E1,1.325683594E0
3.947164707E0,-7.438659668E-2,-1.050134277E1,1.325683594E0
3.949606114E0,-8.396911621E-2,-1.048936462E1,1.258651733E0
3.952078037E0,-2.650451660E-2,-1.047740173E1,1.301742554E0
3.954549961E0,2.137756348E-2,-1.044148254E1,1.375961304E0
3.957021885E0,2.137756348E-2,-1.041993713E1,1.361602783E0
3.959463291E0,9.399414062E-3,-1.040318298E1,1.416656494E0
3.961935215E0,1.027832031E-1,-1.040318298E1,1.402297974E0
3.964407139E0,1.003875732E-1,-1.039599609E1,1.344833374E0
3.966848545E0,1.267242432E-1,-1.038401794E1,1.359207153E0
3.969320469E0,1.267242432E-1,-1.031938171E1,1.395111084E0
3.971792393E0,1.698150635E-1,-1.034811401E1,1.361602783E0
3.974233799E0,1.506652832E-1,-1.026910400E1,1.380752563E0
3.976705723E0,1.961517334E-1,-1.029064941E1,1.378356934E0
3.979177647E0,1.865692139E-1,-1.024276733E1,1.421447754E0
3.981649571E0,1.698150635E-1,-1.016375732E1,1.663269043E0
3.984090977E0,1.770019531E-1,-1.015657043E1,1.845230103E0
3.986562901E0,2.751617432E-1,-1.016615295E1,1.617782593E0
3.989034824E0,3.302307129E-1,-1.017094421E1,1.464553833E0
3.991476231E0,3.206481934E-1,-1.016615295E1,1.459762573E0
3.993948155E0,2.943115234E-1,-1.013502502E1,1.373565674E0
3.996420078E0,2.296752930E-1,-1.012066650E1,1.292160034E0
3.998861485E0,2.584075928E-1,-1.012066650E1,1.282592773E0
4.001333408E0,2.679748535E-1,-1.010150146E1,1.313705444E0
4.003805332E0,2.967071533E-1,-1.006799316E1,1.361602783E0
4.006246739E0,3.589630127E-1,-1.005601501E1,1.387939453E0
4.008718662E0,3.829040527E-1,-1.009193420E1,1.459762573E0
4.011190586E0,3.972625732E-1,-1.010150146E1,1.500457764E0
4.013631992E0,4.283905029E-1,-1.007516479E1,1.505249023E0
4.016103916E0,4.690856934E-1,-1.008235168E1,1.517211914E0
4.018575840E0,4.978179932E-1,-1.012544250E1,1.510040283E0
4.021047764E0,5.074005127E-1,-1.016136169E1,1.550735474E0
4.023489170E0,5.217590332E-1,-1.014939880E1,1.452575684E0
4.025961094E0,4.690856934E-1,-1.015896606E1,1.411880493E0
4.028433018E0,5.026092529E-1,-1.018530273E1,1.435821533E0
4.030874424E0,5.265502930E-1,-1.024995422E1,1.452575684E0
4.033346348E0,5.337371826E-1,-1.024995422E1,1.462158203E0
4.035818272E0,5.265502930E-1,-1.028346252E1,1.459762573E0
4.038259678E0,5.193634033E-1,-1.032894897E1,1.392715454E0
4.040731602E0,5.409088135E-1,-1.036007690E1,1.435821533E0
4.043203526E0,5.433044434E-1,-1.041035461E1,1.421447754E0
4.045644932E0,5.409088135E-1,-1.039599609E1,1.399902344E0
4.048116856E0,6.223144531E-1,-1.041514587E1,1.366378784E0
4.050588780E0,5.888061523E-1,-1.047021484E1,1.423843384E0
4.053030186E0,6.175231934E-1,-1.047261047E1,1.390319824E0
4.055502110E0,6.558380127E-1,-1.049415588E1,1.404693604E0
4.057974033E0,6.271057129E-1,-1.048219299E1,1.423843384E0
4.060445957E0,6.223144531E-1,-1.048696899E1,1.325683594E0
4.062887364E0,6.414794922E-1,-1.052528381E1,1.304138184E0
4.065359287E0,6.582336426E-1,-1.052049255E1,1.284988403E0
4.067831211E0,6.318969727E-1,-1.048457336E1,1.289764404E0
4.070272617E0,6.055603027E-1,-1.048936462E1,1.208374023E0
4.072744541E0,6.582336426E-1,-1.050613403E1,1.253860474E0
4.075216465E0,6.582336426E-1,-1.046781921E1,1.249069214E0
4.077657871E0,6.342926025E-1,-1.043908691E1,1.205978394E0
4.080129795E0,6.175231934E-1,-1.042472839E1,1.191604614E0
4.082601719E0,6.438598633E-1,-1.038401794E1,1.220336914E0
4.085043125E0,6.606292725E-1,-1.036486816E1,1.234710693E0
4.087515049E0,6.223144531E-1,-1.037205505E1,1.184417725E0
4.089986973E0,6.175231934E-1,-1.036726379E1,1.201187134E0
4.092428379E0,6.414794922E-1,-1.037445068E1,1.225128174E0
4.094900303E0,6.342926025E-1,-1.032894897E1,1.213150024E0
4.097372227E0,6.630249023E-1,-1.030262756E1,1.229919434E0
4.099844151E0,6.151428223E-1,-1.031938171E1,1.229919434E0
4.102285557E0,5.864105225E-1,-1.033853149E1,1.210754395E0
4.104757481E0,5.792236328E-1,-1.030262756E1,1.249069214E0
4.107229405E0,5.648651123E-1,-1.028106689E1,1.261032104E0
4.109670811E0,5.768280029E-1,-1.027629089E1,1.241882324E0
4.112142735E0,5.624694824E-1,-1.028106689E1,1.234710693E0
4.114614658E0,5.385284424E-1,-1.028346252E1,1.234710693E0
4.117056065E0,5.002136230E-1,-1.022361755E1,1.249069214E0
4.119527989E0,5.145721436E-1,-1.028585815E1,1.299346924E0
4.121999912E0,4.714813232E-1,-1.026431274E1,1.225128174E0
4.124441319E0,4.379577637E-1,-1.023318481E1,1.275405884E0
4.126913242E0,4.690856934E-1,-1.024755859E1,1.328079224E0
4.129385166E0,4.379577637E-1,-1.021163940E1,1.342437744E0
4.131857090E0,4.188079834E-1,-1.019728088E1,1.352020264E0
4.134298496E0,4.044494629E-1,-1.024755859E1,1.306533813E0
4.136770420E0,3.733215332E-1,-1.024037170E1,1.335266113E0
4.139242344E0,3.254394531E-1,-1.019728088E1,1.344833374E0
4.141683750E0,3.374023438E-1,-1.021882629E1,1.306533813E0
4.144155674E0,3.852996826E-1,-1.023318481E1,1.342437744E0
4.146627598E0,4.068450928E-1,-1.024755859E1,1.301742554E0
4.149069004E0,3.900756836E-1,-1.022361755E1,1.316101074E0
4.151540928E0,3.948669434E-1,-1.024276733E1,1.320892334E0
4.154012852E0,4.068450928E-1,-1.027149963E1,1.270614624E0
4.156454258E0,4.331817627E-1,-1.028106689E1,1.275405884E0
4.158926182E0,3.852996826E-1,-1.027629089E1,1.299346924E0
4.161398106E0,4.307861328E-1,-1.025473022E1,1.229919434E0
4.163839512E0,4.547271729E-1,-1.028106689E1,1.256256104E0
4.166311436E0,4.858551025E-1,-1.031938171E1,1.289764404E0
4.168783360E0,5.145721436E-1,-1.033613586E1,1.251464844E0
4.171224766E0,5.169677734E-1,-1.033134460E1,1.263427734E0
4.173696690E0,5.337371826E-1,-1.037924194E1,1.289764404E0
4.176168614E0,5.241546631E-1,-1.037205505E1,1.275405884E0
4.178640537E0,5.720367432E-1,-1.036247253E1,1.253860474E0
4.181081944E0,6.199188232E-1,-1.038880920E1,1.256256104E0
4.183553867E0,6.079559326E-1,-1.038880920E1,1.273010254E0
4.186025791E0,6.175231934E-1,-1.045106506E1,1.258651733E0
4.188467198E0,6.438598633E-1,-1.045585632E1,1.275405884E0
4.190939121E0,6.438598633E-1,-1.044148254E1,1.282592773E0
4.193411045E0,6.582336426E-1,-1.044387817E1,1.289764404E0
4.195852451E0,7.037200928E-1,-1.047500610E1,1.289764404E0
4.198324375E0,7.061157227E-1,-1.043669128E1,1.304138184E0
4.200796299E0,6.965332031E-1,-1.045823669E1,1.251464844E0
4.203237705E0,7.156982422E-1,-1.046063232E1,1.265823364E0
4.205709629E0,7.228698730E-1,-1.040557861E1,1.268218994E0
4.208181553E0,7.372436523E-1,-1.041035461E1,1.222732544E0
4.210653477E0,7.611846924E-1,-1.044387817E1,1.225128174E0
4.213094883E0,7.611846924E-1,-1.043669128E1,1.256256104E0
4.215566807E0,7.539978027E-1,-1.047021484E1,1.229919434E0
4.218038731E0,7.899169922E-1,-1.045346069E1,1.232315063E0
4.220480137E0,7.731475830E-1,-1.043429565E1,1.277801514E0
4.222952061E0,7.803344727E-1,-1.045585632E1,1.227523804E0
4.225423985E0,7.994842529E-1,-1.042233276E1,1.215545654E0
4.227865391E0,7.587890625E-1,-1.042951965E1,1.232315063E0
4.230337315E0,7.851257324E-1,-1.039360046E1,1.265823364E0
4.232809239E0,8.210449219E-1,-1.042951965E1,1.237091064E0
4.235250645E0,8.569488525E-1,-1.040557861E1,1.282592773E0
4.237722569E0,8.377990723E-1,-1.041754150E1,1.323287964E0
4.240194492E0,8.282165527E-1,-1.044148254E1,1.284988403E0
4.242635899E0,8.114624023E-1,-1.041514587E1,1.320892334E0
4.245107823E0,8.569488525E-1,-1.038401794E1,1.332870483E0
4.247579746E0,8.760986328E-1,-1.036486816E1,1.304138184E0
4.250051670E0,8.473663330E-1,-1.037684631E1,1.363983154E0
4.252493076E0,8.473663330E-1,-1.035528564E1,1.375961304E0
4.254965000E0,8.138580322E-1,-1.035050964E1,1.313705444E0
4.257436924E0,8.018798828E-1,-1.035528564E1,1.397506714E0
4.259878330E0,7.851257324E-1,-1.031938171E1,1.404693604E0
4.262350254E0,8.066711426E-1,-1.029064941E1,1.371170044E0
4.264822178E0,8.042755127E-1,-1.028346252E1,1.368774414E0
4.267263584E0,8.114624023E-1,-1.029544067E1,1.383148193E0
4.269735508E0,7.994842529E-1,-1.030262756E1,1.323287964E0
4.272207432E0,7.851257324E-1,-1.029304504E1,1.328079224E0
4.274648838E0,7.947082520E-1,-1.032894897E1,1.287368774E0
4.277120762E0,7.516021729E-1,-1.029544067E1,1.263427734E0
4.279592686E0,7.611846924E-1,-1.028585815E1,1.270614624E0
4.282064610E0,7.276611328E-1,-1.027149963E1,1.253860474E0
4.284506016E0,7.109069824E-1,-1.027149963E1,1.194000244E0
4.286977940E0,6.965332031E-1,-1.032656860E1,1.119781494E0
4.289449864E0,7.348480225E-1,-1.031459045E1,1.136535645E0
4.291891270E0,7.013244629E-1,-1.032177734E1,1.222732544E0
4.294363194E0,6.941375732E-1,-1.032177734E1,1.217941284E0
4.296835117E0,7.324523926E-1,-1.031219482E1,1.227523804E0
4.299276524E0,6.869659424E-1,-1.033613586E1,1.162872314E0
4.301748448E0,6.941375732E-1,-1.038641357E1,1.047958374E0
4.304220371E0,7.037200928E-1,-1.036247253E1,1.016830444E0
4.306661778E0,7.324523926E-1,-1.037684631E1,1.033584595E0
4.309133701E0,7.276611328E-1,-1.037205505E1,9.904937744E-1
4.311605625E0,7.276611328E-1,-1.037684631E1,1.035980225E0
4.314047031E0,7.372436523E-1,-1.037205505E1,1.052749634E0
4.316518955E0,7.300567627E-1,-1.035768127E1,1.079086304E0
4.318990879E0,7.731475830E-1,-1.039599609E1,1.143722534E0
4.321432285E0,7.923126221E-1,-1.040557861E1,1.105422974E0
4.323904209E0,7.707519531E-1,-1.039360046E1,1.148513794E0
4.326376133E0,8.138580322E-1,-1.041035461E1,1.196395874E0
4.328848057E0,8.737030029E-1,-1.039360046E1,1.256256104E0
4.331289463E0,8.784942627E-1,-1.038401794E1,1.244277954E0
4.333761387E0,8.258209229E-1,-1.040557861E1,1.184417725E0
4.336233311E0,8.473663330E-1,-1.043190002E1,1.194000244E0
4.338674717E0,8.737030029E-1,-1.041275024E1,1.225128174E0
4.341146641E0,8.617401123E-1,-1.041514587E1,1.270614624E0
4.343618565E0,9.144134521E-1,-1.042233276E1,1.261032104E0
4.346059971E0,9.120178223E-1,-1.044627380E1,1.253860474E0
4.348531895E0,9.024353027E-1,-1.043669128E1,1.299346924E0
4.351003819E0,9.383544922E-1,-1.038401794E1,1.292160034E0
4.353445225E0,9.359588623E-1,-1.037684631E1,1.296951294E0
4.355917149E0,9.144134521E-1,-1.040318298E1,1.304138184E0
4.358389073E0,9.431457520E-1,-1.037205505E1,1.256256104E0
4.360830479E0,9.216003418E-1,-1.037684631E1,1.222732544E0
4.363302403E0,9.335632324E-1,-1.038880920E1,1.229919434E0
4.365774326E0,9.144134521E-1,-1.035290527E1,1.270614624E0
4.368246250E0,8.904724121E-1,-1.033374023E1,1.270614624E0
4.370687656E0,9.168090820E-1,-1.036726379E1,1.239486694E0
4.373159580E0,8.976593018E-1,-1.035768127E1,1.205978394E0
4.375631504E0,8.449859619E-1,-1.035768127E1,1.172454834E0
4.378072910E0,8.401947021E-1,-1.034811401E1,1.177246094E0
4.380544834E0,8.330078125E-1,-1.035290527E1,1.174850464E0
4.383016758E0,8.928680420E-1,-1.036247253E1,1.170059204E0
4.385458164E0,8.617401123E-1,-1.035290527E1,1.172454834E0
4.387930088E0,8.330078125E-1,-1.033613586E1,1.191604614E0
4.390402012E0,8.377990723E-1,-1.035528564E1,1.172454834E0
4.392843418E0,8.880767822E-1,-1.032894897E1,1.124572754E0
4.395315342E0,8.784942627E-1,-1.032177734E1,1.088653564E0
4.397787266E0,8.401947021E-1,-1.038880920E1,1.129364014E0
4.400228672E0,8.976593018E-1,-1.037205505E1,1.141326904E0
4.402700596E0,9.383544922E-1,-1.037924194E1,1.141326904E0
4.405142002E0,9.479370117E-1,-1.038162231E1,1.105422974E0
4.407613926E0,9.407501221E-1,-1.036247253E1,1.126968384E0
4.410085850E0,9.479370117E-1,-1.036007690E1,1.086257935E0
4.412557774E0,9.598999023E-1,-1.034571838E1,1.153305054E0
4.415029698E0,1.022155762E0,-1.036726379E1,1.119781494E0
4.417471104E0,1.058059692E0,-1.039360046E1,1.086257935E0
4.419943028E0,1.067642212E0,-1.036726379E1,1.069503784E0
4.422414951E0,1.084396362E0,-1.033134460E1,1.057525635E0
4.424856358E0,1.115524292E0,-1.034332275E1,1.162872314E0
4.427328281E0,1.165802002E0,-1.035290527E1,1.191604614E0
4.429800205E0,1.144256592E0,-1.034092712E1,1.268218994E0
4.432241612E0,1.187347412E0,-1.032177734E1,1.383148193E0
4.434713535E0,1.263961792E0,-1.035050964E1,1.301742554E0
4.437185459E0,1.287902832E0,-1.032894897E1,1.143722534E0
4.439626865E0,1.311843872E0,-1.035768127E1,1.079086304E0
4.442098789E0,1.335784912E0,-1.037924194E1,1.055145264E0
4.444570713E0,1.319030762E0,-1.040557861E1,1.035980225E0
4.447042637E0,1.314239502E0,-1.037205505E1,1.062316895E0
4.449484043E0,1.240020752E0,-1.032894897E1,1.105422974E0
4.451955967E0,1.275939941E0,-1.032656860E1,1.119781494E0
4.454427891E0,1.271148682E0,-1.031938171E1,1.201187134E0
4.456869297E0,1.278335571E0,-1.032894897E1,1.246673584E0
4.459341221E0,1.204116821E0,-1.030979919E1,1.284988403E0
4.461813145E0,1.244812012E0,-1.030262756E1,1.277801514E0
4.464254551E0,1.273544312E0,-1.033134460E1,1.304138184E0
4.466726475E0,1.220870972E0,-1.030979919E1,1.258651733E0
4.469198399E0,1.170593262E0,-1.030740356E1,1.261032104E0
4.471639805E0,1.189743042E0,-1.033134460E1,1.284988403E0
4.474111729E0,1.170593262E0,-1.031698608E1,1.256256104E0
4.476583653E0,1.180160522E0,-1.031219482E1,1.249069214E0
4.479025059E0,1.206497192E0,-1.031698608E1,1.239486694E0
4.481496983E0,1.211288452E0,-1.032656860E1,1.253860474E0
4.483968906E0,1.168197632E0,-1.033613586E1,1.232315063E0
4.486410313E0,1.172988892E0,-1.031938171E1,1.191604614E0
4.488882237E0,1.110733032E0,-1.029304504E1,1.270614624E0
4.491354160E0,1.086791992E0,-1.024276733E1,1.344833374E0
4.493826084E0,1.058059692E0,-1.018769836E1,1.562713623E0
4.496267490E0,1.089187622E0,-1.021163940E1,1.522003174E0
4.498739414E0,1.184951782E0,-1.024755859E1,1.277801514E0
4.501211338E0,1.196929932E0,-1.025233459E1,1.146118164E0
4.503652744E0,1.146652222E0,-1.025952148E1,1.110198975E0
4.506124668E0,1.089187622E0,-1.032656860E1,1.081466675E0
4.508596592E0,1.046096802E0,-1.032656860E1,1.129364014E0
4.511037998E0,9.838409424E-1,-1.036486816E1,1.184417725E0
4.513509922E0,9.982147217E-1,-1.031219482E1,1.201187134E0
4.515981846E0,9.742736816E-1,-1.026910400E1,1.280197144E0
4.518423252E0,9.407501221E-1,-1.029304504E1,1.296951294E0
4.520895176E0,9.263763428E-1,-1.030262756E1,1.330474854E0
4.523367100E0,9.168090820E-1,-1.027149963E1,1.296951294E0
4.525839024E0,9.144134521E-1,-1.024516296E1,1.261032104E0
4.528280430E0,9.239807129E-1,-1.024516296E1,1.287368774E0
4.530752354E0,9.694824219E-1,-1.028825378E1,1.308929443E0
4.533224278E0,9.622955322E-1,-1.027867126E1,1.292160034E0
4.535665684E0,9.742736816E-1,-1.025952148E1,1.263427734E0
4.538137608E0,9.575042725E-1,-1.027867126E1,1.261032104E0
4.540609531E0,9.575042725E-1,-1.031459045E1,1.232315063E0
4.543050938E0,9.622955322E-1,-1.031698608E1,1.244277954E0
4.545522862E0,9.431457520E-1,-1.026910400E1,1.251464844E0
4.547994785E0,9.527130127E-1,-1.027629089E1,1.277801514E0
4.550436192E0,9.862365723E-1,-1.025952148E1,1.294555664E0
4.552908115E0,9.503173828E-1,-1.024755859E1,1.294555664E0
4.555380039E0,9.718780518E-1,-1.032417297E1,1.296951294E0
4.557851963E0,9.598999023E-1,-1.031459045E1,1.340042114E0
4.560293369E0,9.503173828E-1,-1.028825378E1,1.289764404E0
4.562765293E0,9.144134521E-1,-1.032894897E1,1.227523804E0
4.565237217E0,9.311676025E-1,-1.030500793E1,1.320892334E0
4.567678623E0,9.551086426E-1,-1.031938171E1,1.328079224E0
4.570150547E0,9.383544922E-1,-1.030500793E1,1.280197144E0
4.572622471E0,9.048309326E-1,-1.028346252E1,1.332870483E0
4.575063877E0,9.048309326E-1,-1.024995422E1,1.299346924E0
4.577535801E0,9.479370117E-1,-1.028825378E1,1.268218994E0
4.580007725E0,9.790496826E-1,-1.028585815E1,1.294555664E0
4.582449131E0,9.311676025E-1,-1.027867126E1,1.280197144E0
4.584921055E0,9.024353027E-1,-1.025233459E1,1.320892334E0
4.587392979E0,8.976593018E-1,-1.027149963E1,1.313705444E0
4.589864903E0,8.760986328E-1,-1.032894897E1,1.301742554E0
4.592306309E0,8.880767822E-1,-1.028106689E1,1.328079224E0
4.594778233E0,8.521575928E-1,-1.029304504E1,1.328079224E0
4.597219639E0,8.689270020E-1,-1.030023193E1,1.354415894E0
4.599691563E0,8.880767822E-1,-1.028585815E1,1.332870483E0
4.602163487E0,8.641357422E-1,-1.028585815E1,1.368774414E0
4.604635410E0,7.923126221E-1,-1.031698608E1,1.380752563E0
4.607076817E0,8.234252930E-1,-1.035050964E1,1.404693604E0
4.609548740E0,8.377990723E-1,-1.032417297E1,1.371170044E0
4.612020664E0,8.066711426E-1,-1.033134460E1,1.380752563E0
4.614462071E0,7.994842529E-1,-1.035290527E1,1.330474854E0
4.616933994E0,8.234252930E-1,-1.031459045E1,1.373565674E0
4.619405918E0,8.042755127E-1,-1.033613586E1,1.373565674E0
4.621847324E0,8.114624023E-1,-1.034571838E1,1.347229004E0
4.624319248E0,8.258209229E-1,-1.032894897E1,1.354415894E0
4.626791172E0,8.521575928E-1,-1.030262756E1,1.332870483E0
4.629232578E0,8.186492920E-1,-1.029783630E1,1.368774414E0
4.631704502E0,8.210449219E-1,-1.031459045E1,1.359207153E0
4.634176426E0,8.090667725E-1,-1.034092712E1,1.378356934E0
4.636617832E0,8.330078125E-1,-1.030740356E1,1.352020264E0
4.639089756E0,7.899169922E-1,-1.030740356E1,1.359207153E0
4.641561680E0,7.659759521E-1,-1.031219482E1,1.320892334E0
4.644033604E0,7.468109131E-1,-1.030500793E1,1.325683594E0
4.646475010E0,7.827301025E-1,-1.028346252E1,1.342437744E0
4.648946934E0,7.875213623E-1,-1.032417297E1,1.342437744E0
4.651418858E0,7.420349121E-1,-1.032417297E1,1.383148193E0
4.653860264E0,7.324523926E-1,-1.031459045E1,1.438217163E0
4.656332188E0,7.037200928E-1,-1.026910400E1,1.641723633E0
4.658804112E0,7.061157227E-1,-1.024037170E1,1.828460693E0
4.661245518E0,8.234252930E-1,-1.026191711E1,1.435821533E0
4.663717442E0,8.545532227E-1,-1.033374023E1,1.177246094E0
4.666189365E0,8.330078125E-1,-1.039839172E1,1.093444824E0
4.668630772E0,7.731475830E-1,-1.042712402E1,1.153305054E0
4.671102696E0,7.683715820E-1,-1.040557861E1,1.270614624E0
4.673574619E0,7.587890625E-1,-1.038401794E1,1.330474854E0
4.676016026E0,6.821746826E-1,-1.036247253E1,1.416656494E0
4.678487949E0,6.055603027E-1,-1.034332275E1,1.550735474E0
4.680959873E0,5.744323730E-1,-1.033613586E1,1.553131104E0
4.683431797E0,6.031646729E-1,-1.030979919E1,1.495666504E0
4.685873203E0,6.390838623E-1,-1.030979919E1,1.490875244E0
4.688345127E0,6.606292725E-1,-1.029304504E1,1.431030273E0
4.690817051E0,6.797790527E-1,-1.030262756E1,1.342437744E0
4.693258457E0,6.845703125E-1,-1.028585815E1,1.349624634E0
4.695730381E0,6.486511230E-1,-1.031219482E1,1.344833374E0
4.698202305E0,7.133026123E-1,-1.028346252E1,1.275405884E0
4.700643711E0,6.965332031E-1,-1.028346252E1,1.344833374E0
4.703115635E0,6.606292725E-1,-1.023558044E1,1.299346924E0
4.705587559E0,6.773834229E-1,-1.023558044E1,1.296951294E0
4.708028965E0,6.773834229E-1,-1.023797607E1,1.287368774E0
4.710500889E0,6.678161621E-1,-1.025473022E1,1.273010254E0
4.712972813E0,6.678161621E-1,-1.023318481E1,1.227523804E0
4.715444737E0,6.725921631E-1,-1.020924377E1,1.237091064E0
4.717886143E0,6.534423828E-1,-1.025952148E1,1.256256104E0
4.720358067E0,6.606292725E-1,-1.029064941E1,1.203582764E0
4.722829990E0,6.989288330E-1,-1.026910400E1,1.234710693E0
4.725271397E0,6.749877930E-1,-1.029064941E1,1.205978394E0
4.727743321E0,7.516021729E-1,-1.028825378E1,1.182037354E0
4.730215244E0,7.587890625E-1,-1.031459045E1,1.215545654E0
4.732656651E0,7.755432129E-1,-1.031459045E1,1.201187134E0
4.735128574E0,8.282165527E-1,-1.036726379E1,1.158081055E0
4.737600498E0,8.880767822E-1,-1.035290527E1,1.205978394E0
4.740041905E0,8.856811523E-1,-1.036965942E1,1.174850464E0
4.742513828E0,9.096221924E-1,-1.035050964E1,1.129364014E0
4.744985752E0,9.670867920E-1,-1.040557861E1,1.208374023E0
4.747427158E0,9.862365723E-1,-1.039360046E1,1.210754395E0
4.749899082E0,9.982147217E-1,-1.038641357E1,1.203582764E0
4.752371006E0,9.670867920E-1,-1.036726379E1,1.210754395E0
4.754842930E0,9.886322021E-1,-1.041035461E1,1.232315063E0
4.757284336E0,9.718780518E-1,-1.040318298E1,1.244277954E0
4.759756260E0,1.005386353E0,-1.042233276E1,1.318496704E0
4.762197666E0,9.958190918E-1,-1.043429565E1,1.316101074E0
4.764669590E0,1.010177612E0,-1.040078735E1,1.311325073E0
4.767141514E0,1.000595093E0,-1.040795898E1,1.361602783E0
4.769613438E0,9.766540527E-1,-1.041993713E1,1.330474854E0
4.772054844E0,9.934234619E-1,-1.041035461E1,1.323287964E0
4.774526768E0,9.838409424E-1,-1.041035461E1,1.359207153E0
4.776998692E0,9.742736816E-1,-1.041514587E1,1.387939453E0
4.779440098E0,9.407501221E-1,-1.039360046E1,1.404693604E0
4.781912022E0,9.407501221E-1,-1.040557861E1,1.423843384E0
4.784383946E0,9.838409424E-1,-1.041514587E1,1.395111084E0
4.786825352E0,1.002990723E0,-1.038162231E1,1.359207153E0
4.789297276E0,9.766540527E-1,-1.038401794E1,1.373565674E0
4.791769199E0,9.790496826E-1,-1.040078735E1,1.363983154E0
4.794241123E0,9.646911621E-1,-1.040557861E1,1.340042114E0
4.796682530E0,9.670867920E-1,-1.040078735E1,1.356811523E0
4.799154453E0,9.455413818E-1,-1.039599609E1,1.328079224E0
4.801626377E0,9.551086426E-1,-1.044148254E1,1.383148193E0
4.804067783E0,9.551086426E-1,-1.040557861E1,1.356811523E0
4.806539707E0,9.694824219E-1,-1.041993713E1,1.426239014E0
4.809011631E0,9.934234619E-1,-1.039839172E1,1.431030273E0
4.811453037E0,1.005386353E0,-1.043669128E1,1.342437744E0
4.813924961E0,1.000595093E0,-1.046781921E1,1.325683594E0
4.816396885E0,9.886322021E-1,-1.047979736E1,1.359207153E0
4.818838291E0,9.646911621E-1,-1.045106506E1,1.411880493E0
4.821310215E0,9.479370117E-1,-1.045106506E1,1.356811523E0
4.823782139E0,9.622955322E-1,-1.046302795E1,1.368774414E0
4.826223545E0,9.311676025E-1,-1.047021484E1,1.335266113E0
4.828695469E0,9.527130127E-1,-1.044627380E1,1.325683594E0
4.831167393E0,9.503173828E-1,-1.045823669E1,1.363983154E0
4.833639317E0,9.144134521E-1,-1.044866943E1,1.378356934E0
4.836080723E0,9.120178223E-1,-1.045346069E1,1.368774414E0
4.838552647E0,8.449859619E-1,-1.044148254E1,1.328079224E0
4.841024571E0,8.784942627E-1,-1.045106506E1,1.352020264E0
4.843465977E0,8.377990723E-1,-1.044627380E1,1.366378784E0
4.845937901E0,8.162536621E-1,-1.041275024E1,1.404693604E0
4.848409824E0,8.282165527E-1,-1.043190002E1,1.337646484E0
4.850851231E0,8.186492920E-1,-1.046781921E1,1.325683594E0
4.853323155E0,8.090667725E-1,-1.043190002E1,1.328079224E0
4.855795078E0,8.018798828E-1,-1.040557861E1,1.387939453E0
4.858236485E0,8.042755127E-1,-1.040078735E1,1.419052124E0
4.860708408E0,7.851257324E-1,-1.041035461E1,1.419052124E0
4.863180332E0,7.659759521E-1,-1.041514587E1,1.433425903E0
4.865621739E0,7.659759521E-1,-1.042951965E1,1.452575684E0
4.868093662E0,7.779388428E-1,-1.033613586E1,1.421447754E0
4.870565586E0,7.563934326E-1,-1.034811401E1,1.471725464E0
4.873037510E0,7.204742432E-1,-1.038880920E1,1.505249023E0
4.875478916E0,7.492065430E-1,-1.037445068E1,1.502853394E0
4.877950840E0,7.420349121E-1,-1.033134460E1,1.524398804E0
4.880422764E0,7.779388428E-1,-1.032894897E1,1.507644653E0
4.882864170E0,7.731475830E-1,-1.036247253E1,1.545944214E0
4.885336094E0,7.803344727E-1,-1.035528564E1,1.541168213E0
4.887808018E0,8.018798828E-1,-1.033374023E1,1.550735474E0
4.890249424E0,8.449859619E-1,-1.032177734E1,1.579467773E0
4.892721348E0,8.018798828E-1,-1.031459045E1,1.577072144E0
4.895193272E0,8.377990723E-1,-1.030979919E1,1.617782593E0
4.897634678E0,8.521575928E-1,-1.030023193E1,1.615386963E0
4.900106602E0,8.784942627E-1,-1.021643066E1,1.581863403E0
4.902578526E0,9.072265625E-1,-1.023797607E1,1.632141113E0
4.905019932E0,9.263763428E-1,-1.023318481E1,1.612991333E0
4.907491856E0,9.335632324E-1,-1.023078918E1,1.653686523E0
4.909963780E0,9.551086426E-1,-1.026670837E1,1.624954224E0
4.912435703E0,9.431457520E-1,-1.024995422E1,1.653686523E0
4.914877110E0,9.359588623E-1,-1.029544067E1,1.612991333E0
4.917349033E0,9.910278320E-1,-1.022361755E1,1.624954224E0
4.919820957E0,1.022155762E0,-1.026191711E1,1.680023193E0
4.922262364E0,1.012573242E0,-1.028106689E1,1.675231934E0
4.924734287E0,1.012573242E0,-1.029304504E1,1.694396973E0
4.927206211E0,9.575042725E-1,-1.029544067E1,1.689605713E0
4.929647617E0,1.022155762E0,-1.026910400E1,1.713546753E0
4.932119541E0,1.005386353E0,-1.028346252E1,1.687210083E0
4.934591465E0,9.838409424E-1,-1.030262756E1,1.682418823E0
4.937032871E0,1.010177612E0,-1.028106689E1,1.754241943E0
4.939504795E0,9.982147217E-1,-1.024037170E1,1.754241943E0
4.941976719E0,1.031723022E0,-1.028585815E1,1.763824463E0
4.944418125E0,1.029327393E0,-1.029544067E1,1.725509644E0
4.946890049E0,9.934234619E-1,-1.028106689E1,1.739883423E0
4.949361973E0,9.598999023E-1,-1.026670837E1,1.811706543E0
4.951833897E0,9.431457520E-1,-1.027149963E1,1.778182983E0
4.954275303E0,9.742736816E-1,-1.027629089E1,1.739883423E0
4.956747227E0,9.622955322E-1,-1.025233459E1,1.737487793E0
4.959219151E0,9.838409424E-1,-1.027867126E1,1.751846313E0
4.961660557E0,9.670867920E-1,-1.028346252E1,1.737487793E0
4.964132481E0,9.670867920E-1,-1.029544067E1,1.701568604E0
4.966604405E0,9.455413818E-1,-1.027389526E1,1.689605713E0
4.969045811E0,9.431457520E-1,-1.027389526E1,1.703964233E0
4.971517735E0,9.335632324E-1,-1.021643066E1,1.696777344E0
4.973989658E0,9.311676025E-1,-1.024755859E1,1.670440674E0
4.976431065E0,9.120178223E-1,-1.029544067E1,1.677627563E0
4.978902989E0,9.287719727E-1,-1.026431274E1,1.699172974E0
4.981374912E0,8.569488525E-1,-1.024037170E1,1.696777344E0
4.983816319E0,8.713226318E-1,-1.024995422E1,1.617782593E0
4.986288242E0,8.545532227E-1,-1.024276733E1,1.603408813E0
4.988760166E0,8.258209229E-1,-1.021403503E1,1.713546753E0
4.991232090E0,8.689270020E-1,-1.024755859E1,1.711151123E0
4.993673496E0,8.713226318E-1,-1.023558044E1,1.663269043E0
4.996145420E0,8.449859619E-1,-1.022839355E1,1.668060303E0
4.998617344E0,8.425903320E-1,-1.025952148E1,1.680023193E0
5.001058750E0,9.096221924E-1,-1.021643066E1,1.615386963E0
5.003530674E0,8.665313721E-1,-1.024516296E1,1.612991333E0
5.006002598E0,8.737030029E-1,-1.022122192E1,1.670440674E0
5.008444004E0,8.497619629E-1,-1.026191711E1,1.636932373E0
5.010915928E0,8.617401123E-1,-1.022601318E1,1.663269043E0
5.013387852E0,9.072265625E-1,-1.026431274E1,1.627349854E0
5.015829258E0,8.856811523E-1,-1.030023193E1,1.627349854E0
5.018301182E0,8.808898926E-1,-1.032177734E1,1.620162964E0
5.020773106E0,8.760986328E-1,-1.030500793E1,1.612991333E0
5.023245030E0,9.024353027E-1,-1.034092712E1,1.591445923E0
5.025686436E0,8.665313721E-1,-1.034811401E1,1.610595703E0
5.028158360E0,8.952636719E-1,-1.035768127E1,1.529190063E0
5.030630283E0,9.192047119E-1,-1.034092712E1,1.591445923E0
5.033071690E0,9.024353027E-1,-1.032894897E1,1.557922363E0
5.035543614E0,9.000396729E-1,-1.032894897E1,1.517211914E0
5.038015537E0,9.263763428E-1,-1.033613586E1,1.569885254E0
5.040456944E0,9.551086426E-1,-1.034332275E1,1.560317993E0
5.042928867E0,9.096221924E-1,-1.034811401E1,1.586654663E0
5.045400791E0,9.216003418E-1,-1.037684631E1,1.608200073E0
5.047842198E0,9.096221924E-1,-1.035050964E1,1.545944214E0
5.050314121E0,8.928680420E-1,-1.032417297E1,1.574676514E0
5.052786045E0,8.832855225E-1,-1.035050964E1,1.591445923E0
5.055227451E0,8.952636719E-1,-1.033374023E1,1.608200073E0
5.057699375E0,8.928680420E-1,-1.032894897E1,1.615386963E0
5.060171299E0,9.144134521E-1,-1.034811401E1,1.574676514E0
5.062612705E0,8.952636719E-1,-1.030740356E1,1.589050293E0
5.065084629E0,8.641357422E-1,-1.031459045E1,1.593826294E0
5.067556553E0,8.880767822E-1,-1.029304504E1,1.598617554E0
5.070028477E0,8.832855225E-1,-1.028585815E1,1.617782593E0
5.072469883E0,8.808898926E-1,-1.035050964E1,1.639328003E0
5.074941807E0,9.048309326E-1,-1.032177734E1,1.620162964E0
5.077413731E0,8.832855225E-1,-1.027389526E1,1.608200073E0
5.079855137E0,8.952636719E-1,-1.029783630E1,1.658477783E0
5.082327061E0,9.311676025E-1,-1.031459045E1,1.627349854E0
5.084798985E0,9.263763428E-1,-1.027867126E1,1.627349854E0
5.087240391E0,9.120178223E-1,-1.028346252E1,1.670440674E0
5.089712315E0,9.072265625E-1,-1.029064941E1,1.682418823E0
5.092184239E0,9.072265625E-1,-1.029783630E1,1.759033203E0
5.094625645E0,9.598999023E-1,-1.028106689E1,1.692001343E0
