"Time (s)","Gyroscope x (rad/s)","Gyroscope y (rad/s)","Gyroscope z (rad/s)"
1.230902600E-1,-3.817795310E-3,-1.679830020E-3,3.359660041E-3
1.256198950E-1,-3.817795310E-3,-1.679830020E-3,4.581354558E-3
1.281494790E-1,-3.817795310E-3,-1.679830020E-3,2.137965523E-3
1.306789580E-1,-2.596100792E-3,-4.123218823E-3,3.359660041E-3
1.332083850E-1,-1.374406274E-3,-1.679830020E-3,4.581354558E-3
1.357378120E-1,-2.596100792E-3,-1.679830020E-3,4.581354558E-3
1.382671870E-1,-2.596100792E-3,-2.901524538E-3,4.581354558E-3
1.407461970E-1,-1.527118147E-4,-1.679830020E-3,4.581354558E-3
1.432248950E-1,-1.374406274E-3,-1.679830020E-3,4.581354558E-3
1.457044270E-1,-1.374406274E-3,-4.581354442E-4,9.162708884E-4
1.481831240E-1,-1.527118147E-4,-1.679830020E-3,3.359660041E-3
1.506610410E-1,-1.374406274E-3,-4.581354442E-4,3.359660041E-3
1.531397390E-1,-1.527118147E-4,-4.581354442E-4,2.137965523E-3
1.556192700E-1,1.068982761E-3,7.635590737E-4,9.162708884E-4
1.580979680E-1,-1.527118147E-4,-4.581354442E-4,9.162708884E-4
1.605758850E-1,-1.374406274E-3,-4.581354442E-4,9.162708884E-4
1.630545830E-1,-1.527118147E-4,1.985253533E-3,9.162708884E-4
1.655340620E-1,-1.374406274E-3,1.985253533E-3,9.162708884E-4
1.680128120E-1,-1.527118147E-4,3.206948051E-3,2.137965523E-3
1.704906770E-1,-1.374406274E-3,3.206948051E-3,2.137965523E-3
1.729693740E-1,-2.596100792E-3,3.206948051E-3,9.162708884E-4
1.754489580E-1,-1.374406274E-3,3.206948051E-3,9.162708884E-4
1.779276040E-1,-1.527118147E-4,3.206948051E-3,3.359660041E-3
1.804055200E-1,1.068982761E-3,7.635590737E-4,2.137965523E-3
1.828842180E-1,-1.527118147E-4,1.985253533E-3,3.359660041E-3
1.853638020E-1,-1.527118147E-4,3.206948051E-3,4.581354558E-3
1.878424470E-1,-1.527118147E-4,1.985253533E-3,3.359660041E-3
1.903203640E-1,-1.527118147E-4,7.635590737E-4,3.359660041E-3
1.927990620E-1,1.068982761E-3,3.206948051E-3,5.803049076E-3
1.952786450E-1,2.290677279E-3,1.985253533E-3,4.581354558E-3
1.977572910E-1,2.290677279E-3,3.206948051E-3,4.581354558E-3
2.002352080E-1,-1.527118147E-4,7.635590737E-4,4.581354558E-3
2.027139060E-1,1.068982761E-3,7.635590737E-4,5.803049076E-3
2.051934370E-1,-1.527118147E-4,1.985253533E-3,4.581354558E-3
2.076721350E-1,1.068982761E-3,1.985253533E-3,5.803049076E-3
2.101499990E-1,2.290677279E-3,1.985253533E-3,7.024743594E-3
2.126287490E-1,2.290677279E-3,1.985253533E-3,5.803049076E-3
2.151082810E-1,1.068982761E-3,1.985253533E-3,7.024743594E-3
2.175869270E-1,-1.527118147E-4,1.985253533E-3,7.024743594E-3
2.200648430E-1,-1.374406274E-3,3.206948051E-3,7.024743594E-3
2.225435410E-1,1.068982761E-3,5.650337320E-3,8.246437646E-3
2.250231240E-1,-1.527118147E-4,4.428642802E-3,7.024743594E-3
2.275017700E-1,1.068982761E-3,6.872031838E-3,7.024743594E-3
2.299796870E-1,-1.527118147E-4,4.428642802E-3,8.246437646E-3
2.324583850E-1,1.068982761E-3,4.428642802E-3,5.803049076E-3
2.349379680E-1,-1.527118147E-4,5.650337320E-3,7.024743594E-3
2.374166140E-1,-1.527118147E-4,7.635590737E-4,7.024743594E-3
2.398945310E-1,-1.527118147E-4,-4.581354442E-4,9.468132630E-3
2.423732290E-1,-1.374406274E-3,1.985253533E-3,7.024743594E-3
2.448528120E-1,1.068982761E-3,1.985253533E-3,7.024743594E-3
2.473314580E-1,1.068982761E-3,7.635590737E-4,8.246437646E-3
2.498093220E-1,3.512371797E-3,-1.679830020E-3,7.024743594E-3
2.522880720E-1,3.512371797E-3,-1.679830020E-3,5.803049076E-3
2.547676040E-1,3.512371797E-3,7.635590737E-4,5.803049076E-3
2.572462490E-1,3.512371797E-3,-4.581354442E-4,4.581354558E-3
2.597241660E-1,4.734066315E-3,7.635590737E-4,5.803049076E-3
2.622028640E-1,4.734066315E-3,7.635590737E-4,7.024743594E-3
2.646824470E-1,4.734066315E-3,-1.679830020E-3,7.024743594E-3
2.671610930E-1,3.512371797E-3,-1.679830020E-3,7.024743594E-3
2.696390100E-1,5.955760833E-3,-5.344913341E-3,4.581354558E-3
2.721177080E-1,5.955760833E-3,-5.344913341E-3,5.803049076E-3
2.745972910E-1,5.955760833E-3,-4.123218823E-3,4.581354558E-3
2.770759370E-1,4.734066315E-3,-2.901524538E-3,3.359660041E-3
2.795538540E-1,5.955760833E-3,-4.123218823E-3,4.581354558E-3
2.820325520E-1,5.955760833E-3,-4.123218823E-3,4.581354558E-3
2.845121350E-1,3.512371797E-3,-6.566607859E-3,5.803049076E-3
2.869907810E-1,3.512371797E-3,-5.344913341E-3,5.803049076E-3
2.894686450E-1,4.734066315E-3,-4.123218823E-3,4.581354558E-3
2.919473950E-1,4.734066315E-3,-5.344913341E-3,5.803049076E-3
2.944269270E-1,3.512371797E-3,-5.344913341E-3,4.581354558E-3
2.969055720E-1,3.512371797E-3,-5.344913341E-3,5.803049076E-3
2.993834890E-1,3.512371797E-3,-5.344913341E-3,5.803049076E-3
3.018621870E-1,1.068982761E-3,-5.344913341E-3,3.359660041E-3
3.043417700E-1,-1.527118147E-4,-7.788302377E-3,3.359660041E-3
3.068204160E-1,-1.374406274E-3,-6.566607859E-3,3.359660041E-3
3.092983330E-1,-1.527118147E-4,-4.123218823E-3,3.359660041E-3
3.117770310E-1,-1.374406274E-3,-7.788302377E-3,3.359660041E-3
3.142566140E-1,-2.596100792E-3,-1.023169141E-2,2.137965523E-3
3.167352600E-1,-1.374406274E-3,-9.009997360E-3,2.137965523E-3
3.192131770E-1,-1.527118147E-4,-5.344913341E-3,9.162708884E-4
3.216918740E-1,-1.374406274E-3,-7.788302377E-3,9.162708884E-4
3.241714580E-1,-2.596100792E-3,-9.009997360E-3,9.162708884E-4
3.266501040E-1,-2.596100792E-3,-6.566607859E-3,9.162708884E-4
3.291280200E-1,-1.374406274E-3,-7.788302377E-3,-3.054236295E-4
3.316067180E-1,-1.374406274E-3,-7.788302377E-3,-1.527118147E-3
3.340863020E-1,-1.374406274E-3,-7.788302377E-3,-1.527118147E-3
3.365649470E-1,-1.374406274E-3,-7.788302377E-3,-1.527118147E-3
3.390428120E-1,-1.527118147E-4,-7.788302377E-3,-2.748812549E-3
3.415215620E-1,2.290677279E-3,-6.566607859E-3,-3.054236295E-4
3.440010930E-1,2.290677279E-3,-6.566607859E-3,-2.748812549E-3
3.464797390E-1,2.290677279E-3,-5.344913341E-3,-2.748812549E-3
3.489576560E-1,3.512371797E-3,-5.344913341E-3,-2.748812549E-3
3.514363540E-1,4.734066315E-3,-2.901524538E-3,-2.748812549E-3
3.539159370E-1,4.734066315E-3,-2.901524538E-3,-1.527118147E-3
3.563945830E-1,4.734066315E-3,-2.901524538E-3,-1.527118147E-3
3.588724990E-1,5.955760833E-3,-2.901524538E-3,-1.527118147E-3
3.613511970E-1,7.177455351E-3,-4.123218823E-3,-3.054236295E-4
3.638307810E-1,7.177455351E-3,-2.901524538E-3,-3.054236295E-4
3.663094270E-1,7.177455351E-3,-2.901524538E-3,9.162708884E-4
3.687873430E-1,7.177455351E-3,-5.344913341E-3,9.162708884E-4
3.712660410E-1,8.399149403E-3,-5.344913341E-3,-3.054236295E-4
3.737456240E-1,8.399149403E-3,-5.344913341E-3,9.162708884E-4
3.762242700E-1,7.177455351E-3,-5.344913341E-3,3.359660041E-3
3.787021350E-1,8.399149403E-3,-5.344913341E-3,4.581354558E-3
3.811808850E-1,9.620844387E-3,-7.788302377E-3,3.359660041E-3
3.836604160E-1,1.084253844E-2,-5.344913341E-3,2.137965523E-3
3.861390620E-1,9.620844387E-3,-7.788302377E-3,4.581354558E-3
3.886169790E-1,9.620844387E-3,-9.009997360E-3,4.581354558E-3
3.910956770E-1,9.620844387E-3,-1.023169141E-2,4.581354558E-3
3.935752600E-1,9.620844387E-3,-9.009997360E-3,4.581354558E-3
3.960539060E-1,9.620844387E-3,-1.023169141E-2,5.803049076E-3
3.985318220E-1,9.620844387E-3,-9.009997360E-3,5.803049076E-3
4.010105200E-1,8.399149403E-3,-1.267508045E-2,3.359660041E-3
4.034901040E-1,8.399149403E-3,-1.267508045E-2,4.581354558E-3
4.059687490E-1,9.620844387E-3,-1.145338640E-2,5.803049076E-3
4.084466660E-1,9.620844387E-3,-1.511846948E-2,4.581354558E-3
4.109253640E-1,8.399149403E-3,-1.511846948E-2,3.359660041E-3
4.134048950E-1,8.399149403E-3,-1.511846948E-2,4.581354558E-3
4.158835930E-1,8.399149403E-3,-1.267508045E-2,4.581354558E-3
4.183614580E-1,8.399149403E-3,-1.634016447E-2,4.581354558E-3
4.208402080E-1,8.399149403E-3,-1.878355257E-2,3.359660041E-3
4.233197390E-1,8.399149403E-3,-1.634016447E-2,2.137965523E-3
4.257983850E-1,8.399149403E-3,-1.389677543E-2,9.162708884E-4
4.282763020E-1,7.177455351E-3,-1.389677543E-2,3.359660041E-3
4.307550520E-1,7.177455351E-3,-1.634016447E-2,2.137965523E-3
4.332345830E-1,7.177455351E-3,-1.634016447E-2,-3.054236295E-4
4.357132290E-1,5.955760833E-3,-1.389677543E-2,2.137965523E-3
4.381911450E-1,7.177455351E-3,-1.267508045E-2,2.137965523E-3
4.406698430E-1,5.955760833E-3,-1.145338640E-2,2.137965523E-3
4.431494270E-1,4.734066315E-3,-1.145338640E-2,9.162708884E-4
4.456280720E-1,4.734066315E-3,-1.023169141E-2,-3.054236295E-4
4.481059890E-1,4.734066315E-3,-9.009997360E-3,-1.527118147E-3
4.505846870E-1,3.512371797E-3,-7.788302377E-3,-3.054236295E-4
4.530642700E-1,3.512371797E-3,-6.566607859E-3,-2.748812549E-3
4.555429160E-1,4.734066315E-3,-2.901524538E-3,-1.527118147E-3
4.580208330E-1,3.512371797E-3,-2.901524538E-3,-1.527118147E-3
4.604995310E-1,3.512371797E-3,-1.679830020E-3,-2.748812549E-3
4.629790620E-1,3.512371797E-3,-1.679830020E-3,-1.527118147E-3
4.654577080E-1,5.955760833E-3,7.635590737E-4,-1.527118147E-3
4.679356240E-1,4.734066315E-3,-4.581354442E-4,-1.527118147E-3
4.704143220E-1,5.955760833E-3,1.985253533E-3,-1.527118147E-3
4.728939060E-1,7.177455351E-3,7.635590737E-4,-1.527118147E-3
4.753725520E-1,5.955760833E-3,1.985253533E-3,-3.054236295E-4
4.778504680E-1,5.955760833E-3,1.985253533E-3,-3.054236295E-4
4.803291660E-1,8.399149403E-3,7.635590737E-4,-1.527118147E-3
4.828087490E-1,9.620844387E-3,7.635590737E-4,-3.054236295E-4
4.852873950E-1,9.620844387E-3,1.985253533E-3,9.162708884E-4
4.877653120E-1,1.084253844E-2,-4.581354442E-4,9.162708884E-4
4.902440100E-1,1.084253844E-2,-4.581354442E-4,-3.054236295E-4
4.927235930E-1,1.084253844E-2,-4.581354442E-4,9.162708884E-4
4.952022390E-1,1.206423342E-2,-4.581354442E-4,9.162708884E-4
4.976801560E-1,1.084253844E-2,-1.679830020E-3,2.137965523E-3
5.001588540E-1,1.084253844E-2,-2.901524538E-3,9.162708884E-4
5.026383850E-1,1.206423342E-2,7.635590737E-4,2.137965523E-3
5.051170830E-1,1.206423342E-2,-2.901524538E-3,4.581354558E-3
5.075949470E-1,1.328592747E-2,-2.901524538E-3,3.359660041E-3
5.100736970E-1,1.206423342E-2,-5.344913341E-3,3.359660041E-3
5.125532290E-1,1.206423342E-2,-5.344913341E-3,3.359660041E-3
5.150318740E-1,1.206423342E-2,-4.123218823E-3,4.581354558E-3
5.175097910E-1,1.084253844E-2,-5.344913341E-3,3.359660041E-3
5.199884890E-1,9.620844387E-3,-5.344913341E-3,3.359660041E-3
5.224680720E-1,9.620844387E-3,-5.344913341E-3,4.581354558E-3
5.249467180E-1,1.084253844E-2,-5.344913341E-3,4.581354558E-3
5.274246350E-1,1.084253844E-2,-2.901524538E-3,4.581354558E-3
5.299033330E-1,9.620844387E-3,-5.344913341E-3,3.359660041E-3
5.323829160E-1,8.399149403E-3,-4.123218823E-3,3.359660041E-3
5.348615620E-1,7.177455351E-3,-2.901524538E-3,3.359660041E-3
5.373394790E-1,7.177455351E-3,-5.344913341E-3,3.359660041E-3
5.398181770E-1,7.177455351E-3,-2.901524538E-3,3.359660041E-3
5.422977080E-1,7.177455351E-3,-4.123218823E-3,2.137965523E-3
5.447764060E-1,5.955760833E-3,-2.901524538E-3,3.359660041E-3
5.472542700E-1,5.955760833E-3,-5.344913341E-3,9.162708884E-4
5.497330200E-1,7.177455351E-3,-4.123218823E-3,9.162708884E-4
5.522125520E-1,5.955760833E-3,-1.679830020E-3,3.359660041E-3
5.546911970E-1,5.955760833E-3,-5.344913341E-3,2.137965523E-3
5.571691140E-1,5.955760833E-3,-5.344913341E-3,3.359660041E-3
5.596478120E-1,5.955760833E-3,-2.901524538E-3,3.359660041E-3
5.621273950E-1,5.955760833E-3,-5.344913341E-3,9.162708884E-4
5.646060410E-1,7.177455351E-3,-2.901524538E-3,3.359660041E-3
5.670839580E-1,5.955760833E-3,-5.344913341E-3,3.359660041E-3
5.695626560E-1,7.177455351E-3,-5.344913341E-3,9.162708884E-4
5.720422390E-1,7.177455351E-3,-6.566607859E-3,9.162708884E-4
5.745208850E-1,8.399149403E-3,-7.788302377E-3,2.137965523E-3
5.769988020E-1,7.177455351E-3,-5.344913341E-3,3.359660041E-3
5.794774990E-1,9.620844387E-3,-7.788302377E-3,2.137965523E-3
5.819570310E-1,9.620844387E-3,-6.566607859E-3,9.162708884E-4
5.844357290E-1,9.620844387E-3,-9.009997360E-3,9.162708884E-4
5.869135930E-1,8.399149403E-3,-7.788302377E-3,9.162708884E-4
5.893923430E-1,9.620844387E-3,-9.009997360E-3,-3.054236295E-4
5.918718740E-1,9.620844387E-3,-9.009997360E-3,9.162708884E-4
5.943505200E-1,9.620844387E-3,-9.009997360E-3,3.359660041E-3
5.968284370E-1,8.399149403E-3,-1.145338640E-2,3.359660041E-3
5.993071350E-1,8.399149403E-3,-1.023169141E-2,9.162708884E-4
6.017867180E-1,8.399149403E-3,-1.023169141E-2,2.137965523E-3
6.042653640E-1,9.620844387E-3,-9.009997360E-3,3.359660041E-3
6.067432810E-1,8.399149403E-3,-9.009997360E-3,2.137965523E-3
6.092219790E-1,7.177455351E-3,-1.023169141E-2,2.137965523E-3
6.117015620E-1,8.399149403E-3,-1.023169141E-2,9.162708884E-4
6.141802080E-1,8.399149403E-3,-9.009997360E-3,-3.054236295E-4
6.166581240E-1,9.620844387E-3,-7.788302377E-3,2.137965523E-3
6.191368220E-1,7.177455351E-3,-9.009997360E-3,2.137965523E-3
6.216164060E-1,8.399149403E-3,-6.566607859E-3,9.162708884E-4
6.240950520E-1,8.399149403E-3,-9.009997360E-3,9.162708884E-4
6.265729160E-1,8.399149403E-3,-6.566607859E-3,9.162708884E-4
6.290516660E-1,8.399149403E-3,-9.009997360E-3,-1.527118147E-3
6.315311970E-1,8.399149403E-3,-6.566607859E-3,9.162708884E-4
6.340098430E-1,7.177455351E-3,-7.788302377E-3,-3.054236295E-4
6.364877600E-1,8.399149403E-3,-7.788302377E-3,-3.054236295E-4
6.389664580E-1,7.177455351E-3,-7.788302377E-3,9.162708884E-4
6.414460410E-1,5.955760833E-3,-7.788302377E-3,-1.527118147E-3
6.439246870E-1,5.955760833E-3,-6.566607859E-3,-3.054236295E-4
6.464026040E-1,5.955760833E-3,-6.566607859E-3,9.162708884E-4
6.488813020E-1,3.512371797E-3,-6.566607859E-3,9.162708884E-4
6.513608850E-1,3.512371797E-3,-5.344913341E-3,-3.054236295E-4
6.538395310E-1,4.734066315E-3,-5.344913341E-3,9.162708884E-4
6.563174470E-1,3.512371797E-3,-1.679830020E-3,-3.054236295E-4
6.587961450E-1,-1.527118147E-4,-4.581354442E-4,-1.527118147E-3
6.612757290E-1,-1.374406274E-3,-4.581354442E-4,-3.054236295E-4
6.637543740E-1,-1.527118147E-4,-4.581354442E-4,-3.054236295E-4
6.662322910E-1,-1.527118147E-4,7.635590737E-4,-3.054236295E-4
6.687109890E-1,-1.374406274E-3,1.985253533E-3,-3.054236295E-4
6.711905200E-1,-1.374406274E-3,3.206948051E-3,-1.527118147E-3
6.736692180E-1,-3.817795310E-3,4.428642802E-3,-1.527118147E-3
6.761470830E-1,-2.596100792E-3,6.872031838E-3,-3.054236295E-4
6.786258330E-1,-1.374406274E-3,5.650337320E-3,-3.054236295E-4
6.811053640E-1,-1.374406274E-3,8.093725890E-3,9.162708884E-4
6.835840100E-1,-2.596100792E-3,8.093725890E-3,2.137965523E-3
6.860619270E-1,-3.817795310E-3,6.872031838E-3,-3.054236295E-4
6.885406240E-1,-2.596100792E-3,6.872031838E-3,-3.054236295E-4
6.910202080E-1,-1.374406274E-3,6.872031838E-3,-2.748812549E-3
6.934988540E-1,-1.374406274E-3,8.093725890E-3,9.162708884E-4
6.959767700E-1,-1.374406274E-3,5.650337320E-3,-3.054236295E-4
6.984554680E-1,1.068982761E-3,6.872031838E-3,-3.054236295E-4
7.009350520E-1,-1.527118147E-4,4.428642802E-3,-3.054236295E-4
7.034136970E-1,-1.527118147E-4,5.650337320E-3,-3.054236295E-4
7.058916140E-1,2.290677279E-3,4.428642802E-3,-3.054236295E-4
7.083703120E-1,2.290677279E-3,3.206948051E-3,-3.054236295E-4
7.108498430E-1,1.068982761E-3,1.985253533E-3,9.162708884E-4
7.133285410E-1,2.290677279E-3,1.985253533E-3,9.162708884E-4
7.158064060E-1,4.734066315E-3,7.635590737E-4,-3.054236295E-4
7.182851560E-1,3.512371797E-3,-4.581354442E-4,-3.054236295E-4
7.207646870E-1,3.512371797E-3,7.635590737E-4,2.137965523E-3
7.232433330E-1,3.512371797E-3,7.635590737E-4,3.359660041E-3
7.257212490E-1,2.290677279E-3,1.985253533E-3,9.162708884E-4
7.281999470E-1,4.734066315E-3,-4.581354442E-4,2.137965523E-3
7.306795310E-1,5.955760833E-3,-4.581354442E-4,9.162708884E-4
7.331581770E-1,7.177455351E-3,-4.581354442E-4,-3.054236295E-4
7.356360930E-1,7.177455351E-3,-4.581354442E-4,9.162708884E-4
7.381147910E-1,7.177455351E-3,-4.581354442E-4,9.162708884E-4
7.405943740E-1,8.399149403E-3,7.635590737E-4,9.162708884E-4
7.430730200E-1,8.399149403E-3,7.635590737E-4,-3.054236295E-4
7.455509370E-1,9.620844387E-3,-4.581354442E-4,-3.054236295E-4
7.480296350E-1,9.620844387E-3,-1.679830020E-3,-3.054236295E-4
7.505091660E-1,1.084253844E-2,-1.679830020E-3,-3.054236295E-4
7.529878640E-1,9.620844387E-3,-4.581354442E-4,9.162708884E-4
7.554657290E-1,1.206423342E-2,-1.679830020E-3,-3.054236295E-4
7.579444790E-1,1.084253844E-2,-1.679830020E-3,-3.054236295E-4
7.604240100E-1,9.620844387E-3,-4.581354442E-4,-3.054236295E-4
7.629026560E-1,9.620844387E-3,-4.581354442E-4,9.162708884E-4
7.653805720E-1,9.620844387E-3,-4.581354442E-4,-1.527118147E-3
7.678592700E-1,8.399149403E-3,7.635590737E-4,-3.054236295E-4
7.703388540E-1,8.399149403E-3,7.635590737E-4,9.162708884E-4
7.728174990E-1,8.399149403E-3,-4.581354442E-4,-3.054236295E-4
7.752954160E-1,8.399149403E-3,1.985253533E-3,-3.054236295E-4
7.777741140E-1,7.177455351E-3,7.635590737E-4,-1.527118147E-3
7.802536970E-1,7.177455351E-3,1.985253533E-3,-3.054236295E-4
7.827323430E-1,7.177455351E-3,1.985253533E-3,-3.054236295E-4
7.852102600E-1,5.955760833E-3,1.985253533E-3,-1.527118147E-3
7.876889580E-1,5.955760833E-3,3.206948051E-3,-1.527118147E-3
7.901684890E-1,5.955760833E-3,7.635590737E-4,-1.527118147E-3
7.926471870E-1,5.955760833E-3,4.428642802E-3,-1.527118147E-3
7.951250520E-1,4.734066315E-3,6.872031838E-3,-2.748812549E-3
7.976038020E-1,5.955760833E-3,5.650337320E-3,-1.527118147E-3
8.000833330E-1,5.955760833E-3,4.428642802E-3,-2.748812549E-3
8.025619790E-1,4.734066315E-3,8.093725890E-3,-1.527118147E-3
8.050398950E-1,4.734066315E-3,9.315420873E-3,-2.748812549E-3
8.075185930E-1,3.512371797E-3,8.093725890E-3,-1.527118147E-3
8.099981770E-1,4.734066315E-3,6.872031838E-3,-2.748812549E-3
8.124768220E-1,3.512371797E-3,5.650337320E-3,-3.970507067E-3
8.149547390E-1,3.512371797E-3,5.650337320E-3,-3.970507067E-3
8.174334370E-1,3.512371797E-3,6.872031838E-3,-2.748812549E-3
8.199130200E-1,2.290677279E-3,5.650337320E-3,-2.748812549E-3
8.223916660E-1,3.512371797E-3,5.650337320E-3,-1.527118147E-3
8.248695830E-1,2.290677279E-3,5.650337320E-3,-1.527118147E-3
8.273482810E-1,2.290677279E-3,3.206948051E-3,-3.970507067E-3
8.298278640E-1,2.290677279E-3,5.650337320E-3,-1.527118147E-3
8.323065100E-1,1.068982761E-3,4.428642802E-3,-1.527118147E-3
8.347843740E-1,1.068982761E-3,4.428642802E-3,-1.527118147E-3
8.372631240E-1,2.290677279E-3,3.206948051E-3,-2.748812549E-3
8.397426560E-1,1.068982761E-3,1.985253533E-3,-2.748812549E-3
8.422213020E-1,1.068982761E-3,3.206948051E-3,-1.527118147E-3
8.446992180E-1,-1.527118147E-4,3.206948051E-3,-1.527118147E-3
8.471779160E-1,-1.527118147E-4,7.635590737E-4,-3.054236295E-4
8.496574990E-1,-1.527118147E-4,-4.581354442E-4,-1.527118147E-3
8.521361450E-1,1.068982761E-3,1.985253533E-3,2.137965523E-3
8.546140620E-1,-1.527118147E-4,7.635590737E-4,9.162708884E-4
8.570927600E-1,-1.527118147E-4,7.635590737E-4,-3.054236295E-4
8.595723430E-1,-1.527118147E-4,4.428642802E-3,-1.527118147E-3
8.620509890E-1,-1.527118147E-4,1.985253533E-3,-3.054236295E-4
8.645289060E-1,1.068982761E-3,7.635590737E-4,-3.054236295E-4
8.670076040E-1,1.068982761E-3,7.635590737E-4,-3.054236295E-4
8.694871870E-1,1.068982761E-3,1.985253533E-3,-3.054236295E-4
8.719658330E-1,1.068982761E-3,1.985253533E-3,2.137965523E-3
8.744436970E-1,2.290677279E-3,1.985253533E-3,2.137965523E-3
8.769224470E-1,2.290677279E-3,1.985253533E-3,2.137965523E-3
8.794019790E-1,1.068982761E-3,1.985253533E-3,9.162708884E-4
8.818806240E-1,2.290677279E-3,3.206948051E-3,-3.054236295E-4
8.843585410E-1,2.290677279E-3,1.985253533E-3,-3.054236295E-4
8.868372390E-1,2.290677279E-3,7.635590737E-4,-3.054236295E-4
8.893168220E-1,1.068982761E-3,3.206948051E-3,9.162708884E-4
8.917954680E-1,-1.374406274E-3,1.985253533E-3,9.162708884E-4
8.942733850E-1,-1.527118147E-4,3.206948051E-3,-3.054236295E-4
8.967520830E-1,1.068982761E-3,4.428642802E-3,9.162708884E-4
8.992316660E-1,2.290677279E-3,4.428642802E-3,9.162708884E-4
9.017103120E-1,1.068982761E-3,6.872031838E-3,9.162708884E-4
9.041882290E-1,1.068982761E-3,5.650337320E-3,-3.054236295E-4
9.066669270E-1,1.068982761E-3,6.872031838E-3,-3.054236295E-4
9.091465100E-1,2.290677279E-3,5.650337320E-3,-3.054236295E-4
9.116251560E-1,2.290677279E-3,6.872031838E-3,2.137965523E-3
9.141030720E-1,3.512371797E-3,5.650337320E-3,9.162708884E-4
9.165817700E-1,4.734066315E-3,6.872031838E-3,9.162708884E-4
9.190613020E-1,4.734066315E-3,6.872031838E-3,9.162708884E-4
9.215399470E-1,5.955760833E-3,8.093725890E-3,-3.054236295E-4
9.240178640E-1,5.955760833E-3,6.872031838E-3,9.162708884E-4
9.264965620E-1,5.955760833E-3,5.650337320E-3,9.162708884E-4
9.289761450E-1,5.955760833E-3,5.650337320E-3,-1.527118147E-3
9.314547910E-1,8.399149403E-3,9.315420873E-3,2.137965523E-3
9.339327080E-1,7.177455351E-3,6.872031838E-3,2.137965523E-3
9.364114060E-1,5.955760833E-3,6.872031838E-3,9.162708884E-4
9.388909890E-1,5.955760833E-3,6.872031838E-3,-3.054236295E-4
9.413696350E-1,5.955760833E-3,5.650337320E-3,2.137965523E-3
9.438475520E-1,5.955760833E-3,6.872031838E-3,9.162708884E-4
9.463262490E-1,4.734066315E-3,6.872031838E-3,9.162708884E-4
9.488058330E-1,4.734066315E-3,8.093725890E-3,-3.054236295E-4
9.512844790E-1,5.955760833E-3,6.872031838E-3,-3.054236295E-4
9.537623430E-1,4.734066315E-3,6.872031838E-3,-1.527118147E-3
9.562410930E-1,5.955760833E-3,6.872031838E-3,-2.748812549E-3
9.587206240E-1,4.734066315E-3,8.093725890E-3,-1.527118147E-3
9.611993220E-1,5.955760833E-3,6.872031838E-3,-3.054236295E-4
9.636771870E-1,4.734066315E-3,4.428642802E-3,-1.527118147E-3
9.661558850E-1,3.512371797E-3,4.428642802E-3,-1.527118147E-3
9.686354680E-1,4.734066315E-3,4.428642802E-3,-3.054236295E-4
9.711141140E-1,2.290677279E-3,1.985253533E-3,-3.054236295E-4
9.735920310E-1,2.290677279E-3,3.206948051E-3,9.162708884E-4
9.760707290E-1,2.290677279E-3,1.985253533E-3,9.162708884E-4
9.785503120E-1,2.290677279E-3,-4.581354442E-4,9.162708884E-4
9.810289580E-1,2.290677279E-3,7.635590737E-4,2.137965523E-3
9.835068740E-1,1.068982761E-3,-4.581354442E-4,9.162708884E-4
9.859855720E-1,-1.527118147E-4,7.635590737E-4,9.162708884E-4
9.884651560E-1,1.068982761E-3,-1.679830020E-3,9.162708884E-4
9.909438020E-1,-1.527118147E-4,-1.679830020E-3,9.162708884E-4
9.934216660E-1,-1.527118147E-4,-2.901524538E-3,9.162708884E-4
9.959004160E-1,2.290677279E-3,-4.581354442E-4,3.359660041E-3
9.983799470E-1,-1.527118147E-4,-1.679830020E-3,9.162708884E-4
1.000858645E0,1.068982761E-3,7.635590737E-4,9.162708884E-4
1.003336510E0,-1.527118147E-4,-1.679830020E-3,2.137965523E-3
1.005815260E0,-1.527118147E-4,-4.581354442E-4,2.137965523E-3
1.008294791E0,1.068982761E-3,-4.581354442E-4,2.137965523E-3
1.010773437E0,-1.527118147E-4,7.635590737E-4,9.162708884E-4
1.013251354E0,-1.527118147E-4,7.635590737E-4,9.162708884E-4
1.015730052E0,-1.527118147E-4,7.635590737E-4,3.359660041E-3
1.018209635E0,-1.374406274E-3,-1.679830020E-3,9.162708884E-4
1.020688281E0,-1.374406274E-3,7.635590737E-4,9.162708884E-4
1.023166197E0,-1.527118147E-4,7.635590737E-4,2.137965523E-3
1.025644895E0,-1.374406274E-3,7.635590737E-4,3.359660041E-3
1.028124479E0,-1.527118147E-4,7.635590737E-4,2.137965523E-3
1.030603124E0,1.068982761E-3,-4.581354442E-4,2.137965523E-3
1.033080989E0,-1.527118147E-4,-4.581354442E-4,2.137965523E-3
1.035559739E0,-1.527118147E-4,-4.581354442E-4,2.137965523E-3
1.038039270E0,-1.527118147E-4,1.985253533E-3,9.162708884E-4
1.040517968E0,1.068982761E-3,7.635590737E-4,9.162708884E-4
1.042995833E0,-1.527118147E-4,-1.679830020E-3,9.162708884E-4
1.045474531E0,-1.374406274E-3,-1.679830020E-3,9.162708884E-4
1.047954114E0,-1.527118147E-4,-1.679830020E-3,2.137965523E-3
1.050432760E0,-2.596100792E-3,-1.679830020E-3,2.137965523E-3
1.052910677E0,-1.374406274E-3,-2.901524538E-3,9.162708884E-4
1.055389374E0,-1.374406274E-3,-2.901524538E-3,9.162708884E-4
1.057868958E0,-2.596100792E-3,-5.344913341E-3,9.162708884E-4
1.060347604E0,-1.527118147E-4,-5.344913341E-3,3.359660041E-3
1.062825520E0,-1.527118147E-4,-5.344913341E-3,4.581354558E-3
1.065304218E0,-1.374406274E-3,-6.566607859E-3,3.359660041E-3
1.067783802E0,-1.527118147E-4,-6.566607859E-3,3.359660041E-3
1.070262447E0,-1.527118147E-4,-9.009997360E-3,3.359660041E-3
1.072740312E0,-1.527118147E-4,-1.145338640E-2,2.137965523E-3
1.075219062E0,-1.527118147E-4,-1.023169141E-2,3.359660041E-3
1.077698593E0,-1.374406274E-3,-1.023169141E-2,4.581354558E-3
1.080177291E0,-1.527118147E-4,-6.566607859E-3,4.581354558E-3
1.082655156E0,-1.527118147E-4,-1.145338640E-2,4.581354558E-3
1.085133854E0,-1.527118147E-4,-9.009997360E-3,5.803049076E-3
1.087613437E0,1.068982761E-3,-1.023169141E-2,3.359660041E-3
1.090092083E0,1.068982761E-3,-1.023169141E-2,2.137965523E-3
1.092569999E0,1.068982761E-3,-1.023169141E-2,3.359660041E-3
1.095048697E0,1.068982761E-3,-9.009997360E-3,2.137965523E-3
1.097528281E0,1.068982761E-3,-1.023169141E-2,2.137965523E-3
1.100006927E0,-1.374406274E-3,-1.023169141E-2,4.581354558E-3
1.102484843E0,-1.527118147E-4,-9.009997360E-3,3.359660041E-3
1.104963541E0,-1.527118147E-4,-7.788302377E-3,2.137965523E-3
1.107443124E0,-1.527118147E-4,-7.788302377E-3,3.359660041E-3
1.109921770E0,-1.527118147E-4,-7.788302377E-3,2.137965523E-3
1.112399687E0,1.068982761E-3,-9.009997360E-3,2.137965523E-3
1.114878385E0,-1.527118147E-4,-9.009997360E-3,3.359660041E-3
1.117357916E0,-1.374406274E-3,-9.009997360E-3,2.137965523E-3
1.119836614E0,-1.374406274E-3,-1.023169141E-2,3.359660041E-3
1.122314479E0,-1.374406274E-3,-1.023169141E-2,3.359660041E-3
1.124793229E0,-1.374406274E-3,-7.788302377E-3,3.359660041E-3
1.127272760E0,-1.527118147E-4,-1.023169141E-2,2.137965523E-3
1.129751406E0,-1.374406274E-3,-9.009997360E-3,2.137965523E-3
1.132229322E0,-2.596100792E-3,-9.009997360E-3,2.137965523E-3
1.134708020E0,-2.596100792E-3,-9.009997360E-3,3.359660041E-3
1.137187604E0,-2.596100792E-3,-1.023169141E-2,3.359660041E-3
1.139666249E0,-2.596100792E-3,-9.009997360E-3,3.359660041E-3
1.142144166E0,-1.374406274E-3,-1.023169141E-2,9.162708884E-4
1.144622864E0,-3.817795310E-3,-1.023169141E-2,2.137965523E-3
1.147102447E0,-3.817795310E-3,-9.009997360E-3,2.137965523E-3
1.149581093E0,-3.817795310E-3,-9.009997360E-3,9.162708884E-4
1.152059010E0,-1.374406274E-3,-1.145338640E-2,2.137965523E-3
1.154537708E0,-1.374406274E-3,-1.267508045E-2,2.137965523E-3
1.157017239E0,-2.596100792E-3,-1.023169141E-2,2.137965523E-3
1.159495937E0,-2.596100792E-3,-9.009997360E-3,9.162708884E-4
1.161973802E0,-2.596100792E-3,-1.023169141E-2,9.162708884E-4
1.164452499E0,-2.596100792E-3,-9.009997360E-3,-3.054236295E-4
1.166932083E0,-3.817795310E-3,-1.023169141E-2,2.137965523E-3
1.169410729E0,-1.374406274E-3,-1.023169141E-2,9.162708884E-4
1.171888645E0,-1.374406274E-3,-1.023169141E-2,9.162708884E-4
1.174367343E0,-2.596100792E-3,-1.023169141E-2,9.162708884E-4
1.176846927E0,-2.596100792E-3,-9.009997360E-3,2.137965523E-3
1.179325572E0,-3.817795310E-3,-7.788302377E-3,2.137965523E-3
1.181803489E0,-2.596100792E-3,-9.009997360E-3,3.359660041E-3
1.184282187E0,-1.527118147E-4,-7.788302377E-3,9.162708884E-4
1.186761770E0,-1.374406274E-3,-7.788302377E-3,2.137965523E-3
1.189240416E0,-1.374406274E-3,-1.023169141E-2,2.137965523E-3
1.191718281E0,-2.596100792E-3,-7.788302377E-3,2.137965523E-3
1.194197031E0,-1.374406274E-3,-7.788302377E-3,2.137965523E-3
1.196676562E0,-2.596100792E-3,-7.788302377E-3,3.359660041E-3
1.199155208E0,-2.596100792E-3,-7.788302377E-3,3.359660041E-3
1.201633124E0,-1.374406274E-3,-9.009997360E-3,2.137965523E-3
1.204111874E0,-1.527118147E-4,-6.566607859E-3,3.359660041E-3
1.206591406E0,-1.374406274E-3,-7.788302377E-3,3.359660041E-3
1.209070052E0,-1.527118147E-4,-7.788302377E-3,3.359660041E-3
1.211547968E0,1.068982761E-3,-6.566607859E-3,9.162708884E-4
1.214026666E0,1.068982761E-3,-4.123218823E-3,3.359660041E-3
1.216506249E0,-1.527118147E-4,-7.788302377E-3,3.359660041E-3
1.218984895E0,-1.527118147E-4,-6.566607859E-3,2.137965523E-3
1.221462812E0,-1.527118147E-4,-5.344913341E-3,3.359660041E-3
1.223941510E0,-1.374406274E-3,-4.123218823E-3,9.162708884E-4
1.226421041E0,-1.374406274E-3,-4.123218823E-3,9.162708884E-4
1.228899739E0,-1.527118147E-4,-1.679830020E-3,9.162708884E-4
1.231377656E0,-1.527118147E-4,-4.123218823E-3,2.137965523E-3
1.233856354E0,-1.374406274E-3,-2.901524538E-3,9.162708884E-4
1.236335885E0,-2.596100792E-3,-2.901524538E-3,-3.054236295E-4
1.238814583E0,-1.374406274E-3,-1.679830020E-3,9.162708884E-4
1.241292447E0,-1.374406274E-3,-2.901524538E-3,9.162708884E-4
1.243771145E0,-2.596100792E-3,-2.901524538E-3,-3.054236295E-4
1.246250729E0,-2.596100792E-3,-1.679830020E-3,9.162708884E-4
1.248729374E0,-1.374406274E-3,-4.581354442E-4,-3.054236295E-4
1.251207291E0,-2.596100792E-3,-4.581354442E-4,9.162708884E-4
1.253685989E0,-1.374406274E-3,-4.581354442E-4,-3.054236295E-4
1.256165572E0,-1.374406274E-3,7.635590737E-4,-1.527118147E-3
1.258644218E0,-1.527118147E-4,7.635590737E-4,-3.054236295E-4
1.261122135E0,-1.374406274E-3,3.206948051E-3,9.162708884E-4
1.263600833E0,1.068982761E-3,1.985253533E-3,3.359660041E-3
1.266080416E0,-1.527118147E-4,7.635590737E-4,9.162708884E-4
1.268559062E0,1.068982761E-3,1.985253533E-3,9.162708884E-4
1.271036979E0,1.068982761E-3,3.206948051E-3,2.137965523E-3
1.273515677E0,1.068982761E-3,3.206948051E-3,3.359660041E-3
1.275995208E0,-1.527118147E-4,1.985253533E-3,3.359660041E-3
1.278473906E0,1.068982761E-3,5.650337320E-3,3.359660041E-3
1.280951770E0,1.068982761E-3,4.428642802E-3,3.359660041E-3
1.283430468E0,2.290677279E-3,5.650337320E-3,5.803049076E-3
1.285910052E0,-1.527118147E-4,8.093725890E-3,4.581354558E-3
1.288388697E0,1.068982761E-3,5.650337320E-3,3.359660041E-3
1.290866614E0,2.290677279E-3,4.428642802E-3,3.359660041E-3
1.293345312E0,2.290677279E-3,9.315420873E-3,3.359660041E-3
1.295824895E0,3.512371797E-3,1.053711493E-2,4.581354558E-3
1.298303541E0,3.512371797E-3,9.315420873E-3,3.359660041E-3
1.300781458E0,2.290677279E-3,8.093725890E-3,2.137965523E-3
1.303260156E0,3.512371797E-3,1.175880991E-2,2.137965523E-3
1.305739739E0,3.512371797E-3,1.053711493E-2,3.359660041E-3
1.308218385E0,3.512371797E-3,1.298050396E-2,2.137965523E-3
1.310696249E0,3.512371797E-3,1.298050396E-2,2.137965523E-3
1.313174999E0,2.290677279E-3,1.420219894E-2,4.581354558E-3
1.315654531E0,2.290677279E-3,1.175880991E-2,3.359660041E-3
1.318133177E0,2.290677279E-3,1.420219894E-2,3.359660041E-3
1.320611093E0,2.290677279E-3,1.542389300E-2,4.581354558E-3
1.323089791E0,2.290677279E-3,1.298050396E-2,2.137965523E-3
1.325569374E0,3.512371797E-3,1.175880991E-2,2.137965523E-3
1.328048020E0,3.512371797E-3,1.420219894E-2,3.359660041E-3
1.330525937E0,3.512371797E-3,1.175880991E-2,2.137965523E-3
1.333004635E0,3.512371797E-3,1.298050396E-2,4.581354558E-3
1.335484218E0,5.955760833E-3,1.175880991E-2,4.581354558E-3
1.337962864E0,5.955760833E-3,8.093725890E-3,3.359660041E-3
1.340440781E0,4.734066315E-3,9.315420873E-3,3.359660041E-3
1.342919479E0,4.734066315E-3,8.093725890E-3,4.581354558E-3
1.345399062E0,4.734066315E-3,6.872031838E-3,4.581354558E-3
1.347877708E0,4.734066315E-3,5.650337320E-3,3.359660041E-3
1.350355572E0,3.512371797E-3,5.650337320E-3,7.024743594E-3
1.352834322E0,3.512371797E-3,4.428642802E-3,5.803049076E-3
1.355313854E0,4.734066315E-3,3.206948051E-3,4.581354558E-3
1.357792499E0,3.512371797E-3,3.206948051E-3,3.359660041E-3
1.360270416E0,2.290677279E-3,3.206948051E-3,3.359660041E-3
1.362749114E0,3.512371797E-3,4.428642802E-3,3.359660041E-3
1.365228697E0,3.512371797E-3,1.985253533E-3,2.137965523E-3
1.367707343E0,3.512371797E-3,1.985253533E-3,9.162708884E-4
1.370185260E0,2.290677279E-3,3.206948051E-3,2.137965523E-3
1.372663958E0,1.068982761E-3,7.635590737E-4,2.137965523E-3
1.375143541E0,1.068982761E-3,3.206948051E-3,2.137965523E-3
1.377622187E0,1.068982761E-3,1.985253533E-3,9.162708884E-4
1.380100104E0,-1.527118147E-4,7.635590737E-4,9.162708884E-4
1.382578802E0,1.068982761E-3,-4.581354442E-4,9.162708884E-4
1.385058385E0,-1.527118147E-4,7.635590737E-4,2.137965523E-3
1.387537031E0,-1.374406274E-3,-4.581354442E-4,9.162708884E-4
1.390014895E0,-1.374406274E-3,1.985253533E-3,9.162708884E-4
1.392493645E0,-1.374406274E-3,1.985253533E-3,-3.054236295E-4
1.394973177E0,-1.374406274E-3,1.985253533E-3,-1.527118147E-3
1.397451822E0,-1.374406274E-3,3.206948051E-3,-3.054236295E-4
1.399929739E0,-1.527118147E-4,3.206948051E-3,-1.527118147E-3
1.402408437E0,-1.374406274E-3,1.985253533E-3,-1.527118147E-3
1.404888020E0,-1.527118147E-4,1.985253533E-3,-1.527118147E-3
1.407366666E0,-1.527118147E-4,7.635590737E-4,-1.527118147E-3
1.409844583E0,-1.527118147E-4,1.985253533E-3,-3.054236295E-4
1.412323281E0,-1.374406274E-3,1.985253533E-3,9.162708884E-4
1.414802864E0,-1.374406274E-3,1.985253533E-3,-3.054236295E-4
1.417281510E0,1.068982761E-3,7.635590737E-4,-3.054236295E-4
1.419759427E0,-1.527118147E-4,-1.679830020E-3,2.137965523E-3
1.422238124E0,-1.527118147E-4,-4.581354442E-4,9.162708884E-4
1.424717708E0,-1.527118147E-4,-1.679830020E-3,2.137965523E-3
1.427196354E0,-1.527118147E-4,-1.679830020E-3,3.359660041E-3
1.429674218E0,-1.527118147E-4,-1.679830020E-3,4.581354558E-3
1.432152968E0,-1.527118147E-4,-2.901524538E-3,7.024743594E-3
1.434632499E0,-1.527118147E-4,-2.901524538E-3,4.581354558E-3
1.437111145E0,-1.374406274E-3,-1.679830020E-3,4.581354558E-3
1.439589062E0,-1.374406274E-3,-4.123218823E-3,5.803049076E-3
1.442067760E0,-1.374406274E-3,-1.679830020E-3,7.024743594E-3
1.444547343E0,-1.374406274E-3,-1.679830020E-3,7.024743594E-3
1.447025989E0,-1.374406274E-3,-4.581354442E-4,7.024743594E-3
1.449503906E0,-1.374406274E-3,-2.901524538E-3,5.803049076E-3
1.451982604E0,-1.374406274E-3,-1.679830020E-3,5.803049076E-3
1.454462187E0,-1.374406274E-3,-1.679830020E-3,5.803049076E-3
1.456940833E0,-1.527118147E-4,-1.679830020E-3,5.803049076E-3
1.459418749E0,-1.527118147E-4,7.635590737E-4,7.024743594E-3
1.461897447E0,1.068982761E-3,-1.679830020E-3,5.803049076E-3
1.464376979E0,1.068982761E-3,-1.679830020E-3,7.024743594E-3
1.466855677E0,2.290677279E-3,-1.679830020E-3,8.246437646E-3
1.469333541E0,3.512371797E-3,-1.679830020E-3,8.246437646E-3
1.471812291E0,5.955760833E-3,-4.581354442E-4,7.024743594E-3
1.474291822E0,5.955760833E-3,-1.679830020E-3,7.024743594E-3
1.476770520E0,5.955760833E-3,-1.679830020E-3,7.024743594E-3
1.479248385E0,5.955760833E-3,-4.581354442E-4,7.024743594E-3
1.481727083E0,7.177455351E-3,-4.581354442E-4,8.246437646E-3
1.484206666E0,7.177455351E-3,-4.581354442E-4,7.024743594E-3
1.486685312E0,7.177455351E-3,-4.581354442E-4,8.246437646E-3
1.489163229E0,8.399149403E-3,-4.123218823E-3,8.246437646E-3
1.491641927E0,9.620844387E-3,-2.901524538E-3,7.024743594E-3
1.494121510E0,9.620844387E-3,-1.679830020E-3,7.024743594E-3
1.496600156E0,9.620844387E-3,-1.679830020E-3,7.024743594E-3
1.499078072E0,8.399149403E-3,-2.901524538E-3,7.024743594E-3
1.501556770E0,9.620844387E-3,-4.123218823E-3,7.024743594E-3
1.504036302E0,9.620844387E-3,-4.123218823E-3,7.024743594E-3
1.506514999E0,1.084253844E-2,-4.123218823E-3,4.581354558E-3
1.508992864E0,1.084253844E-2,-4.123218823E-3,7.024743594E-3
1.511471562E0,9.620844387E-3,-4.123218823E-3,5.803049076E-3
1.513951145E0,1.084253844E-2,-2.901524538E-3,7.024743594E-3
1.516429791E0,1.084253844E-2,-2.901524538E-3,8.246437646E-3
1.518907708E0,9.620844387E-3,-2.901524538E-3,5.803049076E-3
1.521386406E0,9.620844387E-3,-1.679830020E-3,5.803049076E-3
1.523865989E0,8.399149403E-3,-4.123218823E-3,5.803049076E-3
1.526344635E0,9.620844387E-3,-4.123218823E-3,8.246437646E-3
1.528822552E0,8.399149403E-3,-2.901524538E-3,8.246437646E-3
1.531301249E0,7.177455351E-3,-2.901524538E-3,8.246437646E-3
1.533780833E0,7.177455351E-3,-2.901524538E-3,8.246437646E-3
1.536259479E0,7.177455351E-3,-2.901524538E-3,8.246437646E-3
1.538737395E0,7.177455351E-3,-1.679830020E-3,4.581354558E-3
1.541216093E0,7.177455351E-3,-2.901524538E-3,7.024743594E-3
1.543695624E0,5.955760833E-3,-1.679830020E-3,7.024743594E-3
1.546174322E0,7.177455351E-3,-4.581354442E-4,7.024743594E-3
1.548652187E0,5.955760833E-3,-1.679830020E-3,7.024743594E-3
1.551130937E0,5.955760833E-3,-4.581354442E-4,5.803049076E-3
1.553610468E0,4.734066315E-3,7.635590737E-4,5.803049076E-3
1.556089114E0,5.955760833E-3,1.985253533E-3,5.803049076E-3
1.558567031E0,4.734066315E-3,3.206948051E-3,4.581354558E-3
1.561045729E0,4.734066315E-3,3.206948051E-3,5.803049076E-3
1.563525312E0,3.512371797E-3,3.206948051E-3,7.024743594E-3
1.566003958E0,3.512371797E-3,4.428642802E-3,5.803049076E-3
1.568481874E0,3.512371797E-3,3.206948051E-3,5.803049076E-3
1.570960572E0,3.512371797E-3,5.650337320E-3,4.581354558E-3
1.573440156E0,3.512371797E-3,5.650337320E-3,3.359660041E-3
1.575918802E0,3.512371797E-3,8.093725890E-3,4.581354558E-3
1.578396718E0,3.512371797E-3,6.872031838E-3,4.581354558E-3
1.580875416E0,2.290677279E-3,9.315420873E-3,5.803049076E-3
1.583354947E0,3.512371797E-3,6.872031838E-3,3.359660041E-3
1.585833645E0,2.290677279E-3,1.053711493E-2,4.581354558E-3
1.588311510E0,2.290677279E-3,9.315420873E-3,5.803049076E-3
1.590790208E0,-1.527118147E-4,1.175880991E-2,4.581354558E-3
1.593269791E0,1.068982761E-3,1.175880991E-2,5.803049076E-3
1.595748437E0,1.068982761E-3,1.175880991E-2,3.359660041E-3
1.598226354E0,-1.527118147E-4,1.420219894E-2,5.803049076E-3
1.600705052E0,1.068982761E-3,1.298050396E-2,4.581354558E-3
1.603184635E0,1.068982761E-3,1.420219894E-2,5.803049076E-3
1.605663281E0,1.068982761E-3,1.298050396E-2,4.581354558E-3
1.608141197E0,1.068982761E-3,1.298050396E-2,3.359660041E-3
1.610619895E0,1.068982761E-3,1.175880991E-2,3.359660041E-3
1.613099479E0,1.068982761E-3,1.053711493E-2,3.359660041E-3
1.615578124E0,-1.527118147E-4,1.298050396E-2,3.359660041E-3
1.618055989E0,1.068982761E-3,8.093725890E-3,2.137965523E-3
1.620534739E0,1.068982761E-3,1.053711493E-2,3.359660041E-3
1.623014270E0,-1.527118147E-4,1.053711493E-2,3.359660041E-3
1.625492968E0,1.068982761E-3,6.872031838E-3,4.581354558E-3
1.627970833E0,1.068982761E-3,6.872031838E-3,3.359660041E-3
1.630449531E0,-1.527118147E-4,5.650337320E-3,2.137965523E-3
1.632929114E0,1.068982761E-3,5.650337320E-3,2.137965523E-3
1.635407760E0,2.290677279E-3,5.650337320E-3,3.359660041E-3
1.637885677E0,2.290677279E-3,5.650337320E-3,2.137965523E-3
1.640364374E0,1.068982761E-3,6.872031838E-3,3.359660041E-3
1.642843958E0,1.068982761E-3,6.872031838E-3,3.359660041E-3
1.645322604E0,2.290677279E-3,5.650337320E-3,3.359660041E-3
1.647800520E0,1.068982761E-3,1.985253533E-3,2.137965523E-3
1.650279218E0,2.290677279E-3,1.985253533E-3,3.359660041E-3
1.652758802E0,2.290677279E-3,1.985253533E-3,3.359660041E-3
1.655237447E0,2.290677279E-3,1.985253533E-3,3.359660041E-3
1.657715364E0,1.068982761E-3,1.985253533E-3,3.359660041E-3
1.660194062E0,1.068982761E-3,3.206948051E-3,3.359660041E-3
1.662673593E0,2.290677279E-3,1.985253533E-3,3.359660041E-3
1.665152291E0,1.068982761E-3,7.635590737E-4,3.359660041E-3
1.667630156E0,-1.527118147E-4,-4.581354442E-4,2.137965523E-3
1.670108854E0,-1.527118147E-4,7.635590737E-4,3.359660041E-3
1.672588437E0,1.068982761E-3,7.635590737E-4,3.359660041E-3
1.675067083E0,-1.527118147E-4,7.635590737E-4,3.359660041E-3
1.677544999E0,-1.374406274E-3,7.635590737E-4,3.359660041E-3
1.680023697E0,-1.527118147E-4,7.635590737E-4,5.803049076E-3
1.682503281E0,-1.527118147E-4,-1.679830020E-3,4.581354558E-3
1.684981927E0,1.068982761E-3,-4.581354442E-4,4.581354558E-3
1.687459843E0,-1.374406274E-3,-2.901524538E-3,4.581354558E-3
1.689938541E0,-1.374406274E-3,-1.679830020E-3,4.581354558E-3
1.692418124E0,-1.374406274E-3,-2.901524538E-3,3.359660041E-3
1.694896770E0,-1.374406274E-3,-1.679830020E-3,4.581354558E-3
1.697374687E0,-1.374406274E-3,-1.679830020E-3,7.024743594E-3
1.699853385E0,-1.527118147E-4,-1.679830020E-3,7.024743594E-3
1.702332916E0,1.068982761E-3,-2.901524538E-3,7.024743594E-3
1.704811562E0,1.068982761E-3,-4.123218823E-3,4.581354558E-3
1.707289479E0,2.290677279E-3,-1.679830020E-3,4.581354558E-3
1.709768177E0,2.290677279E-3,-1.679830020E-3,4.581354558E-3
1.712247760E0,2.290677279E-3,-1.679830020E-3,3.359660041E-3
1.714726406E0,2.290677279E-3,-2.901524538E-3,4.581354558E-3
1.717204322E0,2.290677279E-3,-2.901524538E-3,2.137965523E-3
1.719683020E0,3.512371797E-3,-2.901524538E-3,2.137965523E-3
1.722162604E0,3.512371797E-3,-4.581354442E-4,5.803049076E-3
1.724641249E0,4.734066315E-3,7.635590737E-4,2.137965523E-3
1.727119166E0,4.734066315E-3,-4.581354442E-4,2.137965523E-3
1.729597864E0,4.734066315E-3,-1.679830020E-3,2.137965523E-3
1.732077447E0,4.734066315E-3,7.635590737E-4,2.137965523E-3
1.734556093E0,4.734066315E-3,-4.581354442E-4,2.137965523E-3
1.737033958E0,4.734066315E-3,-4.581354442E-4,3.359660041E-3
1.739512708E0,5.955760833E-3,7.635590737E-4,2.137965523E-3
1.741992239E0,7.177455351E-3,1.985253533E-3,2.137965523E-3
1.744470885E0,5.955760833E-3,7.635590737E-4,3.359660041E-3
1.746948802E0,5.955760833E-3,4.428642802E-3,3.359660041E-3
1.749427499E0,7.177455351E-3,3.206948051E-3,3.359660041E-3
1.751907083E0,7.177455351E-3,1.985253533E-3,3.359660041E-3
1.754385729E0,5.955760833E-3,1.985253533E-3,3.359660041E-3
1.756863645E0,7.177455351E-3,3.206948051E-3,4.581354558E-3
1.759342343E0,7.177455351E-3,1.985253533E-3,4.581354558E-3
1.761821927E0,5.955760833E-3,3.206948051E-3,5.803049076E-3
1.764300572E0,8.399149403E-3,4.428642802E-3,5.803049076E-3
1.766778489E0,7.177455351E-3,3.206948051E-3,5.803049076E-3
1.769257187E0,8.399149403E-3,4.428642802E-3,4.581354558E-3
1.771736718E0,7.177455351E-3,3.206948051E-3,5.803049076E-3
1.774215416E0,7.177455351E-3,3.206948051E-3,7.024743594E-3
1.776693281E0,7.177455351E-3,4.428642802E-3,7.024743594E-3
1.779172031E0,7.177455351E-3,5.650337320E-3,5.803049076E-3
1.781651562E0,7.177455351E-3,3.206948051E-3,5.803049076E-3
1.784130208E0,7.177455351E-3,5.650337320E-3,8.246437646E-3
1.786608124E0,7.177455351E-3,4.428642802E-3,8.246437646E-3
1.789086822E0,5.955760833E-3,3.206948051E-3,7.024743594E-3
1.791566406E0,5.955760833E-3,3.206948051E-3,5.803049076E-3
1.794045052E0,4.734066315E-3,3.206948051E-3,4.581354558E-3
1.796522968E0,3.512371797E-3,1.985253533E-3,7.024743594E-3
1.799001666E0,3.512371797E-3,1.985253533E-3,5.803049076E-3
1.801481249E0,3.512371797E-3,4.428642802E-3,7.024743594E-3
1.803959895E0,3.512371797E-3,3.206948051E-3,7.024743594E-3
1.806437812E0,4.734066315E-3,1.985253533E-3,5.803049076E-3
1.808916510E0,4.734066315E-3,3.206948051E-3,4.581354558E-3
1.811396041E0,3.512371797E-3,1.985253533E-3,5.803049076E-3
1.813874739E0,2.290677279E-3,7.635590737E-4,5.803049076E-3
1.816352604E0,4.734066315E-3,7.635590737E-4,4.581354558E-3
1.818831354E0,3.512371797E-3,1.985253533E-3,5.803049076E-3
1.821310885E0,2.290677279E-3,7.635590737E-4,4.581354558E-3
1.823789531E0,2.290677279E-3,-4.581354442E-4,5.803049076E-3
1.826267447E0,2.290677279E-3,7.635590737E-4,4.581354558E-3
1.828746145E0,4.734066315E-3,7.635590737E-4,9.162708884E-4
1.831225729E0,3.512371797E-3,-4.581354442E-4,2.137965523E-3
1.833704374E0,4.734066315E-3,1.985253533E-3,2.137965523E-3
1.836182291E0,4.734066315E-3,-4.581354442E-4,2.137965523E-3
1.838660989E0,3.512371797E-3,-1.679830020E-3,9.162708884E-4
1.841140572E0,3.512371797E-3,-4.581354442E-4,3.359660041E-3
1.843619218E0,3.512371797E-3,-1.679830020E-3,3.359660041E-3
1.846097135E0,3.512371797E-3,-4.581354442E-4,3.359660041E-3
1.848575833E0,3.512371797E-3,-2.901524538E-3,3.359660041E-3
1.851055364E0,2.290677279E-3,-1.679830020E-3,3.359660041E-3
1.853534062E0,2.290677279E-3,-2.901524538E-3,9.162708884E-4
1.856011927E0,2.290677279E-3,-1.679830020E-3,3.359660041E-3
1.858490624E0,2.290677279E-3,-2.901524538E-3,4.581354558E-3
1.860970208E0,2.290677279E-3,-2.901524538E-3,2.137965523E-3
1.863448854E0,1.068982761E-3,-4.123218823E-3,2.137965523E-3
1.865926770E0,2.290677279E-3,-4.123218823E-3,9.162708884E-4
1.868405468E0,2.290677279E-3,-2.901524538E-3,2.137965523E-3
1.870885052E0,3.512371797E-3,-2.901524538E-3,2.137965523E-3
1.873363697E0,3.512371797E-3,-4.581354442E-4,2.137965523E-3
1.875841614E0,1.068982761E-3,-4.581354442E-4,3.359660041E-3
1.878320312E0,2.290677279E-3,-1.679830020E-3,3.359660041E-3
1.880799895E0,3.512371797E-3,-4.581354442E-4,2.137965523E-3
1.883278541E0,2.290677279E-3,-1.679830020E-3,2.137965523E-3
1.885756406E0,2.290677279E-3,-4.581354442E-4,2.137965523E-3
1.888235156E0,3.512371797E-3,-4.581354442E-4,3.359660041E-3
1.890714687E0,3.512371797E-3,1.985253533E-3,3.359660041E-3
1.893193333E0,3.512371797E-3,7.635590737E-4,3.359660041E-3
1.895671249E0,2.290677279E-3,1.985253533E-3,3.359660041E-3
1.898149947E0,2.290677279E-3,-4.581354442E-4,2.137965523E-3
1.900629531E0,1.068982761E-3,-1.679830020E-3,2.137965523E-3
1.903108177E0,2.290677279E-3,-4.581354442E-4,3.359660041E-3
1.905586093E0,3.512371797E-3,-4.581354442E-4,3.359660041E-3
1.908064791E0,1.068982761E-3,-4.581354442E-4,3.359660041E-3
1.910544374E0,2.290677279E-3,-1.679830020E-3,2.137965523E-3
1.913023020E0,1.068982761E-3,-4.581354442E-4,4.581354558E-3
1.915500937E0,1.068982761E-3,7.635590737E-4,3.359660041E-3
1.917979635E0,-1.527118147E-4,-1.679830020E-3,3.359660041E-3
1.920459166E0,-1.527118147E-4,-4.581354442E-4,3.359660041E-3
1.922937864E0,-1.527118147E-4,7.635590737E-4,9.162708884E-4
1.925415729E0,-1.527118147E-4,7.635590737E-4,3.359660041E-3
1.927894479E0,-1.527118147E-4,1.985253533E-3,4.581354558E-3
1.930374010E0,-1.527118147E-4,3.206948051E-3,2.137965523E-3
1.932852656E0,-1.527118147E-4,3.206948051E-3,2.137965523E-3
1.935330572E0,-2.596100792E-3,7.635590737E-4,2.137965523E-3
1.937809270E0,-2.596100792E-3,1.985253533E-3,2.137965523E-3
1.940288854E0,-1.374406274E-3,-4.581354442E-4,9.162708884E-4
1.942767499E0,-2.596100792E-3,7.635590737E-4,9.162708884E-4
1.945245416E0,-2.596100792E-3,7.635590737E-4,2.137965523E-3
1.947724114E0,-3.817795310E-3,4.428642802E-3,2.137965523E-3
1.950203697E0,-3.817795310E-3,3.206948051E-3,3.359660041E-3
1.952682343E0,-2.596100792E-3,4.428642802E-3,3.359660041E-3
1.955160260E0,-3.817795310E-3,1.985253533E-3,4.581354558E-3
1.957638958E0,-2.596100792E-3,3.206948051E-3,3.359660041E-3
1.960118489E0,-3.817795310E-3,4.428642802E-3,2.137965523E-3
1.962597187E0,-2.596100792E-3,3.206948051E-3,3.359660041E-3
1.965075052E0,-2.596100792E-3,4.428642802E-3,4.581354558E-3
1.967553802E0,-2.596100792E-3,3.206948051E-3,3.359660041E-3
1.970033333E0,-2.596100792E-3,1.985253533E-3,4.581354558E-3
1.972511979E0,-1.374406274E-3,1.985253533E-3,4.581354558E-3
1.974989895E0,-3.817795310E-3,4.428642802E-3,4.581354558E-3
1.977468593E0,-2.596100792E-3,5.650337320E-3,3.359660041E-3
1.979948177E0,-2.596100792E-3,4.428642802E-3,2.137965523E-3
1.982426822E0,-1.374406274E-3,3.206948051E-3,2.137965523E-3
1.984904739E0,1.068982761E-3,3.206948051E-3,3.359660041E-3
1.987383437E0,-1.527118147E-4,5.650337320E-3,3.359660041E-3
1.989863020E0,1.068982761E-3,5.650337320E-3,3.359660041E-3
1.992341666E0,2.290677279E-3,4.428642802E-3,2.137965523E-3
1.994819583E0,-1.527118147E-4,5.650337320E-3,3.359660041E-3
1.997298281E0,2.290677279E-3,4.428642802E-3,3.359660041E-3
1.999777812E0,-1.527118147E-4,4.428642802E-3,2.137965523E-3
2.002256458E0,2.290677279E-3,5.650337320E-3,3.359660041E-3
2.004734374E0,2.290677279E-3,1.985253533E-3,2.137965523E-3
2.007213072E0,2.290677279E-3,4.428642802E-3,3.359660041E-3
2.009692656E0,2.290677279E-3,3.206948051E-3,3.359660041E-3
2.012171302E0,2.290677279E-3,5.650337320E-3,4.581354558E-3
2.014649218E0,2.290677279E-3,5.650337320E-3,2.137965523E-3
2.017127916E0,2.290677279E-3,6.872031838E-3,3.359660041E-3
2.019607499E0,2.290677279E-3,4.428642802E-3,3.359660041E-3
2.022086145E0,3.512371797E-3,3.206948051E-3,3.359660041E-3
2.024564062E0,2.290677279E-3,4.428642802E-3,4.581354558E-3
2.027042760E0,3.512371797E-3,5.650337320E-3,5.803049076E-3
2.029522343E0,1.068982761E-3,4.428642802E-3,4.581354558E-3
2.032000989E0,2.290677279E-3,4.428642802E-3,5.803049076E-3
2.034478854E0,2.290677279E-3,3.206948051E-3,5.803049076E-3
2.036957604E0,2.290677279E-3,3.206948051E-3,7.024743594E-3
2.039437135E0,2.290677279E-3,7.635590737E-4,5.803049076E-3
2.041915781E0,2.290677279E-3,3.206948051E-3,5.803049076E-3
2.044393697E0,2.290677279E-3,3.206948051E-3,5.803049076E-3
2.046872395E0,2.290677279E-3,4.428642802E-3,5.803049076E-3
2.049351979E0,1.068982761E-3,4.428642802E-3,5.803049076E-3
2.051830624E0,2.290677279E-3,4.428642802E-3,5.803049076E-3
2.054308541E0,1.068982761E-3,4.428642802E-3,7.024743594E-3
2.056787239E0,1.068982761E-3,4.428642802E-3,7.024743594E-3
2.059266822E0,1.068982761E-3,6.872031838E-3,4.581354558E-3
2.061745468E0,2.290677279E-3,8.093725890E-3,4.581354558E-3
2.064223385E0,1.068982761E-3,8.093725890E-3,3.359660041E-3
2.066702083E0,1.068982761E-3,8.093725890E-3,4.581354558E-3
2.069181614E0,1.068982761E-3,8.093725890E-3,3.359660041E-3
2.071660312E0,1.068982761E-3,9.315420873E-3,3.359660041E-3
2.074138177E0,1.068982761E-3,8.093725890E-3,2.137965523E-3
2.076616927E0,-1.527118147E-4,6.872031838E-3,2.137965523E-3
2.079096458E0,1.068982761E-3,6.872031838E-3,3.359660041E-3
2.081575104E0,1.068982761E-3,8.093725890E-3,2.137965523E-3
2.084053020E0,1.068982761E-3,9.315420873E-3,2.137965523E-3
2.086531718E0,1.068982761E-3,8.093725890E-3,2.137965523E-3
2.089011302E0,1.068982761E-3,6.872031838E-3,9.162708884E-4
2.091489947E0,-1.527118147E-4,5.650337320E-3,2.137965523E-3
2.093967864E0,1.068982761E-3,5.650337320E-3,3.359660041E-3
2.096446562E0,-1.527118147E-4,6.872031838E-3,3.359660041E-3
2.098926145E0,-1.527118147E-4,6.872031838E-3,4.581354558E-3
2.101404791E0,-1.527118147E-4,8.093725890E-3,3.359660041E-3
2.103882708E0,2.290677279E-3,6.872031838E-3,2.137965523E-3
2.106361406E0,1.068982761E-3,6.872031838E-3,3.359660041E-3
2.108840937E0,-1.527118147E-4,9.315420873E-3,3.359660041E-3
2.111319583E0,1.068982761E-3,6.872031838E-3,3.359660041E-3
2.113797499E0,2.290677279E-3,6.872031838E-3,4.581354558E-3
2.116276197E0,1.068982761E-3,9.315420873E-3,4.581354558E-3
2.118755781E0,1.068982761E-3,9.315420873E-3,3.359660041E-3
2.121234427E0,2.290677279E-3,8.093725890E-3,4.581354558E-3
2.123712343E0,2.290677279E-3,6.872031838E-3,4.581354558E-3
2.126191041E0,2.290677279E-3,9.315420873E-3,4.581354558E-3
2.128670624E0,3.512371797E-3,8.093725890E-3,4.581354558E-3
2.131149270E0,3.512371797E-3,9.315420873E-3,4.581354558E-3
2.133627187E0,2.290677279E-3,9.315420873E-3,4.581354558E-3
2.136105885E0,3.512371797E-3,9.315420873E-3,3.359660041E-3
2.138585468E0,3.512371797E-3,9.315420873E-3,3.359660041E-3
2.141064114E0,3.512371797E-3,9.315420873E-3,3.359660041E-3
2.143542031E0,4.734066315E-3,1.053711493E-2,3.359660041E-3
2.146020729E0,3.512371797E-3,9.315420873E-3,3.359660041E-3
2.148500260E0,3.512371797E-3,9.315420873E-3,3.359660041E-3
2.150978958E0,3.512371797E-3,1.175880991E-2,3.359660041E-3
2.153456822E0,3.512371797E-3,1.175880991E-2,3.359660041E-3
2.155935520E0,4.734066315E-3,1.175880991E-2,3.359660041E-3
2.158415104E0,3.512371797E-3,1.175880991E-2,4.581354558E-3
2.160893749E0,4.734066315E-3,1.175880991E-2,3.359660041E-3
2.163371666E0,4.734066315E-3,1.053711493E-2,2.137965523E-3
2.165850364E0,4.734066315E-3,9.315420873E-3,3.359660041E-3
2.168329947E0,4.734066315E-3,6.872031838E-3,9.162708884E-4
2.170808593E0,4.734066315E-3,8.093725890E-3,2.137965523E-3
2.173286510E0,3.512371797E-3,8.093725890E-3,2.137965523E-3
2.175765208E0,3.512371797E-3,6.872031838E-3,9.162708884E-4
2.178244791E0,3.512371797E-3,8.093725890E-3,2.137965523E-3
2.180723437E0,3.512371797E-3,9.315420873E-3,2.137965523E-3
2.183201302E0,3.512371797E-3,9.315420873E-3,9.162708884E-4
2.185680052E0,3.512371797E-3,6.872031838E-3,-3.054236295E-4
2.188159583E0,2.290677279E-3,6.872031838E-3,9.162708884E-4
2.190638229E0,2.290677279E-3,5.650337320E-3,9.162708884E-4
2.193116145E0,3.512371797E-3,5.650337320E-3,9.162708884E-4
2.195594843E0,3.512371797E-3,3.206948051E-3,-1.527118147E-3
2.198074427E0,2.290677279E-3,3.206948051E-3,9.162708884E-4
2.200553072E0,2.290677279E-3,3.206948051E-3,3.359660041E-3
2.203030989E0,3.512371797E-3,3.206948051E-3,2.137965523E-3
2.205509687E0,3.512371797E-3,7.635590737E-4,9.162708884E-4
2.207989270E0,3.512371797E-3,1.985253533E-3,3.359660041E-3
2.210467916E0,3.512371797E-3,7.635590737E-4,9.162708884E-4
2.212945833E0,2.290677279E-3,-4.581354442E-4,2.137965523E-3
2.215424531E0,3.512371797E-3,-1.679830020E-3,2.137965523E-3
2.217904062E0,3.512371797E-3,-1.679830020E-3,3.359660041E-3
2.220382760E0,3.512371797E-3,-1.679830020E-3,3.359660041E-3
2.222860624E0,2.290677279E-3,-4.123218823E-3,3.359660041E-3
2.225339374E0,1.068982761E-3,-2.901524538E-3,3.359660041E-3
2.227818906E0,2.290677279E-3,-4.123218823E-3,2.137965523E-3
2.230297552E0,3.512371797E-3,-2.901524538E-3,2.137965523E-3
2.232775468E0,1.068982761E-3,-2.901524538E-3,3.359660041E-3
2.235254166E0,1.068982761E-3,-2.901524538E-3,9.162708884E-4
2.237733749E0,-1.527118147E-4,-4.123218823E-3,3.359660041E-3
2.240212395E0,-1.527118147E-4,-4.123218823E-3,3.359660041E-3
2.242690312E0,1.068982761E-3,-4.123218823E-3,2.137965523E-3
2.245169010E0,-1.374406274E-3,-4.123218823E-3,3.359660041E-3
2.247648593E0,-1.527118147E-4,-4.123218823E-3,2.137965523E-3
2.250127239E0,-1.527118147E-4,-2.901524538E-3,9.162708884E-4
2.252605156E0,-2.596100792E-3,-1.679830020E-3,2.137965523E-3
2.255083854E0,-3.817795310E-3,-4.581354442E-4,9.162708884E-4
2.257563385E0,-2.596100792E-3,-1.679830020E-3,9.162708884E-4
2.260042031E0,-1.374406274E-3,-4.581354442E-4,2.137965523E-3
2.262519947E0,-1.374406274E-3,-4.581354442E-4,2.137965523E-3
2.264998645E0,-1.374406274E-3,-4.581354442E-4,-3.054236295E-4
2.267478229E0,-2.596100792E-3,1.985253533E-3,-3.054236295E-4
2.269956874E0,-3.817795310E-3,1.985253533E-3,9.162708884E-4
2.272434791E0,-2.596100792E-3,1.985253533E-3,9.162708884E-4
2.274913489E0,-2.596100792E-3,7.635590737E-4,2.137965523E-3
2.277393072E0,-2.596100792E-3,7.635590737E-4,2.137965523E-3
2.279871718E0,-1.374406274E-3,7.635590737E-4,2.137965523E-3
2.282349635E0,-1.374406274E-3,-4.581354442E-4,2.137965523E-3
2.284828333E0,-1.374406274E-3,-4.581354442E-4,3.359660041E-3
2.287307916E0,-2.596100792E-3,-1.679830020E-3,3.359660041E-3
2.289786562E0,-1.527118147E-4,-1.679830020E-3,3.359660041E-3
2.292264427E0,-1.374406274E-3,-1.679830020E-3,3.359660041E-3
2.294743177E0,-1.374406274E-3,-1.679830020E-3,3.359660041E-3
2.297222708E0,-1.374406274E-3,-2.901524538E-3,2.137965523E-3
2.299701354E0,-1.374406274E-3,-2.901524538E-3,3.359660041E-3
2.302179270E0,-1.527118147E-4,-5.344913341E-3,2.137965523E-3
2.304657968E0,-1.374406274E-3,-2.901524538E-3,2.137965523E-3
2.307137552E0,-2.596100792E-3,-2.901524538E-3,3.359660041E-3
2.309616197E0,-1.374406274E-3,-2.901524538E-3,3.359660041E-3
2.312094114E0,1.068982761E-3,-2.901524538E-3,2.137965523E-3
2.314572812E0,1.068982761E-3,-1.679830020E-3,9.162708884E-4
2.317052395E0,2.290677279E-3,-1.679830020E-3,-3.054236295E-4
2.319531041E0,3.512371797E-3,-2.901524538E-3,9.162708884E-4
2.322008958E0,3.512371797E-3,-4.123218823E-3,-3.054236295E-4
2.324487656E0,3.512371797E-3,-2.901524538E-3,-3.054236295E-4
2.326967187E0,5.955760833E-3,-4.581354442E-4,-3.054236295E-4
2.329445885E0,5.955760833E-3,-1.679830020E-3,9.162708884E-4
2.331923749E0,8.399149403E-3,-1.679830020E-3,2.137965523E-3
2.334402499E0,8.399149403E-3,-1.679830020E-3,-3.054236295E-4
2.336882031E0,9.620844387E-3,-1.679830020E-3,2.137965523E-3
2.339360677E0,9.620844387E-3,-2.901524538E-3,2.137965523E-3
2.341838593E0,1.084253844E-2,-2.901524538E-3,2.137965523E-3
2.344317291E0,1.084253844E-2,-4.123218823E-3,2.137965523E-3
2.346796874E0,8.399149403E-3,-5.344913341E-3,3.359660041E-3
2.349275520E0,9.620844387E-3,-5.344913341E-3,4.581354558E-3
2.351753437E0,9.620844387E-3,-7.788302377E-3,3.359660041E-3
2.354232135E0,1.084253844E-2,-9.009997360E-3,4.581354558E-3
2.356711718E0,1.084253844E-2,-7.788302377E-3,4.581354558E-3
2.359190364E0,1.084253844E-2,-6.566607859E-3,3.359660041E-3
2.361668281E0,1.084253844E-2,-5.344913341E-3,3.359660041E-3
2.364146979E0,1.206423342E-2,-6.566607859E-3,4.581354558E-3
2.366626510E0,1.084253844E-2,-5.344913341E-3,3.359660041E-3
2.369105208E0,9.620844387E-3,-4.123218823E-3,2.137965523E-3
2.371583072E0,9.620844387E-3,-4.123218823E-3,9.162708884E-4
2.374061770E0,1.084253844E-2,-4.123218823E-3,-3.054236295E-4
2.376541354E0,9.620844387E-3,-6.566607859E-3,-3.054236295E-4
2.379019999E0,9.620844387E-3,-5.344913341E-3,-3.054236295E-4
2.381497916E0,9.620844387E-3,-2.901524538E-3,9.162708884E-4
2.383976614E0,9.620844387E-3,-1.679830020E-3,9.162708884E-4
2.386456197E0,9.620844387E-3,-1.679830020E-3,9.162708884E-4
2.388934843E0,9.620844387E-3,-1.679830020E-3,-3.054236295E-4
2.391412760E0,8.399149403E-3,-1.679830020E-3,-1.527118147E-3
2.393891458E0,9.620844387E-3,-2.901524538E-3,-1.527118147E-3
2.396371041E0,8.399149403E-3,-2.901524538E-3,-1.527118147E-3
2.398849687E0,8.399149403E-3,-1.679830020E-3,-1.527118147E-3
2.401327552E0,8.399149403E-3,-2.901524538E-3,-1.527118147E-3
2.403806302E0,8.399149403E-3,-2.901524538E-3,-3.054236295E-4
2.406285833E0,7.177455351E-3,-5.344913341E-3,-3.054236295E-4
2.408764479E0,8.399149403E-3,-4.123218823E-3,-3.054236295E-4
2.411242395E0,5.955760833E-3,-6.566607859E-3,-1.527118147E-3
2.413721093E0,5.955760833E-3,-9.009997360E-3,-3.054236295E-4
2.416200677E0,7.177455351E-3,-9.009997360E-3,-3.054236295E-4
2.418679322E0,5.955760833E-3,-7.788302377E-3,9.162708884E-4
2.421157239E0,5.955760833E-3,-9.009997360E-3,2.137965523E-3
2.423635937E0,5.955760833E-3,-1.145338640E-2,2.137965523E-3
2.426115520E0,5.955760833E-3,-1.145338640E-2,9.162708884E-4
2.428594166E0,5.955760833E-3,-1.145338640E-2,2.137965523E-3
2.431072083E0,5.955760833E-3,-9.009997360E-3,2.137965523E-3
2.433550781E0,5.955760833E-3,-7.788302377E-3,2.137965523E-3
2.436030312E0,7.177455351E-3,-9.009997360E-3,2.137965523E-3
2.438509010E0,5.955760833E-3,-1.023169141E-2,2.137965523E-3
2.440986874E0,5.955760833E-3,-1.023169141E-2,2.137965523E-3
2.443465624E0,5.955760833E-3,-6.566607859E-3,3.359660041E-3
2.445945156E0,7.177455351E-3,-7.788302377E-3,2.137965523E-3
2.448423802E0,7.177455351E-3,-7.788302377E-3,4.581354558E-3
2.450901718E0,7.177455351E-3,-5.344913341E-3,3.359660041E-3
2.453380416E0,5.955760833E-3,-4.123218823E-3,4.581354558E-3
2.455859999E0,4.734066315E-3,-5.344913341E-3,3.359660041E-3
2.458338645E0,5.955760833E-3,-4.123218823E-3,3.359660041E-3
2.460816562E0,5.955760833E-3,-2.901524538E-3,3.359660041E-3
2.463295260E0,4.734066315E-3,-2.901524538E-3,4.581354558E-3
2.465774843E0,5.955760833E-3,-1.679830020E-3,4.581354558E-3
2.468253489E0,4.734066315E-3,-1.679830020E-3,5.803049076E-3
2.470731406E0,5.955760833E-3,-2.901524538E-3,5.803049076E-3
2.473210104E0,5.955760833E-3,-1.679830020E-3,4.581354558E-3
2.475689635E0,5.955760833E-3,-4.581354442E-4,5.803049076E-3
2.478168281E0,5.955760833E-3,7.635590737E-4,5.803049076E-3
2.480646197E0,5.955760833E-3,-1.679830020E-3,5.803049076E-3
2.483124895E0,5.955760833E-3,-4.581354442E-4,4.581354558E-3
2.485604479E0,4.734066315E-3,7.635590737E-4,4.581354558E-3
2.488083124E0,4.734066315E-3,-4.581354442E-4,5.803049076E-3
2.490561041E0,4.734066315E-3,-1.679830020E-3,5.803049076E-3
2.493039739E0,5.955760833E-3,-1.679830020E-3,5.803049076E-3
2.495519322E0,4.734066315E-3,-4.581354442E-4,5.803049076E-3
2.497997968E0,5.955760833E-3,-4.581354442E-4,5.803049076E-3
2.500475885E0,5.955760833E-3,-4.581354442E-4,5.803049076E-3
2.502954583E0,7.177455351E-3,-1.679830020E-3,5.803049076E-3
2.505434166E0,8.399149403E-3,-1.679830020E-3,5.803049076E-3
2.507912812E0,8.399149403E-3,-1.679830020E-3,5.803049076E-3
2.510390677E0,9.620844387E-3,-2.901524538E-3,5.803049076E-3
2.512869427E0,9.620844387E-3,-2.901524538E-3,8.246437646E-3
2.515348958E0,9.620844387E-3,-4.123218823E-3,5.803049076E-3
2.517827604E0,8.399149403E-3,-2.901524538E-3,5.803049076E-3
2.520305520E0,7.177455351E-3,-2.901524538E-3,5.803049076E-3
2.522784218E0,7.177455351E-3,-5.344913341E-3,5.803049076E-3
2.525263802E0,7.177455351E-3,-4.123218823E-3,7.024743594E-3
2.527742447E0,7.177455351E-3,-1.679830020E-3,5.803049076E-3
2.530220364E0,8.399149403E-3,-1.679830020E-3,5.803049076E-3
2.532699062E0,8.399149403E-3,-1.679830020E-3,7.024743594E-3
2.535178645E0,7.177455351E-3,7.635590737E-4,7.024743594E-3
2.537657291E0,5.955760833E-3,-1.679830020E-3,7.024743594E-3
2.540135208E0,7.177455351E-3,-4.581354442E-4,5.803049076E-3
2.542613906E0,7.177455351E-3,-4.581354442E-4,3.359660041E-3
2.545093437E0,8.399149403E-3,-4.581354442E-4,5.803049076E-3
2.547572135E0,8.399149403E-3,1.985253533E-3,8.246437646E-3
2.550049999E0,7.177455351E-3,1.985253533E-3,7.024743594E-3
2.552528697E0,7.177455351E-3,7.635590737E-4,7.024743594E-3
2.555008281E0,9.620844387E-3,7.635590737E-4,7.024743594E-3
2.557486927E0,8.399149403E-3,1.985253533E-3,8.246437646E-3
2.559964843E0,9.620844387E-3,7.635590737E-4,8.246437646E-3
2.562443541E0,9.620844387E-3,1.985253533E-3,8.246437646E-3
2.564923124E0,9.620844387E-3,1.985253533E-3,8.246437646E-3
2.567401770E0,9.620844387E-3,7.635590737E-4,7.024743594E-3
2.569879687E0,9.620844387E-3,7.635590737E-4,7.024743594E-3
2.572358385E0,9.620844387E-3,7.635590737E-4,5.803049076E-3
2.574837968E0,1.084253844E-2,7.635590737E-4,7.024743594E-3
2.577316614E0,9.620844387E-3,1.985253533E-3,7.024743594E-3
2.579794479E0,1.328592747E-2,1.985253533E-3,7.024743594E-3
2.582273229E0,1.206423342E-2,1.985253533E-3,5.803049076E-3
2.584752760E0,1.328592747E-2,1.985253533E-3,5.803049076E-3
2.587231406E0,1.328592747E-2,3.206948051E-3,5.803049076E-3
2.589709322E0,1.450762246E-2,3.206948051E-3,4.581354558E-3
2.592188020E0,1.450762246E-2,3.206948051E-3,3.359660041E-3
2.594667604E0,1.450762246E-2,3.206948051E-3,3.359660041E-3
2.597146249E0,1.450762246E-2,4.428642802E-3,4.581354558E-3
2.599624166E0,1.328592747E-2,4.428642802E-3,5.803049076E-3
2.602102864E0,1.572931744E-2,5.650337320E-3,4.581354558E-3
2.604582447E0,1.572931744E-2,5.650337320E-3,3.359660041E-3
2.607061093E0,1.572931744E-2,8.093725890E-3,4.581354558E-3
2.609539010E0,1.450762246E-2,6.872031838E-3,5.803049076E-3
2.612017708E0,1.572931744E-2,8.093725890E-3,5.803049076E-3
2.614497239E0,1.450762246E-2,5.650337320E-3,4.581354558E-3
2.616975937E0,1.450762246E-2,5.650337320E-3,4.581354558E-3
2.619453802E0,1.450762246E-2,5.650337320E-3,4.581354558E-3
2.621932552E0,1.328592747E-2,6.872031838E-3,4.581354558E-3
2.624412083E0,1.328592747E-2,8.093725890E-3,5.803049076E-3
2.626890729E0,1.450762246E-2,8.093725890E-3,5.803049076E-3
2.629368645E0,1.450762246E-2,8.093725890E-3,4.581354558E-3
2.631847343E0,1.328592747E-2,5.650337320E-3,5.803049076E-3
2.634326927E0,1.206423342E-2,6.872031838E-3,4.581354558E-3
2.636805572E0,1.206423342E-2,6.872031838E-3,5.803049076E-3
2.639283489E0,1.328592747E-2,8.093725890E-3,5.803049076E-3
2.641762187E0,1.328592747E-2,6.872031838E-3,5.803049076E-3
2.644241770E0,1.206423342E-2,6.872031838E-3,8.246437646E-3
2.646720416E0,1.206423342E-2,8.093725890E-3,4.581354558E-3
2.649198281E0,1.328592747E-2,5.650337320E-3,5.803049076E-3
2.651677031E0,1.206423342E-2,6.872031838E-3,7.024743594E-3
2.654156562E0,1.206423342E-2,5.650337320E-3,5.803049076E-3
2.656635260E0,1.206423342E-2,5.650337320E-3,4.581354558E-3
2.659113124E0,1.206423342E-2,5.650337320E-3,5.803049076E-3
2.661591822E0,1.206423342E-2,8.093725890E-3,5.803049076E-3
2.664071406E0,1.206423342E-2,8.093725890E-3,5.803049076E-3
2.666550052E0,1.206423342E-2,5.650337320E-3,7.024743594E-3
2.669027968E0,1.206423342E-2,6.872031838E-3,5.803049076E-3
2.671506666E0,1.206423342E-2,5.650337320E-3,4.581354558E-3
2.673986249E0,1.084253844E-2,8.093725890E-3,5.803049076E-3
2.676464895E0,9.620844387E-3,9.315420873E-3,4.581354558E-3
2.678942812E0,9.620844387E-3,8.093725890E-3,4.581354558E-3
2.681421510E0,1.084253844E-2,9.315420873E-3,4.581354558E-3
2.683901093E0,9.620844387E-3,9.315420873E-3,3.359660041E-3
2.686379739E0,8.399149403E-3,1.175880991E-2,5.803049076E-3
2.688857604E0,9.620844387E-3,1.175880991E-2,4.581354558E-3
2.691336354E0,8.399149403E-3,1.175880991E-2,2.137965523E-3
2.693815885E0,7.177455351E-3,1.298050396E-2,2.137965523E-3
2.696294531E0,7.177455351E-3,1.053711493E-2,2.137965523E-3
2.698772447E0,8.399149403E-3,9.315420873E-3,2.137965523E-3
2.701251145E0,9.620844387E-3,1.053711493E-2,2.137965523E-3
2.703730729E0,8.399149403E-3,1.175880991E-2,9.162708884E-4
2.706209374E0,8.399149403E-3,1.298050396E-2,9.162708884E-4
2.708687291E0,5.955760833E-3,1.298050396E-2,-3.054236295E-4
2.711165989E0,5.955760833E-3,1.053711493E-2,-3.054236295E-4
2.713645572E0,5.955760833E-3,8.093725890E-3,9.162708884E-4
2.716124218E0,7.177455351E-3,8.093725890E-3,-1.527118147E-3
2.718602083E0,5.955760833E-3,6.872031838E-3,-2.748812549E-3
2.721080833E0,8.399149403E-3,4.428642802E-3,-2.748812549E-3
2.723560364E0,7.177455351E-3,4.428642802E-3,-2.748812549E-3
2.726039062E0,7.177455351E-3,7.635590737E-4,-3.054236295E-4
2.728516927E0,7.177455351E-3,-4.581354442E-4,-1.527118147E-3
2.730995624E0,7.177455351E-3,-1.679830020E-3,-1.527118147E-3
2.733475208E0,5.955760833E-3,-2.901524538E-3,-2.748812549E-3
2.735953854E0,5.955760833E-3,-2.901524538E-3,-2.748812549E-3
2.738431770E0,5.955760833E-3,-5.344913341E-3,-1.527118147E-3
2.740910468E0,8.399149403E-3,-5.344913341E-3,-1.527118147E-3
2.743390052E0,5.955760833E-3,-1.023169141E-2,-3.970507067E-3
2.745868697E0,5.955760833E-3,-9.009997360E-3,-3.970507067E-3
2.748346614E0,7.177455351E-3,-1.267508045E-2,-3.970507067E-3
2.750825312E0,7.177455351E-3,-1.389677543E-2,-3.970507067E-3
2.753304843E0,5.955760833E-3,-1.389677543E-2,-3.970507067E-3
2.755783541E0,4.734066315E-3,-1.511846948E-2,-5.192201585E-3
2.758261406E0,4.734066315E-3,-2.000524849E-2,-3.970507067E-3
2.760740156E0,2.290677279E-3,-2.244863659E-2,-5.192201585E-3
2.763219687E0,2.290677279E-3,-2.367033064E-2,-6.413896102E-3
2.765698333E0,1.068982761E-3,-2.489202656E-2,-5.192201585E-3
2.768176249E0,1.068982761E-3,-2.611372061E-2,-7.635590620E-3
2.770654947E0,-1.527118147E-4,-2.611372061E-2,-7.635590620E-3
2.773134531E0,-1.374406274E-3,-2.611372061E-2,-8.857285604E-3
2.775613177E0,-2.596100792E-3,-2.977880463E-2,-1.007897966E-2
2.778091093E0,-2.596100792E-3,-2.855710872E-2,-1.007897966E-2
2.780569791E0,-3.817795310E-3,-2.855710872E-2,-1.007897966E-2
2.783049374E0,-5.039489828E-3,-2.977880463E-2,-1.007897966E-2
2.785528020E0,-6.261184346E-3,-2.733541466E-2,-1.007897966E-2
2.788005937E0,-6.261184346E-3,-3.100049868E-2,-1.007897966E-2
2.790484635E0,-6.261184346E-3,-2.977880463E-2,-1.252236869E-2
2.792964166E0,-7.482878864E-3,-3.100049868E-2,-1.007897966E-2
2.795442864E0,-8.704573847E-3,-2.489202656E-2,-8.857285604E-3
2.797920729E0,-6.261184346E-3,-2.611372061E-2,-1.007897966E-2
2.800399479E0,-7.482878864E-3,-2.244863659E-2,-1.007897966E-2
2.802879010E0,-7.482878864E-3,-2.244863659E-2,-1.007897966E-2
2.805357656E0,-7.482878864E-3,-2.000524849E-2,-1.130067464E-2
2.807835572E0,-7.482878864E-3,-1.756185852E-2,-1.252236869E-2
2.810314270E0,-7.482878864E-3,-1.878355257E-2,-1.252236869E-2
2.812793854E0,-6.261184346E-3,-1.634016447E-2,-1.252236869E-2
2.815272499E0,-5.039489828E-3,-1.511846948E-2,-1.130067464E-2
2.817750416E0,-3.817795310E-3,-1.267508045E-2,-1.252236869E-2
2.820229114E0,-2.596100792E-3,-1.023169141E-2,-1.374406368E-2
2.822708697E0,-1.374406274E-3,-1.023169141E-2,-1.496575773E-2
2.825187343E0,-2.596100792E-3,-9.009997360E-3,-1.252236869E-2
2.827665208E0,-1.374406274E-3,-7.788302377E-3,-1.252236869E-2
2.830143958E0,-1.374406274E-3,-6.566607859E-3,-1.252236869E-2
2.832623489E0,-1.374406274E-3,-5.344913341E-3,-1.374406368E-2
2.835102135E0,2.290677279E-3,-2.901524538E-3,-1.130067464E-2
2.837580052E0,3.512371797E-3,-2.901524538E-3,-1.007897966E-2
2.840058749E0,3.512371797E-3,-4.581354442E-4,-1.130067464E-2
2.842538333E0,5.955760833E-3,-1.679830020E-3,-1.130067464E-2
2.845016979E0,7.177455351E-3,-1.679830020E-3,-1.007897966E-2
2.847494895E0,8.399149403E-3,-1.679830020E-3,-1.007897966E-2
2.849973593E0,1.084253844E-2,-4.581354442E-4,-6.413896102E-3
2.852453177E0,1.328592747E-2,-2.901524538E-3,-6.413896102E-3
2.854931822E0,1.450762246E-2,-4.123218823E-3,-5.192201585E-3
2.857409739E0,1.817270555E-2,-4.123218823E-3,-3.970507067E-3
2.859888437E0,2.061609551E-2,-6.566607859E-3,-3.970507067E-3
2.862368020E0,2.183778957E-2,-9.009997360E-3,-2.748812549E-3
2.864846666E0,2.428117767E-2,-9.009997360E-3,-2.748812549E-3
2.867324531E0,2.550287358E-2,-1.023169141E-2,-3.054236295E-4
2.869803281E0,2.794626169E-2,-1.145338640E-2,9.162708884E-4
2.872282812E0,3.038965166E-2,-1.389677543E-2,9.162708884E-4
2.874761458E0,3.161134571E-2,-1.511846948E-2,9.162708884E-4
2.877239374E0,3.283303976E-2,-1.511846948E-2,3.359660041E-3
2.879718072E0,3.405473381E-2,-1.756185852E-2,4.581354558E-3
2.882197656E0,3.649812192E-2,-2.000524849E-2,4.581354558E-3
2.884676302E0,3.771981969E-2,-1.878355257E-2,4.581354558E-3
2.887154218E0,3.771981969E-2,-2.000524849E-2,4.581354558E-3
2.889632916E0,3.894151375E-2,-2.244863659E-2,5.803049076E-3
2.892112499E0,3.894151375E-2,-2.367033064E-2,5.803049076E-3
2.894591145E0,3.894151375E-2,-2.489202656E-2,5.803049076E-3
2.897069062E0,3.771981969E-2,-2.122694254E-2,4.581354558E-3
2.899547760E0,3.894151375E-2,-2.244863659E-2,3.359660041E-3
2.902027291E0,3.894151375E-2,-2.122694254E-2,4.581354558E-3
2.904505989E0,3.771981969E-2,-2.000524849E-2,5.803049076E-3
2.906983854E0,3.771981969E-2,-1.756185852E-2,4.581354558E-3
2.909462552E0,3.649812192E-2,-1.634016447E-2,5.803049076E-3
2.911942135E0,3.527642787E-2,-1.511846948E-2,7.024743594E-3
2.914420781E0,3.405473381E-2,-1.389677543E-2,5.803049076E-3
2.916898697E0,3.283303976E-2,-1.145338640E-2,3.359660041E-3
2.919377395E0,3.283303976E-2,-1.145338640E-2,4.581354558E-3
2.921856979E0,3.161134571E-2,-1.023169141E-2,3.359660041E-3
2.924335624E0,3.038965166E-2,-1.023169141E-2,2.137965523E-3
2.926813541E0,2.916795574E-2,-1.023169141E-2,9.162708884E-4
2.929292239E0,2.916795574E-2,-7.788302377E-3,9.162708884E-4
2.931771770E0,2.794626169E-2,-5.344913341E-3,2.137965523E-3
2.934250468E0,2.794626169E-2,-5.344913341E-3,9.162708884E-4
2.936728333E0,2.550287358E-2,-4.123218823E-3,-3.054236295E-4
2.939207083E0,2.550287358E-2,-1.679830020E-3,-3.054236295E-4
2.941686614E0,2.550287358E-2,-2.901524538E-3,-3.054236295E-4
2.944165260E0,2.550287358E-2,-4.123218823E-3,-3.054236295E-4
2.946643177E0,2.428117767E-2,-4.123218823E-3,-1.527118147E-3
2.949121874E0,2.428117767E-2,-5.344913341E-3,-1.527118147E-3
2.951601458E0,2.428117767E-2,-6.566607859E-3,-1.527118147E-3
2.954080104E0,2.305948362E-2,-6.566607859E-3,-1.527118147E-3
2.956558020E0,2.305948362E-2,-9.009997360E-3,-1.527118147E-3
2.959036718E0,2.183778957E-2,-1.023169141E-2,-2.748812549E-3
2.961516302E0,2.183778957E-2,-1.145338640E-2,-3.970507067E-3
2.963994947E0,2.183778957E-2,-1.267508045E-2,-2.748812549E-3
2.966472864E0,2.061609551E-2,-1.023169141E-2,-2.748812549E-3
2.968951562E0,2.061609551E-2,-1.389677543E-2,-3.970507067E-3
2.971431093E0,2.183778957E-2,-1.511846948E-2,-6.413896102E-3
2.973909791E0,2.183778957E-2,-1.756185852E-2,-6.413896102E-3
2.976387656E0,2.061609551E-2,-1.878355257E-2,-8.857285604E-3
2.978866354E0,2.061609551E-2,-1.878355257E-2,-8.857285604E-3
2.981345937E0,1.939439960E-2,-2.122694254E-2,-8.857285604E-3
2.983824583E0,1.817270555E-2,-2.489202656E-2,-1.007897966E-2
2.986302499E0,1.817270555E-2,-2.733541466E-2,-1.007897966E-2
2.988781197E0,1.695101149E-2,-2.977880463E-2,-1.007897966E-2
2.991260781E0,1.572931744E-2,-3.222219273E-2,-1.130067464E-2
2.993739427E0,1.572931744E-2,-3.833066672E-2,-1.130067464E-2
2.996217343E0,1.450762246E-2,-3.955236077E-2,-1.007897966E-2
2.998696041E0,1.572931744E-2,-4.199574888E-2,-8.857285604E-3
3.001175572E0,1.572931744E-2,-4.688252881E-2,-1.007897966E-2
3.003654270E0,1.450762246E-2,-5.054761097E-2,-8.857285604E-3
3.006132135E0,1.206423342E-2,-5.787777901E-2,-8.857285604E-3
3.008610885E0,1.206423342E-2,-6.154286116E-2,-8.857285604E-3
3.011090416E0,1.206423342E-2,-6.520794332E-2,-7.635590620E-3
3.013569114E0,1.206423342E-2,-6.887302548E-2,-6.413896102E-3
3.016046979E0,1.206423342E-2,-7.253811508E-2,-7.635590620E-3
3.018525677E0,1.450762246E-2,-7.620319724E-2,-7.635590620E-3
3.021005260E0,1.572931744E-2,-8.231166750E-2,-7.635590620E-3
3.023483906E0,1.572931744E-2,-8.475505561E-2,-6.413896102E-3
3.025961822E0,1.572931744E-2,-9.208522737E-2,-7.635590620E-3
3.028440520E0,1.572931744E-2,-9.819369763E-2,-6.413896102E-3
3.030920104E0,1.695101149E-2,-1.043021679E-1,-5.192201585E-3
3.033398749E0,1.817270555E-2,-1.091889441E-1,-5.192201585E-3
3.035876666E0,1.817270555E-2,-1.152974218E-1,-5.192201585E-3
3.038355364E0,2.061609551E-2,-1.238492802E-1,-5.192201585E-3
3.040834895E0,2.183778957E-2,-1.324011385E-1,-3.970507067E-3
3.043313593E0,2.183778957E-2,-1.348445266E-1,-2.748812549E-3
3.045791458E0,2.305948362E-2,-1.433963925E-1,-2.748812549E-3
3.048270156E0,2.428117767E-2,-1.482831687E-1,9.162708884E-4
3.050749739E0,2.794626169E-2,-1.519482583E-1,-3.054236295E-4
3.053228385E0,2.794626169E-2,-1.556133330E-1,-3.054236295E-4
3.055706302E0,3.038965166E-2,-1.605001241E-1,9.162708884E-4
3.058184999E0,3.161134571E-2,-1.653869003E-1,9.162708884E-4
3.060664583E0,3.283303976E-2,-1.702736765E-1,-3.054236295E-4
3.063143229E0,3.405473381E-2,-1.739387512E-1,9.162708884E-4
3.065621145E0,3.527642787E-2,-1.788255423E-1,2.137965523E-3
3.068099843E0,3.527642787E-2,-1.837123185E-1,-3.054236295E-4
3.070579427E0,3.405473381E-2,-1.898207814E-1,-1.527118147E-3
3.073058072E0,3.161134571E-2,-1.959292591E-1,-3.054236295E-4
3.075535989E0,3.161134571E-2,-2.044811249E-1,-3.054236295E-4
3.078014687E0,3.161134571E-2,-2.118112892E-1,2.137965523E-3
3.080494218E0,3.405473381E-2,-2.203631550E-1,-3.054236295E-4
3.082972864E0,3.405473381E-2,-2.276933193E-1,-1.527118147E-3
3.085450781E0,3.527642787E-2,-2.362451702E-1,-2.748812549E-3
3.087929479E0,3.527642787E-2,-2.423536479E-1,-2.748812549E-3
3.090409062E0,3.405473381E-2,-2.496838123E-1,-2.748812549E-3
3.092887708E0,3.161134571E-2,-2.557922900E-1,-3.970507067E-3
3.095365624E0,3.038965166E-2,-2.631224692E-1,-5.192201585E-3
3.097844322E0,2.672456764E-2,-2.692309320E-1,-7.635590620E-3
3.100323906E0,2.305948362E-2,-2.728960216E-1,-7.635590620E-3
3.102802552E0,2.061609551E-2,-2.802261710E-1,-7.635590620E-3
3.105280468E0,1.695101149E-2,-2.863346636E-1,-7.635590620E-3
3.107759166E0,1.450762246E-2,-2.899997234E-1,-1.130067464E-2
3.110238697E0,9.620844387E-3,-2.899997234E-1,-1.618745178E-2
3.112717395E0,4.734066315E-3,-2.875563502E-1,-1.985253580E-2
3.115195260E0,2.290677279E-3,-2.851129472E-1,-2.473931387E-2
3.117673958E0,-2.596100792E-3,-2.802261710E-1,-2.840439789E-2
3.120153541E0,-8.704573847E-3,-2.765611112E-1,-3.084778599E-2
3.122632187E0,-1.236965694E-2,-2.704526186E-1,-3.573456407E-2
3.125110104E0,-1.847812906E-2,-2.631224692E-1,-3.939964995E-2
3.127588802E0,-2.458660305E-2,-2.582356930E-1,-4.306473210E-2
3.130068385E0,-3.313846514E-2,-2.509055138E-1,-4.917320609E-2
3.132547031E0,-3.924693540E-2,-2.447970361E-1,-5.283828825E-2
3.135024947E0,-4.657710344E-2,-2.423536479E-1,-5.894676223E-2
3.137503645E0,-5.268557742E-2,-2.386885732E-1,-6.383354217E-2
3.139983229E0,-6.123743951E-2,-2.325800955E-1,-6.994201243E-2
3.142461874E0,-6.734590977E-2,-2.276933193E-1,-7.482878864E-2
3.144939739E0,-7.345438004E-2,-2.215848416E-1,-8.093725890E-2
3.147418489E0,-7.711946964E-2,-2.130329758E-1,-8.460234851E-2
3.149898020E0,-7.956285775E-2,-2.081461996E-1,-8.826743066E-2
3.152376666E0,-8.200624585E-2,-2.032594234E-1,-9.437590092E-2
3.154854583E0,-7.956285775E-2,-2.020377368E-1,-9.926267713E-2
3.157333281E0,-7.711946964E-2,-2.008160353E-1,-1.041494608E-1
3.159812864E0,-7.467607409E-2,-2.032594234E-1,-1.078145429E-1
3.162291510E0,-7.345438004E-2,-2.057028115E-1,-1.090362370E-1
3.164769427E0,-6.978929788E-2,-2.081461996E-1,-1.127013192E-1
3.167248124E0,-7.223268598E-2,-2.032594234E-1,-1.175880954E-1
3.169727708E0,-7.589777559E-2,-1.959292591E-1,-1.236965731E-1
3.172206354E0,-7.956285775E-2,-1.837123185E-1,-1.261399537E-1
3.174684270E0,-8.567132801E-2,-1.678302884E-1,-1.298050433E-1
3.177162968E0,-9.177979827E-2,-1.495048702E-1,-1.298050433E-1
3.179642499E0,-9.910997003E-2,-1.287360638E-1,-1.310267299E-1
3.182121197E0,-1.064401343E-1,-1.079672500E-1,-1.310267299E-1
3.184599062E0,-1.162136942E-1,-9.208522737E-2,-1.310267299E-1
3.187077812E0,-1.223221645E-1,-7.375980914E-2,-1.322484314E-1
3.189557343E0,-1.296523362E-1,-5.787777901E-2,-1.322484314E-1
3.192035989E0,-1.345391124E-1,-4.688252881E-2,-1.334701329E-1
3.194513906E0,-1.357607991E-1,-3.833066672E-2,-1.346918195E-1
3.196992604E0,-1.333174109E-1,-2.855710872E-2,-1.346918195E-1
3.199472187E0,-1.247655526E-1,-2.000524849E-2,-1.359135211E-1
3.201950833E0,-1.149920002E-1,-1.389677543E-2,-1.371352077E-1
3.204428749E0,-1.015533581E-1,-1.023169141E-2,-1.383569092E-1
3.206907447E0,-8.689302206E-2,-5.344913341E-3,-1.395785958E-1
3.209387031E0,-6.978929788E-2,-2.901524538E-3,-1.408002973E-1
3.211865677E0,-5.512896553E-2,-4.581354442E-4,-1.383569092E-1
3.214343541E0,-4.291202128E-2,4.428642802E-3,-1.371352077E-1
3.216822291E0,-3.069507517E-2,6.872031838E-3,-1.346918195E-1
3.219301822E0,-1.847812906E-2,1.542389300E-2,-1.310267299E-1
3.221780468E0,-1.114796288E-2,1.908897609E-2,-1.285833418E-1
3.224258385E0,-3.817795310E-3,2.275406010E-2,-1.249182671E-1
3.226737083E0,5.955760833E-3,2.764083818E-2,-1.200314835E-1
3.229216666E0,1.328592747E-2,2.886253223E-2,-1.139230132E-1
3.231695312E0,2.183778957E-2,2.886253223E-2,-1.102579311E-1
3.234173229E0,3.161134571E-2,2.397575416E-2,-1.065928489E-1
3.236651927E0,4.382828996E-2,1.664558798E-2,-1.029277667E-1
3.239131510E0,5.238015205E-2,4.428642802E-3,-1.004843712E-1
3.241610156E0,6.337540597E-2,-9.009997360E-3,-9.681928903E-2
3.244088072E0,7.559234649E-2,-2.611372061E-2,-9.315420687E-2
3.246566770E0,8.536590636E-2,-4.199574888E-2,-9.071081877E-2
3.249046302E0,9.513945878E-2,-6.032116711E-2,-8.704573661E-2
3.251524999E0,1.036913246E-1,-7.742489129E-2,-8.215895295E-2
3.254002864E0,1.110214889E-1,-9.208522737E-2,-7.971556485E-2
3.256481614E0,1.183516532E-1,-1.067455560E-1,-7.605048269E-2
3.258961145E0,1.256818175E-1,-1.177408099E-1,-7.116370648E-2
3.261439791E0,1.305686086E-1,-1.275143623E-1,-6.749862432E-2
3.263917708E0,1.354553849E-1,-1.336228400E-1,-6.505523622E-2
3.266396406E0,1.403421611E-1,-1.336228400E-1,-6.139015034E-2
3.268875989E0,1.452289373E-1,-1.360662282E-1,-5.894676223E-2
3.271354635E0,1.513374150E-1,-1.336228400E-1,-5.528167635E-2
3.273832552E0,1.537808031E-1,-1.311794519E-1,-5.283828825E-2
3.276311249E0,1.574458778E-1,-1.262926757E-1,-4.795150831E-2
3.278790833E0,1.598892659E-1,-1.201841980E-1,-4.917320609E-2
3.281269479E0,1.635543555E-1,-1.128540337E-1,-4.672981426E-2
3.283747343E0,1.659977436E-1,-1.091889441E-1,-4.550812021E-2
3.286226093E0,1.672194302E-1,-1.043021679E-1,-4.428642616E-2
3.288705624E0,1.745496094E-1,-1.067455560E-1,-3.695625812E-2
3.291184270E0,1.818797737E-1,-1.165191159E-1,-2.840439789E-2
3.293662187E0,1.843231618E-1,-1.152974218E-1,-3.206948191E-2
3.296140885E0,1.855448484E-1,-1.030804738E-1,-3.939964995E-2
3.298620468E0,1.867665499E-1,-8.964183182E-2,-4.428642616E-2
3.301099114E0,1.892099380E-1,-7.498150319E-2,-4.795150831E-2
3.303577031E0,1.892099380E-1,-6.398624927E-2,-4.917320609E-2
3.306055729E0,1.904316396E-1,-5.543438718E-2,-5.039490014E-2
3.308535312E0,1.916533262E-1,-4.566083103E-2,-4.795150831E-2
3.311013958E0,1.965401024E-1,-4.077405483E-2,-4.917320609E-2
3.313491874E0,1.989834905E-1,-3.100049868E-2,-4.917320609E-2
3.315970572E0,2.014268786E-1,-2.367033064E-2,-5.039490014E-2
3.318450104E0,2.038702667E-1,-1.511846948E-2,-5.039490014E-2
3.320928802E0,2.050919682E-1,-4.123218823E-3,-4.917320609E-2
3.323406666E0,2.075353563E-1,6.872031838E-3,-5.161659420E-2
3.325885416E0,2.075353563E-1,1.542389300E-2,-5.161659420E-2
3.328364947E0,2.075353563E-1,2.641914412E-2,-5.161659420E-2
3.330843593E0,2.050919682E-1,3.741439432E-2,-5.039490014E-2
3.333321510E0,2.038702667E-1,4.718795046E-2,-5.161659420E-2
3.335800208E0,2.002051920E-1,5.573981255E-2,-5.161659420E-2
3.338279791E0,1.977618039E-1,6.795676053E-2,-5.161659420E-2
3.340758437E0,1.953184158E-1,7.773031294E-2,-5.161659420E-2
3.343236354E0,1.916533262E-1,8.994726092E-2,-5.161659420E-2
3.345715052E0,1.879882365E-1,9.972081333E-2,-5.283828825E-2
3.348194635E0,1.843231618E-1,1.070509851E-1,-5.405998230E-2
3.350673281E0,1.818797737E-1,1.180462316E-1,-5.528167635E-2
3.353151197E0,1.782146841E-1,1.229330078E-1,-5.772506446E-2
3.355629895E0,1.794363856E-1,1.290414780E-1,-6.016845629E-2
3.358109427E0,1.769929975E-1,1.327065676E-1,-6.383354217E-2
3.360588072E0,1.745496094E-1,1.314848661E-1,-6.749862432E-2
3.363065989E0,1.745496094E-1,1.339282542E-1,-7.116370648E-2
3.365544687E0,1.733279079E-1,1.327065676E-1,-7.482878864E-2
3.368024270E0,1.745496094E-1,1.302631795E-1,-8.215895295E-2
3.370502916E0,1.745496094E-1,1.241547018E-1,-8.460234851E-2
3.372980833E0,1.745496094E-1,1.156028435E-1,-8.826743066E-2
3.375459531E0,1.733279079E-1,1.070509851E-1,-9.315420687E-2
3.377939114E0,1.745496094E-1,9.727742523E-2,-9.926267713E-2
3.380417760E0,1.745496094E-1,8.994726092E-2,-1.017060652E-1
3.382895677E0,1.769929975E-1,7.895200700E-2,-1.053711548E-1
3.385374374E0,1.769929975E-1,6.917845458E-2,-1.078145429E-1
3.387853906E0,1.782146841E-1,6.184828654E-2,-1.114796251E-1
3.390332604E0,1.794363856E-1,5.573981255E-2,-1.151447073E-1
3.392810468E0,1.818797737E-1,4.963133857E-2,-1.175880954E-1
3.395289166E0,1.843231618E-1,4.474456236E-2,-1.188097894E-1
3.397768749E0,1.855448484E-1,3.863608837E-2,-1.224748790E-1
3.400247395E0,1.867665499E-1,3.985778242E-2,-1.236965731E-1
3.402725312E0,1.879882365E-1,3.863608837E-2,-1.273616552E-1
3.405204010E0,1.879882365E-1,4.352286831E-2,-1.298050433E-1
3.407683593E0,1.867665499E-1,4.596625641E-2,-1.334701329E-1
3.410162239E0,1.843231618E-1,4.840964451E-2,-1.346918195E-1
3.412640156E0,1.855448484E-1,5.207473040E-2,-1.371352077E-1
3.415118854E0,1.843231618E-1,5.329642445E-2,-1.408002973E-1
3.417598437E0,1.843231618E-1,5.451811850E-2,-1.420219839E-1
3.420077083E0,1.831014603E-1,4.963133857E-2,-1.444653720E-1
3.422554947E0,1.843231618E-1,4.596625641E-2,-1.469087601E-1
3.425033697E0,1.831014603E-1,4.230117425E-2,-1.469087601E-1
3.427513229E0,1.831014603E-1,3.863608837E-2,-1.469087601E-1
3.429991874E0,1.831014603E-1,3.497100621E-2,-1.444653720E-1
3.432469791E0,1.831014603E-1,3.008422814E-2,-1.359135211E-1
3.434948489E0,1.879882365E-1,1.542389300E-2,-1.212531775E-1
3.437428072E0,1.940967143E-1,8.093725890E-3,-1.053711548E-1
3.439906718E0,1.953184158E-1,5.650337320E-3,-9.681928903E-2
3.442384635E0,1.965401024E-1,1.542389300E-2,-9.315420687E-2
3.444863333E0,1.965401024E-1,3.130592033E-2,-8.704573661E-2
3.447342916E0,1.928750277E-1,4.963133857E-2,-8.093725890E-2
3.449821562E0,1.867665499E-1,7.284353673E-2,-7.360709459E-2
3.452299479E0,1.794363856E-1,9.727742523E-2,-5.894676223E-2
3.454778177E0,1.721062213E-1,1.229330078E-1,-4.428642616E-2
3.457257708E0,1.611109674E-1,1.461452097E-1,-2.718270384E-2
3.459736406E0,1.550024897E-1,1.718007922E-1,-1.130067464E-2
3.462214270E0,1.452289373E-1,1.913478971E-1,3.359660041E-3
3.464692968E0,1.354553849E-1,2.145601064E-1,2.168507688E-2
3.467172552E0,1.244601309E-1,2.353289127E-1,3.756710514E-2
3.469651197E0,1.146865711E-1,2.475458533E-1,5.467082933E-2
3.472129114E0,1.073564067E-1,2.622061968E-1,6.933116168E-2
3.474607812E0,9.880454093E-2,2.695363462E-1,8.643488586E-2
3.477087395E0,9.391776472E-2,2.793098986E-1,9.987352788E-2
3.479566041E0,9.025268257E-2,2.866400778E-1,1.169772521E-1
3.482043958E0,8.903098851E-2,2.890834510E-1,1.328592747E-1
3.484522656E0,8.903098851E-2,2.951919436E-1,1.475196183E-1
3.487002239E0,8.658760041E-2,2.951919436E-1,1.634016484E-1
3.489480885E0,8.536590636E-2,2.915268540E-1,1.756185889E-1
3.491958749E0,8.292251825E-2,2.805316150E-1,1.878355294E-1
3.494437499E0,7.925742865E-2,2.695363462E-1,1.988307834E-1
3.496917031E0,7.559234649E-2,2.609844804E-1,2.061609477E-1
3.499395677E0,7.192726433E-2,2.499892414E-1,2.147128135E-1
3.501873593E0,6.581879407E-2,2.365505993E-1,2.208212912E-1
3.504352291E0,6.215370819E-2,2.194468826E-1,2.244863659E-1
3.506831874E0,5.848862603E-2,2.023431510E-1,2.281514555E-1
3.509310520E0,5.360184610E-2,1.864611208E-1,2.269297540E-1
3.511788437E0,4.871506989E-2,1.669140160E-1,2.232646793E-1
3.514267135E0,4.260659590E-2,1.485885978E-1,2.159345001E-1
3.516746718E0,3.649812192E-2,1.351499557E-1,2.024958730E-1
3.519225364E0,3.038965166E-2,1.217113137E-1,1.866138428E-1
3.521703281E0,2.428117767E-2,1.033858955E-1,1.670667231E-1
3.524181979E0,2.183778957E-2,8.383878320E-2,1.426328421E-1
3.526661510E0,1.939439960E-2,6.429167092E-2,1.169772521E-1
3.529140208E0,1.695101149E-2,4.718795046E-2,8.765657991E-2
3.531618072E0,2.061609551E-2,3.497100621E-2,6.077930331E-2
3.534096770E0,2.794626169E-2,2.153236605E-2,3.023693897E-2
3.536576354E0,3.894151375E-2,1.298050396E-2,9.162708884E-4
3.539054999E0,4.993676394E-2,5.650337320E-3,-2.962609194E-2
3.541532916E0,6.459710002E-2,-4.581354442E-4,-5.772506446E-2
3.544011614E0,8.170082420E-2,-9.009997360E-3,-8.826743066E-2
3.546491197E0,9.636115283E-2,-1.878355257E-2,-1.175880954E-1
3.548969843E0,1.110214889E-1,-2.977880463E-2,-1.432436854E-1
3.551447760E0,1.256818175E-1,-4.199574888E-2,-1.664558798E-1
3.553926458E0,1.391204596E-1,-5.054761097E-2,-1.835595965E-1
3.556406041E0,1.476723254E-1,-5.787777901E-2,-1.969982386E-1
3.558884687E0,1.537808031E-1,-6.276455522E-2,-2.116585821E-1
3.561362552E0,1.574458778E-1,-6.765133142E-2,-2.214321345E-1
3.563841302E0,1.550024897E-1,-6.887302548E-2,-2.275405973E-1
3.566320833E0,1.513374150E-1,-6.398624927E-2,-2.348707765E-1
3.568799479E0,1.476723254E-1,-5.909947306E-2,-2.409792393E-1
3.571277395E0,1.415638477E-1,-4.932591692E-2,-2.446443290E-1
3.573756093E0,1.354553849E-1,-3.344388679E-2,-2.470877171E-1
3.576235677E0,1.293469071E-1,-1.511846948E-2,-2.495311052E-1
3.578714322E0,1.232384369E-1,8.093725890E-3,-2.531961799E-1
3.581192239E0,1.195733473E-1,3.374931216E-2,-2.568612695E-1
3.583670937E0,1.159082651E-1,6.306997687E-2,-2.605263591E-1
3.586150520E0,1.122431830E-1,9.727742523E-2,-2.641914487E-1
3.588629166E0,1.073564067E-1,1.302631795E-1,-2.666348219E-1
3.591107083E0,1.061347127E-1,1.718007922E-1,-2.678565085E-1
3.593585781E0,1.036913246E-1,2.096733153E-1,-2.690782249E-1
3.596065312E0,1.036913246E-1,2.475458533E-1,-2.690782249E-1
3.598544010E0,1.061347127E-1,2.805316150E-1,-2.690782249E-1
3.601021874E0,1.097997949E-1,3.171824515E-1,-2.678565085E-1
3.603500572E0,1.134648770E-1,3.526115716E-1,-2.690782249E-1
3.605980156E0,1.146865711E-1,3.868190348E-1,-2.715215981E-1
3.608458802E0,1.207950488E-1,4.173613787E-1,-2.715215981E-1
3.610936718E0,1.256818175E-1,4.430169761E-1,-2.702999115E-1
3.613415416E0,1.330119967E-1,4.662291706E-1,-2.678565085E-1
3.615894999E0,1.415638477E-1,4.894413650E-1,-2.666348219E-1
3.618373645E0,1.464506239E-1,5.138752460E-1,-2.641914487E-1
3.620851562E0,1.550024897E-1,5.322006941E-1,-2.629697323E-1
3.623330260E0,1.611109674E-1,5.468609929E-1,-2.629697323E-1
3.625809791E0,1.696628332E-1,5.578562617E-1,-2.605263591E-1
3.628288489E0,1.782146841E-1,5.578562617E-1,-2.544178963E-1
3.630766354E0,1.867665499E-1,5.602996349E-1,-2.495311052E-1
3.633245104E0,1.940967143E-1,5.517477989E-1,-2.409792393E-1
3.635724635E0,2.014268786E-1,5.383091569E-1,-2.299840003E-1
3.638203333E0,2.075353563E-1,5.224271417E-1,-2.177670449E-1
3.640681197E0,2.112004459E-1,4.992149174E-1,-2.055501044E-1
3.643159895E0,2.160872221E-1,4.698942602E-1,-1.908897758E-1
3.645639479E0,2.221956849E-1,4.381301999E-1,-1.762294322E-1
3.648118124E0,2.270824611E-1,4.039227366E-1,-1.615691036E-1
3.650596041E0,2.307475507E-1,3.684936166E-1,-1.456870735E-1
3.653074739E0,2.368560284E-1,3.293993771E-1,-1.322484314E-1
3.655554322E0,2.417428046E-1,2.878617644E-1,-1.151447073E-1
3.658032968E0,2.466295809E-1,2.438807636E-1,-9.926267713E-2
3.660510885E0,2.515163720E-1,2.011214644E-1,-8.338065445E-2
3.662989583E0,2.539597452E-1,1.632489264E-1,-7.360709459E-2
3.665469114E0,2.576248348E-1,1.278197914E-1,-6.016845629E-2
3.667947812E0,2.612899244E-1,9.361234307E-2,-4.795150831E-2
3.670425677E0,2.661767006E-1,6.306997687E-2,-3.939964995E-2
3.672904374E0,2.710634768E-1,3.741439432E-2,-3.206948191E-2
3.675383958E0,2.759502530E-1,1.786728203E-2,-2.718270384E-2
3.677862604E0,2.820587158E-1,7.635590737E-4,-2.473931387E-2
3.680340520E0,2.881672084E-1,-9.009997360E-3,-2.596100792E-2
3.682819218E0,2.979407609E-1,-1.023169141E-2,-3.084778599E-2
3.685298802E0,3.040492237E-1,-4.123218823E-3,-3.817795217E-2
3.687777447E0,3.113794029E-1,6.872031838E-3,-4.795150831E-2
3.690255364E0,3.211529553E-1,2.153236605E-2,-5.894676223E-2
3.692734062E0,3.321481943E-1,3.985778242E-2,-6.505523622E-2
3.695213645E0,3.419217467E-1,6.551336497E-2,-7.360709459E-2
3.697692291E0,3.504736125E-1,9.605573118E-2,-8.215895295E-2
3.700170156E0,3.578037918E-1,1.265980899E-1,-9.193251282E-2
3.702648906E0,3.651339412E-1,1.583621502E-1,-1.004843712E-1
3.705128437E0,3.736858070E-1,1.876828223E-1,-1.102579311E-1
3.707607083E0,3.797942698E-1,2.157817930E-1,-1.188097894E-1
3.710084999E0,3.895678520E-1,2.426590770E-1,-1.236965731E-1
3.712563697E0,3.968980014E-1,2.719797492E-1,-1.298050433E-1
3.715043281E0,3.993414044E-1,2.951919436E-1,-1.346918195E-1
3.717521927E0,3.981196880E-1,3.196258247E-1,-1.371352077E-1
3.719999843E0,3.944546282E-1,3.440597057E-1,-1.395785958E-1
3.722478541E0,3.907895386E-1,3.733803928E-1,-1.408002973E-1
3.724958124E0,3.846810758E-1,4.002576768E-1,-1.469087601E-1
3.727436770E0,3.773508966E-1,4.271349311E-1,-1.493521482E-1
3.729914687E0,3.712424338E-1,4.564556181E-1,-1.493521482E-1
3.732393385E0,3.651339412E-1,4.784461260E-1,-1.481304616E-1
3.734872916E0,3.553603888E-1,4.967715442E-1,-1.432436854E-1
3.737351614E0,3.468085229E-1,5.150969625E-1,-1.383569092E-1
3.739829479E0,3.394783735E-1,5.260922313E-1,-1.322484314E-1
3.742308177E0,3.321481943E-1,5.309789777E-1,-1.249182671E-1
3.744787760E0,3.248180151E-1,5.358657837E-1,-1.175880954E-1
3.747266406E0,3.199312389E-1,5.383091569E-1,-1.090362370E-1
3.749744322E0,3.138227761E-1,5.395308137E-1,-1.004843712E-1
3.752223020E0,3.064926267E-1,5.419742465E-1,-9.071081877E-2
3.754702604E0,2.979407609E-1,5.383091569E-1,-8.338065445E-2
3.757181249E0,2.906105816E-1,5.309789777E-1,-7.605048269E-2
3.759659166E0,2.881672084E-1,5.212054253E-1,-6.872031838E-2
3.762137864E0,2.832804024E-1,5.126535892E-1,-6.139015034E-2
3.764617395E0,2.820587158E-1,5.016583204E-1,-4.917320609E-2
3.767096093E0,2.820587158E-1,4.906630516E-1,-3.939964995E-2
3.769573958E0,2.832804024E-1,4.760027230E-1,-2.840439789E-2
3.772052656E0,2.869454920E-1,4.637857676E-1,-1.863084175E-2
3.774532239E0,2.906105816E-1,4.454603493E-1,-1.130067464E-2
3.777010885E0,2.979407609E-1,4.283566475E-1,-2.748812549E-3
3.779488802E0,3.028275371E-1,4.136963189E-1,2.137965523E-3
3.781967499E0,3.113794029E-1,4.014793634E-1,5.803049076E-3
3.784447083E0,3.174878657E-1,3.892624080E-1,8.246437646E-3
3.786925729E0,3.235963285E-1,3.831539452E-1,1.068982668E-2
3.789403645E0,3.321481943E-1,3.794888556E-1,1.557660475E-2
3.791882343E0,3.419217467E-1,3.843756318E-1,1.924168877E-2
3.794361927E0,3.504736125E-1,3.917058110E-1,2.535016090E-2
3.796840572E0,3.590254784E-1,4.014793634E-1,3.023693897E-2
3.799318437E0,3.700207174E-1,4.124746025E-1,3.512371704E-2
3.801797187E0,3.810159862E-1,4.259132445E-1,3.756710514E-2
3.804276718E0,3.932329118E-1,4.381301999E-1,4.123219103E-2
3.806755364E0,4.054498672E-1,4.552339315E-1,4.734066129E-2
3.809233281E0,4.152234197E-1,4.698942602E-1,5.100574717E-2
3.811711979E0,4.262186885E-1,4.833329022E-1,5.222744122E-2
3.814191562E0,4.372139275E-1,4.955498278E-1,5.711421743E-2
3.816670208E0,4.469874799E-1,5.077667832E-1,6.200099736E-2
3.819148124E0,4.567610323E-1,5.199837089E-1,6.444438547E-2
3.821626822E0,4.677563012E-1,5.346440673E-1,6.444438547E-2
3.824106406E0,4.787515402E-1,5.480827093E-1,6.444438547E-2
3.826585052E0,4.873034060E-1,5.590779781E-1,6.566607952E-2
3.829062968E0,4.958552718E-1,5.688515306E-1,6.810946763E-2
3.831541666E0,5.068505406E-1,5.749599934E-1,7.543963939E-2
3.834021197E0,5.166240931E-1,5.798467398E-1,7.910472155E-2
3.836499895E0,5.239542127E-1,5.859552622E-1,8.154810965E-2
3.838977760E0,5.325061083E-1,5.883986354E-1,8.521319181E-2
3.841456458E0,5.410579443E-1,5.896202922E-1,9.009996802E-2
3.843936041E0,5.508314967E-1,5.908420086E-1,9.743013978E-2
3.846414687E0,5.593833923E-1,5.883986354E-1,1.035386100E-1
3.848892604E0,5.679352283E-1,5.847335458E-1,1.133121699E-1
3.851371302E0,5.777087808E-1,5.798467398E-1,1.194206402E-1
3.853850885E0,5.838172436E-1,5.737382770E-1,1.291942000E-1
3.856329531E0,5.935907960E-1,5.712949038E-1,1.377460510E-1
3.858807447E0,6.021426916E-1,5.639647245E-1,1.487413049E-1
3.861286145E0,6.094728708E-1,5.615213513E-1,1.585148573E-1
3.863765729E0,6.155813336E-1,5.566345453E-1,1.670667231E-1
3.866244374E0,6.229115129E-1,5.541911721E-1,1.768402755E-1
3.868722239E0,6.277982593E-1,5.505260825E-1,1.890572309E-1
3.871200989E0,6.314633489E-1,5.493044257E-1,1.988307834E-1
3.873680520E0,6.351284385E-1,5.517477989E-1,2.061609477E-1
3.876159166E0,6.387935281E-1,5.578562617E-1,2.134911120E-1
3.878637083E0,6.424586177E-1,5.627430081E-1,2.232646793E-1
3.881115781E0,6.449019909E-1,5.712949038E-1,2.330382317E-1
3.883595364E0,6.461237073E-1,5.774033666E-1,2.415900975E-1
3.886074010E0,6.473453641E-1,5.810684562E-1,2.501419485E-1
3.888551927E0,6.473453641E-1,5.896202922E-1,2.550287247E-1
3.891030624E0,6.510104537E-1,5.920637250E-1,2.574721277E-1
3.893510208E0,6.522321701E-1,5.981721878E-1,2.574721277E-1
3.895988854E0,6.571189165E-1,6.079457402E-1,2.562504113E-1
3.898466770E0,6.620057225E-1,6.177192926E-1,2.586938143E-1
3.900945468E0,6.705575585E-1,6.287145615E-1,2.586938143E-1
3.903424999E0,6.766660213E-1,6.360446811E-1,2.599155009E-1
3.905903697E0,6.852179170E-1,6.458182931E-1,2.623589039E-1
3.908381562E0,6.913263798E-1,6.531484127E-1,2.635805905E-1
3.910860260E0,6.974348426E-1,6.555918455E-1,2.635805905E-1
3.913339843E0,7.010999322E-1,6.592568755E-1,2.635805905E-1
3.915818489E0,7.023216486E-1,6.568135023E-1,2.623589039E-1
3.918296406E0,6.998782754E-1,6.568135023E-1,2.586938143E-1
3.920775104E0,6.998782754E-1,6.555918455E-1,2.562504113E-1
3.923254687E0,6.937697530E-1,6.507050395E-1,2.550287247E-1
3.925733333E0,6.852179170E-1,6.421532035E-1,2.574721277E-1
3.928211249E0,6.742226481E-1,6.336013079E-1,2.586938143E-1
3.930689947E0,6.607840061E-1,6.250494719E-1,2.599155009E-1
3.933169479E0,6.436802745E-1,6.189410090E-1,2.586938143E-1
3.935648177E0,6.229115129E-1,6.152759194E-1,2.574721277E-1
3.938126041E0,6.009209752E-1,6.103891134E-1,2.538070381E-1
3.940604791E0,5.764871240E-1,6.103891134E-1,2.538070381E-1
3.943084322E0,5.508314967E-1,6.140542030E-1,2.525853515E-1
3.945562968E0,5.239542127E-1,6.152759194E-1,2.501419485E-1
3.948040885E0,4.946335554E-1,6.238277555E-1,2.489202619E-1
3.950519583E0,4.677563012E-1,6.311579347E-1,2.464768738E-1
3.952999166E0,4.408790171E-1,6.372663975E-1,2.415900975E-1
3.955477812E0,4.140017331E-1,6.433748603E-1,2.342599183E-1
3.957955729E0,3.895678520E-1,6.494833231E-1,2.318165302E-1
3.960434427E0,3.675773442E-1,6.555918455E-1,2.257080674E-1
3.962914010E0,3.443651497E-1,6.604785919E-1,2.171562016E-1
3.965392656E0,3.248180151E-1,6.653653979E-1,2.086043358E-1
3.967870572E0,3.089359999E-1,6.690304875E-1,2.012741715E-1
3.970349270E0,2.967190444E-1,6.653653979E-1,1.976090819E-1
3.972828802E0,2.869454920E-1,6.604785919E-1,1.927223057E-1
3.975307499E0,2.771719396E-1,6.507050395E-1,1.853921413E-1
3.977785364E0,2.686200738E-1,6.409314871E-1,1.805053651E-1
3.980264062E0,2.600682080E-1,6.299362183E-1,1.768402755E-1
3.982743645E0,2.564031482E-1,6.226060390E-1,1.731752008E-1
3.985222291E0,2.502946556E-1,6.177192926E-1,1.743968874E-1
3.987700208E0,2.441861928E-1,6.164975762E-1,1.756185889E-1
3.990178906E0,2.380777150E-1,6.164975762E-1,1.805053651E-1
3.992658489E0,2.270824611E-1,6.226060390E-1,1.829487532E-1
3.995137135E0,2.185306102E-1,6.287145615E-1,1.878355294E-1
3.997615052E0,2.099787444E-1,6.397097707E-1,1.902789176E-1
4.000093749E0,1.989834905E-1,6.543701291E-1,1.963873953E-1
4.002573281E0,1.879882365E-1,6.726955175E-1,2.000524700E-1
4.005051979E0,1.782146841E-1,6.922426820E-1,2.049392611E-1
4.007529843E0,1.684411317E-1,7.081246972E-1,2.110477239E-1
4.010008593E0,1.586675793E-1,7.227849960E-1,2.183778882E-1
4.012488124E0,1.464506239E-1,7.362236381E-1,2.257080674E-1
4.014966770E0,1.342336833E-1,7.484406233E-1,2.318165302E-1
4.017444687E0,1.207950488E-1,7.521057129E-1,2.379250079E-1
4.019923385E0,1.049130186E-1,7.557707429E-1,2.428117841E-1
4.022402968E0,8.903098851E-2,7.545490861E-1,2.452551723E-1
4.024881614E0,7.192726433E-2,7.459971905E-1,2.501419485E-1
4.027359531E0,5.482354015E-2,7.301151752E-1,2.525853515E-1
4.029838229E0,3.527642787E-2,7.117897868E-1,2.562504113E-1
4.032317812E0,1.328592747E-2,6.861341596E-1,2.525853515E-1
4.034796458E0,-1.114796288E-2,6.555918455E-1,2.476985604E-1
4.037274322E0,-3.436015919E-2,6.201626658E-1,2.452551723E-1
4.039753072E0,-6.123743951E-2,5.810684562E-1,2.391466945E-1
4.042232604E0,-9.055810422E-2,5.419742465E-1,2.318165302E-1
4.044711249E0,-1.198787764E-1,4.979932308E-1,2.244863659E-1
4.047189166E0,-1.504211426E-1,4.564556181E-1,2.159345001E-1
4.049667864E0,-1.834068894E-1,4.149180055E-1,2.073826492E-1
4.052147447E0,-2.176143378E-1,3.746020794E-1,1.976090819E-1
4.054626093E0,-2.542651594E-1,3.379512429E-1,1.866138428E-1
4.057104010E0,-2.945810854E-1,3.013004065E-1,1.780619770E-1
4.059582708E0,-3.422271907E-1,2.622061968E-1,1.634016484E-1
4.062062291E0,-3.923166394E-1,2.279987335E-1,1.524063945E-1
4.064540937E0,-4.485146105E-1,1.937913001E-1,1.377460510E-1
4.067018854E0,-5.109737515E-1,1.595838517E-1,1.218640283E-1
4.069497552E0,-5.781669021E-1,1.314848661E-1,1.059819981E-1
4.071977083E0,-6.490252018E-1,1.033858955E-1,8.887827396E-2
4.074455781E0,-7.235485911E-1,7.773031294E-2,7.177454978E-2
4.076933645E0,-8.017370105E-1,5.451811850E-2,5.222744122E-2
4.079412343E0,-8.787037730E-1,3.374931216E-2,3.268032894E-2
4.081891927E0,-9.556705356E-1,1.420219894E-2,1.435491070E-2
4.084370572E0,-1.031415582E0,1.985253533E-3,-3.970507067E-3
4.086848489E0,-1.103495598E0,-1.145338640E-2,-2.596100792E-2
4.089327187E0,-1.173132181E0,-2.000524849E-2,-5.039490014E-2
4.091806770E0,-1.240325332E0,-2.367033064E-2,-7.482878864E-2
4.094285416E0,-1.305075169E0,-2.489202656E-2,-9.681928903E-2
4.096763333E0,-1.363716483E0,-3.100049868E-2,-1.102579311E-1
4.099242031E0,-1.413805962E0,-4.321744293E-2,-1.224748790E-1
4.101721614E0,-1.462673783E0,-5.665608495E-2,-1.383569092E-1
4.104200260E0,-1.506654739E0,-7.742489129E-2,-1.554606259E-1
4.106678124E0,-1.545748949E0,-1.018587798E-1,-1.688992679E-1
4.109156874E0,-1.584843159E0,-1.250709742E-1,-1.762294322E-1
4.111636406E0,-1.625159144E0,-1.556133330E-1,-1.835595965E-1
4.114115052E0,-1.664253354E0,-1.849340051E-1,-1.896680743E-1
4.116592968E0,-1.705790997E0,-2.154763639E-1,-1.982199401E-1
4.119071666E0,-1.748550296E0,-2.557922900E-1,-2.043284029E-1
4.121551249E0,-1.792531252E0,-3.046600819E-1,-2.055501044E-1
4.124029895E0,-1.836512327E0,-3.584146202E-1,-2.079934925E-1
4.126507812E0,-1.882936716E0,-4.158342779E-1,-2.079934925E-1
4.128986510E0,-1.934247851E0,-4.671454430E-1,-2.067717910E-1
4.131466093E0,-1.989224076E0,-5.050179958E-1,-2.031067163E-1
4.133944739E0,-2.046643734E0,-5.294518471E-1,-1.945548505E-1
4.136422656E0,-2.107728481E0,-5.404471159E-1,-1.835595965E-1
4.138901354E0,-2.173699856E0,-5.331169367E-1,-1.725643575E-1
4.141380885E0,-2.247001648E0,-5.160132051E-1,-1.603474021E-1
4.143859583E0,-2.321525097E0,-4.903576374E-1,-1.469087601E-1
4.146337447E0,-2.396048307E0,-4.585935771E-1,-1.322484314E-1
4.148816145E0,-2.468128443E0,-4.194993675E-1,-1.175880954E-1
4.151295729E0,-2.538986683E0,-3.730749488E-1,-1.102579311E-1
4.153774374E0,-2.602514744E0,-3.205420971E-1,-1.029277667E-1
4.156252291E0,-2.658712626E0,-2.667875290E-1,-9.926267713E-2
4.158730989E0,-2.706358671E0,-2.105895877E-1,-1.017060652E-1
4.161210572E0,-2.743009567E0,-1.556133330E-1,-1.041494608E-1
4.163689218E0,-2.773551941E0,-9.819369763E-2,-1.102579311E-1
4.166167135E0,-2.793099165E0,-4.077405483E-2,-1.212531775E-1
4.168645833E0,-2.808981180E0,1.420219894E-2,-1.346918195E-1
4.171125416E0,-2.816311359E0,6.917845458E-2,-1.456870735E-1
4.173604062E0,-2.817533016E0,1.302631795E-1,-1.517955512E-1
4.176081927E0,-2.810202837E0,1.901262105E-1,-1.542389393E-1
4.178560677E0,-2.791877508E0,2.548760176E-1,-1.542389393E-1
4.181040208E0,-2.763778448E0,3.269560039E-1,-1.481304616E-1
4.183518854E0,-2.728349209E0,4.014793634E-1,-1.420219839E-1
4.185996770E0,-2.681924820E0,4.784461260E-1,-1.346918195E-1
4.188475468E0,-2.628170252E0,5.602996349E-1,-1.249182671E-1
4.190955052E0,-2.568307400E0,6.433748603E-1,-1.151447073E-1
4.193433697E0,-2.503557444E0,7.337802649E-1,-1.065928489E-1
4.195911614E0,-2.433920860E0,8.302941322E-1,-9.926267713E-2
4.198390312E0,-2.361840963E0,9.304730892E-1,-9.437590092E-2
4.200869895E0,-2.287317514E0,1.030652046E0,-9.315420687E-2
4.203348541E0,-2.211572409E0,1.123500824E0,-9.559759498E-2
4.205826458E0,-2.138270855E0,1.212684512E0,-9.926267713E-2
4.208305156E0,-2.069855928E0,1.290872931E0,-1.065928489E-1
4.210784687E0,-2.005106211E0,1.353179336E0,-1.139230132E-1
4.213263385E0,-1.941578031E0,1.398382068E0,-1.236965731E-1
4.215741249E0,-1.881714940E0,1.416707516E0,-1.322484314E-1
4.218219947E0,-1.827960372E0,1.413042426E0,-1.456870735E-1
4.220699531E0,-1.775427580E0,1.389830232E0,-1.566823274E-1
4.223178177E0,-1.724116445E0,1.345849276E0,-1.737860441E-1
4.225656093E0,-1.680135369E0,1.292094707E0,-1.933331639E-1
4.228134791E0,-1.637376070E0,1.232231617E0,-2.141019702E-1
4.230614374E0,-1.600725293E0,1.169925213E0,-2.397575527E-1
4.233093020E0,-1.572626233E0,1.102732062E0,-2.678565085E-1
4.235570937E0,-1.551857471E0,1.041647315E0,-2.971771955E-1
4.238049635E0,-1.540862203E0,9.817842841E-1,-3.228327632E-1
4.240529218E0,-1.537197113E0,9.219212532E-1,-3.484883606E-1
4.243007864E0,-1.533532023E0,8.486195803E-1,-3.717005551E-1
4.245485729E0,-1.532310367E0,7.618792653E-1,-3.875826001E-1
4.247964479E0,-1.532310367E0,6.653653979E-1,-4.010212123E-1
4.250444010E0,-1.537197113E0,5.578562617E-1,-4.083513916E-1
4.252922708E0,-1.542083859E0,4.320217371E-1,-4.181249440E-1
4.255400572E0,-1.545748949E0,2.854183912E-1,-4.278984964E-1
4.257879270E0,-1.546970725E0,1.180462316E-1,-4.413371384E-1
4.260358854E0,-1.545748949E0,-6.276455522E-2,-4.633276463E-1
4.262837499E0,-1.548192382E0,-2.484621257E-1,-4.902049303E-1
4.265315416E0,-1.555522561E0,-4.182776511E-1,-5.231906772E-1
4.267794114E0,-1.565296054E0,-5.661026835E-1,-5.586197972E-1
4.270273697E0,-1.575069666E0,-6.846070886E-1,-5.964923501E-1
4.272752343E0,-1.584843159E0,-7.725690603E-1,-6.331431866E-1
4.275230260E0,-1.594616771E0,-8.422056437E-1,-6.673506498E-1
4.277708958E0,-1.603168607E0,-8.947384953E-1,-6.954495907E-1
4.280188489E0,-1.611720443E0,-9.326110482E-1,-7.186617851E-1
4.282667135E0,-1.621494055E0,-9.582666159E-1,-7.430956960E-1
4.285145052E0,-1.630045891E0,-9.765920639E-1,-7.577560544E-1
4.287623749E0,-1.636154413E0,-9.900307059E-1,-7.724163532E-1
4.290103333E0,-1.641041160E0,-9.985825419E-1,-7.858549953E-1
4.292581979E0,-1.641041160E0,-1.014464617E0,-7.980719209E-1
4.295059895E0,-1.637376070E0,-1.024238110E0,-8.090671897E-1
4.297538593E0,-1.632489324E0,-1.037676811E0,-8.200624585E-1
4.300018177E0,-1.625159144E0,-1.048672080E0,-8.310576677E-1
4.302496822E0,-1.615385532E0,-1.063332319E0,-8.396095634E-1
4.304974739E0,-1.603168607E0,-1.084101200E0,-8.481613994E-1
4.307453437E0,-1.590951681E0,-1.117086887E0,-8.554915786E-1
4.309932968E0,-1.579956412E0,-1.157402873E0,-8.628217578E-1
4.312411666E0,-1.565296054E0,-1.206270576E0,-8.689302206E-1
4.314889531E0,-1.546970725E0,-1.253916740E0,-8.713735938E-1
4.317368281E0,-1.526201844E0,-1.297897696E0,-8.738170266E-1
4.319847812E0,-1.500546336E0,-1.332105160E0,-8.725953102E-1
4.322326458E0,-1.474890709E0,-1.366312623E0,-8.713735938E-1
4.324804374E0,-1.452900171E0,-1.405406833E0,-8.738170266E-1
4.327283072E0,-1.427244663E0,-1.450609565E0,-8.725953102E-1
4.329762656E0,-1.404032469E0,-1.504364133E0,-8.725953102E-1
4.332241302E0,-1.383263588E0,-1.563005447E0,-8.738170266E-1
4.334719218E0,-1.363716483E0,-1.621646762E0,-8.787037730E-1
4.337197916E0,-1.344169378E0,-1.676622987E0,-8.835905790E-1
4.339677499E0,-1.325843930E0,-1.723047376E0,-8.860339522E-1
4.342156145E0,-1.308740258E0,-1.764585018E0,-8.884773254E-1
4.344634062E0,-1.290414810E0,-1.796349049E0,-8.909206986E-1
4.347112760E0,-1.269646049E0,-1.820783019E0,-8.896990418E-1
4.349592291E0,-1.248877168E0,-1.830556512E0,-8.884773254E-1
4.352070989E0,-1.228108406E0,-1.819561243E0,-8.774821162E-1
4.354548854E0,-1.204896212E0,-1.796349049E0,-8.652651310E-1
4.357027552E0,-1.176797271E0,-1.786575556E0,-8.616000414E-1
4.359507135E0,-1.146254897E0,-1.797570825E0,-8.652651310E-1
4.361985781E0,-1.112047434E0,-1.828113079E0,-8.677085042E-1
4.364463697E0,-1.076618314E0,-1.861098886E0,-8.750386834E-1
4.366942395E0,-1.039967418E0,-1.891641259E0,-8.823688626E-1
4.369421979E0,-1.008203387E0,-1.916075110E0,-8.823688626E-1
4.371900624E0,-9.776610136E-1,-1.928292036E0,-8.811471462E-1
4.374378541E0,-9.495620728E-1,-1.933178902E0,-8.774821162E-1
4.376857239E0,-9.251281619E-1,-1.933178902E0,-8.689302206E-1
4.379336822E0,-9.031376839E-1,-1.927070379E0,-8.603783846E-1
4.381815468E0,-8.823688626E-1,-1.916075110E0,-8.506048322E-1
4.384293333E0,-8.616000414E-1,-1.908744931E0,-8.396095634E-1
4.386772031E0,-8.420529366E-1,-1.896528006E0,-8.286142945E-1
4.389251614E0,-8.249492049E-1,-1.883089423E0,-8.188407421E-1
4.391730260E0,-8.066238165E-1,-1.869650722E0,-8.127322793E-1
4.394208177E0,-7.907418013E-1,-1.862320542E0,-8.017370105E-1
4.396686874E0,-7.748597264E-1,-1.850103617E0,-7.895200849E-1
4.399166458E0,-7.589777112E-1,-1.840330124E0,-7.785248160E-1
4.401645104E0,-7.455390692E-1,-1.825669765E0,-7.675296068E-1
4.404123020E0,-7.296570539E-1,-1.809787750E0,-7.528692484E-1
4.406601718E0,-7.125533223E-1,-1.796349049E0,-7.333221436E-1
4.409081249E0,-6.966713071E-1,-1.782910466E0,-7.076665759E-1
4.411559947E0,-6.783458591E-1,-1.770693541E0,-6.844543815E-1
4.414037812E0,-6.575770974E-1,-1.749924660E0,-6.624638438E-1
4.416516562E0,-6.355865598E-1,-1.724269152E0,-6.404733658E-1
4.418996093E0,-6.123743653E-1,-1.694948435E0,-6.221479177E-1
4.421474791E0,-5.879405141E-1,-1.663184404E0,-6.038225293E-1
4.423952656E0,-5.598415136E-1,-1.624090195E0,-5.879405141E-1
4.426431354E0,-5.292991400E-1,-1.580109119E0,-5.732801557E-1
4.428910937E0,-4.963133931E-1,-1.525132895E0,-5.586197972E-1
4.431389583E0,-4.619532526E-1,-1.464048147E0,-5.464028716E-1
4.433867499E0,-4.240806997E-1,-1.396854997E0,-5.317425132E-1
4.436346197E0,-3.849864900E-1,-1.329661727E0,-5.207473040E-1
4.438825781E0,-3.422271907E-1,-1.257581830E0,-5.121954083E-1
4.441304427E0,-2.982461751E-1,-1.181836724E0,-5.048652887E-1
4.443782343E0,-2.567085624E-1,-1.112200141E0,-4.950917065E-1
4.446261041E0,-2.139492482E-1,-1.041341901E0,-4.865398407E-1
4.448740572E0,-1.711899489E-1,-9.692618847E-1,-4.767662883E-1
4.451219270E0,-1.259872466E-1,-8.922951221E-1,-4.657710493E-1
4.453697135E0,-8.078455180E-2,-8.104416132E-1,-4.572191834E-1
4.456175885E0,-3.069507517E-2,-7.237012982E-1,-4.511106908E-1
4.458655416E0,1.939439960E-2,-6.369609833E-1,-4.486673176E-1
4.461134062E0,7.070557028E-2,-5.514423847E-1,-4.437805414E-1
4.463611979E0,1.220167428E-1,-4.695888162E-1,-4.450022280E-1
4.466090677E0,1.733279079E-1,-3.901786804E-1,-4.401154518E-1
4.468570260E0,2.246390730E-1,-3.132119179E-1,-4.352286756E-1
4.471048906E0,2.783936262E-1,-2.350234836E-1,-4.303418994E-1
4.473526822E0,3.321481943E-1,-1.617218107E-1,-4.205683470E-1
4.476005520E0,3.834593594E-1,-9.575030953E-2,-4.144598544E-1
4.478485052E0,4.323271513E-1,-3.710897267E-2,-4.059080184E-1
4.480963749E0,4.799732268E-1,1.053711493E-2,-3.997995257E-1
4.483441614E0,5.251759291E-1,5.329642445E-2,-3.936910629E-1
4.485920364E0,5.642701387E-1,8.628217876E-2,-3.851391971E-1
4.488399895E0,6.009209752E-1,1.082726792E-1,-3.753656447E-1
4.490878541E0,6.326850653E-1,1.241547018E-1,-3.643703759E-1
4.493356458E0,6.595623493E-1,1.327065676E-1,-3.497100472E-1
4.495835156E0,6.827745438E-1,1.351499557E-1,-3.374931216E-1
4.498314739E0,7.023216486E-1,1.314848661E-1,-3.228327632E-1
4.500793385E0,7.194253802E-1,1.217113137E-1,-3.118375242E-1
4.503271302E0,7.328640223E-1,1.094943732E-1,-2.983988822E-1
4.505749999E0,7.463026643E-1,8.872556686E-2,-2.886253297E-1
4.508229583E0,7.597413063E-1,6.429167092E-2,-2.788517773E-1
4.510708229E0,7.707365155E-1,3.497100621E-2,-2.678565085E-1
4.513186093E0,7.829535007E-1,-1.679830020E-3,-2.593046725E-1
4.515664843E0,7.915053368E-1,-3.955236077E-2,-2.507528067E-1
4.518144374E0,8.012788892E-1,-7.986827940E-2,-2.434226274E-1
4.520623020E0,8.098307252E-1,-1.226275861E-1,-2.360924631E-1
4.523100937E0,8.171609044E-1,-1.666085869E-1,-2.263189107E-1
4.525579635E0,8.220477104E-1,-2.081461996E-1,-2.214321345E-1
4.528059218E0,8.244910836E-1,-2.447970361E-1,-2.128802687E-1
4.530537864E0,8.281561732E-1,-2.826695740E-1,-2.031067163E-1
4.533015781E0,8.330429196E-1,-3.095468581E-1,-1.957765520E-1
4.535494479E0,8.330429196E-1,-3.315373361E-1,-1.872246861E-1
4.537974062E0,8.330429196E-1,-3.498627543E-1,-1.786728203E-1
4.540452708E0,8.318212628E-1,-3.633013964E-1,-1.713426560E-1
4.542930624E0,8.330429196E-1,-3.730749488E-1,-1.664558798E-1
4.545409322E0,8.318212628E-1,-3.816268146E-1,-1.640124917E-1
4.547888854E0,8.305995464E-1,-3.865135908E-1,-1.603474021E-1
4.550367552E0,8.342646360E-1,-3.852919042E-1,-1.579040140E-1
4.552845416E0,8.342646360E-1,-3.852919042E-1,-1.615691036E-1
4.555324166E0,8.367080092E-1,-3.865135908E-1,-1.664558798E-1
4.557803697E0,8.391514421E-1,-3.914003670E-1,-1.701209545E-1
4.560282343E0,8.415948153E-1,-3.987305462E-1,-1.798945218E-1
4.562760260E0,8.428165317E-1,-4.133908749E-1,-1.860029846E-1
4.565238958E0,8.452599049E-1,-4.317162931E-1,-1.945548505E-1
4.567718541E0,8.428165317E-1,-4.610369802E-1,-2.031067163E-1
4.570197187E0,8.367080092E-1,-4.891359508E-1,-2.128802687E-1
4.572675104E0,8.257128000E-1,-5.196782947E-1,-2.238755226E-1
4.575153802E0,8.110524416E-1,-5.538857579E-1,-2.348707765E-1
4.577633385E0,7.890619636E-1,-5.868715048E-1,-2.458660156E-1
4.580112031E0,7.609629631E-1,-6.137487888E-1,-2.580829561E-1
4.582589895E0,7.255338430E-1,-6.357392669E-1,-2.715215981E-1
4.585068645E0,6.827745438E-1,-6.503996253E-1,-2.837385535E-1
4.587548177E0,6.314633489E-1,-6.565080881E-1,-2.910687327E-1
4.590026822E0,5.716003180E-1,-6.565080881E-1,-2.959555089E-1
4.592504739E0,5.068505406E-1,-6.430694461E-1,-2.935121059E-1
4.594983437E0,4.323271513E-1,-6.161921620E-1,-2.886253297E-1
4.597463020E0,3.504736125E-1,-5.697677732E-1,-2.800734639E-1
4.599941666E0,2.576248348E-1,-5.062396526E-1,-2.715215981E-1
4.602419583E0,1.611109674E-1,-4.292729199E-1,-2.617480457E-1
4.604898281E0,6.093201414E-2,-3.388675153E-1,-2.507528067E-1
4.607377864E0,-4.535540938E-2,-2.460187376E-1,-2.385358512E-1
4.609856510E0,-1.479777545E-1,-1.519482583E-1,-2.275405973E-1
4.612334427E0,-2.457133085E-1,-6.887302548E-2,-2.214321345E-1
4.614813124E0,-3.385621011E-1,3.206948051E-3,-2.189887464E-1
4.617292656E0,-4.228590131E-1,5.085303262E-2,-2.177670449E-1
4.619771354E0,-4.950917065E-1,7.406523079E-2,-2.177670449E-1
4.622249218E0,-5.586197972E-1,6.673506647E-2,-2.165453583E-1
4.624727916E0,-6.062659025E-1,3.374931216E-2,-2.153236568E-1
4.627207499E0,-6.392516494E-1,-2.000524849E-2,-2.141019702E-1
4.629686145E0,-6.587987542E-1,-8.475505561E-2,-2.153236568E-1
4.632164062E0,-6.673506498E-1,-1.495048702E-1,-2.189887464E-1
4.634642760E0,-6.624638438E-1,-2.166980654E-1,-2.202104330E-1
4.637122343E0,-6.465818286E-1,-2.814478874E-1,-2.238755226E-1
4.639600989E0,-6.221479177E-1,-3.388675153E-1,-2.250972092E-1
4.642078906E0,-5.891621709E-1,-3.840702176E-1,-2.226538211E-1
4.644557604E0,-5.488462448E-1,-4.231644273E-1,-2.177670449E-1
4.647037187E0,-5.012001991E-1,-4.451549351E-1,-2.018850148E-1
4.649515833E0,-4.472928941E-1,-4.598152637E-1,-1.823379099E-1
4.651993697E0,-3.910949528E-1,-4.683671296E-1,-1.566823274E-1
4.654472395E0,-3.324536085E-1,-4.769189954E-1,-1.249182671E-1
4.656951979E0,-2.762556672E-1,-4.830274582E-1,-8.948912472E-2
4.659430624E0,-2.200577259E-1,-4.805840850E-1,-5.283828825E-2
4.661908541E0,-1.638597846E-1,-4.695888162E-1,-1.496575773E-2
4.664387239E0,-1.076618284E-1,-4.585935771E-1,2.657185495E-2
4.666866822E0,-5.146388337E-2,-4.304946065E-1,6.688777357E-2
4.669345468E0,3.512371797E-3,-3.889569938E-1,1.072036922E-1
4.671823385E0,5.726693198E-2,-3.388675153E-1,1.487413049E-1
4.674302083E0,1.061347127E-1,-2.790044844E-1,1.890572309E-1
4.676781666E0,1.574458778E-1,-2.118112892E-1,2.281514555E-1
4.679260312E0,2.112004459E-1,-1.372879148E-1,2.721324563E-1
4.681738177E0,2.686200738E-1,-5.543438718E-2,3.185568452E-1
4.684216927E0,3.260397315E-1,3.374931216E-2,3.637595475E-1
4.686696458E0,3.859027624E-1,1.363716573E-1,4.114056230E-1
4.689175104E0,4.457657933E-1,2.487675399E-1,4.590517282E-1
4.691653020E0,5.007420182E-1,3.709369898E-1,5.054761171E-1
4.694131718E0,5.496098399E-1,5.150969625E-1,5.471664071E-1
4.696611302E0,5.874823332E-1,6.714738607E-1,5.789304972E-1
4.699089947E0,6.131379604E-1,8.376243114E-1,6.021426916E-1
4.701567864E0,6.241331697E-1,1.002553105E0,6.094728708E-1
4.704046562E0,6.204680800E-1,1.161373377E0,6.033644080E-1
4.706526145E0,6.058077812E-1,1.306754947E0,5.801522136E-1
4.709004791E0,5.838172436E-1,1.427702785E0,5.386145711E-1
4.711482708E0,5.569399595E-1,1.519329786E0,4.847072959E-1
4.713961406E0,5.263976455E-1,1.565754294E0,4.162923992E-1
4.716440937E0,4.946335554E-1,1.557202339E0,3.429907262E-1
4.718919635E0,4.689779878E-1,1.487565756E0,2.696890533E-1
4.721397499E0,4.408790171E-1,1.370283127E0,2.024958730E-1
4.723876197E0,4.127800465E-1,1.221236348E0,1.462979168E-1
4.726355781E0,3.895678520E-1,1.068524599E0,1.120904684E-1
4.728834427E0,3.626905680E-1,9.255862832E-1,9.376505762E-2
4.731312343E0,3.382566571E-1,8.083036542E-1,9.376505762E-2
4.733791041E0,3.174878657E-1,7.215633392E-1,1.035386100E-1
4.736270624E0,2.979407609E-1,6.665870547E-1,1.243074164E-1
4.738749270E0,2.857238054E-1,6.445965767E-1,1.524063945E-1
4.741227187E0,2.845021188E-1,6.543701291E-1,1.829487532E-1
4.743705885E0,2.893888950E-1,6.849125028E-1,2.183778882E-1
4.746185468E0,3.016058207E-1,7.252284288E-1,2.513636351E-1
4.748664114E0,3.211529553E-1,7.740961909E-1,2.831276953E-1
4.751142031E0,3.492519259E-1,8.217422962E-1,3.100049794E-1
4.753620729E0,3.822376728E-1,8.645015955E-1,3.283303976E-1
4.756100260E0,4.237752855E-1,9.023740888E-1,3.454341292E-1
4.758578906E0,4.689779878E-1,9.329164624E-1,3.600944579E-1
4.761056822E0,5.239542127E-1,9.610154629E-1,3.698680103E-1
4.763535520E0,5.838172436E-1,9.878927469E-1,3.771981895E-1
4.766015104E0,6.497887969E-1,1.014770031E0,3.796415627E-1
4.768493749E0,7.218687534E-1,1.044090629E0,3.784198761E-1
4.770971666E0,7.963921428E-1,1.084406614E0,3.747547865E-1
4.773450364E0,8.733588457E-1,1.130831003E0,3.698680103E-1
4.775929947E0,9.491039515E-1,1.180920482E0,3.637595475E-1
4.778408593E0,1.019962192E0,1.240783453E0,3.564293683E-1
4.780886510E0,1.084712029E0,1.309198380E0,3.539859951E-1
4.783365208E0,1.144575000E0,1.386165142E0,3.588727713E-1
4.785844739E0,1.195886254E0,1.465575337E0,3.710896969E-1
4.788323437E0,1.238645554E0,1.543763757E0,3.857500553E-1
4.790801302E0,1.274074674E0,1.626838923E0,4.040754735E-1
4.793279999E0,1.307060480E0,1.707470775E0,4.248442650E-1
4.795759583E0,1.333937645E0,1.785659194E0,4.504998624E-1
4.798238229E0,1.357149839E0,1.855295897E0,4.773771465E-1
4.800716145E0,1.375475287E0,1.911493778E0,5.115845799E-1
4.803194843E0,1.391357303E0,1.955474734E0,5.447230339E-1
4.805674427E0,1.398687482E0,1.982352018E0,5.728220344E-1
4.808153072E0,1.401130915E0,1.995790720E0,6.009209752E-1
4.810630989E0,1.397465825E0,1.994569063E0,6.277982593E-1
4.813109687E0,1.390135646E0,1.977465272E0,6.485670805E-1
4.815589218E0,1.381583810E0,1.948144674E0,6.705575585E-1
4.818067916E0,1.375475287E0,1.910272121E0,6.852179170E-1
4.820545781E0,1.373031974E0,1.867512822E0,6.974348426E-1
4.823024531E0,1.369366884E0,1.822310090E0,7.108734846E-1
4.825504062E0,1.366923451E0,1.780772448E0,7.267554998E-1
4.827982708E0,1.366923451E0,1.741678238E0,7.389724851E-1
4.830460624E0,1.373031974E0,1.707470775E0,7.487460375E-1
4.832939322E0,1.382805467E0,1.678150177E0,7.560762167E-1
4.835418906E0,1.393800735E0,1.647607803E0,7.585195899E-1
4.837897552E0,1.406017661E0,1.618287086E0,7.524111271E-1
4.840375468E0,1.413347840E0,1.579192877E0,7.353073955E-1
4.842854166E0,1.421899676E0,1.526659966E0,7.145385742E-1
4.845333749E0,1.432894945E0,1.471683741E0,6.839962006E-1
4.847812395E0,1.446333647E0,1.410598993E0,6.473453641E-1
4.850290312E0,1.464658976E0,1.350736022E0,6.082511544E-1
4.852769010E0,1.485427856E0,1.294538021E0,5.691569448E-1
4.855248541E0,1.504974961E0,1.234675050E0,5.213581324E-1
4.857727239E0,1.526965380E0,1.176033735E0,4.737120569E-1
4.860205104E0,1.547734261E0,1.118614078E0,4.224008918E-1
4.862683802E0,1.568503022E0,1.055085897E0,3.723114133E-1
4.865163385E0,1.589271903E0,9.878927469E-1,3.197785318E-1
4.867642031E0,1.607597232E0,9.243646264E-1,2.721324563E-1
4.870119947E0,1.621035933E0,8.608365059E-1,2.232646793E-1
4.872598645E0,1.630809426E0,7.973083854E-1,1.792836636E-1
4.875078229E0,1.638139606E0,7.337802649E-1,1.438545287E-1
4.877556874E0,1.639361382E0,6.763606071E-1,1.169772521E-1
4.880034791E0,1.635696292E0,6.226060390E-1,9.987352788E-2
4.882513489E0,1.625922680E0,5.700731874E-1,8.765657991E-2
4.884993020E0,1.607597232E0,5.260922313E-1,8.032641560E-2
4.887471718E0,1.583163381E0,4.918847680E-1,7.666133344E-2
4.889949583E0,1.557507753E0,4.698942602E-1,7.788302749E-2
4.892428333E0,1.523300409E0,4.637857676E-1,8.154810965E-2
4.894907864E0,1.485427856E0,4.698942602E-1,8.399149776E-2
4.897386510E0,1.446333647E0,4.833329022E-1,8.765657991E-2
4.899864427E0,1.408461094E0,5.016583204E-1,9.376505762E-2
4.902343124E0,1.371810198E0,5.260922313E-1,1.035386100E-1
4.904822708E0,1.333937645E0,5.517477989E-1,1.133121699E-1
4.907301354E0,1.298508525E0,5.749599934E-1,1.218640283E-1
4.909779270E0,1.266744494E0,6.018372774E-1,1.304158866E-1
4.912257968E0,1.239867210E0,6.372663975E-1,1.401894391E-1
4.914737552E0,1.219098449E0,6.812474132E-1,1.487413049E-1
4.917216197E0,1.204438090E0,7.264500856E-1,1.572931707E-1
4.919694114E0,1.190999389E0,7.728744745E-1,1.658450365E-1
4.922172812E0,1.180004239E0,8.131904006E-1,1.743968874E-1
4.924652343E0,1.167787194E0,8.571714163E-1,1.817270666E-1
4.927131041E0,1.155570269E0,8.926005363E-1,1.866138428E-1
4.929608906E0,1.143353343E0,9.206995368E-1,1.939440072E-1
4.932087604E0,1.134801507E0,9.487984776E-1,2.037175596E-1
4.934567187E0,1.126249671E0,9.744541049E-1,2.134911120E-1
4.937045833E0,1.120141149E0,9.927794933E-1,2.244863659E-1
4.939523749E0,1.115254402E0,1.006218195E0,2.367033064E-1
4.942002447E0,1.112810969E0,1.014770031E0,2.489202619E-1
4.944482031E0,1.110367656E0,1.023321867E0,2.599155009E-1
4.946960677E0,1.110367656E0,1.025765300E0,2.721324563E-1
4.949438593E0,1.116476059E0,1.030652046E0,2.782409191E-1
4.951917291E0,1.125027895E0,1.030652046E0,2.843494117E-1
4.954396822E0,1.134801507E0,1.028208613E0,2.904578745E-1
4.956875520E0,1.147018433E0,1.026986957E0,2.965663373E-1
4.959353385E0,1.160457134E0,1.020878434E0,3.038965166E-1
4.961832135E0,1.171452284E0,1.013548255E0,3.075616062E-1
4.964311666E0,1.184890985E0,1.004996419E0,3.136700690E-1
4.966790312E0,1.198329568E0,9.915578365E-1,3.173351586E-1
4.969268229E0,1.209324837E0,9.756757617E-1,3.210002482E-1
4.971746927E0,1.222763538E0,9.573503733E-1,3.246653080E-1
4.974226510E0,1.233758807E0,9.402466416E-1,3.258870244E-1
4.976705156E0,1.242310643E0,9.206995368E-1,3.258870244E-1
4.979183072E0,1.249640822E0,8.987090588E-1,3.283303976E-1
4.981661770E0,1.253305912E0,8.816053271E-1,3.307738006E-1
4.984141354E0,1.255749226E0,8.657232523E-1,3.295520842E-1
4.986619999E0,1.254527569E0,8.461761475E-1,3.258870244E-1
4.989097864E0,1.252084136E0,8.205205798E-1,3.246653080E-1
4.991576614E0,1.247197390E0,7.948650122E-1,3.234436214E-1
4.994056145E0,1.241088867E0,7.655443549E-1,3.246653080E-1
4.996534791E0,1.231315374E0,7.288935184E-1,3.283303976E-1
4.999012708E0,1.221541762E0,6.861341596E-1,3.319954872E-1
5.001491406E0,1.210546613E0,6.445965767E-1,3.368822634E-1
5.003970989E0,1.199551344E0,5.993938446E-1,3.442124426E-1
5.006449635E0,1.189777732E0,5.566345453E-1,3.515425920E-1
5.008927552E0,1.178782463E0,5.175403357E-1,3.613161445E-1
5.011406249E0,1.170230627E0,4.821111858E-1,3.686463237E-1
5.013885833E0,1.165343881E0,4.466820657E-1,3.771981895E-1
5.016364479E0,1.165343881E0,4.149180055E-1,3.845283389E-1
5.018842395E0,1.165343881E0,3.892624080E-1,3.955236077E-1
5.021321093E0,1.170230627E0,3.599417508E-1,4.065188468E-1
5.023800624E0,1.178782463E0,3.330644667E-1,4.211791754E-1
5.026279322E0,1.189777732E0,3.110739589E-1,4.419479966E-1
5.028757187E0,1.203216434E0,2.939702570E-1,4.602734149E-1
5.031235885E0,1.217876673E0,2.817533016E-1,4.798205197E-1
5.033715468E0,1.231315374E0,2.719797492E-1,4.957025647E-1
5.036194114E0,1.245975733E0,2.683146596E-1,5.091412067E-1
5.038672031E0,1.255749226E0,2.683146596E-1,5.189147592E-1
5.041150729E0,1.264301062E0,2.707580328E-1,5.262449384E-1
5.043630312E0,1.272853017E0,2.732014358E-1,5.373928547E-1
5.046108958E0,1.278961420E0,2.780882120E-1,5.496098399E-1
5.048586874E0,1.282626510E0,2.903051674E-1,5.581616759E-1
5.051065572E0,1.281404853E0,3.013004065E-1,5.642701387E-1
5.053545104E0,1.276518106E0,3.135173619E-1,5.728220344E-1
5.056023802E0,1.267966151E0,3.220692277E-1,5.813738704E-1
5.058501666E0,1.258192658E0,3.342861533E-1,5.874823332E-1
5.060980416E0,1.242310643E0,3.489464819E-1,5.911474228E-1
5.063459947E0,1.222763538E0,3.611634374E-1,5.887040496E-1
