"Time (s)","Gyroscope x (rad/s)","Gyroscope y (rad/s)","Gyroscope z (rad/s)"
1.161252000E-2,1.124386668E0,-1.298557401E0,6.125270575E-2
1.362668000E-2,1.124386668E0,-1.298557401E0,6.125270575E-2
1.561032300E-2,1.124386668E0,-1.298557401E0,6.125270575E-2
1.759396500E-2,1.124386668E0,-1.298557401E0,6.125270575E-2
1.954709000E-2,1.124386668E0,-1.298557401E0,6.125270575E-2
2.150021500E-2,1.124386668E0,-1.298557401E0,6.125270575E-2
2.351437500E-2,1.124386668E0,-1.298557401E0,6.125270575E-2
2.552853600E-2,1.124386668E0,-1.298557401E0,6.125270575E-2
2.751217800E-2,1.124386668E0,-1.298557401E0,6.125270575E-2
2.952633800E-2,1.124386668E0,-1.298557401E0,6.125270575E-2
3.150998100E-2,1.124386668E0,-1.298557401E0,6.125270575E-2
3.352414100E-2,1.124386668E0,-1.298557401E0,6.125270575E-2
3.547726600E-2,1.124386668E0,-1.298557401E0,6.125270575E-2
3.749142600E-2,1.124386668E0,-1.298557401E0,6.125270575E-2
3.950558600E-2,1.124386668E0,-1.298557401E0,6.125270575E-2
4.148922900E-2,1.124386668E0,-1.298557401E0,6.125270575E-2
4.350338900E-2,-1.347559541E-1,-3.941478580E-2,-1.241033077E-1
4.551754900E-2,-1.336906850E-1,-4.580637068E-2,-1.171790883E-1
4.747067400E-2,-1.288969964E-1,-5.113269389E-2,-1.054611802E-1
4.951535200E-2,-1.267664731E-1,-5.432848632E-2,-1.209075153E-1
5.149899400E-2,-1.171790883E-1,-5.006742850E-2,-1.198422536E-1
5.348263700E-2,-1.097222418E-1,-5.379585549E-2,-1.177117229E-1
5.549679700E-2,-1.022653878E-1,-5.379585549E-2,-1.182443574E-1
5.751095700E-2,-9.480853379E-2,-5.113269389E-2,-1.219727769E-1
5.949460000E-2,-9.001484513E-2,-4.687163606E-2,-1.246359423E-1
6.147824300E-2,-8.202536404E-2,-4.207794741E-2,-1.257012039E-1
6.343136800E-2,-7.350324839E-2,-3.515372798E-2,-1.241033077E-1
6.541501000E-2,-6.711166352E-2,-2.769687586E-2,-1.182443574E-1
6.742917000E-2,-6.231797114E-2,-2.183792181E-2,-1.155811921E-1
6.944333000E-2,-5.805691332E-2,-1.757686399E-2,-1.107875034E-1
7.145749100E-2,-5.379585549E-2,-1.331580617E-2,-1.075917110E-1
7.344113300E-2,-5.113269389E-2,-9.054748341E-3,-1.043959185E-1
7.539425800E-2,-4.793690145E-2,-3.728425596E-3,-1.001348570E-1
7.740841800E-2,-4.527373984E-2,3.195793368E-3,-9.800432622E-2
7.939206100E-2,-3.994741663E-2,1.065264456E-2,-9.267801046E-2
8.140622100E-2,-3.621899337E-2,1.544633508E-2,-8.735168725E-2
8.342038100E-2,-2.822950855E-2,1.757686399E-2,-7.723167539E-2
8.540402400E-2,-2.716424316E-2,2.450108156E-2,-7.297061384E-2
8.741818400E-2,-2.290318534E-2,2.769687586E-2,-6.657902896E-2
8.943234400E-2,-2.077265643E-2,2.982740477E-2,-5.858954415E-2
9.138546900E-2,-1.384843793E-2,3.195793182E-2,-5.166532472E-2
9.339962900E-2,-7.989482954E-3,3.728425503E-2,-4.420847446E-2
9.538327200E-2,-2.663161140E-3,3.888215125E-2,-3.195793182E-2
9.736691400E-2,2.130528912E-3,4.261057824E-2,-2.556634694E-2
9.938107500E-2,7.989482954E-3,4.101268202E-2,-2.343581803E-2
1.013952350E-1,1.491370238E-2,4.314320907E-2,-2.183792181E-2
1.033178420E-1,1.970739290E-2,4.687163606E-2,-1.704423130E-2
1.053014850E-1,2.822950855E-2,5.060006306E-2,-8.522115648E-3
1.073156450E-1,3.408846259E-2,5.486112088E-2,2.130528912E-3
1.093603230E-1,4.207794741E-2,5.379585549E-2,5.858954508E-3
1.113134480E-1,4.953479767E-2,5.699164793E-2,7.989482954E-3
1.132970900E-1,5.486112088E-2,5.805691332E-2,5.326322280E-3
1.153112500E-1,6.125270575E-2,6.231797114E-2,1.065264456E-2
1.173254110E-1,6.604639441E-2,6.551376730E-2,1.225054078E-2
1.192480180E-1,7.190535218E-2,7.190535218E-2,1.491370238E-2
1.212316610E-1,7.776430249E-2,7.456851006E-2,1.651159860E-2
1.232458210E-1,8.522115648E-2,8.309062570E-2,1.438106969E-2
1.252599810E-1,9.161274135E-2,8.575379103E-2,1.757686399E-2
1.272741410E-1,9.640643001E-2,9.640643001E-2,1.810949668E-2
1.292883010E-1,1.027980223E-1,1.065264493E-1,2.077265643E-2
1.312109090E-1,1.059938148E-1,1.161138266E-1,2.343581803E-2
1.332250690E-1,1.129180342E-1,1.267664731E-1,2.130528912E-2
1.352087110E-1,1.187769845E-1,1.342233270E-1,2.609897964E-2
1.371923540E-1,1.198422536E-1,1.432780623E-1,2.556634694E-2
1.392065140E-1,1.230380461E-1,1.518001854E-1,3.089267015E-2
1.411901570E-1,1.214401498E-1,1.555286050E-1,3.728425503E-2
1.432043170E-1,1.219727769E-1,1.592570394E-1,4.580637068E-2
1.452184770E-1,1.214401498E-1,1.565938741E-1,5.166532472E-2
1.471410840E-1,1.187769845E-1,1.539307088E-1,5.592638254E-2
1.491552440E-1,1.182443574E-1,1.491370201E-1,5.752427876E-2
1.511388870E-1,1.161138266E-1,1.512675583E-1,6.125270575E-2
1.531530470E-1,1.129180342E-1,1.454086006E-1,6.551376730E-2
1.551366900E-1,1.123853996E-1,1.438107044E-1,7.297061384E-2
1.571203320E-1,1.129180342E-1,1.464738697E-1,7.243798673E-2
1.590734570E-1,1.123853996E-1,1.496696621E-1,7.297061384E-2
1.610265820E-1,1.214401498E-1,1.565938741E-1,6.870955974E-2
1.630407430E-1,1.283643693E-1,1.704423130E-1,6.444849819E-2
1.650549030E-1,1.379517466E-1,1.810949594E-1,6.285060197E-2
1.670385450E-1,1.443433315E-1,1.938781291E-1,5.805691332E-2
1.690527050E-1,1.544633508E-1,2.045307755E-1,5.539375171E-2
1.710363480E-1,1.635181010E-1,2.151834220E-1,5.219795927E-2
1.730505080E-1,1.667138934E-1,2.199771106E-1,4.846953228E-2
1.749731160E-1,1.720402092E-1,2.295644879E-1,4.580637068E-2
1.769872760E-1,1.720402092E-1,2.327602804E-1,4.314320907E-2
1.790014360E-1,1.709749401E-1,2.450108230E-1,4.527373984E-2
1.809850780E-1,1.704423130E-1,2.466087192E-1,4.740426689E-2
1.829992390E-1,1.667138934E-1,2.498045117E-1,4.846953228E-2
1.850133990E-1,1.640507281E-1,2.540655732E-1,5.166532472E-2
1.869360060E-1,1.597896665E-1,2.561961114E-1,5.539375171E-2
1.889501660E-1,1.560612470E-1,2.588592768E-1,5.752427876E-2
1.909338090E-1,1.528654546E-1,2.663161159E-1,5.539375171E-2
1.929479690E-1,1.475391239E-1,2.673813701E-1,5.752427876E-2
1.949316120E-1,1.411475390E-1,2.748382390E-1,5.432848632E-2
1.969152540E-1,1.358212233E-1,2.849582434E-1,5.539375171E-2
1.988683790E-1,1.342233270E-1,2.886866629E-1,5.965480953E-2
2.008215040E-1,1.310275346E-1,2.940129936E-1,5.752427876E-2
2.028356640E-1,1.267664731E-1,2.998719513E-1,5.326322466E-2
2.048498250E-1,1.246359423E-1,3.020024598E-1,5.060006306E-2
2.068334670E-1,1.214401498E-1,3.099919558E-1,4.740426689E-2
2.088476270E-1,1.209075153E-1,3.179814517E-1,4.474110901E-2
2.108312700E-1,1.193096191E-1,3.211772442E-1,4.261057824E-2
2.128454300E-1,1.198422536E-1,3.275688291E-1,4.207794741E-2
2.147680370E-1,1.150485575E-1,3.307646215E-1,3.781688958E-2
2.167821980E-1,1.091896072E-1,3.344930410E-1,3.568635881E-2
2.187658400E-1,1.070590764E-1,3.398193717E-1,3.355583176E-2
2.207494830E-1,1.017327532E-1,3.430151641E-1,3.195793182E-2
2.227636430E-1,9.480853379E-2,3.403519988E-1,2.609897964E-2
2.247472860E-1,9.054747969E-2,3.408846259E-1,2.716424316E-2
2.267004110E-1,8.255799860E-2,3.376888335E-1,2.343581803E-2
2.286840530E-1,7.563377917E-2,3.328951299E-1,1.864212751E-2
2.306676960E-1,6.551376730E-2,3.291667104E-1,6.924218964E-3
2.326818560E-1,5.912217870E-2,3.249056637E-1,2.663161140E-3
2.346654980E-1,5.113269389E-2,3.206445873E-1,-2.130528912E-3
2.366491410E-1,4.207794741E-2,3.142530024E-1,-4.261057824E-3
2.386633010E-1,3.621899337E-2,3.137203753E-1,-5.326322280E-3
2.406469440E-1,2.343581803E-2,3.105245829E-1,-7.989482954E-3
2.426000690E-1,1.597896591E-2,3.041329980E-1,-6.391586736E-3
2.446142290E-1,9.587380104E-3,2.961435318E-1,-3.195793368E-3
2.465978710E-1,-1.597896684E-3,2.849582434E-1,-5.326322280E-3
2.486120320E-1,-1.171790902E-2,2.759034932E-1,1.065264456E-3
2.505956740E-1,-1.917476021E-2,2.652508616E-1,3.728425596E-3
2.526098340E-1,-2.556634694E-2,2.444781959E-1,3.728425596E-3
2.545324420E-1,-3.462109342E-2,2.269013226E-1,0.000000000E0
2.565160840E-1,-4.101268202E-2,2.098570913E-1,-1.597896684E-3
2.585302440E-1,-4.740426689E-2,1.901497096E-1,-2.663161140E-3
2.605444050E-1,-4.846953228E-2,1.736381054E-1,3.728425596E-3
2.625280470E-1,-5.166532472E-2,1.533980817E-1,4.261057824E-3
2.645116900E-1,-5.379585549E-2,1.422128081E-1,1.118527725E-2
2.665258500E-1,-5.432848632E-2,1.214401498E-1,1.651159860E-2
2.685705280E-1,-5.219795927E-2,1.006674916E-1,1.917476021E-2
2.704626180E-1,-5.219795927E-2,8.149272949E-2,2.663161233E-2
2.724767780E-1,-5.166532472E-2,6.178534031E-2,3.036003746E-2
2.744604200E-1,-4.846953228E-2,4.367584363E-2,3.888215125E-2
2.764440630E-1,-4.580637068E-2,2.183792181E-2,4.261057824E-2
2.784582230E-1,-4.527373984E-2,1.118527725E-2,4.846953228E-2
2.804418660E-1,-4.154531285E-2,-3.728425596E-3,5.113269389E-2
2.823949910E-1,-4.314320907E-2,-1.225054078E-2,5.432848632E-2
2.844091510E-1,-3.781688958E-2,-1.970739290E-2,5.912217870E-2
2.863927930E-1,-3.302319720E-2,-2.343581803E-2,6.231797114E-2
2.884069530E-1,-3.036003746E-2,-2.769687586E-2,6.498113275E-2
2.903905960E-1,-2.556634694E-2,-2.876213938E-2,6.498113275E-2
2.923742390E-1,-2.130528912E-2,-3.195793182E-2,6.817692518E-2
2.943273640E-1,-1.384843793E-2,-3.249056637E-2,6.870955974E-2
2.963415240E-1,-6.391586736E-3,-3.408846259E-2,6.711166352E-2
2.983251660E-1,5.326322280E-4,-3.195793182E-2,6.764429063E-2
3.003088090E-1,6.924218964E-3,-2.716424316E-2,6.711166352E-2
3.023229690E-1,9.587380104E-3,-2.237055451E-2,6.285060197E-2
3.043066120E-1,1.491370238E-2,-1.704423130E-2,5.592638254E-2
3.063207720E-1,1.864212751E-2,-1.225054078E-2,5.060006306E-2
3.083654500E-1,2.183792181E-2,0.000000000E0,4.314320907E-2
3.102575390E-1,2.396845073E-2,1.384843793E-2,3.408846259E-2
3.122411820E-1,2.663161233E-2,2.183792181E-2,2.822950855E-2
3.142553420E-1,3.302319720E-2,3.728425503E-2,1.864212751E-2
3.162389850E-1,3.355583176E-2,5.113269389E-2,6.924218964E-3
3.182531450E-1,3.408846259E-2,6.498113275E-2,-1.597896684E-3
3.202673050E-1,3.462109342E-2,7.829693705E-2,-1.384843793E-2
3.221899120E-1,3.621899337E-2,9.480853379E-2,-2.396845073E-2
3.241735550E-1,3.408846259E-2,1.038632840E-1,-3.036003746E-2
3.261877150E-1,3.249056637E-2,1.187769845E-1,-3.621899337E-2
3.282018750E-1,3.089267015E-2,1.310275346E-1,-4.154531285E-2
3.301855180E-1,2.716424316E-2,1.384843737E-1,-4.314320907E-2
3.321996780E-1,2.822950855E-2,1.523328125E-1,-4.474110901E-2
3.342138380E-1,2.396845073E-2,1.592570394E-1,-4.420847446E-2
3.361974810E-1,2.396845073E-2,1.667138934E-1,-4.474110901E-2
3.381506060E-1,2.237055451E-2,1.741707325E-1,-4.154531285E-2
3.401647660E-1,1.970739290E-2,1.757686287E-1,-3.941478580E-2
3.421484090E-1,2.024002373E-2,1.773665249E-1,-3.515372798E-2
3.441625690E-1,2.024002373E-2,1.773665249E-1,-3.462109342E-2
3.461767290E-1,1.917476021E-2,1.768338978E-1,-2.876213938E-2
3.481908890E-1,1.970739290E-2,1.768338978E-1,-2.663161233E-2
3.501745320E-1,1.704423130E-2,1.704423130E-1,-2.130528912E-2
3.521886920E-1,1.970739290E-2,1.661812514E-1,-1.704423130E-2
3.541112990E-1,1.970739290E-2,1.565938741E-1,-9.054748341E-3
3.560949420E-1,1.864212751E-2,1.539307088E-1,-6.391586736E-3
3.581091020E-1,1.651159860E-2,1.480717659E-1,-6.924218964E-3
3.600927440E-1,1.864212751E-2,1.459412277E-1,-3.195793368E-3
3.621069050E-1,1.704423130E-2,1.470064968E-1,-1.065264456E-3
3.641210650E-1,1.225054078E-2,1.470064968E-1,2.130528912E-3
3.660436720E-1,9.054748341E-3,1.470064968E-1,1.012001187E-2
3.680578320E-1,3.728425596E-3,1.491370201E-1,2.183792181E-2
3.700414750E-1,-2.130528912E-3,1.496696621E-1,2.982740477E-2
3.720251180E-1,-1.597896684E-3,1.491370201E-1,3.781688958E-2
3.740392780E-1,-1.118527725E-2,1.486043930E-1,4.367584363E-2
3.760534380E-1,-1.810949668E-2,1.512675583E-1,5.273059011E-2
3.779760450E-1,-2.663161233E-2,1.581917703E-1,6.498113275E-2
3.799596880E-1,-3.036003746E-2,1.581917703E-1,7.403588295E-2
3.819738480E-1,-3.781688958E-2,1.571265012E-1,8.096009493E-2
3.839574910E-1,-4.261057824E-2,1.576591432E-1,9.374327213E-2
3.859716510E-1,-4.474110901E-2,1.565938741E-1,1.059938148E-1
3.880163280E-1,-4.527373984E-2,1.539307088E-1,1.123853996E-1
3.899999710E-1,-4.900216311E-2,1.597896665E-1,1.150485575E-1
3.919836140E-1,-4.740426689E-2,1.661812514E-1,1.150485575E-1
3.939367390E-1,-5.326322466E-2,1.747033745E-1,1.123853996E-1
3.959508990E-1,-5.486112088E-2,1.784317940E-1,1.171790883E-1
3.979345410E-1,-6.018744037E-2,1.810949594E-1,1.155811921E-1
3.999181840E-1,-6.178534031E-2,1.805623323E-1,1.161138266E-1
4.019323440E-1,-6.657902896E-2,1.805623323E-1,1.177117229E-1
4.039159870E-1,-7.190535218E-2,1.763012707E-1,1.177117229E-1
4.058691120E-1,-7.030745596E-2,1.736381054E-1,1.155811921E-1
4.078832720E-1,-7.510114461E-2,1.704423130E-1,1.171790883E-1
4.098669140E-1,-7.776430249E-2,1.741707325E-1,1.086569726E-1
4.118810750E-1,-7.723167539E-2,1.778991669E-1,1.006674916E-1
4.138647170E-1,-7.882957160E-2,1.826928556E-1,9.108011425E-2
4.158788770E-1,-8.042746782E-2,1.800296903E-1,8.096009493E-2
4.178930370E-1,-7.936219871E-2,1.794970632E-1,7.563377917E-2
4.199071980E-1,-8.309062570E-2,1.805623323E-1,6.764429063E-2
4.218298050E-1,-8.096009493E-2,1.768338978E-1,6.125270575E-2
4.238134480E-1,-8.149272949E-2,1.752360016E-1,5.592638254E-2
4.258276080E-1,-8.096009493E-2,1.789644361E-1,4.527373984E-2
4.278722860E-1,-7.563377917E-2,1.784317940E-1,3.941478580E-2
4.298254110E-1,-7.510114461E-2,1.763012707E-1,3.355583176E-2
4.318090530E-1,-7.350324839E-2,1.741707325E-1,2.929477207E-2
4.337621780E-1,-7.297061384E-2,1.667138934E-1,2.396845073E-2
4.357153030E-1,-7.084008306E-2,1.629854590E-1,1.331580617E-2
4.377294630E-1,-6.604639441E-2,1.629854590E-1,7.456851192E-3
4.397436230E-1,-6.551376730E-2,1.555286050E-1,4.261057824E-3
4.417272660E-1,-6.285060197E-2,1.422128081E-1,-3.195793368E-3
4.437109090E-1,-5.912217870E-2,1.294296384E-1,-5.858954508E-3
4.457250690E-1,-5.858954415E-2,1.161138266E-1,-1.065264456E-2
4.477392290E-1,-5.539375171E-2,1.097222418E-1,-1.278317347E-2
4.496618360E-1,-5.006742850E-2,1.091896072E-1,-2.024002373E-2
4.516759960E-1,-4.793690145E-2,1.070590764E-1,-2.609897964E-2
4.536596390E-1,-4.367584363E-2,1.075917110E-1,-2.556634694E-2
4.556432820E-1,-4.101268202E-2,1.091896072E-1,-2.450108156E-2
4.576574420E-1,-3.781688958E-2,1.097222418E-1,-2.450108156E-2
4.596716020E-1,-3.834952042E-2,1.107875034E-1,-2.769687586E-2
4.615942090E-1,-3.941478580E-2,1.166464612E-1,-2.929477207E-2
4.636083690E-1,-3.781688958E-2,1.155811921E-1,-2.822950855E-2
4.656225300E-1,-3.408846259E-2,1.129180342E-1,-2.929477207E-2
4.676366900E-1,-3.142530099E-2,1.113201380E-1,-2.876213938E-2
4.696203320E-1,-3.142530099E-2,1.086569726E-1,-2.822950855E-2
4.716344930E-1,-2.876213938E-2,1.070590764E-1,-3.089267015E-2
4.736486530E-1,-2.769687586E-2,1.022653878E-1,-2.929477207E-2
4.756322950E-1,-3.195793182E-2,9.267801046E-2,-2.716424316E-2
4.775549030E-1,-3.036003746E-2,9.427590668E-2,-2.822950855E-2
4.795385450E-1,-2.876213938E-2,8.788431436E-2,-2.343581803E-2
4.815527050E-1,-2.769687586E-2,8.468852192E-2,-2.024002373E-2
4.835668660E-1,-2.396845073E-2,7.723167539E-2,-1.810949668E-2
4.855505080E-1,-2.183792181E-2,6.977482140E-2,-1.384843793E-2
4.875646680E-1,-1.917476021E-2,6.498113275E-2,-1.118527725E-2
4.894567580E-1,-1.544633508E-2,5.592638254E-2,-5.326322280E-3
4.914404010E-1,-1.384843793E-2,5.486112088E-2,-3.195793368E-3
4.934545610E-1,-1.065264456E-2,4.953479767E-2,-2.130528912E-3
4.954687210E-1,-1.012001187E-2,4.580637068E-2,4.793690052E-3
4.974523640E-1,-7.989482954E-3,4.154531285E-2,4.793690052E-3
4.994360060E-1,-6.391586736E-3,3.888215125E-2,1.012001187E-2
5.014501660E-1,-7.989482954E-3,3.302319720E-2,1.225054078E-2
5.034643270E-1,-7.989482954E-3,2.663161233E-2,1.384843793E-2
5.054174520E-1,-4.261057824E-3,2.609897964E-2,1.651159860E-2
5.074316120E-1,-9.054748341E-3,1.917476021E-2,1.757686399E-2
5.094152540E-1,-6.391586736E-3,1.278317347E-2,1.704423130E-2
5.114294140E-1,-7.989482954E-3,7.989482954E-3,2.024002373E-2
5.134130570E-1,-1.065264456E-2,2.130528912E-3,2.237055451E-2
5.154272170E-1,-9.054748341E-3,-2.663161140E-3,2.237055451E-2
5.173803420E-1,-9.587380104E-3,-1.065264456E-2,2.183792181E-2
5.193334670E-1,-9.054748341E-3,-1.597896591E-2,2.077265643E-2
5.213476270E-1,-9.587380104E-3,-2.237055451E-2,2.077265643E-2
5.233617870E-1,-6.391586736E-3,-2.822950855E-2,1.917476021E-2
5.253454300E-1,-5.858954508E-3,-3.781688958E-2,2.130528912E-2
5.273595900E-1,-8.522115648E-3,-4.207794741E-2,2.130528912E-2
5.293432330E-1,-5.326322280E-3,-4.793690145E-2,2.077265643E-2
5.313573930E-1,-3.728425596E-3,-5.273059011E-2,2.024002373E-2
5.333105180E-1,-5.858954508E-3,-6.125270575E-2,2.024002373E-2
5.352941610E-1,-4.793690052E-3,-6.444849819E-2,1.384843793E-2
5.373083210E-1,-4.261057824E-3,-6.870955974E-2,1.491370238E-2
5.392919630E-1,-1.065264456E-3,-6.977482140E-2,1.491370238E-2
5.413061230E-1,-1.597896684E-3,-7.403588295E-2,1.171790902E-2
5.433202840E-1,-2.663161140E-3,-7.616640627E-2,7.989482954E-3
5.452428910E-1,-4.261057824E-3,-7.510114461E-2,4.793690052E-3
5.472570510E-1,-3.728425596E-3,-8.042746782E-2,1.597896684E-3
5.492406940E-1,-3.728425596E-3,-8.096009493E-2,1.597896684E-3
5.512548540E-1,1.597896684E-3,-8.096009493E-2,3.195793368E-3
5.532384960E-1,-1.597896684E-3,-8.468852192E-2,-1.597896684E-3
5.552221390E-1,-4.793690052E-3,-8.362326026E-2,-2.663161140E-3
5.571752640E-1,-4.793690052E-3,-8.522115648E-2,-3.195793368E-3
5.591283890E-1,-3.728425596E-3,-8.841694891E-2,-5.858954508E-3
5.611425490E-1,-5.858954508E-3,-9.001484513E-2,-6.391586736E-3
5.631567090E-1,-7.456851192E-3,-9.321063757E-2,-7.989482954E-3
5.651403520E-1,-3.728425596E-3,-9.640643001E-2,-7.456851192E-3
5.671545120E-1,-6.391586736E-3,-9.640643001E-2,-7.989482954E-3
5.691381550E-1,-5.858954508E-3,-1.022653878E-1,-7.456851192E-3
5.711523150E-1,-8.522115648E-3,-1.049285457E-1,-5.858954508E-3
5.730749220E-1,-7.456851192E-3,-1.081243455E-1,-5.326322280E-3
5.750585650E-1,-9.587380104E-3,-1.070590764E-1,-2.663161140E-3
5.770727250E-1,-1.118527725E-2,-1.107875034E-1,-1.597896684E-3
5.790563680E-1,-1.118527725E-2,-1.139832959E-1,5.326322280E-4
5.810705280E-1,-1.491370238E-2,-1.150485575E-1,5.326322280E-3
5.830846880E-1,-1.438106969E-2,-1.182443574E-1,5.858954508E-3
5.850378130E-1,-1.757686399E-2,-1.209075153E-1,1.065264456E-2
5.870824910E-1,-1.651159860E-2,-1.241033077E-1,1.278317347E-2
5.890661330E-1,-2.130528912E-2,-1.241033077E-1,1.544633508E-2
5.910497760E-1,-2.450108156E-2,-1.315601617E-1,1.864212751E-2
5.930639360E-1,-2.663161233E-2,-1.262338310E-1,1.864212751E-2
5.950780960E-1,-2.822950855E-2,-1.304948926E-1,2.556634694E-2
5.970922560E-1,-2.982740477E-2,-1.342233270E-1,2.822950855E-2
5.990758990E-1,-2.929477207E-2,-1.315601617E-1,2.982740477E-2
6.010290240E-1,-3.302319720E-2,-1.368864775E-1,3.195793182E-2
6.030431840E-1,-3.408846259E-2,-1.363538504E-1,3.249056637E-2
6.050268270E-1,-3.675162420E-2,-1.358212233E-1,3.408846259E-2
6.070715040E-1,-3.834952042E-2,-1.358212233E-1,3.675162420E-2
6.090551470E-1,-3.621899337E-2,-1.347559541E-1,3.728425503E-2
6.110387890E-1,-3.728425503E-2,-1.315601617E-1,3.941478580E-2
6.129919140E-1,-3.675162420E-2,-1.283643693E-1,3.941478580E-2
6.150060750E-1,-3.675162420E-2,-1.241033077E-1,4.261057824E-2
6.169897170E-1,-3.621899337E-2,-1.209075153E-1,4.154531285E-2
6.189733600E-1,-3.515372798E-2,-1.155811921E-1,4.527373984E-2
6.209875200E-1,-3.408846259E-2,-1.139832959E-1,4.207794741E-2
6.230016800E-1,-3.621899337E-2,-1.091896072E-1,4.527373984E-2
6.249853230E-1,-3.568635881E-2,-1.086569726E-1,4.527373984E-2
6.270300000E-1,-3.675162420E-2,-1.017327532E-1,4.633900523E-2
6.289220900E-1,-3.515372798E-2,-1.006674916E-1,4.900216311E-2
6.309057330E-1,-3.568635881E-2,-9.906959534E-2,4.900216311E-2
6.329198930E-1,-3.355583176E-2,-9.427590668E-2,4.740426689E-2
6.349340530E-1,-2.982740477E-2,-9.001484513E-2,5.060006306E-2
6.369176960E-1,-2.556634694E-2,-8.948221803E-2,5.113269389E-2
6.389318560E-1,-2.396845073E-2,-8.788431436E-2,5.326322466E-2
6.408544630E-1,-2.077265643E-2,-8.788431436E-2,5.273059011E-2
6.428381060E-1,-1.544633508E-2,-8.841694891E-2,5.379585549E-2
6.448522660E-1,-1.651159860E-2,-9.161274135E-2,5.752427876E-2
6.468969440E-1,-1.012001187E-2,-9.161274135E-2,5.805691332E-2
6.488500690E-1,-7.456851192E-3,-9.480853379E-2,5.858954415E-2
6.508337110E-1,-4.261057824E-3,-9.747169912E-2,6.018744037E-2
6.528478710E-1,5.326322280E-4,-1.017327532E-1,6.391586363E-2
6.548315140E-1,0.000000000E0,-1.059938148E-1,6.125270575E-2
6.567846390E-1,5.858954508E-3,-1.102548689E-1,6.285060197E-2
6.587682820E-1,6.391586736E-3,-1.155811921E-1,6.498113275E-2
6.607824420E-1,1.065264456E-2,-1.198422536E-1,6.444849819E-2
6.627966020E-1,1.491370238E-2,-1.246359423E-1,6.551376730E-2
6.648107620E-1,1.597896591E-2,-1.310275346E-1,6.498113275E-2
6.668554400E-1,2.077265643E-2,-1.400822699E-1,6.391586363E-2
6.688085650E-1,2.663161233E-2,-1.427454352E-1,6.498113275E-2
6.708227250E-1,2.556634694E-2,-1.549959779E-1,6.657902896E-2
6.727453320E-1,3.089267015E-2,-1.651159972E-1,6.870955974E-2
6.747289750E-1,3.089267015E-2,-1.763012707E-1,8.042746782E-2
6.767431350E-1,2.876213938E-2,-1.944107562E-1,9.054747969E-2
6.787267780E-1,2.822950855E-2,-2.061286718E-1,9.480853379E-2
6.807409380E-1,2.769687586E-2,-2.130528986E-1,8.681905270E-2
6.827550980E-1,3.302319720E-2,-2.215750068E-1,7.510114461E-2
6.846777050E-1,3.355583176E-2,-2.226402760E-1,6.870955974E-2
6.866918660E-1,3.408846259E-2,-2.306297570E-1,7.084008306E-2
6.886755080E-1,3.142530099E-2,-2.423476577E-1,8.415589482E-2
6.906896680E-1,2.929477207E-2,-2.583266199E-1,9.054747969E-2
6.926733110E-1,2.609897964E-2,-2.737729549E-1,9.321063757E-2
6.946874710E-1,2.663161233E-2,-2.796319127E-1,9.108011425E-2
6.966100780E-1,2.503371425E-2,-2.838929892E-1,8.468852192E-2
6.985937210E-1,2.876213938E-2,-2.865561247E-1,8.362326026E-2
7.006078810E-1,3.142530099E-2,-2.913498282E-1,7.350324839E-2
7.026220410E-1,3.675162420E-2,-2.924150825E-1,6.817692518E-2
7.046056840E-1,3.462109342E-2,-2.913498282E-1,6.498113275E-2
7.066198440E-1,3.302319720E-2,-2.982740402E-1,7.030745596E-2
7.086034870E-1,3.249056637E-2,-3.036003709E-1,7.350324839E-2
7.105871290E-1,3.568635881E-2,-3.062635362E-1,7.137271762E-2
7.125402540E-1,3.781688958E-2,-3.094593287E-1,6.924218684E-2
7.145544140E-1,3.888215125E-2,-3.078614175E-1,6.072007492E-2
7.165380570E-1,4.314320907E-2,-3.041329980E-1,5.858954415E-2
7.185217000E-1,4.633900523E-2,-2.982740402E-1,5.219795927E-2
7.205358600E-1,4.314320907E-2,-2.945456207E-1,4.420847446E-2
7.225500200E-1,4.740426689E-2,-2.828277051E-1,3.834952042E-2
7.244726270E-1,4.687163606E-2,-2.732403278E-1,2.769687586E-2
7.265173050E-1,4.900216311E-2,-2.609897852E-1,1.970739290E-2
7.285009480E-1,5.166532472E-2,-2.476739883E-1,1.278317347E-2
7.304845900E-1,4.900216311E-2,-2.434129268E-1,6.391586736E-3
7.324987500E-1,4.953479767E-2,-2.370213419E-1,9.054748341E-3
7.344823930E-1,4.846953228E-2,-2.322276533E-1,8.522115648E-3
7.364965530E-1,4.953479767E-2,-2.258360684E-1,8.522115648E-3
7.384801960E-1,4.633900523E-2,-2.215750068E-1,4.793690052E-3
7.404333210E-1,4.846953228E-2,-2.141181529E-1,4.793690052E-3
7.424474810E-1,4.793690145E-2,-2.087918371E-1,3.195793368E-3
7.444311230E-1,4.793690145E-2,-2.024002522E-1,0.000000000E0
7.464452840E-1,5.113269389E-2,-1.901497096E-1,3.195793368E-3
7.484289260E-1,4.846953228E-2,-1.810949594E-1,1.065264456E-3
7.504430860E-1,5.006742850E-2,-1.731054783E-1,2.130528912E-3
7.523962110E-1,4.793690145E-2,-1.656486243E-1,0.000000000E0
7.544103710E-1,4.846953228E-2,-1.544633508E-1,-2.663161140E-3
7.564245320E-1,4.527373984E-2,-1.368864775E-1,-9.054748341E-3
7.584081740E-1,4.048004746E-2,-1.235706806E-1,-9.587380104E-3
7.604223340E-1,3.994741663E-2,-1.129180342E-1,-1.118527725E-2
7.624364940E-1,4.580637068E-2,-9.906959534E-2,-1.065264456E-2
7.644506550E-1,4.474110901E-2,-9.214537591E-2,-4.793690052E-3
7.664648150E-1,4.687163606E-2,-8.362326026E-2,5.326322280E-4
7.683874220E-1,5.006742850E-2,-7.669904083E-2,5.858954508E-3
7.704015820E-1,4.740426689E-2,-7.243798673E-2,1.171790902E-2
7.723852250E-1,5.219795927E-2,-7.243798673E-2,1.757686399E-2
7.743993850E-1,5.166532472E-2,-6.657902896E-2,2.024002373E-2
7.764135450E-1,5.379585549E-2,-5.912217870E-2,1.917476021E-2
7.783971880E-1,5.645901710E-2,-4.846953228E-2,1.917476021E-2
7.803503130E-1,5.539375171E-2,-4.154531285E-2,1.757686399E-2
7.823644730E-1,5.592638254E-2,-2.769687586E-2,2.077265643E-2
7.843481160E-1,5.912217870E-2,-1.438106969E-2,2.343581803E-2
7.863622760E-1,5.486112088E-2,-4.261057824E-3,2.183792181E-2
7.883459180E-1,5.539375171E-2,4.793690052E-3,2.450108156E-2
7.903295610E-1,4.793690145E-2,9.587380104E-3,2.716424316E-2
7.923437210E-1,4.474110901E-2,1.171790902E-2,2.982740477E-2
7.943578810E-1,4.367584363E-2,1.331580617E-2,2.982740477E-2
7.962804890E-1,3.781688958E-2,1.438106969E-2,3.195793182E-2
7.982641310E-1,3.408846259E-2,1.864212751E-2,2.929477207E-2
8.002782910E-1,2.876213938E-2,2.396845073E-2,2.982740477E-2
8.022924520E-1,2.876213938E-2,2.982740477E-2,3.142530099E-2
8.042760940E-1,2.822950855E-2,3.408846259E-2,3.142530099E-2
8.062902540E-1,2.929477207E-2,4.420847446E-2,2.929477207E-2
8.082128620E-1,2.876213938E-2,4.846953228E-2,3.036003746E-2
8.101659870E-1,2.982740477E-2,5.273059011E-2,3.089267015E-2
8.121801470E-1,2.450108156E-2,5.432848632E-2,3.195793182E-2
8.141943070E-1,1.810949668E-2,5.912217870E-2,2.876213938E-2
8.161779500E-1,1.544633508E-2,5.858954415E-2,2.130528912E-2
8.181615920E-1,1.118527725E-2,6.285060197E-2,1.597896591E-2
8.201757520E-1,1.065264456E-2,7.084008306E-2,8.522115648E-3
8.221593950E-1,5.858954508E-3,7.669904083E-2,5.326322280E-3
8.241125200E-1,1.597896684E-3,8.522115648E-2,5.326322280E-4
8.261571980E-1,-5.858954508E-3,8.309062570E-2,-4.261057824E-3
8.281103230E-1,-1.065264456E-2,8.628641814E-2,-1.065264456E-2
8.300939650E-1,-1.704423130E-2,8.628641814E-2,-1.012001187E-2
8.321081250E-1,-2.237055451E-2,8.788431436E-2,-1.118527725E-2
8.341222860E-1,-2.609897964E-2,8.894958347E-2,-7.456851192E-3
8.360754110E-1,-3.089267015E-2,9.001484513E-2,-5.326322280E-3
8.380895710E-1,-3.355583176E-2,8.628641814E-2,2.130528912E-3
8.400732130E-1,-3.408846259E-2,8.255799860E-2,1.597896684E-3
8.420568560E-1,-3.888215125E-2,7.989483327E-2,1.118527725E-2
8.440710160E-1,-3.728425503E-2,7.297061384E-2,1.118527725E-2
8.460851760E-1,-3.781688958E-2,6.338323653E-2,8.522115648E-3
8.480688190E-1,-3.675162420E-2,5.645901710E-2,1.012001187E-2
8.500829790E-1,-3.462109342E-2,5.273059011E-2,9.054748341E-3
8.520055860E-1,-3.302319720E-2,4.474110901E-2,9.054748341E-3
8.539892290E-1,-2.929477207E-2,3.568635881E-2,1.278317347E-2
8.560033890E-1,-2.769687586E-2,2.929477207E-2,5.858954508E-3
8.579870320E-1,-2.929477207E-2,2.183792181E-2,6.391586736E-3
8.600011920E-1,-2.822950855E-2,1.544633508E-2,1.065264456E-3
8.620153520E-1,-2.876213938E-2,1.065264456E-2,-5.326322280E-4
8.639379590E-1,-3.195793182E-2,2.663161140E-3,0.000000000E0
8.659521190E-1,-3.195793182E-2,-6.391586736E-3,0.000000000E0
8.679357620E-1,-3.568635881E-2,-1.597896591E-2,5.858954508E-3
8.699194050E-1,-3.728425503E-2,-2.769687586E-2,1.597896684E-3
8.719335650E-1,-3.888215125E-2,-4.207794741E-2,2.663161140E-3
8.739477250E-1,-4.101268202E-2,-5.432848632E-2,4.261057824E-3
8.759618850E-1,-4.207794741E-2,-7.243798673E-2,7.989482954E-3
8.779455280E-1,-4.154531285E-2,-9.267801046E-2,1.278317347E-2
8.798986530E-1,-4.261057824E-2,-1.123853996E-1,1.704423130E-2
8.819128130E-1,-4.687163606E-2,-1.320927888E-1,1.651159860E-2
8.838964550E-1,-4.846953228E-2,-1.486043930E-1,1.438106969E-2
8.859106160E-1,-5.326322466E-2,-1.544633508E-1,5.858954508E-3
8.878942580E-1,-5.379585549E-2,-1.539307088E-1,2.663161140E-3
8.899084180E-1,-5.752427876E-2,-1.512675583E-1,-2.663161140E-3
8.918310260E-1,-5.805691332E-2,-1.475391239E-1,-3.728425596E-3
8.938146680E-1,-5.539375171E-2,-1.470064968E-1,5.326322280E-4
8.958288280E-1,-5.432848632E-2,-1.438107044E-1,1.597896684E-3
8.978124710E-1,-5.379585549E-2,-1.432780623E-1,-1.597896684E-3
8.998266310E-1,-5.166532472E-2,-1.448759735E-1,-8.522115648E-3
9.018407910E-1,-4.740426689E-2,-1.470064968E-1,-1.225054078E-2
9.038549520E-1,-4.420847446E-2,-1.491370201E-1,-1.597896591E-2
9.058691120E-1,-3.994741663E-2,-1.502022892E-1,-2.024002373E-2
9.077612020E-1,-3.834952042E-2,-1.528654546E-1,-2.822950855E-2
9.097448440E-1,-3.728425503E-2,-1.560612470E-1,-2.769687586E-2
9.117590040E-1,-3.675162420E-2,-1.581917703E-1,-2.982740477E-2
9.137731640E-1,-3.408846259E-2,-1.592570394E-1,-3.142530099E-2
9.157568070E-1,-3.515372798E-2,-1.635181010E-1,-3.781688958E-2
9.177709670E-1,-3.888215125E-2,-1.709749401E-1,-4.101268202E-2
9.196935750E-1,-3.941478580E-2,-1.789644361E-1,-4.633900523E-2
9.216772170E-1,-4.633900523E-2,-1.848233789E-1,-4.793690145E-2
9.236913770E-1,-4.793690145E-2,-1.906823367E-1,-4.953479767E-2
9.257360550E-1,-5.379585549E-2,-1.970739216E-1,-5.592638254E-2
9.276891800E-1,-5.805691332E-2,-2.029328793E-1,-6.018744037E-2
9.296728230E-1,-6.338323653E-2,-2.130528986E-1,-6.178534031E-2
9.315954300E-1,-6.924218684E-2,-2.221076339E-1,-6.231797114E-2
9.335790730E-1,-7.882957160E-2,-2.295644879E-1,-6.444849819E-2
9.355932330E-1,-8.362326026E-2,-2.364887148E-1,-6.817692518E-2
9.375768750E-1,-9.054747969E-2,-2.444781959E-1,-7.030745596E-2
9.395910360E-1,-9.906959534E-2,-2.514024079E-1,-7.403588295E-2
9.416051960E-1,-1.065264493E-1,-2.588592768E-1,-7.510114461E-2
9.436193560E-1,-1.102548689E-1,-2.663161159E-1,-7.776430249E-2
9.456335160E-1,-1.193096191E-1,-2.737729549E-1,-8.415589482E-2
9.475561230E-1,-1.219727769E-1,-2.764361203E-1,-8.522115648E-2
9.495397660E-1,-1.278317273E-1,-2.796319127E-1,-8.735168725E-2
9.515539260E-1,-1.347559541E-1,-2.844256163E-1,-9.001484513E-2
9.535680860E-1,-1.384843737E-1,-2.860234976E-1,-9.693906456E-2
9.555822460E-1,-1.427454352E-1,-2.913498282E-1,-1.033306494E-1
9.575658890E-1,-1.491370201E-1,-2.956108749E-1,-1.081243455E-1
9.595190140E-1,-1.549959779E-1,-2.982740402E-1,-1.097222418E-1
9.615331740E-1,-1.613875628E-1,-2.993393242E-1,-1.150485575E-1
9.635168170E-1,-1.640507281E-1,-3.004045784E-1,-1.171790883E-1
9.655309770E-1,-1.688444167E-1,-3.009372056E-1,-1.209075153E-1
9.675146190E-1,-1.725728363E-1,-3.020024598E-1,-1.257012039E-1
9.694982620E-1,-1.757686287E-1,-2.982740402E-1,-1.262338310E-1
9.715124220E-1,-1.816275865E-1,-2.945456207E-1,-1.304948926E-1
9.735265820E-1,-1.810949594E-1,-2.950782478E-1,-1.315601617E-1
9.754491900E-1,-1.848233789E-1,-2.924150825E-1,-1.310275346E-1
9.774328320E-1,-1.890844405E-1,-2.892192900E-1,-1.294296384E-1
9.794469930E-1,-1.901497096E-1,-2.865561247E-1,-1.315601617E-1
9.814306350E-1,-1.906823367E-1,-2.833603323E-1,-1.342233270E-1
9.834447950E-1,-1.906823367E-1,-2.796319127E-1,-1.331580579E-1
9.854894730E-1,-1.938781291E-1,-2.753708661E-1,-1.347559541E-1
9.873815630E-1,-1.944107562E-1,-2.732403278E-1,-1.358212233E-1
9.893652050E-1,-1.912149638E-1,-2.673813701E-1,-1.352885813E-1
9.913793660E-1,-1.970739216E-1,-2.641855776E-1,-1.374191195E-1
9.933630080E-1,-1.954760253E-1,-2.604571581E-1,-1.422128081E-1
9.953771680E-1,-1.965412945E-1,-2.545982003E-1,-1.454086006E-1
9.973913280E-1,-1.922802329E-1,-2.492718846E-1,-1.491370201E-1
9.994054890E-1,-1.869539171E-1,-2.439455539E-1,-1.470064968E-1
1.001389131E0,-1.848233789E-1,-2.354234457E-1,-1.512675583E-1
1.003342256E0,-1.837581247E-1,-2.242381722E-1,-1.565938741E-1
1.005356416E0,-1.768338978E-1,-2.178465873E-1,-1.581917703E-1
1.007340059E0,-1.715075821E-1,-2.093244642E-1,-1.651159972E-1
1.009354219E0,-1.661812514E-1,-1.997370869E-1,-1.693770438E-1
1.011368379E0,-1.592570394E-1,-1.949433982E-1,-1.677791476E-1
1.013352022E0,-1.565938741E-1,-1.912149638E-1,-1.667138934E-1
1.015274629E0,-1.507349163E-1,-1.837581247E-1,-1.629854590E-1
1.017258272E0,-1.464738697E-1,-1.810949594E-1,-1.608549356E-1
1.019272432E0,-1.448759735E-1,-1.763012707E-1,-1.592570394E-1
1.021256075E0,-1.368864775E-1,-1.715075821E-1,-1.560612470E-1
1.023270235E0,-1.331580579E-1,-1.667138934E-1,-1.549959779E-1
1.025314912E0,-1.246359423E-1,-1.619201899E-1,-1.512675583E-1
1.027298555E0,-1.187769845E-1,-1.624528319E-1,-1.422128081E-1
1.029282198E0,-1.134506613E-1,-1.603222936E-1,-1.368864775E-1
1.031235323E0,-1.091896072E-1,-1.613875628E-1,-1.299622655E-1
1.033249483E0,-1.065264493E-1,-1.608549356E-1,-1.251685768E-1
1.035233125E0,-1.027980223E-1,-1.555286050E-1,-1.203748807E-1
1.037216768E0,-9.321063757E-2,-1.475391239E-1,-1.166464612E-1
1.039230928E0,-8.948221803E-2,-1.422128081E-1,-1.129180342E-1
1.041214571E0,-7.989483327E-2,-1.384843737E-1,-1.081243455E-1
1.043167696E0,-7.030745596E-2,-1.342233270E-1,-1.033306494E-1
1.045212373E0,-6.764429063E-2,-1.304948926E-1,-9.960222989E-2
1.047165498E0,-6.285060197E-2,-1.304948926E-1,-9.321063757E-2
1.049149141E0,-5.432848632E-2,-1.235706806E-1,-8.788431436E-2
1.051163301E0,-5.006742850E-2,-1.171790883E-1,-8.309062570E-2
1.053177461E0,-4.207794741E-2,-1.118527651E-1,-7.989483327E-2
1.055161104E0,-3.994741663E-2,-1.070590764E-1,-7.563377917E-2
1.057144746E0,-3.568635881E-2,-1.017327532E-1,-7.776430249E-2
1.059097871E0,-3.036003746E-2,-9.906959534E-2,-7.563377917E-2
1.061050996E0,-2.716424316E-2,-8.894958347E-2,-7.510114461E-2
1.063065157E0,-1.864212751E-2,-8.202536404E-2,-7.084008306E-2
1.065140352E0,-1.384843793E-2,-7.456851006E-2,-6.870955974E-2
1.067062959E0,-9.587380104E-3,-6.764429063E-2,-6.604639441E-2
1.069046602E0,-6.924218964E-3,-5.858954415E-2,-5.912217870E-2
1.070999727E0,-6.391586736E-3,-5.592638254E-2,-5.539375171E-2
1.072952852E0,-5.326322280E-3,-5.432848632E-2,-5.113269389E-2
1.074967012E0,-2.130528912E-3,-5.699164793E-2,-4.154531285E-2
1.076981172E0,-5.326322280E-4,-5.965480953E-2,-3.302319720E-2
1.078964815E0,-1.597896684E-3,-6.178534031E-2,-2.450108156E-2
1.080948457E0,3.195793368E-3,-5.805691332E-2,-1.491370238E-2
1.082962618E0,5.858954508E-3,-5.965480953E-2,-8.522115648E-3
1.084976778E0,1.012001187E-2,-5.858954415E-2,1.597896684E-3
1.086868868E0,1.278317347E-2,-6.125270575E-2,1.438106969E-2
1.088852510E0,1.864212751E-2,-6.285060197E-2,2.130528912E-2
1.090866670E0,2.290318534E-2,-6.391586363E-2,2.929477207E-2
1.092850313E0,2.769687586E-2,-6.231797114E-2,3.781688958E-2
1.094864473E0,3.249056637E-2,-6.338323653E-2,4.367584363E-2
1.096878633E0,3.728425503E-2,-6.125270575E-2,4.793690145E-2
1.098801241E0,4.420847446E-2,-5.539375171E-2,5.486112088E-2
1.100784883E0,5.326322466E-2,-5.486112088E-2,5.858954415E-2
1.102799043E0,5.912217870E-2,-5.432848632E-2,6.604639441E-2
1.104843721E0,6.604639441E-2,-5.486112088E-2,7.776430249E-2
1.106796846E0,7.297061384E-2,-5.805691332E-2,8.415589482E-2
1.108780489E0,7.723167539E-2,-5.592638254E-2,8.735168725E-2
1.110733614E0,8.681905270E-2,-5.326322466E-2,9.321063757E-2
1.112686739E0,9.640643001E-2,-5.006742850E-2,1.038632840E-1
1.114700899E0,1.033306494E-1,-4.527373984E-2,1.059938148E-1
1.116715059E0,1.081243455E-1,-4.633900523E-2,1.107875034E-1
1.118698702E0,1.177117229E-1,-4.207794741E-2,1.209075153E-1
1.120682344E0,1.235706806E-1,-4.367584363E-2,1.241033077E-1
1.122696504E0,1.310275346E-1,-4.314320907E-2,1.267664731E-1
1.124710664E0,1.379517466E-1,-3.834952042E-2,1.384843737E-1
1.126633272E0,1.454086006E-1,-3.834952042E-2,1.427454352E-1
1.128647432E0,1.486043930E-1,-3.941478580E-2,1.480717659E-1
1.130631075E0,1.581917703E-1,-3.888215125E-2,1.549959779E-1
1.132614717E0,1.640507281E-1,-3.834952042E-2,1.587243974E-1
1.134628877E0,1.731054783E-1,-3.515372798E-2,1.640507281E-1
1.136612520E0,1.832254827E-1,-3.675162420E-2,1.619201899E-1
1.138565645E0,1.885518134E-1,-3.888215125E-2,1.667138934E-1
1.140579805E0,1.986718178E-1,-4.048004746E-2,1.677791476E-1
1.142563448E0,2.050634027E-1,-4.580637068E-2,1.677791476E-1
1.144577608E0,2.135855258E-1,-4.633900523E-2,1.683117896E-1
1.146561250E0,2.205097377E-1,-4.793690145E-2,1.683117896E-1
1.148575411E0,2.306297570E-1,-4.900216311E-2,1.640507281E-1
1.150559053E0,2.370213419E-1,-4.953479767E-2,1.613875628E-1
1.152542696E0,2.471413612E-1,-5.006742850E-2,1.635181010E-1
1.154465303E0,2.540655732E-1,-5.699164793E-2,1.613875628E-1
1.156448946E0,2.625876963E-1,-5.912217870E-2,1.581917703E-1
1.158463106E0,2.668487430E-1,-6.125270575E-2,1.581917703E-1
1.160477266E0,2.764361203E-1,-6.604639441E-2,1.581917703E-1
1.162460909E0,2.806971967E-1,-7.137271762E-2,1.613875628E-1
1.164475069E0,2.854908705E-1,-7.829693705E-2,1.656486243E-1
1.166367159E0,2.929477394E-1,-8.522115648E-2,1.715075821E-1
1.168350801E0,2.966761589E-1,-9.161274135E-2,1.752360016E-1
1.170364961E0,3.004045784E-1,-9.427590668E-2,1.778991669E-1
1.172348604E0,3.046656251E-1,-9.960222989E-2,1.741707325E-1
1.174362764E0,3.121224940E-1,-1.065264493E-1,1.720402092E-1
1.176376924E0,3.153182864E-1,-1.107875034E-1,1.752360016E-1
1.178299532E0,3.169161677E-1,-1.155811921E-1,1.789644361E-1
1.180283174E0,3.169161677E-1,-1.177117229E-1,1.794970632E-1
1.182297334E0,3.206445873E-1,-1.171790883E-1,1.794970632E-1
1.184311494E0,3.222424984E-1,-1.225054115E-1,1.810949594E-1
1.186295137E0,3.249056637E-1,-1.251685768E-1,1.837581247E-1
1.188309297E0,3.270362020E-1,-1.294296384E-1,1.832254827E-1
1.190323457E0,3.281014562E-1,-1.347559541E-1,1.816275865E-1
1.192307100E0,3.302319944E-1,-1.374191195E-1,1.837581247E-1
1.194229707E0,3.281014562E-1,-1.390170157E-1,1.853560209E-1
1.196213350E0,3.286340833E-1,-1.411475390E-1,1.848233789E-1
1.198227510E0,3.275688291E-1,-1.395496428E-1,1.848233789E-1
1.200241670E0,3.302319944E-1,-1.422128081E-1,1.816275865E-1
1.202225313E0,3.296993375E-1,-1.438107044E-1,1.800296903E-1
1.204239473E0,3.275688291E-1,-1.470064968E-1,1.778991669E-1
1.206131563E0,3.312972486E-1,-1.507349163E-1,1.757686287E-1
1.208115205E0,3.302319944E-1,-1.512675583E-1,1.763012707E-1
1.210129366E0,3.270362020E-1,-1.544633508E-1,1.741707325E-1
1.212143526E0,3.259709179E-1,-1.576591432E-1,1.651159972E-1
1.214127168E0,3.217098713E-1,-1.603222936E-1,1.587243974E-1
1.216110811E0,3.222424984E-1,-1.576591432E-1,1.592570394E-1
1.218124971E0,3.190467060E-1,-1.581917703E-1,1.539307088E-1
1.220139131E0,3.126551211E-1,-1.619201899E-1,1.443433315E-1
1.222061739E0,3.099919558E-1,-1.667138934E-1,1.331580579E-1
1.224106416E0,3.041329980E-1,-1.747033745E-1,1.304948926E-1
1.226090059E0,2.961435318E-1,-1.826928556E-1,1.230380461E-1
1.228073702E0,2.892192900E-1,-1.928128600E-1,1.203748807E-1
1.230087862E0,2.806971967E-1,-1.960086524E-1,1.193096191E-1
1.232102022E0,2.695119083E-1,-2.029328793E-1,1.177117229E-1
1.234024629E0,2.583266199E-1,-2.061286718E-1,1.123853996E-1
1.236008272E0,2.471413612E-1,-2.071939409E-1,1.097222418E-1
1.238022432E0,2.380866110E-1,-2.119876295E-1,1.049285457E-1
1.240006075E0,2.263686955E-1,-2.119876295E-1,9.587380290E-2
1.242020235E0,2.167813182E-1,-2.082591951E-1,9.054747969E-2
1.244064912E0,2.050634027E-1,-2.071939409E-1,8.362326026E-2
1.246048555E0,1.965412945E-1,-2.034655064E-1,7.456851006E-2
1.248032198E0,1.832254827E-1,-2.013349831E-1,7.243798673E-2
1.249985323E0,1.699096859E-1,-2.013349831E-1,6.764429063E-2
1.251999483E0,1.533980817E-1,-1.970739216E-1,6.338323653E-2
1.253983125E0,1.422128081E-1,-1.949433982E-1,5.858954415E-2
1.255966768E0,1.283643693E-1,-1.938781291E-1,5.486112088E-2
1.257980928E0,1.139832959E-1,-1.880191714E-1,4.740426689E-2
1.259964571E0,1.049285457E-1,-1.810949594E-1,3.994741663E-2
1.261917696E0,9.214537591E-2,-1.715075821E-1,3.302319720E-2
1.263962373E0,8.149272949E-2,-1.619201899E-1,2.609897964E-2
1.265915498E0,6.977482140E-2,-1.555286050E-1,1.810949668E-2
1.267899141E0,5.699164793E-2,-1.427454352E-1,1.225054078E-2
1.269913301E0,4.687163606E-2,-1.358212233E-1,3.195793368E-3
1.271927461E0,3.621899337E-2,-1.257012039E-1,-1.065264456E-3
1.273911104E0,2.716424316E-2,-1.166464612E-1,-8.522115648E-3
1.275894746E0,1.597896591E-2,-1.097222418E-1,-1.917476021E-2
1.277817354E0,8.522115648E-3,-1.033306494E-1,-2.343581803E-2
1.279800996E0,0.000000000E0,-9.693906456E-2,-2.769687586E-2
1.281815157E0,-1.012001187E-2,-9.054747969E-2,-3.249056637E-2
1.283829317E0,-1.651159860E-2,-8.202536404E-2,-3.302319720E-2
1.285812959E0,-2.503371425E-2,-7.190535218E-2,-4.048004746E-2
1.287827119E0,-3.302319720E-2,-6.764429063E-2,-4.580637068E-2
1.289749727E0,-3.675162420E-2,-5.912217870E-2,-4.740426689E-2
1.291733369E0,-4.261057824E-2,-5.432848632E-2,-5.379585549E-2
1.293747530E0,-5.006742850E-2,-4.953479767E-2,-5.805691332E-2
1.295731172E0,-4.900216311E-2,-4.367584363E-2,-6.231797114E-2
1.297745332E0,-5.432848632E-2,-3.781688958E-2,-6.604639441E-2
1.299759493E0,-5.699164793E-2,-3.302319720E-2,-7.137271762E-2
1.301773653E0,-6.018744037E-2,-2.609897964E-2,-7.510114461E-2
1.303787813E0,-6.125270575E-2,-2.077265643E-2,-7.989483327E-2
1.305710420E0,-6.391586363E-2,-1.118527725E-2,-8.522115648E-2
1.307724580E0,-6.444849819E-2,-1.597896684E-3,-8.788431436E-2
1.309708223E0,-6.498113275E-2,8.522115648E-3,-9.374327213E-2
1.311691866E0,-6.498113275E-2,1.491370238E-2,-9.587380290E-2
1.313706026E0,-6.604639441E-2,2.609897964E-2,-9.587380290E-2
1.315689668E0,-6.604639441E-2,3.302319720E-2,-9.906959534E-2
1.317642793E0,-6.817692518E-2,3.888215125E-2,-1.001348570E-1
1.319656953E0,-7.137271762E-2,4.846953228E-2,-1.033306494E-1
1.321640596E0,-7.030745596E-2,5.326322466E-2,-1.022653878E-1
1.323654756E0,-7.030745596E-2,6.018744037E-2,-1.043959185E-1
1.325638399E0,-7.137271762E-2,6.338323653E-2,-1.033306494E-1
1.327622041E0,-7.403588295E-2,6.231797114E-2,-1.027980223E-1
1.329636202E0,-7.616640627E-2,6.498113275E-2,-9.960222989E-2
1.331650362E0,-7.882957160E-2,6.444849819E-2,-9.534116834E-2
1.333572969E0,-7.989483327E-2,6.711166352E-2,-9.214537591E-2
1.335556612E0,-8.149272949E-2,6.817692518E-2,-8.948221803E-2
1.337570772E0,-8.202536404E-2,6.444849819E-2,-8.628641814E-2
1.339554414E0,-8.202536404E-2,5.858954415E-2,-7.989483327E-2
1.341568575E0,-8.468852192E-2,5.219795927E-2,-7.510114461E-2
1.343613252E0,-8.628641814E-2,4.474110901E-2,-6.924218684E-2
1.345505342E0,-9.001484513E-2,3.568635881E-2,-6.391586363E-2
1.347519502E0,-9.161274135E-2,2.503371425E-2,-5.645901710E-2
1.349533662E0,-8.894958347E-2,1.970739290E-2,-5.219795927E-2
1.351517305E0,-9.267801046E-2,1.331580617E-2,-4.740426689E-2
1.353531465E0,-9.161274135E-2,5.326322280E-3,-3.994741663E-2
1.355545625E0,-8.948221803E-2,-3.195793368E-3,-3.941478580E-2
1.357529268E0,-8.841694891E-2,-1.225054078E-2,-3.568635881E-2
1.359543428E0,-8.788431436E-2,-2.077265643E-2,-3.142530099E-2
1.361496553E0,-8.362326026E-2,-3.036003746E-2,-2.503371425E-2
1.363510713E0,-8.735168725E-2,-3.675162420E-2,-1.917476021E-2
1.365494356E0,-8.309062570E-2,-3.994741663E-2,-1.704423130E-2
1.367508516E0,-8.042746782E-2,-4.527373984E-2,-1.278317347E-2
1.369522676E0,-7.456851006E-2,-5.273059011E-2,-8.522115648E-3
1.371536836E0,-7.243798673E-2,-6.018744037E-2,-8.522115648E-3
1.373489961E0,-7.350324839E-2,-6.870955974E-2,-8.522115648E-3
1.375504121E0,-7.030745596E-2,-7.723167539E-2,-2.663161140E-3
1.377487764E0,-6.604639441E-2,-8.522115648E-2,-6.924218964E-3
1.379471407E0,-6.018744037E-2,-8.841694891E-2,-2.130528912E-3
1.381485567E0,-5.539375171E-2,-9.267801046E-2,-1.597896684E-3
1.383499727E0,-4.900216311E-2,-9.427590668E-2,5.326322280E-4
1.385483369E0,-4.527373984E-2,-1.012001261E-1,2.130528912E-3
1.387497530E0,-3.834952042E-2,-9.853696078E-2,3.195793368E-3
1.389420137E0,-3.515372798E-2,-9.960222989E-2,3.195793368E-3
1.391403780E0,-3.249056637E-2,-9.906959534E-2,3.728425596E-3
1.393417940E0,-3.195793182E-2,-9.747169912E-2,5.858954508E-3
1.395401582E0,-2.396845073E-2,-9.800432622E-2,8.522115648E-3
1.397415743E0,-2.130528912E-2,-9.747169912E-2,9.587380104E-3
1.399429903E0,-1.864212751E-2,-9.693906456E-2,9.587380104E-3
1.401352510E0,-1.544633508E-2,-9.640643001E-2,1.384843793E-2
1.403366670E0,-1.012001187E-2,-9.267801046E-2,1.651159860E-2
1.405350313E0,-6.924218964E-3,-9.161274135E-2,1.597896591E-2
1.407333955E0,-1.065264456E-3,-8.894958347E-2,1.597896591E-2
1.409348116E0,2.130528912E-3,-8.415589482E-2,1.544633508E-2
1.411362276E0,6.391586736E-3,-7.776430249E-2,1.491370238E-2
1.413345918E0,1.065264456E-2,-7.563377917E-2,1.491370238E-2
1.415360078E0,1.597896591E-2,-7.297061384E-2,1.757686399E-2
1.417313203E0,1.917476021E-2,-6.870955974E-2,1.384843793E-2
1.419327364E0,2.343581803E-2,-6.498113275E-2,1.278317347E-2
1.421311006E0,2.556634694E-2,-5.858954415E-2,1.012001187E-2
1.423325166E0,3.249056637E-2,-5.166532472E-2,1.012001187E-2
1.425308809E0,3.834952042E-2,-4.420847446E-2,9.587380104E-3
1.427292452E0,4.154531285E-2,-3.515372798E-2,9.587380104E-3
1.429245577E0,4.580637068E-2,-2.822950855E-2,6.924218964E-3
1.431259737E0,4.474110901E-2,-1.757686399E-2,5.326322280E-3
1.433243379E0,5.326322466E-2,-1.278317347E-2,3.728425596E-3
1.435227022E0,5.379585549E-2,-7.989482954E-3,3.195793368E-3
1.437241182E0,5.539375171E-2,-1.065264456E-3,3.195793368E-3
1.439224825E0,5.699164793E-2,3.195793368E-3,2.663161140E-3
1.441238985E0,5.752427876E-2,1.225054078E-2,5.326322280E-4
1.443283662E0,6.338323653E-2,2.024002373E-2,-4.261057824E-3
1.445206270E0,6.444849819E-2,2.929477207E-2,-6.391586736E-3
1.447220430E0,6.977482140E-2,3.728425503E-2,-6.391586736E-3
1.449234590E0,6.657902896E-2,4.367584363E-2,-6.924218964E-3
1.451218233E0,7.030745596E-2,4.846953228E-2,-4.261057824E-3
1.453232393E0,6.977482140E-2,5.379585549E-2,-2.130528912E-3
1.455246553E0,6.924218684E-2,5.699164793E-2,5.326322280E-4
1.457169161E0,7.190535218E-2,6.391586363E-2,3.195793368E-3
1.459152803E0,6.977482140E-2,6.764429063E-2,7.989482954E-3
1.461166963E0,6.764429063E-2,7.030745596E-2,8.522115648E-3
1.463211641E0,6.764429063E-2,7.137271762E-2,1.491370238E-2
1.465164766E0,6.764429063E-2,7.350324839E-2,1.810949668E-2
1.467178926E0,6.604639441E-2,7.936219871E-2,2.343581803E-2
1.469193086E0,6.711166352E-2,8.468852192E-2,2.609897964E-2
1.471176729E0,6.178534031E-2,8.415589482E-2,2.876213938E-2
1.473129854E0,6.231797114E-2,8.681905270E-2,3.621899337E-2
1.475144014E0,5.912217870E-2,9.054747969E-2,4.420847446E-2
1.477127657E0,5.805691332E-2,9.108011425E-2,4.367584363E-2
1.479141817E0,5.752427876E-2,9.267801046E-2,4.420847446E-2
1.481155977E0,5.645901710E-2,9.374327213E-2,5.113269389E-2
1.483170137E0,5.486112088E-2,9.534116834E-2,5.699164793E-2
1.485092744E0,5.219795927E-2,9.747169912E-2,5.486112088E-2
1.487076387E0,5.219795927E-2,9.747169912E-2,5.699164793E-2
1.489090547E0,5.219795927E-2,9.800432622E-2,6.231797114E-2
1.491104707E0,4.953479767E-2,9.853696078E-2,6.285060197E-2
1.493118868E0,4.527373984E-2,9.693906456E-2,6.444849819E-2
1.495102510E0,4.527373984E-2,9.960222989E-2,6.657902896E-2
1.497116670E0,4.527373984E-2,9.747169912E-2,6.817692518E-2
1.499130830E0,4.154531285E-2,9.480853379E-2,6.711166352E-2
1.501053438E0,3.941478580E-2,9.480853379E-2,7.084008306E-2
1.503098116E0,3.462109342E-2,9.108011425E-2,7.243798673E-2
1.505081758E0,3.195793182E-2,8.788431436E-2,7.563377917E-2
1.507065401E0,2.716424316E-2,8.468852192E-2,7.030745596E-2
1.509079561E0,2.663161233E-2,8.522115648E-2,7.243798673E-2
1.511093721E0,2.769687586E-2,8.788431436E-2,6.924218684E-2
1.513016328E0,2.609897964E-2,8.309062570E-2,6.764429063E-2
1.514999971E0,2.503371425E-2,8.042746782E-2,6.551376730E-2
1.517014131E0,2.450108156E-2,7.882957160E-2,6.338323653E-2
1.518997774E0,2.609897964E-2,7.297061384E-2,6.072007492E-2
1.521011934E0,2.503371425E-2,7.084008306E-2,5.699164793E-2
1.523056612E0,2.769687586E-2,6.551376730E-2,5.592638254E-2
1.525009737E0,2.769687586E-2,6.072007492E-2,5.379585549E-2
1.526993379E0,2.396845073E-2,5.166532472E-2,5.592638254E-2
1.528946504E0,2.077265643E-2,4.633900523E-2,5.432848632E-2
1.530960664E0,1.810949668E-2,3.621899337E-2,5.539375171E-2
1.532944307E0,1.704423130E-2,2.982740477E-2,5.379585549E-2
1.534927950E0,1.438106969E-2,2.929477207E-2,5.006742850E-2
1.536942110E0,1.384843793E-2,2.183792181E-2,4.687163606E-2
1.538925752E0,1.384843793E-2,1.757686399E-2,4.633900523E-2
1.540878877E0,1.704423130E-2,1.651159860E-2,4.580637068E-2
1.542923555E0,1.810949668E-2,1.757686399E-2,4.314320907E-2
1.544876680E0,2.343581803E-2,1.704423130E-2,3.834952042E-2
1.546860323E0,2.503371425E-2,1.810949668E-2,3.302319720E-2
1.548874483E0,2.609897964E-2,9.587380104E-3,3.302319720E-2
1.550888643E0,2.290318534E-2,5.326322280E-4,3.036003746E-2
1.552872286E0,2.343581803E-2,-3.728425596E-3,3.249056637E-2
1.554886446E0,2.343581803E-2,-1.597896684E-3,2.876213938E-2
1.556809053E0,2.716424316E-2,0.000000000E0,2.450108156E-2
1.558792696E0,2.769687586E-2,1.597896684E-3,2.290318534E-2
1.560806856E0,3.249056637E-2,3.195793368E-3,1.864212751E-2
1.562821016E0,3.355583176E-2,6.924218964E-3,1.278317347E-2
1.564804659E0,3.462109342E-2,1.278317347E-2,8.522115648E-3
1.566818819E0,3.834952042E-2,1.331580617E-2,3.728425596E-3
1.568741426E0,4.048004746E-2,1.810949668E-2,-1.597896684E-3
1.570725069E0,3.994741663E-2,2.077265643E-2,-1.012001187E-2
1.572739229E0,4.154531285E-2,2.450108156E-2,-1.171790902E-2
1.574753389E0,4.527373984E-2,3.036003746E-2,-1.810949668E-2
1.576737032E0,4.580637068E-2,3.036003746E-2,-2.290318534E-2
1.578751192E0,4.314320907E-2,3.675162420E-2,-2.876213938E-2
1.580765352E0,4.207794741E-2,4.474110901E-2,-3.568635881E-2
1.582779512E0,4.314320907E-2,5.539375171E-2,-4.101268202E-2
1.584702119E0,4.580637068E-2,6.391586363E-2,-4.367584363E-2
1.586716280E0,4.953479767E-2,7.190535218E-2,-4.846953228E-2
1.588699922E0,4.633900523E-2,8.149272949E-2,-5.113269389E-2
1.590683565E0,3.994741663E-2,8.255799860E-2,-5.326322466E-2
1.592697725E0,3.834952042E-2,8.415589482E-2,-5.486112088E-2
1.594681368E0,3.195793182E-2,8.309062570E-2,-5.326322466E-2
1.596634493E0,2.503371425E-2,8.415589482E-2,-5.486112088E-2
1.598648653E0,2.130528912E-2,8.309062570E-2,-5.273059011E-2
1.600632295E0,1.651159860E-2,8.628641814E-2,-5.060006306E-2
1.602646455E0,9.587380104E-3,9.054747969E-2,-5.326322466E-2
1.604630098E0,1.597896684E-3,9.374327213E-2,-5.539375171E-2
1.606644258E0,-4.793690052E-3,9.640643001E-2,-5.805691332E-2
1.608627901E0,-9.587380104E-3,9.906959534E-2,-5.805691332E-2
1.610611543E0,-1.544633508E-2,9.906959534E-2,-6.125270575E-2
1.612534151E0,-2.130528912E-2,1.001348570E-1,-6.285060197E-2
1.614517793E0,-2.663161233E-2,1.022653878E-1,-6.444849819E-2
1.616531953E0,-3.355583176E-2,1.006674916E-1,-6.498113275E-2
1.618546114E0,-3.834952042E-2,9.480853379E-2,-6.604639441E-2
1.620529756E0,-4.633900523E-2,8.948221803E-2,-6.551376730E-2
1.622543916E0,-5.113269389E-2,8.788431436E-2,-6.604639441E-2
1.624466524E0,-5.645901710E-2,8.362326026E-2,-6.711166352E-2
1.626480684E0,-6.391586363E-2,8.468852192E-2,-7.137271762E-2
1.628464327E0,-6.870955974E-2,9.108011425E-2,-8.042746782E-2
1.630478487E0,-7.350324839E-2,9.161274135E-2,-8.681905270E-2
1.632492647E0,-7.882957160E-2,9.161274135E-2,-8.362326026E-2
1.634506807E0,-8.255799860E-2,8.841694891E-2,-7.936219871E-2
1.636490450E0,-9.054747969E-2,9.161274135E-2,-7.669904083E-2
1.638474092E0,-9.374327213E-2,9.800432622E-2,-7.403588295E-2
1.640427217E0,-1.001348570E-1,9.960222989E-2,-7.137271762E-2
1.642410860E0,-1.070590764E-1,9.960222989E-2,-6.657902896E-2
1.644394502E0,-1.145159304E-1,1.033306494E-1,-6.178534031E-2
1.646408662E0,-1.225054115E-1,1.038632840E-1,-5.752427876E-2
1.648392305E0,-1.283643693E-1,1.065264493E-1,-5.432848632E-2
1.650375948E0,-1.384843737E-1,1.086569726E-1,-5.273059011E-2
1.652329073E0,-1.416801661E-1,1.102548689E-1,-5.486112088E-2
1.654282198E0,-1.443433315E-1,1.214401498E-1,-5.645901710E-2
1.656296358E0,-1.422128081E-1,1.326254308E-1,-6.125270575E-2
1.658310518E0,-1.406149119E-1,1.432780623E-1,-6.657902896E-2
1.660294161E0,-1.406149119E-1,1.528654546E-1,-6.924218684E-2
1.662308321E0,-1.448759735E-1,1.629854590E-1,-7.030745596E-2
1.664200411E0,-1.438107044E-1,1.720402092E-1,-6.870955974E-2
1.666184053E0,-1.438107044E-1,1.789644361E-1,-7.616640627E-2
1.668198213E0,-1.427454352E-1,1.869539171E-1,-8.096009493E-2
1.670181856E0,-1.411475390E-1,1.890844405E-1,-8.415589482E-2
1.672196016E0,-1.411475390E-1,1.896170676E-1,-9.214537591E-2
1.674210176E0,-1.422128081E-1,1.938781291E-1,-9.427590668E-2
1.676193819E0,-1.400822699E-1,2.002697140E-1,-9.267801046E-2
1.678207979E0,-1.384843737E-1,2.039981484E-1,-9.214537591E-2
1.680161104E0,-1.352885813E-1,2.066612989E-1,-8.948221803E-2
1.682175264E0,-1.363538504E-1,2.087918371E-1,-8.735168725E-2
1.684158907E0,-1.331580579E-1,2.109223604E-1,-8.309062570E-2
1.686173067E0,-1.315601617E-1,2.077265680E-1,-7.510114461E-2
1.688187227E0,-1.310275346E-1,2.098570913E-1,-7.243798673E-2
1.690201387E0,-1.310275346E-1,2.077265680E-1,-7.137271762E-2
1.692154512E0,-1.336906850E-1,2.008023560E-1,-6.657902896E-2
1.694168672E0,-1.336906850E-1,1.960086524E-1,-6.551376730E-2
1.696182832E0,-1.390170157E-1,1.890844405E-1,-6.338323653E-2
1.698166475E0,-1.406149119E-1,1.832254827E-1,-6.444849819E-2
1.700180635E0,-1.384843737E-1,1.752360016E-1,-6.817692518E-2
1.702225313E0,-1.368864775E-1,1.715075821E-1,-7.616640627E-2
1.704178438E0,-1.352885813E-1,1.704423130E-1,-8.149272949E-2
1.706162080E0,-1.304948926E-1,1.683117896E-1,-8.255799860E-2
1.708115205E0,-1.299622655E-1,1.677791476E-1,-8.522115648E-2
1.710098848E0,-1.209075153E-1,1.651159972E-1,-8.575379103E-2
1.712113008E0,-1.193096191E-1,1.587243974E-1,-8.735168725E-2
1.714127168E0,-1.145159304E-1,1.581917703E-1,-8.681905270E-2
1.716110811E0,-1.102548689E-1,1.533980817E-1,-8.841694891E-2
1.718124971E0,-1.070590764E-1,1.565938741E-1,-8.575379103E-2
1.720078096E0,-1.065264493E-1,1.555286050E-1,-9.054747969E-2
1.722092256E0,-1.012001261E-1,1.592570394E-1,-8.362326026E-2
1.724075899E0,-9.853696078E-2,1.597896665E-1,-8.149272949E-2
1.726090059E0,-9.587380290E-2,1.667138934E-1,-8.415589482E-2
1.728104219E0,-9.054747969E-2,1.688444167E-1,-8.149272949E-2
1.730087862E0,-8.468852192E-2,1.741707325E-1,-8.096009493E-2
1.732102022E0,-8.042746782E-2,1.757686287E-1,-8.149272949E-2
1.734116182E0,-7.829693705E-2,1.741707325E-1,-7.723167539E-2
1.736038789E0,-7.616640627E-2,1.709749401E-1,-7.403588295E-2
1.738022432E0,-7.350324839E-2,1.720402092E-1,-6.764429063E-2
1.740036592E0,-7.350324839E-2,1.725728363E-1,-6.444849819E-2
1.742050752E0,-7.563377917E-2,1.720402092E-1,-6.072007492E-2
1.744034395E0,-7.563377917E-2,1.763012707E-1,-5.965480953E-2
1.746048555E0,-7.297061384E-2,1.757686287E-1,-5.645901710E-2
1.747971162E0,-7.190535218E-2,1.784317940E-1,-5.486112088E-2
1.749954805E0,-7.030745596E-2,1.821602285E-1,-5.219795927E-2
1.751968965E0,-7.030745596E-2,1.848233789E-1,-5.645901710E-2
1.753983125E0,-6.977482140E-2,1.842907518E-1,-5.219795927E-2
1.755966768E0,-6.551376730E-2,1.832254827E-1,-5.326322466E-2
1.757950411E0,-6.551376730E-2,1.805623323E-1,-5.326322466E-2
1.759964571E0,-6.285060197E-2,1.805623323E-1,-5.006742850E-2
1.761978731E0,-6.018744037E-2,1.853560209E-1,-5.592638254E-2
1.763901338E0,-5.592638254E-2,1.874865443E-1,-5.965480953E-2
1.765915498E0,-5.006742850E-2,1.890844405E-1,-5.858954415E-2
1.767899141E0,-4.953479767E-2,1.853560209E-1,-6.178534031E-2
1.769882784E0,-4.474110901E-2,1.832254827E-1,-5.858954415E-2
1.771896944E0,-3.994741663E-2,1.816275865E-1,-5.752427876E-2
1.773911104E0,-4.101268202E-2,1.763012707E-1,-5.326322466E-2
1.775864229E0,-4.101268202E-2,1.661812514E-1,-5.006742850E-2
1.777878389E0,-3.941478580E-2,1.656486243E-1,-4.580637068E-2
1.779892549E0,-4.154531285E-2,1.608549356E-1,-4.154531285E-2
1.781906709E0,-4.367584363E-2,1.470064968E-1,-3.675162420E-2
1.783890352E0,-4.580637068E-2,1.315601617E-1,-3.036003746E-2
1.785904512E0,-4.953479767E-2,1.150485575E-1,-2.769687586E-2
1.787888155E0,-4.900216311E-2,1.081243455E-1,-2.503371425E-2
1.789902315E0,-4.527373984E-2,1.027980223E-1,-2.609897964E-2
1.791855440E0,-3.462109342E-2,1.006674916E-1,-2.450108156E-2
1.793869600E0,-3.036003746E-2,1.097222418E-1,-3.249056637E-2
1.795853243E0,-2.450108156E-2,1.235706806E-1,-4.101268202E-2
1.797836885E0,-1.917476021E-2,1.379517466E-1,-4.740426689E-2
1.799851045E0,-1.544633508E-2,1.507349163E-1,-5.006742850E-2
1.801865205E0,-1.278317347E-2,1.581917703E-1,-4.580637068E-2
1.803848848E0,-1.118527725E-2,1.597896665E-1,-4.207794741E-2
1.805863008E0,-7.989482954E-3,1.581917703E-1,-3.834952042E-2
1.807785616E0,-1.065264456E-3,1.581917703E-1,-3.515372798E-2
1.809769258E0,1.065264456E-3,1.528654546E-1,-3.249056637E-2
1.811783418E0,2.663161140E-3,1.427454352E-1,-2.237055451E-2
1.813767061E0,2.130528912E-3,1.304948926E-1,-1.757686399E-2
1.815781221E0,3.195793368E-3,1.246359423E-1,-1.704423130E-2
1.817795381E0,6.391586736E-3,1.283643693E-1,-1.438106969E-2
1.819717989E0,9.587380104E-3,1.315601617E-1,-1.438106969E-2
1.821732149E0,1.597896591E-2,1.406149119E-1,-8.522115648E-3
1.823715791E0,1.917476021E-2,1.475391239E-1,-9.054748341E-3
1.825729952E0,2.183792181E-2,1.480717659E-1,-1.118527725E-2
1.827713594E0,2.130528912E-2,1.438107044E-1,-1.704423130E-2
1.829697237E0,2.822950855E-2,1.438107044E-1,-1.651159860E-2
1.831650362E0,3.142530099E-2,1.347559541E-1,-1.704423130E-2
1.833603487E0,2.929477207E-2,1.257012039E-1,-1.810949668E-2
1.835617647E0,3.089267015E-2,1.166464612E-1,-1.651159860E-2
1.837631807E0,3.036003746E-2,1.054611802E-1,-1.757686399E-2
1.839615450E0,3.249056637E-2,1.001348570E-1,-1.544633508E-2
1.841629610E0,3.462109342E-2,8.948221803E-2,-1.225054078E-2
1.843613252E0,3.408846259E-2,8.202536404E-2,-1.704423130E-2
1.845596895E0,3.142530099E-2,8.415589482E-2,-1.810949668E-2
1.847550020E0,3.302319720E-2,8.149272949E-2,-2.237055451E-2
1.849533662E0,2.822950855E-2,7.776430249E-2,-2.290318534E-2
1.851547823E0,2.769687586E-2,7.456851006E-2,-2.130528912E-2
1.853531465E0,2.769687586E-2,6.711166352E-2,-1.917476021E-2
1.855545625E0,2.396845073E-2,5.912217870E-2,-2.343581803E-2
1.857559786E0,2.130528912E-2,5.326322466E-2,-1.970739290E-2
1.859482393E0,1.757686399E-2,4.687163606E-2,-2.556634694E-2
1.861527071E0,1.544633508E-2,3.728425503E-2,-3.036003746E-2
1.863480196E0,1.810949668E-2,3.568635881E-2,-3.675162420E-2
1.865463838E0,1.384843793E-2,2.929477207E-2,-3.621899337E-2
1.867477998E0,1.331580617E-2,2.450108156E-2,-3.834952042E-2
1.869492159E0,1.065264456E-2,2.130528912E-2,-4.633900523E-2
1.871506319E0,7.989482954E-3,2.024002373E-2,-4.793690145E-2
1.873489961E0,8.522115648E-3,1.810949668E-2,-5.273059011E-2
1.875412569E0,6.391586736E-3,1.438106969E-2,-5.539375171E-2
1.877396211E0,4.261057824E-3,1.331580617E-2,-6.178534031E-2
1.879410371E0,4.793690052E-3,1.012001187E-2,-6.604639441E-2
1.881424532E0,4.261057824E-3,1.278317347E-2,-7.030745596E-2
1.883408174E0,7.456851192E-3,1.438106969E-2,-7.723167539E-2
1.885422334E0,8.522115648E-3,2.130528912E-2,-7.829693705E-2
1.887344942E0,8.522115648E-3,2.237055451E-2,-8.096009493E-2
1.889328584E0,7.989482954E-3,2.716424316E-2,-8.628641814E-2
1.891342744E0,7.989482954E-3,2.822950855E-2,-8.681905270E-2
1.893356905E0,7.456851192E-3,2.769687586E-2,-8.841694891E-2
1.895340547E0,3.195793368E-3,2.716424316E-2,-8.894958347E-2
1.897354707E0,-1.065264456E-3,2.609897964E-2,-8.894958347E-2
1.899368868E0,5.326322280E-4,2.130528912E-2,-9.054747969E-2
1.901383028E0,-2.130528912E-3,1.704423130E-2,-9.321063757E-2
1.903305635E0,-3.195793368E-3,1.438106969E-2,-9.321063757E-2
1.905319795E0,-1.065264456E-3,1.118527725E-2,-9.534116834E-2
1.907303438E0,2.130528912E-3,6.924218964E-3,-9.587380290E-2
1.909287080E0,2.130528912E-3,7.456851192E-3,-1.006674916E-1
1.911301241E0,6.391586736E-3,4.261057824E-3,-9.960222989E-2
1.913315401E0,8.522115648E-3,4.793690052E-3,-1.054611802E-1
1.915268526E0,9.054748341E-3,4.261057824E-3,-1.043959185E-1
1.917282686E0,6.391586736E-3,3.728425596E-3,-1.070590764E-1
1.919296846E0,4.261057824E-3,3.728425596E-3,-1.075917110E-1
1.921311006E0,5.326322280E-3,2.663161140E-3,-1.065264493E-1
1.923294649E0,2.663161140E-3,2.130528912E-3,-1.049285457E-1
1.925308809E0,-1.065264456E-3,-1.597896684E-3,-1.070590764E-1
1.927322969E0,3.195793368E-3,-5.326322280E-3,-1.027980223E-1
1.929306612E0,-6.391586736E-3,-9.587380104E-3,-1.070590764E-1
1.931259737E0,-4.261057824E-3,-1.118527725E-2,-1.054611802E-1
1.933273897E0,-9.587380104E-3,-1.651159860E-2,-1.065264493E-1
1.935257539E0,-1.065264456E-2,-1.917476021E-2,-1.043959185E-1
1.937241182E0,-1.544633508E-2,-2.130528912E-2,-1.065264493E-1
1.939255342E0,-1.597896591E-2,-2.077265643E-2,-1.097222418E-1
1.941300020E0,-2.290318534E-2,-2.077265643E-2,-1.107875034E-1
1.943222627E0,-2.503371425E-2,-2.183792181E-2,-1.145159304E-1
1.945236787E0,-2.822950855E-2,-2.609897964E-2,-1.198422536E-1
1.947250948E0,-3.195793182E-2,-2.609897964E-2,-1.155811921E-1
1.949234590E0,-3.142530099E-2,-2.982740477E-2,-1.177117229E-1
1.951248750E0,-3.675162420E-2,-3.408846259E-2,-1.198422536E-1
1.953262911E0,-3.728425503E-2,-4.367584363E-2,-1.145159304E-1
1.955277071E0,-3.888215125E-2,-5.219795927E-2,-1.129180342E-1
1.957260713E0,-3.994741663E-2,-6.072007492E-2,-1.075917110E-1
1.959213838E0,-4.474110901E-2,-6.764429063E-2,-1.022653878E-1
1.961227998E0,-4.687163606E-2,-7.563377917E-2,-1.006674916E-1
1.963211641E0,-5.486112088E-2,-8.309062570E-2,-9.800432622E-2
1.965195284E0,-5.805691332E-2,-8.468852192E-2,-9.374327213E-2
1.967209444E0,-6.444849819E-2,-8.628641814E-2,-9.214537591E-2
1.969193086E0,-6.870955974E-2,-9.161274135E-2,-9.214537591E-2
1.971146211E0,-7.297061384E-2,-9.214537591E-2,-8.894958347E-2
1.973160371E0,-7.882957160E-2,-9.267801046E-2,-8.788431436E-2
1.975144014E0,-7.776430249E-2,-9.267801046E-2,-8.841694891E-2
1.977127657E0,-7.829693705E-2,-9.214537591E-2,-8.894958347E-2
1.979141817E0,-7.936219871E-2,-9.267801046E-2,-9.108011425E-2
1.981155977E0,-7.616640627E-2,-9.214537591E-2,-8.841694891E-2
1.983139619E0,-7.510114461E-2,-8.788431436E-2,-9.001484513E-2
1.985153780E0,-7.616640627E-2,-8.415589482E-2,-9.054747969E-2
1.987076387E0,-7.723167539E-2,-8.468852192E-2,-9.427590668E-2
1.989060030E0,-7.456851006E-2,-8.309062570E-2,-9.640643001E-2
1.991074190E0,-7.190535218E-2,-8.735168725E-2,-1.006674916E-1
1.993057832E0,-6.977482140E-2,-9.001484513E-2,-1.043959185E-1
1.995071993E0,-6.711166352E-2,-9.321063757E-2,-1.102548689E-1
1.997086153E0,-6.125270575E-2,-1.017327532E-1,-1.166464612E-1
1.999008760E0,-5.752427876E-2,-1.065264493E-1,-1.193096191E-1
2.001022920E0,-5.486112088E-2,-1.123853996E-1,-1.251685768E-1
2.003006563E0,-5.273059011E-2,-1.251685768E-1,-1.283643693E-1
2.005020723E0,-4.953479767E-2,-1.347559541E-1,-1.283643693E-1
2.007004366E0,-5.219795927E-2,-1.448759735E-1,-1.352885813E-1
2.008988008E0,-5.273059011E-2,-1.528654546E-1,-1.352885813E-1
2.011002168E0,-5.432848632E-2,-1.645833552E-1,-1.406149119E-1
2.013016328E0,-6.072007492E-2,-1.699096859E-1,-1.448759735E-1
2.014969453E0,-6.072007492E-2,-1.763012707E-1,-1.502022892E-1
2.016953096E0,-6.604639441E-2,-1.805623323E-1,-1.565938741E-1
2.018967256E0,-7.243798673E-2,-1.826928556E-1,-1.677791476E-1
2.020981416E0,-7.456851006E-2,-1.837581247E-1,-1.747033745E-1
2.022965059E0,-7.936219871E-2,-1.832254827E-1,-1.789644361E-1
2.024979219E0,-8.255799860E-2,-1.848233789E-1,-1.864212751E-1
2.026932344E0,-8.468852192E-2,-1.880191714E-1,-1.896170676E-1
2.028885469E0,-8.522115648E-2,-1.954760253E-1,-1.944107562E-1
2.030899629E0,-8.149272949E-2,-2.008023560E-1,-1.960086524E-1
2.032913789E0,-8.255799860E-2,-2.055960447E-1,-2.002697140E-1
2.034897432E0,-8.096009493E-2,-2.146507949E-1,-2.061286718E-1
2.036881075E0,-7.563377917E-2,-2.141181529E-1,-2.066612989E-1
2.038895235E0,-7.190535218E-2,-2.178465873E-1,-2.087918371E-1
2.040909395E0,-6.711166352E-2,-2.205097377E-1,-2.066612989E-1
2.042832002E0,-6.551376730E-2,-2.189118415E-1,-2.066612989E-1
2.044846162E0,-6.711166352E-2,-2.242381722E-1,-2.039981484E-1
2.046829805E0,-7.030745596E-2,-2.263686955E-1,-1.970739216E-1
2.048813448E0,-7.030745596E-2,-2.327602804E-1,-1.896170676E-1
2.050827608E0,-7.616640627E-2,-2.354234457E-1,-1.832254827E-1
2.052811250E0,-8.042746782E-2,-2.466087192E-1,-1.725728363E-1
2.054733858E0,-8.575379103E-2,-2.545982003E-1,-1.603222936E-1
2.056717500E0,-8.841694891E-2,-2.625876963E-1,-1.502022892E-1
2.058731661E0,-8.841694891E-2,-2.743056118E-1,-1.416801661E-1
2.060745821E0,-9.108011425E-2,-2.817624509E-1,-1.331580579E-1
2.062729463E0,-9.321063757E-2,-2.870887816E-1,-1.225054115E-1
2.064713106E0,-9.587380290E-2,-2.924150825E-1,-1.123853996E-1
2.066727266E0,-1.012001261E-1,-2.934803665E-1,-9.693906456E-2
2.068710909E0,-1.059938148E-1,-2.950782478E-1,-8.735168725E-2
2.070664034E0,-1.139832959E-1,-2.918824553E-1,-8.096009493E-2
2.072678194E0,-1.182443574E-1,-2.833603323E-1,-7.243798673E-2
2.074661836E0,-1.272991002E-1,-2.753708661E-1,-6.817692518E-2
2.076645479E0,-1.342233270E-1,-2.625876963E-1,-6.338323653E-2
2.078659639E0,-1.368864775E-1,-2.519350350E-1,-6.231797114E-2
2.080673799E0,-1.416801661E-1,-2.402171344E-1,-6.338323653E-2
2.082596407E0,-1.422128081E-1,-2.284992188E-1,-6.338323653E-2
2.084610567E0,-1.438107044E-1,-2.173139453E-1,-6.498113275E-2
2.086594209E0,-1.384843737E-1,-2.087918371E-1,-6.711166352E-2
2.088608369E0,-1.342233270E-1,-2.050634027E-1,-7.243798673E-2
2.090622530E0,-1.283643693E-1,-1.997370869E-1,-7.669904083E-2
2.092636690E0,-1.155811921E-1,-1.976065636E-1,-7.669904083E-2
2.094620332E0,-1.038632840E-1,-1.949433982E-1,-8.096009493E-2
2.096603975E0,-9.747169912E-2,-2.002697140E-1,-8.628641814E-2
2.098557100E0,-8.362326026E-2,-2.024002522E-1,-8.681905270E-2
2.100540743E0,-7.243798673E-2,-2.055960447E-1,-8.841694891E-2
2.102524385E0,-5.858954415E-2,-2.103897333E-1,-9.001484513E-2
2.104538545E0,-4.633900523E-2,-2.189118415E-1,-8.522115648E-2
2.106522188E0,-3.249056637E-2,-2.231729031E-1,-7.989483327E-2
2.108505830E0,-2.450108156E-2,-2.327602804E-1,-7.137271762E-2
2.110458955E0,-1.544633508E-2,-2.450108230E-1,-6.444849819E-2
2.112412080E0,-9.587380104E-3,-2.492718846E-1,-5.645901710E-2
2.114426241E0,-6.924218964E-3,-2.593919039E-1,-4.687163606E-2
2.116440401E0,-4.793690052E-3,-2.657834888E-1,-3.781688958E-2
2.118424043E0,-5.858954508E-3,-2.721750736E-1,-2.556634694E-2
2.120438203E0,-8.522115648E-3,-2.775014043E-1,-1.491370238E-2
2.122330293E0,-1.171790902E-2,-2.812298238E-1,-7.456851192E-3
2.124313936E0,-1.384843793E-2,-2.833603323E-1,1.012001187E-2
2.126328096E0,-1.597896591E-2,-2.833603323E-1,2.343581803E-2
2.128311739E0,-1.917476021E-2,-2.854908705E-1,3.036003746E-2
2.130325899E0,-2.609897964E-2,-2.860234976E-1,4.261057824E-2
2.132340059E0,-3.036003746E-2,-2.833603323E-1,5.113269389E-2
2.134354219E0,-3.408846259E-2,-2.806971967E-1,5.752427876E-2
2.136337862E0,-3.888215125E-2,-2.753708661E-1,6.444849819E-2
2.138290987E0,-4.261057824E-2,-2.679139972E-1,6.977482140E-2
2.140305147E0,-4.367584363E-2,-2.530003190E-1,7.297061384E-2
2.142288789E0,-4.793690145E-2,-2.412824035E-1,7.510114461E-2
2.144272432E0,-4.953479767E-2,-2.221076339E-1,6.604639441E-2
2.146286592E0,-5.006742850E-2,-2.061286718E-1,5.965480953E-2
2.148270235E0,-5.219795927E-2,-1.874865443E-1,5.379585549E-2
2.150223360E0,-5.113269389E-2,-1.677791476E-1,4.900216311E-2
2.152237520E0,-5.219795927E-2,-1.454086006E-1,4.314320907E-2
2.154221162E0,-5.166532472E-2,-1.272991002E-1,3.621899337E-2
2.156204805E0,-4.793690145E-2,-1.097222418E-1,3.195793182E-2
2.158218965E0,-4.740426689E-2,-9.161274135E-2,2.609897964E-2
2.160233125E0,-4.261057824E-2,-7.190535218E-2,2.130528912E-2
2.162216768E0,-4.154531285E-2,-5.912217870E-2,1.864212751E-2
2.164230928E0,-3.888215125E-2,-4.367584363E-2,1.810949668E-2
2.166153536E0,-3.834952042E-2,-3.249056637E-2,1.864212751E-2
2.168137178E0,-3.355583176E-2,-2.450108156E-2,1.704423130E-2
2.170151338E0,-3.195793182E-2,-1.225054078E-2,1.757686399E-2
2.172165498E0,-3.462109342E-2,-4.261057824E-3,1.491370238E-2
2.174179659E0,-3.302319720E-2,0.000000000E0,1.597896591E-2
2.176163301E0,-3.621899337E-2,6.924218964E-3,1.704423130E-2
2.178116426E0,-3.728425503E-2,1.012001187E-2,1.651159860E-2
2.180130586E0,-3.888215125E-2,1.757686399E-2,1.491370238E-2
2.182114229E0,-3.728425503E-2,2.822950855E-2,1.544633508E-2
2.184097871E0,-4.154531285E-2,3.728425503E-2,1.384843793E-2
2.186112032E0,-3.994741663E-2,4.740426689E-2,1.810949668E-2
2.188095674E0,-4.314320907E-2,5.858954415E-2,2.024002373E-2
2.190109834E0,-4.580637068E-2,6.498113275E-2,2.237055451E-2
2.192123994E0,-4.687163606E-2,7.350324839E-2,2.663161233E-2
2.194046602E0,-4.846953228E-2,8.468852192E-2,2.929477207E-2
2.196030244E0,-4.687163606E-2,9.427590668E-2,3.089267015E-2
2.198044405E0,-4.900216311E-2,1.022653878E-1,3.302319720E-2
2.200058565E0,-5.006742850E-2,1.107875034E-1,3.355583176E-2
2.202042207E0,-5.006742850E-2,1.150485575E-1,2.929477207E-2
2.204025850E0,-5.006742850E-2,1.214401498E-1,3.195793182E-2
2.205948457E0,-4.953479767E-2,1.272991002E-1,2.716424316E-2
2.207932100E0,-5.166532472E-2,1.336906850E-1,2.556634694E-2
2.209946260E0,-4.900216311E-2,1.352885813E-1,2.396845073E-2
2.211960420E0,-4.633900523E-2,1.427454352E-1,2.077265643E-2
2.213944063E0,-4.527373984E-2,1.480717659E-1,2.130528912E-2
2.215958223E0,-4.367584363E-2,1.480717659E-1,1.864212751E-2
2.217972383E0,-4.474110901E-2,1.454086006E-1,1.757686399E-2
2.219986543E0,-4.154531285E-2,1.491370201E-1,1.810949668E-2
2.221909151E0,-3.994741663E-2,1.539307088E-1,1.864212751E-2
2.223923311E0,-3.621899337E-2,1.608549356E-1,1.651159860E-2
2.225906953E0,-3.515372798E-2,1.683117896E-1,1.757686399E-2
2.227890596E0,-3.408846259E-2,1.699096859E-1,1.438106969E-2
2.229904756E0,-3.302319720E-2,1.741707325E-1,1.544633508E-2
2.231918916E0,-2.663161233E-2,1.784317940E-1,1.331580617E-2
2.233841524E0,-2.822950855E-2,1.768338978E-1,9.587380104E-3
2.235825166E0,-2.769687586E-2,1.794970632E-1,4.793690052E-3
2.237839327E0,-2.396845073E-2,1.800296903E-1,3.728425596E-3
2.239884004E0,-2.450108156E-2,1.784317940E-1,2.130528912E-3
2.241867647E0,-2.343581803E-2,1.757686287E-1,-5.326322280E-4
2.243851289E0,-2.343581803E-2,1.747033745E-1,-3.195793368E-3
2.245865450E0,-2.290318534E-2,1.715075821E-1,-6.391586736E-3
2.247879610E0,-2.396845073E-2,1.693770438E-1,-7.989482954E-3
2.249802217E0,-1.544633508E-2,1.661812514E-1,-1.065264456E-2
2.251785860E0,-1.438106969E-2,1.608549356E-1,-1.544633508E-2
2.253800020E0,-9.054748341E-3,1.608549356E-1,-1.810949668E-2
2.255783662E0,-7.456851192E-3,1.555286050E-1,-1.917476021E-2
2.257797823E0,-3.195793368E-3,1.565938741E-1,-2.237055451E-2
2.259873018E0,1.597896684E-3,1.555286050E-1,-2.237055451E-2
2.261734590E0,5.858954508E-3,1.571265012E-1,-2.130528912E-2
2.263718233E0,6.924218964E-3,1.539307088E-1,-2.556634694E-2
2.265732393E0,1.225054078E-2,1.533980817E-1,-2.183792181E-2
2.267746553E0,1.491370238E-2,1.507349163E-1,-2.024002373E-2
2.269730196E0,1.597896591E-2,1.496696621E-1,-2.450108156E-2
2.271713838E0,1.970739290E-2,1.470064968E-1,-1.917476021E-2
2.273636446E0,2.130528912E-2,1.422128081E-1,-2.077265643E-2
2.275620088E0,2.343581803E-2,1.363538504E-1,-1.597896591E-2
2.277634248E0,2.450108156E-2,1.304948926E-1,-1.491370238E-2
2.279678926E0,2.609897964E-2,1.267664731E-1,-1.278317347E-2
2.281632051E0,2.982740477E-2,1.225054115E-1,-9.054748341E-3
2.283615694E0,2.982740477E-2,1.177117229E-1,-4.261057824E-3
2.285629854E0,3.355583176E-2,1.134506613E-1,-1.597896684E-3
2.287613496E0,2.876213938E-2,1.118527651E-1,3.728425596E-3
2.289566621E0,3.302319720E-2,1.038632840E-1,7.989482954E-3
2.291580782E0,3.142530099E-2,1.027980223E-1,1.331580617E-2
2.293594942E0,3.515372798E-2,1.001348570E-1,1.651159860E-2
2.295578584E0,3.462109342E-2,9.960222989E-2,2.024002373E-2
2.297592744E0,3.728425503E-2,1.027980223E-1,2.130528912E-2
2.299637422E0,3.941478580E-2,1.012001261E-1,2.556634694E-2
2.301560030E0,3.994741663E-2,1.006674916E-1,2.663161233E-2
2.303574190E0,3.994741663E-2,1.012001261E-1,2.876213938E-2
2.305588350E0,3.888215125E-2,1.043959185E-1,3.195793182E-2
2.307571993E0,4.261057824E-2,1.033306494E-1,2.982740477E-2
2.309586153E0,4.207794741E-2,1.043959185E-1,3.302319720E-2
2.311600313E0,4.580637068E-2,1.102548689E-1,3.462109342E-2
2.313614473E0,4.900216311E-2,1.102548689E-1,3.089267015E-2
2.315598116E0,5.166532472E-2,1.118527651E-1,2.716424316E-2
2.317551241E0,5.539375171E-2,1.150485575E-1,2.396845073E-2
2.319565401E0,6.125270575E-2,1.166464612E-1,2.609897964E-2
2.321549043E0,6.870955974E-2,1.171790883E-1,2.237055451E-2
2.323563203E0,7.190535218E-2,1.161138266E-1,2.396845073E-2
2.325577364E0,7.137271762E-2,1.118527651E-1,2.077265643E-2
2.327591524E0,7.403588295E-2,1.070590764E-1,2.183792181E-2
2.329575166E0,7.669904083E-2,1.022653878E-1,2.024002373E-2
2.331558809E0,8.096009493E-2,9.960222989E-2,1.864212751E-2
2.333481416E0,7.882957160E-2,9.321063757E-2,1.810949668E-2
2.335465059E0,7.723167539E-2,8.841694891E-2,1.597896591E-2
2.337479219E0,7.616640627E-2,8.362326026E-2,2.024002373E-2
2.339523897E0,7.297061384E-2,7.936219871E-2,1.864212751E-2
2.341477022E0,7.137271762E-2,7.403588295E-2,1.810949668E-2
2.343460664E0,6.924218684E-2,6.977482140E-2,2.183792181E-2
2.345383272E0,6.551376730E-2,6.178534031E-2,2.024002373E-2
2.347366914E0,6.498113275E-2,5.326322466E-2,2.183792181E-2
2.349381075E0,5.752427876E-2,5.006742850E-2,2.609897964E-2
2.351395235E0,5.326322466E-2,3.834952042E-2,2.663161233E-2
2.353378877E0,5.006742850E-2,3.408846259E-2,2.716424316E-2
2.355362520E0,4.687163606E-2,2.982740477E-2,2.609897964E-2
2.357315645E0,4.101268202E-2,2.663161233E-2,2.609897964E-2
2.359299287E0,3.781688958E-2,2.237055451E-2,2.556634694E-2
2.361282930E0,3.462109342E-2,2.130528912E-2,2.609897964E-2
2.363297090E0,3.036003746E-2,2.237055451E-2,2.183792181E-2
2.365280733E0,2.396845073E-2,2.077265643E-2,1.970739290E-2
2.367264375E0,2.024002373E-2,1.864212751E-2,2.077265643E-2
2.369278536E0,1.810949668E-2,1.864212751E-2,1.864212751E-2
2.371262178E0,2.024002373E-2,1.917476021E-2,1.225054078E-2
2.373215303E0,1.012001187E-2,1.704423130E-2,1.012001187E-2
2.375229463E0,9.054748341E-3,1.704423130E-2,1.065264456E-2
2.377213106E0,4.261057824E-3,1.704423130E-2,5.326322280E-3
2.379227266E0,2.130528912E-3,1.544633508E-2,1.597896684E-3
2.381210909E0,-2.130528912E-3,1.438106969E-2,-3.728425596E-3
2.383194551E0,-2.130528912E-3,1.225054078E-2,-5.858954508E-3
2.385147676E0,-6.924218964E-3,9.587380104E-3,-8.522115648E-3
2.387161836E0,-1.065264456E-2,6.924218964E-3,-1.438106969E-2
2.389145479E0,-1.384843793E-2,3.728425596E-3,-1.651159860E-2
2.391129121E0,-2.077265643E-2,-2.130528912E-3,-1.810949668E-2
2.393143282E0,-2.130528912E-2,-1.597896684E-3,-2.183792181E-2
2.395157442E0,-2.716424316E-2,-7.456851192E-3,-2.396845073E-2
2.397141084E0,-3.142530099E-2,-9.587380104E-3,-2.822950855E-2
2.399155244E0,-3.408846259E-2,-9.587380104E-3,-2.982740477E-2
2.401047334E0,-3.834952042E-2,-1.491370238E-2,-3.036003746E-2
2.403030977E0,-4.420847446E-2,-1.331580617E-2,-3.781688958E-2
2.405045137E0,-4.740426689E-2,-1.278317347E-2,-3.941478580E-2
2.407059297E0,-5.166532472E-2,-1.331580617E-2,-4.207794741E-2
2.409042940E0,-5.645901710E-2,-9.587380104E-3,-4.740426689E-2
2.411026582E0,-5.965480953E-2,-3.728425596E-3,-5.060006306E-2
2.412979707E0,-6.231797114E-2,-2.130528912E-3,-5.273059011E-2
2.414993868E0,-6.604639441E-2,5.858954508E-3,-5.645901710E-2
2.417008028E0,-6.657902896E-2,9.054748341E-3,-5.912217870E-2
2.419022188E0,-6.817692518E-2,1.384843793E-2,-6.285060197E-2
2.421005830E0,-6.764429063E-2,1.331580617E-2,-6.604639441E-2
2.423019991E0,-6.657902896E-2,1.384843793E-2,-6.977482140E-2
2.425034151E0,-6.817692518E-2,1.438106969E-2,-7.030745596E-2
2.427017793E0,-6.657902896E-2,1.118527725E-2,-7.456851006E-2
2.428970918E0,-6.498113275E-2,1.225054078E-2,-7.510114461E-2
2.430985078E0,-6.604639441E-2,1.278317347E-2,-7.669904083E-2
2.432968721E0,-6.338323653E-2,1.225054078E-2,-7.616640627E-2
2.434952364E0,-6.444849819E-2,1.438106969E-2,-7.297061384E-2
2.436966524E0,-6.125270575E-2,1.225054078E-2,-7.190535218E-2
2.438980684E0,-6.178534031E-2,1.544633508E-2,-7.030745596E-2
2.440903291E0,-6.125270575E-2,1.651159860E-2,-6.870955974E-2
2.442917452E0,-5.752427876E-2,1.544633508E-2,-6.711166352E-2
2.444901094E0,-5.539375171E-2,1.757686399E-2,-6.391586363E-2
2.446884737E0,-5.432848632E-2,2.130528912E-2,-6.178534031E-2
2.448898897E0,-5.539375171E-2,2.343581803E-2,-6.125270575E-2
2.450882539E0,-5.486112088E-2,2.716424316E-2,-5.539375171E-2
2.452835664E0,-4.953479767E-2,2.663161233E-2,-5.219795927E-2
2.454849825E0,-4.687163606E-2,2.556634694E-2,-4.793690145E-2
2.456833467E0,-4.367584363E-2,2.450108156E-2,-4.367584363E-2
2.458847627E0,-4.207794741E-2,2.556634694E-2,-3.994741663E-2
2.460831270E0,-3.568635881E-2,2.343581803E-2,-3.462109342E-2
2.462814912E0,-3.355583176E-2,2.237055451E-2,-2.929477207E-2
2.464829073E0,-2.769687586E-2,2.024002373E-2,-2.556634694E-2
2.466843233E0,-2.450108156E-2,1.491370238E-2,-1.810949668E-2
2.468765840E0,-1.757686399E-2,1.225054078E-2,-1.384843793E-2
2.470749483E0,-1.544633508E-2,8.522115648E-3,-9.054748341E-3
2.472763643E0,-1.118527725E-2,3.195793368E-3,-2.130528912E-3
2.474777803E0,-5.326322280E-3,1.597896684E-3,3.728425596E-3
2.476761446E0,-2.130528912E-3,-2.663161140E-3,7.989482954E-3
2.478775606E0,-2.663161140E-3,-6.924218964E-3,1.597896591E-2
2.480667696E0,1.065264456E-3,-9.587380104E-3,1.917476021E-2
2.482651338E0,4.261057824E-3,-9.054748341E-3,2.290318534E-2
2.484665498E0,6.924218964E-3,-1.438106969E-2,3.036003746E-2
2.486679659E0,1.012001187E-2,-1.491370238E-2,3.302319720E-2
2.488663301E0,1.065264456E-2,-1.438106969E-2,3.568635881E-2
2.490646944E0,1.597896591E-2,-1.544633508E-2,4.101268202E-2
2.492661104E0,1.917476021E-2,-1.704423130E-2,4.527373984E-2
2.494675264E0,2.290318534E-2,-1.544633508E-2,4.740426689E-2
2.496628389E0,2.450108156E-2,-1.544633508E-2,5.006742850E-2
2.498642549E0,3.036003746E-2,-2.024002373E-2,5.592638254E-2
2.500626192E0,3.462109342E-2,-2.290318534E-2,5.699164793E-2
2.502609834E0,3.834952042E-2,-2.290318534E-2,6.072007492E-2
2.504623994E0,3.888215125E-2,-2.663161233E-2,6.391586363E-2
2.506638155E0,4.527373984E-2,-3.036003746E-2,6.657902896E-2
2.508560762E0,4.633900523E-2,-3.089267015E-2,6.657902896E-2
2.510544405E0,5.060006306E-2,-3.621899337E-2,6.977482140E-2
2.512558565E0,4.953479767E-2,-3.568635881E-2,7.190535218E-2
2.514572725E0,5.592638254E-2,-3.568635881E-2,7.297061384E-2
2.516556368E0,5.486112088E-2,-3.568635881E-2,7.776430249E-2
2.518570528E0,5.912217870E-2,-3.941478580E-2,7.776430249E-2
2.520554170E0,6.072007492E-2,-4.048004746E-2,8.042746782E-2
2.522537813E0,6.178534031E-2,-4.474110901E-2,8.202536404E-2
2.524490938E0,5.965480953E-2,-4.740426689E-2,8.149272949E-2
2.526505098E0,6.444849819E-2,-4.846953228E-2,8.309062570E-2
2.528488741E0,6.604639441E-2,-4.633900523E-2,8.255799860E-2
2.530502901E0,6.870955974E-2,-4.633900523E-2,8.522115648E-2
2.532517061E0,6.817692518E-2,-4.527373984E-2,8.681905270E-2
2.534500703E0,7.030745596E-2,-4.420847446E-2,8.628641814E-2
2.536453828E0,7.350324839E-2,-4.580637068E-2,8.894958347E-2
2.538498506E0,7.030745596E-2,-4.420847446E-2,9.054747969E-2
2.540451631E0,7.243798673E-2,-4.420847446E-2,9.054747969E-2
2.542435274E0,7.297061384E-2,-4.420847446E-2,9.054747969E-2
2.544449434E0,7.243798673E-2,-4.633900523E-2,9.321063757E-2
2.546463594E0,7.243798673E-2,-4.101268202E-2,9.374327213E-2
2.548447237E0,7.403588295E-2,-4.154531285E-2,9.427590668E-2
2.550430879E0,7.137271762E-2,-4.154531285E-2,9.534116834E-2
2.552384004E0,6.870955974E-2,-3.728425503E-2,9.374327213E-2
2.554337129E0,6.870955974E-2,-3.675162420E-2,9.427590668E-2
2.556351289E0,6.764429063E-2,-3.728425503E-2,9.534116834E-2
2.558395967E0,6.711166352E-2,-3.728425503E-2,9.640643001E-2
2.560379610E0,6.498113275E-2,-3.408846259E-2,9.427590668E-2
2.562363252E0,6.444849819E-2,-3.355583176E-2,9.321063757E-2
2.564316377E0,6.551376730E-2,-3.355583176E-2,9.267801046E-2
2.566330537E0,6.338323653E-2,-3.195793182E-2,9.374327213E-2
2.568314180E0,6.178534031E-2,-3.302319720E-2,8.948221803E-2
2.570297823E0,6.285060197E-2,-3.621899337E-2,8.735168725E-2
2.572311983E0,6.551376730E-2,-3.462109342E-2,8.575379103E-2
2.574326143E0,6.711166352E-2,-3.515372798E-2,8.468852192E-2
2.576309786E0,6.870955974E-2,-3.621899337E-2,8.362326026E-2
2.578354463E0,6.924218684E-2,-3.675162420E-2,8.202536404E-2
2.580246553E0,7.137271762E-2,-3.994741663E-2,7.829693705E-2
2.582230196E0,7.350324839E-2,-3.994741663E-2,8.042746782E-2
2.584244356E0,7.563377917E-2,-4.048004746E-2,7.723167539E-2
2.586258516E0,7.297061384E-2,-3.834952042E-2,7.510114461E-2
2.588242159E0,7.563377917E-2,-3.994741663E-2,7.616640627E-2
2.590225801E0,7.403588295E-2,-4.154531285E-2,7.403588295E-2
2.592178926E0,7.243798673E-2,-3.994741663E-2,7.510114461E-2
2.594193086E0,7.137271762E-2,-3.834952042E-2,7.243798673E-2
2.596176729E0,6.870955974E-2,-3.994741663E-2,7.084008306E-2
2.598221407E0,6.817692518E-2,-4.154531285E-2,7.137271762E-2
2.600205049E0,6.657902896E-2,-4.101268202E-2,6.924218684E-2
2.602219209E0,6.498113275E-2,-4.154531285E-2,6.498113275E-2
2.604202852E0,6.338323653E-2,-4.048004746E-2,6.072007492E-2
2.606186494E0,6.231797114E-2,-4.314320907E-2,5.858954415E-2
2.608139619E0,6.072007492E-2,-3.994741663E-2,6.178534031E-2
2.610092744E0,5.752427876E-2,-3.834952042E-2,5.912217870E-2
2.612106905E0,5.805691332E-2,-3.941478580E-2,5.752427876E-2
2.614121065E0,5.432848632E-2,-3.941478580E-2,5.486112088E-2
2.616104707E0,5.432848632E-2,-3.728425503E-2,5.432848632E-2
2.618118868E0,5.166532472E-2,-3.781688958E-2,5.219795927E-2
2.620041475E0,4.900216311E-2,-3.462109342E-2,5.113269389E-2
2.621994600E0,4.900216311E-2,-3.568635881E-2,4.953479767E-2
2.624008760E0,4.580637068E-2,-3.568635881E-2,4.793690145E-2
2.626022920E0,4.474110901E-2,-3.462109342E-2,4.953479767E-2
2.628006563E0,4.367584363E-2,-3.355583176E-2,4.846953228E-2
2.629990205E0,4.367584363E-2,-3.515372798E-2,4.953479767E-2
2.631943330E0,3.994741663E-2,-3.621899337E-2,4.207794741E-2
2.633926973E0,3.834952042E-2,-3.728425503E-2,4.474110901E-2
2.635941133E0,3.621899337E-2,-3.675162420E-2,4.314320907E-2
2.637985811E0,3.621899337E-2,-3.675162420E-2,4.101268202E-2
2.639969453E0,3.462109342E-2,-3.355583176E-2,3.941478580E-2
2.641953096E0,3.142530099E-2,-3.621899337E-2,3.781688958E-2
2.643967256E0,3.302319720E-2,-3.568635881E-2,3.462109342E-2
2.645950899E0,2.822950855E-2,-3.888215125E-2,3.142530099E-2
2.647873506E0,2.716424316E-2,-3.834952042E-2,3.036003746E-2
2.649857149E0,2.822950855E-2,-4.154531285E-2,2.769687586E-2
2.651871309E0,3.195793182E-2,-4.207794741E-2,2.822950855E-2
2.653885469E0,3.142530099E-2,-4.793690145E-2,2.450108156E-2
2.655869112E0,2.609897964E-2,-4.793690145E-2,2.130528912E-2
2.657913789E0,2.609897964E-2,-5.166532472E-2,2.077265643E-2
2.659775362E0,3.036003746E-2,-5.273059011E-2,2.290318534E-2
2.661759004E0,2.876213938E-2,-5.486112088E-2,2.077265643E-2
2.663773164E0,2.876213938E-2,-5.326322466E-2,2.024002373E-2
2.665787325E0,2.769687586E-2,-5.486112088E-2,1.917476021E-2
2.667770967E0,2.716424316E-2,-5.592638254E-2,1.864212751E-2
2.669754610E0,2.769687586E-2,-5.699164793E-2,1.917476021E-2
2.671768770E0,2.822950855E-2,-5.539375171E-2,1.864212751E-2
2.673782930E0,2.609897964E-2,-5.379585549E-2,1.704423130E-2
2.675705537E0,2.503371425E-2,-5.219795927E-2,1.597896591E-2
2.677750215E0,2.503371425E-2,-5.006742850E-2,1.597896591E-2
2.679733858E0,2.716424316E-2,-5.166532472E-2,1.278317347E-2
2.681717500E0,2.343581803E-2,-4.900216311E-2,1.438106969E-2
2.683731661E0,2.450108156E-2,-5.113269389E-2,1.225054078E-2
2.685745821E0,2.343581803E-2,-4.740426689E-2,1.278317347E-2
2.687698946E0,2.183792181E-2,-4.793690145E-2,1.118527725E-2
2.689682588E0,1.917476021E-2,-4.580637068E-2,1.384843793E-2
2.691696748E0,1.810949668E-2,-4.314320907E-2,1.384843793E-2
2.693680391E0,1.917476021E-2,-4.101268202E-2,1.331580617E-2
2.695694551E0,1.757686399E-2,-3.941478580E-2,1.225054078E-2
2.697739229E0,1.757686399E-2,-3.621899337E-2,1.225054078E-2
2.699722871E0,1.651159860E-2,-3.142530099E-2,1.331580617E-2
2.701706514E0,1.810949668E-2,-2.929477207E-2,1.225054078E-2
2.703659639E0,1.810949668E-2,-2.716424316E-2,1.331580617E-2
2.705673799E0,2.024002373E-2,-2.503371425E-2,1.970739290E-2
2.707657442E0,2.130528912E-2,-2.183792181E-2,1.917476021E-2
2.709641084E0,2.077265643E-2,-2.077265643E-2,1.917476021E-2
2.711655244E0,2.024002373E-2,-2.077265643E-2,2.024002373E-2
2.713638887E0,2.077265643E-2,-1.331580617E-2,2.290318534E-2
2.715592012E0,2.077265643E-2,-1.491370238E-2,2.237055451E-2
2.717636690E0,2.183792181E-2,-9.054748341E-3,2.290318534E-2
2.719589815E0,2.237055451E-2,-6.391586736E-3,2.716424316E-2
2.721603975E0,2.450108156E-2,-8.522115648E-3,2.822950855E-2
2.723618135E0,2.343581803E-2,-6.924218964E-3,3.089267015E-2
2.725632295E0,2.450108156E-2,-7.989482954E-3,3.142530099E-2
2.727615938E0,2.290318534E-2,-5.326322280E-3,3.195793182E-2
2.729599580E0,2.183792181E-2,-7.456851192E-3,3.355583176E-2
2.731552705E0,2.130528912E-2,-9.054748341E-3,3.675162420E-2
2.733536348E0,1.917476021E-2,-7.456851192E-3,3.941478580E-2
2.735550508E0,1.810949668E-2,-1.171790902E-2,4.048004746E-2
2.737595186E0,1.384843793E-2,-1.225054078E-2,3.994741663E-2
2.739548311E0,1.384843793E-2,-1.225054078E-2,4.154531285E-2
2.741562471E0,1.544633508E-2,-1.012001187E-2,4.207794741E-2
2.743515596E0,1.278317347E-2,-1.118527725E-2,4.420847446E-2
2.745529756E0,1.171790902E-2,-1.065264456E-2,4.154531285E-2
2.747513399E0,1.118527725E-2,-1.118527725E-2,4.154531285E-2
2.749497041E0,1.118527725E-2,-1.278317347E-2,4.474110901E-2
2.751511202E0,8.522115648E-3,-1.491370238E-2,4.420847446E-2
2.753525362E0,1.012001187E-2,-1.704423130E-2,4.367584363E-2
2.755509004E0,8.522115648E-3,-1.491370238E-2,3.834952042E-2
2.757553682E0,8.522115648E-3,-1.544633508E-2,3.621899337E-2
2.759445772E0,9.587380104E-3,-1.651159860E-2,3.249056637E-2
2.761429414E0,1.012001187E-2,-1.171790902E-2,3.036003746E-2
2.763443575E0,1.012001187E-2,-1.065264456E-2,2.609897964E-2
2.765427217E0,9.587380104E-3,-1.065264456E-2,2.237055451E-2
2.767441377E0,1.278317347E-2,-6.924218964E-3,1.917476021E-2
2.769455537E0,1.597896591E-2,-3.728425596E-3,1.544633508E-2
2.771408662E0,1.597896591E-2,-2.130528912E-3,1.331580617E-2
2.773422823E0,1.651159860E-2,-4.261057824E-3,1.118527725E-2
2.775436983E0,1.810949668E-2,-4.261057824E-3,9.054748341E-3
2.777451143E0,1.810949668E-2,-4.793690052E-3,9.054748341E-3
2.779434786E0,1.917476021E-2,-2.663161140E-3,6.924218964E-3
2.781448946E0,2.077265643E-2,-1.597896684E-3,6.391586736E-3
2.783463106E0,2.077265643E-2,-5.326322280E-3,6.391586736E-3
2.785446748E0,1.970739290E-2,-4.793690052E-3,5.326322280E-3
2.787399873E0,2.130528912E-2,-6.391586736E-3,3.195793368E-3
2.789414034E0,1.970739290E-2,-7.456851192E-3,2.130528912E-3
2.791397676E0,1.810949668E-2,-7.989482954E-3,4.793690052E-3
2.793381319E0,1.704423130E-2,-5.858954508E-3,4.261057824E-3
2.795395479E0,1.651159860E-2,-5.326322280E-3,4.793690052E-3
2.797440157E0,1.438106969E-2,-6.391586736E-3,7.456851192E-3
2.799332246E0,1.225054078E-2,-4.793690052E-3,5.326322280E-3
2.801346407E0,1.331580617E-2,-2.130528912E-3,5.858954508E-3
2.803330049E0,1.065264456E-2,0.000000000E0,7.989482954E-3
2.805313692E0,9.054748341E-3,1.065264456E-3,5.326322280E-3
2.807327852E0,8.522115648E-3,4.793690052E-3,6.391586736E-3
2.809342012E0,8.522115648E-3,5.858954508E-3,7.989482954E-3
2.811356172E0,6.391586736E-3,7.456851192E-3,4.261057824E-3
2.813339815E0,6.924218964E-3,1.012001187E-2,8.522115648E-3
2.815292940E0,3.195793368E-3,8.522115648E-3,4.261057824E-3
2.817307100E0,4.793690052E-3,1.171790902E-2,2.663161140E-3
2.819290743E0,2.130528912E-3,1.278317347E-2,3.728425596E-3
2.821274385E0,5.326322280E-3,1.012001187E-2,1.597896684E-3
2.823288545E0,2.663161140E-3,9.054748341E-3,2.663161140E-3
2.825272188E0,2.663161140E-3,9.054748341E-3,5.326322280E-3
2.827225313E0,4.261057824E-3,6.924218964E-3,3.195793368E-3
2.829239473E0,4.261057824E-3,3.195793368E-3,6.391586736E-3
2.831223116E0,4.261057824E-3,0.000000000E0,5.326322280E-3
2.833206758E0,5.858954508E-3,-2.130528912E-3,7.456851192E-3
2.835220918E0,6.924218964E-3,-6.391586736E-3,1.012001187E-2
2.837265596E0,4.793690052E-3,-1.065264456E-2,9.587380104E-3
2.839218721E0,7.456851192E-3,-1.118527725E-2,1.065264456E-2
2.841202364E0,1.012001187E-2,-7.989482954E-3,4.793690052E-3
2.843155489E0,1.438106969E-2,-6.391586736E-3,6.391586736E-3
2.845169649E0,1.331580617E-2,-4.261057824E-3,5.858954508E-3
2.847183809E0,1.491370238E-2,-6.391586736E-3,5.326322280E-3
2.849167452E0,1.384843793E-2,-5.858954508E-3,7.989482954E-3
2.851181612E0,1.597896591E-2,-4.793690052E-3,4.261057824E-3
2.853195772E0,1.544633508E-2,-3.195793368E-3,2.130528912E-3
2.855118379E0,1.597896591E-2,-2.130528912E-3,5.326322280E-3
2.857132539E0,1.491370238E-2,5.326322280E-4,4.793690052E-3
2.859116182E0,1.331580617E-2,5.326322280E-4,4.793690052E-3
2.861130342E0,1.225054078E-2,3.728425596E-3,3.195793368E-3
2.863113985E0,1.438106969E-2,6.924218964E-3,4.261057824E-3
2.865097627E0,1.065264456E-2,8.522115648E-3,0.000000000E0
2.867111787E0,1.278317347E-2,1.278317347E-2,0.000000000E0
2.869095430E0,9.587380104E-3,1.597896591E-2,5.326322280E-4
2.871048555E0,1.384843793E-2,1.917476021E-2,-1.065264456E-3
2.873062715E0,1.225054078E-2,1.810949668E-2,-2.130528912E-3
2.875046358E0,1.384843793E-2,2.343581803E-2,5.326322280E-4
2.877091036E0,1.118527725E-2,2.343581803E-2,1.597896684E-3
2.879074678E0,1.171790902E-2,2.716424316E-2,-2.663161140E-3
2.881088838E0,1.012001187E-2,2.769687586E-2,0.000000000E0
2.883011446E0,1.065264456E-2,2.822950855E-2,2.130528912E-3
2.884995088E0,9.054748341E-3,3.089267015E-2,3.728425596E-3
2.887009248E0,6.924218964E-3,2.982740477E-2,4.793690052E-3
2.888992891E0,9.587380104E-3,3.036003746E-2,4.261057824E-3
2.891007051E0,6.924218964E-3,3.089267015E-2,5.858954508E-3
2.893021211E0,5.858954508E-3,3.195793182E-2,5.858954508E-3
2.895035371E0,4.793690052E-3,3.302319720E-2,7.456851192E-3
2.897049532E0,5.326322280E-3,2.929477207E-2,8.522115648E-3
2.898972139E0,5.858954508E-3,2.876213938E-2,8.522115648E-3
2.900986299E0,2.663161140E-3,2.503371425E-2,7.456851192E-3
2.902969942E0,2.130528912E-3,2.609897964E-2,1.012001187E-2
2.904953584E0,5.326322280E-3,2.077265643E-2,1.171790902E-2
2.906967744E0,5.326322280E-3,1.917476021E-2,1.225054078E-2
2.908951387E0,4.793690052E-3,1.651159860E-2,9.587380104E-3
2.910904512E0,4.261057824E-3,1.331580617E-2,9.587380104E-3
2.912918672E0,4.261057824E-3,9.054748341E-3,1.118527725E-2
2.914902315E0,5.858954508E-3,8.522115648E-3,9.054748341E-3
2.916916475E0,3.195793368E-3,3.728425596E-3,6.391586736E-3
2.918900118E0,6.391586736E-3,3.195793368E-3,1.118527725E-2
2.920914278E0,6.391586736E-3,0.000000000E0,1.012001187E-2
2.922897920E0,5.858954508E-3,1.597896684E-3,1.012001187E-2
2.924881563E0,5.858954508E-3,2.663161140E-3,9.587380104E-3
2.926834688E0,5.326322280E-3,1.597896684E-3,7.456851192E-3
2.928787813E0,5.326322280E-3,3.728425596E-3,4.793690052E-3
2.930801973E0,7.989482954E-3,4.793690052E-3,9.054748341E-3
2.932816133E0,5.858954508E-3,6.391586736E-3,2.663161140E-3
2.934799776E0,8.522115648E-3,9.587380104E-3,3.195793368E-3
2.936813936E0,5.858954508E-3,1.118527725E-2,1.065264456E-3
2.938706026E0,6.391586736E-3,1.544633508E-2,1.065264456E-3
2.940689668E0,7.989482954E-3,1.651159860E-2,1.597896684E-3
2.942703828E0,8.522115648E-3,1.864212751E-2,0.000000000E0
2.944717989E0,7.989482954E-3,2.343581803E-2,-2.130528912E-3
2.946701631E0,1.065264456E-2,2.822950855E-2,-1.065264456E-3
2.948685274E0,1.012001187E-2,2.663161233E-2,-3.195793368E-3
2.950638399E0,1.651159860E-2,3.249056637E-2,-3.195793368E-3
2.952652559E0,1.278317347E-2,2.876213938E-2,-2.663161140E-3
2.954666719E0,1.544633508E-2,3.142530099E-2,-2.130528912E-3
2.956680879E0,1.384843793E-2,3.462109342E-2,-1.065264456E-3
2.958664522E0,1.597896591E-2,3.462109342E-2,-1.065264456E-3
2.960678682E0,1.970739290E-2,3.515372798E-2,-1.065264456E-3
2.962692842E0,2.130528912E-2,3.621899337E-2,3.195793368E-3
2.964707002E0,1.757686399E-2,3.568635881E-2,1.597896684E-3
2.966660127E0,2.077265643E-2,3.355583176E-2,2.663161140E-3
2.968643770E0,2.237055451E-2,3.462109342E-2,2.663161140E-3
2.970657930E0,2.130528912E-2,3.408846259E-2,7.989482954E-3
2.972641573E0,2.290318534E-2,3.355583176E-2,9.054748341E-3
2.974655733E0,2.609897964E-2,3.408846259E-2,9.054748341E-3
2.976700411E0,2.663161233E-2,3.249056637E-2,1.171790902E-2
2.978684053E0,2.503371425E-2,3.089267015E-2,9.587380104E-3
2.980667696E0,2.343581803E-2,2.876213938E-2,1.171790902E-2
2.982620821E0,2.290318534E-2,2.822950855E-2,1.118527725E-2
2.984634981E0,2.290318534E-2,2.822950855E-2,1.278317347E-2
2.986618623E0,2.077265643E-2,2.609897964E-2,1.331580617E-2
2.988602266E0,2.183792181E-2,2.876213938E-2,1.384843793E-2
2.990616426E0,1.864212751E-2,2.769687586E-2,1.384843793E-2
2.992600069E0,1.864212751E-2,2.556634694E-2,1.544633508E-2
2.994553194E0,1.810949668E-2,2.556634694E-2,1.438106969E-2
2.996597871E0,1.864212751E-2,2.556634694E-2,1.597896591E-2
2.998550996E0,1.597896591E-2,2.237055451E-2,1.491370238E-2
3.000534639E0,1.970739290E-2,2.343581803E-2,1.491370238E-2
3.002548799E0,1.864212751E-2,2.183792181E-2,1.651159860E-2
3.004532442E0,1.704423130E-2,1.970739290E-2,1.757686399E-2
3.006546602E0,2.077265643E-2,1.970739290E-2,1.917476021E-2
3.008560762E0,1.757686399E-2,1.970739290E-2,1.864212751E-2
3.010483369E0,1.757686399E-2,1.438106969E-2,2.024002373E-2
3.012467012E0,1.757686399E-2,1.651159860E-2,2.130528912E-2
3.014481172E0,1.864212751E-2,1.225054078E-2,2.183792181E-2
3.016495332E0,1.704423130E-2,1.118527725E-2,2.343581803E-2
3.018478975E0,1.651159860E-2,1.012001187E-2,2.663161233E-2
3.020462618E0,1.757686399E-2,1.225054078E-2,2.663161233E-2
3.022415743E0,1.331580617E-2,8.522115648E-3,2.876213938E-2
3.024429903E0,1.225054078E-2,9.054748341E-3,2.822950855E-2
3.026444063E0,1.065264456E-2,7.989482954E-3,2.716424316E-2
3.028427705E0,8.522115648E-3,9.054748341E-3,2.822950855E-2
3.030441866E0,8.522115648E-3,9.054748341E-3,2.716424316E-2
3.032456026E0,1.012001187E-2,1.225054078E-2,2.769687586E-2
3.034439668E0,1.065264456E-2,1.331580617E-2,2.716424316E-2
3.036453828E0,1.065264456E-2,1.651159860E-2,2.822950855E-2
3.038376436E0,1.171790902E-2,1.597896591E-2,2.769687586E-2
3.040360078E0,7.456851192E-3,2.130528912E-2,2.556634694E-2
3.042374239E0,6.924218964E-3,2.450108156E-2,2.450108156E-2
3.044388399E0,9.587380104E-3,2.503371425E-2,2.609897964E-2
3.046402559E0,1.225054078E-2,2.769687586E-2,2.450108156E-2
3.048386202E0,1.118527725E-2,2.716424316E-2,2.556634694E-2
3.050339327E0,9.587380104E-3,2.556634694E-2,2.396845073E-2
3.052353487E0,1.012001187E-2,2.663161233E-2,2.130528912E-2
3.054337129E0,1.118527725E-2,2.982740477E-2,2.450108156E-2
3.056381807E0,9.587380104E-3,2.822950855E-2,2.024002373E-2
3.058334932E0,1.012001187E-2,2.769687586E-2,1.757686399E-2
3.060349092E0,9.054748341E-3,2.609897964E-2,1.651159860E-2
3.062332735E0,1.331580617E-2,2.663161233E-2,2.077265643E-2
3.064316377E0,1.331580617E-2,2.876213938E-2,1.864212751E-2
3.066238985E0,1.012001187E-2,2.716424316E-2,1.651159860E-2
3.068222627E0,1.384843793E-2,2.556634694E-2,1.917476021E-2
3.070236787E0,1.278317347E-2,2.343581803E-2,1.491370238E-2
3.072250948E0,1.384843793E-2,2.077265643E-2,1.438106969E-2
3.074234590E0,1.278317347E-2,1.597896591E-2,1.651159860E-2
3.076248750E0,9.587380104E-3,1.491370238E-2,1.757686399E-2
3.078140840E0,1.278317347E-2,1.225054078E-2,1.704423130E-2
3.080124483E0,1.384843793E-2,6.924218964E-3,1.491370238E-2
3.082138643E0,1.438106969E-2,7.989482954E-3,1.651159860E-2
3.084122286E0,1.544633508E-2,6.924218964E-3,1.597896591E-2
3.086136446E0,1.651159860E-2,2.663161140E-3,1.544633508E-2
3.088150606E0,1.438106969E-2,2.130528912E-3,1.438106969E-2
3.090073213E0,1.544633508E-2,-2.130528912E-3,1.438106969E-2
3.092056856E0,1.491370238E-2,-1.065264456E-3,1.491370238E-2
3.094071016E0,1.438106969E-2,-4.261057824E-3,1.544633508E-2
3.096115694E0,1.651159860E-2,-7.456851192E-3,1.491370238E-2
3.098068819E0,1.597896591E-2,-9.054748341E-3,1.544633508E-2
3.100052461E0,1.810949668E-2,-1.171790902E-2,1.651159860E-2
3.102066621E0,1.864212751E-2,-1.491370238E-2,1.331580617E-2
3.104080782E0,1.704423130E-2,-1.438106969E-2,1.438106969E-2
3.106003389E0,1.970739290E-2,-1.544633508E-2,1.278317347E-2
3.108017549E0,1.864212751E-2,-1.864212751E-2,1.331580617E-2
3.110031709E0,1.757686399E-2,-1.810949668E-2,1.225054078E-2
3.112015352E0,1.597896591E-2,-1.917476021E-2,1.225054078E-2
3.114029512E0,1.544633508E-2,-1.704423130E-2,1.065264456E-2
3.116074190E0,1.757686399E-2,-1.970739290E-2,8.522115648E-3
3.118027315E0,1.491370238E-2,-1.438106969E-2,6.391586736E-3
3.120010957E0,1.491370238E-2,-1.864212751E-2,5.858954508E-3
3.121964082E0,1.118527725E-2,-1.384843793E-2,7.456851192E-3
3.123978243E0,1.225054078E-2,-1.331580617E-2,6.924218964E-3
3.125961885E0,1.225054078E-2,-1.012001187E-2,8.522115648E-3
3.127945528E0,1.171790902E-2,-6.391586736E-3,4.793690052E-3
3.129959688E0,1.012001187E-2,-4.793690052E-3,2.130528912E-3
3.131973848E0,9.587380104E-3,-1.065264456E-3,1.065264456E-3
3.133896455E0,7.989482954E-3,-5.326322280E-4,-1.065264456E-3
3.135941133E0,6.391586736E-3,2.130528912E-3,-3.728425596E-3
3.137924776E0,6.924218964E-3,2.663161140E-3,-4.261057824E-3
3.139908418E0,6.391586736E-3,6.391586736E-3,-1.065264456E-3
3.141922578E0,4.261057824E-3,5.326322280E-3,-3.728425596E-3
3.143936739E0,2.130528912E-3,5.858954508E-3,-2.130528912E-3
3.145859346E0,2.130528912E-3,2.130528912E-3,-4.793690052E-3
3.147842989E0,-5.326322280E-4,0.000000000E0,-3.195793368E-3
3.149857149E0,-2.130528912E-3,-5.326322280E-4,-2.663161140E-3
3.151840791E0,-4.261057824E-3,5.326322280E-4,-3.728425596E-3
3.153854952E0,-4.261057824E-3,-2.663161140E-3,-5.326322280E-4
3.155899629E0,-4.261057824E-3,-7.989482954E-3,-2.130528912E-3
3.157883272E0,-7.456851192E-3,-7.456851192E-3,-5.326322280E-4
3.159897432E0,-9.054748341E-3,-6.924218964E-3,1.597896684E-3
3.161820039E0,-1.065264456E-2,-1.065264456E-2,1.065264456E-3
3.163834200E0,-1.278317347E-2,-1.118527725E-2,2.130528912E-3
3.165817842E0,-1.491370238E-2,-7.456851192E-3,4.793690052E-3
3.167801485E0,-1.491370238E-2,-1.012001187E-2,2.663161140E-3
3.169815645E0,-1.384843793E-2,-6.924218964E-3,4.261057824E-3
3.171829805E0,-1.597896591E-2,-7.456851192E-3,3.195793368E-3
3.173752412E0,-1.704423130E-2,-5.326322280E-3,0.000000000E0
3.175797090E0,-1.917476021E-2,-6.391586736E-3,-1.597896684E-3
3.177780733E0,-1.704423130E-2,-1.065264456E-3,-1.597896684E-3
3.179764375E0,-2.024002373E-2,-4.261057824E-3,-4.261057824E-3
3.181778536E0,-1.491370238E-2,-1.065264456E-3,-3.728425596E-3
3.183792696E0,-1.651159860E-2,-4.261057824E-3,-3.195793368E-3
3.185806856E0,-1.597896591E-2,-5.326322280E-4,-2.130528912E-3
3.187790498E0,-1.384843793E-2,-4.261057824E-3,-2.663161140E-3
3.189743623E0,-1.171790902E-2,-5.858954508E-3,1.065264456E-3
3.191757784E0,-9.054748341E-3,-7.989482954E-3,1.065264456E-3
3.193741426E0,-1.171790902E-2,-1.065264456E-2,-5.326322280E-4
3.195755586E0,-7.456851192E-3,-1.491370238E-2,5.326322280E-4
3.197739229E0,-7.989482954E-3,-1.970739290E-2,2.663161140E-3
3.199722871E0,-7.456851192E-3,-1.917476021E-2,2.663161140E-3
3.201675996E0,-5.326322280E-3,-2.130528912E-2,4.793690052E-3
3.203629121E0,-4.261057824E-3,-1.917476021E-2,4.793690052E-3
3.205643282E0,-4.793690052E-3,-1.864212751E-2,4.261057824E-3
3.207657442E0,-1.597896684E-3,-1.970739290E-2,4.261057824E-3
3.209641084E0,-1.597896684E-3,-2.077265643E-2,3.728425596E-3
3.211624727E0,5.326322280E-4,-2.237055451E-2,2.663161140E-3
3.213638887E0,-5.326322280E-4,-2.396845073E-2,2.130528912E-3
3.215683565E0,4.261057824E-3,-2.290318534E-2,1.597896684E-3
3.217606172E0,7.989482954E-3,-2.077265643E-2,3.195793368E-3
3.219620332E0,1.012001187E-2,-1.864212751E-2,5.326322280E-4
3.221603975E0,1.331580617E-2,-1.810949668E-2,4.261057824E-3
3.223587618E0,1.491370238E-2,-1.757686399E-2,2.130528912E-3
3.225601778E0,1.331580617E-2,-1.864212751E-2,0.000000000E0
3.227615938E0,1.597896591E-2,-1.704423130E-2,0.000000000E0
3.229569063E0,1.810949668E-2,-1.757686399E-2,1.065264456E-3
3.231552705E0,1.917476021E-2,-1.438106969E-2,0.000000000E0
3.233566866E0,1.917476021E-2,-1.331580617E-2,-5.326322280E-4
3.235581026E0,2.024002373E-2,-9.054748341E-3,5.326322280E-4
3.237564668E0,1.970739290E-2,-1.012001187E-2,-1.065264456E-3
3.239578828E0,2.183792181E-2,-8.522115648E-3,-1.597896684E-3
3.241592989E0,2.237055451E-2,-4.793690052E-3,-5.326322280E-4
3.243576631E0,2.609897964E-2,-4.261057824E-3,-3.728425596E-3
3.245529756E0,2.503371425E-2,-5.326322280E-3,-3.728425596E-3
3.247543916E0,2.609897964E-2,-3.195793368E-3,-4.793690052E-3
3.249527559E0,2.609897964E-2,-3.728425596E-3,-4.793690052E-3
3.251511202E0,2.876213938E-2,-2.663161140E-3,-5.326322280E-3
3.253525362E0,3.036003746E-2,-2.663161140E-3,-3.728425596E-3
3.255539522E0,3.089267015E-2,-5.858954508E-3,-3.195793368E-3
3.257523164E0,2.769687586E-2,-1.012001187E-2,-4.793690052E-3
3.259537325E0,3.142530099E-2,-1.384843793E-2,-1.065264456E-3
3.261459932E0,3.036003746E-2,-1.810949668E-2,-1.065264456E-3
3.263443575E0,3.089267015E-2,-2.503371425E-2,-5.326322280E-4
3.265457735E0,2.876213938E-2,-2.237055451E-2,5.326322280E-4
3.267471895E0,2.929477207E-2,-2.609897964E-2,-5.326322280E-4
3.269455537E0,3.089267015E-2,-2.769687586E-2,2.130528912E-3
3.271439180E0,3.089267015E-2,-2.769687586E-2,7.989482954E-3
3.273361787E0,2.556634694E-2,-3.302319720E-2,4.793690052E-3
3.275406465E0,2.609897964E-2,-3.302319720E-2,5.326322280E-3
3.277390108E0,2.237055451E-2,-3.302319720E-2,3.728425596E-3
3.279404268E0,2.343581803E-2,-3.355583176E-2,1.065264456E-3
3.281387911E0,2.077265643E-2,-3.302319720E-2,3.728425596E-3
3.283371553E0,2.077265643E-2,-3.142530099E-2,2.130528912E-3
3.285324678E0,2.024002373E-2,-3.142530099E-2,2.130528912E-3
3.287338838E0,1.917476021E-2,-3.249056637E-2,1.597896684E-3
3.289322481E0,1.917476021E-2,-3.089267015E-2,5.326322280E-4
3.291336641E0,2.024002373E-2,-3.036003746E-2,-2.130528912E-3
3.293350801E0,1.864212751E-2,-2.822950855E-2,-2.663161140E-3
3.295364961E0,1.704423130E-2,-2.769687586E-2,-1.597896684E-3
3.297348604E0,1.544633508E-2,-2.929477207E-2,-4.793690052E-3
3.299362764E0,1.917476021E-2,-2.503371425E-2,-2.663161140E-3
3.301285371E0,1.384843793E-2,-2.343581803E-2,-5.326322280E-3
3.303269014E0,1.278317347E-2,-2.130528912E-2,-5.326322280E-3
3.305283174E0,1.491370238E-2,-1.970739290E-2,-1.012001187E-2
3.307297334E0,1.597896591E-2,-2.077265643E-2,-6.924218964E-3
3.309280977E0,1.438106969E-2,-1.970739290E-2,-7.456851192E-3
3.311264619E0,1.597896591E-2,-1.597896591E-2,-5.858954508E-3
3.313217744E0,1.597896591E-2,-1.810949668E-2,-7.456851192E-3
3.315201387E0,1.118527725E-2,-1.917476021E-2,-1.171790902E-2
3.317185030E0,1.225054078E-2,-2.130528912E-2,-7.989482954E-3
3.319199190E0,1.331580617E-2,-2.130528912E-2,-6.924218964E-3
3.321182832E0,1.171790902E-2,-2.556634694E-2,-1.331580617E-2
3.323166475E0,9.587380104E-3,-2.130528912E-2,-1.171790902E-2
3.325180635E0,9.587380104E-3,-2.077265643E-2,-1.065264456E-2
3.327194795E0,8.522115648E-3,-2.503371425E-2,-9.054748341E-3
3.329117403E0,6.924218964E-3,-2.450108156E-2,-1.384843793E-2
3.331131563E0,6.924218964E-3,-2.556634694E-2,-1.438106969E-2
3.333145723E0,9.587380104E-3,-2.290318534E-2,-1.384843793E-2
3.335159883E0,5.858954508E-3,-2.556634694E-2,-1.278317347E-2
3.337143526E0,6.391586736E-3,-2.556634694E-2,-1.597896591E-2
3.339157686E0,6.924218964E-3,-2.609897964E-2,-1.491370238E-2
3.341080293E0,7.456851192E-3,-2.663161233E-2,-1.917476021E-2
3.343063936E0,9.587380104E-3,-2.876213938E-2,-2.183792181E-2
3.345078096E0,4.261057824E-3,-2.876213938E-2,-1.970739290E-2
3.347092256E0,5.858954508E-3,-2.929477207E-2,-2.130528912E-2
3.349075899E0,5.858954508E-3,-3.195793182E-2,-2.024002373E-2
3.351090059E0,3.728425596E-3,-3.568635881E-2,-2.130528912E-2
3.353104219E0,1.597896684E-3,-3.728425503E-2,-2.290318534E-2
3.355118379E0,-1.597896684E-3,-3.888215125E-2,-2.290318534E-2
3.357040987E0,-1.065264456E-3,-3.994741663E-2,-2.290318534E-2
3.359055147E0,-2.663161140E-3,-4.420847446E-2,-2.290318534E-2
3.361069307E0,5.326322280E-4,-4.740426689E-2,-2.343581803E-2
3.363052950E0,-8.522115648E-3,-4.527373984E-2,-2.450108156E-2
3.365067110E0,-7.456851192E-3,-4.367584363E-2,-2.290318534E-2
3.367081270E0,-8.522115648E-3,-4.420847446E-2,-2.343581803E-2
3.369003877E0,-1.065264456E-2,-4.261057824E-2,-2.237055451E-2
3.370987520E0,-1.118527725E-2,-4.580637068E-2,-2.024002373E-2
3.373001680E0,-1.118527725E-2,-4.474110901E-2,-2.183792181E-2
3.375015840E0,-1.384843793E-2,-3.941478580E-2,-2.290318534E-2
3.376999483E0,-1.544633508E-2,-4.101268202E-2,-2.183792181E-2
3.379013643E0,-1.544633508E-2,-4.101268202E-2,-2.024002373E-2
3.381027803E0,-1.704423130E-2,-4.261057824E-2,-1.917476021E-2
3.383011446E0,-1.810949668E-2,-3.994741663E-2,-2.024002373E-2
3.384964571E0,-2.290318534E-2,-4.154531285E-2,-2.130528912E-2
3.386978731E0,-1.864212751E-2,-4.154531285E-2,-2.130528912E-2
3.388962373E0,-1.970739290E-2,-4.154531285E-2,-2.183792181E-2
3.390946016E0,-1.917476021E-2,-3.888215125E-2,-2.077265643E-2
3.392960176E0,-2.024002373E-2,-3.834952042E-2,-2.077265643E-2
3.394974336E0,-2.077265643E-2,-3.728425503E-2,-2.183792181E-2
3.396896944E0,-1.757686399E-2,-3.675162420E-2,-1.917476021E-2
3.398911104E0,-2.024002373E-2,-3.568635881E-2,-2.077265643E-2
3.400894746E0,-1.917476021E-2,-3.621899337E-2,-2.024002373E-2
3.402878389E0,-1.757686399E-2,-3.515372798E-2,-1.970739290E-2
3.404892549E0,-1.704423130E-2,-4.101268202E-2,-1.970739290E-2
3.406876192E0,-1.597896591E-2,-3.834952042E-2,-2.183792181E-2
3.408890352E0,-1.704423130E-2,-3.728425503E-2,-1.970739290E-2
3.410904512E0,-1.491370238E-2,-3.888215125E-2,-1.757686399E-2
3.412857637E0,-1.491370238E-2,-3.941478580E-2,-1.970739290E-2
3.414841280E0,-1.278317347E-2,-4.048004746E-2,-1.970739290E-2
3.416824922E0,-1.278317347E-2,-3.888215125E-2,-2.290318534E-2
3.418839082E0,-1.118527725E-2,-3.675162420E-2,-2.024002373E-2
3.420822725E0,-1.225054078E-2,-3.781688958E-2,-2.130528912E-2
3.422806368E0,-1.065264456E-2,-3.515372798E-2,-2.237055451E-2
3.424759493E0,-1.012001187E-2,-3.355583176E-2,-2.450108156E-2
3.426743135E0,-9.587380104E-3,-2.982740477E-2,-2.343581803E-2
3.428757295E0,-6.924218964E-3,-2.929477207E-2,-2.450108156E-2
3.430771455E0,-5.858954508E-3,-2.982740477E-2,-2.556634694E-2
3.432785616E0,-4.793690052E-3,-2.822950855E-2,-2.663161233E-2
3.434799776E0,-2.130528912E-3,-2.609897964E-2,-2.716424316E-2
3.436783418E0,0.000000000E0,-2.183792181E-2,-2.929477207E-2
3.438797578E0,3.195793368E-3,-2.183792181E-2,-2.769687586E-2
3.440720186E0,2.130528912E-3,-2.290318534E-2,-2.769687586E-2
3.442703828E0,3.195793368E-3,-2.130528912E-2,-2.769687586E-2
3.444717989E0,5.858954508E-3,-1.917476021E-2,-2.663161233E-2
3.446732149E0,7.989482954E-3,-2.237055451E-2,-2.716424316E-2
3.448746309E0,9.054748341E-3,-2.183792181E-2,-3.036003746E-2
3.450729952E0,1.118527725E-2,-2.556634694E-2,-2.716424316E-2
3.452652559E0,1.118527725E-2,-2.822950855E-2,-2.929477207E-2
3.454697237E0,1.118527725E-2,-2.929477207E-2,-2.663161233E-2
3.456650362E0,1.384843793E-2,-2.982740477E-2,-2.822950855E-2
3.458664522E0,1.438106969E-2,-3.355583176E-2,-2.556634694E-2
3.460648164E0,1.331580617E-2,-3.355583176E-2,-2.290318534E-2
3.462631807E0,1.278317347E-2,-3.675162420E-2,-2.343581803E-2
3.464645967E0,1.118527725E-2,-3.728425503E-2,-2.396845073E-2
3.466660127E0,1.065264456E-2,-3.941478580E-2,-2.077265643E-2
3.468613252E0,7.989482954E-3,-3.675162420E-2,-2.237055451E-2
3.470627412E0,6.391586736E-3,-3.834952042E-2,-2.343581803E-2
3.472641573E0,3.728425596E-3,-3.515372798E-2,-2.183792181E-2
3.474655733E0,1.065264456E-3,-3.621899337E-2,-2.077265643E-2
3.476639375E0,0.000000000E0,-3.568635881E-2,-1.970739290E-2
3.478653536E0,0.000000000E0,-3.355583176E-2,-2.183792181E-2
3.480576143E0,-5.326322280E-4,-3.036003746E-2,-2.183792181E-2
3.482559786E0,-1.065264456E-3,-2.876213938E-2,-2.183792181E-2
3.484573946E0,-3.195793368E-3,-2.396845073E-2,-2.503371425E-2
3.486588106E0,-2.130528912E-3,-2.290318534E-2,-2.396845073E-2
3.488571748E0,-3.195793368E-3,-1.810949668E-2,-2.396845073E-2
3.490555391E0,-5.858954508E-3,-1.491370238E-2,-2.396845073E-2
3.492569551E0,-6.924218964E-3,-1.331580617E-2,-2.343581803E-2
3.494583711E0,-5.326322280E-3,-1.012001187E-2,-2.503371425E-2
3.496506319E0,-4.793690052E-3,-6.391586736E-3,-2.716424316E-2
3.498520479E0,-6.924218964E-3,-3.195793368E-3,-2.556634694E-2
3.500504121E0,-7.989482954E-3,-5.326322280E-4,-2.769687586E-2
3.502487764E0,-4.261057824E-3,1.597896684E-3,-2.663161233E-2
3.504501924E0,-4.261057824E-3,5.326322280E-3,-2.609897964E-2
3.506485567E0,-4.261057824E-3,5.326322280E-3,-2.769687586E-2
3.508438692E0,-4.261057824E-3,5.858954508E-3,-2.769687586E-2
3.510452852E0,-2.663161140E-3,3.195793368E-3,-2.396845073E-2
3.512436494E0,-6.391586736E-3,5.858954508E-3,-2.716424316E-2
3.514450655E0,-4.793690052E-3,4.261057824E-3,-2.343581803E-2
3.516434297E0,-3.728425596E-3,4.261057824E-3,-2.130528912E-2
3.518448457E0,-4.793690052E-3,5.858954508E-3,-2.077265643E-2
3.520432100E0,-5.326322280E-3,4.261057824E-3,-2.024002373E-2
3.522415743E0,-6.391586736E-3,0.000000000E0,-1.864212751E-2
3.524368868E0,-6.924218964E-3,-1.065264456E-3,-1.864212751E-2
3.526383028E0,-7.989482954E-3,-1.065264456E-3,-1.864212751E-2
3.528397188E0,-7.989482954E-3,-2.130528912E-3,-1.757686399E-2
3.530380830E0,-1.118527725E-2,-4.793690052E-3,-1.810949668E-2
3.532394991E0,-1.012001187E-2,-5.858954508E-3,-1.917476021E-2
3.534439668E0,-1.118527725E-2,-4.793690052E-3,-1.810949668E-2
3.536331758E0,-1.331580617E-2,-3.728425596E-3,-1.704423130E-2
3.538315401E0,-1.438106969E-2,5.326322280E-4,-1.757686399E-2
3.540329561E0,-1.225054078E-2,2.663161140E-3,-1.704423130E-2
3.542313203E0,-1.331580617E-2,3.195793368E-3,-1.757686399E-2
3.544327364E0,-1.597896591E-2,4.793690052E-3,-1.704423130E-2
3.546341524E0,-1.651159860E-2,7.989482954E-3,-1.651159860E-2
3.548355684E0,-1.331580617E-2,1.384843793E-2,-1.704423130E-2
3.550339327E0,-1.225054078E-2,1.278317347E-2,-1.864212751E-2
3.552292452E0,-1.384843793E-2,1.864212751E-2,-1.810949668E-2
3.554337129E0,-1.331580617E-2,2.024002373E-2,-1.864212751E-2
3.556290254E0,-1.384843793E-2,2.450108156E-2,-1.970739290E-2
3.558273897E0,-1.225054078E-2,2.290318534E-2,-2.077265643E-2
3.560288057E0,-1.491370238E-2,2.503371425E-2,-2.290318534E-2
3.562302217E0,-1.225054078E-2,2.290318534E-2,-1.917476021E-2
3.564224825E0,-1.171790902E-2,2.290318534E-2,-1.864212751E-2
3.566238985E0,-1.065264456E-2,2.556634694E-2,-1.970739290E-2
3.568253145E0,-1.171790902E-2,2.556634694E-2,-1.810949668E-2
3.570236787E0,-1.118527725E-2,2.769687586E-2,-2.024002373E-2
3.572250948E0,-9.054748341E-3,2.663161233E-2,-1.704423130E-2
3.574295625E0,-9.587380104E-3,2.716424316E-2,-1.757686399E-2
3.576248750E0,-1.118527725E-2,2.716424316E-2,-1.970739290E-2
3.578232393E0,-1.118527725E-2,3.036003746E-2,-1.917476021E-2
3.580185518E0,-7.989482954E-3,3.089267015E-2,-1.970739290E-2
3.582169161E0,-1.012001187E-2,3.462109342E-2,-1.810949668E-2
3.584183321E0,-7.989482954E-3,3.515372798E-2,-1.864212751E-2
3.586197481E0,-6.391586736E-3,3.515372798E-2,-1.864212751E-2
3.588211641E0,-5.858954508E-3,3.728425503E-2,-1.864212751E-2
3.590195284E0,-3.728425596E-3,3.781688958E-2,-2.024002373E-2
3.592148409E0,0.000000000E0,3.675162420E-2,-2.130528912E-2
3.594193086E0,1.597896684E-3,3.302319720E-2,-2.183792181E-2
3.596176729E0,4.793690052E-3,3.249056637E-2,-2.024002373E-2
3.598160371E0,7.989482954E-3,3.089267015E-2,-1.810949668E-2
3.600174532E0,7.456851192E-3,2.822950855E-2,-1.757686399E-2
3.602158174E0,1.065264456E-2,2.769687586E-2,-1.491370238E-2
3.604172334E0,9.054748341E-3,2.503371425E-2,-1.171790902E-2
3.606155977E0,9.054748341E-3,2.396845073E-2,-1.065264456E-2
3.608109102E0,9.587380104E-3,2.183792181E-2,-1.118527725E-2
3.610123262E0,1.012001187E-2,2.130528912E-2,-8.522115648E-3
3.612106905E0,9.587380104E-3,1.597896591E-2,-9.054748341E-3
3.614151582E0,7.989482954E-3,1.917476021E-2,-7.456851192E-3
3.616135225E0,5.858954508E-3,2.343581803E-2,-1.065264456E-2
3.618149385E0,4.793690052E-3,2.663161233E-2,-9.587380104E-3
3.620071993E0,3.728425596E-3,2.876213938E-2,-9.587380104E-3
3.622055635E0,4.261057824E-3,3.195793182E-2,-1.012001187E-2
3.624069795E0,3.195793368E-3,3.408846259E-2,-1.331580617E-2
3.626053438E0,4.261057824E-3,3.781688958E-2,-1.491370238E-2
3.628067598E0,5.326322280E-3,3.675162420E-2,-1.225054078E-2
3.630081758E0,3.195793368E-3,3.994741663E-2,-1.331580617E-2
3.632095918E0,2.663161140E-3,3.994741663E-2,-1.544633508E-2
3.634110078E0,1.065264456E-3,4.261057824E-2,-1.704423130E-2
3.636032686E0,3.728425596E-3,4.314320907E-2,-1.704423130E-2
3.638016328E0,0.000000000E0,4.420847446E-2,-1.757686399E-2
3.640030489E0,-1.065264456E-3,4.420847446E-2,-1.651159860E-2
3.642044649E0,-2.663161140E-3,4.420847446E-2,-1.757686399E-2
3.644058809E0,-5.858954508E-3,4.420847446E-2,-2.024002373E-2
3.646042452E0,-4.261057824E-3,4.580637068E-2,-1.917476021E-2
3.647995577E0,-4.261057824E-3,4.527373984E-2,-1.597896591E-2
3.650009737E0,-8.522115648E-3,4.846953228E-2,-1.597896591E-2
3.651993379E0,-6.391586736E-3,4.846953228E-2,-1.544633508E-2
3.654007539E0,-9.587380104E-3,4.633900523E-2,-1.651159860E-2
3.655991182E0,-9.054748341E-3,4.580637068E-2,-1.438106969E-2
3.657974825E0,-1.225054078E-2,4.474110901E-2,-1.438106969E-2
3.659988985E0,-1.171790902E-2,4.314320907E-2,-1.384843793E-2
3.662003145E0,-1.384843793E-2,4.687163606E-2,-1.118527725E-2
3.663925752E0,-1.278317347E-2,4.420847446E-2,-7.456851192E-3
3.665909395E0,-1.278317347E-2,4.261057824E-2,-7.989482954E-3
3.667923555E0,-1.012001187E-2,4.207794741E-2,-7.456851192E-3
3.669937715E0,-1.118527725E-2,4.207794741E-2,-5.326322280E-3
3.671921358E0,-6.924218964E-3,4.048004746E-2,-3.728425596E-3
3.673935518E0,-1.065264456E-2,4.101268202E-2,-5.858954508E-3
3.675858125E0,-7.456851192E-3,3.781688958E-2,-3.728425596E-3
3.677841768E0,-7.989482954E-3,3.994741663E-2,-3.728425596E-3
3.679855928E0,-8.522115648E-3,3.834952042E-2,-2.130528912E-3
3.681870088E0,-6.391586736E-3,3.621899337E-2,-5.326322280E-4
3.683884248E0,-5.858954508E-3,3.462109342E-2,-2.663161140E-3
3.685867891E0,-5.858954508E-3,3.249056637E-2,-3.728425596E-3
3.687882051E0,-6.391586736E-3,3.462109342E-2,-2.130528912E-3
3.689896211E0,-6.391586736E-3,3.462109342E-2,-1.065264456E-3
3.691818819E0,-5.858954508E-3,3.568635881E-2,-1.597896684E-3
3.693832979E0,-5.326322280E-3,3.675162420E-2,-1.065264456E-3
3.695816621E0,-4.261057824E-3,3.834952042E-2,0.000000000E0
3.697800264E0,-6.391586736E-3,3.994741663E-2,0.000000000E0
3.699814424E0,-6.391586736E-3,3.941478580E-2,-2.663161140E-3
3.701828584E0,-7.989482954E-3,3.888215125E-2,-1.597896684E-3
3.703781709E0,-7.989482954E-3,4.101268202E-2,-5.326322280E-4
3.705795869E0,-9.054748341E-3,4.207794741E-2,0.000000000E0
3.707810030E0,-8.522115648E-3,4.101268202E-2,-1.065264456E-3
3.709793672E0,-6.924218964E-3,4.474110901E-2,5.326322280E-4
3.711807832E0,-6.924218964E-3,4.367584363E-2,-4.261057824E-3
3.713852510E0,-8.522115648E-3,4.474110901E-2,-4.793690052E-3
3.715836153E0,-1.065264456E-2,4.207794741E-2,-5.326322280E-3
3.717819795E0,-7.456851192E-3,4.207794741E-2,-6.924218964E-3
3.719772920E0,-4.261057824E-3,4.261057824E-2,-7.456851192E-3
3.721756563E0,-5.326322280E-3,4.101268202E-2,-6.924218964E-3
3.723770723E0,-3.195793368E-3,4.314320907E-2,-4.793690052E-3
3.725784883E0,-5.326322280E-4,4.207794741E-2,-5.858954508E-3
3.727799043E0,2.663161140E-3,4.261057824E-2,-5.326322280E-3
3.729782686E0,2.130528912E-3,4.207794741E-2,-5.858954508E-3
3.731796846E0,5.858954508E-3,4.314320907E-2,-6.924218964E-3
3.733841524E0,6.391586736E-3,3.994741663E-2,-5.326322280E-3
3.735733614E0,6.924218964E-3,4.207794741E-2,-6.391586736E-3
3.737717256E0,9.587380104E-3,3.994741663E-2,-7.989482954E-3
3.739731416E0,9.587380104E-3,4.207794741E-2,-6.924218964E-3
3.741715059E0,1.118527725E-2,4.314320907E-2,-4.261057824E-3
3.743729219E0,9.054748341E-3,4.048004746E-2,-4.793690052E-3
3.745743379E0,8.522115648E-3,3.888215125E-2,-6.391586736E-3
3.747696504E0,9.054748341E-3,3.728425503E-2,-4.793690052E-3
3.749649629E0,8.522115648E-3,3.462109342E-2,-5.858954508E-3
3.751663789E0,7.456851192E-3,3.515372798E-2,-3.195793368E-3
3.753708467E0,7.456851192E-3,3.515372798E-2,-1.597896684E-3
3.755661592E0,5.326322280E-3,3.621899337E-2,-2.130528912E-3
3.757645235E0,2.130528912E-3,3.568635881E-2,-5.326322280E-4
3.759659395E0,1.597896684E-3,3.781688958E-2,5.326322280E-4
3.761673555E0,1.065264456E-3,3.941478580E-2,1.597896684E-3
3.763596162E0,5.326322280E-4,3.941478580E-2,2.663161140E-3
3.765579805E0,-2.663161140E-3,3.834952042E-2,4.793690052E-3
3.767593965E0,-2.130528912E-3,3.994741663E-2,6.391586736E-3
3.769577608E0,-5.858954508E-3,4.154531285E-2,7.989482954E-3
3.771591768E0,-5.326322280E-3,4.154531285E-2,7.456851192E-3
3.773636446E0,-9.054748341E-3,4.207794741E-2,1.118527725E-2
3.775559053E0,-7.456851192E-3,3.994741663E-2,1.225054078E-2
3.777573213E0,-9.587380104E-3,4.048004746E-2,1.491370238E-2
3.779587373E0,-1.065264456E-2,4.261057824E-2,1.491370238E-2
3.781571016E0,-1.171790902E-2,4.474110901E-2,1.651159860E-2
3.783585176E0,-1.171790902E-2,4.420847446E-2,1.651159860E-2
3.785599336E0,-1.171790902E-2,4.527373984E-2,1.491370238E-2
3.787582979E0,-1.065264456E-2,4.633900523E-2,1.704423130E-2
3.789566621E0,-9.587380104E-3,4.687163606E-2,1.704423130E-2
3.791519746E0,-7.989482954E-3,4.367584363E-2,1.491370238E-2
3.793533907E0,-9.054748341E-3,4.527373984E-2,1.491370238E-2
3.795517549E0,-9.054748341E-3,4.580637068E-2,1.704423130E-2
3.797531709E0,-9.587380104E-3,4.793690145E-2,1.651159860E-2
3.799545869E0,-9.587380104E-3,4.420847446E-2,1.757686399E-2
3.801529512E0,-7.989482954E-3,4.740426689E-2,1.864212751E-2
3.803482637E0,-5.858954508E-3,4.580637068E-2,1.597896591E-2
3.805496797E0,-2.130528912E-3,4.207794741E-2,1.757686399E-2
3.807480440E0,-5.326322280E-3,4.367584363E-2,1.491370238E-2
3.809464082E0,-3.728425596E-3,4.048004746E-2,1.704423130E-2
3.811478243E0,-2.663161140E-3,3.834952042E-2,1.491370238E-2
3.813522920E0,-4.261057824E-3,3.888215125E-2,1.757686399E-2
3.815476045E0,-5.326322280E-4,3.568635881E-2,1.917476021E-2
3.817459688E0,-3.728425596E-3,3.408846259E-2,1.438106969E-2
3.819382295E0,-1.065264456E-3,3.462109342E-2,1.384843793E-2
3.821365938E0,1.065264456E-3,3.515372798E-2,1.438106969E-2
3.823380098E0,1.065264456E-3,3.195793182E-2,1.331580617E-2
3.825394258E0,5.326322280E-4,3.249056637E-2,1.384843793E-2
3.827377901E0,3.195793368E-3,3.302319720E-2,1.225054078E-2
3.829361543E0,5.326322280E-3,3.195793182E-2,1.384843793E-2
3.831314668E0,7.456851192E-3,3.515372798E-2,1.171790902E-2
3.833328828E0,4.261057824E-3,3.089267015E-2,1.012001187E-2
3.835312471E0,6.391586736E-3,3.195793182E-2,1.171790902E-2
3.837326631E0,4.261057824E-3,3.302319720E-2,6.391586736E-3
3.839340791E0,6.391586736E-3,2.876213938E-2,7.989482954E-3
3.841324434E0,3.195793368E-3,2.769687586E-2,6.924218964E-3
3.843338594E0,5.326322280E-3,2.769687586E-2,7.989482954E-3
3.845352754E0,5.858954508E-3,2.450108156E-2,6.924218964E-3
3.847305879E0,4.261057824E-3,2.130528912E-2,5.326322280E-3
3.849320039E0,3.728425596E-3,2.237055451E-2,6.391586736E-3
3.851334200E0,6.924218964E-3,1.970739290E-2,9.054748341E-3
3.853378877E0,4.793690052E-3,2.024002373E-2,9.587380104E-3
3.855332002E0,4.261057824E-3,1.651159860E-2,9.587380104E-3
3.857346162E0,1.597896684E-3,1.651159860E-2,8.522115648E-3
3.859268770E0,3.195793368E-3,1.704423130E-2,1.065264456E-2
3.861252412E0,1.065264456E-3,1.917476021E-2,1.118527725E-2
3.863266573E0,0.000000000E0,2.024002373E-2,1.278317347E-2
3.865280733E0,-4.261057824E-3,1.917476021E-2,1.651159860E-2
3.867264375E0,-4.793690052E-3,2.396845073E-2,1.331580617E-2
3.869248018E0,-7.989482954E-3,2.077265643E-2,1.544633508E-2
3.871262178E0,-6.391586736E-3,2.450108156E-2,1.544633508E-2
3.873276338E0,-8.522115648E-3,2.024002373E-2,1.491370238E-2
3.875198946E0,-9.054748341E-3,2.130528912E-2,1.491370238E-2
3.877213106E0,-1.065264456E-2,2.396845073E-2,1.544633508E-2
3.879196748E0,-7.989482954E-3,2.183792181E-2,1.438106969E-2
3.881180391E0,-7.989482954E-3,2.237055451E-2,1.438106969E-2
3.883194551E0,-9.587380104E-3,2.130528912E-2,1.810949668E-2
3.885178194E0,-7.989482954E-3,2.396845073E-2,1.864212751E-2
3.887131319E0,-9.587380104E-3,2.396845073E-2,1.810949668E-2
3.889145479E0,-9.054748341E-3,2.503371425E-2,1.704423130E-2
3.891129121E0,-6.924218964E-3,2.716424316E-2,1.544633508E-2
3.893143282E0,-7.989482954E-3,2.609897964E-2,1.757686399E-2
3.895126924E0,-4.261057824E-3,2.503371425E-2,1.491370238E-2
3.897110567E0,-5.326322280E-3,2.556634694E-2,1.331580617E-2
3.899124727E0,-6.391586736E-3,2.556634694E-2,1.438106969E-2
3.901138887E0,-4.261057824E-3,2.503371425E-2,1.278317347E-2
3.903061494E0,-4.261057824E-3,2.343581803E-2,1.438106969E-2
3.905045137E0,0.000000000E0,2.237055451E-2,1.171790902E-2
3.907059297E0,3.195793368E-3,2.130528912E-2,1.065264456E-2
3.909073457E0,4.261057824E-3,2.077265643E-2,1.225054078E-2
3.911057100E0,3.728425596E-3,1.970739290E-2,9.587380104E-3
3.913071260E0,4.793690052E-3,1.757686399E-2,1.491370238E-2
3.914963350E0,5.858954508E-3,1.864212751E-2,1.171790902E-2
3.916946993E0,3.195793368E-3,1.384843793E-2,7.989482954E-3
3.918961153E0,6.391586736E-3,1.864212751E-2,1.171790902E-2
3.920975313E0,9.054748341E-3,1.438106969E-2,1.171790902E-2
3.922958955E0,7.989482954E-3,1.438106969E-2,1.171790902E-2
3.924942598E0,1.012001187E-2,1.278317347E-2,1.171790902E-2
3.926895723E0,1.065264456E-2,1.331580617E-2,1.384843793E-2
3.928879366E0,8.522115648E-3,9.054748341E-3,1.065264456E-2
3.930893526E0,1.544633508E-2,8.522115648E-3,1.438106969E-2
3.932938203E0,1.331580617E-2,1.118527725E-2,1.491370238E-2
3.934921846E0,1.491370238E-2,1.012001187E-2,1.544633508E-2
3.936905489E0,1.491370238E-2,1.225054078E-2,1.757686399E-2
3.938919649E0,1.278317347E-2,9.054748341E-3,1.704423130E-2
3.940933809E0,1.544633508E-2,8.522115648E-3,1.810949668E-2
3.942856416E0,1.544633508E-2,1.118527725E-2,1.917476021E-2
3.944840059E0,1.544633508E-2,1.012001187E-2,1.864212751E-2
3.946854219E0,1.597896591E-2,1.278317347E-2,2.130528912E-2
