Time (s),Acceleration x (m/s^2),Acceleration y (m/s^2),Acceleration z (m/s^2)
20.03,-0.18,9.34,1.25
20.04,-0.17,9.32,1.31
20.04,-0.12,9.33,1.31
20.04,-0.16,9.38,1.26
20.04,-0.14,9.37,1.25
20.05,-0.10,9.36,1.20
20.05,-0.08,9.34,1.18
20.05,-0.08,9.38,1.21
20.05,-0.09,9.38,1.19
20.06,-0.04,9.38,1.19
20.06,-0.05,9.39,1.20
20.06,0.01,9.39,1.15
20.06,0.01,9.38,1.11
20.07,0.00,9.38,1.19
20.07,0.02,9.35,1.16
20.07,0.00,9.38,1.11
20.07,0.06,9.41,1.13
20.08,0.04,9.38,1.13
20.08,0.02,9.37,1.16
20.08,0.04,9.32,1.13
20.08,0.05,9.31,1.16
20.09,0.05,9.33,1.13
20.09,0.04,9.34,1.06
20.09,0.04,9.32,1.12
20.09,0.06,9.32,1.16
20.10,0.06,9.33,1.13
20.10,0.05,9.31,1.11
20.10,0.09,9.28,1.15
20.10,0.08,9.33,1.16
20.11,0.10,9.32,1.17
20.11,0.12,9.32,1.15
20.11,0.10,9.33,1.16
20.11,0.09,9.33,1.13
20.12,0.11,9.31,1.18
20.12,0.08,9.40,1.13
20.12,0.11,9.39,1.13
20.12,0.13,9.34,1.10
20.13,0.12,9.38,1.08
20.13,0.13,9.37,1.07
20.13,0.14,9.36,1.07
20.13,0.11,9.35,1.07
20.14,0.06,9.38,1.07
20.14,0.05,9.42,1.03
20.14,0.06,9.38,1.04
20.14,0.03,9.39,1.07
20.15,0.00,9.42,1.05
20.15,0.01,9.42,1.02
20.15,0.01,9.36,1.00
20.15,-0.01,9.37,1.02
20.16,-0.02,9.36,1.04
20.16,-0.02,9.33,1.01
20.16,-0.06,9.33,1.10
20.16,-0.09,9.32,1.09
20.17,-0.13,9.33,1.05
20.17,-0.09,9.33,1.11
20.17,-0.08,9.31,1.18
20.17,-0.07,9.29,1.19
20.18,-0.08,9.25,1.19
20.18,-0.06,9.30,1.15
20.18,0.00,9.27,1.13
20.18,-0.08,9.32,1.17
20.19,-0.02,9.28,1.18
20.19,0.00,9.30,1.21
20.19,0.03,9.32,1.14
20.19,0.05,9.32,1.14
20.20,-0.01,9.35,1.11
20.20,0.03,9.32,1.11
20.20,0.05,9.30,1.11
20.20,0.06,9.35,1.11
20.21,0.04,9.36,1.11
20.21,0.05,9.37,1.11
20.21,0.05,9.39,1.05
20.21,0.04,9.41,1.08
20.22,0.03,9.37,1.10
20.22,0.00,9.37,1.07
20.22,-0.03,9.41,1.07
20.22,-0.01,9.46,1.06
20.23,-0.01,9.43,1.07
20.23,0.00,9.45,1.08
20.23,0.02,9.43,1.03
20.23,-0.03,9.45,1.05
20.24,0.00,9.44,1.01
20.24,-0.03,9.45,1.00
20.24,-0.04,9.46,1.01
20.24,-0.02,9.42,1.02
20.25,-0.06,9.39,0.99
20.25,-0.12,9.39,0.99
20.25,-0.07,9.39,0.97
20.25,-0.08,9.41,0.98
20.26,-0.10,9.43,1.02
20.26,-0.11,9.39,1.01
20.26,-0.09,9.38,0.97
20.26,-0.09,9.32,1.00
20.27,-0.12,9.33,1.07
20.27,-0.11,9.33,1.06
20.27,-0.12,9.26,0.97
20.27,-0.14,9.30,1.05
20.28,-0.15,9.36,1.05
20.28,-0.18,9.30,1.05
20.28,-0.18,9.28,1.04
20.28,-0.20,9.25,1.13
20.29,-0.18,9.28,1.13
20.29,-0.17,9.26,1.09
20.29,-0.17,9.31,1.14
20.29,-0.20,9.29,1.11
20.30,-0.15,9.27,1.13
20.30,-0.15,9.29,1.13
20.30,-0.19,9.27,1.19
20.30,-0.16,9.24,1.15
20.31,-0.12,9.30,1.14
20.31,-0.10,9.30,1.12
20.31,-0.13,9.29,1.13
20.31,-0.12,9.29,1.12
20.32,-0.12,9.29,1.17
20.32,-0.10,9.35,1.16
20.32,-0.12,9.34,1.11
20.32,-0.12,9.37,1.09
20.33,-0.12,9.40,1.12
20.33,-0.12,9.41,1.15
20.33,-0.15,9.42,1.09
20.33,-0.11,9.48,1.06
20.34,-0.11,9.46,1.10
20.34,-0.18,9.46,1.05
20.34,-0.15,9.47,1.07
20.34,-0.15,9.45,1.05
20.35,-0.18,9.49,1.03
20.35,-0.20,9.48,1.02
20.35,-0.24,9.44,1.02
20.35,-0.25,9.43,1.10
20.36,-0.23,9.44,1.13
20.36,-0.24,9.47,1.11
20.36,-0.26,9.43,1.10
20.36,-0.27,9.42,1.05
20.37,-0.27,9.41,1.09
20.37,-0.31,9.41,1.08
20.37,-0.30,9.42,1.10
20.37,-0.30,9.41,1.09
20.38,-0.33,9.39,1.06
20.38,-0.26,9.37,1.13
20.38,-0.30,9.40,1.11
20.38,-0.27,9.36,1.20
20.39,-0.25,9.35,1.22
20.39,-0.25,9.36,1.22
20.39,-0.22,9.36,1.24
20.39,-0.23,9.32,1.18
20.40,-0.30,9.32,1.23
20.40,-0.26,9.36,1.22
20.40,-0.23,9.35,1.22
20.40,-0.21,9.28,1.18
20.41,-0.22,9.30,1.23
20.41,-0.20,9.34,1.20
20.41,-0.16,9.31,1.16
20.41,-0.20,9.34,1.23
20.42,-0.15,9.35,1.19
20.42,-0.18,9.37,1.16
20.42,-0.18,9.35,1.20
20.42,-0.20,9.38,1.16
20.43,-0.21,9.38,1.13
20.43,-0.24,9.36,1.10
20.43,-0.22,9.36,1.09
20.43,-0.22,9.36,1.05
20.44,-0.18,9.37,1.02
20.44,-0.23,9.36,1.06
20.44,-0.25,9.38,1.05
20.44,-0.22,9.31,1.07
20.45,-0.21,9.38,1.02
20.45,-0.19,9.38,1.01
20.45,-0.16,9.38,1.03
20.45,-0.17,9.37,1.00
20.46,-0.18,9.39,1.04
20.46,-0.18,9.39,1.04
20.46,-0.18,9.40,1.05
20.46,-0.14,9.42,1.01
20.47,-0.19,9.39,1.05
20.47,-0.18,9.37,1.06
20.47,-0.12,9.42,1.04
20.47,-0.17,9.42,1.03
20.48,-0.18,9.37,1.08
20.48,-0.14,9.39,1.11
20.48,-0.11,9.41,1.08
20.48,-0.11,9.34,1.05
20.49,-0.14,9.34,1.06
20.49,-0.10,9.36,1.10
20.49,-0.09,9.36,1.01
20.49,-0.12,9.31,1.01
20.50,-0.12,9.32,1.05
20.50,-0.06,9.28,1.02
20.50,-0.08,9.26,0.99
20.50,-0.14,9.29,0.98
20.51,-0.15,9.30,1.03
20.51,-0.17,9.31,1.06
20.51,-0.15,9.29,1.07
20.51,-0.16,9.31,1.01
20.52,-0.14,9.31,1.06
20.52,-0.15,9.30,1.07
20.52,-0.14,9.35,1.08
20.52,-0.13,9.38,1.09
20.53,-0.15,9.36,1.11
20.53,-0.09,9.36,1.15
20.53,-0.11,9.37,1.11
20.53,-0.12,9.40,1.12
20.54,-0.12,9.42,1.16
20.54,-0.09,9.38,1.18
20.54,-0.12,9.37,1.17
20.54,-0.15,9.40,1.13
20.55,-0.04,9.41,1.08
20.55,-0.05,9.39,1.09
20.55,-0.06,9.40,1.08
20.55,-0.04,9.37,1.11
20.56,0.01,9.36,1.08
20.56,0.03,9.37,1.06
20.56,0.03,9.38,1.05
20.56,0.03,9.35,1.02
20.57,0.02,9.30,1.05
20.57,0.00,9.32,1.01
20.57,-0.01,9.30,0.99
20.57,-0.02,9.36,0.95
20.58,0.00,9.32,0.96
20.58,0.01,9.31,0.92
20.58,0.02,9.34,0.94
20.58,-0.09,9.29,0.95
20.59,-0.07,9.34,0.97
20.59,-0.07,9.34,0.99
20.59,-0.06,9.32,0.98
20.59,-0.12,9.29,1.01
20.60,-0.09,9.29,1.05
20.60,-0.11,9.29,1.06
20.60,-0.10,9.31,1.09
20.60,-0.10,9.30,1.06
20.61,-0.06,9.36,1.05
20.61,-0.09,9.35,1.00
20.61,-0.06,9.35,1.05
20.61,-0.07,9.38,1.02
20.62,-0.03,9.42,1.00
20.62,-0.06,9.40,1.01
20.62,-0.04,9.40,1.04
20.62,-0.02,9.40,1.02
20.63,-0.04,9.43,0.99
20.63,-0.05,9.41,0.96
20.63,-0.09,9.40,0.91
20.63,-0.01,9.45,0.95
20.64,-0.04,9.47,0.93
20.64,-0.07,9.44,1.00
20.64,-0.06,9.42,0.95
20.64,-0.04,9.42,0.95
20.65,-0.07,9.44,0.96
20.65,-0.07,9.41,0.97
20.65,-0.08,9.38,0.99
20.65,-0.07,9.36,0.94
20.66,-0.08,9.38,0.93
20.66,-0.07,9.38,0.95
20.66,-0.12,9.37,1.00
20.66,-0.14,9.33,0.99
20.67,-0.14,9.39,0.97
20.67,-0.14,9.36,0.99
20.67,-0.09,9.33,1.01
20.67,-0.13,9.34,1.02
20.68,-0.13,9.30,1.03
20.68,-0.12,9.32,1.00
20.68,-0.11,9.34,1.05
20.68,-0.10,9.32,1.03
20.69,-0.12,9.36,1.00
20.69,-0.15,9.37,1.02
20.69,-0.13,9.36,1.00
20.69,-0.16,9.36,1.03
20.70,-0.10,9.39,1.07
20.70,-0.10,9.40,1.05
20.70,-0.13,9.45,1.06
20.70,-0.11,9.46,1.09
20.71,-0.19,9.42,1.05
20.71,-0.16,9.39,1.04
20.71,-0.16,9.48,1.03
20.71,-0.18,9.43,0.99
20.72,-0.16,9.44,1.02
20.72,-0.16,9.42,1.02
20.72,-0.15,9.42,1.00
20.72,-0.16,9.41,0.98
20.73,-0.17,9.37,0.98
20.73,-0.17,9.40,0.96
20.73,-0.21,9.42,0.94
20.73,-0.23,9.40,0.93
20.74,-0.19,9.36,0.93
20.74,-0.22,9.35,0.93
20.74,-0.22,9.38,0.87
20.74,-0.25,9.38,0.96
20.75,-0.19,9.37,0.90
20.75,-0.20,9.37,0.88
20.75,-0.23,9.37,0.91
20.75,-0.19,9.37,0.87
20.76,-0.18,9.39,0.90
20.76,-0.18,9.42,0.90
20.76,-0.20,9.40,0.90
20.76,-0.16,9.39,0.92
20.77,-0.15,9.39,0.94
20.77,-0.18,9.37,0.95
20.77,-0.17,9.40,0.95
20.77,-0.15,9.36,0.95
20.78,-0.14,9.34,0.99
20.78,-0.11,9.37,0.96
20.78,-0.12,9.33,0.94
20.78,-0.11,9.35,0.97
20.79,-0.14,9.35,0.93
20.79,-0.14,9.34,0.85
20.79,-0.12,9.37,0.92
20.79,-0.11,9.30,0.91
20.80,-0.11,9.30,0.94
20.80,-0.10,9.35,0.96
20.80,-0.08,9.36,0.94
20.80,-0.11,9.36,0.94
20.81,-0.14,9.37,0.93
20.81,-0.12,9.38,0.91
20.81,-0.13,9.36,0.93
20.81,-0.12,9.40,0.92
20.82,-0.19,9.37,0.92
20.82,-0.16,9.37,0.90
20.82,-0.15,9.39,0.92
20.82,-0.13,9.38,0.93
20.83,-0.15,9.45,0.88
20.83,-0.15,9.45,0.90
20.83,-0.08,9.47,0.91
20.83,-0.08,9.45,0.84
20.84,-0.13,9.45,0.87
20.84,-0.14,9.44,0.83
20.84,-0.10,9.50,0.83
20.84,-0.05,9.49,0.88
20.85,-0.09,9.48,0.85
20.85,-0.13,9.49,0.82
20.85,-0.11,9.50,0.86
20.85,-0.10,9.47,0.87
20.86,-0.14,9.45,0.81
20.86,-0.10,9.45,0.85
20.86,-0.07,9.44,0.86
20.86,-0.11,9.41,0.92
20.87,-0.06,9.38,0.90
20.87,-0.05,9.34,0.91
20.87,-0.02,9.35,0.92
20.87,-0.03,9.35,0.87
20.88,-0.02,9.30,0.88
20.88,0.00,9.30,0.96
20.88,0.02,9.27,0.89
20.88,0.06,9.27,0.90
20.89,0.08,9.28,0.95
20.89,0.03,9.31,0.95
20.89,0.07,9.36,0.86
20.89,0.06,9.36,0.90
20.90,0.03,9.36,0.87
20.90,0.08,9.35,0.87
20.90,0.03,9.39,0.87
20.90,0.07,9.44,0.86
20.91,0.06,9.46,0.78
20.91,0.08,9.40,0.80
20.91,0.03,9.42,0.85
20.91,0.02,9.44,0.82
20.92,-0.01,9.43,0.80
20.92,-0.09,9.40,0.79
20.92,-0.11,9.38,0.85
20.92,-0.13,9.41,0.86
20.93,-0.17,9.40,0.93
20.93,-0.14,9.34,0.93
20.93,-0.14,9.33,0.89
20.93,-0.16,9.31,0.89
20.94,-0.12,9.34,0.91
20.94,-0.15,9.30,0.93
20.94,-0.15,9.38,0.90
20.94,-0.16,9.37,0.91
20.95,-0.14,9.36,0.86
20.95,-0.15,9.38,0.86
20.95,-0.16,9.39,0.79
20.95,-0.14,9.40,0.73
20.96,-0.12,9.41,0.75
20.96,-0.12,9.41,0.75
20.96,-0.14,9.41,0.72
20.96,-0.12,9.45,0.72
20.97,-0.11,9.47,0.73
20.97,-0.11,9.50,0.74
20.97,-0.09,9.48,0.73
20.97,-0.13,9.46,0.70
20.98,-0.12,9.49,0.68
20.98,-0.07,9.51,0.67
20.98,-0.12,9.46,0.68
20.98,-0.13,9.43,0.70
20.99,-0.13,9.43,0.71
20.99,-0.11,9.45,0.73
20.99,-0.12,9.44,0.72
20.99,-0.12,9.42,0.73
21.00,-0.23,9.39,0.76
21.00,-0.20,9.33,0.76
21.00,-0.17,9.30,0.76
21.00,-0.20,9.32,0.79
21.01,-0.23,9.27,0.82
21.01,-0.21,9.26,0.85
21.01,-0.19,9.21,0.87
21.01,-0.21,9.23,0.83
21.02,-0.20,9.20,0.81
21.02,-0.20,9.16,0.80
21.02,-0.20,9.20,0.82
21.02,-0.15,9.19,0.84
21.03,-0.18,9.23,0.82
21.03,-0.20,9.24,0.79
21.03,-0.17,9.27,0.78
21.03,-0.18,9.28,0.78
21.04,-0.15,9.27,0.75
21.04,-0.17,9.29,0.71
21.04,-0.19,9.36,0.71
21.04,-0.18,9.35,0.75
21.05,-0.18,9.35,0.68
21.05,-0.20,9.41,0.70
21.05,-0.24,9.39,0.67
21.05,-0.20,9.44,0.69
21.06,-0.21,9.44,0.71
21.06,-0.23,9.49,0.71
21.06,-0.22,9.47,0.69
21.06,-0.15,9.50,0.74
21.07,-0.18,9.49,0.78
21.07,-0.26,9.42,0.79
21.07,-0.23,9.42,0.79
21.07,-0.25,9.40,0.83
21.08,-0.26,9.39,0.81
21.08,-0.19,9.32,0.84
21.08,-0.18,9.30,0.87
21.08,-0.18,9.35,0.83
21.09,-0.17,9.31,0.84
21.09,-0.20,9.28,0.87
21.09,-0.17,9.33,0.86
21.09,-0.17,9.32,0.82
21.10,-0.18,9.25,0.81
21.10,-0.14,9.26,0.89
21.10,-0.11,9.25,0.84
21.10,-0.08,9.28,0.86
21.11,-0.13,9.36,0.84
21.11,-0.12,9.32,0.79
21.11,-0.13,9.33,0.85
21.11,-0.12,9.37,0.85
21.12,-0.10,9.37,0.77
21.12,-0.09,9.39,0.79
21.12,-0.12,9.39,0.86
21.12,-0.16,9.42,0.88
21.13,-0.12,9.43,0.89
21.13,-0.10,9.42,0.88
21.13,-0.13,9.43,0.87
21.13,-0.13,9.44,0.85
21.14,-0.10,9.50,0.92
21.14,-0.12,9.53,0.90
21.14,-0.14,9.51,0.94
21.14,-0.17,9.47,0.99
21.15,-0.18,9.47,0.96
21.15,-0.20,9.53,0.93
21.15,-0.21,9.46,0.93
21.15,-0.23,9.46,0.97
21.16,-0.21,9.45,0.97
21.16,-0.19,9.43,0.97
21.16,-0.24,9.41,0.97
21.16,-0.24,9.41,0.96
21.17,-0.25,9.41,0.96
21.17,-0.29,9.37,0.98
21.17,-0.29,9.35,0.99
21.17,-0.28,9.38,0.98
21.18,-0.30,9.30,0.90
21.18,-0.30,9.26,0.94
21.18,-0.29,9.27,0.91
21.18,-0.28,9.21,0.91
21.19,-0.30,9.24,0.97
21.19,-0.32,9.21,0.98
21.19,-0.30,9.17,1.00
21.19,-0.26,9.17,0.99
21.20,-0.32,9.17,1.02
21.20,-0.26,9.18,1.02
21.20,-0.28,9.15,1.05
21.20,-0.29,9.15,1.02
21.21,-0.28,9.15,1.03
21.21,-0.29,9.12,1.03
21.21,-0.28,9.13,1.03
21.21,-0.28,9.14,1.03
21.22,-0.29,9.14,0.98
21.22,-0.33,9.16,1.03
21.22,-0.33,9.15,1.02
21.22,-0.34,9.17,0.98
21.23,-0.34,9.20,1.00
21.23,-0.38,9.23,1.03
21.23,-0.42,9.25,0.97
21.23,-0.37,9.24,0.95
21.24,-0.38,9.27,1.01
21.24,-0.41,9.32,1.03
21.24,-0.40,9.33,0.98
21.24,-0.42,9.36,1.01
21.25,-0.43,9.37,1.02
21.25,-0.44,9.40,0.99
21.25,-0.42,9.39,0.96
21.25,-0.47,9.42,1.00
21.26,-0.50,9.46,1.02
21.26,-0.48,9.47,1.00
21.26,-0.47,9.48,1.03
21.26,-0.43,9.48,1.04
21.27,-0.42,9.50,1.04
21.27,-0.45,9.51,0.99
21.27,-0.45,9.54,1.00
21.27,-0.48,9.53,0.99
21.28,-0.49,9.52,1.00
21.28,-0.47,9.52,0.97
21.28,-0.49,9.49,0.96
21.28,-0.53,9.49,0.96
21.29,-0.52,9.43,0.91
21.29,-0.54,9.45,0.94
21.29,-0.58,9.45,0.95
21.29,-0.59,9.44,0.92
21.30,-0.58,9.43,0.93
21.30,-0.59,9.40,1.00
21.30,-0.60,9.42,0.99
21.30,-0.61,9.38,1.02
21.31,-0.58,9.39,1.03
21.31,-0.60,9.42,1.08
21.31,-0.63,9.44,1.09
21.31,-0.68,9.41,1.10
21.32,-0.65,9.40,1.10
21.32,-0.66,9.41,1.19
21.32,-0.67,9.40,1.18
21.32,-0.69,9.39,1.14
21.33,-0.64,9.41,1.19
21.33,-0.62,9.37,1.21
21.33,-0.66,9.39,1.18
21.33,-0.64,9.38,1.20
21.34,-0.60,9.41,1.24
21.34,-0.61,9.39,1.19
21.34,-0.57,9.38,1.14
21.34,-0.56,9.34,1.13
21.35,-0.59,9.34,1.17
21.35,-0.59,9.34,1.14
21.35,-0.59,9.30,1.11
21.35,-0.55,9.32,1.04
21.36,-0.58,9.34,0.98
21.36,-0.60,9.31,0.96
21.36,-0.64,9.32,0.99
21.36,-0.63,9.32,0.99
21.37,-0.62,9.32,0.96
21.37,-0.64,9.31,0.91
21.37,-0.65,9.29,0.93
21.37,-0.67,9.31,0.88
21.38,-0.69,9.31,0.89
21.38,-0.68,9.34,0.92
21.38,-0.65,9.31,0.85
21.38,-0.62,9.30,0.94
21.39,-0.64,9.26,0.93
21.39,-0.64,9.31,0.92
21.39,-0.62,9.32,0.98
21.39,-0.65,9.33,0.98
21.40,-0.66,9.31,1.01
21.40,-0.64,9.32,0.96
21.40,-0.64,9.36,0.98
21.40,-0.61,9.36,0.99
21.41,-0.63,9.38,0.99
21.41,-0.60,9.39,0.99
21.41,-0.62,9.38,1.05
21.41,-0.61,9.42,1.08
21.42,-0.61,9.39,1.07
21.42,-0.63,9.43,1.07
21.42,-0.62,9.41,1.07
21.42,-0.62,9.41,1.05
21.43,-0.64,9.39,1.09
21.43,-0.59,9.37,1.05
21.43,-0.60,9.35,1.06
21.43,-0.57,9.36,1.07
21.44,-0.56,9.33,1.03
21.44,-0.58,9.31,1.07
21.44,-0.59,9.28,1.01
21.44,-0.56,9.32,0.99
21.45,-0.57,9.33,1.00
21.45,-0.55,9.31,1.02
21.45,-0.54,9.30,1.05
21.45,-0.57,9.30,1.04
21.46,-0.60,9.31,0.99
21.46,-0.58,9.30,1.02
21.46,-0.61,9.24,1.03
21.46,-0.62,9.30,1.00
21.47,-0.60,9.29,1.00
21.47,-0.58,9.27,0.98
21.47,-0.62,9.28,1.01
21.47,-0.61,9.28,1.03
21.48,-0.61,9.30,1.09
21.48,-0.66,9.26,1.06
21.48,-0.61,9.26,1.05
21.48,-0.58,9.24,1.08
21.49,-0.59,9.30,1.07
21.49,-0.60,9.33,1.04
21.49,-0.59,9.32,1.04
21.49,-0.60,9.36,1.10
21.50,-0.60,9.33,1.07
21.50,-0.60,9.36,1.12
21.50,-0.57,9.37,1.14
21.50,-0.59,9.39,1.10
21.51,-0.57,9.47,1.07
21.51,-0.61,9.48,1.13
21.51,-0.59,9.48,1.07
21.51,-0.54,9.50,1.10
21.52,-0.57,9.47,1.03
21.52,-0.60,9.49,1.04
21.52,-0.59,9.48,1.04
21.52,-0.61,9.48,1.07
21.53,-0.56,9.47,1.03
21.53,-0.56,9.50,1.06
21.53,-0.56,9.49,1.05
21.53,-0.53,9.48,1.00
21.54,-0.52,9.48,1.05
21.54,-0.53,9.47,1.10
21.54,-0.54,9.43,1.07
21.54,-0.50,9.42,1.08
21.55,-0.49,9.44,1.05
21.55,-0.47,9.44,1.03
21.55,-0.48,9.39,1.11
21.55,-0.49,9.39,1.09
21.56,-0.45,9.35,1.07
21.56,-0.43,9.31,1.08
21.56,-0.49,9.30,1.07
21.56,-0.46,9.30,1.11
21.57,-0.47,9.29,1.11
21.57,-0.40,9.26,1.16
21.57,-0.38,9.28,1.18
21.57,-0.40,9.24,1.14
21.58,-0.36,9.24,1.20
21.58,-0.32,9.20,1.22
21.58,-0.33,9.20,1.23
21.58,-0.33,9.25,1.22
21.59,-0.30,9.23,1.26
21.59,-0.27,9.24,1.30
21.59,-0.29,9.24,1.29
21.59,-0.27,9.26,1.30
21.60,-0.26,9.26,1.27
21.60,-0.23,9.22,1.29
21.60,-0.17,9.26,1.28
21.60,-0.21,9.31,1.24
21.61,-0.18,9.29,1.23
21.61,-0.18,9.31,1.22
21.61,-0.20,9.30,1.17
21.61,-0.20,9.36,1.13
21.62,-0.19,9.35,1.10
21.62,-0.23,9.37,1.05
21.62,-0.24,9.38,1.07
21.62,-0.28,9.34,1.05
21.63,-0.27,9.35,1.05
21.63,-0.26,9.36,1.02
21.63,-0.29,9.34,0.99
21.63,-0.29,9.37,0.99
21.64,-0.33,9.38,1.00
21.64,-0.37,9.39,0.94
21.64,-0.35,9.32,0.90
21.64,-0.38,9.33,0.97
21.65,-0.39,9.39,0.93
21.65,-0.38,9.35,0.91
21.65,-0.45,9.32,0.96
21.65,-0.41,9.35,0.95
21.66,-0.47,9.38,0.95
21.66,-0.50,9.37,0.98
21.66,-0.52,9.39,0.98
21.66,-0.55,9.41,1.01
21.67,-0.59,9.43,0.98
21.67,-0.58,9.37,1.01
21.67,-0.60,9.38,1.01
21.67,-0.60,9.36,1.05
21.68,-0.63,9.30,1.05
21.68,-0.64,9.32,1.03
21.68,-0.68,9.29,1.05
21.68,-0.67,9.30,1.07
21.69,-0.67,9.29,1.11
21.69,-0.69,9.27,1.12
21.69,-0.65,9.29,1.12
21.69,-0.64,9.28,1.08
21.70,-0.63,9.23,1.03
21.70,-0.65,9.23,1.09
21.70,-0.59,9.28,1.10
21.70,-0.64,9.30,1.08
21.71,-0.61,9.30,1.15
21.71,-0.59,9.33,1.13
21.71,-0.61,9.34,1.11
21.71,-0.59,9.40,1.10
21.72,-0.60,9.37,1.11
21.72,-0.60,9.37,1.04
21.72,-0.61,9.38,1.08
21.72,-0.60,9.40,1.02
21.73,-0.66,9.42,1.07
21.73,-0.62,9.44,1.01
21.73,-0.56,9.43,1.01
21.73,-0.63,9.41,0.97
21.74,-0.66,9.45,0.95
21.74,-0.66,9.43,0.93
21.74,-0.62,9.40,0.90
21.74,-0.67,9.37,0.89
21.75,-0.74,9.42,0.87
21.75,-0.74,9.39,0.84
21.75,-0.69,9.35,0.78
21.75,-0.72,9.36,0.84
21.76,-0.72,9.34,0.82
21.76,-0.75,9.36,0.82
21.76,-0.78,9.36,0.84
21.76,-0.77,9.33,0.85
21.77,-0.81,9.25,0.81
21.77,-0.82,9.29,0.82
21.77,-0.78,9.30,0.79
21.77,-0.80,9.27,0.85
21.78,-0.78,9.25,0.89
21.78,-0.77,9.30,0.84
21.78,-0.75,9.25,0.89
21.78,-0.74,9.25,0.93
21.79,-0.75,9.29,0.89
21.79,-0.74,9.27,0.94
21.79,-0.73,9.27,1.01
21.79,-0.74,9.31,1.05
21.80,-0.71,9.31,1.05
21.80,-0.72,9.37,1.04
21.80,-0.72,9.41,1.03
21.80,-0.73,9.39,1.07
21.81,-0.75,9.42,1.04
21.81,-0.70,9.42,1.07
21.81,-0.71,9.42,1.01
21.81,-0.71,9.42,1.04
21.82,-0.68,9.46,1.05
21.82,-0.69,9.47,1.01
21.82,-0.64,9.52,1.04
21.82,-0.66,9.50,1.02
21.83,-0.63,9.51,1.01
21.83,-0.67,9.46,0.97
21.83,-0.67,9.44,0.92
21.83,-0.63,9.48,0.90
21.84,-0.63,9.47,0.87
21.84,-0.65,9.43,0.89
21.84,-0.63,9.42,0.85
21.84,-0.63,9.36,0.85
21.85,-0.58,9.38,0.79
21.85,-0.62,9.33,0.78
21.85,-0.63,9.30,0.74
21.85,-0.66,9.28,0.73
21.86,-0.59,9.24,0.70
21.86,-0.61,9.22,0.73
21.86,-0.67,9.18,0.70
21.86,-0.68,9.17,0.72
21.87,-0.65,9.14,0.77
21.87,-0.66,9.10,0.76
21.87,-0.65,9.08,0.74
21.87,-0.66,9.09,0.75
21.88,-0.65,9.06,0.79
21.88,-0.64,9.06,0.86
21.88,-0.62,9.04,0.90
21.88,-0.63,9.08,0.92
21.89,-0.63,9.10,0.93
21.89,-0.57,9.17,0.99
21.89,-0.57,9.21,0.93
21.89,-0.58,9.23,0.95
21.90,-0.56,9.26,0.96
21.90,-0.54,9.27,1.00
21.90,-0.51,9.32,0.97
21.90,-0.51,9.34,0.92
21.91,-0.48,9.35,0.93
21.91,-0.51,9.38,0.92
21.91,-0.47,9.37,0.95
21.91,-0.47,9.37,0.94
21.92,-0.42,9.43,0.90
21.92,-0.43,9.43,0.86
21.92,-0.41,9.47,0.88
21.92,-0.42,9.47,0.84
21.93,-0.38,9.47,0.83
21.93,-0.36,9.49,0.83
21.93,-0.37,9.51,0.78
21.93,-0.42,9.49,0.79
21.94,-0.40,9.51,0.73
21.94,-0.38,9.53,0.75
21.94,-0.41,9.49,0.72
21.94,-0.43,9.48,0.73
21.95,-0.42,9.49,0.73
21.95,-0.45,9.46,0.71
21.95,-0.40,9.44,0.72
21.95,-0.45,9.43,0.73
21.96,-0.45,9.39,0.77
21.96,-0.47,9.35,0.78
21.96,-0.49,9.38,0.77
21.96,-0.47,9.35,0.72
21.97,-0.47,9.36,0.76
21.97,-0.54,9.34,0.82
21.97,-0.52,9.28,0.83
21.97,-0.48,9.28,0.85
21.98,-0.47,9.26,0.87
21.98,-0.47,9.25,0.86
21.98,-0.48,9.26,0.93
21.98,-0.49,9.24,0.85
21.99,-0.47,9.22,0.87
21.99,-0.45,9.25,0.93
21.99,-0.43,9.26,0.87
21.99,-0.47,9.24,0.91
22.00,-0.46,9.26,0.90
22.00,-0.43,9.29,0.92
22.00,-0.42,9.26,0.92
22.01,-0.40,9.28,0.86
22.01,-0.37,9.34,0.87
22.01,-0.36,9.34,0.86
22.01,-0.39,9.32,0.85
22.01,-0.34,9.38,0.82
22.02,-0.35,9.41,0.81
22.02,-0.36,9.42,0.78
22.02,-0.31,9.45,0.81
22.02,-0.28,9.49,0.77
22.03,-0.29,9.51,0.72
22.03,-0.31,9.50,0.70
22.03,-0.30,9.53,0.71
22.03,-0.30,9.56,0.73
22.04,-0.27,9.54,0.72
22.04,-0.26,9.57,0.72
22.04,-0.26,9.54,0.72
22.04,-0.24,9.55,0.71
22.05,-0.27,9.56,0.72
22.05,-0.25,9.53,0.72
22.05,-0.24,9.52,0.66
22.05,-0.25,9.48,0.66
22.06,-0.25,9.46,0.70
22.06,-0.26,9.40,0.66
22.06,-0.28,9.41,0.67
22.06,-0.28,9.36,0.71
22.07,-0.32,9.35,0.68
22.07,-0.32,9.30,0.68
22.07,-0.32,9.23,0.72
22.07,-0.32,9.28,0.77
22.08,-0.35,9.23,0.72
22.08,-0.35,9.16,0.74
22.08,-0.32,9.15,0.80
22.08,-0.33,9.18,0.87
22.09,-0.34,9.15,0.89
22.09,-0.36,9.20,0.92
22.09,-0.36,9.18,0.90
22.09,-0.28,9.17,0.98
22.10,-0.34,9.14,1.08
22.10,-0.33,9.18,1.02
22.10,-0.34,9.18,1.05
22.10,-0.34,9.21,1.07
22.11,-0.29,9.25,1.03
22.11,-0.31,9.32,1.04
22.11,-0.31,9.38,1.05
22.11,-0.31,9.38,1.00
22.12,-0.28,9.42,1.02
22.12,-0.28,9.46,1.03
22.12,-0.30,9.48,0.96
22.12,-0.34,9.51,0.89
22.13,-0.34,9.51,0.90
22.13,-0.38,9.59,0.85
22.13,-0.37,9.54,0.77
22.13,-0.37,9.57,0.71
22.14,-0.39,9.60,0.71
22.14,-0.44,9.56,0.67
22.14,-0.49,9.57,0.66
22.14,-0.53,9.59,0.65
22.15,-0.54,9.49,0.65
22.15,-0.52,9.50,0.64
22.15,-0.55,9.53,0.61
22.15,-0.55,9.47,0.61
22.16,-0.56,9.40,0.62
22.16,-0.57,9.41,0.64
22.16,-0.54,9.35,0.66
22.16,-0.55,9.32,0.68
22.17,-0.58,9.29,0.69
22.17,-0.56,9.25,0.76
22.17,-0.58,9.20,0.80
22.17,-0.57,9.20,0.87
22.18,-0.60,9.18,0.90
22.18,-0.59,9.17,0.95
22.18,-0.61,9.16,1.00
22.18,-0.58,9.17,1.02
22.19,-0.58,9.18,1.09
22.19,-0.56,9.25,1.07
22.19,-0.56,9.24,1.13
22.19,-0.57,9.23,1.15
22.20,-0.51,9.26,1.13
22.20,-0.54,9.29,1.14
22.20,-0.54,9.34,1.21
22.20,-0.51,9.34,1.17
22.21,-0.47,9.32,1.11
22.21,-0.46,9.39,1.09
22.21,-0.47,9.39,1.06
22.21,-0.48,9.37,1.02
22.22,-0.42,9.43,0.97
22.22,-0.42,9.41,0.93
22.22,-0.43,9.41,0.92
22.22,-0.40,9.36,0.92
22.23,-0.40,9.33,0.91
22.23,-0.36,9.34,0.89
22.23,-0.34,9.34,0.81
22.23,-0.30,9.29,0.76
22.24,-0.27,9.29,0.77
22.24,-0.32,9.25,0.77
22.24,-0.31,9.23,0.78
22.24,-0.29,9.21,0.75
22.25,-0.28,9.18,0.72
22.25,-0.27,9.16,0.73
22.25,-0.24,9.11,0.77
22.25,-0.31,9.10,0.76
22.26,-0.31,9.15,0.79
22.26,-0.26,9.09,0.87
22.26,-0.29,9.09,0.89
22.26,-0.26,9.15,0.87
22.27,-0.28,9.15,0.94
22.27,-0.27,9.21,0.99
22.27,-0.34,9.21,0.98
22.27,-0.38,9.33,1.04
22.28,-0.43,9.45,1.12
22.28,-0.45,9.45,1.10
22.28,-0.52,9.51,1.10
22.28,-0.51,9.57,1.14
22.29,-0.54,9.61,1.18
22.29,-0.53,9.63,1.18
22.29,-0.53,9.69,1.14
22.29,-0.51,9.71,1.17
22.30,-0.47,9.75,1.14
22.30,-0.47,9.75,1.07
22.30,-0.37,9.78,1.09
22.30,-0.36,9.81,1.06
22.31,-0.33,9.81,0.98
22.31,-0.32,9.78,0.91
22.31,-0.33,9.79,0.85
22.31,-0.30,9.77,0.75
22.32,-0.31,9.75,0.72
22.32,-0.28,9.75,0.67
22.32,-0.28,9.75,0.59
22.32,-0.22,9.75,0.53
22.33,-0.24,9.76,0.54
22.33,-0.16,9.72,0.49
22.33,-0.17,9.76,0.47
22.33,-0.16,9.81,0.41
22.34,-0.16,9.80,0.44
22.34,-0.18,9.77,0.45
22.34,-0.20,9.78,0.43
22.34,-0.17,9.81,0.44
22.35,-0.19,9.78,0.41
22.35,-0.20,9.75,0.44
22.35,-0.20,9.74,0.43
22.35,-0.16,9.65,0.44
22.36,-0.19,9.62,0.51
22.36,-0.22,9.55,0.58
22.36,-0.20,9.50,0.69
22.36,-0.24,9.41,0.77
22.37,-0.27,9.33,0.78
22.37,-0.25,9.32,0.79
22.37,-0.22,9.25,0.83
22.37,-0.20,9.18,0.79
22.38,-0.15,9.13,0.71
22.38,-0.18,9.08,0.63
22.38,-0.16,9.02,0.52
22.38,-0.12,9.00,0.45
22.39,-0.09,8.96,0.31
22.39,0.04,8.91,0.18
22.39,0.08,8.80,0.11
22.39,0.14,8.76,0.02
22.40,0.22,8.72,-0.02
22.40,0.20,8.65,-0.07
22.40,0.24,8.63,-0.07
22.40,0.25,8.57,0.02
22.41,0.22,8.55,0.01
22.41,0.25,8.52,-0.04
22.41,0.20,8.56,0.06
22.41,0.19,8.56,0.15
22.42,0.19,8.56,0.35
22.42,0.13,8.59,0.34
22.42,0.08,8.64,0.53
22.42,0.06,8.70,0.60
22.43,0.07,8.73,0.72
22.43,0.02,8.80,0.89
22.43,0.06,8.87,1.05
22.43,0.06,8.95,1.21
22.44,0.08,9.00,1.41
22.44,0.13,9.02,1.45
22.44,0.15,9.07,1.56
22.44,0.23,9.11,1.66
22.45,0.28,9.16,1.66
22.45,0.40,9.18,1.65
22.45,0.50,9.24,1.66
22.45,0.56,9.21,1.69
22.46,0.65,9.30,1.71
22.46,0.75,9.32,1.64
22.46,0.84,9.35,1.55
22.46,0.95,9.33,1.52
22.47,0.98,9.34,1.52
22.47,1.04,9.39,1.41
22.47,1.11,9.37,1.35
22.47,1.16,9.34,1.34
22.48,1.20,9.30,1.26
22.48,1.21,9.30,1.19
22.48,1.16,9.25,1.15
22.48,1.13,9.20,1.14
22.49,1.08,9.18,1.17
22.49,1.01,9.12,1.08
22.49,0.95,9.08,1.08
22.49,0.87,9.11,1.11
22.50,0.77,9.18,1.15
22.50,0.71,9.22,1.14
22.50,0.67,9.28,1.27
22.50,0.61,9.38,1.35
22.51,0.60,9.47,1.45
22.51,0.61,9.52,1.52
22.51,0.61,9.57,1.56
22.51,0.59,9.63,1.53
22.52,0.57,9.61,1.51
22.52,0.61,9.63,1.43
22.52,0.64,9.61,1.43
22.52,0.63,9.59,1.16
22.53,0.61,9.56,0.98
22.53,0.60,9.51,0.83
22.53,0.57,9.45,0.70
22.53,0.54,9.41,0.57
22.54,0.54,9.32,0.43
22.54,0.54,9.27,0.38
22.54,0.52,9.22,0.30
22.54,0.48,9.18,0.27
22.55,0.47,9.17,0.24
22.55,0.42,9.21,0.19
22.55,0.40,9.28,0.17
22.55,0.36,9.30,0.24
22.56,0.23,9.35,0.38
22.56,0.18,9.35,0.56
22.56,0.17,9.36,0.68
22.56,0.13,9.35,0.77
22.57,0.12,9.25,0.81
22.57,0.15,9.19,0.82
22.57,0.20,9.19,0.82
22.57,0.22,9.19,0.82
22.58,0.23,9.16,0.80
22.58,0.23,9.14,0.77
22.58,0.20,9.15,0.69
22.58,0.17,9.13,0.56
22.59,0.18,9.17,0.51
22.59,0.12,9.19,0.38
22.59,0.09,9.18,0.27
22.59,0.11,9.17,0.20
22.60,0.16,9.18,0.14
22.60,0.14,9.16,0.15
22.60,0.12,9.17,0.19
22.60,0.06,9.21,0.22
22.61,0.03,9.15,0.28
22.61,0.01,9.20,0.32
22.61,-0.05,9.25,0.40
22.61,-0.14,9.23,0.50
22.62,-0.14,9.30,0.52
22.62,-0.24,9.34,0.60
22.62,-0.28,9.30,0.69
22.62,-0.26,9.35,0.76
22.63,-0.25,9.38,0.81
22.63,-0.25,9.35,0.82
22.63,-0.28,9.40,0.91
22.63,-0.32,9.50,0.95
22.64,-0.39,9.55,1.02
22.64,-0.50,9.55,1.12
22.64,-0.52,9.53,1.33
22.64,-0.58,9.56,1.58
22.65,-0.55,9.57,1.61
22.65,-0.52,9.57,1.67
22.65,-0.51,9.59,1.65
22.65,-0.54,9.62,1.58
22.66,-0.57,9.64,1.54
22.66,-0.71,9.60,1.55
22.66,-0.85,9.54,1.81
22.66,-0.88,9.41,2.05
22.67,-0.90,9.33,2.38
22.67,-0.86,9.25,2.57
22.67,-0.87,9.15,2.69
22.67,-0.87,9.06,2.93
22.68,-0.77,8.95,3.12
22.68,-0.67,8.84,3.30
22.68,-0.52,8.75,3.48
22.68,-0.37,8.68,3.56
22.69,-0.22,8.58,3.72
22.69,-0.13,8.55,3.85
22.69,-0.03,8.57,3.97
22.69,0.03,8.54,4.01
22.70,-0.01,8.54,4.04
22.70,-0.01,8.60,4.17
22.70,-0.02,8.60,4.38
22.70,-0.12,8.60,4.46
22.71,-0.18,8.60,4.61
22.71,-0.26,8.64,4.73
22.71,-0.32,8.73,4.77
22.71,-0.49,8.82,4.85
22.72,-0.59,8.88,5.03
22.72,-0.63,8.97,5.17
22.72,-0.80,9.04,5.33
22.73,-0.92,9.08,5.49
22.73,-1.01,9.17,5.60
22.73,-1.09,9.21,5.65
22.73,-1.14,9.23,5.82
22.73,-1.19,9.32,5.94
22.74,-1.22,9.31,5.98
22.74,-1.17,9.30,5.97
22.74,-1.13,9.35,6.02
22.74,-1.09,9.31,5.92
22.75,-1.01,9.32,5.72
22.75,-0.87,9.29,5.59
22.75,-0.74,9.29,5.26
22.75,-0.59,9.27,5.09
22.76,-0.42,9.24,4.80
22.76,-0.29,9.26,4.53
22.76,-0.15,9.21,4.18
22.76,0.04,9.15,4.03
22.77,0.16,9.15,3.84
22.77,0.25,9.10,3.62
22.77,0.39,9.03,3.44
22.77,0.48,9.00,3.31
22.78,0.55,8.96,3.25
22.78,0.59,8.94,3.13
22.78,0.62,8.92,3.04
22.78,0.67,8.86,3.00
22.79,0.74,8.89,2.98
22.79,0.81,8.90,2.96
22.79,0.81,8.88,2.97
22.79,0.79,8.84,3.06
22.80,0.81,8.84,3.07
22.80,0.77,8.86,3.15
22.80,0.72,8.83,3.24
22.80,0.67,8.84,3.29
22.81,0.60,8.81,3.37
22.81,0.54,8.76,3.38
22.81,0.50,8.71,3.38
22.81,0.48,8.63,3.38
22.82,0.46,8.58,3.38
22.82,0.48,8.49,3.35
22.82,0.46,8.47,3.35
22.82,0.48,8.42,3.32
22.83,0.47,8.36,3.22
22.83,0.50,8.32,3.19
22.83,0.50,8.33,3.15
22.83,0.48,8.33,3.08
22.84,0.51,8.32,3.05
22.84,0.49,8.35,2.99
22.84,0.44,8.41,2.94
22.84,0.48,8.45,2.84
22.85,0.46,8.53,2.80
22.85,0.47,8.60,2.77
22.85,0.45,8.66,2.75
22.85,0.40,8.79,2.72
22.86,0.39,8.82,2.67
22.86,0.33,8.90,2.66
22.86,0.29,8.96,2.70
22.86,0.25,9.01,2.75
22.87,0.25,9.07,2.78
22.87,0.21,9.05,2.82
22.87,0.17,9.08,2.84
22.87,0.16,9.07,2.76
22.88,0.11,9.08,2.78
22.88,0.05,9.09,2.82
22.88,0.02,9.08,2.79
22.88,0.01,9.06,2.80
22.89,0.03,9.03,2.81
22.89,0.07,8.96,2.82
22.89,0.06,8.93,2.92
22.89,0.08,8.89,2.92
22.90,0.03,8.85,2.94
22.90,0.04,8.76,2.88
22.90,0.06,8.63,2.91
22.90,0.03,8.59,2.99
22.91,0.03,8.47,3.04
22.91,0.00,8.38,2.99
22.91,0.06,8.28,3.03
22.91,-0.04,8.18,3.12
22.92,-0.05,8.14,3.21
22.92,-0.07,8.06,3.31
22.92,-0.07,7.98,3.51
22.92,0.00,7.91,3.66
22.93,0.05,7.87,3.70
22.93,0.04,7.91,3.80
22.93,0.10,7.90,3.87
22.93,0.11,7.92,3.91
22.94,0.17,8.00,3.87
22.94,0.27,8.09,3.96
22.94,0.32,8.13,4.08
22.94,0.36,8.17,4.09
22.95,0.37,8.34,3.98
22.95,0.43,8.44,3.95
22.95,0.44,8.53,4.04
22.95,0.51,8.68,3.99
22.96,0.55,8.80,3.98
22.96,0.55,8.94,4.00
22.96,0.60,9.10,3.92
22.96,0.63,9.23,4.00
22.97,0.68,9.39,4.09
22.97,0.71,9.51,4.15
22.97,0.72,9.72,4.13
22.97,0.71,9.81,4.10
22.98,0.74,9.90,4.14
22.98,0.71,10.05,4.12
22.98,0.68,10.14,4.04
22.98,0.65,10.20,4.02
22.99,0.58,10.23,3.94
22.99,0.51,10.22,3.83
22.99,0.38,10.19,3.75
22.99,0.28,10.20,3.65
23.00,0.27,10.16,3.64
23.00,0.20,10.07,3.65
23.00,0.06,9.98,3.69
23.01,-0.04,9.92,3.72
23.01,-0.15,9.89,3.68
23.01,-0.28,9.84,3.65
23.01,-0.34,9.76,3.56
23.01,-0.46,9.67,3.50
23.02,-0.58,9.65,3.42
23.02,-0.66,9.63,3.40
23.02,-0.76,9.57,3.44
23.02,-0.85,9.39,3.35
23.03,-1.11,9.31,3.24
23.03,-1.30,9.27,3.26
23.03,-1.48,9.22,3.25
23.03,-1.68,9.15,3.20
23.04,-1.89,9.06,3.17
23.04,-2.04,9.03,3.07
23.04,-2.25,8.97,3.07
23.04,-2.45,8.90,3.07
23.05,-2.58,8.91,3.14
23.05,-2.84,8.91,3.21
23.05,-3.00,8.86,3.21
23.05,-3.12,8.85,3.32
23.06,-3.29,8.84,3.36
23.06,-3.40,8.88,3.32
23.06,-3.50,8.89,3.41
23.06,-3.53,8.91,3.44
23.07,-3.57,8.95,3.53
23.07,-3.63,8.95,3.48
23.07,-3.63,8.99,3.49
23.07,-3.59,8.96,3.64
23.08,-3.49,8.96,3.59
23.08,-3.34,8.95,3.60
23.08,-3.23,8.93,3.69
23.08,-3.05,8.91,3.74
23.09,-3.03,8.87,3.78
23.09,-2.97,8.87,3.94
23.09,-2.82,8.93,4.11
23.09,-2.59,8.94,4.25
23.10,-2.42,9.00,4.45
23.10,-2.23,9.12,4.73
23.10,-2.04,9.18,4.98
23.10,-1.83,9.29,5.26
23.11,-1.67,9.43,5.52
23.11,-1.49,9.59,5.77
23.11,-1.33,9.63,5.90
23.11,-1.22,9.75,6.07
23.12,-1.04,9.89,6.18
23.12,-0.89,10.01,6.26
23.12,-0.72,10.08,6.42
23.12,-0.52,10.22,6.42
23.13,-0.28,10.35,6.33
23.13,-0.07,10.38,6.25
23.13,0.12,10.48,6.22
23.13,0.33,10.61,6.09
23.14,0.54,10.68,5.91
23.14,0.76,10.74,5.77
23.14,0.94,10.79,5.65
23.14,1.11,10.79,5.50
23.15,1.17,10.81,5.31
23.15,1.18,10.71,5.13
23.15,1.12,10.54,4.94
23.15,1.03,10.41,4.68
23.16,0.93,10.25,4.52
23.16,0.79,10.05,4.25
23.16,0.64,9.92,4.01
23.16,0.56,9.74,3.81
23.17,0.37,9.59,3.61
23.17,0.23,9.45,3.38
23.17,0.07,9.22,3.27
23.17,-0.02,9.01,3.13
23.18,-0.15,8.92,3.03
23.18,-0.36,8.82,2.83
23.18,-0.48,8.71,2.68
23.18,-0.64,8.62,2.59
23.19,-0.82,8.58,2.43
23.19,-0.97,8.55,2.35
23.19,-1.11,8.56,2.26
23.19,-1.17,8.63,2.21
23.20,-1.23,8.63,2.09
23.20,-1.21,8.65,1.91
23.20,-1.15,8.77,1.84
23.20,-1.15,8.82,1.76
23.21,-1.12,8.87,1.63
23.21,-1.07,8.90,1.58
23.21,-1.06,8.92,1.48
23.21,-1.02,8.94,1.42
23.22,-1.08,8.92,1.35
23.22,-1.19,8.93,1.32
23.22,-1.29,8.89,1.27
23.22,-1.37,8.85,1.28
23.23,-1.46,8.83,1.28
23.23,-1.54,8.78,1.27
23.23,-1.61,8.74,1.27
23.23,-1.73,8.68,1.35
23.24,-1.82,8.59,1.46
23.24,-1.96,8.48,1.50
23.24,-2.06,8.39,1.52
23.24,-2.19,8.29,1.66
23.25,-2.36,8.13,1.65
23.25,-2.53,8.09,1.68
23.25,-2.71,7.98,1.68
23.25,-2.86,7.84,1.71
23.26,-2.95,7.72,1.80
23.26,-3.04,7.61,1.85
23.26,-3.11,7.57,1.90
23.26,-3.18,7.47,2.02
23.27,-3.12,7.43,2.10
23.27,-3.16,7.40,2.18
23.27,-3.15,7.36,2.23
23.27,-3.11,7.38,2.26
23.28,-3.10,7.47,2.17
23.28,-3.10,7.52,2.04
23.28,-3.03,7.64,1.97
23.28,-2.94,7.76,1.99
23.29,-2.76,7.94,1.92
23.29,-2.60,8.23,1.75
23.29,-2.48,8.43,1.63
23.29,-2.22,8.73,1.45
23.30,-1.88,9.08,1.13
23.30,-1.57,9.40,0.86
23.30,-1.24,9.70,0.60
23.30,-0.90,9.96,0.26
23.31,-0.56,10.17,-0.03
23.31,-0.31,10.36,-0.34
23.31,-0.07,10.55,-0.61
23.31,0.13,10.77,-0.93
23.32,0.25,10.98,-1.23
23.32,0.37,11.22,-1.60
23.32,0.50,11.40,-1.85
23.32,0.59,11.57,-1.97
23.33,0.61,11.73,-2.14
23.33,0.64,11.89,-2.40
23.33,0.88,11.96,-2.61
23.33,0.98,12.01,-2.80
23.34,1.05,12.05,-2.92
23.34,0.99,12.06,-2.93
23.34,0.88,12.02,-2.87
23.34,0.68,12.00,-2.87
23.35,0.48,11.96,-2.96
23.35,0.20,11.97,-2.98
23.35,-0.05,11.95,-2.97
23.35,-0.18,11.94,-2.96
23.36,-0.25,12.00,-2.85
23.36,-0.26,12.04,-2.56
23.36,-0.24,12.03,-1.99
23.36,-0.18,11.89,-1.45
23.37,-0.12,11.74,-1.00
23.37,-0.09,11.60,-0.60
23.37,0.02,11.43,-0.32
23.37,0.15,11.18,-0.07
23.38,0.27,10.90,0.18
23.38,0.36,10.57,0.28
23.38,0.36,10.31,0.34
23.38,0.26,10.12,0.52
23.39,0.24,9.91,0.72
23.39,0.44,9.80,1.08
23.39,0.66,9.63,1.42
23.39,0.78,9.49,1.56
23.40,0.89,9.43,1.61
23.40,0.97,9.28,1.65
23.40,1.03,9.24,1.79
23.40,1.13,9.18,1.96
23.41,1.29,9.06,2.16
23.41,1.32,9.00,2.33
23.41,1.41,8.96,2.39
23.41,1.44,8.88,2.45
23.42,1.47,8.85,2.50
23.42,1.44,8.81,2.56
23.42,1.30,8.81,2.48
23.42,1.01,8.86,2.27
23.43,0.86,9.04,2.07
23.43,0.72,9.11,1.80
23.43,0.57,9.11,1.53
23.43,0.56,9.09,1.20
23.44,0.60,9.11,1.07
23.44,0.70,9.14,0.94
23.44,0.87,9.19,0.93
23.44,0.98,9.25,1.01
23.45,1.08,9.24,1.15
23.45,1.07,9.24,1.27
23.45,1.06,9.22,1.41
23.45,1.10,9.24,1.46
23.46,1.11,9.26,1.53
23.46,1.16,9.30,1.68
23.46,1.22,9.31,1.81
23.46,1.25,9.36,1.87
23.47,1.24,9.37,1.97
23.47,1.21,9.34,2.05
23.47,1.26,9.32,2.16
23.47,1.32,9.23,2.30
23.48,1.38,9.15,2.37
23.48,1.42,9.07,2.48
23.48,1.50,9.02,2.57
23.48,1.57,8.96,2.62
23.49,1.66,8.84,2.72
23.49,1.63,8.77,2.73
23.49,1.63,8.74,2.78
23.49,1.61,8.71,2.84
23.50,1.51,8.63,2.95
23.50,1.40,8.60,3.00
23.50,1.36,8.57,3.05
23.50,1.32,8.47,3.05
23.51,1.20,8.48,3.04
23.51,1.11,8.46,3.09
23.51,0.97,8.37,3.06
23.51,0.85,8.33,3.02
23.52,0.74,8.25,3.04
23.52,0.66,8.20,3.02
23.52,0.52,8.14,2.98
23.52,0.50,8.09,2.94
23.53,0.41,8.02,2.94
23.53,0.29,8.00,2.89
23.53,0.17,8.00,2.98
23.53,0.03,7.96,2.93
23.54,-0.05,7.87,2.99
23.54,-0.17,7.85,3.01
23.54,-0.34,7.80,2.97
23.54,-0.41,7.75,2.98
23.55,-0.48,7.67,2.89
23.55,-0.54,7.64,2.87
23.55,-0.64,7.59,2.84
23.55,-0.69,7.53,2.77
23.56,-0.71,7.45,2.73
23.56,-0.72,7.39,2.67
23.56,-0.71,7.29,2.61
23.56,-0.67,7.22,2.58
23.57,-0.69,7.21,2.43
23.57,-0.67,7.12,2.42
23.57,-0.68,7.05,2.39
23.57,-0.64,7.04,2.31
23.58,-0.64,6.93,2.28
23.58,-0.50,6.79,2.26
23.58,-0.51,6.66,2.28
23.58,-0.51,6.62,2.31
23.59,-0.45,6.73,2.12
23.59,-0.27,6.80,1.97
23.59,-0.10,6.80,1.93
23.59,0.13,6.82,1.87
23.60,0.26,6.79,1.84
23.60,0.38,6.81,1.75
23.60,0.47,6.85,1.80
23.60,0.60,6.96,1.80
23.61,0.66,7.01,1.84
23.61,0.67,7.05,1.93
23.61,0.72,7.10,2.04
23.61,0.81,7.11,2.17
23.62,0.84,7.15,2.34
23.62,0.89,7.19,2.49
23.62,0.97,7.25,2.61
23.62,1.05,7.34,2.77
23.63,1.12,7.38,2.82
23.63,1.24,7.45,2.93
23.63,1.34,7.52,3.13
23.63,1.39,7.55,3.19
23.64,1.40,7.54,3.37
23.64,1.41,7.55,3.47
23.64,1.34,7.60,3.62
23.64,1.35,7.63,3.72
23.65,1.43,7.64,3.87
23.65,1.45,7.73,3.92
23.65,1.54,7.74,3.99
23.65,1.59,7.70,3.97
23.66,1.57,7.74,4.06
23.66,1.67,7.70,4.06
23.66,1.82,7.66,3.98
23.66,1.89,7.61,4.02
23.67,1.89,7.63,4.05
23.67,1.89,7.68,4.09
23.67,1.89,7.68,4.15
23.67,1.95,7.76,4.20
23.68,2.02,7.84,4.24
23.68,2.06,7.85,4.29
23.68,2.15,7.82,4.32
23.68,2.23,7.80,4.37
23.69,2.31,7.69,4.34
23.69,2.31,7.72,4.22
23.69,2.25,7.76,4.27
23.69,2.29,7.72,4.20
23.70,2.32,7.68,4.16
23.70,2.31,7.64,4.14
23.70,2.36,7.68,4.09
23.70,2.38,7.72,4.01
23.71,2.42,7.72,4.05
23.71,2.52,7.75,4.03
23.71,2.59,7.76,3.94
23.71,2.64,7.80,3.93
23.72,2.62,7.82,3.95
23.72,2.69,7.80,3.96
23.72,2.75,7.82,3.93
23.72,2.86,7.80,3.84
23.73,2.93,7.80,3.75
23.73,2.93,7.83,3.69
23.73,2.93,7.88,3.60
23.73,2.94,7.89,3.61
23.74,2.92,7.90,3.68
23.74,2.95,7.98,3.73
23.74,2.96,8.01,3.82
23.74,2.96,8.04,3.90
23.75,2.99,8.09,4.06
23.75,2.99,8.15,4.24
23.75,3.00,8.19,4.39
23.75,2.99,8.22,4.52
23.76,3.02,8.25,4.67
23.76,3.06,8.34,4.88
23.76,3.13,8.39,5.03
23.76,3.20,8.46,5.20
23.77,3.26,8.54,5.36
23.77,3.33,8.60,5.47
23.77,3.45,8.67,5.59
23.77,3.52,8.76,5.72
23.78,3.66,8.85,5.79
23.78,3.82,8.87,5.88
23.78,3.96,9.02,6.03
23.78,4.07,9.19,6.09
23.79,4.19,9.34,6.18
23.79,4.32,9.52,6.24
23.79,4.47,9.64,6.33
23.79,4.58,9.84,6.35
23.80,4.70,10.04,6.39
23.80,4.81,10.11,6.47
23.80,4.86,10.22,6.55
23.80,4.97,10.27,6.68
23.81,5.16,10.25,6.81
23.81,5.21,10.26,6.87
23.81,5.30,10.18,6.92
23.81,5.44,10.07,7.07
23.82,5.52,9.94,7.09
23.82,5.61,9.84,7.08
23.82,5.77,9.72,7.09
23.82,5.94,9.61,7.14
23.83,6.12,9.52,7.07
23.83,6.32,9.40,7.11
23.83,6.36,9.31,6.98
23.83,6.35,9.23,6.83
23.84,6.28,9.21,6.75
23.84,6.07,9.22,6.66
23.84,5.79,9.29,6.47
23.84,5.53,9.35,6.35
23.85,5.22,9.37,6.23
23.85,4.95,9.34,6.14
23.85,4.64,9.41,5.97
23.85,4.35,9.41,5.73
23.86,4.07,9.30,5.52
23.86,3.77,9.24,5.34
23.86,3.44,9.22,5.07
23.86,3.10,9.18,4.84
23.87,2.70,9.18,4.51
23.87,2.28,9.35,4.13
23.87,1.84,9.53,3.90
23.87,1.40,9.80,3.65
23.88,0.97,10.19,3.44
23.88,0.57,10.55,3.28
23.88,0.21,11.01,3.17
23.88,-0.26,11.45,3.08
23.89,-0.64,11.88,3.06
23.89,-1.04,12.25,2.99
23.89,-1.45,12.60,2.90
23.89,-1.89,12.96,2.87
23.90,-2.35,13.31,2.79
23.90,-2.81,13.68,2.73
23.90,-3.17,14.03,2.76
23.90,-3.42,14.31,2.76
23.91,-3.74,14.67,2.80
23.91,-4.01,14.97,2.79
23.91,-4.25,15.32,2.86
23.91,-4.47,15.58,2.94
23.92,-4.72,15.77,2.93
23.92,-5.02,15.85,2.88
23.92,-5.17,15.61,2.85
23.92,-5.16,15.00,2.73
23.93,-4.82,13.95,2.55
23.93,-4.17,12.63,2.36
23.93,-3.48,11.35,2.08
23.93,-2.70,10.25,1.80
23.94,-1.86,9.28,1.51
23.94,-1.13,8.43,1.18
23.94,-0.48,7.78,1.01
23.94,0.05,7.25,0.74
23.95,0.31,6.90,0.69
23.95,0.41,6.69,0.54
23.95,0.38,6.67,0.36
23.95,0.23,6.75,0.32
23.96,0.01,6.89,0.30
23.96,-0.30,7.01,0.30
23.96,-0.38,7.07,0.49
23.96,-0.48,7.08,0.60
23.97,-0.59,7.02,0.79
23.97,-0.72,7.05,0.94
23.97,-0.87,7.15,1.00
23.97,-1.14,7.25,1.13
23.98,-1.20,7.35,1.33
23.98,-1.32,7.51,1.44
23.98,-1.50,7.70,1.40
23.98,-1.62,7.84,1.44
23.99,-1.70,8.06,1.44
23.99,-1.73,8.18,1.47
23.99,-1.73,8.35,1.59
23.99,-1.76,8.53,1.63
24.00,-1.73,8.78,1.64
24.00,-1.81,8.92,1.64
24.00,-1.98,9.09,1.78
24.01,-2.27,9.24,1.95
24.01,-2.56,9.47,2.05
24.01,-2.82,9.83,2.03
24.01,-3.02,10.13,2.05
24.01,-3.10,10.53,2.15
24.02,-3.13,10.90,2.07
24.02,-3.12,11.29,2.01
24.02,-3.03,11.59,1.98
24.02,-2.96,11.86,2.01
24.03,-2.84,12.16,1.98
24.03,-2.73,12.31,2.04
24.03,-2.52,12.48,2.19
24.03,-2.33,12.59,2.38
24.04,-2.14,12.68,2.58
24.04,-1.85,12.68,2.66
24.04,-1.24,12.73,2.52
24.04,-0.81,12.73,2.52
24.05,-0.73,12.35,2.76
24.05,-0.44,11.90,2.72
24.05,0.09,11.52,2.50
24.05,0.43,10.99,2.45
24.06,0.64,10.37,2.48
24.06,0.81,9.88,2.37
24.06,0.94,9.46,2.25
24.06,1.03,8.97,2.31
24.07,1.07,8.57,2.45
24.07,1.13,8.25,2.57
24.07,1.10,7.94,2.67
24.07,1.10,7.63,2.71
24.08,1.05,7.36,2.82
24.08,0.85,7.14,2.82
24.08,0.63,6.97,2.71
24.08,0.37,6.83,2.44
24.09,-0.09,6.73,2.02
24.09,-0.69,6.71,1.34
24.09,-1.20,6.61,0.79
24.09,-1.60,6.63,0.33
24.10,-1.89,6.66,-0.19
24.10,-2.34,6.63,-0.65
24.10,-2.74,6.67,-1.11
24.10,-3.00,6.64,-1.49
24.11,-3.12,6.58,-1.69
24.11,-3.18,6.55,-1.84
24.11,-3.10,6.41,-1.82
24.11,-2.97,6.27,-1.68
24.12,-2.89,6.31,-1.23
24.12,-2.88,6.48,-0.56
24.12,-2.83,6.68,0.17
24.12,-2.79,6.89,0.98
24.13,-2.66,7.10,1.84
24.13,-2.66,7.37,2.72
24.13,-2.68,7.67,3.66
24.13,-2.67,7.92,4.52
24.14,-2.83,8.29,5.15
24.14,-2.86,8.54,5.71
24.14,-2.85,8.75,6.32
24.14,-2.73,8.91,6.89
24.15,-2.51,8.98,7.21
24.15,-2.22,9.07,7.48
24.15,-1.90,9.13,7.72
24.15,-1.61,9.15,7.83
24.16,-1.35,9.13,7.77
24.16,-1.14,9.19,7.56
24.16,-1.01,9.19,7.25
24.16,-0.84,9.12,6.87
24.17,-0.66,9.00,6.44
24.17,-0.60,8.89,5.93
24.17,-0.45,8.77,5.45
24.17,-0.32,8.61,4.90
24.18,-0.24,8.51,4.25
24.18,-0.16,8.40,3.63
24.18,0.00,8.24,3.07
24.18,0.08,8.17,2.54
24.19,0.12,7.99,2.05
24.19,0.20,7.81,1.78
24.19,0.35,7.65,1.53
24.19,0.41,7.50,1.32
24.20,0.44,7.35,1.13
24.20,0.53,7.17,1.08
24.20,0.62,7.04,1.25
24.20,0.68,6.96,1.30
24.21,0.77,6.91,1.46
24.21,0.84,6.79,1.68
24.21,0.92,6.77,1.85
24.21,0.85,6.80,2.00
24.22,0.81,6.81,2.23
24.22,0.74,6.85,2.41
24.22,0.63,6.92,2.72
24.22,0.54,6.99,3.03
24.23,0.50,7.09,3.27
24.23,0.44,7.17,3.51
24.23,0.28,7.28,3.85
24.23,0.20,7.33,4.08
24.24,0.11,7.40,4.08
24.24,-0.03,7.53,4.07
24.24,-0.13,7.63,4.14
24.24,-0.07,7.70,4.02
24.25,-0.03,7.92,3.81
24.25,-0.03,8.06,3.89
24.25,0.04,8.20,3.83
24.25,0.17,8.36,3.85
24.26,0.29,8.47,3.92
24.26,0.44,8.66,3.82
24.26,0.51,8.83,3.65
24.26,0.72,8.69,3.67
24.27,0.89,8.70,3.80
24.27,1.07,8.78,3.68
24.27,1.31,8.82,3.55
24.27,1.50,8.87,3.46
24.28,1.55,8.90,3.33
24.28,1.63,8.96,3.25
24.28,1.71,9.00,3.06
24.28,1.77,9.01,2.92
24.29,1.79,9.09,2.85
24.29,1.74,9.20,2.87
24.29,1.67,9.19,2.85
24.29,1.67,9.19,2.91
24.30,1.69,9.15,3.07
24.30,1.65,9.09,3.21
24.30,1.66,8.97,3.42
24.30,1.63,8.87,3.61
24.31,1.53,8.77,3.82
24.31,1.47,8.69,4.04
24.31,1.40,8.70,4.29
24.31,1.22,8.71,4.49
24.32,1.13,8.73,4.74
24.32,0.98,8.74,4.82
24.32,0.79,8.75,4.93
24.32,0.60,8.82,4.98
24.33,0.43,8.88,4.92
24.33,0.23,8.91,4.70
24.33,0.06,8.89,4.61
24.33,-0.16,8.91,4.44
24.34,-0.36,8.96,4.22
24.34,-0.44,8.91,4.11
24.34,-0.53,8.83,4.03
24.34,-0.61,8.77,3.92
24.35,-0.63,8.68,3.83
24.35,-0.63,8.61,3.64
24.35,-0.62,8.46,3.50
24.35,-0.58,8.37,3.37
24.36,-0.64,8.28,3.37
24.36,-0.63,8.22,3.28
24.36,-0.63,8.16,3.30
24.36,-0.68,8.11,3.33
24.37,-0.71,8.04,3.40
24.37,-0.77,7.99,3.52
24.37,-0.69,7.93,3.77
24.37,-0.73,7.94,3.92
24.38,-0.85,7.95,4.08
24.38,-0.95,7.94,4.29
24.38,-1.08,7.93,4.50
24.38,-1.16,7.92,4.61
24.39,-1.32,7.92,4.74
24.39,-1.46,7.95,4.89
24.39,-1.57,7.94,4.98
24.40,-1.73,8.01,4.95
24.40,-1.85,8.01,4.85
24.40,-2.01,8.04,4.82
24.40,-2.18,8.09,4.59
24.41,-2.28,8.08,4.45
24.41,-2.46,8.12,4.28
24.41,-2.63,8.15,4.08
24.41,-2.76,8.14,3.98
24.42,-2.88,8.17,3.86
24.42,-2.95,8.17,3.71
24.42,-3.01,8.17,3.62
24.42,-3.03,8.13,3.50
24.43,-3.05,8.12,3.36
24.43,-3.03,8.14,3.29
24.43,-2.96,8.12,3.24
24.43,-2.91,8.11,3.22
24.44,-2.83,8.14,3.31
24.44,-2.75,8.22,3.36
24.44,-2.69,8.32,3.44
24.44,-2.54,8.38,3.54
24.45,-2.49,8.52,3.65
24.45,-2.40,8.64,3.85
24.45,-2.33,8.82,4.00
24.45,-2.28,8.96,4.09
24.46,-2.25,9.13,4.25
24.46,-2.28,9.32,4.39
24.46,-2.26,9.41,4.53
24.46,-2.24,9.59,4.69
24.47,-2.25,9.76,4.94
24.47,-2.31,9.86,5.05
24.47,-2.40,9.98,5.12
24.47,-2.43,10.13,5.19
24.48,-2.51,10.21,5.32
24.48,-2.55,10.29,5.40
24.48,-2.55,10.38,5.54
24.48,-2.56,10.43,5.63
24.49,-2.56,10.41,5.71
24.49,-2.58,10.42,5.83
24.49,-2.58,10.47,5.91
24.49,-2.48,10.45,5.96
24.50,-2.32,10.41,5.96
24.50,-2.18,10.37,5.99
24.50,-2.09,10.28,6.06
24.50,-1.98,10.21,6.05
24.51,-1.82,10.17,6.00
24.51,-1.70,10.14,6.00
24.51,-1.58,10.08,5.91
24.51,-1.43,10.05,5.77
24.52,-1.24,10.03,5.65
24.52,-1.14,9.98,5.58
24.52,-1.01,9.87,5.41
24.52,-0.81,9.86,5.24
24.53,-0.63,9.77,5.10
24.53,-0.46,9.70,4.84
24.53,-0.36,9.57,4.71
24.53,-0.25,9.53,4.52
24.54,-0.14,9.47,4.40
24.54,-0.03,9.48,4.20
24.54,0.11,9.52,4.04
24.54,0.22,9.50,3.89
24.55,0.35,9.46,3.72
24.55,0.45,9.48,3.52
24.55,0.53,9.44,3.37
24.55,0.65,9.44,3.19
24.56,0.72,9.39,2.92
24.56,0.80,9.37,2.73
24.56,0.94,9.34,2.58
24.56,1.01,9.31,2.47
24.57,1.02,9.31,2.35
24.57,1.07,9.24,2.27
24.57,1.10,9.22,2.21
24.57,1.11,9.18,2.18
24.58,1.10,9.10,2.12
24.58,1.07,9.06,2.11
24.58,1.05,9.00,2.14
24.58,0.96,8.89,2.14
24.59,0.79,8.81,2.21
24.59,0.65,8.70,2.29
24.59,0.51,8.59,2.34
24.59,0.25,8.50,2.46
24.60,-0.05,8.36,2.51
24.60,-0.34,8.18,2.66
24.60,-0.70,8.06,2.62
24.60,-1.02,7.96,2.69
24.61,-1.35,7.86,2.74
24.61,-1.69,7.73,2.74
24.61,-2.02,7.68,2.80
24.61,-2.30,7.65,2.84
24.62,-2.59,7.62,2.89
24.62,-2.87,7.56,2.96
24.62,-3.04,7.58,3.07
24.62,-3.21,7.62,3.02
24.63,-3.36,7.60,3.03
24.63,-3.47,7.55,3.05
24.63,-3.51,7.52,2.96
24.63,-3.48,7.49,2.88
24.64,-3.45,7.43,2.75
24.64,-3.38,7.41,2.58
24.64,-3.33,7.37,2.35
24.64,-3.18,7.33,2.13
24.65,-2.92,7.31,1.90
24.65,-2.74,7.43,1.69
24.65,-2.42,7.61,1.32
24.65,-2.19,7.79,1.00
24.66,-2.02,7.98,0.56
24.66,-1.72,8.24,0.15
24.66,-1.50,8.48,-0.41
24.66,-1.25,8.77,-0.91
24.67,-1.11,8.99,-1.27
24.67,-0.93,9.23,-1.67
24.67,-0.74,9.50,-2.07
24.67,-0.49,9.70,-2.44
24.68,-0.30,10.00,-2.54
24.68,-0.12,10.29,-2.71
24.68,-0.06,10.52,-2.85
24.68,0.03,10.80,-2.91
24.69,0.22,11.06,-2.81
24.69,0.34,11.41,-2.62
24.69,0.26,11.69,-2.40
24.69,0.17,12.03,-2.17
24.70,0.26,12.34,-1.99
24.70,0.31,12.60,-1.93
24.70,0.36,12.89,-2.00
24.70,0.34,13.23,-2.18
24.71,0.28,13.61,-2.12
24.71,0.43,13.81,-1.87
24.71,0.45,13.93,-1.54
24.71,0.39,14.01,-1.16
24.72,0.37,13.97,-0.92
24.72,0.25,13.92,-0.76
24.72,0.14,13.79,-0.65
24.72,0.06,13.53,-0.34
24.73,0.08,13.21,0.00
24.73,0.13,12.90,0.28
24.73,0.26,12.53,0.42
24.73,0.24,12.08,0.44
24.74,0.24,11.67,0.57
24.74,0.28,11.34,0.67
24.74,0.34,11.11,0.91
24.74,0.36,10.85,1.24
24.75,0.32,10.65,1.50
24.75,0.41,10.44,1.52
24.75,0.42,10.25,1.64
24.75,0.56,10.10,1.71
24.76,0.75,9.96,1.86
24.76,0.95,9.77,2.00
24.76,1.07,9.65,2.12
24.76,1.14,9.49,2.13
24.77,1.30,9.26,2.07
24.77,1.57,9.01,1.91
24.77,1.77,8.81,2.00
24.77,1.71,8.74,2.28
24.78,1.53,8.72,2.32
24.78,1.44,8.71,2.16
24.78,1.19,8.75,2.00
24.78,0.98,8.76,1.67
24.79,0.91,8.69,1.39
24.79,0.87,8.63,1.52
24.79,0.84,8.62,1.68
24.79,0.86,8.73,1.55
24.80,0.86,8.76,1.49
24.80,0.92,8.62,1.62
24.80,1.06,8.54,1.84
24.80,1.19,8.42,2.04
24.81,1.35,8.31,2.25
24.81,1.49,8.28,2.31
24.81,1.56,8.28,2.41
24.81,1.57,8.28,2.53
24.82,1.51,8.27,2.65
24.82,1.43,8.25,2.73
24.82,1.39,8.20,2.71
24.82,1.35,8.16,2.71
24.83,1.32,8.20,2.79
24.83,1.25,8.20,2.81
24.83,1.25,8.20,2.82
24.83,1.24,8.24,2.91
24.84,1.23,8.25,2.93
24.84,1.21,8.20,2.86
24.84,1.17,8.17,2.92
24.84,1.17,8.17,2.93
24.85,1.11,8.13,2.92
24.85,1.04,8.08,3.00
24.85,0.99,8.04,3.02
24.85,0.98,8.04,2.96
24.86,0.96,7.99,2.96
24.86,0.97,8.04,2.94
24.86,0.89,8.04,2.95
24.86,0.60,8.00,2.92
24.87,0.37,7.96,2.91
24.87,0.06,7.90,3.08
24.87,-0.21,7.82,3.13
24.87,-0.38,7.69,3.14
24.88,-0.44,7.55,3.08
24.88,-0.50,7.46,3.08
24.88,-0.55,7.42,3.11
24.88,-0.54,7.37,3.19
24.89,-0.58,7.31,3.18
24.89,-0.59,7.26,3.12
24.89,-0.60,7.20,3.10
24.89,-0.57,7.14,3.03
24.90,-0.51,7.11,2.87
24.90,-0.46,7.10,2.70
24.90,-0.44,7.10,2.65
24.90,-0.38,7.04,2.49
24.91,-0.30,7.01,2.33
24.91,-0.23,6.99,2.23
24.91,-0.19,6.96,2.07
24.91,-0.26,6.99,2.00
24.92,-0.22,6.94,2.01
24.92,-0.05,7.05,1.99
24.92,0.18,7.23,1.71
24.92,0.37,7.23,1.62
24.93,0.48,7.10,1.67
24.93,0.45,7.05,1.56
24.93,0.37,7.06,1.38
24.93,0.31,7.08,1.41
24.94,0.23,7.17,1.44
24.94,0.15,7.19,1.39
24.94,0.09,7.17,1.50
24.94,0.12,7.17,1.58
24.95,0.20,7.09,1.68
24.95,0.28,7.08,1.81
24.95,0.36,7.03,1.95
24.95,0.37,7.03,2.11
24.96,0.36,6.92,2.19
24.96,0.45,6.81,2.24
24.96,0.56,6.71,2.29
24.96,0.59,6.58,2.37
24.97,0.64,6.49,2.51
24.97,0.69,6.46,2.64
24.97,0.69,6.45,2.79
24.97,0.82,6.37,2.88
24.98,1.00,6.24,2.93
24.98,1.19,6.04,3.08
24.98,1.29,6.00,3.17
24.98,1.32,5.97,3.26
24.99,1.36,5.97,3.41
24.99,1.52,5.85,3.52
24.99,1.57,5.80,3.74
24.99,1.63,5.82,3.98
25.00,1.71,5.82,4.15
25.00,1.95,5.74,4.40
25.00,2.11,5.76,4.63
25.00,2.14,5.84,4.87
25.01,2.25,5.81,5.09
25.01,2.40,5.76,5.27
25.01,2.56,5.86,5.50
25.01,2.63,6.00,5.73
25.02,2.80,6.17,5.98
25.02,2.97,6.30,6.12
25.02,3.18,6.37,6.24
25.02,3.40,6.56,6.43
25.03,3.53,6.68,6.67
25.03,3.66,6.82,6.92
25.03,3.80,6.94,7.09
25.03,3.90,7.06,7.20
25.04,4.08,7.12,7.30
25.04,4.23,7.27,7.44
25.04,4.35,7.44,7.58
25.04,4.51,7.53,7.64
25.05,4.64,7.70,7.68
25.05,4.76,7.82,7.61
25.05,5.01,7.95,7.54
25.05,5.21,8.13,7.40
25.06,5.34,8.28,7.19
25.06,5.52,8.41,6.91
25.06,5.65,8.46,6.49
25.06,5.79,8.56,6.15
25.07,5.85,8.66,5.75
25.07,5.94,8.77,5.31
25.07,6.04,8.91,4.87
25.07,6.14,9.00,4.55
25.08,6.18,9.15,4.14
25.08,6.33,9.30,3.86
25.08,6.33,9.53,3.69
25.08,6.20,9.81,3.60
25.09,6.02,10.05,3.63
25.09,5.82,10.35,3.82
25.09,5.56,10.67,3.97
25.09,5.22,11.00,4.25
25.10,4.89,11.40,4.57
25.10,4.65,11.78,4.97
25.10,4.46,12.13,5.35
25.10,4.35,12.46,5.75
25.11,4.33,12.69,6.26
25.11,4.40,12.87,6.71
25.11,4.55,12.99,7.07
25.11,4.67,12.95,7.50
25.12,4.90,12.76,7.93
25.12,5.07,12.48,8.13
25.12,5.31,12.07,8.34
25.12,5.59,11.64,8.56
25.13,5.85,11.23,8.76
25.13,6.26,10.77,8.83
25.13,6.64,10.34,8.83
25.13,7.01,9.96,8.72
25.14,7.28,9.66,8.62
25.14,7.48,9.31,8.52
25.14,7.56,9.06,8.46
25.14,7.45,8.91,8.43
25.15,7.21,8.85,8.36
25.15,6.79,8.79,8.22
25.15,6.36,8.66,8.07
25.15,5.88,8.51,7.87
25.16,5.46,8.36,7.62
25.16,4.99,8.17,7.26
25.16,4.52,8.00,6.83
25.16,3.91,7.87,6.44
25.17,3.31,7.80,5.92
25.17,2.64,7.83,5.44
25.17,2.02,7.86,4.93
25.17,1.45,7.98,4.49
25.18,0.93,8.11,4.04
25.18,0.55,8.30,3.67
25.18,0.21,8.57,3.27
25.18,-0.15,8.93,2.90
25.19,-0.44,9.40,2.56
25.19,-0.74,9.79,2.19
25.19,-0.98,10.27,1.84
25.19,-1.32,10.78,1.55
25.20,-1.65,11.28,1.22
25.20,-2.04,11.87,0.98
25.20,-2.47,12.51,0.74
25.20,-2.75,13.13,0.51
25.21,-3.13,13.89,0.28
25.21,-3.43,14.56,0.14
25.21,-3.70,15.25,0.03
25.21,-3.97,15.96,-0.02
25.22,-4.31,16.61,-0.08
25.22,-4.57,17.15,-0.07
25.22,-4.86,17.54,0.00
25.22,-5.16,17.73,0.00
25.23,-5.41,17.79,0.01
25.23,-5.50,17.49,-0.08
25.23,-5.40,16.86,-0.11
25.23,-4.97,15.63,-0.09
25.24,-3.92,13.79,0.05
25.24,-2.61,11.96,0.24
25.24,-1.42,10.54,0.47
25.24,-0.53,9.50,0.68
25.25,0.12,8.70,0.84
25.25,0.41,8.16,0.95
25.25,0.46,7.80,1.09
25.25,0.41,7.58,1.21
25.26,0.36,7.27,1.30
25.26,0.39,6.96,1.38
25.26,0.36,6.62,1.40
25.26,0.26,6.46,1.47
25.27,0.14,6.34,1.48
25.27,-0.13,6.25,1.56
25.27,-0.41,6.22,1.64
25.27,-0.62,6.24,1.74
25.28,-0.86,6.35,1.90
25.28,-1.13,6.39,1.89
25.28,-1.32,6.51,1.95
25.28,-1.38,6.54,1.96
25.29,-1.41,6.67,1.92
25.29,-1.34,6.91,1.89
25.29,-1.33,7.08,1.84
25.29,-1.59,7.24,2.05
25.30,-1.88,7.38,2.23
25.30,-2.09,7.54,2.21
25.30,-2.18,7.82,2.13
25.30,-2.20,8.12,1.96
25.31,-2.19,8.47,1.91
25.31,-2.20,8.81,1.82
25.31,-2.12,9.13,1.65
25.31,-2.04,9.40,1.50
25.32,-1.98,9.80,1.39
25.32,-2.01,10.02,1.43
25.32,-1.95,10.38,1.34
25.32,-1.72,10.80,1.05
25.33,-1.49,11.20,1.07
25.33,-1.40,11.53,0.93
25.33,-1.29,11.83,0.52
25.33,-1.32,12.11,0.15
25.34,-1.32,12.36,0.19
25.34,-1.26,12.53,0.44
25.34,-1.09,12.63,0.76
25.34,-0.91,12.66,0.98
25.35,-0.74,12.63,1.24
25.35,-0.56,12.44,1.56
25.35,-0.44,12.12,1.82
25.35,-0.32,11.68,2.04
25.36,-0.12,11.16,2.27
25.36,0.07,10.69,2.50
25.36,0.17,10.22,2.78
25.36,0.23,9.74,3.01
25.37,0.25,9.25,3.21
25.37,0.25,8.88,3.23
25.37,0.17,8.59,3.13
25.37,-0.03,8.38,3.05
25.38,-0.22,8.12,2.92
25.38,-0.36,7.86,2.66
25.38,-0.57,7.66,2.40
25.38,-0.72,7.45,2.05
25.39,-0.91,7.20,1.60
25.39,-1.02,7.04,1.10
25.39,-1.12,6.81,0.69
25.39,-1.29,6.68,0.28
25.40,-1.41,6.62,-0.07
25.40,-1.50,6.44,-0.33
25.40,-1.56,6.31,-0.57
25.40,-1.66,6.36,-0.68
25.41,-1.69,6.33,-0.79
25.41,-1.70,6.30,-0.63
25.41,-1.75,6.23,-0.29
25.41,-1.83,6.27,0.15
25.42,-1.90,6.20,0.42
25.42,-1.91,6.12,0.78
25.42,-2.02,6.09,1.09
25.42,-2.25,6.20,1.64
25.43,-2.48,6.41,2.23
25.43,-2.75,6.58,2.76
25.43,-2.89,6.78,3.18
25.43,-2.90,6.91,3.41
25.44,-2.89,7.14,3.69
25.44,-2.82,7.35,3.95
25.44,-2.69,7.48,4.13
25.44,-2.43,7.61,4.20
25.45,-2.19,7.70,4.41
25.45,-2.03,7.76,4.45
25.45,-1.88,7.75,4.60
25.45,-1.88,7.73,4.73
25.46,-1.84,7.66,4.97
25.46,-1.74,7.65,5.18
25.46,-1.41,7.64,5.59
25.46,-1.10,7.61,6.08
25.47,-0.95,7.71,6.32
25.47,-0.83,7.91,6.43
25.47,-0.66,8.03,6.44
25.47,-0.44,8.14,6.39
25.48,-0.16,8.28,6.34
25.48,0.06,8.27,6.34
25.48,0.17,8.27,6.01
25.48,0.38,8.14,5.51
25.49,0.69,8.02,5.12
25.49,0.83,7.97,4.79
25.49,0.93,7.85,4.52
25.49,0.93,7.83,4.18
25.50,0.96,7.76,3.88
25.50,1.02,7.77,3.54
25.50,1.03,7.79,3.19
25.50,1.03,7.76,2.95
25.51,0.97,7.70,2.64
25.51,0.90,7.68,2.37
25.51,0.81,7.72,1.99
25.51,0.74,7.74,1.88
25.52,0.65,7.80,1.82
25.52,0.52,7.84,1.74
25.52,0.39,7.92,1.81
25.52,0.21,8.04,2.04
25.53,-0.01,8.23,2.25
25.53,-0.13,8.33,2.40
25.53,-0.27,8.47,2.59
25.53,-0.40,8.50,2.98
25.54,-0.35,8.59,3.45
25.54,-0.27,8.67,3.86
25.54,-0.07,8.62,4.12
25.54,0.08,8.64,4.45
25.55,0.22,8.68,4.72
25.55,0.34,8.69,4.82
25.55,0.43,8.75,4.89
25.55,0.53,8.84,4.88
25.56,0.51,8.86,4.84
25.56,0.49,8.85,4.85
25.56,0.51,8.91,4.83
25.56,0.55,8.87,4.78
25.57,0.61,8.79,4.81
25.57,0.68,8.70,4.62
25.57,0.79,8.60,4.50
25.57,0.88,8.46,4.41
25.58,0.90,8.35,4.27
25.58,0.93,8.23,4.17
25.58,0.84,8.13,4.14
25.58,0.78,8.07,4.15
25.59,0.70,8.10,4.18
25.59,0.59,8.11,4.07
25.59,0.49,8.11,4.10
25.59,0.38,8.28,4.03
25.60,0.24,8.37,3.96
25.60,0.14,8.39,3.88
25.60,0.02,8.51,3.78
25.60,-0.15,8.51,3.62
25.61,-0.28,8.50,3.44
25.61,-0.49,8.57,3.33
25.61,-0.64,8.58,3.20
25.61,-0.87,8.56,3.09
25.62,-1.05,8.58,3.00
25.62,-1.26,8.62,2.93
25.62,-1.48,8.64,2.87
25.62,-1.72,8.72,2.81
25.63,-2.00,8.80,2.84
25.63,-2.17,8.76,2.89
25.63,-2.31,8.75,2.94
25.63,-2.54,8.68,2.98
25.64,-2.73,8.64,3.10
25.64,-2.92,8.65,3.26
25.64,-3.03,8.57,3.37
25.64,-3.08,8.49,3.54
25.65,-3.27,8.41,3.77
25.65,-3.38,8.27,3.92
25.65,-3.40,8.11,4.00
25.65,-3.47,7.94,4.11
25.66,-3.49,7.82,4.23
25.66,-3.49,7.70,4.36
25.66,-3.56,7.53,4.49
25.66,-3.51,7.45,4.58
25.67,-3.50,7.30,4.68
25.67,-3.50,7.29,4.70
25.67,-3.41,7.25,4.75
25.67,-3.23,7.23,4.79
25.68,-3.06,7.29,4.70
25.68,-2.98,7.26,4.69
25.68,-2.92,7.30,4.70
25.68,-2.88,7.43,4.59
25.69,-2.90,7.49,4.55
25.69,-2.84,7.55,4.55
25.69,-2.78,7.65,4.65
25.69,-2.88,7.71,4.66
25.70,-2.84,7.82,4.64
25.70,-2.79,7.93,4.62
25.70,-2.73,8.00,4.68
25.70,-2.67,8.12,4.76
25.71,-2.58,8.18,4.77
25.71,-2.45,8.28,4.85
25.71,-2.31,8.35,4.89
25.71,-2.11,8.43,5.00
25.72,-1.97,8.49,5.15
25.72,-1.86,8.68,5.35
25.72,-1.74,8.84,5.56
25.72,-1.76,8.96,5.74
25.73,-1.66,9.05,5.93
25.73,-1.64,9.19,6.21
25.73,-1.66,9.22,6.53
25.73,-1.68,9.30,6.80
25.74,-1.75,9.38,7.06
25.74,-1.73,9.33,7.26
25.74,-1.69,9.28,7.37
25.74,-1.66,9.26,7.55
25.75,-1.62,9.24,7.72
25.75,-1.51,9.23,7.80
25.75,-1.40,9.26,7.87
25.75,-1.20,9.24,7.90
25.76,-1.10,9.33,7.99
25.76,-0.94,9.43,7.93
25.76,-0.74,9.61,7.76
25.76,-0.60,9.75,7.66
25.77,-0.37,9.95,7.41
25.77,-0.12,10.11,7.03
25.77,0.11,10.20,6.61
25.77,0.21,10.36,6.20
25.78,0.37,10.59,5.83
25.78,0.56,10.77,5.50
25.78,0.61,10.89,5.21
25.78,0.72,10.97,4.90
25.79,0.93,11.05,4.69
25.79,1.09,11.07,4.41
25.79,1.22,10.99,4.06
25.79,1.43,10.88,3.82
25.80,1.61,10.74,3.53
25.80,1.74,10.60,3.18
25.80,1.90,10.34,2.87
25.80,2.07,10.09,2.49
25.81,2.26,9.80,2.24
25.81,2.54,9.42,2.02
25.81,2.77,9.07,1.87
25.81,2.89,8.72,1.68
25.82,3.02,8.32,1.63
25.82,3.14,7.99,1.51
25.82,3.21,7.71,1.55
25.82,3.25,7.42,1.60
25.83,3.25,7.17,1.63
25.83,3.21,6.93,1.74
25.83,3.22,6.78,1.87
25.83,3.15,6.60,2.02
25.84,2.97,6.48,2.14
25.84,2.85,6.41,2.26
25.84,2.61,6.39,2.30
25.84,2.44,6.40,2.42
25.85,2.24,6.42,2.55
25.85,1.91,6.42,2.55
25.85,1.53,6.46,2.60
25.85,1.16,6.58,2.62
25.86,0.83,6.70,2.62
25.86,0.43,6.89,2.58
25.86,-0.06,7.06,2.47
25.86,-0.49,7.35,2.40
25.87,-0.96,7.68,2.35
25.87,-1.48,8.01,2.23
25.87,-1.99,8.40,2.13
25.87,-2.54,8.85,2.09
25.88,-3.02,9.36,2.08
25.88,-3.59,9.82,2.00
25.88,-4.16,10.38,1.87
25.88,-4.64,10.95,1.74
25.89,-5.09,11.48,1.61
25.89,-5.51,12.09,1.50
25.89,-5.94,12.59,1.29
25.89,-6.26,13.10,1.15
25.90,-6.45,13.57,1.01
25.90,-6.58,14.00,0.79
25.90,-6.67,14.38,0.50
25.90,-6.55,14.74,0.38
25.91,-6.40,15.07,0.36
25.91,-6.18,15.39,0.32
25.91,-5.82,15.69,0.33
25.91,-5.47,15.97,0.13
25.92,-5.12,16.19,-0.28
25.92,-4.69,16.29,-0.61
25.92,-4.21,16.30,-0.70
25.92,-3.72,16.17,-0.61
25.93,-3.37,16.00,-0.78
25.93,-3.11,15.83,-1.14
25.93,-2.80,15.56,-1.63
25.93,-2.47,15.30,-2.04
25.94,-2.32,15.06,-2.19
25.94,-2.11,14.78,-2.27
25.94,-1.99,14.41,-2.38
25.94,-1.85,14.09,-2.46
25.95,-1.74,13.67,-2.60
25.95,-1.65,13.29,-2.76
25.95,-1.44,12.83,-2.94
25.95,-1.19,12.45,-3.10
25.96,-0.92,12.17,-3.13
25.96,-0.69,11.85,-3.16
25.96,-0.42,11.54,-3.10
25.96,-0.21,11.13,-2.89
25.97,0.01,10.79,-2.87
25.97,0.24,10.55,-2.77
25.97,0.34,10.34,-2.64
25.97,0.40,10.16,-2.50
25.98,0.37,9.98,-2.28
25.98,0.25,9.89,-2.00
25.98,0.09,9.79,-1.71
25.98,-0.25,9.63,-1.47
25.99,-0.72,9.30,-1.12
25.99,-1.50,8.81,-1.00
25.99,-2.28,8.32,-0.66
25.99,-2.16,8.17,-0.07
26.00,-1.29,8.55,0.11
26.00,0.17,8.67,0.48
26.00,1.56,8.34,1.05
26.00,2.51,7.85,1.24
26.01,3.15,7.49,1.45
26.01,3.58,7.22,1.81
26.01,3.83,6.93,1.99
26.01,4.04,6.60,2.05
26.02,4.07,6.31,2.41
26.02,3.98,6.02,2.72
26.02,3.81,5.83,2.99
26.02,3.47,5.84,3.26
26.03,3.06,5.91,3.64
26.03,2.54,6.05,3.96
26.03,2.05,6.30,4.14
26.03,1.59,6.52,4.19
26.04,1.23,6.76,4.17
26.04,0.93,6.97,4.08
26.04,0.38,7.26,4.09
26.04,0.54,7.37,3.93
26.05,0.74,7.42,3.65
26.05,0.65,7.57,3.44
26.05,0.58,7.72,3.30
26.05,0.61,7.86,3.08
26.06,0.68,7.95,2.84
26.06,0.77,7.96,2.61
26.06,0.86,8.04,2.37
26.06,0.96,8.04,2.11
26.07,1.03,8.06,1.94
26.07,1.11,8.06,1.66
26.07,1.20,8.08,1.49
26.07,1.23,8.11,1.36
26.08,1.24,8.12,1.18
26.08,1.26,8.20,1.11
26.08,1.28,8.18,0.95
26.08,1.21,8.15,0.89
26.09,1.15,8.12,0.90
26.09,1.11,8.05,0.87
26.09,1.05,7.99,0.90
26.09,0.94,7.92,0.90
26.10,0.86,7.84,0.97
26.10,0.77,7.81,1.12
26.10,0.64,7.68,1.21
26.10,0.56,7.60,1.25
26.11,0.49,7.54,1.38
26.11,0.32,7.43,1.51
26.11,0.14,7.29,1.61
26.11,-0.01,7.21,1.76
26.12,-0.17,7.11,1.94
26.12,-0.32,7.00,2.17
26.12,-0.35,6.88,2.42
26.12,-0.30,6.87,2.44
26.13,-0.28,6.82,2.51
26.13,-0.37,6.72,2.74
26.13,-0.60,6.65,2.95
26.13,-0.79,6.50,3.08
26.14,-0.92,6.41,3.19
26.14,-1.05,6.34,3.31
26.14,-1.15,6.20,3.39
26.14,-1.16,6.15,3.49
26.15,-1.12,6.11,3.54
26.15,-1.13,6.09,3.63
26.15,-0.95,6.05,3.72
26.15,-0.78,6.05,3.76
26.16,-0.59,5.93,3.82
26.16,-0.32,5.80,3.82
26.16,-0.13,5.80,3.77
26.16,0.11,5.72,3.66
26.17,0.44,5.66,3.43
26.17,0.70,5.69,3.22
26.17,0.99,5.66,3.09
26.17,1.17,5.60,2.89
26.18,1.34,5.55,2.73
26.18,1.50,5.54,2.68
26.18,1.61,5.52,2.54
26.18,1.73,5.46,2.48
26.19,1.93,5.37,2.45
26.19,2.03,5.33,2.45
26.19,2.07,5.41,2.61
26.19,2.22,5.44,2.69
26.20,2.47,5.42,2.81
26.20,2.61,5.32,2.96
26.20,2.73,5.33,3.13
26.20,2.77,5.26,3.32
26.21,2.73,5.42,3.47
26.21,2.79,5.67,3.73
26.21,2.95,5.73,3.99
26.21,3.16,5.94,4.29
26.22,3.38,6.16,4.59
26.22,3.65,6.40,4.75
26.22,3.89,6.68,4.99
26.22,4.14,7.02,5.35
26.23,4.36,7.39,5.75
26.23,4.48,7.79,6.17
26.23,4.55,8.24,6.42
26.23,4.58,8.61,6.69
26.24,4.60,9.06,6.85
26.24,4.66,9.42,7.05
26.24,4.73,9.79,7.16
26.24,4.71,10.18,7.23
26.25,4.86,10.51,7.30
26.25,4.98,10.88,7.32
26.25,5.07,11.18,7.32
26.25,5.21,11.33,7.30
26.26,5.31,11.48,7.22
26.26,5.42,11.67,7.19
26.26,5.43,11.83,7.11
26.26,5.53,11.83,6.99
26.27,5.66,11.85,6.81
26.27,5.72,11.72,6.57
26.27,5.95,11.45,6.36
26.27,6.18,11.24,6.06
26.28,6.27,10.90,5.73
26.28,6.29,10.51,5.52
26.28,6.16,10.18,5.30
26.28,5.92,9.87,5.16
26.29,5.70,9.61,5.07
26.29,5.45,9.40,5.12
26.29,5.30,9.14,5.17
26.29,5.17,8.98,5.32
26.30,5.03,8.85,5.49
26.30,4.84,8.82,5.71
26.30,4.63,8.79,6.01
26.30,4.40,8.80,6.24
26.31,4.28,8.82,6.44
26.31,4.19,8.85,6.66
26.31,4.28,8.90,6.86
26.31,4.33,8.88,6.99
26.32,4.34,8.88,7.09
26.32,4.47,8.84,7.13
26.32,4.53,8.80,7.02
26.32,4.67,8.65,6.88
26.33,4.78,8.57,6.69
26.33,4.95,8.44,6.43
26.33,5.12,8.33,6.26
26.33,5.21,8.34,6.07
26.34,5.24,8.31,5.87
26.34,5.19,8.31,5.82
26.34,5.03,8.35,5.85
26.34,4.80,8.44,5.89
26.35,4.48,8.49,5.93
26.35,4.14,8.56,6.06
26.35,3.78,8.62,6.07
26.35,3.42,8.62,6.06
26.36,3.00,8.76,5.94
26.36,2.58,8.92,5.85
26.36,2.09,9.18,5.70
26.36,1.58,9.51,5.45
26.37,1.03,9.90,5.25
26.37,0.60,10.37,5.01
26.37,0.18,10.90,4.55
26.37,-0.16,11.45,4.13
26.38,-0.51,11.95,3.66
26.38,-0.85,12.55,3.11
26.38,-1.15,13.14,2.68
26.38,-1.49,13.78,2.26
26.39,-1.79,14.47,1.82
26.39,-2.19,15.19,1.42
26.39,-2.60,16.03,1.09
26.39,-3.11,16.95,0.73
26.40,-3.61,17.94,0.41
26.40,-4.19,18.87,0.04
26.40,-4.74,19.60,-0.37
26.40,-5.31,20.04,-0.68
26.41,-5.88,20.19,-1.02
26.41,-6.35,19.83,-1.28
26.41,-6.56,19.19,-1.45
26.41,-6.50,17.77,-1.49
26.42,-5.90,15.67,-1.37
26.42,-4.59,13.44,-1.13
26.42,-3.21,11.64,-0.80
26.42,-1.95,10.24,-0.53
26.43,-1.02,9.08,-0.24
26.43,-0.31,8.18,0.14
26.43,0.11,7.49,0.47
26.43,0.22,6.95,0.83
26.44,0.10,6.51,1.05
26.44,-0.08,6.12,1.36
26.44,-0.26,5.89,1.64
26.44,-0.48,5.70,1.83
26.45,-0.65,5.67,2.09
26.45,-0.87,5.70,2.32
26.45,-0.99,5.71,2.58
26.45,-1.13,5.74,2.82
26.46,-1.31,5.86,3.12
26.46,-1.42,6.09,3.40
26.46,-1.46,6.27,3.59
26.46,-1.53,6.37,3.80
26.47,-1.55,6.60,3.91
26.47,-1.61,6.84,3.95
26.47,-1.78,7.15,3.97
26.47,-1.78,7.50,4.04
26.48,-1.73,7.88,4.03
26.48,-1.64,8.29,3.91
26.48,-1.53,8.51,3.76
26.48,-1.58,8.73,3.86
26.49,-1.73,8.93,3.96
26.49,-1.79,9.16,3.86
26.49,-1.80,9.36,3.66
26.49,-1.89,9.60,3.40
26.50,-1.91,9.89,3.14
26.50,-2.02,10.20,2.76
26.50,-2.16,10.54,2.30
26.50,-2.16,10.88,1.81
26.51,-2.13,11.26,1.38
26.51,-2.01,11.70,1.06
26.51,-1.85,12.04,0.84
26.51,-1.76,12.41,0.61
26.52,-1.67,12.72,0.41
26.52,-1.62,13.02,0.27
26.52,-1.62,13.19,0.22
26.52,-1.56,13.36,0.19
26.53,-1.55,13.53,0.15
26.53,-1.66,13.65,-0.06
26.53,-1.78,13.66,0.11
26.53,-1.58,13.50,0.31
26.54,-1.32,13.09,0.42
26.54,-0.98,12.44,0.62
26.54,-0.55,11.67,1.03
26.54,0.02,10.96,1.50
26.55,0.36,10.34,1.89
26.55,0.63,9.74,2.23
26.55,0.73,9.27,2.53
26.55,0.66,8.89,2.58
26.56,0.51,8.58,2.52
26.56,0.34,8.37,2.42
26.56,0.12,8.10,2.21
26.56,-0.05,7.84,1.83
26.57,-0.29,7.64,1.52
26.57,-0.42,7.47,1.25
26.57,-0.62,7.33,0.83
26.57,-0.83,7.22,0.47
26.58,-1.05,7.08,0.16
26.58,-1.40,7.02,-0.15
26.58,-1.46,6.75,-0.66
26.58,-1.27,6.50,-1.03
26.59,-1.12,6.17,-1.15
26.59,-1.07,5.95,-1.00
26.59,-1.01,5.92,-0.79
26.59,-0.92,5.94,-0.58
26.60,-0.89,6.03,-0.05
26.60,-0.91,6.15,0.47
26.60,-1.00,6.22,0.89
26.60,-1.18,6.28,1.30
26.61,-1.44,6.41,1.85
26.61,-1.73,6.61,2.34
26.61,-2.00,6.86,2.76
26.61,-2.28,7.10,3.14
26.62,-2.63,7.28,3.58
26.62,-2.87,7.53,4.08
26.62,-2.97,7.74,4.56
26.62,-3.03,7.88,4.99
26.63,-3.11,8.03,5.20
26.63,-3.11,8.18,5.35
26.63,-3.03,8.31,5.46
26.63,-2.96,8.41,5.45
26.64,-2.75,8.54,5.39
26.64,-2.44,8.58,5.34
26.64,-2.11,8.64,5.23
26.64,-1.68,8.65,5.17
26.65,-1.33,8.69,5.04
26.65,-1.05,8.77,4.97
26.65,-0.78,8.86,4.97
26.65,-0.59,8.87,4.77
26.66,-0.32,8.79,4.62
26.66,0.03,8.79,4.57
26.66,0.33,8.86,4.61
26.66,0.55,8.84,4.73
26.67,0.65,8.75,4.67
26.67,0.72,8.60,4.63
26.67,0.72,8.53,4.45
26.67,0.75,8.43,4.21
26.68,0.81,8.30,4.19
26.68,0.91,8.12,4.45
26.68,0.93,7.88,4.47
26.68,0.93,7.84,4.33
26.69,0.86,7.81,4.18
26.69,0.69,7.79,3.93
26.69,0.58,7.74,3.70
26.69,0.56,7.71,3.44
26.70,0.54,7.60,3.25
26.70,0.50,7.50,2.98
26.70,0.42,7.47,2.77
26.70,0.25,7.39,2.55
26.71,0.14,7.35,2.40
26.71,0.10,7.28,2.35
26.71,0.04,7.25,2.27
26.71,0.02,7.31,2.25
26.72,-0.02,7.39,2.29
26.72,0.02,7.45,2.32
26.72,0.09,7.56,2.48
26.72,0.03,7.63,2.64
26.73,0.01,7.74,2.72
26.73,0.06,7.82,2.82
26.73,0.05,7.86,2.82
26.73,0.02,7.97,2.87
26.74,0.02,8.02,2.84
26.74,0.02,8.07,2.83
26.74,0.03,8.17,2.83
26.74,-0.05,8.28,2.70
26.75,-0.06,8.10,2.88
26.75,-0.03,8.15,3.18
26.75,-0.06,8.27,3.24
26.75,0.06,8.27,3.25
26.76,0.24,8.30,3.39
26.76,0.30,8.29,3.47
26.76,0.33,8.31,3.43
26.76,0.35,8.30,3.39
26.77,0.33,8.33,3.37
26.77,0.25,8.39,3.38
26.77,0.20,8.36,3.45
26.77,0.07,8.39,3.51
26.78,0.12,8.34,3.57
26.78,0.12,8.25,3.64
26.78,0.15,8.18,3.72
26.78,0.27,8.04,3.83
26.79,0.32,7.94,3.95
26.79,0.23,7.90,3.99
26.79,0.16,7.83,3.97
26.79,0.17,7.78,3.90
26.80,0.20,7.79,3.94
26.80,0.15,7.78,4.00
26.80,0.07,7.69,4.08
26.80,-0.15,7.61,4.34
26.81,-0.31,7.67,4.43
26.81,-0.46,7.68,4.58
26.81,-0.60,7.70,4.69
26.81,-0.67,7.63,4.65
26.82,-0.80,7.64,4.52
26.82,-0.92,7.71,4.33
26.82,-1.05,7.77,4.13
26.82,-1.13,7.75,4.01
26.83,-1.25,7.88,3.99
26.83,-1.37,7.93,3.99
26.83,-1.45,7.94,3.94
26.83,-1.49,8.01,4.03
26.84,-1.54,8.11,4.10
26.84,-1.58,8.10,4.10
26.84,-1.58,8.14,4.18
26.84,-1.58,8.23,4.31
26.85,-1.60,8.20,4.40
26.85,-1.69,8.21,4.31
26.85,-1.70,8.23,4.26
26.85,-1.74,8.23,4.18
26.86,-1.79,8.25,4.08
26.86,-1.83,8.23,4.09
26.86,-1.85,8.18,4.14
26.86,-1.85,8.17,4.19
26.87,-1.83,8.21,4.18
26.87,-1.82,8.21,4.13
26.87,-1.84,8.25,4.17
26.87,-1.83,8.30,4.15
26.88,-1.81,8.45,4.13
26.88,-1.84,8.56,4.20
26.88,-1.90,8.67,4.13
26.88,-1.99,8.79,4.24
26.89,-2.01,8.94,4.25
26.89,-2.04,9.10,4.22
26.89,-2.09,9.13,4.21
26.89,-2.06,9.20,4.26
26.90,-2.10,9.22,4.28
26.90,-2.11,9.24,4.24
26.90,-2.12,9.21,4.22
26.90,-2.07,9.20,4.21
26.91,-2.08,9.13,4.23
26.91,-2.07,9.09,4.22
26.91,-2.03,9.09,4.15
26.91,-1.98,9.04,4.17
26.92,-1.89,8.96,4.20
26.92,-1.88,8.97,4.29
26.92,-1.86,8.91,4.39
26.92,-1.89,8.92,4.50
26.93,-1.89,8.87,4.53
26.93,-1.93,8.83,4.61
26.93,-1.95,8.78,4.72
26.93,-2.07,8.79,4.82
26.94,-2.12,8.77,4.97
26.94,-2.18,8.76,5.21
26.94,-2.32,8.76,5.29
26.94,-2.40,8.76,5.41
26.95,-2.46,8.79,5.46
26.95,-2.54,8.85,5.54
26.95,-2.54,8.87,5.71
26.95,-2.56,8.91,5.81
26.96,-2.49,8.94,5.81
26.96,-2.46,8.97,5.79
26.96,-2.34,8.97,5.80
26.96,-2.24,8.97,5.76
26.97,-2.06,8.99,5.70
26.97,-1.95,9.00,5.59
26.97,-1.80,8.97,5.57
26.97,-1.70,9.06,5.48
26.98,-1.54,9.08,5.36
26.98,-1.44,9.18,5.20
26.98,-1.39,9.24,5.04
26.98,-1.25,9.36,4.84
26.99,-1.09,9.52,4.57
26.99,-0.92,9.60,4.40
26.99,-0.72,9.67,4.21
26.99,-0.43,9.86,3.94
27.00,-0.17,9.97,3.66
27.00,0.07,10.06,3.28
27.00,0.26,10.20,2.93
27.01,0.42,10.36,2.60
27.01,0.63,10.49,2.38
27.01,0.73,10.60,2.32
27.01,0.80,10.77,2.23
27.01,0.77,10.88,2.25
27.02,0.75,10.96,2.17
27.02,0.54,11.01,2.17
27.02,0.24,11.00,2.05
27.02,-0.17,10.85,2.04
27.03,-0.59,10.65,2.06
27.03,-0.88,10.39,2.13
27.03,-1.17,10.16,2.35
27.03,-1.38,9.86,2.56
27.04,-1.57,9.61,2.71
27.04,-1.79,9.33,2.85
27.04,-1.97,9.05,2.95
27.04,-2.04,8.88,3.09
27.05,-2.19,8.67,3.19
27.05,-2.41,8.46,3.24
27.05,-2.55,8.30,3.27
27.05,-2.72,8.20,3.24
27.06,-2.84,8.14,3.23
27.06,-2.95,8.06,3.17
27.06,-3.06,8.02,3.06
27.06,-3.15,8.03,3.00
27.07,-3.43,8.01,3.14
27.07,-3.23,7.95,2.70
27.07,-3.10,7.95,2.24
27.07,-3.04,8.01,2.12
27.08,-2.87,7.94,2.02
27.08,-2.62,7.89,1.87
27.08,-2.37,7.90,1.82
27.08,-2.03,7.98,1.64
27.09,-1.82,8.08,1.36
27.09,-1.60,8.16,1.09
27.09,-1.26,8.31,0.72
27.09,-0.92,8.45,0.38
27.10,-0.58,8.76,0.15
27.10,-0.35,9.05,-0.21
27.10,-0.19,9.40,-0.68
27.10,0.04,9.76,-1.03
27.11,0.31,10.04,-1.44
27.11,0.55,10.39,-1.80
27.11,0.69,10.62,-1.98
27.11,0.79,10.83,-2.11
27.12,0.91,11.06,-2.21
27.12,0.99,11.22,-2.19
27.12,0.99,11.41,-2.02
27.12,1.10,11.60,-1.72
27.13,1.30,11.72,-1.51
27.13,1.28,11.85,-1.30
27.13,1.06,12.09,-1.11
27.13,0.88,12.33,-0.93
27.14,0.83,12.57,-0.71
27.14,0.72,12.78,-0.59
27.14,0.56,12.98,-0.57
27.14,0.42,13.12,-0.53
27.15,0.17,13.26,-0.63
27.15,-0.07,13.37,-0.64
27.15,-0.26,13.42,-0.49
27.15,-0.26,13.44,-0.16
27.16,-0.21,13.43,0.03
27.16,-0.14,13.39,0.30
27.16,-0.09,13.21,0.50
27.16,-0.02,12.93,0.61
27.17,0.07,12.62,0.81
27.17,0.18,12.29,1.00
27.17,0.37,11.98,1.08
27.17,0.50,11.67,1.09
27.18,0.54,11.38,1.07
27.18,0.53,11.05,0.87
27.18,0.54,10.82,0.70
27.18,0.60,10.50,0.59
27.19,0.66,10.16,0.43
27.19,0.85,9.91,0.26
27.19,1.10,9.68,0.17
27.19,1.47,9.23,-0.05
27.20,1.60,8.98,-0.24
27.20,1.37,9.02,-0.10
27.20,1.27,9.21,0.19
27.20,1.56,9.33,0.41
27.21,2.19,9.30,0.72
27.21,2.48,9.24,0.82
27.21,2.61,9.06,0.98
27.21,2.50,8.82,1.04
27.22,2.11,8.61,0.95
27.22,1.85,8.51,0.82
27.22,1.68,8.41,0.87
27.22,1.64,8.39,1.13
27.23,1.63,8.37,1.55
27.23,1.54,8.33,1.97
27.23,1.43,8.33,2.34
27.23,1.42,8.27,2.51
27.24,1.34,8.09,2.59
27.24,1.42,7.92,2.70
27.24,1.63,7.72,2.72
27.24,1.91,7.62,2.78
27.25,2.10,7.51,2.94
27.25,2.25,7.46,3.13
27.25,2.30,7.37,3.19
27.25,2.31,7.29,3.21
27.26,2.21,7.32,3.32
27.26,2.04,7.37,3.39
27.26,1.87,7.43,3.43
27.26,1.63,7.41,3.54
27.27,1.41,7.39,3.62
27.27,1.24,7.39,3.65
27.27,1.14,7.37,3.72
27.27,1.02,7.41,3.78
27.28,0.92,7.45,3.83
27.28,0.82,7.46,3.83
27.28,0.75,7.48,3.90
27.28,0.65,7.50,3.90
27.29,0.57,7.51,3.84
27.29,0.49,7.51,3.82
27.29,0.35,7.58,3.74
27.29,0.28,7.57,3.68
27.30,0.18,7.56,3.53
27.30,0.07,7.60,3.48
27.30,-0.10,7.61,3.36
27.30,-0.22,7.63,3.29
27.31,-0.30,7.65,3.14
27.31,-0.36,7.60,2.96
27.31,-0.41,7.54,2.82
27.31,-0.49,7.53,2.68
27.32,-0.57,7.47,2.63
27.32,-0.62,7.42,2.54
27.32,-0.65,7.34,2.38
27.32,-0.66,7.28,2.29
27.33,-0.67,7.22,2.19
27.33,-0.63,7.18,2.10
27.33,-0.54,7.14,2.12
27.33,-0.48,7.09,2.00
27.34,-0.28,7.07,1.91
27.34,-0.19,7.04,1.86
27.34,-0.05,7.00,1.79
27.34,0.08,6.94,1.70
27.35,0.17,6.93,1.59
27.35,0.14,6.96,1.54
27.35,0.22,7.05,1.50
27.35,0.25,7.06,1.53
27.36,0.27,7.14,1.63
27.36,0.25,7.22,1.70
27.36,0.19,7.25,1.80
27.36,0.07,7.29,1.86
27.37,0.06,7.36,1.94
27.37,0.18,7.33,1.94
27.37,0.28,7.28,2.04
27.37,0.23,7.19,2.14
27.38,-0.02,7.16,2.25
27.38,-0.21,7.08,2.31
27.38,-0.34,7.08,2.40
27.38,-0.47,7.02,2.46
27.39,-0.52,6.88,2.43
27.39,-0.55,6.76,2.34
27.39,-0.54,6.64,2.38
27.39,-0.50,6.58,2.46
27.40,-0.39,6.47,2.55
27.40,-0.30,6.38,2.70
27.40,-0.28,6.36,2.80
27.40,-0.12,6.28,2.90
27.41,0.02,6.27,3.02
27.41,0.08,6.21,3.13
27.41,0.21,6.19,3.28
27.41,0.35,6.24,3.39
27.42,0.48,6.23,3.58
27.42,0.59,6.24,3.80
27.42,0.68,6.29,3.96
27.42,0.73,6.26,4.11
27.43,0.88,6.27,4.24
27.43,1.04,6.31,4.46
27.43,1.12,6.45,4.69
27.43,1.22,6.60,4.92
27.44,1.41,6.63,5.09
27.44,1.68,6.66,5.16
27.44,1.90,6.76,5.24
27.44,2.15,6.80,5.29
27.45,2.33,6.91,5.39
27.45,2.46,7.07,5.52
27.45,2.58,7.21,5.59
27.45,2.66,7.34,5.73
27.46,2.78,7.47,5.99
27.46,2.96,7.58,6.21
27.46,3.27,7.70,6.44
27.46,3.35,7.97,6.66
27.47,3.51,8.19,6.78
27.47,3.72,8.18,6.88
27.47,4.07,8.18,7.01
27.47,4.41,8.15,7.08
27.48,4.76,7.99,7.19
27.48,4.92,7.96,7.19
27.48,5.01,7.96,7.12
27.48,5.06,8.03,7.10
27.49,5.05,8.11,6.95
27.49,5.03,8.16,6.73
27.49,4.95,8.22,6.40
27.49,4.88,8.37,6.06
27.50,4.88,8.50,5.64
27.50,4.88,8.65,5.19
27.50,5.00,8.72,4.83
27.50,5.10,8.79,4.53
27.51,5.22,8.87,4.25
27.51,5.36,8.91,4.08
27.51,5.36,9.00,3.97
27.51,5.26,9.15,3.99
27.52,5.16,9.29,4.02
27.52,5.10,9.44,4.02
27.52,4.98,9.66,4.12
27.52,4.88,9.90,4.20
27.53,4.80,10.22,4.37
27.53,4.68,10.60,4.59
27.53,4.71,10.90,4.78
27.53,4.77,11.26,4.99
27.54,4.83,11.49,5.27
27.54,4.90,11.71,5.52
27.54,4.99,11.86,5.83
27.54,5.13,11.94,6.14
27.55,5.25,11.95,6.57
27.55,5.32,11.88,7.02
27.55,5.44,11.67,7.43
27.55,5.64,11.44,7.91
27.56,5.89,11.13,8.34
27.56,6.31,10.76,8.67
27.56,6.73,10.38,8.87
27.56,7.24,9.92,8.98
27.57,7.78,9.50,9.09
27.57,8.34,9.05,9.10
27.57,8.92,8.59,9.05
27.57,9.24,8.22,8.98
27.58,9.34,7.97,8.80
27.58,9.08,7.83,8.63
27.58,8.50,7.98,8.50
27.58,7.62,8.19,8.34
27.59,6.73,8.30,8.14
27.59,6.00,8.40,7.83
27.59,5.35,8.49,7.52
27.59,4.70,8.53,7.17
27.60,4.10,8.48,6.63
27.60,3.43,8.45,6.17
27.60,2.80,8.52,5.69
27.60,2.16,8.63,5.17
27.61,1.60,8.68,4.49
27.61,0.97,8.79,3.97
27.61,0.47,8.94,3.47
27.61,0.09,9.19,2.97
27.62,-0.17,9.47,2.58
27.62,-0.34,9.78,2.32
27.62,-0.48,10.05,2.01
27.62,-0.58,10.30,1.67
27.63,-0.90,10.61,1.43
27.63,-1.50,11.06,1.15
27.63,-2.20,11.60,1.02
27.63,-2.81,12.15,0.89
27.64,-3.24,12.73,0.74
27.64,-3.63,13.47,0.70
27.64,-3.90,14.04,0.67
27.64,-4.21,14.66,0.50
27.65,-4.59,15.46,0.38
27.65,-4.90,16.19,0.30
27.65,-5.24,16.81,0.28
27.65,-5.49,17.38,0.22
27.66,-5.73,17.85,0.19
27.66,-5.92,18.13,0.19
27.66,-6.07,18.17,0.15
27.66,-6.09,17.97,0.22
27.67,-5.97,17.31,0.29
27.67,-5.38,15.87,0.40
27.67,-4.14,13.82,0.68
27.67,-2.74,11.94,0.87
27.68,-1.42,10.53,1.09
27.68,-0.38,9.42,1.41
27.68,0.51,8.51,1.66
27.68,0.97,7.82,1.74
27.69,1.19,7.31,1.80
27.69,1.11,6.96,1.82
27.69,0.87,6.79,1.79
27.69,0.45,6.67,1.71
27.70,0.06,6.57,1.74
27.70,-0.46,6.65,1.55
27.70,-0.75,6.60,1.60
27.70,-1.01,6.59,1.55
27.71,-1.23,6.58,1.45
27.71,-1.48,6.66,1.34
27.71,-1.62,6.77,1.37
27.71,-1.68,6.78,1.53
27.72,-1.88,6.90,1.62
27.72,-2.16,7.13,1.60
27.72,-2.41,7.46,1.65
27.72,-2.56,7.64,1.68
27.73,-2.58,7.82,1.65
27.73,-2.40,7.90,1.56
27.73,-2.37,7.97,1.52
27.73,-2.48,7.98,1.75
27.74,-2.58,8.05,1.85
27.74,-2.67,8.22,1.86
27.74,-2.75,8.40,1.78
27.74,-2.82,8.63,1.65
27.75,-2.86,8.91,1.51
27.75,-2.94,9.15,1.49
27.75,-2.88,9.41,1.56
27.75,-2.83,9.69,1.22
27.76,-2.75,9.88,0.84
27.76,-2.50,10.09,0.63
27.76,-2.10,10.40,0.54
27.76,-1.94,10.54,0.73
27.77,-1.74,10.71,1.17
27.77,-1.75,10.86,1.07
27.77,-1.65,11.02,1.21
27.77,-1.40,11.10,1.59
27.78,-1.20,11.22,1.86
27.78,-1.11,11.25,2.30
27.78,-0.93,11.23,2.67
27.78,-0.79,11.22,2.71
27.79,-0.46,11.13,3.15
27.79,-0.28,10.89,3.32
27.79,-0.29,10.59,3.15
27.79,-0.24,10.31,2.98
27.80,-0.15,9.97,2.97
27.80,-0.03,9.65,2.94
27.80,0.06,9.30,2.74
27.80,0.11,8.97,2.78
27.81,0.19,8.58,2.84
27.81,0.18,8.28,2.78
27.81,0.12,8.09,2.75
27.81,0.00,7.84,2.74
27.82,-0.14,7.59,2.69
27.82,-0.23,7.31,2.51
27.82,-0.31,7.09,2.27
27.82,-0.45,6.95,1.99
27.83,-0.57,6.89,1.61
27.83,-0.87,6.91,1.00
27.83,-1.13,6.88,0.54
27.83,-1.45,6.93,0.24
27.84,-1.73,6.97,0.00
27.84,-1.91,6.97,0.05
27.84,-1.93,7.08,0.53
27.84,-2.00,7.27,0.91
27.85,-2.08,7.35,1.23
27.85,-2.22,7.41,1.51
27.85,-2.24,7.44,1.70
27.85,-2.29,7.42,2.06
27.86,-2.36,7.50,2.42
27.86,-2.41,7.61,2.75
27.86,-2.52,7.69,3.18
27.86,-2.61,7.84,3.53
27.87,-2.64,7.93,3.79
27.87,-2.64,8.06,4.06
27.87,-2.57,8.19,4.30
27.87,-2.36,8.28,4.40
27.88,-2.14,8.43,4.49
27.88,-1.90,8.56,4.57
27.88,-1.52,8.61,4.56
27.88,-1.22,8.67,4.50
27.89,-0.88,8.72,4.37
27.89,-0.58,8.74,4.27
27.89,-0.19,8.71,4.22
27.89,0.13,8.70,4.15
27.90,0.35,8.71,4.20
27.90,0.53,8.71,4.16
27.90,0.68,8.71,4.12
27.90,0.81,8.66,4.12
27.91,0.87,8.57,3.97
27.91,0.92,8.49,3.84
27.91,1.03,8.42,3.77
27.91,1.13,8.35,3.65
27.92,1.22,8.22,3.59
27.92,1.27,8.09,3.48
27.92,1.14,8.06,3.30
27.92,0.80,7.96,3.10
27.93,0.54,7.79,3.06
27.93,0.33,7.60,3.24
27.93,0.09,7.51,3.57
27.93,-0.26,7.44,3.82
27.94,-0.45,7.40,3.97
27.94,-0.57,7.33,4.09
27.94,-0.60,7.33,4.08
27.94,-0.56,7.33,3.93
27.95,-0.44,7.34,3.75
27.95,-0.43,7.38,3.67
27.95,-0.42,7.51,3.56
27.95,-0.39,7.57,3.51
27.96,-0.38,7.56,3.56
27.96,-0.29,7.60,3.50
27.96,-0.24,7.64,3.46
27.96,-0.29,7.75,3.42
27.97,-0.24,7.84,3.39
27.97,-0.24,7.90,3.35
27.97,-0.24,7.95,3.20
27.97,-0.30,8.02,3.09
27.98,-0.28,7.92,3.23
27.98,-0.16,8.11,3.42
27.98,0.07,8.16,3.59
27.98,0.29,8.16,3.71
27.99,0.44,8.15,3.82
27.99,0.60,8.11,3.86
27.99,0.72,8.06,3.82
27.99,0.82,8.07,3.68
28.00,0.93,8.05,3.60
28.00,0.91,8.05,3.52
28.00,0.93,8.05,3.47
28.01,0.91,8.06,3.44
28.01,0.97,8.02,3.46
28.01,1.04,8.01,3.45
28.01,1.08,7.98,3.51
28.01,1.12,7.88,3.67
28.02,1.08,7.87,3.71
28.02,1.05,7.82,3.96
28.02,1.00,7.83,4.25
28.02,0.96,7.80,4.47
28.03,0.87,7.90,4.52
28.03,0.77,7.97,4.51
28.03,0.65,8.10,4.55
28.03,0.47,8.21,4.38
28.04,0.24,8.34,4.24
28.04,0.06,8.51,4.04
28.04,-0.11,8.69,3.84
28.04,-0.30,8.88,3.81
28.05,-0.50,9.03,3.66
28.05,-0.66,9.15,3.54
28.05,-0.89,9.24,3.40
28.05,-0.99,9.36,3.22
28.06,-1.15,9.39,3.09
28.06,-1.32,9.36,3.00
28.06,-1.46,9.33,2.87
28.06,-1.55,9.29,2.77
28.07,-1.68,9.25,2.78
28.07,-1.83,9.14,2.84
28.07,-1.89,9.06,3.10
28.07,-1.91,8.93,3.41
28.08,-2.00,8.76,3.68
28.08,-2.12,8.60,3.88
28.08,-2.19,8.39,4.07
28.08,-2.30,8.20,4.21
28.09,-2.34,8.01,4.38
28.09,-2.44,7.90,4.57
28.09,-2.55,7.72,4.67
28.09,-2.63,7.61,4.75
28.10,-2.64,7.47,4.86
28.10,-2.59,7.33,4.86
28.10,-2.66,7.29,4.76
28.10,-2.53,7.23,4.89
28.11,-2.34,7.28,5.12
28.11,-2.13,7.35,5.29
28.11,-1.89,7.37,5.36
28.11,-1.60,7.42,5.32
28.12,-1.39,7.54,5.20
28.12,-1.20,7.55,4.96
28.12,-1.04,7.67,4.72
28.12,-0.93,7.85,4.42
28.13,-0.85,8.02,4.14
28.13,-0.71,8.18,4.01
28.13,-0.72,8.31,3.89
28.13,-0.72,8.43,3.81
28.14,-0.64,8.55,3.74
28.14,-0.57,8.66,3.67
28.14,-0.53,8.77,3.63
28.14,-0.52,8.81,3.71
28.15,-0.50,8.82,3.89
28.15,-0.48,8.76,3.96
28.15,-0.47,8.71,4.03
28.15,-0.44,8.62,4.23
28.16,-0.55,8.59,4.35
28.16,-0.66,8.50,4.48
28.16,-0.71,8.38,4.65
28.16,-0.88,8.34,4.80
28.17,-1.10,8.34,4.95
28.17,-1.25,8.36,5.10
28.17,-1.48,8.37,5.23
28.17,-1.71,8.44,5.38
28.18,-1.95,8.49,5.53
28.18,-2.12,8.52,5.73
28.18,-2.29,8.54,5.95
28.18,-2.46,8.53,6.22
28.19,-2.55,8.56,6.34
28.19,-2.65,8.59,6.43
28.19,-2.86,8.66,6.43
28.19,-2.98,8.72,6.47
28.20,-3.14,8.80,6.37
28.20,-3.33,8.84,6.30
28.20,-3.48,8.92,6.14
28.20,-3.63,8.99,5.97
28.21,-3.76,9.05,5.80
28.21,-3.88,9.06,5.48
28.21,-3.89,9.07,5.16
28.21,-3.96,9.12,4.89
28.22,-3.94,9.24,4.58
28.22,-3.77,9.33,4.35
28.22,-3.56,9.45,4.09
28.22,-3.26,9.59,3.81
28.23,-2.88,9.75,3.53
28.23,-2.37,9.97,3.30
28.23,-1.96,10.14,3.11
28.23,-1.57,10.25,2.91
28.24,-1.25,10.33,2.68
28.24,-0.99,10.35,2.50
28.24,-0.80,10.31,2.32
28.24,-0.58,10.19,2.22
28.25,-0.41,10.02,2.16
28.25,-0.17,9.80,2.15
28.25,0.04,9.52,2.21
28.25,0.19,9.21,2.33
28.26,0.20,8.91,2.44
28.26,0.27,8.62,2.58
28.26,0.40,8.30,2.67
28.26,0.54,7.98,2.83
28.27,0.61,7.65,3.02
28.27,0.69,7.40,3.15
28.27,0.81,7.18,3.37
28.27,0.87,6.97,3.60
28.28,0.81,6.79,3.75
28.28,0.67,6.59,3.90
28.28,0.67,6.48,3.99
28.28,0.59,6.34,4.17
28.29,0.44,6.16,4.21
28.29,0.35,6.05,4.14
28.29,0.33,5.97,4.01
28.29,0.33,5.87,3.92
28.30,0.38,5.95,3.72
28.30,0.35,5.94,3.57
28.30,0.23,6.00,3.40
28.30,0.15,6.13,3.03
28.31,0.01,6.34,2.67
28.31,0.03,6.64,2.37
28.31,-0.02,6.91,2.04
28.31,-0.15,7.33,1.72
28.32,-0.26,7.92,1.40
28.32,-0.36,8.59,1.16
28.32,-0.49,9.30,0.96
28.33,-0.55,10.15,0.65
28.33,-0.68,11.04,0.37
28.33,-0.82,12.04,0.15
28.33,-0.90,13.06,-0.17
28.33,-0.91,14.01,-0.50
28.34,-0.99,15.00,-0.61
28.34,-0.97,15.80,-0.69
28.34,-0.85,16.44,-0.75
28.34,-0.65,17.02,-0.77
28.35,-0.60,17.53,-0.78
28.35,-0.62,17.83,-0.85
28.35,-0.52,18.14,-0.99
28.35,-0.36,18.35,-1.08
28.36,-0.11,18.54,-1.21
28.36,0.10,18.63,-1.41
28.36,0.20,18.65,-1.65
28.36,0.12,18.47,-1.80
28.37,-0.04,18.20,-1.81
28.37,-0.22,17.73,-1.80
28.37,-0.50,17.19,-1.66
28.37,-0.71,16.57,-1.49
28.38,-0.86,15.93,-1.32
28.38,-0.88,15.25,-1.01
28.38,-0.73,14.52,-0.80
28.38,-0.59,13.77,-0.71
28.39,-0.47,13.06,-0.88
28.39,-0.42,12.48,-0.89
28.39,-0.27,11.99,-0.63
28.39,-0.15,11.54,-0.57
28.40,0.08,11.10,-0.47
28.40,0.42,10.72,-0.30
28.40,0.72,10.47,-0.15
28.40,0.96,10.07,0.00
28.41,1.17,9.71,0.06
28.41,1.35,9.50,-0.10
28.41,1.61,9.41,-0.19
28.41,1.83,9.37,0.08
28.42,1.66,9.25,0.56
28.42,1.51,9.22,1.19
28.42,1.57,9.20,1.75
28.42,1.63,9.04,1.94
28.43,1.76,8.80,1.96
28.43,2.07,8.41,2.05
28.43,2.19,8.05,2.13
28.43,2.31,7.81,2.20
28.44,2.45,7.48,2.14
28.44,2.51,7.09,2.30
28.44,2.51,6.77,2.72
28.44,2.48,6.53,3.06
28.45,2.34,6.45,3.08
28.45,2.15,6.36,3.15
28.45,1.95,6.29,3.21
28.45,1.80,6.27,3.40
28.46,1.71,6.29,3.66
28.46,1.59,6.25,3.77
28.46,1.44,6.29,3.91
28.46,1.36,6.43,4.13
28.47,1.23,6.53,4.22
28.47,1.06,6.65,4.32
28.47,0.86,6.87,4.31
28.47,0.74,7.00,4.18
28.48,0.63,7.18,4.03
28.48,0.58,7.29,3.93
28.48,0.54,7.42,3.91
28.48,0.45,7.57,3.76
28.49,0.50,7.71,3.61
28.49,0.47,7.78,3.47
28.49,0.46,7.90,3.32
28.49,0.39,7.94,3.23
28.50,0.36,8.01,3.05
28.50,0.33,8.11,2.92
28.50,0.31,8.17,2.78
28.50,0.36,8.17,2.58
28.51,0.32,8.18,2.46
28.51,0.36,8.13,2.43
28.51,0.36,8.04,2.31
28.51,0.41,7.97,2.18
28.52,0.48,7.90,2.13
28.52,0.47,7.81,2.08
28.52,0.53,7.66,2.11
28.52,0.56,7.53,2.06
28.53,0.51,7.34,2.00
28.53,0.53,7.19,2.06
28.53,0.45,7.10,2.07
28.53,0.37,7.03,2.08
28.54,0.31,6.93,2.09
28.54,0.25,6.82,2.05
28.54,0.20,6.75,2.09
28.54,0.20,6.57,2.15
28.55,0.19,6.47,2.16
28.55,0.14,6.33,2.25
28.55,0.11,6.16,2.15
28.55,0.11,6.04,2.07
28.56,0.03,5.94,2.10
28.56,-0.06,5.87,2.09
28.56,-0.13,5.83,2.14
28.56,-0.12,5.77,2.19
28.57,-0.14,5.75,2.21
28.57,-0.18,5.73,2.25
28.57,-0.16,5.70,2.32
28.57,-0.14,5.67,2.30
28.58,-0.09,5.62,2.34
28.58,-0.01,5.64,2.37
28.58,0.07,5.61,2.43
28.58,0.16,5.60,2.37
28.59,0.23,5.60,2.25
28.59,0.41,5.57,2.29
28.59,0.57,5.63,2.26
28.59,0.64,5.62,2.18
28.60,0.81,5.69,2.16
28.60,0.88,5.82,2.14
28.60,1.01,5.89,2.11
28.60,1.07,5.95,2.15
28.61,1.16,6.04,2.14
28.61,1.26,6.08,2.15
28.61,1.42,6.17,2.18
28.61,1.54,6.27,2.22
28.62,1.63,6.36,2.31
28.62,1.71,6.49,2.47
28.62,1.73,6.54,2.67
28.62,1.85,6.63,2.87
28.63,1.89,6.64,3.16
28.63,1.96,6.64,3.38
28.63,1.98,6.62,3.72
28.63,2.11,6.64,4.00
28.64,2.24,6.71,4.29
28.64,2.39,6.70,4.60
28.64,2.56,6.66,4.95
28.64,2.76,6.66,5.20
28.65,2.84,6.84,5.43
28.65,2.77,7.08,5.71
28.65,2.81,7.17,5.97
28.65,3.00,7.11,6.11
28.66,3.31,7.06,6.32
28.66,3.62,7.05,6.57
28.66,3.86,6.99,6.78
28.66,4.03,7.02,6.91
28.67,4.08,7.06,7.01
28.67,4.18,7.10,7.01
28.67,4.27,7.08,6.97
28.67,4.35,7.11,6.90
28.68,4.39,7.13,6.76
28.68,4.47,7.16,6.59
28.68,4.62,7.22,6.40
28.68,4.82,7.33,6.34
28.69,4.87,7.43,6.15
28.69,4.98,7.54,5.85
28.69,5.06,7.71,5.72
28.69,5.17,7.93,5.48
28.70,5.24,8.14,5.31
28.70,5.36,8.34,5.20
28.70,5.52,8.59,5.06
28.70,5.62,8.85,4.94
28.71,5.79,9.11,4.91
28.71,6.02,9.36,4.88
28.71,6.28,9.62,4.84
28.71,6.41,9.85,4.85
28.72,6.65,10.12,4.93
28.72,6.83,10.40,4.98
28.72,6.89,10.75,5.13
28.72,6.91,11.01,5.32
28.73,6.86,11.25,5.53
28.73,6.69,11.52,5.78
28.73,6.51,11.77,6.02
28.73,6.30,12.03,6.26
28.74,6.05,12.22,6.56
28.74,5.79,12.40,6.87
28.74,5.60,12.47,7.06
28.74,5.46,12.45,7.33
28.75,5.36,12.40,7.58
28.75,5.29,12.23,7.71
28.75,5.29,11.94,7.83
28.75,5.42,11.63,8.02
28.76,5.60,11.19,8.10
28.76,5.84,10.79,8.30
28.76,6.13,10.36,8.41
28.76,6.48,9.91,8.39
28.77,6.73,9.51,8.29
28.77,7.00,9.23,8.28
28.77,7.17,9.03,8.19
28.77,7.21,8.93,8.10
28.78,7.00,8.94,7.99
28.78,6.66,8.94,7.94
28.78,6.29,8.94,7.91
28.78,5.88,8.84,7.85
28.79,5.38,8.74,7.72
28.79,4.95,8.67,7.60
28.79,4.49,8.54,7.40
28.79,3.98,8.41,7.14
28.80,3.42,8.35,6.78
28.80,2.84,8.33,6.36
28.80,2.16,8.37,5.92
28.80,1.55,8.46,5.49
28.81,1.07,8.61,5.12
28.81,0.65,8.76,4.71
28.81,0.43,8.99,4.30
28.81,0.24,9.32,3.87
28.82,0.06,9.65,3.33
28.82,-0.18,10.08,2.72
28.82,-0.50,10.68,2.19
28.82,-0.88,11.25,1.56
28.83,-1.34,11.91,1.05
28.83,-1.76,12.68,0.67
28.83,-2.15,13.58,0.48
28.83,-2.61,14.48,0.36
28.84,-2.89,15.39,0.33
28.84,-3.22,16.41,0.25
28.84,-3.71,17.44,0.19
28.84,-4.28,18.39,0.06
28.85,-4.82,19.29,-0.07
28.85,-5.42,20.04,-0.26
28.85,-5.85,20.49,-0.43
28.85,-5.98,20.47,-0.59
28.86,-6.06,20.05,-0.70
28.86,-6.25,19.04,-0.79
28.86,-6.21,17.53,-0.77
28.86,-5.68,15.51,-0.55
28.87,-4.57,13.35,-0.18
28.87,-3.44,11.54,0.30
28.87,-2.51,10.22,0.81
28.87,-1.72,9.15,1.36
28.88,-1.13,8.30,1.81
28.88,-0.72,7.64,2.16
28.88,-0.46,7.08,2.44
28.88,-0.47,6.68,2.64
28.89,-0.59,6.39,2.84
28.89,-0.91,6.16,2.94
28.89,-1.24,6.04,3.04
28.89,-1.55,5.87,3.11
28.90,-1.78,5.75,3.14
28.90,-1.97,5.68,3.12
28.90,-2.21,5.65,3.10
28.90,-2.40,5.61,3.09
28.91,-2.59,5.65,3.13
28.91,-2.78,5.68,3.09
28.91,-2.99,5.76,3.02
28.91,-3.15,5.97,2.97
28.92,-3.28,6.16,3.06
28.92,-3.41,6.33,3.03
28.92,-3.37,6.49,2.95
28.92,-3.30,6.57,2.91
28.93,-3.29,6.60,2.83
28.93,-3.21,6.66,2.73
28.93,-3.12,6.69,2.56
28.93,-3.08,6.88,2.33
28.94,-3.06,7.11,2.11
28.94,-2.95,7.32,2.09
28.94,-2.65,7.57,2.03
28.94,-2.55,7.77,1.76
28.95,-2.46,8.13,1.45
28.95,-2.48,8.57,1.02
28.95,-2.60,9.00,0.61
28.95,-2.58,9.49,0.16
28.96,-2.49,9.90,-0.19
28.96,-2.44,10.28,-0.53
28.96,-2.56,10.75,-0.62
28.96,-2.75,11.30,-0.56
28.97,-2.84,11.76,-0.62
28.97,-2.85,12.11,-0.79
28.97,-3.00,12.46,-0.86
28.97,-3.17,12.79,-0.63
28.98,-3.39,13.09,-0.28
28.98,-3.54,13.29,0.03
28.98,-3.60,13.34,0.36
28.98,-3.54,13.15,0.81
28.99,-3.27,12.81,1.35
28.99,-2.83,12.16,1.97
28.99,-2.27,11.40,2.49
28.99,-1.64,10.63,2.93
29.00,-1.12,9.91,3.33
29.00,-0.65,9.16,3.52
29.00,-0.26,8.51,3.58
29.01,0.01,7.97,3.49
29.01,0.20,7.51,3.29
29.01,0.37,6.96,2.93
29.01,0.42,6.58,2.62
29.01,0.27,6.35,2.32
29.02,0.03,6.24,1.89
29.02,-0.26,6.12,1.40
29.02,-0.54,6.06,0.81
29.02,-0.89,6.09,0.27
29.03,-1.11,6.15,-0.28
29.03,-1.32,6.21,-0.85
29.03,-1.34,6.26,-1.15
29.03,-1.21,6.41,-1.05
29.04,-1.20,6.60,-0.81
29.04,-1.28,6.84,-0.27
29.04,-1.41,7.03,0.51
29.04,-1.55,7.26,1.21
29.05,-1.65,7.54,1.82
29.05,-1.72,7.71,2.41
29.05,-1.83,7.82,2.92
29.05,-2.04,8.00,3.31
29.06,-2.20,8.14,3.74
29.06,-2.31,8.28,4.17
29.06,-2.34,8.36,4.43
29.06,-2.36,8.41,4.61
29.07,-2.31,8.48,4.73
29.07,-2.14,8.51,4.77
29.07,-2.09,8.55,4.72
29.07,-1.92,8.64,4.64
29.08,-1.50,8.59,4.68
29.08,-1.29,8.54,4.67
29.08,-1.17,8.54,4.44
29.08,-1.04,8.55,4.17
29.09,-0.82,8.60,3.98
29.09,-0.50,8.59,4.06
29.09,-0.21,8.61,4.09
29.09,0.08,8.60,4.18
29.10,0.23,8.56,4.38
29.10,0.39,8.39,4.63
29.10,0.55,8.20,4.93
29.10,0.69,8.07,5.12
29.11,1.01,7.92,5.31
29.11,1.23,7.82,5.39
29.11,1.52,7.72,5.43
29.11,1.74,7.64,5.37
29.12,1.93,7.60,5.18
29.12,2.07,7.50,4.92
29.12,2.05,7.45,4.62
29.12,2.01,7.40,4.24
29.13,1.89,7.34,3.92
29.13,1.65,7.37,3.72
29.13,1.29,7.37,3.48
29.13,0.99,7.37,3.35
29.14,0.66,7.40,3.28
29.14,0.33,7.49,3.09
29.14,-0.01,7.52,3.05
29.14,-0.32,7.54,3.11
29.15,-0.57,7.61,3.12
29.15,-0.84,7.73,3.05
29.15,-1.03,7.69,3.09
29.15,-1.04,7.65,3.36
29.16,-1.01,7.76,3.55
29.16,-0.89,7.82,3.61
29.16,-0.66,7.85,3.81
29.16,-0.45,7.81,3.98
29.17,-0.24,7.79,4.02
29.17,-0.06,7.82,3.96
29.17,0.08,7.86,3.91
29.17,0.22,7.83,3.88
29.18,0.28,7.85,3.86
29.18,0.27,7.84,3.83
29.18,0.28,7.84,3.87
29.18,0.37,7.72,3.89
29.19,0.42,7.59,3.95
29.19,0.47,7.52,3.89
29.19,0.51,7.40,3.95
29.19,0.51,7.26,4.02
29.20,0.50,7.30,4.02
29.20,0.53,7.32,4.07
29.20,0.57,7.36,4.19
29.20,0.55,7.51,4.27
29.21,0.55,7.61,4.32
29.21,0.55,7.70,4.34
29.21,0.52,7.88,4.46
29.21,0.50,8.06,4.46
29.22,0.49,8.27,4.46
29.22,0.48,8.46,4.43
29.22,0.51,8.65,4.40
29.22,0.51,8.84,4.36
29.23,0.45,8.96,4.26
29.23,0.44,9.12,4.20
29.23,0.42,9.25,4.11
29.23,0.40,9.34,4.06
29.24,0.34,9.45,3.99
29.24,0.30,9.57,3.81
29.24,0.18,9.57,3.67
29.24,0.06,9.53,3.45
29.25,-0.03,9.48,3.20
29.25,-0.22,9.42,2.98
29.25,-0.40,9.28,2.86
29.25,-0.53,9.17,2.81
29.26,-0.69,9.02,2.88
29.26,-0.78,8.86,3.03
29.26,-0.84,8.70,3.24
29.26,-0.93,8.50,3.52
29.27,-1.03,8.24,3.72
29.27,-1.14,8.11,4.01
29.27,-1.22,7.97,4.24
29.27,-1.28,7.77,4.41
29.28,-1.31,7.61,4.65
29.28,-1.30,7.53,4.95
29.28,-1.33,7.46,5.34
29.28,-1.29,7.41,5.61
29.29,-1.21,7.37,6.01
29.29,-1.21,7.45,6.30
29.29,-1.11,7.51,6.40
29.29,-1.11,7.51,6.40
29.30,-1.13,7.53,6.27
29.30,-1.14,7.58,6.02
29.30,-1.10,7.66,5.87
29.30,-1.09,7.78,5.71
29.31,-1.02,7.80,5.50
29.31,-1.04,7.94,5.31
29.31,-1.05,8.09,5.16
29.31,-1.04,8.25,5.00
29.32,-1.06,8.50,4.72
29.32,-0.96,8.61,4.59
29.32,-0.84,8.73,4.45
29.32,-0.78,8.85,4.37
29.33,-0.73,8.93,4.32
29.33,-0.69,8.95,4.24
29.33,-0.74,8.98,4.13
29.33,-0.72,8.99,4.10
29.34,-0.75,8.93,4.18
29.34,-0.74,8.86,4.30
29.34,-0.87,8.81,4.51
29.34,-0.99,8.71,4.65
29.35,-1.16,8.67,4.87
29.35,-1.46,8.68,5.05
29.35,-1.66,8.70,5.21
29.35,-1.99,8.71,5.31
29.36,-2.28,8.72,5.39
29.36,-2.49,8.77,5.51
29.36,-2.73,8.79,5.58
29.36,-2.99,8.81,5.66
29.37,-3.18,8.82,5.78
29.37,-3.36,8.74,5.94
29.37,-3.56,8.65,6.09
29.37,-3.82,8.62,6.23
29.38,-4.06,8.56,6.32
29.38,-4.35,8.51,6.29
29.38,-4.53,8.50,6.36
29.38,-4.64,8.54,6.34
29.39,-4.84,8.51,6.15
29.39,-4.96,8.49,5.91
29.39,-5.09,8.43,5.64
29.39,-5.18,8.46,5.34
29.40,-5.19,8.51,5.01
29.40,-5.22,8.50,4.74
29.40,-5.04,8.53,4.54
29.40,-4.79,8.53,4.27
29.41,-4.36,8.49,4.03
29.41,-3.74,8.48,3.78
29.41,-3.10,8.46,3.55
29.41,-2.52,8.50,3.24
29.42,-2.00,8.50,3.07
29.42,-1.59,8.56,2.83
29.42,-1.18,8.54,2.57
29.42,-0.86,8.50,2.33
29.43,-0.62,8.41,2.15
29.43,-0.42,8.24,2.00
29.43,-0.17,8.11,1.90
29.43,0.07,7.96,1.84
29.44,0.37,7.74,1.74
29.44,0.55,7.55,1.67
29.44,0.65,7.35,1.74
29.44,0.76,7.19,1.86
29.45,0.93,7.04,1.84
29.45,0.97,6.89,1.98
29.45,0.92,6.76,2.07
29.45,0.83,6.68,2.13
29.46,0.68,6.65,2.19
29.46,0.72,6.57,2.27
29.46,0.63,6.57,2.31
29.46,0.58,6.62,2.28
29.47,0.52,6.64,2.35
29.47,0.50,6.62,2.38
29.47,0.46,6.72,2.31
29.47,0.37,6.82,2.23
29.48,0.14,6.89,2.16
29.48,-0.02,7.11,2.15
29.48,-0.07,7.33,2.01
29.48,-0.15,7.56,1.92
29.49,-0.34,7.93,1.97
29.49,-0.60,8.28,1.90
29.49,-0.84,8.72,1.68
29.49,-1.02,9.20,1.47
29.50,-1.16,9.73,1.07
29.50,-1.28,10.40,0.62
29.50,-1.17,11.13,0.16
29.50,-1.08,11.90,-0.12
29.51,-1.00,12.62,-0.45
29.51,-1.01,13.47,-0.81
29.51,-0.94,14.36,-0.97
29.51,-0.88,15.25,-1.17
29.52,-0.76,16.06,-1.15
29.52,-0.55,16.71,-0.94
29.52,-0.24,17.35,-0.94
29.52,0.15,18.01,-0.94
29.53,0.34,18.48,-0.84
29.53,0.36,18.86,-0.87
29.53,0.48,19.08,-0.89
29.53,0.62,19.20,-0.90
29.54,0.75,19.05,-0.93
29.54,0.77,18.91,-0.92
29.54,0.89,18.64,-0.98
29.54,0.99,18.18,-1.25
29.55,1.01,17.84,-1.36
29.55,0.98,17.35,-1.42
29.55,1.04,16.79,-1.41
29.55,0.97,16.09,-1.16
29.56,0.75,15.37,-0.88
29.56,0.57,14.75,-0.53
29.56,0.57,14.26,-0.12
29.56,0.51,13.69,0.16
29.57,0.44,13.17,0.22
29.57,0.36,12.72,0.21
29.57,0.27,12.21,0.07
29.57,0.20,11.88,0.04
29.58,0.24,11.54,0.04
29.58,0.42,11.13,-0.07
29.58,0.53,10.83,-0.28
29.58,0.51,10.56,-0.44
29.59,0.44,10.34,-0.54
29.59,0.27,10.20,-0.64
29.59,0.16,10.10,-0.58
29.59,0.38,9.98,-0.24
29.60,0.86,9.86,0.10
29.60,1.27,9.59,0.36
29.60,1.70,9.35,0.62
29.60,2.29,9.05,0.79
29.61,2.94,8.76,0.83
29.61,3.34,8.45,0.93
29.61,3.50,8.07,1.13
29.61,3.44,7.56,1.23
29.62,3.17,7.27,1.67
29.62,3.08,7.16,2.31
29.62,2.86,7.06,2.74
29.62,2.60,6.94,2.95
29.63,2.65,6.92,2.89
29.63,2.78,6.85,3.04
29.63,2.83,6.76,3.22
29.63,2.92,6.76,3.47
29.64,2.92,6.80,3.74
29.64,2.96,6.89,3.94
29.64,2.87,6.92,3.98
29.64,2.67,6.99,4.00
29.65,2.46,7.03,3.89
29.65,2.22,7.05,3.67
29.65,2.00,7.17,3.50
29.65,1.73,7.26,3.29
29.66,1.49,7.36,3.05
29.66,1.25,7.46,2.74
29.66,1.03,7.47,2.50
29.66,0.79,7.44,2.26
29.67,0.61,7.37,1.97
29.67,0.50,7.35,1.62
29.67,0.42,7.29,1.21
29.67,0.42,7.24,0.95
29.68,0.38,7.22,0.88
29.68,0.37,7.19,0.83
29.68,0.41,7.13,0.81
29.68,0.36,7.04,0.91
29.69,0.32,7.02,1.03
29.69,0.30,7.02,1.21
29.69,0.24,7.07,1.36
29.69,0.29,7.09,1.59
29.70,0.21,7.09,1.77
29.70,0.22,7.05,1.87
29.70,0.20,7.01,2.01
29.70,0.16,6.96,2.18
29.71,0.09,6.90,2.28
29.71,0.00,6.88,2.48
29.71,0.03,6.84,2.60
29.71,-0.05,6.76,2.74
29.72,-0.12,6.71,2.85
29.72,-0.22,6.62,2.91
29.72,-0.24,6.58,2.99
29.72,-0.33,6.50,3.02
29.73,-0.38,6.46,3.02
29.73,-0.43,6.39,3.02
29.73,-0.53,6.34,3.04
29.73,-0.64,6.28,3.04
29.74,-0.69,6.23,2.95
29.74,-0.77,6.23,2.94
29.74,-0.81,6.16,2.86
29.74,-0.84,6.21,2.82
29.75,-0.91,6.18,2.74
29.75,-0.93,6.16,2.68
29.75,-0.91,6.12,2.63
29.76,-0.98,6.14,2.52
29.76,-0.98,6.14,2.42
29.76,-0.93,6.17,2.31
29.76,-0.87,6.14,2.27
29.77,-0.82,6.25,2.22
29.77,-0.69,6.24,2.17
29.77,-0.57,6.25,2.07
29.77,-0.48,6.27,2.00
29.78,-0.33,6.30,1.97
29.78,-0.26,6.31,1.92
29.78,-0.16,6.25,1.87
29.78,0.00,6.22,1.82
29.79,0.16,6.23,1.80
29.79,0.33,6.33,1.78
29.79,0.50,6.48,1.77
29.79,0.55,6.47,1.74
29.80,0.61,6.50,1.69
29.80,0.68,6.49,1.68
29.80,0.78,6.53,1.64
29.80,0.83,6.56,1.73
29.81,0.87,6.55,1.79
29.81,0.91,6.63,1.91
29.81,0.96,6.69,2.03
29.81,1.01,6.64,2.17
29.82,1.07,6.51,2.45
29.82,1.14,6.46,2.76
29.82,1.22,6.48,3.12
29.82,1.32,6.54,3.45
29.83,1.54,6.58,3.80
29.83,1.75,6.62,4.21
29.83,1.96,6.63,4.61
29.83,2.22,6.58,4.98
29.84,2.31,6.72,5.36
29.84,2.26,6.85,5.62
29.84,2.37,6.87,5.89
29.84,2.71,6.89,6.14
29.85,3.05,6.96,6.36
29.85,3.32,7.02,6.42
29.85,3.53,7.17,6.53
29.85,3.68,7.33,6.63
29.86,3.82,7.52,6.83
29.86,3.96,7.70,7.03
29.86,4.25,7.95,7.33
29.86,4.45,8.16,7.55
29.87,4.55,8.36,7.73
29.87,4.69,8.58,7.91
29.87,4.86,8.75,8.14
29.87,5.06,8.82,8.38
29.88,5.21,8.92,8.42
29.88,5.34,8.88,8.25
29.88,5.55,8.96,7.98
29.88,5.79,9.15,7.76
29.89,5.96,9.23,7.42
29.89,6.13,9.36,7.00
29.89,6.22,9.45,6.62
29.89,6.32,9.53,6.15
29.90,6.47,9.65,5.65
29.90,6.57,9.70,5.21
29.90,6.65,9.74,4.81
29.90,6.76,9.74,4.39
29.91,6.90,9.77,4.04
29.91,7.01,9.79,3.75
29.91,7.08,9.80,3.59
29.91,7.09,9.86,3.53
29.92,6.94,9.97,3.57
29.92,6.59,10.16,3.71
29.92,6.20,10.33,3.96
29.92,5.80,10.55,4.24
29.93,5.46,10.78,4.58
29.93,5.24,10.97,4.93
29.93,5.06,11.22,5.32
29.93,5.01,11.39,5.68
29.94,5.00,11.38,6.11
29.94,5.12,11.34,6.43
29.94,5.21,11.23,6.79
29.94,5.27,11.02,7.23
29.95,5.39,10.81,7.57
29.95,5.51,10.50,7.88
29.95,5.69,10.15,8.16
29.95,5.92,9.81,8.41
29.96,6.22,9.38,8.50
29.96,6.62,8.91,8.48
29.96,6.96,8.50,8.53
29.96,7.31,8.10,8.47
29.97,7.64,7.76,8.33
29.97,7.78,7.53,8.19
29.97,7.69,7.40,8.10
29.97,7.36,7.50,7.98
29.98,6.76,7.62,7.82
29.98,6.06,7.68,7.62
29.98,5.43,7.79,7.44
29.98,4.86,7.80,7.25
29.99,4.28,7.83,7.02
29.99,3.64,7.84,6.71
29.99,2.97,7.86,6.45
29.99,2.40,8.00,6.10
30.00,1.89,8.15,5.74
30.00,1.23,8.30,5.34
30.00,0.69,8.61,4.90
30.00,0.20,8.97,4.49
30.01,-0.38,9.38,4.00
30.01,-0.89,10.01,3.66
30.01,-1.33,10.62,3.35
30.01,-1.65,11.11,2.83
30.02,-2.01,11.60,2.27
30.02,-2.33,12.07,1.77
30.02,-2.70,12.62,1.32
30.02,-3.05,13.21,0.87
30.03,-3.36,13.81,0.54
30.03,-3.87,14.49,0.26
30.03,-4.26,15.21,0.08
30.03,-4.71,15.92,-0.08
30.04,-5.13,16.67,-0.23
30.04,-5.51,17.36,-0.32
30.04,-5.79,17.81,-0.51
30.04,-5.89,18.18,-0.60
30.05,-5.89,18.30,-0.72
30.05,-5.98,18.20,-0.83
30.05,-5.94,17.78,-0.84
30.05,-5.88,16.96,-0.80
30.06,-5.50,15.86,-0.59
30.06,-4.68,14.37,-0.14
30.06,-3.42,12.84,0.44
30.06,-2.18,11.59,0.94
30.07,-1.06,10.73,1.39
30.07,-0.23,10.07,1.72
30.07,0.26,9.62,2.06
30.07,0.46,9.33,2.36
30.08,0.48,9.10,2.59
30.08,0.36,8.92,2.78
30.08,0.18,8.72,3.04
30.08,-0.05,8.52,3.09
30.09,-0.29,8.32,3.15
30.09,-0.46,8.03,3.25
30.09,-0.63,7.81,3.29
30.09,-0.88,7.56,3.32
30.10,-1.08,7.33,3.33
30.10,-1.36,7.17,3.29
30.10,-1.65,7.04,3.36
30.10,-1.85,7.01,3.44
30.11,-1.97,6.93,3.53
30.11,-2.07,6.92,3.63
30.11,-2.08,6.92,3.58
30.11,-2.11,6.96,3.46
30.12,-2.09,7.00,3.37
30.12,-1.99,6.99,3.27
30.12,-1.97,7.02,3.18
30.12,-1.98,7.03,3.08
30.13,-1.93,7.14,2.92
30.13,-1.94,7.24,2.74
30.13,-1.96,7.40,2.54
30.13,-1.90,7.66,2.43
30.14,-1.91,7.88,2.22
30.14,-1.85,8.13,2.03
30.14,-1.81,8.51,1.83
30.14,-1.80,8.95,1.61
30.15,-1.70,9.31,1.51
30.15,-1.74,9.65,1.41
30.15,-1.80,10.03,1.39
30.15,-1.87,10.36,1.32
30.16,-1.90,10.67,1.26
30.16,-1.89,10.98,1.31
30.16,-1.71,11.26,1.22
30.16,-1.59,11.69,1.06
30.17,-1.57,11.95,0.93
30.17,-1.65,12.19,0.89
30.17,-1.58,12.32,1.01
30.17,-1.45,12.30,1.23
30.18,-1.54,12.24,0.99
30.18,-1.47,12.11,1.07
30.18,-1.23,11.76,1.37
30.18,-0.80,11.25,1.61
30.19,-0.29,10.70,2.04
30.19,0.16,10.15,2.27
30.19,0.63,9.58,2.61
30.19,1.03,9.06,3.07
30.20,1.35,8.58,3.48
30.20,1.55,8.12,3.83
30.20,1.54,7.77,3.95
30.20,1.35,7.46,3.91
30.21,1.14,7.23,3.64
30.21,0.84,7.02,3.22
30.21,0.55,6.93,2.79
30.21,0.27,6.81,2.40
30.22,-0.13,6.74,1.84
30.22,-0.53,6.72,1.35
30.22,-0.90,6.75,0.80
30.22,-1.29,6.78,0.25
30.23,-1.66,6.80,-0.30
30.23,-1.96,6.86,-0.95
30.23,-2.22,6.96,-1.52
30.23,-2.38,6.99,-2.11
30.24,-2.45,7.17,-2.55
30.24,-2.44,7.38,-2.80
30.24,-2.44,7.55,-2.76
30.24,-2.38,7.71,-2.31
30.25,-2.37,7.90,-1.49
30.25,-2.40,8.08,-0.59
30.25,-2.40,8.21,0.18
30.25,-2.30,8.33,0.93
30.26,-2.13,8.29,1.77
30.26,-1.77,8.29,2.54
30.26,-1.55,8.36,3.39
30.26,-1.39,8.51,4.32
30.27,-1.22,8.61,5.06
30.27,-1.18,8.66,5.38
30.27,-1.08,8.73,5.84
30.27,-0.93,8.75,6.18
30.28,-0.74,8.77,6.27
30.28,-0.58,8.74,6.15
30.28,-0.33,8.71,5.86
30.28,-0.20,8.66,5.71
30.29,-0.24,8.71,5.61
30.29,-0.32,8.72,5.43
30.29,-0.38,8.72,5.18
30.29,-0.47,8.63,4.90
30.30,-0.70,8.49,4.77
30.30,-1.01,8.37,4.73
30.30,-1.26,8.29,4.80
30.30,-1.32,8.13,4.30
30.31,-1.49,8.00,4.01
30.31,-1.58,7.76,3.80
30.31,-1.57,7.56,3.52
30.31,-1.61,7.37,3.20
30.32,-1.57,7.16,2.96
30.32,-1.49,6.99,2.66
30.32,-1.43,6.83,2.44
30.32,-1.45,6.69,2.26
30.33,-1.55,6.67,2.01
30.33,-1.68,6.74,1.86
30.33,-1.59,6.51,1.97
30.33,-1.59,6.35,2.03
30.34,-1.63,6.30,2.13
30.34,-1.53,6.34,2.22
30.34,-1.39,6.41,2.38
30.34,-1.24,6.47,2.51
30.35,-1.12,6.52,2.65
30.35,-0.93,6.64,2.74
30.35,-0.79,6.72,2.91
30.35,-0.66,6.80,3.04
30.36,-0.51,6.89,3.21
30.36,-0.29,7.02,3.47
30.36,-0.11,7.15,3.75
30.36,0.11,7.17,4.09
30.37,0.29,7.24,4.33
30.37,0.53,7.31,4.52
30.37,0.69,7.32,4.69
30.37,0.84,7.37,4.85
30.38,0.93,7.48,4.87
30.38,1.05,7.55,4.91
30.38,1.11,7.61,4.90
30.38,1.20,7.74,4.86
30.39,1.24,7.82,4.77
30.39,1.33,7.90,4.68
30.39,1.35,8.04,4.56
30.39,1.35,8.17,4.28
30.40,1.32,8.34,4.16
30.40,1.32,8.55,4.02
30.40,1.28,8.66,3.79
30.40,1.10,8.83,3.52
30.41,0.96,8.92,3.27
30.41,0.81,9.10,3.12
30.41,0.65,9.27,2.97
30.41,0.47,9.37,2.92
30.42,0.35,9.55,2.95
30.42,0.24,9.69,3.02
30.42,0.10,9.83,2.93
30.42,-0.02,9.89,2.88
30.43,-0.10,9.94,2.95
30.43,-0.23,10.04,2.87
30.43,-0.36,10.09,2.85
30.43,-0.50,10.13,2.88
30.44,-0.68,10.10,2.83
30.44,-0.73,10.02,2.90
30.44,-0.80,9.99,3.03
30.44,-0.91,9.88,3.18
30.45,-0.99,9.70,3.34
30.45,-1.17,9.53,3.49
30.45,-1.27,9.32,3.59
30.45,-1.30,9.10,3.63
30.46,-1.43,8.91,3.69
30.46,-1.68,8.72,3.69
30.46,-1.90,8.53,3.77
30.46,-2.05,8.33,3.72
30.47,-2.25,8.15,3.52
30.47,-2.41,7.99,3.37
30.47,-2.52,7.77,3.39
30.47,-2.56,7.59,3.57
30.48,-2.55,7.46,3.87
30.48,-2.56,7.32,4.07
30.48,-2.57,7.27,4.29
30.48,-2.46,7.14,4.58
30.49,-2.46,7.07,4.87
30.49,-2.43,7.03,4.99
30.49,-2.40,7.00,5.21
30.49,-2.20,7.02,5.40
30.50,-2.13,7.04,5.55
30.50,-2.07,7.07,5.57
30.50,-1.95,7.11,5.60
30.50,-1.82,7.21,5.61
30.51,-1.77,7.32,5.51
30.51,-1.66,7.51,5.42
30.51,-1.61,7.61,5.27
30.51,-1.59,7.72,5.12
30.52,-1.47,7.88,4.90
30.52,-1.40,7.97,4.81
30.52,-1.31,8.06,4.64
30.52,-1.21,8.13,4.45
30.53,-1.14,8.19,4.31
30.53,-1.11,8.27,4.20
30.53,-1.14,8.35,4.08
30.53,-1.15,8.44,4.03
30.54,-1.10,8.50,3.90
30.54,-1.00,8.56,3.67
30.54,-1.09,8.41,3.58
30.54,-1.08,8.30,3.72
30.55,-1.12,8.20,4.01
30.55,-1.17,8.20,4.29
30.55,-1.37,8.19,4.51
30.55,-1.47,8.19,4.64
30.56,-1.65,8.27,4.82
30.56,-1.82,8.36,5.08
30.56,-2.00,8.41,5.37
30.56,-2.22,8.50,5.68
30.57,-2.41,8.65,5.90
30.57,-2.56,8.77,6.22
30.57,-2.72,8.86,6.49
30.57,-2.74,8.88,6.65
30.58,-2.70,8.95,6.76
30.58,-2.73,8.99,6.82
30.58,-2.71,9.06,6.93
30.58,-2.79,9.08,6.98
30.59,-2.87,9.14,6.83
30.59,-2.94,9.19,6.70
30.59,-3.07,9.20,6.56
30.59,-3.29,9.25,6.34
30.60,-3.41,9.28,6.01
30.60,-3.53,9.28,5.69
30.60,-3.66,9.37,5.44
30.60,-3.68,9.36,5.22
30.61,-3.63,9.35,4.88
30.61,-3.54,9.45,4.62
30.61,-3.31,9.47,4.25
30.61,-2.96,9.45,3.92
30.62,-2.65,9.50,3.66
30.62,-2.21,9.52,3.40
30.62,-1.79,9.54,3.15
30.62,-1.38,9.54,2.87
30.63,-1.08,9.50,2.72
30.63,-0.74,9.54,2.46
30.63,-0.45,9.50,2.30
30.63,-0.17,9.39,2.26
30.64,0.08,9.32,2.14
30.64,0.31,9.07,2.07
30.64,0.57,8.80,2.01
30.64,0.83,8.55,1.96
30.65,1.04,8.28,1.98
30.65,1.19,7.99,2.03
30.65,1.29,7.72,2.04
30.65,1.29,7.47,2.15
30.66,1.36,7.25,2.31
30.66,1.45,7.03,2.44
30.66,1.53,6.86,2.54
30.66,1.53,6.65,2.61
30.67,1.41,6.51,2.78
30.67,1.23,6.43,2.85
30.67,1.25,6.39,2.92
30.67,1.16,6.30,3.01
30.68,0.94,6.23,3.11
30.68,0.72,6.22,3.25
30.68,0.66,6.27,3.30
30.68,0.58,6.27,3.28
30.69,0.53,6.30,3.24
30.69,0.39,6.38,3.17
30.69,0.23,6.54,3.06
30.69,0.09,6.76,2.91
30.70,0.00,6.92,2.70
30.70,-0.24,7.16,2.57
30.70,-0.38,7.42,2.38
30.70,-0.53,7.84,2.06
30.71,-0.69,8.26,1.74
30.71,-0.93,8.75,1.44
30.71,-1.16,9.34,1.26
30.71,-1.33,9.92,1.10
30.72,-1.34,10.61,0.90
30.72,-1.37,11.40,0.68
30.72,-1.35,12.27,0.44
30.72,-1.17,13.16,0.27
30.73,-0.91,14.06,0.04
30.73,-0.60,14.86,-0.18
30.73,-0.44,15.62,-0.41
30.73,-0.22,16.26,-0.57
30.74,0.00,16.90,-0.72
30.74,0.14,17.49,-0.90
30.74,0.24,18.07,-1.01
30.74,0.37,18.48,-0.87
30.75,0.44,18.93,-0.81
30.75,0.31,19.19,-0.85
30.75,0.12,19.24,-0.85
30.75,-0.07,19.19,-0.85
30.76,-0.26,18.89,-0.99
30.76,-0.54,18.19,-1.18
30.76,-0.79,17.28,-1.25
30.76,-0.60,16.63,-1.26
30.77,-0.43,16.17,-1.59
30.77,-0.30,15.30,-1.95
30.77,-0.33,14.31,-1.91
30.77,-0.34,13.33,-1.69
30.78,-0.36,12.48,-1.58
30.78,-0.30,11.73,-1.50
30.78,-0.20,11.12,-1.40
30.78,0.00,10.56,-1.35
30.79,0.20,10.03,-1.23
30.79,0.30,9.55,-1.25
30.79,0.21,9.28,-1.12
30.79,0.27,9.11,-0.69
30.80,0.34,8.98,-0.24
30.80,0.48,8.90,0.27
30.80,0.67,8.83,0.75
30.80,0.81,8.74,1.19
30.81,0.94,8.61,1.41
30.81,1.22,8.47,1.52
30.81,0.92,8.36,1.68
30.81,0.27,8.30,1.99
30.82,-0.10,8.36,2.50
30.82,-0.15,8.46,3.07
30.82,0.11,8.57,3.50
30.82,0.33,8.58,3.66
30.83,0.51,8.65,3.44
30.83,0.78,8.74,2.94
30.83,1.25,8.79,2.45
30.83,1.86,8.69,2.32
30.84,2.49,8.67,2.37
30.84,3.09,8.55,2.34
30.84,3.66,8.36,2.41
30.84,3.99,8.23,2.55
30.85,4.27,8.14,2.70
30.85,4.49,8.01,2.89
30.85,4.44,7.92,3.08
30.85,4.08,7.93,3.14
30.86,3.63,8.06,3.30
30.86,3.18,8.27,3.35
30.86,2.76,8.48,3.44
30.86,2.35,8.73,3.43
30.87,1.90,8.88,3.36
30.87,1.48,9.00,3.28
30.87,1.08,9.14,3.17
30.87,0.69,9.30,3.05
30.88,0.46,9.36,2.94
30.88,0.22,9.33,2.82
30.88,-0.02,9.31,2.80
30.88,0.04,9.27,2.73
30.89,0.12,9.22,2.64
30.89,0.21,9.12,2.61
30.89,0.31,9.09,2.62
30.89,0.43,9.02,2.58
30.90,0.58,8.97,2.56
30.90,0.63,8.90,2.49
30.90,0.78,8.81,2.42
30.90,0.81,8.78,2.42
30.91,0.82,8.72,2.44
30.91,0.79,8.66,2.46
30.91,0.69,8.55,2.51
30.91,0.66,8.43,2.52
30.92,0.60,8.33,2.52
30.92,0.54,8.15,2.51
30.92,0.55,8.01,2.56
30.92,0.51,7.88,2.55
30.93,0.48,7.78,2.58
30.93,0.48,7.60,2.62
30.93,0.47,7.52,2.64
30.93,0.49,7.31,2.72
30.94,0.47,7.16,2.68
30.94,0.50,6.95,2.67
30.94,0.44,6.75,2.70
30.94,0.48,6.59,2.69
30.95,0.36,6.44,2.76
30.95,0.33,6.37,2.69
30.95,0.30,6.19,2.66
30.95,0.36,6.00,2.60
30.96,0.33,5.89,2.60
30.96,0.34,5.75,2.52
30.96,0.34,5.64,2.43
30.96,0.29,5.63,2.40
30.97,0.24,5.58,2.31
30.97,0.19,5.53,2.23
30.97,0.12,5.50,2.08
30.97,0.10,5.37,1.99
30.98,0.09,5.25,1.91
30.98,0.07,5.12,1.89
30.98,0.09,4.99,1.82
30.98,0.14,4.99,1.71
30.99,0.25,5.07,1.57
30.99,0.38,5.19,1.34
30.99,0.47,5.25,1.24
30.99,0.52,5.34,1.26
31.00,0.60,5.50,1.26
31.00,0.65,5.57,1.26
31.00,0.69,5.62,1.34
31.00,0.62,5.62,1.46
31.01,0.61,5.60,1.58
31.01,0.65,5.57,1.65
31.01,0.65,5.57,1.71
31.01,0.63,5.58,1.85
31.02,0.66,5.63,1.97
31.02,0.65,5.64,1.99
31.02,0.67,5.65,2.10
31.02,0.64,5.71,2.22
31.03,0.61,5.79,2.29
31.03,0.65,5.88,2.35
31.03,0.65,5.96,2.47
31.03,0.73,6.05,2.63
31.04,0.84,6.11,2.85
31.04,0.95,6.18,3.08
31.04,1.06,6.21,3.27
31.04,1.18,6.29,3.64
31.05,1.15,6.49,4.03
31.05,1.12,6.71,4.27
31.05,1.33,6.70,4.53
31.05,1.66,6.65,4.83
31.06,1.89,6.67,4.95
31.06,2.03,6.71,5.19
31.06,2.21,6.84,5.34
31.06,2.34,7.03,5.57
31.07,2.46,7.20,5.73
31.07,2.66,7.43,6.01
31.07,2.85,7.71,6.27
31.07,2.96,7.88,6.49
31.08,3.06,8.09,6.72
31.08,3.26,8.29,6.91
31.08,3.47,8.54,7.05
31.08,3.68,8.66,7.20
31.09,3.77,8.70,7.34
31.09,3.92,8.71,7.28
31.09,4.12,8.76,7.14
31.09,4.29,8.90,6.96
31.10,4.43,8.99,6.81
31.10,4.55,9.06,6.59
31.10,4.64,9.11,6.25
31.10,4.67,9.16,5.96
31.11,4.74,9.28,5.69
31.11,4.81,9.42,5.47
31.11,4.84,9.56,5.19
31.11,4.91,9.64,4.98
31.12,5.00,9.81,4.73
31.12,5.14,9.92,4.43
31.12,5.33,10.03,4.25
31.12,5.52,10.11,4.18
31.13,5.64,10.20,4.02
31.13,5.70,10.30,4.05
31.13,5.77,10.45,4.09
31.13,5.75,10.56,4.14
31.14,5.62,10.67,4.26
31.14,5.57,10.82,4.41
31.14,5.50,10.96,4.63
31.14,5.42,11.12,4.78
31.15,5.28,11.28,5.04
31.15,5.20,11.44,5.37
31.15,5.16,11.57,5.60
31.15,5.13,11.64,5.89
31.16,5.10,11.64,6.17
31.16,5.18,11.54,6.50
31.16,5.27,11.45,6.83
31.16,5.33,11.25,7.15
31.17,5.44,11.05,7.48
31.17,5.63,10.81,7.72
31.17,5.78,10.48,7.96
31.17,6.06,10.18,8.16
31.18,6.32,9.88,8.33
31.18,6.59,9.50,8.40
31.18,6.93,9.11,8.49
31.18,7.20,8.75,8.49
31.19,7.35,8.42,8.44
31.19,7.41,8.19,8.38
31.19,7.36,8.07,8.27
31.19,7.10,8.00,8.16
31.20,6.71,8.01,8.00
31.20,6.24,8.00,7.90
31.20,5.87,7.96,7.74
31.20,5.53,7.82,7.63
31.21,5.18,7.75,7.43
31.21,4.77,7.71,7.28
31.21,4.39,7.63,7.06
31.21,4.04,7.54,6.87
31.22,3.67,7.47,6.58
31.22,3.25,7.43,6.21
31.22,2.84,7.51,5.78
31.22,2.41,7.67,5.45
31.23,2.02,7.85,5.01
31.23,1.73,8.08,4.52
31.23,1.41,8.37,4.08
31.23,1.15,8.85,3.67
31.24,0.89,9.24,3.27
31.24,0.66,9.76,2.89
31.24,0.38,10.29,2.57
31.24,0.02,10.83,2.17
31.25,-0.32,11.32,1.84
31.25,-0.71,11.78,1.54
31.25,-1.09,12.30,1.30
31.25,-1.40,12.79,1.13
31.26,-1.79,13.39,0.98
31.26,-2.11,13.92,0.79
31.26,-2.34,14.46,0.68
31.26,-2.65,15.06,0.58
31.27,-2.91,15.64,0.52
31.27,-3.29,16.28,0.49
31.27,-3.69,16.82,0.41
31.27,-4.11,17.21,0.34
31.28,-4.48,17.46,0.36
31.28,-4.77,17.49,0.36
31.28,-4.91,17.30,0.30
31.28,-5.00,16.84,0.37
31.29,-4.90,15.97,0.48
31.29,-4.63,14.87,0.64
31.29,-3.90,13.47,0.74
31.29,-3.06,11.99,0.95
31.30,-2.19,10.72,1.21
31.30,-1.42,9.69,1.42
31.30,-0.91,8.94,1.52
31.30,-0.58,8.37,1.59
31.31,-0.48,7.99,1.65
31.31,-0.62,7.83,1.73
31.31,-0.80,7.64,1.81
31.31,-0.96,7.51,1.85
31.32,-1.12,7.38,2.01
31.32,-1.36,7.28,2.09
31.32,-1.47,7.17,2.26
31.32,-1.60,7.04,2.35
31.33,-1.78,6.90,2.41
31.33,-1.86,6.68,2.42
31.33,-1.97,6.54,2.49
31.33,-2.04,6.39,2.68
31.34,-2.20,6.22,2.67
31.34,-2.35,6.11,2.59
31.34,-2.45,6.04,2.37
31.34,-2.46,6.09,2.37
31.35,-2.34,6.20,2.37
31.35,-2.26,6.33,2.26
31.35,-2.11,6.47,2.40
31.35,-2.04,6.56,2.28
31.36,-2.03,6.68,2.06
31.36,-2.01,6.91,1.99
31.36,-1.98,7.07,1.82
31.36,-1.99,7.21,1.62
31.37,-2.04,7.39,1.27
31.37,-2.23,7.74,1.05
31.37,-2.12,8.05,0.96
31.37,-1.91,8.43,0.18
31.38,-1.84,8.87,-0.64
31.38,-1.83,9.37,-1.20
31.38,-1.68,9.81,-1.22
31.38,-1.62,10.28,-1.51
31.39,-1.56,10.82,-1.40
31.39,-1.64,11.32,-1.23
31.39,-1.77,11.79,-1.03
31.39,-1.81,12.15,-0.64
31.40,-1.93,12.57,-0.05
31.40,-2.02,12.88,0.53
31.40,-2.13,13.10,1.10
31.40,-2.23,13.21,1.75
31.41,-2.32,13.18,2.17
31.41,-2.38,13.09,2.61
31.41,-2.33,12.86,3.22
31.41,-2.12,12.50,3.70
31.42,-1.86,11.94,3.78
31.42,-1.46,11.27,4.27
31.42,-1.06,10.63,4.28
31.42,-0.76,10.10,4.24
31.43,-0.46,9.56,4.36
31.43,-0.33,9.06,4.19
31.43,-0.20,8.68,4.07
31.43,-0.20,8.34,3.70
31.44,-0.21,8.05,3.44
31.44,-0.25,7.85,3.25
31.44,-0.45,7.63,2.58
31.44,-0.48,7.47,2.29
31.45,-0.46,7.25,2.11
31.45,-0.48,7.11,1.81
31.45,-0.49,7.07,1.61
31.45,-0.54,7.17,1.51
31.46,-0.77,7.40,1.58
31.46,-0.98,7.57,1.77
31.46,-1.10,7.69,2.00
31.46,-1.13,7.74,2.09
31.47,-1.20,7.68,2.25
31.47,-1.35,7.62,2.22
31.47,-1.39,7.54,2.38
31.47,-1.52,7.40,2.44
31.48,-1.68,7.25,2.43
31.48,-1.74,7.18,2.41
31.48,-1.80,7.15,2.56
31.48,-1.87,7.08,2.50
31.49,-1.83,7.06,2.69
31.49,-1.73,7.12,2.78
31.49,-1.70,7.13,2.82
31.49,-1.63,7.19,2.91
31.50,-1.54,7.24,2.92
31.50,-1.41,7.29,2.90
31.50,-1.31,7.30,3.04
31.50,-1.13,7.33,3.20
31.51,-0.89,7.34,3.33
31.51,-0.65,7.49,3.43
31.51,-0.42,7.55,3.67
31.51,-0.27,7.61,3.98
31.52,-0.18,7.62,4.34
31.52,-0.14,7.60,4.72
31.52,0.06,7.59,5.17
31.52,0.26,7.59,5.58
31.53,0.46,7.62,6.00
31.53,0.64,7.66,6.12
31.53,0.86,7.71,6.17
31.53,1.07,7.68,6.32
31.54,1.24,7.69,6.42
31.54,1.40,7.71,6.29
31.54,1.51,7.78,6.23
31.54,1.50,7.81,6.01
31.55,1.51,7.86,5.64
31.55,1.50,7.91,5.33
31.55,1.43,8.05,4.98
31.55,1.39,8.02,4.41
31.56,1.27,8.02,3.96
31.56,1.20,8.10,3.52
31.56,1.16,8.16,3.06
31.56,1.06,8.18,2.75
31.57,0.98,8.19,2.45
31.57,0.92,8.21,2.26
31.57,0.79,8.31,2.04
31.57,0.67,8.28,1.95
31.58,0.61,8.31,1.90
31.58,0.48,8.29,1.86
31.58,0.37,8.33,1.97
31.58,0.24,8.40,2.14
31.59,0.10,8.36,2.36
31.59,-0.04,8.34,2.60
31.59,-0.19,8.31,2.91
31.59,-0.24,8.23,3.14
31.60,-0.24,8.22,3.27
31.60,-0.31,8.21,3.41
31.60,-0.37,8.21,3.54
31.60,-0.42,8.10,3.66
31.61,-0.30,7.94,3.86
31.61,-0.15,8.03,4.07
31.61,0.08,7.96,4.20
31.61,0.29,7.88,4.35
31.62,0.42,7.87,4.48
31.62,0.57,7.84,4.49
31.62,0.65,7.86,4.40
31.62,0.76,7.89,4.42
31.63,0.79,7.94,4.38
31.63,0.78,7.97,4.30
31.63,0.74,8.03,4.26
31.63,0.76,8.05,4.10
31.64,0.80,8.02,4.07
31.64,0.83,8.01,4.02
31.64,0.87,7.96,3.97
31.64,0.90,7.92,3.98
31.65,0.82,7.96,4.04
31.65,0.79,7.95,4.14
31.65,0.70,7.92,4.16
31.65,0.69,7.98,4.25
31.66,0.63,8.00,4.35
31.66,0.53,8.07,4.26
31.66,0.46,8.19,4.26
31.66,0.36,8.19,4.31
31.67,0.24,8.20,4.16
31.67,0.18,8.28,4.05
31.67,0.06,8.30,3.98
31.67,-0.05,8.29,3.84
31.68,-0.08,8.27,3.77
31.68,-0.17,8.25,3.71
31.68,-0.32,8.23,3.57
31.68,-0.43,8.21,3.45
31.69,-0.51,8.23,3.36
31.69,-0.67,8.23,3.40
31.69,-0.72,8.22,3.48
31.69,-0.72,8.24,3.61
31.70,-0.79,8.23,3.76
31.70,-0.87,8.22,3.93
31.70,-0.85,8.27,4.06
31.70,-0.95,8.31,4.08
31.71,-1.02,8.29,4.10
31.71,-1.16,8.30,4.17
31.71,-1.29,8.34,4.25
31.71,-1.24,8.25,4.33
31.72,-1.21,8.19,4.55
31.72,-1.43,8.22,4.77
31.72,-1.64,8.24,4.86
31.72,-1.73,8.21,5.04
31.73,-1.79,8.18,5.01
31.73,-1.76,8.10,4.96
31.73,-1.70,7.99,4.89
31.73,-1.71,7.90,4.81
31.74,-1.73,7.82,4.70
31.74,-1.74,7.74,4.74
31.74,-1.68,7.71,4.61
31.74,-1.68,7.67,4.23
31.75,-1.58,7.63,3.93
31.75,-1.50,7.68,3.71
31.75,-1.47,7.75,3.54
31.75,-1.39,7.82,3.21
31.76,-1.31,7.89,3.05
31.76,-1.26,7.93,3.11
31.76,-1.26,8.06,3.11
31.76,-1.17,8.19,3.10
31.77,-1.06,8.31,3.14
31.77,-0.99,8.48,3.08
31.77,-1.00,8.59,3.05
31.77,-1.08,8.73,3.05
31.78,-1.17,8.89,2.99
31.78,-1.24,9.12,2.87
31.78,-1.36,9.21,2.94
31.78,-1.66,9.23,3.35
31.79,-1.94,9.34,4.00
31.79,-2.27,9.45,4.47
31.79,-2.66,9.62,4.85
31.79,-2.94,9.79,5.23
31.80,-3.28,9.91,5.50
31.80,-3.65,10.02,5.78
31.80,-3.89,10.16,6.14
31.80,-4.15,10.32,6.56
31.81,-4.32,10.32,6.80
31.81,-4.42,10.40,7.17
31.81,-4.53,10.44,7.52
31.81,-4.48,10.41,7.75
31.82,-4.42,10.31,7.77
31.82,-4.45,10.18,7.84
31.82,-4.45,10.10,7.84
31.82,-4.43,10.00,7.78
31.83,-4.45,9.89,7.63
31.83,-4.43,9.73,7.44
31.83,-4.36,9.57,7.13
31.83,-4.28,9.48,6.83
31.84,-4.15,9.31,6.44
31.84,-4.01,9.14,5.95
31.84,-3.80,9.05,5.56
31.84,-3.60,8.88,5.14
31.85,-3.28,8.80,4.69
31.85,-3.02,8.70,4.35
31.85,-2.66,8.61,3.93
31.85,-2.16,8.61,3.55
31.86,-1.70,8.58,3.29
31.86,-1.31,8.57,3.02
31.86,-0.95,8.61,2.76
31.86,-0.59,8.66,2.49
31.87,-0.23,8.67,2.31
31.87,0.03,8.68,2.24
31.87,0.32,8.69,2.09
31.87,0.51,8.69,1.95
31.88,0.68,8.73,1.84
31.88,0.81,8.71,1.82
31.88,0.90,8.72,1.76
31.88,1.09,8.72,1.75
31.89,1.15,8.63,1.81
31.89,1.18,8.54,1.89
31.89,1.17,8.45,1.97
31.89,1.11,8.36,2.12
31.90,1.02,8.25,2.26
31.90,0.87,8.09,2.43
31.90,0.69,8.01,2.60
31.90,0.36,7.93,2.75
31.91,0.14,7.89,2.93
31.91,-0.16,7.86,3.03
31.91,-0.42,7.78,3.16
31.91,-0.65,7.82,3.38
31.92,-0.97,7.78,3.53
31.92,-1.26,7.73,3.63
31.92,-1.47,7.68,3.76
31.92,-1.68,7.61,3.88
31.93,-1.84,7.57,3.97
31.93,-1.91,7.56,3.89
31.93,-1.97,7.56,3.87
31.93,-2.02,7.61,3.83
31.94,-2.05,7.63,3.69
31.94,-2.13,7.69,3.51
31.94,-2.19,7.86,3.36
31.94,-2.29,8.00,3.21
31.95,-2.45,8.16,2.89
31.95,-2.40,8.41,2.51
31.95,-2.29,8.63,2.22
31.95,-2.33,8.90,1.93
31.96,-2.30,9.22,1.62
31.96,-2.12,9.51,1.18
31.96,-1.95,9.85,0.85
31.96,-1.65,10.34,0.53
31.97,-1.26,10.83,0.11
31.97,-0.78,11.45,-0.63
31.97,-0.25,12.12,-1.41
31.97,0.19,12.81,-1.91
31.98,0.53,13.37,-2.19
31.98,0.82,13.92,-2.25
31.98,1.17,14.48,-2.18
31.98,1.45,14.94,-2.22
31.99,1.76,15.34,-2.27
31.99,2.00,15.63,-2.24
31.99,2.11,15.82,-2.10
31.99,2.31,15.83,-2.16
32.00,2.38,15.76,-2.17
32.00,2.16,15.50,-2.37
32.00,1.88,15.35,-2.52
32.00,1.78,15.56,-2.61
32.01,1.75,15.63,-2.96
32.01,1.72,15.44,-2.92
32.01,1.46,15.06,-2.49
32.01,1.08,14.78,-1.92
32.02,0.84,14.50,-1.28
32.02,0.77,14.11,-0.97
32.02,0.65,13.71,-0.46
32.02,0.60,13.32,-0.27
32.03,0.59,12.80,-0.16
32.03,0.48,12.30,-0.02
32.03,0.41,11.85,0.01
32.03,0.42,11.39,-0.12
32.04,0.44,11.04,-0.04
32.04,0.46,10.75,0.16
32.04,0.50,10.42,0.09
32.04,0.58,10.15,-0.13
32.05,0.59,9.82,-0.02
32.05,0.58,9.56,-0.09
32.05,0.55,9.37,0.07
32.05,0.80,9.20,0.27
32.06,1.07,9.00,0.55
32.06,1.36,8.75,0.84
32.06,1.87,8.49,1.07
32.06,2.58,8.17,1.13
32.07,3.36,8.01,1.16
32.07,3.66,7.91,1.37
32.07,3.50,7.61,1.79
32.07,3.33,7.37,1.91
32.08,3.30,7.27,2.00
32.08,3.41,7.27,2.17
32.08,3.58,7.27,2.36
32.08,3.57,7.27,2.59
32.09,3.49,7.23,2.78
32.09,3.21,7.25,2.84
32.09,2.86,7.21,2.98
32.09,2.47,7.27,3.16
32.10,2.06,7.31,3.42
32.10,1.62,7.36,3.48
32.10,1.30,7.43,3.52
32.10,1.20,7.58,3.56
32.11,1.15,7.59,3.46
32.11,1.20,7.54,3.32
32.11,1.28,7.46,3.08
32.11,1.41,7.42,2.88
32.12,1.51,7.40,2.67
32.12,1.54,7.49,2.46
32.12,1.59,7.58,2.32
32.12,1.62,7.65,2.13
32.13,1.56,7.68,2.04
32.13,1.57,7.68,1.97
32.13,1.55,7.70,1.89
32.13,1.49,7.75,1.83
32.14,1.34,7.85,1.78
32.14,1.25,7.98,1.72
32.14,1.15,8.06,1.66
32.14,1.13,8.10,1.68
32.15,1.06,8.08,1.69
32.15,1.03,8.15,1.77
32.15,0.93,8.15,1.82
32.15,0.87,8.16,1.88
32.16,0.76,8.17,1.92
32.16,0.67,8.13,2.02
32.16,0.50,8.08,2.10
32.16,0.43,8.01,2.32
32.17,0.32,7.96,2.50
32.17,0.16,7.94,2.49
32.17,0.06,7.86,2.61
32.17,-0.09,7.78,2.68
32.18,-0.31,7.66,2.82
32.18,-0.42,7.61,2.83
32.18,-0.56,7.54,2.86
32.18,-0.64,7.43,2.94
32.19,-0.77,7.36,2.95
32.19,-0.86,7.31,2.94
32.19,-0.91,7.20,2.87
32.19,-1.05,7.14,2.86
32.20,-1.17,7.10,2.87
32.20,-1.23,7.11,2.80
32.20,-1.24,7.03,2.77
32.20,-1.34,7.00,2.67
32.21,-1.43,6.98,2.57
32.21,-1.45,6.93,2.50
32.21,-1.44,6.94,2.39
32.21,-1.49,7.00,2.35
32.22,-1.50,6.97,2.23
32.22,-1.50,7.04,2.16
32.22,-1.50,7.11,2.09
32.22,-1.42,7.11,2.02
32.23,-1.37,7.13,2.04
32.23,-1.26,7.13,2.00
32.23,-1.16,7.17,1.98
32.23,-1.05,7.23,1.94
32.24,-0.89,7.22,1.92
32.24,-0.81,7.22,1.93
32.24,-0.67,7.14,1.86
32.24,-0.47,7.14,1.90
32.25,-0.34,7.05,1.86
32.25,-0.21,7.04,1.78
32.25,-0.07,7.04,1.82
32.25,0.11,7.01,1.81
32.26,0.19,6.89,1.77
32.26,0.23,6.84,1.74
32.26,0.28,6.81,1.75
32.26,0.37,6.78,1.70
32.27,0.48,6.74,1.80
32.27,0.60,6.70,1.83
32.27,0.70,6.65,2.01
32.27,0.83,6.66,2.08
32.28,0.96,6.63,2.27
32.28,1.05,6.60,2.43
32.28,1.21,6.58,2.56
32.28,1.46,6.53,2.79
32.29,1.62,6.57,2.99
32.29,1.68,6.64,3.27
32.29,1.72,6.73,3.49
32.29,1.91,6.75,3.80
32.30,2.13,6.67,4.12
32.30,2.26,6.62,4.39
32.30,2.35,6.59,4.65
32.30,2.46,6.52,5.00
32.31,2.64,6.50,5.22
32.31,2.89,6.46,5.41
32.31,3.08,6.50,5.63
32.31,3.25,6.60,5.87
32.32,3.48,6.64,6.14
32.32,3.67,6.67,6.33
32.32,3.73,6.80,6.48
32.32,3.79,6.92,6.62
32.33,3.85,7.04,6.75
32.33,3.99,7.12,6.99
32.33,4.17,7.18,7.28
32.33,4.38,7.22,7.63
32.34,4.62,7.27,7.91
32.34,4.86,7.23,8.13
32.34,5.15,7.18,8.23
32.34,5.35,7.11,8.14
32.35,5.55,6.99,7.95
32.35,5.75,6.98,7.65
32.35,5.88,6.94,7.20
32.35,6.01,7.00,6.74
32.36,6.17,7.03,6.29
32.36,6.26,7.06,5.71
32.36,6.35,7.16,5.14
32.36,6.38,7.37,4.57
32.37,6.43,7.59,4.09
32.37,6.43,7.82,3.67
32.37,6.51,7.98,3.34
32.37,6.63,8.14,3.00
32.38,6.68,8.29,2.86
32.38,6.71,8.50,2.83
32.38,6.58,8.66,2.98
32.38,6.37,8.82,3.25
32.39,6.13,9.08,3.57
32.39,5.87,9.32,3.96
32.39,5.55,9.63,4.33
32.39,5.31,9.99,4.72
32.40,5.09,10.38,5.18
32.40,4.93,10.76,5.70
32.40,4.90,11.18,6.23
32.40,4.88,11.52,6.80
32.41,4.92,11.86,7.35
32.41,4.98,12.04,7.91
32.41,5.09,12.13,8.48
32.41,5.25,12.10,8.98
32.42,5.42,11.96,9.49
32.42,5.61,11.71,9.97
32.42,5.81,11.37,10.32
32.42,6.03,10.96,10.74
32.43,6.27,10.56,10.98
32.43,6.57,10.03,11.14
32.43,7.00,9.57,11.11
32.43,7.55,9.08,11.09
32.44,8.07,8.69,10.96
32.44,8.52,8.25,10.62
32.44,8.81,7.89,10.25
32.44,8.77,7.77,9.85
32.45,8.45,7.80,9.46
32.45,7.86,7.85,9.06
32.45,7.17,7.98,8.57
32.45,6.61,8.06,8.11
32.46,6.00,8.13,7.67
32.46,5.49,8.11,7.33
32.46,5.04,8.10,6.87
32.46,4.55,8.03,6.49
32.47,4.15,7.89,6.05
32.47,3.72,7.74,5.63
32.47,3.27,7.70,5.23
32.47,2.82,7.69,4.86
32.48,2.33,7.69,4.38
32.48,1.85,7.86,3.92
32.48,1.27,8.13,3.51
32.48,0.82,8.59,3.18
32.49,0.33,9.10,2.86
32.49,-0.18,9.76,2.49
32.49,-0.63,10.54,2.11
32.49,-0.97,11.31,1.83
32.50,-1.36,12.09,1.60
32.50,-1.75,12.85,1.34
32.50,-2.11,13.58,1.19
32.50,-2.57,14.42,1.17
32.51,-2.95,15.32,1.18
32.51,-3.26,16.32,1.29
32.51,-3.61,17.33,1.28
32.51,-4.03,18.33,1.25
32.52,-4.52,19.34,1.22
32.52,-4.94,20.04,1.12
32.52,-5.38,20.64,0.92
32.52,-5.77,21.15,0.56
32.53,-6.02,21.15,0.26
32.53,-6.12,20.70,-0.07
32.53,-6.26,19.82,-0.33
32.53,-6.38,18.41,-0.52
32.54,-6.23,16.53,-0.64
32.54,-5.52,14.40,-0.55
32.54,-4.53,12.39,-0.30
32.54,-3.55,10.82,0.09
32.55,-2.67,9.54,0.48
32.55,-1.95,8.57,0.83
32.55,-1.37,7.65,1.15
32.55,-0.93,6.98,1.35
32.56,-0.66,6.45,1.54
32.56,-0.60,6.00,1.75
32.56,-0.68,5.71,1.93
32.56,-0.82,5.50,2.06
32.57,-1.00,5.31,2.26
32.57,-1.29,5.23,2.42
32.57,-1.59,5.26,2.45
32.57,-1.87,5.40,2.53
32.58,-2.12,5.54,2.66
32.58,-2.34,5.73,2.75
32.58,-2.46,5.93,2.85
32.58,-2.60,6.07,2.87
32.59,-2.66,6.20,2.96
32.59,-2.66,6.36,3.04
32.59,-2.74,6.53,3.17
32.59,-2.78,6.77,3.26
32.60,-2.79,6.95,3.21
32.60,-2.77,7.08,3.13
32.60,-2.71,7.29,3.11
32.60,-2.60,7.40,2.91
32.61,-2.53,7.59,2.78
32.61,-2.30,7.76,2.57
32.61,-2.18,7.95,2.35
32.61,-2.10,8.21,2.11
32.62,-2.04,8.53,1.97
32.62,-1.94,8.92,1.76
32.62,-1.86,9.29,1.61
32.62,-1.71,9.67,1.34
32.63,-1.60,10.08,1.17
32.63,-1.50,10.53,1.09
32.63,-1.39,10.95,0.95
32.63,-1.25,11.38,0.95
32.64,-1.21,11.74,0.86
32.64,-1.32,12.06,0.85
32.64,-1.32,12.42,1.12
32.64,-1.26,12.81,1.36
32.65,-1.23,13.03,1.63
32.65,-1.23,13.15,1.78
32.65,-1.26,13.23,1.99
32.65,-1.13,13.04,2.35
32.66,-0.87,12.59,2.76
32.66,-0.42,12.01,3.12
32.66,0.00,11.32,3.43
32.66,0.44,10.68,3.72
32.67,0.82,10.12,3.94
32.67,1.08,9.62,4.17
32.67,1.16,9.16,4.31
32.67,1.25,8.68,4.37
32.68,1.41,8.26,4.47
32.68,1.49,7.85,4.59
32.68,1.35,7.55,4.49
32.68,1.32,7.28,4.42
32.69,1.31,6.96,4.23
32.69,1.20,6.71,3.92
32.69,1.09,6.52,3.74
32.69,0.94,6.45,3.32
32.70,0.72,6.38,2.74
32.70,0.49,6.35,2.12
32.70,0.21,6.32,1.42
32.70,-0.17,6.38,0.71
32.71,-0.43,6.45,0.22
32.71,-0.72,6.58,-0.30
32.71,-0.98,6.69,-0.69
32.71,-1.03,6.76,-0.72
32.72,-1.06,6.79,-0.63
32.72,-1.05,6.82,-0.41
32.72,-1.05,6.90,-0.09
32.72,-1.06,7.02,0.06
32.73,-1.17,7.19,0.00
32.73,-1.28,7.31,-0.03
32.73,-1.44,7.37,0.31
32.73,-1.58,7.39,0.70
32.74,-1.62,7.52,1.09
32.74,-1.63,7.62,1.58
32.74,-1.56,7.70,1.86
32.74,-1.55,7.73,2.13
32.75,-1.53,7.86,2.70
32.75,-1.47,8.05,3.08
32.75,-1.44,8.26,3.46
32.75,-1.38,8.34,3.82
32.76,-1.27,8.44,4.30
32.76,-1.05,8.54,4.73
32.76,-0.87,8.58,5.24
32.76,-0.55,8.71,5.85
32.77,-0.35,8.79,6.33
32.77,-0.25,8.87,6.66
32.77,-0.12,8.89,6.91
32.77,0.08,8.84,6.96
32.78,0.16,8.77,7.00
32.78,0.31,8.66,7.01
32.78,0.34,8.52,6.91
32.78,0.36,8.30,6.59
32.79,0.41,8.05,6.21
32.79,0.45,7.82,6.07
32.79,0.51,7.60,6.01
32.79,0.47,7.46,5.83
32.80,0.42,7.20,5.59
32.80,0.39,7.17,5.29
32.80,0.40,6.99,4.82
32.80,0.51,6.89,4.23
32.81,0.61,6.85,3.81
32.81,0.68,6.75,3.33
32.81,0.74,6.62,2.84
32.81,0.89,6.51,2.41
32.82,1.00,6.50,2.07
32.82,0.93,6.58,1.90
32.82,0.87,6.68,1.82
32.82,0.87,6.84,1.78
32.83,0.81,6.92,1.80
32.83,0.84,6.94,1.94
32.83,0.85,7.11,1.94
32.83,0.85,7.18,1.98
32.84,0.89,7.31,2.00
32.84,0.96,7.34,2.19
32.84,1.00,7.45,2.33
32.84,0.86,7.72,2.18
32.85,0.71,7.94,2.09
32.85,0.66,8.15,2.33
32.85,0.59,8.30,2.45
32.85,0.50,8.45,2.59
32.86,0.35,8.65,2.74
32.86,0.17,8.84,2.72
32.86,0.19,8.77,3.02
32.86,0.19,8.89,3.47
32.87,0.21,8.94,3.56
32.87,0.32,8.95,3.59
32.87,0.38,8.95,3.68
32.87,0.30,8.99,3.59
32.88,0.25,9.00,3.60
32.88,0.18,9.00,3.70
32.88,0.21,8.94,3.80
32.88,0.08,8.96,3.85
32.89,0.06,8.91,3.89
32.89,0.02,8.86,3.87
32.89,0.06,8.85,3.97
32.89,0.00,8.65,3.93
32.90,0.08,8.49,3.87
32.90,0.14,8.31,3.90
32.90,0.12,8.09,3.97
32.90,0.14,7.89,4.07
32.91,0.15,7.71,4.20
32.91,0.11,7.59,4.23
32.91,0.06,7.60,4.31
32.91,0.02,7.57,4.42
32.92,-0.12,7.59,4.45
32.92,-0.28,7.64,4.28
32.92,-0.32,7.87,4.03
32.92,-0.49,7.90,3.77
32.93,-0.78,7.84,3.74
32.93,-1.04,7.88,3.73
32.93,-1.17,7.88,3.84
32.93,-1.33,7.92,3.89
32.94,-1.55,7.92,3.80
32.94,-1.71,7.99,3.71
32.94,-1.89,8.05,3.59
32.94,-2.07,8.06,3.49
32.95,-2.20,8.20,3.42
32.95,-2.38,8.28,3.45
32.95,-2.68,8.28,3.58
32.95,-2.96,8.34,3.72
32.96,-3.16,8.19,3.94
32.96,-3.26,8.15,4.04
32.96,-3.28,8.17,4.29
32.96,-3.36,8.15,4.49
32.97,-3.32,8.10,4.64
32.97,-3.41,8.05,4.80
32.97,-3.48,8.07,4.81
32.97,-3.52,8.05,4.79
32.98,-3.55,8.07,4.89
32.98,-3.65,8.14,4.89
32.98,-3.72,8.16,4.88
32.98,-3.88,8.29,4.84
32.99,-3.85,8.43,4.79
32.99,-3.78,8.51,4.71
32.99,-3.67,8.65,4.59
32.99,-3.45,8.83,4.49
33.00,-3.17,8.94,4.50
33.00,-2.94,9.08,4.50
33.00,-2.68,9.13,4.53
33.01,-2.44,9.17,4.51
33.01,-2.27,9.14,4.46
33.01,-2.05,9.06,4.35
33.01,-1.87,8.99,4.22
33.01,-1.79,8.87,4.14
33.02,-1.65,8.77,4.03
33.02,-1.56,8.64,4.00
33.02,-1.45,8.51,3.90
33.02,-1.41,8.39,3.86
33.03,-1.36,8.29,3.82
33.03,-1.33,8.20,3.82
33.03,-1.34,8.10,3.88
33.03,-1.37,8.02,3.92
33.04,-1.47,8.01,3.97
33.04,-1.54,7.99,4.05
33.04,-1.65,8.02,4.18
33.04,-1.71,8.06,4.33
33.05,-1.88,8.13,4.51
33.05,-1.97,8.24,4.74
33.05,-2.01,8.35,4.97
33.05,-2.09,8.45,5.13
33.06,-2.07,8.52,5.27
33.06,-2.14,8.62,5.54
33.06,-2.27,8.79,5.75
33.06,-2.39,8.84,5.90
33.07,-2.44,8.96,5.94
33.07,-2.47,9.05,5.92
33.07,-2.60,9.18,5.91
33.07,-2.70,9.23,5.95
33.08,-2.91,9.29,5.88
33.08,-2.96,9.31,5.84
33.08,-2.96,9.31,5.77
33.08,-2.95,9.26,5.59
33.09,-2.88,9.26,5.44
33.09,-2.79,9.21,5.27
33.09,-2.67,9.12,5.12
33.09,-2.48,9.05,4.93
33.10,-2.23,8.96,4.74
33.10,-1.95,8.91,4.56
33.10,-1.67,8.83,4.29
33.10,-1.42,8.82,4.07
33.11,-1.11,8.87,3.88
33.11,-0.87,8.91,3.61
33.11,-0.72,8.88,3.35
33.11,-0.54,8.83,3.08
33.12,-0.35,8.76,2.79
33.12,-0.20,8.66,2.59
33.12,0.03,8.56,2.42
33.12,0.35,8.37,2.30
33.13,0.55,8.18,2.19
33.13,0.74,7.95,2.10
33.13,0.88,7.71,2.09
33.13,1.05,7.52,2.04
33.14,1.21,7.26,2.11
33.14,1.29,7.09,2.21
33.14,1.35,6.96,2.23
33.14,1.38,6.83,2.26
33.15,1.29,6.68,2.38
33.15,1.22,6.61,2.45
33.15,1.05,6.58,2.61
33.15,0.89,6.56,2.67
33.16,0.62,6.56,2.84
33.16,0.41,6.55,2.93
33.16,0.06,6.41,2.96
33.16,-0.36,6.24,3.06
33.17,-0.74,6.44,3.38
33.17,-0.93,6.46,3.45
33.17,-0.93,6.57,3.40
33.17,-1.01,6.72,3.42
33.18,-1.17,6.88,3.53
33.18,-1.34,7.07,3.53
33.18,-1.48,7.38,3.33
33.18,-1.53,7.78,2.95
33.19,-1.55,8.28,2.57
33.19,-1.62,8.84,2.09
33.19,-1.63,9.42,1.64
