"Time (s)","Acceleration x (m/s^2)","Acceleration y (m/s^2)","Acceleration z (m/s^2)"
2.973370800E-2,-2.198704958E0,-7.955537319E0,1.589133382E0
3.220850000E-2,-2.354238272E0,-8.082655907E0,1.524227977E0
3.468329100E-2,-2.490928411E0,-8.092226982E0,1.416550994E0
3.715808300E-2,-2.579462767E0,-8.118548393E0,1.306481123E0
3.963287500E-2,-2.660818815E0,-8.166404724E0,1.212862015E0
4.210766600E-2,-2.737688303E0,-8.250153542E0,1.143470168E0
4.458245800E-2,-2.735295296E0,-8.310273170E0,1.026221752E0
4.705730200E-2,-2.814258575E0,-8.331808090E0,9.756734371E-1
4.953209300E-2,-2.816651344E0,-8.417949677E0,9.589236975E-1
5.200683300E-2,-2.828615427E0,-8.484949112E0,9.326026440E-1
5.448162500E-2,-2.847758055E0,-8.559126854E0,9.900303483E-1
5.695646800E-2,-2.845365286E0,-8.626424789E0,1.095613718E0
5.943126000E-2,-2.893221617E0,-8.662317276E0,1.172183990E0
6.192412500E-2,-2.905185699E0,-8.748458862E0,1.284945726E0
6.439891600E-2,-2.912364244E0,-8.769993782E0,1.454836130E0
6.687376000E-2,-2.933899641E0,-8.774779320E0,1.601097465E0
6.934855200E-2,-2.854936600E0,-8.810671806E0,1.706381679E0
7.182334300E-2,-2.888436079E0,-8.760422707E0,1.819143414E0
7.429813500E-2,-2.876471996E0,-8.781958580E0,1.967498422E0
7.677297900E-2,-2.792723179E0,-8.774779320E0,2.020140409E0
7.924771800E-2,-2.665604353E0,-8.741280556E0,1.996212244E0
8.172256200E-2,-2.545963287E0,-8.710173607E0,1.993819475E0
8.419730200E-2,-2.330310106E0,-8.691030502E0,1.962712765E0
8.667214600E-2,-2.198704958E0,-8.638388634E0,1.881356835E0
8.914693700E-2,-2.052443504E0,-8.631210327E0,1.843071699E0
9.163131200E-2,-1.875075698E0,-8.652746201E0,1.787737608E0
9.410610400E-2,-1.772184253E0,-8.635995865E0,1.651346684E0
9.658089600E-2,-1.640578985E0,-8.688637733E0,1.447657704E0
9.905573900E-2,-1.525424480E0,-8.738887787E0,1.332802176E0
1.015305310E-1,-1.422533035E0,-8.784351349E0,1.232004523E0
1.040053230E-1,-1.254736423E0,-8.808279037E0,1.014257669E0
1.064801140E-1,-1.118345499E0,-8.861220360E0,8.177471161E-1
1.089549060E-1,-9.792626500E-1,-8.897112846E0,7.169494629E-1
1.114296980E-1,-8.596215248E-1,-8.928219795E0,6.236293912E-1
1.139044890E-1,-7.974081635E-1,-8.966505051E0,5.231308341E-1
1.163793330E-1,-6.774678826E-1,-9.062217712E0,4.558327198E-1
1.188541250E-1,-5.168496966E-1,-9.095717430E0,3.888336718E-1
1.213337600E-1,-4.019941986E-1,-9.165408134E0,3.792623878E-1
1.238085520E-1,-3.206382394E-1,-9.182157516E0,4.606183469E-1
1.262833960E-1,-1.863410622E-1,-9.203693390E0,5.231308341E-1
1.287581870E-1,-7.627122104E-2,-9.277871132E0,6.068796515E-1
1.312329790E-1,-8.105687052E-2,-9.313762665E0,6.667001843E-1
1.337077710E-1,4.366901144E-2,-9.356833458E0,7.722834945E-1
1.361826140E-1,1.369891018E-1,-9.282656670E0,7.411768436E-1
1.386574060E-1,1.872383654E-1,-9.308977127E0,8.392825127E-1
1.411321980E-1,2.494517565E-1,-9.347262383E0,8.368897438E-1
1.436069890E-1,3.167499006E-1,-9.244371414E0,7.962117195E-1
1.460817810E-1,3.526422381E-1,-9.206086159E0,7.962117195E-1
1.485565730E-1,3.933202326E-1,-9.194122314E0,7.145566344E-1
1.510381870E-1,3.167499006E-1,-9.148657799E0,6.978068948E-1
1.535129790E-1,3.311068416E-1,-9.117551804E0,5.638088584E-1
1.559877710E-1,2.566302419E-1,-9.078967094E0,5.398806334E-1
1.584625620E-1,1.657029688E-1,-9.028717995E0,5.781657696E-1
1.609373540E-1,4.606183618E-2,-9.002396584E0,5.518447161E-1
1.634121460E-1,-7.627122104E-2,-8.944969177E0,5.829514265E-1
1.658869890E-1,-2.174477577E-1,-8.944969177E0,6.308078766E-1
1.683617810E-1,-3.421736360E-1,-8.923434258E0,6.643074155E-1
1.708365730E-1,-5.096712112E-1,-8.870791435E0,7.169494629E-1
1.733113640E-1,-6.272186637E-1,-8.873184204E0,7.217351198E-1
1.757861560E-1,-8.045865893E-1,-8.885149002E0,7.435696125E-1
1.782609480E-1,-9.816554785E-1,-8.875576973E0,6.523432732E-1
1.807466770E-1,-1.130309582E0,-8.861220360E0,6.499504447E-1
1.832214680E-1,-1.257129192E0,-8.899505615E0,6.403791308E-1
1.856962080E-1,-1.384247899E0,-8.911469460E0,5.303093195E-1
1.881710000E-1,-1.532602906E0,-8.851649284E0,5.111667514E-1
1.906458430E-1,-1.688435435E0,-8.861220360E0,5.350949764E-1
1.931206350E-1,-1.846361756E0,-8.870791435E0,4.992026389E-1
1.955954270E-1,-1.951945066E0,-8.827422142E0,4.800600410E-1
1.980702180E-1,-2.126621008E0,-8.822636604E0,4.728815854E-1
2.005450100E-1,-2.258525372E0,-8.793922424E0,4.896313250E-1
2.030198020E-1,-2.313560486E0,-8.839385986E0,3.888336718E-1
2.054945930E-1,-2.356631279E0,-8.842078209E0,2.979064286E-1
2.079694370E-1,-2.335095882E0,-8.844470978E0,1.875374764E-1
2.104723020E-1,-2.320738792E0,-8.851649284E0,-3.499503061E-2
2.129471460E-1,-2.260918379E0,-8.909076691E0,-2.291127741E-1
2.154219370E-1,-2.232204437E0,-8.990432739E0,-4.064807594E-1
2.178967290E-1,-2.196312189E0,-9.028717995E0,-6.460621357E-1
2.203715210E-1,-2.112264156E0,-9.055039406E0,-7.896314859E-1
2.228463120E-1,-2.026122570E0,-9.124730110E0,-9.311071038E-1
2.253211560E-1,-2.040479422E0,-9.134301186E0,-1.033998489E0
2.277959480E-1,-1.997408748E0,-9.146265030E0,-1.211366415E0
2.302707390E-1,-1.928016901E0,-9.172586441E0,-1.283151150E0
2.327455310E-1,-1.899302959E0,-9.251549721E0,-1.319043517E0
2.352203230E-1,-1.951945066E0,-9.330513000E0,-1.369292736E0
2.376951140E-1,-1.930409670E0,-9.383454323E0,-1.347757339E0
2.401751140E-1,-1.937588096E0,-9.414560318E0,-1.249651670E0
2.426499580E-1,-1.973480463E0,-9.495916367E0,-1.192223907E0
2.451247500E-1,-1.956730723E0,-9.589237213E0,-1.096211910E0
2.475995410E-1,-1.980658889E0,-9.680462837E0,-9.837492108E-1
2.500743330E-1,-1.968694806E0,-9.742676735E0,-8.685946465E-1
2.525491250E-1,-1.961516380E0,-9.795318604E0,-7.944171429E-1
2.550239160E-1,-1.973480463E0,-9.776176453E0,-6.795616150E-1
2.574987080E-1,-1.973480463E0,-9.800104141E0,-6.412764788E-1
2.599735520E-1,-1.990230203E0,-9.802496910E0,-5.715855360E-1
2.624483430E-1,-2.002194405E0,-9.814460754E0,-5.117649436E-1
2.649231350E-1,-1.983051777E0,-9.723533630E0,-5.165506005E-1
2.673979270E-1,-1.932802439E0,-9.709177017E0,-4.926223755E-1
2.698802710E-1,-1.928016901E0,-9.701998711E0,-4.160520434E-1
2.723551140E-1,-1.855933070E0,-9.641879082E0,-4.064807594E-1
2.748299060E-1,-1.820040703E0,-9.629914284E0,-4.232304990E-1
2.773046980E-1,-1.781755567E0,-9.562915802E0,-4.423730969E-1
2.797794890E-1,-1.733899117E0,-9.531808853E0,-4.639084935E-1
2.822542810E-1,-1.686042666E0,-9.517452240E0,-4.782654345E-1
2.847290730E-1,-1.601994753E0,-9.488738060E0,-5.979065299E-1
2.872038640E-1,-1.503889084E0,-9.464810371E0,-6.556333899E-1
2.896787080E-1,-1.439282775E0,-9.412167549E0,-6.867401004E-1
2.921535000E-1,-1.400997639E0,-9.407382011E0,-7.776673436E-1
2.946282910E-1,-1.367498159E0,-9.359226227E0,-9.215358496E-1
2.971031350E-1,-1.283450246E0,-9.289834976E0,-1.033998489E0
2.996054270E-1,-1.204487085E0,-9.270691872E0,-1.146461129E0
3.020802710E-1,-1.147059321E0,-9.301798820E0,-1.175474167E0
3.045550100E-1,-1.022333503E0,-9.251549721E0,-1.220937729E0
3.070298540E-1,-9.218349457E-1,-9.234800339E0,-1.333400369E0
3.095046460E-1,-9.696913958E-1,-9.220442772E0,-1.369292736E0
3.119794370E-1,-9.672985673E-1,-9.201300621E0,-1.357328653E0
3.144542290E-1,-9.218349457E-1,-9.165408134E0,-1.376471281E0
3.169290210E-1,-9.050851464E-1,-9.191729546E0,-1.347757339E0
3.194038640E-1,-9.074779749E-1,-9.275477409E0,-1.321436286E0
3.218786560E-1,-9.409775138E-1,-9.301798820E0,-1.314257860E0
3.243533960E-1,-9.768698215E-1,-9.244371414E0,-1.228116274E0
3.268282390E-1,-1.070489049E0,-9.273084641E0,-1.201795220E0
3.293114680E-1,-1.180558920E0,-9.277871132E0,-1.165902853E0
3.317863120E-1,-1.228415370E0,-9.241978645E0,-1.112961650E0
3.342610520E-1,-1.377069473E0,-9.268299103E0,-1.048355460E0
3.367358960E-1,-1.420140266E0,-9.294620514E0,-9.263214469E-1
3.392106870E-1,-1.489532113E0,-9.215657234E0,-7.800601721E-1
3.416854790E-1,-1.532602906E0,-9.201300621E0,-7.369893789E-1
3.441602710E-1,-1.523031592E0,-9.227621078E0,-7.417750359E-1
3.466350620E-1,-1.539781332E0,-9.225228310E0,-7.633104324E-1
3.491099060E-1,-1.530210137E0,-9.208478928E0,-7.489534616E-1
3.515846980E-1,-1.508674622E0,-9.172586441E0,-6.317051649E-1
3.540594890E-1,-1.444068432E0,-9.198907852E0,-8.398807645E-1
3.565342810E-1,-1.496710539E0,-9.210871696E0,-9.454640746E-1
3.590145930E-1,-1.494317770E0,-9.158229828E0,-9.071788788E-1
3.614894370E-1,-1.499103427E0,-9.127122879E0,-1.048355460E0
3.639642290E-1,-1.523031592E0,-9.076574326E0,-1.199402332E0
3.664390210E-1,-1.585245013E0,-8.997611046E0,-1.216152072E0
3.689138120E-1,-1.582852125E0,-8.925827026E0,-1.201795220E0
3.713886040E-1,-1.563709617E0,-8.887541771E0,-1.144068360E0
3.738633960E-1,-1.626222134E0,-8.839385986E0,-1.065105200E0
3.763381870E-1,-1.676471353E0,-8.707780838E0,-1.081854939E0
3.788130310E-1,-1.779362798E0,-8.602496147E0,-1.007677436E0
3.812878230E-1,-1.774577141E0,-8.590532303E0,-9.047860503E-1
3.837626140E-1,-1.810469389E0,-8.578568459E0,-8.685946465E-1
3.862374060E-1,-1.829612017E0,-8.492127419E0,-8.111668825E-1
3.886706350E-1,-1.875075698E0,-8.432307243E0,-7.226324677E-1
3.911454790E-1,-1.899302959E0,-8.374878883E0,-6.125625968E-1
3.936202710E-1,-1.939980984E0,-8.322237015E0,-4.639084935E-1
3.960950620E-1,-1.913659930E0,-8.312665939E0,-4.160520434E-1
3.985699060E-1,-1.870290041E0,-8.303094864E0,-2.147558331E-1
4.010446980E-1,-1.901695848E0,-8.384450912E0,-5.892325938E-2
4.035194370E-1,-1.918445587E0,-8.415556908E0,-1.405783296E-1
4.059942810E-1,-1.906481385E0,-8.425128937E0,-1.549352705E-1
4.084690730E-1,-1.937588096E0,-8.449056625E0,-4.935196787E-2
4.109438640E-1,-1.906481385E0,-8.513663292E0,1.286142133E-2
4.134186560E-1,-1.867897153E0,-8.559126854E0,7.986045629E-2
4.158935000E-1,-1.887338877E0,-8.638388634E0,2.189432681E-1
4.184240730E-1,-1.853540182E0,-8.734101295E0,3.026920557E-1
4.208989160E-1,-1.822433591E0,-8.798707962E0,3.720839322E-1
4.233737080E-1,-1.820040703E0,-8.827422142E0,5.183451772E-1
4.258485000E-1,-1.805683732E0,-8.899505615E0,6.116653085E-1
4.283232910E-1,-1.765005827E0,-8.947361946E0,7.483552694E-1
4.307980830E-1,-1.772184253E0,-8.964112282E0,8.009973764E-1
4.332728750E-1,-1.745863199E0,-8.940183640E0,8.273184299E-1
4.357476660E-1,-1.678864241E0,-8.959325790E0,8.081758618E-1
4.382225100E-1,-1.551745534E0,-8.918647766E0,9.014959335E-1
4.406973020E-1,-1.453639746E0,-8.889934540E0,9.876375198E-1
4.431720410E-1,-1.415354609E0,-8.877969742E0,5.901299119E-1
4.456468330E-1,-1.345962763E0,-8.923434258E0,3.505485058E-1
4.481065730E-1,-1.242772222E0,-8.892327309E0,2.141576260E-1
4.505814160E-1,-1.082453132E0,-8.870791435E0,-1.495514181E-3
4.530562080E-1,-9.816554785E-1,-8.866005898E0,-6.370890141E-2
4.555310000E-1,-8.524430394E-1,-8.875576973E0,-1.214357466E-1
4.580057910E-1,-7.779664397E-1,-8.909076691E0,-3.490529954E-1
4.604805830E-1,-7.253243923E-1,-8.952147484E0,-4.543372095E-1
4.629553750E-1,-6.296114326E-1,-8.899505615E0,-4.878367186E-1
4.654301660E-1,-5.386841893E-1,-8.925827026E0,-5.907281041E-1
4.679050100E-1,-4.594219327E-1,-8.911469460E0,-5.356931686E-1
4.703797500E-1,-3.780659735E-1,-8.956933022E0,-5.548357368E-1
4.728545930E-1,-2.919243574E-1,-8.992825508E0,-5.811567903E-1
4.753293850E-1,-2.608176768E-1,-9.040681839E0,-6.221339107E-1
4.778351660E-1,-2.533400953E-1,-9.095717430E0,-6.556333899E-1
4.803100100E-1,-2.054836452E-1,-9.143872261E0,-6.245267391E-1
4.827848020E-1,-2.222333997E-1,-9.078967094E0,-7.298108935E-1
4.852595930E-1,-1.528415531E-1,-9.090931892E0,-8.087740541E-1
4.877343850E-1,-8.823533356E-2,-9.213264465E0,-6.604190469E-1
4.902091770E-1,5.084747914E-3,-9.246764183E0,-6.074778438E-1
4.926839680E-1,3.409772366E-2,-9.232406616E0,-6.293123364E-1
4.951587600E-1,1.226321608E-1,-9.215657234E0,-6.149554253E-1
4.976336040E-1,1.680957973E-1,-9.225228310E0,-6.340979934E-1
5.001083960E-1,2.303091735E-1,-9.261120796E0,-6.098706722E-1
5.025831870E-1,3.406781256E-1,-9.258728027E0,-5.237290859E-1
5.050579790E-1,4.292125702E-1,-9.270691872E0,-5.045864582E-1
5.075395410E-1,5.297111273E-1,-9.318549156E0,-2.075773627E-1
5.100143850E-1,6.089733839E-1,-9.335298538E0,-3.945166469E-1
5.124891770E-1,7.286145091E-1,-9.313762665E0,-5.213362575E-1
5.149639160E-1,8.509475589E-1,-9.359226227E0,-6.556333899E-1
5.174387600E-1,9.634101987E-1,-9.402596474E0,-7.106683254E-1
5.199135520E-1,1.100100160E0,-9.452845573E0,-6.317051649E-1
5.223883430E-1,1.200598717E0,-9.515059471E0,-7.513462901E-1
5.248631350E-1,1.320239902E0,-9.608379364E0,-7.657032609E-1
5.273379790E-1,1.533500195E0,-9.661320686E0,-7.082754970E-1
5.298127710E-1,1.722832322E0,-9.735498428E0,-6.269195080E-1
5.322875620E-1,1.895115495E0,-9.804889679E0,-5.691927075E-1
5.347623540E-1,2.094018936E0,-9.855138779E0,-5.476573110E-1
5.372439680E-1,2.261815548E0,-9.888638496E0,-4.639084935E-1
5.397188120E-1,2.419741869E0,-9.960722923E0,-3.248256743E-1
5.421936040E-1,2.613859653E0,-1.006839943E1,-1.310070455E-1
5.446683430E-1,2.807977438E0,-1.016411209E1,6.789634377E-2
5.471431870E-1,3.004487991E0,-1.023380375E1,2.476571500E-1
5.496179790E-1,3.205485106E0,-1.035105133E1,4.462614357E-1
5.520927710E-1,3.423531055E0,-1.043001461E1,5.901299119E-1
5.545675620E-1,3.608077526E0,-1.049731255E1,7.217351198E-1
5.570423540E-1,3.754039526E0,-1.058106136E1,8.368897438E-1
5.595171980E-1,3.962514400E0,-1.058824062E1,9.254241586E-1
5.619919890E-1,4.108775616E0,-1.060499001E1,9.684949517E-1
5.644667810E-1,4.271487713E0,-1.061216831E1,1.014257669E0
5.669475620E-1,4.436891556E0,-1.058584690E1,1.047757268E0
5.694224060E-1,4.570889473E0,-1.049731255E1,1.071685433E0
5.718971980E-1,4.597210407E0,-1.048056316E1,1.114756227E0
5.743719890E-1,4.690829754E0,-1.036780167E1,1.141077280E0
5.768467810E-1,4.731507778E0,-1.025773144E1,1.145862937E0
5.793215730E-1,4.733900547E0,-1.019073296E1,1.143470168E0
5.817963640E-1,4.709972382E0,-1.012821960E1,1.181755304E0
5.842711560E-1,4.674079895E0,-1.014975548E1,1.172183990E0
5.867459480E-1,4.642973423E0,-1.017129040E1,1.253539920E0
5.892207910E-1,4.587639332E0,-1.017846966E1,1.287338614E0
5.916955830E-1,4.520640373E0,-1.026730251E1,1.313659668E0
5.941703750E-1,4.400999069E0,-1.037976551E1,1.354337573E0
5.966530310E-1,4.316951275E0,-1.048534870E1,1.426122308E0
5.991278750E-1,4.218845367E0,-1.055713367E1,1.505085468E0
6.016026660E-1,4.022335052E0,-1.067916775E1,1.579562068E0
6.040774580E-1,3.890729666E0,-1.077039337E1,1.675274968E0
6.065522500E-1,3.782753468E0,-1.090199947E1,1.699203134E0
6.090270410E-1,3.615255833E0,-1.108175945E1,1.759023786E0
6.115018330E-1,3.368496180E0,-1.121097183E1,1.737488389E0
6.139766250E-1,3.160021305E0,-1.128544903E1,1.737488389E0
6.164514680E-1,2.891726255E0,-1.141705418E1,1.759023786E0
6.189262600E-1,2.606681108E0,-1.151276684E1,1.797308922E0
6.214010520E-1,2.321636200E0,-1.154895878E1,1.794916034E0
6.238758430E-1,1.715653777E0,-1.137398338E1,1.524227977E0
6.263574580E-1,1.289133191E0,-1.148644638E1,1.337587833E0
6.288323020E-1,1.059123158E0,-1.173081303E1,1.593919039E0
6.313070930E-1,6.568298340E-1,-1.187228870E1,1.648953915E0
6.337818850E-1,2.398804724E-1,-1.197278690E1,1.648953915E0
6.362566770E-1,-2.485544533E-1,-1.208076286E1,1.742274046E0
6.387314680E-1,-7.899305820E-1,-1.222672558E1,1.799701691E0
6.412062600E-1,-1.343569875E0,-1.246869946E1,1.852642894E0
6.436810520E-1,-1.832004786E0,-1.261226940E1,1.874178290E0
6.461558960E-1,-2.382952213E0,-1.279442310E1,2.058425665E0
6.486306870E-1,-3.001197815E0,-1.305793190E1,2.281257391E0
6.511054790E-1,-3.611965895E0,-1.325922871E1,2.530410051E0
6.535802710E-1,-4.160520554E0,-1.349402428E1,2.815454960E0
6.560612600E-1,-4.831109047E0,-1.379103374E1,2.820240498E0
6.585361040E-1,-5.494818211E0,-1.406172180E1,2.992822886E0
6.610108960E-1,-6.036194324E0,-1.437787342E1,3.191726208E0
6.634856350E-1,-6.632605076E0,-1.469163227E1,3.390330553E0
6.659604270E-1,-7.164410114E0,-1.492642784E1,3.572484255E0
6.684352710E-1,-7.545466900E0,-1.511815262E1,3.771387577E0
6.709100620E-1,-7.899903774E0,-1.518515205E1,3.855136395E0
6.733848540E-1,-8.149056435E0,-1.518515205E1,4.025325775E0
6.758596980E-1,-8.223234177E0,-1.506311798E1,4.099503517E0
6.783344890E-1,-8.230412483E0,-1.488814259E1,4.154538155E0
6.808092810E-1,-8.105985641E0,-1.452892017E1,4.097110748E0
6.832840730E-1,-7.799106121E0,-1.410000610E1,4.003790379E0
6.857657390E-1,-7.380063057E0,-1.360648727E1,3.893421650E0
6.882405830E-1,-6.766902447E0,-1.316590881E1,3.768994808E0
6.907153750E-1,-6.031408787E0,-1.278245831E1,3.663411379E0
6.931901660E-1,-5.271986485E0,-1.243998623E1,3.507878065E0
6.956649060E-1,-4.569992065E0,-1.213819122E1,3.536591768E0
6.981397500E-1,-3.935296059E0,-1.180020523E1,3.500699520E0
7.006145410E-1,-3.374777317E0,-1.150798130E1,3.399901867E0
7.030893330E-1,-2.912364244E0,-1.125882912E1,3.289832115E0
7.055641770E-1,-2.486142635E0,-1.103868866E1,3.304188967E0
7.080389680E-1,-2.172383785E0,-1.080628586E1,3.198904753E0
7.105137600E-1,-1.913659930E0,-1.061216831E1,3.076571703E0
7.129885000E-1,-1.623829246E0,-1.048774147E1,2.983251572E0
7.154717290E-1,-1.456032634E0,-1.039890766E1,3.021536827E0
7.179465730E-1,-1.379462242E0,-1.034387302E1,3.014358282E0
7.204213640E-1,-1.302592874E0,-1.026251698E1,2.940180779E0
7.228961560E-1,-1.295414329E0,-1.022662449E1,2.925823927E0
7.253709480E-1,-1.324128270E0,-1.017368412E1,2.976073265E0
7.278457390E-1,-1.389033556E0,-1.018325520E1,3.002394199E0
7.303205310E-1,-1.527817249E0,-1.016889763E1,2.997608662E0
7.327953230E-1,-1.662114382E0,-1.022901726E1,3.007179976E0
7.352701660E-1,-1.865504384E0,-1.026490974E1,3.086143017E0
7.377449580E-1,-2.062014818E0,-1.031276608E1,3.069393158E0
7.402197500E-1,-2.323131800E0,-1.035344410E1,3.067000389E0
7.426945410E-1,-2.557927370E0,-1.043480015E1,3.145963669E0
7.451761560E-1,-2.845365286E0,-1.046620655E1,3.088535786E0
7.476510000E-1,-3.168695450E0,-1.055234814E1,3.122035265E0
7.501257390E-1,-3.533002615E0,-1.059302616E1,3.081357241E0
7.526005830E-1,-3.882653952E0,-1.059302616E1,2.980858803E0
7.550753750E-1,-4.253840446E0,-1.059781170E1,2.942573547E0
7.575501660E-1,-4.565206528E0,-1.059541893E1,2.923431158E0
7.600249580E-1,-4.776073933E0,-1.049491978E1,2.942573547E0
7.624997500E-1,-4.939085007E0,-1.043240738E1,2.923431158E0
7.649745930E-1,-5.111368179E0,-1.030558777E1,2.952144861E0
7.674493850E-1,-5.279164791E0,-1.011625576E1,2.942573547E0
7.699241770E-1,-5.300700188E0,-9.984650612E0,2.944966555E0
7.723989680E-1,-5.295914650E0,-9.761818886E0,2.911466837E0
7.748585520E-1,-5.274379253E0,-9.448060036E0,2.863311291E0
7.773333430E-1,-5.176273346E0,-9.170193672E0,2.767598391E0
7.798081870E-1,-5.032404900E0,-8.887541771E0,2.587837696E0
7.822829790E-1,-4.898406982E0,-8.602496147E0,2.432304144E0
7.847577710E-1,-4.754538536E0,-8.377271652E0,2.204686880E0
7.872325620E-1,-4.510171413E0,-8.152048111E0,1.850250125E0
7.897073540E-1,-4.184448719E0,-7.907680511E0,1.550848126E0
7.921821460E-1,-3.791726589E0,-7.632206917E0,1.126720309E0
7.946569890E-1,-3.492025614E0,-7.402196884E0,7.411768436E-1
7.971317810E-1,-3.214159012E0,-7.256234646E0,3.098705411E-1
7.996065730E-1,-3.010769129E0,-7.093223572E0,-1.597209126E-1
8.020813640E-1,-2.701795816E0,-7.023831844E0,-6.221339107E-1
8.045839680E-1,-2.189133644E0,-6.918248653E0,-1.091426253E0
8.070588120E-1,-1.664507270E0,-6.872784615E0,-1.568196177E0
8.095336040E-1,-1.316949725E0,-6.796214581E0,-1.956132531E0
8.120083960E-1,-1.048654556E0,-6.669095993E0,-2.222034931E0
8.144831870E-1,-8.763712645E-1,-6.542276382E0,-2.411366940E0
8.169579790E-1,-6.559324861E-1,-6.420242310E0,-2.543271303E0
8.194327710E-1,-3.780659735E-1,-6.448956013E0,-2.586342096E0
8.219075620E-1,-3.080759197E-2,-6.547061920E0,-2.684448004E0
8.243824060E-1,2.494517565E-1,-6.671488762E0,-2.655734062E0
8.268571980E-1,4.363910258E-1,-6.786643028E0,-2.514557600E0
8.293319890E-1,5.321039557E-1,-6.927819729E0,-2.442473650E0
8.318067290E-1,6.975077987E-1,-7.042974472E0,-2.387438774E0
8.342899580E-1,7.908278704E-1,-7.121937275E0,-2.251047850E0
8.367647500E-1,8.844470978E-1,-7.193722248E0,-2.200499535E0
8.392395930E-1,9.777671695E-1,-7.292127132E0,-2.135893345E0
8.417143850E-1,1.087836981E0,-7.395018578E0,-1.922633052E0
8.441891770E-1,1.171884894E0,-7.495816231E0,-1.860419631E0
8.466639680E-1,1.150349498E0,-7.579565048E0,-1.750349760E0
8.491387600E-1,1.121635556E0,-7.656135082E0,-1.508375525E0
8.516135520E-1,1.109671474E0,-7.720741272E0,-1.297508121E0
8.540883960E-1,1.109671474E0,-7.776075363E0,-1.180259824E0
8.565631870E-1,1.011266708E0,-7.895716667E0,-9.598209858E-1
8.590379790E-1,9.346963167E-1,-8.005785942E0,-7.728816867E-1
8.615127710E-1,9.275178909E-1,-8.183154106E0,-6.002993584E-1
8.639946980E-1,9.035896659E-1,-8.348558426E0,-5.093721151E-1
8.664695410E-1,8.318049908E-1,-8.461020470E0,-3.367897868E-1
8.689443330E-1,7.525427341E-1,-8.612068176E0,-1.716850251E-1
8.714191250E-1,6.305087805E-1,-8.681459427E0,1.764706708E-2
8.738939160E-1,6.041877270E-1,-8.849256516E0,1.947159469E-1
8.763687080E-1,6.305087805E-1,-8.894720078E0,4.103690982E-1
8.788435000E-1,6.687939167E-1,-8.825029373E0,4.728815854E-1
8.813182910E-1,6.879364848E-1,-8.882756233E0,6.834499836E-1
8.837930830E-1,7.142575383E-1,-8.949754715E0,8.871390224E-1
8.862678750E-1,7.118647099E-1,-8.933005333E0,9.708877802E-1
8.887427180E-1,6.951149702E-1,-8.813064575E0,9.780662656E-1
8.912175100E-1,6.687939167E-1,-8.719744682E0,9.134600163E-1
8.936983430E-1,5.659025311E-1,-8.810671806E0,8.919246197E-1
8.961731870E-1,4.387838542E-1,-8.849256516E0,9.182456732E-1
8.986479790E-1,2.327020019E-1,-8.882756233E0,9.086744189E-1
9.011227710E-1,2.452643216E-2,-8.786744118E0,9.852447510E-1
9.035975620E-1,-6.430710852E-2,-8.681459427E0,1.016650558E0
9.060723540E-1,-2.294118702E-1,-8.576175690E0,1.023828983E0
9.085471460E-1,-2.991028428E-1,-8.394021988E0,1.078863859E0
9.110219370E-1,-3.397808075E-1,-8.315058708E0,1.086042404E0
9.134967810E-1,-3.613162339E-1,-8.221439362E0,1.198505044E0
9.159715730E-1,-3.397808075E-1,-8.027321815E0,1.306481123E0
9.184463640E-1,-4.761717021E-1,-7.888537884E0,1.267896891E0
9.209211560E-1,-6.415755749E-1,-7.744669437E0,1.026221752E0
9.234027710E-1,-6.726822853E-1,-7.536494255E0,7.986045480E-1
9.258776140E-1,-5.673980713E-1,-7.351947784E0,7.121638656E-1
9.283524060E-1,-5.096712112E-1,-7.253841877E0,7.770691514E-1
9.308271980E-1,-4.019941986E-1,-7.203293324E0,8.009973764E-1
9.333019890E-1,-2.461616248E-1,-7.193722248E0,8.679963946E-1
9.357767810E-1,-1.289133132E-1,-7.220043182E0,1.033400297E0
9.382515730E-1,-7.387840003E-2,-7.339983463E0,1.198505044E0
9.407263640E-1,6.999006122E-2,-7.325626373E0,1.337587833E0
9.432011560E-1,8.913264424E-2,-7.311269760E0,1.526620865E0
9.456760000E-1,-5.952146277E-2,-7.337590694E0,1.509871125E0
9.481507910E-1,-2.437688112E-1,-7.347161770E0,1.416550994E0
9.506255830E-1,-3.637090325E-1,-7.373483181E0,1.356730461E0
9.531072500E-1,-4.618147612E-1,-7.385447025E0,1.385444283E0
9.555820930E-1,-5.000999570E-1,-7.339983463E0,1.418943882E0
9.580568850E-1,-5.673980713E-1,-7.311269760E0,1.454836130E0
9.605316770E-1,-5.745765567E-1,-7.296912670E0,1.560419440E0
9.630064680E-1,-5.841478109E-1,-7.249056339E0,1.620239973E0
9.654812600E-1,-6.032904387E-1,-7.188936710E0,1.672882080E0
9.679560520E-1,-7.348956466E-1,-7.186543941E0,1.682453394E0
9.704308430E-1,-8.644071817E-1,-7.193722248E0,1.763809443E0
9.729056870E-1,-1.029511929E0,-7.191329479E0,1.761416554E0
9.753804790E-1,-1.230808139E0,-7.208079338E0,1.761416554E0
9.778552710E-1,-1.479960799E0,-7.176972389E0,1.749452472E0
9.803300100E-1,-1.621436477E0,-7.186543941E0,1.725524187E0
9.827982910E-1,-1.815255046E0,-7.186543941E0,1.684846282E0
9.852731350E-1,-1.942373753E0,-7.188936710E0,1.670489311E0
9.877479270E-1,-2.040479422E0,-7.200900555E0,1.598704576E0
9.902227180E-1,-2.184347868E0,-7.265805721E0,1.560419440E0
9.926975100E-1,-2.330310106E0,-7.380661488E0,1.488335729E0
9.951723540E-1,-2.531606436E0,-7.488338470E0,1.395015597E0
9.976471460E-1,-2.677568436E0,-7.629814148E0,1.308874011E0
1.000121885E0,-2.752045155E0,-7.684848785E0,1.224826097E0
1.002596729E0,-2.878864765E0,-7.802396297E0,1.162612677E0
1.005071521E0,-2.955734253E0,-7.857431412E0,1.205683470E0
1.007546312E0,-3.058625460E0,-7.898109436E0,1.215254784E0
1.010021104E0,-3.108874798E0,-7.941180229E0,1.205683470E0
1.012505375E0,-3.113660574E0,-7.948358536E0,1.234397411E0
1.014980218E0,-3.099303484E0,-7.900502205E0,1.354337573E0
1.017455010E0,-3.206980467E0,-7.934001446E0,1.426122308E0
1.019929802E0,-3.374777317E0,-8.077870369E0,1.526620865E0
1.022404593E0,-3.564109325E0,-8.154440880E0,1.646561027E0
1.024879385E0,-3.600001574E0,-8.116155624E0,1.811665893E0
1.027354177E0,-3.712464333E0,-8.099405289E0,1.986641049E0
1.029828968E0,-3.815654755E0,-8.061120033E0,2.070389748E0
1.032303812E0,-3.887439489E0,-7.929215908E0,2.250150681E0
1.034778604E0,-3.885046721E0,-7.756633759E0,2.410768747E0
1.037253396E0,-3.851547241E0,-7.605885983E0,2.667099953E0
1.039728187E0,-3.767798424E0,-7.342376232E0,2.803490877E0
1.042223083E0,-3.674179077E0,-7.148258686E0,2.928216696E0
1.044698448E0,-3.518645763E0,-6.934998035E0,2.988037348E0
1.047173812E0,-3.324527979E0,-6.714858532E0,3.095714331E0
1.049649177E0,-3.125624657E0,-6.559025764E0,3.237190008E0
1.052124593E0,-2.878864765E0,-6.415456772E0,3.399901867E0
1.054599958E0,-2.545963287E0,-6.317051888E0,3.627519131E0
1.057075375E0,-2.227418661E0,-6.183053493E0,3.850350618E0
1.059550739E0,-2.023729801E0,-6.113362789E0,4.180859566E0
1.062026104E0,-1.779362798E0,-6.032006741E0,4.542773724E0
1.064501468E0,-1.506281853E0,-6.055934906E0,4.928317547E0
1.066976885E0,-1.355534077E0,-6.058327675E0,5.311468124E0
1.069452250E0,-1.247557878E0,-6.101398468E0,5.692524910E0
1.071918812E0,-1.115952611E0,-6.175875187E0,6.082854271E0
1.074394177E0,-1.058225870E0,-6.278766632E0,6.535696030E0
1.076869593E0,-9.577272534E-1,-6.374479294E0,6.880561352E0
1.079344958E0,-8.835497499E-1,-6.547061920E0,7.216155052E0
1.081820323E0,-6.343970895E-1,-6.717251301E0,7.469794273E0
1.084295739E0,-5.697908998E-1,-6.923034191E0,7.623233795E0
1.086771104E0,-3.756731451E-1,-7.181757927E0,7.656733513E0
1.089246521E0,-2.389831543E-1,-7.505387306E0,7.661519051E0
1.091721885E0,2.691925503E-2,-7.831110477E0,7.661519051E0
1.094197250E0,4.698905349E-1,-8.214261055E0,7.647161961E0
1.096672614E0,8.437690735E-1,-8.662317276E0,7.433901787E0
1.099148031E0,1.128814101E0,-9.095717430E0,7.211070061E0
1.101635896E0,1.511964798E0,-9.467203140E0,6.875775814E0
1.104111260E0,1.806581140E0,-9.850353241E0,6.557231426E0
1.106586625E0,2.110768557E0,-1.016650486E1,6.286543369E0
1.109062041E0,2.345564365E0,-1.040369415E1,5.927320957E0
1.111537406E0,2.628216505E0,-1.053559780E1,5.615954876E0
1.114012823E0,2.865405083E0,-1.058824062E1,5.239683151E0
1.116488187E0,3.014059305E0,-1.052363396E1,4.727021217E0
1.118963552E0,3.018844843E0,-1.039172935E1,4.355834484E0
1.121438968E0,2.807977438E0,-1.016171932E1,3.991826296E0
1.123914333E0,2.532503605E0,-9.888638496E0,3.594019651E0
1.126389698E0,2.173281193E0,-9.548559189E0,3.464807272E0
1.128865062E0,1.820937991E0,-9.210871696E0,3.397509098E0
1.131340896E0,1.562214136E0,-8.808279037E0,3.304188967E0
1.133816260E0,1.356132269E0,-8.408378601E0,3.237190008E0
1.136291677E0,1.169492126E0,-8.001000404E0,3.124428272E0
1.138767041E0,1.037587762E0,-7.581957817E0,2.865704298E0
1.141242406E0,9.370891452E-1,-7.157829762E0,2.626122952E0
1.143717823E0,8.796614408E-1,-6.688537598E0,2.235793591E0
1.146193187E0,7.884350419E-1,-6.285944939E0,1.766202211E0
1.148668552E0,7.334001660E-1,-5.905187130E0,1.105184913E0
1.151143968E0,6.975077987E-1,-5.502594948E0,3.242274821E-1
1.153619333E0,6.975077987E-1,-5.167300701E0,-6.002993584E-1
1.156094698E0,6.185446382E-1,-4.846363068E0,-1.620838284E0
1.158570062E0,4.818546474E-1,-4.582853794E0,-2.734697104E0
1.161037666E0,3.382852972E-1,-4.293023109E0,-4.076173306E0
1.163513031E0,7.238288224E-2,-4.039084435E0,-5.089533806E0
1.165988448E0,-2.461616248E-1,-3.797110319E0,-5.892026424E0
1.168463812E0,-5.889334679E-1,-3.708276987E0,-6.560521603E0
1.170939177E0,-1.166201949E0,-3.926322937E0,-7.025028229E0
1.173414593E0,-1.853540182E0,-4.398307323E0,-7.437191963E0
1.175889958E0,-2.845365286E0,-5.184050083E0,-7.679165840E0
1.178365375E0,-4.122235298E0,-6.432206154E0,-7.652844906E0
1.180840739E0,-5.667400360E0,-8.178368568E0,-7.264609337E0
1.183316104E0,-7.219445229E0,-1.029362392E1,-6.646663189E0
1.185791521E0,-8.709575653E0,-1.274178028E1,-5.805884838E0
1.188266885E0,-9.991230965E0,-1.556830215E1,-4.871487617E0
1.190750166E0,-1.098036385E1,-1.858684731E1,-4.004388809E0
1.193225531E0,-1.147866917E1,-2.154766655E1,-3.396013498E0
1.195700896E0,-1.155045414E1,-2.405803680E1,-2.840280533E0
1.198176312E0,-1.133270741E1,-2.618286324E1,-2.025823355E0
1.200651677E0,-1.092293644E1,-2.768944359E1,-9.669994712E-1
1.203127093E0,-1.022572803E1,-2.832683182E1,-1.668993831E-1
1.205602458E0,-9.090332985E0,-2.828854752E1,7.241279483E-1
1.208077823E0,-7.653144360E0,-2.763440895E1,1.900499344E0
1.210553239E0,-5.995516300E0,-2.653969383E1,3.256332397E0
1.213028552E0,-3.920938969E0,-2.521975327E1,5.187041283E0
1.215503968E0,-1.448854089E0,-2.342573357E1,7.563413143E0
1.217979333E0,1.373181105E0,-2.139661980E1,1.010010433E1
1.220454125E0,3.227020502E0,-1.940130424E1,1.019850922E1
1.222929489E0,3.830909014E0,-1.752563095E1,9.230612755E0
1.225404854E0,3.850051641E0,-1.566670704E1,8.250751495E0
1.227880271E0,3.251247883E0,-1.391306686E1,7.060322285E0
1.230355635E0,2.395813704E0,-1.228654575E1,5.944070339E0
1.232831052E0,1.440180182E0,-1.081107140E1,5.076971531E0
1.235306416E0,5.368895531E-1,-9.426525116E0,4.607379913E0
1.237781781E0,-4.642075896E-1,-7.907680511E0,4.161716938E0
1.240257198E0,-1.491924882E0,-6.352943897E0,3.709174156E0
1.242732562E0,-2.505285263E0,-4.915754795E0,3.289832115E0
1.245207927E0,-3.396312714E0,-3.624528170E0,3.043072224E0
1.247683291E0,-4.229912281E0,-2.522633314E0,2.695813894E0
1.250159437E0,-4.905585289E0,-1.677069545E0,2.496910334E0
1.252634802E0,-5.446961880E0,-1.032802105E0,2.504088879E0
1.255110218E0,-5.777470112E0,-5.775675774E-1,2.427518606E0
1.257585583E0,-6.227919102E0,-3.068794906E-1,2.079961061E0
1.260060948E0,-6.704390049E0,-2.757728100E-1,1.392622828E0
1.262536364E0,-7.059125900E0,-4.504488707E-1,4.558327198E-1
1.265011729E0,-7.372884750E0,-7.525427341E-1,-5.931209326E-1
1.267487093E0,-7.643572807E0,-1.032802105E0,-1.570588946E0
1.269962458E0,-7.818548203E0,-1.346560955E0,-2.717947483E0
1.272437823E0,-7.990831375E0,-1.655534148E0,-3.728914976E0
1.274913239E0,-7.988438606E0,-1.966900229E0,-4.780560493E0
1.277388604E0,-7.784749508E0,-2.434098721E0,-5.836991787E0
1.279863656E0,-7.478168964E0,-2.918047190E0,-6.766304016E0
1.282339021E0,-7.202695370E0,-3.567100286E0,-7.549654484E0
1.284814437E0,-6.989434719E0,-4.235296249E0,-8.203792572E0
1.287289802E0,-6.735795975E0,-5.073980331E0,-8.531908035E0
1.289765166E0,-6.534499645E0,-5.972186089E0,-8.694620132E0
1.292240583E0,-6.448058605E0,-6.851249218E0,-8.716454506E0
1.294715948E0,-6.299703598E0,-7.838288784E0,-8.687441826E0
1.297191312E0,-5.839683533E0,-9.045467377E0,-8.517551422E0
1.299666729E0,-5.224130154E0,-1.032951641E1,-8.162815094E0
1.302142093E0,-4.632504463E0,-1.167099285E1,-7.755736351E0
1.304617458E0,-3.906582117E0,-1.288295746E1,-7.307680130E0
1.307092823E0,-2.883650303E0,-1.398036575E1,-6.783053875E0
1.309566625E0,-1.834397674E0,-1.490728474E1,-6.186643124E0
1.312041989E0,-7.325028181E-1,-1.562842178E1,-5.400899887E0
1.314517406E0,4.172484577E-1,-1.616740608E1,-4.579264164E0
1.316992771E0,1.605284929E0,-1.658644867E1,-3.688236952E0
1.319468135E0,2.999702215E0,-1.689302826E1,-2.631805897E0
1.321943552E0,4.575675011E0,-1.695793343E1,-1.491625786E0
1.324418864E0,6.142375946E0,-1.691695786E1,-3.729812205E-1
1.326894281E0,7.594220638E0,-1.657448387E1,6.667001843E-1
1.329369698E0,8.688937187E0,-1.591107464E1,1.464407444E0
1.331845062E0,9.426525116E0,-1.503410435E1,2.118545294E0
1.334320427E0,9.798010826E0,-1.411197090E1,2.700599432E0
1.336795791E0,9.726225853E0,-1.315364552E1,3.076571703E0
1.339271364E0,8.945268631E0,-1.219322586E1,3.344866991E0
1.341746729E0,7.979764462E0,-1.140509033E1,3.488735437E0
1.344222146E0,7.388139248E0,-1.078714371E1,3.503092289E0
1.346697510E0,6.906583309E0,-1.021466064E1,3.378366470E0
1.349172875E0,6.331707954E0,-9.692427635E0,3.067000389E0
1.351648291E0,5.785545826E0,-9.263513565E0,2.645564556E0
1.354123656E0,5.143671513E0,-8.944969177E0,2.077568293E0
1.356599021E0,4.417748928E0,-8.741280556E0,1.433300734E0
1.359074437E0,3.584149122E0,-8.583353996E0,8.679963946E-1
1.361549802E0,2.635395050E0,-8.499305725E0,4.007977843E-1
1.364025166E0,1.768295884E0,-8.456234932E0,-1.495514181E-3
1.366500531E0,9.083753228E-1,-8.420342445E0,-3.993022740E-1
1.368975375E0,1.633101404E-1,-8.382058144E0,-6.652047038E-1
1.371450739E0,-3.972085714E-1,-8.391629219E0,-8.111668825E-1
1.373926156E0,-8.979067206E-1,-8.391629219E0,-8.733802438E-1
1.376401521E0,-1.444068432E0,-8.353343964E0,-9.358927608E-1
1.378876833E0,-1.899302959E0,-8.231010437E0,-9.550353289E-1
1.381352250E0,-2.469393015E0,-8.180761337E0,-1.141675472E0
1.383827666E0,-3.015554667E0,-8.310273170E0,-1.494018674E0
1.386303031E0,-3.724428415E0,-8.480163574E0,-1.865205288E0
1.388778448E0,-4.205984116E0,-8.588139534E0,-2.181356907E0
1.391253812E0,-4.543671131E0,-8.532805443E0,-2.267797709E0
1.393729177E0,-4.462315083E0,-8.269295692E0,-2.298904419E0
1.396204541E0,-4.941477776E0,-8.152048111E0,-2.284547329E0
1.398680375E0,-5.597709656E0,-8.240582466E0,-2.270190477E0
1.401155739E0,-6.100800514E0,-8.140083313E0,-2.375474691E0
1.403631156E0,-6.654140472E0,-8.034799576E0,-2.478366137E0
1.406106521E0,-7.183552742E0,-7.881359577E0,-2.341975212E0
1.408581885E0,-7.499704361E0,-7.739883900E0,-2.277369022E0
1.411057302E0,-7.724928856E0,-7.562815189E0,-2.107179403E0
1.413532666E0,-7.791927814E0,-7.426125050E0,-1.956132531E0
1.416008031E0,-7.662715435E0,-7.392625332E0,-1.618445396E0
1.418483448E0,-7.332206726E0,-7.378268719E0,-1.175474167E0
1.420958812E0,-6.941578388E0,-7.359126091E0,-6.293123364E-1
1.423434177E0,-6.594320297E0,-7.473981380E0,-8.554340899E-2
1.425909541E0,-6.299703598E0,-7.656135082E0,4.223332107E-1
1.428383864E0,-5.877968788E0,-7.831110477E0,7.986045480E-1
1.430859229E0,-5.362913609E0,-8.070692062E0,9.541380405E-1
1.433334593E0,-4.838287354E0,-8.228617668E0,1.093220830E0
1.435809958E0,-4.284946918E0,-8.439485550E0,1.208076358E0
1.438285323E0,-3.664607763E0,-8.679066658E0,1.136291623E0
1.440760791E0,-3.072982550E0,-8.901898384E0,1.066899776E0
1.443236156E0,-2.548356056E0,-9.102895737E0,9.972088337E-1
1.445711521E0,-2.054836512E0,-9.285049438E0,1.001994491E0
1.448186937E0,-1.601994753E0,-9.512666702E0,9.637092948E-1
1.450662302E0,-1.115952611E0,-9.627521515E0,9.541380405E-1
1.453137666E0,-6.463612318E-1,-9.706784248E0,9.972088337E-1
1.455613031E0,-2.246262282E-1,-9.852746010E0,9.661021233E-1
1.458089958E0,1.034895778E-1,-9.752247810E0,8.632107973E-1
1.460565323E0,2.566302419E-1,-9.543772697E0,6.284150481E-1
1.463040739E0,5.946164131E-1,-9.663713455E0,6.834499836E-1
1.465516104E0,9.897312522E-1,-9.658927917E0,8.009973764E-1
1.467991468E0,1.272383451E0,-9.531808853E0,7.336992621E-1
1.470466885E0,1.471286774E0,-9.407382011E0,5.662016869E-1
1.472942250E0,1.756331801E0,-9.246764183E0,4.390829504E-1
1.475417614E0,1.904985905E0,-9.189335823E0,3.074777126E-1
1.477893031E0,2.003091574E0,-9.146265030E0,1.779661775E-1
1.480368396E0,2.120339870E0,-9.105288506E0,1.205384433E-1
1.482843760E0,2.156232357E0,-9.023932457E0,3.678964823E-2
1.485319125E0,2.182852507E0,-8.947361946E0,2.961117961E-2
1.487769385E0,2.146661043E0,-8.889934540E0,-2.781656384E-2
1.490244750E0,2.096411705E0,-8.777172089E0,-8.315058798E-2
1.492720114E0,1.919342875E0,-8.762815475E0,-9.032905847E-2
1.495195531E0,1.730010748E0,-8.693424225E0,-1.022931710E-1
1.497670948E0,1.519143224E0,-8.647959709E0,-8.554340899E-2
1.500146312E0,1.258026481E0,-8.588139534E0,8.973084623E-4
1.502621677E0,1.073480010E0,-8.556734085E0,9.182456881E-2
1.505097093E0,8.246265054E-1,-8.559126854E0,8.464609832E-2
1.507572458E0,5.416752100E-1,-8.563912392E0,1.348953694E-1
1.510047823E0,1.704886109E-1,-8.563912392E0,2.213360965E-1
1.512523239E0,-1.169492081E-1,-8.549555779E0,1.998006850E-1
1.514998604E0,-3.900300860E-1,-8.513663292E0,2.165504545E-1
1.517499073E0,-7.085745931E-1,-8.477770805E0,1.755733639E-1
1.519974437E0,-9.194421172E-1,-8.427521706E0,7.028916478E-2
1.522449854E0,-1.147059321E0,-8.410771370E0,4.396811500E-2
1.524925218E0,-1.338784218E0,-8.437092781E0,1.109671518E-1
1.527400583E0,-1.527817249E0,-8.449056625E0,5.593222752E-2
1.529876000E0,-1.686042666E0,-8.386843681E0,-5.892325938E-2
1.532351364E0,-1.827219248E0,-8.312665939E0,-1.357926875E-1
1.534826729E0,-1.872682810E0,-8.303094864E0,-2.506481707E-1
1.537302146E0,-1.899302959E0,-8.228617668E0,-2.458625287E-1
1.539777510E0,-1.901695848E0,-8.192725182E0,-2.578266263E-1
1.542252875E0,-1.908874273E0,-8.197511673E0,-3.897309899E-1
1.544728239E0,-1.947159410E0,-8.137690544E0,-4.232304990E-1
1.547178656E0,-1.942373753E0,-8.113762856E0,-3.610171080E-1
1.549654073E0,-1.904088616E0,-8.065905571E0,-2.554338276E-1
1.552129489E0,-1.877767563E0,-7.979465485E0,-1.788634956E-1
1.554604854E0,-2.030908108E0,-7.785646915E0,-1.405783296E-1
1.557080218E0,-1.944766641E0,-7.852645874E0,-1.142572835E-1
1.559555635E0,-1.788933992E0,-7.898109436E0,3.918246925E-2
1.562031000E0,-1.690828323E0,-7.929215908E0,1.157527938E-1
1.564506364E0,-1.537388563E0,-7.972286701E0,2.380858511E-1
1.566981781E0,-1.412961721E0,-8.003393173E0,2.979064286E-1
1.569457146E0,-1.290628672E0,-8.022536278E0,4.007977843E-1
1.571932510E0,-1.187737346E0,-8.070692062E0,5.039882660E-1
1.574407875E0,-1.082453132E0,-8.161619186E0,5.638088584E-1
1.576908448E0,-9.816554785E-1,-8.197511673E0,5.566303730E-1
1.579383812E0,-8.452646136E-1,-8.281260490E0,5.279164910E-1
1.581859229E0,-7.181459069E-1,-8.379665375E0,4.992026389E-1
1.584334593E0,-6.535396576E-1,-8.444271088E0,5.398806334E-1
1.586809958E0,-5.697908998E-1,-8.544769287E0,5.518447161E-1
1.589285375E0,-4.498506486E-1,-8.635995865E0,5.422734022E-1
1.591760739E0,-3.613162339E-1,-8.726922989E0,4.800600410E-1
1.594236104E0,-2.703889608E-1,-8.779565811E0,4.776672125E-1
1.596711521E0,-2.006980032E-1,-8.877969742E0,4.677968323E-1
1.599186833E0,-1.552343667E-1,-8.940183640E0,3.984049559E-1
1.601662250E0,-1.265204996E-1,-8.976076126E0,3.481557071E-1
1.604137614E0,-1.073779166E-1,-9.033503532E0,3.074777126E-1
1.606613291E0,-5.473581702E-2,-9.038289070E0,3.218346536E-1
1.609088656E0,-4.277170449E-2,-9.038289070E0,2.763710022E-1
1.611564021E0,-6.879365072E-3,-9.117551804E0,2.596212626E-1
1.614039437E0,2.213360928E-2,-9.100502968E0,2.309073806E-1
1.616514802E0,1.495514158E-2,-9.009575844E0,2.093719840E-1
1.618990218E0,2.691925503E-3,-8.983254433E0,1.827518344E-1
1.621465583E0,-9.272187948E-3,-8.976076126E0,1.492523104E-1
1.623940948E0,-3.320041299E-2,-8.892327309E0,7.746763527E-2
1.626416364E0,-9.541380405E-2,-8.805886269E0,-8.673981763E-3
1.628891729E0,-7.387840003E-2,-8.781958580E0,-5.413761362E-2
1.631367093E0,-7.627122104E-2,-8.779565811E0,-9.511470050E-2
1.633842458E0,-1.313061416E-1,-8.793922424E0,-1.166501045E-1
1.636318343E0,-1.073779166E-1,-8.726922989E0,-1.286142170E-1
1.638793708E0,-1.193420291E-1,-8.731708527E0,-2.219343036E-1
1.641269125E0,-1.049850956E-1,-8.779565811E0,-2.123630047E-1
1.643744489E0,-1.360917836E-1,-8.827422142E0,-1.381855011E-1
1.646219854E0,-1.289133132E-1,-8.870791435E0,-1.621137410E-1
1.648695271E0,-1.001994461E-1,-8.913862228E0,-1.812563092E-1
1.651170635E0,-7.627122104E-2,-8.959325790E0,-1.621137410E-1
1.653646000E0,-1.073779166E-1,-9.007183075E0,-2.051845491E-1
1.656121364E0,-1.313061416E-1,-9.019146919E0,-1.956132501E-1
1.658596781E0,-1.145563871E-1,-9.038289070E0,-1.429711580E-1
1.661072146E0,-1.839482337E-1,-9.182157516E0,-2.171486616E-1
1.663547510E0,-2.054836452E-1,-9.196515083E0,-2.051845491E-1
1.666023187E0,-2.751746178E-1,-9.210871696E0,-2.291127741E-1
1.668498552E0,-4.067798555E-1,-9.230013847E0,-2.003988922E-1
1.670973968E0,-5.144568682E-1,-9.237193108E0,-1.046859920E-1
1.673449333E0,-6.726822853E-1,-9.213264465E0,-2.542374097E-2
1.675924698E0,-7.827520967E-1,-9.076574326E0,7.746763527E-2
1.678400114E0,-9.577272534E-1,-8.949754715E0,2.309073806E-1
1.680875479E0,-1.156630635E0,-8.906683922E0,2.835494876E-1
1.683350843E0,-1.348355532E0,-8.827422142E0,4.175475538E-1
1.685826208E0,-1.494317770E0,-8.796315193E0,5.015954375E-1
1.688301625E0,-1.585245013E0,-8.796315193E0,6.044868231E-1
1.690776989E0,-1.717149377E0,-8.767601013E0,8.177471161E-1
1.693252354E0,-1.846361756E0,-8.805886269E0,9.373882413E-1
1.695728239E0,-1.942373753E0,-8.849256516E0,1.117149115E0
1.698203604E0,-1.999801517E0,-8.918647766E0,1.243968725E0
1.700679021E0,-2.088335991E0,-9.052646637E0,1.323230863E0
1.703154385E0,-2.145763636E0,-9.167800903E0,1.347159147E0
1.705629750E0,-2.184347868E0,-9.313762665E0,1.359123230E0
1.708105114E0,-2.174776793E0,-9.495916367E0,1.332802176E0
1.710580531E0,-2.179562330E0,-9.634700775E0,1.179362416E0
1.713055843E0,-2.167598248E0,-9.821640015E0,1.145862937E0
1.715531312E0,-2.093121529E0,-9.984650612E0,1.057328463E0
1.718006677E0,-2.038086653E0,-1.008754253E1,1.028614640E0
1.720482041E0,-1.992623091E0,-1.023619652E1,8.440681696E-1
1.722957406E0,-1.959123492E0,-1.036780167E1,7.459624410E-1
1.725432562E0,-1.899302959E0,-1.039412212E1,6.547361016E-1
1.727907927E0,-1.820040703E0,-1.044915771E1,6.044868231E-1
1.730383343E0,-1.772184253E0,-1.047099209E1,5.470590591E-1
1.732858708E0,-1.724327803E0,-1.048056316E1,5.446662307E-1
1.735334073E0,-1.621436477E0,-1.039412212E1,4.992026389E-1
1.737809489E0,-1.465603828E0,-1.032233810E1,5.015954375E-1
1.740284854E0,-1.300199986E0,-1.026012421E1,6.260222197E-1
1.742760218E0,-1.214058399E0,-1.014257717E1,6.906284094E-1
1.745235635E0,-1.082453132E0,-1.010189915E1,8.153542876E-1
1.747711000E0,-9.194421172E-1,-1.010907745E1,9.469595551E-1
1.750186364E0,-6.894320250E-1,-1.006600666E1,1.133898854E0
1.752661729E0,-5.264210105E-1,-1.009711361E1,1.387837172E0
1.755137875E0,-3.613162339E-1,-1.017129040E1,1.605883121E0
1.757613239E0,-2.584248483E-1,-1.026012421E1,1.922034740E0
1.760088656E0,-9.780662507E-2,-1.037737274E1,2.226222277E0
1.762564021E0,2.991028305E-4,-1.044197845E1,2.551945448E0
1.765039333E0,9.152546525E-2,-1.054995537E1,3.007179976E0
1.767514750E0,1.489532143E-1,-1.065045357E1,3.433401346E0
1.769990166E0,2.662015259E-1,-1.081825066E1,3.943670750E0
1.772465531E0,3.358924687E-1,-1.110808086E1,4.475475788E0
1.774940948E0,4.028915167E-1,-1.142901802E1,5.076971531E0
1.777416312E0,4.722833633E-1,-1.187707424E1,5.601597786E0
1.779891677E0,4.914259613E-1,-1.236102295E1,6.193223000E0
1.782367041E0,4.962115884E-1,-1.294546986E1,6.870990276E0
1.784843552E0,5.826523304E-1,-1.357538033E1,7.537092209E0
1.787318916E0,7.692924738E-1,-1.417896938E1,8.083253860E0
1.789794281E0,9.610173702E-1,-1.478525066E1,8.631808281E0
1.792269698E0,1.174277663E0,-1.530479240E1,9.000602722E0
1.794745062E0,1.418644667E0,-1.571695614E1,9.142078400E0
1.797220479E0,1.761117458E0,-1.614347649E1,9.043673515E0
1.799695843E0,2.091626167E0,-1.649552155E1,8.794520378E0
1.802171208E0,2.347957134E0,-1.670878220E1,8.408976555E0
1.804646625E0,2.525325298E0,-1.684277916E1,7.767102242E0
1.807121989E0,2.640180588E0,-1.684277916E1,7.093822002E0
1.809597354E0,2.680858612E0,-1.672792435E1,6.365506649E0
1.812072718E0,2.745764017E0,-1.656012726E1,5.673382282E0
1.814547354E0,2.611466885E0,-1.622722626E1,4.935495853E0
1.817022718E0,2.331207514E0,-1.589671707E1,4.233501434E0
1.819498083E0,1.883151412E0,-1.552523136E1,3.709174156E0
1.821973500E0,1.224527001E0,-1.521386528E1,3.258725405E0
1.824448864E0,4.914259613E-1,-1.494078445E1,2.928216696E0
1.826924281E0,-2.437688112E-1,-1.463181114E1,2.681456804E0
1.829399646E0,-1.084846020E0,-1.433001614E1,2.554338217E0
1.831875010E0,-1.999801517E0,-1.389392471E1,2.425125837E0
1.834350427E0,-2.977269650E0,-1.343420410E1,2.331506491E0
1.836825791E0,-3.937688828E0,-1.298136234E1,2.405983210E0
1.839301156E0,-4.848157883E0,-1.262213898E1,2.683849812E0
1.841776521E0,-5.635994434E0,-1.231047440E1,2.959323406E0
1.844251625E0,-6.249454498E0,-1.211426258E1,2.956930637E0
1.846726989E0,-6.740581512E0,-1.204217911E1,2.841775894E0
1.849202406E0,-7.099803925E0,-1.197996521E1,2.583052158E0
1.851677771E0,-7.593323708E0,-1.193450165E1,2.195115566E0
1.854153135E0,-8.031509399E0,-1.199671555E1,1.639382601E0
1.856628552E0,-8.548956871E0,-1.202542973E1,1.001994491E0
1.859103916E0,-9.068798065E0,-1.211665535E1,4.175475538E-1
1.861579281E0,-9.516854286E0,-1.229372501E1,-9.272187948E-2
1.864054698E0,-9.804291725E0,-1.247109222E1,-4.591228366E-1
1.866530062E0,-9.967003822E0,-1.277767277E1,-5.596213937E-1
1.869005427E0,-9.895218849E0,-1.310339546E1,-6.074778438E-1
1.871480791E0,-9.602995872E0,-1.337887001E1,-4.016951025E-1
1.873936521E0,-9.308379173E0,-1.369262886E1,-4.695914313E-2
1.876411937E0,-8.891729355E0,-1.399950790E1,3.816552162E-1
1.878887354E0,-8.369495392E0,-1.412632751E1,9.637092948E-1
1.881362718E0,-7.736892700E0,-1.414786339E1,1.536192179E0
1.883838083E0,-6.905686378E0,-1.404736423E1,1.996212244E0
1.886313500E0,-5.988337994E0,-1.377428341E1,2.417947292E0
1.888788864E0,-5.118845940E0,-1.340040493E1,2.736491680E0
1.891264229E0,-4.502993107E0,-1.302443314E1,3.105285645E0
1.893739646E0,-3.853940010E0,-1.262931824E1,3.256332397E0
1.896215010E0,-3.243171930E0,-1.228893852E1,3.136392355E0
1.898690375E0,-2.965305567E0,-1.189861012E1,3.157927752E0
1.901165739E0,-2.615355253E0,-1.162074280E1,2.901895761E0
1.903661312E0,-2.272882462E0,-1.127348518E1,2.628814697E0
1.906136677E0,-2.002194405E0,-1.094746304E1,2.487339020E0
1.908612093E0,-1.676471353E0,-1.069591713E1,2.377269268E0
1.911087458E0,-1.400997639E0,-1.041326523E1,2.211865425E0
1.913562823E0,-1.127916813E0,-9.991828918E0,2.041675806E0
1.916038239E0,-7.923234105E-1,-9.749855042E0,1.843071699E0
1.918513604E0,-5.072783828E-1,-9.438488960E0,1.505085468E0
1.920988968E0,-2.126621157E-1,-9.127122879E0,1.169791222E0
1.923464385E0,5.563312769E-2,-8.822636604E0,8.823533654E-1
1.925939750E0,4.244269133E-1,-8.528019905E0,5.662016869E-1
1.928415114E0,7.501499057E-1,-8.252546310E0,3.409772217E-1
1.930890479E0,1.071087241E0,-8.075477600E0,1.803590059E-1
1.933365948E0,1.401894927E0,-7.972286701E0,3.200400248E-2
1.935841312E0,1.849651933E0,-7.981858253E0,3.200400248E-2
1.938316729E0,2.235494614E0,-8.041977882E0,1.348953694E-1
1.940792093E0,2.594717026E0,-8.152048111E0,2.189432681E-1
1.943267458E0,2.901297569E0,-8.233403206E0,2.045863420E-1
1.945742875E0,3.047558784E0,-8.228617668E0,2.691925466E-1
1.948218239E0,3.258426189E0,-8.245368004E0,3.696911037E-1
1.950693604E0,3.313461065E0,-8.305487633E0,4.872384965E-1
1.953169021E0,3.217449188E0,-8.317451477E0,6.547361016E-1
1.955644385E0,3.069094181E0,-8.348558426E0,9.780662656E-1
1.958119750E0,2.965903759E0,-8.374878883E0,1.236790180E0
1.960595114E0,2.673680305E0,-8.432307243E0,1.390229940E0
1.963071833E0,2.252244234E0,-8.539983749E0,1.651346684E0
1.965547198E0,1.734796405E0,-8.669495583E0,1.692024708E0
1.968022614E0,1.107278705E0,-8.827422142E0,1.646561027E0
1.970497979E0,5.539384484E-1,-8.937790871E0,1.615454435E0
1.972973343E0,-2.727817893E-1,-9.093324661E0,1.833500385E0
1.975448760E0,-1.000798106E0,-9.201300621E0,2.034497499E0
1.977924125E0,-1.575673699E0,-9.311369896E0,2.111366987E0
1.980399489E0,-2.277667999E0,-9.352047920E0,2.044068813E0
1.982874854E0,-3.072982550E0,-9.356833458E0,1.991426587E0
1.985350271E0,-3.858725548E0,-9.373583794E0,1.912463546E0
1.987825635E0,-4.507778645E0,-9.239585876E0,1.831107497E0
1.990301000E0,-4.936692238E0,-9.043074608E0,1.732702732E0
1.992776729E0,-5.224130154E0,-8.743673325E0,1.751845241E0
1.995252093E0,-5.370092392E0,-8.456234932E0,1.955534339E0
1.997727510E0,-5.413462162E0,-8.130512238E0,2.099402666E0
2.000202875E0,-5.523531914E0,-7.900502205E0,2.281257391E0
2.002678239E0,-5.679364681E0,-7.682456017E0,2.307578325E0
2.005153656E0,-5.679364681E0,-7.490731239E0,2.063211441E0
2.007629021E0,-5.691328526E0,-7.277770042E0,1.888535261E0
2.010104385E0,-5.643173218E0,-6.942176819E0,1.835893154E0
2.012579750E0,-5.446961880E0,-6.669095993E0,1.660917997E0
2.015055166E0,-5.111368179E0,-6.417849541E0,1.524227977E0
2.017530531E0,-4.756931305E0,-6.166304111E0,1.414158225E0
2.020005896E0,-4.474279404E0,-5.888437271E0,1.373480201E0
2.022481312E0,-4.158127785E0,-5.615356445E0,1.179362416E0
2.024956677E0,-3.753142357E0,-5.404489040E0,1.006780148E0
2.027432093E0,-3.391526937E0,-5.246263504E0,8.751748800E-1
2.029907458E0,-3.080160856E0,-5.097908497E0,8.560323119E-1
2.032382823E0,-2.761616468E0,-4.939683437E0,8.656035662E-1
2.034858239E0,-2.426322222E0,-4.810471058E0,8.991031051E-1
2.037333552E0,-2.181955099E0,-4.786243439E0,8.536394835E-1
2.039808916E0,-1.916052699E0,-4.764708042E0,7.794619799E-1
2.042284333E0,-1.705185294E0,-4.743172646E0,7.986045480E-1
2.044759750E0,-1.635793328E0,-4.822434902E0,8.512466550E-1
2.047235114E0,-1.674078584E0,-4.894219398E0,7.674978375E-1
2.049710479E0,-1.619043589E0,-4.855934620E0,6.116653085E-1
2.052186156E0,-1.554138303E0,-4.829613209E0,3.601198196E-1
2.054661573E0,-1.494317770E0,-4.803292274E0,1.013958603E-1
2.057136937E0,-1.511067510E0,-4.855934620E0,-1.357926875E-1
2.059612354E0,-1.578066587E0,-4.887041092E0,-2.147558331E-1
2.062087718E0,-1.698006749E0,-4.894219398E0,-3.634099364E-1
2.064563135E0,-1.923231244E0,-4.963611603E0,-4.399802685E-1
2.067038552E0,-2.054836512E0,-5.016253471E0,-4.615156651E-1
2.069513916E0,-2.239382982E0,-5.088337421E0,-5.691927075E-1
2.071989333E0,-2.368595362E0,-5.095515728E0,-6.074778438E-1
2.074464698E0,-2.543570518E0,-5.152943611E0,-6.532405615E-1
2.076940114E0,-2.790330410E0,-5.239085197E0,-7.513462901E-1
2.079415531E0,-2.917150021E0,-5.272584915E0,-7.968099117E-1
2.081891260E0,-3.128017426E0,-5.457130909E0,-7.537391186E-1
2.084366677E0,-3.341277838E0,-5.516951561E0,-7.345965505E-1
2.086842041E0,-3.346063375E0,-5.809175014E0,-6.747759581E-1
2.089317458E0,-3.463311672E0,-5.919544220E0,-5.524429083E-1
2.091792875E0,-3.674179077E0,-5.941079617E0,-5.452644825E-1
2.094268291E0,-3.794119358E0,-6.020042896E0,-4.040879309E-1
2.096743708E0,-3.906582117E0,-6.048756599E0,-2.650051117E-1
2.099219073E0,-4.083950043E0,-5.991328716E0,-4.217349738E-2
2.101694489E0,-4.129413605E0,-5.988935947E0,1.755733639E-1
2.104169854E0,-4.196412563E0,-6.022435665E0,4.920241535E-1
2.106645271E0,-4.287340164E0,-6.034399509E0,8.560323119E-1
2.109120635E0,-4.306781769E0,-5.895616055E0,1.021436214E0
2.111581156E0,-4.299304008E0,-5.871388435E0,1.344766378E0
2.114056573E0,-4.299304008E0,-5.828317642E0,1.648953915E0
2.116531937E0,-4.208376884E0,-5.763711452E0,1.957927108E0
2.119007354E0,-4.127020836E0,-5.780461311E0,2.084746838E0
2.121482718E0,-4.067200184E0,-5.730212212E0,2.173580170E0
2.123958135E0,-3.911367655E0,-5.687141418E0,2.209472656E0
2.126433552E0,-3.975973845E0,-5.608178139E0,2.087438583E0
2.128908916E0,-3.942474365E0,-5.461916924E0,1.929213285E0
2.131384333E0,-3.743571043E0,-5.270191669E0,1.969891191E0
2.133859698E0,-3.580859184E0,-5.069194794E0,2.005783558E0
2.136335114E0,-3.458526134E0,-4.937290192E0,2.106581211E0
2.138810531E0,-3.432204962E0,-4.788636208E0,2.183151484E0
2.141289698E0,-3.470490217E0,-4.649852753E0,2.154437780E0
2.143765114E0,-3.487239838E0,-4.594817638E0,2.140080690E0
2.146240479E0,-3.482454300E0,-4.470091820E0,2.094617128E0
2.148715896E0,-3.585644722E0,-4.240081787E0,2.008176327E0
2.151191312E0,-3.733999729E0,-4.077369690E0,1.936391711E0
2.153666677E0,-3.822833300E0,-3.878466368E0,1.910070658E0
2.156142093E0,-3.964009762E0,-3.727718592E0,1.996212244E0
2.158617458E0,-4.086342812E0,-3.677170277E0,2.135295153E0
2.161092875E0,-4.079164505E0,-3.730111361E0,2.180758715E0
2.163568239E0,-4.074378967E0,-3.825824261E0,2.309971094E0
2.166043656E0,-3.971188307E0,-4.077369690E0,2.489732027E0
2.168519021E0,-3.841975927E0,-4.431806564E0,2.736491680E0
2.170993812E0,-3.750749588E0,-4.836791992E0,3.045464993E0
2.173469229E0,-3.650250912E0,-5.219942570E0,3.507878065E0
2.175944593E0,-3.489632607E0,-5.610570908E0,4.008575916E0
2.178420010E0,-3.319742203E0,-6.048756599E0,4.518845558E0
2.180895375E0,-3.089732170E0,-6.398407936E0,5.007280350E0
2.183370791E0,-2.847758055E0,-6.765107632E0,5.378766060E0
2.185846208E0,-2.591426849E0,-7.107580662E0,5.745167255E0
2.188321573E0,-2.339881420E0,-7.409375191E0,5.984748363E0
2.190796989E0,-2.002194405E0,-7.718348503E0,6.286543369E0
2.193272354E0,-1.444068432E0,-8.082655907E0,6.569195271E0
2.195747771E0,-9.912267923E-1,-8.293224335E0,6.782455921E0
2.198223187E0,-7.181459069E-1,-8.523234367E0,7.060322285E0
2.200672927E0,-2.485544533E-1,-8.698209763E0,7.436294556E0
2.203148291E0,4.531407952E-1,-8.911469460E0,7.932207108E0
2.205623708E0,1.018445134E0,-9.076574326E0,8.600702286E0
2.208099073E0,1.595713615E0,-9.151051521E0,9.304789543E0
2.210574489E0,2.357528448E0,-9.385847092E0,9.951749802E0
2.213049906E0,3.049951553E0,-9.596415520E0,1.068455124E1
2.215525271E0,3.821337700E0,-9.924830437E0,1.149661541E1
2.218000687E0,4.412963390E0,-1.025055313E1,1.221535969E1
2.220476052E0,5.026124001E0,-1.063848972E1,1.296760368E1
2.222951468E0,5.723332882E0,-1.133091259E1,1.370309734E1
2.225426833E0,6.436992168E0,-1.213340569E1,1.442393494E1
2.227902250E0,7.340282440E0,-1.304118252E1,1.522882080E1
2.230415635E0,7.915158272E0,-1.399711514E1,1.609592056E1
2.232891052E0,8.542675972E0,-1.502931881E1,1.707099533E1
2.235366416E0,8.873184204E0,-1.596610928E1,1.815374756E1
2.237841833E0,8.952446938E0,-1.686192131E1,1.921017838E1
2.240317198E0,8.866005898E0,-1.765723610E1,2.023550224E1
2.242792614E0,8.842078209E0,-1.836880302E1,2.048465538E1
2.245268031E0,8.930911064E0,-1.908246231E1,1.965344810E1
2.247743448E0,8.751151085E0,-1.991396713E1,1.738475418E1
2.250218812E0,8.178668022E0,-2.078585243E1,1.398814201E1
2.252694229E0,7.357032299E0,-2.163380814E1,9.681061745E0
2.255169593E0,5.723332882E0,-2.247698021E1,5.172684193E0
2.257645010E0,3.260818958E0,-2.319093704E1,1.406979680E0
2.260075896E0,1.609173268E-1,-2.366980171E1,-9.669994712E-1
2.262551312E0,-2.907578707E0,-2.369402885E1,-2.389831543E0
2.265026677E0,-4.919942379E0,-2.307339096E1,-3.860819340E0
2.267502041E0,-5.779862881E0,-2.188774681E1,-5.307579517E0
2.269977458E0,-5.834897995E0,-2.004557228E1,-7.094718933E0
2.272452823E0,-5.336592674E0,-1.771227074E1,-9.607481956E0
2.274928239E0,-4.850550652E0,-1.528325748E1,-1.220160103E1
2.277403656E0,-4.498207569E0,-1.289043427E1,-1.391934872E1
2.279879021E0,-4.431208611E0,-1.066481018E1,-1.450140285E1
2.282354437E0,-4.749752998E0,-8.607281685E0,-1.382094383E1
2.284829802E0,-5.214558601E0,-6.714858532E0,-1.224975681E1
2.287305218E0,-5.765506268E0,-5.375775337E0,-9.789635658E0
2.289825323E0,-6.285346985E0,-4.479662895E0,-6.914958477E0
2.292300739E0,-6.850651264E0,-3.830610037E0,-3.798306942E0
2.294776104E0,-7.590930939E0,-3.545564890E0,-4.184448719E-1
2.297251521E0,-8.458029747E0,-3.478565931E0,3.122035265E0
2.299726885E0,-9.646066666E0,-3.617349625E0,6.495018005E0
2.302202302E0,-1.106680489E1,-3.773182154E0,9.139685631E0
2.304677718E0,-1.264277744E1,-3.734897137E0,1.044018459E1
2.307153083E0,-1.396750355E1,-3.552743435E0,1.023200893E1
2.309628500E0,-1.486122322E1,-3.205485106E0,8.634201050E0
2.312103864E0,-1.525155258E1,-2.843570709E0,5.807380676E0
2.314579333E0,-1.506700611E1,-2.465205431E0,2.338685036E0
2.317054698E0,-1.442513084E1,-2.115554333E0,-1.189831018E0
2.319530843E0,-1.350299740E1,-1.775175333E0,-4.445266247E0
2.322006260E0,-1.257099247E1,-1.482951880E0,-7.029813766E0
2.324481625E0,-1.189561844E1,-1.370489120E0,-8.845666885E0
2.326957041E0,-1.132552910E1,-1.308275819E0,-9.868598938E0
2.329432406E0,-1.080090237E1,-1.389631748E0,-1.030199909E1
2.331907823E0,-1.030020428E1,-1.767996788E0,-1.024935627E1
2.334383239E0,-9.758828163E0,-2.350050926E0,-9.887741089E0
2.336858604E0,-9.265308380E0,-3.116651535E0,-9.178568840E0
2.339334073E0,-8.807681084E0,-3.842574120E0,-8.359326363E0
2.341809437E0,-8.278268814E0,-4.633102894E0,-7.779664516E0
2.344284854E0,-7.626822948E0,-5.684748173E0,-7.377371311E0
2.346760218E0,-6.836294174E0,-6.805785656E0,-6.979564667E0
2.349200687E0,-6.019444466E0,-7.979465485E0,-6.582056999E0
2.351676104E0,-4.998905659E0,-9.340084076E0,-6.212964058E0
2.354151468E0,-3.810869217E0,-1.077278709E1,-5.791528225E0
2.356626885E0,-2.646461725E0,-1.242802143E1,-5.410470963E0
2.359102250E0,-1.527817249E0,-1.398515129E1,-4.979464054E0
2.361577666E0,-3.780659735E-1,-1.558505249E1,-4.665705204E0
2.364053083E0,9.179465771E-1,-1.714457512E1,-4.334897518E0
2.366528448E0,2.122732878E0,-1.865384674E1,-4.188935280E0
2.369003864E0,3.083451033E0,-2.012932205E1,-4.052245140E0
2.371479281E0,4.353142738E0,-2.142294121E1,-3.669094324E0
2.373954646E0,5.692225933E0,-2.235016060E1,-3.070290565E0
2.376430062E0,6.616752625E0,-2.291785622E1,-2.466402054E0
2.378906364E0,7.316354275E0,-2.287239265E1,-1.620838284E0
2.381381781E0,7.905586720E0,-2.233819580E1,-8.015955687E-1
2.383857146E0,8.322237015E0,-2.137986946E1,-8.554340899E-2
2.386332562E0,8.602496147E0,-2.011017799E1,5.877370834E-1
2.388807927E0,8.533104897E0,-1.869213295E1,1.313659668E0
2.391283343E0,8.183453560E0,-1.711107445E1,1.888535261E0
2.393758760E0,7.740182877E0,-1.540559006E1,2.367697954E0
2.396234125E0,7.297211647E0,-1.394656658E1,2.726920605E0
2.398709489E0,6.784549713E0,-1.270349503E1,3.052643538E0
2.401184906E0,6.204588890E0,-1.163270760E1,3.206083298E0
2.403660323E0,5.728118420E0,-1.075842953E1,3.162713289E0
2.406135739E0,5.148457050E0,-1.003011417E1,3.206083298E0
2.408648708E0,4.607080936E0,-9.505488396E0,3.234797001E0
2.411124073E0,4.087240219E0,-9.110373497E0,3.136392355E0
2.413599489E0,3.449851990E0,-8.767601013E0,3.064607620E0
2.416074906E0,2.764906645E0,-8.559126854E0,2.954537868E0
2.418550271E0,1.981556296E0,-8.382058144E0,2.805883646E0
2.421025635E0,1.202991605E0,-8.252546310E0,2.595016241E0
2.423501104E0,5.488536954E-1,-8.152048111E0,2.274078846E0
2.425976468E0,-1.671984792E-1,-8.089834213E0,1.953141451E0
2.428451885E0,-6.942176819E-1,-8.097012520E0,1.517049551E0
2.430927250E0,-1.084846020E0,-8.101798058E0,9.972088337E-1
2.433402666E0,-1.494317770E0,-8.075477600E0,3.649054468E-1
2.435878031E0,-1.707578063E0,-8.015357971E0,-1.788634956E-1
2.438315375E0,-1.942373753E0,-7.955537319E0,-7.322037220E-1
2.440790791E0,-2.205883265E0,-7.945965767E0,-1.268794179E0
2.443266156E0,-2.502892494E0,-8.029714584E0,-1.788634896E0
2.445741573E0,-2.979662418E0,-8.180761337E0,-2.239083767E0
2.448216937E0,-3.444169044E0,-8.370093346E0,-2.717947483E0
2.450692354E0,-3.875475407E0,-8.494520187E0,-3.110968590E0
2.453167771E0,-4.050450325E0,-8.513663292E0,-3.443870068E0
2.455643135E0,-4.098307133E0,-8.576175690E0,-3.745664835E0
2.458118552E0,-4.220340729E0,-8.664710045E0,-3.798306942E0
2.460593916E0,-4.263411522E0,-8.781958580E0,-3.858426571E0
2.463069333E0,-4.208376884E0,-8.959325790E0,-3.882354736E0
2.465544750E0,-4.083950043E0,-9.081359863E0,-3.740879059E0
2.468058448E0,-4.009473324E0,-9.325727463E0,-3.635594845E0
2.470533812E0,-4.016652107E0,-9.565308571E0,-3.465405464E0
2.473009229E0,-4.067200184E0,-9.615557671E0,-3.154039383E0
2.475484646E0,-3.971188307E0,-9.620343208E0,-2.818745136E0
2.477960010E0,-3.806083441E0,-9.646664619E0,-2.325225353E0
2.480435375E0,-3.600001574E0,-9.629914284E0,-2.035394669E0
2.482910791E0,-3.492025614E0,-9.553344727E0,-1.774278045E0
2.485386208E0,-3.410669565E0,-9.428917885E0,-1.503589988E0
2.487861625E0,-3.218944550E0,-9.297013283E0,-1.323829174E0
2.490336989E0,-3.001197815E0,-9.067003250E0,-1.124925733E0
2.492812406E0,-2.931506872E0,-8.854042053E0,-1.077069283E0
2.495287771E0,-2.850150824E0,-8.683852196E0,-9.837492108E-1
2.497763135E0,-2.802294493E0,-8.544769287E0,-9.741778970E-1
2.500238500E0,-2.672782898E0,-8.396414757E0,-9.765707254E-1
2.502713916E0,-2.550748825E0,-8.250153542E0,-1.100997567E0
2.505189333E0,-2.517249346E0,-8.092226982E0,-1.340578914E0
2.507664698E0,-2.421536446E0,-8.063512802E0,-1.553839207E0
2.510140114E0,-2.423929453E0,-8.137690544E0,-1.616052628E0
2.512615479E0,-2.315953255E0,-8.262117386E0,-1.474876046E0
2.515090896E0,-2.196312189E0,-8.492127419E0,-1.252044439E0
2.517566312E0,-2.040479422E0,-8.607281685E0,-1.115354419E0
2.520041677E0,-1.855933070E0,-8.604888916E0,-9.574281573E-1
2.522517093E0,-1.652543187E0,-8.628817558E0,-7.202396393E-1
2.524992458E0,-1.501496196E0,-8.698209763E0,-5.093721151E-1
2.527430635E0,-1.261914849E0,-8.772386551E0,-2.243271172E-1
2.529906052E0,-1.118345499E0,-8.868398666E0,3.290131222E-3
2.532381416E0,-1.017547846E0,-8.959325790E0,2.644068897E-1
2.534856833E0,-7.660023570E-1,-9.038289070E0,4.390829504E-1
2.537332198E0,-4.546363056E-1,-9.057432175E0,7.938188910E-1
2.539807614E0,-3.014956415E-1,-9.112766266E0,1.129113197E0
2.542283031E0,-1.839482337E-1,-9.134301186E0,1.411765337E0
2.544758396E0,-1.336989701E-1,-9.088538170E0,1.495514154E0
2.547233812E0,-1.169492081E-1,-9.076574326E0,1.589133382E0
2.549709177E0,-9.302098304E-2,-9.078967094E0,1.665703654E0
2.552184593E0,-5.234299600E-2,-9.107681274E0,1.790130496E0
2.554660010E0,-1.432702541E-1,-9.086145401E0,1.883749604E0
2.557173448E0,-1.624128371E-1,-9.071788788E0,1.866999865E0
2.559648812E0,-1.576271951E-1,-9.081359863E0,1.941177368E0
2.562124229E0,-1.863410622E-1,-9.023932457E0,1.871785522E0
2.564599646E0,-2.150549293E-1,-9.021539688E0,1.922034740E0
2.567075010E0,-2.222333997E-1,-9.023932457E0,1.840678811E0
2.569550427E0,-2.102692872E-1,-8.944969177E0,1.768594980E0
2.572025791E0,-1.983051747E-1,-8.956933022E0,1.723131418E0
2.574501208E0,-2.006980032E-1,-8.952147484E0,1.646561027E0
2.576976625E0,-1.265204996E-1,-8.913862228E0,1.447657704E0
2.579451989E0,-1.049850956E-1,-8.844470978E0,1.337587833E0
2.581927406E0,-1.576271951E-1,-8.777172089E0,1.105184913E0
2.584402771E0,-2.150549293E-1,-8.671888351E0,9.421738982E-1
2.586840479E0,-2.584248483E-1,-8.621639252E0,8.368897438E-1
2.589315843E0,-3.445664644E-1,-8.585746765E0,6.954140663E-1
2.591791260E0,-4.402793646E-1,-8.583353996E0,4.677968323E-1
2.594266677E0,-5.120640397E-1,-8.578568459E0,2.691925466E-1
2.596742041E0,-5.889334679E-1,-8.528019905E0,1.253240854E-1
2.599217458E0,-7.851449251E-1,-8.499305725E0,5.682953633E-3
2.601692875E0,-8.524430394E-1,-8.463413239E0,-1.166501045E-1
2.604168239E0,-9.002995491E-1,-8.401200294E0,-2.338984162E-1
2.606643656E0,-9.385846853E-1,-8.355736732E0,-3.367897868E-1
2.609119021E0,-1.024726272E0,-8.362915039E0,-3.969094455E-1
2.611594437E0,-1.053440213E0,-8.362915039E0,-5.476573110E-1
2.614069802E0,-1.075274706E0,-8.360522270E0,-5.763711333E-1
2.616544854E0,-1.065404296E0,-8.346165657E0,-6.388836503E-1
2.619020271E0,-1.005583763E0,-8.293224335E0,-7.417750359E-1
2.621495635E0,-1.003190875E0,-8.305487633E0,-7.585247755E-1
2.623971052E0,-9.936196208E-1,-8.370093346E0,-7.824530005E-1
2.626446416E0,-9.314061999E-1,-8.324629784E0,-8.279166222E-1
2.628921833E0,-9.146564603E-1,-8.355736732E0,-7.609176040E-1
2.631397250E0,-7.974081635E-1,-8.374878883E0,-7.393822074E-1
2.633872614E0,-6.942176819E-1,-8.439485550E0,-7.393822074E-1
2.636348031E0,-6.056832075E-1,-8.499305725E0,-5.811567903E-1
2.638823396E0,-4.833501875E-1,-8.542376518E0,-5.380859971E-1
2.641298812E0,-3.924229145E-1,-8.595317841E0,-4.184448719E-1
2.643774177E0,-3.996013701E-1,-8.683852196E0,-4.232304990E-1
2.646241521E0,-3.589234054E-1,-8.760422707E0,-3.442673683E-1
2.648716937E0,-3.421736360E-1,-8.873184204E0,-2.219343036E-1
2.651192302E0,-3.589234054E-1,-8.985647202E0,-1.501496136E-1
2.653667718E0,-3.421736360E-1,-9.115159035E0,1.764706708E-2
2.656143083E0,-3.302095234E-1,-9.227621078E0,7.268198580E-2
2.658618500E0,-2.847459018E-1,-9.263513565E0,7.028916478E-2
2.661093916E0,-2.294118702E-1,-9.361619949E0,1.301097274E-1
2.663569281E0,-1.600200087E-1,-9.467203140E0,1.683948934E-1
2.666044698E0,-3.559323773E-2,-9.515059471E0,2.093719840E-1
2.668520062E0,2.691925503E-3,-9.572486877E0,2.476571500E-1
2.670995479E0,9.870393574E-2,-9.625128746E0,2.979064286E-1
2.673470896E0,1.633101404E-1,-9.634700775E0,2.787638307E-1
2.675955427E0,2.709871531E-1,-9.641879082E0,2.883351147E-1
2.678430843E0,3.933202326E-1,-9.629914284E0,2.285145670E-1
2.680906208E0,5.153541565E-1,-9.617950439E0,1.851446480E-1
2.683381625E0,6.185446382E-1,-9.582057953E0,2.285145670E-1
2.685856989E0,7.788637877E-1,-9.546165466E0,2.093719840E-1
2.688332406E0,9.299107194E-1,-9.522237778E0,1.612164229E-1
2.690807823E0,1.001695395E0,-9.527023315E0,1.013958603E-1
2.693283187E0,1.049551845E0,-9.519845009E0,5.832505226E-2
2.695758604E0,1.138385415E0,-9.529416084E0,-5.413761362E-2
2.698234021E0,1.159920812E0,-9.560523033E0,-8.793623000E-2
2.700709385E0,1.224527001E0,-9.591629982E0,-2.171486616E-1
2.703184802E0,1.250848055E0,-9.610772133E0,-3.008974493E-1
2.705659854E0,1.267597795E0,-9.644271851E0,-3.176472187E-1
2.708135271E0,1.258026481E0,-9.673284531E0,-4.088735580E-1
2.710610635E0,1.229312658E0,-9.745069504E0,-3.849453330E-1
2.713086052E0,1.188634634E0,-9.804889679E0,-3.753740489E-1
2.715561416E0,1.243669510E0,-1.003729248E1,-3.658027649E-1
2.718036833E0,1.382752419E0,-1.024337482E1,-3.200400174E-1
2.720512250E0,1.435394526E0,-1.035105133E1,-3.825525343E-1
2.722987614E0,1.488036633E0,-1.044437218E1,-3.248256743E-1
2.725463031E0,1.528714538E0,-1.059063339E1,-3.008974493E-1
2.727938396E0,1.550249934E0,-1.068873882E1,-2.243271172E-1
2.730413812E0,1.605284929E0,-1.065523911E1,-1.621137410E-1
2.732889229E0,1.622034669E0,-1.061456108E1,-1.286142170E-1
2.735402979E0,1.651047587E0,-1.064088249E1,-8.793623000E-2
2.737878343E0,1.665404558E0,-1.058345413E1,-6.131608039E-2
2.740353760E0,1.720439434E0,-1.051167011E1,7.507480681E-2
2.742829177E0,1.739582062E0,-1.051645565E1,1.205384433E-1
2.745304541E0,1.775474429E0,-1.049970531E1,2.021935135E-1
2.747779958E0,1.820937991E0,-1.049970531E1,3.050848842E-1
2.750255323E0,1.873580098E0,-1.058584690E1,3.744767308E-1
2.752730739E0,1.887937069E0,-1.061695385E1,4.462614357E-1
2.755206104E0,1.919342875E0,-1.071745300E1,6.092724800E-1
2.757681521E0,1.924128532E0,-1.083500004E1,7.241279483E-1
2.760156937E0,1.950449586E0,-1.099292660E1,8.440681696E-1
2.762632302E0,1.907378793E0,-1.115354443E1,9.445667267E-1
2.765069646E0,1.883151412E0,-1.127109241E1,1.066899776E0
2.767545062E0,1.933699846E0,-1.141226864E1,1.181755304E0
2.770020427E0,1.892722726E0,-1.150080299E1,1.354337573E0
2.772495843E0,1.825723648E0,-1.152473164E1,1.512263894E0
2.774971208E0,1.816152334E0,-1.164945698E1,1.603490233E0
2.777446625E0,1.710868239E0,-1.169492054E1,1.838286042E0
2.779922041E0,1.612463355E0,-1.178345490E1,2.053640127E0
2.782397406E0,1.590927958E0,-1.185793209E1,2.281257391E0
2.784872823E0,1.574178219E0,-1.205653572E1,2.468196630E0
2.787348187E0,1.461715579E0,-1.232004547E1,2.664707184E0
2.789823604E0,1.435394526E0,-1.262453270E1,2.882453918E0
2.792299021E0,1.348953724E0,-1.297418308E1,3.126821041E0
2.794775375E0,1.298704505E0,-1.337887001E1,3.359223843E0
2.797250791E0,1.269990563E0,-1.386281776E1,3.534198999E0
2.799726156E0,1.188634634E0,-1.426301765E1,3.730709553E0
2.802201573E0,1.056730270E0,-1.465813255E1,3.950849295E0
2.804676937E0,9.370891452E-1,-1.490967751E1,4.058825493E0
2.807152354E0,8.413762450E-1,-1.513968754E1,4.176073551E0
2.809627771E0,6.520441771E-1,-1.525215054E1,4.372584343E0
2.812103135E0,4.124628007E-1,-1.527607918E1,4.463511467E0
2.814578552E0,2.063809484E-1,-1.517079449E1,4.542773724E0
2.817053916E0,-1.049850956E-1,-1.496710587E1,4.748556614E0
2.819529333E0,-3.684946895E-1,-1.481157207E1,4.892425060E0
2.822004750E0,-6.487540603E-1,-1.461984730E1,5.019244671E0
2.824479073E0,-8.524430394E-1,-1.441615868E1,5.167898655E0
2.826954489E0,-1.082453132E0,-1.425105381E1,5.412265778E0
2.829429854E0,-1.269093275E0,-1.410000610E1,5.596812248E0
2.831905271E0,-1.451246977E0,-1.402104378E1,5.769095421E0
2.834380635E0,-1.638186216E0,-1.395135212E1,5.881857395E0
2.836856052E0,-1.755434513E0,-1.389631748E1,5.982355595E0
2.839331468E0,-1.904088616E0,-1.392024612E1,6.094818592E0
2.841806833E0,-2.078764677E0,-1.388435364E1,6.092425346E0
2.844282250E0,-2.191526413E0,-1.379342651E1,6.128317833E0
2.846757614E0,-2.253739834E0,-1.364237881E1,6.003890991E0
2.849233031E0,-2.260918379E0,-1.347488117E1,5.807380676E0
2.851708448E0,-2.270489693E0,-1.321855068E1,5.519942760E0
2.854183968E0,-2.287239313E0,-1.285424328E1,5.189434052E0
2.856659385E0,-2.323131800E0,-1.241127205E1,4.846961498E0
2.859134750E0,-2.335095882E0,-1.201107216E1,4.353441715E0
2.861610166E0,-2.471785784E0,-1.165663528E1,3.900599957E0
2.864085531E0,-2.569891453E0,-1.142662525E1,3.368795156E0
2.866560948E0,-2.778366089E0,-1.117508030E1,2.856132984E0
2.869036364E0,-3.020340443E0,-1.104826069E1,2.396411896E0
2.871511729E0,-3.269493103E0,-1.098574829E1,1.962712765E0
2.873987146E0,-3.573680639E0,-1.092831993E1,1.586740494E0
2.876462510E0,-4.028615952E0,-1.094985580E1,1.234397411E0
2.878937927E0,-4.519742966E0,-1.098574829E1,9.254241586E-1
2.881413343E0,-5.041976452E0,-1.106740284E1,7.698906660E-1
2.883926416E0,-5.590530872E0,-1.115832996E1,6.595217586E-1
2.886401833E0,-6.227919102E0,-1.130698395E1,5.566303730E-1
2.888877250E0,-6.728318214E0,-1.154417324E1,4.295116663E-1
2.891352666E0,-7.245766163E0,-1.181007481E1,4.366901219E-1
2.893827979E0,-7.844869137E0,-1.214297676E1,3.050848842E-1
2.896303448E0,-8.386244774E0,-1.247109222E1,1.181456149E-1
2.898778812E0,-8.855537415E0,-1.283031464E1,-1.106680464E-2
2.901254177E0,-9.334700584E0,-1.311775303E1,-1.764706671E-1
2.903729646E0,-9.744471550E0,-1.340040493E1,-3.897309899E-1
2.906205010E0,-1.010369396E1,-1.359930801E1,-5.380859971E-1
2.908680375E0,-1.044377327E1,-1.371446323E1,-7.369893789E-1
2.911155791E0,-1.073838997E1,-1.378146172E1,-9.598209858E-1
2.913631937E0,-1.099472141E1,-1.373839092E1,-1.096211910E0
2.916107302E0,-1.117687416E1,-1.359930801E1,-1.208973646E0
2.918582718E0,-1.121515942E1,-1.340040493E1,-1.316650629E0
2.921058135E0,-1.113380337E1,-1.314885998E1,-1.371685624E0
2.923533500E0,-1.088465118E1,-1.283749390E1,-1.359721422E0
2.926008916E0,-1.052064323E1,-1.243280697E1,-1.235294700E0
2.928484281E0,-9.959825516E0,-1.196082306E1,-1.026820064E0
2.930959698E0,-9.246166229E0,-1.144337559E1,-8.255237937E-1
2.933435114E0,-8.362317085E0,-1.082782173E1,-5.237290859E-1
2.935910479E0,-7.325028419E0,-1.021944618E1,-1.645065546E-1
2.938385896E0,-6.349953175E0,-9.678070068E0,1.205384433E-1
2.940861260E0,-5.322235584E0,-9.239585876E0,3.218346536E-1
2.943337354E0,-4.060021877E0,-8.911469460E0,4.944169819E-1
2.945812718E0,-2.950649500E0,-8.671888351E0,6.451647878E-1
2.948288135E0,-2.469393015E0,-8.398807526E0,7.674978375E-1
2.950763552E0,-1.707578063E0,-8.274081230E0,1.011864901E0
2.953238916E0,-9.984052777E-1,-8.166404724E0,1.397408366E0
2.955714333E0,-6.191428751E-2,-8.161619186E0,1.893320918E0
2.958189698E0,8.222336769E-1,-8.317451477E0,2.358126640E0
2.960665114E0,1.001695395E0,-8.327022552E0,2.309971094E0
2.963140531E0,1.164706469E0,-8.161619186E0,1.847857237E0
2.965615896E0,1.562214136E0,-7.998608112E0,1.572383523E0
2.968091312E0,2.072483540E0,-7.926823139E0,1.608275890E0
2.970566677E0,2.530110836E0,-7.890930653E0,1.782951951E0
2.973009646E0,2.853441000E0,-7.855038643E0,1.852642894E0
2.975485010E0,3.078665495E0,-7.850253105E0,1.840678811E0
2.977960427E0,3.069094181E0,-7.788039684E0,1.799701691E0
2.980435843E0,2.934797049E0,-7.720741272E0,1.730309844E0
2.982911208E0,2.767299414E0,-7.651349545E0,1.682453394E0
2.985386625E0,2.594717026E0,-7.663313389E0,1.589133382E0
2.987862041E0,2.321636200E0,-7.672884941E0,1.421336651E0
2.990337406E0,2.098804474E0,-7.627421379E0,1.121934772E0
2.992812823E0,1.849651933E0,-7.620242596E0,9.565308690E-1
2.995288187E0,1.566999674E0,-7.550850868E0,7.627122402E-1
2.997763604E0,1.325025558E0,-7.534101009E0,5.542375445E-1
3.000239021E0,1.047158957E0,-7.577171803E0,1.420738399E-1
3.002721573E0,6.113662124E-1,-7.665706635E0,-2.291127741E-1
3.005196989E0,1.800599098E-1,-7.744669437E0,-6.412764788E-1
3.007672354E0,-9.780662507E-2,-7.957930088E0,-9.765707254E-1
3.010147771E0,-3.637090325E-1,-7.969893932E0,-1.144068360E0
3.012623135E0,-5.697908998E-1,-7.955537319E0,-1.278365493E0
3.015098552E0,-6.750751138E-1,-7.934001446E0,-1.328614831E0
3.017573968E0,-8.093722463E-1,-7.888537884E0,-1.252044439E0
3.020049333E0,-9.768698215E-1,-7.895716667E0,-1.086640596E0
3.022524750E0,-1.070489049E0,-7.924430370E0,-8.279166222E-1
3.025000114E0,-1.168594718E0,-7.965108395E0,-5.404788256E-1
3.027475531E0,-1.242772222E0,-7.977072716E0,-3.873381615E-1
3.029950896E0,-1.324128270E0,-8.008178711E0,-2.913261652E-1
3.032434021E0,-1.422533035E0,-7.955537319E0,-1.477568001E-1
3.034909437E0,-1.537388563E0,-7.945965767E0,2.482553571E-2
3.037384854E0,-1.702792406E0,-7.936394691E0,8.225327730E-2
3.039860271E0,-1.832004786E0,-7.869395256E0,1.013958603E-1
3.042335635E0,-2.030908108E0,-7.855038643E0,3.678964823E-2
3.044811052E0,-2.215454578E0,-7.816753387E0,-1.070788130E-1
3.047286416E0,-2.455035925E0,-7.706384659E0,-2.051845491E-1
3.049761833E0,-2.586641312E0,-7.543672562E0,-2.793620527E-1
3.052237250E0,-2.656033039E0,-7.462017536E0,-2.626122832E-1
3.054712614E0,-2.699403048E0,-7.332805157E0,-2.769692242E-1
3.057187979E0,-2.759223700E0,-7.193722248E0,-2.697907388E-1
3.059663396E0,-2.902792931E0,-6.983153820E0,-2.721835673E-1
3.062118968E0,-2.953042269E0,-6.777071953E0,-2.482553422E-1
3.064594281E0,-3.027518749E0,-6.630810738E0,-2.937189937E-1
3.067069646E0,-3.080160856E0,-6.432206154E0,-3.200400174E-1
3.069544958E0,-3.151945591E0,-6.235695839E0,-3.176472187E-1
3.072020323E0,-3.190230846E0,-6.096612930E0,-3.032902777E-1
3.074495687E0,-3.326920748E0,-5.909972668E0,-2.913261652E-1
3.076971000E0,-3.401098251E0,-5.773283005E0,-2.267199457E-1
3.079446364E0,-3.480061531E0,-5.636891842E0,-1.836491376E-1
3.081921677E0,-3.549752474E0,-5.567201138E0,-9.750752151E-2
3.084397041E0,-3.647858143E0,-5.449952602E0,-9.032905847E-2
3.086872354E0,-3.719642878E0,-5.339882851E0,-1.070788130E-1
3.089347718E0,-3.858725548E0,-5.363811016E0,-1.094716340E-1
3.091823864E0,-3.971188307E0,-5.332405090E0,-1.429711580E-1
3.094299177E0,-4.004687786E0,-5.354239941E0,-1.357926875E-1
3.096774541E0,-4.043272018E0,-5.404489040E0,-1.812563092E-1
3.099249854E0,-4.110270977E0,-5.363811016E0,-1.453639716E-1
3.101725218E0,-4.093521118E0,-5.349453926E0,-9.750752151E-2
3.104200583E0,-4.107878208E0,-5.301298618E0,-1.357926875E-1
3.106675896E0,-4.143770695E0,-5.258227825E0,-1.118644550E-1
3.109151260E0,-4.134199142E0,-5.215157032E0,-1.286142170E-1
3.111626573E0,-4.127020836E0,-5.251049519E0,-1.501496136E-1
3.114101937E0,-4.162913322E0,-5.325226784E0,-1.956132501E-1
3.116577250E0,-4.167698860E0,-5.426024437E0,-1.525424421E-1
3.119052614E0,-4.119842529E0,-5.380560875E0,-6.131608039E-2
3.121529229E0,-4.105485439E0,-5.442774296E0,4.157529399E-2
3.124004541E0,-4.107878208E0,-5.514558792E0,2.428714931E-1
3.126479906E0,-4.055236340E0,-5.591129303E0,3.984049559E-1
3.128955218E0,-3.942474365E0,-5.632106304E0,4.462614357E-1
3.131430583E0,-3.841975927E0,-5.727818966E0,5.374878049E-1
3.133905948E0,-3.717249870E0,-5.811567783E0,7.241279483E-1
3.136381260E0,-3.588037491E0,-5.905187130E0,8.991031051E-1
3.138856573E0,-3.463311672E0,-5.962615013E0,1.045364380E0
3.141331937E0,-3.353241920E0,-6.036792278E0,1.162612677E0
3.143807302E0,-3.187838078E0,-6.110970020E0,1.337587833E0
3.146282614E0,-3.092125177E0,-6.137290955E0,1.473978758E0
3.148757979E0,-3.039483070E0,-6.240481377E0,1.625025630E0
3.151234333E0,-2.955734253E0,-6.329015732E0,1.878963947E0
3.153709646E0,-2.883650303E0,-6.398407936E0,1.989033818E0
3.156185010E0,-2.756830692E0,-6.460920334E0,2.178365946E0
3.158660323E0,-2.615355253E0,-6.520740986E0,2.362912416E0
3.161135687E0,-2.565105915E0,-6.482455730E0,2.463410854E0
3.163611052E0,-2.519642353E0,-6.578168392E0,2.647957325E0
3.166086364E0,-2.421536446E0,-6.652346134E0,2.815454960E0
3.168561729E0,-2.370988131E0,-6.671488762E0,2.913859844E0
3.171037041E0,-2.272882462E0,-6.760322094E0,2.980858803E0
3.173512406E0,-2.248954296E0,-6.645167351E0,3.083750248E0
3.175987718E0,-2.232204437E0,-6.700501442E0,3.206083298E0
3.178463083E0,-2.253739834E0,-6.710072994E0,3.285046339E0
3.180938500E0,-2.440679073E0,-6.570990086E0,3.304188967E0
3.183413812E0,-2.486142635E0,-6.549454689E0,3.404687405E0
3.185889177E0,-2.589034081E0,-6.578168392E0,3.433401346E0
3.188364489E0,-2.694617510E0,-6.444170475E0,3.390330553E0
3.190839854E0,-2.838186741E0,-6.376872540E0,3.421437263E0
3.193315166E0,-3.008376360E0,-6.386443615E0,3.565305710E0
3.195790531E0,-3.187838078E0,-6.345765591E0,3.680161238E0
3.198265896E0,-3.341277838E0,-6.345765591E0,3.737888098E0
3.200741208E0,-3.441776276E0,-6.396014690E0,3.847957850E0
3.203216573E0,-3.468097210E0,-6.407979012E0,4.008575916E0
3.205691885E0,-3.616751432E0,-6.499205589E0,4.171288013E0
3.208167250E0,-3.806083441E0,-6.640381813E0,4.348656178E0
3.210676260E0,-3.851547241E0,-6.738786697E0,4.604987144E0
3.213151573E0,-3.837190151E0,-6.820142746E0,4.782055855E0
3.215626937E0,-3.873082638E0,-6.911069870E0,4.925924301E0
3.218102250E0,-3.897010803E0,-6.954440117E0,5.160720348E0
3.220577614E0,-3.846761465E0,-6.923034191E0,5.275575638E0
3.223052979E0,-3.698107481E0,-6.954440117E0,5.421836853E0
3.225528291E0,-3.585644722E0,-6.901498795E0,5.584548950E0
3.228003656E0,-3.281457186E0,-6.846463680E0,5.704489231E0
3.230478968E0,-2.883650303E0,-6.858428001E0,5.912963867E0
3.232954333E0,-2.440679073E0,-6.839285374E0,6.099604130E0
3.235429646E0,-2.035693884E0,-6.889534473E0,6.257829189E0
3.237905010E0,-1.594816327E0,-6.918248653E0,6.425626278E0
3.240348656E0,-1.103988528E0,-6.966403961E0,6.808776855E0
3.242823968E0,-5.745765567E-1,-7.131508827E0,7.314260483E0
3.245299333E0,8.673982322E-2,-7.320840836E0,7.786244869E0
3.247774698E0,5.826523304E-1,-7.656135082E0,8.413763046E0
3.250250010E0,9.466604590E-1,-7.953144073E0,9.225827217E0
3.252725323E0,1.135992527E0,-8.362915039E0,9.913464546E0
3.255200687E0,1.663011789E0,-8.930612564E0,1.063190937E1
3.257676052E0,1.981556296E0,-9.548559189E0,1.119242764E1
3.260151364E0,2.419741869E0,-1.024576759E1,1.189920807E1
3.262626729E0,2.906083107E0,-1.096421242E1,1.237597752E1
3.265102041E0,3.179163933E0,-1.160877895E1,1.277109241E1
3.267577406E0,3.124129057E0,-1.220758247E1,1.273280716E1
3.270053604E0,2.975475073E0,-1.259073353E1,1.220818138E1
3.272528916E0,2.800798893E0,-1.297179031E1,1.141525936E1
3.275004281E0,2.414956331E0,-1.319940758E1,1.082363415E1
3.277479593E0,1.993520379E0,-1.308425331E1,1.018175983E1
3.279954958E0,1.521536112E0,-1.283031464E1,9.613762856E0
3.282430323E0,1.143171072E0,-1.241366482E1,9.142078400E0
3.284905635E0,7.525427341E-1,-1.197278690E1,8.542975426E0
3.287381000E0,3.023929596E-1,-1.158245754E1,7.953742504E0
3.289856312E0,-1.025922745E-1,-1.131894875E1,7.223333359E0
3.292331677E0,-6.391827464E-1,-1.129023457E1,6.233901024E0
3.294806989E0,-1.314556956E0,-1.152233791E1,4.882853508E0
3.297282354E0,-1.947159410E0,-1.205653572E1,3.392723322E0
3.299790323E0,-2.754437923E0,-1.287817192E1,1.766202211E0
3.302265635E0,-3.554538012E0,-1.391067410E1,1.899302900E-1
3.304741000E0,-4.227519512E0,-1.502453327E1,-1.069890857E0
3.307216312E0,-4.927121162E0,-1.630140305E1,-2.013859272E0
3.309691677E0,-5.672185898E0,-1.774098587E1,-2.574378014E0
3.312167041E0,-6.369095802E0,-1.914497375E1,-3.192324400E0
3.314642354E0,-6.723532677E0,-2.024208260E1,-3.695415497E0
3.317117718E0,-6.711568356E0,-2.092224312E1,-3.932604074E0
3.319593031E0,-6.376274109E0,-2.091027832E1,-4.150650024E0
3.322068396E0,-5.698507309E0,-2.036890221E1,-4.253541470E0
3.324543708E0,-4.790431023E0,-1.925743675E1,-4.327718735E0
3.327019073E0,-3.825226068E0,-1.769073677E1,-4.485944271E0
3.329501468E0,-3.034697294E0,-1.592782402E1,-4.612763882E0
3.331976781E0,-2.469393015E0,-1.419093418E1,-4.646263599E0
3.334452146E0,-2.071586132E0,-1.259073353E1,-4.567300320E0
3.336927458E0,-2.050050735E0,-1.127827072E1,-4.377968311E0
3.339402823E0,-2.225025892E0,-1.013300610E1,-4.217648983E0
3.341878135E0,-2.440679073E0,-9.134301186E0,-4.395017147E0
3.344353500E0,-2.687438965E0,-8.259724617E0,-4.761417866E0
3.346828812E0,-2.821436882E0,-7.498209000E0,-4.943571568E0
3.349304177E0,-2.864507914E0,-6.786643028E0,-4.737489700E0
3.351779489E0,-2.859722137E0,-6.238088608E0,-4.279862404E0
3.354254854E0,-2.878864765E0,-5.713462353E0,-3.561118364E0
3.356730166E0,-2.809472799E0,-5.210371494E0,-2.979064226E0
3.359183812E0,-2.847758055E0,-4.714458942E0,-2.502593279E0
3.361659125E0,-2.996412039E0,-4.333701134E0,-1.939382792E0
3.364134489E0,-3.331706524E0,-3.943072557E0,-1.462911963E0
3.366609802E0,-3.798905134E0,-3.562314749E0,-8.566305041E-1
3.369085166E0,-4.373780727E0,-3.236591816E0,-2.338984162E-1
3.371560531E0,-5.085047245E0,-2.970689297E0,3.170489967E-1
3.374035843E0,-5.806184292E0,-2.776571512E0,7.579265833E-1
3.376511208E0,-6.536892414E0,-2.676073074E0,1.086042404E0
3.378986521E0,-7.209873676E0,-2.541775942E0,1.143470168E0
3.381461885E0,-7.746464252E0,-2.577668190E0,1.038185954E0
3.383937198E0,-8.206484795E0,-2.678465843E0,7.193422914E-1
3.386412562E0,-8.460422516E0,-2.908475876E0,1.998006850E-1
3.388873656E0,-8.599205971E0,-3.176771164E0,-4.447658956E-1
3.391348968E0,-8.611170769E0,-3.497708559E0,-1.096211910E0
3.393824333E0,-8.486743927E0,-3.878466368E0,-1.858026743E0
3.396299646E0,-8.362317085E0,-4.376771927E0,-2.682054996E0
3.398775010E0,-8.161020279E0,-4.975575447E0,-3.522833109E0
3.401250375E0,-7.969295979E0,-5.663212776E0,-4.263112545E0
3.403725687E0,-7.679465294E0,-6.506383896E0,-5.137390137E0
3.406201052E0,-7.415955544E0,-7.395018578E0,-5.956633091E0
3.408676364E0,-7.209873676E0,-8.254939079E0,-6.553342819E0
3.411151729E0,-6.833901405E0,-9.122337341E0,-7.010671139E0
3.413627041E0,-6.472286224E0,-9.977472305E0,-7.374978542E0
3.416102354E0,-6.021837234E0,-1.088046360E1,-7.439584732E0
3.418578291E0,-5.418247700E0,-1.174995518E1,-7.281359196E0
3.421053604E0,-4.800002098E0,-1.257876968E1,-7.034599304E0
3.423528968E0,-4.177269936E0,-1.333819199E1,-6.598806858E0
3.426004281E0,-3.401098251E0,-1.396840096E1,-6.153143406E0
3.428479646E0,-2.581855536E0,-1.457677650E1,-5.506483078E0
3.430955010E0,-1.765005827E0,-1.507268906E1,-4.751846790E0
3.433430323E0,-8.189435601E-1,-1.548216057E1,-3.927818298E0
3.435905687E0,2.805584669E-1,-1.568106365E1,-3.110968590E0
3.438381000E0,1.332203984E0,-1.571934891E1,-2.178964138E0
3.440856364E0,2.441576481E0,-1.568345737E1,-1.331007600E0
3.443331677E0,3.569792271E0,-1.552044582E1,-5.213362575E-1
3.445807041E0,4.659722805E0,-1.518993759E1,1.612164229E-1
3.448321208E0,5.411966801E0,-1.472273827E1,7.001997232E-1
3.450796521E0,5.982056618E0,-1.431805229E1,1.272682548E0
3.453271885E0,6.535397053E0,-1.374556923E1,1.629811287E0
3.455747198E0,6.686144829E0,-1.317787266E1,1.898106575E0
3.458222562E0,6.547360897E0,-1.265803146E1,2.058425665E0
3.460697875E0,6.511468410E0,-1.211904812E1,2.231008053E0
3.463173239E0,6.451348782E0,-1.154178047E1,2.202294111E0
3.465648552E0,6.156732559E0,-1.105065346E1,2.171187401E0
3.468123864E0,5.656034470E0,-1.068395329E1,2.156830549E0
3.470599229E0,5.196313381E0,-1.029362392E1,2.067996979E0
3.473074593E0,4.717150688E0,-9.910174370E0,2.012962103E0
3.475549906E0,4.161417484E0,-9.577272415E0,1.816451430E0
3.478026416E0,3.483351469E0,-9.215657234E0,1.644168258E0
3.480501729E0,2.788834810E0,-8.899505615E0,1.385444283E0
3.482977093E0,2.108375788E0,-8.667102814E0,1.052542806E0
3.485452406E0,1.483250976E0,-8.451449394E0,7.698906660E-1
3.487927771E0,7.549355626E-1,-8.242975235E0,5.279164910E-1
3.490403083E0,1.848455518E-1,-8.034799576E0,3.457628787E-1
3.492878448E0,-2.751746178E-1,-7.945965767E0,1.205384433E-1
3.495353760E0,-6.894320250E-1,-7.917252064E0,-1.118644550E-1
3.497829125E0,-9.601200819E-1,-7.943572998E0,-3.658027649E-1
3.500304489E0,-1.087238789E0,-7.922037601E0,-6.436693072E-1
3.502779802E0,-1.252343535E0,-7.960322857E0,-9.382855892E-1
3.505255114E0,-1.410568953E0,-8.094619751E0,-1.180259824E0
3.507692979E0,-1.597209096E0,-8.168797493E0,-1.402792215E0
3.510168291E0,-1.784148335E0,-8.228617668E0,-1.596910000E0
3.512643656E0,-1.961516380E0,-8.331808090E0,-1.632802367E0
3.515118968E0,-2.169991016E0,-8.386843681E0,-1.743171334E0
3.517594333E0,-2.419143677E0,-8.580961227E0,-1.762313843E0
3.520069698E0,-2.644068956E0,-8.762815475E0,-1.697707653E0
3.522545010E0,-2.768795013E0,-8.909076691E0,-1.731207132E0
3.525020375E0,-2.893221617E0,-9.086145401E0,-1.724028707E0
3.527495687E0,-2.955734253E0,-9.246764183E0,-1.616052628E0
3.529971052E0,-3.044268608E0,-9.335298538E0,-1.510768414E0
3.532446364E0,-3.058625460E0,-9.424132347E0,-1.491625786E0
3.534921729E0,-3.072982550E0,-9.407382011E0,-1.460519075E0
3.537397927E0,-3.003590584E0,-9.318549156E0,-1.388435364E0
3.539873239E0,-2.958127022E0,-9.167800903E0,-1.297508121E0
3.542348604E0,-2.895614386E0,-9.083752632E0,-1.295115232E0
3.544823916E0,-2.864507914E0,-8.997611046E0,-1.297508121E0
3.547299281E0,-2.795115948E0,-8.940183640E0,-1.194616675E0
3.549774646E0,-2.740081072E0,-8.870791435E0,-1.098604679E0
3.552249958E0,-2.543570518E0,-8.842078209E0,-9.693922997E-1
3.554725323E0,-2.313560486E0,-8.746066093E0,-9.885348678E-1
3.557200635E0,-2.112264156E0,-8.707780838E0,-9.598209858E-1
3.559676000E0,-1.901695848E0,-8.748458862E0,-8.231309652E-1
3.562151312E0,-1.676471353E0,-8.822636604E0,-7.776673436E-1
3.564626677E0,-1.489532113E0,-8.889934540E0,-6.245267391E-1
3.567103083E0,-1.326521039E0,-9.000003815E0,-5.428716540E-1
3.569578396E0,-1.194915771E0,-9.040681839E0,-3.610171080E-1
3.572053760E0,-1.101595759E0,-9.165408134E0,-2.243271172E-1
3.574529073E0,-9.744769931E-1,-9.340084076E0,-1.788634956E-1
3.577004437E0,-9.433703423E-1,-9.483952522E0,-2.171486616E-1
3.579479750E0,-1.051047325E0,-9.359226227E0,-3.897309899E-1
3.581955114E0,-1.202094316E0,-9.203693390E0,-4.663013220E-1
3.584430479E0,-1.137488008E0,-9.268299103E0,-4.208376706E-1
3.586905791E0,-1.055832982E0,-9.110373497E0,-4.854438901E-1
3.589381156E0,-9.960124493E-1,-9.071788788E0,-5.835496187E-1
3.591856468E0,-9.337990284E-1,-8.973683357E0,-7.250252366E-1
3.594331833E0,-8.524430394E-1,-8.904291153E0,-7.250252366E-1
3.596846000E0,-7.683951855E-1,-8.940183640E0,-6.867401004E-1
3.599321312E0,-5.338985324E-1,-8.925827026E0,-4.950151742E-1
3.601796677E0,-3.326023519E-1,-8.954540253E0,-2.530409992E-1
3.604271989E0,-1.480558962E-1,-8.997611046E0,-1.190429255E-1
3.606747354E0,-6.879365072E-3,-8.978468895E0,4.396811500E-2
3.609222666E0,1.752742529E-1,-8.990432739E0,1.731805354E-1
3.611698031E0,2.231307179E-1,-9.009575844E0,1.420738399E-1
3.614173343E0,3.478565812E-1,-9.038289070E0,1.660020649E-1
3.616648708E0,3.693920076E-1,-9.031110764E0,1.564307809E-1
3.619124021E0,3.837489188E-1,-9.057432175E0,6.789634377E-2
3.621599385E0,3.813561201E-1,-9.117551804E0,-6.281159353E-3
3.624074698E0,4.435695112E-1,-9.098110199E0,-1.190429255E-1
3.626551260E0,4.674977362E-1,-9.076574326E0,-1.262213886E-1
3.629026573E0,4.746761918E-1,-9.095717430E0,-1.262213886E-1
3.631501937E0,4.914259613E-1,-9.100502968E0,-8.793623000E-2
3.633977250E0,4.459623098E-1,-9.064610481E0,-9.272187948E-2
3.636452562E0,4.220340848E-1,-9.016754150E0,-4.217349738E-2
3.638927927E0,3.454637825E-1,-8.964112282E0,-1.345962752E-2
3.641403291E0,3.143570721E-1,-8.937790871E0,-5.653043464E-2
3.643878604E0,2.614158690E-1,-8.892327309E0,-2.781656384E-2
3.646353968E0,2.279163599E-1,-8.846863747E0,-8.793623000E-2
3.648829281E0,2.135594189E-1,-8.798707962E0,-1.597209126E-1
3.651304646E0,1.345962733E-1,-8.803493500E0,-1.046859920E-1
3.653779958E0,-5.712864175E-2,-8.836993217E0,7.028916478E-2
3.656256208E0,-2.318046987E-1,-8.839385986E0,1.133599728E-1
3.658731521E0,-4.259224236E-1,-8.834600449E0,1.396810263E-1
3.661206885E0,-5.769693851E-1,-8.832207680E0,1.444666684E-1
3.663682198E0,-7.277171612E-1,-8.832207680E0,1.947159469E-1
3.666157562E0,-8.380861282E-1,-8.885149002E0,1.803590059E-1
3.668632875E0,-9.146564603E-1,-8.885149002E0,2.213360965E-1
3.671108239E0,-1.075274706E0,-8.870791435E0,2.811566591E-1
3.673583552E0,-1.209272742E0,-8.923434258E0,2.285145670E-1
3.676058916E0,-1.367498159E0,-8.961718559E0,1.947159469E-1
3.678534229E0,-1.530210137E0,-9.028717995E0,2.117647976E-1
3.681009593E0,-1.652543187E0,-9.086145401E0,2.333002090E-1
3.683484906E0,-1.779362798E0,-9.127122879E0,2.189432681E-1
3.685922666E0,-1.925624013E0,-9.206086159E0,1.277169138E-1
3.688398031E0,-2.026122570E0,-9.208478928E0,1.157527938E-1
3.690873343E0,-2.090728760E0,-9.196515083E0,1.899302900E-1
3.693348656E0,-2.220240355E0,-9.191729546E0,1.085743308E-1
3.695824021E0,-2.323131800E0,-9.201300621E0,6.550352275E-2
3.698299385E0,-2.349452734E0,-9.163015366E0,6.311069429E-2
3.700774698E0,-2.447857618E0,-9.146265030E0,1.205384433E-1
3.703250062E0,-2.476571321E0,-9.122337341E0,1.037886813E-1
3.705725375E0,-2.486142635E0,-9.158229828E0,5.832505226E-2
3.708200739E0,-2.478964329E0,-9.189335823E0,2.003988996E-2
3.710676104E0,-2.510071039E0,-9.239585876E0,3.290131222E-3
3.713151416E0,-2.440679073E0,-9.301798820E0,6.789634377E-2
3.715639385E0,-2.351845503E0,-9.359226227E0,6.550352275E-2
3.718114698E0,-2.258525372E0,-9.414560318E0,9.900303930E-2
3.720590062E0,-2.153241158E0,-9.481559753E0,1.205384433E-1
3.723065375E0,-1.961516380E0,-9.529416084E0,1.372881979E-1
3.725540739E0,-1.805683732E0,-9.529416084E0,1.827518344E-1
3.728016104E0,-1.671685696E0,-9.498309135E0,2.189432681E-1
3.730491416E0,-1.491924882E0,-9.457631111E0,2.237289101E-1
3.732966781E0,-1.321735382E0,-9.395418167E0,2.380858511E-1
3.735442093E0,-1.075274706E0,-9.318549156E0,2.333002090E-1
3.737917458E0,-8.428717852E-1,-9.251549721E0,2.428714931E-1
3.740392771E0,-5.865406394E-1,-9.234800339E0,2.739782035E-1
3.742868135E0,-3.924229145E-1,-9.201300621E0,2.715853751E-1
3.745326781E0,-1.504487246E-1,-9.179764748E0,2.572284341E-1
3.747802093E0,8.434699476E-2,-9.158229828E0,2.380858511E-1
3.750277406E0,2.709871531E-1,-9.222835541E0,1.660020649E-1
3.752752771E0,5.129613280E-1,-9.316155434E0,2.069791555E-1
3.755228083E0,6.927221417E-1,-9.424132347E0,1.851446480E-1
3.757703448E0,9.155537486E-1,-9.467203140E0,7.986045629E-2
3.760178760E0,1.080658555E0,-9.553344727E0,3.439682722E-2
3.762654125E0,1.140778184E0,-9.716355324E0,3.290131222E-3
3.765129437E0,1.248455167E0,-9.871889114E0,-1.142572835E-1
3.767604802E0,1.375573874E0,-1.008036327E1,-1.525424421E-1
3.770080166E0,1.461715579E0,-1.028166008E1,-2.147558331E-1
3.772555479E0,1.555035591E0,-1.043001461E1,-2.051845491E-1
3.775037875E0,1.674975872E0,-1.060259724E1,-2.650051117E-1
3.777513187E0,1.787438512E0,-1.073689461E1,-2.673979402E-1
3.779988552E0,1.890329838E0,-1.089003468E1,-2.362912297E-1
3.782463864E0,2.007877350E0,-1.092114162E1,-2.434697002E-1
3.784939229E0,2.108375788E0,-1.093549824E1,-1.453639716E-1
3.787414593E0,2.168196440E0,-1.092592716E1,-1.142572835E-1
3.789889906E0,2.249851465E0,-1.081107140E1,-2.303091809E-2
3.792365271E0,2.242672920E0,-1.065284634E1,4.396811500E-2
3.794840583E0,2.271386862E0,-1.053320503E1,1.253240854E-1
3.797315896E0,2.278565407E0,-1.044676495E1,2.093719840E-1
3.799791260E0,2.268994093E0,-1.036780167E1,2.955136001E-1
3.802266625E0,2.221137524E0,-1.024098206E1,2.955136001E-1
3.804742875E0,2.165803671E0,-1.024098206E1,3.337987661E-1
3.807218187E0,2.144268274E0,-1.030558777E1,4.486542344E-1
3.809693552E0,2.065304995E0,-1.043958569E1,4.558327198E-1
3.812168864E0,1.998306036E0,-1.055234814E1,4.944169819E-1
3.814644229E0,1.967199326E0,-1.064806080E1,5.111667514E-1
3.817119593E0,1.859223247E0,-1.083021450E1,6.116653085E-1
3.819594906E0,1.775474429E0,-1.099292660E1,6.667001843E-1
3.822070271E0,1.727617979E0,-1.114397335E1,7.336992621E-1
3.824545583E0,1.655833244E0,-1.127109241E1,8.512466550E-1
3.827020948E0,1.526321769E0,-1.140030479E1,9.134600163E-1
3.829496312E0,1.401894927E0,-1.146012497E1,9.828519225E-1
3.831971625E0,1.296311617E0,-1.155852985E1,1.167398334E0
3.834485687E0,1.195813060E0,-1.157527924E1,1.308874011E0
3.836961000E0,1.037587762E0,-1.157767200E1,1.476371527E0
3.839436364E0,8.964111805E-1,-1.164227867E1,1.656132340E0
3.841911677E0,7.310073376E-1,-1.173799133E1,1.794916034E0
3.844387041E0,6.017948985E-1,-1.183878899E1,2.027318954E0
3.846862354E0,4.268197417E-1,-1.194168091E1,2.259721994E0
3.849337718E0,2.733799815E-1,-1.204696465E1,2.456232548E0
3.851813031E0,9.391828626E-2,-1.221476173E1,2.731706142E0
3.854288343E0,-4.277170449E-2,-1.245434284E1,2.942573547E0
3.856763760E0,-1.983051747E-1,-1.269631672E1,3.129213810E0
3.859239073E0,-3.637090325E-1,-1.288804150E1,3.277868032E0
3.861714385E0,-4.809573591E-1,-1.312971687E1,3.414258718E0
3.864152771E0,-5.721837282E-1,-1.335015583E1,3.541377544E0
3.866628083E0,-8.045865893E-1,-1.348684597E1,3.632304668E0
3.869103448E0,-9.553344250E-1,-1.370489216E1,3.677768469E0
3.871578760E0,-1.015154958E0,-1.380060482E1,3.579662561E0
3.874054125E0,-1.132702470E0,-1.380778313E1,3.498306751E0
3.876529489E0,-1.302592874E0,-1.380778313E1,3.479164124E0
3.879004802E0,-1.348355532E0,-1.381017590E1,3.467200041E0
3.881480166E0,-1.487139225E0,-1.387956810E1,3.428615808E0
3.883955479E0,-1.755434513E0,-1.392981720E1,3.371187925E0
3.886430843E0,-2.004587173E0,-1.395853043E1,3.371187925E0
3.888906156E0,-2.301596165E0,-1.399232960E1,3.500699520E0
3.891381521E0,-2.533999205E0,-1.389153194E1,3.529413462E0
3.893857771E0,-2.768795013E0,-1.383889008E1,3.538984776E0
3.896333083E0,-2.962912560E0,-1.381017590E1,3.584448338E0
3.898808448E0,-3.123231649E0,-1.382213974E1,3.689732552E0
3.901283760E0,-3.228815079E0,-1.380060482E1,3.955634832E0
3.903759125E0,-3.298206806E0,-1.374317646E1,4.089931965E0
3.906234437E0,-3.420240879E0,-1.369023609E1,4.219144344E0
3.908709802E0,-3.460918903E0,-1.352513123E1,4.391726971E0
3.911185166E0,-3.413062334E0,-1.334058475E1,4.581058979E0
3.913660479E0,-3.259921789E0,-1.313450241E1,4.870889664E0
3.916135843E0,-3.041875839E0,-1.292393398E1,5.096114159E0
3.918611156E0,-2.845365286E0,-1.264128208E1,5.266004562E0
3.921086521E0,-2.567498684E0,-1.235863018E1,5.481657505E0
3.923600635E0,-2.323131800E0,-1.208076286E1,5.579763412E0
3.926075948E0,-2.062014818E0,-1.184836006E1,5.553442478E0
3.928551312E0,-1.757827282E0,-1.160160065E1,5.457729340E0
3.931026625E0,-1.561316729E0,-1.130698395E1,5.232504845E0
3.933501989E0,-1.343569875E0,-1.103390312E1,4.842175961E0
3.935977302E0,-1.211665511E0,-1.084217834E1,4.461118698E0
3.938452666E0,-1.168594718E0,-1.060499001E1,4.001397610E0
3.940927979E0,-1.130309582E0,-1.037976551E1,3.481556892E0
3.943403343E0,-1.252343535E0,-1.010668468E1,3.007179976E0
3.945878708E0,-1.448854089E0,-9.883852959E0,2.489732027E0
3.948354021E0,-1.800898194E0,-9.747462273E0,1.977069736E0
3.950829333E0,-2.136192322E0,-9.668498993E0,1.553241014E0
3.953305583E0,-2.538784742E0,-9.570094109E0,1.232004523E0
3.955780896E0,-2.967698336E0,-9.579665184E0,9.948160052E-1
3.958256260E0,-3.346063375E0,-9.632308006E0,8.129615188E-1
3.960731573E0,-3.743571043E0,-9.749855042E0,7.746763229E-1
3.963206937E0,-4.304089546E0,-9.914959908E0,5.805585980E-1
3.965682250E0,-4.788038254E0,-1.017846966E1,3.481557071E-1
3.968157614E0,-5.303092957E0,-1.043001461E1,2.715853751E-1
3.970632927E0,-5.844469070E0,-1.073450184E1,2.117647976E-1
3.973108291E0,-6.326025009E0,-1.100518990E1,1.229312643E-1
3.975583604E0,-6.721139908E0,-1.129023457E1,3.290131222E-3
3.978058968E0,-7.183552742E0,-1.159202957E1,-1.310070455E-1
3.980534281E0,-7.590930939E0,-1.186511040E1,-2.147558331E-1
3.983011104E0,-8.002795219E0,-1.203021526E1,-3.296113312E-1
3.985486416E0,-8.333304405E0,-1.215972614E1,-4.926223755E-1
3.987961781E0,-8.652147293E0,-1.222672558E1,-5.524429083E-1
3.990437093E0,-8.934800148E0,-1.228654575E1,-6.939185858E-1
3.992912458E0,-9.131011009E0,-1.224826050E1,-8.111668825E-1
3.995387771E0,-9.270093918E0,-1.213340569E1,-9.693922997E-1
3.997863135E0,-9.284450531E0,-1.195603752E1,-1.110568762E0
4.000338448E0,-9.205488205E0,-1.172602749E1,-1.177866936E0
4.002813812E0,-8.987442017E0,-1.145773220E1,-1.254437327E0
4.005289125E0,-8.683254242E0,-1.105065346E1,-1.261615753E0
4.007764489E0,-8.146663666E0,-1.063131142E1,-1.180259824E0
4.010239802E0,-7.451848030E0,-1.024337482E1,-1.084247708E0
4.012677614E0,-6.704390049E0,-9.773782730E0,-9.693922997E-1
4.015152927E0,-5.983551979E0,-9.328120232E0,-7.537391186E-1
4.017628291E0,-5.166702271E0,-9.019146919E0,-6.149554253E-1
4.020103604E0,-4.301696777E0,-8.674281120E0,-4.399802685E-1
4.022578968E0,-3.659822226E0,-8.353343964E0,-3.490529954E-1
4.025054333E0,-3.087339401E0,-8.113762856E0,-1.214357466E-1
4.027529646E0,-2.493321180E0,-7.910073280E0,2.285145670E-1
4.030005010E0,-1.767398596E0,-7.732705593E0,6.308078766E-1
4.032480323E0,-9.984052777E-1,-7.715955734E0,9.014959335E-1
4.034955687E0,-1.767697781E-1,-7.871788502E0,1.038185954E0
4.037431000E0,1.824527234E-1,-7.957930088E0,1.153041363E0
4.039906364E0,1.824527234E-1,-7.910073280E0,1.045364380E0
4.042383135E0,4.722833633E-1,-7.845467091E0,9.158528447E-1
4.044858448E0,8.700901270E-1,-7.843074322E0,1.057328463E0
4.047333812E0,1.102493048E0,-7.823931694E0,1.339980721E0
4.049809125E0,1.253240824E0,-7.943572998E0,1.533799291E0
4.052284489E0,1.406680584E0,-8.015357971E0,1.687239051E0
4.054759854E0,1.574178219E0,-7.981858253E0,1.775773525E0
4.057235166E0,1.715653777E0,-8.001000404E0,1.922034740E0
4.059710531E0,1.679761529E0,-7.986643791E0,1.984248161E0
4.062185843E0,1.689332843E0,-7.960322857E0,1.974676847E0
4.064661208E0,1.713261008E0,-7.898109436E0,1.811665893E0
4.067136521E0,1.706082582E0,-7.996214867E0,1.744666815E0
4.069611885E0,1.682154298E0,-8.020143509E0,1.632204175E0
4.072102562E0,1.607677698E0,-8.053941727E0,1.373480201E0
4.074577979E0,1.447358608E0,-8.135297775E0,9.948160052E-1
4.077053396E0,1.325025558E0,-8.214261055E0,5.805585980E-1
4.079528812E0,1.255633712E0,-8.231010437E0,2.667997181E-1
4.082004281E0,1.114457130E0,-8.264510155E0,8.973084623E-4
4.084479698E0,8.796614408E-1,-8.288438797E0,-2.171486616E-1
4.086955114E0,7.190431952E-1,-8.331808090E0,-4.830510616E-1
4.089430531E0,5.225326419E-1,-8.358129501E0,-6.747759581E-1
4.091906000E0,3.215355575E-1,-8.434700012E0,-9.526425004E-1
4.094381416E0,1.226321608E-1,-8.437092781E0,-1.089033365E0
4.096856833E0,4.845465720E-2,-8.482556343E0,-1.144068360E0
4.099332250E0,-7.627122104E-2,-8.470592499E0,-1.211366415E0
4.101830010E0,-2.078764737E-1,-8.434700012E0,-1.309472203E0
4.104305427E0,-3.469592929E-1,-8.360522270E0,-1.321436286E0
4.106780843E0,-5.000999570E-1,-8.290831566E0,-1.249651670E0
4.109256260E0,-6.678966284E-1,-8.238189697E0,-1.230509043E0
4.111731729E0,-8.261220455E-1,-8.173583031E0,-1.029212832E0
4.114207146E0,-8.859425783E-1,-8.128119469E0,-9.406784177E-1
4.116682562E0,-1.092024446E0,-8.065905571E0,-8.638089895E-1
4.119157979E0,-1.252343535E0,-7.974679470E0,-8.183453679E-1
4.121633448E0,-1.458425403E0,-7.811967850E0,-7.872386575E-1
4.124108864E0,-1.640578985E0,-7.718348503E0,-8.231309652E-1
4.126584281E0,-1.872682810E0,-7.627421379E0,-8.135597110E-1
4.129059698E0,-1.954337835E0,-7.507780075E0,-7.609176040E-1
4.131497041E0,-1.966302037E0,-7.435696602E0,-7.417750359E-1
4.133972458E0,-2.076371908E0,-7.304090977E0,-6.795616150E-1
4.136447927E0,-2.138585329E0,-7.083652496E0,-6.747759581E-1
4.138923343E0,-2.213061810E0,-6.995117664E0,-6.002993584E-1
4.141398760E0,-2.303989172E0,-6.822535515E0,-5.261218548E-1
4.143874177E0,-2.366202593E0,-6.690930367E0,-3.921238184E-1
4.146349593E0,-2.467000246E0,-6.506383896E0,-3.610171080E-1
4.148825062E0,-2.507678032E0,-6.360122681E0,-2.817548811E-1
4.151300479E0,-2.529213428E0,-6.257231236E0,-1.884347796E-1
4.153775896E0,-2.548356056E0,-6.084649086E0,-1.692921966E-1
4.156251312E0,-2.653640270E0,-5.969793320E0,-3.499503061E-2
4.158726781E0,-2.679961443E0,-5.886044502E0,5.114658549E-2
4.161204125E0,-2.660818815E0,-5.766104221E0,5.114658549E-2
4.163679541E0,-2.704188585E0,-5.723033428E0,1.061815023E-1
4.166155010E0,-2.689831734E0,-5.718247890E0,2.069791555E-1
4.168630427E0,-2.687438965E0,-5.663212776E0,2.620140910E-1
4.171105843E0,-2.660818815E0,-5.682355404E0,3.792623878E-1
4.173581260E0,-2.557927370E0,-5.648856163E0,4.390829504E-1
4.176056677E0,-2.502892494E0,-5.667998791E0,4.824528694E-1
4.178532146E0,-2.467000246E0,-5.703890800E0,4.534398913E-1
4.181007562E0,-2.423929453E0,-5.715855122E0,4.534398913E-1
4.183482979E0,-2.380559444E0,-5.744568825E0,5.183451772E-1
4.185958396E0,-2.402094841E0,-5.804389477E0,6.260222197E-1
4.188433864E0,-2.335095882E0,-5.876473427E0,6.762714982E-1
4.190944958E0,-2.248954296E0,-5.979364872E0,6.978068948E-1
4.193420375E0,-2.263311148E0,-6.048756599E0,7.097710371E-1
4.195895791E0,-2.220240355E0,-6.094220161E0,7.507480979E-1
4.198371208E0,-2.189133644E0,-6.161518097E0,8.201399446E-1
4.200846625E0,-2.303989172E0,-6.211767673E0,9.373882413E-1
4.203322041E0,-2.406880379E0,-6.345765591E0,1.105184913E0
4.205797510E0,-2.428714991E0,-6.472884178E0,1.222433209E0
4.208272927E0,-2.411666155E0,-6.559025764E0,1.265504122E0
4.210748343E0,-2.533999205E0,-6.702894211E0,1.301695466E0
4.213223812E0,-2.608176708E0,-6.748358250E0,1.445264935E0
4.215699229E0,-2.617748022E0,-6.808178425E0,1.545763373E0
4.218174646E0,-2.771187782E0,-6.954440117E0,1.663310885E0
4.220650114E0,-2.869293451E0,-7.026224613E0,1.898106575E0
4.223125583E0,-2.871686220E0,-7.059724331E0,2.132902384E0
4.225601000E0,-2.869293451E0,-7.047760010E0,2.245364904E0
4.228076416E0,-2.979662418E0,-7.119544506E0,2.413161755E0
4.230551885E0,-3.056232691E0,-7.184150696E0,2.441875458E0
4.233027250E0,-3.101696253E0,-7.270591736E0,2.482553482E0
4.235502718E0,-3.149552822E0,-7.277770042E0,2.544766903E0
4.237978135E0,-3.187838078E0,-7.294519901E0,2.561516523E0
4.240453552E0,-3.139981508E0,-7.316055298E0,2.539981127E0
4.242929021E0,-3.123231649E0,-7.268198967E0,2.535195589E0
4.245404437E0,-3.027518749E0,-7.241877556E0,2.523231506E0
4.247879854E0,-3.089732170E0,-7.241877556E0,2.451446772E0
4.250355166E0,-3.151945591E0,-7.172186852E0,2.451446772E0
4.252830583E0,-3.005983353E0,-7.081259727E0,2.396411896E0
4.255306000E0,-2.960519791E0,-7.031010151E0,2.463410854E0
4.257781416E0,-2.936292410E0,-7.004689217E0,2.504088879E0
4.260256885E0,-2.838186741E0,-6.949355125E0,2.463410854E0
4.262732250E0,-2.697010279E0,-6.784250259E0,2.492124796E0
4.265207718E0,-2.605783939E0,-6.666703224E0,2.434697151E0
4.267683135E0,-2.469393015E0,-6.499205589E0,2.492124796E0
4.270158552E0,-2.292025089E0,-6.460920334E0,2.556730986E0
4.272633968E0,-2.136192322E0,-6.305087566E0,2.681456804E0
4.275109385E0,-2.018944025E0,-6.134898186E0,2.698206663E0
4.277584854E0,-1.892124534E0,-6.053542137E0,2.662314177E0
4.280060062E0,-1.767398596E0,-5.974578857E0,2.712563515E0
4.282535531E0,-1.767398596E0,-5.900401592E0,2.772384167E0
4.285010948E0,-1.748256087E0,-5.878866196E0,2.916252613E0
4.287486364E0,-1.664507270E0,-5.866602898E0,3.040679455E0
4.289961781E0,-1.674078584E0,-5.871388435E0,3.203690529E0
4.292437198E0,-1.769791484E0,-5.898008823E0,3.433401346E0
4.294912614E0,-1.750648856E0,-6.003293037E0,3.742673635E0
4.297388083E0,-1.669292927E0,-6.079863071E0,4.070789337E0
4.299863552E0,-1.659721613E0,-6.134898186E0,4.377369881E0
4.302338916E0,-1.676471353E0,-6.245266914E0,4.710271358E0
4.304814333E0,-1.659721613E0,-6.381658077E0,5.210969448E0
4.307289802E0,-1.575673699E0,-6.544669151E0,5.673382282E0
4.309764854E0,-1.362712502E0,-6.755536556E0,6.176473618E0
4.312240271E0,-1.120738268E0,-7.042974472E0,6.746563435E0
4.314715739E0,-9.026923180E-1,-7.289734364E0,7.309474945E0
4.317191156E0,-6.272186637E-1,-7.488338470E0,7.843672752E0
4.319666625E0,-1.073779166E-1,-7.893323898E0,8.265108109E0
4.322142041E0,3.311068416E-1,-8.207082748E0,8.701200485E0
4.324617458E0,8.724829555E-1,-8.643174171E0,9.170791626E0
4.327092875E0,1.433001637E0,-9.153444290E0,9.525228500E0
4.329568343E0,1.885544300E0,-9.673284531E0,9.776774406E0
4.332043760E0,2.309672117E0,-1.018325520E1,9.927821159E0
4.334519177E0,2.798406124E0,-1.074646568E1,1.006660461E1
4.336994593E0,3.227020502E0,-1.132373428E1,1.024875832E1
4.339451521E0,3.454637766E0,-1.189861012E1,1.033250713E1
4.341926937E0,3.579363585E0,-1.240170097E1,1.034447098E1
4.344402406E0,3.651148319E0,-1.280399418E1,1.035643578E1
4.346877771E0,3.792623997E0,-1.305314636E1,1.040429211E1
4.349353239E0,3.737289906E0,-1.322094345E1,1.036839962E1
4.351828656E0,3.502494097E0,-1.323290730E1,1.023918724E1
4.354304073E0,3.241377354E0,-1.301246834E1,9.879665375E0
4.356779541E0,2.934797049E0,-1.264606762E1,9.467801094E0
4.359254958E0,2.431705952E0,-1.224108219E1,8.971888542E0
4.361730375E0,1.945663929E0,-1.170927715E1,8.399405479E0
4.364205791E0,1.610070586E0,-1.113679504E1,7.742875099E0
4.366681260E0,1.353739381E0,-1.053559780E1,7.110571384E0
4.369156000E0,1.087836981E0,-9.972686768E0,6.502196312E0
4.371631416E0,8.294121623E-1,-9.428917885E0,5.843272686E0
4.374106885E0,5.898307562E-1,-8.928219795E0,5.103292465E0
4.376582302E0,2.614158690E-1,-8.441878319E0,4.434797764E0
4.379057718E0,1.974078640E-2,-7.989036560E0,3.910171270E0
4.381533135E0,-2.174477577E-1,-7.581957817E0,3.457628727E0
4.384008552E0,-5.144568682E-1,-7.246663570E0,3.119642496E0
4.386484021E0,-7.636095285E-1,-6.913462639E0,2.870489836E0
4.388959437E0,-9.672985673E-1,-6.513562202E0,2.719742060E0
4.391434854E0,-1.159023523E0,-6.228517532E0,2.621337175E0
4.393910271E0,-1.415354609E0,-5.921936989E0,2.408375978E0
4.396385739E0,-1.561316729E0,-5.632106304E0,2.290828466E0
4.398866937E0,-1.635793328E0,-5.339882851E0,2.118545294E0
4.401342354E0,-1.753041744E0,-5.100301266E0,1.826321840E0
4.403817771E0,-1.793719649E0,-4.896612644E0,1.375872970E0
4.406293239E0,-1.867897153E0,-4.762315273E0,8.584251404E-1
4.408768656E0,-2.026122570E0,-4.731208801E0,5.949155092E-1
4.411244073E0,-2.174776793E0,-4.702494621E0,3.314059377E-1
4.413719489E0,-2.373380899E0,-4.803292274E0,-9.272187948E-2
4.416194906E0,-2.704188585E0,-5.011467934E0,-6.002993584E-1
4.418670375E0,-3.051447153E0,-5.320441246E0,-1.335793257E0
4.421145791E0,-3.568894863E0,-5.953043461E0,-2.030609131E0
4.423621208E0,-4.186841488E0,-6.820142746E0,-2.550449848E0
4.426096677E0,-4.948656559E0,-7.900502205E0,-2.825923443E0
4.428547458E0,-5.930910110E0,-9.388239861E0,-3.149253607E0
4.431022875E0,-7.030412197E0,-1.106022453E1,-3.501297712E0
4.433498343E0,-8.082057953E0,-1.290239906E1,-3.652344704E0
4.435973760E0,-9.035298347E0,-1.480678654E1,-3.482155085E0
4.438449177E0,-9.972088814E0,-1.674228096E1,-3.000599623E0
4.440924593E0,-1.064507008E1,-1.854826355E1,-2.308475733E0
4.443400010E0,-1.072163963E1,-1.990918159E1,-1.331007600E0
4.445875479E0,-1.046770191E1,-2.098236275E1,-2.937189937E-1
4.448350896E0,-9.981659889E0,-2.173191452E1,4.654040039E-1
4.450826312E0,-9.183952332E0,-2.190688896E1,1.155434251E0
4.453301729E0,-8.192127228E0,-2.162902260E1,1.787737608E0
4.455777146E0,-7.154839039E0,-2.101107597E1,2.463410854E0
4.458256260E0,-5.954838276E0,-2.020619011E1,2.834597588E0
4.460731677E0,-4.792823792E0,-1.917129517E1,3.117249727E0
4.463207146E0,-3.576073408E0,-1.786810493E1,3.488735437E0
4.465682562E0,-2.565105915E0,-1.664387703E1,3.874279022E0
4.468157979E0,-1.424925923E0,-1.548933887E1,4.073182583E0
4.470633396E0,-2.006980032E-1,-1.424866104E1,3.958027840E0
4.473108864E0,4.746761918E-1,-1.313450241E1,3.364009619E0
4.475584229E0,5.970092416E-1,-1.191296673E1,2.365305185E0
4.478059698E0,2.662015259E-1,-1.062173939E1,1.047757268E0
4.480535114E0,-1.336989701E-1,-9.366405487E0,-5.476573110E-1
4.483010531E0,-5.865406394E-1,-8.343772888E0,-1.989931107E0
4.485485948E0,-1.290628672E0,-7.179365158E0,-3.122932673E0
4.487995114E0,-1.851147413E0,-6.120541096E0,-3.740879059E0
4.490470583E0,-2.325524569E0,-5.263013363E0,-3.958925009E0
4.492946000E0,-2.749652386E0,-4.345664978E0,-3.779164314E0
4.495421416E0,-2.878864765E0,-3.636492252E0,-3.204288721E0
4.497896833E0,-3.022733212E0,-3.090330362E0,-2.447259426E0
4.500372250E0,-3.329313517E0,-2.640180588E0,-1.623231053E0
4.502847718E0,-3.573680639E0,-2.249552488E0,-8.159525394E-1
4.505323135E0,-3.911367655E0,-2.005185366E0,-1.716850251E-1
4.507798552E0,-4.409673214E0,-1.866401672E0,1.899302900E-1
4.510273968E0,-4.876871586E0,-1.844866276E0,3.481557071E-1
4.512749437E0,-5.377270699E0,-1.952543259E0,2.093719840E-1
4.515224854E0,-5.794219971E0,-2.194517374E0,-2.434697002E-1
4.517699593E0,-6.117550373E0,-2.467598438E0,-9.646066427E-1
4.520175010E0,-6.335596085E0,-2.857927561E0,-1.791027784E0
4.522650479E0,-6.565606117E0,-3.365804195E0,-2.583949327E0
4.525125896E0,-6.723532677E0,-3.825824261E0,-3.458226919E0
4.527601364E0,-6.833901405E0,-4.388735771E0,-4.243969917E0
4.530076729E0,-6.967899323E0,-5.054538727E0,-4.876273632E0
4.532552146E0,-7.075875759E0,-5.761318684E0,-5.362614632E0
4.535027614E0,-7.090232372E0,-6.492026806E0,-5.468197823E0
4.537503083E0,-6.939185619E0,-7.198507786E0,-5.405685425E0
4.539978448E0,-6.790830612E0,-7.938787460E0,-5.317151070E0
4.542453864E0,-6.680461884E0,-8.753244400E0,-5.106283665E0
4.544929333E0,-6.369095802E0,-9.625128746E0,-4.845166683E0
4.547404646E0,-6.098407745E0,-1.044197845E1,-4.471587181E0
4.549880010E0,-5.753541946E0,-1.132134151E1,-3.963710785E0
4.552355479E0,-5.271986485E0,-1.220518970E1,-3.410370588E0
4.554830896E0,-4.675575256E0,-1.296939754E1,-2.758625507E0
4.557306312E0,-3.875475407E0,-1.373360538E1,-2.078465462E0
4.559781781E0,-2.979662418E0,-1.435873032E1,-1.376471281E0
4.562257146E0,-1.959123492E0,-1.486421394E1,-6.699903607E-1
4.564732614E0,-7.372884750E-1,-1.519472313E1,-4.217349738E-2
4.567208031E0,6.759724021E-1,-1.536969757E1,5.087739229E-1
4.569683448E0,1.899901152E0,-1.534816265E1,1.059721351E0
4.572158916E0,3.093022346E0,-1.528086472E1,1.718345761E0
4.574634333E0,4.326522350E0,-1.504367638E1,2.247757673E0
4.577071989E0,5.330311775E0,-1.458156204E1,2.753241539E0
4.579547406E0,6.020341873E0,-1.410000610E1,3.119642496E0
4.582022875E0,6.420242310E0,-1.368305683E1,3.414258718E0
4.584498291E0,6.655037880E0,-1.317308712E1,3.524627686E0
4.586973708E0,6.623931408E0,-1.264606762E1,3.519842148E0
4.589449125E0,6.509075642E0,-1.211665535E1,3.366402388E0
4.591924541E0,6.341279030E0,-1.156570816E1,3.203690529E0
4.594400010E0,5.912365437E0,-1.094507027E1,2.956930637E0
4.596875427E0,5.524429321E0,-1.032712364E1,2.741277456E0
4.599350843E0,5.030909538E0,-9.745069504E0,2.599801779E0
4.601826260E0,4.520640373E0,-9.213264465E0,2.422732830E0
4.604301729E0,3.902693748E0,-8.734101295E0,2.312364101E0
4.606815635E0,3.342175007E0,-8.348558426E0,1.984248161E0
4.609291052E0,2.817548752E0,-8.034799576E0,1.711167336E0
4.611766468E0,2.283350945E0,-7.828717709E0,1.328016520E0
4.614241885E0,1.682154298E0,-7.725526810E0,1.009472013E0
4.616717302E0,1.092921734E0,-7.634599686E0,7.651050687E-1
4.619192771E0,4.674977362E-1,-7.598707199E0,4.776672125E-1
4.621668135E0,-8.823533356E-2,-7.574779034E0,2.691925466E-1
4.624143604E0,-4.833501875E-1,-7.648956776E0,4.636093974E-2
4.626619073E0,-8.859425783E-1,-7.713562965E0,-1.597209126E-1
4.629094489E0,-1.211665511E0,-7.802396297E0,-3.801597059E-1
4.631569906E0,-1.534995675E0,-7.950751305E0,-4.375874400E-1
4.634045323E0,-1.846361756E0,-8.149654388E0,-4.926223755E-1
4.636520166E0,-2.109871387E0,-8.331808090E0,-4.088735580E-1
4.638995531E0,-2.315953255E0,-8.549555779E0,-3.442673683E-1
4.641471000E0,-2.557927370E0,-8.743673325E0,-3.442673683E-1
4.643946416E0,-2.886043310E0,-8.822636604E0,-2.267199457E-1
4.646421885E0,-3.063411236E0,-8.944969177E0,-1.597209126E-1
4.648897302E0,-3.111267567E0,-9.016754150E0,-8.075776696E-2
4.651372718E0,-3.195016384E0,-9.038289070E0,-1.477568001E-1
4.653848135E0,-3.274278641E0,-9.007183075E0,-2.482553422E-1
4.656323604E0,-3.369991541E0,-9.000003815E0,-3.777668774E-1
4.658799021E0,-3.386741400E0,-8.964112282E0,-5.667998791E-1
4.661274437E0,-3.516252756E0,-8.901898384E0,-6.317051649E-1
4.663749854E0,-3.647858143E0,-8.722137451E0,-9.478568435E-1
4.666225635E0,-3.726821184E0,-8.563912392E0,-1.220937729E0
4.668701000E0,-3.791726589E0,-8.389236450E0,-1.304686546E0
4.671176468E0,-3.856332779E0,-8.257331848E0,-1.333400369E0
4.673651885E0,-3.844368696E0,-8.175975800E0,-1.275972724E0
4.676127302E0,-3.750749588E0,-8.238189697E0,-1.072283626E0
4.678602718E0,-3.695714474E0,-8.166404724E0,-9.669994712E-1
4.681078187E0,-3.748356581E0,-7.974679470E0,-1.031605721E0
4.683553604E0,-3.504288673E0,-8.221439362E0,-7.585247755E-1
4.686029073E0,-3.106482029E0,-8.278866768E0,-5.931209326E-1
4.688504489E0,-2.814258575E0,-8.219046593E0,-4.902295470E-1
4.690979906E0,-2.538784742E0,-8.216653824E0,-3.729812205E-1
4.693455323E0,-2.351845503E0,-8.264510155E0,-3.466601670E-1
4.695930687E0,-2.148455620E0,-8.315058708E0,-4.160520434E-1
4.698406104E0,-2.021337032E0,-8.408378601E0,-4.543372095E-1
4.700881521E0,-1.887338877E0,-8.489734650E0,-5.787639618E-1
4.703356937E0,-1.657328725E0,-8.609675407E0,-5.667998791E-1
4.705832406E0,-1.444068432E0,-8.750851631E0,-4.950151742E-1
4.708307823E0,-1.297807217E0,-8.836993217E0,-3.466601670E-1
4.710783239E0,-1.094417214E0,-8.959325790E0,-2.961117923E-1
4.713258656E0,-8.691928387E-1,-9.071788788E0,-2.793620527E-1
4.715734125E0,-7.109674215E-1,-9.222835541E0,-2.386840582E-1
4.718209541E0,-5.650052428E-1,-9.366405487E0,-1.477568001E-1
4.720684958E0,-3.900300860E-1,-9.503094673E0,-1.106680464E-2
4.723160375E0,-3.158525825E-1,-9.622735977E0,7.986045629E-2
4.725598031E0,-2.006980032E-1,-9.692427635E0,9.661021084E-2
4.728073448E0,-1.405783277E-2,-9.730711937E0,1.827518344E-1
4.730548864E0,6.759724021E-2,-9.788140297E0,2.428714931E-1
4.733024281E0,1.728814393E-1,-9.764211655E0,2.069791555E-1
4.735499750E0,2.470589429E-1,-9.759426117E0,2.213360965E-1
4.737975166E0,2.880360186E-1,-9.747462273E0,2.285145670E-1
4.740450583E0,3.741776347E-1,-9.709177017E0,2.644068897E-1
4.742926052E0,3.909274042E-1,-9.651749611E0,2.811566591E-1
4.745401468E0,4.627120793E-1,-9.579665184E0,1.875374764E-1
4.747876885E0,4.746761918E-1,-9.462417603E0,1.037886813E-1
4.750352302E0,5.488536954E-1,-9.378369331E0,1.612164229E-1
4.752827771E0,5.249254704E-1,-9.215657234E0,8.703892678E-2
4.755339385E0,4.507479668E-1,-9.093324661E0,7.268198580E-2
4.757814802E0,4.124628007E-1,-8.992825508E0,8.225327730E-2
4.760290218E0,2.856431901E-1,-8.892327309E0,-2.781656384E-2
4.762765635E0,1.704886109E-1,-8.772386551E0,-3.260220960E-2
4.765241104E0,1.202393398E-1,-8.686244965E0,2.721835673E-2
4.767716521E0,1.256231871E-2,-8.667102814E0,1.037886813E-1
4.770191937E0,-6.669992954E-2,-8.671888351E0,1.157527938E-1
4.772667354E0,-8.823533356E-2,-8.655138969E0,1.444666684E-1
4.775142823E0,-1.169492081E-1,-8.736495018E0,1.612164229E-1
4.777618239E0,-2.270190418E-1,-8.789136887E0,1.205384433E-1
4.780093656E0,-3.302095234E-1,-8.836993217E0,1.181456149E-1
4.782569073E0,-4.235295951E-1,-8.925827026E0,1.253240854E-1
4.785045896E0,-5.168496966E-1,-8.925827026E0,-2.781656384E-2
4.787521312E0,-6.918248534E-1,-8.868398666E0,-1.645065546E-1
4.789996781E0,-9.218349457E-1,-8.928219795E0,-2.003988922E-1
4.792472198E0,-1.127916813E0,-8.978468895E0,-2.291127741E-1
4.794947666E0,-1.300199986E0,-8.997611046E0,-2.267199457E-1
4.797423083E0,-1.472782373E0,-9.007183075E0,-2.147558331E-1
4.799898500E0,-1.546959877E0,-8.995218277E0,-2.362912297E-1
4.802373916E0,-1.726720691E0,-8.966505051E0,-3.008974493E-1
4.804849385E0,-1.863111496E0,-8.918647766E0,-3.681955934E-1
4.807324802E0,-1.963909149E0,-8.889934540E0,-3.466601670E-1
4.809800218E0,-2.073979139E0,-8.829814911E0,-3.705884218E-1
4.812275635E0,-2.150848389E0,-8.774779320E0,-4.974080026E-1
4.814712562E0,-2.208276272E0,-8.734101295E0,-6.197410822E-1
4.817187979E0,-2.246561289E0,-8.705388069E0,-6.795616150E-1
4.819663448E0,-2.299203396E0,-8.695816994E0,-7.441678643E-1
4.822138864E0,-2.327917337E0,-8.750851631E0,-8.087740541E-1
4.824614281E0,-2.308774710E0,-8.774779320E0,-8.207381964E-1
4.827089698E0,-2.294417858E0,-8.779565811E0,-8.111668825E-1
4.829565114E0,-2.251347065E0,-8.772386551E0,-8.832506537E-1
4.832040583E0,-2.181955099E0,-8.796315193E0,-8.709874153E-1
4.834516000E0,-2.172383785E0,-8.868398666E0,-8.350951076E-1
4.836991416E0,-2.071586132E0,-8.933005333E0,-8.087740541E-1
4.839466833E0,-2.023729801E0,-8.968897820E0,-8.566305041E-1
4.841942250E0,-1.975873351E0,-9.057432175E0,-8.494520187E-1
4.844395218E0,-1.959123492E0,-9.122337341E0,-7.393822074E-1
4.846870635E0,-1.928016901E0,-9.174979210E0,-8.231309652E-1
4.849346104E0,-1.863111496E0,-9.270691872E0,-8.470591903E-1
4.851821521E0,-1.846361756E0,-9.395418167E0,-8.446664214E-1
4.854296937E0,-1.753041744E0,-9.467203140E0,-8.757730722E-1
4.856772354E0,-1.650150299E0,-9.565308571E0,-8.303094506E-1
4.859247771E0,-1.607079506E0,-9.605986595E0,-7.657032609E-1
4.861723239E0,-1.561316729E0,-9.641879082E0,-6.939185858E-1
4.864198604E0,-1.424925923E0,-9.663713455E0,-6.508477330E-1
4.866674073E0,-1.221236825E0,-9.634700775E0,-6.436693072E-1
4.869149489E0,-1.139880896E0,-9.625128746E0,-6.460621357E-1
4.871624958E0,-1.005583763E0,-9.550951958E0,-6.098706722E-1
4.874154802E0,-8.596215248E-1,-9.476774216E0,-6.269195080E-1
4.876630218E0,-7.516453862E-1,-9.448060036E0,-5.835496187E-1
4.879105687E0,-6.224330068E-1,-9.400203705E0,-5.428716540E-1
4.881581104E0,-5.482555032E-1,-9.378369331E0,-4.734797776E-1
4.884056521E0,-4.785645306E-1,-9.375976562E0,-4.974080026E-1
4.886531937E0,-3.637090325E-1,-9.409774780E0,-3.825525343E-1
4.889007354E0,-2.967100143E-1,-9.433703423E0,-2.985046208E-1
4.891482823E0,-1.648056656E-1,-9.421739578E0,-2.937189937E-1
4.893958187E0,-1.408774406E-1,-9.397810936E0,-2.578266263E-1
4.896433656E0,-9.302098304E-2,-9.421739578E0,-2.769692242E-1
4.898909073E0,-3.080759197E-2,-9.462417603E0,-2.458625287E-1
4.901384541E0,-9.272187948E-3,-9.505488396E0,-2.578266263E-1
4.903865687E0,1.974078640E-2,-9.543772697E0,-1.908276081E-1
4.906341104E0,-4.486542661E-3,-9.594022751E0,-1.549352705E-1
4.908816521E0,-3.080759197E-2,-9.589237213E0,-1.429711580E-1
4.911291937E0,-1.073779166E-1,-9.574879646E0,-1.166501045E-1
4.913767406E0,-1.600200087E-1,-9.536594391E0,-2.303091809E-2
4.916242823E0,-2.632105052E-1,-9.625128746E0,1.046859939E-2
4.918718239E0,-3.302095234E-1,-9.666106224E0,1.420738399E-1
4.921193656E0,-3.708875179E-1,-9.678070068E0,2.380858511E-1
4.923669125E0,-4.235295951E-1,-9.699605942E0,3.577269912E-1
4.926144541E0,-4.833501875E-1,-9.757033348E0,5.303093195E-1
4.928619958E0,-5.745765567E-1,-9.807282448E0,7.073782086E-1
4.931095375E0,-6.439684033E-1,-9.816853523E0,8.033902049E-1
4.933533083E0,-7.348956466E-1,-9.812067986E0,9.924231768E-1
4.936008500E0,-7.998009920E-1,-9.831211090E0,1.174576759E0
4.938483968E0,-8.955138922E-1,-9.852746010E0,1.371087432E0
4.940959385E0,-9.433703423E-1,-9.963115692E0,1.517049551E0
4.943434802E0,-1.041476011E0,-1.003729248E1,1.651346684E0
4.945910218E0,-1.111167073E0,-1.008754253E1,1.840678811E0
4.948385635E0,-1.118345499E0,-1.019073296E1,1.962712765E0
4.950861052E0,-1.170987606E0,-1.026969528E1,2.087438583E0
4.953336521E0,-1.257129192E0,-1.040369415E1,2.235793591E0
4.955811937E0,-1.302592874E0,-1.046859932E1,2.302792788E0
4.958287354E0,-1.345962763E0,-1.054516983E1,2.348256350E0
4.960762823E0,-1.348355532E0,-1.062652493E1,2.394019127E0
4.963237302E0,-1.300199986E0,-1.069830990E1,2.350649118E0
4.965712718E0,-1.343569875E0,-1.078714371E1,2.266900301E0
4.968188187E0,-1.424925923E0,-1.080628586E1,2.183151484E0
4.970663604E0,-1.417747378E0,-1.083978558E1,2.132902384E0
4.973138968E0,-1.448854089E0,-1.090199947E1,2.020140409E0
4.975614437E0,-1.460818172E0,-1.095464134E1,1.886142492E0
4.978089854E0,-1.444068432E0,-1.107218838E1,1.778166294E0
4.980565323E0,-1.503889084E0,-1.127109241E1,1.658525229E0
4.983040687E0,-1.590030670E0,-1.146969604E1,1.603490233E0
4.985516156E0,-1.601994753E0,-1.178345490E1,1.526620865E0
4.987991573E0,-1.568495274E0,-1.210947704E1,1.428515077E0
4.990467041E0,-1.472782373E0,-1.250698471E1,1.328016520E0
4.992981000E0,-1.331306696E0,-1.284706497E1,1.260718465E0
4.995456364E0,-1.240379453E0,-1.323290730E1,1.227218866E0
4.997931833E0,-1.132702470E0,-1.357777309E1,1.208076358E0
5.000407250E0,-9.385846853E-1,-1.394178104E1,1.174576759E0
5.002882718E0,-7.013961077E-1,-1.425105381E1,1.112363458E0
5.005358083E0,-4.594219327E-1,-1.458874035E1,1.121934772E0
5.007833552E0,-2.751746178E-1,-1.487857151E1,1.153041363E0
5.010308968E0,-1.169492081E-1,-1.512054539E1,1.167398334E0
5.012784437E0,7.956135273E-2,-1.527368641E1,1.193719387E0
5.015259854E0,3.574278951E-1,-1.544626808E1,1.328016520E0
5.017735271E0,5.778666735E-1,-1.542712593E1,1.457229018E0
5.020210687E0,7.932206988E-1,-1.537926960E1,1.613061547E0
5.022686052E0,1.001695395E0,-1.536012650E1,1.826321840E0
5.025161468E0,1.198205948E0,-1.527607918E1,1.991426587E0
5.027636885E0,1.399502158E0,-1.526889992E1,2.283650160E0
5.030112302E0,1.557428479E0,-1.520668697E1,2.561516523E0
5.032587771E0,1.679761529E0,-1.518993759E1,2.858525753E0
5.035063135E0,1.835294962E0,-1.518515205E1,3.157927752E0
5.037538604E0,1.950449586E0,-1.509661674E1,3.529413462E0
5.040014021E0,1.998306036E0,-1.501017666E1,3.852743626E0
5.042489489E0,2.027019978E0,-1.483550072E1,4.214358807E0
5.044964906E0,1.948056698E0,-1.458395481E1,4.499403954E0
5.047440323E0,1.880758643E0,-1.433719540E1,4.729413986E0
5.049915739E0,1.792224169E0,-1.393938828E1,4.913960457E0
5.052390479E0,1.682154298E0,-1.358495140E1,5.084149837E0
5.054865896E0,1.516750455E0,-1.321137238E1,5.187041283E0
5.057341312E0,1.392323732E0,-1.280877972E1,5.237290382E0
5.059816729E0,1.212562919E0,-1.246152115E1,5.268397331E0
