"Time (s)","Acceleration x (m/s^2)","Acceleration y (m/s^2)","Acceleration z (m/s^2)"
2.279054500E-2,3.624816895E0,4.285614014E0,8.379699707E0
2.529298600E-2,3.730163574E0,4.225769043E0,8.456314087E0
2.779542800E-2,3.778045654E0,4.127609253E0,8.429977417E0
3.032838700E-2,3.854660034E0,4.012680054E0,8.540115356E0
3.283082800E-2,3.928878784E0,3.950439453E0,8.504211426E0
3.536378700E-2,3.957611084E0,3.847488403E0,8.482650757E0
3.786622900E-2,4.070144653E0,3.778045654E0,8.494628906E0
4.036867000E-2,4.177886963E0,3.675094604E0,8.578430176E0
4.287111100E-2,4.230560303E0,3.624816895E0,8.628707886E0
4.537355300E-2,4.299987793E0,3.586517334E0,8.614334106E0
4.787599400E-2,4.343078613E0,3.541030884E0,8.655044556E0
5.040895300E-2,4.388565063E0,3.514694214E0,8.678985596E0
5.291139500E-2,4.407730103E0,3.521865845E0,8.712493896E0
5.538331800E-2,4.479553223E0,3.490753174E0,8.652648926E0
5.788576000E-2,4.450820923E0,3.500320435E0,8.662216187E0
6.038820100E-2,4.429275513E0,3.481170654E0,8.623916626E0
6.289064300E-2,4.402938843E0,3.490753174E0,8.592788696E0
6.539308400E-2,4.347869873E0,3.517089844E0,8.556869507E0
6.789552500E-2,4.256896973E0,3.519470215E0,8.506591797E0
7.042848400E-2,4.273651123E0,3.531448364E0,8.458709717E0
7.293092600E-2,4.158721924E0,3.588912964E0,8.384490967E0
7.543336700E-2,4.094085693E0,3.564971924E0,8.362945557E0
7.793580900E-2,4.046203613E0,3.596084595E0,8.276748657E0
8.043825000E-2,4.024658203E0,3.691864014E0,8.204925537E0
8.294069100E-2,3.919311523E0,3.730163574E0,8.130706787E0
8.547365000E-2,3.878601074E0,3.778045654E0,8.092407227E0
8.797609200E-2,3.857055664E0,3.816360474E0,8.092407227E0
9.047853300E-2,3.857055664E0,3.792419434E0,8.037338257E0
9.298097500E-2,3.847488403E0,3.785232544E0,7.920013428E0
9.548341600E-2,3.837905884E0,3.799591064E0,7.884109497E0
9.798585700E-2,3.835510254E0,3.859451294E0,7.869735718E0
1.004882990E-1,3.837905884E0,3.833114624E0,7.845794678E0
1.029907400E-1,3.830718994E0,3.816360474E0,7.764389038E0
1.055236990E-1,3.763687134E0,3.837905884E0,7.757217407E0
1.080261410E-1,3.727767944E0,3.830718994E0,7.682998657E0
1.105285820E-1,3.634399414E0,3.861846924E0,7.659057617E0
1.130310240E-1,3.586517334E0,3.842697144E0,7.603988647E0
1.155334650E-1,3.560180664E0,3.871429443E0,7.524978638E0
1.180359060E-1,3.457229614E0,3.880996704E0,7.563278198E0
1.205383480E-1,3.421310425E0,3.914520264E0,7.560882568E0
1.230407890E-1,3.366241455E0,3.971984863E0,7.532165527E0
1.255737480E-1,3.236953735E0,3.979156494E0,7.606384277E0
1.280761900E-1,3.148376465E0,3.979156494E0,7.687774658E0
1.305786310E-1,3.167526245E0,4.007888794E0,7.730880737E0
1.330810720E-1,3.088516235E0,4.024658203E0,7.790725708E0
1.355835140E-1,3.016693115E0,4.019866943E0,7.905654907E0
1.380859550E-1,3.016693115E0,4.058166504E0,7.994232178E0
1.405883970E-1,2.959228516E0,4.017471313E0,8.090011597E0
1.431213560E-1,2.911346436E0,3.991134644E0,8.224075317E0
1.456237970E-1,2.896987915E0,3.976776123E0,8.331817627E0
1.481262380E-1,2.873046875E0,3.938461304E0,8.437164307E0
1.506286800E-1,2.875442505E0,3.900161743E0,8.511383057E0
1.531311210E-1,2.868255615E0,3.847488403E0,8.556869507E0
1.556335630E-1,2.877822876E0,3.778045654E0,8.552093506E0
1.581360040E-1,2.901779175E0,3.744537354E0,8.700531006E0
1.606689630E-1,2.875442505E0,3.711013794E0,8.686157227E0
1.631714040E-1,2.877822876E0,3.641586304E0,8.774749756E0
1.656738460E-1,2.913742065E0,3.584121704E0,8.863342285E0
1.681762870E-1,2.906555176E0,3.576934814E0,8.872909546E0
1.706787290E-1,2.920928955E0,3.538635254E0,8.959106445E0
1.731811700E-1,2.997543335E0,3.464416504E0,9.095565796E0
1.756836110E-1,2.992752075E0,3.409347534E0,9.179367065E0
1.781860530E-1,3.078948975E0,3.363845825E0,9.234436035E0
1.807190120E-1,3.105285645E0,3.349487305E0,9.251190186E0
1.832214530E-1,3.100494385E0,3.344696045E0,9.287109375E0
1.857238950E-1,3.126831055E0,3.308792114E0,9.378082275E0
1.882263360E-1,3.122039795E0,3.320755005E0,9.378082275E0
1.907287770E-1,3.086120605E0,3.337524414E0,9.387664795E0
1.932312190E-1,3.126831055E0,3.292022705E0,9.361328125E0
1.957336600E-1,3.057388306E0,3.304000854E0,9.399642944E0
1.982361020E-1,3.021484375E0,3.308792114E0,9.390060425E0
2.007690610E-1,3.021484375E0,3.308792114E0,9.435546875E0
2.032715020E-1,2.980773926E0,3.349487305E0,9.416397095E0
2.057739430E-1,2.928115845E0,3.411743164E0,9.411605835E0
2.082763850E-1,2.880218506E0,3.397369385E0,9.416397095E0
2.107788260E-1,2.801208496E0,3.450042725E0,9.437942505E0
2.132812680E-1,2.765304565E0,3.476379395E0,9.399642944E0
2.158142270E-1,2.755722046E0,3.524261475E0,9.344573975E0
2.183166680E-1,2.700653076E0,3.593704224E0,9.313446045E0
2.208191090E-1,2.619262695E0,3.579330444E0,9.315841675E0
2.233215510E-1,2.547424316E0,3.610458374E0,9.232040405E0
2.258239920E-1,2.494750977E0,3.660736084E0,9.196121216E0
2.283264340E-1,2.492370605E0,3.691864014E0,9.097961426E0
2.308288750E-1,2.446868896E0,3.684677124E0,8.995010376E0
2.333313160E-1,2.413360596E0,3.699035645E0,8.942337036E0
2.358337580E-1,2.413360596E0,3.799591064E0,8.877700806E0
2.383667170E-1,2.410964966E0,3.794815063E0,8.829818726E0
2.408691580E-1,2.379837036E0,3.799591064E0,8.750808716E0
2.433716000E-1,2.446868896E0,3.816360474E0,8.623916626E0
2.458740410E-1,2.437301636E0,3.835510254E0,8.585601807E0
2.483764820E-1,2.475601196E0,3.847488403E0,8.523361206E0
2.508789240E-1,2.468429565E0,3.825927734E0,8.501815796E0
2.533813650E-1,2.451660156E0,3.847488403E0,8.465896606E0
2.558838070E-1,2.463638306E0,3.892974854E0,8.425201416E0
2.584167660E-1,2.425323486E0,3.948043823E0,8.429977417E0
2.609192070E-1,2.470809937E0,3.993530273E0,8.406036377E0
2.634216490E-1,2.497146606E0,3.969589233E0,8.386886597E0
2.659240900E-1,2.554611206E0,3.983947754E0,8.382095337E0
2.684265310E-1,2.583343506E0,3.983947754E0,8.408432007E0
2.709289730E-1,2.597702026E0,3.976776123E0,8.429977417E0
2.734314140E-1,2.636016846E0,3.924102783E0,8.377319336E0
2.759338560E-1,2.669540405E0,3.892974854E0,8.298309326E0
2.784668150E-1,2.707839966E0,3.871429443E0,8.312667847E0
2.809692560E-1,2.693481445E0,3.890579224E0,8.329421997E0
2.834716970E-1,2.719818115E0,3.880996704E0,8.322250366E0
2.859741390E-1,2.741363525E0,3.837905884E0,8.348587036E0
2.884765800E-1,2.750930786E0,3.825927734E0,8.382095337E0
2.909790220E-1,2.738967896E0,3.761291504E0,8.406036377E0
2.934814630E-1,2.786849976E0,3.725372314E0,8.401260376E0
2.960144220E-1,2.774887085E0,3.627212524E0,8.432373047E0
2.985473810E-1,2.722213745E0,3.581726074E0,8.470687866E0
3.010498220E-1,2.731781006E0,3.560180664E0,8.439559937E0
3.035522640E-1,2.734176636E0,3.519470215E0,8.489837646E0
3.060547050E-1,2.695877075E0,3.476379395E0,8.453933716E0
3.085571470E-1,2.700653076E0,3.481170654E0,8.511383057E0
3.110595880E-1,2.691085815E0,3.509902954E0,8.497024536E0
3.135620290E-1,2.688690186E0,3.414138794E0,8.482650757E0
3.160644710E-1,2.717422485E0,3.411743164E0,8.473083496E0
3.185974300E-1,2.667144775E0,3.409347534E0,8.475479126E0
3.210998710E-1,2.657562256E0,3.371032715E0,8.477874756E0
3.236023130E-1,2.619262695E0,3.335128784E0,8.520965576E0
3.261047540E-1,2.542648315E0,3.294418335E0,8.561660767E0
3.286071950E-1,2.501937866E0,3.301605225E0,8.585601807E0
3.311096370E-1,2.487579346E0,3.315963745E0,8.604766846E0
3.336425960E-1,2.408569336E0,3.315963745E0,8.657440186E0
3.361450370E-1,2.252944946E0,3.337524414E0,8.722076416E0
3.386474790E-1,2.245758057E0,3.359069824E0,8.777145386E0
3.411499200E-1,2.154785156E0,3.373428345E0,8.784332275E0
3.436523610E-1,2.082962036E0,3.423706055E0,8.865722656E0
3.461548030E-1,2.025497437E0,3.440475464E0,8.918395996E0
3.486572440E-1,1.920150757E0,3.464416504E0,8.968673706E0
3.511902030E-1,1.912963867E0,3.512298584E0,9.002197266E0
3.536926450E-1,1.824386597E0,3.524261475E0,9.054870605E0
3.561950860E-1,1.807617188E0,3.562576294E0,9.057266235E0
3.586975270E-1,1.824386597E0,3.608062744E0,9.066848755E0
3.611999690E-1,1.817199707E0,3.634399414E0,9.052474976E0
3.637024100E-1,1.845932007E0,3.672698975E0,9.083602905E0
3.662048520E-1,1.908172607E0,3.720596313E0,9.083602905E0
3.687072930E-1,1.927337646E0,3.756500244E0,9.045288086E0
3.712402520E-1,1.996765137E0,3.801986694E0,9.085998535E0
3.737426930E-1,2.030288696E0,3.890579224E0,9.076416016E0
3.762451350E-1,2.068588257E0,3.916915894E0,9.052474976E0
3.787475760E-1,2.123657227E0,3.878601074E0,9.059661865E0
3.812500180E-1,2.128448486E0,3.890579224E0,9.016571045E0
3.837524590E-1,2.157180786E0,3.912124634E0,8.997406006E0
3.862549000E-1,2.147598267E0,3.842697144E0,9.006988525E0
3.887878590E-1,2.169143677E0,3.792419434E0,8.913619995E0
3.912903010E-1,2.176330566E0,3.758895874E0,8.841781616E0
3.937927420E-1,2.133239746E0,3.684677124E0,8.827423096E0
3.962951840E-1,2.171539307E0,3.560180664E0,8.801086426E0
3.987976250E-1,2.145202637E0,3.478775024E0,8.698135376E0
4.013000660E-1,2.197875977E0,3.385406494E0,8.576034546E0
4.038025080E-1,2.248153687E0,3.260910034E0,8.544906616E0
4.063049490E-1,2.341522217E0,3.126831055E0,8.468292236E0
4.088379080E-1,2.401382446E0,3.026275635E0,8.353363037E0
4.113403500E-1,2.489974976E0,2.930496216E0,8.300689697E0
4.138427910E-1,2.549819946E0,2.832336426E0,8.216903687E0
4.163452320E-1,2.616867065E0,2.710235596E0,8.149856567E0
4.188476740E-1,2.705444336E0,2.652770996E0,8.101974487E0
4.213501150E-1,2.801208496E0,2.602493286E0,8.056488037E0
4.238525570E-1,2.870651245E0,2.564193726E0,8.066070557E0
4.263549980E-1,2.959228516E0,2.480392456E0,8.011001587E0
4.288879570E-1,2.964019775E0,2.509124756E0,8.068466187E0
4.313903990E-1,2.971206665E0,2.509124756E0,7.972686768E0
4.338928400E-1,2.990356445E0,2.499542236E0,7.948745728E0
4.363952810E-1,3.002334595E0,2.564193726E0,8.018188477E0
4.388977230E-1,2.975997925E0,2.585739136E0,8.039733887E0
4.414001640E-1,2.877822876E0,2.657562256E0,8.092407227E0
4.439026060E-1,2.844314575E0,2.688690186E0,8.197753906E0
4.464355650E-1,2.746154785E0,2.774887085E0,8.209716797E0
4.489380060E-1,2.624038696E0,2.834732056E0,8.281539917E0
4.514404470E-1,2.511520386E0,2.861068726E0,8.391677856E0
4.539428890E-1,2.398986816E0,2.925720215E0,8.374923706E0
4.564453300E-1,2.327163696E0,2.968811035E0,8.520965576E0
4.589477720E-1,2.173934937E0,2.987960815E0,8.597579956E0
4.614502130E-1,2.106903076E0,3.031066895E0,8.755599976E0
4.639526540E-1,2.042251587E0,3.009506226E0,8.813049316E0
4.664856130E-1,1.939300537E0,3.035842896E0,8.918395996E0
4.689880550E-1,1.881835938E0,3.071762085E0,9.026138306E0
4.714904960E-1,1.819595337E0,3.105285645E0,9.057266235E0
4.739929380E-1,1.733398438E0,3.071762085E0,9.150634766E0
4.764953790E-1,1.663970947E0,3.076553345E0,9.220077515E0
4.789978200E-1,1.642425537E0,3.047821045E0,9.186553955E0
4.815002620E-1,1.592147827E0,3.038238525E0,9.251190186E0
4.840027030E-1,1.561019897E0,3.002334595E0,9.270355225E0
4.865356620E-1,1.565811157E0,3.002334595E0,9.318237305E0
4.890381040E-1,1.508346558E0,2.959228516E0,9.358932495E0
4.915405450E-1,1.491592407E0,2.935287476E0,9.339782715E0
4.940429860E-1,1.486801147E0,2.913742065E0,9.296691895E0
4.965454280E-1,1.450881958E0,2.911346436E0,9.323028564E0
4.990478690E-1,1.407791138E0,2.865859985E0,9.382873535E0
5.015503110E-1,1.400604248E0,2.858673096E0,9.382873535E0
5.040832700E-1,1.417373657E0,2.829940796E0,9.368515015E0
5.065857110E-1,1.417373657E0,2.755722046E0,9.337387085E0
5.090881520E-1,1.443710327E0,2.707839966E0,9.308654785E0
5.115905940E-1,1.436523438E0,2.652770996E0,9.320632935E0
5.140930350E-1,1.470046997E0,2.578552246E0,9.306259155E0
5.165954770E-1,1.525100708E0,2.561798096E0,9.287109375E0
5.190979180E-1,1.577774048E0,2.444473267E0,9.174575806E0
5.216003590E-1,1.594543457E0,2.415756226E0,9.191345215E0
5.241028010E-1,1.625656128E0,2.377441406E0,9.198516846E0
5.266357600E-1,1.642425537E0,2.288864136E0,9.174575806E0
5.291382010E-1,1.740585327E0,2.238571167E0,9.179367065E0
5.316406430E-1,1.800445557E0,2.193084717E0,9.155426025E0
5.341430840E-1,1.860290527E0,2.154785156E0,9.188949585E0
5.366455250E-1,1.910568237E0,2.118865967E0,9.145843506E0
5.391479670E-1,1.975219727E0,2.090133667E0,9.126693726E0
5.416809260E-1,1.977615356E0,2.094924927E0,9.112335205E0
5.441833670E-1,1.944091797E0,2.106903076E0,9.045288086E0
5.466858090E-1,1.968032837E0,2.099716187E0,9.004592896E0
5.491882500E-1,1.970428467E0,2.051834106E0,9.004592896E0
5.516906910E-1,1.960845947E0,2.075775146E0,8.975860596E0
5.541931330E-1,1.936904907E0,2.118865967E0,8.966278076E0
5.566955740E-1,1.956069946E0,2.173934937E0,8.939956665E0
5.591980160E-1,1.920150757E0,2.226608276E0,8.887283325E0
5.617309750E-1,1.941696167E0,2.214630127E0,8.956710815E0
5.642334160E-1,1.929733276E0,2.281677246E0,8.959106445E0
5.667358570E-1,1.891418457E0,2.322372437E0,8.935165405E0
5.692382990E-1,1.802841187E0,2.348709106E0,8.916000366E0
5.717407400E-1,1.778884888E0,2.327163696E0,8.930374146E0
5.742431820E-1,1.774108887E0,2.348709106E0,8.956710815E0
5.767456230E-1,1.697494507E0,2.375045776E0,8.985443115E0
5.792785820E-1,1.651992798E0,2.434906006E0,9.014175415E0
5.818115410E-1,1.596939087E0,2.432510376E0,8.983047485E0
5.843139820E-1,1.520324707E0,2.499542236E0,9.023742676E0
5.868164240E-1,1.448486328E0,2.509124756E0,9.040512085E0
5.893188650E-1,1.414978027E0,2.549819946E0,9.069229126E0
5.918213070E-1,1.376663208E0,2.612075806E0,9.059661865E0
5.943237480E-1,1.302444458E0,2.580947876E0,9.095565796E0
5.968261900E-1,1.259353638E0,2.655166626E0,9.093185425E0
5.993591490E-1,1.247375488E0,2.707839966E0,9.109939575E0
6.018615900E-1,1.242584229E0,2.734176636E0,9.191345215E0
6.043640310E-1,1.182739258E0,2.786849976E0,9.265563965E0
6.068664730E-1,1.106124878E0,2.829940796E0,9.294296265E0
6.093689140E-1,1.063018799E0,2.853881836E0,9.358932495E0
6.118713560E-1,1.077392578E0,2.873046875E0,9.392456055E0
6.143737970E-1,1.019927979E0,2.825164795E0,9.416397095E0
6.168762380E-1,9.720458984E-1,2.837127686E0,9.504974365E0
6.194091970E-1,1.005569458E0,2.868255615E0,9.536102295E0
6.219116390E-1,1.000778198E0,2.805999756E0,9.512161255E0
6.244140800E-1,9.935913086E-1,2.808395386E0,9.581588745E0
6.269165220E-1,1.029510498E0,2.750930786E0,9.593566895E0
6.294189630E-1,1.094146729E0,2.734176636E0,9.564834595E0
6.319214040E-1,1.086975098E0,2.731781006E0,9.627090454E0
6.344238460E-1,1.086975098E0,2.698272705E0,9.627090454E0
6.369568050E-1,1.113296509E0,2.652770996E0,9.641448975E0
6.394592460E-1,1.120483398E0,2.662353516E0,9.674972534E0
6.419616880E-1,1.201889038E0,2.698272705E0,9.662994385E0
6.444641290E-1,1.259353638E0,2.691085815E0,9.701309204E0
6.469665700E-1,1.259353638E0,2.719818115E0,9.720458984E0
6.494690120E-1,1.278503418E0,2.700653076E0,9.698913574E0
6.519714530E-1,1.252166748E0,2.657562256E0,9.715667725E0
6.544738950E-1,1.285690308E0,2.640808105E0,9.698913574E0
6.570068540E-1,1.300048828E0,2.600097656E0,9.667785645E0
6.595092950E-1,1.319198608E0,2.564193726E0,9.667785645E0
6.620117360E-1,1.383850098E0,2.533065796E0,9.658203125E0
6.645141780E-1,1.379058838E0,2.468429565E0,9.648635864E0
6.670166190E-1,1.367095947E0,2.418136597E0,9.605529785E0
6.695190610E-1,1.364700317E0,2.389419556E0,9.581588745E0
6.720215020E-1,1.436523438E0,2.358291626E0,9.552871704E0
6.745544610E-1,1.426940918E0,2.300827026E0,9.469070435E0
6.770569020E-1,1.474822998E0,2.257736206E0,9.478637695E0
6.795593440E-1,1.505950928E0,2.221817017E0,9.466674805E0
6.820617850E-1,1.513137817E0,2.272094727E0,9.406814575E0
6.845642270E-1,1.489196777E0,2.308013916E0,9.308654785E0
6.870666680E-1,1.505950928E0,2.267303467E0,9.282318115E0
6.895691090E-1,1.450881958E0,2.324768066E0,9.258377075E0
6.921020680E-1,1.395812988E0,2.355895996E0,9.277526855E0
6.946045100E-1,1.374267578E0,2.425323486E0,9.239227295E0
6.971069510E-1,1.388641357E0,2.470809937E0,9.165008545E0
6.996093930E-1,1.355117798E0,2.513916016E0,9.208099365E0
7.021118340E-1,1.285690308E0,2.545043945E0,9.215286255E0
7.046142750E-1,1.221038818E0,2.624038696E0,9.198516846E0
7.071167170E-1,1.168365479E0,2.647979736E0,9.289505005E0
7.096191580E-1,1.094146729E0,2.695877075E0,9.301467896E0
7.121521170E-1,9.792327881E-1,2.667144775E0,9.404418945E0
7.146545590E-1,9.313507080E-1,2.710235596E0,9.469070435E0
7.171570000E-1,8.714904785E-1,2.779663086E0,9.552871704E0
7.196594410E-1,7.541809082E-1,2.813186646E0,9.562438965E0
7.221618830E-1,6.727752686E-1,2.786849976E0,9.521743774E0
7.246643240E-1,5.961608887E-1,2.777267456E0,9.634262085E0
7.271667660E-1,5.530548096E-1,2.856277466E0,9.662994385E0
7.296692070E-1,4.668731689E-1,2.877822876E0,9.713272095E0
7.322021660E-1,3.830718994E-1,2.913742065E0,9.701309204E0
7.347046070E-1,3.375854492E-1,2.920928955E0,9.758758545E0
7.372070490E-1,4.381408691E-1,2.995147705E0,9.809051514E0
7.397094900E-1,3.184356689E-1,3.019088745E0,9.753982544E0
7.422119320E-1,1.939239502E-1,2.968811035E0,9.706100464E0
7.447143730E-1,8.859252930E-2,2.999938965E0,9.667785645E0
7.472168150E-1,1.197814941E-2,3.004730225E0,9.629486084E0
7.497192560E-1,-3.831481934E-2,2.987960815E0,9.615112305E0
7.522522150E-1,-4.548645020E-2,2.985565186E0,9.574417114E0
7.547546560E-1,-2.154541016E-2,2.980773926E0,9.600753784E0
7.572570980E-1,3.591918945E-2,3.021484375E0,9.639053345E0
7.597595390E-1,-2.633666992E-2,3.078948975E0,9.634262085E0
7.622619810E-1,-5.027770996E-2,3.086120605E0,9.677368164E0
7.647644220E-1,-3.591918945E-2,3.153167725E0,9.679763794E0
7.672668630E-1,-1.435852051E-2,3.167526245E0,9.739608765E0
7.697998220E-1,-2.873229980E-2,3.169921875E0,9.837768555E0
7.723022640E-1,4.791259766E-3,3.148376465E0,9.878479004E0
7.748047050E-1,4.069519043E-2,3.162734985E0,9.962280273E0
7.773071470E-1,6.225585938E-2,3.143585205E0,1.001733398E1
7.798095880E-1,3.112792969E-2,3.136398315E0,9.945510864E0
7.823120290E-1,5.267333984E-2,3.112457275E0,9.986221313E0
7.848144710E-1,5.027770996E-2,3.098098755E0,9.938323975E0
7.873169120E-1,1.053466797E-1,3.110061646E0,9.943115234E0
7.898498710E-1,1.268920898E-1,3.122039795E0,9.940719604E0
7.923523130E-1,1.819610596E-1,3.186676025E0,9.897628784E0
7.948547540E-1,2.082977295E-1,3.143585205E0,9.931152344E0
7.973571950E-1,1.963195801E-1,3.191467285E0,9.928756714E0
7.998596370E-1,1.819610596E-1,3.244140625E0,9.878479004E0
8.023620780E-1,2.250518799E-1,3.265686035E0,9.883270264E0
8.048645200E-1,1.939239502E-1,3.311187744E0,9.914382935E0
8.073974790E-1,1.652069092E-1,3.320755005E0,9.768341064E0
8.098999200E-1,1.628112793E-1,3.325546265E0,9.701309204E0
8.124023610E-1,1.292877197E-1,3.335128784E0,9.686935425E0
8.149048030E-1,6.703186035E-2,3.380615234E0,9.670181274E0
8.174072440E-1,8.140563965E-2,3.315963745E0,9.648635864E0
8.199096860E-1,7.661437988E-2,3.323150635E0,9.545684814E0
8.224121270E-1,-3.112792969E-2,3.337524414E0,9.488220215E0
8.249145680E-1,-9.336853027E-2,3.349487305E0,9.402023315E0
8.274170100E-1,-1.340789795E-1,3.354278564E0,9.299072266E0
8.299499690E-1,-1.604156494E-1,3.292022705E0,9.220077515E0
8.324524100E-1,-1.675872803E-1,3.313568115E0,9.179367065E0
8.349548520E-1,-1.819610596E-1,3.320755005E0,9.176971436E0
8.374572930E-1,-1.891479492E-1,3.308792114E0,9.184158325E0
8.399597340E-1,-1.867523193E-1,3.342300415E0,9.193740845E0
8.424621760E-1,-1.891479492E-1,3.313568115E0,9.282318115E0
8.449646170E-1,-2.059020996E-1,3.342300415E0,9.318237305E0
8.474670590E-1,-1.987152100E-1,3.304000854E0,9.366119385E0
8.500000180E-1,-2.465972900E-1,3.280059814E0,9.370910645E0
8.525024590E-1,-2.801208496E-1,3.222595215E0,9.366119385E0
8.550049000E-1,-3.016662598E-1,3.191467285E0,9.370910645E0
8.575073420E-1,-3.423767090E-1,3.177108765E0,9.428359985E0
8.600097830E-1,-3.112487793E-1,3.193862915E0,9.409210205E0
8.625122250E-1,-3.591308594E-1,3.193862915E0,9.375686646E0
8.650146660E-1,-3.184356689E-1,3.160339355E0,9.370910645E0
8.675476250E-1,-3.519439697E-1,3.172317505E0,9.399642944E0
8.700805840E-1,-3.734893799E-1,3.193862915E0,9.493011475E0
8.725830250E-1,-3.303985596E-1,3.213012695E0,9.617507935E0
8.750854670E-1,-2.394256592E-1,3.157958984E0,9.665390015E0
8.775879080E-1,-3.327941895E-1,3.179504395E0,9.782714844E0
8.800903500E-1,-3.088531494E-1,3.165130615E0,9.883270264E0
8.825927910E-1,-3.208160400E-1,3.100494385E0,1.000537109E1
8.851257500E-1,-3.064575195E-1,3.090911865E0,1.013226318E1
8.876281910E-1,-3.423767090E-1,3.074157715E0,1.021366882E1
8.901306330E-1,-3.423767090E-1,3.093307495E0,1.029507446E1
8.926330740E-1,-4.046173096E-1,3.148376465E0,1.036450195E1
8.951355160E-1,-4.740447998E-1,3.148376465E0,1.038604736E1
8.976379570E-1,-4.357452393E-1,3.131622314E0,1.050335693E1
9.001403990E-1,-4.381408691E-1,3.160339355E0,1.051773071E1
9.026428400E-1,-5.410919189E-1,3.160339355E0,1.054885864E1
9.051757990E-1,-5.051727295E-1,3.181900024E0,1.054406738E1
9.076782400E-1,-5.458831787E-1,3.210617065E0,1.048181152E1
9.101806820E-1,-5.889739990E-1,3.270477295E0,1.042434692E1
9.126831230E-1,-5.602416992E-1,3.277664185E0,1.034535217E1
9.151855650E-1,-6.009521484E-1,3.268081665E0,1.028788757E1
9.176880060E-1,-6.967163086E-1,3.270477295E0,1.019450378E1
9.201904470E-1,-7.086791992E-1,3.222595215E0,1.013945007E1
9.226928890E-1,-6.991119385E-1,3.236953735E0,9.988616943E0
9.252258480E-1,-7.398071289E-1,3.236953735E0,9.926361084E0
9.277282890E-1,-7.541809082E-1,3.217803955E0,9.878479004E0
9.302307310E-1,-7.613525391E-1,3.241744995E0,9.708480835E0
9.327331720E-1,-7.469940186E-1,3.229782104E0,9.598358154E0
9.352356130E-1,-7.422027588E-1,3.229782104E0,9.500198364E0
9.377380550E-1,-7.038879395E-1,3.236953735E0,9.442733765E0
9.402404960E-1,-6.655883789E-1,3.251327515E0,9.279922485E0
9.427734550E-1,-6.464385986E-1,3.256118774E0,9.102752686E0
9.452758970E-1,-6.584014893E-1,3.246536255E0,9.033325195E0
9.477783380E-1,-6.105194092E-1,3.213012695E0,8.872909546E0
9.502807790E-1,-5.746154785E-1,3.208236694E0,8.667007446E0
9.527832210E-1,-5.458831787E-1,3.186676025E0,8.554489136E0
9.552856620E-1,-4.118041992E-1,3.167526245E0,8.497024536E0
9.577881040E-1,-3.519439697E-1,3.145980835E0,8.365341187E0
9.602905450E-1,-3.351898193E-1,3.050216675E0,8.300689697E0
9.628235040E-1,-2.465972900E-1,2.999938965E0,8.212112427E0
9.653259450E-1,-1.316833496E-1,2.997543335E0,8.123519897E0
9.678283870E-1,-6.703186035E-2,2.973602295E0,8.109161377E0
9.703308280E-1,3.352355957E-2,2.928115845E0,8.063674927E0
9.728332700E-1,8.859252930E-2,2.925720215E0,8.061279297E0
9.753357110E-1,1.484375000E-1,2.887405396E0,8.015792847E0
9.778381520E-1,2.394256592E-1,2.918533325E0,8.022964478E0
9.803711110E-1,3.040618896E-1,2.923324585E0,8.001419067E0
9.828735530E-1,3.734893799E-1,2.980773926E0,7.994232178E0
9.853759940E-1,4.524993896E-1,2.985565186E0,8.030151367E0
9.878784360E-1,4.764404297E-1,2.973602295E0,8.123519897E0
9.903808770E-1,5.003814697E-1,3.009506226E0,8.212112427E0
9.928833180E-1,4.980010986E-1,2.978393555E0,8.195358276E0
9.953857600E-1,5.171508789E-1,2.930496216E0,8.250411987E0
9.979187190E-1,4.740447998E-1,2.844314575E0,8.293518066E0
1.000421160E0,5.386962891E-1,2.791641235E0,8.350982666E0
1.002923602E0,1.029510498E0,2.387023926E0,8.298309326E0
1.005426043E0,1.551437378E0,1.970428467E0,8.315063477E0
1.007928484E0,1.529891968E0,1.764526367E0,8.425201416E0
1.010430926E0,1.276107788E0,1.810012817E0,8.578430176E0
1.012933367E0,1.055847168E0,1.881835938E0,8.774749756E0
1.015435809E0,1.007965088E0,1.963241577E0,8.944732666E0
1.017968768E0,1.144424438E0,1.915359497E0,9.097961426E0
1.020471209E0,1.292861938E0,1.833953857E0,9.275131226E0
1.022973650E0,1.283294678E0,1.877059937E0,9.354141235E0
1.025476092E0,1.268920898E0,1.903396606E0,9.416397095E0
1.027978533E0,1.180343628E0,1.915359497E0,9.368515015E0
1.030480975E0,1.108520508E0,1.987182617E0,9.358932495E0
1.032983416E0,1.118087769E0,2.126052856E0,9.267959595E0
1.035516375E0,1.084579468E0,2.178726196E0,9.279922485E0
1.038018816E0,1.063018799E0,2.327163696E0,9.174575806E0
1.040521258E0,1.039077759E0,2.422927856E0,8.999801636E0
1.043023699E0,1.019927979E0,2.540252686E0,8.853759766E0
1.045526141E0,8.762817383E-1,2.640808105E0,8.250411987E0
1.048028582E0,8.643035889E-1,2.853881836E0,7.730880737E0
1.050531024E0,1.089355469E0,2.911346436E0,7.876922607E0
1.053033465E0,1.288085938E0,2.868255615E0,7.917617798E0
1.055566424E0,1.338363647E0,2.841918945E0,7.936782837E0
1.058068865E0,1.395812988E0,2.825164795E0,7.936782837E0
1.060571307E0,1.448486328E0,2.801208496E0,7.917617798E0
1.063073748E0,1.450881958E0,2.729385376E0,7.912841797E0
1.065576190E0,1.391036987E0,2.750930786E0,7.958328247E0
1.068078631E0,1.429336548E0,2.722213745E0,7.953536987E0
1.070581072E0,1.450881958E0,2.734176636E0,7.951141357E0
1.073083514E0,1.441314697E0,2.779663086E0,8.032546997E0
1.075616473E0,1.436523438E0,2.791641235E0,8.066070557E0
1.078118914E0,1.328781128E0,2.849105835E0,8.020568848E0
1.080621356E0,1.247375488E0,2.916137695E0,7.989456177E0
1.083123797E0,1.127670288E0,2.983169556E0,7.908050537E0
1.085626238E0,1.041473389E0,3.071762085E0,7.903259277E0
1.088128680E0,1.010360718E0,3.143585205E0,7.924804688E0
1.090631121E0,9.026184082E-1,3.210617065E0,7.884109497E0
1.093164080E0,8.451538086E-1,3.296813965E0,7.845794678E0
1.095666522E0,8.044586182E-1,3.304000854E0,7.924804688E0
1.098168963E0,7.876892090E-1,3.294418335E0,7.931991577E0
1.100671404E0,6.823425293E-1,3.320755005E0,7.996627808E0
1.103173846E0,5.099639893E-1,3.392578125E0,8.116348267E0
1.105676287E0,-2.394256592E-1,3.907333374E0,9.588775635E0
1.108178729E0,-4.165954590E-1,4.122817993E0,1.173158264E1
1.110681170E0,-4.668731689E-1,3.971984863E0,1.228704834E1
1.113214129E0,-6.823425293E-1,3.900161743E0,1.140357971E1
1.115716570E0,-6.224975586E-1,3.837905884E0,1.083615112E1
1.118219012E0,-4.956054688E-1,3.734954834E0,1.087446594E1
1.120721453E0,-2.082977295E-1,3.608062744E0,1.148977661E1
1.123223895E0,0.000000000E0,3.371032715E0,1.208593750E1
1.125726336E0,-1.580200195E-1,3.284851074E0,1.167173767E1
1.128228777E0,-3.902587891E-1,3.438079834E0,1.083137512E1
1.130761736E0,-4.884185791E-1,3.493133545E0,9.990997314E0
1.133264178E0,-4.046173096E-1,3.586517334E0,9.404418945E0
1.135766619E0,-1.268920898E-1,3.658340454E0,8.973464966E0
1.138269061E0,1.508331299E-1,3.608062744E0,8.674194336E0
1.140771502E0,4.213867188E-1,3.581726074E0,8.485046387E0
1.143273943E0,6.584014893E-1,3.536239624E0,8.288726807E0
1.145776385E0,8.044586182E-1,3.524261475E0,8.157043457E0
1.148278826E0,8.403625488E-1,3.519470215E0,8.054092407E0
1.150811785E0,8.666992188E-1,3.500320435E0,7.994232178E0
1.153344744E0,8.619079590E-1,3.473983765E0,8.025360107E0
1.155847186E0,8.954315186E-1,3.481170654E0,7.963119507E0
1.158349627E0,8.930358887E-1,3.497924805E0,8.063674927E0
1.160852068E0,8.690948486E-1,3.483566284E0,8.207321167E0
1.163354510E0,8.475494385E-1,3.426101685E0,8.317459106E0
1.165856951E0,7.733306885E-1,3.383010864E0,8.410827637E0
1.168359393E0,7.757263184E-1,3.342300415E0,8.441955566E0
1.170892352E0,6.703796387E-1,3.253723145E0,8.566452026E0
1.173394793E0,6.296691895E-1,3.160339355E0,8.705322266E0
1.175897234E0,6.368560791E-1,3.086120605E0,8.923187256E0
1.178399676E0,6.392517090E-1,2.987960815E0,9.083602905E0
1.180902117E0,6.177062988E-1,2.880218506E0,9.272735596E0
1.183404559E0,5.698242188E-1,2.798828125E0,9.361328125E0
1.185907000E0,6.416473389E-1,2.731781006E0,9.382873535E0
1.188439959E0,6.392517090E-1,2.628829956E0,9.437942505E0
1.190942400E0,6.344604492E-1,2.542648315E0,9.430755615E0
1.193444842E0,6.991119385E-1,2.434906006E0,9.500198364E0
1.195947283E0,6.751708984E-1,2.334350586E0,9.516952515E0
1.198449725E0,7.110748291E-1,2.341522217E0,9.507369995E0
1.200952166E0,7.038879395E-1,2.284072876E0,9.459487915E0
1.203454607E0,6.177062988E-1,2.224212646E0,9.469070435E0
1.205957049E0,5.722198486E-1,2.238571167E0,9.430755615E0
1.208490008E0,5.841827393E-1,2.236190796E0,9.430755615E0
1.210992449E0,5.769958496E-1,2.219421387E0,9.327804565E0
1.213494891E0,5.171508789E-1,2.152389526E0,9.251190186E0
1.215997332E0,4.572906494E-1,2.142807007E0,9.267959595E0
1.218499774E0,4.620819092E-1,2.087738037E0,9.260772705E0
1.221002215E0,5.147552490E-1,1.987182617E0,9.301467896E0
1.223504656E0,4.668731689E-1,1.867477417E0,9.387664795E0
1.226037615E0,4.860229492E-1,1.845932007E0,9.399642944E0
1.228540057E0,5.147552490E-1,1.893814087E0,9.394851685E0
1.231042498E0,5.051727295E-1,1.932113647E0,9.368515015E0
1.233544940E0,5.458831787E-1,1.963241577E0,9.437942505E0
1.236047381E0,6.057281494E-1,2.025497437E0,9.516952515E0
1.238549822E0,6.679840088E-1,2.121261597E0,9.567230225E0
1.241052264E0,7.134704590E-1,2.159576416E0,9.646240234E0
1.243554705E0,7.158660889E-1,2.193084717E0,9.710876465E0
1.246087664E0,7.326202393E-1,2.260131836E0,9.720458984E0
1.248590106E0,7.422027588E-1,2.319976807E0,9.777923584E0
1.251092547E0,7.086791992E-1,2.317581177E0,9.895233154E0
1.253594988E0,6.584014893E-1,2.319976807E0,9.979034424E0
1.256097430E0,5.458831787E-1,2.370254517E0,1.005325317E1
1.258599871E0,5.051727295E-1,2.398986816E0,1.012268066E1
1.261102313E0,4.716644287E-1,2.394195557E0,1.016816711E1
1.263635272E0,4.094085693E-1,2.382232666E0,1.014422607E1
1.266137713E0,4.070129395E-1,2.420532227E0,1.023042297E1
1.268640154E0,3.591308594E-1,2.379837036E0,1.023760986E1
1.271142596E0,3.639221191E-1,2.370254517E0,1.023760986E1
1.273645037E0,3.734893799E-1,2.346313477E0,1.027351379E1
1.276147479E0,3.782806396E-1,2.315185547E0,1.022084045E1
1.278649920E0,3.088531494E-1,2.331954956E0,1.010592651E1
1.281152361E0,4.261627197E-1,2.279281616E0,1.003649902E1
1.283654803E0,6.057281494E-1,2.243362427E0,9.979034424E0
1.286187762E0,9.193725586E-1,2.212249756E0,9.842559814E0
1.288690203E0,1.149215698E0,2.193084717E0,9.701309204E0
1.291192645E0,1.259353638E0,2.126052856E0,9.627090454E0
1.293695086E0,1.300048828E0,2.032684326E0,9.485824585E0
1.296197527E0,1.323989868E0,1.939300537E0,9.397247314E0
1.298699969E0,1.285690308E0,1.884231567E0,9.263168335E0
1.301202410E0,1.170761108E0,1.829162598E0,9.220077515E0
1.303704852E0,9.744415283E-1,1.810012817E0,9.270355225E0
1.306237811E0,7.182617188E-1,1.783676147E0,9.311050415E0
1.308740252E0,4.165954590E-1,1.886627197E0,9.394851685E0
1.311242693E0,1.675872803E-1,1.958450317E0,9.428359985E0
1.313745135E0,7.186889648E-3,2.027893066E0,9.526535034E0
1.316247576E0,-2.633666992E-2,2.023101807E0,9.665390015E0
1.318750018E0,-7.421875000E-2,2.035064697E0,9.648635864E0
1.321252459E0,-9.336853027E-2,2.130844116E0,9.660598755E0
1.323785418E0,-1.580200195E-1,2.214630127E0,9.641448975E0
1.326287859E0,-1.364746094E-1,2.248153687E0,9.576812744E0
1.328790301E0,-9.097290039E-2,2.308013916E0,9.442733765E0
1.331292742E0,-2.395629883E-3,2.410964966E0,9.315841675E0
1.333795184E0,1.435852051E-2,2.449264526E0,9.076416016E0
1.336297625E0,-1.268920898E-1,2.525878906E0,8.798690796E0
1.338830584E0,-2.465972900E-1,2.564193726E0,8.616729736E0
1.341333025E0,-2.920989990E-1,2.604888916E0,8.429977417E0
1.343835467E0,-2.465972900E-1,2.782058716E0,8.271972656E0
1.346337908E0,-2.489929199E-1,2.964019775E0,8.231262207E0
1.348840350E0,-4.070129395E-1,2.918533325E0,8.240844727E0
1.351342791E0,-5.219421387E-1,2.837127686E0,8.190567017E0
1.353845232E0,-5.626373291E-1,2.770095825E0,8.372528076E0
1.356347674E0,-5.865783691E-1,2.686294556E0,8.576034546E0
1.358850115E0,-6.320648193E-1,2.576156616E0,8.772354126E0
1.361383074E0,-6.943206787E-1,2.480392456E0,8.944732666E0
1.363885516E0,-8.020629883E-1,2.492370605E0,9.229644775E0
1.366387957E0,-8.547363281E-1,2.492370605E0,9.493011475E0
1.368890399E0,-8.906402588E-1,2.449264526E0,9.775527954E0
1.371392840E0,-9.193725586E-1,2.477996826E0,9.947906494E0
1.373895281E0,-9.145812988E-1,2.561798096E0,1.019450378E1
1.376397723E0,-8.906402588E-1,2.607284546E0,1.033337402E1
1.378930682E0,-7.589569092E-1,2.676712036E0,1.032618713E1
1.381433123E0,-6.727752686E-1,2.695877075E0,1.036929321E1
1.383935565E0,-6.057281494E-1,2.722213745E0,1.036450195E1
1.386438006E0,-5.674285889E-1,2.772491455E0,1.037168884E1
1.388940447E0,-4.596862793E-1,2.715026855E0,1.036450195E1
1.391442889E0,-4.094085693E-1,2.753326416E0,1.028309631E1
1.393945330E0,-3.830718994E-1,2.662353516E0,1.016339111E1
1.396447772E0,-4.285583496E-1,2.671936035E0,1.010353088E1
1.398980731E0,-4.596862793E-1,2.679107666E0,9.921569824E0
1.401483172E0,-5.865783691E-1,2.652770996E0,9.768341064E0
1.403985613E0,-6.560058594E-1,2.652770996E0,9.804260254E0
1.406488055E0,-6.320648193E-1,2.650375366E0,9.701309204E0
1.408990496E0,-6.057281494E-1,2.640808105E0,9.763549805E0
1.411492938E0,-5.506591797E-1,2.580947876E0,9.818618774E0
1.413995379E0,-4.788360596E-1,2.525878906E0,9.904815674E0
1.416528338E0,-4.644775391E-1,2.454055786E0,9.923965454E0
1.419030779E0,-4.261627197E-1,2.451660156E0,1.004367065E1
1.421533221E0,-4.309539795E-1,2.439697266E0,1.009873962E1
1.424035662E0,-3.998260498E-1,2.377441406E0,1.011550903E1
1.426538104E0,-4.189910889E-1,2.401382446E0,9.990997314E0
1.429040545E0,-4.836273193E-1,2.372650146E0,9.969451904E0
1.431542986E0,-4.956054688E-1,2.415756226E0,9.983825684E0
1.434045428E0,-4.908142090E-1,2.413360596E0,9.859329224E0
1.436578387E0,-5.147552490E-1,2.334350586E0,9.780319214E0
1.439111346E0,-5.793914795E-1,2.317581177E0,9.742004395E0
1.441613787E0,-6.560058594E-1,2.279281616E0,9.749191284E0
1.444116229E0,-6.679840088E-1,2.303222656E0,9.708480835E0
1.446618670E0,-6.775665283E-1,2.274490356E0,9.684539795E0
1.449121111E0,-7.445983887E-1,2.264907837E0,9.631866455E0
1.451623553E0,-7.685394287E-1,2.293640137E0,9.619903564E0
1.454156512E0,-7.805023193E-1,2.334350586E0,9.579208374E0
1.456658953E0,-7.852935791E-1,2.403778076E0,9.579208374E0
1.459161395E0,-7.733306885E-1,2.432510376E0,9.591171265E0
1.461663836E0,-7.733306885E-1,2.485183716E0,9.512161255E0
1.464166277E0,-8.379669189E-1,2.571365356E0,9.528915405E0
1.466668719E0,-8.283996582E-1,2.676712036E0,9.579208374E0
1.469171160E0,-8.619079590E-1,2.741363525E0,9.509765625E0
1.471673602E0,-9.289550781E-1,2.851501465E0,9.531311035E0
1.474206561E0,-9.385223389E-1,3.002334595E0,9.514556885E0
1.476709002E0,-9.864044189E-1,3.213012695E0,9.548080444E0
1.479211443E0,-9.385223389E-1,3.268081665E0,9.631866455E0
1.481713885E0,-9.552917480E-1,3.210617065E0,9.641448975E0
1.484216326E0,-9.145812988E-1,3.177108765E0,9.662994385E0
1.486718768E0,-9.337310791E-1,3.117248535E0,9.708480835E0
1.489221209E0,-9.959869385E-1,3.009506226E0,9.761154175E0
1.491754168E0,-9.768371582E-1,2.937683105E0,9.821014404E0
1.494256609E0,-8.786773682E-1,2.808395386E0,9.931152344E0
1.496759051E0,-7.757263184E-1,2.726989746E0,9.885665894E0
1.499261492E0,-6.081237793E-1,2.669540405E0,9.813827515E0
1.501763934E0,-3.854675293E-1,2.628829956E0,9.677368164E0
1.504266375E0,-2.442016602E-1,2.604888916E0,9.552871704E0
1.506768816E0,-1.388702393E-1,2.655166626E0,9.437942505E0
1.509271258E0,-5.986022949E-2,2.609680176E0,9.358932495E0
1.511804217E0,-7.901000977E-2,2.616867065E0,9.248794556E0
1.514306658E0,-6.225585938E-2,2.597702026E0,9.241622925E0
1.516809100E0,-1.197814941E-2,2.645599365E0,9.246414185E0
1.519311541E0,-4.548645020E-2,2.659957886E0,9.215286255E0
1.521813982E0,-8.380126953E-2,2.676712036E0,9.196121216E0
1.524316424E0,-5.267333984E-2,2.683898926E0,9.217681885E0
1.526818865E0,1.197814941E-2,2.679107666E0,9.165008545E0
1.529351824E0,2.489929199E-1,2.712631226E0,9.076416016E0
1.531854266E0,8.188171387E-1,2.774887085E0,8.767562866E0
1.534356707E0,1.417373657E0,2.839523315E0,8.463500977E0
1.536859149E0,1.393432617E0,2.863464355E0,8.420410156E0
1.539361590E0,1.161193848E0,2.853881836E0,8.513778687E0
1.541864031E0,8.523406982E-1,2.636016846E0,8.796295166E0
1.544366473E0,4.453277588E-1,2.442092896E0,9.227249146E0
1.546868914E0,5.746459961E-2,2.252944946E0,9.574417114E0
1.549401873E0,-2.226562500E-1,2.094924927E0,9.916778564E0
1.551904315E0,-4.716644287E-1,2.059020996E0,1.023281860E1
1.554406756E0,-7.350158691E-1,2.070983887E0,1.034535217E1
1.556909197E0,-8.762817383E-1,2.171539307E0,1.037886047E1
1.559411639E0,-8.595123291E-1,2.288864136E0,1.030464172E1
1.561914080E0,-8.954315186E-1,2.403778076E0,1.018254089E1
1.564416522E0,-8.810729980E-1,2.497146606E0,1.000776672E1
1.566918963E0,-7.900848389E-1,2.621658325E0,9.876083374E0
1.569451922E0,-6.799468994E-1,2.719818115E0,9.725250244E0
1.571954363E0,-6.081237793E-1,2.750930786E0,9.619903564E0
1.574456805E0,-5.243377686E-1,2.810791016E0,9.442733765E0
1.576959246E0,-4.333496094E-1,2.827545166E0,9.289505005E0
1.579461688E0,-4.165954590E-1,2.798828125E0,9.162612915E0
1.581964129E0,-3.854675293E-1,2.782058716E0,9.074020386E0
1.584466570E0,-4.548950195E-1,2.710235596E0,8.975860596E0
1.586999529E0,-5.386962891E-1,2.647979736E0,8.942337036E0
1.589501971E0,-6.512298584E-1,2.542648315E0,8.930374146E0
1.592004412E0,-7.134704590E-1,2.504333496E0,8.987838745E0
1.594506854E0,-8.092346191E-1,2.470809937E0,9.069229126E0
1.597009295E0,-9.313507080E-1,2.387023926E0,9.141067505E0
1.599511736E0,-1.029510498E0,2.339141846E0,9.275131226E0
1.602014178E0,-1.106124878E0,2.370254517E0,9.325408936E0
1.604516619E0,-1.082183838E0,2.363082886E0,9.385269165E0
1.607049578E0,-1.055847168E0,2.375045776E0,9.502593994E0
1.609552020E0,-1.051055908E0,2.408569336E0,9.643844604E0
1.612054461E0,-9.552917480E-1,2.418136597E0,9.660598755E0
1.614556902E0,-8.523406982E-1,2.468429565E0,9.710876465E0
1.617059344E0,-6.847381592E-1,2.477996826E0,9.770736694E0
1.619561785E0,-5.674285889E-1,2.509124756E0,9.799468994E0
1.622064227E0,-4.429321289E-1,2.497146606E0,9.756378174E0
1.624566668E0,-3.016662598E-1,2.506729126E0,9.746795654E0
1.627099627E0,-2.561798096E-1,2.504333496E0,9.701309204E0
1.629602068E0,-1.747741699E-1,2.456451416E0,9.658203125E0
1.632104510E0,-1.221008301E-1,2.420532227E0,9.662994385E0
1.634606951E0,-9.576416016E-2,2.379837036E0,9.713272095E0
1.637109393E0,-8.140563965E-2,2.317581177E0,9.792282104E0
1.639611834E0,-4.548645020E-2,2.288864136E0,9.868896484E0
1.642114275E0,-5.027770996E-2,2.221817017E0,9.856933594E0
1.644647234E0,-4.548645020E-2,2.205062866E0,9.940719604E0
1.647149676E0,2.395629883E-3,2.205062866E0,9.952697754E0
1.649652117E0,-7.186889648E-3,2.135635376E0,9.962280273E0
1.652154559E0,5.027770996E-2,2.087738037E0,9.967056274E0
1.654657000E0,5.506896973E-2,2.109298706E0,1.001733398E1
1.657159441E0,6.463623047E-2,2.080566406E0,1.003410339E1
1.659661883E0,2.394104004E-2,2.042251587E0,1.004606628E1
1.662164324E0,-2.395629883E-3,2.063796997E0,1.010353088E1
1.664697283E0,1.675415039E-2,2.047042847E0,1.013226318E1
1.667199725E0,-9.582519531E-3,2.013519287E0,1.010592651E1
1.669702166E0,-5.506896973E-2,2.003952026E0,1.010592651E1
1.672204607E0,-4.548645020E-2,2.003952026E0,1.009155273E1
1.674707049E0,-5.746459961E-2,2.030288696E0,1.013226318E1
1.677209490E0,-1.532287598E-1,2.082962036E0,1.040040588E1
1.679711932E0,-1.675872803E-1,2.123657227E0,1.054885864E1
1.682244891E0,-2.011108398E-1,2.224212646E0,1.031182861E1
1.684747332E0,-2.561798096E-1,2.312805176E0,1.034056091E1
1.687249774E0,-3.256072998E-1,2.425323486E0,1.038365173E1
1.689752215E0,-6.129150391E-1,2.482788086E0,1.040998840E1
1.692254656E0,-6.943206787E-1,2.482788086E0,1.040759277E1
1.694757098E0,-2.513885498E-1,2.255340576E0,1.030224609E1
1.697259539E0,-3.352355957E-2,2.109298706E0,1.012268066E1
1.699761981E0,-8.140563965E-2,2.138015747E0,9.856933594E0
1.702294940E0,-8.212127686E-1,2.540252686E0,9.476257324E0
1.704797381E0,-7.541809082E-1,2.590530396E0,9.351745605E0
1.707299822E0,-6.225585938E-2,2.284072876E0,9.311050415E0
1.709802264E0,3.399810791E-1,1.939300537E0,9.236831665E0
1.712304705E0,4.046173096E-1,1.733398438E0,9.155426025E0
1.714807147E0,5.817871094E-1,1.716644287E0,9.186553955E0
1.717309588E0,7.996673584E-1,1.721435547E0,9.394851685E0
1.719812029E0,9.361267090E-1,1.711853027E0,9.531311035E0
1.722314471E0,1.012741089E0,1.704666138E0,9.562438965E0
1.724847430E0,9.289550781E-1,1.673553467E0,9.545684814E0
1.727380389E0,7.302246094E-1,1.659179688E0,9.466674805E0
1.729882830E0,4.884185791E-1,1.735794067E0,9.363723755E0
1.732385272E0,2.825164795E-1,1.728607178E0,9.315841675E0
1.734887713E0,1.628112793E-1,1.778884888E0,9.330200195E0
1.737390154E0,9.576416016E-2,1.855499268E0,9.370910645E0
1.739923113E0,1.652069092E-1,1.929733276E0,9.445129395E0
1.742425555E0,1.795654297E-1,2.073379517E0,9.538497925E0
1.744927996E0,5.506896973E-2,2.284072876E0,9.564834595E0
1.747430438E0,1.987152100E-1,2.308013916E0,9.653427124E0
1.749932879E0,4.046173096E-1,2.284072876E0,9.799468994E0
1.752435320E0,5.889739990E-1,2.233795166E0,9.914382935E0
1.754937762E0,6.057281494E-1,2.276885986E0,9.947906494E0
1.757470721E0,5.650329590E-1,2.372650146E0,1.006283569E1
1.759973162E0,4.309539795E-1,2.461242676E0,1.008917236E1
1.762475604E0,3.280029297E-1,2.557006836E0,9.998184204E0
1.764978045E0,2.274475098E-1,2.621658325E0,1.005325317E1
1.767480486E0,1.005554199E-1,2.674316406E0,1.007240295E1
1.769982928E0,-1.914978027E-2,2.726989746E0,1.002212524E1
1.772485369E0,-8.380126953E-2,2.753326416E0,9.938323975E0
1.774987811E0,-1.340789795E-1,2.772491455E0,9.916778564E0
1.777490252E0,-1.987152100E-1,2.794036865E0,9.859329224E0
1.780023211E0,-1.891479492E-1,2.825164795E0,9.737213135E0
1.782525652E0,-1.939239502E-1,2.858673096E0,9.574417114E0
1.785028094E0,-1.532287598E-1,2.861068726E0,9.428359985E0
1.787530535E0,-1.221008301E-1,2.846710205E0,9.375686646E0
1.790032977E0,-6.225585938E-2,2.880218506E0,9.385269165E0
1.792535418E0,3.352355957E-2,2.887405396E0,9.363723755E0
1.795037859E0,9.576416016E-2,2.870651245E0,9.325408936E0
1.797540301E0,1.005554199E-1,2.839523315E0,9.311050415E0
1.800073260E0,5.267333984E-2,2.839523315E0,9.241622925E0
1.802575701E0,7.421875000E-2,2.772491455E0,9.176971436E0
1.805078143E0,1.435852051E-2,2.794036865E0,9.026138306E0
1.807580584E0,1.435852051E-2,2.782058716E0,8.920791626E0
1.810083025E0,7.182312012E-2,2.758117676E0,8.846572876E0
1.812585467E0,7.661437988E-2,2.779663086E0,8.765167236E0
1.815087908E0,1.484375000E-1,2.779663086E0,8.578430176E0
1.817620867E0,1.460418701E-1,2.741363525E0,8.465896606E0
1.820123309E0,1.915435791E-1,2.770095825E0,8.374923706E0
1.822625750E0,2.394256592E-1,2.748550415E0,8.262390137E0
1.825128191E0,2.825164795E-1,2.717422485E0,8.224075317E0
1.827630633E0,3.830718994E-1,2.731781006E0,8.197753906E0
1.830133074E0,4.237670898E-1,2.726989746E0,8.209716797E0
1.832635516E0,4.764404297E-1,2.667144775E0,8.202529907E0
1.835137957E0,4.980010986E-1,2.729385376E0,8.195358276E0
1.837670916E0,5.578460693E-1,2.671936035E0,8.315063477E0
1.840173357E0,5.865783691E-1,2.667144775E0,8.303085327E0
1.842675799E0,6.607971191E-1,2.650375366E0,8.348587036E0
1.845178240E0,6.272735596E-1,2.645599365E0,8.377319336E0
1.847680682E0,5.841827393E-1,2.679107666E0,8.334213257E0
1.850183123E0,6.272735596E-1,2.686294556E0,8.295913696E0
1.852685565E0,6.871337891E-1,2.695877075E0,8.329421997E0
1.855218524E0,7.493896484E-1,2.712631226E0,8.298309326E0
1.857720965E0,7.948760986E-1,2.683898926E0,8.370132446E0
1.860223406E0,8.762817383E-1,2.717422485E0,8.350982666E0
1.862725848E0,9.241638184E-1,2.719818115E0,8.396469116E0
1.865228289E0,8.978271484E-1,2.782058716E0,8.480255127E0
1.867730731E0,8.762817383E-1,2.882614136E0,8.465896606E0
1.870233172E0,8.260040283E-1,2.911346436E0,8.506591797E0
1.872735613E0,7.445983887E-1,2.990356445E0,8.576034546E0
1.875268572E0,5.961608887E-1,3.110061646E0,8.576034546E0
1.877771014E0,4.620819092E-1,3.215408325E0,8.667007446E0
1.880273455E0,3.782806396E-1,3.368637085E0,8.767562866E0
1.882775897E0,5.195465088E-1,4.089294434E0,9.004592896E0
1.885278338E0,3.280029297E-1,4.460403442E0,9.248794556E0
1.887780779E0,-3.351898193E-1,4.266464233E0,9.368515015E0
1.890283221E0,-8.140258789E-1,4.201828003E0,9.550476074E0
1.892816180E0,-1.010360718E0,4.182662964E0,9.782714844E0
1.895318621E0,-1.065414429E0,4.206619263E0,9.981430054E0
1.897821063E0,-9.672546387E-1,4.307174683E0,1.004606628E1
1.900323504E0,-6.799468994E-1,4.395751953E0,9.993392944E0
1.902825945E0,4.333496094E-1,4.781219482E0,9.940719604E0
1.905328387E0,5.793914795E-1,5.035003662E0,9.710876465E0
1.907830828E0,-7.302246094E-1,4.400543213E0,9.442733765E0
1.910333270E0,-1.472427368E0,3.955215454E0,9.507369995E0
1.912866229E0,-1.484405518E0,3.845092773E0,9.770736694E0
1.915368670E0,-1.197097778E0,3.912124634E0,9.849746704E0
1.917871111E0,-1.043869019E0,3.823547363E0,9.852142334E0
1.920373553E0,-9.600677490E-1,3.672698975E0,9.883270264E0
1.922875994E0,-6.967163086E-1,3.519470215E0,9.742004395E0
1.925378436E0,-4.285583496E-1,3.380615234E0,9.481033325E0
1.927880877E0,-3.327941895E-1,3.215408325E0,9.368515015E0
1.930413836E0,-1.867523193E-1,3.047821045E0,9.311050415E0
1.932916277E0,-1.292877197E-1,2.877822876E0,9.301467896E0
1.935418719E0,-9.576416016E-2,2.753326416E0,9.378082275E0
1.937921160E0,-1.053466797E-1,2.621658325E0,9.421188354E0
1.940423602E0,-1.029510498E-1,2.518707275E0,9.490615845E0
1.942926043E0,-1.244964600E-1,2.384628296E0,9.543289185E0
1.945428484E0,-1.963195801E-1,2.308013916E0,9.583984375E0
1.947961443E0,-2.873077393E-1,2.315185547E0,9.569625854E0
1.950463885E0,-2.992706299E-1,2.298431396E0,9.607925415E0
1.952966326E0,-3.088531494E-1,2.327163696E0,9.679763794E0
1.955468768E0,-3.543395996E-1,2.312805176E0,9.804260254E0
1.957971209E0,-4.261627197E-1,2.348709106E0,9.923965454E0
1.960473650E0,-4.764404297E-1,2.461242676E0,1.002452087E1
1.962976092E0,-4.812316895E-1,2.470809937E0,1.008917236E1
1.965478533E0,-4.740447998E-1,2.473205566E0,1.018733215E1
1.968011492E0,-5.291137695E-1,2.466033936E0,1.025436401E1
1.970513934E0,-5.961608887E-1,2.466033936E0,1.030703735E1
1.973016375E0,-6.464385986E-1,2.504333496E0,1.038125610E1
1.975518816E0,-7.015075684E-1,2.485183716E0,1.036929321E1
1.978021258E0,-7.015075684E-1,2.487579346E0,1.034773254E1
1.980523699E0,-7.469940186E-1,2.461242676E0,1.037406921E1
1.983026141E0,-8.044586182E-1,2.485183716E0,1.039802551E1
1.985559100E0,-8.092346191E-1,2.458847046E0,1.043872070E1
1.988061541E0,-8.379669189E-1,2.418136597E0,1.043632507E1
1.990563982E0,-8.571166992E-1,2.470809937E0,1.036929321E1
1.993066424E0,-8.331756592E-1,2.509124756E0,1.035491943E1
1.995568865E0,-8.020629883E-1,2.499542236E0,1.033337402E1
1.998071307E0,-8.283996582E-1,2.513916016E0,1.026394653E1
2.000573748E0,-8.571166992E-1,2.564193726E0,1.020887756E1
2.003076190E0,-8.283996582E-1,2.652770996E0,1.021846008E1
2.005609149E0,-9.289550781E-1,2.691085815E0,1.022563171E1
2.008111590E0,-9.935913086E-1,2.758117676E0,1.018972778E1
2.010614031E0,-1.017532349E0,2.789245605E0,1.009873962E1
2.013116473E0,-1.024719238E0,2.817977905E0,1.007240295E1
2.015649432E0,-1.022323608E0,2.815582275E0,1.004367065E1
2.018151873E0,-1.058242798E0,2.798828125E0,9.945510864E0
2.020654315E0,-1.086975098E0,2.832336426E0,9.907211304E0
2.023156756E0,-1.063018799E0,2.758117676E0,9.859329224E0
2.025659197E0,-1.036682129E0,2.734176636E0,9.878479004E0
2.028192156E0,-1.046264648E0,2.736572266E0,9.823410034E0
2.030694598E0,-1.110916138E0,2.633621216E0,9.823410034E0
2.033197039E0,-1.089355469E0,2.561798096E0,9.861709595E0
2.035699481E0,-1.055847168E0,2.439697266E0,9.840164185E0
2.038201922E0,-9.744415283E-1,2.343917847E0,9.806655884E0
2.040704363E0,-1.003173828E0,2.310409546E0,9.715667725E0
2.043237322E0,-8.762817383E-1,2.195480347E0,9.694122314E0
2.045709246E0,-8.547363281E-1,2.078170776E0,9.586380005E0
2.048242205E0,-7.996673584E-1,2.015914917E0,9.514556885E0
2.050744647E0,-7.350158691E-1,1.898605347E0,9.425979614E0
2.053247088E0,-6.727752686E-1,1.829162598E0,9.390060425E0
2.055749529E0,-6.392517090E-1,1.752548218E0,9.356536865E0
2.058251971E0,-6.320648193E-1,1.661575317E0,9.327804565E0
2.060754412E0,-6.871337891E-1,1.618484497E0,9.205703735E0
2.063256854E0,-6.392517090E-1,1.625656128E0,9.114730835E0
2.065789813E0,-6.799468994E-1,1.584960938E0,9.148239136E0
2.068292254E0,-7.661437988E-1,1.561019897E0,9.050079346E0
2.070794695E0,-7.781219482E-1,1.517929077E0,8.980651855E0
2.073297137E0,-7.685394287E-1,1.477218628E0,9.014175415E0
2.075799578E0,-7.589569092E-1,1.414978027E0,8.975860596E0
2.078302020E0,-7.733306885E-1,1.434127808E0,8.947128296E0
2.080834979E0,-7.685394287E-1,1.345535278E0,8.980651855E0
2.083337420E0,-7.637481689E-1,1.288085938E0,8.942337036E0
2.085839861E0,-7.445983887E-1,1.247375488E0,8.887283325E0
2.088342303E0,-7.781219482E-1,1.209075928E0,8.882492065E0
2.090844744E0,-7.709350586E-1,1.194702148E0,8.906433105E0
2.093347186E0,-7.972717285E-1,1.175552368E0,8.947128296E0
2.095849627E0,-8.930358887E-1,1.158798218E0,9.047683716E0
2.098352068E0,-9.121856689E-1,1.101333618E0,9.042892456E0
2.100854510E0,-9.050140381E-1,1.034301758E0,9.038116455E0
2.103387469E0,-8.403625488E-1,9.840240479E-1,9.045288086E0
2.105889910E0,-8.307952881E-1,9.600677490E-1,9.100357056E0
2.108392352E0,-7.637481689E-1,9.121856689E-1,9.205703735E0
2.110894793E0,-7.757263184E-1,8.451538086E-1,9.284713745E0
2.113397234E0,-6.895294189E-1,8.068389893E-1,9.342178345E0
2.115899676E0,-6.991119385E-1,7.230529785E-1,9.382873535E0
2.118432635E0,-7.972717285E-1,6.967163086E-1,9.504974365E0
2.120935076E0,-7.876892090E-1,6.344604492E-1,9.526535034E0
2.123437518E0,-8.020629883E-1,5.913696289E-1,9.550476074E0
2.125939959E0,-7.206573486E-1,5.650329590E-1,9.583984375E0
2.128442400E0,-6.368560791E-1,5.769958496E-1,9.567230225E0
2.130944842E0,-5.386962891E-1,5.817871094E-1,9.493011475E0
2.133447283E0,-4.932098389E-1,5.865783691E-1,9.473861694E0
2.135949725E0,-4.980010986E-1,6.248931885E-1,9.430755615E0
2.138452166E0,-4.884185791E-1,6.129150391E-1,9.402023315E0
2.140985125E0,-5.793914795E-1,6.967163086E-1,9.308654785E0
2.143487566E0,-6.057281494E-1,7.278442383E-1,9.251190186E0
2.145990008E0,-6.081237793E-1,8.307952881E-1,9.208099365E0
2.148492449E0,-6.727752686E-1,9.505004883E-1,9.097961426E0
2.150994891E0,-7.493896484E-1,1.043869019E0,9.064453125E0
2.153497332E0,-8.092346191E-1,1.139633179E0,9.069229126E0
2.155999774E0,-8.140258789E-1,1.192306519E0,8.995010376E0
2.158532732E0,-8.523406982E-1,1.290481567E0,8.951919556E0
2.161035174E0,-9.074096680E-1,1.367095947E0,8.918395996E0
2.163537615E0,-9.457092285E-1,1.426940918E0,8.844177246E0
2.166040057E0,-9.935913086E-1,1.489196777E0,8.815444946E0
2.168542498E0,-1.074996948E0,1.558624268E0,8.844177246E0
2.171044940E0,-1.156402588E0,1.613693237E0,8.844177246E0
2.173547381E0,-1.237808228E0,1.719039917E0,8.810668945E0
2.176049822E0,-1.338363647E0,1.944091797E0,8.784332275E0
2.178582781E0,-1.489196777E0,2.126052856E0,8.808273315E0
2.181085223E0,-1.458068848E0,1.944091797E0,8.863342285E0
2.183587664E0,-1.558624268E0,2.154785156E0,8.813049316E0
2.186090106E0,-1.568206787E0,2.099716187E0,8.760391235E0
2.188592547E0,-1.556228638E0,2.032684326E0,8.734054565E0
2.191094988E0,-1.479614258E0,1.980010986E0,8.729263306E0
2.193597430E0,-1.467651367E0,1.912963867E0,8.748413086E0
2.196130389E0,-1.450881958E0,1.793258667E0,8.741226196E0
2.198632830E0,-1.436523438E0,1.649612427E0,8.779541016E0
2.201135272E0,-1.414978027E0,1.446090698E0,8.803482056E0
2.203637713E0,-1.350326538E0,1.309631348E0,8.784332275E0
2.206140154E0,-1.321594238E0,1.180343628E0,8.755599976E0
2.208642596E0,-1.316818237E0,1.055847168E0,8.722076416E0
2.211145037E0,-1.295257568E0,9.313507080E-1,8.748413086E0
2.213647479E0,-1.194702148E0,7.924804688E-1,8.832214355E0
2.216180438E0,-1.094146729E0,6.009521484E-1,8.930374146E0
2.218682879E0,-9.983825684E-1,4.118041992E-1,8.987838745E0
2.221185320E0,-9.648590088E-1,2.753295898E-1,8.980651855E0
2.223687762E0,-9.193725586E-1,1.173095703E-1,9.047683716E0
2.226190203E0,-9.097900391E-1,-3.831481934E-2,9.203308105E0
2.228692645E0,-9.337310791E-1,-1.340789795E-1,9.284713745E0
2.231225604E0,-9.959869385E-1,-1.604156494E-1,9.334991455E0
2.233728045E0,-1.019927979E0,-1.364746094E-1,9.437942505E0
2.236230486E0,-9.816284180E-1,-6.225585938E-2,9.598358154E0
2.238732928E0,-9.720458984E-1,-1.914978027E-2,9.722854614E0
2.241235369E0,-1.074996948E0,3.591918945E-2,9.799468994E0
2.243737811E0,-1.096542358E0,9.336853027E-2,9.832992554E0
2.246240252E0,-1.065414429E0,1.364746094E-1,9.880874634E0
2.248742693E0,-1.051055908E0,1.268920898E-1,9.950302124E0
2.251245135E0,-1.048660278E0,1.771697998E-1,9.998184204E0
2.253778094E0,-1.122879028E0,2.202606201E-1,1.005804443E1
2.256280535E0,-1.137252808E0,2.753295898E-1,1.010592651E1
2.258782977E0,-1.139633179E0,3.232116699E-1,1.014184570E1
2.261285418E0,-1.252166748E0,4.548950195E-1,1.022084045E1
2.263787859E0,-1.359909058E0,5.315093994E-1,1.021366882E1
2.266290301E0,-1.460464478E0,6.272735596E-1,1.019929504E1
2.268792742E0,-1.501159668E0,6.991119385E-1,1.017535400E1
2.271325701E0,-1.608901978E0,7.709350586E-1,1.007719421E1
2.273828143E0,-1.666366577E0,8.738861084E-1,1.001733398E1
2.276330584E0,-1.702270508E0,9.409179688E-1,9.921569824E0
2.278833025E0,-1.788467407E0,9.624633789E-1,9.868896484E0
2.281335467E0,-1.833953857E0,1.024719238E0,9.686935425E0
2.283837908E0,-1.877059937E0,1.043869019E0,9.677368164E0
2.286340350E0,-1.960845947E0,1.086975098E0,9.562438965E0
2.288842791E0,-2.003952026E0,1.113296509E0,9.473861694E0
2.291375750E0,-2.049438477E0,1.113296509E0,9.435546875E0
2.293878191E0,-2.159576416E0,1.084579468E0,9.363723755E0
2.296380633E0,-2.188293457E0,1.091751099E0,9.366119385E0
2.298913592E0,-2.219421387E0,1.146820068E0,9.425979614E0
2.301416033E0,-2.173934937E0,1.144424438E0,9.428359985E0
2.303918475E0,-2.087738037E0,1.079788208E0,9.516952515E0
2.306420916E0,-1.972824097E0,1.036682129E0,9.567230225E0
2.308923357E0,-1.826782227E0,9.433135986E-1,9.581588745E0
2.311456316E0,-1.673553467E0,7.805023193E-1,9.579208374E0
2.313958758E0,-1.537078857E0,6.320648193E-1,9.607925415E0
2.316461199E0,-1.434127808E0,5.123596191E-1,9.634262085E0
2.318963641E0,-1.297653198E0,4.596862793E-1,9.651031494E0
2.321466082E0,-1.156402588E0,3.232116699E-1,9.629486084E0
2.323968524E0,-1.053451538E0,1.843566895E-1,9.600753784E0
2.326470965E0,-9.050140381E-1,1.005554199E-1,9.569625854E0
2.329003924E0,-8.427581787E-1,7.186889648E-3,9.562438965E0
2.331506365E0,-7.685394287E-1,-5.267333984E-2,9.481033325E0
2.334008807E0,-5.985565186E-1,-1.484375000E-1,9.507369995E0
2.336511248E0,-5.243377686E-1,-2.370300293E-1,9.466674805E0
2.339013690E0,-4.596862793E-1,-2.849121094E-1,9.423583984E0
2.341516131E0,-3.926544189E-1,-3.495483398E-1,9.428359985E0
2.344018572E0,-3.687133789E-1,-3.567352295E-1,9.452301025E0
2.346551531E0,-3.184356689E-1,-4.070129395E-1,9.409210205E0
2.349053973E0,-2.873077393E-1,-4.141998291E-1,9.459487915E0
2.351556414E0,-3.280029297E-1,-4.285583496E-1,9.540893555E0
2.354058856E0,-3.591308594E-1,-4.189910889E-1,9.648635864E0
2.356561297E0,-3.687133789E-1,-4.118041992E-1,9.734817505E0
2.359063738E0,-3.974304199E-1,-3.591308594E-1,9.861709595E0
2.361566180E0,-4.213867188E-1,-4.046173096E-1,9.933547974E0
2.364068621E0,-5.291137695E-1,-3.758850098E-1,1.001255798E1
2.366601580E0,-5.865783691E-1,-3.495483398E-1,1.012268066E1
2.369104022E0,-6.679840088E-1,-2.968750000E-1,1.016578674E1
2.371606463E0,-7.326202393E-1,-2.465972900E-1,1.019929504E1
2.374108904E0,-7.972717285E-1,-1.891479492E-1,1.028788757E1
2.376611346E0,-8.595123291E-1,-1.388702393E-1,1.038365173E1
2.379113787E0,-8.834533691E-1,-6.225585938E-2,1.046026611E1
2.381616229E0,-9.911956787E-1,-9.097290039E-2,1.044830322E1
2.384149188E0,-1.048660278E0,-9.097290039E-2,1.048899841E1
2.386651629E0,-1.067810059E0,-5.986022949E-2,1.042434692E1
2.389154070E0,-1.051055908E0,-2.394104004E-2,1.042196655E1
2.391656512E0,-1.108520508E0,-1.221008301E-1,1.033816528E1
2.394158953E0,-1.103729248E0,-1.149291992E-1,1.025675964E1
2.396661395E0,-1.060638428E0,-1.244964600E-1,1.022323608E1
2.399163836E0,-9.600677490E-1,-2.202606201E-1,1.005564880E1
2.401666277E0,-8.212127686E-1,-2.992706299E-1,9.964660645E0
2.404199236E0,-6.727752686E-1,-3.351898193E-1,9.895233154E0
2.406701678E0,-5.961608887E-1,-4.692687988E-1,9.811431885E0
2.409204119E0,-5.243377686E-1,-6.105194092E-1,9.713272095E0
2.411706561E0,-4.764404297E-1,-7.733306885E-1,9.698913574E0
2.414209002E0,-4.213867188E-1,-8.714904785E-1,9.646240234E0
2.416711443E0,-4.237670898E-1,-1.003173828E0,9.622299194E0
2.419213885E0,-3.734893799E-1,-1.048660278E0,9.579208374E0
2.421716326E0,-2.250518799E-1,-1.091751099E0,9.572021484E0
2.424249285E0,-9.576416016E-2,-1.122879028E0,9.528915405E0
2.426751727E0,-1.435852051E-2,-1.168365479E0,9.488220215E0
2.429254168E0,7.182312012E-2,-1.204284668E0,9.509765625E0
2.431756609E0,1.005554199E-1,-1.290481567E0,9.500198364E0
2.434259051E0,1.819610596E-1,-1.307235718E0,9.543289185E0
2.436761492E0,3.064575195E-1,-1.369476318E0,9.629486084E0
2.439263934E0,4.022216797E-1,-1.379058838E0,9.689331055E0
2.441796893E0,4.118041992E-1,-1.400604248E0,9.715667725E0
2.444299334E0,4.836273193E-1,-1.407791138E0,9.737213135E0
2.446801775E0,5.458831787E-1,-1.412582397E0,9.825805664E0
2.449304217E0,5.410919189E-1,-1.405395508E0,9.940719604E0
2.451806658E0,5.626373291E-1,-1.441314697E0,9.940719604E0
2.454309100E0,5.865783691E-1,-1.410186768E0,9.955093384E0
2.456811541E0,5.865783691E-1,-1.467651367E0,1.000537109E1
2.459313982E0,5.817871094E-1,-1.462860107E0,1.006761169E1
2.461846941E0,5.506591797E-1,-1.436523438E0,1.005325317E1
2.464349383E0,5.386962891E-1,-1.472427368E0,1.003170776E1
2.466851824E0,5.243377686E-1,-1.474822998E0,9.988616943E0
2.469354266E0,4.501037598E-1,-1.462860107E0,1.001493835E1
2.471856707E0,4.836273193E-1,-1.446090698E0,9.919174194E0
2.474359149E0,5.291137695E-1,-1.374267578E0,9.837768555E0
2.476861590E0,4.644775391E-1,-1.379058838E0,9.842559814E0
2.479394549E0,4.237670898E-1,-1.347930908E0,9.890441895E0
2.481896990E0,4.908142090E-1,-1.335968018E0,9.931152344E0
2.484399432E0,3.998260498E-1,-1.312026978E0,9.938323975E0
2.486901873E0,3.974304199E-1,-1.319198608E0,1.002931213E1
2.489404315E0,3.710937500E-1,-1.314422607E0,1.009394836E1
2.491906756E0,3.782806396E-1,-1.323989868E0,1.011550903E1
2.494409197E0,3.567352295E-1,-1.278503418E0,1.013465881E1
2.496911639E0,2.825164795E-1,-1.273712158E0,1.017295837E1
2.499414080E0,2.465972900E-1,-1.223434448E0,1.023760986E1
2.501947039E0,2.418212891E-1,-1.151611328E0,1.027351379E1
2.504449481E0,1.340789795E-1,-1.134857178E0,1.028070068E1
2.506951922E0,7.421875000E-2,-1.096542358E0,1.021366882E1
2.509454363E0,6.703186035E-2,-1.015136719E0,1.022802734E1
2.511956805E0,5.986022949E-2,-9.959869385E-1,1.021606445E1
2.514459246E0,3.831481934E-2,-9.792327881E-1,1.020169067E1
2.516992205E0,6.225585938E-2,-9.552917480E-1,1.009873962E1
2.519494647E0,4.309082031E-2,-9.983825684E-1,1.002691650E1
2.521997088E0,2.395629883E-3,-1.003173828E0,9.926361084E0
2.524499529E0,4.788208008E-2,-1.041473389E0,9.878479004E0
2.527001971E0,1.221008301E-1,-1.079788208E0,9.763549805E0
2.529504412E0,1.939239502E-1,-1.079788208E0,9.682144165E0
2.532006854E0,2.322387695E-1,-1.132461548E0,9.552871704E0
2.534509295E0,2.513885498E-1,-1.218643188E0,9.414001465E0
2.537011736E0,2.633666992E-1,-1.288085938E0,9.354141235E0
2.539544695E0,2.418212891E-1,-1.367095947E0,9.215286255E0
2.542047137E0,3.232116699E-1,-1.446090698E0,9.126693726E0
2.544549578E0,3.088531494E-1,-1.501159668E0,9.054870605E0
2.547052020E0,3.232116699E-1,-1.553833008E0,9.028533936E0
2.549554461E0,3.998260498E-1,-1.553833008E0,8.916000366E0
2.552056902E0,4.836273193E-1,-1.611297607E0,8.951919556E0
2.554589861E0,4.908142090E-1,-1.635238647E0,9.054870605E0
2.557092303E0,4.285583496E-1,-1.673553467E0,9.150634766E0
2.559594744E0,3.639221191E-1,-1.764526367E0,9.217681885E0
2.562097186E0,3.280029297E-1,-1.833953857E0,9.284713745E0
2.564599627E0,3.782806396E-1,-1.879455566E0,9.440338135E0
2.567102068E0,3.232116699E-1,-1.963241577E0,9.493011475E0
2.569604510E0,3.303985596E-1,-2.011123657E0,9.583984375E0
2.572106951E0,3.591308594E-1,-2.106903076E0,9.612716675E0
2.574609393E0,3.591308594E-1,-2.114074707E0,9.684539795E0
2.577142352E0,4.070129395E-1,-2.154785156E0,9.698913574E0
2.579644793E0,3.950500488E-1,-2.202667236E0,9.703704834E0
2.582147234E0,4.405364990E-1,-2.236190796E0,9.725250244E0
2.584649676E0,4.980010986E-1,-2.264907837E0,9.753982544E0
2.587182635E0,4.836273193E-1,-2.281677246E0,9.789886475E0
2.589685076E0,4.836273193E-1,-2.279281616E0,9.856933594E0
2.592187518E0,4.524993896E-1,-2.269699097E0,9.861709595E0
2.594720477E0,4.261627197E-1,-2.238571167E0,9.976638794E0
2.597222918E0,4.357452393E-1,-2.214630127E0,1.002691650E1
2.599725359E0,4.261627197E-1,-2.106903076E0,1.009634399E1
2.602227801E0,4.333496094E-1,-2.044647217E0,1.011550903E1
2.604730242E0,4.189910889E-1,-1.956069946E0,1.009155273E1
2.607232684E0,4.189910889E-1,-1.879455566E0,1.011550903E1
2.609735125E0,4.333496094E-1,-1.850723267E0,1.013465881E1
2.612237566E0,4.046173096E-1,-1.766921997E0,1.011550903E1
2.614770525E0,4.022216797E-1,-1.704666138E0,1.008677673E1
2.617272967E0,4.118041992E-1,-1.692703247E0,1.007240295E1
2.619775408E0,4.357452393E-1,-1.642425537E0,1.009155273E1
2.622277850E0,4.692687988E-1,-1.584960938E0,1.004606628E1
2.624780291E0,5.243377686E-1,-1.572998047E0,1.007958984E1
2.627282732E0,5.267181396E-1,-1.534683228E0,1.005325317E1
2.629785174E0,5.147552490E-1,-1.498764038E0,1.008917236E1
2.632318133E0,5.291137695E-1,-1.498764038E0,1.005325317E1
2.634820574E0,5.171508789E-1,-1.482009888E0,9.998184204E0
2.637323016E0,5.506591797E-1,-1.455673218E0,9.943115234E0
2.639825457E0,5.434875488E-1,-1.482009888E0,9.876083374E0
2.642327899E0,5.746154785E-1,-1.460464478E0,9.842559814E0
2.644830340E0,5.841827393E-1,-1.381454468E0,9.818618774E0
2.647332781E0,5.769958496E-1,-1.362304688E0,9.746795654E0
2.649835223E0,6.009521484E-1,-1.333572388E0,9.658203125E0
2.652368182E0,1.628112793E-1,-1.352722168E0,9.210494995E0
2.654870623E0,-3.352355957E-2,-1.242584229E0,9.287109375E0
2.657373065E0,-4.069519043E-2,-1.051055908E0,9.536102295E0
2.659875506E0,7.398071289E-1,-1.209075928E0,1.006283569E1
2.662377947E0,1.426940918E0,-1.508346558E0,9.775527954E0
2.664880389E0,1.491592407E0,-1.666366577E0,9.665390015E0
2.667382830E0,8.810729980E-1,-1.656784058E0,9.533706665E0
2.669915789E0,6.607971191E-1,-1.685516357E0,9.607925415E0
2.672418231E0,7.517852783E-1,-1.692703247E0,9.801864624E0
2.674920672E0,8.140258789E-1,-1.716644287E0,9.713272095E0
2.677423113E0,8.834533691E-1,-1.675933838E0,9.679763794E0
2.679925555E0,1.015136719E0,-1.637634277E0,9.674972534E0
2.682427996E0,1.120483398E0,-1.632843018E0,9.679763794E0
2.684930438E0,1.101333618E0,-1.596939087E0,9.634262085E0
2.687432879E0,1.058242798E0,-1.620880127E0,9.560043335E0
2.689965838E0,1.067810059E0,-1.616088867E0,9.543289185E0
2.692468279E0,1.110916138E0,-1.651992798E0,9.655822754E0
2.694970721E0,1.082183838E0,-1.649612427E0,9.639053345E0
2.697473162E0,1.053451538E0,-1.620880127E0,9.782714844E0
2.699975604E0,1.058242798E0,-1.628051758E0,9.861709595E0
2.702478045E0,1.012741089E0,-1.656784058E0,9.945510864E0
2.704980486E0,1.048660278E0,-1.640029907E0,9.981430054E0
2.707513445E0,9.935913086E-1,-1.613693237E0,1.001493835E1
2.710015887E0,1.010360718E0,-1.618484497E0,1.012747192E1
2.712518328E0,1.031906128E0,-1.683120728E0,1.011550903E1
2.715020770E0,1.051055908E0,-1.697494507E0,1.015859985E1
2.717523211E0,1.017532349E0,-1.685516357E0,1.017056274E1
2.720025652E0,9.624633789E-1,-1.738189697E0,1.020648193E1
2.722528094E0,9.385223389E-1,-1.841140747E0,1.018014526E1
2.725030535E0,9.600677490E-1,-1.826782227E0,1.023521423E1
2.727563494E0,8.978271484E-1,-1.872268677E0,1.027830505E1
2.730065936E0,8.762817383E-1,-1.915359497E0,1.029267883E1
2.732568377E0,9.241638184E-1,-1.965637207E0,1.020887756E1
2.735070818E0,9.361267090E-1,-1.970428467E0,1.016099548E1
2.737573260E0,8.547363281E-1,-2.059020996E0,1.009155273E1
2.740075701E0,8.762817383E-1,-2.111679077E0,1.002452087E1
2.742578143E0,8.810729980E-1,-2.138015747E0,9.981430054E0
2.745111102E0,8.978271484E-1,-2.152389526E0,9.837768555E0
2.747613543E0,8.834533691E-1,-2.181121826E0,9.842559814E0
2.750115984E0,9.050140381E-1,-2.202667236E0,9.801864624E0
2.752618426E0,8.786773682E-1,-2.238571167E0,9.682144165E0
2.755120867E0,8.403625488E-1,-2.238571167E0,9.627090454E0
2.757623309E0,8.571166992E-1,-2.272094727E0,9.572021484E0
2.760125750E0,8.331756592E-1,-2.291244507E0,9.538497925E0
2.762628191E0,8.212127686E-1,-2.286468506E0,9.512161255E0
2.765161150E0,7.876892090E-1,-2.276885986E0,9.576812744E0
2.767663592E0,7.422027588E-1,-2.260131836E0,9.516952515E0
2.770166033E0,8.547363281E-1,-2.185913086E0,9.497802734E0
2.772668475E0,8.690948486E-1,-2.169143677E0,9.509765625E0
2.775170916E0,8.762817383E-1,-2.118865967E0,9.557647705E0
2.777673357E0,8.236083984E-1,-2.152389526E0,9.574417114E0
2.780175799E0,7.637481689E-1,-2.149993896E0,9.574417114E0
2.782708758E0,7.110748291E-1,-2.133239746E0,9.653427124E0
2.785211199E0,6.967163086E-1,-2.169143677E0,9.615112305E0
2.787713641E0,7.996673584E-1,-2.173934937E0,9.572021484E0
2.790216082E0,8.427581787E-1,-2.181121826E0,9.533706665E0
2.792718524E0,8.595123291E-1,-2.185913086E0,9.459487915E0
2.795220965E0,8.475494385E-1,-2.207458496E0,9.425979614E0
2.797723406E0,8.714904785E-1,-2.181121826E0,9.406814575E0
2.800225848E0,8.810729980E-1,-2.197875977E0,9.351745605E0
2.802758807E0,8.571166992E-1,-2.157180786E0,9.334991455E0
2.805261248E0,9.265594482E-1,-2.147598267E0,9.246414185E0
2.807763690E0,9.864044189E-1,-2.080566406E0,9.241622925E0
2.810266131E0,9.097900391E-1,-2.044647217E0,9.306259155E0
2.812768572E0,9.337310791E-1,-2.051834106E0,9.270355225E0
2.815271014E0,9.097900391E-1,-1.960845947E0,9.308654785E0
2.817773455E0,8.379669189E-1,-1.889022827E0,9.368515015E0
2.820275897E0,8.643035889E-1,-1.800445557E0,9.507369995E0
2.822808856E0,8.547363281E-1,-1.810012817E0,9.564834595E0
2.825311297E0,8.116302490E-1,-1.764526367E0,9.634262085E0
2.827813738E0,7.709350586E-1,-1.714248657E0,9.746795654E0
2.830316180E0,7.517852783E-1,-1.666366577E0,9.856933594E0
2.832818621E0,6.991119385E-1,-1.692703247E0,9.835388184E0
2.835321063E0,7.134704590E-1,-1.649612427E0,9.912002563E0
2.837823504E0,7.134704590E-1,-1.611297607E0,9.907211304E0
2.840356463E0,6.919250488E-1,-1.644821167E0,9.928756714E0
2.842858904E0,6.871337891E-1,-1.635238647E0,9.986221313E0
2.845361346E0,6.823425293E-1,-1.630447388E0,9.976638794E0
2.847863787E0,6.919250488E-1,-1.628051758E0,9.959884644E0
2.850366229E0,7.158660889E-1,-1.608901978E0,9.964660645E0
2.852868670E0,6.751708984E-1,-1.601715088E0,9.940719604E0
2.855371111E0,6.129150391E-1,-1.618484497E0,9.888046265E0
2.857904070E0,6.201019287E-1,-1.604110718E0,9.900024414E0
2.860406512E0,6.057281494E-1,-1.594543457E0,9.890441895E0
2.862908953E0,5.793914795E-1,-1.661575317E0,9.904815674E0
2.865411395E0,5.913696289E-1,-1.601715088E0,9.847351074E0
2.867913836E0,6.153106689E-1,-1.529891968E0,9.804260254E0
2.870446795E0,5.530548096E-1,-1.493988037E0,9.830596924E0
2.872949236E0,5.530548096E-1,-1.503555298E0,9.818618774E0
2.875451678E0,6.057281494E-1,-1.458068848E0,9.651031494E0
2.877984637E0,5.626373291E-1,-1.455673218E0,9.646240234E0
2.880487078E0,6.272735596E-1,-1.431732178E0,9.521743774E0
2.882989520E0,6.416473389E-1,-1.520324707E0,9.382873535E0
2.885491961E0,6.392517090E-1,-1.505950928E0,9.414001465E0
2.887994402E0,6.201019287E-1,-1.580169678E0,9.358932495E0
2.890496844E0,6.512298584E-1,-1.620880127E0,9.284713745E0
2.892999285E0,6.799468994E-1,-1.651992798E0,9.296691895E0
2.895501727E0,6.201019287E-1,-1.668762207E0,9.363723755E0
2.898034686E0,5.865783691E-1,-1.678329468E0,9.334991455E0
2.900537127E0,5.937652588E-1,-1.663970947E0,9.370910645E0
2.903039568E0,6.296691895E-1,-1.726226807E0,9.449920654E0
2.905542010E0,6.392517090E-1,-1.714248657E0,9.473861694E0
2.908044451E0,6.416473389E-1,-1.714248657E0,9.524139404E0
2.910546893E0,6.727752686E-1,-1.778884888E0,9.598358154E0
2.913049334E0,6.584014893E-1,-1.810012817E0,9.658203125E0
2.915582293E0,7.469940186E-1,-1.812408447E0,9.749191284E0
2.918084734E0,8.140258789E-1,-1.814804077E0,9.801864624E0
2.920587176E0,8.690948486E-1,-1.831558228E0,9.852142334E0
2.923089617E0,9.145812988E-1,-1.845932007E0,9.847351074E0
2.925592059E0,8.954315186E-1,-1.826782227E0,9.916778564E0
2.928094500E0,9.720458984E-1,-1.824386597E0,9.993392944E0
2.930596941E0,1.027114868E0,-1.774108887E0,1.000297546E1
2.933099383E0,1.024719238E0,-1.764526367E0,1.008438110E1
2.935632342E0,1.074996948E0,-1.695098877E0,1.009634399E1
2.938134783E0,1.110916138E0,-1.649612427E0,1.014422607E1
2.940637225E0,1.149215698E0,-1.632843018E0,1.020648193E1
2.943139666E0,1.233016968E0,-1.592147827E0,1.022084045E1
2.945642107E0,1.247375488E0,-1.491592407E0,1.020648193E1
2.948144549E0,1.290481567E0,-1.391036987E0,1.020408630E1
2.950646990E0,1.316818237E0,-1.371871948E0,1.022084045E1
2.953179949E0,1.316818237E0,-1.288085938E0,1.020169067E1
2.955682391E0,1.319198608E0,-1.233016968E0,1.023281860E1
2.958184832E0,1.357513428E0,-1.096542358E0,1.018493652E1
2.960687274E0,1.381454468E0,-9.840240479E-1,1.017056274E1
2.963189715E0,1.381454468E0,-8.930358887E-1,1.020887756E1
2.965692156E0,1.410186768E0,-8.283996582E-1,1.018733215E1
2.968194598E0,1.472427368E0,-7.589569092E-1,1.015380859E1
2.970697039E0,1.424545288E0,-7.086791992E-1,1.015859985E1
2.973229998E0,1.398208618E0,-6.512298584E-1,1.025436401E1
2.975732440E0,1.395812988E0,-6.272735596E-1,1.021127319E1
2.978234881E0,1.362304688E0,-5.913696289E-1,1.017774963E1
2.980737322E0,1.345535278E0,-5.650329590E-1,1.014901733E1
2.983239764E0,1.350326538E0,-5.363006592E-1,1.009394836E1
2.985742205E0,1.369476318E0,-5.267181396E-1,1.007479858E1
2.988244647E0,1.381454468E0,-5.099639893E-1,1.000057983E1
2.990777606E0,1.386245728E0,-5.051727295E-1,9.957489014E0
2.993280047E0,1.443710327E0,-5.506591797E-1,9.912002563E0
2.995782488E0,1.414978027E0,-5.746154785E-1,9.849746704E0
2.998284930E0,1.443710327E0,-5.937652588E-1,9.868896484E0
3.000787371E0,1.479614258E0,-6.105194092E-1,9.868896484E0
3.003289813E0,1.493988037E0,-5.650329590E-1,9.856933594E0
3.005792254E0,1.532287598E0,-5.315093994E-1,9.955093384E0
3.008294695E0,1.582565308E0,-5.746154785E-1,9.919174194E0
3.010827654E0,1.505950928E0,-6.344604492E-1,9.938323975E0
3.013330096E0,1.462860107E0,-6.727752686E-1,9.952697754E0
3.015832537E0,1.532287598E0,-6.919250488E-1,9.959884644E0
3.018334979E0,1.565811157E0,-7.876892090E-1,9.964660645E0
3.020837420E0,1.651992798E0,-8.068389893E-1,9.916778564E0
3.023339861E0,1.714248657E0,-8.307952881E-1,9.933547974E0
3.025842303E0,1.757339478E0,-9.528961182E-1,9.957489014E0
3.028344744E0,1.774108887E0,-9.481048584E-1,9.955093384E0
3.030877703E0,1.781280518E0,-9.911956787E-1,9.990997314E0
3.033380145E0,1.793258667E0,-1.017532349E0,1.001255798E1
3.035882586E0,1.747772217E0,-1.015136719E0,1.004127502E1
3.038385027E0,1.786071777E0,-9.888000488E-1,1.007719421E1
3.040887469E0,1.821990967E0,-9.576873779E-1,1.010113525E1
3.043389910E0,1.853118896E0,-9.217681885E-1,1.009873962E1
3.045892352E0,1.891418457E0,-8.906402588E-1,1.012028503E1
3.048425311E0,1.905776978E0,-8.619079590E-1,1.009873962E1
3.050927752E0,1.879455566E0,-8.379669189E-1,1.010832214E1
3.053430193E0,1.896209717E0,-7.206573486E-1,1.011311340E1
3.055932635E0,1.889022827E0,-6.536102295E-1,1.010113525E1
3.058435076E0,1.893814087E0,-6.560058594E-1,1.007240295E1
3.060937518E0,1.946487427E0,-6.392517090E-1,1.002452087E1
3.063439959E0,2.020706177E0,-5.889739990E-1,9.990997314E0
3.065942400E0,2.025497437E0,-5.267181396E-1,9.959884644E0
3.068475359E0,2.001556396E0,-4.620819092E-1,9.935943604E0
3.070977801E0,1.956069946E0,-4.213867188E-1,9.914382935E0
3.073480242E0,2.049438477E0,-3.399810791E-1,9.900024414E0
3.075982684E0,2.030288696E0,-2.705383301E-1,9.964660645E0
3.078485125E0,2.037460327E0,-1.843566895E-1,9.967056274E0
3.080987566E0,2.011123657E0,-8.619689941E-2,9.959884644E0
3.083490008E0,2.006347656E0,-8.619689941E-2,9.976638794E0
3.086022967E0,1.951278687E0,-6.463623047E-2,9.986221313E0
3.088525408E0,1.965637207E0,-5.267333984E-2,9.950302124E0
3.091027850E0,2.003952026E0,-4.788208008E-2,9.971847534E0
3.093530291E0,1.946487427E0,-4.791259766E-3,1.002691650E1
3.096032732E0,1.915359497E0,3.112792969E-2,9.979034424E0
3.098535174E0,1.857894897E0,5.027770996E-2,9.971847534E0
3.101037615E0,1.802841187E0,9.336853027E-2,9.952697754E0
3.103540057E0,1.786071777E0,1.268920898E-1,9.983825684E0
3.106073016E0,1.675933838E0,1.484375000E-1,9.962280273E0
3.108575457E0,1.673553467E0,2.035064697E-1,9.935943604E0
3.111077899E0,1.663970947E0,2.489929199E-1,9.943115234E0
3.113580340E0,1.671157837E0,2.442016602E-1,9.955093384E0
3.116082781E0,1.680725098E0,2.346343994E-1,9.900024414E0
3.118585223E0,1.735794067E0,2.106933594E-1,9.864105225E0
3.121087664E0,1.766921997E0,1.771697998E-1,9.890441895E0
3.123620623E0,1.814804077E0,1.005554199E-1,9.873687744E0
3.126123065E0,1.819595337E0,3.591918945E-2,9.825805664E0
3.128625506E0,1.845932007E0,-1.914978027E-2,9.787490845E0
3.131127947E0,1.932113647E0,-9.097290039E-2,9.756378174E0
3.133630389E0,1.951278687E0,-1.244964600E-1,9.782714844E0
3.136132830E0,1.965637207E0,-1.747741699E-1,9.835388184E0
3.138635272E0,2.015914917E0,-2.322387695E-1,9.852142334E0
3.141137713E0,2.020706177E0,-2.489929199E-1,9.902420044E0
3.143670672E0,2.111679077E0,-2.633666992E-1,9.947906494E0
3.146173113E0,2.181121826E0,-2.513885498E-1,1.000537109E1
3.148675555E0,2.097320557E0,-2.801208496E-1,9.990997314E0
3.151177996E0,2.135635376E0,-3.088531494E-1,9.988616943E0
3.153680438E0,2.159576416E0,-3.064575195E-1,9.998184204E0
3.156213397E0,2.164352417E0,-3.351898193E-1,9.995788574E0
3.158715838E0,2.267303467E0,-3.303985596E-1,9.952697754E0
3.161248797E0,2.269699097E0,-2.777252197E-1,9.837768555E0
3.163751238E0,2.394195557E0,-2.059020996E-1,9.761154175E0
3.166253680E0,2.418136597E0,-1.771697998E-1,9.732437134E0
3.168756121E0,2.451660156E0,-1.244964600E-1,9.622299194E0
3.171258563E0,2.499542236E0,-3.352355957E-2,9.569625854E0
3.173761004E0,2.497146606E0,3.352355957E-2,9.493011475E0
3.176263445E0,2.437301636E0,7.661437988E-2,9.375686646E0
3.178765887E0,2.499542236E0,1.029510498E-1,9.406814575E0
3.181298846E0,2.480392456E0,1.939239502E-1,9.349365234E0
3.183801287E0,2.458847046E0,2.561798096E-1,9.327804565E0
3.186303729E0,2.485183716E0,3.064575195E-1,9.267959595E0
3.188806170E0,2.427719116E0,3.878631592E-1,9.272735596E0
3.191308611E0,2.391799927E0,3.974304199E-1,9.318237305E0
3.193811053E0,2.394195557E0,4.165954590E-1,9.301467896E0
3.196313494E0,2.334350586E0,5.003814697E-1,9.358932495E0
3.198846453E0,2.336746216E0,5.602416992E-1,9.442733765E0
3.201348895E0,2.308013916E0,6.057281494E-1,9.548080444E0
3.203851336E0,2.240966797E0,6.105194092E-1,9.591171265E0
3.206353777E0,2.233795166E0,7.278442383E-1,9.684539795E0
3.208856219E0,2.209854126E0,7.445983887E-1,9.720458984E0
3.211358660E0,2.142807007E0,7.469940186E-1,9.806655884E0
3.213861102E0,2.157180786E0,8.188171387E-1,9.813827515E0
3.216363543E0,2.118865967E0,8.044586182E-1,9.907211304E0
3.218865984E0,2.197875977E0,8.068389893E-1,1.000537109E1
3.221398943E0,2.217025757E0,8.355712891E-1,1.000057983E1
3.223901385E0,2.303222656E0,8.355712891E-1,1.008438110E1
3.226403826E0,2.274490356E0,8.164215088E-1,1.008438110E1
3.228906268E0,2.269699097E0,7.876892090E-1,1.012028503E1
3.231408709E0,2.257736206E0,7.541809082E-1,1.011071777E1
3.233911150E0,2.269699097E0,7.134704590E-1,1.007958984E1
3.236413592E0,2.288864136E0,7.469940186E-1,1.012268066E1
3.238916033E0,2.267303467E0,7.445983887E-1,1.010113525E1
3.241448992E0,2.310409546E0,7.805023193E-1,1.004606628E1
3.243951434E0,2.396591187E0,7.781219482E-1,1.004127502E1
3.246453875E0,2.489974976E0,8.499450684E-1,9.967056274E0
3.248956316E0,2.566589355E0,9.169769287E-1,9.945510864E0
3.251458758E0,2.568984985E0,9.026184082E-1,9.916778564E0
3.253961199E0,2.595321655E0,9.265594482E-1,9.926361084E0
3.256463641E0,2.523483276E0,9.409179688E-1,9.931152344E0
3.258996600E0,2.492370605E0,9.959869385E-1,9.871292114E0
3.261499041E0,2.537857056E0,1.012741089E0,9.806655884E0
3.264001482E0,2.547424316E0,1.058242798E0,9.804260254E0
3.266503924E0,2.559402466E0,1.173156738E0,9.730041504E0
3.269006365E0,2.513916016E0,1.192306519E0,9.708480835E0
3.271508807E0,2.516311646E0,1.244979858E0,9.646240234E0
3.274011248E0,2.540252686E0,1.264144897E0,9.607925415E0
3.276513690E0,2.547424316E0,1.292861938E0,9.540893555E0
3.279046649E0,2.547424316E0,1.364700317E0,9.509765625E0
3.281549090E0,2.552215576E0,1.398208618E0,9.528915405E0
3.284051531E0,2.521087646E0,1.460464478E0,9.519348145E0
3.286553973E0,2.454055786E0,1.493988037E0,9.497802734E0
3.289056414E0,2.403778076E0,1.486801147E0,9.524139404E0
3.291558856E0,2.418136597E0,1.472427368E0,9.557647705E0
3.294061297E0,2.375045776E0,1.472427368E0,9.631866455E0
3.296594256E0,2.367858887E0,1.489196777E0,9.684539795E0
3.299096697E0,2.327163696E0,1.472427368E0,9.684539795E0
3.301599139E0,2.269699097E0,1.407791138E0,9.653427124E0
3.304101580E0,2.219421387E0,1.340759277E0,9.694122314E0
3.306604022E0,2.264907837E0,1.278503418E0,9.658203125E0
3.309106463E0,2.205062866E0,1.247375488E0,9.660598755E0
3.311608904E0,2.221817017E0,1.168365479E0,9.670181274E0
3.314111346E0,2.169143677E0,1.091751099E0,9.631866455E0
3.316644305E0,2.159576416E0,9.816284180E-1,9.600753784E0
3.319146746E0,2.126052856E0,9.768371582E-1,9.572021484E0
3.321649188E0,2.130844116E0,9.552917480E-1,9.579208374E0
3.324151629E0,2.092529297E0,8.954315186E-1,9.583984375E0
3.326654070E0,2.073379517E0,9.409179688E-1,9.548080444E0
3.329156512E0,1.996765137E0,8.810729980E-1,9.586380005E0
3.331658953E0,1.958450317E0,8.858489990E-1,9.545684814E0
3.334191912E0,1.891418457E0,9.361267090E-1,9.526535034E0
3.336694354E0,1.855499268E0,9.121856689E-1,9.548080444E0
3.339196795E0,1.738189697E0,9.648590088E-1,9.509765625E0
3.341699236E0,1.630447388E0,9.720458984E-1,9.466674805E0
3.344201678E0,1.568206787E0,9.888000488E-1,9.373306274E0
3.346704119E0,1.558624268E0,1.029510498E0,9.445129395E0
3.349206561E0,1.450881958E0,9.768371582E-1,9.392456055E0
3.351709002E0,1.419754028E0,9.959869385E-1,9.315841675E0
3.354241961E0,1.383850098E0,9.696502686E-1,9.299072266E0
3.356744402E0,1.347930908E0,9.696502686E-1,9.301467896E0
3.359246844E0,1.333572388E0,9.193725586E-1,9.258377075E0
3.361749285E0,1.290481567E0,8.690948486E-1,9.155426025E0
3.364251727E0,1.256958008E0,8.260040283E-1,9.200912476E0
3.366754168E0,1.283294678E0,7.422027588E-1,9.253585815E0
3.369256609E0,1.182739258E0,6.440429688E-1,9.184158325E0
3.371789568E0,1.204284668E0,6.057281494E-1,9.255981445E0
3.374292010E0,1.213867188E0,5.482788086E-1,9.330200195E0
3.376794451E0,1.156402588E0,5.386962891E-1,9.301467896E0
3.379296893E0,1.149215698E0,4.548950195E-1,9.356536865E0
3.381799334E0,1.154006958E0,3.998260498E-1,9.409210205E0
3.384301775E0,1.156402588E0,3.950500488E-1,9.397247314E0
3.386804217E0,1.134857178E0,2.633666992E-1,9.437942505E0
3.389306658E0,1.130065918E0,1.963195801E-1,9.519348145E0
3.391839617E0,1.139633179E0,1.436462402E-1,9.567230225E0
3.394342059E0,1.084579468E0,6.225585938E-2,9.619903564E0
3.396844500E0,1.055847168E0,-4.791259766E-3,9.629486084E0
3.399346941E0,1.043869019E0,-7.186889648E-3,9.718063354E0
3.401849383E0,1.079788208E0,-2.395629883E-3,9.782714844E0
3.404351824E0,1.094146729E0,2.395629883E-3,9.742004395E0
3.406854266E0,1.053451538E0,2.395629883E-3,9.777923584E0
3.409387225E0,1.094146729E0,5.506896973E-2,9.715667725E0
3.411889666E0,1.103729248E0,8.380126953E-2,9.651031494E0
3.414392107E0,1.115692139E0,1.292877197E-1,9.689331055E0
3.416894549E0,1.108520508E0,1.771697998E-1,9.672576904E0
3.419396990E0,1.082183838E0,2.274475098E-1,9.629486084E0
3.421899432E0,1.146820068E0,2.513885498E-1,9.538497925E0
3.424432391E0,1.197097778E0,2.585754395E-1,9.557647705E0
3.426934832E0,1.204284668E0,2.681579590E-1,9.521743774E0
3.429437274E0,1.173156738E0,3.136444092E-1,9.519348145E0
3.431939715E0,1.146820068E0,3.447723389E-1,9.524139404E0
3.434442156E0,1.082183838E0,4.118041992E-1,9.507369995E0
3.436944598E0,1.161193848E0,4.405364990E-1,9.481033325E0
3.439447039E0,1.120483398E0,4.884185791E-1,9.526535034E0
3.441979998E0,1.067810059E0,5.458831787E-1,9.516952515E0
3.444482440E0,1.094146729E0,5.195465088E-1,9.550476074E0
3.447015399E0,1.072601318E0,5.841827393E-1,9.581588745E0
3.449517840E0,1.015136719E0,5.578460693E-1,9.514556885E0
3.452020281E0,1.039077759E0,5.817871094E-1,9.533706665E0
3.454522723E0,1.027114868E0,5.530548096E-1,9.521743774E0
3.457025164E0,1.019927979E0,5.458831787E-1,9.488220215E0
3.459527606E0,1.051055908E0,5.363006592E-1,9.502593994E0
3.462060565E0,1.043869019E0,5.458831787E-1,9.548080444E0
3.464563006E0,1.010360718E0,5.315093994E-1,9.572021484E0
3.467065447E0,1.015136719E0,4.788360596E-1,9.528915405E0
3.469567889E0,9.792327881E-1,5.147552490E-1,9.574417114E0
3.472070330E0,9.265594482E-1,5.171508789E-1,9.615112305E0
3.474572772E0,9.074096680E-1,5.626373291E-1,9.694122314E0
3.477075213E0,8.643035889E-1,5.985565186E-1,9.710876465E0
3.479577654E0,8.619079590E-1,5.913696289E-1,9.710876465E0
3.482080096E0,8.643035889E-1,6.296691895E-1,9.679763794E0
3.484613055E0,8.571166992E-1,6.296691895E-1,9.698913574E0
3.487115496E0,8.475494385E-1,6.512298584E-1,9.684539795E0
3.489617938E0,8.595123291E-1,6.368560791E-1,9.684539795E0
3.492120379E0,8.427581787E-1,6.129150391E-1,9.689331055E0
3.494622820E0,8.475494385E-1,5.889739990E-1,9.708480835E0
3.497125262E0,8.307952881E-1,5.841827393E-1,9.703704834E0
3.499627703E0,8.451538086E-1,5.650329590E-1,9.689331055E0
3.502160662E0,8.762817383E-1,5.315093994E-1,9.689331055E0
3.504663104E0,9.097900391E-1,4.812316895E-1,9.722854614E0
3.507165545E0,8.882446289E-1,4.836273193E-1,9.734817505E0
3.509667986E0,8.643035889E-1,4.692687988E-1,9.780319214E0
3.512170428E0,8.930358887E-1,4.429321289E-1,9.806655884E0
3.514672869E0,9.050140381E-1,4.118041992E-1,9.777923584E0
3.517175311E0,9.313507080E-1,4.165954590E-1,9.828201294E0
3.519677752E0,9.672546387E-1,4.333496094E-1,9.797073364E0
3.522210711E0,9.624633789E-1,4.165954590E-1,9.797073364E0
3.524713152E0,9.624633789E-1,4.213867188E-1,9.830596924E0
3.527215594E0,9.145812988E-1,4.189910889E-1,9.801864624E0
3.529718035E0,9.528961182E-1,3.782806396E-1,9.806655884E0
3.532220477E0,9.552917480E-1,3.734893799E-1,9.787490845E0
3.534722918E0,9.505004883E-1,3.734893799E-1,9.782714844E0
3.537225359E0,9.337310791E-1,3.639221191E-1,9.775527954E0
3.539758318E0,9.145812988E-1,4.022216797E-1,9.756378174E0
3.542260760E0,9.313507080E-1,4.094085693E-1,9.713272095E0
3.544763201E0,9.169769287E-1,4.070129395E-1,9.684539795E0
3.547265643E0,9.121856689E-1,4.405364990E-1,9.615112305E0
3.549768084E0,8.619079590E-1,4.812316895E-1,9.591171265E0
3.552270525E0,8.619079590E-1,5.219421387E-1,9.548080444E0
3.554772967E0,8.786773682E-1,5.937652588E-1,9.476257324E0
3.557275408E0,8.906402588E-1,5.961608887E-1,9.425979614E0
3.559808367E0,9.433135986E-1,6.272735596E-1,9.478637695E0
3.562310809E0,9.505004883E-1,6.775665283E-1,9.531311035E0
3.564813250E0,9.576873779E-1,6.847381592E-1,9.495407104E0
3.567315691E0,9.313507080E-1,7.469940186E-1,9.579208374E0
3.569818133E0,9.193725586E-1,7.757263184E-1,9.631866455E0
3.572320574E0,8.331756592E-1,7.781219482E-1,9.658203125E0
3.574823016E0,8.236083984E-1,7.852935791E-1,9.739608765E0
3.577355975E0,8.260040283E-1,7.828979492E-1,9.794677734E0
3.579858416E0,7.733306885E-1,8.331756592E-1,9.799468994E0
3.582360857E0,7.062835693E-1,8.379669189E-1,9.823410034E0
3.584863299E0,6.727752686E-1,8.283996582E-1,9.854537964E0
3.587365740E0,6.871337891E-1,7.996673584E-1,9.859329224E0
3.589868182E0,6.727752686E-1,7.134704590E-1,9.837768555E0
3.592370623E0,6.943206787E-1,6.919250488E-1,9.756378174E0
3.594873065E0,6.368560791E-1,7.206573486E-1,9.773132324E0
3.597406024E0,6.320648193E-1,6.416473389E-1,9.689331055E0
3.599908465E0,6.607971191E-1,5.698242188E-1,9.686935425E0
3.602410906E0,6.703796387E-1,5.267181396E-1,9.598358154E0
3.604913348E0,6.871337891E-1,4.429321289E-1,9.569625854E0
3.607415789E0,6.703796387E-1,3.567352295E-1,9.516952515E0
3.609918231E0,7.015075684E-1,2.873077393E-1,9.519348145E0
3.612420672E0,6.751708984E-1,2.130889893E-1,9.502593994E0
3.614953631E0,7.254486084E-1,2.226562500E-1,9.457092285E0
3.617456072E0,6.919250488E-1,1.340789795E-1,9.404418945E0
3.619958514E0,6.895294189E-1,1.221008301E-1,9.394851685E0
3.622460955E0,6.943206787E-1,1.173095703E-1,9.425979614E0
3.624963397E0,7.062835693E-1,1.149291992E-1,9.481033325E0
3.627465838E0,7.086791992E-1,8.380126953E-2,9.500198364E0
3.629968279E0,7.086791992E-1,6.942749023E-2,9.485824585E0
3.632470721E0,7.062835693E-1,1.077423096E-1,9.471466064E0
3.635003680E0,7.158660889E-1,1.364746094E-1,9.490615845E0
3.637506121E0,7.302246094E-1,1.125335693E-1,9.507369995E0
3.640008563E0,7.398071289E-1,1.101379395E-1,9.531311035E0
3.642511004E0,7.709350586E-1,1.125335693E-1,9.581588745E0
3.645013445E0,7.517852783E-1,1.292877197E-1,9.631866455E0
3.647515887E0,7.134704590E-1,1.268920898E-1,9.667785645E0
3.650018328E0,7.565612793E-1,5.506896973E-2,9.686935425E0
3.652551287E0,7.469940186E-1,7.901000977E-2,9.744400024E0
3.655053729E0,7.828979492E-1,8.859252930E-2,9.691726685E0
3.657556170E0,8.116302490E-1,3.831481934E-2,9.751586914E0
3.660058611E0,8.260040283E-1,1.435852051E-2,9.679763794E0
3.662561053E0,8.475494385E-1,1.675415039E-2,9.665390015E0
3.665063494E0,8.690948486E-1,-4.791259766E-3,9.706100464E0
3.667565936E0,8.690948486E-1,-5.027770996E-2,9.718063354E0
3.670068377E0,8.762817383E-1,-2.154541016E-2,9.708480835E0
3.672601336E0,8.786773682E-1,-1.675415039E-2,9.691726685E0
3.675103777E0,8.930358887E-1,-3.112792969E-2,9.722854614E0
3.677606219E0,9.002227783E-1,-2.395629883E-3,9.718063354E0
3.680108660E0,8.882446289E-1,-4.069519043E-2,9.682144165E0
3.682611102E0,8.762817383E-1,-1.675415039E-2,9.715667725E0
3.685113543E0,8.427581787E-1,3.352355957E-2,9.694122314E0
3.687615984E0,8.475494385E-1,7.421875000E-2,9.744400024E0
3.690148943E0,7.996673584E-1,1.316833496E-1,9.792282104E0
3.692651385E0,7.733306885E-1,2.154846191E-1,9.792282104E0
3.695153826E0,8.666992188E-1,2.418212891E-1,9.770736694E0
3.697656268E0,7.924804688E-1,2.465972900E-1,9.873687744E0
3.700158709E0,8.140258789E-1,2.753295898E-1,9.876083374E0
3.702661150E0,9.241638184E-1,2.944793701E-1,9.914382935E0
3.705163592E0,9.265594482E-1,3.136444092E-1,1.002691650E1
3.707666033E0,9.528961182E-1,3.423767090E-1,1.008438110E1
3.710198992E0,9.457092285E-1,3.232116699E-1,1.005564880E1
3.712701434E0,8.619079590E-1,3.615264893E-1,1.008438110E1
3.715203875E0,8.236083984E-1,3.447723389E-1,1.013465881E1
3.717706316E0,8.355712891E-1,3.998260498E-1,1.012507629E1
3.720208758E0,8.188171387E-1,4.405364990E-1,1.014662170E1
3.722711199E0,8.092346191E-1,4.980010986E-1,1.011071777E1
3.725213641E0,8.379669189E-1,4.788360596E-1,1.005325317E1
3.727746600E0,8.810729980E-1,5.003814697E-1,1.004367065E1
3.730279559E0,8.834533691E-1,4.716644287E-1,9.976638794E0
3.732782000E0,8.714904785E-1,4.668731689E-1,9.945510864E0
3.735284441E0,9.026184082E-1,4.980010986E-1,9.945510864E0
3.737786883E0,8.738861084E-1,4.836273193E-1,9.921569824E0
3.740289324E0,8.954315186E-1,4.884185791E-1,9.871292114E0
3.742791766E0,8.834533691E-1,5.147552490E-1,9.878479004E0
3.745294207E0,8.379669189E-1,4.764404297E-1,9.876083374E0
3.747827166E0,8.595123291E-1,4.620819092E-1,9.914382935E0
3.750329607E0,8.307952881E-1,4.740447998E-1,9.876083374E0
3.752832049E0,8.188171387E-1,4.285583496E-1,9.876083374E0
3.755334490E0,7.972717285E-1,4.070129395E-1,9.947906494E0
3.757836932E0,8.236083984E-1,3.734893799E-1,9.947906494E0
3.760339373E0,8.236083984E-1,3.375854492E-1,9.979034424E0
3.762841815E0,7.924804688E-1,2.920989990E-1,1.003889465E1
3.765344256E0,8.116302490E-1,2.920989990E-1,1.008438110E1
3.767877215E0,8.236083984E-1,2.370300293E-1,1.007958984E1
3.770379656E0,8.331756592E-1,2.154846191E-1,1.001016235E1
3.772882098E0,8.523406982E-1,1.819610596E-1,1.006761169E1
3.775384539E0,8.571166992E-1,1.628112793E-1,1.013945007E1
3.777886981E0,8.355712891E-1,1.101379395E-1,1.012986755E1
3.780389422E0,8.044586182E-1,1.221008301E-1,1.016339111E1
3.782891863E0,8.355712891E-1,2.011108398E-1,1.014422607E1
3.785424822E0,7.996673584E-1,2.202606201E-1,1.015141296E1
3.787927264E0,8.068389893E-1,2.226562500E-1,1.019212341E1
3.790429705E0,7.685394287E-1,2.250518799E-1,1.019689941E1
3.792932147E0,7.781219482E-1,2.849121094E-1,1.018493652E1
3.795434588E0,7.828979492E-1,2.873077393E-1,1.021606445E1
3.797937029E0,8.164215088E-1,2.801208496E-1,1.026634216E1
3.800439471E0,7.062835693E-1,2.513885498E-1,1.025196838E1
3.802941912E0,7.230529785E-1,2.011108398E-1,1.027590942E1
3.805474871E0,6.560058594E-1,2.274475098E-1,1.029507446E1
3.807977313E0,6.368560791E-1,1.915435791E-1,1.029028320E1
3.810479754E0,6.584014893E-1,1.460418701E-1,1.029507446E1
3.812982195E0,5.865783691E-1,1.460418701E-1,1.030943298E1
3.815484637E0,6.081237793E-1,1.436462402E-1,1.031661987E1
3.817987078E0,5.363006592E-1,1.699829102E-1,1.024717712E1
3.820489520E0,5.506591797E-1,1.316833496E-1,1.029028320E1
3.823022479E0,5.434875488E-1,1.125335693E-1,1.034295654E1
3.825524920E0,5.434875488E-1,8.859252930E-2,1.030464172E1
3.828027361E0,5.698242188E-1,7.421875000E-2,1.031182861E1
3.830529803E0,5.458831787E-1,5.267333984E-2,1.032618713E1
3.833032244E0,5.578460693E-1,7.186889648E-3,1.032858276E1
3.835534686E0,5.219421387E-1,0.000000000E0,1.034535217E1
3.838037127E0,4.788360596E-1,-3.591918945E-2,1.030943298E1
3.840539568E0,4.740447998E-1,-9.582519531E-3,1.033576965E1
3.843072527E0,4.980010986E-1,2.394104004E-2,1.031182861E1
3.845574969E0,4.524993896E-1,1.197814941E-2,1.033816528E1
3.848077410E0,4.524993896E-1,5.986022949E-2,1.028070068E1
3.850579852E0,4.524993896E-1,1.125335693E-1,1.025675964E1
3.853082293E0,4.333496094E-1,9.336853027E-2,1.026155090E1
3.855584734E0,4.644775391E-1,1.819610596E-1,1.023760986E1
3.858087176E0,3.687133789E-1,2.011108398E-1,1.020169067E1
3.860589617E0,3.327941895E-1,2.202606201E-1,1.020169067E1
3.863122576E0,4.596862793E-1,2.394256592E-1,1.014422607E1
3.865625018E0,4.884185791E-1,2.370300293E-1,1.014662170E1
3.868127459E0,4.620819092E-1,2.705383301E-1,1.011788940E1
3.870629900E0,4.046173096E-1,2.226562500E-1,1.007958984E1
3.873132342E0,4.213867188E-1,1.867523193E-1,1.006283569E1
3.875634783E0,4.141998291E-1,1.795654297E-1,1.009155273E1
3.878137225E0,3.926544189E-1,1.867523193E-1,1.004367065E1
3.880670184E0,3.902587891E-1,1.268920898E-1,1.007479858E1
3.883172625E0,4.596862793E-1,1.364746094E-1,1.009155273E1
3.885675066E0,4.836273193E-1,8.619689941E-2,1.008438110E1
3.888177508E0,4.692687988E-1,9.336853027E-2,1.012028503E1
3.890679949E0,4.668731689E-1,6.225585938E-2,1.016578674E1
3.893182391E0,4.884185791E-1,1.197814941E-2,1.019689941E1
3.895684832E0,4.668731689E-1,-3.591918945E-2,1.026155090E1
3.898217791E0,4.668731689E-1,1.914978027E-2,1.027830505E1
3.900720232E0,4.980010986E-1,-4.788208008E-2,1.028549194E1
3.903222674E0,5.410919189E-1,-2.873229980E-2,1.040040588E1
3.905725115E0,5.123596191E-1,-4.548645020E-2,1.038365173E1
3.908227557E0,4.980010986E-1,-7.901000977E-2,1.033097839E1
3.910729998E0,4.908142090E-1,-5.746459961E-2,1.030943298E1
3.913232440E0,5.123596191E-1,-1.077423096E-1,1.030703735E1
3.915734881E0,5.123596191E-1,-7.661437988E-2,1.031901550E1
3.918267840E0,4.860229492E-1,-8.859252930E-2,1.028309631E1
3.920770281E0,5.506591797E-1,-6.463623047E-2,1.023521423E1
3.923272723E0,5.793914795E-1,-1.268920898E-1,1.021127319E1
3.925775164E0,5.530548096E-1,-1.316833496E-1,1.018493652E1
3.928277606E0,5.554504395E-1,-1.364746094E-1,1.021366882E1
3.930780047E0,6.081237793E-1,-1.723785400E-1,1.020408630E1
3.933282488E0,5.937652588E-1,-1.795654297E-1,1.014901733E1
3.935784930E0,6.081237793E-1,-1.915435791E-1,1.014901733E1
3.938317889E0,6.296691895E-1,-1.675872803E-1,1.019212341E1
3.940820330E0,6.057281494E-1,-1.795654297E-1,1.014422607E1
3.943322772E0,6.488342285E-1,-2.082977295E-1,1.015141296E1
3.945825213E0,6.368560791E-1,-2.489929199E-1,1.017056274E1
3.948327654E0,6.392517090E-1,-2.825164795E-1,1.022323608E1
3.950830096E0,7.062835693E-1,-3.399810791E-1,1.026155090E1
3.953332537E0,7.158660889E-1,-3.615264893E-1,1.023281860E1
3.955865496E0,7.110748291E-1,-3.902587891E-1,1.023760986E1
3.958367938E0,7.398071289E-1,-4.189910889E-1,1.029745483E1
3.960870379E0,7.565612793E-1,-4.333496094E-1,1.031901550E1
3.963372820E0,7.422027588E-1,-4.381408691E-1,1.029745483E1
3.965875262E0,7.110748291E-1,-4.213867188E-1,1.028788757E1
3.968377703E0,7.589569092E-1,-4.189910889E-1,1.029745483E1
3.970880145E0,7.613525391E-1,-4.333496094E-1,1.028070068E1
3.973382586E0,7.613525391E-1,-4.046173096E-1,1.021606445E1
3.975885027E0,8.260040283E-1,-4.237670898E-1,1.018733215E1
3.978417986E0,8.331756592E-1,-3.854675293E-1,1.017535400E1
3.980920428E0,7.781219482E-1,-3.423767090E-1,1.006761169E1
3.983422869E0,7.924804688E-1,-3.303985596E-1,1.009873962E1
3.985925311E0,8.283996582E-1,-2.992706299E-1,1.009155273E1
3.988427752E0,8.331756592E-1,-3.160400391E-1,1.004606628E1
3.990930193E0,7.828979492E-1,-2.585754395E-1,1.002212524E1
3.993463152E0,7.876892090E-1,-2.801208496E-1,1.005804443E1
3.995965594E0,7.445983887E-1,-2.873077393E-1,1.000297546E1
3.998468035E0,7.469940186E-1,-2.992706299E-1,1.010113525E1
4.000970477E0,7.972717285E-1,-2.897033691E-1,1.011071777E1
4.003472918E0,7.493896484E-1,-3.160400391E-1,1.007479858E1
4.005975359E0,7.781219482E-1,-3.208160400E-1,1.004367065E1
4.008477801E0,7.038879395E-1,-3.854675293E-1,1.013945007E1
4.010980242E0,7.805023193E-1,-3.902587891E-1,1.007719421E1
4.013482684E0,7.398071289E-1,-3.926544189E-1,1.008677673E1
4.016015643E0,6.967163086E-1,-4.596862793E-1,1.014422607E1
4.018548602E0,7.637481689E-1,-4.788360596E-1,1.012028503E1
4.021051043E0,7.589569092E-1,-4.572906494E-1,1.010832214E1
4.023553484E0,8.044586182E-1,-5.027770996E-1,1.011788940E1
4.026055926E0,8.379669189E-1,-5.339050293E-1,1.013465881E1
4.028558367E0,8.236083984E-1,-5.147552490E-1,1.011311340E1
4.031091326E0,8.499450684E-1,-5.291137695E-1,1.009634399E1
4.033593768E0,8.331756592E-1,-4.908142090E-1,1.006283569E1
4.036096209E0,7.972717285E-1,-5.123596191E-1,1.003170776E1
4.038598650E0,7.900848389E-1,-4.956054688E-1,1.001733398E1
4.041101092E0,7.757263184E-1,-4.836273193E-1,9.981430054E0
4.043603533E0,8.212127686E-1,-4.477081299E-1,9.962280273E0
4.046105975E0,7.828979492E-1,-3.950500488E-1,1.003889465E1
4.048608416E0,7.589569092E-1,-3.902587891E-1,1.004846191E1
4.051141375E0,7.422027588E-1,-3.710937500E-1,1.002212524E1
4.053643816E0,7.637481689E-1,-2.920989990E-1,9.983825684E0
4.056146258E0,7.996673584E-1,-2.633666992E-1,1.001493835E1
4.058648699E0,8.212127686E-1,-2.920989990E-1,1.005325317E1
4.061151141E0,8.188171387E-1,-3.016662598E-1,1.003649902E1
4.063653582E0,7.852935791E-1,-2.394256592E-1,1.005085754E1
4.066156024E0,8.044586182E-1,-2.561798096E-1,1.003649902E1
4.068688982E0,7.757263184E-1,-2.489929199E-1,1.003410339E1
4.071191424E0,8.020629883E-1,-2.202606201E-1,1.005564880E1
4.073693865E0,8.643035889E-1,-2.322387695E-1,1.002452087E1
4.076196307E0,8.307952881E-1,-2.465972900E-1,1.003889465E1
4.078698748E0,8.116302490E-1,-2.585754395E-1,9.983825684E0
4.081201190E0,8.619079590E-1,-2.681579590E-1,9.897628784E0
4.083703631E0,8.954315186E-1,-2.394256592E-1,9.880874634E0
4.086206072E0,8.571166992E-1,-2.298431396E-1,9.777923584E0
4.088708514E0,8.954315186E-1,-2.130889893E-1,9.818618774E0
4.091241473E0,9.576873779E-1,-2.059020996E-1,9.770736694E0
4.093743914E0,9.481048584E-1,-1.628112793E-1,9.708480835E0
4.096246356E0,9.959869385E-1,-1.364746094E-1,9.742004395E0
4.098748797E0,9.672546387E-1,-1.316833496E-1,9.761154175E0
4.101251238E0,9.624633789E-1,-7.421875000E-2,9.761154175E0
4.103753680E0,9.672546387E-1,5.267333984E-2,9.794677734E0
4.106286639E0,9.337310791E-1,5.506896973E-2,9.890441895E0
4.108789080E0,8.954315186E-1,1.508331299E-1,9.912002563E0
4.111291522E0,8.810729980E-1,2.130889893E-1,9.900024414E0
4.113793963E0,8.954315186E-1,2.370300293E-1,9.935943604E0
4.116296404E0,8.307952881E-1,2.442016602E-1,9.976638794E0
4.118798846E0,8.451538086E-1,2.585754395E-1,9.974243164E0
4.121301287E0,8.810729980E-1,3.184356689E-1,1.001972961E1
4.123803729E0,8.810729980E-1,2.968750000E-1,1.000537109E1
4.126306170E0,8.595123291E-1,3.734893799E-1,9.976638794E0
4.128839129E0,8.978271484E-1,3.950500488E-1,9.967056274E0
4.131341570E0,9.528961182E-1,3.926544189E-1,9.957489014E0
4.133844012E0,8.762817383E-1,4.213867188E-1,9.928756714E0
4.136346453E0,8.547363281E-1,4.620819092E-1,9.912002563E0
4.138848895E0,9.361267090E-1,4.788360596E-1,9.873687744E0
4.141351336E0,9.169769287E-1,4.980010986E-1,9.837768555E0
4.143884295E0,9.409179688E-1,5.051727295E-1,9.878479004E0
4.146386736E0,9.648590088E-1,5.315093994E-1,9.868896484E0
4.148889178E0,9.361267090E-1,5.602416992E-1,9.852142334E0
4.151391619E0,9.648590088E-1,5.363006592E-1,9.811431885E0
4.153894061E0,9.840240479E-1,5.650329590E-1,9.840164185E0
4.156396502E0,1.012741089E0,5.650329590E-1,9.801864624E0
4.158898943E0,1.067810059E0,5.841827393E-1,9.770736694E0
4.161401385E0,1.106124878E0,6.224975586E-1,9.749191284E0
4.163903826E0,1.142028809E0,6.105194092E-1,9.706100464E0
4.166436785E0,1.134857178E0,6.560058594E-1,9.655822754E0
4.168939227E0,1.108520508E0,7.254486084E-1,9.665390015E0
4.171441668E0,1.134857178E0,7.254486084E-1,9.612716675E0
4.173944109E0,1.086975098E0,7.445983887E-1,9.567230225E0
4.176446551E0,1.122879028E0,7.996673584E-1,9.552871704E0
4.178948992E0,1.122879028E0,7.805023193E-1,9.478637695E0
4.181451434E0,1.149215698E0,8.020629883E-1,9.433151245E0
4.183953875E0,1.194702148E0,8.020629883E-1,9.409210205E0
4.186486834E0,1.211471558E0,8.307952881E-1,9.318237305E0
4.188989275E0,1.173156738E0,8.523406982E-1,9.301467896E0
4.191491717E0,1.182739258E0,8.690948486E-1,9.275131226E0
4.193994158E0,1.175552368E0,9.169769287E-1,9.301467896E0
4.196496600E0,1.139633179E0,9.241638184E-1,9.351745605E0
4.198999041E0,1.079788208E0,9.505004883E-1,9.346969604E0
4.201501482E0,1.039077759E0,9.552917480E-1,9.402023315E0
4.204034441E0,1.058242798E0,9.672546387E-1,9.485824585E0
4.206536883E0,1.051055908E0,9.959869385E-1,9.459487915E0
4.209039324E0,1.055847168E0,9.289550781E-1,9.500198364E0
4.211541766E0,9.624633789E-1,8.714904785E-1,9.528915405E0
4.214044207E0,9.289550781E-1,8.690948486E-1,9.583984375E0
4.216546649E0,9.193725586E-1,8.547363281E-1,9.605529785E0
4.219049090E0,9.193725586E-1,8.331756592E-1,9.627090454E0
4.221551531E0,9.074096680E-1,7.613525391E-1,9.694122314E0
4.224084490E0,8.427581787E-1,7.182617188E-1,9.667785645E0
4.226586932E0,8.260040283E-1,6.607971191E-1,9.607925415E0
4.229089373E0,8.164215088E-1,6.344604492E-1,9.658203125E0
4.231591815E0,7.733306885E-1,6.033325195E-1,9.658203125E0
4.234094256E0,7.326202393E-1,5.075683594E-1,9.648635864E0
4.236596697E0,7.086791992E-1,4.860229492E-1,9.586380005E0
4.239099139E0,6.943206787E-1,4.524993896E-1,9.533706665E0
4.241632098E0,6.560058594E-1,3.734893799E-1,9.509765625E0
4.244134539E0,6.775665283E-1,3.447723389E-1,9.428359985E0
4.246636981E0,6.727752686E-1,2.968750000E-1,9.404418945E0
4.249139422E0,6.991119385E-1,2.418212891E-1,9.411605835E0
4.251641863E0,6.081237793E-1,2.298431396E-1,9.299072266E0
4.254144305E0,6.177062988E-1,1.388702393E-1,9.255981445E0
4.256677264E0,6.440429688E-1,1.029510498E-1,9.198516846E0
4.259179705E0,6.727752686E-1,5.506896973E-2,9.126693726E0
4.261682147E0,6.153106689E-1,1.435852051E-2,9.050079346E0
4.264184588E0,6.272735596E-1,4.791259766E-3,9.004592896E0
4.266687029E0,5.985565186E-1,-7.186889648E-3,8.997406006E0
4.269189471E0,5.434875488E-1,4.791259766E-3,8.966278076E0
4.271691912E0,5.602416992E-1,-2.633666992E-2,8.942337036E0
4.274194354E0,5.147552490E-1,3.831481934E-2,8.963897705E0
4.276696795E0,4.932098389E-1,5.986022949E-2,9.038116455E0
4.279229754E0,4.285583496E-1,4.309082031E-2,9.088394165E0
4.281732195E0,4.548950195E-1,9.097290039E-2,9.133880615E0
4.284234637E0,5.315093994E-1,1.101379395E-1,9.074020386E0
4.286737078E0,5.243377686E-1,6.942749023E-2,9.198516846E0
4.289239520E0,5.267181396E-1,7.901000977E-2,9.217681885E0
4.291741961E0,4.788360596E-1,1.173095703E-1,9.169799805E0
4.294244402E0,5.051727295E-1,1.867523193E-1,9.172180176E0
4.296777361E0,5.363006592E-1,1.987152100E-1,9.121902466E0
4.299279803E0,5.123596191E-1,2.513885498E-1,9.083602905E0
4.301812762E0,4.668731689E-1,3.710937500E-1,9.071624756E0
4.304315203E0,4.501037598E-1,4.141998291E-1,9.071624756E0
4.306817645E0,4.596862793E-1,4.908142090E-1,9.078811646E0
4.309320086E0,4.333496094E-1,5.506591797E-1,9.095565796E0
4.311822527E0,3.782806396E-1,5.530548096E-1,9.126693726E0
4.314324969E0,4.333496094E-1,5.410919189E-1,9.138671875E0
4.316857928E0,4.094085693E-1,5.363006592E-1,9.162612915E0
4.319360369E0,4.070129395E-1,5.578460693E-1,9.176971436E0
4.321862811E0,3.782806396E-1,5.722198486E-1,9.232040405E0
4.324365252E0,3.687133789E-1,5.650329590E-1,9.282318115E0
4.326867693E0,3.974304199E-1,5.746154785E-1,9.382873535E0
4.329370135E0,3.806762695E-1,6.272735596E-1,9.430755615E0
4.331872576E0,4.333496094E-1,5.698242188E-1,9.461883545E0
4.334405535E0,3.854675293E-1,5.937652588E-1,9.461883545E0
4.336907977E0,3.447723389E-1,6.009521484E-1,9.502593994E0
4.339410418E0,3.399810791E-1,6.057281494E-1,9.509765625E0
4.341912859E0,3.782806396E-1,6.105194092E-1,9.528915405E0
4.344415301E0,4.189910889E-1,6.248931885E-1,9.543289185E0
4.346917742E0,4.094085693E-1,6.224975586E-1,9.538497925E0
4.349420184E0,3.567352295E-1,7.038879395E-1,9.483428955E0
4.351953143E0,3.591308594E-1,7.278442383E-1,9.550476074E0
4.354455584E0,3.567352295E-1,7.876892090E-1,9.509765625E0
4.356958025E0,3.303985596E-1,8.451538086E-1,9.493011475E0
4.359460467E0,3.303985596E-1,9.026184082E-1,9.445129395E0
4.361962908E0,3.375854492E-1,9.337310791E-1,9.442733765E0
4.364465350E0,3.184356689E-1,1.005569458E0,9.421188354E0
4.366967791E0,3.256072998E-1,1.031906128E0,9.418792725E0
4.369470232E0,3.256072998E-1,1.065414429E0,9.430755615E0
4.372003191E0,3.495483398E-1,1.101333618E0,9.445129395E0
4.374505633E0,3.375854492E-1,1.101333618E0,9.425979614E0
4.377008074E0,3.232116699E-1,1.139633179E0,9.399642944E0
4.379510516E0,3.351898193E-1,1.168365479E0,9.404418945E0
4.382012957E0,-2.633666992E-1,1.417373657E0,1.175791931E1
4.384515399E0,-1.508346558E0,2.054229736E0,1.581610107E1
4.387017840E0,-5.099639893E-1,1.584960938E0,1.204283142E1
4.389550799E0,7.086791992E-1,1.666366577E0,1.199494934E1
4.392053240E0,6.081237793E-1,2.116470337E0,1.394862366E1
4.394555682E0,-8.859252930E-2,2.329559326E0,1.438436890E1
4.397058123E0,-7.015075684E-1,2.729385376E0,1.395101929E1
4.399560565E0,-5.961608887E-1,3.100494385E0,1.294544983E1
4.402063006E0,-2.777252197E-1,2.997543335E0,1.116894531E1
4.404565447E0,2.681579590E-1,2.681503296E0,9.469070435E0
4.407067889E0,1.058242798E0,2.274490356E0,8.360549927E0
4.409600848E0,1.632843018E0,1.829162598E0,7.946350098E0
4.412103289E0,1.757339478E0,1.364700317E0,7.908050537E0
4.414605731E0,1.515533447E0,9.576873779E-1,8.133102417E0
4.417108172E0,1.074996948E0,6.416473389E-1,8.477874756E0
4.419610613E0,5.051727295E-1,3.806762695E-1,9.009384155E0
4.422113055E0,2.322387695E-1,3.088531494E-1,9.619903564E0
4.424615496E0,1.292877197E-1,3.088531494E-1,1.021846008E1
4.427117938E0,9.576416016E-2,3.519439697E-1,1.090559387E1
4.429650897E0,4.309082031E-2,3.830718994E-1,1.147062683E1
4.432153338E0,-1.053466797E-1,3.543395996E-1,1.187284851E1
4.434655779E0,-1.723785400E-1,3.519439697E-1,1.206916809E1
4.437158221E0,-2.394256592E-1,3.615264893E-1,1.203564453E1
4.439660662E0,-1.963195801E-1,2.992706299E-1,1.198536682E1
4.442163104E0,-1.077423096E-1,3.208160400E-1,1.176750183E1
4.444665545E0,-8.619689941E-2,3.854675293E-1,1.142752075E1
4.447167986E0,7.186889648E-3,3.806762695E-1,1.102769470E1
4.449700945E0,5.746459961E-2,3.495483398E-1,1.065180969E1
4.452203387E0,1.077423096E-1,3.663177490E-1,1.035252380E1
4.454705828E0,7.421875000E-2,3.064575195E-1,1.012507629E1
4.457208270E0,1.388702393E-1,2.729339600E-1,1.008917236E1
4.459710711E0,6.225585938E-2,1.963195801E-1,1.015620422E1
4.462213152E0,-3.351898193E-1,5.746459961E-2,1.030943298E1
4.464746111E0,-8.236083984E-1,-2.585754395E-1,1.038604736E1
4.467248553E0,-1.252166748E0,-3.375854492E-1,1.064941406E1
4.469750994E0,-1.283294678E0,-2.035064697E-1,1.064462280E1
4.472253436E0,-1.237808228E0,-3.447723389E-1,1.058476257E1
4.474755877E0,-1.364700317E0,-3.854675293E-1,1.072842407E1
4.477258318E0,-1.436523438E0,-2.729339600E-1,1.079785156E1
4.479760760E0,-1.319198608E0,-2.274475098E-1,1.069490051E1
4.482263201E0,-1.177947998E0,-1.244964600E-1,1.059434509E1
4.484796160E0,-1.051055908E0,-5.986022949E-2,1.052491760E1
4.487298602E0,-9.864044189E-1,-1.197814941E-2,1.053208923E1
4.489801043E0,-9.121856689E-1,-3.591918945E-2,1.044111633E1
4.492303484E0,-8.619079590E-1,-1.532287598E-1,1.029507446E1
4.494805926E0,-8.236083984E-1,-3.088531494E-1,1.016816711E1
4.497308367E0,-7.637481689E-1,-5.578460693E-1,1.002452087E1
4.499810809E0,-7.015075684E-1,-7.781219482E-1,9.835388184E0
4.502313250E0,-6.631927490E-1,-1.005569458E0,9.758758545E0
4.504846209E0,-6.368560791E-1,-1.041473389E0,9.818618774E0
4.507348650E0,-6.368560791E-1,-1.007965088E0,9.909606934E0
4.509851092E0,-6.272735596E-1,-9.457092285E-1,1.007958984E1
4.512353533E0,-5.889739990E-1,-7.924804688E-1,1.035491943E1
4.514855975E0,-5.458831787E-1,-8.116302490E-1,1.063264465E1
4.517358416E0,-5.051727295E-1,-9.337310791E-1,1.080024719E1
4.519860857E0,-3.998260498E-1,-1.077392578E0,1.097262573E1
4.522393816E0,-3.423767090E-1,-1.233016968E0,1.120246887E1
4.524896258E0,-1.652069092E-1,-1.230621338E0,1.128147888E1
4.527398699E0,-5.506896973E-2,-1.067810059E0,1.130302429E1
4.529901141E0,-1.244964600E-1,-9.552917480E-1,1.124316406E1
4.532403582E0,-2.035064697E-1,-9.552917480E-1,1.130062866E1
4.534906024E0,-2.585754395E-1,-9.026184082E-1,1.133654785E1
4.537408465E0,-2.537841797E-1,-8.619079590E-1,1.126712036E1
4.539941424E0,-1.867523193E-1,-8.020629883E-1,1.111627197E1
4.542443865E0,4.791259766E-3,-7.565612793E-1,1.095826721E1
4.544946307E0,4.405364990E-1,-1.120483398E0,1.091036987E1
4.547448748E0,9.265594482E-1,-1.683120728E0,1.115698242E1
4.549951190E0,6.296691895E-1,-1.592147827E0,1.080024719E1
4.552453631E0,4.572906494E-1,-1.266525269E0,1.034773254E1
4.554956072E0,2.873077393E-1,-5.003814697E-1,9.758758545E0
4.557458514E0,1.891479492E-1,5.506896973E-2,9.423583984E0
4.559991473E0,3.256072998E-1,3.423767090E-1,9.430755615E0
4.562493914E0,5.698242188E-1,4.141998291E-1,9.399642944E0
4.564996356E0,8.044586182E-1,3.543395996E-1,9.284713745E0
4.567498797E0,1.012741089E0,2.370300293E-1,9.014175415E0
4.570001238E0,1.170761108E0,8.859252930E-2,8.621520996E0
4.572503680E0,1.350326538E0,-1.652069092E-1,8.257598877E0
4.575006121E0,1.503555298E0,-5.410919189E-1,7.785949707E0
4.577508563E0,1.616088867E0,-8.595123291E-1,7.556106567E0
4.580041522E0,1.642425537E0,-1.027114868E0,7.489059448E0
4.582543963E0,1.623275757E0,-9.888000488E-1,7.529769897E0
4.585046404E0,1.575378418E0,-8.643035889E-1,7.754821777E0
4.587579363E0,1.570602417E0,-7.015075684E-1,8.034942627E0
4.590081805E0,1.467651367E0,-5.410919189E-1,8.233657837E0
4.592584246E0,1.407791138E0,-4.644775391E-1,8.437164307E0
4.595086688E0,1.335968018E0,-5.769958496E-1,8.619125366E0
4.597619647E0,1.228225708E0,-7.757263184E-1,8.695739746E0
4.600122088E0,1.070205688E0,-9.744415283E-1,8.695739746E0
4.602624529E0,9.217681885E-1,-1.053451538E0,8.781936646E0
4.605126971E0,9.050140381E-1,-9.600677490E-1,8.880096436E0
4.607629412E0,9.648590088E-1,-1.132461548E0,9.030929565E0
4.610131854E0,9.481048584E-1,-1.314422607E0,9.100357056E0
4.612634295E0,7.733306885E-1,-9.361267090E-1,9.239227295E0
4.615136736E0,5.985565186E-1,-5.841827393E-1,9.406814575E0
4.617669695E0,4.333496094E-1,-2.729339600E-1,9.526535034E0
4.620172137E0,3.830718994E-1,-5.986022949E-2,9.454696655E0
4.622674578E0,4.118041992E-1,-7.186889648E-3,9.471466064E0
4.625177020E0,4.022216797E-1,-7.186889648E-3,9.504974365E0
4.627679461E0,3.710937500E-1,-6.942749023E-2,9.445129395E0
4.630181902E0,4.237670898E-1,-2.681579590E-1,9.373306274E0
4.632684344E0,4.477081299E-1,-4.620819092E-1,9.387664795E0
4.635217303E0,4.477081299E-1,-5.027770996E-1,9.476257324E0
4.637719744E0,3.567352295E-1,-4.908142090E-1,9.615112305E0
4.640222186E0,2.729339600E-1,-4.860229492E-1,9.789886475E0
4.642724627E0,1.628112793E-1,-3.974304199E-1,9.742004395E0
4.645227068E0,6.463623047E-2,-2.370300293E-1,9.634262085E0
4.647729510E0,4.788208008E-2,-1.340789795E-1,9.612716675E0
4.650231951E0,-1.197814941E-2,-5.027770996E-2,9.459487915E0
4.652734393E0,-7.186889648E-3,7.901000977E-2,9.277526855E0
4.655267352E0,2.154541016E-2,2.370300293E-1,9.009384155E0
4.657769793E0,2.873229980E-2,3.447723389E-1,8.868118286E0
4.660272234E0,2.154541016E-2,4.884185791E-1,8.671798706E0
4.662774676E0,3.591918945E-2,5.626373291E-1,8.425201416E0
4.665277117E0,8.380126953E-2,6.153106689E-1,8.173797607E0
4.667779559E0,1.747741699E-1,5.985565186E-1,7.977478027E0
4.670282000E0,3.256072998E-1,7.565612793E-1,7.694961548E0
4.672814959E0,4.141998291E-1,8.619079590E-1,7.357376099E0
4.675317400E0,4.764404297E-1,9.026184082E-1,7.129928589E0
4.677819842E0,5.937652588E-1,8.044586182E-1,6.998245239E0
4.680322283E0,7.517852783E-1,6.967163086E-1,6.811508179E0
4.682824725E0,7.445983887E-1,5.722198486E-1,6.672637939E0
4.685327166E0,1.060638428E0,2.873229980E-2,6.744461060E0
4.687829607E0,9.169769287E-1,-1.867523193E-1,7.024581909E0
4.690332049E0,3.974304199E-1,5.051727295E-1,6.636734009E0
4.692865008E0,6.942749023E-2,9.002227783E-1,6.411666870E0
4.695367449E0,-3.758850098E-1,1.221038818E0,6.464340210E0
4.697869891E0,-1.218643188E0,1.496383667E0,6.679824829E0
4.700372332E0,-4.620803833E0,1.572998047E0,8.054092407E0
4.702874774E0,-3.160339355E0,7.733306885E-1,6.617568970E0
4.705377215E0,-2.983169556E0,5.051727295E-1,6.890518188E0
4.707879656E0,-3.909729004E0,1.939239502E-1,7.467514038E0
4.710382098E0,-4.213790894E0,-1.137252808E0,7.065292358E0
4.712915057E0,-4.491516113E0,-1.776504517E0,7.362167358E0
4.715417498E0,-4.936843872E0,-1.225830078E0,7.393295288E0
4.717919940E0,-5.212173462E0,-8.666992188E-1,7.453155518E0
4.720422381E0,-5.049377441E0,-6.488342285E-1,7.608779907E0
4.722924822E0,-5.008666992E0,-5.937652588E-1,7.661437988E0
4.725427264E0,-5.032608032E0,-6.512298584E-1,7.673416138E0
4.727929705E0,-4.829101562E0,-7.278442383E-1,7.508209229E0
4.730462664E0,-4.752487183E0,-7.541809082E-1,7.366958618E0
4.732965106E0,-4.683059692E0,-6.823425293E-1,7.141906738E0
4.735467547E0,-4.608840942E0,-4.572906494E-1,6.971908569E0
4.737969988E0,-4.673477173E0,-1.460418701E-1,6.921630859E0
4.740472430E0,-4.659118652E0,2.346343994E-1,6.976699829E0
4.742974871E0,-4.467575073E0,5.267181396E-1,7.000640869E0
4.745477313E0,-4.304779053E0,7.134704590E-1,7.103591919E0
4.748010272E0,-4.108444214E0,9.241638184E-1,7.129928589E0
4.750512713E0,-3.849868774E0,9.911956787E-1,7.163452148E0
4.753015154E0,-3.653549194E0,1.115692139E0,7.108383179E0
4.755517596E0,-3.454833984E0,1.192306519E0,7.050918579E0
4.758020037E0,-3.217803955E0,1.249771118E0,7.017410278E0
4.760522479E0,-2.937683105E0,1.338363647E0,7.082046509E0
4.763024920E0,-2.736572266E0,1.455673218E0,7.151473999E0
4.765527361E0,-2.547424316E0,1.558624268E0,7.213729858E0
4.768060320E0,-2.233795166E0,1.642425537E0,7.295135498E0
4.770562762E0,-2.037460327E0,1.632843018E0,7.216125488E0
4.773065203E0,-1.812408447E0,1.599319458E0,7.024581909E0
4.775567645E0,-1.604110718E0,1.527496338E0,6.900085449E0
4.778070086E0,-1.419754028E0,1.441314697E0,6.739685059E0
4.780572527E0,-1.223434448E0,6.631927490E-1,6.380554199E0
4.783074969E0,-1.154006958E0,2.442016602E-1,6.241683960E0
4.785607928E0,-1.343139648E0,4.070129395E-1,6.184219360E0
4.788110369E0,-1.563415527E0,8.906402588E-1,6.330276489E0
4.790612811E0,-1.826782227E0,1.482009888E0,6.497863770E0
4.793115252E0,-2.231399536E0,1.838745117E0,6.651092529E0
4.795617693E0,-2.600097656E0,2.161956787E0,6.751647949E0
4.798120135E0,-3.224990845E0,2.284072876E0,6.746856689E0
4.800622576E0,-3.665527344E0,2.257736206E0,6.868957520E0
4.803155535E0,-4.252105713E0,1.905776978E0,6.679824829E0
4.805657977E0,-4.776428223E0,1.431732178E0,6.358993530E0
4.808160418E0,-5.360610962E0,7.852935791E-1,5.995086670E0
4.810662859E0,-5.813125610E0,3.399810791E-1,5.631164551E0
4.813165301E0,-6.160278320E0,1.101379395E-1,5.647918701E0
4.815667742E0,-6.279983521E0,3.112792969E-2,5.813125610E0
4.818170184E0,-6.442794800E0,2.202606201E-1,5.995086670E0
4.820672625E0,-6.497863770E0,3.375854492E-1,6.217742920E0
4.823205584E0,-6.639114380E0,6.296691895E-1,6.339843750E0
4.825708025E0,-6.763626099E0,9.097900391E-1,6.382934570E0
4.828210467E0,-6.787567139E0,9.289550781E-1,6.414062500E0
4.830712908E0,-6.490676880E0,7.398071289E-1,6.631942749E0
4.833215350E0,-6.148315430E0,5.291137695E-1,6.823471069E0
4.835717791E0,-5.743682861E0,3.830718994E-1,6.964736938E0
4.838220232E0,-5.305557251E0,2.465972900E-1,7.127532959E0
4.840722674E0,-5.030212402E0,3.064575195E-1,7.307098389E0
4.843255633E0,-4.771636963E0,4.668731689E-1,7.520187378E0
4.845758074E0,-4.532226562E0,6.895294189E-1,7.711730957E0
4.848260516E0,-4.350265503E0,9.935913086E-1,7.841003418E0
4.850762957E0,-4.177886963E0,1.218643188E0,7.931991577E0
4.853265399E0,-4.127609253E0,1.419754028E0,8.032546997E0
4.855767840E0,-3.962402344E0,1.546661377E0,8.068466187E0
4.858270281E0,-3.900161743E0,1.644821167E0,8.044525146E0
4.860772723E0,-3.873825073E0,1.762130737E0,8.044525146E0
4.863305682E0,-3.840301514E0,1.817199707E0,7.994232178E0
4.865808123E0,-3.825927734E0,1.810012817E0,7.843399048E0
4.868310565E0,-3.823547363E0,1.771713257E0,7.699752808E0
4.870813006E0,-3.859451294E0,1.726226807E0,7.625534058E0
4.873345965E0,-3.880996704E0,1.673553467E0,7.474700928E0
4.875848406E0,-3.936065674E0,1.640029907E0,7.431594849E0
4.878350848E0,-4.027053833E0,1.587356567E0,7.481887817E0
4.880883807E0,-4.024658203E0,1.479614258E0,7.481887817E0
4.883386248E0,-4.096481323E0,1.309631348E0,7.436386108E0
4.885888690E0,-4.115631104E0,1.077392578E0,7.493850708E0
4.888391131E0,-4.089294434E0,9.457092285E-1,7.532165527E0
4.890893572E0,-4.134780884E0,7.493896484E-1,7.661437988E0
4.893396014E0,-4.019866943E0,4.956054688E-1,7.831436157E0
4.895898455E0,-3.931274414E0,2.825164795E-1,8.042129517E0
4.898431414E0,-3.790023804E0,-2.395629883E-3,8.238449097E0
4.900933856E0,-3.653549194E0,-1.388702393E-1,8.355758667E0
4.903436297E0,-3.620025635E0,-9.576416016E-2,8.643066406E0
4.905938738E0,-3.632003784E0,-9.582519531E-3,9.030929565E0
4.908441180E0,-3.596084595E0,6.225585938E-2,9.323028564E0
4.910943621E0,-3.555389404E0,1.436462402E-1,9.643844604E0
4.913446063E0,-3.464416504E0,1.891479492E-1,9.868896484E0
4.915948504E0,-3.155563354E0,-1.675415039E-2,1.003410339E1
4.918481463E0,-2.497146606E0,-1.067810059E0,9.959884644E0
4.920983904E0,-2.013519287E0,-1.197097778E0,1.034295654E1
4.923486346E0,-1.826782227E0,-8.499450684E-1,1.040280151E1
4.925988787E0,-1.716644287E0,-4.956054688E-1,1.070686340E1
4.928491229E0,-1.577774048E0,-1.412506104E-1,1.118092346E1
4.930993670E0,-1.407791138E0,2.202606201E-1,1.154484558E1
4.933496111E0,-1.221038818E0,4.429321289E-1,1.197819519E1
4.936029070E0,-1.168365479E0,6.201019287E-1,1.238041687E1
4.938531512E0,-1.158798218E0,7.230529785E-1,1.272996521E1
4.941033953E0,-1.156402588E0,7.613525391E-1,1.298374939E1
4.943536395E0,-1.242584229E0,7.852935791E-1,1.322796631E1
4.946038836E0,-1.230621338E0,6.320648193E-1,1.333810425E1
4.948541277E0,-1.000778198E0,2.370300293E-1,1.331416321E1
4.951043719E0,-5.865783691E-1,-1.963195801E-1,1.327584839E1
4.953546160E0,-1.316833496E-1,-4.381408691E-1,1.319204712E1
4.956079119E0,2.250518799E-1,-4.501037598E-1,1.314176941E1
4.958581561E0,4.980010986E-1,-2.753295898E-1,1.314416504E1
4.961084002E0,7.589569092E-1,8.859252930E-2,1.320162964E1
4.963555926E0,9.888000488E-1,4.070129395E-1,1.328063965E1
4.966058367E0,1.137252808E0,6.512298584E-1,1.326626587E1
4.968560809E0,1.276107788E0,7.350158691E-1,1.319683838E1
4.971093768E0,1.376663208E0,7.398071289E-1,1.308192444E1
4.973626727E0,1.422149658E0,7.062835693E-1,1.295980835E1
4.976129168E0,1.350326538E0,6.440429688E-1,1.273475647E1
4.978631609E0,1.292861938E0,5.291137695E-1,1.247138977E1
4.981134051E0,1.252166748E0,4.237670898E-1,1.227986145E1
4.983636492E0,1.204284668E0,3.495483398E-1,1.196142578E1
4.986138934E0,1.134857178E0,3.112487793E-1,1.171482849E1
4.988641375E0,9.935913086E-1,3.591308594E-1,1.139878845E1
4.991143816E0,7.517852783E-1,4.022216797E-1,1.115937805E1
4.993676775E0,5.506591797E-1,4.764404297E-1,1.099177551E1
4.996179217E0,3.136444092E-1,5.243377686E-1,1.086009216E1
4.998681658E0,3.831481934E-2,4.932098389E-1,1.072123718E1
5.001184100E0,-2.298431396E-1,4.261627197E-1,1.060391235E1
5.003686541E0,-2.944793701E-1,2.801208496E-1,1.056561279E1
5.006188982E0,-2.825164795E-1,1.053466797E-1,1.064462280E1
5.008691424E0,-2.609710693E-1,-4.548645020E-2,1.079066467E1
5.011224383E0,-9.576416016E-2,-1.077423096E-1,1.106838989E1
5.013726824E0,6.942749023E-2,-2.442016602E-1,1.146823120E1
5.016229266E0,2.154846191E-1,-2.968750000E-1,1.170764160E1
5.018731707E0,4.477081299E-1,-2.130889893E-1,1.208593750E1
5.021234149E0,6.033325195E-1,-1.604156494E-1,1.233732605E1
5.023736590E0,8.786773682E-1,-1.436462402E-1,1.258631897E1
5.026239031E0,1.192306519E0,-1.867523193E-1,1.290953064E1
5.028741473E0,1.431732178E0,-3.088531494E-1,1.307234192E1
5.031274432E0,1.704666138E0,-5.003814697E-1,1.316331482E1
5.033776873E0,1.956069946E0,-6.033325195E-1,1.327584839E1
5.036279315E0,2.082962036E0,-6.584014893E-1,1.327584839E1
5.038781756E0,2.193084717E0,-6.847381592E-1,1.331893921E1
5.041284197E0,2.286468506E0,-6.607971191E-1,1.334767151E1
5.043786639E0,2.291244507E0,-5.937652588E-1,1.328063965E1
5.046289080E0,2.296035767E0,-5.722198486E-1,1.319204712E1
5.048822039E0,2.245758057E0,-5.410919189E-1,1.300531006E1
5.051324481E0,2.123657227E0,-5.722198486E-1,1.279701233E1
5.053826922E0,2.003952026E0,-5.339050293E-1,1.261265564E1
5.056329363E0,1.810012817E0,-4.692687988E-1,1.234449768E1
5.058831805E0,1.747772217E0,-5.051727295E-1,1.211705017E1
5.061334246E0,1.699890137E0,-5.410919189E-1,1.191833496E1
5.063836688E0,1.776504517E0,-5.841827393E-1,1.179862976E1
5.066339129E0,1.853118896E0,-6.296691895E-1,1.159272766E1
5.068872088E0,2.080566406E0,-9.528961182E-1,1.137724304E1
5.071374529E0,2.454055786E0,-1.520324707E0,1.128387451E1
5.073876971E0,2.638412476E0,-1.364700317E0,1.154244995E1
5.076379412E0,2.600097656E0,-9.409179688E-1,1.157357788E1
5.078881854E0,2.568984985E0,-5.722198486E-1,1.181538391E1
5.081384295E0,2.750930786E0,-3.447723389E-1,1.203326416E1
5.083886736E0,3.043029785E0,-2.442016602E-1,1.214817810E1
5.086389178E0,3.296813965E0,-2.298431396E-1,1.221282959E1
5.088922137E0,3.579330444E0,-2.681579590E-1,1.228944397E1
5.091424578E0,3.813964844E0,-3.567352295E-1,1.240435791E1
5.093927020E0,4.163513184E0,-4.165954590E-1,1.247138977E1
5.096429461E0,4.537017822E0,-4.764404297E-1,1.248336792E1
5.098931902E0,4.812347412E0,-4.836273193E-1,1.255279541E1
5.101434344E0,5.087677002E0,-4.740447998E-1,1.255279541E1
5.103936785E0,5.312728882E0,-4.405364990E-1,1.244744873E1
5.106469744E0,5.449203491E0,-3.806762695E-1,1.241873169E1
5.108972186E0,5.504272461E0,-2.968750000E-1,1.236366272E1
5.111474627E0,5.437225342E0,-1.652069092E-1,1.221520996E1
5.113977068E0,5.355834961E0,-8.380126953E-2,1.207635498E1
5.116479510E0,5.183441162E0,-1.675415039E-2,1.186087036E1
5.118981951E0,5.023040771E0,-1.914978027E-2,1.154244995E1
5.121484393E0,5.214569092E0,-7.421875000E-2,1.148498535E1
5.124017352E0,7.618347168E0,-6.368560791E-1,1.406593323E1
5.126519793E0,1.456393433E1,-3.816360474E0,2.634100342E1
5.129022234E0,1.802354431E1,-7.144302368E0,3.945883179E1
5.131524676E0,1.469560242E1,-5.224151611E0,3.760093689E1
5.134027117E0,1.091516113E1,-3.711013794E0,3.908055115E1
5.136529559E0,7.022186279E0,-2.020706177E0,3.824737549E1
5.139032000E0,4.326324463E0,6.416473389E-1,2.678153992E1
5.141534441E0,2.877822876E0,2.238571167E0,1.622790527E1
5.144036883E0,2.231399536E0,2.580947876E0,1.168370056E1
5.146569842E0,2.027893066E0,2.422927856E0,1.004367065E1
5.149072283E0,2.075775146E0,1.845932007E0,9.770736694E0
5.151574725E0,1.383850098E0,1.477218628E0,9.691726685E0
5.154077166E0,2.226562500E-1,1.520324707E0,8.657440186E0
5.156579607E0,-1.017532349E0,1.553833008E0,6.615173340E0
5.159112566E0,-2.025497437E0,1.271316528E0,5.279220581E0
5.161645525E0,-2.628829956E0,8.499450684E-1,4.915298462E0
5.164147967E0,-2.609680176E0,2.465972900E-1,4.951202393E0
5.166650408E0,-2.252944946E0,-2.849121094E-1,4.934448242E0
5.169152850E0,-1.453277588E0,-6.727752686E-1,5.066131592E0
5.171655291E0,-4.836273193E-1,-8.092346191E-1,5.348648071E0
5.174157732E0,2.154846191E-1,-6.799468994E-1,5.647918701E0
5.176660174E0,6.560058594E-1,-1.987152100E-1,5.396530151E0
5.179162615E0,8.403625488E-1,2.849121094E-1,5.942413330E0
5.181695574E0,6.847381592E-1,7.230529785E-1,6.598419189E0
5.184198016E0,5.722198486E-1,1.034301758E0,6.780380249E0
5.186669940E0,6.129150391E-1,1.189910889E0,6.821075439E0
5.189202899E0,7.086791992E-1,1.228225708E0,6.725311279E0
5.191705340E0,5.602416992E-1,1.206680298E0,6.677429199E0
5.194207781E0,2.202606201E-1,1.084579468E0,6.928817749E0
5.196710223E0,-5.746459961E-2,8.762817383E-1,6.713348389E0
5.199212664E0,-3.471527100E-1,6.536102295E-1,6.964736938E0
5.201745623E0,-6.320648193E-1,4.070129395E-1,7.175415039E0
5.204248065E0,-8.236083984E-1,2.777252197E-1,7.065292358E0
5.206750506E0,-9.983825684E-1,1.723785400E-1,6.856994629E0
5.209252947E0,-9.911956787E-1,8.859252930E-2,6.459548950E0
5.211755389E0,-8.643035889E-1,1.149291992E-1,6.392517090E0
5.214257830E0,-9.289550781E-1,3.926544189E-1,6.888122559E0
5.216760272E0,-1.122879028E0,7.685394287E-1,7.177810669E0
5.219293231E0,-1.386245728E0,1.168365479E0,7.395690918E0
5.221795672E0,-1.584960938E0,1.482009888E0,7.659057617E0
