"Time (s)","Gyroscope x (rad/s)","Gyroscope y (rad/s)","Gyroscope z (rad/s)"
3.846271500E-2,0.000000000E0,0.000000000E0,0.000000000E0
4.859455100E-2,0.000000000E0,0.000000000E0,0.000000000E0
5.863483400E-2,0.000000000E0,0.000000000E0,0.000000000E0
6.873615200E-2,0.000000000E0,0.000000000E0,0.000000000E0
7.877643500E-2,0.000000000E0,0.000000000E0,0.000000000E0
8.945758800E-2,0.000000000E0,0.000000000E0,0.000000000E0
9.891803700E-2,0.000000000E0,0.000000000E0,0.000000000E0
1.089888380E-1,0.000000000E0,0.000000000E0,0.000000000E0
1.190596380E-1,0.000000000E0,0.000000000E0,0.000000000E0
1.291304390E-1,0.000000000E0,0.000000000E0,0.000000000E0
1.392012400E-1,1.335906982E-1,-1.100158691E-1,-3.019866943E-1
1.492720410E-1,1.076049805E-1,-1.218261719E-1,-2.755584717E-1
1.593428420E-1,6.336975098E-2,-1.611633301E-1,-2.143402100E-1
1.694136420E-1,2.056884766E-2,-2.172546387E-1,-1.528930664E-1
1.794234080E-1,-2.690124512E-2,-2.497406006E-1,-4.463195801E-2
1.894331740E-1,-7.058715820E-2,-2.669219971E-1,7.405090332E-2
1.996260450E-1,-7.304382324E-2,-3.561706543E-1,1.167907715E-1
2.096968450E-1,-8.595275879E-2,-4.608001709E-1,1.311035156E-1
2.197676460E-1,-1.040039062E-1,-5.230407715E-1,1.534271240E-1
2.298384470E-1,-9.436035156E-2,-5.458984375E-1,1.367340088E-1
2.399092480E-1,-6.265258789E-2,-5.397033691E-1,8.963012695E-2
2.499800490E-1,-2.886962891E-2,-5.110321045E-1,3.327941895E-2
2.600508490E-1,-4.486083984E-3,-4.687805176E-1,5.798339844E-4
2.701216500E-1,4.469299316E-2,-4.187164307E-1,-5.654907227E-2
2.801924510E-1,1.171417236E-1,-3.567657471E-1,-1.467285156E-1
2.902632520E-1,1.911773682E-1,-2.866058350E-1,-2.404937744E-1
3.003340530E-1,2.237243652E-1,-2.024383545E-1,-2.498016357E-1
3.104048530E-1,1.857910156E-1,-1.148071289E-1,-1.697235107E-1
3.204451360E-1,8.094787598E-2,-3.549194336E-2,-2.139282227E-2
3.304243850E-1,-4.338073730E-2,3.450012207E-2,1.431427002E-1
3.406477730E-1,-1.906738281E-1,1.207427979E-1,3.827056885E-1
3.508406440E-1,-3.448333740E-1,2.000579834E-1,6.376800537E-1
3.610640330E-1,-5.075073242E-1,2.727203369E-1,9.110565186E-1
3.713179390E-1,-6.544799805E-1,3.322753906E-1,1.158462524E0
3.814497750E-1,-8.143157959E-1,4.044494629E-1,1.433853149E0
3.917036810E-1,-9.738159180E-1,4.693603516E-1,1.715774536E0
4.019270700E-1,-1.107528687E0,4.932098389E-1,1.950347900E0
4.119063180E-1,-1.204437256E0,5.183410645E-1,2.133804321E0
4.211836620E-1,-1.260848999E0,5.470123291E-1,2.208206177E0
4.312544630E-1,-1.267089844E0,5.859222412E-1,2.178176880E0
4.413252630E-1,-1.236953735E0,6.544036865E-1,2.136764526E0
4.514265820E-1,-1.198684692E0,7.497711182E-1,2.122177124E0
4.614363470E-1,-1.163574219E0,8.401031494E-1,2.073135376E0
4.715681830E-1,-1.162521362E0,9.412078857E-1,2.096649170E0
4.816389840E-1,-1.180313110E0,1.004257202E0,2.076736450E0
4.935103220E-1,-1.247940063E0,1.022583008E0,2.110641479E0
5.017805860E-1,-1.329498291E0,1.002197266E0,2.130401611E0
5.118208690E-1,-1.340652466E0,9.271850586E-1,2.001907349E0
5.218916700E-1,-1.340576172E0,8.739471436E-1,1.974761963E0
5.319624700E-1,-1.339675903E0,8.314819336E-1,1.984695435E0
5.420332710E-1,-1.340438843E0,7.373962402E-1,1.901290894E0
5.521040720E-1,-1.406616211E0,5.871124268E-1,1.839889526E0
5.621748730E-1,-1.552963257E0,4.701385498E-1,1.893280029E0
5.722761910E-1,-1.683547974E0,4.226989746E-1,1.971405029E0
5.823469920E-1,-1.683502197E0,4.205627441E-1,1.932998657E0
5.923872750E-1,-1.530776978E0,4.288940430E-1,1.753204346E0
6.024580760E-1,-1.313888550E0,4.325103760E-1,1.557159424E0
6.125288770E-1,-1.077224731E0,4.060821533E-1,1.324600220E0
6.225996780E-1,-7.835235596E-1,3.462371826E-1,9.853668213E-1
6.326704780E-1,-4.730834961E-1,3.176727295E-1,6.669464111E-1
6.427412790E-1,-2.002868652E-1,3.677520752E-1,4.402923584E-1
6.528425970E-1,3.802490234E-2,4.748077393E-1,2.712097168E-1
6.629133980E-1,2.385559082E-1,5.900573730E-1,1.696624756E-1
6.729841990E-1,3.175811768E-1,6.500701904E-1,1.039123535E-1
6.830244820E-1,3.607482910E-1,6.935577393E-1,3.338623047E-2
6.930952830E-1,4.308319092E-1,7.541961670E-1,-4.037475586E-2
7.031660840E-1,4.438323975E-1,8.474884033E-1,-8.291625977E-2
7.132368850E-1,3.711547852E-1,1.016006470E0,7.934570312E-4
7.233076850E-1,1.978607178E-1,1.398818970E0,2.274017334E-1
7.333784860E-1,8.216857910E-2,2.242858887E0,6.461639404E-1
7.435408400E-1,1.112670898E-1,2.995239258E0,9.086151123E-1
7.537642280E-1,2.951812744E-1,3.020278931E0,6.342163086E-1
7.639876170E-1,6.135406494E-1,2.778198242E0,7.019042969E-2
7.741804880E-1,9.580230713E-1,2.462463379E0,-5.619659424E-1
7.843733590E-1,1.222824097E0,2.197265625E0,-1.066757202E0
7.945662300E-1,1.831146240E0,2.078735352E0,-1.671600342E0
8.047591010E-1,2.801422119E0,2.223007202E0,-2.395446777E0
8.147383490E-1,2.966461182E0,2.539764404E0,-2.567443848E0
8.240462110E-1,2.597061157E0,2.450271606E0,-2.628692627E0
8.341170110E-1,1.890518188E0,2.494232178E0,-2.417984009E0
8.441572950E-1,4.326782227E-1,3.284912109E0,-1.628097534E0
8.542280950E-1,-1.411819458E0,4.643295288E0,-5.109710693E-1
8.642988960E-1,-3.186187744E0,5.778533936E0,4.590911865E-1
8.743696970E-1,-5.233261108E0,6.531982422E0,1.349227905E0
8.844710150E-1,-7.154403687E0,6.871597290E0,1.973129272E0
8.963118360E-1,-8.489639282E0,6.830581665E0,2.167282104E0
9.045820990E-1,-9.097381592E0,6.576080322E0,1.870727539E0
9.146529000E-1,-8.562698364E0,5.971328735E0,9.803619385E-1
9.247237010E-1,-6.553558350E0,5.150329590E0,-3.344573975E-1
9.347945020E-1,-3.678085327E0,4.359008789E0,-1.607269287E0
9.448653030E-1,-8.331604004E-1,3.667266846E0,-2.578842163E0
9.549361030E-1,1.291763306E0,2.966857910E0,-3.264999390E0
9.650069040E-1,2.582763672E0,2.227645874E0,-3.819686890E0
9.751082220E-1,3.167434692E0,1.531890869E0,-4.208282471E0
9.851790230E-1,2.915115356E0,9.890136719E-1,-4.430816650E0
9.952193060E-1,1.945571899E0,5.941467285E-1,-4.474700928E0
1.005320625E0,8.311614990E-1,3.568420410E-1,-4.468536377E0
1.015391426E0,-2.669982910E-1,3.201141357E-1,-4.292785645E0
1.025462226E0,-1.060852051E0,4.642639160E-1,-3.934310913E0
1.035502510E0,-1.423797607E0,5.090637207E-1,-3.537292480E0
1.045573310E0,-1.265518188E0,4.673004150E-1,-3.111419678E0
1.055644111E0,-1.314483643E0,2.971496582E-1,-2.876190186E0
1.065714912E0,-1.712921143E0,-6.767272949E-2,-2.851821899E0
1.075785713E0,-2.138046265E0,-6.118469238E-1,-3.028884888E0
1.085856513E0,-2.018997192E0,-1.081924438E0,-3.140914917E0
1.095957832E0,-1.584381104E0,-1.536346436E0,-3.318847656E0
1.106028633E0,-9.899749756E-1,-1.776184082E0,-3.279830933E0
1.116068916E0,-2.986450195E-1,-1.773849487E0,-3.106414795E0
1.126139717E0,2.180328369E-1,-1.855072021E0,-2.880737305E0
1.136210517E0,5.652770996E-1,-1.879455566E0,-2.364273071E0
1.146311836E0,7.149658203E-1,-1.820236206E0,-1.750564575E0
1.156474189E0,1.148284912E0,-1.941741943E0,-1.487854004E0
1.166697578E0,1.435684204E0,-1.903076172E0,-1.303009033E0
1.176890449E0,1.302200317E0,-1.562408447E0,-9.101562500E-1
1.187083320E0,1.201690674E0,-1.279510498E0,-6.539154053E-1
1.197306709E0,1.302749634E0,-8.658447266E-1,-3.313751221E-1
1.207499580E0,1.592041016E0,-3.657379150E-1,-6.430053711E-2
1.217509345E0,1.674819946E0,-8.108520508E-2,1.458740234E-2
1.226878242E0,1.736755371E0,1.596527100E-1,1.006164551E-1
1.236949043E0,1.856811523E0,4.823760986E-1,1.766204834E-1
1.247019844E0,1.936309814E0,7.047271729E-1,1.747436523E-1
1.257090644E0,1.815826416E0,8.661041260E-1,1.376953125E-1
1.267130928E0,1.668212891E0,1.085311890E0,1.762237549E-1
1.277232246E0,1.189987183E0,1.780807495E0,6.929779053E-1
1.287303047E0,1.083999634E0,2.709671021E0,1.254730225E0
1.298136787E0,1.622848511E0,3.301742554E0,1.257675171E0
1.307414131E0,2.653060913E0,4.047012329E0,1.074050903E0
1.317484931E0,4.007888794E0,4.771286011E0,7.140197754E-1
1.327555732E0,5.697875977E0,5.489349365E0,1.822204590E-1
1.337626533E0,7.367172241E0,5.941040039E0,-4.787139893E-1
1.347697334E0,7.460876465E0,5.365951538E0,-1.012680054E0
1.357768135E0,7.119079590E0,4.787811279E0,-1.329788208E0
1.367838935E0,6.740661621E0,3.959609985E0,-1.515808105E0
1.377909736E0,6.003921509E0,2.833190918E0,-1.562362671E0
1.387980537E0,4.813964844E0,1.491287231E0,-1.509628296E0
1.398081855E0,4.037796021E0,1.025390625E0,-1.416305542E0
1.408152656E0,3.526351929E0,6.231689453E-1,-1.287414551E0
1.418223457E0,2.980453491E0,2.617340088E-1,-1.163909912E0
1.428263740E0,2.456939697E0,1.094665527E-1,-1.030242920E0
1.438334541E0,1.196731567E0,-2.353973389E-1,-9.814910889E-1
1.448405342E0,-6.651763916E-1,-8.274230957E-1,-8.842468262E-1
1.458476142E0,-1.764038086E0,-9.032135010E-1,-8.242797852E-1
1.468546943E0,-2.078781128E0,-7.252502441E-1,-7.539062500E-1
1.478617744E0,-2.441894531E0,-6.990509033E-1,-6.533203125E-1
1.488688545E0,-2.706039429E0,-4.350738525E-1,-5.326538086E-1
1.498759345E0,-2.165527344E0,-2.581787109E-2,-4.409637451E-1
1.508860664E0,-1.799301147E0,-9.761047363E-2,-3.615264893E-1
1.518931465E0,-2.716979980E0,-1.138504028E0,-2.621002197E-1
1.528971748E0,-4.460784912E0,-2.883453369E0,-1.921844482E-1
1.539164619E0,-6.153045654E0,-4.242324829E0,-1.191101074E-1
1.549326972E0,-7.980789185E0,-5.803176880E0,-9.681701660E-2
1.559580879E0,-9.611465454E0,-7.355468750E0,-2.424163818E-1
1.569773750E0,-1.089726257E1,-8.518615723E0,-4.150543213E-1
1.579966621E0,-1.176820374E1,-9.154083252E0,-5.198516846E-1
1.590190010E0,-1.202162170E1,-9.262420654E0,-5.964202881E-1
1.600291328E0,-1.153318787E1,-8.795486450E0,-6.205902100E-1
1.610423164E0,-1.048892212E1,-7.889053345E0,-5.371551514E-1
1.619608955E0,-8.887451172E0,-6.616012573E0,-4.273681641E-1
1.629679756E0,-7.745300293E0,-5.680664062E0,-3.418579102E-1
1.639750556E0,-7.661560059E0,-5.492172241E0,-3.323669434E-1
1.649821357E0,-7.763854980E0,-5.469116211E0,-3.196411133E-1
1.659922676E0,-7.466033936E0,-5.216094971E0,-2.938995361E-1
1.669993476E0,-6.822341919E0,-4.772964478E0,-2.373352051E-1
1.680033760E0,-5.584884644E0,-3.868881226E0,-1.007843018E-1
1.690104560E0,-4.290786743E0,-2.786880493E0,-3.234863281E-3
1.700114326E0,-2.938522339E0,-1.701690674E0,1.866149902E-1
1.710246162E0,-1.581619263E0,-6.662750244E-1,4.629821777E-1
1.720347480E0,-1.290893555E-1,3.978729248E-1,6.861877441E-1
1.730418281E0,1.260833740E0,1.428619385E0,8.066711426E-1
1.740489082E0,2.707489014E0,2.631668091E0,9.648895264E-1
1.750529365E0,4.436492920E0,4.058471680E0,1.188385010E0
1.760600166E0,5.632705688E0,5.098693848E0,1.299499512E0
1.770701484E0,6.683776855E0,6.057174683E0,1.302307129E0
1.780772285E0,7.705581665E0,7.010635376E0,1.154129028E0
1.790843086E0,8.148040771E0,7.370254517E0,8.121490479E-1
1.800883369E0,8.209457397E0,7.317871094E0,5.057830811E-1
1.810954170E0,8.477996826E0,7.398468018E0,3.253021240E-1
1.821055488E0,8.686477661E0,7.173873901E0,-5.867004395E-2
1.831126289E0,8.208801270E0,6.124847412E0,-5.916137695E-1
1.841166572E0,7.210159302E0,4.754409790E0,-1.003341675E0
1.851237373E0,6.130065918E0,3.692581177E0,-1.066619873E0
1.861338691E0,5.355300903E0,3.045700073E0,-9.614257812E-1
1.871409492E0,5.033065796E0,2.501525879E0,-9.343261719E-1
1.881480293E0,4.791336060E0,1.640838623E0,-1.172271729E0
1.891520576E0,3.870285034E0,4.884643555E-1,-1.381729126E0
1.901591377E0,2.756790161E0,-4.848022461E-1,-1.426849365E0
1.911662178E0,1.890335083E0,-5.923614502E-1,-9.934082031E-1
1.921824531E0,1.341613770E0,-6.972351074E-1,-6.688385010E-1
1.932017402E0,9.139099121E-1,-7.809143066E-1,-4.382629395E-1
1.942210273E0,4.510345459E-1,-6.946411133E-1,-1.387634277E-1
1.952433662E0,1.267700195E-1,2.717742920E-1,5.953369141E-1
1.962626533E0,1.348876953E-2,5.582275391E-1,7.825622559E-1
1.972849922E0,2.182006836E-3,3.260498047E-1,6.358337402E-1
1.983195381E0,-7.333374023E-2,1.847534180E-1,5.488433838E-1
1.993083076E0,-9.908294678E-1,-3.838348389E-1,4.138946533E-1
2.002329902E0,-2.228591919E0,-1.194061279E0,2.807769775E-1
2.012400703E0,-2.871658325E0,-1.643814087E0,2.121734619E-1
2.022440986E0,-2.941925049E0,-1.616836548E0,2.604827881E-1
2.032542304E0,-3.049713135E0,-1.403518677E0,4.647064209E-1
2.042613105E0,-3.529983521E0,-1.056625366E0,1.027389526E0
2.052683906E0,-3.594680786E0,-7.786865234E-1,1.349121094E0
2.062724189E0,-3.332122803E0,-6.401672363E-1,1.401824951E0
2.072794990E0,-3.045654297E0,-3.946838379E-1,1.532470703E0
2.082896308E0,-2.083404541E0,1.355133057E-1,1.534057617E0
2.092967109E0,-1.330596924E0,3.273773193E-1,1.293960571E0
2.103373603E0,-1.041580200E0,3.236846924E-1,1.089172363E0
2.113078193E0,-1.398025513E0,6.564331055E-2,8.634033203E-1
2.123148994E0,-2.168121338E0,-3.143005371E-1,7.402954102E-1
2.133250312E0,-1.971939087E0,7.833862305E-2,8.190765381E-1
2.143321113E0,-9.705505371E-1,8.643798828E-1,9.001770020E-1
2.153361396E0,-3.540039062E-3,1.399246216E0,8.589935303E-1
2.163432197E0,4.538269043E-1,1.494216919E0,7.341461182E-1
2.173533515E0,7.947845459E-1,1.541122437E0,6.093597412E-1
2.183604316E0,1.633041382E0,1.353057861E0,3.404235840E-2
2.193675117E0,2.246948242E0,7.200012207E-1,-7.731781006E-1
2.203715400E0,1.742156982E0,5.475311279E-1,-5.871582031E-1
2.213786201E0,1.350036621E0,4.926910400E-1,-3.768310547E-1
2.223857002E0,1.123321533E0,5.538787842E-1,-2.167816162E-1
2.233958320E0,1.076644897E0,7.498474121E-1,1.354980469E-2
2.244029121E0,1.113220215E0,9.639892578E-1,2.156219482E-1
2.254069404E0,1.087127686E0,1.025146484E0,3.062744141E-1
2.264140205E0,1.343292236E0,1.357818604E0,5.544586182E-1
2.274241523E0,1.470642090E0,1.490936279E0,6.903228760E-1
2.284312324E0,1.528198242E0,1.633041382E0,7.713775635E-1
2.294352607E0,1.353073120E0,1.435241699E0,6.171264648E-1
2.304453926E0,1.031921387E0,1.053436279E0,3.536224365E-1
2.314677314E0,7.012176514E-1,7.558898926E-1,1.426544189E-1
2.324839668E0,2.777099609E-2,4.768676758E-1,2.688598633E-2
2.335063056E0,-3.021499634E0,-5.795593262E-1,-2.451019287E-1
2.345286445E0,-3.492126465E0,-7.195587158E-1,-2.471160889E-1
2.355479316E0,-2.578491211E0,-4.125213623E-1,-1.690673828E-1
2.365611152E0,-2.192382812E0,-1.910552979E-1,-1.069793701E-1
2.375773506E0,-2.340606689E0,-1.895294189E-1,-8.007812500E-2
2.385905342E0,-2.373794556E0,-2.581939697E-1,-1.042938232E-1
2.395091133E0,-1.922454834E0,-1.825256348E-1,-1.693572998E-1
2.405131416E0,-1.433349609E0,-1.008911133E-1,-2.807312012E-1
2.415202217E0,-1.188262939E0,-1.720581055E-1,-4.252777100E-1
2.425303535E0,-1.115081787E0,-3.284301758E-1,-5.940246582E-1
2.435374336E0,-1.104232788E0,-4.989929199E-1,-7.758789062E-1
2.445414619E0,-9.635925293E-1,-5.541534424E-1,-8.714294434E-1
2.455515937E0,-6.049346924E-1,-3.357543945E-1,-7.268371582E-1
2.465556220E0,-1.820068359E-1,7.467651367E-2,-3.710937500E-1
2.475627021E0,2.799987793E-1,4.492950439E-1,-9.339904785E-2
2.485728340E0,7.959289551E-1,7.507629395E-1,5.247497559E-2
2.495799140E0,1.251205444E0,9.406585693E-1,9.210205078E-2
2.506205635E0,1.428436279E0,1.018035889E0,9.715270996E-2
2.515940742E0,1.373168945E0,1.070205688E0,1.550445557E-1
2.526011543E0,1.258575439E0,1.131439209E0,3.129730225E-1
2.536051826E0,1.337921143E0,1.254852295E0,5.178680420E-1
2.546122627E0,1.212707520E0,1.094375610E0,5.187835693E-1
2.556223945E0,7.196197510E-1,6.622772217E-1,3.326721191E-1
2.566294746E0,3.550109863E-1,3.463439941E-1,1.451873779E-1
2.576365547E0,1.556091309E-1,1.343688965E-1,-2.474975586E-2
2.586405830E0,-4.333038330E-1,-5.283508301E-1,-4.655303955E-1
2.596476631E0,-1.051254272E0,-1.249099731E0,-9.749145508E-1
2.606577949E0,-1.783843994E0,-2.150466919E0,-1.528167725E0
2.616648750E0,-2.653625488E0,-3.418563843E0,-2.467956543E0
2.626689033E0,-2.867095947E0,-3.984207153E0,-3.048080444E0
2.636668281E0,-2.387817383E0,-3.412216187E0,-2.617630005E0
2.646861152E0,-1.961456299E0,-2.918869019E0,-2.236557007E0
2.656901435E0,-1.631347656E0,-2.539550781E0,-1.935058594E0
2.667002754E0,-1.302139282E0,-2.119445801E0,-1.650665283E0
2.677073554E0,-1.084518433E0,-1.847763062E0,-1.407424927E0
2.687113838E0,-8.991546631E-1,-1.596878052E0,-1.201599121E0
2.697215156E0,-7.411041260E-1,-1.368270874E0,-1.080093384E0
2.707408027E0,-6.889801025E-1,-1.328521729E0,-1.070999146E0
2.717631416E0,-7.316131592E-1,-1.371719360E0,-1.086990356E0
2.727824287E0,-8.096313477E-1,-1.408279419E0,-1.104644775E0
2.738017158E0,-8.514404297E-1,-1.409576416E0,-1.120925903E0
2.748210029E0,-8.525238037E-1,-1.435195923E0,-1.176864624E0
2.758402900E0,-8.184814453E-1,-1.447189331E0,-1.274215698E0
2.768504219E0,-8.043670654E-1,-1.561904907E0,-1.456634521E0
2.778636054E0,-7.767181396E-1,-1.651107788E0,-1.664489746E0
2.787852363E0,-6.403198242E-1,-1.526626587E0,-1.740188599E0
2.797923164E0,-4.537353516E-1,-1.277191162E0,-1.606307983E0
2.807993965E0,-3.594360352E-1,-1.092697144E0,-1.382675171E0
2.818034248E0,-2.654571533E-1,-9.673309326E-1,-1.205963135E0
2.828135566E0,-1.602325439E-1,-8.522491455E-1,-1.077987671E0
2.838206367E0,1.245117188E-2,-5.926971436E-1,-7.729949951E-1
2.848277168E0,2.831573486E-1,-1.453552246E-1,-4.324645996E-1
2.858347969E0,6.008758545E-1,4.263458252E-1,2.191162109E-2
2.868418769E0,1.447708130E0,1.930786133E0,1.260253906E0
2.878489570E0,1.609649658E0,2.369857788E0,1.597717285E0
2.888529853E0,1.634307861E0,2.581924438E0,1.770095825E0
2.898600654E0,1.911178589E0,3.326721191E0,2.325500488E0
2.909037666E0,2.289169312E0,4.071380615E0,2.755020142E0
2.918772773E0,2.035812378E0,3.922698975E0,2.728103638E0
2.928843574E0,1.559906006E0,3.012802124E0,2.122451782E0
2.938883857E0,1.126693726E0,2.169860840E0,1.622619629E0
2.948954658E0,5.531158447E-1,1.220779419E0,1.252395630E0
2.959025459E0,-2.148284912E-1,1.716156006E-1,1.012237549E0
2.969126777E0,-9.501953125E-1,-9.839172363E-1,6.781616211E-1
2.979197578E0,-1.476089478E0,-2.305633545E0,-1.258544922E-1
2.989268379E0,-1.031860352E0,-2.436172485E0,-7.767791748E-1
2.999339179E0,-9.620666504E-1,-2.431457520E0,-8.658294678E-1
3.009379463E0,-9.407806396E-1,-2.168548584E0,-6.322479248E-1
3.019450263E0,-9.830627441E-1,-2.063125610E0,-4.269256592E-1
3.029551582E0,-9.061889648E-1,-1.778900146E0,-9.693908691E-2
3.039622383E0,-8.775787354E-1,-1.520599365E0,2.933959961E-1
3.049662666E0,-7.944793701E-1,-1.267791748E0,6.125183105E-1
3.059733467E0,-7.959899902E-1,-1.294738770E0,6.174468994E-1
3.069834785E0,-7.524414062E-1,-1.307678223E0,4.961700439E-1
3.079905586E0,-6.778564453E-1,-1.284378052E0,3.985290527E-1
3.089976386E0,-6.468353271E-1,-1.261734009E0,3.507690430E-1
3.100077705E0,-6.052856445E-1,-1.276138306E0,2.738037109E-1
3.110270576E0,-6.506195068E-1,-1.384490967E0,1.950225830E-1
3.120463447E0,-8.326110840E-1,-1.633117676E0,-6.448364258E-2
3.130656318E0,-1.040878296E0,-1.908081055E0,-3.851928711E-1
3.140879707E0,-1.164825439E0,-2.140151978E0,-9.535217285E-1
3.151072578E0,-1.133331299E0,-2.202468872E0,-1.702468872E0
3.161265449E0,-6.380310059E-1,-1.636505127E0,-1.612518311E0
3.171366767E0,-4.028015137E-1,-1.194244385E0,-1.213012695E0
3.181468086E0,-1.178741455E-1,-7.525177002E-1,-8.570251465E-1
3.190653877E0,2.229461670E-1,-3.240966797E-1,-5.749359131E-1
3.200755195E0,7.481689453E-1,2.003326416E-1,-3.329620361E-1
3.210825996E0,1.575622559E0,1.106948853E0,3.669738770E-1
3.220896797E0,9.870300293E-1,9.974517822E-1,1.095108032E0
3.230937080E0,3.986206055E-1,7.382049561E-1,1.473068237E0
3.241007881E0,2.257080078E-1,6.494140625E-1,1.508865356E0
3.251078681E0,2.241210938E-1,5.883026123E-1,1.361770630E0
3.261180000E0,2.849731445E-1,6.023712158E-1,1.176666260E0
3.271220283E0,3.078918457E-1,5.622863770E-1,1.005249023E0
3.281291084E0,3.011016846E-1,4.846649170E-1,8.199920654E-1
3.291361885E0,3.094940186E-1,4.194335938E-1,6.103515625E-1
3.301463203E0,4.470825195E-1,5.545349121E-1,6.562957764E-1
3.311869697E0,5.715179443E-1,7.333374023E-1,8.612518311E-1
3.321604804E0,5.128631592E-1,7.917480469E-1,1.123886108E0
3.331645088E0,2.610321045E-1,6.696624756E-1,1.271163940E0
3.341715888E0,2.687835693E-1,7.584686279E-1,1.378112793E0
3.351817207E0,4.267730713E-1,8.856353760E-1,1.319351196E0
3.361888008E0,4.812469482E-1,8.796691895E-1,1.148788452E0
3.371958808E0,4.289245605E-1,7.495574951E-1,8.929595947E-1
3.381999092E0,3.272247314E-1,5.561065674E-1,6.343231201E-1
3.392100410E0,2.834777832E-1,4.641418457E-1,5.198516846E-1
3.402171211E0,2.218017578E-1,3.770751953E-1,4.785003662E-1
3.412242011E0,6.214904785E-2,1.868286133E-1,3.796081543E-1
3.422282295E0,-1.222839355E-1,-5.590820312E-2,2.429962158E-1
3.432353095E0,-2.694091797E-1,-2.489318848E-1,1.643524170E-1
3.442423896E0,-5.665130615E-1,-5.531463623E-1,8.999633789E-2
3.452525215E0,-8.144683838E-1,-8.301544189E-1,5.537414551E-2
3.462596015E0,-7.024688721E-1,-7.891540527E-1,6.944274902E-2
3.472636299E0,-4.472198486E-1,-6.077880859E-1,5.758666992E-2
3.482707099E0,-2.720184326E-1,-5.011901855E-1,-4.206848145E-2
3.492777900E0,-1.818389893E-1,-4.667358398E-1,-2.029266357E-1
3.502879219E0,-2.397613525E-1,-5.111846924E-1,-2.535552979E-1
3.513072090E0,-9.716796875E-2,-4.199066162E-1,-2.805328369E-1
3.523295478E0,1.618652344E-1,-1.991577148E-1,-1.436767578E-1
3.533488349E0,3.932037354E-1,3.753662109E-3,1.449584961E-2
3.543681220E0,5.205535889E-1,1.004180908E-1,4.536437988E-2
3.553874092E0,2.504425049E-1,-1.090850830E-1,-5.018615723E-2
3.564066963E0,-9.182739258E-2,-3.497161865E-1,-1.390075684E-1
3.574168281E0,-3.170776367E-1,-5.007324219E-1,-1.930999756E-1
3.584269599E0,-4.957580566E-1,-6.462249756E-1,-2.760620117E-1
3.593516426E0,-5.206451416E-1,-6.521301270E-1,-2.990417480E-1
3.603587226E0,-4.980926514E-1,-5.863647461E-1,-1.962280273E-1
3.613658027E0,-4.459991455E-1,-4.558105469E-1,2.288818359E-3
3.623728828E0,-2.797698975E-1,-2.356567383E-1,3.063507080E-1
3.633769111E0,-1.791381836E-2,3.988647461E-2,5.832519531E-1
3.643839912E0,2.241973877E-1,2.838592529E-1,7.688903809E-1
3.653941230E0,7.079010010E-1,6.632232666E-1,9.902038574E-1
3.664012031E0,9.651641846E-1,8.630981445E-1,1.127212524E0
3.674082832E0,8.735046387E-1,8.298034668E-1,1.204086304E0
3.684123115E0,7.686309814E-1,7.818908691E-1,1.418136597E0
3.694193916E0,5.344085693E-1,6.840820312E-1,1.640563965E0
3.704264717E0,3.031768799E-1,4.974060059E-1,1.599395752E0
3.714640693E0,1.684417725E-1,3.130493164E-1,1.355361938E0
3.724406318E0,1.590423584E-1,2.421722412E-1,1.278839111E0
3.734477119E0,3.367004395E-1,3.215942383E-1,1.377487183E0
3.744547920E0,4.554290771E-1,3.674011230E-1,1.521636963E0
3.754618720E0,6.408081055E-1,6.718750000E-1,2.158767700E0
3.764689521E0,-6.396484375E-2,4.687347412E-1,2.301803589E0
3.774760322E0,-4.624176025E-1,2.058410645E-1,2.038085938E0
3.784770088E0,-4.264068604E-1,9.101867676E-2,1.828384399E0
3.794932441E0,-3.041687012E-1,9.117126465E-2,1.752685547E0
3.805003242E0,-1.553955078E-1,1.224975586E-1,1.766464233E0
3.815043525E0,-7.812500000E-3,1.194305420E-1,1.720596313E0
3.825114326E0,3.132934570E-1,1.830902100E-1,1.719451904E0
3.835185127E0,7.408905029E-1,3.054199219E-1,1.802795410E0
3.845255928E0,1.011032104E0,4.934692383E-1,2.047622681E0
3.855357246E0,8.923339844E-1,5.765228271E-1,2.290679932E0
3.865428047E0,4.685516357E-1,4.347381592E-1,2.126235962E0
3.875468330E0,2.840423584E-1,3.173675537E-1,1.926300049E0
3.885539131E0,-4.388427734E-2,1.268920898E-1,1.613815308E0
3.895640449E0,-4.554901123E-1,-1.846313477E-2,1.355895996E0
3.905711250E0,-8.845977783E-1,-1.217041016E-1,1.190994263E0
3.915843086E0,-1.082199097E0,-1.465759277E-1,1.163208008E0
3.926035957E0,-1.233612061E0,-1.368560791E-1,1.167541504E0
3.936228828E0,-1.281997681E0,-1.286926270E-1,1.101486206E0
3.946421699E0,-9.889831543E-1,-3.067016602E-2,1.207046509E0
3.956614570E0,-7.237091064E-1,9.518432617E-2,1.308074951E0
3.966898994E0,-4.512634277E-1,2.505493164E-1,1.271957397E0
3.977000312E0,-3.001556396E-1,3.523406982E-1,1.058425903E0
3.987071113E0,-3.836059570E-2,4.461059570E-1,6.985015869E-1
3.997233467E0,3.077545166E-1,5.353698730E-1,4.250640869E-1
4.006419258E0,7.977142334E-1,6.305847168E-1,2.685089111E-1
4.016490058E0,1.188217163E0,6.990509033E-1,2.111968994E-1
4.026530342E0,1.377044678E0,7.287445068E-1,2.653045654E-1
4.036601142E0,1.289611816E0,6.869049072E-1,2.443237305E-1
4.046702461E0,1.051071167E0,6.178741455E-1,1.953582764E-1
4.056773261E0,8.570709229E-1,5.834655762E-1,2.031707764E-1
4.066844062E0,6.662445068E-1,5.637817383E-1,2.680511475E-1
4.076914863E0,4.344787598E-1,5.198974609E-1,3.137054443E-1
4.086985664E0,1.716461182E-1,4.422760010E-1,3.333129883E-1
4.097056465E0,-2.537841797E-1,4.332885742E-1,3.188476562E-1
4.107096748E0,-9.890747070E-1,5.037231445E-1,3.157348633E-1
4.117533760E0,-5.724792480E-1,6.068572998E-1,7.001800537E-1
4.127268867E0,7.423095703E-1,7.931518555E-1,1.509689331E0
4.137339668E0,9.520263672E-1,6.745758057E-1,1.378601074E0
4.147379951E0,7.102508545E-1,4.993896484E-1,1.030075073E0
4.157450752E0,4.005279541E-1,2.913970947E-1,5.496826172E-1
4.167521553E0,1.958618164E-1,1.169738770E-1,1.216888428E-1
4.177622871E0,7.998657227E-2,-2.488708496E-2,-2.012786865E-1
4.187693672E0,-2.842712402E-2,-5.928039551E-2,-2.048797607E-1
4.197733955E0,-2.134094238E-1,-1.125946045E-1,-2.798614502E-1
4.207804756E0,-3.488159180E-1,-1.505432129E-1,-3.451538086E-1
4.217875556E0,-3.042297363E-1,-1.313934326E-1,-2.950897217E-1
4.227976875E0,-2.608642578E-1,-1.036529541E-1,-1.866912842E-1
4.238047676E0,-3.957366943E-1,-1.502838135E-1,-1.442718506E-1
4.248118476E0,-6.758575439E-1,-2.659454346E-1,-1.495971680E-1
4.258158760E0,-9.229583740E-1,-3.726501465E-1,-1.464843750E-1
4.268229560E0,-8.412017822E-1,-3.459472656E-1,-9.281921387E-2
4.278330879E0,-7.668457031E-1,-3.113861084E-1,-4.391479492E-2
4.288401679E0,-5.470886230E-1,-2.511444092E-1,-1.014709473E-2
4.298472480E0,-4.220886230E-1,-2.571258545E-1,-5.708312988E-2
4.308512763E0,-3.445892334E-1,-2.764739990E-1,-1.351013184E-1
4.318583564E0,-3.276519775E-1,-2.620697021E-1,-2.558441162E-1
4.328776435E0,-3.861999512E-1,-2.401885986E-1,-3.542785645E-1
4.338969306E0,-1.868743896E-1,-2.459259033E-1,-4.008178711E-1
4.349131660E0,4.310607910E-1,-2.551574707E-1,-4.050140381E-1
4.359355049E0,3.896484375E-1,-2.865753174E-1,-4.849243164E-1
4.369547920E0,-2.976989746E-1,-4.074096680E-1,-9.361419678E-1
4.379740791E0,-4.930725098E-1,-3.769073486E-1,-8.995819092E-1
4.389933662E0,-4.031524658E-1,-2.798767090E-1,-7.318878174E-1
4.399973945E0,-2.797546387E-1,-1.770935059E-1,-4.979095459E-1
4.409251289E0,-1.824645996E-1,2.764892578E-2,1.850891113E-2
4.419291572E0,-9.558105469E-2,9.075927734E-2,2.062683105E-1
4.429392890E0,3.874206543E-2,1.257629395E-1,3.319091797E-1
4.439463691E0,2.455139160E-2,1.137237549E-1,2.781219482E-1
4.449503974E0,-9.857177734E-3,1.051940918E-1,2.246246338E-1
4.459574775E0,-6.510925293E-2,1.098175049E-1,2.449035645E-1
4.469645576E0,-1.517028809E-1,1.274719238E-1,2.612457275E-1
4.479716377E0,-3.239746094E-1,1.268768311E-1,2.448883057E-1
4.489817695E0,-4.916534424E-1,1.210021973E-1,2.227172852E-1
4.499888496E0,-5.779571533E-1,1.184539795E-1,2.308959961E-1
4.509959297E0,-6.440124512E-1,1.026458740E-1,2.538452148E-1
4.520365791E0,-6.632843018E-1,7.893371582E-2,2.974395752E-1
4.530100898E0,-6.625671387E-1,3.584289551E-2,3.543243408E-1
4.540141181E0,-4.654693604E-1,6.105041504E-2,4.038696289E-1
4.550211982E0,-3.060302734E-1,7.528686523E-2,4.188079834E-1
4.560282783E0,-1.662902832E-1,9.359741211E-2,4.213562012E-1
4.570384101E0,-3.663635254E-2,1.104736328E-1,4.089508057E-1
4.580454902E0,4.458618164E-2,1.168060303E-1,3.946685791E-1
4.590525703E0,-4.296875000E-2,7.614135742E-2,2.811737061E-1
4.600565986E0,-1.857910156E-1,2.705383301E-2,8.976745605E-2
4.610636787E0,-2.881774902E-1,2.548217773E-3,-5.462646484E-3
4.620738105E0,-3.316650391E-1,-1.358032227E-3,-1.771545410E-2
4.630808906E0,-3.333435059E-1,-4.333496094E-3,-1.228332520E-2
4.640849189E0,-2.379760742E-1,-4.425048828E-4,-1.724243164E-2
4.650950508E0,-1.222991943E-1,-1.449584961E-3,-1.155090332E-2
4.661021308E0,-7.733154297E-2,-1.972961426E-2,2.227783203E-3
4.671092109E0,-9.091186523E-2,-3.489685059E-2,-8.758544922E-3
4.681132392E0,-1.754760742E-1,-6.271362305E-2,-6.784057617E-2
4.691233711E0,-3.152313232E-1,-1.092071533E-1,-1.537017822E-1
4.701304511E0,-2.907104492E-1,-9.956359863E-2,-2.321166992E-1
4.711375312E0,-3.647308350E-1,-1.340484619E-1,-3.151245117E-1
4.721415595E0,-3.886108398E-1,-1.474304199E-1,-3.894348145E-1
4.731516914E0,-3.782196045E-1,-1.467285156E-1,-4.368896484E-1
4.741709785E0,-4.349975586E-1,-1.735687256E-1,-4.793853760E-1
4.751933174E0,-5.019989014E-1,-2.036285400E-1,-5.189971924E-1
4.762126045E0,-5.069122314E-1,-2.030181885E-1,-5.665740967E-1
4.772318916E0,-4.829864502E-1,-1.859588623E-1,-6.240081787E-1
4.782511787E0,-5.164794922E-1,-1.881561279E-1,-6.673431396E-1
4.792704658E0,-5.479583740E-1,-1.836090088E-1,-6.551361084E-1
4.802805976E0,-5.802764893E-1,-1.796875000E-1,-5.770416260E-1
4.812907295E0,-6.110839844E-1,-1.776428223E-1,-4.660644531E-1
4.822123603E0,-6.412658691E-1,-1.817474365E-1,-3.902282715E-1
4.832194404E0,-5.389556885E-1,-1.376647949E-1,-3.540039062E-1
4.842295722E0,-5.354156494E-1,-1.421356201E-1,-3.721313477E-1
4.852366523E0,-5.339660645E-1,-1.372680664E-1,-4.395904541E-1
4.862406806E0,-5.910491943E-1,-1.604156494E-1,-5.189361572E-1
4.872508125E0,-5.694885254E-1,-1.528778076E-1,-5.342407227E-1
4.882548408E0,-5.785980225E-1,-1.615905762E-1,-4.979705811E-1
4.892619209E0,-5.586395264E-1,-1.608581543E-1,-4.680175781E-1
4.902690010E0,-4.994354248E-1,-1.502685547E-1,-3.672485352E-1
4.912791328E0,-3.979644775E-1,-1.280670166E-1,-2.224884033E-1
4.923167304E0,-3.009490967E-1,-1.068878174E-1,-1.099090576E-1
4.932932929E0,-1.915283203E-1,-7.266235352E-2,-5.175781250E-2
4.943003730E0,-1.978912354E-1,-8.604431152E-2,-4.367065430E-2
4.953044013E0,-1.594543457E-1,-6.675720215E-2,5.926513672E-2
4.963145332E0,-1.184844971E-1,-4.098510742E-2,2.474517822E-1
4.973216133E0,-3.985595703E-2,2.899169922E-4,4.473876953E-1
4.983256416E0,9.049987793E-2,5.990600586E-2,5.607299805E-1
4.993327217E0,1.518249512E-1,7.804870605E-2,5.431823730E-1
5.003428535E0,1.649169922E-1,6.742858887E-2,4.688415527E-1
5.013499336E0,2.069549561E-1,6.608581543E-2,3.937835693E-1
5.023570136E0,2.687072754E-1,7.392883301E-2,3.179168701E-1
5.033610420E0,2.798461914E-1,7.347106934E-2,2.185516357E-1
5.043681220E0,2.145996094E-1,5.181884766E-2,1.079254150E-1
5.053782539E0,1.718597412E-1,4.249572754E-2,6.805419922E-2
5.063853340E0,1.573181152E-1,4.203796387E-2,1.012878418E-1
5.073924140E0,1.154937744E-1,1.803588867E-2,1.561737061E-1
5.083964424E0,1.291503906E-1,1.069641113E-2,1.682128906E-1
5.094065742E0,1.513671875E-1,7.888793945E-3,1.550292969E-1
5.104136543E0,1.763000488E-1,1.637268066E-2,1.864471436E-1
5.114176826E0,2.114410400E-1,3.103637695E-2,2.597656250E-1
5.124247627E0,2.120971680E-1,4.028320312E-2,2.776947021E-1
5.134318428E0,1.405639648E-1,2.627563477E-2,2.081451416E-1
5.144419746E0,7.594299316E-2,1.127624512E-2,1.195831299E-1
5.154643135E0,8.973693848E-2,2.268981934E-2,4.975891113E-2
5.164805488E0,7.460021973E-2,2.748107910E-2,1.649475098E-2
5.175028877E0,2.485656738E-2,1.492309570E-2,2.655029297E-3
5.185221748E0,0.000000000E0,0.000000000E0,0.000000000E0
5.195414619E0,-1.266479492E-2,5.081176758E-3,-3.289794922E-2
5.205607490E0,-8.819580078E-3,2.273559570E-3,-4.949951172E-2
5.215800361E0,-2.169799805E-2,-8.102416992E-3,-1.011047363E-1
5.225810127E0,-6.831359863E-2,-3.196716309E-2,-1.675109863E-1
5.235056953E0,-7.893371582E-2,-3.794860840E-2,-2.034912109E-1
5.245127754E0,-6.762695312E-2,-3.414916992E-2,-2.056121826E-1
5.255198554E0,-5.589294434E-2,-2.975463867E-2,-1.786041260E-1
5.265238838E0,-3.364562988E-2,-1.708984375E-2,-1.141510010E-1
5.275309638E0,-1.100158691E-2,-2.624511719E-3,-4.699707031E-2
5.285410957E0,2.090454102E-2,1.385498047E-2,-2.944946289E-3
5.295481758E0,4.022216797E-2,2.220153809E-2,3.738403320E-3
5.305552558E0,7.275390625E-2,4.179382324E-2,7.830810547E-2
5.315592842E0,7.646179199E-2,5.128479004E-2,1.516113281E-1
5.325694160E0,4.518127441E-2,4.571533203E-2,1.308288574E-1
5.335764961E0,-3.440856934E-2,2.946472168E-2,4.455566406E-2
5.345835761E0,-1.470336914E-1,2.432250977E-2,9.994506836E-3
5.355876045E0,-1.866149902E-1,4.121398926E-2,3.295898438E-2
5.365946845E0,-8.845520020E-2,5.738830566E-2,9.297180176E-2
5.376048164E0,1.600646973E-2,5.197143555E-2,1.398773193E-1
5.386118965E0,1.428222656E-1,6.967163086E-2,1.414489746E-1
5.396189765E0,2.017517090E-1,8.009338379E-2,9.834289551E-2
5.406230049E0,2.550811768E-1,9.948730469E-2,6.674194336E-2
5.416300849E0,3.019866943E-1,1.193542480E-1,4.684448242E-2
5.426402168E0,2.814788818E-1,1.006317139E-1,4.425048828E-2
5.436472969E0,3.029479980E-1,8.793640137E-2,-3.723144531E-3
5.446543769E0,2.363586426E-1,4.228210449E-2,-1.656494141E-1
5.456584053E0,1.336669922E-1,-1.210021973E-2,-3.622741699E-1
5.466654853E0,5.191040039E-2,-5.557250977E-2,-5.010528564E-1
5.476756172E0,1.763916016E-2,-6.567382812E-2,-4.922027588E-1
5.486826972E0,4.501342773E-2,-4.763793945E-2,-3.975372314E-1
5.496867256E0,7.807922363E-2,-3.091430664E-2,-2.761840820E-1
5.506938056E0,1.099243164E-1,-1.577758789E-2,-1.802673340E-1
5.517008857E0,1.373138428E-1,-6.103515625E-4,-1.112518311E-1
5.527110176E0,1.856842041E-1,1.622009277E-2,-7.502746582E-2
5.537180976E0,2.490234375E-1,2.070617676E-2,-7.159423828E-2
5.547251777E0,3.112640381E-1,1.666259766E-2,-1.116943359E-1
5.557322578E0,4.214630127E-1,3.141784668E-2,-1.252899170E-1
5.567484931E0,5.116882324E-1,4.508972168E-2,-1.260681152E-1
5.577677803E0,5.365753174E-1,4.101562500E-2,-1.139221191E-1
5.587870674E0,4.819335938E-1,2.386474609E-2,-1.198577881E-1
5.598063545E0,3.101043701E-1,-1.525878906E-2,-1.652984619E-1
5.608256416E0,1.126251221E-1,-7.156372070E-2,-2.549743652E-1
5.618449287E0,-3.311157227E-3,-9.364318848E-2,-3.100128174E-1
5.628642158E0,-9.693908691E-2,-1.225433350E-1,-3.418121338E-1
5.638621406E0,-1.706390381E-1,-1.524353027E-1,-3.537445068E-1
5.647929267E0,-2.070617676E-1,-1.628875732E-1,-3.507080078E-1
5.658000068E0,-1.733703613E-1,-1.429290771E-1,-2.871551514E-1
5.668070869E0,-8.256530762E-2,-9.738159180E-2,-1.821594238E-1
5.678141670E0,1.277160645E-2,-5.168151855E-2,-1.016540527E-1
5.688242988E0,1.876831055E-2,-4.801940918E-2,-1.055755615E-1
5.698283271E0,1.382446289E-2,-5.763244629E-2,-1.510620117E-1
5.708354072E0,1.714019775E-1,-4.119873047E-4,-1.308898926E-1
5.718424873E0,3.650512695E-1,6.205749512E-2,-9.370422363E-2
5.728404121E0,5.524749756E-1,1.155853271E-1,-3.947448730E-2
5.738596992E0,6.540069580E-1,1.173400879E-1,-9.101867676E-2
5.748637275E0,6.593627930E-1,9.478759766E-2,-2.094268799E-1
5.758708076E0,5.152130127E-1,5.131530762E-2,-3.309326172E-1
5.768778877E0,1.745605469E-1,-8.715820312E-2,-5.326080322E-1
5.778880195E0,1.524353027E-2,-1.630554199E-1,-7.195129395E-1
5.788950996E0,-3.317260742E-2,-2.024688721E-1,-8.311462402E-1
5.798991279E0,-1.415100098E-1,-2.842559814E-1,-9.528198242E-1
5.809062080E0,-1.221923828E-1,-3.282318115E-1,-1.027816772E0
5.819132881E0,-6.542968750E-2,-3.109283447E-1,-1.045257568E0
5.829203681E0,7.524108887E-2,-2.566375732E-1,-9.666748047E-1
5.839274482E0,3.697204590E-1,-1.650543213E-1,-8.634948730E-1
5.849345283E0,6.427154541E-1,-9.407043457E-2,-8.205108643E-1
5.859446601E0,1.288070679E0,5.603027344E-2,-5.942840576E-1
5.869517402E0,1.754180908E0,1.905212402E-1,-3.977355957E-1
5.879557685E0,1.606582642E0,1.439819336E-1,-4.108886719E-1
5.889659004E0,1.425354004E0,1.057281494E-1,-4.219818115E-1
5.899729804E0,1.358261108E0,8.796691895E-2,-3.062896729E-1
5.909800605E0,1.281265259E0,1.134033203E-1,-9.793090820E-2
5.919871406E0,1.055541992E0,8.972167969E-2,3.540039062E-3
5.929911689E0,7.398986816E-1,1.344299316E-2,-1.225280762E-2
5.939982490E0,4.268951416E-1,-9.004211426E-2,-5.392456055E-2
5.949992256E0,1.658477783E-1,-1.889190674E-1,-4.737854004E-2
5.960154609E0,-1.518402100E-1,-3.290100098E-1,-1.800842285E-1
5.970194892E0,-5.148010254E-1,-4.837951660E-1,-4.070892334E-1
5.980296211E0,-5.869140625E-1,-4.528350830E-1,-2.690734863E-1
5.990489082E0,-5.083465576E-1,-3.778381348E-1,-6.825256348E-2
6.000712470E0,-4.596710205E-1,-3.231964111E-1,6.524658203E-2
6.010905342E0,-3.362884521E-1,-2.256164551E-1,1.899108887E-1
6.021098213E0,-2.649841309E-1,-1.426086426E-1,3.195495605E-1
6.031291084E0,-1.880035400E-1,-6.471252441E-2,4.389190674E-1
6.041483955E0,-1.066894531E-1,4.455566406E-3,5.383453369E-1
6.051676826E0,-2.565002441E-2,6.773376465E-2,6.347656250E-1
6.061656074E0,3.807067871E-2,1.093444824E-1,6.856231689E-1
6.070902900E0,5.383300781E-2,1.233367920E-1,7.028198242E-1
6.081004219E0,9.536743164E-3,1.081695557E-1,6.820678711E-1
6.091044502E0,-1.035156250E-1,6.031799316E-2,6.100158691E-1
6.101115303E0,-2.353668213E-1,5.294799805E-3,4.871368408E-1
6.111216621E0,-4.137573242E-1,-7.905578613E-2,3.322448730E-1
6.121287422E0,-5.816650391E-1,-1.637878418E-1,1.619262695E-1
6.133036689E0,-6.876068115E-1,-2.168121338E-1,-1.092529297E-2
6.141429023E0,-7.668151855E-1,-2.465667725E-1,-1.644134521E-1
6.151499824E0,-7.632446289E-1,-2.639617920E-1,-2.369537354E-1
6.161570625E0,-6.067962646E-1,-2.256622314E-1,-1.800079346E-1
6.171610908E0,-3.955230713E-1,-1.482086182E-1,-6.642150879E-2
6.181681709E0,-2.431335449E-1,-8.703613281E-2,-5.108642578E-2
6.191752510E0,-1.813507080E-1,-6.521606445E-2,-1.272430420E-1
6.201823310E0,-9.449768066E-2,-1.759338379E-2,-1.788940430E-1
6.211894111E0,-7.141113281E-2,-1.809692383E-2,-2.241363525E-1
6.221964912E0,-3.675842285E-2,-2.267456055E-2,-1.983795166E-1
6.232066230E0,7.559204102E-2,2.658081055E-2,-6.153869629E-2
6.242137031E0,1.747894287E-1,8.334350586E-2,9.098815918E-2
6.252207832E0,2.417144775E-1,1.260223389E-1,2.201232910E-1
6.262248115E0,2.323760986E-1,1.236572266E-1,2.919921875E-1
6.272318916E0,1.641693115E-1,8.810424805E-2,2.465820312E-1
6.282389717E0,5.656433105E-2,2.748107910E-2,1.537475586E-1
6.292460517E0,-4.399108887E-2,-2.833557129E-2,9.162902832E-2
6.302531318E0,-7.380676270E-2,-3.712463379E-2,8.906555176E-2
6.312602119E0,-3.851318359E-2,-1.159667969E-3,1.147460938E-1
6.322672920E0,-9.094238281E-3,8.468627930E-3,4.275512695E-2
6.332743720E0,-2.404785156E-2,1.083374023E-2,4.620361328E-2
6.342814521E0,-1.889648438E-1,6.607055664E-3,1.315612793E-1
6.352885322E0,-2.209014893E-1,6.347656250E-3,9.431457520E-2
6.362986640E0,-2.151336670E-1,1.693725586E-2,6.109619141E-2
6.373026924E0,-1.534881592E-1,3.581237793E-2,5.793762207E-2
6.383097724E0,-1.559448242E-2,8.547973633E-2,8.912658691E-2
6.393199043E0,1.371307373E-1,1.311340332E-1,1.459655762E-1
6.403391914E0,2.212524414E-1,1.315612793E-1,2.147369385E-1
6.413584785E0,3.001556396E-1,1.466674805E-1,2.709808350E-1
6.423777656E0,2.851104736E-1,1.418609619E-1,3.120574951E-1
6.433970527E0,3.564147949E-1,1.369781494E-1,3.123779297E-1
6.444163398E0,5.222320557E-1,1.471405029E-1,2.836456299E-1
6.454356269E0,6.611175537E-1,1.534118652E-1,2.511901855E-1
6.464518623E0,7.423095703E-1,1.559448242E-1,2.072143555E-1
6.474558906E0,7.320861816E-1,1.383056641E-1,1.638488770E-1
6.483805732E0,7.068939209E-1,1.204681396E-1,1.251068115E-1
6.493907051E0,6.912689209E-1,1.047058105E-1,8.659362793E-2
6.503977851E0,7.416839600E-1,1.205444336E-1,4.594421387E-2
6.514048652E0,8.285522461E-1,1.612854004E-1,7.263183594E-3
6.524119453E0,9.250640869E-1,2.165527344E-1,-4.013061523E-2
6.535716133E0,8.753814697E-1,2.099914551E-1,-7.467651367E-2
6.544230537E0,7.422027588E-1,1.604919434E-1,-9.202575684E-2
6.554331855E0,5.669403076E-1,9.120178223E-2,-1.044311523E-1
6.564402656E0,4.394683838E-1,4.010009766E-2,-1.278533936E-1
6.574473457E0,3.072662354E-1,-1.174926758E-2,-1.653594971E-1
6.584513740E0,1.637573242E-1,-5.996704102E-2,-2.131652832E-1
6.594584541E0,1.678466797E-2,-1.093597412E-1,-2.352142334E-1
6.604685859E0,-2.285766602E-2,-1.051330566E-1,-2.064056396E-1
6.614756660E0,-3.738403320E-3,-6.922912598E-2,-1.400451660E-1
6.624827461E0,4.821777344E-3,-3.837585449E-2,-6.828308105E-2
6.634867744E0,4.862976074E-2,6.515502930E-3,-2.793884277E-2
6.644938545E0,7.019042969E-2,2.980041504E-2,-1.184082031E-2
6.655039863E0,-1.208496094E-2,1.670837402E-2,6.866455078E-4
6.665110664E0,-1.217346191E-1,2.674865723E-2,4.989624023E-3
6.675150947E0,-2.635040283E-1,4.766845703E-2,-4.257202148E-3
6.685221748E0,-4.038696289E-1,8.625793457E-2,-1.339721680E-2
6.695323066E0,-6.096954346E-1,7.164001465E-2,-7.400512695E-3
6.705393867E0,-7.760314941E-1,5.105590820E-2,3.875732422E-3
6.715434150E0,-8.760528564E-1,4.348754883E-2,9.536743164E-3
6.725504951E0,-9.334106445E-1,3.945922852E-2,1.683044434E-2
6.735575752E0,-9.775543213E-1,2.938842773E-2,2.366638184E-2
6.745677070E0,-9.848632812E-1,1.727294922E-2,2.455139160E-2
6.755747871E0,-9.716339111E-1,1.049804688E-2,4.272460938E-2
6.765788154E0,-9.327087402E-1,1.301574707E-2,6.712341309E-2
6.775889472E0,-8.910827637E-1,1.098632812E-2,8.398437500E-2
6.785960273E0,-8.298492432E-1,2.502441406E-3,9.109497070E-2
6.796000556E0,-7.191467285E-1,8.880615234E-3,9.547424316E-2
6.806071357E0,-6.202545166E-1,1.785278320E-2,1.018371582E-1
6.816203193E0,-4.753875732E-1,6.015014648E-2,1.187591553E-1
6.826426582E0,-2.839965820E-1,1.027069092E-1,1.464385986E-1
6.836619453E0,-1.488952637E-1,1.058959961E-1,1.604461670E-1
6.846812324E0,-2.003479004E-2,1.168518066E-1,1.392669678E-1
6.857005195E0,-3.707885742E-2,5.966186523E-2,8.183288574E-2
6.867198066E0,-3.398132324E-2,3.016662598E-2,2.987670898E-2
6.877390937E0,-2.426147461E-3,2.713012695E-2,1.008605957E-2
6.887461738E0,-1.364135742E-2,1.315307617E-2,-3.010559082E-2
6.897593574E0,-3.514099121E-2,-1.377868652E-2,-8.619689941E-2
6.906809883E0,-4.736328125E-2,-4.121398926E-2,-1.517486572E-1
6.916880683E0,-7.904052734E-3,-5.032348633E-2,-1.969604492E-1
6.926951484E0,5.085754395E-2,-5.831909180E-2,-2.179412842E-1
6.938426094E0,1.494293213E-1,-4.827880859E-2,-2.111663818E-1
6.947093086E0,2.559051514E-1,-4.054260254E-2,-1.997528076E-1
6.957163886E0,3.373870850E-1,-4.678344727E-2,-1.810302734E-1
6.967204170E0,3.821258545E-1,-6.552124023E-2,-1.597595215E-1
6.977305488E0,4.129638672E-1,-7.948303223E-2,-1.383819580E-1
6.987376289E0,4.147796631E-1,-8.422851562E-2,-1.142730713E-1
6.997447090E0,4.426422119E-1,-5.494689941E-2,-9.004211426E-2
7.007517890E0,1.576232910E-1,-6.118774414E-3,-2.217102051E-2
7.017588691E0,1.874389648E-1,-1.510620117E-3,-2.238464355E-2
7.027628974E0,2.150573730E-1,7.385253906E-3,-2.362060547E-2
7.037699775E0,2.479095459E-1,2.839660645E-2,-2.464294434E-2
7.047801094E0,8.035278320E-1,1.384124756E-1,-8.110046387E-2
7.057871894E0,6.831207275E-1,1.545867920E-1,-5.845642090E-2
7.067912178E0,2.092132568E-1,6.753540039E-2,-6.744384766E-3
7.078013496E0,2.190399170E-1,8.360290527E-2,7.995605469E-3
7.088084297E0,6.059265137E-1,2.457427979E-1,7.020568848E-2
7.098094062E0,5.430145264E-1,2.422943115E-1,9.208679199E-2
7.108103828E0,4.148101807E-1,2.120971680E-1,1.000671387E-1
7.118266181E0,1.925659180E-1,1.374969482E-1,7.913208008E-2
7.128367500E0,3.890991211E-2,8.602905273E-2,6.260681152E-2
7.138438301E0,-8.163452148E-3,1.838684082E-2,1.687622070E-2
7.148478584E0,-9.170532227E-3,1.628112793E-2,1.832580566E-2
7.158549385E0,-8.071899414E-3,1.438903809E-2,2.304077148E-2
7.168650703E0,9.262084961E-3,5.529785156E-2,9.011840820E-2
7.178690986E0,2.578735352E-2,5.162048340E-2,9.786987305E-2
7.188761787E0,5.027770996E-2,5.622863770E-2,1.063842773E-1
7.198832588E0,6.880187988E-2,6.147766113E-2,1.138305664E-1
7.208933906E0,8.949279785E-2,6.976318359E-2,1.160583496E-1
7.219004707E0,1.078033447E-1,7.757568359E-2,1.147613525E-1
7.229167060E0,4.681396484E-2,3.161621094E-2,3.660583496E-2
7.239390449E0,5.422973633E-2,3.633117676E-2,4.183959961E-2
7.249583320E0,5.310058594E-2,3.575134277E-2,4.499816895E-2
7.259776191E0,5.288696289E-2,3.515625000E-2,4.615783691E-2
7.269938545E0,5.021667480E-2,3.303527832E-2,4.605102539E-2
7.280161933E0,3.471374512E-2,2.380371094E-2,4.505920410E-2
7.290354804E0,2.815246582E-2,2.037048340E-2,4.290771484E-2
7.300364570E0,6.481933594E-2,5.705261230E-2,1.213073730E-1
7.309611396E0,-2.914428711E-2,1.498413086E-2,9.098815918E-2
7.319682197E0,-1.337585449E-1,-2.261352539E-2,7.057189941E-2
7.329783515E0,-2.164916992E-1,-4.037475586E-2,5.427551270E-2
7.341166572E0,-2.917327881E-1,-5.001831055E-2,4.138183594E-2
7.349925117E0,-3.965606689E-1,-7.870483398E-2,3.353881836E-2
7.359965400E0,-1.532287598E-1,-2.877807617E-2,9.735107422E-3
7.370036201E0,-1.835937500E-1,-2.935791016E-2,1.129150391E-2
7.380137519E0,-2.057647705E-1,-2.615356445E-2,1.344299316E-2
7.390208320E0,-6.711730957E-1,-6.260681152E-2,4.940795898E-2
7.400248603E0,-5.828094482E-1,-4.554748535E-2,3.405761719E-2
7.410349922E0,-5.231628418E-1,-3.457641602E-2,1.390075684E-2
7.420420722E0,-4.634094238E-1,-2.381896973E-2,-1.135253906E-2
7.430461006E0,-4.306640625E-1,-2.037048340E-2,-3.735351562E-2
7.440531806E0,-3.729095459E-1,-2.944946289E-3,-5.795288086E-2
7.450602607E0,-3.225555420E-1,1.341247559E-2,-7.679748535E-2
7.460703926E0,-2.481231689E-1,4.646301270E-2,-9.695434570E-2
7.470774726E0,-2.195281982E-1,5.363464355E-2,-1.192626953E-1
7.480815010E0,-2.199707031E-1,4.158020020E-2,-1.327667236E-1
7.490885810E0,-9.341430664E-2,-9.613037109E-4,-4.583740234E-2
7.500987129E0,-1.366119385E-1,-1.869201660E-2,-5.604553223E-2
7.511057929E0,-1.733398438E-1,-3.625488281E-2,-6.546020508E-2
7.521098213E0,-1.955261230E-1,-4.896545410E-2,-7.371520996E-2
7.531169013E0,-1.991119385E-1,-5.412292480E-2,-8.039855957E-2
7.541270332E0,-2.102355957E-1,-6.736755371E-2,-8.567810059E-2
7.551341133E0,-2.232208252E-1,-8.334350586E-2,-8.842468262E-2
7.561411933E0,-2.217559814E-1,-8.987426758E-2,-8.824157715E-2
7.571482734E0,-2.116088867E-1,-8.865356445E-2,-8.477783203E-2
7.581553535E0,-1.837921143E-1,-8.377075195E-2,-7.916259766E-2
7.591593818E0,-1.291809082E-1,-7.054138184E-2,-7.141113281E-2
7.601664619E0,-6.387329102E-2,-5.484008789E-2,-6.405639648E-2
7.611765937E0,-1.020812988E-2,-4.365539551E-2,-5.705261230E-2
7.621836738E0,2.972412109E-2,-3.611755371E-2,-5.104064941E-2
7.631999092E0,5.784606934E-2,-3.179931641E-2,-4.692077637E-2
7.642222480E0,7.189941406E-2,-2.714538574E-2,-4.156494141E-2
7.652415351E0,8.522033691E-2,-2.301025391E-2,-3.176879883E-2
7.662608222E0,9.410095215E-2,-1.991271973E-2,-1.844787598E-2
7.672831611E0,9.751892090E-2,-1.995849609E-2,-4.440307617E-3
7.683024482E0,9.260559082E-2,-2.436828613E-2,8.331298828E-3
7.693125801E0,7.754516602E-2,-3.479003906E-2,1.934814453E-2
7.703196601E0,5.378723145E-2,-5.036926270E-2,2.923583984E-2
7.712443428E0,3.721618652E-2,-6.127929688E-2,3.871154785E-2
7.722514228E0,2.059936523E-2,-7.228088379E-2,4.498291016E-2
7.732615547E0,3.651428223E-2,-6.469726562E-2,4.959106445E-2
7.743113594E0,7.002258301E-2,-4.673767090E-2,5.375671387E-2
7.752757148E0,1.023101807E-1,-2.851867676E-2,5.798339844E-2
7.762797431E0,1.243896484E-1,-1.441955566E-2,6.149291992E-2
7.772898750E0,1.356964111E-1,-6.210327148E-3,6.443786621E-2
7.782969551E0,1.583709717E-1,9.674072266E-3,6.701660156E-2
7.793040351E0,1.876068115E-1,3.085327148E-2,6.829833984E-2
7.803080635E0,2.175140381E-1,5.146789551E-2,6.858825684E-2
7.813151435E0,2.335815430E-1,6.414794922E-2,6.723022461E-2
7.823252754E0,2.338104248E-1,6.765747070E-2,6.449890137E-2
7.833323554E0,2.295837402E-1,6.796264648E-2,6.033325195E-2
7.843363838E0,2.260131836E-1,6.773376465E-2,5.596923828E-2
7.853434638E0,2.210998535E-1,6.651306152E-2,5.130004883E-2
7.863535957E0,2.174377441E-1,6.506347656E-2,4.693603516E-2
7.873606758E0,2.136230469E-1,6.303405762E-2,4.241943359E-2
7.883677558E0,2.098999023E-1,6.158447266E-2,3.813171387E-2
7.893717842E0,2.076568604E-1,6.034851074E-2,3.419494629E-2
7.903788642E0,2.066040039E-1,5.940246582E-2,3.071594238E-2
7.913859443E0,2.043304443E-1,5.798339844E-2,2.532958984E-2
7.923960761E0,1.965484619E-1,5.444335938E-2,1.753234863E-2
7.934001045E0,1.848449707E-1,4.974365234E-2,8.514404297E-3
7.944102363E0,1.712341309E-1,4.513549805E-2,1.068115234E-4
7.954173164E0,1.559448242E-1,4.057312012E-2,-6.500244141E-3
7.964213447E0,1.408386230E-1,3.671264648E-2,-1.057434082E-2
7.974314765E0,1.268463135E-1,3.347778320E-2,-1.356506348E-2
7.984385566E0,1.129760742E-1,2.999877930E-2,-1.582336426E-2
7.994425849E0,1.007385254E-1,2.658081055E-2,-1.731872559E-2
8.004527168E0,8.862304688E-2,2.384948730E-2,-1.777648926E-2
8.014597969E0,7.484436035E-2,2.156066895E-2,-1.763916016E-2
8.024729804E0,5.947875977E-2,1.940917969E-2,-1.696777344E-2
8.034953193E0,4.466247559E-2,1.708984375E-2,-1.614379883E-2
8.045115547E0,3.033447266E-2,1.445007324E-2,-1.542663574E-2
8.055369453E0,2.148437500E-2,1.263427734E-2,-1.501464844E-2
8.065562324E0,1.547241211E-2,1.115417480E-2,-1.416015625E-2
8.075755195E0,1.306152344E-2,1.019287109E-2,-1.309204102E-2
8.085978584E0,1.199340820E-2,9.109497070E-3,-1.217651367E-2
8.095957832E0,1.251220703E-2,8.422851562E-3,-1.216125488E-2
8.105235176E0,1.162719727E-2,7.324218750E-3,-1.190185547E-2
8.115275459E0,1.087951660E-2,6.713867188E-3,-1.097106934E-2
8.125376777E0,1.078796387E-2,6.622314453E-3,-9.979248047E-3
8.135417060E0,1.094055176E-2,6.683349609E-3,-8.468627930E-3
8.146098213E0,1.150512695E-2,7.110595703E-3,-7.232666016E-3
8.155589179E0,1.025390625E-2,6.988525391E-3,-5.920410156E-3
8.165659980E0,7.034301758E-3,7.751464844E-3,-5.691528320E-3
8.175700263E0,-2.105712891E-3,7.141113281E-3,-3.936767578E-3
8.185801582E0,-1.319885254E-2,7.461547852E-3,-2.548217773E-3
8.195872383E0,-2.151489258E-2,7.507324219E-3,-9.307861328E-4
8.205912666E0,-2.148437500E-2,7.659912109E-3,3.204345703E-4
8.215983467E0,-1.882934570E-2,8.316040039E-3,1.449584961E-3
8.226084785E0,-1.400756836E-2,8.911132812E-3,2.853393555E-3
8.236155586E0,-8.316040039E-3,9.979248047E-3,4.501342773E-3
8.246195869E0,-4.364013672E-3,1.136779785E-2,6.393432617E-3
8.256266670E0,-2.899169922E-4,1.222229004E-2,7.965087891E-3
8.266245918E0,2.777099609E-3,1.289367676E-2,9.307861328E-3
8.276438789E0,5.111694336E-3,1.324462891E-2,1.029968262E-2
8.286509590E0,7.278442383E-3,1.367187500E-2,1.179504395E-2
8.296580390E0,8.697509766E-3,1.367187500E-2,1.281738281E-2
8.306620674E0,9.185791016E-3,1.330566406E-2,1.289367676E-2
8.316691474E0,8.743286133E-3,1.245117188E-2,1.222229004E-2
8.326762275E0,7.781982422E-3,1.152038574E-2,1.184082031E-2
8.336863594E0,6.408691406E-3,1.156616211E-2,1.257324219E-2
8.346934394E0,3.570556641E-3,1.066589355E-2,1.252746582E-2
8.357005195E0,5.645751953E-4,8.987426758E-3,1.147460938E-2
8.367045478E0,-1.464843750E-3,8.499145508E-3,1.176452637E-2
8.377146797E0,-2.044677734E-3,6.607055664E-3,9.689331055E-3
8.387217597E0,-1.602172852E-3,5.996704102E-3,8.956909180E-3
8.397257881E0,-1.235961914E-3,4.409790039E-3,7.064819336E-3
8.407328681E0,-1.968383789E-3,2.899169922E-3,5.920410156E-3
8.417491035E0,-3.753662109E-3,1.403808594E-3,5.584716797E-3
8.427683906E0,-1.937866211E-3,1.068115234E-4,4.440307617E-3
8.437907295E0,2.670288086E-3,-7.171630859E-4,6.271362305E-3
8.448100166E0,6.713867188E-3,-9.918212891E-4,4.943847656E-3
8.458293037E0,1.132202148E-2,-1.770019531E-3,5.767822266E-3
8.468485908E0,9.490966797E-3,-2.227783203E-3,4.714965820E-3
8.478709297E0,7.537841797E-3,-3.097534180E-3,5.233764648E-3
8.488719062E0,4.302978516E-3,-3.158569336E-3,4.287719727E-3
8.497996406E0,3.036499023E-3,-5.432128906E-3,5.676269531E-3
8.508036689E0,1.785278320E-3,-6.362915039E-3,5.203247070E-3
8.518107490E0,2.136230469E-4,-7.202148438E-3,4.364013672E-3
8.528208808E0,-5.950927734E-4,-6.225585938E-3,2.838134766E-3
8.538279609E0,-1.419067383E-3,-9.002685547E-3,3.387451172E-3
8.549906806E0,-1.327514648E-3,-9.140014648E-3,2.838134766E-3
8.558421211E0,-2.136230469E-4,-8.178710938E-3,1.998901367E-3
8.568461494E0,1.220703125E-4,-8.361816406E-3,1.007080078E-3
8.578562812E0,6.713867188E-4,-9.689331055E-3,-5.187988281E-4
8.588633613E0,1.708984375E-3,-1.052856445E-2,-2.059936523E-3
8.598704414E0,4.455566406E-3,-1.068115234E-2,-2.822875977E-3
8.608744697E0,7.431030273E-3,-8.880615234E-3,-2.777099609E-3
8.618815498E0,1.155090332E-2,-8.483886719E-3,-2.639770508E-3
8.628886299E0,1.583862305E-2,-7.171630859E-3,-2.197265625E-3
8.638987617E0,1.966857910E-2,-5.920410156E-3,-1.739501953E-3
8.649058418E0,2.224731445E-2,-4.730224609E-3,-1.373291016E-3
8.659098701E0,2.494812012E-2,-3.753662109E-3,-1.144409180E-3
8.669169502E0,2.552795410E-2,-3.234863281E-3,-7.171630859E-4
8.679270820E0,2.465820312E-2,-2.792358398E-3,-2.288818359E-4
8.689341621E0,2.420043945E-2,-2.655029297E-3,2.136230469E-4
8.699412422E0,2.217102051E-2,-2.548217773E-3,4.425048828E-4
8.709452705E0,2.273559570E-2,-2.243041992E-3,8.239746094E-4
8.719523506E0,2.427673340E-2,-1.907348633E-3,1.235961914E-3
8.729594306E0,2.523803711E-2,-1.419067383E-3,1.663208008E-3
8.739695625E0,2.563476562E-2,-1.129150391E-3,1.739501953E-3
8.749766426E0,2.165222168E-2,-1.327514648E-3,1.205444336E-3
8.759837226E0,1.934814453E-2,-1.647949219E-3,8.850097656E-4
8.769877510E0,1.600646973E-2,-1.831054688E-3,3.509521484E-4
8.779978828E0,1.257324219E-2,-2.532958984E-3,-8.087158203E-4
8.790019111E0,8.911132812E-3,-3.341674805E-3,-2.288818359E-3
8.800089912E0,5.187988281E-3,-3.311157227E-3,-3.051757812E-3
8.810191230E0,3.234863281E-3,-4.119873047E-3,-4.440307617E-3
8.820384101E0,-7.934570312E-4,-3.280639648E-3,-3.494262695E-3
8.830576972E0,-7.354736328E-3,-5.538940430E-3,-5.752563477E-3
8.840800361E0,-1.478576660E-2,-6.423950195E-3,-6.790161133E-3
8.850993232E0,-1.922607422E-2,-5.996704102E-3,-6.408691406E-3
8.861186103E0,-2.128601074E-2,-5.294799805E-3,-5.920410156E-3
8.871378974E0,-2.314758301E-2,-4.730224609E-3,-5.310058594E-3
8.881480293E0,-2.284240723E-2,-4.272460938E-3,-4.745483398E-3
8.891612129E0,-2.027893066E-2,-3.829956055E-3,-4.364013672E-3
8.900828437E0,-1.980590820E-2,-3.799438477E-3,-4.257202148E-3
8.910868720E0,-1.741027832E-2,-3.479003906E-3,-3.906250000E-3
8.920970039E0,-1.731872559E-2,-3.646850586E-3,-4.150390625E-3
8.931040840E0,-1.594543457E-2,-3.479003906E-3,-4.119873047E-3
8.941081123E0,-1.599121094E-2,-3.356933594E-3,-4.058837891E-3
8.951914863E0,-1.605224609E-2,-3.036499023E-3,-3.799438477E-3
8.961222724E0,-1.618957520E-2,-2.655029297E-3,-3.799438477E-3
8.971324043E0,-1.757812500E-2,-2.365112305E-3,-4.013061523E-3
8.981394844E0,-1.762390137E-2,-1.815795898E-3,-4.058837891E-3
8.991465644E0,-1.493835449E-2,-8.544921875E-4,-3.524780273E-3
9.001536445E0,-1.257324219E-2,1.983642578E-4,-2.700805664E-3
9.011576728E0,-9.490966797E-3,1.129150391E-3,-1.800537109E-3
9.021678047E0,-6.454467773E-3,2.120971680E-3,-1.007080078E-3
9.031748847E0,-4.196166992E-3,2.410888672E-3,-4.272460938E-4
9.041789131E0,0.000000000E0,0.000000000E0,0.000000000E0
9.051890449E0,0.000000000E0,0.000000000E0,0.000000000E0
9.061961250E0,0.000000000E0,0.000000000E0,0.000000000E0
9.072032051E0,1.525878906E-3,4.043579102E-3,5.355834961E-3
9.082072334E0,1.831054688E-3,3.540039062E-3,5.615234375E-3
9.092173652E0,1.052856445E-3,2.258300781E-3,4.180908203E-3
9.102244453E0,0.000000000E0,0.000000000E0,0.000000000E0
9.112284736E0,4.272460938E-4,2.593994141E-3,6.378173828E-3
9.122355537E0,0.000000000E0,0.000000000E0,0.000000000E0
9.132456855E0,-4.425048828E-4,2.105712891E-3,6.561279297E-3
9.142527656E0,-1.052856445E-3,1.937866211E-3,6.515502930E-3
9.152567939E0,-2.349853516E-3,1.708984375E-3,6.225585938E-3
9.162669258E0,-3.341674805E-3,1.510620117E-3,5.813598633E-3
9.172740058E0,-3.952026367E-3,1.235961914E-3,5.477905273E-3
9.182780342E0,-2.655029297E-3,7.781982422E-4,3.997802734E-3
9.192881660E0,-3.494262695E-3,8.850097656E-4,5.874633789E-3
9.202952461E0,0.000000000E0,0.000000000E0,0.000000000E0
9.213114814E0,-2.120971680E-3,2.746582031E-4,4.364013672E-3
9.223307685E0,0.000000000E0,0.000000000E0,0.000000000E0
9.233500556E0,-1.525878906E-5,-1.037597656E-3,4.745483398E-3
9.243693428E0,0.000000000E0,0.000000000E0,0.000000000E0
9.253916816E0,-5.035400391E-4,-2.883911133E-3,6.195068359E-3
9.264111572E0,-1.388549805E-3,-2.151489258E-3,4.119873047E-3
9.274304443E0,-1.922607422E-3,-2.212524414E-3,3.845214844E-3
9.284314209E0,-4.486083984E-3,-4.089355469E-3,5.783081055E-3
9.293561035E0,-4.196166992E-3,-3.585815430E-3,4.089355469E-3
9.303662354E0,-4.623413086E-3,-3.814697266E-3,3.372192383E-3
9.313733154E0,-4.669189453E-3,-4.058837891E-3,2.990722656E-3
9.323773438E0,-4.074096680E-3,-4.501342773E-3,3.219604492E-3
9.333874756E0,0.000000000E0,0.000000000E0,0.000000000E0
9.343945557E0,1.831054688E-3,-3.067016602E-3,3.295898438E-3
9.355725342E0,7.095336914E-3,-3.814697266E-3,5.310058594E-3
9.364087158E0,9.933471680E-3,-3.128051758E-3,5.767822266E-3
9.374157959E0,9.933471680E-3,-2.700805664E-3,5.981445312E-3
9.384198242E0,1.058959961E-2,-2.502441406E-3,6.851196289E-3
9.394269043E0,1.257324219E-2,-1.815795898E-3,7.171630859E-3
9.404370361E0,1.492309570E-2,-1.113891602E-3,7.720947266E-3
9.414441162E0,1.695251465E-2,-4.730224609E-4,8.163452148E-3
9.424511963E0,1.820373535E-2,-1.373291016E-4,8.361816406E-3
9.434552246E0,1.991271973E-2,1.068115234E-4,8.728027344E-3
9.444623047E0,2.093505859E-2,3.204345703E-4,9.017944336E-3
9.454724365E0,2.188110352E-2,5.035400391E-4,9.384155273E-3
9.464795166E0,2.256774902E-2,7.629394531E-4,1.025390625E-2
9.474865967E0,2.236938477E-2,8.850097656E-4,1.071166992E-2
9.484906250E0,2.267456055E-2,1.022338867E-3,1.119995117E-2
9.494977051E0,2.380371094E-2,1.007080078E-3,1.098632812E-2
9.505078369E0,2.383422852E-2,6.561279297E-4,9.857177734E-3
9.515149170E0,2.360534668E-2,1.831054688E-4,9.231567383E-3
9.525189453E0,2.175903320E-2,-4.272460938E-4,8.590698242E-3
9.535260254E0,1.937866211E-2,-1.068115234E-3,8.483886719E-3
9.545361572E0,1.679992676E-2,-1.632690430E-3,8.331298828E-3
9.555432373E0,1.208496094E-2,-2.426147461E-3,6.088256836E-3
9.565472656E0,7.980346680E-3,-4.180908203E-3,3.662109375E-3
9.575543457E0,1.922607422E-3,-4.455566406E-3,-2.593994141E-4
9.585644775E0,-1.617431641E-3,-7.308959961E-3,-3.845214844E-3
9.595685059E0,-6.866455078E-3,-9.506225586E-3,-7.369995117E-3
9.605786377E0,-1.304626465E-2,-1.071166992E-2,-9.643554688E-3
9.615948730E0,-1.951599121E-2,-1.191711426E-2,-1.174926758E-2
9.626141602E0,-2.503967285E-2,-1.278686523E-2,-1.325988770E-2
9.636364990E0,-2.972412109E-2,-1.280212402E-2,-1.332092285E-2
9.646557861E0,-3.459167480E-2,-1.248168945E-2,-1.239013672E-2
9.656750732E0,-3.758239746E-2,-1.171875000E-2,-1.086425781E-2
9.666943604E0,-3.923034668E-2,-1.065063477E-2,-9.185791016E-3
9.676953369E0,-4.179382324E-2,-9.719848633E-3,-7.736206055E-3
9.686322266E0,-4.368591309E-2,-8.880615234E-3,-6.622314453E-3
9.696393066E0,-4.444885254E-2,-8.239746094E-3,-5.859375000E-3
9.706463867E0,-4.310607910E-2,-7.385253906E-3,-4.867553711E-3
9.716565186E0,-4.246520996E-2,-6.668090820E-3,-4.211425781E-3
9.726635986E0,-4.335021973E-2,-6.317138672E-3,-4.104614258E-3
9.736676270E0,-4.548645020E-2,-6.179809570E-3,-4.302978516E-3
9.746747070E0,-4.895019531E-2,-6.256103516E-3,-4.592895508E-3
9.757580811E0,-5.136108398E-2,-6.210327148E-3,-4.714965820E-3
9.766888672E0,-5.250549316E-2,-5.889892578E-3,-4.425048828E-3
9.776959473E0,-5.215454102E-2,-5.279541016E-3,-3.997802734E-3
9.787030273E0,-5.062866211E-2,-4.547119141E-3,-3.677368164E-3
9.797101074E0,-4.977416992E-2,-3.906250000E-3,-3.402709961E-3
9.807171875E0,-4.887390137E-2,-3.280639648E-3,-3.021240234E-3
9.817242676E0,-4.772949219E-2,-2.578735352E-3,-2.258300781E-3
9.827313477E0,-4.579162598E-2,-1.846313477E-3,-1.113891602E-3
9.837384277E0,-4.342651367E-2,-1.129150391E-3,1.525878906E-4
9.847455078E0,-4.370117188E-2,-7.781982422E-4,9.918212891E-4
9.857525879E0,-4.397583008E-2,-9.002685547E-4,8.239746094E-4
9.867627197E0,-4.505920410E-2,-1.327514648E-3,6.103515625E-5
9.877697998E0,-4.373168945E-2,-1.708984375E-3,-8.239746094E-4
9.887768799E0,-4.066467285E-2,-1.693725586E-3,-9.918212891E-4
9.897839600E0,-3.878784180E-2,-2.380371094E-3,-2.578735352E-3
9.907910400E0,-3.878784180E-2,-4.135131836E-3,-6.683349609E-3
9.917950684E0,-3.901672363E-2,-6.454467773E-3,-1.203918457E-2
9.928021484E0,-3.959655762E-2,-8.743286133E-3,-1.699829102E-2
9.938092285E0,-3.991699219E-2,-1.019287109E-2,-2.005004883E-2
9.948163086E0,-3.883361816E-2,-1.077270508E-2,-2.125549316E-2
9.958233887E0,-3.614807129E-2,-1.042175293E-2,-2.058410645E-2
9.968304688E0,-3.324890137E-2,-9.811401367E-3,-1.947021484E-2
9.978375488E0,-2.970886230E-2,-8.926391602E-3,-1.762390137E-2
9.988476807E0,-2.462768555E-2,-7.736206055E-3,-1.513671875E-2
9.998517090E0,-1.898193359E-2,-6.607055664E-3,-1.286315918E-2
1.000864893E1,-1.336669922E-2,-5.599975586E-3,-1.095581055E-2
1.001884180E1,-6.530761719E-3,-4.455566406E-3,-8.865356445E-3
1.002903467E1,-7.171630859E-4,-3.753662109E-3,-7.476806641E-3
1.003925806E1,5.462646484E-3,-1.815795898E-3,-3.723144531E-3
1.004945093E1,1.359558105E-2,-5.645751953E-4,-1.586914062E-3
1.005964380E1,1.936340332E-2,4.577636719E-4,-1.525878906E-5
1.006977564E1,2.557373047E-2,1.312255859E-3,5.950927734E-4
1.007987695E1,3.414916992E-2,2.136230469E-3,7.171630859E-4
1.008915430E1,4.333496094E-2,2.899169922E-3,6.866455078E-4
1.009922510E1,5.033874512E-2,3.555297852E-3,7.476806641E-4
1.010929590E1,5.790710449E-2,4.333496094E-3,8.544921875E-4
1.011939722E1,6.529235840E-2,5.218505859E-3,1.220703125E-3
1.012946802E1,7.009887695E-2,5.996704102E-3,1.785278320E-3
1.013950830E1,7.234191895E-2,6.683349609E-3,2.655029297E-3
1.014957910E1,7.223510742E-2,7.308959961E-3,3.753662109E-3
1.016050440E1,6.956481934E-2,7.629394531E-3,4.608154297E-3
1.016975122E1,6.665039062E-2,7.873535156E-3,5.203247070E-3
1.017979150E1,6.431579590E-2,7.919311523E-3,5.157470703E-3
1.018989282E1,6.178283691E-2,7.690429688E-3,4.302978516E-3
1.019996362E1,6.072998047E-2,7.476806641E-3,3.173828125E-3
1.021003442E1,5.958557129E-2,7.476806641E-3,2.441406250E-3
1.022010523E1,5.746459961E-2,7.049560547E-3,4.577636719E-4
1.023014551E1,5.371093750E-2,5.920410156E-3,-3.112792969E-3
1.024021631E1,4.878234863E-2,4.318237305E-3,-7.568359375E-3
1.025028711E1,4.440307617E-2,2.746582031E-3,-1.210021973E-2
1.026035791E1,3.820800781E-2,1.113891602E-3,-1.626586914E-2
1.027042871E1,3.306579590E-2,-1.678466797E-4,-1.934814453E-2
1.028049951E1,2.935791016E-2,-1.419067383E-3,-2.259826660E-2
1.029060083E1,2.554321289E-2,-2.532958984E-3,-2.494812012E-2
1.030067163E1,2.267456055E-2,-3.250122070E-3,-2.664184570E-2
1.031071191E1,1.983642578E-2,-4.272460938E-3,-2.871704102E-2
1.032078272E1,1.782226562E-2,-5.386352539E-3,-3.137207031E-2
1.033085352E1,1.573181152E-2,-6.744384766E-3,-3.456115723E-2
1.034092432E1,1.577758789E-2,-8.575439453E-3,-3.956604004E-2
1.035099512E1,1.670837402E-2,-1.042175293E-2,-4.467773438E-2
1.036106592E1,5.119323730E-2,-3.387451172E-2,-1.488342285E-1
1.037113672E1,4.173278809E-2,-2.964782715E-2,-1.341247559E-1
1.038120752E1,2.386474609E-2,-3.695678711E-2,-1.277770996E-1
1.039127832E1,8.255004883E-3,-4.399108887E-2,-1.291656494E-1
1.040141016E1,4.730224609E-4,-1.516723633E-2,-4.312133789E-2
1.041160303E1,-3.646850586E-3,-2.043151855E-2,-5.128479004E-2
1.042185693E1,-8.438110352E-3,-2.529907227E-2,-5.871582031E-2
1.043208032E1,-1.498413086E-2,-3.002929688E-2,-6.335449219E-2
1.044227319E1,-1.142883301E-2,-3.327941895E-2,-6.465148926E-2
1.045246606E1,3.717041016E-2,-7.893371582E-2,-1.898193359E-1
1.046268945E1,1.307983398E-1,-4.211425781E-2,-1.394653320E-1
1.047269922E1,1.634826660E-1,-2.427673340E-2,-9.658813477E-2
1.048194604E1,1.615142822E-1,-1.573181152E-2,-6.327819824E-2
1.049201685E1,1.868743896E-1,-9.872436523E-3,-4.100036621E-2
1.050208765E1,2.346801758E-1,-6.149291992E-3,-2.609252930E-2
1.051212793E1,2.725982666E-1,6.103515625E-4,-1.379394531E-2
1.052222925E1,2.370605469E-1,1.922607422E-3,6.881713867E-3
1.053226953E1,2.928924561E-1,4.562377930E-3,2.890014648E-2
1.054234033E1,3.580322266E-1,1.000976562E-2,4.350280762E-2
1.055241113E1,4.036865234E-1,2.162170410E-2,5.055236816E-2
1.056239038E1,4.073791504E-1,3.691101074E-2,5.354309082E-2
1.057258325E1,3.312683105E-1,3.274536133E-2,6.336975098E-2
1.058262354E1,2.565002441E-1,4.029846191E-2,7.646179199E-2
1.059272485E1,1.663665771E-1,3.926086426E-2,9.030151367E-2
1.060279565E1,7.897949219E-2,2.005004883E-2,9.747314453E-2
1.061286646E1,8.117675781E-3,-5.172729492E-3,9.944152832E-2
1.062290674E1,-4.953002930E-2,-3.489685059E-2,1.017456055E-1
1.063297754E1,-1.144866943E-1,-3.881835938E-2,9.800720215E-2
1.064304834E1,-2.384338379E-1,-5.726623535E-2,9.239196777E-2
1.065314966E1,-3.509521484E-1,-7.826232910E-2,8.044433594E-2
1.066322046E1,-4.081573486E-1,-8.290100098E-2,6.866455078E-2
1.067326074E1,-4.174652100E-1,-7.348632812E-2,5.892944336E-2
1.068333154E1,-4.834594727E-1,-6.973266602E-2,5.360412598E-2
1.069340234E1,-5.735931396E-1,-7.081604004E-2,5.172729492E-2
1.070350366E1,-7.310028076E-1,-8.540344238E-2,5.189514160E-2
1.071357446E1,-8.104400635E-1,-9.071350098E-2,5.628967285E-2
1.072361475E1,-8.114471436E-1,-7.200622559E-2,6.088256836E-2
1.073368555E1,-8.489837646E-1,-5.282592773E-2,6.277465820E-2
1.074375635E1,-8.956451416E-1,-4.164123535E-2,5.763244629E-2
1.075382715E1,-8.789215088E-1,-3.236389160E-2,4.937744141E-2
1.076389795E1,-7.504119873E-1,-1.182556152E-2,4.405212402E-2
1.077396875E1,-7.656860352E-1,-2.331542969E-2,4.570007324E-2
1.078403955E1,-7.600555420E-1,-3.332519531E-2,6.933593750E-2
1.079414087E1,-6.658172607E-1,-7.019042969E-3,1.256103516E-1
1.080427270E1,-6.315612793E-1,6.561279297E-3,2.088317871E-1
1.081446558E1,-4.244689941E-1,4.835510254E-2,3.276367188E-1
1.082465845E1,-2.132263184E-1,9.007263184E-2,4.575500488E-1
1.083485132E1,1.391601562E-2,1.581878662E-1,5.730590820E-1
1.084504419E1,1.996307373E-1,2.221984863E-1,6.447601318E-1
1.085526758E1,3.386688232E-1,2.639007568E-1,6.699523926E-1
1.086536890E1,4.702453613E-1,3.005065918E-1,6.533660889E-1
1.087547022E1,5.778961182E-1,3.291778564E-1,6.071014404E-1
1.088474756E1,6.865997314E-1,3.535461426E-1,5.525665283E-1
1.089484888E1,8.022155762E-1,3.511047363E-1,4.858398438E-1
1.090491968E1,9.352264404E-1,3.292541504E-1,4.201660156E-1
1.091495996E1,1.024017334E0,2.762603760E-1,3.673400879E-1
1.092506128E1,1.093933105E0,2.259674072E-1,3.317260742E-1
1.093513208E1,1.157791138E0,2.071075439E-1,3.144378662E-1
1.094517236E1,1.235931396E0,2.381286621E-1,3.268890381E-1
1.095524316E1,1.270111084E0,2.847595215E-1,3.862762451E-1
1.096622949E1,1.237609863E0,3.161315918E-1,5.051574707E-1
1.097538477E1,1.229644775E0,3.483428955E-1,6.718292236E-1
1.098551660E1,1.289810181E0,4.041442871E-1,8.325042725E-1
1.099555689E1,1.334732056E0,4.408264160E-1,9.327850342E-1
1.100562769E1,1.394302368E0,4.806365967E-1,9.735717773E-1
1.101566797E1,1.320907593E0,4.497528076E-1,8.632965088E-1
1.102573877E1,1.166397095E0,3.792114258E-1,6.724853516E-1
1.103584009E1,1.029754639E0,3.126220703E-1,5.094604492E-1
1.104591089E1,9.489746094E-1,2.340698242E-1,3.749084473E-1
1.105595117E1,9.194183350E-1,1.861572266E-1,2.491607666E-1
1.106605249E1,8.217010498E-1,1.139678955E-1,1.346130371E-1
1.107612329E1,6.554412842E-1,-9.017944336E-3,3.334045410E-2
1.108616357E1,6.423797607E-1,-8.761596680E-2,-4.861450195E-2
1.109626489E1,6.390380859E-1,-1.360473633E-1,-1.059875488E-1
1.110633569E1,5.544738770E-1,-1.624145508E-1,-1.390228271E-1
1.111637598E1,4.123229980E-1,-1.633148193E-1,-1.329040527E-1
1.112647730E1,2.742919922E-1,-1.477661133E-1,-7.933044434E-2
1.113654810E1,3.005371094E-1,-7.536315918E-2,3.457641602E-2
1.114658838E1,5.014190674E-1,4.362487793E-2,1.955108643E-1
1.115665918E1,6.841735840E-1,1.327819824E-1,3.614959717E-1
1.116676050E1,8.437500000E-1,1.927185059E-1,4.652252197E-1
1.117683130E1,8.831481934E-1,1.892547607E-1,4.581604004E-1
1.118687158E1,8.479309082E-1,1.398162842E-1,3.475646973E-1
1.119706445E1,8.188629150E-1,6.553649902E-2,2.071838379E-1
1.120725732E1,8.903198242E-1,-3.143310547E-3,8.355712891E-2
1.121745020E1,1.002777100E0,-5.705261230E-2,-3.295898438E-3
1.122758203E1,1.032836914E0,-9.346008301E-2,-4.486083984E-2
1.123780542E1,9.342803955E-1,-7.733154297E-2,-4.768371582E-2
1.124799829E1,6.491851807E-1,-8.694458008E-2,-9.808349609E-2
1.125819116E1,3.328094482E-1,-7.736206055E-2,-1.501617432E-1
1.126820093E1,1.597595215E-1,-4.510498047E-2,-1.478271484E-1
1.127750879E1,8.699035645E-2,-2.151489258E-3,-1.231842041E-1
1.128757959E1,1.890563965E-2,2.320861816E-2,-1.164398193E-1
1.129765039E1,-1.048278809E-2,1.988220215E-2,-1.332855225E-1
1.130772119E1,-1.392974854E-1,4.129028320E-2,-1.455078125E-1
1.131779199E1,-2.957458496E-1,8.953857422E-2,-1.300506592E-1
1.132786279E1,-4.077301025E-1,1.410675049E-1,-8.677673340E-2
1.133793359E1,-3.506317139E-1,2.088317871E-1,-3.482055664E-2
1.134800440E1,-2.125854492E-1,2.702941895E-1,2.148437500E-2
1.135807520E1,-5.838012695E-2,3.369293213E-1,8.990478516E-2
1.136811548E1,-1.443634033E-1,3.609924316E-1,9.240722656E-2
1.137824731E1,3.051757812E-1,4.293823242E-1,1.908569336E-1
1.138831812E1,9.744262695E-1,4.053955078E-1,2.312316895E-1
1.139838892E1,1.384017944E0,3.893737793E-1,2.129516602E-1
1.140845972E1,1.557739258E0,3.563079834E-1,1.824798584E-1
1.141850000E1,1.581253052E0,2.427673340E-1,5.982971191E-2
1.142850977E1,1.592285156E0,1.175079346E-1,-7.060241699E-2
1.143864160E1,1.574707031E0,4.150390625E-3,-1.740875244E-1
1.144874292E1,1.480331421E0,-7.681274414E-2,-2.457122803E-1
1.145881372E1,1.332214355E0,-1.348876953E-1,-3.024597168E-1
1.146885400E1,1.142913818E0,-2.055664062E-1,-3.705291748E-1
1.147895532E1,7.585449219E-1,-3.641052246E-1,-4.268035889E-1
1.148902612E1,4.618682861E-1,-4.776306152E-1,-4.346618652E-1
1.149906641E1,2.160186768E-1,-5.110168457E-1,-3.679962158E-1
1.150916773E1,3.761291504E-2,-5.044403076E-1,-2.787475586E-1
1.151923852E1,-2.068328857E-1,-5.284729004E-1,-1.639556885E-1
1.152930933E1,-5.254516602E-1,-5.467681885E-1,-3.491210938E-2
1.153938013E1,-7.695007324E-1,-5.272064209E-1,6.517028809E-2
1.154942041E1,-1.022369385E0,-5.214538574E-1,1.297454834E-1
1.155949121E1,-1.368530273E0,-6.014556885E-1,1.638946533E-1
1.156956201E1,-1.642852783E0,-7.025299072E-1,1.647949219E-1
1.157963281E1,-2.037841797E0,-8.454895020E-1,1.932983398E-1
1.158970361E1,-2.559326172E0,-1.047515869E0,2.579040527E-1
1.159989648E1,-2.835479736E0,-1.235351562E0,2.504882812E-1
1.161008936E1,-2.912216187E0,-1.471130371E0,1.349639893E-1
1.162028223E1,-3.306991577E0,-1.661621094E0,2.975463867E-2
1.163047510E1,-4.027328491E0,-1.811141968E0,1.602172852E-3
1.164069849E1,-4.500793457E0,-1.958282471E0,8.743286133E-3
1.165089136E1,-4.622955322E0,-2.058990479E0,4.455566406E-3
1.166093164E1,-4.938995361E0,-2.146530151E0,1.260833740E-1
1.167030054E1,-5.232147217E0,-2.225006104E0,2.452850342E-1
1.168037134E1,-5.661941528E0,-2.358261108E0,3.571319580E-1
1.169041162E1,-5.980392456E0,-2.443252563E0,4.379577637E-1
1.170048242E1,-5.720260620E0,-2.423950195E0,4.208526611E-1
1.171055322E1,-5.522552490E0,-2.434280396E0,4.475708008E-1
1.172062402E1,-5.054519653E0,-2.377319336E0,4.389038086E-1
1.173069482E1,-4.796249390E0,-2.334121704E0,4.087677002E-1
1.174076562E1,-4.408355713E0,-2.326110840E0,2.712554932E-1
1.175083643E1,-3.699615479E0,-2.290740967E0,2.288818359E-3
1.176090723E1,-2.667984009E0,-2.230682373E0,-3.566589355E-1
1.177128320E1,-1.168609619E0,-2.203063965E0,-7.905883789E-1
1.178104883E1,9.800720215E-2,-2.249053955E0,-1.192993164E0
1.179111963E1,1.300933838E0,-2.275024414E0,-1.604705811E0
1.180119043E1,1.783477783E0,-2.242904663E0,-1.737060547E0
1.181126123E1,1.740402222E0,-2.246978760E0,-1.865661621E0
1.182133203E1,2.242675781E0,-2.302566528E0,-2.208557129E0
1.183140283E1,3.002807617E0,-2.380340576E0,-2.648437500E0
1.184147363E1,3.545883179E0,-2.460174561E0,-2.997192383E0
1.185154443E1,4.215423584E0,-2.480438232E0,-3.275909424E0
1.186164575E1,4.958267212E0,-2.484970093E0,-3.359832764E0
1.187171655E1,5.965118408E0,-2.345718384E0,-3.527786255E0
1.188175684E1,6.791732788E0,-2.093109131E0,-3.552108765E0
1.189182764E1,7.017639160E0,-1.723388672E0,-3.154983521E0
1.190192896E1,6.918792725E0,-1.315429688E0,-2.670745850E0
1.191199976E1,5.968414307E0,-9.355010986E-1,-1.964614868E0
1.192207056E1,4.894348145E0,-7.657318115E-1,-1.604721069E0
1.193211084E1,3.937454224E0,-6.643371582E-1,-1.340591431E0
1.194218164E1,3.123138428E0,-4.651031494E-1,-9.696655273E-1
1.195228296E1,2.833831787E0,-3.092346191E-1,-9.527587891E-1
1.196235376E1,2.602554321E0,-1.211090088E-1,-8.895416260E-1
1.197242456E1,2.099365234E0,-2.008819580E-1,-9.146270752E-1
1.198249536E1,8.011779785E-1,2.122497559E-2,-1.048736572E-1
1.199262720E1,-5.548706055E-1,6.254119873E-1,1.094558716E0
1.200282007E1,-1.269470215E0,1.222503662E0,1.899963379E0
1.201301294E1,-1.444992065E0,1.585449219E0,2.155914307E0
1.202320581E1,-1.193313599E0,1.733673096E0,1.966171265E0
1.203339868E1,-6.766662598E-1,1.619644165E0,1.438796997E0
1.204362207E1,-3.173522949E-1,1.535781860E0,1.035705566E0
1.205378442E1,1.316833496E-2,1.441024780E0,6.208496094E-1
1.206388574E1,2.642974854E-1,1.375717163E0,2.607269287E-1
1.207398706E1,3.807067871E-1,1.385070801E0,4.565429688E-2
1.208320337E1,3.159637451E-1,1.440231323E0,-2.210998535E-2
1.209327417E1,-1.233581543E0,1.593460083E0,5.596466064E-1
1.210331445E1,-2.577438354E0,1.941604614E0,1.151336670E0
1.211341577E1,-2.939178467E0,2.106597900E0,1.260574341E0
1.212348657E1,-3.264450073E0,2.250839233E0,1.354568481E0
1.213352686E1,-3.512908936E0,2.356018066E0,1.374664307E0
1.214362817E1,-3.370208740E0,2.404144287E0,1.102325439E0
1.215369898E1,-2.355484009E0,2.285751343E0,4.976654053E-1
1.216376978E1,-1.341339111E0,2.184097290E0,2.610778809E-2
1.217420679E1,-4.953002930E-1,2.109161377E0,-3.957519531E-1
1.218388086E1,-8.209228516E-3,2.040802002E0,-6.744689941E-1
1.219395166E1,-1.940917969E-2,2.024627686E0,-7.326202393E-1
1.220402246E1,-1.120056152E0,2.274993896E0,-3.430633545E-1
1.221412378E1,-2.005706787E0,2.590042114E0,2.037048340E-1
1.222419458E1,-1.637649536E0,2.698898315E0,4.150085449E-1
1.223423486E1,-6.808624268E-1,2.623626709E0,3.148193359E-1
1.224430566E1,5.902099609E-2,2.543380737E0,1.511535645E-1
1.225440698E1,6.182250977E-1,2.468322754E0,3.091430664E-2
1.226447778E1,1.103759766E0,2.386505127E0,-5.210876465E-2
1.227451807E1,1.243606567E0,2.359390259E0,-5.770874023E-2
1.228458887E1,1.494049072E0,2.308502197E0,3.430175781E-2
1.229469019E1,1.981170654E0,2.320465088E0,2.138214111E-1
1.230476099E1,2.542144775E0,2.348922729E0,4.358062744E-1
1.231483179E1,3.139617920E0,2.329406738E0,5.965270996E-1
1.232487207E1,3.680374146E0,2.245880127E0,6.932067871E-1
1.233494287E1,4.254608154E0,2.152297974E0,7.094726562E-1
1.234504419E1,4.575103760E0,1.959991455E0,6.434478760E-1
1.235511499E1,4.711029053E0,1.568450928E0,3.146057129E-1
1.236515527E1,4.875534058E0,1.151657104E0,-3.713989258E-2
1.237522607E1,4.571380615E0,8.970184326E-1,-2.776336670E-1
1.238532739E1,4.046310425E0,8.054199219E-1,-3.824920654E-1
1.239539819E1,3.606338501E0,7.043457031E-1,-4.234161377E-1
1.240559106E1,3.303253174E0,6.591644287E-1,-3.711853027E-1
1.241578394E1,3.118209839E0,7.059478760E-1,-2.085113525E-1
1.242594629E1,3.040710449E0,8.543395996E-1,5.371093750E-3
1.243613916E1,2.945983887E0,1.036819458E0,2.097930908E-1
1.244636255E1,2.826736450E0,1.211807251E0,3.610229492E-1
1.245655542E1,2.581161499E0,1.275909424E0,4.337615967E-1
1.246677881E1,2.296356201E0,1.251617432E0,4.434204102E-1
1.247675806E1,2.045776367E0,1.160079956E0,3.967132568E-1
1.248603540E1,1.853546143E0,1.030822754E0,3.343811035E-1
1.249607568E1,1.681411743E0,8.750000000E-1,2.537536621E-1
1.250614648E1,1.418304443E0,6.960144043E-1,1.149597168E-1
1.251624780E1,1.017639160E0,4.532012939E-1,-1.252899170E-1
1.252631860E1,4.798583984E-1,1.978912354E-1,-4.951782227E-1
1.253638940E1,-1.271362305E-1,-1.368713379E-2,-8.411712646E-1
1.254642969E1,-2.875823975E-1,-8.386230469E-2,-9.783172607E-1
1.255650049E1,-2.619628906E-1,-4.176330566E-2,-9.206695557E-1
1.256660181E1,-1.956634521E-1,1.153564453E-2,-8.296203613E-1
1.257661157E1,-8.609008789E-2,2.325439453E-2,-7.928161621E-1
1.258674341E1,-4.760742188E-2,1.070098877E-1,-7.166900635E-1
1.259681421E1,3.952026367E-2,2.293548584E-1,-6.146545410E-1
1.260688501E1,1.672210693E-1,2.896118164E-1,-4.931945801E-1
1.261695581E1,2.485961914E-1,3.152465820E-1,-3.721008301E-1
1.262702661E1,3.281860352E-1,3.531646729E-1,-2.521972656E-1
1.263706690E1,3.743591309E-1,3.540649414E-1,-1.968841553E-1
1.264713770E1,4.658050537E-1,3.361053467E-1,-1.358337402E-1
1.265723901E1,5.357818604E-1,2.571716309E-1,-1.012573242E-1
1.266730981E1,5.521850586E-1,6.854248047E-2,-1.136779785E-1
1.267738062E1,6.202087402E-1,-2.725219727E-1,-1.846771240E-1
1.268742090E1,7.676696777E-1,-6.074066162E-1,-2.318115234E-1
1.269749170E1,8.141174316E-1,-7.337799072E-1,-2.093963623E-1
1.270756250E1,6.958160400E-1,-6.555480957E-1,-1.471862793E-1
1.271766382E1,5.439605713E-1,-6.715850830E-1,-9.666442871E-2
1.272773462E1,3.076171875E-1,-6.855926514E-1,-7.301330566E-2
1.273777490E1,-2.403259277E-2,-6.418914795E-1,-6.692504883E-2
1.274784570E1,-4.184570312E-1,-5.363922119E-1,-6.460571289E-2
1.275791650E1,-7.482299805E-1,-4.138793945E-1,-5.509948730E-2
1.276801782E1,-1.065734863E0,-3.931427002E-1,-9.643554688E-3
1.277808862E1,-1.391647339E0,-3.622283936E-1,6.553649902E-2
1.278815942E1,-1.928253174E0,-3.091735840E-1,1.713104248E-1
1.279819971E1,-2.378875732E0,-3.511199951E-1,2.650756836E-1
1.280830102E1,-2.782089233E0,-4.080200195E-1,3.100128174E-1
1.281843286E1,-3.240097046E0,-4.849548340E-1,3.525543213E-1
1.282862573E1,-3.736740112E0,-6.152038574E-1,3.606719971E-1
1.283884912E1,-3.962844849E0,-8.327331543E-1,3.584136963E-1
1.284904199E1,-4.099731445E0,-1.051910400E0,3.941192627E-1
1.285923486E1,-4.137756348E0,-1.246704102E0,4.189147949E-1
1.286942773E1,-4.123611450E0,-1.467864990E0,4.493713379E-1
1.287959009E1,-4.090270996E0,-1.703994751E0,4.781494141E-1
1.288969141E1,-4.252655029E0,-1.867431641E0,5.185852051E-1
1.289979273E1,-4.581069946E0,-2.029800415E0,5.316925049E-1
1.290900903E1,-5.047424316E0,-2.101623535E0,5.874328613E-1
1.291907983E1,-5.938461304E0,-2.248214722E0,4.526824951E-1
1.292912012E1,-6.933120728E0,-2.413146973E0,2.716674805E-1
1.293922144E1,-7.544494629E0,-2.562591553E0,1.495361328E-3
1.294929224E1,-7.512680054E0,-2.693725586E0,-2.561187744E-1
1.295933252E1,-6.786804199E0,-2.828292847E0,-5.309600830E-1
1.296940332E1,-5.900619507E0,-2.917709351E0,-7.335662842E-1
1.298038965E1,-4.554992676E0,-3.009368896E0,-9.357910156E-1
1.298957544E1,-2.660598755E0,-3.152999878E0,-1.213897705E0
1.299964624E1,-7.188415527E-1,-3.343063354E0,-1.533615112E0
1.300968652E1,8.623504639E-1,-3.517227173E0,-1.849075317E0
1.301975732E1,1.856826782E0,-3.623489380E0,-2.119567871E0
1.302982813E1,2.061569214E0,-3.551574707E0,-2.114593506E0
1.303992944E1,2.074584961E0,-3.421264648E0,-2.117691040E0
1.305000024E1,2.422805786E0,-3.387237549E0,-2.201004028E0
1.306004053E1,3.422103882E0,-3.425430298E0,-2.489028931E0
1.307011133E1,4.303863525E0,-3.399658203E0,-2.704101562E0
1.308021265E1,4.353576660E0,-3.185546875E0,-2.449111938E0
1.309028345E1,4.269760132E0,-2.926040649E0,-2.164398193E0
1.310032373E1,4.620803833E0,-2.751495361E0,-2.216171265E0
1.311039453E1,4.555374146E0,-2.468200684E0,-2.149337769E0
1.312049585E1,3.989166260E0,-2.080200195E0,-1.843887329E0
1.313056665E1,3.494766235E0,-1.774063110E0,-1.647781372E0
1.314060693E1,2.967834473E0,-1.506835938E0,-1.437850952E0
1.315067773E1,2.449539185E0,-1.259918213E0,-1.244155884E0
1.316074854E1,2.113143921E0,-1.106491089E0,-1.154922485E0
1.317081934E1,2.242218018E0,-1.075347900E0,-1.369033813E0
1.318092065E1,2.443679810E0,-9.844055176E-1,-1.513717651E0
1.319099146E1,2.110290527E0,-5.321960449E-1,-1.057205200E0
1.320106226E1,1.028671265E0,1.800231934E-1,-1.276855469E-1
1.321110254E1,-9.490966797E-3,1.044296265E0,8.757781982E-1
1.322117334E1,-6.395568848E-1,1.896957397E0,1.644744873E0
1.323124414E1,-8.611755371E-1,2.424468994E0,1.963378906E0
1.324140649E1,-6.469573975E-1,2.611022949E0,1.823638916E0
1.325159936E1,-2.249908447E-1,2.483703613E0,1.377120972E0
1.326179224E1,6.481933594E-2,2.184417725E0,8.850097656E-1
1.327198511E1,3.210144043E-1,1.888931274E0,4.199676514E-1
1.328217798E1,5.143890381E-1,1.584625244E0,4.272460938E-4
1.329240137E1,5.228576660E-1,1.382354736E0,-2.144012451E-1
1.330259424E1,3.997802734E-1,1.346527100E0,-2.749633789E-1
1.331257349E1,1.065063477E-1,1.431655884E0,-1.745605469E-1
1.332191186E1,-4.072875977E-1,1.688262939E0,9.240722656E-2
1.333198267E1,-1.334014893E0,2.206375122E0,6.137237549E-1
1.334202295E1,-2.000762939E0,2.533859253E0,9.364929199E-1
1.335209375E1,-2.438659668E0,2.748001099E0,1.118392944E0
1.336216455E1,-2.573852539E0,2.904464722E0,1.163436890E0
1.337226587E1,-2.317977905E0,2.917999268E0,1.038650513E0
1.338313013E1,-1.651260376E0,2.782196045E0,7.547302246E-1
1.339240747E1,-7.622222900E-1,2.565917969E0,3.651275635E-1
1.340247827E1,-1.239318848E-1,2.442596436E0,1.474914551E-1
1.341251856E1,-6.561279297E-3,2.342453003E0,9.176635742E-2
1.342261987E1,-7.617187500E-1,2.541290283E0,3.262176514E-1
1.343269067E1,-1.586990356E0,2.878768921E0,5.757598877E-1
1.344273096E1,-1.315216064E0,2.862426758E0,5.415191650E-1
1.345280176E1,-6.570129395E-1,2.684768677E0,2.847900391E-1
1.346287256E1,-3.426971436E-1,2.440765381E0,4.121398926E-2
1.347297388E1,-1.017761230E-2,2.318145752E0,-7.008361816E-2
1.348304468E1,2.475738525E-1,2.180648804E0,-1.374053955E-1
1.349308496E1,3.485412598E-1,2.106033325E0,-1.854095459E-1
1.350315576E1,6.139831543E-1,2.046585083E0,-1.904144287E-1
1.351322656E1,9.906463623E-1,1.977508545E0,-1.817779541E-1
1.352332788E1,1.460067749E0,1.973846436E0,-4.870605469E-2
1.353339868E1,1.973114014E0,2.079666138E0,2.956237793E-1
1.354346948E1,2.237380981E0,2.040588379E0,4.437408447E-1
1.355350977E1,2.255111694E0,1.884033203E0,3.582611084E-1
1.356358057E1,2.318862915E0,1.748397827E0,3.221435547E-1
1.357368189E1,2.422637939E0,1.587295532E0,2.942352295E-1
1.358375269E1,2.642044067E0,1.434783936E0,2.788238525E-1
1.359382349E1,2.862670898E0,1.282302856E0,2.752990723E-1
1.360389429E1,3.023635864E0,9.963684082E-1,1.471405029E-1
1.361393457E1,3.055618286E0,7.930755615E-1,6.710815430E-2
1.362403589E1,2.872970581E0,7.339935303E-1,4.040527344E-2
1.363410669E1,2.611129761E0,6.510467529E-1,1.190185547E-2
1.364420801E1,2.426834106E0,6.430358887E-1,4.084777832E-2
1.365440088E1,2.341003418E0,7.485198975E-1,1.537322998E-1
1.366459375E1,2.245635986E0,8.952789307E-1,2.747039795E-1
1.367472559E1,2.134078979E0,1.032531738E0,3.901519775E-1
1.368497949E1,2.015487671E0,1.108078003E0,4.818572998E-1
1.369517236E1,1.895782471E0,1.075714111E0,5.207672119E-1
1.370536523E1,1.827926636E0,9.538574219E-1,5.174560547E-1
1.371555811E1,1.723114014E0,8.023071289E-1,4.551849365E-1
1.372553735E1,1.547134399E0,6.076812744E-1,3.373107910E-1
1.373478418E1,1.329284668E0,4.674987793E-1,2.195129395E-1
1.374488550E1,1.070785522E0,3.706359863E-1,1.224517822E-1
1.375492578E1,9.478302002E-1,2.934570312E-1,7.405090332E-2
1.376499658E1,8.312530518E-1,2.639007568E-1,5.313110352E-2
1.377509790E1,6.288909912E-1,2.640380859E-1,-3.082275391E-2
1.378672510E1,4.074707031E-1,2.992706299E-1,-1.580810547E-1
1.379523950E1,2.496795654E-1,3.442230225E-1,-3.001251221E-1
1.380527979E1,7.273864746E-2,4.638366699E-1,-3.805084229E-1
1.381538110E1,-1.083374023E-2,5.858306885E-1,-4.118957520E-1
1.382542139E1,-9.353637695E-3,6.013183594E-1,-4.288330078E-1
1.383549219E1,2.471923828E-3,5.667114258E-1,-4.299468994E-1
1.384559351E1,-4.521179199E-2,5.167388916E-1,-4.173736572E-1
1.385566431E1,-2.221374512E-1,3.862457275E-1,-4.938201904E-1
1.386573511E1,-4.214935303E-1,2.069091797E-1,-6.575775146E-1
1.387577539E1,-4.711914062E-1,7.676696777E-2,-7.414398193E-1
1.388584619E1,-3.136749268E-1,-8.509826660E-2,-7.336273193E-1
1.389594751E1,-3.504943848E-2,-1.967620850E-1,-6.486968994E-1
1.390601831E1,2.082366943E-1,-2.310485840E-1,-5.149383545E-1
1.391605859E1,3.804168701E-1,-3.288421631E-1,-4.144134521E-1
1.392615991E1,5.779571533E-1,-5.113220215E-1,-3.641357422E-1
1.393623071E1,8.392639160E-1,-6.781158447E-1,-2.840118408E-1
1.394627100E1,1.041259766E0,-7.620849609E-1,-1.808624268E-1
1.395634180E1,9.880828857E-1,-7.677917480E-1,-7.766723633E-2
1.396644312E1,8.596038818E-1,-7.310333252E-1,-8.148193359E-3
1.397648340E1,7.095184326E-1,-7.441101074E-1,1.991271973E-2
1.398658472E1,5.179443359E-1,-7.703399658E-1,1.586914062E-3
1.399665552E1,2.223663330E-1,-7.393646240E-1,-4.487609863E-2
1.400669580E1,-1.787261963E-1,-6.327056885E-1,-1.079406738E-1
1.401676660E1,-6.347961426E-1,-4.890441895E-1,-1.641693115E-1
1.402686792E1,-1.003814697E0,-3.850402832E-1,-2.013244629E-1
1.403690820E1,-1.236663818E0,-3.795623779E-1,-1.954345703E-1
1.404697900E1,-1.410736084E0,-3.980255127E-1,-1.398315430E-1
1.405714136E1,-1.698699951E0,-3.468475342E-1,-1.388549805E-2
1.406733423E1,-2.091567993E0,-3.098602295E-1,1.424255371E-1
1.407755762E1,-2.489166260E0,-3.589324951E-1,2.385101318E-1
1.408775049E1,-2.963882446E0,-6.022033691E-1,1.854705811E-1
1.409794336E1,-3.405670166E0,-8.838958740E-1,1.186370850E-1
1.410813623E1,-3.506256104E0,-1.138687134E0,1.249389648E-1
1.411832910E1,-3.453796387E0,-1.326782227E0,1.583251953E-1
1.412833887E1,-3.429702759E0,-1.526824951E0,1.845397949E-1
1.413764673E1,-3.532226562E0,-1.655899048E0,2.413330078E-1
1.414768701E1,-3.710235596E0,-1.706115723E0,3.602142334E-1
1.415778833E1,-3.999557495E0,-1.775543213E0,3.983459473E-1
1.416785913E1,-4.452041626E0,-1.758773804E0,5.325775146E-1
1.417789941E1,-5.246917725E0,-1.772155762E0,5.764465332E-1
1.418955713E1,-6.210952759E0,-1.892593384E0,3.675537109E-1
1.419807153E1,-6.913024902E0,-2.091262817E0,1.361083984E-1
1.420814233E1,-7.013748169E0,-2.274520874E0,-1.374206543E-1
1.421818262E1,-6.902862549E0,-2.386734009E0,-2.998657227E-1
1.422828394E1,-6.669830322E0,-2.455581665E0,-3.206939697E-1
1.423835474E1,-5.694824219E0,-2.564529419E0,-3.471679688E-1
1.424842554E1,-4.085937500E0,-2.727066040E0,-4.819183350E-1
1.425846582E1,-2.203765869E0,-2.932037354E0,-7.040557861E-1
1.426853662E1,-3.144226074E-1,-3.239303589E0,-1.044067383E0
1.427863794E1,1.098434448E0,-3.449035645E0,-1.441299438E0
1.428870874E1,1.925689697E0,-3.593902588E0,-1.857711792E0
1.429877954E1,2.371261597E0,-3.678283691E0,-2.177871704E0
1.430881982E1,2.543258667E0,-3.608459473E0,-2.161651611E0
1.431889063E1,2.764877319E0,-3.510772705E0,-2.134368896E0
1.432899194E1,3.256118774E0,-3.428085327E0,-2.143692017E0
1.433906274E1,3.711868286E0,-3.292633057E0,-2.146957397E0
1.434910303E1,3.749984741E0,-3.083541870E0,-1.986907959E0
1.435917383E1,3.677444458E0,-2.844177246E0,-1.792587280E0
1.436927515E1,3.681365967E0,-2.646301270E0,-1.720428467E0
1.437934595E1,3.686874390E0,-2.508972168E0,-1.730621338E0
1.438938623E1,3.625061035E0,-2.409927368E0,-1.788742065E0
1.439945703E1,3.520141602E0,-2.348800659E0,-1.869735718E0
1.440955835E1,3.273956299E0,-2.218597412E0,-1.865264893E0
1.441962915E1,2.880645752E0,-1.878341675E0,-1.686157227E0
1.442966943E1,2.546340942E0,-1.561950684E0,-1.498535156E0
1.443977075E1,2.344070435E0,-1.277999878E0,-1.406036377E0
1.444984155E1,1.901504517E0,-5.848083496E-1,-8.198394775E-1
1.445997339E1,1.623657227E0,-3.915405273E-2,-4.028167725E-1
1.447016626E1,1.078979492E0,3.360748291E-1,-2.694702148E-2
1.448038965E1,3.376312256E-1,8.799285889E-1,5.915374756E-1
1.449058252E1,-1.415405273E-1,1.445861816E0,1.084457397E0
1.450077539E1,-1.750335693E-1,1.758102417E0,1.159606934E0
1.451093774E1,-3.395080566E-2,1.875961304E0,9.825134277E-1
1.452116113E1,1.395416260E-1,1.780929565E0,6.976470947E-1
1.453117090E1,1.961212158E-1,1.783996582E0,6.080169678E-1
1.454047876E1,2.392578125E-1,1.780151367E0,5.033569336E-1
1.455051904E1,3.224334717E-1,1.708358765E0,3.128051758E-1
1.456062036E1,3.833312988E-1,1.577835083E0,1.275634766E-1
1.457069116E1,-5.416870117E-2,1.636169434E0,1.810913086E-1
1.458073145E1,-4.885864258E-1,1.728897095E0,2.503509521E-1
1.459232813E1,-8.964385986E-1,1.914489746E0,3.847503662E-1
1.460090356E1,-1.252532959E0,2.086242676E0,4.988250732E-1
1.461097436E1,-1.610855103E0,2.213699341E0,6.090850830E-1
1.462101465E1,-1.956939697E0,2.420455933E0,7.216491699E-1
1.463108545E1,-2.338150024E0,2.688598633E0,8.920898438E-1
1.464118677E1,-2.427566528E0,2.898391724E0,9.537200928E-1
1.465125757E1,-2.319366455E0,2.959014893E0,9.287567139E-1
1.466132837E1,-1.497955322E0,2.684921265E0,5.192108154E-1
1.467136865E1,-7.994842529E-1,2.530303955E0,2.326354980E-1
1.468146997E1,-5.259246826E-1,2.498703003E0,1.085510254E-1
1.469154077E1,-8.336944580E-1,2.694992065E0,2.349395752E-1
1.470161157E1,-1.567657471E0,3.093200684E0,5.730743408E-1
1.471165186E1,-1.655883789E0,3.189193726E0,7.209320068E-1
1.472172266E1,-1.291839600E0,3.154510498E0,6.665191650E-1
1.473182398E1,-5.888214111E-1,2.874923706E0,3.806762695E-1
1.474183374E1,-3.615112305E-1,2.747039795E0,2.237854004E-1
1.475184351E1,-1.702880859E-1,2.685806274E0,1.492767334E-1
1.476203638E1,6.214904785E-2,2.630462646E0,8.837890625E-2
1.477207666E1,5.588989258E-1,2.512191772E0,2.903747559E-2
1.478217798E1,1.176681519E0,2.331680298E0,-3.871154785E-2
1.479224878E1,1.725051880E0,2.142456055E0,-5.381774902E-2
1.480228906E1,2.229614258E0,2.025177002E0,9.901428223E-2
1.481235986E1,2.642242432E0,1.926147461E0,2.233123779E-1
1.482246118E1,2.980926514E0,1.856765747E0,3.795471191E-1
1.483253198E1,3.270126343E0,1.761840820E0,4.904937744E-1
1.484257227E1,3.454864502E0,1.636718750E0,5.646209717E-1
1.485264307E1,3.595687866E0,1.509017944E0,6.054077148E-1
1.486274439E1,3.658737183E0,1.388656616E0,6.124114990E-1
1.487290674E1,3.574645996E0,1.262329102E0,5.972595215E-1
1.488313013E1,3.210372925E0,1.034408569E0,3.872375488E-1
1.489332300E1,2.941192627E0,8.647003174E-1,2.001800537E-1
1.490351587E1,2.706893921E0,7.447357178E-1,9.461975098E-2
1.491370874E1,2.448532104E0,6.347808838E-1,6.805419922E-3
1.492390161E1,2.311492920E0,5.970611572E-1,1.718139648E-2
1.493409448E1,2.289031982E0,5.998077393E-1,1.120300293E-1
1.494407373E1,2.314285278E0,6.072692871E-1,2.442321777E-1
1.495338159E1,2.399002075E0,6.257324219E-1,3.815765381E-1
1.496345239E1,2.463287354E0,6.001281738E-1,4.998626709E-1
1.497352319E1,2.445205688E0,5.041809082E-1,5.692138672E-1
1.498359399E1,2.327377319E0,3.540496826E-1,5.540618896E-1
1.499506860E1,2.103027344E0,1.735382080E-1,4.433593750E-1
1.500373560E1,1.888687134E0,1.033020020E-2,2.977752686E-1
1.501380640E1,1.532333374E0,-5.682373047E-2,1.597137451E-1
1.502387720E1,1.134490967E0,3.187561035E-2,5.503845215E-2
1.503391748E1,9.080657959E-1,1.791992188E-1,-8.560180664E-3
1.504401880E1,7.558135986E-1,3.123474121E-1,-3.669738770E-2
1.505408960E1,-1.274566650E-1,3.771972656E-1,-5.285797119E-1
1.506416040E1,-8.347930908E-1,3.961181641E-1,-9.244079590E-1
1.507420068E1,-1.020919800E0,3.420867920E-1,-1.052871704E0
1.508427148E1,-8.956298828E-1,2.306976318E-1,-1.000442505E0
1.509434229E1,-7.770233154E-1,1.529693604E-1,-9.975280762E-1
1.510444360E1,-6.316375732E-1,9.617614746E-2,-9.280242920E-1
1.511451440E1,-4.559020996E-1,1.129302979E-1,-8.394165039E-1
1.512455469E1,-2.170410156E-1,1.613922119E-1,-6.684265137E-1
1.513462549E1,6.713867188E-2,1.621704102E-1,-4.792175293E-1
1.514472681E1,3.454284668E-1,2.152862549E-1,-2.991790771E-1
1.515479761E1,5.208435059E-1,2.720794678E-1,-1.365509033E-1
1.516486841E1,5.891113281E-1,3.123931885E-1,-4.226684570E-2
1.517490869E1,6.363677979E-1,3.320312500E-1,2.639770508E-3
1.518497949E1,5.538024902E-1,2.956237793E-1,-1.910400391E-2
1.519505029E1,3.988952637E-1,2.109985352E-1,-7.925415039E-2
1.520515161E1,2.415618896E-1,3.547668457E-2,-1.599578857E-1
1.521522241E1,1.166076660E-1,-2.450866699E-1,-2.916412354E-1
1.522526270E1,1.840209961E-2,-5.194244385E-1,-4.345550537E-1
1.523536401E1,-4.066467285E-2,-5.838165283E-1,-4.298553467E-1
1.524543481E1,-1.622009277E-1,-5.400848389E-1,-3.685760498E-1
1.525550562E1,-2.051696777E-1,-5.193939209E-1,-3.061981201E-1
1.526554590E1,-2.218322754E-1,-5.024108887E-1,-2.103576660E-1
1.527564722E1,-2.584991455E-1,-4.653167725E-1,-8.927917480E-2
1.528584009E1,-2.679901123E-1,-4.022216797E-1,1.734924316E-2
1.529603296E1,-3.292083740E-1,-3.015747070E-1,8.847045898E-2
1.530622583E1,-5.158081055E-1,-2.401733398E-1,1.205596924E-1
1.531641870E1,-7.232208252E-1,-2.561340332E-1,1.480865479E-1
1.532658106E1,-9.095611572E-1,-9.309387207E-2,3.136749268E-1
1.533680444E1,-1.179794312E0,-7.843017578E-3,4.407348633E-1
1.534693628E1,-1.573104858E0,3.614807129E-2,5.184173584E-1
1.535700708E1,-2.193313599E0,-4.261779785E-2,4.694976807E-1
1.536628442E1,-2.864608765E0,-3.189849854E-1,2.843017578E-1
1.537635523E1,-3.429702759E0,-6.539611816E-1,1.423645020E-1
1.538639551E1,-3.821136475E0,-9.512481689E-1,4.789733887E-2
1.539774805E1,-4.105361938E0,-1.233993530E0,-4.406738281E-2
1.540653711E1,-4.272552490E0,-1.498077393E0,-9.999084473E-2
1.541663843E1,-4.379867554E0,-1.680374146E0,-5.984497070E-2
1.542670923E1,-4.434158325E0,-1.814575195E0,-1.307678223E-2
1.543674951E1,-4.626632690E0,-1.919509888E0,7.806396484E-2
1.544682031E1,-4.948120117E0,-1.983718872E0,1.870727539E-1
1.545689111E1,-5.298263550E0,-2.057250977E0,2.254791260E-1
1.546687036E1,-5.717269897E0,-2.213363647E0,9.381103516E-2
1.547706323E1,-5.797531128E0,-2.358749390E0,-4.672241211E-2
1.548713403E1,-5.619522095E0,-2.556503296E0,-3.112182617E-1
1.549717432E1,-5.524826050E0,-2.748123169E0,-5.651702881E-1
1.550724512E1,-5.019409180E0,-2.941085815E0,-9.084167480E-1
1.551734644E1,-4.243896484E0,-3.154785156E0,-1.271423340E0
1.552741724E1,-3.599334717E0,-3.292755127E0,-1.483276367E0
1.553748804E1,-2.260467529E0,-3.457794189E0,-1.704437256E0
1.554752832E1,-6.093139648E-1,-3.664474487E0,-1.879302979E0
1.555759912E1,8.890686035E-1,-3.861724854E0,-2.069763184E0
1.556770044E1,1.488632202E0,-3.829895020E0,-2.006790161E0
1.557777124E1,1.682205200E0,-3.703826904E0,-1.858367920E0
1.558781152E1,2.296905518E0,-3.619033813E0,-1.872802734E0
1.559791284E1,3.352752686E0,-3.594879150E0,-2.015670776E0
1.560798364E1,4.229782104E0,-3.496810913E0,-2.139877319E0
1.561805444E1,4.323303223E0,-3.170120239E0,-1.890594482E0
1.562809473E1,4.222915649E0,-2.794692993E0,-1.599761963E0
1.563816553E1,4.343414307E0,-2.501159668E0,-1.447921753E0
1.564826685E1,4.507003784E0,-2.213256836E0,-1.322952271E0
1.565833765E1,4.358596802E0,-1.935180664E0,-1.221115112E0
1.566837793E1,4.038574219E0,-1.743133545E0,-1.205917358E0
1.567844873E1,3.627716064E0,-1.573883057E0,-1.190551758E0
1.568851953E1,3.182220459E0,-1.430618286E0,-1.158370972E0
1.569868189E1,2.798248291E0,-1.282943726E0,-1.107437134E0
1.570887476E1,2.489654541E0,-1.030502319E0,-9.826049805E-1
1.571906763E1,1.811843872E0,-5.407714844E-1,-5.539703369E-1
1.572926050E1,1.132537842E0,-1.273803711E-1,-1.870727539E-1
1.573945337E1,5.964813232E-1,3.179931641E-1,1.963653564E-1
1.574967676E1,1.188964844E-1,8.189697266E-1,6.643371582E-1
1.575986963E1,-1.482849121E-1,1.079498291E0,9.402618408E-1
1.576990991E1,-1.553039551E-1,9.923248291E-1,8.020477295E-1
1.578004175E1,-7.339477539E-2,1.063629150E0,6.894226074E-1
1.578925806E1,6.118774414E-3,1.140090942E0,4.974212646E-1
1.580048852E1,6.311035156E-2,1.208282471E0,2.520599365E-1
1.580936914E1,7.185363770E-2,1.231033325E0,3.913879395E-2
1.581947046E1,-2.320861816E-2,1.187988281E0,-5.024719238E-2
1.582954126E1,-3.672180176E-1,1.281066895E0,6.062316895E-2
1.583958154E1,-1.197143555E0,1.519363403E0,3.595123291E-1
1.584965234E1,-2.059524536E0,1.966949463E0,8.231964111E-1
1.585975366E1,-2.245330811E0,2.171386719E0,9.316711426E-1
1.586982446E1,-2.110168457E0,2.208831787E0,8.210906982E-1
1.587986475E1,-2.215499878E0,2.363311768E0,8.277130127E-1
1.588993555E1,-2.674835205E0,2.611480713E0,1.003585815E0
1.589994531E1,-2.517395020E0,2.607208252E0,8.663635254E-1
1.591010767E1,-1.892456055E0,2.415603638E0,5.328063965E-1
1.592014795E1,-1.580612183E0,2.343643188E0,3.494567871E-1
1.593021875E1,-1.412246704E0,2.360198975E0,2.370452881E-1
1.594032007E1,-1.226394653E0,2.391891479E0,1.589202881E-1
1.595039087E1,-1.131408691E0,2.468658447E0,1.857147217E-1
1.596046167E1,-1.370605469E0,2.777832031E0,4.591674805E-1
1.597053247E1,-1.301895142E0,2.974700928E0,6.217956543E-1
1.598057275E1,-1.089920044E0,3.021926880E0,6.251373291E-1
1.599064356E1,-4.041900635E-1,2.870147705E0,4.096679688E-1
1.600074487E1,-2.443237305E-1,2.813461304E0,2.976226807E-1
1.601081567E1,2.377319336E-2,2.829620361E0,3.183898926E-1
1.602085596E1,5.820312500E-1,2.936569214E0,4.813232422E-1
1.603092676E1,1.265869141E0,3.038208008E0,7.108612061E-1
1.604099756E1,1.893737793E0,3.040985107E0,8.623199463E-1
1.605109888E1,2.338409424E0,2.829559326E0,8.132324219E-1
1.606116968E1,2.728225708E0,2.598220825E0,6.996612549E-1
1.607124048E1,3.177810669E0,2.440856934E0,7.209930420E-1
1.608128076E1,3.612121582E0,2.283843994E0,7.782897949E-1
1.609135156E1,3.950653076E0,2.114822388E0,8.023986816E-1
1.610142236E1,4.100616455E0,1.907791138E0,7.761688232E-1
1.611158472E1,4.047546387E0,1.680099487E0,6.924896240E-1
1.612177759E1,3.689483643E0,1.376251221E0,4.671173096E-1
1.613200098E1,3.311981201E0,1.047912598E0,1.986389160E-1
1.614219385E1,2.989883423E0,8.029174805E-1,-1.394653320E-2
1.615238672E1,2.571533203E0,6.242523193E-1,-2.113189697E-1
1.616261011E1,2.255722046E0,5.184478760E-1,-3.211975098E-1
1.617277246E1,2.134628296E0,5.225982666E-1,-2.933959961E-1
1.618281274E1,2.085571289E0,5.503387451E-1,-2.561645508E-1
1.619209009E1,2.001449585E0,5.657501221E-1,-2.236633301E-1
1.620338159E1,1.833145142E0,5.590209961E-1,-1.945037842E-1
1.621223169E1,1.735595703E0,5.876464844E-1,-1.322631836E-1
1.622230249E1,1.752319336E0,6.455688477E-1,-1.966857910E-2
1.623237329E1,1.824539185E0,6.728668213E-1,1.188201904E-1
1.624241357E1,1.923156738E0,6.283264160E-1,2.665405273E-1
1.625248438E1,1.998626709E0,5.491943359E-1,3.765716553E-1
1.626255518E1,1.958938599E0,4.672088623E-1,4.235382080E-1
1.627265649E1,1.814712524E0,4.125213623E-1,3.997955322E-1
1.628272730E1,1.507629395E0,2.843017578E-1,2.752227783E-1
1.629276758E1,1.206222534E0,1.691741943E-1,1.009826660E-1
1.630283838E1,9.457397461E-1,1.382598877E-1,-5.247497559E-2
1.631290918E1,7.831420898E-1,1.901702881E-1,-1.228179932E-1
1.632297998E1,6.586608887E-1,2.620544434E-1,-1.668395996E-1
1.633305078E1,2.357788086E-1,2.952880859E-1,-3.716278076E-1
1.634315210E1,-1.738281250E-1,3.394775391E-1,-5.952301025E-1
1.635322290E1,-4.698944092E-1,3.595123291E-1,-7.245635986E-1
1.636329370E1,-4.398040771E-1,5.095977783E-1,-6.678466797E-1
1.637336450E1,-2.491607666E-1,7.440643311E-1,-4.869232178E-1
1.638340478E1,-1.869812012E-1,9.479980469E-1,-3.414154053E-1
1.639347559E1,-5.691528320E-2,9.193267822E-1,-2.560729980E-1
1.640354639E1,1.650543213E-1,6.950073242E-1,-2.238769531E-1
1.641361719E1,3.302307129E-1,3.789062500E-1,-2.562866211E-1
1.642368799E1,4.356994629E-1,5.377197266E-2,-2.799530029E-1
1.643375879E1,5.366668701E-1,-1.680297852E-1,-2.836303711E-1
1.644382959E1,6.185913086E-1,-1.939544678E-1,-2.576293945E-1
1.645390039E1,7.098541260E-1,-1.486053467E-1,-1.876983643E-1
1.646400171E1,6.052856445E-1,-3.153839111E-1,-2.503814697E-1
1.647407251E1,3.898010254E-1,-6.719360352E-1,-4.488372803E-1
1.648414331E1,2.120208740E-1,-9.121551514E-1,-5.967559814E-1
1.649418359E1,1.313781738E-2,-9.147796631E-1,-6.177978516E-1
1.650425440E1,-1.288909912E-1,-8.059844971E-1,-5.749664307E-1
1.651444727E1,-3.874511719E-1,-7.858276367E-1,-6.049652100E-1
1.652467065E1,-5.979614258E-1,-7.624664307E-1,-6.534729004E-1
1.653486353E1,-7.995605469E-1,-7.404632568E-1,-6.615753174E-1
1.654505640E1,-9.386749268E-1,-6.996765137E-1,-6.148529053E-1
1.655527978E1,-9.972991943E-1,-6.382904053E-1,-5.282287598E-1
1.656547266E1,-9.934387207E-1,-5.492858887E-1,-4.164733887E-1
1.657557398E1,-9.864807129E-1,-4.565734863E-1,-2.834472656E-1
1.658567529E1,-9.949188232E-1,-3.906402588E-1,-1.463775635E-1
1.659489160E1,-1.042388916E0,-3.900146484E-1,-3.755187988E-2
1.660612207E1,-1.183273315E0,-3.939361572E-1,4.708862305E-2
1.661506372E1,-1.443283081E0,-4.219360352E-1,1.208801270E-1
1.662510400E1,-1.770324707E0,-4.604949951E-1,1.630096436E-1
1.663517481E1,-2.183242798E0,-6.019439697E-1,1.285400391E-1
1.664524560E1,-2.551544189E0,-8.468933105E-1,8.520507812E-2
1.665534692E1,-2.945129395E0,-1.043762207E0,7.153320312E-2
1.666541772E1,-3.271453857E0,-1.228927612E0,7.475280762E-2
1.667548853E1,-3.535507202E0,-1.353637695E0,1.239929199E-1
1.668552881E1,-3.685592651E0,-1.454742432E0,1.906738281E-1
1.669559961E1,-3.973770142E0,-1.529174805E0,2.566223145E-1
1.670567041E1,-4.419754028E0,-1.618469238E0,3.244323730E-1
1.671577173E1,-4.937866211E0,-1.776382446E0,3.119049072E-1
1.672584253E1,-5.531677246E0,-1.960998535E0,2.785491943E-1
1.673591333E1,-5.835678101E0,-2.171249390E0,2.345581055E-1
1.674595361E1,-5.939010620E0,-2.407104492E0,1.687164307E-1
1.675602441E1,-5.914657593E0,-2.609069824E0,7.897949219E-2
1.676612573E1,-5.450592041E0,-2.810226440E0,-2.374267578E-2
1.677619653E1,-5.038925171E0,-2.936035156E0,-8.526611328E-2
1.678626733E1,-4.329483032E0,-3.013397217E0,-1.957702637E-1
1.679630762E1,-3.207809448E0,-3.178848267E0,-5.675354004E-1
1.680637842E1,-2.566680908E0,-3.297317505E0,-7.798156738E-1
1.681647974E1,-1.808578491E0,-3.345550537E0,-9.591217041E-1
1.682655054E1,-3.361511230E-1,-3.506469727E0,-1.435989380E0
1.683662134E1,1.251541138E0,-3.632675171E0,-2.005081177E0
1.684666162E1,1.527832031E0,-3.612670898E0,-1.972229004E0
1.685673242E1,1.681213379E0,-3.524291992E0,-2.001556396E0
1.686683374E1,2.537429810E0,-3.582763672E0,-2.367874146E0
1.687690454E1,3.373535156E0,-3.773422241E0,-2.940399170E0
1.688694482E1,3.262039185E0,-3.576461792E0,-2.813980103E0
1.689701562E1,2.971633911E0,-3.233367920E0,-2.473999023E0
1.690714746E1,3.005432129E0,-2.996032715E0,-2.322189331E0
1.691734033E1,3.072769165E0,-2.802261353E0,-2.264846802E0
1.692756372E1,3.075912476E0,-2.549835205E0,-2.090301514E0
1.693781763E1,3.140625000E0,-2.197875977E0,-1.913269043E0
1.694788843E1,3.195053101E0,-1.777648926E0,-1.701858521E0
1.695805078E1,3.277908325E0,-1.384475708E0,-1.520965576E0
1.696830469E1,3.200668335E0,-1.089447021E0,-1.421752930E0
1.697840601E1,2.889602661E0,-9.040222168E-1,-1.332687378E0
1.698853784E1,2.717941284E0,-7.996826172E-1,-1.311447144E0
1.699772363E1,2.668121338E0,-6.327362061E-1,-1.232711792E0
1.700806909E1,2.265899658E0,-3.021240234E-1,-9.014434814E-1
1.701789575E1,1.484161377E0,-5.880737305E-2,-4.736785889E-1
1.702793604E1,7.436676025E-1,5.916137695E-1,2.037811279E-1
1.703803735E1,3.714599609E-1,1.529281616E0,8.904571533E-1
1.704810815E1,4.249572754E-1,1.959686279E0,9.866943359E-1
1.705814844E1,4.795989990E-1,2.107543945E0,8.479309082E-1
1.706821924E1,4.620208740E-1,1.931335449E0,5.584411621E-1
1.707832056E1,4.131164551E-1,1.832595825E0,4.505615234E-1
1.708839136E1,3.766632080E-1,1.692291260E0,2.909851074E-1
1.709843164E1,3.400421143E-1,1.508270264E0,1.510925293E-1
1.710850244E1,1.454010010E-1,1.444351196E0,1.210784912E-1
1.711860376E1,-5.541381836E-1,1.558578491E0,3.321075439E-1
1.712867456E1,-1.320068359E0,1.878051758E0,6.756286621E-1
1.713871484E1,-1.687347412E0,2.146148682E0,8.533020020E-1
1.714878564E1,-1.858489990E0,2.296005249E0,9.271240234E-1
1.715885644E1,-2.071884155E0,2.500732422E0,1.029342651E0
1.716892725E1,-2.305969238E0,2.750976562E0,1.170028687E0
1.717902856E1,-2.277740479E0,2.845962524E0,1.178512573E0
1.718909936E1,-1.996429443E0,2.779663086E0,1.018127441E0
1.719917017E1,-1.865310669E0,2.785140991E0,9.093933105E-1
1.720921045E1,-1.587554932E0,2.722656250E0,7.239379883E-1
1.721928125E1,-1.041610718E0,2.540374756E0,4.230957031E-1
1.722938257E1,-8.092651367E-1,2.492462158E0,2.667388916E-1
1.723945337E1,-8.311462402E-1,2.557830811E0,2.306823730E-1
1.724949365E1,-1.474731445E0,2.992645264E0,5.895843506E-1
1.725956445E1,-1.156570435E0,3.139816284E0,7.479553223E-1
1.726963525E1,-5.620727539E-1,3.038055420E0,6.142272949E-1
1.727973657E1,2.838134766E-3,2.769073486E0,3.212890625E-1
1.728980737E1,1.394653320E-1,2.657638550E0,1.927642822E-1
1.729987817E1,2.691192627E-1,2.636657715E0,1.838073730E-1
1.731007104E1,4.834289551E-1,2.638122559E0,1.955108643E-1
1.732029443E1,9.899902344E-1,2.579193115E0,2.201690674E-1
1.733048731E1,1.702362061E0,2.527114868E0,3.154144287E-1
1.734068018E1,2.596786499E0,2.562255859E0,5.363464355E-1
1.735090356E1,3.183151245E0,2.476104736E0,6.700134277E-1
1.736109644E1,3.488998413E0,2.299194336E0,6.319122314E-1
1.737116724E1,3.766357422E0,2.126251221E0,6.430206299E-1
1.738132959E1,3.902252197E0,1.908782959E0,6.427154541E-1
1.739048486E1,3.944946289E0,1.681259155E0,6.060943604E-1
1.740058618E1,3.818893433E0,1.447113037E0,5.183715820E-1
1.741102319E1,3.606475830E0,1.230392456E0,3.928375244E-1
1.742072778E1,3.213272095E0,7.627563477E-1,8.901977539E-2
1.743076807E1,2.777526855E0,4.395446777E-1,-1.514587402E-1
1.744083887E1,2.382949829E0,3.562774658E-1,-2.640380859E-1
1.745094019E1,2.015350342E0,2.851409912E-1,-3.609008789E-1
1.746101099E1,1.768203735E0,2.791137695E-1,-3.608398438E-1
1.747105127E1,1.669738770E0,3.624420166E-1,-2.706909180E-1
1.748112207E1,1.576751709E0,5.009002686E-1,-1.435852051E-1
1.749122339E1,1.502517700E0,6.595458984E-1,-1.719665527E-2
1.750129419E1,1.475265503E0,8.020172119E-1,1.048583984E-1
1.751133447E1,1.460906982E0,8.764190674E-1,2.106933594E-1
1.752140527E1,1.544586182E0,8.744354248E-1,3.047485352E-1
1.753150659E1,1.653305054E0,8.072204590E-1,3.770904541E-1
1.754157739E1,1.628234863E0,7.041778564E-1,3.710632324E-1
1.755164819E1,1.366088867E0,5.579986572E-1,2.472534180E-1
1.756168848E1,1.093704224E0,4.500274658E-1,1.074981689E-1
1.757178980E1,9.586486816E-1,3.956604004E-1,4.231262207E-2
1.758186060E1,7.203826904E-1,3.319091797E-1,-7.528686523E-2
1.759193140E1,-3.446960449E-2,2.823638916E-1,-5.076904297E-1
1.760197168E1,-5.008544922E-1,2.160949707E-1,-7.823944092E-1
1.761204248E1,-7.757415771E-1,1.240997314E-1,-9.769134521E-1
1.762214380E1,-7.990112305E-1,4.010009766E-2,-1.024475098E0
1.763221460E1,-6.202087402E-1,-3.654479980E-2,-9.320983887E-1
1.764225488E1,-4.027709961E-1,-2.430725098E-2,-7.901916504E-1
1.765235620E1,-1.806030273E-1,1.483306885E-1,-5.870056152E-1
1.766242700E1,-2.471923828E-3,2.749481201E-1,-4.155578613E-1
1.767249780E1,2.139587402E-1,3.443603516E-1,-2.383728027E-1
1.768253809E1,4.649200439E-1,3.133544922E-1,-7.040405273E-2
1.769260889E1,7.234497070E-1,1.855926514E-1,5.456542969E-2
1.770280176E1,9.103851318E-1,5.807495117E-2,1.432495117E-1
1.771302515E1,1.098785400E0,-4.159545898E-2,1.965942383E-1
1.772315698E1,1.246124268E0,-1.494445801E-1,2.247619629E-1
1.773341089E1,1.297698975E0,-2.738952637E-1,2.434387207E-1
1.774363428E1,1.271774292E0,-3.202972412E-1,2.433319092E-1
1.775382715E1,1.127456665E0,-2.848968506E-1,2.369689941E-1
1.776392847E1,9.541015625E-1,-2.216949463E-1,2.247009277E-1
1.777402978E1,8.033447266E-1,-1.222686768E-1,2.200775146E-1
1.778324609E1,5.606231689E-1,-6.152343750E-2,2.039947510E-1
1.779331690E1,2.998504639E-1,-3.417968750E-2,1.356658936E-1
1.780341821E1,-2.546691895E-2,-5.015563965E-2,2.114868164E-2
1.781483179E1,-4.050750732E-1,-1.006011963E-1,-1.360931396E-1
1.782352930E1,-7.556915283E-1,-1.707611084E-1,-2.968750000E-1
1.783360010E1,-1.072753906E0,-2.311859131E-1,-4.095306396E-1
1.784370142E1,-1.353439331E0,-2.633972168E-1,-4.509124756E-1
1.785377222E1,-1.613922119E0,-2.185363770E-1,-4.063720703E-1
1.786384302E1,-1.847167969E0,-1.132354736E-1,-2.937011719E-1
1.787388330E1,-2.068847656E0,-2.786254883E-2,-1.407928467E-1
1.788395410E1,-2.241638184E0,-3.300476074E-2,1.870727539E-2
1.789405542E1,-2.531600952E0,-2.794036865E-1,4.025268555E-2
1.790412622E1,-2.955917358E0,-5.968627930E-1,-3.312683105E-2
1.791416650E1,-3.532272339E0,-9.022216797E-1,-1.634674072E-1
1.792423731E1,-4.127319336E0,-1.060363770E0,-2.046966553E-1
1.793433862E1,-4.638122559E0,-1.215515137E0,-1.695556641E-1
1.794437891E1,-5.170211792E0,-1.431137085E0,-1.760864258E-1
1.795444971E1,-5.785949707E0,-1.638946533E0,-1.702575684E-1
1.796455103E1,-6.247787476E0,-1.863601685E0,-1.672821045E-1
1.797462183E1,-6.701965332E0,-2.170333862E0,-2.091674805E-1
1.798466211E1,-7.277877808E0,-2.611648560E0,-3.998107910E-1
1.799476343E1,-7.557464600E0,-2.987365723E0,-6.301574707E-1
1.800483423E1,-7.541397095E0,-3.261291504E0,-8.188018799E-1
1.801490503E1,-7.273620605E0,-3.465560913E0,-1.004165649E0
1.802494531E1,-6.776672363E0,-3.588928223E0,-1.187805176E0
1.803504663E1,-5.723678589E0,-3.645675659E0,-1.276657104E0
1.804508691E1,-4.713317871E0,-3.623428345E0,-1.194946289E0
1.805515772E1,-3.591079712E0,-3.541534424E0,-9.888458252E-1
1.806516748E1,-2.243438721E0,-3.441818237E0,-8.610534668E-1
1.807532983E1,-1.073074341E0,-3.347610474E0,-7.708587646E-1
1.808537012E1,-1.763305664E-1,-3.236190796E0,-6.609039307E-1
1.809550195E1,9.922180176E-1,-3.214492798E0,-8.050842285E-1
1.810572534E1,1.869461060E0,-3.248474121E0,-1.111633301E0
1.811591821E1,2.138198853E0,-3.229949951E0,-1.377090454E0
1.812614160E1,2.278701782E0,-3.167221069E0,-1.664505005E0
1.813630396E1,2.434112549E0,-3.156478882E0,-1.934036255E0
1.814652734E1,2.617279053E0,-3.066131592E0,-2.006500244E0
1.815672022E1,2.810958862E0,-2.891952515E0,-1.902038574E0
1.816676050E1,3.373168945E0,-2.746520996E0,-1.907455444E0
1.817603784E1,3.898117065E0,-2.644775391E0,-2.087493896E0
1.818610864E1,3.766265869E0,-2.454284668E0,-2.024078369E0
1.819614893E1,3.699462891E0,-2.269073486E0,-1.983108521E0
1.820621973E1,3.566619873E0,-2.125640869E0,-1.934341431E0
1.821772485E1,3.386306763E0,-1.919219971E0,-1.821746826E0
1.822639185E1,3.263824463E0,-1.665649414E0,-1.694107056E0
1.823643213E1,3.164108276E0,-1.391540527E0,-1.498077393E0
1.824650293E1,3.067382812E0,-1.004730225E0,-1.250839233E0
1.825660425E1,2.949172974E0,-4.937744141E-1,-9.445495605E-1
1.826667505E1,3.066543579E0,-1.127624512E-1,-8.305358887E-1
1.827674585E1,2.659774780E0,2.343597412E-1,-5.515594482E-1
1.828678613E1,1.987869263E0,5.448913574E-1,-1.715850830E-1
1.829688745E1,1.238433838E0,8.450622559E-1,2.405242920E-1
1.830695825E1,8.145599365E-1,1.200454712E0,5.596466064E-1
1.831699854E1,7.364044189E-1,1.555160522E0,6.947479248E-1
1.832706934E1,7.819213867E-1,1.687500000E0,5.980529785E-1
1.833717065E1,7.196960449E-1,1.544387817E0,3.595123291E-1
1.834724146E1,6.686553955E-1,1.496063232E0,2.366027832E-1
1.835731226E1,5.654754639E-1,1.376663208E0,1.610565186E-1
1.836738306E1,4.071197510E-1,1.204925537E0,1.349792480E-1
1.837745386E1,2.975769043E-1,1.049072266E0,6.867980957E-2
1.838752466E1,2.104187012E-1,8.983917236E-1,2.136230469E-4
1.839759546E1,8.683776855E-2,8.398437500E-1,-7.093811035E-2
1.840763574E1,-1.224212646E-1,8.670196533E-1,-9.474182129E-2
1.841770654E1,-4.579010010E-1,9.404602051E-1,-3.210449219E-2
1.842780786E1,-9.223022461E-1,1.091033936E0,8.340454102E-2
1.843787866E1,-1.610366821E0,1.395324707E0,3.006134033E-1
1.844791894E1,-2.234909058E0,1.741592407E0,5.263671875E-1
1.845802026E1,-2.329071045E0,1.935272217E0,5.949401855E-1
1.846809106E1,-2.000183105E0,1.963760376E0,4.866485596E-1
1.847813135E1,-1.779830933E0,2.115447998E0,4.589538574E-1
1.848820215E1,-1.740570068E0,2.420516968E0,5.935821533E-1
1.849839502E1,-1.608749390E0,2.594528198E0,6.912689209E-1
1.850858789E1,-1.590744019E0,2.781753540E0,7.668762207E-1
1.851878076E1,-1.691787720E0,2.956481934E0,8.905181885E-1
1.852900415E1,-1.325500488E0,2.901275635E0,8.047027588E-1
1.853919702E1,-6.409912109E-1,2.702957153E0,5.693969727E-1
1.854938989E1,-3.741607666E-1,2.643325806E0,4.777069092E-1
1.855961328E1,-6.274719238E-1,2.674545288E0,4.844665527E-1
1.856956201E1,-5.593719482E-1,2.549316406E0,3.459930420E-1
1.857886987E1,-5.408325195E-1,2.491867065E0,2.673645020E-1
1.858891016E1,-4.099426270E-1,2.481369019E0,2.734069824E-1
1.859898096E1,-2.822875977E-3,2.519317627E0,4.007873535E-1
1.860905176E1,7.047576904E-1,2.633560181E0,7.049560547E-1
1.862058740E1,1.239364624E0,2.666732788E0,9.145660400E-1
1.862922388E1,1.609222412E0,2.490081787E0,8.501586914E-1
1.863926416E1,1.784973145E0,2.308319092E0,7.323608398E-1
1.864936548E1,2.037200928E0,2.200180054E0,7.166137695E-1
1.865943628E1,2.362518311E0,2.130157471E0,7.392578125E-1
1.866947656E1,2.696487427E0,2.064758301E0,7.554473877E-1
1.867954736E1,2.960784912E0,1.942779541E0,7.593994141E-1
1.868961816E1,3.187469482E0,1.804397583E0,7.563781738E-1
1.869968896E1,3.281936646E0,1.620452881E0,7.113037109E-1
1.870979028E1,3.104660034E0,1.363769531E0,5.572814941E-1
1.871986108E1,2.719314575E0,1.085525513E0,3.250885010E-1
1.872990137E1,2.297103882E0,8.057861328E-1,1.004333496E-1
1.873997217E1,1.906784058E0,5.701904297E-1,-1.008911133E-1
1.875004297E1,1.623153687E0,3.990173340E-1,-2.145996094E-1
1.876014429E1,1.476623535E0,3.440093994E-1,-2.467651367E-1
1.877021509E1,1.433074951E0,2.769012451E-1,-2.390441895E-1
1.878025537E1,1.422760010E0,1.787261963E-1,-2.194213867E-1
1.879032617E1,1.424880981E0,7.937622070E-2,-2.109375000E-1
1.880042749E1,1.401702881E0,-1.289367676E-2,-2.112731934E-1
1.881049829E1,1.347396851E0,-8.665466309E-2,-2.145385742E-1
1.882056909E1,1.272125244E0,-1.385803223E-1,-2.182617188E-1
1.883060938E1,1.166839600E0,-1.691436768E-1,-2.259368896E-1
1.884068018E1,1.063995361E0,-1.557312012E-1,-2.414093018E-1
1.885078149E1,9.177703857E-1,-1.294860840E-1,-2.612304688E-1
1.886085230E1,8.022003174E-1,-7.467651367E-2,-2.558441162E-1
1.887089258E1,7.512359619E-1,7.934570312E-3,-1.873474121E-1
1.888096338E1,7.562561035E-1,9.381103516E-2,-8.489990234E-2
1.889109522E1,7.740173340E-1,1.495971680E-1,-1.138305664E-2
1.890131860E1,6.798706055E-1,2.335968018E-1,1.937866211E-3
1.891151148E1,4.987487793E-1,3.430938721E-1,-4.086303711E-2
1.892179590E1,3.122558594E-1,4.970855713E-1,-8.039855957E-2
1.893192773E1,6.347656250E-2,6.679840088E-1,-1.670532227E-1
1.894212060E1,-1.697845459E-1,7.908477783E-1,-3.095397949E-1
1.895231348E1,-3.995361328E-1,7.662353516E-1,-4.415283203E-1
1.896235376E1,-4.322662354E-1,6.568603516E-1,-5.364379883E-1
1.897160059E1,-3.704376221E-1,6.022644043E-1,-5.606231689E-1
1.898167139E1,-3.688659668E-1,5.038146973E-1,-6.335601807E-1
1.899177271E1,-4.972076416E-1,4.003295898E-1,-7.532653809E-1
1.900184351E1,-6.276550293E-1,3.923339844E-1,-7.713012695E-1
1.901188379E1,-5.018920898E-1,4.131317139E-1,-6.349334717E-1
1.902259546E1,-3.583831787E-1,3.913421631E-1,-5.474548340E-1
1.903205591E1,-2.359466553E-1,3.575439453E-1,-5.354461670E-1
1.904212671E1,-1.622467041E-1,3.043060303E-1,-5.334472656E-1
1.905219751E1,-9.916687012E-2,2.375640869E-1,-5.184631348E-1
1.906223779E1,7.217407227E-3,1.938934326E-1,-4.771270752E-1
1.907230859E1,1.507415771E-1,1.194152832E-1,-4.237060547E-1
1.908240991E1,3.000488281E-1,-8.203125000E-2,-3.822326660E-1
1.909248071E1,4.311828613E-1,-2.927093506E-1,-3.617248535E-1
1.910252100E1,4.863891602E-1,-3.554229736E-1,-3.384857178E-1
1.911259180E1,5.773620605E-1,-3.729400635E-1,-2.946624756E-1
1.912266260E1,6.636047363E-1,-4.409942627E-1,-2.187652588E-1
1.913276392E1,7.596893311E-1,-4.895019531E-1,-1.306152344E-1
1.914283472E1,7.791137695E-1,-4.786376953E-1,-4.884338379E-2
1.915287500E1,6.737518311E-1,-4.040527344E-1,8.529663086E-3
1.916294580E1,4.605560303E-1,-3.240356445E-1,3.732299805E-2
1.917304712E1,1.954650879E-1,-2.807617188E-1,4.142761230E-2
1.918308740E1,-8.335876465E-2,-2.550201416E-1,4.258728027E-2
1.919315820E1,-3.131866455E-1,-1.973266602E-1,4.647827148E-2
1.920322900E1,-7.400970459E-1,-1.309967041E-1,-8.483886719E-2
1.921326929E1,-1.811828613E0,1.241302490E-1,-4.432983398E-1
1.922340112E1,-2.524520874E0,2.853088379E-1,-5.814361572E-1
1.923347192E1,-2.470703125E0,9.457397461E-2,-4.600067139E-1
1.924354272E1,-2.457794189E0,-2.550048828E-1,-4.135437012E-1
1.925361353E1,-2.348983765E0,-5.485076904E-1,-3.161315918E-1
1.926365828E1,-2.145553589E0,-8.383789062E-1,-1.900787354E-1
1.927372908E1,-2.081085205E0,-1.096801758E0,-1.040954590E-1
1.928379988E1,-2.180679321E0,-1.221054077E0,-5.877685547E-2
1.929390120E1,-2.488723755E0,-1.359268188E0,-1.205902100E-1
1.930409407E1,-2.879669189E0,-1.437393188E0,-1.917419434E-1
1.931431746E1,-3.510864258E0,-1.438796997E0,-2.706604004E-1
1.932451033E1,-4.467575073E0,-1.437896729E0,-4.278259277E-1
1.933470320E1,-5.258224487E0,-1.523345947E0,-6.013641357E-1
1.934489607E1,-5.549285889E0,-1.618759155E0,-6.598815918E-1
1.935508894E1,-5.858322144E0,-1.762649536E0,-7.728424072E-1
1.936509871E1,-6.299316406E0,-1.900482178E0,-9.524841309E-1
1.937446760E1,-6.452774048E0,-2.008575439E0,-1.138107300E0
1.938453840E1,-6.000106812E0,-2.055923462E0,-1.222198486E0
1.939457869E1,-5.245483398E0,-2.069503784E0,-1.250534058E0
1.940464949E1,-4.430694580E0,-2.053070068E0,-1.174377441E0
1.941472029E1,-3.521530151E0,-1.935897827E0,-9.829406738E-1
1.942540144E1,-2.420532227E0,-1.716384888E0,-6.012115479E-1
1.943489241E1,-7.387695312E-1,-1.424789429E0,7.649230957E-2
1.944493269E1,1.875839233E0,-1.275131226E0,7.128753662E-1
1.945500349E1,4.018707275E0,-1.234375000E0,9.872436523E-1
1.946510481E1,4.806030273E0,-1.198913574E0,9.554748535E-1
1.947517561E1,4.397659302E0,-1.092758179E0,8.438873291E-1
1.948521589E1,4.349365234E0,-9.943695068E-1,7.477111816E-1
1.949528670E1,4.059906006E0,-8.941497803E-1,6.209259033E-1
1.950538801E1,3.533554077E0,-7.758483887E-1,5.091857910E-1
1.951545881E1,3.089797974E0,-7.241668701E-1,3.435363770E-1
1.952549910E1,2.904312134E0,-7.608947754E-1,1.136016846E-1
1.953556990E1,2.873535156E0,-5.521850586E-1,1.845397949E-1
1.954567122E1,3.052993774E0,-2.297210693E-1,4.466400146E-1
1.955574202E1,3.477111816E0,-8.261108398E-2,5.864257812E-1
1.956581282E1,3.445541382E0,-7.597351074E-2,4.915771484E-1
1.957585310E1,3.163391113E0,-5.554199219E-2,3.351898193E-1
1.958595442E1,3.054565430E0,-9.831237793E-2,2.123565674E-1
1.959602522E1,3.167404175E0,-3.578033447E-1,1.484680176E-2
1.960609602E1,2.908416748E0,-5.095672607E-1,-1.060943604E-1
1.961613630E1,2.468383789E0,-4.698028564E-1,-1.428833008E-1
1.962620711E1,2.141418457E0,-4.411163330E-1,-1.570434570E-1
1.963630842E1,1.820587158E0,-3.717651367E-1,-1.584930420E-1
1.964637922E1,1.447204590E0,-3.305816650E-1,-2.019348145E-1
1.965641951E1,3.447875977E-1,-4.753265381E-1,-5.129241943E-1
1.966652083E1,-6.898193359E-1,-5.180816650E-1,-7.734832764E-1
1.967659163E1,-1.145126343E0,-1.091766357E-1,-6.580047607E-1
1.968666243E1,-1.512512207E0,4.434661865E-1,-4.179687500E-1
1.969688582E1,-1.566497803E0,8.173522949E-1,-2.097625732E-1
1.970707869E1,-1.177703857E0,7.939758301E-1,-1.210937500E-1
1.971727156E1,-8.222351074E-1,6.592712402E-1,-1.085662842E-1
1.972746443E1,-6.610107422E-1,6.072082520E-1,-1.133575439E-1
1.973768782E1,-7.966613770E-1,7.126312256E-1,-8.540344238E-2
1.974788069E1,-1.013290405E0,8.719329834E-1,-8.074951172E-2
1.975798201E1,-1.319900513E0,1.074508667E0,-4.386901855E-2
1.976719832E1,-1.561035156E0,1.220703125E0,3.062438965E-2
1.977726912E1,-1.790786743E0,1.429962158E0,1.554870605E-1
1.978737044E1,-2.046768188E0,1.683486938E0,3.164978027E-1
1.979741072E1,-2.265365601E0,1.867614746E0,4.587707520E-1
1.980748152E1,-2.441055298E0,1.939758301E0,5.345306396E-1
1.981755232E1,-2.522598267E0,1.894149780E0,5.228576660E-1
1.982924055E1,-2.418151855E0,1.704177856E0,4.210357666E-1
1.983769392E1,-2.366958618E0,1.532165527E0,3.451843262E-1
1.984779524E1,-2.284683228E0,1.398208618E0,2.596435547E-1
1.985786604E1,-2.265960693E0,1.241378784E0,1.241455078E-1
1.986793684E1,-2.175750732E0,1.013259888E0,-9.233093262E-2
1.987797712E1,-2.060653687E0,7.981109619E-1,-3.238983154E-1
1.988804793E1,-1.957824707E0,7.122497559E-1,-4.251708984E-1
1.989811873E1,-1.851867676E0,7.712402344E-1,-2.995147705E-1
1.990818953E1,-1.749862671E0,8.715667725E-1,-1.048431396E-1
1.991826033E1,-1.491989136E0,9.907073975E-1,1.694183350E-1
1.992836165E1,-9.329223633E-1,9.872436523E-1,3.266143799E-1
1.993843245E1,-3.407135010E-1,8.177642822E-1,2.543945312E-1
1.994847273E1,-1.277160645E-2,6.387786865E-1,8.488464355E-2
1.995854353E1,3.979949951E-1,5.832061768E-1,8.035278320E-2
1.996861433E1,6.629486084E-1,5.482482910E-1,1.258392334E-1
1.997868513E1,8.900451660E-1,5.286407471E-1,1.557617188E-1
1.998878645E1,1.542282104E0,4.985046387E-1,3.614349365E-1
1.999885725E1,1.770584106E0,4.660034180E-1,4.432830811E-1
2.000892805E1,1.736343384E0,4.196166992E-1,4.045562744E-1
2.001899885E1,1.837585449E0,3.566436768E-1,3.863830566E-1
2.002906965E1,1.957794189E0,2.170104980E-1,3.042144775E-1
2.003910994E1,2.046188354E0,6.437683105E-2,1.822204590E-1
2.004918074E1,2.143173218E0,-9.750366211E-2,4.852294922E-2
2.005928206E1,2.129516602E0,-2.364654541E-1,-6.741333008E-2
2.006935286E1,1.957885742E0,-2.302703857E-1,-1.351623535E-1
2.007939314E1,1.722885132E0,-1.343994141E-1,-1.705322266E-1
2.008946394E1,1.442428589E0,-8.750915527E-2,-2.235717773E-1
2.009968733E1,1.246627808E0,-5.664062500E-2,-2.586059570E-1
2.010988020E1,1.089202881E0,-1.107788086E-2,-2.457427979E-1
2.012007307E1,9.838714600E-1,7.283020020E-2,-2.080230713E-1
2.013026594E1,8.584136963E-1,1.394958496E-1,-1.651306152E-1
2.014045881E1,7.938690186E-1,1.971435547E-1,-1.335296631E-1
2.015065168E1,7.688598633E-1,2.276306152E-1,-1.006622314E-1
2.016084456E1,7.392578125E-1,2.725524902E-1,-6.173706055E-2
2.017085432E1,6.977081299E-1,3.270568848E-1,-3.788757324E-2
2.018013166E1,5.846557617E-1,3.730621338E-1,-4.353332520E-2
2.019017195E1,5.154876709E-1,4.565734863E-1,7.781982422E-4
2.020027327E1,4.651184082E-1,5.364990234E-1,7.817077637E-2
2.021034407E1,4.467620850E-1,5.788421631E-1,1.202850342E-1
2.022038435E1,4.067993164E-1,5.613861084E-1,1.017913818E-1
2.023204207E1,3.202972412E-1,5.027770996E-1,4.301452637E-2
2.024055647E1,2.269439697E-1,4.450378418E-1,-1.336669922E-2
2.025062727E1,1.813812256E-1,4.239349365E-1,-4.316711426E-2
2.026069807E1,1.627197266E-1,4.300842285E-1,-4.203796387E-2
2.027073836E1,2.578735352E-3,3.734130859E-1,-1.357269287E-1
2.028080916E1,-2.254333496E-1,2.651062012E-1,-3.283691406E-1
2.029091047E1,-4.895782471E-1,1.184539795E-1,-5.333251953E-1
