"Time (s)","Acceleration x (m/s^2)","Acceleration y (m/s^2)","Acceleration z (m/s^2)"
3.791151000E-3,-1.898601890E0,1.843535304E0,9.421183586E0
5.866346000E-3,-1.884236693E0,1.838746905E0,9.437943459E0
7.880506000E-3,-1.898601890E0,1.843535304E0,9.464279175E0
9.894666000E-3,-1.929726601E0,1.838746905E0,9.478644371E0
1.187830900E-2,-1.960851192E0,1.829170108E0,9.528923035E0
1.389246900E-2,-1.987187386E0,1.812410712E0,9.531316757E0
1.587611200E-2,-2.013523579E0,1.805228114E0,9.526528358E0
1.785975400E-2,-2.080561161E0,1.783680320E0,9.538499832E0
1.987391400E-2,-2.116474390E0,1.783680320E0,9.548076630E0
2.188807500E-2,-2.202665567E0,1.745373011E0,9.528923035E0
2.387171700E-2,-2.260126352E0,1.709460020E0,9.516951561E0
2.585536000E-2,-2.305616140E0,1.695094824E0,9.507374763E0
2.786952000E-2,-2.363077164E0,1.659181833E0,9.478644371E0
2.985316200E-2,-2.422932148E0,1.596932530E0,9.382876396E0
3.186732300E-2,-2.437297344E0,1.565807939E0,9.380482674E0
3.385096500E-2,-2.494758129E0,1.513135433E0,9.361329079E0
3.583460800E-2,-2.535459518E0,1.455674648E0,9.332598686E0
3.784876800E-2,-2.573766708E0,1.422155857E0,9.294290543E0
3.983241100E-2,-2.655169725E0,1.352723956E0,9.220070839E0
4.181605300E-2,-2.700659513E0,1.302445769E0,9.167398453E0
4.379969600E-2,-2.736572504E0,1.283292055E0,9.148244858E0
4.578333800E-2,-2.806004286E0,1.252167463E0,9.078812599E0
4.779749800E-2,-2.858676910E0,1.192312479E0,9.021351814E0
4.978114100E-2,-2.896984100E0,1.173158884E0,8.987833023E0
5.176478400E-2,-2.980781078E0,1.137245774E0,8.954314232E0
5.374842600E-2,-3.004723072E0,1.115697980E0,8.932766914E0
5.573206900E-2,-3.052607059E0,1.074996591E0,8.906430244E0
5.771571100E-2,-3.100491285E0,1.031900883E0,8.872911453E0
5.972987100E-2,-3.122039080E0,9.983820915E-1,8.875306129E0
6.171351400E-2,-3.150769472E0,9.457096457E-1,8.844181061E0
6.369715700E-2,-3.174711466E0,9.193734527E-1,8.868123055E0
6.574183400E-2,-3.181894064E0,9.026140571E-1,8.884882927E0
6.772547700E-2,-3.189076662E0,8.738836050E-1,8.956708908E0
6.973963700E-2,-3.208230257E0,8.643068075E-1,9.050082207E0
7.172328000E-2,-3.217807055E0,8.499416113E-1,9.064447403E0
7.373744000E-2,-3.244143248E0,8.403648138E-1,9.114726067E0
7.572108200E-2,-3.246537447E0,8.427590132E-1,9.165003777E0
7.770472500E-2,-3.246537447E0,8.499416113E-1,9.212887764E0
7.971888500E-2,-3.244143248E0,8.379706144E-1,9.294290543E0
8.173304500E-2,-3.220201254E0,8.523358107E-1,9.339780807E0
8.371668800E-2,-3.215412855E0,8.523358107E-1,9.394847870E0
8.570033000E-2,-3.186682463E0,8.451532125E-1,9.459490776E0
8.771449100E-2,-3.177105665E0,8.571242094E-1,9.526528358E0
8.972865100E-2,-3.157952070E0,8.523358107E-1,9.545681953E0
9.171229300E-2,-3.165134668E0,8.427590132E-1,9.555258751E0
9.372645300E-2,-3.169923067E0,8.451532125E-1,9.576807022E0
9.571009600E-2,-3.160346270E0,8.475474119E-1,9.641449928E0
9.772425600E-2,-3.126827478E0,8.619126081E-1,9.732429504E0
9.970789900E-2,-3.105279684E0,8.643068075E-1,9.789890289E0
1.016915410E-1,-3.059789658E0,8.571242094E-1,9.854534149E0
1.037057020E-1,-3.007117271E0,8.571242094E-1,9.938331604E0
1.056893440E-1,-2.959233284E0,8.667010069E-1,9.976638794E0
1.077035040E-1,-2.911349297E0,8.690952063E-1,1.008677197E1
1.096871470E-1,-2.875436306E0,8.571242094E-1,1.019690514E1
1.116707890E-1,-2.858676910E0,8.595184088E-1,1.022324085E1
1.136849500E-1,-2.813186884E0,8.954314590E-1,1.029985619E1
1.156685920E-1,-2.758120298E0,9.121908545E-1,1.038365269E1
1.176827520E-1,-2.734178305E0,9.193734527E-1,1.042674828E1
1.196663950E-1,-2.691082716E0,9.385270476E-1,1.042195988E1
1.216500370E-1,-2.650381327E0,9.481038451E-1,1.041717148E1
1.236641980E-1,-2.636016130E0,9.528923035E-1,1.041717148E1
1.256478400E-1,-2.612074137E0,9.624691010E-1,1.042195988E1
1.276620000E-1,-2.561795712E0,9.672574997E-1,1.032858658E1
1.296456430E-1,-2.530671120E0,9.768342972E-1,1.029506683E1
1.316292860E-1,-2.494758129E0,9.768342972E-1,1.023281765E1
1.336434460E-1,-2.473210335E0,9.744400978E-1,1.020648193E1
1.356270880E-1,-2.475604534E0,9.600749016E-1,1.012507915E1
1.376412480E-1,-2.470816135E0,9.289502501E-1,1.004128170E1
1.396554090E-1,-2.492363930E0,9.337386489E-1,1.001733971E1
1.416390510E-1,-2.516305923E0,9.289502501E-1,9.909601212E0
1.436226940E-1,-2.434903145E0,9.145850539E-1,9.813833237E0
1.456063360E-1,-2.377442360E0,9.169792533E-1,9.746794701E0
1.476204960E-1,-2.410961151E0,9.074024558E-1,9.694122314E0
1.496041390E-1,-2.559401512E0,9.121908545E-1,9.674968719E0
1.516182990E-1,-2.652775526E0,9.193734527E-1,9.684545517E0
1.536019420E-1,-2.822763920E0,9.600749016E-1,9.651026726E0
1.555855840E-1,-2.985569477E0,1.053448796E0,9.583989143E0
1.575997450E-1,-3.069366693E0,1.091755986E0,9.581595421E0
1.595833870E-1,-3.210624456E0,1.156399369E0,9.555258751E0
1.615975470E-1,-3.311181068E0,1.225831270E0,9.500192642E0
1.635811900E-1,-3.347094059E0,1.256955862E0,9.500192642E0
1.655648320E-1,-3.428496838E0,1.323993564E0,9.478644371E0
1.675484750E-1,-3.469198227E0,1.357512355E0,9.433155060E0
1.695321180E-1,-3.497928619E0,1.414973259E0,9.241618156E0
1.715462780E-1,-3.500322819E0,1.450886250E0,8.930372238E0
1.735604380E-1,-3.507505417E0,1.470039845E0,8.813055992E0
1.755440800E-1,-3.502717018E0,1.493981838E0,8.626308441E0
1.775582410E-1,-3.411737442E0,1.496376038E0,8.501810074E0
1.795418830E-1,-3.332728863E0,1.501164436E0,8.408436775E0
1.815560430E-1,-3.105279684E0,1.539471745E0,8.252813339E0
1.835396860E-1,-2.906560898E0,1.580173135E0,8.164227486E0
1.855233280E-1,-2.829946518E0,1.608903527E0,8.137891769E0
1.875069710E-1,-2.695871115E0,1.690306425E0,8.140285492E0
1.894906140E-1,-2.657563925E0,1.764526606E0,8.341399193E0
1.915047740E-1,-2.633621931E0,1.802833915E0,8.408436775E0
1.935189340E-1,-2.578555346E0,1.917755604E0,8.432378769E0
1.955025770E-1,-2.554613113E0,2.003946781E0,8.446743965E0
1.974862190E-1,-2.552218914E0,2.039859772E0,8.485051155E0
1.994698620E-1,-2.573766708E0,2.123656988E0,8.626308441E0
2.014840220E-1,-2.600103140E0,2.169146776E0,8.748413086E0
2.034981820E-1,-2.607285738E0,2.252943754E0,8.798690796E0
2.054818250E-1,-2.602497339E0,2.327163935E0,8.860940933E0
2.074654670E-1,-2.614468336E0,2.358288765E0,8.901641846E0
2.094491100E-1,-2.633621931E0,2.434903145E0,9.011775017E0
2.114632700E-1,-2.693476915E0,2.537853718E0,9.107542992E0
2.134469120E-1,-2.825158119E0,2.705447912E0,9.153033257E0
2.154610730E-1,-3.062183857E0,2.999934673E0,9.210494041E0
2.174447150E-1,-3.227383852E0,3.232172251E0,9.258378029E0
2.194283580E-1,-3.294421434E0,3.337517262E0,9.320627213E0
2.214425180E-1,-3.421314240E0,3.536235809E0,9.390059471E0
2.234261610E-1,-3.560178041E0,3.768473387E0,9.416395187E0
2.254098030E-1,-3.622427225E0,3.871424198E0,9.440337181E0
2.273934460E-1,-3.775655985E0,4.082113743E0,9.488221169E0
2.293770880E-1,-3.907337189E0,4.237737179E0,9.610325813E0
2.313912480E-1,-3.902548790E0,4.209006786E0,9.682151794E0
2.334054090E-1,-3.859453201E0,4.060565948E0,9.825803757E0
2.353890510E-1,-3.840299606E0,4.015076160E0,9.921571732E0
2.374032110E-1,-3.816357613E0,4.017470360E0,9.940725327E0
2.393868540E-1,-3.830722809E0,4.022258759E0,9.995792389E0
2.414010140E-1,-3.931279182E0,4.053383350E0,1.001973438E1
2.433846570E-1,-3.931279182E0,4.022258759E0,1.010113716E1
2.453682990E-1,-3.919308186E0,3.845088005E0,1.025197124E1
2.473519420E-1,-3.916913986E0,3.797203779E0,1.026154804E1
2.493355840E-1,-3.921702385E0,3.730166197E0,1.022802925E1
2.513497450E-1,-3.916913986E0,3.667917013E0,1.025436592E1
2.533639050E-1,-3.892971992E0,3.560178041E0,1.031422138E1
2.553475470E-1,-3.818751812E0,3.349488258E0,1.039562416E1
2.573617070E-1,-3.754108191E0,3.208230257E0,1.036210537E1
2.593758680E-1,-3.722983599E0,3.114856482E0,1.040520096E1
2.613595100E-1,-3.854664803E0,2.849100113E0,1.145625496E1
2.633431530E-1,-3.857059002E0,2.715024710E0,1.164300251E1
2.653267950E-1,-3.725377798E0,2.643198729E0,1.146104336E1
2.673409550E-1,-3.299209833E0,2.446874142E0,1.067813969E1
2.693551160E-1,-3.014299870E0,2.221819162E0,9.947908401E0
2.713387580E-1,-2.956839085E0,2.104503393E0,9.809044838E0
2.733224010E-1,-2.961627483E0,1.802833915E0,9.935936928E0
2.753060430E-1,-2.942473888E0,1.642422318E0,1.024478912E1
2.773202030E-1,-2.904166698E0,1.376665950E0,1.038844109E1
2.793343640E-1,-2.803610086E0,1.132457376E0,1.065180302E1
2.813180060E-1,-2.765302896E0,1.027112484E0,1.075714779E1
2.833321660E-1,-2.700659513E0,8.786720037E-1,1.086728191E1
2.853158090E-1,-2.645592928E0,8.020575643E-1,1.087207031E1
2.873299690E-1,-2.580949545E0,7.709329724E-1,1.085770512E1
2.893136120E-1,-2.506729126E0,6.967126727E-1,1.084094524E1
2.912972540E-1,-2.422932148E0,6.440402865E-1,1.074517727E1
2.933114140E-1,-2.377442360E0,6.224924326E-1,1.066616821E1
2.952950570E-1,-2.279279947E0,5.889736414E-1,1.058476543E1
2.973092170E-1,-2.142810583E0,5.506663918E-1,1.052251625E1
2.993233770E-1,-2.061407566E0,5.315127969E-1,1.048660374E1
3.013070200E-1,-1.900996208E0,5.123591423E-1,1.043871975E1
3.032906620E-1,-1.711854219E0,4.908113480E-1,1.040280628E1
3.052743050E-1,-1.604115129E0,4.668693244E-1,1.038125896E1
3.072579480E-1,-1.340752959E0,4.261679053E-1,1.034774017E1
3.092415900E-1,-1.086967587E0,3.639186621E-1,1.029746151E1
3.112557500E-1,-9.648633003E-1,3.256114423E-1,1.026154804E1
3.132393930E-1,-7.685387731E-1,2.537853718E-1,1.026394272E1
3.152230360E-1,-6.895300746E-1,2.178723514E-1,1.025675964E1
3.172066780E-1,-5.554547906E-1,1.221042871E-1,1.024718285E1
3.191903210E-1,-4.094084799E-1,5.506663769E-2,1.027830791E1
3.212044810E-1,-3.423708379E-1,7.182605099E-3,1.027351952E1
3.231881230E-1,-2.130839527E-1,-8.619125932E-2,1.024478912E1
3.251717660E-1,-7.182604820E-2,-1.556231081E-1,1.027112484E1
3.271554090E-1,4.788403399E-3,-1.819593310E-1,1.028549004E1
3.291390510E-1,1.412578970E-1,-2.418143749E-1,1.029267311E1
3.311532110E-1,2.944868207E-1,-3.016694188E-1,1.026873112E1
3.331673710E-1,3.663128614E-1,-3.256114423E-1,1.024957752E1
3.351510140E-1,5.530605912E-1,-3.615244627E-1,1.024718285E1
3.371346570E-1,6.967126727E-1,-3.998316824E-1,1.022084713E1
3.391182990E-1,7.637503147E-1,-4.237737060E-1,1.021845245E1
3.411324590E-1,8.786720037E-1,-4.333505034E-1,1.019690514E1
3.431466200E-1,9.744400978E-1,-4.453215301E-1,1.016338634E1
3.451302620E-1,1.031900883E0,-4.525041282E-1,1.014902115E1
3.471139050E-1,1.113303781E0,-4.596867263E-1,1.010353088E1
3.490975470E-1,1.144428372E0,-4.644751251E-1,1.007240677E1
3.511117070E-1,1.213860273E0,-4.596867263E-1,1.004607010E1
3.531258680E-1,1.259350061E0,-4.357447028E-1,1.002452278E1
3.551095100E-1,1.276109457E0,-4.189853072E-1,1.001255131E1
3.570931530E-1,1.307234168E0,-4.309563041E-1,9.976638794E0
3.590767950E-1,1.288080573E0,-4.118026793E-1,9.926360130E0
3.610909550E-1,1.276109457E0,-4.070142806E-1,9.902418137E0
3.630745980E-1,1.237802267E0,-3.830722570E-1,9.856928825E0
3.650582410E-1,1.170764685E0,-3.495534360E-1,9.789890289E0
3.670418830E-1,1.154005170E0,-3.327940404E-1,9.746794701E0
3.690255260E-1,1.137245774E0,-3.280056417E-1,9.718064308E0
3.710396860E-1,1.108515382E0,-3.064578176E-1,9.682151794E0
3.730233280E-1,1.077390790E0,-3.064578176E-1,9.662998199E0
3.750374890E-1,1.029506683E0,-3.136404157E-1,9.636661530E0
3.770211310E-1,1.031900883E0,-3.160346150E-1,9.548076630E0
3.790047740E-1,1.039083481E0,-3.016694188E-1,9.502586365E0
3.810189340E-1,1.024718285E0,-2.561795712E-1,9.442731857E0
3.830025770E-1,1.017535686E0,-2.370259613E-1,9.409213066E0
3.850167370E-1,1.024718285E0,-1.460463107E-1,9.399636269E0
3.870308970E-1,1.012747288E0,3.351882473E-2,9.358934402E0
3.890145390E-1,9.840168953E-1,1.268926859E-1,9.349357605E0
3.910287000E-1,8.810662031E-1,3.208230138E-1,9.337387085E0
3.930123420E-1,7.805097699E-1,5.147533417E-1,9.272743225E0
3.950265020E-1,7.302315235E-1,6.153098345E-1,9.260771751E0
3.970101450E-1,5.482721925E-1,7.613561153E-1,9.222464561E0
3.989937870E-1,3.950432837E-1,8.523358107E-1,9.150638580E0
4.010079480E-1,3.208230138E-1,8.930372596E-1,9.083600998E0
4.029915900E-1,2.059013397E-1,9.528923035E-1,8.985439301E0
4.049752330E-1,1.268926859E-1,9.720458984E-1,8.829815865E0
4.069588750E-1,1.053448766E-1,9.720458984E-1,8.755595207E0
4.089425180E-1,1.005564705E-1,9.624691010E-1,8.655038834E0
4.109566780E-1,1.340752989E-1,9.193734527E-1,8.544905663E0
4.129708380E-1,1.580173075E-1,9.050082564E-1,8.489839554E0
4.149544810E-1,2.202665508E-1,8.762778044E-1,8.403648376E0
4.169686410E-1,3.016694188E-1,8.475474119E-1,8.307879448E0
4.189828010E-1,3.495534360E-1,8.164227605E-1,8.269572258E0
4.209664440E-1,4.716577232E-1,7.948749661E-1,8.202534676E0
4.229500860E-1,5.410895944E-1,7.876923680E-1,8.159439087E0
4.249337290E-1,6.631938815E-1,7.852981687E-1,8.070854187E0
4.269173710E-1,7.876923680E-1,7.876923680E-1,7.996633530E0
4.289010140E-1,8.595184088E-1,7.948749661E-1,7.955932140E0
4.309151740E-1,9.768342972E-1,7.996633649E-1,7.879317760E0
4.328988170E-1,1.077390790E0,8.331822157E-1,7.812280178E0
4.348824590E-1,1.118092179E0,8.475474119E-1,7.785943985E0
4.368966200E-1,1.185129881E0,8.571242094E-1,7.716512203E0
4.389107800E-1,1.259350061E0,8.882488012E-1,7.651868820E0
4.408944220E-1,1.288080573E0,9.002198577E-1,7.625532627E0
4.428780650E-1,1.331176162E0,9.169792533E-1,7.558494568E0
4.448617070E-1,1.357512355E0,9.457096457E-1,7.515398979E0
4.468758680E-1,1.371877551E0,9.576807022E-1,7.498639584E0
4.488900280E-1,1.410184860E0,9.600749016E-1,7.455543995E0
4.508736700E-1,1.400607944E0,9.504981041E-1,7.441178799E0
4.528573130E-1,1.381454349E0,9.504981041E-1,7.436390400E0
4.548714730E-1,7.350199223E-1,9.026140571E-1,6.976703644E0
4.568551160E-1,4.118026793E-1,8.762778044E-1,6.754043102E0
4.588387580E-1,3.232172430E-1,8.403648138E-1,6.770802498E0
4.608224010E-1,6.584054828E-1,8.116343617E-1,7.113173485E0
4.628060430E-1,8.212111592E-1,7.924807668E-1,7.278373241E0
4.648202030E-1,9.935936928E-1,7.541735172E-1,7.472303391E0
4.668038460E-1,1.034295082E0,7.182605267E-1,7.539340973E0
4.688180060E-1,1.022324085E0,7.134721279E-1,7.558494568E0
4.708016490E-1,1.015141487E0,7.134721279E-1,7.536946774E0
4.727852910E-1,1.027112484E0,6.991068721E-1,7.520187378E0
4.747994520E-1,1.022324085E0,6.775590777E-1,7.496245384E0
4.768136120E-1,1.005564690E0,5.793967843E-1,7.362170219E0
4.787972540E-1,1.082179189E0,5.003881454E-1,7.424419403E0
4.808114140E-1,1.134851575E0,4.740519226E-1,7.484274387E0
4.827950570E-1,1.130063176E0,4.596867263E-1,7.632715225E0
4.848092170E-1,1.000776291E0,4.908113480E-1,7.788338184E0
4.868233770E-1,9.624691010E-1,4.644751251E-1,7.833827972E0
4.888070200E-1,9.935936928E-1,3.711012602E-1,7.900865555E0
4.908211800E-1,1.034295082E0,3.471592367E-1,8.044517517E0
4.928048230E-1,1.031900883E0,3.423708379E-1,8.094796181E0
4.948189830E-1,1.048660398E0,3.543418646E-1,8.192957878E0
4.968026250E-1,1.070208192E0,3.423708379E-1,8.255207062E0
4.987862680E-1,1.089361787E0,3.232172430E-1,8.379706383E0
5.008004280E-1,1.106121182E0,3.232172430E-1,8.499416351E0
5.028145880E-1,1.103726983E0,3.208230138E-1,8.559270859E0
5.047982310E-1,1.156399369E0,2.849099934E-1,8.604761124E0
5.067818730E-1,1.235408068E0,2.633621991E-1,8.707711220E0
5.087655160E-1,1.280897856E0,2.466027737E-1,8.753201485E0
5.107796760E-1,1.424550056E0,1.915361285E-1,8.844181061E0
5.127938360E-1,1.580173135E0,1.244984865E-1,8.937555313E0
5.147774790E-1,1.654393315E0,1.125274822E-1,8.975862503E0
5.167611210E-1,1.762132406E0,8.379705995E-2,9.050082207E0
5.187447640E-1,1.821987510E0,9.816227108E-2,9.078812599E0
5.207589240E-1,1.865083098E0,8.619125932E-2,9.109937668E0
5.227730840E-1,1.922544003E0,1.101332754E-1,9.117119789E0
5.247567270E-1,1.963245392E0,1.675941199E-1,9.081207275E0
5.267403700E-1,2.015917778E0,1.556231081E-1,9.085995674E0
5.287240120E-1,2.111685991E0,1.556231081E-1,9.050082207E0
5.307381720E-1,2.214636564E0,1.651999205E-1,8.995016098E0
5.327218150E-1,2.281674147E0,1.699883193E-1,8.985439301E0
5.347359750E-1,2.442085743E0,1.436520964E-1,8.978256226E0
5.367196180E-1,2.525882721E0,1.316810995E-1,8.944737434E0
5.387032600E-1,2.633621931E0,1.268926859E-1,8.901641846E0
5.407174200E-1,2.676717520E0,9.816227108E-2,8.880094528E0
5.427315800E-1,2.683900118E0,9.337386489E-2,8.884882927E0
5.447152230E-1,2.688688517E0,9.337386489E-2,8.937555313E0
5.466988660E-1,2.691082716E0,7.182604820E-2,8.963891029E0
5.486825080E-1,2.710236311E0,5.746084079E-2,8.971074104E0
5.506966680E-1,2.731784105E0,4.309562966E-2,9.004592896E0
5.526803110E-1,2.736572504E0,4.070143029E-2,9.038111687E0
5.546944710E-1,2.746149302E0,2.394201607E-2,9.062053680E0
5.566781140E-1,2.798821688E0,9.576806799E-3,9.109937668E0
5.586617560E-1,2.851494312E0,-1.675941236E-2,9.162610054E0
5.606759160E-1,2.861071110E0,-3.591302410E-2,9.217676163E0
5.626900770E-1,2.889801502E0,-6.224924326E-2,9.361329079E0
5.646737190E-1,2.882618904E0,-9.097966552E-2,9.488221169E0
5.666573620E-1,2.873042107E0,-8.619125932E-2,9.572018623E0
5.686410040E-1,2.880224705E0,-7.900865376E-2,9.672574997E0
5.706551640E-1,2.877830505E0,-8.619125932E-2,9.698910713E0
5.726388070E-1,2.880224705E0,-8.858546615E-2,9.806650162E0
5.746529670E-1,2.856282711E0,-7.661445439E-2,9.880870819E0
5.766366100E-1,2.849100113E0,-6.224924326E-2,9.909601212E0
5.786202520E-1,2.801215887E0,-3.351882473E-2,9.986215591E0
5.806344120E-1,2.712630510E0,-1.675941236E-2,1.004128170E1
5.826485730E-1,2.667140722E0,-7.182605099E-3,1.007958889E1
5.846322150E-1,2.578555346E0,1.197100803E-2,1.017056847E1
5.866158580E-1,2.521094322E0,9.576806799E-3,1.023042393E1
5.885995000E-1,2.480392933E0,1.675941236E-2,1.024000072E1
5.906136610E-1,2.415749550E0,-9.576806799E-3,1.022802925E1
5.925973030E-1,2.360682964E0,-1.915361360E-2,1.023521233E1
5.946114630E-1,2.327163935E0,-2.394201607E-2,1.022802925E1
5.965951060E-1,2.274491549E0,-6.464344263E-2,1.019451046E1
5.985787480E-1,2.240972757E0,-1.316810995E-1,1.012986755E1
6.005929090E-1,2.226607561E0,-1.819593310E-1,1.007958889E1
6.026070690E-1,2.214636564E0,-2.466027737E-1,9.955090523E0
6.045907110E-1,2.221819162E0,-2.777273953E-1,9.811438560E0
6.066048710E-1,2.212242365E0,-3.543418646E-1,9.720458984E0
6.085885140E-1,2.229001760E0,-4.477157295E-1,9.548076630E0
6.106026740E-1,2.233790159E0,-4.932055473E-1,9.464279175E0
6.125863170E-1,2.305616140E0,-5.770025849E-1,9.301473618E0
6.146004770E-1,2.341529369E0,-6.775590777E-1,9.131484985E0
6.166146370E-1,2.389413357E0,-7.302315235E-1,9.047688484E0
6.185982800E-1,2.511517525E0,-8.355764151E-1,8.884882927E0
6.205819220E-1,2.590526342E0,-9.457096457E-1,8.726864815E0
6.225655650E-1,2.619256735E0,-9.792284966E-1,8.662221909E0
6.245797250E-1,2.659958124E0,-1.048660398E0,8.528146744E0
6.265633680E-1,2.712630510E0,-1.120486379E0,8.458714485E0
6.285775280E-1,2.726995707E0,-1.144428372E0,8.439560890E0
6.305611700E-1,2.753331900E0,-1.165976286E0,8.456320763E0
6.325448130E-1,2.806004286E0,-1.182735682E0,8.463502884E0
6.345589730E-1,2.837129116E0,-1.180341482E0,8.453926086E0
6.365731330E-1,2.923320293E0,-1.163581967E0,8.432378769E0
6.385567760E-1,3.040636063E0,-1.156399369E0,8.439560890E0
6.405404180E-1,3.083731890E0,-1.151610970E0,8.446743965E0
6.425240610E-1,3.172317266E0,-1.163581967E0,8.463502884E0
6.445382210E-1,3.270479441E0,-1.163581967E0,8.487444878E0
6.465218640E-1,3.325546265E0,-1.163581967E0,8.513781548E0
6.485360240E-1,3.399766445E0,-1.132457376E0,8.552088737E0
6.505196660E-1,3.416525841E0,-1.127668977E0,8.554482460E0
6.525033090E-1,3.418920040E0,-1.077390790E0,8.585607529E0
6.545174690E-1,3.430891037E0,-1.043871999E0,8.611943245E0
6.565011120E-1,3.435679436E0,-1.015141487E0,8.657433510E0
6.585152720E-1,3.500322819E0,-9.864110947E-1,8.717288017E0
6.604989140E-1,3.620033026E0,-1.027112484E0,8.793902397E0
6.624825570E-1,3.696647406E0,-1.072602391E0,8.817844391E0
6.644967170E-1,3.859453201E0,-1.206677675E0,8.868123055E0
6.664803600E-1,4.005499363E0,-1.357512355E0,8.860940933E0
6.684945200E-1,4.072536945E0,-1.429338455E0,8.868123055E0
6.704781620E-1,4.220977783E0,-1.534683347E0,8.882488251E0
6.724618050E-1,4.304774761E0,-1.613691926E0,8.856152534E0
6.744759650E-1,4.326322556E0,-1.637633920E0,8.836998940E0
6.764596080E-1,4.350264549E0,-1.699883223E0,8.820239067E0
6.784737680E-1,4.335899353E0,-1.759738207E0,8.736441612E0
6.804574110E-1,4.331110954E0,-1.800439715E0,8.695740700E0
6.824410530E-1,4.285621166E0,-1.877054095E0,8.628703117E0
6.844552130E-1,4.264073372E0,-1.932120800E0,8.578424454E0
6.864388560E-1,4.271255970E0,-2.044648170E0,8.444349289E0
6.884530160E-1,4.235342979E0,-2.142810583E0,8.324639320E0
6.904366590E-1,4.211400986E0,-2.193088770E0,8.262390137E0
6.924203010E-1,4.182670593E0,-2.298433542E0,8.135497093E0
6.944039440E-1,4.151545525E0,-2.384624958E0,8.003816605E0
6.963875860E-1,4.139574528E0,-2.418143749E0,7.955932140E0
6.984017460E-1,4.108449936E0,-2.468421936E0,7.855375767E0
7.004159070E-1,4.144362926E0,-2.549824715E0,7.752425194E0
7.023995490E-1,4.161122322E0,-2.600103140E0,7.692570210E0
7.043831920E-1,4.242525578E0,-2.703053713E0,7.568071365E0
7.063668340E-1,4.371812344E0,-2.837129116E0,7.493851185E0
7.083809950E-1,4.441244125E0,-2.899378300E0,7.455543995E0
7.103951550E-1,4.582501888E0,-3.033453465E0,7.374141216E0
7.123787970E-1,4.730942726E0,-3.138798475E0,7.319074631E0
7.143624400E-1,4.795586109E0,-3.174711466E0,7.299921036E0
7.163460820E-1,4.874594688E0,-3.229778051E0,7.254431248E0
7.183602430E-1,4.953603268E0,-3.236960649E0,7.211335659E0
7.203438850E-1,4.989516258E0,-3.229778051E0,7.182605267E0
7.223275280E-1,5.037400246E0,-3.203441858E0,7.127538681E0
7.243416880E-1,5.073313236E0,-3.179499865E0,7.120356083E0
7.263253300E-1,5.106832027E0,-3.110068083E0,7.086836815E0
7.283394910E-1,5.145139217E0,-3.009511471E0,7.053318024E0
7.303536510E-1,5.154716492E0,-2.956839085E0,7.053318024E0
7.323372930E-1,5.145139217E0,-2.856282711E0,7.029376030E0
7.343514530E-1,5.152322292E0,-2.758120298E0,7.024587631E0
7.363350960E-1,5.149928093E0,-2.707842112E0,7.022193432E0
7.383492560E-1,5.171475887E0,-2.628833532E0,7.031770229E0
7.403328990E-1,5.212177277E0,-2.559401512E0,7.024587631E0
7.423165410E-1,5.236119270E0,-2.518700123E0,7.048529625E0
7.443307020E-1,5.267243862E0,-2.437297344E0,7.060500622E0
7.463143440E-1,5.274426460E0,-2.367865562E0,7.089231014E0
7.483285040E-1,5.281609058E0,-2.336740971E0,7.096413612E0
7.503121470E-1,5.295974255E0,-2.286462545E0,7.117961884E0
7.522957890E-1,5.310339451E0,-2.272097349E0,7.141903877E0
7.543099500E-1,5.303156853E0,-2.252943754E0,7.151480675E0
7.562935920E-1,5.293580055E0,-2.260126352E0,7.165845871E0
7.583077520E-1,5.315127850E0,-2.267308950E0,7.199364662E0
7.602913950E-1,5.319916248E0,-2.324769735E0,7.213729858E0
7.622750370E-1,5.334281445E0,-2.382230759E0,7.261613846E0
7.642891980E-1,5.351040840E0,-2.413355350E0,7.287950039E0
7.662728400E-1,5.372588634E0,-2.487575531E0,7.345410824E0
7.682870000E-1,5.391742229E0,-2.561795712E0,7.412448406E0
7.703011610E-1,5.377377033E0,-2.592920542E0,7.445967197E0
7.722848030E-1,5.351040840E0,-2.676717520E0,7.498639584E0
7.742684460E-1,5.363011837E0,-2.746149302E0,7.563282967E0
7.762520880E-1,5.365406036E0,-2.779668093E0,7.603984833E0
7.782662480E-1,5.365406036E0,-2.863465309E0,7.682993412E0
7.802498910E-1,5.401319027E0,-2.952050686E0,7.754819393E0
7.822640510E-1,5.422866821E0,-2.990357876E0,7.800309181E0
7.842476940E-1,5.458779812E0,-3.083731890E0,7.905653954E0
7.862313360E-1,5.509057999E0,-3.186682463E0,8.013393402E0
7.882149790E-1,5.521028996E0,-3.205836058E0,8.082824707E0
7.901986210E-1,5.532999992E0,-3.234566450E0,8.178592682E0
7.922127820E-1,5.568912983E0,-3.268085241E0,8.293514252E0
7.941964240E-1,5.576095581E0,-3.284844637E0,8.343792915E0
7.961800670E-1,5.597643375E0,-3.320757866E0,8.453926086E0
7.981637090E-1,5.607220173E0,-3.349488258E0,8.506598473E0
8.001473520E-1,5.647922039E0,-3.383007050E0,8.588001251E0
8.021615120E-1,5.719748020E0,-3.440467834E0,8.676587105E0
8.041451550E-1,5.755661011E0,-3.454833031E0,8.736441612E0
8.061287970E-1,5.803544998E0,-3.493140221E0,8.846575737E0
8.081429570E-1,5.853823185E0,-3.536235809E0,8.906430244E0
8.101266000E-1,5.868188381E0,-3.550601006E0,8.932766914E0
8.121407600E-1,5.889736176E0,-3.533841610E0,9.009381294E0
8.141244030E-1,5.911283970E0,-3.552995205E0,9.081207275E0
8.161080450E-1,5.930437565E0,-3.562572241E0,9.095572472E0
8.181222050E-1,5.925649166E0,-3.550601006E0,9.114726067E0
8.201363660E-1,5.942408562E0,-3.536235809E0,9.138668060E0
8.221200080E-1,5.949591160E0,-3.543418407E0,9.148244858E0
8.241036510E-1,5.947196960E0,-3.576937437E0,9.169792175E0
8.260872930E-1,5.956773758E0,-3.586514235E0,9.165003777E0
8.281014530E-1,5.959167957E0,-3.591302633E0,9.169792175E0
8.301156140E-1,5.971138954E0,-3.598485231E0,9.176975250E0
8.320992560E-1,5.990292549E0,-3.588908434E0,9.188945770E0
8.340828990E-1,5.985504150E0,-3.576937437E0,9.208099365E0
8.360665410E-1,6.007051945E0,-3.552995205E0,9.200917244E0
8.380807020E-1,6.016628742E0,-3.555389643E0,9.200917244E0
8.400643440E-1,6.038176537E0,-3.557783842E0,9.179368973E0
8.420479870E-1,6.019022942E0,-3.543418407E0,9.145850182E0
8.440621470E-1,6.002263546E0,-3.541024208E0,9.126696587E0
8.460457890E-1,5.990292549E0,-3.521870613E0,9.085995674E0
8.480599500E-1,5.966350555E0,-3.495534420E0,9.026140213E0
8.500435920E-1,5.951985359E0,-3.485957623E0,8.995016098E0
8.520272350E-1,5.911283970E0,-3.457227230E0,8.932766914E0
8.540108770E-1,5.880159378E0,-3.430891037E0,8.846575737E0
8.559945200E-1,5.880159378E0,-3.418920040E0,8.808267593E0
8.580086800E-1,5.892130375E0,-3.402160645E0,8.734047890E0
8.599923230E-1,5.882553577E0,-3.385401249E0,8.698134422E0
8.619759650E-1,5.882553577E0,-3.351882458E0,8.626308441E0
8.639596080E-1,5.904101372E0,-3.325546265E0,8.578424454E0
8.659432500E-1,5.930437565E0,-3.311181068E0,8.549694061E0
8.679574110E-1,5.954379559E0,-3.275267839E0,8.482656479E0
8.699715710E-1,5.978321552E0,-3.272873640E0,8.398859978E0
8.719552130E-1,5.995080948E0,-3.270479441E0,8.377311707E0
8.739388560E-1,6.033388138E0,-3.272873640E0,8.286332130E0
8.759224980E-1,6.057330132E0,-3.272873640E0,8.209717751E0
8.779366590E-1,6.074089527E0,-3.277662039E0,8.171410561E0
8.799203010E-1,6.126761913E0,-3.303998232E0,8.094796181E0
8.819039440E-1,6.179434776E0,-3.337517262E0,8.030152321E0
8.838875860E-1,6.196194172E0,-3.349488258E0,8.013393402E0
8.858712290E-1,6.244078159E0,-3.361459255E0,7.994239330E0
8.878853890E-1,6.284779549E0,-3.373430252E0,7.967903137E0
8.898690320E-1,6.303933144E0,-3.378218651E0,7.967903137E0
8.918831920E-1,6.368576527E0,-3.380612850E0,7.972691536E0
8.938668340E-1,6.394912720E0,-3.375824451E0,7.987056732E0
8.958504770E-1,6.435614109E0,-3.371036053E0,8.006210327E0
8.978646370E-1,6.466738701E0,-3.342305660E0,8.015787125E0
8.998787970E-1,6.488286495E0,-3.339911461E0,8.032546997E0
9.018624400E-1,6.502651691E0,-3.318363667E0,8.075642586E0
9.038766000E-1,6.500257492E0,-3.280056238E0,8.123526573E0
9.058602430E-1,6.505045891E0,-3.270479441E0,8.135497093E0
9.078744030E-1,6.478709698E0,-3.236960649E0,8.185775757E0
9.098885630E-1,6.452373505E0,-3.213018656E0,8.212111473E0
9.118722050E-1,6.438008308E0,-3.208230257E0,8.228871346E0
9.138863660E-1,6.411672115E0,-3.201047659E0,8.262390137E0
9.158700080E-1,6.387730122E0,-3.193865061E0,8.298302650E0
9.178841680E-1,6.373364925E0,-3.189076662E0,8.315062523E0
9.198678110E-1,6.327875137E0,-3.184288263E0,8.350975990E0
9.218514530E-1,6.272808552E0,-3.169923067E0,8.394071579E0
9.238656140E-1,6.241683960E0,-3.169923067E0,8.406042099E0
9.258492560E-1,6.198588371E0,-3.189076662E0,8.420407295E0
9.278634160E-1,6.181828976E0,-3.189076662E0,8.437167168E0
9.298470590E-1,6.174646378E0,-3.191470861E0,8.429984093E0
9.318001840E-1,6.155492783E0,-3.191470861E0,8.439560890E0
9.338143440E-1,6.131550789E0,-3.198653460E0,8.434772491E0
9.357979870E-1,6.112396717E0,-3.213018656E0,8.434772491E0
9.378121470E-1,6.083666325E0,-3.220201254E0,8.418013573E0
9.397957890E-1,6.071695328E0,-3.222595453E0,8.401253700E0
9.417794320E-1,6.071695328E0,-3.244143248E0,8.350975990E0
9.437935920E-1,6.062118530E0,-3.251325846E0,8.303091049E0
9.457772350E-1,6.059724331E0,-3.265691042E0,8.276755333E0
9.477913950E-1,6.047753334E0,-3.265691042E0,8.231265068E0
9.497750370E-1,6.066906929E0,-3.284844637E0,8.190564156E0
9.517586800E-1,6.074089527E0,-3.282450438E0,8.178592682E0
9.537728400E-1,6.100425720E0,-3.272873640E0,8.137891769E0
9.557564830E-1,6.136339188E0,-3.241749048E0,8.099584579E0
9.577706430E-1,6.174646378E0,-3.227383852E0,8.078036308E0
9.597542860E-1,6.234501362E0,-3.222595453E0,8.020575523E0
9.617379280E-1,6.325480938E0,-3.241749048E0,7.946355343E0
9.637520880E-1,6.366182327E0,-3.236960649E0,7.912836552E0
9.657357310E-1,6.394912720E0,-3.213018656E0,7.829039574E0
9.677498910E-1,6.416460514E0,-3.213018656E0,7.762001991E0
9.697335340E-1,6.430825710E0,-3.213018656E0,7.726089001E0
9.717171760E-1,6.466738701E0,-3.201047659E0,7.651868820E0
9.737008190E-1,6.464344501E0,-3.181894064E0,7.606379032E0
9.756844610E-1,6.423643112E0,-3.148375273E0,7.534552574E0
9.776986210E-1,6.356605530E0,-3.124433279E0,7.469909191E0
9.797127820E-1,6.335057735E0,-3.100491285E0,7.433996201E0
9.816964240E-1,6.268020153E0,-3.069366693E0,7.369352818E0
9.837105840E-1,6.189011574E0,-3.043030262E0,7.307103634E0
9.856942270E-1,6.167463779E0,-3.026270866E0,7.278373241E0
9.877083870E-1,6.095637321E0,-2.985569477E0,7.252037048E0
9.897225470E-1,6.040570736E0,-2.959233284E0,7.218518257E0
9.917061900E-1,6.016628742E0,-2.949656487E0,7.208941460E0
9.936898320E-1,5.985504150E0,-2.930502892E0,7.192182064E0
9.956734750E-1,5.947196960E0,-2.911349297E0,7.180211067E0
9.976876350E-1,5.942408562E0,-2.904166698E0,7.194576263E0
9.996712780E-1,5.913678169E0,-2.892195702E0,7.173028469E0
1.001654920E0,5.896918774E0,-2.894589901E0,7.182605267E0
1.003638563E0,5.894524574E0,-2.904166698E0,7.175422668E0
1.005622205E0,5.892130375E0,-2.899378300E0,7.163451672E0
1.007636366E0,5.875370979E0,-2.899378300E0,7.173028469E0
1.009620008E0,5.856217384E0,-2.896984100E0,7.194576263E0
1.011634168E0,5.834669590E0,-2.894589901E0,7.223306656E0
1.013617811E0,5.832275391E0,-2.901772499E0,7.237671852E0
1.015631971E0,5.813121796E0,-2.906560898E0,7.261613846E0
1.017615614E0,5.781997204E0,-2.901772499E0,7.266402245E0
1.019599256E0,5.767632008E0,-2.901772499E0,7.266402245E0
1.021582899E0,5.724536419E0,-2.904166698E0,7.280767441E0
1.023597059E0,5.667075634E0,-2.932897091E0,7.292738438E0
1.025580702E0,5.645527840E0,-2.944868088E0,7.297526836E0
1.027594862E0,5.592854977E0,-2.959233284E0,7.311892033E0
1.029578504E0,5.544970989E0,-2.978386879E0,7.343016624E0
1.031562147E0,5.523423195E0,-3.007117271E0,7.357381821E0
1.033576307E0,5.509057999E0,-3.052607059E0,7.388506413E0
1.035559950E0,5.513846397E0,-3.095702887E0,7.417236805E0
1.037574110E0,5.513846397E0,-3.112462282E0,7.445967197E0
1.039557752E0,5.513846397E0,-3.150769472E0,7.515398979E0
1.041541395E0,5.552153587E0,-3.189076662E0,7.546523571E0
1.043555555E0,5.561730385E0,-3.224989653E0,7.570465565E0
1.045539198E0,5.554547787E0,-3.239354849E0,7.623138428E0
1.047553358E0,5.561730385E0,-3.229778051E0,7.661445618E0
1.049537000E0,5.604825974E0,-3.256114244E0,7.711723804E0
1.051520643E0,5.633556366E0,-3.287238836E0,7.757213593E0
1.053534803E0,5.635950565E0,-3.277662039E0,7.790732384E0
1.055518446E0,5.674258232E0,-3.275267839E0,7.879317760E0
1.057532606E0,5.734113216E0,-3.282450438E0,7.972691536E0
1.059516248E0,5.762843609E0,-3.272873640E0,8.010998726E0
1.061499891E0,5.844246387E0,-3.251325846E0,8.087613106E0
1.063514051E0,5.916072369E0,-3.210624456E0,8.133103371E0
1.065497694E0,5.944802761E0,-3.193865061E0,8.157045364E0
1.067511854E0,6.014234543E0,-3.174711466E0,8.214506149E0
1.069495496E0,6.088454723E0,-3.177105665E0,8.228871346E0
1.071479139E0,6.129156113E0,-3.181894064E0,8.226476669E0
1.073462782E0,6.248866558E0,-3.208230257E0,8.209717751E0
1.075446424E0,6.339846134E0,-3.215412855E0,8.200140953E0
1.077460584E0,6.380547523E0,-3.232172251E0,8.166622162E0
1.079444227E0,6.449979305E0,-3.263296843E0,8.147468567E0
1.081427870E0,6.471527100E0,-3.272873640E0,8.128314972E0
1.083411512E0,6.526593685E0,-3.289633036E0,8.085219383E0
1.085395155E0,6.562506676E0,-3.294421434E0,8.056488991E0
1.087409315E0,6.567295074E0,-3.296815634E0,8.051700592E0
1.089392957E0,6.572083473E0,-3.306392431E0,8.046912193E0
1.091407118E0,6.596025467E0,-3.323152065E0,8.015787125E0
1.093421278E0,6.591237068E0,-3.347094059E0,8.003816605E0
1.095404920E0,6.572083473E0,-3.356670856E0,7.982268333E0
1.097419080E0,6.550535679E0,-3.366247654E0,7.967903137E0
1.099402723E0,6.533776283E0,-3.371036053E0,7.960720539E0
1.101386366E0,6.512228489E0,-3.383007050E0,7.941566944E0
1.103400526E0,6.490680695E0,-3.380612850E0,7.905653954E0
1.105384168E0,6.476315498E0,-3.385401249E0,7.893682957E0
1.107398328E0,6.457161903E0,-3.387795448E0,7.831433773E0
1.109412489E0,6.421248913E0,-3.385401249E0,7.785943985E0
1.111396131E0,6.399701118E0,-3.397372246E0,7.754819393E0
1.113379774E0,6.356605530E0,-3.392583847E0,7.697358608E0
1.115363416E0,6.330269337E0,-3.399766445E0,7.673416615E0
1.117377577E0,6.282385349E0,-3.414131641E0,7.584830761E0
1.119361219E0,6.234501362E0,-3.433285236E0,7.496245384E0
1.121344862E0,6.208165169E0,-3.440467834E0,7.460332394E0
1.123328504E0,6.200982571E0,-3.490746021E0,7.386112213E0
1.125312147E0,6.169857979E0,-3.533841610E0,7.316680431E0
1.127326307E0,6.153098583E0,-3.567360640E0,7.264008045E0
1.129309950E0,6.114790916E0,-3.622427225E0,7.158663273E0
1.131324110E0,6.062118530E0,-3.653551817E0,7.082048416E0
1.133307752E0,6.045359135E0,-3.663128614E0,7.048529625E0
1.135291395E0,6.009446144E0,-3.665522814E0,6.974309444E0
1.137305555E0,5.968744755E0,-3.636792421E0,6.890512466E0
1.139289198E0,5.954379559E0,-3.617638826E0,6.864176273E0
1.141303358E0,5.930437565E0,-3.555389643E0,6.828263283E0
1.143287000E0,5.918466568E0,-3.524264812E0,6.794744492E0
1.145270643E0,5.916072369E0,-3.457227230E0,6.794744492E0
1.147254286E0,5.920860767E0,-3.378218651E0,6.775590897E0
1.149237928E0,5.918466568E0,-3.330334663E0,6.787561893E0
1.151252088E0,5.916072369E0,-3.229778051E0,6.801927090E0
1.153235731E0,5.916072369E0,-3.148375273E0,6.828263283E0
1.155219373E0,5.928043365E0,-3.100491285E0,6.845022678E0
1.157203016E0,5.932831764E0,-3.016694069E0,6.878541470E0
1.159186659E0,5.930437565E0,-2.930502892E0,6.890512466E0
1.161200819E0,5.918466568E0,-2.885013103E0,6.902483463E0
1.163184461E0,5.911283970E0,-2.815581083E0,6.940790653E0
1.165198621E0,5.940014362E0,-2.770091295E0,6.931213856E0
1.167182264E0,5.961562157E0,-2.753331900E0,6.914454460E0
1.169165907E0,5.997475147E0,-2.731784105E0,6.871358871E0
1.171180067E0,6.033388138E0,-2.674323320E0,6.782773495E0
1.173163709E0,6.062118530E0,-2.674323320E0,6.742072105E0
1.175147352E0,6.054935932E0,-2.664746523E0,6.663063526E0
1.177161512E0,6.078877926E0,-2.650381327E0,6.576871872E0
1.179175672E0,6.095637321E0,-2.602497339E0,6.536170483E0
1.181159315E0,6.098031521E0,-2.549824715E0,6.464344501E0
1.183142957E0,6.107608318E0,-2.504334927E0,6.435614109E0
1.185126600E0,6.093243122E0,-2.384624958E0,6.351817131E0
1.187110243E0,6.047753334E0,-2.262520552E0,6.270414352E0
1.189093885E0,6.009446144E0,-2.209848166E0,6.222530365E0
1.191108045E0,5.918466568E0,-2.073378563E0,6.136339188E0
1.193122205E0,5.791574001E0,-1.970427990E0,6.042964935E0
1.195105848E0,5.731719017E0,-1.924938202E0,6.004657745E0
1.197089491E0,5.619191170E0,-1.879448295E0,5.908889771E0
1.199073133E0,5.511452198E0,-1.857900500E0,5.829881191E0
1.201087293E0,5.461174011E0,-1.838746905E0,5.796362400E0
1.203040418E0,5.355829239E0,-1.833958507E0,5.738901615E0
1.205054578E0,5.240907669E0,-1.857900500E0,5.726930618E0
1.207038221E0,5.164293289E0,-1.865083098E0,5.736507416E0
1.209021864E0,5.051765442E0,-1.877054095E0,5.767632008E0
1.211036024E0,4.924872875E0,-1.889025092E0,5.789179802E0
1.213019666E0,4.874594688E0,-1.927332401E0,5.868188381E0
1.215033827E0,4.738125324E0,-1.963245392E0,5.947196960E0
1.217017469E0,4.678270340E0,-1.977610588E0,5.983109951E0
1.219001112E0,4.606443882E0,-2.035071373E0,6.062118530E0
1.221015272E0,4.513070107E0,-2.063801765E0,6.157886982E0
1.222998914E0,4.460397720E0,-2.080561161E0,6.222530365E0
1.225013075E0,4.355052948E0,-2.111685991E0,6.325480938E0
1.226996717E0,4.292803764E0,-2.133233786E0,6.433219910E0
1.228980360E0,4.264073372E0,-2.140416384E0,6.476315498E0
1.230964002E0,4.247313976E0,-2.135627985E0,6.562506676E0
1.232947645E0,4.264073372E0,-2.109291792E0,6.641515732E0
1.234961805E0,4.288015366E0,-2.066195965E0,6.660669327E0
1.236945448E0,4.390965939E0,-1.982398987E0,6.679822922E0
1.238929090E0,4.544194698E0,-1.884236693E0,6.696582317E0
1.240912733E0,4.625597477E0,-1.810016513E0,6.689399719E0
1.242896375E0,4.805162907E0,-1.649604917E0,6.631938934E0
1.244880018E0,4.893748283E0,-1.563413739E0,6.588842869E0
1.246863661E0,5.135562420E0,-1.393425345E0,6.490680695E0
1.248877821E0,5.391742229E0,-1.189918280E0,6.320692539E0
1.250861463E0,5.506663799E0,-1.086967587E0,6.229712963E0
1.252845106E0,5.741295815E0,-8.906430602E-1,6.040570736E0
1.254859266E0,5.995080948E0,-7.086837292E-1,5.849034786E0
1.256842909E0,6.121973515E0,-6.224924326E-1,5.748478413E0
1.258857069E0,6.354211330E0,-4.692635238E-1,5.561730385E0
1.260840711E0,6.536170483E0,-3.327940404E-1,5.365406036E0
1.262824354E0,6.629544735E0,-2.609679997E-1,5.298368454E0
1.264807996E0,6.780379295E0,-1.484405100E-1,5.267243862E0
1.266791639E0,6.849811077E0,-4.548983276E-2,5.228936672E0
1.268805799E0,6.880935669E0,0.000000000E0,5.185841084E0
1.270789442E0,6.926425457E0,9.816227108E-2,5.133168221E0
1.272773084E0,6.933608055E0,1.436520964E-1,5.109226227E0
1.274756727E0,6.933608055E0,1.867477298E-1,5.102043629E0
1.276740370E0,6.909666061E0,1.819593310E-1,5.109226227E0
1.278754530E0,6.880935669E0,1.723825186E-1,5.118803024E0
1.280768690E0,6.835445881E0,1.556231081E-1,5.145139217E0
1.282752332E0,6.797138691E0,9.097966552E-2,5.166687489E0
1.284735975E0,6.773196697E0,5.746084079E-2,5.193023682E0
1.286719618E0,6.749254704E0,-3.830722719E-2,5.243301868E0
1.288733778E0,6.713341713E0,-1.556231081E-1,5.274426460E0
1.290717420E0,6.687005520E0,-2.035071403E-1,5.295974255E0
1.292731580E0,6.607996464E0,-3.136404157E-1,5.343858242E0
1.294715223E0,6.591237068E0,-4.620809257E-1,5.384559631E0
1.296698866E0,6.557718277E0,-5.339069963E-1,5.384559631E0
1.298713026E0,6.488286495E0,-6.679822803E-1,5.391742229E0
1.300727186E0,6.438008308E0,-8.116343617E-1,5.389348030E0
1.302710828E0,6.411672115E0,-8.762778044E-1,5.384559631E0
1.304694471E0,6.385335922E0,-9.864110947E-1,5.363011837E0
1.306678114E0,6.358999729E0,-1.036689281E0,5.307945251E0
1.308692274E0,6.354211330E0,-1.106121182E0,5.272032261E0
1.310675916E0,6.382941723E0,-1.173158884E0,5.207388878E0
1.312690077E0,6.404489517E0,-1.211466074E0,5.157110691E0
1.314673719E0,6.485892296E0,-1.288080573E0,4.999093056E0
1.316657362E0,6.593631268E0,-1.357512355E0,4.814739704E0
1.318671522E0,6.648698330E0,-1.395819545E0,4.726154327E0
1.320685682E0,6.792350292E0,-1.486799240E0,4.556165695E0
1.322669325E0,6.933608055E0,-1.601720929E0,4.359841347E0
1.324652967E0,7.003039837E0,-1.644816518E0,4.295197964E0
1.326636610E0,7.158663273E0,-1.726219416E0,4.115632534E0
1.328620252E0,7.302315235E0,-1.829170108E0,3.952826977E0
1.330603895E0,7.378929615E0,-1.889025092E0,3.885789394E0
1.332587537E0,7.539340973E0,-1.996764183E0,3.756502390E0
1.334571180E0,7.690176010E0,-2.109291792E0,3.622427225E0
1.336585340E0,7.773972988E0,-2.176329374E0,3.564966440E0
1.338568983E0,7.922413349E0,-2.281674147E0,3.440467834E0
1.340552625E0,8.042123795E0,-2.355894566E0,3.380612850E0
1.342566786E0,8.104372978E0,-2.513911724E0,3.294421434E0
1.344550428E0,8.214506149E0,-2.650381327E0,3.193865061E0
1.346564588E0,8.262390137E0,-2.731784105E0,3.145981073E0
1.348548231E0,8.315062523E0,-2.911349297E0,3.055001259E0
1.350531873E0,8.360552788E0,-3.081337690E0,2.961627483E0
1.352546034E0,8.379706383E0,-3.177105665E0,2.908955097E0
1.354560194E0,8.396465302E0,-3.380612850E0,2.834734917E0
1.356543836E0,8.475474358E0,-3.574543238E0,2.789244890E0
1.358527479E0,8.508993149E0,-3.672705412E0,2.777273893E0
1.360511121E0,8.590395927E0,-3.881000996E0,2.707842112E0
1.362525282E0,8.686163902E0,-4.077325344E0,2.688688517E0
1.364508924E0,8.726864815E0,-4.163516521E0,2.669534922E0
1.366523084E0,8.779537201E0,-4.328716755E0,2.655169725E0
1.368506727E0,8.841787338E0,-4.462791920E0,2.652775526E0
1.370490370E0,8.880094528E0,-4.525041103E0,2.636016130E0
1.372504530E0,8.927978516E0,-4.627991676E0,2.564189911E0
1.374488172E0,8.932766914E0,-4.707000732E0,2.482787132E0
1.376502332E0,8.951920509E0,-4.757278919E0,2.434903145E0
1.378485975E0,8.975862503E0,-4.850652695E0,2.303221941E0
1.380469618E0,8.978256226E0,-4.884171486E0,2.255337954E0
1.382483778E0,9.021351814E0,-4.965574265E0,2.121262789E0
1.384467420E0,9.107542992E0,-5.046977043E0,1.975216389E0
1.386481580E0,9.165003777E0,-5.085284233E0,1.884236693E0
1.388465223E0,9.327810287E0,-5.171475887E0,1.654393315E0
1.390448866E0,9.538499832E0,-5.255272865E0,1.393425345E0
1.392432508E0,9.639056206E0,-5.295974255E0,1.261744261E0
1.394416151E0,9.897629738E0,-5.391742229E0,9.911994934E-1
1.396430311E0,1.018972206E1,-5.449203014E0,7.302315235E-1
1.398444471E0,1.035492229E1,-5.482721806E0,5.770025849E-1
1.400428114E0,1.068771648E1,-5.523423195E0,2.944868207E-1
1.402442274E0,1.100614548E1,-5.540182590E0,7.182605099E-3
1.404425916E0,1.116176796E1,-5.544970989E0,-1.316810995E-1
1.406440077E0,1.145146656E1,-5.556941986E0,-4.022258818E-1
1.408454237E0,1.168370438E1,-5.554547787E0,-6.655880809E-1
1.410437879E0,1.179383755E1,-5.549759388E0,-7.876923680E-1
1.412421522E0,1.198297977E1,-5.537788391E0,-1.003170490E0
1.414435682E0,1.214817905E1,-5.535394192E0,-1.189918280E0
1.416419325E0,1.223676491E1,-5.535394192E0,-1.283292055E0
1.418402967E0,1.239717674E1,-5.528211594E0,-1.434126854E0
1.420417127E0,1.246900272E1,-5.549759388E0,-1.522712231E0
1.422400770E0,1.260547161E1,-5.595249176E0,-1.628057122E0
1.424414930E0,1.274433517E1,-5.674258232E0,-1.675941229E0
1.426398573E0,1.279461384E1,-5.722142220E0,-1.687912226E0
1.428382215E0,1.287122822E1,-5.815515995E0,-1.723825216E0
1.430365858E0,1.294305420E1,-5.956773758E0,-1.738190413E0
1.432349500E0,1.295981407E1,-6.028599739E0,-1.740584612E0
1.434363661E0,1.290714169E1,-6.203376770E0,-1.762132406E0
1.436347303E0,1.276588345E1,-6.375759125E0,-1.807622313E0
1.438330946E0,1.268208599E1,-6.469132900E0,-1.802833915E0
1.440314588E0,1.250730991E1,-6.670246124E0,-1.783680320E0
1.442298231E0,1.231337929E1,-6.895300865E0,-1.788468719E0
1.444281873E0,1.222479343E1,-6.991068840E0,-1.774103403E0
1.446265516E0,1.209550667E1,-7.170634270E0,-1.738190413E0
1.448279676E0,1.203325748E1,-7.259219646E0,-1.728613615E0
1.450263319E0,1.191594219E1,-7.414842606E0,-1.709460020E0
1.452246961E0,1.178186703E1,-7.534552574E0,-1.654393315E0
1.454230604E0,1.172440529E1,-7.592013359E0,-1.620874524E0
1.456214246E0,1.159751320E1,-7.666234016E0,-1.544260144E0
1.458228407E0,1.145864964E1,-7.738059998E0,-1.474828243E0
1.460242567E0,1.140358257E1,-7.762001991E0,-1.426944256E0
1.462226209E0,1.128147888E1,-7.819462776E0,-1.333570361E0
1.464240370E0,1.118092155E1,-7.879317760E0,-1.276109457E0
1.466224012E0,1.113303757E1,-7.898471355E0,-1.247379065E0
1.468238172E0,1.109473038E1,-7.934384346E0,-1.168370485E0
1.470221815E0,1.112824917E1,-7.982268333E0,-1.113303781E0
1.472235975E0,1.112346077E1,-7.999027729E0,-1.096544385E0
1.474219618E0,1.108994198E1,-8.001421928E0,-1.019929886E0
1.476203260E0,1.106839466E1,-8.001421928E0,-9.121908545E-1
1.478217420E0,1.107078838E1,-8.006210327E0,-8.547300100E-1
1.480201063E0,1.107318306E1,-7.989450932E0,-7.350199223E-1
1.482215223E0,1.109712505E1,-7.977479935E0,-6.440402865E-1
1.484229383E0,1.110909557E1,-7.948749542E0,-6.105214357E-1
1.486213026E0,1.114500904E1,-7.910442352E0,-5.363011956E-1
1.488227186E0,1.117134476E1,-7.879317760E0,-5.027823448E-1
1.490210828E0,1.124077702E1,-7.817068577E0,-4.022258818E-1
1.492194471E0,1.135809326E1,-7.745242596E0,-2.537853718E-1
1.494178114E0,1.141794777E1,-7.711723804E0,-1.699883193E-1
1.496192274E0,1.152568722E1,-7.654263020E0,4.788403399E-3
1.498175916E0,1.160469532E1,-7.570465565E0,1.771709323E-1
1.500159559E0,1.162384892E1,-7.508216381E0,2.561795712E-1
1.502173719E0,1.162145519E1,-7.371747017E0,4.118026793E-1
1.504157362E0,1.158554173E1,-7.275979042E0,5.626373887E-1
1.506171522E0,1.154723454E1,-7.213729858E0,6.200982332E-1
1.508185682E0,1.149935055E1,-7.101202011E0,7.158663273E-1
1.510169325E0,1.144188976E1,-7.015010834E0,7.900865674E-1
1.512183485E0,1.140358257E1,-6.995857239E0,8.116343617E-1
1.514167127E0,1.131978607E1,-6.950367451E0,8.379706144E-1
1.516181287E0,1.120007515E1,-6.924031258E0,8.236053586E-1
1.518164930E0,1.112346077E1,-6.919242859E0,8.092401624E-1
1.520148573E0,1.099656868E1,-6.892906666E0,7.733271718E-1
1.522162733E0,1.087446404E1,-6.897695065E0,7.565677166E-1
1.524146375E0,1.080742645E1,-6.883329868E0,7.517793179E-1
1.526160536E0,1.067813969E1,-6.830657482E0,7.278373241E-1
1.528144178E0,1.061110210E1,-6.801927090E0,7.278373241E-1
1.530127821E0,1.046266174E1,-6.739677906E0,7.206547260E-1
1.532141981E0,1.029746151E1,-6.653486729E0,7.278373241E-1
1.534156141E0,1.019690514E1,-6.600813866E0,7.350199223E-1
1.536139784E0,1.001015759E1,-6.488286495E0,7.637503147E-1
1.538123426E0,9.823410034E0,-6.418854713E0,7.541735172E-1
1.540107069E0,9.722852707E0,-6.392518520E0,7.374141216E-1
1.542121229E0,9.538499832E0,-6.375759125E0,6.799532771E-1
1.544104871E0,9.385271072E0,-6.335057735E0,5.889736414E-1
1.546119032E0,9.315838814E0,-6.325480938E0,5.339069963E-1
1.548102674E0,9.210494041E0,-6.294356346E0,4.165911078E-1
1.550086317E0,9.107542992E0,-6.256049156E0,3.160346150E-1
1.552100477E0,9.064447403E0,-6.215347767E0,2.705447972E-1
1.554084120E0,8.999804497E0,-6.155492783E0,1.891419291E-1
1.556098280E0,8.911218643E0,-6.059724331E0,1.125274822E-1
1.558081922E0,8.877699852E0,-6.019022942E0,8.140286058E-2
1.560065565E0,8.803479195E0,-5.923254967E0,4.070143029E-2
1.562079725E0,8.777143478E0,-5.858611584E0,2.873042040E-2
1.564063368E0,8.724471092E0,-5.722142220E0,3.591302410E-2
1.566077528E0,8.662221909E0,-5.595249176E0,4.788403213E-2
1.568061170E0,8.631096840E0,-5.542576790E0,6.703764945E-2
1.570044813E0,8.542511940E0,-5.449203014E0,1.101332754E-1
1.572028455E0,8.449137688E0,-5.343858242E0,1.484405100E-1
1.574012098E0,8.413225174E0,-5.291185856E0,1.771709323E-1
1.576026258E0,8.339004517E0,-5.193023682E0,2.274491638E-1
1.578040418E0,8.271966934E0,-5.121197224E0,2.753331959E-1
1.580024061E0,8.248024940E0,-5.092466831E0,2.825157940E-1
1.582038221E0,8.197746277E0,-5.011064053E0,3.208230138E-1
1.584021864E0,8.176198959E0,-4.944026470E0,3.495534360E-1
1.586036024E0,8.169015884E0,-4.912901878E0,3.615244627E-1
1.588019666E0,8.140285492E0,-4.850652695E0,3.495534360E-1
1.590033827E0,8.135497093E0,-4.781220913E0,3.256114423E-1
1.592017469E0,8.123526573E0,-4.759673119E0,3.184288144E-1
1.594001112E0,8.116343498E0,-4.709394932E0,2.968810201E-1
1.596015272E0,8.099584579E0,-4.675876141E0,2.896983922E-1
1.598029432E0,8.082824707E0,-4.623203278E0,2.777273953E-1
1.600013075E0,8.008605003E0,-4.580107689E0,2.777273953E-1
1.602027235E0,7.943961143E0,-4.568136692E0,2.825157940E-1
1.604010877E0,7.912836552E0,-4.580107689E0,2.896983922E-1
1.606025037E0,7.843404770E0,-4.580107689E0,3.088520169E-1
1.608008680E0,7.781155586E0,-4.587290287E0,3.160346150E-1
1.609992323E0,7.618350029E0,-4.589684486E0,4.094084799E-1
1.612006483E0,7.431602001E0,-4.625597477E0,5.051765442E-1
1.614020643E0,7.328651428E0,-4.654327869E0,5.363011956E-1
1.616004286E0,7.105990410E0,-4.738125324E0,5.985504389E-1
1.618018446E0,6.878541470E0,-4.838681698E0,6.703764796E-1
1.620002088E0,6.770802498E0,-4.884171486E0,7.134721279E-1
1.622016248E0,6.557718277E0,-4.967968464E0,8.116343617E-1
1.624030409E0,6.330269337E0,-5.037400246E0,9.361328483E-1
1.626014051E0,6.222530365E0,-5.073313236E0,1.022324085E0
1.628028211E0,6.045359135E0,-5.142745018E0,1.228225470E0
1.630011854E0,5.904101372E0,-5.195417881E0,1.434126854E0
1.632026014E0,5.863399982E0,-5.216965675E0,1.544260144E0
1.634009657E0,5.829881191E0,-5.252878666E0,1.709460020E0
1.635993299E0,5.870582581E0,-5.300762653E0,1.857900500E0
1.638007459E0,5.925649166E0,-5.312733650E0,1.903390408E0
1.640021620E0,6.100425720E0,-5.317522049E0,1.951274395E0
1.642005262E0,6.327875137E0,-5.310339451E0,1.929726601E0
1.643988905E0,6.464344501E0,-5.262455463E0,1.891419291E0
1.645972547E0,6.768408298E0,-5.188235283E0,1.778891921E0
1.647986707E0,6.926425457E0,-5.145139217E0,1.719036818E0
1.649970350E0,7.182605267E0,-5.035006046E0,1.596932530E0
1.651984510E0,7.393294811E0,-4.910507679E0,1.484405041E0
1.653968153E0,7.493851185E0,-4.853046894E0,1.429338455E0
1.655951795E0,7.699752808E0,-4.766855717E0,1.295263171E0
1.657965955E0,7.915230751E0,-4.718971729E0,1.089361787E0
1.659980116E0,8.039729118E0,-4.687847137E0,9.768342972E-1
1.661963758E0,8.255207062E0,-4.606443882E0,7.445967197E-1
1.663977918E0,8.465897560E0,-4.520252705E0,5.722141862E-1
1.665961561E0,8.578424454E0,-4.493916512E0,5.003881454E-1
1.667975721E0,8.772355080E0,-4.417302132E0,3.639186621E-1
1.669959364E0,8.923190117E0,-4.369418144E0,2.896983922E-1
1.671973524E0,8.980650902E0,-4.347870350E0,2.657563984E-1
1.673957166E0,9.062053680E0,-4.321534157E0,2.274491638E-1
1.675940809E0,9.129091263E0,-4.319139957E0,1.987187415E-1
1.677954969E0,9.145850182E0,-4.316745758E0,1.939303428E-1
1.679938612E0,9.160215378E0,-4.345476151E0,2.106897533E-1
1.681952772E0,9.141061783E0,-4.359841347E0,2.250549644E-1
1.683966932E0,9.119514465E0,-4.390965939E0,2.298433632E-1
1.685950575E0,9.066842079E0,-4.431667328E0,2.298433632E-1
1.687964735E0,9.021351814E0,-4.455609322E0,2.274491638E-1
1.689948377E0,8.944737434E0,-4.532223701E0,2.250549644E-1
1.691962537E0,8.870517731E0,-4.606443882E0,2.322375625E-1
1.693946180E0,8.836998940E0,-4.642356873E0,2.370259613E-1
1.695929823E0,8.765172005E0,-4.742913723E0,2.274491638E-1
1.697943983E0,8.671798706E0,-4.807557106E0,1.915361285E-1
1.699927625E0,8.631096840E0,-4.845864296E0,1.867477298E-1
1.701941786E0,8.561665535E0,-4.922478676E0,1.747767180E-1
1.703925428E0,8.475474358E0,-4.999093056E0,2.609679997E-1
1.705909071E0,8.437167168E0,-5.049371243E0,4.046200812E-1
1.707892713E0,8.346187592E0,-5.178658485E0,1.010353088E0
1.709876356E0,8.113949776E0,-5.260061264E0,1.805228114E0
1.711890516E0,7.975085735E0,-5.295974255E0,2.138022184E0
1.713904676E0,7.788338184E0,-5.420472622E0,2.664746523E0
1.715888319E0,7.754819393E0,-5.600037575E0,3.076549292E0
1.717902479E0,7.730877399E0,-5.671864033E0,3.325546265E0
1.719886121E0,7.577648163E0,-5.817910194E0,3.859453201E0
1.721900282E0,7.469909191E0,-5.880159378E0,4.156333923E0
1.723914442E0,7.453149796E0,-5.985504150E0,4.328716755E0
1.725898084E0,7.254431248E0,-5.990292549E0,5.082890034E0
1.727912245E0,7.165845871E0,-5.985504150E0,5.425261021E0
1.729895887E0,7.271190643E0,-6.021417141E0,5.518634796E0
1.731910047E0,7.541735172E0,-6.050147533E0,4.884171486E0
1.733893690E0,7.635109425E0,-6.052541733E0,4.460397720E0
1.735907850E0,7.800309181E0,-6.050147533E0,3.634398222E0
1.737891493E0,7.920019150E0,-6.016628742E0,2.896984100E0
1.739875135E0,7.991845131E0,-6.014234543E0,2.576161146E0
1.741889295E0,8.185775757E0,-5.983109951E0,1.958456993E0
1.743872938E0,8.394071579E0,-5.904101372E0,1.429338455E0
1.745887098E0,8.497021675E0,-5.853823185E0,1.170764685E0
1.747870741E0,8.640673637E0,-5.738901615E0,7.733271718E-1
1.749854383E0,8.793902397E0,-5.576095581E0,3.974374831E-1
1.751838026E0,8.877699852E0,-5.501875401E0,2.178723514E-1
1.753821668E0,9.014169693E0,-5.391742229E0,-1.125274822E-1
1.755835828E0,9.160215378E0,-5.319916248E0,-4.309563041E-1
1.757819471E0,9.196128845E0,-5.267243862E0,-6.081272364E-1
1.759803114E0,9.191340446E0,-5.202600479E0,-9.217676520E-1
1.761817274E0,9.150638580E0,-5.183446884E0,-1.051054597E0
1.763800916E0,9.114726067E0,-5.166687489E0,-1.233013868E0
1.765815077E0,8.980650902E0,-5.166687489E0,-1.273715258E0
1.767829237E0,8.868123055E0,-5.171475887E0,-1.285686255E0
1.769812879E0,8.616731644E0,-5.195417881E0,-1.335964561E0
1.771796522E0,8.389283180E0,-5.236119270E0,-1.331176162E0
1.773780164E0,8.279149055E0,-5.252878666E0,-1.328781962E0
1.775794325E0,8.018181801E0,-5.281609058E0,-1.364694953E0
1.777777967E0,7.709329605E0,-5.303156853E0,-1.314416766E0
1.779761610E0,7.556100368E0,-5.303156853E0,-1.276109457E0
1.781775770E0,7.199364662E0,-5.334281445E0,-1.182735682E0
1.783759412E0,6.878541470E0,-5.363011837E0,-1.127668977E0
1.785773573E0,6.718130112E0,-5.372588634E0,-1.086967587E0
1.787757215E0,6.445190907E0,-5.377377033E0,-1.031900883E0
1.789740858E0,6.143521786E0,-5.379771233E0,-9.552865028E-1
1.791724500E0,6.004657745E0,-5.377377033E0,-9.361328483E-1
1.793708143E0,5.750872612E0,-5.418078423E0,-9.888052940E-1
1.795722303E0,5.580883980E0,-5.451597214E0,-1.007958889E0
1.797736463E0,5.480327606E0,-5.504269600E0,-9.145850539E-1
1.799720106E0,5.396530628E0,-5.535394192E0,-8.667010069E-1
1.801734266E0,5.391742229E0,-5.559336185E0,-8.164227605E-1
1.803717909E0,5.351040840E0,-5.552153587E0,-6.512228847E-1
1.805732069E0,5.329493046E0,-5.544970989E0,-4.453215301E-1
1.807746229E0,5.312733650E0,-5.559336185E0,-3.375824392E-1
1.809729871E0,5.284003258E0,-5.571307182E0,-1.364694983E-1
1.811713514E0,5.264849663E0,-5.576095581E0,2.873042040E-2
1.813697157E0,5.284003258E0,-5.561730385E0,1.077390760E-1
1.815680799E0,5.353435040E0,-5.578489780E0,2.082955539E-1
1.817664442E0,5.444414616E0,-5.585672379E0,2.442085743E-1
1.819678602E0,5.465962410E0,-5.588066578E0,2.346317619E-1
1.821662245E0,5.576095581E0,-5.588066578E0,1.532289088E-1
1.823676405E0,5.585672379E0,-5.602431774E0,2.154781483E-2
1.825660047E0,5.616796970E0,-5.609614372E0,-7.900865376E-2
1.827643690E0,5.781997204E0,-5.592854977E0,-2.944868207E-1
1.829657850E0,5.904101372E0,-5.571307182E0,-4.501099288E-1
1.831641493E0,5.966350555E0,-5.547365189E0,-5.315127969E-1
1.833625135E0,6.143521786E0,-5.487510204E0,-6.296750307E-1
1.835608778E0,6.232107162E0,-5.453991413E0,-6.560112834E-1
1.837592420E0,6.454767704E0,-5.398924828E0,-7.062895298E-1
1.839606580E0,6.675034523E0,-5.370194435E0,-7.757213712E-1
1.841590223E0,6.782773495E0,-5.346252441E0,-7.996633649E-1
1.843604383E0,6.928819656E0,-5.305551052E0,-8.068459630E-1
1.845588026E0,7.015010834E0,-5.276820660E0,-8.307880163E-1
1.847571668E0,7.041347027E0,-5.255272865E0,-8.667010069E-1
1.849585828E0,7.029376030E0,-5.250484467E0,-9.217676520E-1
1.851599989E0,7.067683220E0,-5.272032261E0,-9.911994934E-1
1.853583631E0,7.091625214E0,-5.284003258E0,-1.019929886E0
1.855567274E0,7.120356083E0,-5.315127850E0,-1.106121182E0
1.857550916E0,7.117961884E0,-5.355829239E0,-1.230619669E0
1.859565077E0,7.125144482E0,-5.367800236E0,-1.307234168E0
1.861548719E0,7.132327080E0,-5.372588634E0,-1.383848548E0
1.863562879E0,7.149086475E0,-5.394136429E0,-1.446097851E0
1.865546522E0,7.149086475E0,-5.398924828E0,-1.467645645E0
1.867530164E0,7.173028469E0,-5.408501625E0,-1.503558636E0
1.869544325E0,7.180211067E0,-5.422866821E0,-1.522712231E0
1.871558485E0,7.132327080E0,-5.449203014E0,-1.565807939E0
1.873542127E0,7.115567684E0,-5.482721806E0,-1.592144132E0
1.875525770E0,7.105990410E0,-5.511452198E0,-1.608903527E0
1.877509412E0,7.060500622E0,-5.559336185E0,-1.654393315E0
1.879523573E0,7.046135426E0,-5.602431774E0,-1.651999116E0
1.881507215E0,7.038952827E0,-5.631162167E0,-1.644816518E0
1.883521375E0,7.019799232E0,-5.702988625E0,-1.668758631E0
1.885505018E0,7.022193432E0,-5.765237808E0,-1.707065821E0
1.887488661E0,7.026981831E0,-5.781997204E0,-1.733402014E0
1.889502821E0,7.026981831E0,-5.839457989E0,-1.747767210E0
1.891486463E0,7.022193432E0,-5.882553577E0,-1.754949808E0
1.893500623E0,7.041347027E0,-5.899312973E0,-1.759738207E0
1.895514784E0,7.096413612E0,-5.954379559E0,-1.750161409E0
1.897498426E0,7.139509678E0,-5.985504150E0,-1.702277422E0
1.899482069E0,7.168240070E0,-5.997475147E0,-1.668758631E0
1.901465711E0,7.194576263E0,-6.052541733E0,-1.613691926E0
1.903449354E0,7.201758862E0,-6.066906929E0,-1.580173135E0
1.905432996E0,7.242460251E0,-6.117185116E0,-1.510741234E0
1.907447157E0,7.275979042E0,-6.145915985E0,-1.448492050E0
1.909461317E0,7.299921036E0,-6.167463779E0,-1.424550056E0
1.911444959E0,7.386112213E0,-6.217741966E0,-1.352723956E0
1.913428602E0,7.474697590E0,-6.282385349E0,-1.314416766E0
1.915412245E0,7.539340973E0,-6.320692539E0,-1.302445769E0
1.917426405E0,7.642292023E0,-6.378153324E0,-1.297657371E0
1.919410047E0,7.752425194E0,-6.399701118E0,-1.302445769E0
1.921393690E0,7.814674377E0,-6.397306919E0,-1.295263171E0
1.923346815E0,7.927201748E0,-6.380547523E0,-1.304839969E0
1.925360975E0,8.008605003E0,-6.370970726E0,-1.321599364E0
1.927344618E0,8.058882713E0,-6.361393929E0,-1.323993564E0
1.929328260E0,8.140285492E0,-6.344634533E0,-1.338358760E0
1.931342420E0,8.243236542E0,-6.330269337E0,-1.350329757E0
1.933326063E0,8.281543732E0,-6.327875137E0,-1.350329757E0
1.935340223E0,8.336610794E0,-6.315904140E0,-1.405396342E0
1.937323866E0,8.307879448E0,-6.330269337E0,-1.503558636E0
1.939307508E0,8.252813339E0,-6.366182327E0,-1.747767210E0
1.941321668E0,8.315062523E0,-6.397306919E0,-1.812410712E0
1.943305311E0,8.355764389E0,-6.416460514E0,-1.810016513E0
1.945319471E0,8.410830498E0,-6.473921299E0,-1.764526606E0
1.947333631E0,9.394847870E0,-7.323863029E0,-2.853888512E0
1.949317274E0,1.080982113E1,-8.645462036E0,-4.944026470E0
1.951331434E0,1.033576870E1,-7.560888767E0,-6.095637321E0
1.953315077E0,7.637503624E0,-4.821922302E0,-3.313575268E0
1.955329237E0,7.211335659E0,-4.551377296E0,-2.401384354E0
1.957312879E0,7.812280178E0,-5.580883980E0,-2.027888775E0
1.959296522E0,8.470685959E0,-6.710947514E0,-2.312798738E0
1.961310682E0,8.535328865E0,-6.988674641E0,-2.322375536E0
1.963294325E0,8.355764389E0,-7.230489254E0,-2.142810583E0
1.965308485E0,7.955932140E0,-7.211335659E0,-1.886630893E0
1.967292127E0,7.718906403E0,-7.120356083E0,-1.747767210E0
1.969275770E0,7.393294811E0,-6.873753071E0,-1.458068848E0
1.971259412E0,7.304709435E0,-6.746860504E0,-1.335964561E0
1.973243055E0,7.326257229E0,-6.603208065E0,-1.165976286E0
1.975257215E0,7.424419403E0,-6.588842869E0,-1.034295082E0
1.977271375E0,7.457938194E0,-6.605602264E0,-9.576807022E-1
1.979255018E0,7.465120792E0,-6.648698330E0,-8.954314590E-1
1.981238661E0,7.352593422E0,-6.653486729E0,-8.667010069E-1
1.983222303E0,7.285555840E0,-6.653486729E0,-8.331822157E-1
1.985236463E0,7.156269073E0,-6.667851925E0,-8.068459630E-1
1.987250623E0,7.043741226E0,-6.696582317E0,-8.523358107E-1
1.989234266E0,6.986280441E0,-6.687005520E0,-8.738836050E-1
1.991217909E0,6.866570473E0,-6.646304131E0,-8.355764151E-1
1.993201551E0,6.758831501E0,-6.550535679E0,-7.852981687E-1
1.995215711E0,6.713341713E0,-6.507440090E0,-7.613561153E-1
1.997229871E0,6.610390663E0,-6.416460514E0,-7.541735172E-1
1.999213514E0,6.528987885E0,-6.366182327E0,-8.092401624E-1
2.001227674E0,6.507440090E0,-6.337451935E0,-8.379706144E-1
2.003211317E0,6.512228489E0,-6.275202751E0,-9.145850539E-1
2.005225477E0,6.459556103E0,-6.251260757E0,-9.959878922E-1
2.007209120E0,6.397306919E0,-6.220136166E0,-1.043871999E0
2.009192762E0,6.325480938E0,-6.153098583E0,-1.173158884E0
2.011206922E0,6.244078159E0,-6.129156113E0,-1.350329757E0
2.013190565E0,6.186617374E0,-6.050147533E0,-1.446097851E0
2.015204725E0,6.062118530E0,-5.980715752E0,-1.630451322E0
2.017188368E0,6.047753334E0,-5.978321552E0,-1.704671621E0
2.019172010E0,6.102819920E0,-5.978321552E0,-1.817199111E0
2.021186170E0,6.110002518E0,-5.983109951E0,-1.896207690E0
2.023169813E0,6.102819920E0,-5.978321552E0,-1.912967205E0
2.025183973E0,6.083666325E0,-5.971138954E0,-1.927332401E0
2.027198133E0,6.071695328E0,-5.951985359E0,-1.932120800E0
2.029181776E0,6.078877926E0,-5.911283970E0,-1.905784607E0
2.031165418E0,6.093243122E0,-5.839457989E0,-1.836352706E0
2.033149061E0,6.124367714E0,-5.762843609E0,-1.750161409E0
2.035163221E0,6.220136166E0,-5.753266811E0,-1.625662923E0
2.037177381E0,6.505045891E0,-5.750872612E0,-1.230619669E0
2.039161024E0,6.610390663E0,-5.681440830E0,-8.882488012E-1
2.041144666E0,6.631938934E0,-5.659893036E0,-7.637503147E-1
2.043128309E0,6.658275127E0,-5.614402771E0,-5.434837937E-1
2.045142469E0,6.710947514E0,-5.597643375E0,-3.136404157E-1
2.047126112E0,6.727706909E0,-5.609614372E0,-2.202665508E-1
2.049140272E0,6.780379295E0,-5.640739441E0,4.788403399E-3
2.051123914E0,6.799532890E0,-5.640739441E0,8.379705995E-2
2.053138075E0,6.787561893E0,-5.657498837E0,1.987187415E-1
2.055121717E0,6.742072105E0,-5.705382824E0,2.825157940E-1
2.057105360E0,6.701370716E0,-5.707777023E0,1.891419291E-1
2.059119520E0,6.631938934E0,-5.748478413E0,-2.298433632E-1
2.061103162E0,6.658275127E0,-5.829881191E0,-5.937620401E-1
2.063117323E0,6.696582317E0,-5.861005783E0,-7.278373241E-1
2.065100965E0,6.813898087E0,-5.940014362E0,-9.983820915E-1
2.067084608E0,6.840234280E0,-6.028599739E0,-1.419761658E0
2.069098768E0,6.840234280E0,-6.050147533E0,-1.640028119E0
2.071082411E0,6.785167694E0,-6.071695328E0,-2.032677174E0
2.073096571E0,6.799532890E0,-6.088454723E0,-2.351106167E0
2.075080213E0,6.830657482E0,-6.098031521E0,-2.456450939E0
2.077063856E0,6.871358871E0,-6.107608318E0,-2.557007313E0
2.079078016E0,6.936002254E0,-6.107608318E0,-2.458845139E0
2.081061659E0,6.964732647E0,-6.090848923E0,-2.377442360E0
2.083075819E0,6.981492043E0,-6.045359135E0,-2.178723574E0
2.085059461E0,6.955155849E0,-6.026205540E0,-1.984793186E0
2.087043104E0,6.971915245E0,-5.990292549E0,-1.865083098E0
2.089026746E0,7.024587631E0,-5.956773758E0,-1.656787634E0
2.091010389E0,7.036558628E0,-5.944802761E0,-1.522712231E0
2.093024549E0,7.034164429E0,-5.935225964E0,-1.367089152E0
2.095038709E0,7.086836815E0,-5.951985359E0,-1.266532660E0
2.097022352E0,7.129932880E0,-5.968744755E0,-1.221042871E0
2.099036512E0,7.194576263E0,-6.023811340E0,-1.113303781E0
2.101020155E0,7.213729858E0,-6.090848923E0,-1.096544385E0
2.103034315E0,7.220912457E0,-6.126761913E0,-1.070208192E0
2.105048475E0,7.244854450E0,-6.167463779E0,-1.031900883E0
2.107032118E0,7.242460251E0,-6.181828976E0,-1.029506683E0
2.109046278E0,7.244854450E0,-6.177040577E0,-1.012747288E0
2.111060438E0,7.237671852E0,-6.145915985E0,-9.576807022E-1
2.113044080E0,7.256825447E0,-6.093243122E0,-8.667010069E-1
2.115027723E0,7.266402245E0,-6.078877926E0,-8.116343617E-1
2.117011366E0,7.302315235E0,-6.062118530E0,-6.751648784E-1
2.119025526E0,7.366958618E0,-6.071695328E0,-5.793967843E-1
2.121009168E0,7.407660007E0,-6.066906929E0,-5.339069963E-1
2.123023328E0,7.479485989E0,-6.050147533E0,-4.237737060E-1
2.125006971E0,7.532158375E0,-6.057330132E0,-3.495534360E-1
2.126990614E0,7.541735172E0,-6.059724331E0,-2.944868207E-1
2.129004774E0,7.558494568E0,-6.054935932E0,-2.681505978E-1
2.131018934E0,7.544129372E0,-6.052541733E0,-2.753331959E-1
2.133002577E0,7.496245384E0,-6.071695328E0,-3.232172430E-1
2.134986219E0,7.467514992E0,-6.129156113E0,-4.213795066E-1
2.136969862E0,7.453149796E0,-6.167463779E0,-4.884171486E-1
2.138984022E0,7.400477409E0,-6.217741966E0,-5.865794420E-1
2.140967664E0,7.331045628E0,-6.236895561E0,-6.775590777E-1
2.142981825E0,7.278373241E0,-6.244078159E0,-7.302315235E-1
2.144965467E0,7.220912457E0,-6.234501362E0,-8.020575643E-1
2.146949110E0,7.165845871E0,-6.222530365E0,-8.379706144E-1
2.148963270E0,7.149086475E0,-6.212953568E0,-8.403648138E-1
2.150946912E0,7.110779285E0,-6.205770969E0,-8.403648138E-1
2.152961073E0,7.038952827E0,-6.212953568E0,-8.188169599E-1
2.154944715E0,7.036558628E0,-6.229712963E0,-7.805097699E-1
2.156928358E0,6.986280441E0,-6.265625954E0,-6.823474765E-1
2.158942518E0,6.907271862E0,-6.296750546E0,-5.674257874E-1
2.160926161E0,6.854599476E0,-6.284779549E0,-5.123591423E-1
2.162940321E0,6.732495308E0,-6.248866558E0,-3.543418646E-1
2.164923963E0,6.612784863E0,-6.222530365E0,-2.920926213E-1
2.166907606E0,6.562506676E0,-6.177040577E0,-1.149216816E-1
2.168921766E0,6.478709698E0,-6.124367714E0,3.351882473E-2
2.170935926E0,6.433219910E0,-6.102819920E0,8.619125932E-2
2.172919569E0,6.356605530E0,-6.105214119E0,2.154781520E-1
2.174903211E0,6.323086739E0,-6.107608318E0,2.753331959E-1
2.176886854E0,6.291962147E0,-6.119579315E0,2.896983922E-1
2.178901014E0,6.165069580E0,-6.105214119E0,3.112462163E-1
2.180884657E0,6.028599739E0,-6.054935932E0,3.160346150E-1
2.182898817E0,5.968744755E0,-6.026205540E0,3.016694188E-1
2.184882459E0,5.899312973E0,-5.980715752E0,2.346317619E-1
2.186866102E0,5.815515995E0,-5.975927353E0,1.747767180E-1
2.188880262E0,5.753266811E0,-5.954379559E0,1.101332754E-1
2.190894422E0,5.597643375E0,-5.863399982E0,-2.394201607E-2
2.192878065E0,4.747702122E0,-5.178658485E0,-3.926490843E-1
2.194892225E0,4.082113743E0,-4.709394932E0,-6.775590777E-1
2.196875868E0,3.952826977E0,-4.529829502E0,-8.427590132E-1
2.198890028E0,4.268861771E0,-4.747702122E0,-8.930372596E-1
2.200873670E0,4.477157116E0,-4.896142483E0,-9.097966552E-1
2.202857313E0,4.975151062E0,-5.250484467E0,-9.313444495E-1
2.204840955E0,5.193023682E0,-5.413290024E0,-9.481038451E-1
2.206824598E0,5.434837818E0,-5.659893036E0,-9.935936928E-1
2.208838758E0,5.695806026E0,-5.944802761E0,-9.911994934E-1
2.210852918E0,5.796362400E0,-6.057330132E0,-1.003170490E0
2.212836561E0,5.947196960E0,-6.234501362E0,-1.048660398E0
2.214820203E0,6.002263546E0,-6.315904140E0,-1.125274777E0
2.216803846E0,5.983109951E0,-6.291962147E0,-1.182735682E0
2.218818006E0,6.030993938E0,-6.263231754E0,-1.228225470E0
2.220801649E0,6.088454723E0,-6.205770969E0,-1.213860273E0
2.222815809E0,6.102819920E0,-6.162675381E0,-1.221042871E0
2.224799452E0,6.169857979E0,-6.062118530E0,-1.225831270E0
2.226783094E0,6.241683960E0,-5.963956356E0,-1.168370485E0
2.228797254E0,6.263231754E0,-5.892130375E0,-1.144428372E0
2.230780897E0,6.306327343E0,-5.822698593E0,-1.091755986E0
2.232795057E0,6.339846134E0,-5.827486992E0,-1.063025594E0
2.234778700E0,6.344634533E0,-5.829881191E0,-1.058237195E0
2.236762342E0,6.282385349E0,-5.813121796E0,-1.077390790E0
2.238776502E0,6.189011574E0,-5.810727596E0,-1.079784989E0
2.240760145E0,6.088454723E0,-5.743690014E0,-1.149216771E0
2.242774305E0,5.889736176E0,-5.679046631E0,-1.209071875E0
2.244757948E0,5.798756599E0,-5.645527840E0,-1.221042871E0
2.246741590E0,5.643133640E0,-5.583278179E0,-1.221042871E0
2.248755750E0,5.585672379E0,-5.571307182E0,-1.206677675E0
2.250739393E0,5.559336185E0,-5.559336185E0,-1.221042871E0
2.252753553E0,5.537788391E0,-5.523423195E0,-1.261744261E0
2.254737196E0,5.499481201E0,-5.513846397E0,-1.314416766E0
2.256720838E0,5.425261021E0,-5.475539207E0,-1.345541358E0
2.258734998E0,4.862623692E0,-5.058948040E0,-1.345541358E0
2.260718641E0,4.797980309E0,-5.061342239E0,-1.295263171E0
2.262732801E0,4.884171486E0,-5.185841084E0,-1.323993564E0
2.264716444E0,4.979939461E0,-5.432443619E0,-1.429338455E0
2.266700086E0,4.999093056E0,-5.679046631E0,-1.647210717E0
2.268714246E0,5.015852451E0,-5.808333397E0,-1.750161409E0
2.270697889E0,4.869806290E0,-5.863399982E0,-1.968033791E0
2.272712049E0,4.469974518E0,-5.755661011E0,-2.183511972E0
2.274695692E0,4.338293552E0,-5.731719017E0,-2.257732153E0
2.276679334E0,4.240131378E0,-5.839457989E0,-2.377442360E0
2.278693495E0,4.177882195E0,-5.882553577E0,-2.432508945E0
2.280677137E0,4.003105164E0,-5.937620163E0,-2.559401512E0
2.282691297E0,3.998316765E0,-6.136339188E0,-2.602497339E0
2.284674940E0,3.974374771E0,-6.227318764E0,-2.616862535E0
2.286658582E0,3.861847401E0,-6.416460514E0,-2.669534922E0
2.288672743E0,3.703830004E0,-6.572083473E0,-2.738966703E0
2.290656385E0,3.658340216E0,-6.660669327E0,-2.791639090E0
2.292670545E0,3.653551817E0,-6.847416878E0,-2.870647907E0
2.294654188E0,3.615244627E0,-6.971915245E0,-2.932897091E0
2.296637830E0,3.543418407E0,-6.993463039E0,-2.978386879E0
2.298651991E0,3.263296843E0,-6.912060261E0,-3.074155092E0
2.300635633E0,2.944868088E0,-6.703764915E0,-3.076549292E0
2.302649793E0,2.796427488E0,-6.584054470E0,-3.066972494E0
2.304633436E0,2.841917515E0,-6.588842869E0,-3.026270866E0
2.306617078E0,3.100491285E0,-6.725312710E0,-2.858676910E0
2.308631239E0,3.213018656E0,-6.787561893E0,-2.762908697E0
2.310645399E0,3.517082214E0,-6.962338448E0,-2.530671120E0
2.312629041E0,3.852270603E0,-7.060500622E0,-2.286462545E0
2.314612684E0,4.012681961E0,-7.242460251E0,-2.082955360E0
2.316596327E0,4.237737179E0,-7.304709435E0,-1.491587639E0
2.318610487E0,4.302380562E0,-7.271190643E0,-1.340752959E0
2.320594129E0,4.381389141E0,-7.182605267E0,-1.328781962E0
2.322608289E0,4.419696331E0,-7.026981831E0,-1.328781962E0
2.324591932E0,4.486733913E0,-6.983886242E0,-1.266532660E0
2.326575575E0,4.900930882E0,-7.096413612E0,-1.154005170E0
2.328589735E0,5.480327606E0,-7.354987621E0,-1.101332784E0
2.330603895E0,5.700594425E0,-7.474697590E0,-1.137245774E0
2.332587537E0,5.997475147E0,-7.702147007E0,-1.206677675E0
2.334571180E0,6.145915985E0,-7.862558365E0,-1.304839969E0
2.336554823E0,6.193799973E0,-7.936778545E0,-1.335964561E0
2.338568983E0,6.282385349E0,-8.101978302E0,-1.448492050E0
2.340552625E0,6.215347767E0,-8.224082947E0,-1.479616642E0
2.342566786E0,6.138733387E0,-8.255207062E0,-1.513135433E0
2.344550428E0,5.935225964E0,-8.281543732E0,-1.565807939E0
2.346534071E0,5.631162167E0,-8.188169479E0,-1.606509328E0
2.348548231E0,5.544970989E0,-8.178592682E0,-1.623268723E0
2.350562391E0,5.513846397E0,-8.188169479E0,-1.707065821E0
2.352546034E0,5.509057999E0,-8.207323074E0,-1.790862918E0
2.354560194E0,5.537788391E0,-8.286332130E0,-1.898601890E0
2.356543836E0,5.544970989E0,-8.386888504E0,-2.020706177E0
2.358557996E0,5.501875401E0,-8.418013573E0,-2.066195965E0
2.360541639E0,5.319916248E0,-8.461109161E0,-2.166752577E0
2.362525282E0,5.188235283E0,-8.590395927E0,-2.154781580E0
2.364508924E0,5.185841084E0,-8.669404030E0,-2.121262789E0
2.366492567E0,5.152322292E0,-8.820239067E0,-2.023100376E0
2.368506727E0,5.080495834E0,-8.968679428E0,-1.996764183E0
2.370490370E0,5.075707436E0,-9.054870605E0,-1.980004787E0
2.372504530E0,4.884171486E0,-9.165003777E0,-1.982398987E0
2.374488172E0,4.558559895E0,-9.179368973E0,-2.008735180E0
2.376471815E0,4.441244125E0,-9.251194954E0,-1.953668594E0
2.378485975E0,4.371812344E0,-9.471462250E0,-1.678335428E0
2.380469618E0,4.357447147E0,-9.682151794E0,-1.316810966E0
2.382483778E0,4.323928356E0,-9.753977776E0,-1.180341482E0
2.384497938E0,4.321534157E0,-9.943120003E0,-9.121908545E-1
2.386481580E0,4.309563160E0,-1.001973438E1,-6.919242740E-1
2.388465223E0,4.328716755E0,-1.015380955E1,-6.057330370E-1
2.390448866E0,5.178658485E0,-1.101093388E1,-1.041477680E0
2.392463026E0,6.110002518E0,-1.176989555E1,-1.556231141E0
2.394446668E0,7.886500359E0,-1.315135002E1,-3.045424461E0
2.396430311E0,8.370129585E0,-1.366849709E1,-4.656722069E0
2.398413953E0,8.104372978E0,-1.354399872E1,-5.355829239E0
2.400397596E0,7.029376030E0,-1.279700851E1,-6.414066315E0
2.402411756E0,5.949591160E0,-1.189200020E1,-6.931213856E0
2.404395399E0,5.571307182E0,-1.148498535E1,-6.883329868E0
2.406379041E0,5.295974255E0,-1.085770512E1,-6.325480938E0
2.408362684E0,5.446808815E0,-1.046505547E1,-5.346252441E0
2.410346327E0,5.619191170E0,-1.037886429E1,-4.771644115E0
2.412360487E0,6.076483727E0,-1.036928749E1,-3.682282209E0
2.414374647E0,6.370970726E0,-1.049618053E1,-2.655169725E0
2.416358289E0,6.502651691E0,-1.057518864E1,-2.214636564E0
2.418372450E0,6.725312710E0,-1.071884060E1,-1.422155857E0
2.420356092E0,7.022193432E0,-1.077390766E1,-8.930372596E-1
2.422370252E0,7.173028469E0,-1.080024433E1,-6.991068721E-1
2.424384412E0,7.424419403E0,-1.078587818E1,-3.782838583E-1
2.426368055E0,7.491456985E0,-1.074278259E1,-2.442085743E-1
2.428351698E0,7.541735172E0,-1.065898609E1,-1.747767180E-1
2.430335340E0,7.524975777E0,-1.059194851E1,-3.160346150E-1
2.432349500E0,7.563282967E0,-1.059194851E1,-4.381389022E-1
2.434333143E0,7.826645374E0,-1.080263805E1,-6.584054828E-1
2.436316786E0,7.879317760E0,-1.100375080E1,-8.475474119E-1
2.438330946E0,7.773972988E0,-1.102290440E1,-1.005564690E0
2.440314588E0,7.424419403E0,-1.096304989E1,-1.424550056E0
2.442328748E0,6.938396454E0,-1.082897472E1,-1.879448295E0
2.444342909E0,6.691793919E0,-1.073799419E1,-2.063801765E0
2.446326551E0,6.308721542E0,-1.053927612E1,-2.410961151E0
2.448340711E0,6.009446144E0,-1.036210537E1,-2.743755102E0
2.450354871E0,5.858611584E0,-1.027351952E1,-2.853888512E0
2.452369032E0,5.640739441E0,-1.016338634E1,-3.066972494E0
2.454383192E0,5.427655220E0,-1.005564690E1,-3.153163671E0
2.456366834E0,5.310339451E0,-9.988609314E0,-3.203441858E0
2.458350477E0,5.195417881E0,-9.976638794E0,-3.129221678E0
2.460334120E0,5.224148273E0,-1.006761837E1,-2.966415882E0
2.462348280E0,5.272032261E0,-1.012747288E1,-2.868253708E0
2.464331922E0,5.245696068E0,-1.023281765E1,-2.597708941E0
2.466346082E0,4.994304657E0,-1.023760605E1,-2.413355350E0
2.468329725E0,4.742913723E0,-1.013226128E1,-2.032677174E0
2.470313368E0,4.168305397E0,-9.921571732E0,-1.690306425E0
2.472327528E0,3.998316765E0,-9.854534149E0,-1.441309452E0
2.474341688E0,3.600879431E0,-9.703699112E0,-9.672574997E-1
2.476325330E0,3.107673883E0,-9.457097054E0,-6.153098345E-1
2.478308973E0,2.920926094E0,-9.385271072E0,-5.123591423E-1
2.480292616E0,2.461239338E0,-9.203310966E0,-3.854664862E-1
2.482306776E0,1.999158382E0,-9.052476883E0,-2.873041928E-1
2.484290418E0,1.790862918E0,-9.009381294E0,-2.585737705E-1
2.486304578E0,1.254561663E0,-8.865729332E0,-1.580173075E-1
2.488288221E0,9.648633003E-1,-8.920795441E0,-6.703764945E-2
2.490271864E0,9.193734527E-1,-9.002198219E0,3.591302410E-2
2.492286024E0,9.696516991E-1,-9.198522568E0,2.466027737E-1
2.494300184E0,1.031900883E0,-9.406818390E0,5.027823448E-1
2.496283827E0,9.624691010E-1,-9.449913979E0,6.392518282E-1
2.498267469E0,7.206547260E-1,-9.409213066E0,7.972691655E-1
2.500251112E0,4.333505034E-1,-9.351752281E0,9.265560508E-1
2.502234754E0,2.944868207E-1,-9.229647636E0,9.313444495E-1
2.504218397E0,1.604115069E-1,-9.143456459E0,9.313444495E-1
2.506232557E0,1.364694983E-1,-9.121908188E0,9.217676520E-1
2.508246717E0,9.097966552E-2,-9.069235802E0,8.714894056E-1
2.510230360E0,1.484405100E-1,-9.097966194E0,7.254431248E-1
2.512214002E0,2.274491638E-1,-9.126696587E0,6.320692301E-1
2.514197645E0,4.740519226E-1,-9.191340446E0,4.118026793E-1
2.516211805E0,6.655880809E-1,-9.244012833E0,1.651999205E-1
2.518195448E0,7.230489254E-1,-9.260771751E0,2.154781483E-2
2.520179090E0,7.924807668E-1,-9.236829758E0,-2.202665508E-1
2.522162733E0,8.547300100E-1,-9.184157372E0,-4.189853072E-1
2.524146375E0,8.403648138E-1,-9.121908188E0,-4.955997467E-1
2.526160536E0,6.440402865E-1,-8.882488251E0,-5.339069963E-1
2.528144178E0,4.620809257E-1,-8.662221909E0,-4.644751251E-1
2.530158338E0,4.405331016E-1,-8.609549522E0,-4.692635238E-1
2.532172498E0,4.261679053E-1,-8.561665535E0,-5.626373887E-1
2.534156141E0,4.477157295E-1,-8.566453934E0,-8.547300100E-1
2.536139784E0,4.955997467E-1,-8.599972725E0,-1.089361787E0
2.538123426E0,6.655880809E-1,-8.621520042E0,-1.721431017E0
2.540137586E0,6.248866320E-1,-8.604761124E0,-2.049436569E0
2.542121229E0,4.764461517E-1,-8.540117264E0,-2.650381327E0
2.544135389E0,2.633621991E-1,-8.403648376E0,-3.253720045E0
2.546119032E0,5.267243832E-2,-8.310274124E0,-3.567360640E0
2.548102674E0,-1.149216816E-1,-8.140285492E0,-4.187458992E0
2.550116834E0,-4.309563041E-1,-7.917624950E0,-4.881777287E0
2.552130995E0,-6.153098345E-1,-7.793126583E0,-5.255272865E0
2.554114637E0,-9.385270476E-1,-7.486668587E0,-5.920860767E0
2.556098280E0,-1.352723956E0,-7.043741226E0,-6.447585106E0
2.558081922E0,-1.458068848E0,-6.754043102E0,-6.722918510E0
2.560096082E0,-1.568202138E0,-6.074089527E0,-7.410054207E0
2.562079725E0,-9.983820915E-1,-5.535394192E0,-8.051700592E0
2.564093885E0,-5.267243981E-1,-5.394136429E0,-8.200140953E0
2.566077528E0,1.165976286E0,-5.449203014E0,-7.785943985E0
2.568061170E0,3.045424461E0,-5.884947777E0,-6.813898087E0
2.570075330E0,3.885789394E0,-6.114790916E0,-6.200982571E0
2.572058973E0,5.195417881E0,-6.521805286E0,-4.541800499E0
2.574073133E0,5.805939198E0,-6.639121532E0,-3.639186621E0
2.576056776E0,5.827486992E0,-6.648698330E0,-2.051830769E0
2.578040418E0,5.506663799E0,-6.560112476E0,-7.661445141E-1
2.580054578E0,5.209783077E0,-6.514622688E0,-2.154781520E-1
2.582038221E0,4.685452938E0,-6.603208065E0,4.261679053E-1
2.584052381E0,4.328716755E0,-6.981492043E0,5.793967843E-1
2.586036024E0,4.299986362E0,-7.201758862E0,6.105214357E-1
2.588019666E0,4.146757126E0,-7.594407558E0,5.817909837E-1
2.590033827E0,3.971980572E0,-7.912836552E0,4.860229492E-1
2.592017469E0,4.010287762E0,-8.075642586E0,4.812345505E-1
2.594031629E0,3.828328609E0,-8.324639320E0,4.094084799E-1
2.596015272E0,3.596091032E0,-8.487444878E0,1.795651317E-1
2.597998914E0,3.452438831E0,-8.566453934E0,1.915361360E-2
2.600013075E0,3.646369219E0,-8.781931877E0,-2.226607651E-1
2.601996717E0,4.010287762E0,-8.930372238E0,-7.015010715E-1
2.604010877E0,4.328716755E0,-8.987833023E0,-8.164227605E-1
2.605994520E0,4.244919777E0,-8.968679428E0,-1.197100878E0
2.607978162E0,4.855441093E0,-9.009381294E0,-1.403002143E0
2.609992323E0,4.924872875E0,-9.069235802E0,-1.568202138E0
2.611975965E0,4.817133904E0,-9.030928612E0,-1.877054095E0
2.613959608E0,5.152322292E0,-9.057265282E0,-1.946485996E0
2.615973768E0,5.578489780E0,-9.059659004E0,-1.991975784E0
2.617957411E0,5.949591160E0,-9.085995674E0,-1.929726601E0
2.619971571E0,6.138733387E0,-9.097966194E0,-1.927332401E0
2.621985731E0,6.347028732E0,-9.057265282E0,-1.802833915E0
2.623969373E0,6.842628479E0,-9.035717010E0,-1.687912226E0
2.625953016E0,6.895300865E0,-9.028534889E0,-1.731007814E0
2.627936659E0,6.806715488E0,-9.052476883E0,-1.893813491E0
2.629950819E0,6.878541470E0,-9.093177795E0,-1.958456993E0
2.631934461E0,6.959944248E0,-9.112331390E0,-1.956062794E0
2.633918104E0,6.945579052E0,-9.174580574E0,-1.996764183E0
2.635901746E0,6.754043102E0,-9.239224434E0,-1.996764183E0
2.637885389E0,6.660669327E0,-9.267954826E0,-1.970427990E0
2.639899549E0,6.469132900E0,-9.311050415E0,-1.927332401E0
2.641883192E0,6.325480938E0,-9.327810287E0,-1.862688899E0
2.643897352E0,6.301538944E0,-9.358934402E0,-1.807622313E0
2.645880995E0,6.200982571E0,-9.354146004E0,-1.742978811E0
2.647864637E0,6.028599739E0,-9.334992409E0,-1.709460020E0
2.649878797E0,5.861005783E0,-9.330204010E0,-1.726219416E0
2.651892957E0,5.755661011E0,-9.289502144E0,-1.805228114E0
2.653876600E0,5.722142220E0,-9.279925346E0,-1.745373011E0
2.655860243E0,5.628767967E0,-9.212887764E0,-1.680729628E0
2.657843885E0,5.643133640E0,-9.124302864E0,-1.683123827E0
2.659858045E0,5.597643375E0,-9.052476883E0,-1.680729628E0
2.661841688E0,5.511452198E0,-8.947132111E0,-1.766920805E0
2.663855848E0,5.336675644E0,-8.884882927E0,-1.900996208E0
2.665839491E0,5.260061264E0,-8.856152534E0,-1.908178806E0
2.667823133E0,5.145139217E0,-8.851364136E0,-1.891419291E0
2.669837293E0,5.037400246E0,-8.882488251E0,-1.884236693E0
2.671851453E0,4.953603268E0,-8.887276649E0,-1.857900500E0
2.673835096E0,4.790797710E0,-8.927978516E0,-1.843535304E0
2.675849256E0,4.637568474E0,-8.925583839E0,-1.786074519E0
2.677832899E0,4.587290287E0,-8.894459724E0,-1.630451322E0
2.679847059E0,4.352658749E0,-8.793902397E0,-1.549048543E0
2.681861219E0,4.043806553E0,-8.748413086E0,-1.568202138E0
2.683844862E0,3.897760391E0,-8.729259491E0,-1.544260144E0
2.685859022E0,3.691859007E0,-8.803479195E0,-1.584961534E0
2.687842664E0,3.660734415E0,-8.889671326E0,-1.625662923E0
2.689856825E0,3.646369219E0,-9.112331390E0,-1.661576033E0
2.691840467E0,3.411737442E0,-9.430760384E0,-1.726219416E0
2.693824110E0,3.244143248E0,-9.595960617E0,-1.776497602E0
2.695807752E0,2.990357876E0,-9.854534149E0,-1.836352706E0
2.697791395E0,2.913743496E0,-1.000776291E1,-1.934514999E0
2.699805555E0,2.908955097E0,-1.007719517E1,-1.965639591E0
2.701789198E0,2.990357876E0,-1.020408726E1,-1.924938202E0
2.703803358E0,3.066972494E0,-1.021605873E1,-1.814804912E0
2.705787000E0,3.026270866E0,-1.023521233E1,-1.766920805E0
2.707770643E0,2.724601507E0,-1.017056847E1,-1.599326730E0
2.709784803E0,2.789244890E0,-1.025436592E1,-1.407790542E0
2.711798963E0,2.918531895E0,-1.038844109E1,-1.367089152E0
2.713782606E0,3.043030262E0,-1.064701462E1,-1.163581967E0
2.715766248E0,2.949656487E0,-1.082179165E1,-1.029506683E0
2.717749891E0,2.861071110E0,-1.088882923E1,-1.017535686E0
2.719764051E0,2.841917515E0,-1.097502041E1,-1.063025594E0
2.721747694E0,2.801215887E0,-1.102769279E1,-1.055842996E0
2.723761854E0,2.746149302E0,-1.111388397E1,-1.151610970E0
2.725745496E0,2.636016130E0,-1.120486355E1,-1.338358760E0
2.727729139E0,2.588132143E0,-1.125514221E1,-1.450886250E0
2.729743299E0,2.501940727E0,-1.133415127E1,-1.592144132E0
2.731757459E0,2.398990154E0,-1.133415127E1,-1.635239720E0
2.733741102E0,2.319981337E0,-1.131739140E1,-1.671152830E0
2.735724745E0,2.200271368E0,-1.127908421E1,-1.685518026E0
2.737708387E0,2.118868589E0,-1.123598862E1,-1.685518026E0
2.739722547E0,2.094926596E0,-1.121683502E1,-1.642422318E0
2.741706190E0,2.020706177E0,-1.121922874E1,-1.570596337E0
2.743720350E0,1.915361404E0,-1.122401714E1,-1.575384736E0
2.745703993E0,1.879448295E0,-1.123598862E1,-1.577778935E0
2.747687635E0,1.857900500E0,-1.121444035E1,-1.611297727E0
2.749701795E0,1.903390408E0,-1.119528675E1,-1.666364431E0
2.751715955E0,1.903390408E0,-1.117373943E1,-1.716642618E0
2.753699598E0,1.893813491E0,-1.112106705E1,-1.788468719E0
2.755683241E0,1.893813491E0,-1.112106705E1,-1.924938202E0
2.757666883E0,1.941697598E0,-1.111149025E1,-1.972822189E0
2.759681043E0,2.039859772E0,-1.108036518E1,-2.025494576E0
2.761664686E0,2.047042370E0,-1.106839466E1,-2.035071373E0
2.763678846E0,2.003946781E0,-1.105163479E1,-2.059013367E0
2.765662489E0,2.070984364E0,-1.103487587E1,-2.140416384E0
2.767646131E0,2.121262789E0,-1.102529907E1,-2.157175779E0
2.769629774E0,2.221819162E0,-1.098938560E1,-2.209848166E0
2.771613416E0,2.303221941E0,-1.094629002E1,-2.329558372E0
2.773627577E0,2.331952572E0,-1.090319443E1,-2.379836559E0
2.775611219E0,2.343923569E0,-1.081700325E1,-2.444479942E0
2.777594862E0,2.355894566E0,-1.074757099E1,-2.482787132E0
2.779609022E0,2.375048161E0,-1.070926380E1,-2.494758129E0
2.781592664E0,2.434903145E0,-1.063743782E1,-2.518700123E0
2.783606825E0,2.449268341E0,-1.053927612E1,-2.487575531E0
2.785590467E0,2.394201756E0,-1.048899746E1,-2.458845139E0
2.787574110E0,2.341529369E0,-1.038365269E1,-2.418143749E0
2.789588270E0,2.286462545E0,-1.032379818E1,-2.343923569E0
2.791571912E0,2.269703150E0,-1.023042393E1,-2.305616140E0
2.793586073E0,2.212242365E0,-1.015141487E1,-2.255337954E0
2.795569715E0,2.185906172E0,-1.011789608E1,-2.252943754E0
2.797553358E0,2.135627985E0,-1.001494598E1,-2.226607561E0
2.799567518E0,2.145204782E0,-9.923966408E0,-2.181117773E0
2.801581678E0,2.157175779E0,-9.880870819E0,-2.161964178E0
2.803565321E0,2.106897593E0,-9.770736694E0,-2.133233786E0
2.805548963E0,2.138022184E0,-9.679757118E0,-2.106897593E0
2.807532606E0,2.183511972E0,-9.655815125E0,-2.087743998E0
2.809546766E0,2.240972757E0,-9.600749016E0,-2.085349798E0
2.811560926E0,2.212242365E0,-9.548076630E0,-2.102109194E0
2.813544569E0,2.202665567E0,-9.526528358E0,-2.085349798E0
2.815558729E0,2.099714994E0,-9.445125580E0,-2.085349798E0
2.817542371E0,1.965639591E0,-9.373299599E0,-2.059013367E0
2.819556532E0,1.893813491E0,-9.301473618E0,-2.051830769E0
2.821570692E0,1.280897856E0,-8.772355080E0,-2.001552582E0
2.823554334E0,1.199495077E0,-8.628703117E0,-2.008735180E0
2.825537977E0,1.295263171E0,-8.662221909E0,-1.970427990E0
2.827521620E0,1.558625340E0,-8.793902397E0,-1.965639591E0
2.829535780E0,1.781286120E0,-8.858546257E0,-2.011129379E0
2.831519422E0,1.836352706E0,-8.995016098E0,-2.030282974E0
2.833503065E0,1.884236693E0,-9.093177795E0,-2.049436569E0
2.835517225E0,1.879448295E0,-9.133879662E0,-2.078166962E0
2.837500868E0,1.752555609E0,-9.208099365E0,-2.145204782E0
2.839515028E0,1.716642618E0,-9.263166428E0,-2.166752577E0
2.841498670E0,1.702277422E0,-9.296685219E0,-2.183511972E0
2.843482313E0,1.719036818E0,-9.330204010E0,-2.171540976E0
2.845465955E0,1.716642618E0,-9.378087997E0,-2.188300371E0
2.847449598E0,1.680729628E0,-9.378087997E0,-2.193088770E0
2.849463758E0,1.704671621E0,-9.366117477E0,-2.149993181E0
2.851477918E0,1.661576033E0,-9.414001465E0,-2.118868589E0
2.853461561E0,1.668758631E0,-9.442731857E0,-2.106897593E0
2.855475721E0,1.558625340E0,-9.471462250E0,-2.054224968E0
2.857459364E0,1.371877551E0,-9.500192642E0,-1.975216389E0
2.859473524E0,1.266532660E0,-9.502586365E0,-1.934514999E0
2.861487684E0,1.101332784E0,-9.519346237E0,-1.788468719E0
2.863471327E0,9.672574997E-1,-9.540893555E0,-1.721431017E0
2.865454969E0,9.074024558E-1,-9.548076630E0,-1.685518026E0
2.867438612E0,7.972691655E-1,-9.550470352E0,-1.635239720E0
2.869452772E0,8.690952063E-1,-9.555258751E0,-1.642422318E0
2.871436414E0,9.696516991E-1,-9.612719536E0,-1.668758631E0
2.873420057E0,1.053448796E0,-9.698910713E0,-1.685518026E0
2.875403700E0,1.043871999E0,-9.703699112E0,-1.675941229E0
2.877387342E0,1.015141487E0,-9.725247383E0,-1.659181833E0
2.879401502E0,1.027112484E0,-9.751583099E0,-1.613691926E0
2.881385145E0,1.070208192E0,-9.775525093E0,-1.601720929E0
2.883399305E0,1.127668977E0,-9.813833237E0,-1.570596337E0
2.885382948E0,1.173158884E0,-9.842563629E0,-1.572990537E0
2.887366590E0,1.194706678E0,-9.856928825E0,-1.551442742E0
2.889380750E0,1.237802267E0,-9.871294022E0,-1.517923832E0
2.891394911E0,1.254561663E0,-9.864110947E0,-1.496376038E0
2.893378553E0,1.249773264E0,-9.852140427E0,-1.486799240E0
2.895362196E0,1.213860273E0,-9.821015358E0,-1.472434044E0
2.897345838E0,1.237802267E0,-9.787496567E0,-1.455674648E0
2.899359998E0,1.290474772E0,-9.773131371E0,-1.441309452E0
2.901343641E0,1.386242747E0,-9.792284966E0,-1.436521053E0
2.903357801E0,1.534683347E0,-9.804255486E0,-1.441309452E0
2.905341444E0,1.601720929E0,-9.806650162E0,-1.467645645E0
2.907325086E0,1.697489023E0,-9.777919769E0,-1.517923832E0
2.909339246E0,1.723825216E0,-9.770736694E0,-1.549048543E0
2.911353407E0,1.788468719E0,-9.773131371E0,-1.577778935E0
2.913337049E0,1.881842494E0,-9.794678688E0,-1.577778935E0
2.915320692E0,1.843535304E0,-9.787496567E0,-1.584961534E0
2.917304334E0,1.704671621E0,-9.792284966E0,-1.582567334E0
2.919318495E0,1.539471745E0,-9.804255486E0,-1.491587639E0
2.921302137E0,1.484405041E0,-9.806650162E0,-1.434126854E0
2.923316297E0,1.525106430E0,-9.859322548E0,-1.345541358E0
2.925299940E0,1.510741234E0,-9.890447617E0,-1.280897856E0
2.927283582E0,1.426944256E0,-9.890447617E0,-1.280897856E0
2.929267225E0,1.383848548E0,-9.955090523E0,-1.290474772E0
2.931250868E0,1.388636947E0,-1.001494598E1,-1.355118155E0
2.933265028E0,1.362300754E0,-1.003888798E1,-1.395819545E0
2.935248670E0,1.280897856E0,-1.003888798E1,-1.470039845E0
2.937232313E0,1.211466074E0,-1.001494598E1,-1.529894829E0
2.939246473E0,1.168370485E0,-9.914389610E0,-1.620874524E0
2.941230116E0,1.144428372E0,-9.856928825E0,-1.683123827E0
2.943244276E0,1.161187768E0,-9.828198433E0,-1.709460020E0
2.945258436E0,1.225831270E0,-9.811438560E0,-1.807622313E0
2.947242078E0,1.443703651E0,-9.866505623E0,-1.841141105E0
2.949225721E0,1.525106430E0,-9.890447617E0,-1.874659896E0
2.951209364E0,1.640028119E0,-9.878476143E0,-2.006340981E0
2.953223524E0,1.572990537E0,-9.722852707E0,-2.149993181E0
2.955237684E0,1.529894829E0,-9.631873131E0,-2.231395960E0
2.957221327E0,1.563413739E0,-9.521739960E0,-2.303221941E0
2.959204969E0,1.582567334E0,-9.478644371E0,-2.379836559E0
2.961188612E0,1.584961534E0,-9.478644371E0,-2.449268341E0
2.963202772E0,1.604115129E0,-9.478644371E0,-2.628833532E0
2.965186414E0,1.539471745E0,-9.380482674E0,-2.743755102E0
2.967200575E0,1.503558636E0,-9.332598686E0,-2.798821688E0
2.969184217E0,1.438915253E0,-9.246406555E0,-2.899378300E0
2.971167860E0,1.470039845E0,-9.236829758E0,-2.961627483E0
2.973182020E0,1.501164436E0,-9.263166428E0,-2.990357876E0
2.975196180E0,1.551442742E0,-9.279925346E0,-3.040636063E0
2.977179823E0,1.671152830E0,-9.279925346E0,-3.026270866E0
2.979163465E0,1.728613615E0,-9.222464561E0,-2.997540474E0
2.981147108E0,1.838746905E0,-9.174580574E0,-2.968810081E0
2.983161268E0,1.850717902E0,-9.129091263E0,-2.932897091E0
2.985175428E0,1.762132406E0,-9.064447403E0,-2.892195702E0
2.987159071E0,1.606509328E0,-9.018958092E0,-2.817975283E0
2.989142713E0,1.584961534E0,-9.023746490E0,-2.777273893E0
2.991126356E0,1.673547029E0,-9.124302864E0,-2.636016130E0
2.993140516E0,1.774103403E0,-9.220070839E0,-2.552218914E0
2.995154676E0,1.771709204E0,-9.239224434E0,-2.521094322E0
2.997138319E0,1.747767210E0,-9.258378029E0,-2.377442360E0
2.999152479E0,1.726219416E0,-9.251194954E0,-2.183511972E0
3.001136121E0,1.740584612E0,-9.217676163E0,-2.075772762E0
3.003150282E0,1.738190413E0,-9.162610054E0,-1.812410712E0
3.005164442E0,1.924938202E0,-9.236829758E0,-1.544260144E0
3.007148084E0,2.025494576E0,-9.294290543E0,-1.414973259E0
3.009131727E0,1.953668594E0,-9.291896820E0,-1.266532660E0
3.011115370E0,1.783680320E0,-9.172186852E0,-1.168370485E0
3.013129530E0,1.673547029E0,-9.112331390E0,-1.118092179E0
3.015113172E0,1.553836942E0,-9.040505409E0,-1.058237195E0
3.017096815E0,1.537077546E0,-9.040505409E0,-1.005564690E0
3.019110975E0,1.486799240E0,-9.002198219E0,-9.696516991E-1
3.021094618E0,1.436521053E0,-8.925583839E0,-9.840168953E-1
3.023108778E0,1.379060149E0,-8.856152534E0,-9.888052940E-1
3.025122938E0,1.103726983E0,-8.678980827E0,-1.012747288E0
3.027106580E0,7.038952708E-1,-8.607154846E0,-9.097966552E-1
3.029120741E0,7.134721279E-1,-8.638279915E0,-8.331822157E-1
3.031104383E0,9.433154464E-1,-8.659827232E0,-7.565677166E-1
3.033118543E0,1.060631394E0,-8.597578049E0,-7.469909191E-1
3.035102186E0,1.103726983E0,-8.513781548E0,-7.685387731E-1
3.037085828E0,1.326387763E0,-8.422801971E0,-8.236053586E-1
3.039099989E0,1.692700624E0,-8.396465302E0,-9.313444495E-1
3.041083631E0,1.860294700E0,-8.386888504E0,-1.019929886E0
3.043097791E0,2.035071373E0,-8.350975990E0,-1.235408068E0
3.045081434E0,2.149993181E0,-8.360552788E0,-1.434126854E0
3.047065077E0,2.205059767E0,-8.396465302E0,-1.537077546E0
3.049079237E0,2.197877169E0,-8.461109161E0,-1.735796213E0
3.051062879E0,2.169146776E0,-8.480262756E0,-1.987187386E0
3.053077039E0,2.130839586E0,-8.461109161E0,-2.104503393E0
3.055060682E0,2.090138197E0,-8.475474358E0,-2.322375536E0
3.057044325E0,2.130839586E0,-8.516175270E0,-2.406172752E0
3.059058485E0,2.205059767E0,-8.659827232E0,-2.607285738E0
3.061042127E0,2.035071373E0,-8.798690796E0,-2.786850691E0
3.063056287E0,1.869871497E0,-8.860940933E0,-2.858676910E0
3.065039930E0,1.529894829E0,-8.954314232E0,-2.942473888E0
3.067023573E0,1.364694953E0,-9.035717010E0,-2.990357876E0
3.069037733E0,1.319205165E0,-9.090784073E0,-3.011905670E0
3.071021375E0,1.218648672E0,-9.222464561E0,-3.045424461E0
3.073035536E0,1.192312479E0,-9.303867340E0,-3.004723072E0
3.075019178E0,1.187524080E0,-9.351752281E0,-2.975992680E0
3.077002821E0,1.213860273E0,-9.497797966E0,-2.868253708E0
3.079016981E0,1.259350061E0,-9.579200745E0,-2.726995707E0
3.081000623E0,1.283292055E0,-9.607931137E0,-2.640804529E0
3.083014784E0,1.307234168E0,-9.648633003E0,-2.504334927E0
3.084998426E0,1.355118155E0,-9.718064308E0,-2.341529369E0
3.086982069E0,1.374271750E0,-9.756371498E0,-2.272097349E0
3.088965711E0,1.395819545E0,-9.799467087E0,-2.173935175E0
3.090949354E0,1.405396342E0,-9.785101891E0,-2.111685991E0
3.092963514E0,1.465251446E0,-9.739612579E0,-2.018311977E0
3.094947157E0,1.510741234E0,-9.710882187E0,-1.927332401E0
3.096930799E0,1.537077546E0,-9.686940193E0,-1.898601890E0
3.098944959E0,1.532289028E0,-9.622296333E0,-1.841141105E0
3.100928602E0,1.529894829E0,-9.526528358E0,-1.757344007E0
3.102942762E0,1.537077546E0,-9.481039047E0,-1.735796213E0
3.104926405E0,1.539471745E0,-9.409213066E0,-1.687912226E0
3.106910047E0,1.608903527E0,-9.339780807E0,-1.661576033E0
3.108924207E0,1.642422318E0,-9.320627213E0,-1.647210717E0
3.110907850E0,1.697489023E0,-9.301473618E0,-1.620874524E0
3.112922010E0,1.733402014E0,-9.275136948E0,-1.630451322E0
3.114905653E0,1.733402014E0,-9.267954826E0,-1.613691926E0
3.116889295E0,1.709460020E0,-9.270348549E0,-1.616086125E0
3.118903455E0,1.707065821E0,-9.294290543E0,-1.640028119E0
3.120887098E0,1.697489023E0,-9.301473618E0,-1.644816518E0
3.122901258E0,1.654393315E0,-9.306262016E0,-1.707065821E0
3.124884901E0,1.671152830E0,-9.301473618E0,-1.750161409E0
3.126868543E0,1.661576033E0,-9.301473618E0,-1.800439715E0
3.128882703E0,1.644816518E0,-9.289502144E0,-1.889025092E0
3.130866346E0,1.620874524E0,-9.272743225E0,-1.934514999E0
3.132880506E0,1.551442742E0,-9.236829758E0,-2.035071373E0
3.134864149E0,1.472434044E0,-9.172186852E0,-2.145204782E0
3.136847791E0,1.465251446E0,-9.145850182E0,-2.219424963E0
3.138861952E0,1.426944256E0,-9.105149269E0,-2.348711967E0
3.140845594E0,1.374271750E0,-9.057265282E0,-2.394201756E0
3.142859754E0,1.323993564E0,-9.014169693E0,-2.406172752E0
3.144873914E0,1.242590666E0,-8.927978516E0,-2.473210335E0
3.146857557E0,1.221042871E0,-8.839392662E0,-2.454056740E0
3.148871717E0,1.192312479E0,-8.798690796E0,-2.446874142E0
3.150855360E0,1.132457376E0,-8.729259491E0,-2.432508945E0
3.152869520E0,1.120486379E0,-8.638279915E0,-2.406172752E0
3.154853162E0,1.132457376E0,-8.602366447E0,-2.387019157E0
3.156836805E0,1.134851575E0,-8.535328865E0,-2.355894566E0
3.158850965E0,1.127668977E0,-8.458714485E0,-2.288856745E0
3.160834608E0,1.130063176E0,-8.403648376E0,-2.252943754E0
3.162848768E0,1.161187768E0,-8.286332130E0,-2.193088770E0
3.164832411E0,1.194706678E0,-8.250418663E0,-2.164358377E0
3.166816053E0,1.228225470E0,-8.164227486E0,-2.130839586E0
3.168799696E0,1.280897856E0,-8.106766701E0,-1.987187386E0
3.170783338E0,1.307234168E0,-8.082824707E0,-1.922544003E0
3.172797498E0,1.352723956E0,-8.044517517E0,-1.845929503E0
3.174811659E0,1.343147159E0,-8.037335396E0,-1.742978811E0
3.176795301E0,1.307234168E0,-8.037335396E0,-1.628057122E0
3.178809461E0,1.321599364E0,-8.049305916E0,-1.470039845E0
3.180793104E0,1.292868972E0,-8.080430984E0,-1.355118155E0
3.182807264E0,1.295263171E0,-8.109161377E0,-1.314416766E0
3.184790907E0,1.259350061E0,-8.147468567E0,-1.211466074E0
3.186774549E0,1.209071875E0,-8.204929352E0,-1.156399369E0
3.188788709E0,1.192312479E0,-8.240841866E0,-1.146822572E0
3.190772352E0,1.132457376E0,-8.319850922E0,-1.084573388E0
3.192786512E0,1.158793569E0,-8.413225174E0,-1.041477680E0
3.194770155E0,1.175553083E0,-8.444349289E0,-1.007958889E0
3.196753797E0,1.204283476E0,-8.535328865E0,-8.236053586E-1
3.198767957E0,1.271321058E0,-8.669404030E0,-6.943184733E-1
3.200782118E0,1.302445769E0,-8.722076416E0,-6.584054828E-1
3.202765760E0,1.374271750E0,-8.801085472E0,-4.022258818E-1
3.204749403E0,1.422155857E0,-8.841787338E0,-2.561795712E-1
3.206733045E0,1.508347034E0,-8.923190117E0,-2.394201700E-3
3.208747205E0,1.575384736E0,-8.997409821E0,7.900865376E-2
3.210761366E0,1.587355733E0,-9.033323288E0,9.097966552E-2
3.212745008E0,1.601720929E0,-9.074024200E0,2.370259613E-1
3.214759168E0,1.630451322E0,-9.114726067E0,3.112462163E-1
3.216742811E0,1.637633920E0,-9.136273384E0,3.471592367E-1
3.218756971E0,1.690306425E0,-9.176975250E0,3.016694188E-1
3.220740614E0,1.742978811E0,-9.258378029E0,1.436520964E-1
3.222724256E0,1.776497602E0,-9.301473618E0,3.830722719E-2
3.224707899E0,1.843535304E0,-9.387664795E0,-2.561795712E-1
3.226691541E0,1.912967205E0,-9.478644371E0,-5.937620401E-1
3.228705702E0,1.965639591E0,-9.538499832E0,-7.709329724E-1
3.230689344E0,1.984793186E0,-9.615114212E0,-1.187524080E0
3.232672987E0,1.927332401E0,-9.662998199E0,-1.659181833E0
3.234656629E0,1.905784607E0,-9.684545517E0,-1.912967205E0
3.236640272E0,1.829170108E0,-9.710882187E0,-2.315192938E0
3.238654432E0,1.778891921E0,-9.722852707E0,-2.516305923E0
3.240638075E0,1.702277422E0,-9.722852707E0,-2.923320293E0
3.242652235E0,1.570596337E0,-9.720458984E0,-3.256114244E0
3.244635877E0,1.515529633E0,-9.708487511E0,-3.416525841E0
3.246619520E0,1.460463047E0,-9.703699112E0,-3.742137194E0
3.248603162E0,1.386242747E0,-9.694122314E0,-3.971980572E0
3.250586805E0,1.333570361E0,-9.710882187E0,-4.024652958E0
3.252600965E0,1.295263171E0,-9.718064308E0,-4.120420933E0
3.254584608E0,1.256955862E0,-9.722852707E0,-4.141968727E0
3.256568250E0,1.237802267E0,-9.730035782E0,-4.118026733E0
3.258582411E0,1.213860273E0,-9.730035782E0,-4.079719543E0
3.260566053E0,1.216254473E0,-9.732429504E0,-3.969586372E0
3.262580213E0,1.213860273E0,-9.742006302E0,-3.897760391E0
3.264563856E0,1.163581967E0,-9.749189377E0,-3.682282209E0
3.266547498E0,1.103726983E0,-9.739612579E0,-3.418920040E0
3.268561659E0,1.077390790E0,-9.742006302E0,-3.284844637E0
3.270545301E0,1.034295082E0,-9.768342972E0,-3.021482468E0
3.272559461E0,1.039083481E0,-9.773131371E0,-2.837129116E0
3.274543104E0,1.055842996E0,-9.770736694E0,-2.741360903E0
3.276526746E0,1.106121182E0,-9.806650162E0,-2.554613113E0
3.278540907E0,1.118092179E0,-9.816226959E0,-2.437297344E0
3.280524549E0,1.130063176E0,-9.799467087E0,-2.149993181E0
3.282538709E0,1.144428372E0,-9.744400978E0,-1.850717902E0
3.284552870E0,1.165976286E0,-9.734824181E0,-1.716642618E0
3.286536512E0,1.264138460E0,-9.713275909E0,-1.551442742E0
3.288550672E0,1.400607944E0,-9.698910713E0,-1.400607944E0
3.290534315E0,1.465251446E0,-9.694122314E0,-1.340752959E0
3.292548475E0,1.541865945E0,-9.655815125E0,-1.216254473E0
3.294532118E0,1.541865945E0,-9.624691010E0,-1.027112484E0
3.296515760E0,1.537077546E0,-9.600749016E0,-9.337386489E-1
3.298499403E0,1.532289028E0,-9.545681953E0,-8.355764151E-1
3.300483045E0,1.539471745E0,-9.516951561E0,-7.374141216E-1
3.302466688E0,1.522712231E0,-9.476250648E0,-7.230489254E-1
3.304450330E0,1.510741234E0,-9.390059471E0,-7.948749661E-1
3.306464491E0,1.544260144E0,-9.342175484E0,-8.762778044E-1
3.308478651E0,1.551442742E0,-9.275136948E0,-9.241618514E-1
3.310462293E0,1.556231141E0,-9.215282440E0,-9.911994934E-1
3.312445936E0,1.570596337E0,-9.184157372E0,-1.015141487E0
3.314429578E0,1.541865945E0,-9.097966194E0,-1.074996591E0
3.316443739E0,1.508347034E0,-9.050082207E0,-1.201889277E0
3.318427381E0,1.493981838E0,-9.042900085E0,-1.268926859E0
3.320441541E0,1.462857246E0,-9.021351814E0,-1.414973259E0
3.322425184E0,1.434126854E0,-8.992621422E0,-1.572990537E0
3.324408827E0,1.405396342E0,-8.975862503E0,-1.656787634E0
3.326422987E0,1.381454349E0,-8.925583839E0,-1.783680320E0
3.328406629E0,1.359906554E0,-8.863334656E0,-1.924938202E0
3.330420789E0,1.302445769E0,-8.853757858E0,-1.951274395E0
3.332404432E0,1.142034173E0,-8.803479195E0,-1.932120800E0
3.334418592E0,1.072602391E0,-8.705317497E0,-1.965639591E0
3.336402235E0,1.067813993E0,-8.662221909E0,-1.963245392E0
3.338385877E0,1.142034173E0,-8.588001251E0,-2.015917778E0
3.340369520E0,1.264138460E0,-8.532935143E0,-2.066195965E0
3.342353162E0,1.300051570E0,-8.441955566E0,-2.085349798E0
3.344367323E0,1.316810966E0,-8.374917984E0,-2.008735180E0
3.346350965E0,1.288080573E0,-8.348581314E0,-1.936909199E0
3.348365125E0,1.182735682E0,-8.281543732E0,-1.886630893E0
3.350348768E0,1.113303781E0,-8.176198959E0,-1.884236693E0
3.352332411E0,1.098938584E0,-8.116343498E0,-1.915361404E0
3.354346571E0,1.043871999E0,-7.984662533E0,-1.970427990E0
3.356360731E0,1.005564690E0,-7.893682957E0,-2.001552582E0
3.358344373E0,9.792284966E-1,-7.872135162E0,-1.939303398E0
3.360328016E0,8.834604025E-1,-7.814674377E0,-1.805228114E0
3.362311659E0,8.714894056E-1,-7.711723804E0,-1.754949808E0
3.364325819E0,8.810662031E-1,-7.659051418E0,-1.754949808E0
3.366339979E0,8.667010069E-1,-7.513004780E0,-1.771709204E0
3.368323621E0,8.619126081E-1,-7.359776020E0,-1.783680320E0
3.370307264E0,8.451532125E-1,-7.299921036E0,-1.750161409E0
3.372290907E0,8.188169599E-1,-7.175422668E0,-1.659181833E0
3.374305067E0,7.900865674E-1,-7.012616634E0,-1.632845521E0
3.376288709E0,7.757213712E-1,-6.943184853E0,-1.618480325E0
3.378302870E0,7.637503147E-1,-6.852205276E0,-1.541865945E0
3.380286512E0,7.086837292E-1,-6.821080685E0,-1.455674648E0
3.382270155E0,5.339069963E-1,-6.749254704E0,-1.312022567E0
3.384284315E0,4.525041282E-1,-6.615179062E0,-1.309628367E0
3.386267957E0,3.974374831E-1,-6.543353081E0,-1.307234168E0
3.388282118E0,2.561795712E-1,-6.433219910E0,-1.290474772E0
3.390265760E0,8.619125932E-2,-6.327875137E0,-1.264138460E0
3.392249403E0,1.675941236E-2,-6.272808552E0,-1.285686255E0
3.394263563E0,-9.097966552E-2,-6.210559368E0,-1.359906554E0
3.396277723E0,-2.274491638E-1,-6.174646378E0,-1.367089152E0
3.398261366E0,-3.136404157E-1,-6.181828976E0,-1.328781962E0
3.400245008E0,-4.548983276E-1,-6.217741966E0,-1.290474772E0
3.402228651E0,-5.003881454E-1,-6.208165169E0,-1.422155857E0
3.404242811E0,-5.147533417E-1,-6.208165169E0,-1.477222443E0
3.406226453E0,-5.746083856E-1,-6.248866558E0,-1.517923832E0
3.408210096E0,-6.129156351E-1,-6.253654957E0,-1.632845521E0
3.410193739E0,-6.177040339E-1,-6.279991150E0,-1.738190413E0
3.412207899E0,-5.889736414E-1,-6.366182327E0,-1.982398987E0
3.414191541E0,-5.626373887E-1,-6.409277916E0,-2.059013367E0
3.416175184E0,-5.793967843E-1,-6.507440090E0,-2.099714994E0
3.418158827E0,-5.698199868E-1,-6.648698330E0,-2.114080191E0
3.420142469E0,-5.339069963E-1,-6.732495308E0,-2.138022184E0
3.422126112E0,-4.764461517E-1,-6.912060261E0,-2.082955360E0
3.424109754E0,-3.184288144E-1,-7.084442616E0,-2.116474390E0
3.426123914E0,-1.891419291E-1,-7.194576263E0,-2.145204782E0
3.428138075E0,7.182604820E-2,-7.541735172E0,-2.099714994E0
3.430121717E0,2.561795712E-1,-7.841010571E0,-2.149993181E0
3.432105360E0,2.561795712E-1,-7.852981567E0,-2.173935175E0
3.434089002E0,3.399766386E-1,-7.955932140E0,-2.257732153E0
3.436103162E0,3.902548850E-1,-8.111555099E0,-2.317587137E0
3.438086805E0,4.309563041E-1,-8.255207062E0,-2.389413357E0
3.440100965E0,8.427590132E-1,-8.853757858E0,-2.973598480E0
3.442084608E0,1.534683347E0,-9.569623947E0,-3.411737442E0
3.444068250E0,1.790862918E0,-9.928754807E0,-3.591302633E0
3.446082411E0,1.908178806E0,-1.073799419E1,-3.629609823E0
3.448066053E0,1.319205165E0,-1.112346077E1,-3.533841610E0
3.450080213E0,9.385270476E-1,-1.173637676E1,-3.361459255E0
3.452063856E0,1.963245422E-1,-1.228225517E1,-3.141192675E0
3.454047498E0,-1.197100878E-1,-1.248815632E1,-2.894589901E0
3.456061659E0,-6.177040339E-1,-1.285686302E1,-2.413355350E0
3.458045301E0,-9.409212470E-1,-1.332373238E1,-2.013523579E0
3.460059461E0,-1.036689281E0,-1.368765068E1,-1.915361404E0
3.462043104E0,-1.005564690E0,-1.466687965E1,-2.020706177E0
3.464026746E0,-7.445967197E-1,-1.580651951E1,-2.097320795E0
3.466010389E0,-6.081272364E-1,-1.634521484E1,-2.013523579E0
3.467994032E0,-5.650315881E-1,-1.723106956E1,-1.731007814E0
3.470008192E0,-7.206547260E-1,-1.802115631E1,-1.419761658E0
3.472022352E0,-7.589619160E-1,-1.832282639E1,-1.307234168E0
3.474005995E0,-7.254431248E-1,-1.877532959E1,-1.343147159E0
3.475989637E0,-5.937620401E-1,-1.923022842E1,-1.766920805E0
3.477973280E0,-4.644751251E-1,-1.946007156E1,-1.958456993E0
3.479956922E0,-1.316810995E-1,-1.980723000E1,-2.444479942E0
3.481940565E0,-4.548983276E-2,-1.992454720E1,-2.643198729E0
3.483954725E0,1.532289088E-1,-2.006340981E1,-2.796427488E0
3.485938368E0,3.734954596E-1,-2.001791954E1,-2.717418909E0
3.487952528E0,4.836287498E-1,-1.988863373E1,-2.655169725E0
3.489936170E0,6.775590777E-1,-1.933796692E1,-2.667140722E0
3.491950330E0,7.996633649E-1,-1.834197998E1,-2.772485495E0
3.493933973E0,7.709329724E-1,-1.768357468E1,-2.849100113E0
3.495917616E0,5.363011956E-1,-1.619437981E1,-2.956839085E0
3.497901258E0,9.337386489E-2,-1.450886250E1,-2.870647907E0
3.499884901E0,-1.316810995E-1,-1.368765068E1,-2.784456491E0
3.501899061E0,-4.860229492E-1,-1.222479343E1,-2.523488522E0
3.503882703E0,-6.560112834E-1,-1.106599998E1,-2.343923569E0
3.505896864E0,-6.536170840E-1,-1.059673691E1,-2.310404539E0
3.507880506E0,-5.410895944E-1,-9.832986832E0,-2.250549555E0
3.509864149E0,-3.208230138E-1,-9.282320023E0,-2.214636564E0
3.511878309E0,-2.059013397E-1,-9.074024200E0,-2.171540976E0
3.513892469E0,5.027823523E-2,-8.765172005E0,-2.159569979E0
3.515876112E0,2.657563984E-1,-8.652645111E0,-2.159569979E0
3.517859754E0,3.471592367E-1,-8.547300339E0,-2.164358377E0
3.519843397E0,4.596867263E-1,-8.504204750E0,-2.188300371E0
3.521827039E0,4.692635238E-1,-8.518569946E0,-2.202665567E0
3.523810682E0,3.854664862E-1,-8.609549522E0,-2.161964178E0
3.525824842E0,2.537853718E-1,-8.741230011E0,-2.102109194E0
3.527808485E0,1.843535304E-1,-8.796297073E0,-2.078166962E0
3.529792127E0,6.464344263E-2,-8.916007042E0,-1.965639591E0
3.531775770E0,-4.788403213E-2,-9.035717010E0,-1.879448295E0
3.533759412E0,-1.077390760E-1,-9.100360870E0,-1.831564307E0
3.535773573E0,-1.939303428E-1,-9.244012833E0,-1.776497602E0
3.537757215E0,-2.657563984E-1,-9.354146004E0,-1.711854219E0
3.539771375E0,-3.016694188E-1,-9.404424667E0,-1.697489023E0
3.541755018E0,-3.663128614E-1,-9.481039047E0,-1.640028119E0
3.543738661E0,-4.525041282E-1,-9.524134636E0,-1.599326730E0
3.545752821E0,-4.908113480E-1,-9.579200745E0,-1.587355733E0
3.547766981E0,-5.674257874E-1,-9.555258751E0,-1.687912226E0
3.549750623E0,-6.991068721E-1,-9.514557838E0,-1.798045516E0
3.551734266E0,-7.565677166E-1,-9.385271072E0,-2.003946781E0
3.553717909E0,-8.355764151E-1,-9.255983353E0,-2.133233786E0
3.555732069E0,-8.499416113E-1,-9.212887764E0,-2.176329374E0
3.557715711E0,-8.930372596E-1,-9.148244858E0,-2.166752577E0
3.559729871E0,-8.762778044E-1,-9.107542992E0,-2.070984364E0
3.561713514E0,-8.595184088E-1,-9.100360870E0,-2.018311977E0
3.563697157E0,-8.451532125E-1,-9.066842079E0,-1.905784607E0
3.565680799E0,-7.422025204E-1,-9.071630478E0,-1.824381709E0
3.567664442E0,-6.967126727E-1,-9.071630478E0,-1.790862918E0
3.569678602E0,-6.129156351E-1,-9.085995674E0,-1.745373011E0
3.571692762E0,-5.147533417E-1,-9.129091263E0,-1.714248419E0
3.573676405E0,-4.596867263E-1,-9.150638580E0,-1.695094824E0
3.575690565E0,-3.567360640E-1,-9.193734169E0,-1.695094824E0
3.577674207E0,-2.849099934E-1,-9.253589630E0,-1.704671621E0
3.579688368E0,-2.633621991E-1,-9.275136948E0,-1.704671621E0
3.581702528E0,-2.370259613E-1,-9.296685219E0,-1.702277422E0
3.583686170E0,-2.513911724E-1,-9.313444138E0,-1.699883223E0
3.585669813E0,-2.513911724E-1,-9.342175484E0,-1.699883223E0
3.587653455E0,-2.825157940E-1,-9.349357605E0,-1.774103403E0
3.589667616E0,-2.825157940E-1,-9.363722801E0,-1.814804912E0
3.591651258E0,-3.208230138E-1,-9.394847870E0,-1.900996208E0
3.593634901E0,-3.351882398E-1,-9.437943459E0,-1.968033791E0
3.595618543E0,-3.567360640E-1,-9.454702377E0,-1.989581585E0
3.597602186E0,-3.902548850E-1,-9.512163162E0,-2.020706177E0
3.599616346E0,-4.189853072E-1,-9.548076630E0,-2.001552582E0
3.601599989E0,-4.213795066E-1,-9.576807022E0,-1.984793186E0
3.603583631E0,-4.165911078E-1,-9.624691010E0,-1.946485996E0
3.605597791E0,-4.333505034E-1,-9.665391922E0,-1.917755604E0
3.607581434E0,-4.357447028E-1,-9.684545517E0,-1.893813491E0
3.609595594E0,-4.405331016E-1,-9.698910713E0,-1.865083098E0
3.611579237E0,-4.596867263E-1,-9.710882187E0,-1.831564307E0
3.613562879E0,-4.620809257E-1,-9.715670586E0,-1.821987510E0
3.615577039E0,-4.620809257E-1,-9.722852707E0,-1.812410712E0
3.617560682E0,-4.668693244E-1,-9.732429504E0,-1.814804912E0
3.619574842E0,-4.716577232E-1,-9.720458984E0,-1.817199111E0
3.621589002E0,-4.716577232E-1,-9.718064308E0,-1.829170108E0
3.623572645E0,-4.668693244E-1,-9.718064308E0,-1.845929503E0
3.625586805E0,-4.620809257E-1,-9.696516991E0,-1.867477298E0
3.627570448E0,-4.381389022E-1,-9.703699112E0,-1.872265697E0
3.629584608E0,-4.285621047E-1,-9.698910713E0,-1.872265697E0
3.631568250E0,-3.998316824E-1,-9.689333916E0,-1.855506301E0
3.633551893E0,-3.950432837E-1,-9.646238327E0,-1.855506301E0
3.635566053E0,-3.926490843E-1,-9.634267807E0,-1.850717902E0
3.637549696E0,-3.687070608E-1,-9.634267807E0,-1.865083098E0
3.639563856E0,-3.711012602E-1,-9.617507935E0,-1.893813491E0
3.641578016E0,-3.615244627E-1,-9.610325813E0,-1.891419291E0
3.643561659E0,-3.423708379E-1,-9.617507935E0,-1.865083098E0
3.645575819E0,-3.184288144E-1,-9.605537415E0,-1.855506301E0
3.647559461E0,-3.064578176E-1,-9.607931137E0,-1.848323703E0
3.649573621E0,-2.825157940E-1,-9.588777542E0,-1.865083098E0
3.651587782E0,-2.442085743E-1,-9.572018623E0,-1.881842494E0
3.653571424E0,-2.370259613E-1,-9.576807022E0,-1.889025092E0
3.655555067E0,-2.394201756E-1,-9.583989143E0,-1.860294700E0
3.657538709E0,-2.633621991E-1,-9.600749016E0,-1.869871497E0
3.659552870E0,-2.657563984E-1,-9.607931137E0,-1.867477298E0
3.661536512E0,-2.609679997E-1,-9.622296333E0,-1.884236693E0
3.663550672E0,-2.729389966E-1,-9.631873131E0,-1.893813491E0
3.665534315E0,-2.705447972E-1,-9.662998199E0,-1.903390408E0
3.667517957E0,-2.729389966E-1,-9.684545517E0,-1.896207690E0
3.669532118E0,-2.753331959E-1,-9.701305389E0,-1.891419291E0
3.671515760E0,-2.681505978E-1,-9.725247383E0,-1.886630893E0
3.673529920E0,-2.585737705E-1,-9.746794701E0,-1.889025092E0
3.675513563E0,-2.753331959E-1,-9.732429504E0,-1.884236693E0
3.677497205E0,-2.777273953E-1,-9.718064308E0,-1.879448295E0
3.679480848E0,-2.801215947E-1,-9.701305389E0,-1.850717902E0
3.681464491E0,-2.825157940E-1,-9.703699112E0,-1.843535304E0
3.683478651E0,-2.873041928E-1,-9.703699112E0,-1.843535304E0
3.685462293E0,-2.896983922E-1,-9.689333916E0,-1.867477298E0
3.687476453E0,-2.825157940E-1,-9.686940193E0,-1.867477298E0
3.689460096E0,-2.896983922E-1,-9.674968719E0,-1.884236693E0
3.691443739E0,-2.873041928E-1,-9.655815125E0,-1.896207690E0
3.693457899E0,-2.849099934E-1,-9.651026726E0,-1.905784607E0
3.695472059E0,-2.920926213E-1,-9.646238327E0,-1.908178806E0
3.697455702E0,-3.160346150E-1,-9.636661530E0,-1.915361404E0
3.699469862E0,-3.256114423E-1,-9.605537415E0,-1.929726601E0
3.701453504E0,-3.495534360E-1,-9.607931137E0,-1.936909199E0
3.703437147E0,-3.639186621E-1,-9.612719536E0,-1.941697598E0
3.705420789E0,-3.854664862E-1,-9.603142738E0,-1.956062794E0
3.707434950E0,-3.902548850E-1,-9.574412346E0,-1.953668594E0
3.709449110E0,-3.878606856E-1,-9.557653427E0,-1.963245392E0
3.711432752E0,-3.854664862E-1,-9.524134636E0,-1.972822189E0
3.713416395E0,-3.639186621E-1,-9.485827446E0,-1.977610588E0
3.715400037E0,-3.591302633E-1,-9.476250648E0,-1.975216389E0
3.717414198E0,-3.351882398E-1,-9.457097054E0,-1.972822189E0
3.719397840E0,-3.256114423E-1,-9.437943459E0,-1.982398987E0
3.721412000E0,-3.160346150E-1,-9.437943459E0,-1.989581585E0
3.723426161E0,-3.208230138E-1,-9.442731857E0,-1.975216389E0
3.725409803E0,-3.088520169E-1,-9.404424667E0,-1.970427990E0
3.727393446E0,-3.040636182E-1,-9.390059471E0,-1.982398987E0
3.729377088E0,-2.825157940E-1,-9.378087997E0,-1.987187386E0
3.731391248E0,-2.705447972E-1,-9.373299599E0,-1.994369984E0
3.733374891E0,-2.609679997E-1,-9.380482674E0,-1.991975784E0
3.735358534E0,-2.466027737E-1,-9.390059471E0,-2.006340981E0
3.737372694E0,-2.466027737E-1,-9.399636269E0,-2.003946781E0
3.739356336E0,-2.226607651E-1,-9.402029991E0,-1.996764183E0
3.741370496E0,-2.130839527E-1,-9.416395187E0,-1.989581585E0
3.743384657E0,-2.082955539E-1,-9.435548782E0,-1.987187386E0
3.745368299E0,-2.059013397E-1,-9.464279175E0,-1.991975784E0
3.747351942E0,-1.963245422E-1,-9.493009567E0,-1.970427990E0
3.749335584E0,-1.963245422E-1,-9.495404243E0,-1.963245392E0
3.751349745E0,-1.699883193E-1,-9.512163162E0,-1.941697598E0
3.753333387E0,-1.556231081E-1,-9.545681953E0,-1.948880196E0
3.755347547E0,-1.412578970E-1,-9.543288231E0,-1.946485996E0
3.757331190E0,-1.340752989E-1,-9.581595421E0,-1.929726601E0
3.759314832E0,-1.532289088E-1,-9.603142738E0,-1.929726601E0
3.761298475E0,-1.556231081E-1,-9.615114212E0,-1.941697598E0
3.763282118E0,-1.556231081E-1,-9.648633003E0,-1.951274395E0
3.765296278E0,-1.340752989E-1,-9.646238327E0,-1.975216389E0
3.767310438E0,-1.268926859E-1,-9.646238327E0,-1.991975784E0
3.769294080E0,-9.097966552E-2,-9.660603523E0,-1.987187386E0
3.771277723E0,-8.140286058E-2,-9.672574997E0,-2.003946781E0
3.773261366E0,-5.746084079E-2,-9.691728592E0,-2.027888775E0
3.775275526E0,-4.070143029E-2,-9.715670586E0,-2.042253971E0
3.777259168E0,-2.633621916E-2,-9.725247383E0,-2.063801765E0
3.779273328E0,1.197100803E-2,-9.720458984E0,-2.106897593E0
3.781256971E0,2.873042040E-2,-9.722852707E0,-2.123656988E0
3.783240614E0,4.070143029E-2,-9.708487511E0,-2.140416384E0
3.785254774E0,5.027823523E-2,-9.682151794E0,-2.173935175E0
3.787238416E0,6.464344263E-2,-9.665391922E0,-2.197877169E0
3.789252577E0,6.943184882E-2,-9.655815125E0,-2.214636564E0
3.791236219E0,7.182604820E-2,-9.619902611E0,-2.245761156E0
3.793219862E0,9.337386489E-2,-9.583989143E0,-2.298433542E0
3.795234022E0,1.053448766E-1,-9.564835548E0,-2.327163935E0
3.797217664E0,1.292868853E-1,-9.531316757E0,-2.341529369E0
3.799231825E0,1.460463107E-1,-9.461885452E0,-2.372653961E0
3.801245985E0,1.651999205E-1,-9.433155060E0,-2.382230759E0
3.803229627E0,1.987187415E-1,-9.380482674E0,-2.391807556E0
3.805213270E0,2.394201756E-1,-9.346963882E0,-2.387019157E0
3.807196912E0,2.633621991E-1,-9.267954826E0,-2.398990154E0
3.809211073E0,3.184288144E-1,-9.210494041E0,-2.406172752E0
3.811194715E0,3.327940404E-1,-9.174580574E0,-2.413355350E0
3.813208875E0,3.782838583E-1,-9.090784073E0,-2.422932148E0
3.815192518E0,4.094084799E-1,-9.021351814E0,-2.446874142E0
3.817176161E0,4.213795066E-1,-8.992621422E0,-2.449268341E0
3.819159803E0,4.453215301E-1,-8.932766914E0,-2.461239338E0
3.821143446E0,5.003881454E-1,-8.863334656E0,-2.470816135E0
3.823157606E0,5.219359994E-1,-8.834604263E0,-2.477998734E0
3.825171766E0,5.434837937E-1,-8.803479195E0,-2.494758129E0
3.827155409E0,5.506663918E-1,-8.789113998E0,-2.470816135E0
3.829139051E0,5.291185975E-1,-8.793902397E0,-2.458845139E0
3.831122694E0,4.596867263E-1,-8.836998940E0,-2.449268341E0
3.833136854E0,3.926490843E-1,-8.884882927E0,-2.458845139E0
3.835151014E0,3.471592367E-1,-8.923190117E0,-2.480392933E0
3.837134657E0,2.442085743E-1,-9.035717010E0,-2.511517525E0
3.839118299E0,1.292868853E-1,-9.083600998E0,-2.547430515E0
3.841101942E0,5.746084079E-2,-9.193734169E0,-2.561795712E0
3.843116102E0,-7.661445439E-2,-9.313444138E0,-2.585737944E0
3.845099745E0,-1.460463107E-1,-9.382876396E0,-2.595314741E0
3.847113905E0,-2.849099934E-1,-9.504981041E0,-2.607285738E0
3.849097547E0,-3.663128614E-1,-9.605537415E0,-2.561795712E0
3.851081190E0,-3.854664862E-1,-9.662998199E0,-2.540247917E0
3.853095350E0,-4.141969085E-1,-9.739612579E0,-2.499546528E0
3.855078993E0,-4.046200812E-1,-9.804255486E0,-2.420537949E0
3.857093153E0,-3.974374831E-1,-9.832986832E0,-2.367865562E0
3.859107313E0,-3.519476354E-1,-9.883264542E0,-2.276885748E0
3.861090955E0,-2.896983922E-1,-9.921571732E0,-2.231395960E0
3.863105116E0,-2.513911724E-1,-9.933543205E0,-2.197877169E0
3.865088758E0,-1.771709323E-1,-9.945513725E0,-2.138022184E0
3.867102918E0,-1.197100878E-1,-9.974244118E0,-2.106897593E0
3.869086561E0,-8.619125932E-2,-9.988609314E0,-2.082955360E0
3.871070203E0,-3.112462163E-2,-1.000297451E1,-2.027888775E0
3.873084364E0,7.182605099E-3,-9.995792389E0,-1.991975784E0
3.875098524E0,1.436521020E-2,-9.981427193E0,-1.982398987E0
3.877082166E0,2.394201607E-2,-9.971850395E0,-1.970427990E0
3.879065809E0,1.675941236E-2,-9.964667320E0,-1.941697598E0
3.881049452E0,2.394201607E-2,-9.919178009E0,-1.932120800E0
3.883063612E0,2.394201700E-3,-9.895236015E0,-1.941697598E0
3.885047254E0,-9.576806799E-3,-9.880870819E0,-1.936909199E0
3.887061414E0,-2.154781483E-2,-9.825803757E0,-1.951274395E0
3.889045057E0,-4.548983276E-2,-9.797073364E0,-1.956062794E0
3.891028700E0,-5.746084079E-2,-9.770736694E0,-1.958456993E0
3.893042860E0,-8.140286058E-2,-9.720458984E0,-1.960851192E0
3.895057020E0,-1.197100878E-1,-9.660603523E0,-1.970427990E0
3.897040662E0,-1.244984865E-1,-9.639056206E0,-1.963245392E0
3.899024305E0,-1.388636976E-1,-9.607931137E0,-1.963245392E0
3.901007948E0,-1.604115069E-1,-9.557653427E0,-1.946485996E0
3.903022108E0,-1.675941199E-1,-9.538499832E0,-1.936909199E0
3.905005750E0,-1.819593310E-1,-9.500192642E0,-1.934514999E0
3.907019911E0,-2.250549644E-1,-9.500192642E0,-1.948880196E0
3.909003553E0,-2.633621991E-1,-9.500192642E0,-1.956062794E0
3.910987196E0,-3.208230138E-1,-9.512163162E0,-1.948880196E0
3.913001356E0,-3.687070608E-1,-9.519346237E0,-1.972822189E0
3.915015516E0,-3.998316824E-1,-9.526528358E0,-1.972822189E0
3.916999159E0,-4.429273009E-1,-9.555258751E0,-1.984793186E0
3.918982801E0,-4.908113480E-1,-9.569623947E0,-1.984793186E0
3.920966444E0,-5.171475410E-1,-9.600749016E0,-1.987187386E0
3.922980604E0,-5.817909837E-1,-9.615114212E0,-1.987187386E0
3.924994764E0,-6.200982332E-1,-9.622296333E0,-1.977610588E0
3.926978407E0,-6.703764796E-1,-9.643844604E0,-1.965639591E0
3.928962049E0,-7.230489254E-1,-9.670180321E0,-1.946485996E0
3.930945692E0,-7.469909191E-1,-9.686940193E0,-1.946485996E0
3.932959852E0,-7.972691655E-1,-9.722852707E0,-1.934514999E0
3.934974012E0,-8.379706144E-1,-9.758766174E0,-1.896207690E0
3.936957655E0,-8.403648138E-1,-9.775525093E0,-1.877054095E0
3.938941297E0,-8.307880163E-1,-9.821015358E0,-1.855506301E0
3.940924940E0,-8.379706144E-1,-9.895236015E0,-1.824381709E0
3.942939100E0,-8.259995580E-1,-9.900024414E0,-1.817199111E0
3.944922743E0,-8.020575643E-1,-9.921571732E0,-1.798045516E0
3.946936903E0,-7.685387731E-1,-9.923966408E0,-1.790862918E0
3.948920545E0,-7.445967197E-1,-9.914389610E0,-1.790862918E0
3.950904188E0,-7.038952708E-1,-9.885659218E0,-1.793257117E0
3.952887830E0,-6.416460276E-1,-9.864110947E0,-1.805228114E0
3.954871473E0,-6.153098345E-1,-9.818621635E0,-1.826775908E0
3.956885633E0,-5.458779931E-1,-9.789890289E0,-1.848323703E0
3.958869276E0,-5.123591423E-1,-9.765948296E0,-1.860294700E0
3.960883436E0,-4.453215301E-1,-9.718064308E0,-1.886630893E0
3.962867078E0,-3.974374831E-1,-9.686940193E0,-1.920149803E0
3.964850721E0,-3.711012602E-1,-9.670180321E0,-1.934514999E0
3.966834364E0,-3.519476354E-1,-9.634267807E0,-1.963245392E0
3.968818006E0,-3.184288144E-1,-9.598354340E0,-1.994369984E0
3.970832166E0,-2.968810201E-1,-9.591172218E0,-2.013523579E0
3.972846327E0,-2.753331959E-1,-9.572018623E0,-2.066195965E0
3.974829969E0,-2.729389966E-1,-9.516951561E0,-2.097320795E0
3.976844129E0,-2.657563984E-1,-9.488221169E0,-2.114080191E0
3.978827772E0,-2.657563984E-1,-9.445125580E0,-2.149993181E0
3.980841932E0,-1.723825186E-1,-9.378087997E0,-2.178723574E0
3.982825575E0,-1.651999205E-1,-9.332598686E0,-2.202665567E0
3.984809217E0,-2.130839527E-1,-9.251194954E0,-2.257732153E0
3.986792860E0,-2.537853718E-1,-9.217676163E0,-2.262520552E0
3.988776502E0,-2.873041928E-1,-9.162610054E0,-2.250549555E0
3.990790662E0,-3.136404157E-1,-9.131484985E0,-2.195482969E0
3.992774305E0,-3.016694188E-1,-9.114726067E0,-2.176329374E0
3.994757948E0,-2.705447972E-1,-9.069235802E0,-2.195482969E0
3.996772108E0,-2.370259613E-1,-9.002198219E0,-2.262520552E0
3.998755750E0,-2.202665508E-1,-8.980650902E0,-2.286462545E0
4.000769911E0,-1.628057212E-1,-8.975862503E0,-2.317587137E0
4.002753553E0,-1.412578970E-1,-8.995016098E0,-2.339135170E0
4.004737196E0,-1.268926859E-1,-9.004592896E0,-2.341529369E0
4.006751356E0,-9.337386489E-2,-9.040505409E0,-2.308010340E0
4.008734998E0,-5.506663769E-2,-9.026140213E0,-2.214636564E0
4.010749159E0,-5.506663769E-2,-9.014169693E0,-2.161964178E0
4.012732801E0,-1.436520964E-1,-8.999804497E0,-2.082955360E0
4.014716444E0,-2.609679997E-1,-8.963891029E0,-2.003946781E0
4.016730604E0,-3.040636182E-1,-8.947132111E0,-1.960851192E0
4.018714246E0,-3.734954596E-1,-8.930372238E0,-1.879448295E0
4.020728407E0,-3.998316824E-1,-8.913613319E0,-1.819593310E0
4.022712049E0,-3.950432837E-1,-8.923190117E0,-1.814804912E0
4.024695692E0,-3.998316824E-1,-8.937555313E0,-1.798045516E0
4.026679334E0,-4.046200812E-1,-8.939949036E0,-1.790862918E0
4.028662977E0,-3.711012602E-1,-8.935160637E0,-1.812410712E0
4.030677137E0,-3.519476354E-1,-8.908824921E0,-1.884236693E0
4.032691297E0,-3.711012602E-1,-8.887276649E0,-1.932120800E0
4.034674940E0,-4.381389022E-1,-8.846575737E0,-2.035071373E0
4.036658582E0,-4.668693244E-1,-8.827422142E0,-2.121262789E0
4.038642225E0,-4.644751251E-1,-8.817844391E0,-2.149993181E0
4.040625868E0,-4.453215301E-1,-8.801085472E0,-2.205059767E0
4.042609510E0,-4.141969085E-1,-8.769960403E0,-2.269703150E0
4.044623670E0,-4.046200812E-1,-8.762778282E0,-2.286462545E0
4.046607313E0,-3.375824392E-1,-8.755595207E0,-2.300827742E0
4.048590955E0,-2.992752194E-1,-8.743624687E0,-2.250549555E0
4.050605116E0,-2.873041928E-1,-8.738836288E0,-2.233790159E0
4.052588758E0,-2.657563984E-1,-8.724471092E0,-2.190694571E0
4.054602918E0,-2.322375625E-1,-8.741230011E0,-2.219424963E0
4.056586561E0,-2.011129409E-1,-8.741230011E0,-2.250549555E0
4.058600721E0,-1.556231081E-1,-8.736441612E0,-2.310404539E0
4.060584364E0,-1.388636976E-1,-8.736441612E0,-2.324769735E0
4.062568006E0,-8.140286058E-2,-8.774748802E0,-2.303221941E0
4.064551649E0,-4.548983276E-2,-8.779537201E0,-2.240972757E0
4.066535291E0,-5.267243832E-2,-8.777143478E0,-2.200271368E0
4.068549452E0,-5.746084079E-2,-8.810662270E0,-2.133233786E0
4.070563612E0,-7.182604820E-2,-8.848969460E0,-2.130839586E0
4.072547254E0,-5.506663769E-2,-8.856152534E0,-2.130839586E0
4.074530897E0,-1.675941236E-2,-8.856152534E0,-2.154781580E0
4.076514539E0,4.309562966E-2,-8.901641846E0,-2.173935175E0
4.078528700E0,9.097966552E-2,-8.947132111E0,-2.193088770E0
4.080512342E0,2.059013397E-1,-9.033323288E0,-2.250549555E0
4.082526502E0,3.256114423E-1,-9.141061783E0,-2.329558372E0
4.084510145E0,3.902548850E-1,-9.203310966E0,-2.343923569E0
4.086493787E0,4.692635238E-1,-9.323021889E0,-2.341529369E0
4.088507948E0,5.698199868E-1,-9.469067574E0,-2.288856745E0
4.090522108E0,6.177040339E-1,-9.557653427E0,-2.226607561E0
4.092505750E0,6.895300746E-1,-9.737217903E0,-2.126051188E0
4.094489393E0,7.230489254E-1,-9.809044838E0,-2.080561161E0
4.096473036E0,8.499416113E-1,-9.943120003E0,-2.066195965E0
4.098456678E0,1.067813993E0,-1.004367638E1,-2.114080191E0
