"Time (s)","Gyroscope x (rad/s)","Gyroscope y (rad/s)","Gyroscope z (rad/s)"
5.778693900E-2,-2.856155932E-1,4.806863889E-2,6.884068251E-2
6.027371000E-2,-2.877460718E-1,6.511236727E-2,8.908011019E-2
6.276053300E-2,-2.930722237E-1,8.961272985E-2,1.146457046E-1
6.524735500E-2,-2.994636297E-1,1.109173894E-1,1.391460598E-1
6.773412600E-2,-3.005288541E-1,1.279611140E-1,1.625811905E-1
7.022094900E-2,-3.015941083E-1,1.205044836E-1,1.828206182E-1
7.270777200E-2,-3.037245572E-1,1.151783243E-1,2.190385461E-1
7.519459500E-2,-3.101159632E-1,1.247654185E-1,2.680392563E-1
7.768136600E-2,-3.207682967E-1,1.513962448E-1,3.234313726E-1
8.016818900E-2,-3.250292242E-1,2.163754553E-1,3.884105980E-1
8.289355300E-2,-3.260944486E-1,3.005288541E-1,4.533897936E-1
8.538037600E-2,-3.324858546E-1,3.857475221E-1,5.109124184E-1
8.786719900E-2,-3.388772607E-1,4.603138268E-1,5.684349537E-1
9.035397000E-2,-3.452686667E-1,5.274235010E-1,6.185009480E-1
9.284079300E-2,-3.442034125E-1,5.785546899E-1,6.632407308E-1
9.532761600E-2,-3.388772607E-1,6.190335155E-1,7.047848105E-1
9.781438700E-2,-3.378120363E-1,6.509905457E-1,7.452636361E-1
1.003011580E-1,-3.335510790E-1,6.754909158E-1,7.868077159E-1
1.027879800E-1,-3.282249272E-1,6.893389225E-1,8.230256438E-1
1.052748550E-1,-3.186378181E-1,6.904041767E-1,8.560478687E-1
1.077616260E-1,-3.101159632E-1,6.872084737E-1,8.858743906E-1
1.102484490E-1,-3.005288541E-1,6.733604074E-1,9.103747606E-1
1.130002200E-1,-2.898765504E-1,6.456643939E-1,9.242228270E-1
1.154870430E-1,-2.760285139E-1,6.051855087E-1,9.391360879E-1
1.179738140E-1,-2.643109560E-1,5.583152771E-1,9.455274343E-1
1.204606370E-1,-2.536586225E-1,5.029231310E-1,9.476579428E-1
1.229474600E-1,-2.398105860E-1,4.411396384E-1,9.465926886E-1
1.254342830E-1,-2.248973250E-1,3.868127465E-1,9.391360879E-1
1.279210530E-1,-2.142449915E-1,3.388772607E-1,9.316794276E-1
1.304078760E-1,-2.057231218E-1,2.930722237E-1,9.231575727E-1
1.328946990E-1,-1.929403245E-1,2.621804774E-1,9.071790576E-1
1.353815220E-1,-1.769618392E-1,2.408758104E-1,8.943963051E-1
1.378682930E-1,-1.663095057E-1,2.291582525E-1,8.784177899E-1
1.403551160E-1,-1.524614692E-1,2.248973250E-1,8.581783772E-1
1.431323550E-1,-1.471353173E-1,2.217016220E-1,8.390041590E-1
1.456191780E-1,-1.450048387E-1,2.238320857E-1,8.166342378E-1
1.481060010E-1,-1.460700780E-1,2.227668613E-1,7.953296304E-1
1.505927720E-1,-1.513962448E-1,2.227668613E-1,7.772206664E-1
1.530795950E-1,-1.567224115E-1,2.248973250E-1,7.644378543E-1
1.555664180E-1,-1.727008969E-1,2.248973250E-1,7.580464482E-1
1.580532410E-1,-1.865489334E-1,2.227668613E-1,7.516550422E-1
1.605400120E-1,-2.099840641E-1,2.302234918E-1,7.505898476E-1
1.630268350E-1,-2.344844192E-1,2.398105860E-1,7.580464482E-1
1.655136580E-1,-2.675066292E-1,2.536586225E-1,7.655031085E-1
1.680004280E-1,-2.994636297E-1,2.664414048E-1,7.761554122E-1
1.704872510E-1,-3.303554058E-1,2.770937383E-1,7.900034189E-1
1.732165220E-1,-3.623123765E-1,2.834851444E-1,8.070471883E-1
1.757033450E-1,-3.890763521E-1,2.898765504E-1,8.240908980E-1
1.781901680E-1,-4.157072008E-1,2.877460718E-1,8.496564627E-1
1.806769390E-1,-4.412727654E-1,2.760285139E-1,8.741568327E-1
1.831637620E-1,-4.615122080E-1,2.547238469E-1,9.029181600E-1
1.856505850E-1,-4.817516208E-1,2.355496585E-1,9.359403849E-1
1.881373550E-1,-4.945344329E-1,2.089188248E-1,9.678973556E-1
1.906241780E-1,-5.009258389E-1,1.844184697E-1,1.004115224E0
1.931110010E-1,-4.987953603E-1,1.599181145E-1,1.041398406E0
1.955978240E-1,-4.902735054E-1,1.386134475E-1,1.082942486E0
1.980845950E-1,-4.785559475E-1,1.194392517E-1,1.128747582E0
2.005714180E-1,-4.583165050E-1,1.055912226E-1,1.177748203E0
2.033200640E-1,-4.316856861E-1,9.706936032E-2,1.226748943E0
2.058068870E-1,-3.997286856E-1,9.493889660E-2,1.278945446E0
2.082937100E-1,-3.676385581E-1,1.002650559E-1,1.327946067E0
2.107804800E-1,-3.260944486E-1,1.130478531E-1,1.373751163E0
2.132673030E-1,-2.813546658E-1,1.258306503E-1,1.416360497E0
2.157541260E-1,-2.323539555E-1,1.460700780E-1,1.446187019E0
2.182408970E-1,-1.812227666E-1,1.695052087E-1,1.470687389E0
2.207277200E-1,-1.258306503E-1,1.876141727E-1,1.487731099E0
2.232145430E-1,-6.830807030E-2,2.046578974E-1,1.497318149E0
2.257013660E-1,-8.655018173E-3,2.185059190E-1,1.497318149E0
2.281881370E-1,4.993279651E-2,2.291582525E-1,1.490926743E0
2.306749600E-1,1.053249165E-1,2.323539555E-1,1.472817779E0
2.334291260E-1,1.585865617E-1,2.323539555E-1,1.448317409E0
2.359159490E-1,2.075872868E-1,2.227668613E-1,1.415295243E0
2.384027720E-1,2.576532364E-1,2.078536004E-1,1.374816418E0
2.408895430E-1,2.938711643E-1,1.833532304E-1,1.329011321E0
2.433763660E-1,3.236976862E-1,1.545919478E-1,1.275749683E0
2.458631890E-1,3.492632806E-1,1.173087880E-1,1.215031385E0
2.483499600E-1,3.652417660E-1,7.043853402E-2,1.146856546E0
2.508367830E-1,3.822855055E-1,2.143781446E-2,1.072290182E0
2.533236050E-1,3.961335421E-1,-2.330197208E-2,9.923977256E-1
2.558104280E-1,4.067858756E-1,-7.336792350E-2,9.018529058E-1
2.582971990E-1,4.131772518E-1,-1.181077138E-1,8.081123829E-1
2.607840220E-1,4.153077304E-1,-1.564560980E-1,7.143719196E-1
2.635345430E-1,4.078511000E-1,-1.916087866E-1,6.216966510E-1
2.660213660E-1,3.993292153E-1,-2.075872868E-1,5.332822800E-1
2.685081890E-1,3.769593239E-1,-2.022611201E-1,4.512593448E-1
2.709949600E-1,3.577851355E-1,-1.820216924E-1,3.703016341E-1
2.734817830E-1,3.300890923E-1,-1.383471340E-1,2.925396264E-1
2.759686050E-1,2.981320918E-1,-7.656362653E-2,2.222342342E-1
2.784553760E-1,2.672403455E-1,2.263620263E-3,1.583202630E-1
2.809421990E-1,2.374138087E-1,9.706936032E-2,9.973244369E-2
2.834290220E-1,2.065220475E-1,2.057231218E-1,4.220985994E-2
2.859158450E-1,1.841521561E-1,3.228987455E-1,-4.660394508E-3
2.884026160E-1,1.596518010E-1,4.517919421E-1,-4.300878197E-2
2.908894390E-1,1.404775977E-1,5.806851387E-1,-7.283531129E-2
2.936581370E-1,1.276948154E-1,7.010564804E-1,-9.413997084E-2
2.961449600E-1,1.202381775E-1,8.086450100E-1,-1.058575287E-1
2.986317300E-1,1.117163152E-1,8.949288726E-1,-1.111836955E-1
3.011185530E-1,1.021292135E-1,9.609733224E-1,-1.090532318E-1
3.036053760E-1,1.021292135E-1,1.001452208E0,-9.840089828E-2
3.060921990E-1,9.893351793E-2,1.014235020E0,-8.455286920E-2
3.085789700E-1,9.999874979E-2,1.007843614E0,-6.218297780E-2
3.110657930E-1,1.042596847E-1,9.822779894E-1,-3.448691964E-2
3.135526160E-1,1.095858440E-1,9.119726419E-1,-6.790860556E-3
3.160394390E-1,1.202381775E-1,7.990579009E-1,2.303566411E-2
3.185262100E-1,1.372819096E-1,6.467295885E-1,4.966649041E-2
3.210130330E-1,1.543256342E-1,4.709661603E-1,7.203638554E-2
3.237582410E-1,1.788259894E-1,3.133116663E-1,1.007976755E-1
3.262450640E-1,2.065220475E-1,1.993317306E-1,1.189066395E-1
3.287318870E-1,2.363485843E-1,1.183740199E-1,1.423417628E-1
3.312186580E-1,2.555227578E-1,7.363422960E-2,1.764292270E-1
3.337054800E-1,2.704360485E-1,6.298190355E-2,2.158428431E-1
3.361923030E-1,2.821536064E-1,7.576470077E-2,2.573869228E-1
3.386791260E-1,2.874797583E-1,1.066564545E-1,3.010614812E-1
3.411658970E-1,2.991973162E-1,1.471353173E-1,3.521926701E-1
3.436527200E-1,3.013277948E-1,2.035926580E-1,3.990629315E-1
3.461395430E-1,3.045234978E-1,2.621804774E-1,4.469984174E-1
3.486263660E-1,3.066539466E-1,3.228987455E-1,4.917382002E-1
3.511131370E-1,3.162410557E-1,3.825518191E-1,5.290213227E-1
3.538500640E-1,3.311543167E-1,4.315525293E-1,5.545869470E-1
3.563368870E-1,3.450023532E-1,4.635095298E-1,5.716306567E-1
3.588237100E-1,3.609808385E-1,4.517919421E-1,5.726959109E-1
3.613104800E-1,3.695026934E-1,3.676385581E-1,5.588479042E-1
3.637973030E-1,3.663070202E-1,2.078536004E-1,5.311518312E-1
3.662841260E-1,3.513937294E-1,-8.388710208E-3,4.842815697E-1
3.687709490E-1,3.268933892E-1,-2.565880120E-1,4.267589748E-1
3.712577200E-1,2.960016131E-1,-4.962654412E-1,3.617797792E-1
3.737445430E-1,2.608489394E-1,-6.848116517E-1,2.925396264E-1
3.762313660E-1,2.182396203E-1,-7.806826234E-1,2.360822707E-1
3.787181370E-1,1.777607650E-1,-7.881392837E-1,1.913424879E-1
3.812049600E-1,1.372819096E-1,-7.263557911E-1,1.572550237E-1
3.839534490E-1,9.360735118E-2,-6.145063043E-1,1.274285018E-1
3.864402720E-1,4.673709720E-2,-4.802869260E-1,9.653674066E-2
3.889270950E-1,-6.524552125E-3,-3.418066502E-1,5.605788901E-2
3.914138660E-1,-9.280842543E-2,-1.894783229E-1,-1.531272475E-2
3.939006890E-1,-2.174406946E-1,-3.395430371E-2,-1.058575287E-1
3.963875120E-1,-3.633776009E-1,1.013302878E-1,-2.027937323E-1
3.988742830E-1,-5.328828096E-1,2.334191799E-1,-2.965342402E-1
4.013611050E-1,-7.001243830E-1,3.644428551E-1,-3.881442845E-1
4.038479280E-1,-8.354089856E-1,4.890751243E-1,-4.627105892E-1
4.063347510E-1,-9.398018122E-1,6.094464660E-1,-5.074504018E-1
4.088215220E-1,-1.010107160E0,7.308830023E-1,-5.308855176E-1
4.113083450E-1,-1.035672784E0,8.427324891E-1,-5.319507122E-1
4.140582930E-1,-1.029281378E0,9.364729524E-1,-5.021241903E-1
4.165451160E-1,-9.845415950E-1,1.011039257E0,-4.488625526E-1
4.190318870E-1,-9.195623994E-1,1.071757555E0,-3.732310236E-1
4.215187100E-1,-8.343437910E-1,1.114366889E0,-2.901428342E-1
4.240055330E-1,-7.374075651E-1,1.128214955E0,-2.017285079E-1
4.264923550E-1,-6.394061446E-1,1.105844975E0,-1.090532318E-1
4.289791260E-1,-5.424699187E-1,1.042996287E0,-8.921326138E-3
4.314659490E-1,-4.508598745E-1,9.386034608E-1,9.227581322E-2
4.339527720E-1,-3.761604130E-1,7.958621979E-1,2.009295821E-1
4.364395950E-1,-3.090507388E-1,6.371424794E-1,3.063876629E-1
4.389263660E-1,-2.515281439E-1,4.709661603E-1,3.990629315E-1
4.414131890E-1,-1.929403245E-1,2.781589627E-1,4.842815697E-1
4.441636580E-1,-8.322133124E-2,-4.460663348E-2,5.673697591E-1
4.466504800E-1,1.404775977E-1,-6.102453470E-1,6.749582887E-1
4.491373030E-1,4.632432163E-1,-1.333538532E0,7.846772671E-1
4.516240740E-1,7.593780160E-1,-1.872679710E0,8.155690432E-1
4.541108970E-1,9.244890809E-1,-2.035660267E0,7.953296304E-1
4.565977200E-1,9.607070088E-1,-1.930202246E0,7.569811940E-1
4.590844910E-1,9.202281833E-1,-1.707568526E0,7.143719196E-1
4.615713140E-1,8.414009213E-1,-1.446586490E0,6.813496947E-1
4.640581370E-1,7.465952039E-1,-1.220623851E0,6.557840705E-1
4.665449600E-1,6.560503840E-1,-1.056578040E0,6.291532516E-1
4.690317300E-1,5.740274191E-1,-9.489894509E-1,5.950657725E-1
4.715185530E-1,4.845478833E-1,-8.765535951E-1,5.567173958E-1
4.742693350E-1,3.844159544E-1,-8.073135018E-1,5.258256793E-1
4.767561580E-1,2.800231278E-1,-7.370080948E-1,4.991948307E-1
4.792429800E-1,1.660431921E-1,-6.677679420E-1,4.810858667E-1
4.817297510E-1,4.886756465E-2,-6.038539410E-1,4.683030546E-1
4.842165740E-1,-6.191666797E-2,-5.484618545E-1,4.629769027E-1
4.867033970E-1,-1.663095057E-1,-5.079829693E-1,4.629769027E-1
4.891901680E-1,-2.643109560E-1,-4.834826291E-1,4.619116783E-1
4.916769910E-1,-3.452686667E-1,-4.579170346E-1,4.629769027E-1
4.941638140E-1,-4.146419466E-1,-4.472647011E-1,4.661726058E-1
4.966506370E-1,-4.721645415E-1,-4.387428463E-1,4.704335332E-1
4.991374080E-1,-5.179695487E-1,-4.344819188E-1,4.725640118E-1
5.016242300E-1,-5.414046645E-1,-4.515256584E-1,4.757596850E-1
5.043731890E-1,-5.531222224E-1,-4.696346223E-1,4.810858667E-1
5.068600120E-1,-5.531222224E-1,-4.866783321E-1,4.832163453E-1
5.093468350E-1,-5.435351729E-1,-5.143743753E-1,4.842815697E-1
5.118336050E-1,-5.254262090E-1,-5.431357026E-1,4.864120185E-1
5.143204280E-1,-4.998605847E-1,-5.708317757E-1,4.917382002E-1
5.168072510E-1,-4.710993171E-1,-5.953320861E-1,4.981296062E-1
5.192940220E-1,-4.391423166E-1,-6.145063043E-1,5.077167153E-1
5.217808450E-1,-4.018591642E-1,-6.262238622E-1,5.183690190E-1
5.242676680E-1,-3.676385581E-1,-6.304848194E-1,5.290213227E-1
5.267544910E-1,-3.260944486E-1,-6.294195652E-1,5.396736860E-1
5.292412620E-1,-2.888112962E-1,-6.208977103E-1,5.556522012E-1
5.317280850E-1,-2.589847744E-1,-6.134410501E-1,5.684349537E-1
5.344780850E-1,-2.291582525E-1,-6.102453470E-1,5.844134688E-1
5.369649080E-1,-1.972012669E-1,-6.038539410E-1,5.993267298E-1
5.394517300E-1,-1.737661362E-1,-5.942668915E-1,6.185009480E-1
5.419385010E-1,-1.503310055E-1,-5.868102312E-1,6.323489547E-1
5.444253240E-1,-1.237001866E-1,-5.836145282E-1,6.504579186E-1
5.469121470E-1,-9.813459218E-2,-5.814840794E-1,6.696321368E-1
5.493989180E-1,-8.428656310E-2,-5.804188251E-1,6.920019984E-1
5.518857410E-1,-7.469946891E-2,-5.868102312E-1,7.186328173E-1
5.543725640E-1,-8.109086752E-2,-5.953320861E-1,7.591117024E-1
5.568593870E-1,-1.002650559E-1,-6.059844494E-1,8.113080859E-1
5.593461580E-1,-1.332872808E-1,-6.304848194E-1,8.773525357E-1
5.618329800E-1,-1.801575422E-1,-6.667027473E-1,9.444622397E-1
5.645828760E-1,-2.387453467E-1,-7.284862399E-1,1.005180478E0
5.670696990E-1,-3.069202602E-1,-8.424661756E-1,1.059507370E0
5.695565220E-1,-3.837502003E-1,-1.021425366E0,1.097855806E0
5.720432930E-1,-4.710993171E-1,-1.239798069E0,1.122356176E0
5.745301160E-1,-5.669702888E-1,-1.476413012E0,1.142595530E0
5.770169390E-1,-6.671021581E-1,-1.685198665E0,1.151117444E0
5.795037100E-1,-7.757559419E-1,-1.882266760E0,1.151117444E0
5.819905330E-1,-8.939968348E-1,-2.067617416E0,1.186270118E0
5.844773550E-1,-1.012237668E0,-2.234858990E0,1.244857907E0
5.869641780E-1,-1.129413366E0,-2.399970055E0,1.302380562E0
5.894509490E-1,-1.240197539E0,-2.574668169E0,1.359903097E0
5.919377720E-1,-1.345655560E0,-2.751496792E0,1.434469461E0
5.946886050E-1,-1.444722295E0,-2.924064636E0,1.512231469E0
5.971754280E-1,-1.544854164E0,-3.101958513E0,1.585732460E0
5.996622510E-1,-1.646051288E0,-3.275591612E0,1.663494468E0
6.021490220E-1,-1.749378920E0,-3.444963694E0,1.736063480E0
6.046358450E-1,-1.865489364E0,-3.604748487E0,1.807434082E0
6.071226680E-1,-1.997578263E0,-3.751750708E0,1.876674294E0
6.096094390E-1,-2.136058569E0,-3.873187304E0,1.949110150E0
6.120962620E-1,-2.284125805E0,-3.972254038E0,2.015154600E0
6.145830850E-1,-2.431128025E0,-4.048950672E0,2.078003407E0
6.170699080E-1,-2.568543196E0,-4.107538700E0,2.145112991E0
6.195566780E-1,-2.682523012E0,-4.149082661E0,2.206896544E0
6.220435010E-1,-2.773067951E0,-4.184235096E0,2.270810604E0
6.247885530E-1,-2.842308044E0,-4.224714279E0,2.331528664E0
6.272753760E-1,-2.897700071E0,-4.268388748E0,2.385855675E0
6.297621990E-1,-2.939244270E0,-4.319519997E0,2.436986923E0
6.322489700E-1,-2.968005419E0,-4.378107548E0,2.479596138E0
6.347357930E-1,-2.990375519E0,-4.432434559E0,2.517944574E0
6.372226160E-1,-3.003158092E0,-4.476109028E0,2.553097248E0
6.397093870E-1,-3.004223347E0,-4.511261940E0,2.581858635E0
6.421962100E-1,-3.008484364E0,-4.540023327E0,2.618076563E0
6.446830330E-1,-3.008484364E0,-4.561327934E0,2.644707203E0
6.471698550E-1,-3.009549618E0,-4.575175762E0,2.675599098E0
6.496566260E-1,-3.007419109E0,-4.595415115E0,2.704360247E0
6.521434490E-1,-2.999962568E0,-4.625241756E0,2.730991125E0
6.548931370E-1,-2.996766806E0,-4.659329414E0,2.752295732E0
6.573799600E-1,-2.992505789E0,-4.697677612E0,2.773600578E0
6.598667830E-1,-2.992505789E0,-4.747743607E0,2.791709423E0
6.623535530E-1,-2.998897314E0,-4.808461666E0,2.808753252E0
6.648403760E-1,-2.998897314E0,-4.870245457E0,2.823666334E0
6.673271990E-1,-3.002093077E0,-4.937355042E0,2.838579655E0
6.698139700E-1,-3.005288601E0,-5.011921406E0,2.853492975E0
6.723007930E-1,-3.014875650E0,-5.087553024E0,2.870536804E0
6.747876160E-1,-3.013810635E0,-5.159988880E0,2.883319378E0
6.772744390E-1,-3.010614872E0,-5.232424736E0,2.892906666E0
6.797612100E-1,-2.999962568E0,-5.299534321E0,2.901428461E0
6.822480330E-1,-2.985049248E0,-5.361317635E0,2.916341782E0
6.849980330E-1,-2.959483624E0,-5.413514137E0,2.938711643E0
6.874848550E-1,-2.930722475E0,-5.461449623E0,2.962146759E0
6.899716780E-1,-2.893439293E0,-5.493406773E0,2.996234179E0
6.924584490E-1,-2.844438553E0,-5.510450363E0,3.035647869E0
6.949452720E-1,-2.785850763E0,-5.511515617E0,3.080387592E0
6.974320950E-1,-2.720871449E0,-5.498733044E0,3.133649349E0
6.999188660E-1,-2.647370338E0,-5.477428436E0,3.187976122E0
7.024056890E-1,-2.570673704E0,-5.449732304E0,3.249759674E0
7.048925120E-1,-2.480128765E0,-5.416709900E0,3.305151701E0
7.073793350E-1,-2.386388302E0,-5.377296448E0,3.361609221E0
7.098661050E-1,-2.292647839E0,-5.331491470E0,3.419131756E0
7.123529280E-1,-2.196776867E0,-5.286751270E0,3.468132496E0
7.151078240E-1,-2.105166674E0,-5.235620499E0,3.513937473E0
7.175946470E-1,-2.015687227E0,-5.181293488E0,3.549090147E0
7.200814180E-1,-1.929403305E0,-5.124835968E0,3.583177567E0
7.225682410E-1,-1.850576043E0,-5.070508957E0,3.617264986E0
7.250550640E-1,-1.778140187E0,-5.018312931E0,3.643895864E0
7.275418870E-1,-1.711030602E0,-4.960790157E0,3.667330980E0
7.300286580E-1,-1.655638456E0,-4.899006844E0,3.687570333E0
7.325154800E-1,-1.607702971E0,-4.831896782E0,3.703548908E0
7.350023030E-1,-1.565093637E0,-4.757330894E0,3.716331720E0
7.374891260E-1,-1.534201860E0,-4.682764530E0,3.720592737E0
7.399758970E-1,-1.505440593E0,-4.611393929E0,3.715266466E0
7.424627200E-1,-1.483070731E0,-4.535762310E0,3.704614162E0
7.452080330E-1,-1.464961767E0,-4.462261200E0,3.687570333E0
7.476948550E-1,-1.447917938E0,-4.388760090E0,3.657743931E0
7.501816780E-1,-1.433004737E0,-4.315258980E0,3.622591257E0
7.526684490E-1,-1.424482822E0,-4.253475666E0,3.583177567E0
7.551552720E-1,-1.414895773E0,-4.193822384E0,3.539503098E0
7.576420950E-1,-1.410634875E0,-4.142691135E0,3.492632866E0
7.601288660E-1,-1.412765265E0,-4.103277683E0,3.443632126E0
7.626156890E-1,-1.409569621E0,-4.070255280E0,3.395696640E0
7.651025120E-1,-1.409569621E0,-4.046820164E0,3.346695900E0
7.675893350E-1,-1.407439113E0,-4.030841827E0,3.296629906E0
7.700761050E-1,-1.408504367E0,-4.016993523E0,3.247629166E0
7.725629280E-1,-1.402112961E0,-4.015928268E0,3.196497917E0
7.752976160E-1,-1.393591046E0,-4.020189285E0,3.144301653E0
7.777844390E-1,-1.379743099E0,-4.022319794E0,3.096366167E0
7.802712100E-1,-1.364829779E0,-4.036168098E0,3.048430681E0
7.827580330E-1,-1.342459917E0,-4.051081181E0,2.997299433E0
7.852448550E-1,-1.315829039E0,-4.063863754E0,2.950429201E0
7.877316780E-1,-1.284937382E0,-4.081973076E0,2.913146019E0
7.902184490E-1,-1.246588945E0,-4.100081921E0,2.877993345E0
7.927052720E-1,-1.206110120E0,-4.113929749E0,2.848166704E0
7.951920950E-1,-1.159239888E0,-4.125647545E0,2.824731588E0
7.976789180E-1,-1.109173894E0,-4.133104324E0,2.803426981E0
8.001656890E-1,-1.058042645E0,-4.138430119E0,2.790644169E0
8.026525120E-1,-1.002650619E0,-4.134169579E0,2.782122374E0
8.054217300E-1,-9.472584724E-1,-4.116060257E0,2.773600578E0
8.079085530E-1,-8.854749799E-1,-4.092625141E0,2.770404816E0
8.103953760E-1,-8.194305301E-1,-4.065994263E0,2.764013290E0
8.128821470E-1,-7.576469779E-1,-4.035102844E0,2.758687258E0
8.153689700E-1,-6.926677823E-1,-3.999949932E0,2.754426241E0
8.178557930E-1,-6.212971807E-1,-3.958405972E0,2.748034954E0
8.203425640E-1,-5.456656218E-1,-3.917927027E0,2.740578175E0
8.228293870E-1,-4.710993171E-1,-3.869991541E0,2.734186888E0
8.253162100E-1,-3.997286856E-1,-3.822056055E0,2.724599838E0
8.278030330E-1,-3.260944486E-1,-3.769859552E0,2.711817026E0
8.302898030E-1,-2.557890713E-1,-3.712337017E0,2.697968960E0
8.327766260E-1,-1.876141727E-1,-3.648423195E0,2.681990385E0
8.355229280E-1,-1.183740199E-1,-3.579182863E0,2.660685778E0
8.380097510E-1,-5.978620425E-2,-3.505681992E0,2.638315916E0
8.404965740E-1,-3.328853287E-3,-3.436441660E0,2.610619783E0
8.429833450E-1,4.780233279E-2,-3.369332075E0,2.579728127E0
8.454701680E-1,9.786828607E-2,-3.312874794E0,2.547770977E0
8.479569910E-1,1.426080763E-1,-3.263874054E0,2.513683558E0
8.504437620E-1,1.873478591E-1,-3.221264601E0,2.477465630E0
8.529305850E-1,2.278267145E-1,-3.188242435E0,2.441247702E0
8.554174080E-1,2.651098669E-1,-3.164807320E0,2.403964520E0
8.579042300E-1,2.970668674E-1,-3.145633221E0,2.369877100E0
8.603910010E-1,3.247629106E-1,-3.129654646E0,2.327267885E0
8.628778240E-1,3.503285050E-1,-3.113676071E0,2.279332399E0
8.656336050E-1,3.652417660E-1,-3.099828005E0,2.233527422E0
8.681204280E-1,3.758940995E-1,-3.091306210E0,2.185591936E0
8.706072510E-1,3.844159544E-1,-3.083849669E0,2.133395433E0
8.730940220E-1,3.897421360E-1,-3.070001602E0,2.086525202E0
8.755808450E-1,3.780245781E-1,-3.056153536E0,2.041785479E0
8.780676680E-1,3.726983964E-1,-3.036979437E0,1.995980382E0
8.805544390E-1,3.631113172E-1,-3.011413813E0,1.958697200E0
8.830412620E-1,3.535242081E-1,-2.980521917E0,1.921414018E0
8.855280850E-1,3.513937294E-1,-2.943238735E0,1.886261344E0
8.880149080E-1,3.545894325E-1,-2.904890537E0,1.850043416E0
8.905016780E-1,3.588503897E-1,-2.860150576E0,1.808499336E0
8.929885010E-1,3.695026934E-1,-2.815410852E0,1.764824867E0
8.957358450E-1,3.854812086E-1,-2.768540621E0,1.715824127E0
8.982226680E-1,4.014596939E-1,-2.730192184E0,1.664559722E0
9.007094910E-1,4.238295853E-1,-2.697170019E0,1.618754745E0
9.031962620E-1,4.493951797E-1,-2.665213108E0,1.570819259E0
9.056830850E-1,4.781564772E-1,-2.639647484E0,1.525014281E0
9.081699080E-1,5.005263686E-1,-2.620473146E0,1.486665845E0
9.106566780E-1,5.218310356E-1,-2.601299047E0,1.452578425E0
9.131435010E-1,5.431357026E-1,-2.588516235E0,1.430208445E0
9.156303240E-1,5.612446666E-1,-2.574668169E0,1.408903837E0
9.181171470E-1,5.846797824E-1,-2.550167799E0,1.405708075E0
9.206039180E-1,6.145063043E-1,-2.523536921E0,1.423817039E0
9.230907410E-1,6.379414201E-1,-2.515015125E0,1.432338953E0
9.258430330E-1,6.528546810E-1,-2.501167059E0,1.433404207E0
9.283298550E-1,6.698983908E-1,-2.493710518E0,1.428078055E0
9.308166780E-1,6.826812029E-1,-2.481992960E0,1.419556141E0
9.333034490E-1,6.912030578E-1,-2.474536419E0,1.412099481E0
9.357902720E-1,7.050511241E-1,-2.463883877E0,1.401447177E0
9.382770950E-1,7.231600881E-1,-2.450036049E0,1.392925382E0
9.407638660E-1,7.380733490E-1,-2.438318491E0,1.387599111E0
9.432506890E-1,7.519213557E-1,-2.421274662E0,1.385468721E0
9.457375120E-1,7.615084648E-1,-2.402100563E0,1.384403467E0
9.482243350E-1,7.572475076E-1,-2.381860971E0,1.376946807E0
9.507111050E-1,7.519213557E-1,-2.358425856E0,1.368425012E0
9.531979280E-1,7.444647551E-1,-2.334990740E0,1.363098860E0
9.559474080E-1,7.274209857E-1,-2.312620878E0,1.354576945E0
9.584342300E-1,6.975944638E-1,-2.292381525E0,1.342859387E0
9.609210530E-1,6.645722389E-1,-2.277468204E0,1.319424272E0
9.634078240E-1,6.326152682E-1,-2.264685392E0,1.293858647E0
9.658946470E-1,5.963973403E-1,-2.246576548E0,1.257640719E0
9.683814700E-1,5.601794124E-1,-2.224206448E0,1.212900996E0
9.708682410E-1,5.271571875E-1,-2.205032349E0,1.170291662E0
9.733550640E-1,4.952002168E-1,-2.181597233E0,1.131943226E0
9.758418870E-1,4.653736651E-1,-2.151770592E0,1.092529655E0
9.783287100E-1,4.323514402E-1,-2.115552902E0,1.060572624E0
9.808154800E-1,3.993292153E-1,-2.071878195E0,1.029680848E0
9.833023030E-1,3.631113172E-1,-2.016486168E0,1.005180478E0
9.860507410E-1,3.258281648E-1,-1.966420174E0,9.849410653E-1
9.885375640E-1,2.938711643E-1,-1.914223790E0,9.668321013E-1
9.910243870E-1,2.629793882E-1,-1.865223050E0,9.529840946E-1
9.935111580E-1,2.331528813E-1,-1.818352818E0,9.391360879E-1
9.959979800E-1,2.022611201E-1,-1.769352078E0,9.306141734E-1
9.984848030E-1,1.777607650E-1,-1.724612236E0,9.274185300E-1
1.000971574E0,1.607170254E-1,-1.684133410E0,9.210271239E-1
1.003458397E0,1.468690038E-1,-1.645784974E0,9.178314209E-1
1.005945220E0,1.308905035E-1,-1.618088961E0,9.135704637E-1
1.008432043E0,1.213034093E-1,-1.590392947E0,9.071790576E-1
1.010918814E0,1.106510833E-1,-1.560566425E0,8.997224569E-1
1.013405637E0,9.786828607E-2,-1.541392207E0,8.922657967E-1
1.016155116E0,9.147688746E-2,-1.528609395E0,8.858743906E-1
1.018641939E0,8.188978583E-2,-1.522217989E0,8.762873411E-1
1.021128762E0,7.123745978E-2,-1.517957091E0,8.730916381E-1
1.023615533E0,6.591129303E-2,-1.523283243E0,8.656349778E-1
1.026102355E0,5.738943070E-2,-1.526478887E0,8.645697236E-1
1.028589178E0,4.993279651E-2,-1.535000801E0,8.624392748E-1
1.031075949E0,4.460663348E-2,-1.542457461E0,8.539174199E-1
1.033562772E0,3.715000302E-2,-1.549914002E0,8.464608192E-1
1.036049595E0,3.395430371E-2,-1.562696815E0,8.347432017E-1
1.038536418E0,3.501953557E-2,-1.574414372E0,8.145037889E-1
1.041023189E0,3.928046674E-2,-1.586131930E0,7.942643762E-1
1.043510012E0,3.928046674E-2,-1.595719099E0,7.708292603E-1
1.046259595E0,3.928046674E-2,-1.605306149E0,7.473941445E-1
1.048764022E0,3.928046674E-2,-1.608501911E0,7.260894775E-1
1.051268397E0,3.608476743E-2,-1.611697555E0,7.058500051E-1
1.053772772E0,3.182383627E-2,-1.604240894E0,6.856105924E-1
1.056277199E0,2.862813696E-2,-1.598914742E0,6.653711796E-1
1.058781522E0,2.756290510E-2,-1.589327693E0,6.419360638E-1
1.061285949E0,2.223674022E-2,-1.575479627E0,6.185009480E-1
1.063790376E0,2.010627277E-2,-1.562696815E0,5.940005779E-1
1.066294751E0,1.264964230E-2,-1.547783613E0,5.695002079E-1
1.068799126E0,1.371487509E-2,-1.528609395E0,5.460650921E-1
1.071303501E0,1.584534161E-2,-1.505174279E0,5.215647221E-1
1.073807928E0,1.797580719E-2,-1.486000061E0,5.002600551E-1
1.076349855E0,2.330197208E-2,-1.462564945E0,4.800206423E-1
1.078854230E0,2.969337068E-2,-1.441260338E0,4.672378302E-1
1.081358658E0,4.141093418E-2,-1.422086120E0,4.533897936E-1
1.083863033E0,5.951989442E-2,-1.402911901E0,4.406070113E-1
1.086367408E0,7.656362653E-2,-1.380408883E0,4.310199022E-1
1.088871835E0,9.680305421E-2,-1.353778005E0,4.246285260E-1
1.091376210E0,1.234338731E-1,-1.328212380E0,4.182371199E-1
1.093880585E0,1.521951705E-1,-1.303712010E0,4.118457139E-1
1.096384960E0,1.830869317E-1,-1.279211760E0,4.107804894E-1
1.098889387E0,2.193048447E-1,-1.251515627E0,4.107804894E-1
1.101393762E0,2.544575334E-1,-1.220623851E0,4.107804894E-1
1.103898189E0,2.896102369E-1,-1.188666940E0,4.139761925E-1
1.106468345E0,3.268933892E-1,-1.155644655E0,4.193023443E-1
1.108972772E0,3.588503897E-1,-1.122622490E0,4.246285260E-1
1.111477147E0,3.908073604E-1,-1.090665460E0,4.288894534E-1
1.113981522E0,4.248948097E-1,-1.061904192E0,4.363460839E-1
1.116485949E0,4.579170346E-1,-1.027816772E0,4.438027143E-1
1.118990324E0,4.845478833E-1,-9.894683361E-1,4.501941204E-1
1.121494699E0,5.026568174E-1,-9.479242563E-1,4.629769027E-1
1.123999126E0,5.165048838E-1,-9.106410742E-1,4.725640118E-1
1.126503501E0,5.239614844E-1,-8.744231462E-1,4.832163453E-1
1.129007824E0,5.218310356E-1,-8.403357267E-1,4.949339032E-1
1.131512251E0,5.207657814E-1,-8.126396537E-1,4.981296062E-1
1.134016678E0,5.143743753E-1,-7.870740294E-1,5.034557581E-1
1.136572355E0,4.994611442E-1,-7.668346167E-1,5.077167153E-1
1.139076730E0,4.792217016E-1,-7.487256527E-1,5.119776130E-1
1.141581158E0,4.525908828E-1,-7.348776460E-1,5.109124184E-1
1.144085585E0,4.216991365E-1,-7.231600881E-1,5.098471642E-1
1.146589908E0,3.854812086E-1,-7.103772759E-1,5.119776130E-1
1.149094335E0,3.450023532E-1,-7.007901669E-1,5.141080618E-1
1.151598762E0,3.013277948E-1,-6.912030578E-1,5.173037648E-1
1.154103137E0,2.512618303E-1,-6.869421601E-1,5.173037648E-1
1.156607512E0,2.001306564E-1,-6.816160083E-1,5.183690190E-1
1.159111887E0,1.500647068E-1,-6.773550510E-1,5.183690190E-1
1.161616262E0,9.893351793E-2,-6.741593480E-1,5.226299763E-1
1.164120689E0,5.525896326E-2,-6.698983908E-1,5.226299763E-1
1.166678658E0,1.264964230E-2,-6.677679420E-1,5.215647221E-1
1.169183085E0,-2.356828004E-2,-6.613765359E-1,5.173037648E-1
1.171687512E0,-5.978620425E-2,-6.613765359E-1,5.077167153E-1
1.174191835E0,-9.813459218E-2,-6.730940938E-1,4.970643520E-1
1.176696262E0,-1.300915778E-1,-6.890726089E-1,4.821510911E-1
1.179200689E0,-1.652442664E-1,-7.061163187E-1,4.597811997E-1
1.181705012E0,-1.982664913E-1,-7.210295796E-1,4.469984174E-1
1.184209439E0,-2.376801223E-1,-7.316819429E-1,4.352808297E-1
1.186713866E0,-2.792242169E-1,-7.391385436E-1,4.267589748E-1
1.189218189E0,-3.133116663E-1,-7.391385436E-1,4.267589748E-1
1.191722616E0,-3.516600430E-1,-7.316819429E-1,4.299546778E-1
1.194226991E0,-3.858806491E-1,-7.348776460E-1,4.352808297E-1
1.196757668E0,-4.199681282E-1,-7.380733490E-1,4.427374899E-1
1.199262043E0,-4.593817294E-1,-7.476604581E-1,4.512593448E-1
1.201766470E0,-4.902735054E-1,-7.625737190E-1,4.608464241E-1
1.204270897E0,-5.254262090E-1,-7.806826234E-1,4.661726058E-1
1.206775220E0,-5.531222224E-1,-7.966611385E-1,4.725640118E-1
1.209279647E0,-5.797531009E-1,-8.200962543E-1,4.757596850E-1
1.211784074E0,-6.021229625E-1,-8.371400237E-1,4.832163453E-1
1.214288449E0,-6.191666722E-1,-8.509880304E-1,4.896077216E-1
1.216792824E0,-6.276885867E-1,-8.669665456E-1,4.938686490E-1
1.219297251E0,-6.308842301E-1,-8.786841035E-1,4.970643520E-1
1.221801574E0,-6.287537813E-1,-8.872059584E-1,4.970643520E-1
1.224306001E0,-6.223623753E-1,-8.999887705E-1,4.981296062E-1
1.226879595E0,-6.106448174E-1,-9.095758200E-1,4.991948307E-1
1.229384022E0,-5.978620052E-1,-9.106410742E-1,4.981296062E-1
1.231888449E0,-5.808182955E-1,-9.159672260E-1,4.981296062E-1
1.234392824E0,-5.637745857E-1,-9.117063284E-1,4.981296062E-1
1.236897199E0,-5.509917736E-1,-9.042496681E-1,4.949339032E-1
1.239401574E0,-5.339480639E-1,-8.904016614E-1,4.917382002E-1
1.241906001E0,-5.190348029E-1,-8.722926974E-1,4.864120185E-1
1.244410376E0,-5.030562878E-1,-8.541837335E-1,4.832163453E-1
1.246914803E0,-4.892082810E-1,-8.328790665E-1,4.789553881E-1
1.249419178E0,-4.806863964E-1,-8.179658055E-1,4.746944606E-1
1.251923553E0,-4.710993171E-1,-8.051829934E-1,4.693683088E-1
1.254427980E0,-4.636426866E-1,-7.945306897E-1,4.651073813E-1
1.256968658E0,-4.529903531E-1,-7.870740294E-1,4.544550478E-1
1.259473085E0,-4.348813891E-1,-7.689650655E-1,4.363460839E-1
1.261977460E0,-4.220985770E-1,-7.561823130E-1,4.161066413E-1
1.264481835E0,-4.039896131E-1,-7.391385436E-1,3.979976773E-1
1.266986262E0,-3.880111277E-1,-7.146382332E-1,3.734973371E-1
1.269490637E0,-3.729647100E-1,-6.826812029E-1,3.532578945E-1
1.271995012E0,-3.591166735E-1,-6.517894268E-1,3.287575543E-1
1.274499439E0,-3.452686667E-1,-6.251586080E-1,3.021267056E-1
1.277003814E0,-3.335510790E-1,-5.974625945E-1,2.754958868E-1
1.279508189E0,-3.228987455E-1,-5.676360726E-1,2.499302924E-1
1.282012564E0,-3.154421151E-1,-5.410051942E-1,2.211690098E-1
1.284516991E0,-3.133116663E-1,-5.165048838E-1,1.956034154E-1
1.287095272E0,-3.069202602E-1,-4.898740351E-1,1.689725816E-1
1.289599699E0,-3.079854846E-1,-4.706998467E-1,1.391460598E-1
1.292104074E0,-3.069202602E-1,-4.430037737E-1,1.178414002E-1
1.294608449E0,-3.111811876E-1,-4.131772518E-1,9.227581322E-2
1.297112824E0,-3.143768907E-1,-3.854812086E-1,7.629731297E-2
1.299617251E0,-3.197030723E-1,-3.545894325E-1,6.671021879E-2
1.302121626E0,-3.260944486E-1,-3.205019832E-1,6.031882018E-2
1.304626053E0,-3.367467821E-1,-2.928059399E-1,6.564498693E-2
1.307130428E0,-3.463338912E-1,-2.746969759E-1,7.523208112E-2
1.309634803E0,-3.591166735E-1,-2.544575334E-1,8.481918275E-2
1.312139178E0,-3.676385581E-1,-2.438052148E-1,9.334104508E-2
1.314643605E0,-3.784240186E-1,-2.438052148E-1,1.082543060E-1
1.317177460E0,-3.890763521E-1,-2.533923090E-1,1.242327988E-1
1.319681887E0,-3.933372796E-1,-2.672403455E-1,1.348851323E-1
1.322186262E0,-4.039896131E-1,-2.864145339E-1,1.508636326E-1
1.324690637E0,-4.167724252E-1,-3.087844253E-1,1.753639877E-1
1.327195064E0,-4.263595045E-1,-3.322195411E-1,1.998643428E-1
1.329699439E0,-4.359466136E-1,-3.652417660E-1,2.275604010E-1
1.332203814E0,-4.402075410E-1,-4.003944695E-1,2.552564740E-1
1.334708189E0,-4.444684684E-1,-4.376776218E-1,2.829525173E-1
1.337212564E0,-4.497946501E-1,-4.845478833E-1,3.117138147E-1
1.339716991E0,-4.551208019E-1,-5.271571875E-1,3.351489305E-1
1.342221366E0,-4.529903531E-1,-5.729622245E-1,3.585840762E-1
1.344725793E0,-4.487294257E-1,-6.240934134E-1,3.745625615E-1
1.347308397E0,-4.444684684E-1,-6.677679420E-1,3.798887134E-1
1.349812824E0,-4.359466136E-1,-7.114425302E-1,3.852148950E-1
1.352317199E0,-4.284899831E-1,-7.465952039E-1,3.884105980E-1
1.354821574E0,-4.146419466E-1,-7.721607685E-1,3.852148950E-1
1.357325949E0,-4.029243886E-1,-7.924002409E-1,3.788234890E-1
1.359830376E0,-3.848154247E-1,-8.105092049E-1,3.713668585E-1
1.362334751E0,-3.687037826E-1,-8.254224658E-1,3.617797792E-1
1.364839178E0,-3.537905216E-1,-8.328790665E-1,3.521926701E-1
1.367343553E0,-3.399424851E-1,-8.414009213E-1,3.426055610E-1
1.369847928E0,-3.197030723E-1,-8.456618786E-1,3.362141848E-1
1.372352303E0,-3.005288541E-1,-8.467270732E-1,3.308880031E-1
1.374856730E0,-2.770937383E-1,-8.414009213E-1,3.266270757E-1
1.377387876E0,-2.493976802E-1,-8.318138123E-1,3.244965971E-1
1.379892251E0,-2.217016220E-1,-8.232919574E-1,3.255618513E-1
1.382396678E0,-1.972012669E-1,-8.083786964E-1,3.276923001E-1
1.384901053E0,-1.716356725E-1,-7.977263927E-1,3.244965971E-1
1.387405428E0,-1.513962448E-1,-7.870740294E-1,3.266270757E-1
1.389909855E0,-1.386134475E-1,-7.881392837E-1,3.213009238E-1
1.392414230E0,-1.418091506E-1,-8.019872904E-1,3.213009238E-1
1.394918605E0,-1.609833390E-1,-8.179658055E-1,3.213009238E-1
1.397422980E0,-1.972012669E-1,-8.350095153E-1,3.202356696E-1
1.399927408E0,-2.430062890E-1,-8.499227762E-1,3.244965971E-1
1.402431730E0,-2.930722237E-1,-8.616403341E-1,3.266270757E-1
1.404936210E0,-3.431381881E-1,-8.637708426E-1,3.351489305E-1
1.407519491E0,-3.805544972E-1,-8.637708426E-1,3.447360396E-1
1.410023918E0,-4.082505703E-1,-8.627055883E-1,3.511274457E-1
1.412528293E0,-4.348813891E-1,-8.627055883E-1,3.639102280E-1
1.415032668E0,-4.487294257E-1,-8.509880304E-1,3.692364097E-1
1.417537095E0,-4.519250989E-1,-8.360747695E-1,3.724320829E-1
1.420041470E0,-4.465989470E-1,-8.147701025E-1,3.724320829E-1
1.422545845E0,-4.306204617E-1,-7.785521746E-1,3.777582645E-1
1.425050272E0,-3.965329826E-1,-7.316819429E-1,3.788234890E-1
1.427554595E0,-3.591166735E-1,-6.880073547E-1,3.788234890E-1
1.430059022E0,-3.133116663E-1,-6.358109713E-1,3.809539676E-1
1.432563397E0,-2.632457018E-1,-5.910711884E-1,3.830844164E-1
1.435067824E0,-2.110492885E-1,-5.516575575E-1,3.830844164E-1
1.437611730E0,-1.609833390E-1,-5.165048838E-1,3.788234890E-1
1.440116158E0,-1.194392517E-1,-4.930697381E-1,3.777582645E-1
1.442620533E0,-8.215609938E-2,-4.760259986E-1,3.692364097E-1
1.445124908E0,-4.806863889E-2,-4.632432163E-1,3.628450036E-1
1.447629335E0,-2.143781446E-2,-4.611127377E-1,3.543231487E-1
1.450133710E0,-6.524552125E-3,-4.653736651E-1,3.447360396E-1
1.452638085E0,1.997311832E-3,-4.653736651E-1,3.362141848E-1
1.455142512E0,-4.394086078E-3,-4.738955498E-1,3.223661482E-1
1.457646835E0,-1.185071748E-2,-4.866783321E-1,3.031919599E-1
1.460151210E0,-2.143781446E-2,-5.015916228E-1,2.786915898E-1
1.462655637E0,-4.061200842E-2,-5.165048838E-1,2.499302924E-1
1.465160064E0,-5.872096866E-2,-5.228962898E-1,2.147776037E-1
1.467726991E0,-7.469946891E-2,-5.260919333E-1,1.785596907E-1
1.470231418E0,-9.919982404E-2,-5.260919333E-1,1.434070021E-1
1.472735793E0,-1.258306503E-1,-5.303528905E-1,1.050586104E-1
1.475240168E0,-1.513962448E-1,-5.335485935E-1,6.777545065E-2
1.477744595E0,-1.822880059E-1,-5.356790423E-1,3.901416063E-2
1.480248970E0,-2.163754553E-1,-5.378095508E-1,1.451379992E-2
1.482753345E0,-2.525933683E-1,-5.356790423E-1,-1.211702544E-2
1.485257772E0,-2.909417748E-1,-5.356790423E-1,-2.809552103E-2
1.487762147E0,-3.324858546E-1,-5.356790423E-1,-4.300878197E-2
1.490266522E0,-3.591166735E-1,-5.346138477E-1,-5.579157919E-2
1.492770897E0,-3.922720551E-1,-5.335485935E-1,-6.218297780E-2
1.495275324E0,-4.189028740E-1,-5.378095508E-1,-6.644391268E-2
1.497817824E0,-4.412727654E-1,-5.431357026E-1,-6.644391268E-2
1.500322251E0,-4.604469836E-1,-5.548532605E-1,-6.218297780E-2
1.502826626E0,-4.753602445E-1,-5.708317757E-1,-5.153064802E-2
1.505331001E0,-4.870778024E-1,-5.932016373E-1,-3.768261895E-2
1.507835428E0,-4.934692085E-1,-6.187672615E-1,-2.276935615E-2
1.510339803E0,-4.934692085E-1,-6.422023773E-1,1.731003635E-3
1.512844178E0,-4.913387299E-1,-6.677679420E-1,2.090519853E-2
1.515348605E0,-4.828168750E-1,-6.933335662E-1,4.007939249E-2
1.517852980E0,-4.774906933E-1,-7.199643850E-1,6.138405204E-2
1.520357355E0,-4.700340629E-1,-7.487256527E-1,8.268871158E-2
1.522861730E0,-4.604469836E-1,-7.710955739E-1,1.007976755E-1
1.525366158E0,-4.551208019E-1,-7.838783264E-1,1.135804728E-1
1.527927147E0,-4.423380196E-1,-7.966611385E-1,1.306242049E-1
1.530431574E0,-4.412727654E-1,-8.030525446E-1,1.412765235E-1
1.532936001E0,-4.434032440E-1,-8.019872904E-1,1.476679295E-1
1.535440376E0,-4.402075410E-1,-7.934654355E-1,1.529940963E-1
1.537944751E0,-4.370118380E-1,-7.764217257E-1,1.561897993E-1
1.540449178E0,-4.380770922E-1,-7.551170588E-1,1.572550237E-1
1.542953553E0,-4.402075410E-1,-7.263557911E-1,1.551245600E-1
1.545457928E0,-4.434032440E-1,-6.975944638E-1,1.444722265E-1
1.547962303E0,-4.338161349E-1,-6.496589780E-1,1.380808353E-1
1.550466730E0,-3.922720551E-1,-5.793536305E-1,1.242327988E-1
1.552971105E0,-3.218335211E-1,-4.962654412E-1,9.653674066E-2
1.555475533E0,-2.280930281E-1,-4.110468030E-1,6.351451576E-2
1.558061210E0,-1.194392517E-1,-3.375457227E-1,2.942706272E-2
1.560565637E0,-4.394086078E-3,-2.746969759E-1,-5.725627299E-3
1.563070012E0,1.138467789E-1,-2.107829899E-1,-3.022598661E-2
1.565574439E0,2.267614752E-1,-1.575213373E-1,-5.259587988E-2
1.568078814E0,3.428718746E-1,-1.170424819E-1,-6.963960826E-2
1.570583189E0,4.525908828E-1,-8.721595258E-2,-8.135717362E-2
1.573087616E0,5.420704484E-1,-6.910699606E-2,-9.200949967E-2
1.575591991E0,6.208977103E-1,-5.845466256E-2,-1.015966013E-1
1.578096366E0,6.816160083E-1,-6.165036187E-2,-1.079879999E-1
1.580600741E0,7.252905369E-1,-7.336792350E-2,-1.111836955E-1
1.583105168E0,7.508561015E-1,-9.360735118E-2,-1.090532318E-1
1.585609543E0,7.636389136E-1,-1.170424819E-1,-1.058575287E-1
1.588146626E0,7.615084648E-1,-1.415428370E-1,-9.627043456E-2
1.590651053E0,7.519213557E-1,-1.703041345E-1,-7.709623873E-2
1.593155428E0,7.284862399E-1,-2.022611201E-1,-6.005251035E-2
1.595659803E0,6.997249722E-1,-2.384790480E-1,-3.981308267E-2
1.598164178E0,6.667027473E-1,-2.757622004E-1,-1.531272475E-2
1.600668605E0,6.326152682E-1,-3.066539466E-1,9.187635034E-3
1.603172980E0,6.006582975E-1,-3.375457227E-1,3.262276202E-2
1.605677408E0,5.729622245E-1,-3.695026934E-1,5.286218971E-2
1.608181783E0,5.420704484E-1,-3.982639909E-1,7.203638554E-2
1.610686158E0,5.090482235E-1,-4.216991365E-1,9.547150880E-2
1.613190533E0,4.770912528E-1,-4.440690279E-1,1.157109365E-1
1.615694960E0,4.440690279E-1,-4.696346223E-1,1.402112991E-1
1.618267980E0,4.067858756E-1,-4.781564772E-1,1.625811905E-1
1.620772408E0,3.748288751E-1,-4.845478833E-1,1.828206182E-1
1.623276783E0,3.439370990E-1,-4.866783321E-1,2.041252851E-1
1.625781158E0,3.162410557E-1,-4.792217016E-1,2.201037705E-1
1.628285533E0,2.938711643E-1,-4.643084407E-1,2.318213433E-1
1.630789960E0,2.832188308E-1,-4.493951797E-1,2.424736619E-1
1.633294335E0,2.746969759E-1,-4.302209914E-1,2.456693649E-1
1.635798710E0,2.715012729E-1,-4.131772518E-1,2.467346042E-1
1.638303137E0,2.683055699E-1,-3.940030634E-1,2.424736619E-1
1.640807512E0,2.683055699E-1,-3.758940995E-1,2.414084375E-1
1.643311887E0,2.693707943E-1,-3.535242081E-1,2.456693649E-1
1.645816314E0,2.693707943E-1,-3.300890923E-1,2.520607710E-1
1.648356470E0,2.640446424E-1,-3.077192008E-1,2.605826259E-1
1.650860897E0,2.640446424E-1,-2.842840552E-1,2.723001838E-1
1.653365272E0,2.587184608E-1,-2.725664973E-1,2.914743721E-1
1.655869647E0,2.565880120E-1,-2.672403455E-1,3.127790391E-1
1.658374022E0,2.555227578E-1,-2.608489394E-1,3.330184817E-1
1.660878449E0,2.533923090E-1,-2.629793882E-1,3.585840762E-1
1.663382824E0,2.555227578E-1,-2.821536064E-1,3.884105980E-1
1.665887251E0,2.576532364E-1,-3.002625704E-1,4.129109383E-1
1.668391626E0,2.619141638E-1,-3.290238380E-1,4.374113083E-1
1.670896001E0,2.693707943E-1,-3.524589837E-1,4.555202723E-1
1.673400376E0,2.768274248E-1,-3.695026934E-1,4.693683088E-1
1.675904751E0,2.874797583E-1,-3.854812086E-1,4.832163453E-1
1.678465689E0,2.970668674E-1,-3.865464330E-1,4.949339032E-1
1.680970116E0,3.066539466E-1,-3.876116574E-1,5.034557581E-1
1.683474491E0,3.258281648E-1,-3.865464330E-1,5.077167153E-1
1.685978866E0,3.439370990E-1,-3.790898025E-1,5.045210123E-1
1.688483293E0,3.545894325E-1,-3.652417660E-1,5.034557581E-1
1.690987668E0,3.758940995E-1,-3.471328020E-1,5.023905039E-1
1.693492043E0,4.003944695E-1,-3.258281648E-1,5.023905039E-1
1.695996418E0,4.206338823E-1,-2.928059399E-1,4.991948307E-1
1.698500845E0,4.408733249E-1,-2.597837150E-1,5.045210123E-1
1.701005220E0,4.632432163E-1,-2.214353085E-1,5.109124184E-1
1.703509595E0,4.824174047E-1,-1.788259894E-1,5.162385702E-1
1.706014022E0,4.983958900E-1,-1.372819096E-1,5.247604251E-1
1.708562043E0,5.069177747E-1,-8.828118443E-2,5.375432372E-1
1.711066470E0,5.133091807E-1,-3.501953557E-2,5.535216928E-1
1.713570845E0,5.111786723E-1,1.611164957E-2,5.673697591E-1
1.716075220E0,5.005263686E-1,6.298190355E-2,5.780220628E-1
1.718579595E0,4.866783321E-1,9.280842543E-2,5.886744261E-1
1.721084022E0,4.770912528E-1,1.130478531E-1,5.865439177E-1
1.723588397E0,4.706998467E-1,1.247654185E-1,5.780220628E-1
1.726092824E0,4.611127377E-1,1.279611140E-1,5.620435476E-1
1.728597199E0,4.557865858E-1,1.258306503E-1,5.428693891E-1
1.731101574E0,4.504604042E-1,1.141130850E-1,5.119776130E-1
1.733605949E0,4.408733249E-1,8.428656310E-2,4.693683088E-1
1.736110324E0,4.142425060E-1,2.782921307E-2,3.937367499E-1
1.738668762E0,3.705679476E-1,-8.388710208E-3,3.010614812E-1
1.741173189E0,3.268933892E-1,-2.010627277E-2,2.051905096E-1
1.743677564E0,2.832188308E-1,-1.371487509E-2,1.082543060E-1
1.746181939E0,2.427399755E-1,-9.320789250E-4,9.187635034E-3
1.748686366E0,2.097177505E-1,1.185071748E-2,-7.603100687E-2
1.751190741E0,1.916087866E-1,2.782921307E-2,-1.569887102E-1
1.753695116E0,1.820216924E-1,4.380770773E-2,-2.230331600E-1
1.756199491E0,1.873478591E-1,6.085143611E-2,-2.709686458E-1
1.758703918E0,2.043915838E-1,7.150376588E-2,-3.082517982E-1
1.761208293E0,2.288919389E-1,8.322133124E-2,-3.380783200E-1
1.763712668E0,2.587184608E-1,9.387365729E-2,-3.604482114E-1
1.766217095E0,2.864145339E-1,1.013302878E-1,-3.668396175E-1
1.768778033E0,3.066539466E-1,1.045259908E-1,-3.700353205E-1
1.771282460E0,3.236976862E-1,1.151783243E-1,-3.647091687E-1
1.773786835E0,3.290238380E-1,1.237001866E-1,-3.561872840E-1
1.776291262E0,3.268933892E-1,1.354177445E-1,-3.508611321E-1
1.778795637E0,3.205019832E-1,1.460700780E-1,-3.487306535E-1
1.781299960E0,3.109148741E-1,1.577876359E-1,-3.423392773E-1
1.783804387E0,3.023930192E-1,1.727008969E-1,-3.327521682E-1
1.786308814E0,2.917406857E-1,1.961360276E-1,-3.178389072E-1
1.788813189E0,2.821536064E-1,2.259625494E-1,-2.954690158E-1
1.791317564E0,2.800231278E-1,2.643109560E-1,-2.837514579E-1
1.793821939E0,2.789579034E-1,3.069202602E-1,-2.720338702E-1
1.796326366E0,2.864145339E-1,3.484643400E-1,-2.581858635E-1
1.798870845E0,2.906754613E-1,3.836170435E-1,-2.496639937E-1
1.801375272E0,2.949363887E-1,4.091826379E-1,-2.443378270E-1
1.803879699E0,2.938711643E-1,4.272916019E-1,-2.454030514E-1
1.806384074E0,2.970668674E-1,4.475310147E-1,-2.464682907E-1
1.808888449E0,2.991973162E-1,4.667052329E-1,-2.475335300E-1
1.811392876E0,3.023930192E-1,4.826837182E-1,-2.496639937E-1
1.813897251E0,3.002625704E-1,4.965317547E-1,-2.475335300E-1
1.816401626E0,2.906754613E-1,5.071840882E-1,-2.422073632E-1
1.818906001E0,2.864145339E-1,5.125102401E-1,-2.347507328E-1
1.821410428E0,2.789579034E-1,5.125102401E-1,-2.240983993E-1
1.823914803E0,2.661750913E-1,5.039883852E-1,-2.134460658E-1
1.826419230E0,2.608489394E-1,4.901403487E-1,-1.995980442E-1
1.828982303E0,2.544575334E-1,4.677704573E-1,-1.814890802E-1
1.831486730E0,2.555227578E-1,4.390091598E-1,-1.601844132E-1
1.833991105E0,2.640446424E-1,4.091826379E-1,-1.356840581E-1
1.836495480E0,2.661750913E-1,3.782908916E-1,-1.111836955E-1
1.838999908E0,2.736317217E-1,3.388772607E-1,-8.561810106E-2
1.841504283E0,2.874797583E-1,2.994636297E-1,-5.685681105E-2
1.844008658E0,2.938711643E-1,2.643109560E-1,-3.129122034E-2
1.846513085E0,2.991973162E-1,2.334191799E-1,-5.725627299E-3
1.849017460E0,3.013277948E-1,2.014621943E-1,1.664426550E-2
1.851521835E0,2.949363887E-1,1.790923029E-1,3.688369319E-2
1.854026210E0,2.864145339E-1,1.535267085E-1,5.392742157E-2
1.856530637E0,2.768274248E-1,1.215697154E-1,7.310161740E-2
1.859073970E0,2.661750913E-1,8.961272985E-2,8.694964647E-2
1.861578397E0,2.544575334E-1,4.913387448E-2,1.029281393E-1
1.864082772E0,2.448704392E-1,4.394086078E-3,1.221023351E-1
1.866587199E0,2.352833450E-1,-4.673709720E-2,1.370155960E-1
1.869091574E0,2.267614752E-1,-9.893351793E-2,1.487331539E-1
1.871595949E0,2.182396203E-1,-1.447385401E-1,1.529940963E-1
1.874100376E0,2.118482143E-1,-1.862826198E-1,1.497983932E-1
1.876604751E0,2.065220475E-1,-2.107829899E-1,1.274285018E-1
1.879109126E0,1.948044896E-1,-2.161091566E-1,1.029281393E-1
1.881613553E0,1.713693589E-1,-2.150439173E-1,7.842778414E-2
1.884117928E0,1.489994675E-1,-1.916087866E-1,6.031882018E-2
1.886622303E0,1.276948154E-1,-1.564560980E-1,4.434032366E-2
1.889195689E0,1.021292135E-1,-1.223686412E-1,2.836182900E-2
1.891700116E0,7.656362653E-2,-9.680305421E-2,1.557903271E-2
1.894204491E0,5.206326395E-2,-8.508548886E-2,1.238333434E-2
1.896708918E0,2.969337068E-2,-8.188978583E-2,1.131810062E-2
1.899213241E0,1.051917579E-2,-8.188978583E-2,1.238333434E-2
1.901717668E0,-3.328853287E-3,-7.869409025E-2,1.238333434E-2
1.904222043E0,-1.291595027E-2,-7.549838722E-2,1.344856713E-2
1.906726470E0,-1.291595027E-2,-7.975932211E-2,1.344856713E-2
1.909230845E0,-7.589785382E-3,-9.147688746E-2,2.090519853E-2
1.911735220E0,-4.394086078E-3,-1.085206121E-1,3.368799388E-2
1.914239595E0,9.453942999E-3,-1.244991124E-1,5.286218971E-2
1.916744022E0,2.117150649E-2,-1.436733007E-1,7.416684926E-2
1.919301678E0,3.395430371E-2,-1.564560980E-1,9.973244369E-2
1.921806105E0,4.673709720E-2,-1.724345982E-1,1.252980381E-1
1.924310480E0,6.165036187E-2,-1.820216924E-1,1.466026902E-1
1.926814855E0,7.549838722E-2,-1.937392503E-1,1.593854874E-1
1.929319283E0,8.615072072E-2,-1.980001926E-1,1.700378209E-1
1.931823658E0,1.031944528E-1,-1.905435622E-1,1.742987484E-1
1.934328033E0,1.117163152E-1,-1.703041345E-1,1.711030602E-1
1.936832408E0,1.191729456E-1,-1.362166703E-1,1.540593207E-1
1.939336835E0,1.149120107E-1,-1.031944528E-1,1.327546686E-1
1.941841210E0,1.053249165E-1,-7.123745978E-2,1.093195379E-1
1.944345585E0,9.147688746E-2,-4.034570232E-2,8.588441461E-2
1.946850012E0,7.762885839E-2,-7.323476952E-3,6.244928762E-2
1.949402095E0,6.910699606E-2,2.037258074E-2,3.581846133E-2
1.951906522E0,5.845466256E-2,4.167724028E-2,2.796236658E-3
1.954410897E0,4.780233279E-2,5.232957378E-2,-1.957365684E-2
1.956915272E0,4.247616604E-2,5.659050494E-2,-3.448691964E-2
1.959419699E0,4.034570232E-2,5.339480564E-2,-5.046541616E-2
1.961924074E0,4.034570232E-2,4.380770773E-2,-5.685681105E-2
1.964428449E0,3.608476743E-2,3.635107726E-2,-5.792204663E-2
1.966932876E0,3.608476743E-2,3.741630912E-2,-6.005251035E-2
1.969437251E0,3.821523488E-2,4.380770773E-2,-6.324820966E-2
1.971941626E0,3.928046674E-2,4.913387448E-2,-6.431344151E-2
1.974446001E0,4.141093418E-2,4.806863889E-2,-5.898727849E-2
1.976950428E0,4.460663348E-2,3.954677656E-2,-5.046541616E-2
1.979511470E0,5.525896326E-2,2.782921307E-2,-3.661738336E-2
1.982015897E0,6.697652489E-2,1.398118306E-2,-1.531272475E-2
1.984520272E0,7.656362653E-2,7.589785382E-3,1.557903271E-2
1.987024647E0,9.680305421E-2,1.291595027E-2,6.457975507E-2
1.989529074E0,1.127815470E-1,9.720250964E-3,1.189066395E-1
1.992033449E0,1.287600398E-1,-3.062544856E-3,1.540593207E-1
1.994537824E0,1.372819096E-1,-1.997311832E-3,1.753639877E-1
1.997042199E0,1.362166703E-1,1.930734888E-2,1.860163212E-1
1.999546626E0,1.287600398E-1,5.019910634E-2,1.902772486E-1
2.002051001E0,1.244991124E-1,8.641702682E-2,2.051905096E-1
2.004555376E0,1.244991124E-1,1.237001866E-1,2.232994735E-1
2.007059803E0,1.319557428E-1,1.513962448E-1,2.456693649E-1
2.009615272E0,1.404775977E-1,1.652442664E-1,2.765611112E-1
2.012119699E0,1.585865617E-1,1.652442664E-1,3.106485903E-1
2.014624074E0,1.713693589E-1,1.524614692E-1,3.447360396E-1
2.017128449E0,1.798912287E-1,1.322220564E-1,3.692364097E-1
2.019632876E0,1.894783229E-1,1.151783243E-1,3.884105980E-1
2.022137251E0,1.990654171E-1,1.119826213E-1,4.033238590E-1
2.024641626E0,1.980001926E-1,1.194392517E-1,4.139761925E-1
2.027146053E0,1.948044896E-1,1.237001866E-1,4.288894534E-1
2.029650428E0,1.916087866E-1,1.215697154E-1,4.512593448E-1
2.032154803E0,1.852173954E-1,1.151783243E-1,4.821510911E-1
2.034659178E0,1.873478591E-1,9.280842543E-2,5.215647221E-1
2.037163553E0,1.948044896E-1,5.232957378E-2,5.663045049E-1
2.039720949E0,2.001306564E-1,4.394086078E-3,6.078485847E-1
2.042225376E0,2.001306564E-1,-5.845466256E-2,6.206313968E-1
2.044729751E0,1.916087866E-1,-1.149120107E-1,6.153052449E-1
2.047234126E0,1.788259894E-1,-1.500647068E-1,5.982614756E-1
2.049738553E0,1.553908736E-1,-1.734998226E-1,5.663045049E-1
2.052242928E0,1.266295761E-1,-1.873478591E-1,5.354127288E-1
2.054747303E0,9.147688746E-2,-1.830869317E-1,5.066514611E-1
2.057251678E0,4.993279651E-2,-1.766955256E-1,4.832163453E-1
2.059756105E0,1.584534161E-2,-1.713693589E-1,4.608464241E-1
2.062260480E0,-9.720250964E-3,-1.649779677E-1,4.384765327E-1
2.064764855E0,-4.061200842E-2,-1.617822647E-1,4.118457139E-1
2.067269283E0,-6.191666797E-2,-1.617822647E-1,3.926715255E-1
2.069825012E0,-7.682993263E-2,-1.543256342E-1,3.756277859E-1
2.072332876E0,-8.961272985E-2,-1.468690038E-1,3.639102280E-1
2.074840741E0,-1.002650559E-1,-1.521951705E-1,3.564535975E-1
2.077348605E0,-1.077216864E-1,-1.649779677E-1,3.585840762E-1
2.079856470E0,-1.098521575E-1,-1.734998226E-1,3.745625615E-1
2.082364335E0,-1.055912226E-1,-1.766955256E-1,3.916063011E-1
2.084872199E0,-9.387365729E-2,-1.734998226E-1,4.011933804E-1
2.087380116E0,-7.576470077E-2,-1.617822647E-1,4.086500108E-1
2.089887980E0,-5.659050494E-2,-1.468690038E-1,4.075847864E-1
2.092395845E0,-4.061200842E-2,-1.340862066E-1,4.118457139E-1
2.094903710E0,-2.676397935E-2,-1.244991124E-1,4.267589748E-1
2.097411574E0,-9.720250964E-3,-1.149120107E-1,4.512593448E-1
2.099925220E0,6.258244161E-3,-1.053249165E-1,4.853467941E-1
2.102433085E0,3.075860441E-2,-1.031944528E-1,5.268908739E-1
2.104940949E0,6.165036187E-2,-9.786828607E-2,5.695002079E-1
2.107448814E0,9.254211932E-2,-9.680305421E-2,6.035876870E-1
2.109956678E0,1.255643368E-1,-9.573781490E-2,6.344794035E-1
2.112464543E0,1.617822647E-1,-1.063901484E-1,6.579145193E-1
2.114972408E0,1.990654171E-1,-1.138467789E-1,6.781539917E-1
2.117480272E0,2.448704392E-1,-1.191729456E-1,6.930672526E-1
2.119988189E0,2.906754613E-1,-1.308905035E-1,7.058500051E-1
2.122496053E0,3.364804685E-1,-1.489994675E-1,7.079805136E-1
2.125003918E0,3.854812086E-1,-1.649779677E-1,6.951977015E-1
2.127511783E0,4.323514402E-1,-1.788259894E-1,6.770887375E-1
2.130033501E0,4.696346223E-1,-1.916087866E-1,6.515231729E-1
2.132541366E0,4.952002168E-1,-1.926740259E-1,6.238270998E-1
2.135049230E0,5.133091807E-1,-1.926740259E-1,6.035876870E-1
2.137557095E0,5.250267386E-1,-1.980001926E-1,5.876091719E-1
2.140064960E0,5.324833393E-1,-2.011958808E-1,5.801525116E-1
2.142572824E0,5.399399996E-1,-2.011958808E-1,5.737611651E-1
2.145080689E0,5.516575575E-1,-1.958697289E-1,5.695002079E-1
2.147588605E0,5.655055642E-1,-2.022611201E-1,5.705654621E-1
2.150096470E0,5.878754854E-1,-2.065220475E-1,5.758916140E-1
2.152604335E0,6.113106012E-1,-2.118482143E-1,5.897396207E-1
2.155112199E0,6.390066743E-1,-2.256962508E-1,6.067833900E-1
2.157620064E0,6.709636450E-1,-2.395442724E-1,6.248922944E-1
2.160135689E0,7.029206157E-1,-2.427399755E-1,6.525883675E-1
2.162643553E0,7.423342466E-1,-2.512618303E-1,6.781539917E-1
2.165151418E0,7.806826234E-1,-2.555227578E-1,6.994586587E-1
2.167659283E0,8.147701025E-1,-2.512618303E-1,7.196980715E-1
2.170167147E0,8.467270732E-1,-2.395442724E-1,7.388722301E-1
2.172675012E0,8.733579516E-1,-2.107829899E-1,7.559159994E-1
2.175182876E0,8.882712126E-1,-1.703041345E-1,7.697640061E-1
2.177690793E0,8.957278132E-1,-1.415428370E-1,7.804163694E-1
2.180198658E0,8.989235163E-1,-1.085206121E-1,7.889382243E-1
2.182706522E0,8.935973644E-1,-7.336792350E-2,8.006557822E-1
2.185214387E0,8.882712126E-1,-5.206326395E-2,8.102428913E-1
2.187722251E0,8.765535951E-1,-3.715000302E-2,8.155690432E-1
2.190241939E0,8.659012914E-1,-2.649767138E-2,8.187647462E-1
2.192749803E0,8.584446907E-1,-2.543243766E-2,8.272866011E-1
2.195257668E0,8.488575816E-1,-2.649767138E-2,8.379389048E-1
2.197765533E0,8.286181092E-1,-2.330197208E-2,8.464608192E-1
2.200273397E0,8.190310597E-1,-2.330197208E-2,8.517869711E-1
2.202781262E0,8.030525446E-1,-3.395430371E-2,8.581783772E-1
2.205289126E0,7.870740294E-1,-4.886756465E-2,8.603088260E-1
2.207797043E0,7.732260227E-1,-7.230269164E-2,8.560478687E-1
2.210304908E0,7.551170588E-1,-8.721595258E-2,8.453955650E-1
2.212812772E0,7.263557911E-1,-1.085206121E-1,8.347432017E-1
2.215320637E0,6.997249722E-1,-1.319557428E-1,8.336780071E-1
2.217828501E0,6.624417901E-1,-1.543256342E-1,8.315475583E-1
2.220349439E0,6.262238622E-1,-1.756303012E-1,8.358084559E-1
2.222857303E0,5.953320861E-1,-1.948044896E-1,8.560478687E-1
2.225365168E0,5.814840794E-1,-2.395442724E-1,8.869396448E-1
2.227873085E0,5.537880063E-1,-3.290238380E-1,8.922657967E-1
2.230380949E0,5.207657814E-1,-4.078511000E-1,8.901353478E-1
2.232888762E0,4.941349626E-1,-4.632432163E-1,8.922657967E-1
2.235396626E0,4.802869260E-1,-4.952002168E-1,8.986572027E-1
2.237904491E0,4.664389193E-1,-5.250267386E-1,9.135704637E-1
2.240412408E0,4.685693681E-1,-5.484618545E-1,9.242228270E-1
2.242920272E0,4.738955498E-1,-5.612446666E-1,9.252880216E-1
2.245428137E0,4.792217016E-1,-5.569837093E-1,9.220923185E-1
2.247936001E0,4.888088107E-1,-5.676360726E-1,9.210271239E-1
2.250455168E0,4.983958900E-1,-5.857450366E-1,9.178314209E-1
2.252963033E0,5.090482235E-1,-5.729622245E-1,9.125052094E-1
2.255470897E0,5.218310356E-1,-5.569837093E-1,9.061138630E-1
2.257978762E0,5.399399996E-1,-5.314181447E-1,8.965267539E-1
2.260486626E0,5.548532605E-1,-4.941349626E-1,8.858743906E-1
2.262994491E0,5.612446666E-1,-4.493951797E-1,8.762873411E-1
2.265502355E0,5.676360726E-1,-3.918725848E-1,8.635045290E-1
2.268010272E0,5.740274191E-1,-3.322195411E-1,8.475260139E-1
2.270518137E0,5.782883763E-1,-2.693707943E-1,8.315475583E-1
2.273025949E0,5.889406800E-1,-2.086525112E-1,8.081123829E-1
2.275533866E0,5.985277891E-1,-1.553908736E-1,7.857425213E-1
2.278041678E0,6.049191952E-1,-9.786828607E-2,7.708292603E-1
2.280547303E0,6.113106012E-1,-5.525896326E-2,7.580464482E-1
2.283055168E0,6.155715585E-1,-2.010627277E-2,7.516550422E-1
2.285563033E0,6.155715585E-1,1.291595027E-2,7.441984415E-1
2.288070897E0,6.134410501E-1,3.635107726E-2,7.378070354E-1
2.290578762E0,6.145063043E-1,4.593817517E-2,7.356765866E-1
2.293086626E0,6.166367531E-1,7.043853402E-2,7.356765866E-1
2.295594491E0,6.155715585E-1,1.023955271E-1,7.292851806E-1
2.298102355E0,6.081148982E-1,1.290263534E-1,7.250242233E-1
2.300610220E0,5.995930433E-1,1.524614692E-1,7.207632661E-1
2.303118085E0,6.006582975E-1,1.780270636E-1,7.143719196E-1
2.305626001E0,6.038539410E-1,1.950708032E-1,7.005238533E-1
2.308133866E0,6.059844494E-1,1.844184697E-1,6.834801435E-1
2.310665585E0,6.145063043E-1,1.673747450E-1,6.643059254E-1
2.313173449E0,6.251586080E-1,1.492657810E-1,6.472622156E-1
2.315681314E0,6.379414201E-1,1.322220564E-1,6.259575486E-1
2.318189178E0,6.517894268E-1,1.205044836E-1,6.003919840E-1
2.320697095E0,6.677679420E-1,1.194392517E-1,5.684349537E-1
2.323204908E0,6.954640150E-1,1.460700780E-1,5.300865769E-1
2.325712772E0,7.199643850E-1,1.844184697E-1,4.874772727E-1
2.328220689E0,7.465952039E-1,2.312887162E-1,4.395417869E-1
2.330728553E0,7.732260227E-1,2.760285139E-1,3.841496706E-1
2.333236418E0,7.987915874E-1,3.165073693E-1,3.298227787E-1
2.335744283E0,8.147701025E-1,3.452686667E-1,2.786915898E-1
2.338252147E0,8.211615086E-1,3.527252972E-1,2.499302924E-1
2.340769699E0,8.275529146E-1,3.569862247E-1,2.339518070E-1
2.343277564E0,8.243572116E-1,3.463338912E-1,2.339518070E-1
2.345785428E0,8.147701025E-1,3.356815577E-1,2.339518070E-1
2.348293293E0,8.009220958E-1,3.335510790E-1,2.232994735E-1
2.350801158E0,7.774869800E-1,3.346163332E-1,2.051905096E-1
2.353309022E0,7.199643850E-1,3.335510790E-1,1.934729517E-1
2.355816939E0,6.219629049E-1,3.197030723E-1,1.870815456E-1
2.358324803E0,5.473966002E-1,3.239639997E-1,2.051905096E-1
2.360832668E0,5.111786723E-1,3.282249272E-1,2.275604010E-1
2.363340533E0,4.920045137E-1,2.941374779E-1,2.563216984E-1
2.365848397E0,4.717650712E-1,2.312887162E-1,2.914743721E-1
2.368356262E0,4.611127377E-1,1.620485783E-1,3.447360396E-1
2.370874126E0,4.653736651E-1,9.067796171E-2,4.107804894E-1
2.373381991E0,4.760259986E-1,1.398118306E-2,4.832163453E-1
2.375889855E0,4.824174047E-1,-6.697652489E-2,5.609783530E-1
2.378397720E0,4.557865858E-1,-1.713693589E-1,6.344794035E-1
2.380905637E0,3.971987665E-1,-2.874797583E-1,7.079805136E-1
2.383413449E0,3.226324618E-1,-3.918725848E-1,7.804163694E-1
2.385921314E0,2.523270845E-1,-4.738955498E-1,8.517869711E-1
2.388429230E0,1.905435622E-1,-5.431357026E-1,9.167661667E-1
2.390937095E0,1.362166703E-1,-5.963973403E-1,9.721583128E-1
2.393444960E0,9.786828607E-2,-6.251586080E-1,1.019028544E0
2.395952824E0,6.697652489E-2,-6.368761659E-1,1.059507370E0
2.398460689E0,4.993279651E-2,-6.283543110E-1,1.092529655E0
2.400978137E0,4.141093418E-2,-6.070496440E-1,1.112769008E0
2.403486001E0,4.460663348E-2,-5.655055642E-1,1.130877972E0
2.405993866E0,6.378082931E-2,-5.037220716E-1,1.151117444E0
2.408501730E0,8.402025700E-2,-4.589822888E-1,1.183074474E0
2.411009595E0,1.106510833E-1,-4.302209914E-1,1.215031385E0
2.413517460E0,1.458037645E-1,-4.227643609E-1,1.239531755E0
2.416025376E0,1.894783229E-1,-4.280905128E-1,1.268293023E0
2.418533241E0,2.299571782E-1,-4.248948097E-1,1.303445816E0
2.421041105E0,2.704360485E-1,-4.248948097E-1,1.335402727E0
2.423548970E0,3.077192008E-1,-4.334166944E-1,1.354576945E0
2.426056835E0,3.407414258E-1,-4.770912528E-1,1.378012061E0
2.428564699E0,3.599156141E-1,-5.793536305E-1,1.454708815E0
2.431088085E0,3.940030634E-1,-7.039858699E-1,1.561232209E0
2.433595949E0,4.547213614E-1,-8.275529146E-1,1.658168316E0
2.436103814E0,5.143743753E-1,-9.649679661E-1,1.739259243E0
2.438611678E0,5.601794124E-1,-1.074687004E0,1.768020511E0
2.441119543E0,6.177020073E-1,-1.085339308E0,1.728606939E0
2.443627408E0,6.752246022E-1,-1.006512046E0,1.667755485E0
2.446135272E0,6.954640150E-1,-9.617722631E-1,1.627276540E0
2.448643137E0,6.358109713E-1,-1.000120640E0,1.615558982E0
2.451151001E0,5.580489635E-1,-1.032077670E0,1.600645781E0
2.453658866E0,4.728302956E-1,-1.045925617E0,1.580406308E0
2.456166730E0,3.726983964E-1,-1.016099095E0,1.545253634E0
2.458674647E0,2.896102369E-1,-9.479242563E-1,1.504774809E0
2.461190012E0,2.278267145E-1,-8.509880304E-1,1.455774069E0
2.463697876E0,1.958697289E-1,-7.402037978E-1,1.400381923E0
2.466205741E0,2.139786780E-1,-6.123758554E-1,1.344989896E0
2.468713605E0,2.896102369E-1,-4.568518102E-1,1.284271598E0
2.471221470E0,4.472647011E-1,-2.576532364E-1,1.202248573E0
2.473729335E0,6.741593480E-1,-2.543243766E-2,1.077616334E0
2.476237251E0,9.500547051E-1,2.302234918E-1,8.869396448E-1
2.478745064E0,1.277081251E0,5.870765448E-1,5.780220628E-1
2.481252980E0,1.643521428E0,1.069627166E0,1.295589656E-1
2.483760845E0,1.987591624E0,1.597982645E0,-3.796224296E-1
2.486268710E0,2.224073410E0,2.052837133E0,-8.355421424E-1
2.488776574E0,2.294378757E0,2.377733231E0,-1.126350760E0
2.491293085E0,2.205964327E0,2.526865959E0,-1.214765072E0
2.493800949E0,1.969482660E0,2.420342684E0,-1.128481269E0
2.496308814E0,1.591324925E0,2.084794283E0,-9.612396359E-1
2.498816678E0,1.104513526E0,1.627809167E0,-8.089113235E-1
2.501324543E0,5.697665215E-1,1.169759035E0,-6.224955320E-1
2.503832408E0,1.042596847E-1,7.671009302E-1,-4.680367708E-1
2.506340272E0,-2.099840641E-1,4.890751243E-1,-3.657743931E-1
2.508848189E0,-3.516600430E-1,3.473991156E-1,-3.178389072E-1
2.511356053E0,-3.729647100E-1,3.069202602E-1,-3.455349505E-1
2.513863918E0,-3.282249272E-1,3.090507388E-1,-4.286231399E-1
2.516371783E0,-2.557890713E-1,3.399424851E-1,-5.607120395E-1
2.518879647E0,-1.716356725E-1,3.793561161E-1,-7.098446488E-1
2.521394283E0,-9.493889660E-2,3.942693770E-1,-8.366073966E-1
2.523902147E0,-3.635107726E-2,3.761604130E-1,-9.356740713E-1
2.526410012E0,8.388710208E-3,3.335510790E-1,-9.878704548E-1
2.528917876E0,2.862813696E-2,2.781589627E-1,-9.931966662E-1
2.531425741E0,2.330197208E-2,2.131797522E-1,-9.686962962E-1
2.533933605E0,1.158440951E-2,1.641790420E-1,-9.143694043E-1
2.536441522E0,-2.463351376E-2,1.258306503E-1,-8.323464394E-1
2.538949387E0,-7.043853402E-2,9.174319357E-2,-7.588453889E-1
2.541457251E0,-1.087869257E-1,6.511236727E-2,-7.077142000E-1
2.543965116E0,-1.343525201E-1,6.830807030E-2,-6.714962721E-1
2.546472980E0,-1.503310055E-1,9.813459218E-2,-6.438001990E-1
2.548980845E0,-1.588528752E-1,1.354177445E-1,-6.224955320E-1
2.551499230E0,-1.513962448E-1,1.716356725E-1,-6.022561193E-1
2.554007095E0,-1.396786869E-1,2.121145278E-1,-5.820167065E-1
2.556514960E0,-1.119826213E-1,2.781589627E-1,-5.500596762E-1
2.559022824E0,-8.641702682E-2,3.846822679E-1,-4.829500318E-1
2.561530689E0,-7.576470077E-2,5.199668407E-1,-3.391435742E-1
2.564038553E0,-1.034607589E-1,6.371424794E-1,-9.627043456E-2
2.566546418E0,-1.599181145E-1,6.094464660E-1,1.029281393E-1
2.569054335E0,-1.993317306E-1,5.167711973E-1,2.179733068E-1
2.571562199E0,-1.993317306E-1,4.975969791E-1,2.914743721E-1
2.574070064E0,-1.684399694E-1,5.157059431E-1,3.276923001E-1
2.576577928E0,-1.247654185E-1,4.880098701E-1,3.458012640E-1
2.579085793E0,-7.789516449E-2,4.326177537E-1,3.575188220E-1
2.581607668E0,-2.569874749E-2,3.548557460E-1,3.575188220E-1
2.584115533E0,3.288906813E-2,2.707023323E-1,3.447360396E-1
2.586623397E0,8.295502514E-2,1.854836941E-1,3.298227787E-1
2.589131262E0,1.298252791E-1,8.961272985E-2,3.170399666E-1
2.591639126E0,1.671084315E-1,-4.127778113E-3,3.042571843E-1
2.594146991E0,1.916087866E-1,-8.508548886E-2,2.999962568E-1
2.596654908E0,2.001306564E-1,-1.692388952E-1,2.978657782E-1
2.599162772E0,2.001306564E-1,-2.448704392E-1,2.925396264E-1
2.601670637E0,1.905435622E-1,-3.023930192E-1,2.861482203E-1
2.604178501E0,1.734998226E-1,-3.375457227E-1,2.744306624E-1
2.606686366E0,1.564560980E-1,-3.609808385E-1,2.584521770E-1
2.609194230E0,1.415428370E-1,-3.503285050E-1,2.477998286E-1
2.611712772E0,1.244991124E-1,-3.151758313E-1,2.328865677E-1
2.614220637E0,1.138467789E-1,-2.619141638E-1,2.190385461E-1
2.616728501E0,1.074553803E-1,-2.022611201E-1,2.115819156E-1
2.619236366E0,9.573781490E-2,-1.607170254E-1,2.137123793E-1
2.621744230E0,8.082455397E-2,-1.479342431E-1,2.232994735E-1
2.624252095E0,7.443315536E-2,-1.362166703E-1,2.435389012E-1
2.626759960E0,8.295502514E-2,-9.360735118E-2,2.627131045E-1
2.629267876E0,9.360735118E-2,-3.715000302E-2,2.829525173E-1
2.631775741E0,1.074553803E-1,8.655018173E-3,2.989310026E-1
2.634283605E0,1.234338731E-1,4.487293959E-2,3.213009238E-1
2.636791470E0,1.330209672E-1,5.765573680E-2,3.468665183E-1
2.639299335E0,1.468690038E-1,5.765573680E-2,3.713668585E-1
2.641816835E0,1.575213373E-1,4.593817517E-2,3.820191920E-1
2.644324699E0,1.607170254E-1,4.487293959E-2,3.958672285E-1
2.646832564E0,1.703041345E-1,8.215609938E-2,4.075847864E-1
2.649340428E0,1.766955256E-1,1.162435561E-1,4.203675687E-1
2.651848293E0,1.830869317E-1,1.215697154E-1,4.342156053E-1
2.654356158E0,1.948044896E-1,1.258306503E-1,4.491288662E-1
2.656864074E0,2.139786780E-1,1.418091506E-1,4.597811997E-1
2.659371939E0,2.342181057E-1,1.588528752E-1,4.683030546E-1
2.661879803E0,2.576532364E-1,1.673747450E-1,4.800206423E-1
2.664387668E0,2.800231278E-1,1.609833390E-1,4.981296062E-1
2.666895533E0,2.917406857E-1,1.567224115E-1,5.194342732E-1
2.669403397E0,2.938711643E-1,1.332872808E-1,5.471302867E-1
2.671917564E0,2.938711643E-1,1.023955271E-1,5.769568086E-1
2.674425428E0,2.810883522E-1,6.191666797E-2,5.982614756E-1
2.676933293E0,2.672403455E-1,3.315537795E-2,6.142399907E-1
2.679441158E0,2.459356785E-1,2.143781446E-2,6.227618456E-1
2.681949022E0,2.246310115E-1,2.143781446E-2,6.163704395E-1
2.684456887E0,2.011958808E-1,2.463351376E-2,6.003919840E-1
2.686964751E0,1.745650619E-1,2.889444493E-2,5.758916140E-1
2.689472668E0,1.489994675E-1,3.954677656E-2,5.439345837E-1
2.691980533E0,1.234338731E-1,6.085143611E-2,5.087819099E-1
2.694488397E0,9.254211932E-2,9.174319357E-2,4.778901637E-1
2.696996262E0,6.484606117E-2,1.258306503E-1,4.544550478E-1
2.699504126E0,3.608476743E-2,1.620485783E-1,4.342156053E-1
2.702026835E0,1.371487509E-2,1.961360276E-1,4.107804894E-1
2.704534699E0,-1.611164957E-2,2.280930281E-1,3.937367499E-1
2.707042564E0,-4.167724028E-2,2.643109560E-1,3.734973371E-1
2.709550428E0,-5.978620425E-2,2.962679267E-1,3.607145250E-1
2.712058293E0,-6.617759913E-2,3.111811876E-1,3.489969671E-1
2.714566158E0,-7.256899774E-2,3.143768907E-1,3.351489305E-1
2.717074074E0,-7.896039635E-2,3.090507388E-1,3.159747422E-1
2.719581939E0,-8.215609938E-2,2.952027023E-1,3.021267056E-1
2.722089803E0,-8.428656310E-2,2.813546658E-1,2.861482203E-1
2.724597616E0,-8.215609938E-2,2.632457018E-1,2.648435533E-1
2.727105533E0,-7.896039635E-2,2.504629195E-1,2.477998286E-1
2.729613397E0,-7.150376588E-2,2.248973250E-1,2.477998286E-1
2.732132460E0,-6.085143611E-2,1.908098608E-1,2.520607710E-1
2.734640324E0,-4.806863889E-2,1.535267085E-1,2.552564740E-1
2.737148189E0,-3.102491237E-2,1.151783243E-1,2.552564740E-1
2.739656053E0,-1.291595027E-2,6.085143611E-2,2.520607710E-1
2.742163918E0,1.158440951E-2,1.930734888E-2,2.467346042E-1
2.744671783E0,3.715000302E-2,-1.691057347E-2,2.371474952E-1
2.747179647E0,7.762885839E-2,-9.999874979E-2,2.286256403E-1
2.749687564E0,1.426080763E-1,-2.011958808E-1,2.126471400E-1
2.752195428E0,1.500647068E-1,-1.468690038E-1,2.041252851E-1
2.754703293E0,1.213034093E-1,-5.312849581E-2,1.892120093E-1
2.757211158E0,8.402025700E-2,1.198387123E-3,1.689725816E-1
2.759719022E0,4.567186534E-2,1.717688330E-2,1.519288570E-1
2.762233241E0,1.051917579E-2,4.394086078E-3,1.476679295E-1
2.764741105E0,-1.611164957E-2,-2.330197208E-2,1.551245600E-1
2.767248970E0,-3.741630912E-2,-7.656362653E-2,1.838858575E-1
2.769756835E0,-4.061200842E-2,-8.188978583E-2,1.977338791E-1
2.772264699E0,-3.209014609E-2,-5.312849581E-2,1.913424879E-1
2.774772564E0,-2.250304818E-2,-2.117150649E-2,1.796249151E-1
2.777280428E0,-1.291595027E-2,2.356828004E-2,1.711030602E-1
2.779788345E0,-1.198387123E-3,5.232957378E-2,1.647116542E-1
2.782296210E0,9.453942999E-3,7.256899774E-2,1.636464298E-1
2.784804074E0,1.051917579E-2,8.535179496E-2,1.679073572E-1
2.787311939E0,1.478010789E-2,8.535179496E-2,1.689725816E-1
2.789819803E0,1.264964230E-2,8.748225868E-2,1.668421179E-1
2.792356835E0,8.388710208E-3,8.535179496E-2,1.700378209E-1
2.794864699E0,4.127778113E-3,7.896039635E-2,1.700378209E-1
2.797372512E0,-4.394086078E-3,7.256899774E-2,1.668421179E-1
2.799880428E0,-7.589785382E-3,6.511236727E-2,1.647116542E-1
2.802388293E0,-8.655018173E-3,5.552527308E-2,1.647116542E-1
2.804896158E0,-1.185071748E-2,4.487293959E-2,1.593854874E-1
2.807404022E0,-1.291595027E-2,4.274247587E-2,1.604507267E-1
2.809911887E0,-1.078548469E-2,3.848154470E-2,1.604507267E-1
2.812419751E0,-7.589785382E-3,4.061200842E-2,1.604507267E-1
2.814927616E0,-5.459319334E-3,3.848154470E-2,1.561897993E-1
2.817435480E0,-4.394086078E-3,3.635107726E-2,1.497983932E-1
2.819943397E0,-4.394086078E-3,3.315537795E-2,1.402112991E-1
2.822441626E0,-5.459319334E-3,2.569874749E-2,1.306242049E-1
2.824949491E0,-4.394086078E-3,2.250304818E-2,1.295589656E-1
2.827457355E0,-7.589785382E-3,1.611164957E-2,1.295589656E-1
2.829965220E0,-7.589785382E-3,1.185071748E-2,1.263632625E-1
2.832473085E0,-7.589785382E-3,9.720250964E-3,1.263632625E-1
2.834980949E0,-9.720250964E-3,3.328853287E-3,1.252980381E-1
2.837488866E0,-7.589785382E-3,-5.193010904E-3,1.199718714E-1
2.839996730E0,-4.394086078E-3,-4.127778113E-3,1.189066395E-1
2.842504595E0,-4.394086078E-3,2.263620263E-3,1.189066395E-1
2.845012460E0,-3.328853287E-3,8.655018173E-3,1.199718714E-1
2.847520324E0,-4.394086078E-3,1.291595027E-2,1.210371032E-1
2.850028189E0,-2.263620263E-3,1.331541280E-4,1.146457046E-1
2.852550637E0,-1.198387123E-3,-7.323476952E-3,1.103847697E-1
2.855058501E0,1.997311832E-3,-1.158440951E-2,1.103847697E-1
2.857566366E0,5.193010904E-3,-1.478010789E-2,1.061238423E-1
2.860074230E0,3.062544856E-3,-2.330197208E-2,9.973244369E-2
2.862582095E0,3.062544856E-3,-2.436720580E-2,9.440627694E-2
2.865089960E0,3.062544856E-3,-3.501953557E-2,9.440627694E-2
2.867597824E0,7.323476952E-3,-5.206326395E-2,1.050586104E-1
2.870105741E0,1.691057347E-2,-7.017222792E-2,1.210371032E-1
2.872613605E0,2.330197208E-2,-7.549838722E-2,1.402112991E-1
2.875121470E0,2.330197208E-2,-5.312849581E-2,1.604507267E-1
2.877629335E0,1.584534161E-2,-1.797580719E-2,1.774944514E-1
2.880137199E0,8.388710208E-3,-1.691057347E-2,1.711030602E-1
2.882640793E0,-1.198387123E-3,-2.969337068E-2,1.529940963E-1
2.885148658E0,-9.720250964E-3,-3.928046674E-2,1.402112991E-1
2.887656522E0,-1.504641678E-2,-4.567186534E-2,1.284937263E-1
2.890164387E0,-1.185071748E-2,-5.525896326E-2,1.199718714E-1
2.892672251E0,-1.185071748E-2,-5.845466256E-2,1.114500016E-1
2.895180116E0,-1.398118306E-2,-6.804175675E-2,1.007976755E-1
2.897687980E0,-1.504641678E-2,-6.804175675E-2,8.801487833E-2
2.900195845E0,-1.504641678E-2,-6.591129303E-2,7.736254483E-2
2.902703710E0,-1.824211515E-2,-6.910699606E-2,6.777545065E-2
2.905211574E0,-1.930734888E-2,-7.230269164E-2,5.818835273E-2
2.907719491E0,-2.143781446E-2,-8.082455397E-2,4.966649041E-2
2.910227355E0,-2.037258074E-2,-8.402025700E-2,4.220985994E-2
2.912766418E0,-1.930734888E-2,-9.254211932E-2,3.794892505E-2
2.915274283E0,-1.824211515E-2,-9.893351793E-2,4.114462435E-2
2.917782147E0,-2.037258074E-2,-9.573781490E-2,3.688369319E-2
2.920290012E0,-2.676397935E-2,-1.031944528E-1,3.155753016E-2
2.922797876E0,-2.782921307E-2,-1.085206121E-1,2.942706272E-2
2.925305741E0,-2.889444493E-2,-1.138467789E-1,3.262276202E-2
2.927813605E0,-2.569874749E-2,-1.074553803E-1,4.007939249E-2
2.930321470E0,-2.782921307E-2,-1.074553803E-1,4.540555924E-2
2.932829335E0,-2.782921307E-2,-1.127815470E-1,5.179695413E-2
2.935337199E0,-2.250304818E-2,-1.202381775E-1,6.671021879E-2
2.937845116E0,-1.717688330E-2,-1.266295761E-1,8.055824786E-2
2.940352980E0,-7.589785382E-3,-1.330209672E-1,9.227581322E-2
2.942862564E0,2.010627277E-2,-1.021292135E-1,8.481918275E-2
2.945370428E0,7.017222792E-2,-3.608476743E-2,4.540555924E-2
2.947878293E0,1.042596847E-1,3.328853287E-3,3.861469682E-3
2.950386210E0,1.127815470E-1,-3.075860441E-2,-1.637795754E-2
2.952894022E0,9.786828607E-2,-9.680305421E-2,-1.318225823E-2
2.955401887E0,8.508548886E-2,-1.340862066E-1,-1.211702544E-2
2.957909751E0,9.147688746E-2,-1.223686412E-1,-1.531272475E-2
2.960417668E0,1.170424819E-1,-9.467258304E-2,-1.211702544E-2
2.962925533E0,1.479342431E-1,-7.123745978E-2,-9.986559860E-3
2.965433397E0,1.713693589E-1,-6.697652489E-2,-1.211702544E-2
2.967941262E0,1.809564531E-1,-7.230269164E-2,-1.105179265E-2
2.970449126E0,1.830869317E-1,-8.828118443E-2,-8.921326138E-3
2.972970845E0,1.830869317E-1,-1.074553803E-1,-8.921326138E-3
2.975478710E0,1.798912287E-1,-1.266295761E-1,-1.464695437E-3
2.977986574E0,1.766955256E-1,-1.340862066E-1,9.187635034E-3
2.980494491E0,1.692388952E-1,-1.372819096E-1,1.025286783E-2
2.983002303E0,1.649779677E-1,-1.330209672E-1,1.131810062E-2
2.985510168E0,1.607170254E-1,-1.298252791E-1,1.025286783E-2
2.988018033E0,1.521951705E-1,-1.276948154E-1,5.991935730E-3
2.990525949E0,1.468690038E-1,-1.276948154E-1,9.187635034E-3
2.993033814E0,1.372819096E-1,-1.276948154E-1,1.344856713E-2
2.995541678E0,1.308905035E-1,-1.362166703E-1,2.197043039E-2
2.998049543E0,1.308905035E-1,-1.426080763E-1,3.368799388E-2
3.000557408E0,1.234338731E-1,-1.479342431E-1,4.540555924E-2
3.003075689E0,1.159772426E-1,-1.553908736E-1,5.499265343E-2
3.005583553E0,1.117163152E-1,-1.649779677E-1,6.351451576E-2
3.008091418E0,9.786828607E-2,-1.734998226E-1,7.416684926E-2
3.010599283E0,9.147688746E-2,-1.809564531E-1,9.014534205E-2
3.013107147E0,8.402025700E-2,-1.873478591E-1,1.050586104E-1
3.015615012E0,7.975932211E-2,-1.990654171E-1,1.199718714E-1
3.018122876E0,7.762885839E-2,-2.086525112E-1,1.529940963E-1
3.020630793E0,7.443315536E-2,-2.235657871E-1,1.924077123E-1
3.023138658E0,7.123745978E-2,-2.512618303E-1,2.094514370E-1
3.025646522E0,6.910699606E-2,-2.746969759E-1,2.211690098E-1
3.028154387E0,8.721595258E-2,-2.672403455E-1,2.680392563E-1
3.030662251E0,8.721595258E-2,-3.098496497E-1,3.191704452E-1
3.033176678E0,7.443315536E-2,-3.641765416E-1,3.117138147E-1
3.035684543E0,7.762885839E-2,-3.716331720E-1,3.127790391E-1
3.038192408E0,8.934641629E-2,-3.737636507E-1,3.383446336E-1
3.040700272E0,1.106510833E-1,-3.684374690E-1,3.575188220E-1
3.043208137E0,1.255643368E-1,-3.439370990E-1,3.521926701E-1
3.045716001E0,1.340862066E-1,-3.268933892E-1,3.596493006E-1
3.048223866E0,1.244991124E-1,-3.396761715E-1,3.830844164E-1
3.050731783E0,1.159772426E-1,-3.343500197E-1,3.948020041E-1
3.053239647E0,1.117163152E-1,-3.141105771E-1,4.001281559E-1
3.055747512E0,1.149120107E-1,-2.629793882E-1,3.734973371E-1
3.058255376E0,1.149120107E-1,-2.139786780E-1,3.564535975E-1
3.060763241E0,1.149120107E-1,-1.713693589E-1,3.543231487E-1
3.063287772E0,1.362166703E-1,-1.319557428E-1,3.521926701E-1
3.065795637E0,1.553908736E-1,-9.467258304E-2,3.607145250E-1
3.068303501E0,1.713693589E-1,-6.591129303E-2,3.788234890E-1
3.070811366E0,1.841521561E-1,-4.247616604E-2,4.011933804E-1
3.073319230E0,1.916087866E-1,-2.543243766E-2,4.235632718E-1
3.075827095E0,1.958697289E-1,-2.649767138E-2,4.427374899E-1
3.078334960E0,1.969349533E-1,-2.969337068E-2,4.533897936E-1
3.080842824E0,1.937392503E-1,-4.034570232E-2,4.619116783E-1
3.083350741E0,1.980001926E-1,-4.034570232E-2,4.672378302E-1
3.085858605E0,2.011958808E-1,-4.034570232E-2,4.629769027E-1
3.088366470E0,2.086525112E-1,-4.141093418E-2,4.619116783E-1
3.090874335E0,2.171743810E-1,-3.928046674E-2,4.619116783E-1
3.093386574E0,2.310224175E-1,-3.395430371E-2,4.533897936E-1
3.095895168E0,2.395442724E-1,-1.797580719E-2,4.427374899E-1
3.098403710E0,2.480661422E-1,6.524552125E-3,4.320851564E-1
3.100912251E0,2.544575334E-1,2.995967865E-2,4.182371199E-1
3.103420845E0,2.544575334E-1,5.126433820E-2,4.065195620E-1
3.105929387E0,2.533923090E-1,7.256899774E-2,4.043890834E-1
3.108437928E0,2.470009029E-1,9.387365729E-2,4.065195620E-1
3.110946470E0,2.331528813E-1,1.077216864E-1,4.107804894E-1
3.113455064E0,2.139786780E-1,1.151783243E-1,4.193023443E-1
3.115963658E0,1.926740259E-1,1.194392517E-1,4.374113083E-1
3.118472199E0,1.671084315E-1,1.141130850E-1,4.565854967E-1
3.120980741E0,1.404775977E-1,1.098521575E-1,4.789553881E-1
3.123495585E0,1.149120107E-1,1.077216864E-1,4.970643520E-1
3.126004178E0,9.147688746E-2,1.130478531E-1,5.130428672E-1
3.128512720E0,7.656362653E-2,1.194392517E-1,5.258256793E-1
3.131021314E0,5.845466256E-2,1.268958896E-1,5.300865769E-1
3.133529855E0,4.993279651E-2,1.300915778E-1,5.279561281E-1
3.136038397E0,4.460663348E-2,1.332872808E-1,5.215647221E-1
3.138546991E0,3.288906813E-2,1.407439113E-1,5.162385702E-1
3.141055480E0,2.756290510E-2,1.460700780E-1,5.045210123E-1
3.143564074E0,2.436720580E-2,1.482005417E-1,4.906729758E-1
3.146072616E0,1.371487509E-2,1.471353173E-1,4.768249393E-1
3.148581158E0,5.193010904E-3,1.428743750E-1,4.640421271E-1
3.151089751E0,-3.328853287E-3,1.332872808E-1,4.576507509E-1
3.153600689E0,-1.930734888E-2,1.258306503E-1,4.523245692E-1
3.156109283E0,-3.954677656E-2,1.151783243E-1,4.480636418E-1
3.158617824E0,-5.339480564E-2,1.055912226E-1,4.416722357E-1
3.161126366E0,-7.043853402E-2,9.919982404E-2,4.395417869E-1
3.163634960E0,-8.854749799E-2,9.067796171E-2,4.374113083E-1
3.166143501E0,-1.034607589E-1,8.215609938E-2,4.288894534E-1
3.168652043E0,-1.162435561E-1,7.469946891E-2,4.182371199E-1
3.171160585E0,-1.205044836E-1,5.978620425E-2,4.054543078E-1
3.173669178E0,-1.226349548E-1,5.019910634E-2,3.969324529E-1
3.176177720E0,-1.194392517E-1,4.913387448E-2,3.830844164E-1
3.178686262E0,-1.141130850E-1,4.274247587E-2,3.671059310E-1
3.181194855E0,-1.130478531E-1,3.635107726E-2,3.468665183E-1
3.183704751E0,-1.077216864E-1,3.848154470E-2,3.234313726E-1
3.186213345E0,-9.919982404E-2,3.848154470E-2,3.053224087E-1
3.188721887E0,-9.280842543E-2,3.209014609E-2,2.818872929E-1
3.191230428E0,-9.280842543E-2,2.143781446E-2,2.595174015E-1
3.193739022E0,-9.174319357E-2,1.398118306E-2,2.435389012E-1
3.196247564E0,-8.961272985E-2,2.263620263E-3,2.275604010E-1
3.198756105E0,-9.280842543E-2,-8.388710208E-3,2.137123793E-1
3.201264647E0,-9.280842543E-2,-1.797580719E-2,1.998643428E-1
3.203773241E0,-9.493889660E-2,-2.969337068E-2,1.828206182E-1
3.206281783E0,-9.813459218E-2,-3.715000302E-2,1.636464298E-1
3.208790324E0,-9.706936032E-2,-4.460663348E-2,1.370155960E-1
3.211298918E0,-9.600412846E-2,-4.780233279E-2,1.167761683E-1
3.213808553E0,-8.854749799E-2,-5.099803209E-2,9.653674066E-2
3.216317147E0,-8.428656310E-2,-5.738943070E-2,8.162347972E-2
3.218825689E0,-8.002562821E-2,-7.230269164E-2,6.884068251E-2
3.221334230E0,-7.363422960E-2,-8.615072072E-2,6.031882018E-2
3.223842824E0,-7.043853402E-2,-8.934641629E-2,5.392742157E-2
3.226351366E0,-7.043853402E-2,-8.934641629E-2,4.753602296E-2
3.228859908E0,-6.724283099E-2,-9.147688746E-2,3.901416063E-2
3.231368449E0,-6.191666797E-2,-8.615072072E-2,3.475322574E-2
3.233877043E0,-6.404713541E-2,-7.762885839E-2,2.729659714E-2
3.236385585E0,-6.617759913E-2,-6.804175675E-2,2.090519853E-2
3.238894126E0,-7.363422960E-2,-5.951989442E-2,2.197043039E-2
3.241402720E0,-7.469946891E-2,-5.419373140E-2,1.877473295E-2
3.243911314E0,-7.469946891E-2,-5.099803209E-2,1.238333434E-2
3.246419908E0,-8.002562821E-2,-4.567186534E-2,1.238333434E-2
3.248928449E0,-8.428656310E-2,-4.034570232E-2,1.664426550E-2
3.251437043E0,-9.280842543E-2,-3.288906813E-2,1.770949923E-2
3.253945585E0,-9.813459218E-2,-2.330197208E-2,1.770949923E-2
3.256454126E0,-1.066564545E-1,-1.584534161E-2,1.344856713E-2
3.258962668E0,-1.141130850E-1,-1.051917579E-2,1.025286783E-2
3.261471262E0,-1.258306503E-1,-3.062544856E-3,7.057168987E-3
3.263979803E0,-1.322220564E-1,1.198387123E-3,9.187635034E-3
3.266488345E0,-1.418091506E-1,6.524552125E-3,1.025286783E-2
3.268996887E0,-1.503310055E-1,1.185071748E-2,1.451379992E-2
3.271505480E0,-1.482005417E-1,1.504641678E-2,2.090519853E-2
3.274020637E0,-1.503310055E-1,1.504641678E-2,2.836182900E-2
3.276529230E0,-1.503310055E-1,1.824211515E-2,4.220985994E-2
3.279037772E0,-1.418091506E-1,9.720250964E-3,5.179695413E-2
3.281546314E0,-1.311568171E-1,-7.323476952E-3,6.671021879E-2
3.284054908E0,-1.194392517E-1,-3.182383627E-2,8.375394344E-2
3.286563449E0,-1.045259908E-1,-7.975932211E-2,1.146457046E-1
3.289071991E0,-7.896039635E-2,-1.500647068E-1,1.476679295E-1
3.291580533E0,-5.978620425E-2,-2.171743810E-1,1.828206182E-1
3.294089126E0,-3.848154470E-2,-2.651098669E-1,2.041252851E-1
3.296597668E0,-7.589785382E-3,-2.789579034E-1,2.051905096E-1
3.299106210E0,2.117150649E-2,-2.778926790E-1,1.956034154E-1
3.301614803E0,5.312849581E-2,-2.704360485E-1,1.753639877E-1
3.304124439E0,8.508548886E-2,-2.651098669E-1,1.476679295E-1
3.306633033E0,1.053249165E-1,-2.533923090E-1,1.178414002E-1
3.309141574E0,1.202381775E-1,-2.395442724E-1,8.055824786E-2
3.311650116E0,1.213034093E-1,-2.171743810E-1,4.540555924E-2
3.314158710E0,1.191729456E-1,-1.873478591E-1,1.451379992E-2
3.316667251E0,1.213034093E-1,-1.511299312E-1,-7.856093347E-3
3.319175793E0,1.213034093E-1,-1.042596847E-1,-3.022598661E-2
3.321684335E0,1.191729456E-1,-5.312849581E-2,-4.726971686E-2
3.324192928E0,1.181077138E-1,-5.193010904E-3,-6.005251035E-2
3.326701470E0,1.266295761E-1,3.954677656E-2,-6.324820966E-2
3.329210012E0,1.340862066E-1,7.789516449E-2,-6.857437640E-2
3.331718605E0,1.362166703E-1,1.077216864E-1,-6.857437640E-2
3.334217616E0,1.404775977E-1,1.279611140E-1,-6.644391268E-2
3.336726158E0,1.426080763E-1,1.396786869E-1,-6.644391268E-2
3.339234751E0,1.458037645E-1,1.407439113E-1,-5.898727849E-2
3.341743293E0,1.447385401E-1,1.354177445E-1,-5.259587988E-2
3.344251887E0,1.372819096E-1,1.300915778E-1,-4.833494872E-2
3.346760376E0,1.319557428E-1,1.279611140E-1,-4.194355011E-2
3.349268970E0,1.234338731E-1,1.279611140E-1,-3.981308267E-2
3.351777512E0,1.127815470E-1,1.364829838E-1,-3.768261895E-2
3.354286053E0,9.999874979E-2,1.609833390E-1,-3.874785081E-2
3.356794647E0,9.467258304E-2,1.343525201E-1,-4.513924941E-2
3.359303189E0,8.402025700E-2,1.311568171E-1,-3.981308267E-2
3.361811730E0,7.975932211E-2,1.513962448E-1,-3.342168778E-2
3.364335949E0,7.443315536E-2,1.471353173E-1,-3.235645220E-2
3.366844543E0,6.804175675E-2,1.450048387E-1,-2.276935615E-2
3.369353085E0,6.591129303E-2,1.513962448E-1,-1.105179265E-2
3.371861678E0,6.484606117E-2,1.556571722E-1,-6.790860556E-3
3.374370220E0,6.271559745E-2,1.588528752E-1,6.657706108E-4
3.376878762E0,5.525896326E-2,1.673747450E-1,9.187635034E-3
3.379387303E0,5.525896326E-2,1.780270636E-1,1.557903271E-2
3.381895845E0,5.951989442E-2,1.876141727E-1,2.623136342E-2
3.384404439E0,6.697652489E-2,1.950708032E-1,3.368799388E-2
3.386913033E0,6.804175675E-2,2.003969699E-1,4.220985994E-2
3.389421522E0,7.123745978E-2,2.099840641E-1,4.647079110E-2
3.391930116E0,8.188978583E-2,2.280930281E-1,5.179695413E-2
3.394436366E0,9.147688746E-2,2.525933683E-1,5.499265343E-2
3.396944908E0,9.254211932E-2,2.632457018E-1,5.605788901E-2
3.399453501E0,9.147688746E-2,2.685718834E-1,6.031882018E-2
3.401962043E0,9.360735118E-2,2.813546658E-1,6.351451576E-2
3.404470637E0,8.721595258E-2,2.930722237E-1,6.990591437E-2
3.406979178E0,7.975932211E-2,3.079854846E-1,7.310161740E-2
3.409487772E0,7.975932211E-2,2.994636297E-1,7.842778414E-2
3.411996314E0,7.869409025E-2,2.962679267E-1,8.055824786E-2
3.414504855E0,7.443315536E-2,3.207682967E-1,8.162347972E-2
3.417013397E0,7.336792350E-2,3.729647100E-1,8.588441461E-2
3.419521991E0,6.591129303E-2,5.146406889E-1,9.227581322E-2
3.422030533E0,8.934641629E-2,6.051855087E-1,7.842778414E-2
3.424531105E0,1.234338731E-1,5.913375020E-1,4.220985994E-2
3.427039647E0,1.138467789E-1,5.316844583E-1,9.187635034E-3
3.429548241E0,1.127815470E-1,4.848141670E-1,1.238333434E-2
3.432056783E0,1.202381775E-1,4.091826379E-1,4.966649041E-2
3.434565324E0,1.170424819E-1,3.101159632E-1,9.334104508E-2
3.437073866E0,9.041165560E-2,2.142449915E-1,1.402112991E-1
3.439582460E0,6.165036187E-2,1.183740199E-1,1.721682847E-1
3.442091001E0,3.821523488E-2,2.463351376E-2,1.711030602E-1
3.444599543E0,2.117150649E-2,-3.608476743E-2,1.540593207E-1
3.447108137E0,7.323476952E-3,-7.017222792E-2,1.359503716E-1
3.449616678E0,-5.459319334E-3,-8.615072072E-2,1.295589656E-1
3.452125220E0,-7.589785382E-3,-8.934641629E-2,1.242327988E-1
3.454644491E0,-8.655018173E-3,-8.295502514E-2,1.146457046E-1
3.457153085E0,-6.524552125E-3,-1.031944528E-1,1.125152409E-1
3.459661626E0,-4.394086078E-3,-1.362166703E-1,1.061238423E-1
3.462170220E0,-3.328853287E-3,-1.553908736E-1,1.029281393E-1
3.464678762E0,-3.328853287E-3,-1.734998226E-1,1.082543060E-1
3.467187303E0,-2.263620263E-3,-1.830869317E-1,1.050586104E-1
3.469695845E0,-7.589785382E-3,-1.916087866E-1,1.007976755E-1
3.472204387E0,-1.078548469E-2,-1.905435622E-1,9.866721183E-2
3.474712980E0,-7.589785382E-3,-1.777607650E-1,9.866721183E-2
3.477221574E0,-4.394086078E-3,-1.681736708E-1,9.760197252E-2
3.479730064E0,-8.655018173E-3,-1.671084315E-1,1.029281393E-1
3.482238658E0,-2.569874749E-2,-2.033263594E-1,1.007976755E-1
3.484750376E0,-3.954677656E-2,-2.342181057E-1,9.440627694E-2
3.487258970E0,-4.274247587E-2,-2.384790480E-1,9.014534205E-2
3.489767512E0,-3.954677656E-2,-2.438052148E-1,8.481918275E-2
3.492276053E0,-4.274247587E-2,-2.757622004E-1,7.736254483E-2
3.494784647E0,-2.889444493E-2,-3.439370990E-1,4.966649041E-2
3.497293189E0,1.051917579E-2,-4.270252883E-1,5.991935730E-3
3.499801730E0,-1.504641678E-2,-4.770912528E-1,-1.744319126E-2
3.502310272E0,-7.256899774E-2,-5.207657814E-1,-2.063889056E-2
3.504818866E0,-8.002562821E-2,-4.643084407E-1,6.657706108E-4
3.507327408E0,-6.298190355E-2,-3.854812086E-1,1.451379992E-2
3.509835949E0,-3.315537795E-2,-3.119801283E-1,2.410089783E-2
3.512344543E0,-2.263620263E-3,-2.533923090E-1,3.262276202E-2
3.514854751E0,1.904104091E-2,-2.118482143E-1,4.220985994E-2
3.517363345E0,2.969337068E-2,-1.894783229E-1,5.179695413E-2
3.519871887E0,2.649767138E-2,-1.788259894E-1,6.138405204E-2
3.522380428E0,2.330197208E-2,-1.745650619E-1,6.777545065E-2
3.524889022E0,1.904104091E-2,-1.703041345E-1,6.990591437E-2
3.527397564E0,1.371487509E-2,-1.660431921E-1,7.523208112E-2
3.529906105E0,1.371487509E-2,-1.681736708E-1,7.310161740E-2
3.532414647E0,1.158440951E-2,-1.734998226E-1,7.097115368E-2
3.534923241E0,1.051917579E-2,-1.777607650E-1,6.990591437E-2
3.537431783E0,1.691057347E-2,-1.852173954E-1,6.564498693E-2
3.539940324E0,2.010627277E-2,-1.926740259E-1,6.031882018E-2
3.542448918E0,1.797580719E-2,-2.065220475E-1,5.712312087E-2
3.544963918E0,2.010627277E-2,-2.129134536E-1,5.392742157E-2
3.547472512E0,1.371487509E-2,-2.193048447E-1,4.753602296E-2
3.549981053E0,8.388710208E-3,-2.267614752E-1,4.007939249E-2
3.552489595E0,8.388710208E-3,-2.267614752E-1,2.942706272E-2
3.554998189E0,1.371487509E-2,-2.139786780E-1,2.090519853E-2
3.557506730E0,1.797580719E-2,-1.969349533E-1,1.983996481E-2
3.560015272E0,2.543243766E-2,-1.894783229E-1,1.238333434E-2
3.562523814E0,2.756290510E-2,-1.958697289E-1,1.131810062E-2
3.565032408E0,2.649767138E-2,-1.990654171E-1,1.131810062E-2
3.567540949E0,2.436720580E-2,-2.011958808E-1,1.131810062E-2
3.570049491E0,2.969337068E-2,-2.054568231E-1,1.664426550E-2
3.572558085E0,2.649767138E-2,-2.107829899E-1,1.770949923E-2
3.575067772E0,2.649767138E-2,-2.118482143E-1,1.344856713E-2
3.577576366E0,2.756290510E-2,-2.203700840E-1,1.131810062E-2
3.580084908E0,2.649767138E-2,-2.193048447E-1,1.131810062E-2
3.582593501E0,2.969337068E-2,-2.150439173E-1,1.238333434E-2
3.585102043E0,3.288906813E-2,-2.129134536E-1,1.664426550E-2
3.587610585E0,3.501953557E-2,-2.161091566E-1,2.303566411E-2
3.590119126E0,2.969337068E-2,-2.267614752E-1,2.516612969E-2
3.592627668E0,2.649767138E-2,-2.374138087E-1,2.090519853E-2
3.595136262E0,2.436720580E-2,-2.470009029E-1,2.516612969E-2
3.597644855E0,2.436720580E-2,-2.501966059E-1,2.516612969E-2
3.600153345E0,2.649767138E-2,-2.470009029E-1,2.410089783E-2
3.602661939E0,2.543243766E-2,-2.470009029E-1,2.303566411E-2
3.605168918E0,2.223674022E-2,-2.512618303E-1,2.197043039E-2
3.607677512E0,2.330197208E-2,-2.501966059E-1,2.303566411E-2
3.610186053E0,2.649767138E-2,-2.427399755E-1,2.090519853E-2
3.612694595E0,2.862813696E-2,-2.416747361E-1,2.303566411E-2
3.615203189E0,2.756290510E-2,-2.363485843E-1,2.410089783E-2
3.617711730E0,2.649767138E-2,-2.288919389E-1,2.410089783E-2
3.620220272E0,2.756290510E-2,-2.214353085E-1,2.623136342E-2
3.622728814E0,2.649767138E-2,-2.129134536E-1,2.729659714E-2
3.625237408E0,2.969337068E-2,-2.086525112E-1,3.049229458E-2
3.627745949E0,3.075860441E-2,-2.011958808E-1,2.942706272E-2
3.630254491E0,3.182383627E-2,-1.916087866E-1,3.155753016E-2
3.632763085E0,3.075860441E-2,-1.862826198E-1,3.155753016E-2
3.635268814E0,2.862813696E-2,-1.830869317E-1,3.049229458E-2
3.637777408E0,3.075860441E-2,-1.724345982E-1,3.049229458E-2
3.640285949E0,3.075860441E-2,-1.596518010E-1,2.836182900E-2
3.642794491E0,2.862813696E-2,-1.532603949E-1,2.516612969E-2
3.645303085E0,2.223674022E-2,-1.426080763E-1,2.410089783E-2
3.647811626E0,2.010627277E-2,-1.351514459E-1,2.197043039E-2
3.650320168E0,1.797580719E-2,-1.244991124E-1,1.770949923E-2
3.652828762E0,1.904104091E-2,-1.149120107E-1,1.557903271E-2
3.655337303E0,1.691057347E-2,-1.181077138E-1,1.025286783E-2
3.657845845E0,1.371487509E-2,-1.149120107E-1,7.057168987E-3
3.660354387E0,1.158440951E-2,-1.095858440E-1,8.122402243E-3
3.662862980E0,1.264964230E-2,-1.042596847E-1,4.926702939E-3
3.665383293E0,1.584534161E-2,-9.467258304E-2,6.657706108E-4
3.667891887E0,1.797580719E-2,-9.360735118E-2,-2.529928461E-3
3.670400428E0,1.584534161E-2,-9.254211932E-2,-4.660394508E-3
3.672908970E0,1.584534161E-2,-9.467258304E-2,-6.790860556E-3
3.675417564E0,1.264964230E-2,-9.786828607E-2,-7.856093347E-3
3.677926105E0,1.584534161E-2,-1.031944528E-1,-4.660394508E-3
3.680434647E0,1.371487509E-2,-1.074553803E-1,-8.921326138E-3
3.682943189E0,1.371487509E-2,-1.149120107E-1,-1.318225823E-2
3.685451783E0,1.691057347E-2,-1.170424819E-1,-9.986559860E-3
3.687960324E0,1.584534161E-2,-1.202381775E-1,-1.105179265E-2
3.690468866E0,1.797580719E-2,-1.276948154E-1,-1.531272475E-2
3.692977460E0,2.223674022E-2,-1.340862066E-1,-2.063889056E-2
3.695487147E0,2.543243766E-2,-1.426080763E-1,-2.276935615E-2
3.697995741E0,2.543243766E-2,-1.468690038E-1,-2.703028731E-2
3.700504283E0,2.969337068E-2,-1.415428370E-1,-2.703028731E-2
3.703012824E0,3.395430371E-2,-1.319557428E-1,-3.129122034E-2
3.705521418E0,3.821523488E-2,-1.223686412E-1,-3.342168778E-2
3.708029960E0,4.247616604E-2,-1.159772426E-1,-3.342168778E-2
3.710538501E0,4.354140162E-2,-1.149120107E-1,-3.448691964E-2
3.713047043E0,4.567186534E-2,-1.127815470E-1,-3.555215150E-2
3.715555637E0,4.567186534E-2,-1.117163152E-1,-3.342168778E-2
3.718064230E0,4.673709720E-2,-1.117163152E-1,-3.235645220E-2
3.720572720E0,4.780233279E-2,-1.149120107E-1,-3.448691964E-2
3.723081314E0,4.567186534E-2,-1.202381775E-1,-3.342168778E-2
3.725587251E0,4.780233279E-2,-1.255643368E-1,-3.022598661E-2
3.728095845E0,4.247616604E-2,-1.202381775E-1,-2.809552103E-2
3.730604387E0,4.141093418E-2,-1.287600398E-1,-2.916075476E-2
3.733112928E0,4.567186534E-2,-1.511299312E-1,-3.129122034E-2
3.735621522E0,5.099803209E-2,-1.703041345E-1,-3.129122034E-2
3.738130064E0,5.738943070E-2,-1.756303012E-1,-3.235645220E-2
3.740638605E0,6.697652489E-2,-1.777607650E-1,-3.235645220E-2
3.743147147E0,6.484606117E-2,-1.809564531E-1,-3.235645220E-2
3.745655741E0,6.591129303E-2,-1.734998226E-1,-3.342168778E-2
3.748164283E0,6.697652489E-2,-1.681736708E-1,-3.129122034E-2
3.750672824E0,6.697652489E-2,-1.660431921E-1,-2.703028731E-2
3.753181418E0,6.697652489E-2,-1.724345982E-1,-2.809552103E-2
3.755697095E0,6.484606117E-2,-1.756303012E-1,-2.703028731E-2
3.758205689E0,6.697652489E-2,-1.649779677E-1,-1.957365684E-2
3.760714230E0,6.591129303E-2,-1.585865617E-1,-1.744319126E-2
3.763222772E0,6.271559745E-2,-1.458037645E-1,-1.531272475E-2
3.765731366E0,6.165036187E-2,-1.138467789E-1,-8.921326138E-3
3.768239908E0,5.951989442E-2,-1.063901484E-1,-4.660394508E-3
3.770748449E0,6.484606117E-2,-1.149120107E-1,-3.595161485E-3
3.773256991E0,6.591129303E-2,-1.149120107E-1,-4.660394508E-3
3.775765585E0,6.591129303E-2,-1.159772426E-1,-2.529928461E-3
3.778274126E0,6.697652489E-2,-1.106510833E-1,-3.595161485E-3
3.780782668E0,6.484606117E-2,-1.021292135E-1,-1.464695437E-3
3.783291262E0,6.165036187E-2,-9.360735118E-2,1.731003635E-3
3.785801626E0,6.165036187E-2,-8.828118443E-2,4.926702939E-3
3.788310220E0,6.058513001E-2,-8.508548886E-2,3.861469682E-3
3.790818762E0,6.058513001E-2,-8.828118443E-2,2.796236658E-3
3.793327303E0,6.484606117E-2,-8.721595258E-2,-3.994623839E-4
3.795835897E0,6.591129303E-2,-8.402025700E-2,-1.464695437E-3
3.798344439E0,6.378082931E-2,-7.336792350E-2,-3.994623839E-4
3.800852980E0,6.378082931E-2,-6.271559745E-2,-3.994623839E-4
3.803361522E0,6.378082931E-2,-5.419373140E-2,-4.660394508E-3
3.805870116E0,6.697652489E-2,-4.780233279E-2,-6.790860556E-3
3.808378710E0,6.378082931E-2,-4.247616604E-2,-1.105179265E-2
3.810887199E0,5.632419512E-2,-3.182383627E-2,-9.986559860E-3
3.813395793E0,5.845466256E-2,-2.117150649E-2,-1.424749196E-2
3.815906783E0,4.993279651E-2,-1.264964230E-2,-1.424749196E-2
3.818415324E0,4.673709720E-2,-4.127778113E-3,-1.318225823E-2
3.820923866E0,4.567186534E-2,-5.193010904E-3,-1.531272475E-2
3.823432408E0,4.247616604E-2,-1.264964230E-2,-1.318225823E-2
3.825941001E0,4.141093418E-2,-2.010627277E-2,-9.986559860E-3
3.828449543E0,4.141093418E-2,-2.862813696E-2,-1.211702544E-2
3.830958085E0,4.247616604E-2,-3.288906813E-2,-5.725627299E-3
3.833466626E0,4.141093418E-2,-3.288906813E-2,-1.464695437E-3
3.835975220E0,4.567186534E-2,-4.780233279E-2,-2.529928461E-3
3.838483762E0,4.886756465E-2,-5.632419512E-2,-3.994623839E-4
3.840992303E0,5.312849581E-2,-6.804175675E-2,6.657706108E-4
3.843500897E0,5.312849581E-2,-7.230269164E-2,1.731003635E-3
3.846009022E0,5.632419512E-2,-5.525896326E-2,1.731003635E-3
3.848517616E0,5.845466256E-2,-4.567186534E-2,3.861469682E-3
3.851026158E0,6.271559745E-2,-3.608476743E-2,3.861469682E-3
3.853534699E0,6.484606117E-2,-2.436720580E-2,1.731003635E-3
3.856043293E0,6.591129303E-2,-1.904104091E-2,1.731003635E-3
3.858551835E0,6.910699606E-2,1.198387123E-3,3.861469682E-3
3.861060376E0,6.697652489E-2,2.463351376E-2,9.187635034E-3
3.863568918E0,5.738943070E-2,4.806863889E-2,1.451379992E-2
3.866077512E0,5.738943070E-2,5.019910634E-2,1.451379992E-2
3.868586053E0,6.484606117E-2,2.463351376E-2,8.122402243E-3
3.871094595E0,6.591129303E-2,-1.997311832E-3,4.926702939E-3
3.873603189E0,6.804175675E-2,-1.371487509E-2,5.991935730E-3
3.876116001E0,7.230269164E-2,-2.010627277E-2,8.122402243E-3
3.878624543E0,7.656362653E-2,-2.969337068E-2,8.122402243E-3
3.881133085E0,8.188978583E-2,-3.928046674E-2,3.861469682E-3
3.883641626E0,8.615072072E-2,-3.928046674E-2,3.861469682E-3
3.886150220E0,8.934641629E-2,-3.501953557E-2,4.926702939E-3
3.888658762E0,8.721595258E-2,-1.904104091E-2,7.057168987E-3
3.891167303E0,9.147688746E-2,-2.862813696E-2,9.187635034E-3
3.893675845E0,9.360735118E-2,-4.034570232E-2,8.122402243E-3
3.896184439E0,9.254211932E-2,-3.928046674E-2,5.991935730E-3
3.898692980E0,9.893351793E-2,-3.075860441E-2,1.731003635E-3
3.901201522E0,9.786828607E-2,-7.323476952E-3,4.926702939E-3
3.903710116E0,9.467258304E-2,1.504641678E-2,1.131810062E-2
3.906221053E0,8.934641629E-2,1.504641678E-2,1.770949923E-2
3.908729647E0,8.721595258E-2,3.328853287E-3,1.877473295E-2
3.911238189E0,8.295502514E-2,-9.453942999E-3,1.877473295E-2
3.913746730E0,7.975932211E-2,-1.051917579E-2,2.303566411E-2
3.916255324E0,8.188978583E-2,-7.323476952E-3,1.877473295E-2
3.918763866E0,8.828118443E-2,2.263620263E-3,1.238333434E-2
3.921272408E0,9.573781490E-2,3.315537795E-2,1.238333434E-2
3.923780949E0,9.254211932E-2,8.322133124E-2,1.877473295E-2
3.926289543E0,8.402025700E-2,1.226349548E-1,3.262276202E-2
3.928798085E0,7.230269164E-2,1.364829838E-1,4.753602296E-2
3.931306626E0,5.951989442E-2,1.215697154E-1,5.499265343E-2
3.933815220E0,4.141093418E-2,9.174319357E-2,5.818835273E-2
3.936309803E0,3.288906813E-2,7.896039635E-2,6.351451576E-2
3.938818345E0,3.288906813E-2,8.109086752E-2,7.097115368E-2
3.941326887E0,3.395430371E-2,8.535179496E-2,7.416684926E-2
3.943835480E0,3.501953557E-2,8.961272985E-2,7.310161740E-2
3.946344022E0,3.928046674E-2,8.109086752E-2,7.203638554E-2
3.948852564E0,4.354140162E-2,8.002562821E-2,6.884068251E-2
3.951361158E0,4.567186534E-2,7.682993263E-2,6.457975507E-2
3.953869699E0,4.460663348E-2,7.150376588E-2,5.925358832E-2
3.956378241E0,4.141093418E-2,8.002562821E-2,5.818835273E-2
3.958886835E0,3.821523488E-2,8.854749799E-2,5.073172227E-2
3.961395376E0,3.075860441E-2,9.280842543E-2,4.540555924E-2
3.963903918E0,2.436720580E-2,8.854749799E-2,3.794892505E-2
3.966427303E0,1.478010789E-2,8.748225868E-2,2.729659714E-2
3.968935897E0,1.051917579E-2,8.002562821E-2,2.090519853E-2
3.971444439E0,3.062544856E-3,7.789516449E-2,1.451379992E-2
3.973952980E0,-4.394086078E-3,7.469946891E-2,9.187635034E-3
3.976461574E0,-6.524552125E-3,8.535179496E-2,1.025286783E-2
3.978970116E0,-1.078548469E-2,9.493889660E-2,8.122402243E-3
3.981478658E0,-2.250304818E-2,1.109173894E-1,9.187635034E-3
3.983987199E0,-2.995967865E-2,1.237001866E-1,2.197043039E-2
3.986495793E0,-4.380770773E-2,1.268958896E-1,3.688369319E-2
3.989004335E0,-5.872096866E-2,1.258306503E-1,4.860125855E-2
3.991512876E0,-6.724283099E-2,1.247654185E-1,5.605788901E-2
3.994021470E0,-8.428656310E-2,1.215697154E-1,5.925358832E-2
3.996487408E0,-9.706936032E-2,1.141130850E-1,6.564498693E-2
3.998995949E0,-1.130478531E-1,9.067796171E-2,6.884068251E-2
4.001504543E0,-1.151783243E-1,8.002562821E-2,7.203638554E-2
4.004013085E0,-1.205044836E-1,8.641702682E-2,6.671021879E-2
4.006521626E0,-1.258306503E-1,9.174319357E-2,5.712312087E-2
4.009030220E0,-1.290263534E-1,9.493889660E-2,5.818835273E-2
4.011538762E0,-1.300915778E-1,9.706936032E-2,6.138405204E-2
4.014047303E0,-1.332872808E-1,9.706936032E-2,6.351451576E-2
4.016555897E0,-1.396786869E-1,8.002562821E-2,6.351451576E-2
4.019064439E0,-1.428743750E-1,6.404713541E-2,6.138405204E-2
4.021573033E0,-1.460700780E-1,6.617759913E-2,5.605788901E-2
4.024081574E0,-1.482005417E-1,8.748225868E-2,5.818835273E-2
4.026637251E0,-1.460700780E-1,7.576470077E-2,4.540555924E-2
4.029145845E0,-1.492657810E-1,4.593817517E-2,1.983996481E-2
4.031654387E0,-1.513962448E-1,3.422060981E-2,2.796236658E-3
4.034162928E0,-1.556571722E-1,2.463351376E-2,-7.856093347E-3
4.036671522E0,-1.545919478E-1,2.037258074E-2,-1.850842312E-2
4.039180064E0,-1.620485783E-1,2.143781446E-2,-2.703028731E-2
4.041688605E0,-1.652442664E-1,2.037258074E-2,-3.555215150E-2
4.044197147E0,-1.684399694E-1,1.930734888E-2,-3.768261895E-2
4.046705741E0,-1.758965999E-1,1.930734888E-2,-4.194355011E-2
4.049214283E0,-1.822880059E-1,2.143781446E-2,-4.407401755E-2
4.051722824E0,-1.876141727E-1,2.356828004E-2,-3.981308267E-2
4.054231418E0,-1.918751001E-1,2.995967865E-2,-3.448691964E-2
4.056740585E0,-1.940055639E-1,3.741630912E-2,-3.129122034E-2
4.059249126E0,-1.961360276E-1,4.487293959E-2,-2.596505545E-2
4.061757720E0,-1.929403245E-1,5.019910634E-2,-1.850842312E-2
4.064266262E0,-1.876141727E-1,5.659050494E-2,-1.318225823E-2
4.066774803E0,-1.812227666E-1,5.978620425E-2,-4.660394508E-3
4.069283397E0,-1.727008969E-1,5.552527308E-2,1.731003635E-3
4.071791939E0,-1.620485783E-1,4.167724028E-2,7.057168987E-3
4.074300480E0,-1.482005417E-1,1.185071748E-2,1.238333434E-2
4.076809074E0,-1.343525201E-1,-3.075860441E-2,1.983996481E-2
4.079317616E0,-1.162435561E-1,-6.271559745E-2,2.623136342E-2
4.081826158E0,-1.034607589E-1,-8.082455397E-2,3.368799388E-2
4.084334751E0,-9.174319357E-2,-9.254211932E-2,4.114462435E-2
4.086850585E0,-7.682993263E-2,-9.467258304E-2,4.966649041E-2
4.089359178E0,-5.765573680E-2,-9.786828607E-2,5.605788901E-2
4.091867720E0,-4.167724028E-2,-9.999874979E-2,5.605788901E-2
4.094376262E0,-2.889444493E-2,-1.010639817E-1,6.138405204E-2
4.096884803E0,-1.185071748E-2,-9.999874979E-2,6.244928762E-2
4.099393397E0,1.997311832E-3,-9.893351793E-2,6.138405204E-2
4.101901939E0,1.478010789E-2,-9.573781490E-2,6.138405204E-2
4.104410480E0,2.756290510E-2,-9.360735118E-2,6.351451576E-2
4.106919074E0,3.395430371E-2,-8.828118443E-2,6.564498693E-2
4.109427616E0,4.247616604E-2,-7.762885839E-2,6.671021879E-2
4.111936158E0,4.993279651E-2,-6.484606117E-2,6.884068251E-2
4.114444751E0,5.738943070E-2,-6.058513001E-2,6.990591437E-2
4.116931522E0,6.804175675E-2,-5.845466256E-2,6.884068251E-2
4.119440220E0,7.336792350E-2,-5.419373140E-2,6.884068251E-2
4.121948866E0,7.762885839E-2,-4.886756465E-2,6.990591437E-2
4.124457564E0,8.402025700E-2,-4.034570232E-2,7.097115368E-2
4.126966210E0,8.508548886E-2,-3.395430371E-2,7.203638554E-2
4.129474855E0,9.147688746E-2,-2.649767138E-2,7.416684926E-2
4.131983553E0,9.680305421E-2,-1.478010789E-2,7.736254483E-2
4.134492199E0,9.893351793E-2,4.394086078E-3,8.162347972E-2
4.137000845E0,9.893351793E-2,2.250304818E-2,9.014534205E-2
4.139509543E0,9.999874979E-2,4.167724028E-2,9.973244369E-2
4.142018189E0,1.053249165E-1,6.191666797E-2,1.050586104E-1
4.144526835E0,1.085206121E-1,7.896039635E-2,1.146457046E-1
4.147059543E0,1.127815470E-1,8.322133124E-2,1.210371032E-1
4.149568189E0,1.170424819E-1,8.961272985E-2,1.274285018E-1
4.152076835E0,1.202381775E-1,9.280842543E-2,1.316894293E-1
4.154585533E0,1.287600398E-1,9.280842543E-2,1.338198930E-1
4.157094178E0,1.372819096E-1,8.854749799E-2,1.370155960E-1
4.159602824E0,1.404775977E-1,8.109086752E-2,1.359503716E-1
4.162111522E0,1.468690038E-1,7.469946891E-2,1.295589656E-1
4.164620168E0,1.543256342E-1,7.256899774E-2,1.242327988E-1
4.167128814E0,1.596518010E-1,6.937330216E-2,1.178414002E-1
4.169637512E0,1.607170254E-1,5.872096866E-2,1.135804728E-1
4.172146158E0,1.628475040E-1,4.913387448E-2,1.082543060E-1
4.174654803E0,1.639127284E-1,3.422060981E-2,1.050586104E-1
4.177136470E0,1.649779677E-1,2.143781446E-2,9.866721183E-2
4.179645168E0,1.639127284E-1,3.328853287E-3,9.227581322E-2
4.182153814E0,1.585865617E-1,-1.371487509E-2,9.334104508E-2
4.184662512E0,1.575213373E-1,-2.756290510E-2,9.121058136E-2
4.187171158E0,1.521951705E-1,-3.928046674E-2,8.694964647E-2
4.189679803E0,1.479342431E-1,-4.886756465E-2,8.801487833E-2
4.192188501E0,1.394123733E-1,-5.738943070E-2,8.481918275E-2
4.194697147E0,1.330209672E-1,-6.378082931E-2,8.268871158E-2
4.197205793E0,1.213034093E-1,-6.484606117E-2,8.162347972E-2
4.199714491E0,1.106510833E-1,-6.271559745E-2,8.162347972E-2
4.202223137E0,1.010639817E-1,-6.058513001E-2,8.162347972E-2
4.204731783E0,9.041165560E-2,-6.058513001E-2,8.162347972E-2
4.207269699E0,8.402025700E-2,-5.099803209E-2,8.268871158E-2
4.209778345E0,7.869409025E-2,-4.460663348E-2,8.055824786E-2
4.212286991E0,7.443315536E-2,-4.780233279E-2,8.375394344E-2
4.214795689E0,7.336792350E-2,-4.460663348E-2,8.268871158E-2
4.217304335E0,7.549838722E-2,-4.460663348E-2,7.949301600E-2
4.219812980E0,7.656362653E-2,-5.206326395E-2,7.842778414E-2
4.222321678E0,7.656362653E-2,-5.419373140E-2,7.736254483E-2
4.224830324E0,8.082455397E-2,-6.058513001E-2,7.416684926E-2
4.227338970E0,7.975932211E-2,-6.804175675E-2,6.884068251E-2
4.229847668E0,7.869409025E-2,-7.443315536E-2,6.138405204E-2
4.232356314E0,7.869409025E-2,-8.188978583E-2,6.138405204E-2
4.234864960E0,7.443315536E-2,-8.934641629E-2,5.605788901E-2
4.237363085E0,7.123745978E-2,-9.573781490E-2,5.073172227E-2
4.239871730E0,6.697652489E-2,-1.053249165E-1,4.753602296E-2
4.242380376E0,6.271559745E-2,-1.106510833E-1,3.901416063E-2
4.244889074E0,5.845466256E-2,-1.117163152E-1,3.475322574E-2
4.247397720E0,4.780233279E-2,-1.127815470E-1,3.049229458E-2
4.249906366E0,3.608476743E-2,-1.191729456E-1,2.516612969E-2
4.252415064E0,2.969337068E-2,-1.276948154E-1,1.557903271E-2
4.254923710E0,2.330197208E-2,-1.298252791E-1,1.131810062E-2
4.257432355E0,1.264964230E-2,-1.255643368E-1,5.991935730E-3
4.259941053E0,4.127778113E-3,-1.213034093E-1,-3.994623839E-4
4.262449647E0,-2.263620263E-3,-1.234338731E-1,-5.725627299E-3
4.264958345E0,-5.459319334E-3,-1.255643368E-1,-1.105179265E-2
4.267477303E0,-1.398118306E-2,-1.223686412E-1,-1.424749196E-2
4.269985949E0,-1.930734888E-2,-1.202381775E-1,-1.744319126E-2
4.272494595E0,-2.356828004E-2,-1.202381775E-1,-2.170412242E-2
4.275003293E0,-2.995967865E-2,-1.138467789E-1,-2.489982173E-2
4.277511939E0,-3.528584540E-2,-1.106510833E-1,-2.596505545E-2
4.280020585E0,-3.954677656E-2,-1.127815470E-1,-2.916075476E-2
4.282529230E0,-4.593817517E-2,-1.149120107E-1,-3.235645220E-2
4.285037928E0,-4.913387448E-2,-1.127815470E-1,-4.087831825E-2
4.287546574E0,-4.700340703E-2,-1.170424819E-1,-4.407401755E-2
4.290055272E0,-4.913387448E-2,-1.223686412E-1,-4.940018058E-2
4.292563866E0,-5.232957378E-2,-1.234338731E-1,-5.046541616E-2
4.295072564E0,-4.913387448E-2,-1.255643368E-1,-5.366111174E-2
4.297554960E0,-4.274247587E-2,-1.276948154E-1,-5.685681105E-2
4.300063605E0,-3.741630912E-2,-1.308905035E-1,-6.005251035E-2
4.302572251E0,-3.741630912E-2,-1.340862066E-1,-6.537867337E-2
4.305080949E0,-3.528584540E-2,-1.362166703E-1,-6.750914454E-2
4.307589595E0,-3.209014609E-2,-1.372819096E-1,-7.070484012E-2
4.310098241E0,-2.676397935E-2,-1.394123733E-1,-7.070484012E-2
4.312606939E0,-2.676397935E-2,-1.404775977E-1,-6.857437640E-2
4.315115585E0,-2.782921307E-2,-1.415428370E-1,-6.857437640E-2
4.317624230E0,-2.463351376E-2,-1.383471340E-1,-6.537867337E-2
4.320132928E0,-2.037258074E-2,-1.340862066E-1,-5.898727849E-2
4.322641574E0,-1.824211515E-2,-1.340862066E-1,-5.472634733E-2
4.325150220E0,-1.504641678E-2,-1.340862066E-1,-4.726971686E-2
4.327684022E0,-1.185071748E-2,-1.372819096E-1,-4.300878197E-2
4.330192668E0,-1.185071748E-2,-1.340862066E-1,-3.555215150E-2
4.332701314E0,-7.589785382E-3,-1.362166703E-1,-2.703028731E-2
4.335210012E0,-1.331541280E-4,-1.383471340E-1,-2.170412242E-2
4.337718658E0,1.997311832E-3,-1.330209672E-1,-1.424749196E-2
4.340227303E0,7.323476952E-3,-1.394123733E-1,-6.790860556E-3
4.342736001E0,1.371487509E-2,-1.383471340E-1,6.657706108E-4
4.345244647E0,2.010627277E-2,-1.415428370E-1,7.057168987E-3
4.347753293E0,3.501953557E-2,-1.351514459E-1,1.344856713E-2
4.350261991E0,3.928046674E-2,-1.330209672E-1,1.877473295E-2
4.352770637E0,4.780233279E-2,-1.340862066E-1,2.090519853E-2
4.355279283E0,6.165036187E-2,-1.276948154E-1,2.516612969E-2
4.357767147E0,7.549838722E-2,-1.298252791E-1,2.729659714E-2
4.360275793E0,8.188978583E-2,-1.298252791E-1,3.155753016E-2
4.362784439E0,8.934641629E-2,-1.308905035E-1,3.368799388E-2
4.365293137E0,9.680305421E-2,-1.319557428E-1,3.794892505E-2
4.367801783E0,1.010639817E-1,-1.287600398E-1,3.901416063E-2
4.370310428E0,1.074553803E-1,-1.266295761E-1,4.007939249E-2
4.372819126E0,1.117163152E-1,-1.223686412E-1,3.901416063E-2
4.375327772E0,1.117163152E-1,-1.234338731E-1,4.007939249E-2
4.377836418E0,1.138467789E-1,-1.255643368E-1,3.901416063E-2
4.380345116E0,1.191729456E-1,-1.202381775E-1,4.220985994E-2
4.382853710E0,1.234338731E-1,-1.159772426E-1,4.114462435E-2
4.385362408E0,1.276948154E-1,-1.149120107E-1,4.114462435E-2
4.387898397E0,1.276948154E-1,-1.138467789E-1,4.220985994E-2
4.390407043E0,1.255643368E-1,-1.127815470E-1,4.327509180E-2
4.392915689E0,1.287600398E-1,-1.149120107E-1,4.753602296E-2
4.395424387E0,1.319557428E-1,-1.170424819E-1,5.179695413E-2
4.397933033E0,1.340862066E-1,-1.223686412E-1,5.286218971E-2
4.400441678E0,1.372819096E-1,-1.298252791E-1,5.605788901E-2
4.402950324E0,1.447385401E-1,-1.362166703E-1,5.925358832E-2
4.405459022E0,1.521951705E-1,-1.447385401E-1,5.925358832E-2
4.407967668E0,1.564560980E-1,-1.532603949E-1,5.818835273E-2
4.410476366E0,1.585865617E-1,-1.649779677E-1,5.818835273E-2
4.412985012E0,1.649779677E-1,-1.777607650E-1,5.392742157E-2
4.415493658E0,1.671084315E-1,-1.873478591E-1,5.073172227E-2
4.417991262E0,1.703041345E-1,-1.948044896E-1,4.966649041E-2
4.420499908E0,1.724345982E-1,-2.054568231E-1,4.753602296E-2
4.423008553E0,1.788259894E-1,-2.129134536E-1,4.647079110E-2
4.425517251E0,1.830869317E-1,-2.225005478E-1,4.220985994E-2
4.428025897E0,1.852173954E-1,-2.256962508E-1,4.114462435E-2
4.430534543E0,1.862826198E-1,-2.288919389E-1,3.794892505E-2
4.433043241E0,1.884130985E-1,-2.310224175E-1,3.368799388E-2
4.435551887E0,1.852173954E-1,-2.352833450E-1,2.729659714E-2
4.438060533E0,1.894783229E-1,-2.363485843E-1,2.516612969E-2
4.440569178E0,1.926740259E-1,-2.374138087E-1,2.303566411E-2
4.443077876E0,1.905435622E-1,-2.374138087E-1,1.557903271E-2
4.445586522E0,1.873478591E-1,-2.363485843E-1,1.238333434E-2
4.448104960E0,1.873478591E-1,-2.384790480E-1,7.057168987E-3
4.450613605E0,1.884130985E-1,-2.416747361E-1,1.731003635E-3
4.453122251E0,1.862826198E-1,-2.427399755E-1,-1.464695437E-3
4.455630949E0,1.862826198E-1,-2.438052148E-1,-5.725627299E-3
4.458139595E0,1.809564531E-1,-2.438052148E-1,-5.725627299E-3
4.460648241E0,1.766955256E-1,-2.427399755E-1,-9.986559860E-3
4.463156939E0,1.766955256E-1,-2.406095117E-1,-1.531272475E-2
4.465665585E0,1.734998226E-1,-2.395442724E-1,-1.957365684E-2
4.468174230E0,1.724345982E-1,-2.363485843E-1,-2.170412242E-2
4.470682876E0,1.745650619E-1,-2.395442724E-1,-2.596505545E-2
4.473191574E0,1.777607650E-1,-2.427399755E-1,-2.489982173E-2
4.475700220E0,1.862826198E-1,-2.427399755E-1,-2.703028731E-2
4.478205533E0,1.862826198E-1,-2.448704392E-1,-2.703028731E-2
4.480714178E0,1.884130985E-1,-2.512618303E-1,-2.703028731E-2
4.483222824E0,1.937392503E-1,-2.565880120E-1,-2.809552103E-2
4.485731522E0,2.022611201E-1,-2.597837150E-1,-2.809552103E-2
4.488240168E0,2.054568231E-1,-2.597837150E-1,-2.916075476E-2
4.490748814E0,2.129134536E-1,-2.565880120E-1,-3.129122034E-2
4.493257512E0,2.182396203E-1,-2.608489394E-1,-3.022598661E-2
4.495766158E0,2.246310115E-1,-2.587184608E-1,-3.129122034E-2
4.498274803E0,2.320876420E-1,-2.544575334E-1,-3.129122034E-2
4.500783501E0,2.374138087E-1,-2.491313666E-1,-2.596505545E-2
4.503292095E0,2.470009029E-1,-2.480661422E-1,-2.916075476E-2
4.505800793E0,2.555227578E-1,-2.427399755E-1,-2.596505545E-2
4.508318762E0,2.587184608E-1,-2.416747361E-1,-2.276935615E-2
4.510827408E0,2.672403455E-1,-2.384790480E-1,-2.276935615E-2
4.513336053E0,2.683055699E-1,-2.352833450E-1,-2.383458801E-2
4.515844751E0,2.693707943E-1,-2.342181057E-1,-2.063889056E-2
4.518353397E0,2.693707943E-1,-2.384790480E-1,-1.637795754E-2
4.520862095E0,2.672403455E-1,-2.406095117E-1,-1.744319126E-2
4.523370741E0,2.693707943E-1,-2.395442724E-1,-1.744319126E-2
4.525879387E0,2.629793882E-1,-2.416747361E-1,-1.744319126E-2
4.528388033E0,2.544575334E-1,-2.395442724E-1,-1.531272475E-2
4.530896730E0,2.501966059E-1,-2.342181057E-1,-1.531272475E-2
4.533405376E0,2.416747361E-1,-2.342181057E-1,-1.531272475E-2
4.535914022E0,2.320876420E-1,-2.331528813E-1,-1.105179265E-2
4.538424126E0,2.256962508E-1,-2.235657871E-1,-7.856093347E-3
4.540932772E0,2.214353085E-1,-2.161091566E-1,-7.856093347E-3
4.543441418E0,2.139786780E-1,-2.118482143E-1,-6.790860556E-3
4.545950116E0,2.107829899E-1,-2.054568231E-1,-2.529928461E-3
4.548458762E0,2.065220475E-1,-1.958697289E-1,-2.529928461E-3
4.550967408E0,2.011958808E-1,-1.894783229E-1,-1.464695437E-3
4.553476105E0,2.022611201E-1,-1.798912287E-1,-3.595161485E-3
4.555984751E0,2.033263594E-1,-1.766955256E-1,-1.464695437E-3
4.558493397E0,2.011958808E-1,-1.692388952E-1,-1.464695437E-3
4.561002095E0,2.022611201E-1,-1.639127284E-1,-5.725627299E-3
4.563510741E0,2.097177505E-1,-1.607170254E-1,-8.921326138E-3
4.566019387E0,2.097177505E-1,-1.532603949E-1,-1.318225823E-2
4.568529751E0,2.129134536E-1,-1.511299312E-1,-1.850842312E-2
4.571038397E0,2.150439173E-1,-1.458037645E-1,-2.063889056E-2
4.573547043E0,2.246310115E-1,-1.404775977E-1,-2.596505545E-2
4.576055741E0,2.299571782E-1,-1.436733007E-1,-3.235645220E-2
4.578564387E0,2.331528813E-1,-1.458037645E-1,-3.661738336E-2
4.581073033E0,2.352833450E-1,-1.500647068E-1,-4.300878197E-2
4.583581730E0,2.416747361E-1,-1.479342431E-1,-5.046541616E-2
4.586090376E0,2.523270845E-1,-1.521951705E-1,-5.685681105E-2
4.588599022E0,2.533923090E-1,-1.553908736E-1,-6.005251035E-2
4.591107720E0,2.501966059E-1,-1.564560980E-1,-6.431344151E-2
4.593616366E0,2.565880120E-1,-1.628475040E-1,-6.857437640E-2
4.596125012E0,2.587184608E-1,-1.671084315E-1,-6.963960826E-2
4.598613605E0,2.565880120E-1,-1.671084315E-1,-7.390054315E-2
4.601122303E0,2.587184608E-1,-1.681736708E-1,-7.816147059E-2
4.603630949E0,2.619141638E-1,-1.734998226E-1,-8.135717362E-2
4.606139647E0,2.587184608E-1,-1.756303012E-1,-8.242240548E-2
4.608648293E0,2.619141638E-1,-1.820216924E-1,-8.774857223E-2
4.611156939E0,2.640446424E-1,-1.862826198E-1,-9.094426781E-2
4.613665637E0,2.640446424E-1,-1.894783229E-1,-8.881380409E-2
4.616174283E0,2.608489394E-1,-2.033263594E-1,-1.005313694E-1
4.618682928E0,2.597837150E-1,-2.107829899E-1,-1.069227681E-1
4.621191626E0,2.565880120E-1,-2.150439173E-1,-1.111836955E-1
4.623700272E0,2.555227578E-1,-2.235657871E-1,-1.165098622E-1
4.626208918E0,2.555227578E-1,-2.363485843E-1,-1.218360290E-1
4.628737043E0,2.576532364E-1,-2.448704392E-1,-1.260969639E-1
4.631245689E0,2.576532364E-1,-2.523270845E-1,-1.303578913E-1
4.633754335E0,2.629793882E-1,-2.576532364E-1,-1.314231306E-1
4.636262980E0,2.704360485E-1,-2.651098669E-1,-1.314231306E-1
4.638771626E0,2.842840552E-1,-2.725664973E-1,-1.356840581E-1
4.641280324E0,2.991973162E-1,-2.800231278E-1,-1.346188188E-1
4.643789022E0,3.151758313E-1,-2.800231278E-1,-1.282274276E-1
4.646297668E0,3.364804685E-1,-2.746969759E-1,-1.260969639E-1
4.648806314E0,3.577851355E-1,-2.725664973E-1,-1.207707971E-1
4.651315012E0,3.822855055E-1,-2.683055699E-1,-1.175750941E-1
4.653823658E0,4.131772518E-1,-2.629793882E-1,-1.197055578E-1
4.656332303E0,4.387428463E-1,-2.597837150E-1,-1.207707971E-1
4.658842408E0,4.653736651E-1,-2.501966059E-1,-1.207707971E-1
4.661351053E0,4.930697381E-1,-2.331528813E-1,-1.154446304E-1
4.663859699E0,5.239614844E-1,-2.331528813E-1,-1.165098622E-1
4.666368397E0,5.505923033E-1,-2.395442724E-1,-1.165098622E-1
4.668877043E0,5.740274191E-1,-2.384790480E-1,-1.175750941E-1
4.671385689E0,6.006582975E-1,-2.352833450E-1,-1.207707971E-1
4.673894387E0,6.283543110E-1,-2.363485843E-1,-1.186403260E-1
4.676403033E0,6.517894268E-1,-2.352833450E-1,-1.165098622E-1
4.678911678E0,6.698983908E-1,-2.352833450E-1,-1.175750941E-1
4.681420376E0,6.890726089E-1,-2.395442724E-1,-1.197055578E-1
4.683929022E0,7.050511241E-1,-2.448704392E-1,-1.207707971E-1
4.686437668E0,7.231600881E-1,-2.544575334E-1,-1.229012609E-1
4.688946991E0,7.348776460E-1,-2.597837150E-1,-1.133141592E-1
4.691455637E0,7.433995008E-1,-2.704360485E-1,-1.079879999E-1
4.693964283E0,7.508561015E-1,-2.810883522E-1,-1.069227681E-1
4.696472928E0,7.583127618E-1,-2.864145339E-1,-1.069227681E-1
4.698981626E0,7.657693624E-1,-3.013277948E-1,-1.026618332E-1
4.701490272E0,7.710955739E-1,-3.141105771E-1,-9.946613014E-2
4.703998970E0,7.764217257E-1,-3.247629106E-1,-9.946613014E-2
4.706507616E0,7.753564715E-1,-3.247629106E-1,-9.200949967E-2
4.709016262E0,7.742912769E-1,-3.279586136E-1,-8.348763734E-2
4.711524908E0,7.753564715E-1,-3.311543167E-1,-7.390054315E-2
4.714033605E0,7.732260227E-1,-3.290238380E-1,-6.111774594E-2
4.716542251E0,7.742912769E-1,-3.236976862E-1,-5.046541616E-2
4.719061887E0,7.753564715E-1,-3.162410557E-1,-3.555215150E-2
4.721570533E0,7.753564715E-1,-2.960016131E-1,-1.744319126E-2
4.724079230E0,7.764217257E-1,-2.661750913E-1,-4.660394508E-3
4.726587876E0,7.753564715E-1,-2.427399755E-1,1.025286783E-2
4.729096522E0,7.689650655E-1,-2.161091566E-1,2.623136342E-2
4.731605220E0,7.647041678E-1,-1.980001926E-1,4.327509180E-2
4.734113866E0,7.615084648E-1,-1.948044896E-1,5.712312087E-2
4.736622512E0,7.497909069E-1,-1.862826198E-1,6.671021879E-2
4.739131210E0,7.316819429E-1,-1.873478591E-1,7.736254483E-2
4.741639855E0,7.103772759E-1,-1.884130985E-1,9.014534205E-2
4.744148501E0,6.880073547E-1,-1.969349533E-1,9.760197252E-2
4.746657199E0,6.624417901E-1,-2.171743810E-1,1.029281393E-1
4.749152980E0,6.304848194E-1,-2.278267145E-1,1.071890742E-1
4.751661626E0,5.995930433E-1,-2.320876420E-1,1.135804728E-1
4.754170272E0,5.644403696E-1,-2.352833450E-1,1.221023351E-1
4.756678918E0,5.260919333E-1,-2.395442724E-1,1.263632625E-1
4.759187616E0,4.866783321E-1,-2.406095117E-1,1.316894293E-1
4.761696262E0,4.398080707E-1,-2.406095117E-1,1.412765235E-1
4.764204960E0,3.982639909E-1,-2.427399755E-1,1.455374658E-1
4.766713605E0,3.503285050E-1,-2.384790480E-1,1.561897993E-1
4.769222251E0,3.077192008E-1,-2.288919389E-1,1.700378209E-1
4.771730949E0,2.651098669E-1,-2.150439173E-1,1.817553788E-1
4.774239595E0,2.256962508E-1,-1.990654171E-1,1.945381761E-1
4.776748241E0,1.820216924E-1,-1.905435622E-1,2.083862126E-1
4.779260949E0,1.436733007E-1,-1.777607650E-1,2.211690098E-1
4.781769595E0,1.127815470E-1,-1.671084315E-1,2.392779738E-1
4.784278241E0,7.869409025E-2,-1.575213373E-1,2.509955168E-1
4.786786939E0,4.460663348E-2,-1.543256342E-1,2.637783289E-1
4.789295585E0,1.904104091E-2,-1.543256342E-1,2.765611112E-1
4.791804230E0,-6.524552125E-3,-1.532603949E-1,2.936048508E-1
4.794312928E0,-2.889444493E-2,-1.532603949E-1,3.095833361E-1
4.796821574E0,-5.126433820E-2,-1.564560980E-1,3.244965971E-1
4.799330220E0,-7.363422960E-2,-1.607170254E-1,3.372794092E-1
4.801838918E0,-9.919982404E-2,-1.660431921E-1,3.521926701E-1
4.804347564E0,-1.205044836E-1,-1.724345982E-1,3.649754524E-1
4.806856210E0,-1.343525201E-1,-1.766955256E-1,3.809539676E-1
4.809366210E0,-1.482005417E-1,-1.830869317E-1,3.937367499E-1
4.811874855E0,-1.641790420E-1,-1.873478591E-1,4.054543078E-1
4.814383501E0,-1.780270636E-1,-1.958697289E-1,4.193023443E-1
4.816892199E0,-1.886793971E-1,-2.043915838E-1,4.320851564E-1
4.819400845E0,-1.982664913E-1,-2.129134536E-1,4.406070113E-1
4.821909491E0,-2.099840641E-1,-2.225005478E-1,4.512593448E-1
4.824418189E0,-2.174406946E-1,-2.363485843E-1,4.640421271E-1
4.826926835E0,-2.259625494E-1,-2.459356785E-1,4.725640118E-1
4.829435480E0,-2.344844192E-1,-2.629793882E-1,4.821510911E-1
4.831944178E0,-2.376801223E-1,-2.757622004E-1,4.959991276E-1
4.834452824E0,-2.440715134E-1,-2.864145339E-1,5.077167153E-1
4.836961470E0,-2.440715134E-1,-2.970668674E-1,5.141080618E-1
4.839468189E0,-2.440715134E-1,-3.109148741E-1,5.268908739E-1
4.841976835E0,-2.430062890E-1,-3.151758313E-1,5.343475342E-1
4.844485480E0,-2.419410497E-1,-3.258281648E-1,5.439345837E-1
4.846994178E0,-2.366148829E-1,-3.332847953E-1,5.513912439E-1
4.849502824E0,-2.344844192E-1,-3.343500197E-1,5.577826500E-1
4.852011470E0,-2.248973250E-1,-3.418066502E-1,5.673697591E-1
4.854520168E0,-2.195711583E-1,-3.450023532E-1,5.737611651E-1
4.857028814E0,-2.142449915E-1,-3.471328020E-1,5.801525116E-1
4.859537460E0,-2.099840641E-1,-3.535242081E-1,5.886744261E-1
4.862046158E0,-2.078536004E-1,-3.567199111E-1,5.940005779E-1
4.864554803E0,-2.014621943E-1,-3.588503897E-1,5.993267298E-1
4.867063449E0,-1.961360276E-1,-3.620460629E-1,6.099790335E-1
4.869578241E0,-1.918751001E-1,-3.673722446E-1,6.163704395E-1
4.872086887E0,-1.897446364E-1,-3.726983964E-1,6.195661426E-1
4.874595533E0,-1.897446364E-1,-3.790898025E-1,6.291532516E-1
4.877104178E0,-1.822880059E-1,-3.897421360E-1,6.344794035E-1
4.879612876E0,-1.844184697E-1,-4.014596939E-1,6.366099119E-1
4.882121522E0,-1.865489334E-1,-4.195686579E-1,6.430012584E-1
4.884630168E0,-1.833532304E-1,-4.366123974E-1,6.483274698E-1
4.887138866E0,-1.844184697E-1,-4.568518102E-1,6.504579186E-1
4.889647512E0,-1.876141727E-1,-4.749607742E-1,6.547188759E-1
4.892156210E0,-1.854836941E-1,-4.962654412E-1,6.557840705E-1
4.894664855E0,-1.865489334E-1,-5.186353326E-1,6.557840705E-1
4.897173501E0,-1.897446364E-1,-5.420704484E-1,6.536536217E-1
4.899677355E0,-1.918751001E-1,-5.718969703E-1,6.515231729E-1
4.902186001E0,-1.865489334E-1,-5.921363831E-1,6.536536217E-1
4.904694647E0,-1.876141727E-1,-6.038539410E-1,6.557840705E-1
4.907203345E0,-1.854836941E-1,-6.198324561E-1,6.525883675E-1
4.909711991E0,-1.790923029E-1,-6.443328261E-1,6.547188759E-1
4.912220637E0,-1.801575422E-1,-6.709636450E-1,6.483274698E-1
4.914729335E0,-1.812227666E-1,-6.965292692E-1,6.515231729E-1
4.917237980E0,-1.822880059E-1,-7.284862399E-1,6.589797735E-1
4.919746626E0,-1.769618392E-1,-7.263557911E-1,6.557840705E-1
4.922255324E0,-1.716356725E-1,-7.242252827E-1,6.547188759E-1
4.924763970E0,-1.663095057E-1,-7.252905369E-1,6.504579186E-1
4.927272616E0,-1.599181145E-1,-7.135729790E-1,6.451317668E-1
4.929785533E0,-1.567224115E-1,-7.039858699E-1,6.408708096E-1
4.932294178E0,-1.545919478E-1,-7.135729790E-1,6.472622156E-1
4.934802824E0,-1.535267085E-1,-6.922683120E-1,6.323489547E-1
4.937311470E0,-1.492657810E-1,-6.613765359E-1,6.153052449E-1
4.939820168E0,-1.428743750E-1,-6.539199352E-1,6.163704395E-1
4.942328814E0,-1.439396143E-1,-6.507242322E-1,6.248922944E-1
4.944837512E0,-1.407439113E-1,-6.475285292E-1,6.280879974E-1
4.947346158E0,-1.439396143E-1,-6.432675719E-1,6.291532516E-1
4.949854803E0,-1.503310055E-1,-6.635070443E-1,6.323489547E-1
4.952363501E0,-1.556571722E-1,-6.975944638E-1,6.344794035E-1
4.954872147E0,-1.577876359E-1,-6.848116517E-1,6.387403607E-1
4.957380793E0,-1.609833390E-1,-6.762897968E-1,6.387403607E-1
4.959890585E0,-1.684399694E-1,-6.794854999E-1,6.312837005E-1
4.962399230E0,-1.769618392E-1,-6.773550510E-1,6.227618456E-1
4.964907876E0,-1.812227666E-1,-6.826812029E-1,6.110442877E-1
4.967416574E0,-1.876141727E-1,-6.837464571E-1,6.025224328E-1
4.969925220E0,-1.908098608E-1,-6.869421601E-1,5.940005779E-1
4.972433866E0,-2.035926580E-1,-7.018554211E-1,5.876091719E-1
4.974942564E0,-2.110492885E-1,-7.242252827E-1,5.822830200E-1
4.977451210E0,-2.174406946E-1,-7.338123918E-1,5.812177658E-1
4.979959855E0,-2.217016220E-1,-7.327471375E-1,5.769568086E-1
4.982468553E0,-2.238320857E-1,-7.423342466E-1,5.684349537E-1
4.984977147E0,-2.259625494E-1,-7.540518045E-1,5.492607951E-1
4.987485845E0,-2.280930281E-1,-7.689650655E-1,5.322170258E-1
4.989996678E0,-2.302234918E-1,-7.742912769E-1,5.173037648E-1
4.992505324E0,-2.270277888E-1,-7.796174288E-1,5.023905039E-1
4.995013970E0,-2.163754553E-1,-7.753564715E-1,4.874772727E-1
4.997522616E0,-2.099840641E-1,-7.636389136E-1,4.693683088E-1
5.000031314E0,-2.099840641E-1,-7.583127618E-1,4.544550478E-1
5.002539960E0,-2.067883611E-1,-7.689650655E-1,4.416722357E-1
5.005048658E0,-2.025274336E-1,-7.721607685E-1,4.310199022E-1
5.007557303E0,-1.940055639E-1,-7.433995008E-1,4.139761925E-1
5.010065949E0,-1.886793971E-1,-7.188991308E-1,3.926715255E-1
5.012574647E0,-1.812227666E-1,-7.007901669E-1,3.713668585E-1
5.015083293E0,-1.801575422E-1,-6.816160083E-1,3.585840762E-1
5.017591939E0,-1.801575422E-1,-6.635070443E-1,3.575188220E-1
5.020117876E0,-1.801575422E-1,-6.624417901E-1,3.436708152E-1
5.022626522E0,-1.705704331E-1,-6.667027473E-1,3.266270757E-1
5.025135220E0,-1.631138027E-1,-6.592460871E-1,3.053224087E-1
5.027643866E0,-1.588528752E-1,-6.443328261E-1,2.904091477E-1
5.030152512E0,-1.567224115E-1,-6.326152682E-1,2.882786989E-1
5.032661158E0,-1.556571722E-1,-6.432675719E-1,2.712349594E-1
5.035169855E0,-1.513962448E-1,-6.603113413E-1,2.467346042E-1
5.037678501E0,-1.577876359E-1,-6.613765359E-1,2.243647128E-1
5.040187199E0,-1.695052087E-1,-6.571156383E-1,2.094514370E-1
5.042695845E0,-1.844184697E-1,-6.507242322E-1,1.956034154E-1
5.045204491E0,-2.067883611E-1,-6.432675719E-1,1.838858575E-1
5.047713189E0,-2.259625494E-1,-6.390066743E-1,1.753639877E-1
5.050205845E0,-2.462019771E-1,-6.230281591E-1,1.657768935E-1
5.052714491E0,-2.696371078E-1,-5.995930433E-1,1.593854874E-1
