"Time (s)","Gyroscope x (rad/s)","Gyroscope y (rad/s)","Gyroscope z (rad/s)"
6.158943400E-2,7.310161740E-2,1.744319052E-1,-1.567224115E-1
6.406797500E-2,7.842778414E-2,1.776276082E-1,-1.599181145E-1
6.654656900E-2,7.523208112E-2,1.808233112E-1,-1.535267085E-1
6.902511100E-2,7.097115368E-2,1.861494780E-1,-1.545919478E-1
7.150370400E-2,6.671021879E-2,1.904104054E-1,-1.513962448E-1
7.398224600E-2,6.351451576E-2,1.968017966E-1,-1.545919478E-1
7.646078800E-2,5.925358832E-2,2.031932026E-1,-1.545919478E-1
7.893938100E-2,5.605788901E-2,2.042584270E-1,-1.545919478E-1
8.141792300E-2,5.073172227E-2,2.053236663E-1,-1.556571722E-1
8.389646500E-2,5.179695413E-2,2.138455361E-1,-1.535267085E-1
8.637505900E-2,4.647079110E-2,2.138455361E-1,-1.545919478E-1
8.885360000E-2,4.540555924E-2,2.149107605E-1,-1.545919478E-1
9.125922500E-2,4.540555924E-2,2.138455361E-1,-1.513962448E-1
9.373781900E-2,4.220985994E-2,2.149107605E-1,-1.513962448E-1
9.621641300E-2,4.007939249E-2,2.138455361E-1,-1.492657810E-1
9.869490200E-2,4.007939249E-2,2.127802968E-1,-1.460700780E-1
1.011734960E-1,3.794892505E-2,2.053236663E-1,-1.471353173E-1
1.036520380E-1,3.901416063E-2,2.010627389E-1,-1.450048387E-1
1.061306310E-1,3.794892505E-2,1.946713328E-1,-1.439396143E-1
1.086091730E-1,3.155753016E-2,1.861494780E-1,-1.407439113E-1
1.110877670E-1,3.794892505E-2,1.840189993E-1,-1.396786869E-1
1.135663090E-1,3.475322574E-2,1.797580719E-1,-1.396786869E-1
1.160448500E-1,2.942706272E-2,1.723014414E-1,-1.354177445E-1
1.185234440E-1,2.516612969E-2,1.691057384E-1,-1.322220564E-1
1.209808920E-1,2.197043039E-2,1.637795717E-1,-1.332872808E-1
1.234594860E-1,1.451379992E-2,1.605838835E-1,-1.300915778E-1
1.259380270E-1,1.025286783E-2,1.563229412E-1,-1.258306503E-1
1.284165690E-1,5.991935730E-3,1.531272531E-1,-1.279611140E-1
1.308951110E-1,3.861469682E-3,1.531272531E-1,-1.268958896E-1
1.333736520E-1,-1.464695437E-3,1.541924775E-1,-1.226349548E-1
1.358522460E-1,-1.105179265E-2,1.552577168E-1,-1.215697154E-1
1.383307880E-1,-1.531272475E-2,1.552577168E-1,-1.237001866E-1
1.408093810E-1,-2.170412242E-2,1.552577168E-1,-1.258306503E-1
1.432879230E-1,-2.916075476E-2,1.563229412E-1,-1.258306503E-1
1.457664650E-1,-3.448691964E-2,1.552577168E-1,-1.205044836E-1
1.482450060E-1,-4.194355011E-2,1.584534049E-1,-1.205044836E-1
1.506611000E-1,-5.046541616E-2,1.595186442E-1,-1.258306503E-1
1.531396420E-1,-6.005251035E-2,1.616491079E-1,-1.215697154E-1
1.556181840E-1,-6.431344151E-2,1.648448110E-1,-1.215697154E-1
1.580967770E-1,-7.177007198E-2,1.680405140E-1,-1.205044836E-1
1.605753190E-1,-7.283531129E-2,1.669752747E-1,-1.205044836E-1
1.630538610E-1,-7.603100687E-2,1.712362021E-1,-1.226349548E-1
1.655324540E-1,-8.242240548E-2,1.723014414E-1,-1.226349548E-1
1.680109960E-1,-8.774857223E-2,1.723014414E-1,-1.247654185E-1
1.704895900E-1,-8.668334037E-2,1.733666807E-1,-1.247654185E-1
1.729681310E-1,-9.307473898E-2,1.744319052E-1,-1.237001866E-1
1.754466730E-1,-9.627043456E-2,1.712362021E-1,-1.226349548E-1
1.779252670E-1,-1.005313694E-1,1.637795717E-1,-1.290263534E-1
1.803938610E-1,-1.069227681E-1,1.616491079E-1,-1.290263534E-1
1.828724540E-1,-1.090532318E-1,1.573881805E-1,-1.290263534E-1
1.853509960E-1,-1.111836955E-1,1.531272531E-1,-1.311568171E-1
1.878295380E-1,-1.154446304E-1,1.509967744E-1,-1.322220564E-1
1.903081310E-1,-1.186403260E-1,1.435401440E-1,-1.290263534E-1
1.927866730E-1,-1.197055578E-1,1.350182891E-1,-1.279611140E-1
1.952652150E-1,-1.239664927E-1,1.339530498E-1,-1.311568171E-1
1.977438090E-1,-1.292926520E-1,1.350182891E-1,-1.375482082E-1
2.002223500E-1,-1.346188188E-1,1.328878254E-1,-1.439396143E-1
2.027008920E-1,-1.399449855E-1,1.318225861E-1,-1.450048387E-1
2.051794860E-1,-1.442059278E-1,1.392792165E-1,-1.471353173E-1
2.076580270E-1,-1.516625583E-1,1.403444558E-1,-1.471353173E-1
2.100940690E-1,-1.548582464E-1,1.424749196E-1,-1.492657810E-1
2.125726630E-1,-1.580539495E-1,1.467358470E-1,-1.503310055E-1
2.150512040E-1,-1.623148769E-1,1.446053833E-1,-1.524614692E-1
2.175297460E-1,-1.665758193E-1,1.446053833E-1,-1.513962448E-1
2.200083400E-1,-1.708367467E-1,1.478010863E-1,-1.503310055E-1
2.224868810E-1,-1.687062830E-1,1.467358470E-1,-1.492657810E-1
2.249654750E-1,-1.644453406E-1,1.478010863E-1,-1.503310055E-1
2.274440170E-1,-1.708367467E-1,1.478010863E-1,-1.513962448E-1
2.299225590E-1,-1.687062830E-1,1.509967744E-1,-1.524614692E-1
2.324011000E-1,-1.708367467E-1,1.552577168E-1,-1.535267085E-1
2.348796940E-1,-1.676410437E-1,1.563229412E-1,-1.535267085E-1
2.373582360E-1,-1.665758193E-1,1.552577168E-1,-1.545919478E-1
2.397954750E-1,-1.655105799E-1,1.595186442E-1,-1.577876359E-1
2.422740690E-1,-1.676410437E-1,1.584534049E-1,-1.556571722E-1
2.447526110E-1,-1.633801162E-1,1.595186442E-1,-1.567224115E-1
2.472311520E-1,-1.633801162E-1,1.627143472E-1,-1.599181145E-1
2.497097460E-1,-1.591191888E-1,1.616491079E-1,-1.567224115E-1
2.521882880E-1,-1.548582464E-1,1.627143472E-1,-1.599181145E-1
2.546668290E-1,-1.463363916E-1,1.637795717E-1,-1.577876359E-1
2.571454230E-1,-1.420754492E-1,1.605838835E-1,-1.556571722E-1
2.596240170E-1,-1.420754492E-1,1.605838835E-1,-1.588528752E-1
2.621025590E-1,-1.324883550E-1,1.595186442E-1,-1.567224115E-1
2.645811000E-1,-1.292926520E-1,1.595186442E-1,-1.556571722E-1
2.670596420E-1,-1.292926520E-1,1.563229412E-1,-1.567224115E-1
2.694977150E-1,-1.250317246E-1,1.573881805E-1,-1.577876359E-1
2.719763090E-1,-1.218360290E-1,1.616491079E-1,-1.567224115E-1
2.744548500E-1,-1.197055578E-1,1.648448110E-1,-1.588528752E-1
2.769333920E-1,-1.175750941E-1,1.627143472E-1,-1.609833390E-1
2.794119860E-1,-1.175750941E-1,1.648448110E-1,-1.599181145E-1
2.818905270E-1,-1.186403260E-1,1.659100503E-1,-1.567224115E-1
2.843690690E-1,-1.165098622E-1,1.659100503E-1,-1.577876359E-1
2.868476630E-1,-1.175750941E-1,1.616491079E-1,-1.588528752E-1
2.893262040E-1,-1.186403260E-1,1.616491079E-1,-1.577876359E-1
2.918047460E-1,-1.175750941E-1,1.605838835E-1,-1.556571722E-1
2.942833400E-1,-1.197055578E-1,1.509967744E-1,-1.556571722E-1
2.967618810E-1,-1.250317246E-1,1.435401440E-1,-1.524614692E-1
2.991994860E-1,-1.250317246E-1,1.424749196E-1,-1.503310055E-1
3.016780790E-1,-1.250317246E-1,1.414096802E-1,-1.471353173E-1
3.041566210E-1,-1.186403260E-1,1.531272531E-1,-1.535267085E-1
3.066351630E-1,-1.122489274E-1,1.669752747E-1,-1.567224115E-1
3.091137560E-1,-1.122489274E-1,1.808233112E-1,-1.556571722E-1
3.115922980E-1,-1.037270650E-1,1.957365721E-1,-1.567224115E-1
3.140708920E-1,-9.946613014E-2,2.095845938E-1,-1.620485783E-1
3.165494340E-1,-9.307473898E-2,2.191716880E-1,-1.641790420E-1
3.190279750E-1,-9.094426781E-2,2.308892608E-1,-1.673747450E-1
3.215065690E-1,-9.200949967E-2,2.351501882E-1,-1.684399694E-1
3.239851110E-1,-9.094426781E-2,2.394111156E-1,-1.695052087E-1
3.264636520E-1,-8.455286920E-2,2.394111156E-1,-1.663095057E-1
3.289030790E-1,-8.561810106E-2,2.404763550E-1,-1.663095057E-1
3.313816210E-1,-8.455286920E-2,2.415415943E-1,-1.652442664E-1
3.338601630E-1,-8.242240548E-2,2.394111156E-1,-1.620485783E-1
3.363387560E-1,-8.135717362E-2,2.372806519E-1,-1.641790420E-1
3.388172980E-1,-8.029194176E-2,2.372806519E-1,-1.684399694E-1
3.412958400E-1,-7.816147059E-2,2.330197245E-1,-1.673747450E-1
3.437744340E-1,-8.029194176E-2,2.308892608E-1,-1.695052087E-1
3.462529750E-1,-7.816147059E-2,2.287587970E-1,-1.748313755E-1
3.487315690E-1,-7.922670245E-2,2.244978547E-1,-1.758965999E-1
3.512101110E-1,-7.816147059E-2,2.213021666E-1,-1.780270636E-1
3.536886520E-1,-8.029194176E-2,2.191716880E-1,-1.780270636E-1
3.561672460E-1,-7.922670245E-2,2.149107605E-1,-1.801575422E-1
3.586028710E-1,-8.135717362E-2,2.159759998E-1,-1.801575422E-1
3.610814650E-1,-8.135717362E-2,2.170412242E-1,-1.801575422E-1
3.635600060E-1,-7.922670245E-2,2.170412242E-1,-1.812227666E-1
3.660385480E-1,-7.816147059E-2,2.191716880E-1,-1.801575422E-1
3.685171420E-1,-7.603100687E-2,2.244978547E-1,-1.790923029E-1
3.709957360E-1,-7.922670245E-2,2.266283184E-1,-1.822880059E-1
3.734742250E-1,-7.922670245E-2,2.319544852E-1,-1.801575422E-1
3.759528190E-1,-7.603100687E-2,2.383458912E-1,-1.780270636E-1
3.784314130E-1,-7.603100687E-2,2.426068187E-1,-1.801575422E-1
3.809099020E-1,-7.603100687E-2,2.458025217E-1,-1.790923029E-1
3.833884960E-1,-7.709623873E-2,2.489982247E-1,-1.758965999E-1
3.858670380E-1,-8.029194176E-2,2.543243766E-1,-1.758965999E-1
3.883046420E-1,-8.348763734E-2,2.575200796E-1,-1.758965999E-1
3.907832360E-1,-8.135717362E-2,2.585853040E-1,-1.737661362E-1
3.932617770E-1,-8.348763734E-2,2.617810071E-1,-1.705704331E-1
3.957403190E-1,-8.561810106E-2,2.639114857E-1,-1.727008969E-1
3.982189130E-1,-8.561810106E-2,2.628462613E-1,-1.716356725E-1
4.006974540E-1,-8.774857223E-2,2.681724131E-1,-1.716356725E-1
4.031759960E-1,-8.987903595E-2,2.724333405E-1,-1.705704331E-1
4.056545900E-1,-8.881380409E-2,2.788247466E-1,-1.705704331E-1
4.081331840E-1,-9.520520270E-2,2.766942680E-1,-1.727008969E-1
4.106117250E-1,-1.047922969E-1,2.766942680E-1,-1.716356725E-1
4.130902670E-1,-1.111836955E-1,2.766942680E-1,-1.673747450E-1
4.155688090E-1,-1.186403260E-1,2.734985650E-1,-1.673747450E-1
4.180063610E-1,-1.260969639E-1,2.703028917E-1,-1.652442664E-1
4.204849540E-1,-1.303578913E-1,2.660419345E-1,-1.663095057E-1
4.229635480E-1,-1.335535944E-1,2.649767101E-1,-1.609833390E-1
4.254420380E-1,-1.346188188E-1,2.639114857E-1,-1.599181145E-1
4.279206310E-1,-1.388797611E-1,2.649767101E-1,-1.609833390E-1
4.303992250E-1,-1.442059278E-1,2.671071887E-1,-1.641790420E-1
4.328777670E-1,-1.495320797E-1,2.724333405E-1,-1.620485783E-1
4.353563090E-1,-1.474016160E-1,2.745638192E-1,-1.609833390E-1
4.378348500E-1,-1.559234858E-1,2.724333405E-1,-1.620485783E-1
4.403133920E-1,-1.569887102E-1,2.777595222E-1,-1.620485783E-1
4.427919860E-1,-1.537930220E-1,2.766942680E-1,-1.631138027E-1
4.452705270E-1,-1.537930220E-1,2.798899710E-1,-1.641790420E-1
4.476917250E-1,-1.569887102E-1,2.873466015E-1,-1.673747450E-1
4.501703190E-1,-1.548582464E-1,2.894770801E-1,-1.684399694E-1
4.526488610E-1,-1.559234858E-1,2.958684862E-1,-1.695052087E-1
4.551274020E-1,-1.559234858E-1,3.033251166E-1,-1.727008969E-1
4.576059960E-1,-1.505973190E-1,3.097164929E-1,-1.758965999E-1
4.600845380E-1,-1.527277827E-1,3.161078990E-1,-1.748313755E-1
4.625630790E-1,-1.548582464E-1,3.256950080E-1,-1.748313755E-1
4.650416730E-1,-1.569887102E-1,3.331516385E-1,-1.758965999E-1
4.675202150E-1,-1.559234858E-1,3.352820873E-1,-1.758965999E-1
4.699987560E-1,-1.537930220E-1,3.331516385E-1,-1.748313755E-1
4.724773500E-1,-1.559234858E-1,3.363473415E-1,-1.758965999E-1
4.749558920E-1,-1.537930220E-1,3.374125659E-1,-1.748313755E-1
4.774103190E-1,-1.537930220E-1,3.352820873E-1,-1.758965999E-1
4.798889130E-1,-1.548582464E-1,3.342168629E-1,-1.790923029E-1
4.823674540E-1,-1.633801162E-1,3.352820873E-1,-1.727008969E-1
4.848460480E-1,-1.623148769E-1,3.374125659E-1,-1.758965999E-1
4.873245900E-1,-1.623148769E-1,3.406082690E-1,-1.769618392E-1
4.898031840E-1,-1.697715074E-1,3.438039720E-1,-1.758965999E-1
4.922816730E-1,-1.740324497E-1,3.459344208E-1,-1.780270636E-1
4.947602670E-1,-1.761629134E-1,3.469996452E-1,-1.758965999E-1
4.972388090E-1,-1.793586165E-1,3.544562757E-1,-1.737661362E-1
4.997173500E-1,-1.782933772E-1,3.533910513E-1,-1.758965999E-1
5.021959440E-1,-1.782933772E-1,3.544562757E-1,-1.737661362E-1
5.046744860E-1,-1.804238409E-1,3.587172329E-1,-1.748313755E-1
5.071107360E-1,-1.804238409E-1,3.587172329E-1,-1.758965999E-1
5.095893290E-1,-1.793586165E-1,3.640433848E-1,-1.748313755E-1
5.120678710E-1,-1.793586165E-1,3.651086092E-1,-1.737661362E-1
5.145464130E-1,-1.793586165E-1,3.683043122E-1,-1.716356725E-1
5.170250060E-1,-1.782933772E-1,3.661738634E-1,-1.695052087E-1
5.195035480E-1,-1.761629134E-1,3.672390878E-1,-1.673747450E-1
5.219821420E-1,-1.729672104E-1,3.672390878E-1,-1.673747450E-1
5.244606840E-1,-1.740324497E-1,3.651086092E-1,-1.663095057E-1
5.269392250E-1,-1.708367467E-1,3.651086092E-1,-1.684399694E-1
5.294177670E-1,-1.687062830E-1,3.587172329E-1,-1.673747450E-1
5.318963610E-1,-1.708367467E-1,3.565867543E-1,-1.631138027E-1
5.343749020E-1,-1.708367467E-1,3.523258269E-1,-1.631138027E-1
5.368142250E-1,-1.687062830E-1,3.448691964E-1,-1.609833390E-1
5.392928190E-1,-1.665758193E-1,3.416734934E-1,-1.609833390E-1
5.417713610E-1,-1.708367467E-1,3.374125659E-1,-1.631138027E-1
5.442499020E-1,-1.719019860E-1,3.278254569E-1,-1.609833390E-1
5.467284960E-1,-1.719019860E-1,3.214340508E-1,-1.599181145E-1
5.492070380E-1,-1.708367467E-1,3.150426745E-1,-1.609833390E-1
5.516855790E-1,-1.793586165E-1,3.107817471E-1,-1.620485783E-1
5.541641730E-1,-1.814890802E-1,3.054555655E-1,-1.609833390E-1
5.566427150E-1,-1.868152469E-1,2.969337106E-1,-1.620485783E-1
5.591212560E-1,-1.868152469E-1,2.884118557E-1,-1.609833390E-1
5.615998500E-1,-1.889457107E-1,2.916075289E-1,-1.599181145E-1
5.640783920E-1,-1.942718774E-1,2.852161527E-1,-1.599181145E-1
5.665159960E-1,-1.942718774E-1,2.788247466E-1,-1.599181145E-1
5.689945900E-1,-1.974675655E-1,2.820204496E-1,-1.599181145E-1
5.714731310E-1,-2.017285079E-1,2.809551954E-1,-1.577876359E-1
5.739516730E-1,-1.995980442E-1,2.724333405E-1,-1.545919478E-1
5.764302670E-1,-2.038589716E-1,2.713681161E-1,-1.503310055E-1
5.789088610E-1,-2.038589716E-1,2.756290436E-1,-1.471353173E-1
5.813873500E-1,-2.038589716E-1,2.756290436E-1,-1.418091506E-1
5.838659440E-1,-2.070546746E-1,2.766942680E-1,-1.428743750E-1
5.863444860E-1,-2.113156021E-1,2.798899710E-1,-1.386134475E-1
5.888230270E-1,-2.102503628E-1,2.788247466E-1,-1.332872808E-1
5.913016210E-1,-2.059894353E-1,2.788247466E-1,-1.354177445E-1
5.937801630E-1,-2.059894353E-1,2.798899710E-1,-1.364829838E-1
5.961918810E-1,-2.102503628E-1,2.788247466E-1,-1.354177445E-1
5.986704750E-1,-2.102503628E-1,2.788247466E-1,-1.300915778E-1
6.011490170E-1,-2.102503628E-1,2.766942680E-1,-1.300915778E-1
6.036275590E-1,-2.091851383E-1,2.756290436E-1,-1.290263534E-1
6.061061000E-1,-2.081198990E-1,2.756290436E-1,-1.279611140E-1
6.085846940E-1,-2.091851383E-1,2.777595222E-1,-1.247654185E-1
6.110632360E-1,-2.134460658E-1,2.777595222E-1,-1.237001866E-1
6.135417770E-1,-2.123808414E-1,2.734985650E-1,-1.205044836E-1
6.160203710E-1,-2.113156021E-1,2.703028917E-1,-1.173087880E-1
6.184989130E-1,-2.145113051E-1,2.681724131E-1,-1.141130850E-1
6.209774540E-1,-2.166417688E-1,2.703028917E-1,-1.087869257E-1
6.234560480E-1,-2.155765295E-1,2.671071887E-1,-1.098521575E-1
6.259173500E-1,-2.123808414E-1,2.724333405E-1,-1.077216864E-1
6.283959440E-1,-2.091851383E-1,2.713681161E-1,-1.023955271E-1
6.308744860E-1,-2.070546746E-1,2.756290436E-1,-9.813459218E-2
6.333530270E-1,-2.070546746E-1,2.820204496E-1,-9.813459218E-2
6.358316210E-1,-2.049241960E-1,2.852161527E-1,-1.013302878E-1
6.383101630E-1,-1.953371018E-1,2.862813771E-1,-1.002650559E-1
6.407887040E-1,-1.932066381E-1,2.894770801E-1,-1.002650559E-1
6.432672980E-1,-1.868152469E-1,2.926727831E-1,-9.919982404E-2
6.457458920E-1,-1.889457107E-1,2.969337106E-1,-9.706936032E-2
6.482243810E-1,-1.782933772E-1,2.926727831E-1,-9.706936032E-2
6.507029750E-1,-1.697715074E-1,2.894770801E-1,-1.002650559E-1
6.531815170E-1,-1.665758193E-1,2.852161527E-1,-1.013302878E-1
6.555970900E-1,-1.623148769E-1,2.820204496E-1,-1.066564545E-1
6.580756310E-1,-1.580539495E-1,2.734985650E-1,-1.109173894E-1
6.605541730E-1,-1.527277827E-1,2.724333405E-1,-1.162435561E-1
6.630327150E-1,-1.463363916E-1,2.713681161E-1,-1.173087880E-1
6.655113090E-1,-1.378145218E-1,2.660419345E-1,-1.194392517E-1
6.679898500E-1,-1.335535944E-1,2.660419345E-1,-1.205044836E-1
6.704683920E-1,-1.260969639E-1,2.639114857E-1,-1.258306503E-1
6.729469860E-1,-1.229012609E-1,2.628462613E-1,-1.290263534E-1
6.754255270E-1,-1.154446304E-1,2.628462613E-1,-1.311568171E-1
6.779040690E-1,-1.069227681E-1,2.607157826E-1,-1.332872808E-1
6.803826630E-1,-1.037270650E-1,2.649767101E-1,-1.375482082E-1
6.828612040E-1,-9.840089828E-2,2.660419345E-1,-1.354177445E-1
6.853241730E-1,-9.094426781E-2,2.713681161E-1,-1.364829838E-1
6.878027670E-1,-8.348763734E-2,2.798899710E-1,-1.407439113E-1
6.902813090E-1,-7.496577501E-2,2.830856740E-1,-1.418091506E-1
6.927598500E-1,-6.431344151E-2,2.905423045E-1,-1.450048387E-1
6.952384440E-1,-5.685681105E-2,2.969337106E-1,-1.460700780E-1
6.977169860E-1,-4.620448127E-2,3.033251166E-1,-1.482005417E-1
7.001955270E-1,-3.981308267E-2,3.107817471E-1,-1.524614692E-1
7.026741210E-1,-3.129122034E-2,3.235645294E-1,-1.513962448E-1
7.051526630E-1,-1.531272475E-2,3.320863843E-1,-1.535267085E-1
7.076312040E-1,-4.660394508E-3,3.384777904E-1,-1.556571722E-1
7.101098500E-1,-7.856093347E-3,3.406082690E-1,-1.588528752E-1
7.125883920E-1,-1.464695437E-3,3.406082690E-1,-1.620485783E-1
7.150232360E-1,2.796236658E-3,3.374125659E-1,-1.631138027E-1
7.175018290E-1,1.344856713E-2,3.320863843E-1,-1.652442664E-1
7.199803710E-1,1.877473295E-2,3.267602324E-1,-1.673747450E-1
7.224589130E-1,2.410089783E-2,3.214340508E-1,-1.695052087E-1
7.249375060E-1,3.155753016E-2,3.161078990E-1,-1.695052087E-1
7.274160480E-1,3.475322574E-2,3.150426745E-1,-1.652442664E-1
7.298945900E-1,3.794892505E-2,3.139774203E-1,-1.641790420E-1
7.323731840E-1,4.434032366E-2,3.065207899E-1,-1.652442664E-1
7.348517250E-1,4.753602296E-2,3.043903410E-1,-1.620485783E-1
7.373302670E-1,5.605788901E-2,3.075860441E-1,-1.567224115E-1
7.398088610E-1,5.605788901E-2,3.075860441E-1,-1.577876359E-1
7.422874020E-1,5.392742157E-2,3.097164929E-1,-1.577876359E-1
7.447289650E-1,5.818835273E-2,3.171731234E-1,-1.567224115E-1
7.472075590E-1,6.031882018E-2,3.214340508E-1,-1.482005417E-1
7.496861000E-1,5.712312087E-2,3.256950080E-1,-1.450048387E-1
7.521646420E-1,5.499265343E-2,3.310211599E-1,-1.418091506E-1
7.546432360E-1,5.499265343E-2,3.342168629E-1,-1.364829838E-1
7.571217770E-1,5.179695413E-2,3.374125659E-1,-1.332872808E-1
7.596003190E-1,4.966649041E-2,3.374125659E-1,-1.300915778E-1
7.620789130E-1,4.647079110E-2,3.384777904E-1,-1.268958896E-1
7.645574540E-1,4.114462435E-2,3.395430148E-1,-1.237001866E-1
7.670360480E-1,3.794892505E-2,3.384777904E-1,-1.226349548E-1
7.695145900E-1,3.368799388E-2,3.374125659E-1,-1.173087880E-1
7.719931840E-1,3.262276202E-2,3.384777904E-1,-1.130478531E-1
7.744317250E-1,3.475322574E-2,3.384777904E-1,-1.098521575E-1
7.769103190E-1,3.155753016E-2,3.384777904E-1,-1.087869257E-1
7.793888610E-1,2.729659714E-2,3.363473415E-1,-1.066564545E-1
7.818674020E-1,2.623136342E-2,3.352820873E-1,-9.813459218E-2
7.843459960E-1,2.623136342E-2,3.374125659E-1,-9.493889660E-2
7.868245380E-1,2.197043039E-2,3.374125659E-1,-9.067796171E-2
7.893030790E-1,1.983996481E-2,3.395430148E-1,-8.641702682E-2
7.917816730E-1,1.025286783E-2,3.438039720E-1,-8.322133124E-2
7.942602150E-1,1.025286783E-2,3.491301239E-1,-8.109086752E-2
7.967387560E-1,1.025286783E-2,3.469996452E-1,-8.215609938E-2
7.992173500E-1,5.991935730E-3,3.469996452E-1,-8.002562821E-2
8.016958920E-1,6.657706108E-4,3.438039720E-1,-7.682993263E-2
8.041295380E-1,-5.725627299E-3,3.438039720E-1,-7.469946891E-2
8.066081310E-1,-1.211702544E-2,3.374125659E-1,-7.256899774E-2
8.090866730E-1,-1.957365684E-2,3.374125659E-1,-6.830807030E-2
8.115652150E-1,-1.957365684E-2,3.310211599E-1,-6.830807030E-2
8.140438090E-1,-2.170412242E-2,3.235645294E-1,-7.043853402E-2
8.165223500E-1,-2.916075476E-2,3.193036020E-1,-6.937330216E-2
8.190008920E-1,-2.809552103E-2,3.139774203E-1,-7.256899774E-2
8.214794860E-1,-3.022598661E-2,3.097164929E-1,-7.150376588E-2
8.239580270E-1,-2.916075476E-2,3.065207899E-1,-7.469946891E-2
8.264366210E-1,-3.129122034E-2,3.011946380E-1,-7.256899774E-2
8.289151630E-1,-2.383458801E-2,2.969337106E-1,-7.576470077E-2
8.313937040E-1,-2.383458801E-2,2.916075289E-1,-7.789516449E-2
8.338325590E-1,-2.170412242E-2,2.852161527E-1,-7.789516449E-2
8.363111520E-1,-1.957365684E-2,2.798899710E-1,-8.002562821E-2
8.387896940E-1,-1.850842312E-2,2.713681161E-1,-8.748225868E-2
8.412682360E-1,-1.424749196E-2,2.649767101E-1,-8.748225868E-2
8.437468290E-1,-1.318225823E-2,2.585853040E-1,-8.641702682E-2
8.462253710E-1,-6.790860556E-3,2.479329854E-1,-9.174319357E-2
8.487039130E-1,-7.856093347E-3,2.372806519E-1,-9.387365729E-2
8.511825060E-1,-2.529928461E-3,2.298240215E-1,-1.002650559E-1
8.536610480E-1,7.057168987E-3,2.202369273E-1,-1.013302878E-1
8.561395900E-1,1.025286783E-2,2.117150575E-1,-1.034607589E-1
8.586181840E-1,1.451379992E-2,2.031932026E-1,-1.013302878E-1
8.610967250E-1,2.410089783E-2,1.936061084E-1,-1.034607589E-1
8.635328190E-1,2.836182900E-2,1.829537749E-1,-1.066564545E-1
8.660114130E-1,3.262276202E-2,1.754971445E-1,-1.077216864E-1
8.684899540E-1,4.434032366E-2,1.669752747E-1,-1.087869257E-1
8.709684960E-1,4.966649041E-2,1.584534049E-1,-1.066564545E-1
8.734470900E-1,5.286218971E-2,1.509967744E-1,-1.066564545E-1
8.759256310E-1,5.818835273E-2,1.446053833E-1,-1.077216864E-1
8.784042250E-1,6.457975507E-2,1.328878254E-1,-1.077216864E-1
8.808827670E-1,6.564498693E-2,1.254311949E-1,-1.045259908E-1
8.833613610E-1,7.310161740E-2,1.126483902E-1,-1.077216864E-1
8.858399020E-1,7.629731297E-2,9.986559302E-2,-1.077216864E-1
8.883184440E-1,8.375394344E-2,9.134373069E-2,-1.055912226E-1
8.907969860E-1,8.908011019E-2,7.430000603E-2,-1.077216864E-1
8.932388610E-1,9.227581322E-2,6.364767253E-2,-1.098521575E-1
8.957174540E-1,9.653674066E-2,5.406057462E-2,-1.098521575E-1
8.981959960E-1,1.018629074E-1,3.808208182E-2,-1.109173894E-1
9.006745380E-1,1.071890742E-1,2.636451647E-2,-1.077216864E-1
9.031531310E-1,1.050586104E-1,1.358172111E-2,-1.045259908E-1
9.056316730E-1,1.050586104E-1,7.989247679E-4,-1.045259908E-1
9.081102150E-1,9.973244369E-2,-7.722939365E-3,-1.034607589E-1
9.105888090E-1,9.866721183E-2,-1.411433797E-2,-9.813459218E-2
9.130673500E-1,9.440627694E-2,-2.370143496E-2,-1.002650559E-1
9.155458920E-1,8.908011019E-2,-3.222329915E-2,-9.600412846E-2
9.180244860E-1,8.908011019E-2,-3.541899845E-2,-9.174319357E-2
9.205030270E-1,8.481918275E-2,-3.967992961E-2,-8.854749799E-2
9.229371940E-1,7.949301600E-2,-3.967992961E-2,-8.535179496E-2
9.254157880E-1,8.055824786E-2,-3.754946589E-2,-8.322133124E-2
9.278943290E-1,7.629731297E-2,-3.861469775E-2,-8.002562821E-2
9.303728710E-1,7.203638554E-2,-3.541899845E-2,-7.469946891E-2
9.328514650E-1,7.097115368E-2,-3.009283356E-2,-7.256899774E-2
9.353300060E-1,7.310161740E-2,-2.796236612E-2,-7.150376588E-2
9.378086000E-1,7.416684926E-2,-2.370143496E-2,-6.830807030E-2
9.402871420E-1,7.310161740E-2,-1.837527007E-2,-6.404713541E-2
9.427656840E-1,6.990591437E-2,-1.731003635E-2,-6.085143611E-2
9.452442250E-1,6.138405204E-2,-1.624480449E-2,-5.659050494E-2
9.477228190E-1,5.925358832E-2,-1.198387146E-2,-5.339480564E-2
9.502013610E-1,5.499265343E-2,-1.304910425E-2,-4.913387448E-2
9.526378710E-1,5.073172227E-2,-1.731003635E-2,-4.380770773E-2
9.551164650E-1,4.647079110E-2,-1.944050193E-2,-3.848154470E-2
9.575950060E-1,3.794892505E-2,-2.263620123E-2,-3.848154470E-2
9.600735480E-1,3.581846133E-2,-2.476666868E-2,-3.741630912E-2
9.625521420E-1,3.262276202E-2,-2.689713426E-2,-3.315537795E-2
9.650306840E-1,3.049229458E-2,-3.222329915E-2,-2.889444493E-2
9.675092250E-1,2.729659714E-2,-3.328853101E-2,-2.569874749E-2
9.699878190E-1,2.516612969E-2,-3.009283356E-2,-2.463351376E-2
9.724664130E-1,2.836182900E-2,-2.476666868E-2,-2.143781446E-2
9.749449020E-1,2.729659714E-2,-2.050573565E-2,-1.611164957E-2
9.774234960E-1,2.197043039E-2,-1.731003635E-2,-1.398118306E-2
9.799020380E-1,1.983996481E-2,-8.788172156E-3,-9.720250964E-3
9.823383400E-1,1.983996481E-2,-2.396774245E-3,-5.459319334E-3
9.848169340E-1,1.983996481E-2,8.255556226E-3,-4.394086078E-3
9.872954750E-1,1.983996481E-2,1.784265228E-2,-4.394086078E-3
9.897740170E-1,1.664426550E-2,2.956021577E-2,-1.331541280E-4
9.922526110E-1,1.557903271E-2,3.595161438E-2,3.062544856E-3
9.947311520E-1,1.983996481E-2,4.234301299E-2,3.062544856E-3
9.972097460E-1,2.197043039E-2,4.766917601E-2,4.127778113E-3
9.996882880E-1,1.664426550E-2,5.193011090E-2,5.193010904E-3
1.002166829E0,1.770949923E-2,5.619104207E-2,6.258244161E-3
1.004645371E0,2.836182900E-2,6.045197323E-2,8.388710208E-3
1.007123965E0,3.155753016E-2,6.790860742E-2,7.323476952E-3
1.009602506E0,3.475322574E-2,6.897383928E-2,6.258244161E-3
1.012045215E0,3.901416063E-2,6.897383928E-2,4.127778113E-3
1.014523809E0,4.540555924E-2,7.323476672E-2,5.193010904E-3
1.017002350E0,5.073172227E-2,7.323476672E-2,5.193010904E-3
1.019480892E0,5.499265343E-2,7.430000603E-2,4.127778113E-3
1.021959486E0,6.351451576E-2,7.643046975E-2,9.320789250E-4
1.024438027E0,6.564498693E-2,8.175663650E-2,9.320789250E-4
1.026916569E0,6.990591437E-2,7.749570161E-2,-1.331541280E-4
1.029395163E0,7.310161740E-2,7.643046975E-2,-4.394086078E-3
1.031873704E0,7.203638554E-2,7.962616533E-2,-9.720250964E-3
1.034352298E0,7.629731297E-2,7.749570161E-2,-1.078548469E-2
1.036830840E0,8.055824786E-2,7.003907114E-2,-1.398118306E-2
1.039309381E0,8.162347972E-2,6.790860742E-2,-1.824211515E-2
1.041742246E0,8.481918275E-2,6.790860742E-2,-2.037258074E-2
1.044218079E0,8.588441461E-2,6.258244067E-2,-2.250304818E-2
1.046693913E0,8.588441461E-2,5.725627393E-2,-2.889444493E-2
1.049169746E0,9.014534205E-2,5.299534276E-2,-3.102491237E-2
1.051645579E0,9.973244369E-2,4.873441160E-2,-3.422060981E-2
1.054121413E0,1.007976755E-1,4.553871229E-2,-3.741630912E-2
1.056597246E0,1.039933711E-1,4.234301299E-2,-3.848154470E-2
1.059073027E0,1.029281393E-1,3.701684624E-2,-4.380770773E-2
1.061548861E0,1.103847697E-1,3.382114694E-2,-4.913387448E-2
1.064024694E0,1.093195379E-1,3.275591508E-2,-4.913387448E-2
1.066500527E0,1.114500016E-1,2.742975019E-2,-4.913387448E-2
1.068976361E0,1.103847697E-1,2.316881903E-2,-5.126433820E-2
1.071445267E0,1.125152409E-1,1.784265228E-2,-5.446003750E-2
1.073921100E0,1.146457046E-1,1.251648832E-2,-5.659050494E-2
1.076396934E0,1.135804728E-1,3.994623665E-3,-5.339480564E-2
1.078872767E0,1.125152409E-1,-1.331541222E-3,-5.232957378E-2
1.081348600E0,1.135804728E-1,-5.592473317E-3,-5.446003750E-2
1.083824434E0,1.093195379E-1,-9.853405878E-3,-5.446003750E-2
1.086300267E0,1.082543060E-1,-1.411433797E-2,-5.232957378E-2
1.088776048E0,1.093195379E-1,-1.304910425E-2,-4.913387448E-2
1.091251881E0,1.071890742E-1,-1.411433797E-2,-4.913387448E-2
1.093727715E0,1.018629074E-1,-1.944050193E-2,-4.700340703E-2
1.096203548E0,1.007976755E-1,-1.837527007E-2,-4.487293959E-2
1.098679381E0,9.866721183E-2,-2.050573565E-2,-4.380770773E-2
1.101150371E0,9.121058136E-2,-2.157096937E-2,-3.741630912E-2
1.103626204E0,8.694964647E-2,-2.476666868E-2,-3.635107726E-2
1.106102038E0,8.162347972E-2,-2.796236612E-2,-3.635107726E-2
1.108577871E0,7.949301600E-2,-3.328853101E-2,-3.209014609E-2
1.111053704E0,7.310161740E-2,-3.861469775E-2,-2.995967865E-2
1.113529538E0,6.884068251E-2,-4.500609636E-2,-2.782921307E-2
1.116005371E0,6.564498693E-2,-4.926702753E-2,-2.569874749E-2
1.118481152E0,6.457975507E-2,-4.926702753E-2,-1.824211515E-2
1.120956986E0,6.138405204E-2,-4.820179567E-2,-1.398118306E-2
1.123432819E0,5.818835273E-2,-4.500609636E-2,-7.589785382E-3
1.125908652E0,6.031882018E-2,-4.181039706E-2,-5.459319334E-3
1.128384434E0,5.712312087E-2,-3.541899845E-2,-1.331541280E-4
1.130843079E0,5.605788901E-2,-2.689713426E-2,5.193010904E-3
1.133318913E0,5.286218971E-2,-2.157096937E-2,4.127778113E-3
1.135794746E0,5.179695413E-2,-1.411433797E-2,9.320789250E-4
1.138270579E0,5.073172227E-2,-1.624480449E-2,-1.331541280E-4
1.140746413E0,5.073172227E-2,-9.853405878E-3,9.320789250E-4
1.143222246E0,4.966649041E-2,-2.396774245E-3,-1.198387123E-3
1.145698079E0,4.860125855E-2,7.190322969E-3,-1.198387123E-3
1.148173913E0,5.179695413E-2,1.251648832E-2,-3.328853287E-3
1.150649694E0,5.392742157E-2,2.210358530E-2,-3.328853287E-3
1.153125527E0,5.392742157E-2,3.275591508E-2,-4.394086078E-3
1.155601361E0,5.712312087E-2,3.595161438E-2,-5.459319334E-3
1.158077194E0,5.286218971E-2,3.382114694E-2,-8.655018173E-3
1.160549434E0,5.286218971E-2,2.849498391E-2,-9.720250964E-3
1.163025267E0,4.860125855E-2,2.423405088E-2,-1.185071748E-2
1.165501048E0,4.327509180E-2,1.464695390E-2,-1.504641678E-2
1.167976881E0,3.688369319E-2,9.320789017E-3,-2.037258074E-2
1.170452715E0,3.581846133E-2,8.255556226E-3,-2.356828004E-2
1.172928548E0,3.262276202E-2,5.059856921E-3,-2.995967865E-2
1.175404329E0,2.942706272E-2,1.864157850E-3,-3.209014609E-2
1.177880163E0,2.623136342E-2,2.929390874E-3,-3.209014609E-2
1.180355996E0,2.410089783E-2,-1.331541222E-3,-4.061200842E-2
1.182831829E0,2.410089783E-2,-2.396774245E-3,-4.806863889E-2
1.185307663E0,2.090519853E-2,-3.462007269E-3,-5.232957378E-2
1.187783444E0,1.664426550E-2,-1.091863867E-2,-5.446003750E-2
1.190256569E0,1.344856713E-2,-1.517957076E-2,-6.085143611E-2
1.192732402E0,1.025286783E-2,-2.263620123E-2,-6.724283099E-2
1.195208236E0,5.991935730E-3,-2.796236612E-2,-7.043853402E-2
1.197684069E0,6.657706108E-4,-3.648423031E-2,-7.256899774E-2
1.200159902E0,-4.660394508E-3,-4.713656008E-2,-7.682993263E-2
1.202635684E0,-1.424749196E-2,-5.139749497E-2,-7.789516449E-2
1.205111517E0,-2.063889056E-2,-5.352795869E-2,-7.469946891E-2
1.207587350E0,-2.596505545E-2,-5.459319428E-2,-7.469946891E-2
1.210063184E0,-2.596505545E-2,-5.778888986E-2,-7.576470077E-2
1.212539017E0,-2.916075476E-2,-5.885412544E-2,-7.363422960E-2
1.215014850E0,-3.022598661E-2,-5.672365800E-2,-6.937330216E-2
1.217490684E0,-3.448691964E-2,-6.098458916E-2,-6.830807030E-2
1.219932923E0,-3.342168778E-2,-6.524552405E-2,-6.724283099E-2
1.222408809E0,-4.087831825E-2,-6.418029219E-2,-6.404713541E-2
1.224884590E0,-4.087831825E-2,-6.950645149E-2,-5.978620425E-2
1.227360423E0,-4.194355011E-2,-7.483261824E-2,-5.978620425E-2
1.229836256E0,-4.407401755E-2,-7.589785010E-2,-5.659050494E-2
1.232312090E0,-4.300878197E-2,-8.122401685E-2,-5.446003750E-2
1.234787871E0,-4.833494872E-2,-8.441971987E-2,-5.232957378E-2
1.237263704E0,-4.300878197E-2,-8.868064731E-2,-5.126433820E-2
1.239739538E0,-4.087831825E-2,-9.081111848E-2,-5.126433820E-2
1.242215371E0,-4.194355011E-2,-9.294158220E-2,-4.593817517E-2
1.244691204E0,-3.342168778E-2,-9.613727778E-2,-4.593817517E-2
1.247167038E0,-2.703028731E-2,-1.003982127E-1,-4.487293959E-2
1.249661881E0,-2.703028731E-2,-1.014634445E-1,-4.380770773E-2
1.252137715E0,-2.596505545E-2,-9.933298081E-2,-4.380770773E-2
1.254613548E0,-2.170412242E-2,-1.035939083E-1,-4.487293959E-2
1.257089381E0,-2.170412242E-2,-1.025286764E-1,-4.167724028E-2
1.259565215E0,-1.850842312E-2,-9.294158220E-2,-3.954677656E-2
1.262040996E0,-2.170412242E-2,-9.613727778E-2,-3.954677656E-2
1.264516829E0,-2.489982173E-2,-1.099853069E-1,-4.274247587E-2
1.266992663E0,-2.596505545E-2,-1.153114736E-1,-4.380770773E-2
1.269468496E0,-2.596505545E-2,-1.163767055E-1,-4.061200842E-2
1.271944329E0,-2.596505545E-2,-1.131810099E-1,-3.848154470E-2
1.274420163E0,-2.276935615E-2,-1.099853069E-1,-3.422060981E-2
1.276895944E0,-1.850842312E-2,-1.078548431E-1,-3.635107726E-2
1.279386986E0,-1.318225823E-2,-1.035939083E-1,-3.635107726E-2
1.281862819E0,-1.211702544E-2,-9.613727778E-2,-3.635107726E-2
1.284338600E0,-9.986559860E-3,-9.400681406E-2,-3.528584540E-2
1.286814434E0,-6.790860556E-3,-9.507204592E-2,-3.741630912E-2
1.289290267E0,-9.986559860E-3,-9.294158220E-2,-3.635107726E-2
1.291766100E0,-9.986559860E-3,-9.187635034E-2,-3.528584540E-2
1.294241934E0,-8.921326138E-3,-9.294158220E-2,-3.422060981E-2
1.296717767E0,-1.424749196E-2,-9.720251709E-2,-3.422060981E-2
1.299193600E0,-1.105179265E-2,-9.933298081E-2,-3.635107726E-2
1.301669434E0,-1.105179265E-2,-9.826774895E-2,-3.528584540E-2
1.304145215E0,-1.318225823E-2,-9.720251709E-2,-3.741630912E-2
1.306621048E0,-1.424749196E-2,-9.720251709E-2,-3.954677656E-2
1.309092923E0,-1.637795754E-2,-1.014634445E-1,-4.167724028E-2
1.311568756E0,-1.957365684E-2,-1.057243794E-1,-4.167724028E-2
1.314044590E0,-1.637795754E-2,-1.067896113E-1,-3.848154470E-2
1.316520423E0,-2.063889056E-2,-1.078548431E-1,-4.167724028E-2
1.318996256E0,-2.276935615E-2,-1.089200750E-1,-4.593817517E-2
1.321472038E0,-2.489982173E-2,-1.078548431E-1,-4.593817517E-2
1.323947871E0,-2.703028731E-2,-1.046591476E-1,-4.380770773E-2
1.326423704E0,-2.489982173E-2,-1.057243794E-1,-4.806863889E-2
1.328899538E0,-2.916075476E-2,-1.067896113E-1,-5.019910634E-2
1.331375371E0,-3.235645220E-2,-1.089200750E-1,-5.126433820E-2
1.333851204E0,-3.448691964E-2,-1.078548431E-1,-5.019910634E-2
1.336326986E0,-3.129122034E-2,-1.089200750E-1,-5.552527308E-2
1.338768131E0,-3.661738336E-2,-1.089200750E-1,-5.339480564E-2
1.341243965E0,-3.768261895E-2,-1.110505462E-1,-5.659050494E-2
1.343719798E0,-4.194355011E-2,-1.099853069E-1,-5.978620425E-2
1.346195631E0,-4.407401755E-2,-1.035939083E-1,-5.552527308E-2
1.348671465E0,-4.620448127E-2,-1.003982127E-1,-5.765573680E-2
1.351147298E0,-5.366111174E-2,-1.046591476E-1,-5.872096866E-2
1.353623131E0,-5.472634733E-2,-1.035939083E-1,-6.511236727E-2
1.356098913E0,-5.685681105E-2,-1.046591476E-1,-6.617759913E-2
1.358574746E0,-5.792204663E-2,-1.046591476E-1,-6.298190355E-2
1.361050579E0,-6.111774594E-2,-9.826774895E-2,-6.298190355E-2
1.363526413E0,-6.218297780E-2,-8.868064731E-2,-6.511236727E-2
1.366002246E0,-6.005251035E-2,-8.015878499E-2,-6.191666797E-2
1.368500944E0,-6.431344151E-2,-7.483261824E-2,-6.191666797E-2
1.370976777E0,-6.750914454E-2,-7.163692266E-2,-6.191666797E-2
1.373452611E0,-6.750914454E-2,-6.631075591E-2,-6.404713541E-2
1.375928392E0,-7.070484012E-2,-6.950645149E-2,-6.298190355E-2
1.378404225E0,-7.496577501E-2,-7.163692266E-2,-5.978620425E-2
1.380880059E0,-7.496577501E-2,-7.802832127E-2,-6.617759913E-2
1.383355892E0,-7.283531129E-2,-8.548495173E-2,-6.724283099E-2
1.385831725E0,-7.283531129E-2,-8.761541545E-2,-6.830807030E-2
1.388307506E0,-7.177007198E-2,-9.720251709E-2,-6.724283099E-2
1.390783392E0,-7.070484012E-2,-1.046591476E-1,-6.937330216E-2
1.393259225E0,-6.857437640E-2,-1.110505462E-1,-7.043853402E-2
1.395735006E0,-6.537867337E-2,-1.185071766E-1,-7.150376588E-2
1.398203184E0,-6.963960826E-2,-1.259638071E-1,-7.469946891E-2
1.400679017E0,-7.283531129E-2,-1.302247345E-1,-7.469946891E-2
1.403154850E0,-7.390054315E-2,-1.291595101E-1,-7.256899774E-2
1.405630631E0,-7.496577501E-2,-1.270290315E-1,-6.937330216E-2
1.408106465E0,-7.390054315E-2,-1.259638071E-1,-6.830807030E-2
1.410582298E0,-7.496577501E-2,-1.238333359E-1,-6.724283099E-2
1.413058131E0,-7.603100687E-2,-1.238333359E-1,-6.617759913E-2
1.415533965E0,-7.496577501E-2,-1.227681041E-1,-6.511236727E-2
1.418009798E0,-7.603100687E-2,-1.227681041E-1,-6.404713541E-2
1.420485631E0,-7.816147059E-2,-1.217028722E-1,-6.511236727E-2
1.422961465E0,-7.709623873E-2,-1.248985752E-1,-6.404713541E-2
1.425437246E0,-7.603100687E-2,-1.227681041E-1,-6.298190355E-2
1.427903809E0,-7.496577501E-2,-1.259638071E-1,-6.404713541E-2
1.430379642E0,-7.603100687E-2,-1.291595101E-1,-6.404713541E-2
1.432855475E0,-8.135717362E-2,-1.280942708E-1,-6.404713541E-2
1.435331256E0,-8.561810106E-2,-1.312899739E-1,-6.404713541E-2
1.437807090E0,-8.987903595E-2,-1.355509013E-1,-6.085143611E-2
1.440282923E0,-8.987903595E-2,-1.387466043E-1,-6.085143611E-2
1.442758756E0,-8.987903595E-2,-1.430075318E-1,-5.872096866E-2
1.445234590E0,-9.307473898E-2,-1.408770680E-1,-5.552527308E-2
1.447710423E0,-9.520520270E-2,-1.472684592E-1,-5.552527308E-2
1.450186256E0,-1.058575287E-1,-1.536598653E-1,-5.552527308E-2
1.452662038E0,-1.037270650E-1,-1.579207927E-1,-5.765573680E-2
1.455137871E0,-1.101184636E-1,-1.600512564E-1,-5.765573680E-2
1.457572611E0,-1.133141592E-1,-1.664426625E-1,-5.552527308E-2
1.460048444E0,-1.175750941E-1,-1.738992929E-1,-5.552527308E-2
1.462524277E0,-1.239664927E-1,-1.802906841E-1,-5.446003750E-2
1.465000111E0,-1.271621883E-1,-1.888125539E-1,-5.339480564E-2
1.467475944E0,-1.303578913E-1,-1.962691844E-1,-5.552527308E-2
1.469951725E0,-1.314231306E-1,-2.079867423E-1,-5.765573680E-2
1.472427611E0,-1.324883550E-1,-2.197043151E-1,-5.978620425E-2
1.474903392E0,-1.356840581E-1,-2.303566486E-1,-6.085143611E-2
1.477379225E0,-1.410102248E-1,-2.388785034E-1,-6.085143611E-2
1.479855059E0,-1.410102248E-1,-2.452699095E-1,-5.872096866E-2
1.482330892E0,-1.410102248E-1,-2.505960763E-1,-6.404713541E-2
1.484806673E0,-1.431406885E-1,-2.548570037E-1,-6.404713541E-2
1.487307246E0,-1.484668553E-1,-2.601831555E-1,-6.404713541E-2
1.489783079E0,-1.516625583E-1,-2.633788586E-1,-6.830807030E-2
1.492258861E0,-1.484668553E-1,-2.687050402E-1,-6.830807030E-2
1.494734694E0,-1.527277827E-1,-2.697702646E-1,-6.830807030E-2
1.497210527E0,-1.527277827E-1,-2.782921195E-1,-7.043853402E-2
1.499686361E0,-1.559234858E-1,-2.857487500E-1,-7.043853402E-2
1.502162194E0,-1.591191888E-1,-2.910749316E-1,-7.256899774E-2
1.504638027E0,-1.623148769E-1,-2.974663079E-1,-7.256899774E-2
1.507113861E0,-1.644453406E-1,-3.049229383E-1,-7.256899774E-2
1.509589694E0,-1.644453406E-1,-3.070534170E-1,-7.256899774E-2
1.512065475E0,-1.676410437E-1,-3.102491200E-1,-7.150376588E-2
1.514541309E0,-1.708367467E-1,-3.091838956E-1,-6.724283099E-2
1.517009173E0,-1.676410437E-1,-3.081186414E-1,-6.724283099E-2
1.519485006E0,-1.655105799E-1,-3.070534170E-1,-6.511236727E-2
1.521960840E0,-1.623148769E-1,-3.006620109E-1,-6.404713541E-2
1.524436621E0,-1.623148769E-1,-2.953358591E-1,-5.765573680E-2
1.526912454E0,-1.569887102E-1,-2.900096774E-1,-5.446003750E-2
1.529388288E0,-1.527277827E-1,-2.793573737E-1,-5.232957378E-2
1.531864121E0,-1.516625583E-1,-2.719007432E-1,-4.913387448E-2
1.534339954E0,-1.463363916E-1,-2.655093372E-1,-4.487293959E-2
1.536815788E0,-1.442059278E-1,-2.569874525E-1,-4.061200842E-2
1.539291621E0,-1.410102248E-1,-2.495308369E-1,-3.635107726E-2
1.541767402E0,-1.356840581E-1,-2.410089672E-1,-3.315537795E-2
1.544243236E0,-1.292926520E-1,-2.324871123E-1,-3.102491237E-2
1.546712194E0,-1.250317246E-1,-2.239652425E-1,-2.676397935E-2
1.549188027E0,-1.239664927E-1,-2.143781483E-1,-2.143781446E-2
1.551663861E0,-1.239664927E-1,-2.058562785E-1,-1.717688330E-2
1.554139642E0,-1.165098622E-1,-1.994648874E-1,-1.398118306E-2
1.556615475E0,-1.133141592E-1,-1.920082569E-1,-1.185071748E-2
1.559091309E0,-1.101184636E-1,-1.834863871E-1,-6.524552125E-3
1.561567142E0,-1.079879999E-1,-1.770949960E-1,-5.459319334E-3
1.564042975E0,-1.005313694E-1,-1.738992929E-1,-1.198387123E-3
1.566518809E0,-9.733566642E-2,-1.685731262E-1,1.997311832E-3
1.568994642E0,-9.840089828E-2,-1.696383655E-1,3.062544856E-3
1.571470423E0,-8.987903595E-2,-1.621817350E-1,4.127778113E-3
1.573946256E0,-7.603100687E-2,-1.589860320E-1,4.127778113E-3
1.576413392E0,-7.283531129E-2,-1.611164957E-1,5.193010904E-3
1.578889225E0,-6.431344151E-2,-1.579207927E-1,5.193010904E-3
1.581365059E0,-6.005251035E-2,-1.568555683E-1,5.193010904E-3
1.583840840E0,-5.792204663E-2,-1.579207927E-1,5.193010904E-3
1.586316673E0,-4.726971686E-2,-1.600512564E-1,3.062544856E-3
1.588792506E0,-4.087831825E-2,-1.653774232E-1,9.320789250E-4
1.591268340E0,-3.555215150E-2,-1.675078869E-1,-1.198387123E-3
1.593744173E0,-3.874785081E-2,-1.760297567E-1,-1.198387123E-3
1.596220006E0,-3.129122034E-2,-1.845516264E-1,-1.198387123E-3
1.598695840E0,-2.383458801E-2,-1.898777932E-1,-3.328853287E-3
1.601171621E0,-2.063889056E-2,-1.952039450E-1,-7.589785382E-3
1.603647454E0,-1.957365684E-2,-2.037258148E-1,-1.078548469E-2
1.606087246E0,-1.318225823E-2,-2.133129090E-1,-1.291595027E-2
1.608563131E0,-5.725627299E-3,-2.207695395E-1,-1.504641678E-2
1.611038913E0,-1.464695437E-3,-2.229000032E-1,-1.717688330E-2
1.613514746E0,4.926702939E-3,-2.239652425E-1,-1.930734888E-2
1.615990579E0,1.131810062E-2,-2.292914093E-1,-2.250304818E-2
1.618466413E0,1.770949923E-2,-2.271609455E-1,-2.356828004E-2
1.620942194E0,1.877473295E-2,-2.282261699E-1,-2.356828004E-2
1.623418027E0,1.877473295E-2,-2.314218730E-1,-2.356828004E-2
1.625893861E0,1.770949923E-2,-2.324871123E-1,-2.782921307E-2
1.628369694E0,1.983996481E-2,-2.324871123E-1,-2.889444493E-2
1.630845527E0,1.877473295E-2,-2.367480397E-1,-2.782921307E-2
1.633321361E0,1.664426550E-2,-2.367480397E-1,-2.782921307E-2
1.635815736E0,1.770949923E-2,-2.335523367E-1,-2.889444493E-2
1.638291569E0,1.344856713E-2,-2.324871123E-1,-2.463351376E-2
1.640767402E0,1.238333434E-2,-2.292914093E-1,-2.250304818E-2
1.643243184E0,1.025286783E-2,-2.239652425E-1,-2.143781446E-2
1.645719017E0,8.122402243E-3,-2.143781483E-1,-1.717688330E-2
1.648194850E0,8.122402243E-3,-2.079867423E-1,-1.291595027E-2
1.650670684E0,1.025286783E-2,-1.962691844E-1,-1.185071748E-2
1.653146517E0,7.057168987E-3,-1.856168509E-1,-9.720250964E-3
1.655622350E0,3.861469682E-3,-1.845516264E-1,-9.720250964E-3
1.658098184E0,1.731003635E-3,-1.802906841E-1,-8.655018173E-3
1.660574017E0,-2.529928461E-3,-1.760297567E-1,-9.720250964E-3
1.663049798E0,-8.921326138E-3,-1.728340536E-1,-4.394086078E-3
1.665518444E0,-1.318225823E-2,-1.749645174E-1,-2.263620263E-3
1.667994277E0,-1.211702544E-2,-1.717688292E-1,-1.198387123E-3
1.670470111E0,-1.637795754E-2,-1.707035899E-1,1.997311832E-3
1.672945892E0,-2.596505545E-2,-1.717688292E-1,4.127778113E-3
1.675421725E0,-3.129122034E-2,-1.738992929E-1,5.193010904E-3
1.677897559E0,-3.661738336E-2,-1.802906841E-1,8.388710208E-3
1.680373392E0,-4.300878197E-2,-1.781602204E-1,1.158440951E-2
1.682849225E0,-4.620448127E-2,-1.802906841E-1,1.584534161E-2
1.685325059E0,-5.046541616E-2,-1.792254597E-1,2.223674022E-2
1.687800892E0,-5.579157919E-2,-1.738992929E-1,2.969337068E-2
1.690276673E0,-6.005251035E-2,-1.770949960E-1,3.288906813E-2
1.692752506E0,-6.218297780E-2,-1.760297567E-1,3.395430371E-2
1.695220163E0,-6.111774594E-2,-1.653774232E-1,4.460663348E-2
1.697695996E0,-6.644391268E-2,-1.621817350E-1,5.099803209E-2
1.700171829E0,-6.431344151E-2,-1.611164957E-1,5.206326395E-2
1.702647611E0,-6.537867337E-2,-1.557903290E-1,5.525896326E-2
1.705123444E0,-6.324820966E-2,-1.557903290E-1,5.951989442E-2
1.707599277E0,-6.111774594E-2,-1.525946259E-1,6.271559745E-2
1.710075111E0,-5.898727849E-2,-1.430075318E-1,6.697652489E-2
1.712550944E0,-5.685681105E-2,-1.302247345E-1,7.336792350E-2
1.715026777E0,-5.366111174E-2,-1.323551983E-1,7.017222792E-2
1.717502559E0,-5.792204663E-2,-1.366161406E-1,6.804175675E-2
1.719978392E0,-6.431344151E-2,-1.355509013E-1,7.123745978E-2
1.722454225E0,-6.218297780E-2,-1.323551983E-1,7.230269164E-2
1.724887819E0,-6.537867337E-2,-1.376813650E-1,7.123745978E-2
1.727363652E0,-6.537867337E-2,-1.334204376E-1,7.443315536E-2
1.729839486E0,-6.644391268E-2,-1.312899739E-1,7.123745978E-2
1.732315319E0,-6.431344151E-2,-1.376813650E-1,7.123745978E-2
1.734791152E0,-6.111774594E-2,-1.387466043E-1,7.336792350E-2
1.737266986E0,-6.005251035E-2,-1.398118287E-1,7.443315536E-2
1.739742819E0,-5.898727849E-2,-1.440727711E-1,7.336792350E-2
1.742218600E0,-5.792204663E-2,-1.504641622E-1,6.910699606E-2
1.744694434E0,-6.005251035E-2,-1.589860320E-1,6.165036187E-2
1.747170267E0,-6.005251035E-2,-1.643121988E-1,6.058513001E-2
1.749646100E0,-6.218297780E-2,-1.781602204E-1,5.525896326E-2
1.752121881E0,-6.324820966E-2,-1.962691844E-1,5.312849581E-2
1.754589538E0,-6.324820966E-2,-2.090519816E-1,5.312849581E-2
1.757065371E0,-6.644391268E-2,-2.260957062E-1,5.206326395E-2
1.759541204E0,-7.070484012E-2,-2.484655976E-1,5.206326395E-2
1.762017038E0,-6.857437640E-2,-2.612484097E-1,4.993279651E-2
1.764492871E0,-6.750914454E-2,-2.782921195E-1,5.099803209E-2
1.766968652E0,-6.963960826E-2,-2.985315621E-1,4.780233279E-2
1.769444486E0,-7.070484012E-2,-3.155752718E-1,4.993279651E-2
1.771920319E0,-7.070484012E-2,-3.262276053E-1,4.993279651E-2
1.774396152E0,-7.603100687E-2,-3.411408663E-1,4.780233279E-2
1.776871986E0,-7.922670245E-2,-3.581846058E-1,4.993279651E-2
1.779347819E0,-8.455286920E-2,-3.741630912E-1,5.206326395E-2
1.781823600E0,-8.987903595E-2,-3.901416063E-1,4.993279651E-2
1.784287559E0,-9.307473898E-2,-4.071853161E-1,4.780233279E-2
1.786763392E0,-9.840089828E-2,-4.252942801E-1,4.886756465E-2
1.789239225E0,-1.069227681E-1,-4.402075410E-1,4.780233279E-2
1.791715059E0,-1.143793985E-1,-4.625774324E-1,4.780233279E-2
1.794190892E0,-1.207707971E-1,-4.796211720E-1,4.780233279E-2
1.796666673E0,-1.218360290E-1,-4.966649115E-1,4.780233279E-2
1.799142506E0,-1.260969639E-1,-5.179695487E-1,4.567186534E-2
1.801618340E0,-1.292926520E-1,-5.350132585E-1,4.886756465E-2
1.804094173E0,-1.314231306E-1,-5.509917736E-1,5.206326395E-2
1.806570006E0,-1.356840581E-1,-5.659050345E-1,4.993279651E-2
1.809045840E0,-1.367492825E-1,-5.840139985E-1,5.099803209E-2
1.811521621E0,-1.420754492E-1,-5.946663618E-1,5.206326395E-2
1.814026986E0,-1.442059278E-1,-6.074491143E-1,5.419373140E-2
1.816502819E0,-1.452711523E-1,-6.212971807E-1,5.312849581E-2
1.818978652E0,-1.505973190E-1,-6.308842301E-1,6.058513001E-2
1.821454434E0,-1.505973190E-1,-6.351451874E-1,5.951989442E-2
1.823930267E0,-1.474016160E-1,-6.362104416E-1,5.951989442E-2
1.826406100E0,-1.537930220E-1,-6.383408904E-1,6.058513001E-2
1.828881934E0,-1.569887102E-1,-6.394061446E-1,6.271559745E-2
1.831357767E0,-1.548582464E-1,-6.436670423E-1,6.378082931E-2
1.833833600E0,-1.612496525E-1,-6.383408904E-1,6.484606117E-2
1.836309434E0,-1.697715074E-1,-6.383408904E-1,6.484606117E-2
1.838785215E0,-1.665758193E-1,-6.351451874E-1,6.804175675E-2
1.841261048E0,-1.655105799E-1,-6.276885867E-1,7.017222792E-2
1.843694746E0,-1.697715074E-1,-6.223623753E-1,7.123745978E-2
1.846170579E0,-1.729672104E-1,-6.191666722E-1,6.910699606E-2
1.848646413E0,-1.772281379E-1,-6.138405204E-1,6.910699606E-2
1.851122246E0,-1.793586165E-1,-6.106448174E-1,6.804175675E-2
1.853598079E0,-1.772281379E-1,-6.031882167E-1,6.910699606E-2
1.856073913E0,-1.836195439E-1,-5.978620052E-1,6.910699606E-2
1.858549694E0,-1.836195439E-1,-5.882749557E-1,6.804175675E-2
1.861025579E0,-1.942718774E-1,-5.786878467E-1,6.804175675E-2
1.863501361E0,-1.995980442E-1,-5.701659918E-1,6.697652489E-2
1.865977194E0,-1.995980442E-1,-5.669702888E-1,6.591129303E-2
1.868453027E0,-2.049241960E-1,-5.616441369E-1,6.378082931E-2
1.870928861E0,-2.134460658E-1,-5.563179255E-1,6.484606117E-2
1.873397090E0,-2.209026963E-1,-5.477960706E-1,6.271559745E-2
1.875872923E0,-2.315550297E-1,-5.403394699E-1,6.484606117E-2
1.878348756E0,-2.347507328E-1,-5.318176150E-1,6.484606117E-2
1.880824538E0,-2.379464209E-1,-5.169043541E-1,6.591129303E-2
1.883300371E0,-2.507292330E-1,-4.998605847E-1,6.910699606E-2
1.885776256E0,-2.571206093E-1,-4.902735054E-1,6.591129303E-2
1.888252038E0,-2.603163123E-1,-4.806863964E-1,6.697652489E-2
1.890727871E0,-2.592510879E-1,-4.817516208E-1,6.484606117E-2
1.893203704E0,-2.560553849E-1,-4.838820994E-1,6.910699606E-2
1.895679538E0,-2.539249361E-1,-4.892082810E-1,7.443315536E-2
1.898155371E0,-2.560553849E-1,-4.902735054E-1,7.869409025E-2
1.900631152E0,-2.507292330E-1,-4.987953603E-1,7.762885839E-2
1.903095111E0,-2.507292330E-1,-5.083824396E-1,7.336792350E-2
1.905570944E0,-2.539249361E-1,-5.211652517E-1,6.804175675E-2
1.908046777E0,-2.528596818E-1,-5.243609548E-1,7.230269164E-2
1.910522611E0,-2.656424940E-1,-5.232957006E-1,7.230269164E-2
1.912998444E0,-2.752295732E-1,-5.307523608E-1,6.910699606E-2
1.915474225E0,-2.794905007E-1,-5.307523608E-1,6.697652489E-2
1.917950059E0,-2.816209793E-1,-5.318176150E-1,6.910699606E-2
1.920425892E0,-2.858819067E-1,-5.360785127E-1,7.123745978E-2
1.922901725E0,-2.901428342E-1,-5.350132585E-1,7.230269164E-2
1.925377559E0,-2.890776098E-1,-5.382089615E-1,7.336792350E-2
1.927853392E0,-2.858819067E-1,-5.318176150E-1,7.975932211E-2
1.930329173E0,-2.858819067E-1,-5.275566578E-1,8.508548886E-2
1.932833184E0,-2.837514579E-1,-5.275566578E-1,8.615072072E-2
1.935309017E0,-2.837514579E-1,-5.232957006E-1,9.254211932E-2
1.937784798E0,-2.773600519E-1,-5.190348029E-1,9.999874979E-2
1.940260684E0,-2.784252763E-1,-5.275566578E-1,1.010639817E-1
1.942736465E0,-2.762948275E-1,-5.211652517E-1,1.021292135E-1
1.945212298E0,-2.762948275E-1,-5.169043541E-1,1.085206121E-1
1.947688131E0,-2.773600519E-1,-5.211652517E-1,1.106510833E-1
1.950163965E0,-2.730991244E-1,-5.211652517E-1,1.138467789E-1
1.952639798E0,-2.656424940E-1,-5.179695487E-1,1.181077138E-1
1.955115631E0,-2.603163123E-1,-5.137086511E-1,1.255643368E-1
1.957591413E0,-2.560553849E-1,-5.126433969E-1,1.266295761E-1
1.960067246E0,-2.485987544E-1,-5.019910336E-1,1.287600398E-1
1.962535319E0,-2.368811965E-1,-4.913387299E-1,1.340862066E-1
1.965011152E0,-2.272941023E-1,-4.881430268E-1,1.362166703E-1
1.967486986E0,-2.155765295E-1,-4.785559475E-1,1.404775977E-1
1.969962767E0,-2.091851383E-1,-4.647079110E-1,1.415428370E-1
1.972438600E0,-2.027937323E-1,-4.572512805E-1,1.458037645E-1
1.974914434E0,-1.953371018E-1,-4.487294257E-1,1.521951705E-1
1.977390267E0,-1.857500076E-1,-4.455337226E-1,1.532603949E-1
1.979866100E0,-1.814890802E-1,-4.423380196E-1,1.532603949E-1
1.982341934E0,-1.772281379E-1,-4.380770922E-1,1.585865617E-1
1.984817767E0,-1.719019860E-1,-4.338161349E-1,1.607170254E-1
1.987293548E0,-1.676410437E-1,-4.338161349E-1,1.607170254E-1
1.989769434E0,-1.655105799E-1,-4.327509105E-1,1.628475040E-1
1.992216048E0,-1.591191888E-1,-4.306204617E-1,1.649779677E-1
1.994691881E0,-1.516625583E-1,-4.391423166E-1,1.639127284E-1
1.997167715E0,-1.463363916E-1,-4.412727654E-1,1.628475040E-1
1.999643496E0,-1.431406885E-1,-4.370118380E-1,1.671084315E-1
2.002119329E0,-1.399449855E-1,-4.380770922E-1,1.649779677E-1
2.004595163E0,-1.378145218E-1,-4.370118380E-1,1.649779677E-1
2.007070996E0,-1.324883550E-1,-4.412727654E-1,1.628475040E-1
2.009546829E0,-1.271621883E-1,-4.391423166E-1,1.617822647E-1
2.012022663E0,-1.282274276E-1,-4.338161349E-1,1.671084315E-1
2.014498496E0,-1.271621883E-1,-4.338161349E-1,1.671084315E-1
2.016974329E0,-1.250317246E-1,-4.252942801E-1,1.639127284E-1
2.019450111E0,-1.239664927E-1,-4.252942801E-1,1.596518010E-1
2.021904173E0,-1.218360290E-1,-4.199681282E-1,1.628475040E-1
2.024380006E0,-1.175750941E-1,-4.135767221E-1,1.628475040E-1
2.026855840E0,-1.186403260E-1,-4.082505703E-1,1.596518010E-1
2.029331673E0,-1.175750941E-1,-4.061200917E-1,1.564560980E-1
2.031807506E0,-1.165098622E-1,-4.018591642E-1,1.553908736E-1
2.034283340E0,-1.101184636E-1,-4.007939398E-1,1.500647068E-1
2.036759121E0,-1.143793985E-1,-3.912068307E-1,1.511299312E-1
2.039234954E0,-1.111836955E-1,-3.869459033E-1,1.479342431E-1
2.041710788E0,-1.090532318E-1,-3.837502003E-1,1.458037645E-1
2.044186621E0,-1.069227681E-1,-3.762935698E-1,1.468690038E-1
2.046662454E0,-1.122489274E-1,-3.794892728E-1,1.426080763E-1
2.049138288E0,-1.101184636E-1,-3.784240186E-1,1.426080763E-1
2.051604642E0,-1.101184636E-1,-3.773587942E-1,1.436733007E-1
2.054079902E0,-1.133141592E-1,-3.699021637E-1,1.458037645E-1
2.056555215E0,-1.165098622E-1,-3.581846058E-1,1.489994675E-1
2.059030475E0,-1.197055578E-1,-3.443365693E-1,1.521951705E-1
2.061505788E0,-1.218360290E-1,-3.358147144E-1,1.553908736E-1
2.063981048E0,-1.260969639E-1,-3.240971565E-1,1.575213373E-1
2.066456361E0,-1.260969639E-1,-3.145100474E-1,1.585865617E-1
2.068931621E0,-1.260969639E-1,-3.059881926E-1,1.617822647E-1
2.071406934E0,-1.282274276E-1,-3.006620109E-1,1.639127284E-1
2.073882194E0,-1.324883550E-1,-2.953358591E-1,1.681736708E-1
2.076357506E0,-1.367492825E-1,-2.782921195E-1,1.703041345E-1
2.078832767E0,-1.410102248E-1,-2.676397860E-1,1.756303012E-1
2.081342142E0,-1.484668553E-1,-2.569874525E-1,1.809564531E-1
2.083817454E0,-1.537930220E-1,-2.420742065E-1,1.873478591E-1
2.086292767E0,-1.591191888E-1,-2.292914093E-1,1.905435622E-1
2.088768027E0,-1.655105799E-1,-2.239652425E-1,1.958697289E-1
2.091243288E0,-1.697715074E-1,-2.122476846E-1,2.011958808E-1
2.093718600E0,-1.782933772E-1,-2.047910541E-1,2.065220475E-1
2.096193861E0,-1.836195439E-1,-2.015953511E-1,2.086525112E-1
2.098669225E0,-1.868152469E-1,-1.962691844E-1,2.182396203E-1
2.101144486E0,-1.900109351E-1,-1.973344237E-1,2.235657871E-1
2.103619746E0,-1.964023411E-1,-1.973344237E-1,2.278267145E-1
2.106095059E0,-2.017285079E-1,-1.973344237E-1,2.320876420E-1
2.108570319E0,-1.985328048E-1,-2.058562785E-1,2.342181057E-1
2.111043496E0,-2.017285079E-1,-2.101172209E-1,2.384790480E-1
2.113518809E0,-2.059894353E-1,-2.133129090E-1,2.427399755E-1
2.115994069E0,-2.027937323E-1,-2.079867423E-1,2.459356785E-1
2.118469381E0,-2.049241960E-1,-2.037258148E-1,2.480661422E-1
2.120944642E0,-2.038589716E-1,-1.983996481E-1,2.544575334E-1
2.123419954E0,-2.049241960E-1,-2.026605755E-1,2.587184608E-1
2.125895215E0,-2.017285079E-1,-2.047910541E-1,2.629793882E-1
2.128370527E0,-2.038589716E-1,-2.101172209E-1,2.704360485E-1
2.130845840E0,-2.070546746E-1,-2.143781483E-1,2.789579034E-1
2.133321100E0,-2.070546746E-1,-2.165086120E-1,2.853493094E-1
2.135796413E0,-2.113156021E-1,-2.239652425E-1,2.874797583E-1
2.138271673E0,-2.123808414E-1,-2.250304818E-1,2.928059399E-1
2.140712298E0,-2.166417688E-1,-2.250304818E-1,3.013277948E-1
2.143187559E0,-2.134460658E-1,-2.260957062E-1,3.077192008E-1
2.145662871E0,-2.166417688E-1,-2.218347788E-1,3.183715343E-1
2.148138131E0,-2.166417688E-1,-2.090519816E-1,3.258281648E-1
2.150613444E0,-2.145113051E-1,-2.005301118E-1,3.354152441E-1
2.153088704E0,-2.134460658E-1,-1.898777932E-1,3.481980562E-1
2.155564017E0,-2.113156021E-1,-1.792254597E-1,3.567199111E-1
2.158039277E0,-2.081198990E-1,-1.717688292E-1,3.663070202E-1
2.160514590E0,-2.006632686E-1,-1.600512564E-1,3.737636507E-1
2.162989902E0,-1.942718774E-1,-1.525946259E-1,3.790898025E-1
2.165465163E0,-1.910761744E-1,-1.462032348E-1,3.769593239E-1
2.167940423E0,-1.857500076E-1,-1.462032348E-1,3.769593239E-1
2.170412715E0,-1.772281379E-1,-1.504641622E-1,3.726983964E-1
2.172887975E0,-1.750976741E-1,-1.568555683E-1,3.673722446E-1
2.175363288E0,-1.729672104E-1,-1.632469594E-1,3.620460629E-1
2.177838548E0,-1.719019860E-1,-1.728340536E-1,3.556546867E-1
2.180313861E0,-1.697715074E-1,-1.834863871E-1,3.481980562E-1
2.182789121E0,-1.676410437E-1,-1.920082569E-1,3.450023532E-1
2.185264434E0,-1.750976741E-1,-2.015953511E-1,3.396761715E-1
2.187739746E0,-1.804238409E-1,-2.101172209E-1,3.375457227E-1
2.190215006E0,-1.836195439E-1,-2.165086120E-1,3.332847953E-1
2.192690267E0,-1.825543046E-1,-2.260957062E-1,3.300890923E-1
2.195165579E0,-1.878804713E-1,-2.356828004E-1,3.311543167E-1
2.197640892E0,-1.942718774E-1,-2.474003732E-1,3.258281648E-1
2.200114850E0,-1.974675655E-1,-2.569874525E-1,3.247629106E-1
2.202590111E0,-1.974675655E-1,-2.676397860E-1,3.215672076E-1
2.205065423E0,-2.006632686E-1,-2.782921195E-1,3.226324618E-1
2.207540684E0,-2.102503628E-1,-2.868140042E-1,3.247629106E-1
2.210015996E0,-2.155765295E-1,-2.932053804E-1,3.258281648E-1
2.212491309E0,-2.209026963E-1,-2.985315621E-1,3.290238380E-1
2.214966569E0,-2.230331600E-1,-3.081186414E-1,3.279586136E-1
2.217441829E0,-2.294245660E-1,-3.166405261E-1,3.279586136E-1
2.219917142E0,-2.283593267E-1,-3.272928596E-1,3.300890923E-1
2.222392402E0,-2.304897904E-1,-3.422061205E-1,3.300890923E-1
2.224867715E0,-2.390116602E-1,-3.549889028E-1,3.300890923E-1
2.227342975E0,-2.432725877E-1,-3.699021637E-1,3.311543167E-1
2.229850527E0,-2.485987544E-1,-3.890763521E-1,3.354152441E-1
2.232325840E0,-2.560553849E-1,-4.071853161E-1,3.386109471E-1
2.234801100E0,-2.603163123E-1,-4.210333526E-1,3.407414258E-1
2.237276413E0,-2.667077184E-1,-4.380770922E-1,3.450023532E-1
2.239751673E0,-2.709686458E-1,-4.519250989E-1,3.503285050E-1
2.242226986E0,-2.730991244E-1,-4.679036140E-1,3.599156141E-1
2.244702246E0,-2.794905007E-1,-4.860125780E-1,3.652417660E-1
2.247177559E0,-2.826862037E-1,-4.987953603E-1,3.748288751E-1
2.249652871E0,-2.869471312E-1,-5.126433969E-1,3.854812086E-1
2.252128131E0,-2.922733128E-1,-5.264914036E-1,3.940030634E-1
2.254603444E0,-2.922733128E-1,-5.424699187E-1,4.014596939E-1
2.257078704E0,-3.007951677E-1,-5.520570278E-1,4.078511000E-1
2.259518184E0,-3.082517982E-1,-5.627093315E-1,4.174381793E-1
2.261993496E0,-3.157084286E-1,-5.712311864E-1,4.248948097E-1
2.264468756E0,-3.210346103E-1,-5.754921436E-1,4.334166944E-1
2.266944069E0,-3.274259865E-1,-5.829487443E-1,4.408733249E-1
2.269419329E0,-3.327521682E-1,-5.904054046E-1,4.461994767E-1
2.271894590E0,-3.370130956E-1,-5.946663618E-1,4.557865858E-1
2.274369902E0,-3.412740231E-1,-5.925358534E-1,4.589822888E-1
2.276845163E0,-3.455349505E-1,-5.989272594E-1,4.685693681E-1
2.279320475E0,-3.497959077E-1,-6.021229625E-1,4.749607742E-1
2.281795736E0,-3.519263566E-1,-6.095796227E-1,4.770912528E-1
2.284271048E0,-3.529915810E-1,-6.202319264E-1,4.834826291E-1
2.286746361E0,-3.561872840E-1,-6.340799332E-1,4.941349626E-1
2.289254381E0,-3.508611321E-1,-6.500584483E-1,4.973306656E-1
2.291729694E0,-3.561872840E-1,-6.585803032E-1,5.047873259E-1
2.294205006E0,-3.572525382E-1,-6.671021581E-1,5.111786723E-1
2.296680267E0,-3.540568352E-1,-6.702978611E-1,5.197005868E-1
2.299155527E0,-3.487306535E-1,-6.745588183E-1,5.282224417E-1
2.301630840E0,-3.476654291E-1,-6.756240726E-1,5.367442966E-1
2.304106100E0,-3.434045017E-1,-6.734935641E-1,5.431357026E-1
2.306581413E0,-3.359478712E-1,-6.756240726E-1,5.516575575E-1
2.309056725E0,-3.242303133E-1,-6.724283695E-1,5.580489635E-1
2.311531986E0,-3.125127256E-1,-6.660369635E-1,5.612446666E-1
2.314007298E0,-3.050560951E-1,-6.628412604E-1,5.708317757E-1
2.316482559E0,-2.890776098E-1,-6.575151086E-1,5.750926733E-1
2.318931829E0,-2.762948275E-1,-6.521888971E-1,5.814840794E-1
2.321407142E0,-2.667077184E-1,-6.468627453E-1,5.868102312E-1
2.323882402E0,-2.539249361E-1,-6.404713392E-1,5.868102312E-1
2.326357663E0,-2.379464209E-1,-6.330147386E-1,5.857450366E-1
2.328832975E0,-2.230331600E-1,-6.287537813E-1,5.900059342E-1
2.331308236E0,-2.134460658E-1,-6.244928837E-1,5.910711884E-1
2.333783548E0,-2.017285079E-1,-6.127753258E-1,5.889406800E-1
2.336258861E0,-1.825543046E-1,-6.042534113E-1,5.836145282E-1
2.338734121E0,-1.697715074E-1,-5.957315564E-1,5.868102312E-1
2.341209381E0,-1.505973190E-1,-5.840139985E-1,5.857450366E-1
2.343684694E0,-1.303578913E-1,-5.722964406E-1,5.793536305E-1
2.346160006E0,-1.207707971E-1,-5.637745857E-1,5.782883763E-1
2.348649590E0,-1.090532318E-1,-5.595136285E-1,5.750926733E-1
2.351124850E0,-9.627043456E-2,-5.499265194E-1,5.708317757E-1
2.353600163E0,-8.561810106E-2,-5.435351729E-1,5.612446666E-1
2.356075475E0,-7.816147059E-2,-5.403394699E-1,5.569837093E-1
2.358550736E0,-7.390054315E-2,-5.339480639E-1,5.473966002E-1
2.361025996E0,-7.070484012E-2,-5.318176150E-1,5.399399996E-1
2.363501309E0,-6.537867337E-2,-5.264914036E-1,5.324833393E-1
2.365976569E0,-6.537867337E-2,-5.232957006E-1,5.228962898E-1
2.368451881E0,-6.324820966E-2,-5.169043541E-1,5.143743753E-1
2.370927142E0,-6.005251035E-2,-5.147738457E-1,5.058525205E-1
2.373402454E0,-6.431344151E-2,-5.105129480E-1,4.962654412E-1
2.375877767E0,-6.431344151E-2,-5.094476938E-1,4.888088107E-1
2.378318079E0,-6.324820966E-2,-5.073172450E-1,4.738955498E-1
2.380793340E0,-6.005251035E-2,-5.051867366E-1,4.611127377E-1
2.383268652E0,-5.898727849E-2,-5.009258389E-1,4.493951797E-1
2.385743913E0,-5.472634733E-2,-4.987953603E-1,4.355471432E-1
2.388219225E0,-5.153064802E-2,-4.902735054E-1,4.238295853E-1
2.390694486E0,-4.407401755E-2,-4.796211720E-1,4.131772518E-1
2.393169798E0,-3.981308267E-2,-4.647079110E-1,4.025249183E-1
2.395645059E0,-2.809552103E-2,-4.487294257E-1,3.897421360E-1
2.398120371E0,-1.637795754E-2,-4.306204617E-1,3.790898025E-1
2.400595631E0,-3.595161485E-3,-4.018591642E-1,3.673722446E-1
2.403070944E0,1.025286783E-2,-3.709673882E-1,3.545894325E-1
2.405546204E0,2.090519853E-2,-3.422061205E-1,3.407414258E-1
2.408031934E0,3.049229458E-2,-3.113143444E-1,3.258281648E-1
2.410507194E0,4.007939249E-2,-2.708354890E-1,3.098496497E-1
2.412982454E0,5.073172227E-2,-2.282261699E-1,3.013277948E-1
2.415457767E0,6.244928762E-2,-1.877473146E-1,2.874797583E-1
2.417933027E0,7.842778414E-2,-1.493989378E-1,2.746969759E-1
2.420408340E0,8.801487833E-2,-1.131810099E-1,2.629793882E-1
2.422883600E0,9.866721183E-2,-7.696308941E-2,2.512618303E-1
2.425358913E0,1.125152409E-1,-4.394086078E-2,2.331528813E-1
2.427834173E0,1.231675670E-1,-1.624480449E-2,2.235657871E-1
2.430309486E0,1.338198930E-1,9.320789017E-3,2.118482143E-1
2.432784798E0,1.476679295E-1,3.382114694E-2,1.980001926E-1
2.435260059E0,1.604507267E-1,5.725627393E-2,1.873478591E-1
2.437762715E0,1.721682847E-1,7.643046975E-2,1.734998226E-1
2.440238027E0,1.849510819E-1,9.453943372E-2,1.553908736E-1
2.442713340E0,1.892120093E-1,1.137136221E-1,1.404775977E-1
2.445188600E0,1.934729517E-1,1.307573467E-1,1.255643368E-1
2.447663861E0,1.924077123E-1,1.392792165E-1,1.063901484E-1
2.450139173E0,1.945381761E-1,1.499315500E-1,8.721595258E-2
2.452614434E0,1.945381761E-1,1.573881805E-1,7.017222792E-2
2.455089746E0,1.956034154E-1,1.648448110E-1,5.312849581E-2
2.457565059E0,2.009295821E-1,1.616491079E-1,4.460663348E-2
2.460040319E0,2.179733068E-1,1.509967744E-1,3.288906813E-2
2.462515631E0,2.403431982E-1,1.318225861E-1,2.223674022E-2
2.464990892E0,2.733654380E-1,1.243659556E-1,1.478010789E-2
2.467464590E0,3.127790391E-1,1.254311949E-1,6.258244161E-3
2.469939902E0,3.543231487E-1,1.222354919E-1,-1.198387123E-3
2.472415215E0,3.948020041E-1,1.158440933E-1,-5.459319334E-3
2.474890475E0,4.299546778E-1,1.062569916E-1,-1.504641678E-2
2.477365736E0,4.661726058E-1,9.560466558E-2,-2.037258074E-2
2.479841048E0,5.066514611E-1,9.240896255E-2,-1.824211515E-2
2.482316361E0,5.407389402E-1,9.666989744E-2,-1.930734888E-2
2.484791673E0,5.769568086E-1,1.062569916E-1,-2.143781446E-2
2.487266934E0,6.133078933E-1,1.201050207E-1,-2.143781446E-2
2.489742194E0,6.420692205E-1,1.328878254E-1,-2.143781446E-2
2.492217506E0,6.708304882E-1,1.488663107E-1,-2.143781446E-2
2.494692767E0,7.017222643E-1,1.584534049E-1,-2.143781446E-2
2.497132663E0,7.240921259E-1,1.605838835E-1,-1.930734888E-2
2.499607923E0,7.496577501E-1,1.552577168E-1,-1.398118306E-2
2.502083236E0,7.720276117E-1,1.499315500E-1,-9.720250964E-3
2.504558496E0,7.890713811E-1,1.424749196E-1,-5.459319334E-3
2.507033809E0,8.157021999E-1,1.382139921E-1,5.193010904E-3
2.509509069E0,8.402025700E-1,1.360835135E-1,1.584534161E-2
2.511984381E0,8.625724316E-1,1.424749196E-1,2.756290510E-2
2.514459642E0,8.945294023E-1,1.509967744E-1,3.608476743E-2
2.516934954E0,9.286168814E-1,1.627143472E-1,4.567186534E-2
2.519410215E0,9.637695551E-1,1.733666807E-1,5.525896326E-2
2.521885527E0,9.935960770E-1,1.861494780E-1,6.058513001E-2
2.524360788E0,1.029814005E0,1.925408691E-1,6.804175675E-2
2.526834590E0,1.068162441E0,1.968017966E-1,6.910699606E-2
2.529309850E0,1.109706521E0,2.063889056E-1,6.591129303E-2
2.531785163E0,1.153381109E0,2.138455361E-1,6.271559745E-2
2.534260423E0,1.200251341E0,2.234326303E-1,5.632419512E-2
2.536735736E0,1.248186827E0,2.330197245E-1,4.673709720E-2
2.539210996E0,1.297187567E0,2.479329854E-1,3.395430371E-2
2.541686309E0,1.339796782E0,2.703028917E-1,1.478010789E-2
2.544161569E0,1.384536624E0,2.884118557E-1,-2.263620263E-3
2.546636881E0,1.425015450E0,3.065207899E-1,-2.143781446E-2
2.549112142E0,1.467624784E0,3.246297538E-1,-4.806863889E-2
2.551587454E0,1.503842711E0,3.438039720E-1,-7.363422960E-2
2.554062715E0,1.531538725E0,3.587172329E-1,-1.023955271E-1
2.556535111E0,1.559234858E0,3.704347908E-1,-1.332872808E-1
2.559010371E0,1.581604719E0,3.789566457E-1,-1.663095057E-1
2.561485684E0,1.603974581E0,3.938699067E-1,-2.025274336E-1
2.563960944E0,1.622083545E0,4.066527188E-1,-2.398105860E-1
2.566436256E0,1.636996865E0,4.194355011E-1,-2.781589627E-1
2.568911517E0,1.651910067E0,4.322183132E-1,-3.175725937E-1
2.571386829E0,1.668953896E0,4.407401681E-1,-3.548557460E-1
2.573862090E0,1.678540945E0,4.545882046E-1,-3.963998258E-1
2.576337402E0,1.692389011E0,4.663057625E-1,-4.390091598E-1
2.578812663E0,1.700910807E0,4.726971686E-1,-4.805532396E-1
2.581287975E0,1.712628365E0,4.769580960E-1,-5.178363919E-1
2.583763288E0,1.725411177E0,4.812190235E-1,-5.551195741E-1
2.586270267E0,1.732867837E0,4.833494723E-1,-5.881417990E-1
2.588745579E0,1.743520141E0,4.790885448E-1,-6.232944727E-1
2.591220840E0,1.753107190E0,4.780233204E-1,-6.573819518E-1
2.593696204E0,1.762694359E0,4.748276174E-1,-6.840127707E-1
2.596171413E0,1.772281408E0,4.663057625E-1,-7.117088437E-1
2.598646725E0,1.779738069E0,4.556534290E-1,-7.351439595E-1
2.601121986E0,1.789325118E0,4.428706169E-1,-7.543181181E-1
2.603597298E0,1.798912287E0,4.279573560E-1,-7.639052272E-1
2.606072611E0,1.803173184E0,4.151745737E-1,-7.702966332E-1
2.608547923E0,1.809564590E0,4.013265371E-1,-7.756227851E-1
2.611023184E0,1.813825488E0,3.853480518E-1,-7.777532339E-1
2.613498444E0,1.821282148E0,3.704347908E-1,-7.777532339E-1
2.615972402E0,1.823412657E0,3.587172329E-1,-7.734923363E-1
2.618447715E0,1.823412657E0,3.512606025E-1,-7.649704814E-1
2.620922975E0,1.827673554E0,3.480648994E-1,-7.564486265E-1
2.623398288E0,1.820216894E0,3.459344208E-1,-7.426005602E-1
2.625873548E0,1.814890742E0,3.459344208E-1,-7.287525535E-1
2.628348861E0,1.809564590E0,3.469996452E-1,-7.149044871E-1
2.630824121E0,1.804238439E0,3.459344208E-1,-7.010564804E-1
2.633299434E0,1.796781778E0,3.448691964E-1,-6.818822622E-1
2.635774746E0,1.790390372E0,3.438039720E-1,-6.616428494E-1
2.638250006E0,1.782933831E0,3.448691964E-1,-6.435338855E-1
2.640725319E0,1.773346663E0,3.406082690E-1,-6.169030666E-1
2.643200579E0,1.764824867E0,3.363473415E-1,-5.892069936E-1
2.645674642E0,1.755237699E0,3.310211599E-1,-5.583152771E-1
2.648149902E0,1.744585395E0,3.235645294E-1,-5.316844583E-1
2.650625215E0,1.725411177E0,3.086512685E-1,-4.997274280E-1
2.653100475E0,1.713693619E0,3.065207899E-1,-4.699009061E-1
2.655575736E0,1.699845552E0,3.075860441E-1,-4.443353117E-1
2.658051048E0,1.681736588E0,3.182383776E-1,-4.166392684E-1
2.660526309E0,1.663627625E0,3.363473415E-1,-3.932041526E-1
2.663001621E0,1.648714423E0,3.576519787E-1,-3.697690070E-1
2.665476934E0,1.625279307E0,3.896089792E-1,-3.473991156E-1
2.667952194E0,1.611431241E0,4.215659797E-1,-3.314206302E-1
2.670427506E0,1.590126634E0,4.460663199E-1,-3.133116663E-1
2.672902767E0,1.567756653E0,4.726971686E-1,-3.015941083E-1
2.675339486E0,1.542191148E0,4.971975088E-1,-2.952027023E-1
2.677814746E0,1.515560269E0,5.227631330E-1,-2.845503688E-1
2.680290059E0,1.492125154E0,5.451329947E-1,-2.792242169E-1
2.682765319E0,1.471885681E0,5.685681105E-1,-2.792242169E-1
2.685240631E0,1.455907226E0,5.856118798E-1,-2.802894413E-1
2.687715892E0,1.438863516E0,5.941337347E-1,-2.845503688E-1
2.690191204E0,1.415428400E0,5.973294377E-1,-2.909417748E-1
2.692666517E0,1.402645588E0,6.005251408E-1,-2.952027023E-1
2.695141777E0,1.386667132E0,5.951989293E-1,-3.015941083E-1
2.697617038E0,1.369623303E0,5.866770744E-1,-3.090507388E-1
2.700092350E0,1.352579594E0,5.792204738E-1,-3.101159632E-1
2.702567611E0,1.335535884E0,5.653724074E-1,-3.133116663E-1
2.705055631E0,1.322753072E0,5.483286977E-1,-3.207682967E-1
2.707530892E0,1.307839870E0,5.355458856E-1,-3.303554058E-1
2.710006152E0,1.287600398E0,5.206326246E-1,-3.420729637E-1
2.712481465E0,1.264165282E0,5.067846179E-1,-3.537905216E-1
2.714956725E0,1.239664912E0,4.950670600E-1,-3.623123765E-1
2.717432038E0,1.213034153E0,4.876104295E-1,-3.740299344E-1
2.719907298E0,1.189599037E0,4.854799509E-1,-3.836170435E-1
2.722382611E0,1.159772396E0,4.854799509E-1,-4.006607831E-1
2.724857923E0,1.128880739E0,4.876104295E-1,-4.198349714E-1
2.727333184E0,1.095858455E0,4.801537991E-1,-4.390091598E-1
2.729808496E0,1.060705781E0,4.790885448E-1,-4.613790512E-1
2.732283756E0,1.024487853E0,4.812190235E-1,-4.837489426E-1
2.734779590E0,9.861394763E-1,4.854799509E-1,-5.039883852E-1
2.737254902E0,9.499215484E-1,4.886756539E-1,-5.274235010E-1
2.739730163E0,9.147688746E-1,4.780233204E-1,-5.519238710E-1
2.742205475E0,8.785509467E-1,4.599143565E-1,-5.721632838E-1
2.744680736E0,8.423330188E-1,4.375444651E-1,-5.924026966E-1
2.747156048E0,8.071803451E-1,4.130440950E-1,-6.105116606E-1
2.749631361E0,7.805495262E-1,3.800218701E-1,-6.307511330E-1
2.752106621E0,7.496577501E-1,3.501953483E-1,-6.456643939E-1
2.754581934E0,7.187659740E-1,3.363473415E-1,-6.573819518E-1
2.757057194E0,6.910699010E-1,3.278254569E-1,-6.712299585E-1
2.759532506E0,6.559172273E-1,3.182383776E-1,-6.872084737E-1
2.762007819E0,6.154384017E-1,3.033251166E-1,-6.978607774E-1
2.764480684E0,5.758916140E-1,2.905423045E-1,-7.095783353E-1
2.766955996E0,5.449998379E-1,2.788247466E-1,-7.181001902E-1
2.769431256E0,5.119776130E-1,2.607157826E-1,-7.244915962E-1
2.771906569E0,4.746944606E-1,2.415415943E-1,-7.266221046E-1
2.774381829E0,4.416722357E-1,2.255630940E-1,-7.298177481E-1
2.776857142E0,4.129109383E-1,2.138455361E-1,-7.319482565E-1
2.779332454E0,3.820191920E-1,2.117150575E-1,-7.340787053E-1
2.781807715E0,3.543231487E-1,2.181064636E-1,-7.362091541E-1
2.784283027E0,3.255618513E-1,2.340849638E-1,-7.372744083E-1
2.786758288E0,2.978657782E-1,2.468677461E-1,-7.330134511E-1
2.789233600E0,2.680392563E-1,2.564548552E-1,-7.255568504E-1
2.791708861E0,2.403431982E-1,2.671071887E-1,-7.202306986E-1
2.794181048E0,2.126471400E-1,2.734985650E-1,-7.127740383E-1
2.796656361E0,1.817553788E-1,2.788247466E-1,-7.063826323E-1
2.799131673E0,1.540593207E-1,2.873466015E-1,-7.010564804E-1
2.801606934E0,1.242327988E-1,2.990641594E-1,-6.989260316E-1
2.804082194E0,9.973244369E-2,3.129121959E-1,-6.935998797E-1
2.806557506E0,7.736254483E-2,3.320863843E-1,-6.914693713E-1
2.809032767E0,6.244928762E-2,3.533910513E-1,-6.904041767E-1
2.811508131E0,4.966649041E-2,3.789566457E-1,-6.882736683E-1
2.813983392E0,3.901416063E-2,4.109136462E-1,-6.840127707E-1
2.816458704E0,2.729659714E-2,4.524577260E-1,-6.765561104E-1
2.818933965E0,1.877473295E-2,4.971975088E-1,-6.659038067E-1
2.821409225E0,1.664426550E-2,5.483286977E-1,-6.584471464E-1
2.823852402E0,1.557903271E-2,6.005251408E-1,-6.467295885E-1
2.826327663E0,1.344856713E-2,6.537867785E-1,-6.318163276E-1
2.828802975E0,1.451379992E-2,7.006570101E-1,-6.200987697E-1
2.831278236E0,1.664426550E-2,7.443315983E-1,-6.073159575E-1
2.833753548E0,1.344856713E-2,7.848104239E-1,-5.902722478E-1
2.836228809E0,1.451379992E-2,8.220936060E-1,-5.774894357E-1
2.838704121E0,1.344856713E-2,8.636376858E-1,-5.657718778E-1
2.841179434E0,1.238333434E-2,8.987903595E-1,-5.508586168E-1
2.843654694E0,1.344856713E-2,9.328778386E-1,-5.402063131E-1
2.846129954E0,1.344856713E-2,9.637695551E-1,-5.274235010E-1
2.848605267E0,5.991935730E-3,9.829437733E-1,-5.146406889E-1
2.851080527E0,5.991935730E-3,1.001052737E0,-5.018579364E-1
2.853551465E0,1.731003635E-3,1.018096447E0,-4.922707975E-1
2.856026725E0,-5.725627299E-3,1.034074903E0,-4.816184938E-1
2.858502038E0,-9.986559860E-3,1.047922969E0,-4.699009061E-1
2.860977298E0,1.131810062E-2,1.120358825E0,-4.794880152E-1
2.863452611E0,6.138405204E-2,1.281208992E0,-4.944012761E-1
2.865927871E0,3.155753016E-2,1.255643368E0,-4.539224207E-1
2.868403184E0,-8.921326138E-3,1.153381109E0,-4.166392684E-1
2.870878496E0,-1.318225823E-2,1.110771775E0,-4.049217105E-1
2.873353756E0,-2.170412242E-2,1.088401794E0,-3.953346014E-1
2.875829017E0,-3.448691964E-2,1.069227695E0,-3.846822679E-1
2.878304329E0,-4.407401755E-2,1.045792580E0,-3.750951886E-1
2.880779590E0,-5.472634733E-2,1.014900804E0,-3.718994856E-1
2.883287038E0,-6.857437640E-2,9.722914696E-1,-3.676385581E-1
2.885762350E0,-7.816147059E-2,9.318125844E-1,-3.644428551E-1
2.888237663E0,-8.348763734E-2,9.019860625E-1,-3.591166735E-1
2.890712923E0,-9.627043456E-2,8.817466497E-1,-3.537905216E-1
2.893188236E0,-1.026618332E-1,8.551158309E-1,-3.484643400E-1
2.895663496E0,-1.058575287E-1,8.370068669E-1,-3.442034125E-1
2.898138756E0,-1.101184636E-1,8.263545036E-1,-3.356815577E-1
2.900614069E0,-1.175750941E-1,8.135717511E-1,-3.292901516E-1
2.903089381E0,-1.218360290E-1,8.114412427E-1,-3.207682967E-1
2.905564642E0,-1.271621883E-1,8.061150908E-1,-3.122464418E-1
2.908039954E0,-1.303578913E-1,8.039846420E-1,-3.026593328E-1
2.910515215E0,-1.335535944E-1,8.007889390E-1,-2.973331809E-1
2.912987975E0,-1.346188188E-1,7.922670841E-1,-2.888112962E-1
2.915463236E0,-1.410102248E-1,7.794842720E-1,-2.824199200E-1
2.917938496E0,-1.474016160E-1,7.667014599E-1,-2.760285139E-1
2.920413809E0,-1.495320797E-1,7.560491562E-1,-2.696371078E-1
2.922889069E0,-1.569887102E-1,7.453967929E-1,-2.611152530E-1
2.925364434E0,-1.580539495E-1,7.496577501E-1,-2.557890713E-1
2.927839694E0,-1.612496525E-1,7.517881989E-1,-2.472672164E-1
2.930314954E0,-1.729672104E-1,7.240921259E-1,-2.376801223E-1
2.932790267E0,-1.910761744E-1,6.953308582E-1,-2.270277888E-1
2.935265527E0,-2.049241960E-1,6.633738875E-1,-2.195711583E-1
2.937740840E0,-2.251636237E-1,6.410039663E-1,-2.163754553E-1
2.940216100E0,-2.400768995E-1,6.228950024E-1,-2.110492885E-1
2.942653027E0,-2.539249361E-1,6.037208438E-1,-2.089188248E-1
2.945128288E0,-2.709686458E-1,5.845466256E-1,-2.057231218E-1
2.947603600E0,-2.912080884E-1,5.643072128E-1,-2.014621943E-1
2.950078861E0,-3.093170524E-1,5.461982489E-1,-2.014621943E-1
2.952554173E0,-3.306216896E-1,5.376763940E-1,-1.972012669E-1
2.955029434E0,-3.540568352E-1,5.248935819E-1,-1.950708032E-1
2.957504746E0,-3.742962480E-1,5.067846179E-1,-1.950708032E-1
2.959980006E0,-3.945356905E-1,4.876104295E-1,-1.897446364E-1
2.962455319E0,-4.190360308E-1,4.599143565E-1,-1.908098608E-1
2.964930579E0,-4.467321038E-1,4.258269072E-1,-1.876141727E-1
2.967405892E0,-4.701672196E-1,3.885437548E-1,-1.854836941E-1
2.969881152E0,-4.989285171E-1,3.480648994E-1,-1.833532304E-1
2.972356517E0,-5.244941115E-1,3.097164929E-1,-1.865489334E-1
2.974831777E0,-5.447335243E-1,2.745638192E-1,-1.844184697E-1
2.977307090E0,-5.681686401E-1,2.436720580E-1,-1.865489334E-1
2.979782402E0,-5.894733071E-1,2.138455361E-1,-1.897446364E-1
2.982257663E0,-6.065170765E-1,1.850842386E-1,-1.908098608E-1
2.984732923E0,-6.214303374E-1,1.605838835E-1,-1.940055639E-1
2.987208236E0,-6.342130899E-1,1.328878254E-1,-1.961360276E-1
2.989683496E0,-6.438001990E-1,1.041265279E-1,-1.972012669E-1
2.992158809E0,-6.533873081E-1,7.749570161E-2,-2.014621943E-1
2.994634069E0,-6.608439088E-1,5.193011090E-2,-2.057231218E-1
2.997109381E0,-6.576482654E-1,3.382114694E-2,-2.078536004E-1
2.999584642E0,-6.544525623E-1,1.464695390E-2,-2.046578974E-1
3.002059902E0,-6.512568593E-1,-9.853405878E-3,-2.078536004E-1
3.004535163E0,-6.416697502E-1,-2.796236612E-2,-2.067883611E-1
3.007010475E0,-6.352783442E-1,-3.967992961E-2,-2.057231218E-1
3.009485736E0,-6.214303374E-1,-4.500609636E-2,-1.993317306E-1
3.011961048E0,-5.969299674E-1,-5.033225939E-2,-1.940055639E-1
3.014436361E0,-5.798861980E-1,-5.246272683E-2,-1.908098608E-1
3.016911621E0,-5.617772937E-1,-5.459319428E-2,-1.876141727E-1
3.019386881E0,-5.394073725E-1,-5.033225939E-2,-1.844184697E-1
3.021862194E0,-5.127765536E-1,-4.713656008E-2,-1.854836941E-1
3.024337454E0,-4.840152562E-1,-4.181039706E-2,-1.812227666E-1
3.026812767E0,-4.595148861E-1,-3.222329915E-2,-1.748313755E-1
3.029288079E0,-4.264926612E-1,-2.370143496E-2,-1.705704331E-1
3.031795579E0,-3.987966180E-1,-1.198387146E-2,-1.652442664E-1
3.034270892E0,-3.721657991E-1,7.989247679E-4,-1.620485783E-1
3.036746204E0,-3.380783200E-1,1.251648832E-2,-1.588528752E-1
3.039221465E0,-3.039908707E-1,2.636451647E-2,-1.524614692E-1
3.041696725E0,-2.667077184E-1,4.660394415E-2,-1.460700780E-1
3.044172038E0,-2.336854935E-1,6.684337556E-2,-1.460700780E-1
3.046647298E0,-1.995980442E-1,9.773512930E-2,-1.450048387E-1
3.049122611E0,-1.665758193E-1,1.211702600E-1,-1.418091506E-1
3.051597923E0,-1.260969639E-1,1.478010863E-1,-1.396786869E-1
3.054073184E0,-9.094426781E-2,1.680405140E-1,-1.396786869E-1
3.056548496E0,-5.366111174E-2,1.904104054E-1,-1.428743750E-1
3.059023809E0,-1.744319126E-2,2.117150575E-1,-1.450048387E-1
3.061496673E0,1.770949923E-2,2.287587970E-1,-1.482005417E-1
3.063971934E0,5.179695413E-2,2.468677461E-1,-1.535267085E-1
3.066447142E0,8.588441461E-2,2.511286736E-1,-1.609833390E-1
3.068922402E0,1.178414002E-1,2.543243766E-1,-1.695052087E-1
3.071397663E0,1.476679295E-1,2.575200796E-1,-1.790923029E-1
3.073872871E0,1.806901544E-1,2.543243766E-1,-1.876141727E-1
3.076348131E0,2.115819156E-1,2.543243766E-1,-1.982664913E-1
3.078823340E0,2.360822707E-1,2.532591522E-1,-2.035926580E-1
3.081298600E0,2.605826259E-1,2.489982247E-1,-2.131797522E-1
3.083773809E0,2.861482203E-1,2.447372824E-1,-2.259625494E-1
3.086249069E0,3.095833361E-1,2.436720580E-1,-2.344844192E-1
3.088724329E0,3.383446336E-1,2.436720580E-1,-2.430062890E-1
3.091175475E0,3.660407066E-1,2.415415943E-1,-2.493976802E-1
3.093650684E0,3.873453438E-1,2.394111156E-1,-2.568543255E-1
3.096125892E0,4.086500108E-1,2.394111156E-1,-2.685718834E-1
3.098601152E0,4.310199022E-1,2.436720580E-1,-2.749632597E-1
3.101076413E0,4.597811997E-1,2.500634491E-1,-2.813546658E-1
3.103551621E0,4.810858667E-1,2.596505582E-1,-2.856155932E-1
3.106026881E0,5.034557581E-1,2.671071887E-1,-2.941374779E-1
3.108502090E0,5.215647221E-1,2.756290436E-1,-3.015941083E-1
3.110977350E0,5.364779830E-1,2.830856740E-1,-3.111811876E-1
3.113452559E0,5.535216928E-1,2.873466015E-1,-3.133116663E-1
3.115927819E0,5.663045049E-1,2.905423045E-1,-3.186378181E-1
3.118403079E0,5.824161768E-1,2.926727831E-1,-3.218335211E-1
3.120868652E0,5.898727775E-1,2.937380075E-1,-3.218335211E-1
3.123343861E0,6.015903354E-1,3.011946380E-1,-3.239639997E-1
3.125819121E0,6.058512926E-1,3.214340508E-1,-3.292901516E-1
3.128294329E0,6.133078933E-1,3.501953483E-1,-3.356815577E-1
3.130769590E0,6.165035963E-1,3.736304939E-1,-3.420729637E-1
3.133244850E0,6.133078933E-1,3.917394578E-1,-3.452686667E-1
3.135720059E0,6.079817414E-1,4.087831676E-1,-3.473991156E-1
3.138195319E0,5.983946323E-1,4.162397981E-1,-3.516600430E-1
3.140670527E0,5.930684805E-1,4.300878346E-1,-3.516600430E-1
3.143145788E0,5.834813714E-1,4.418053925E-1,-3.569862247E-1
3.145621048E0,5.673697591E-1,4.513925016E-1,-3.601819277E-1
3.148096256E0,5.535216928E-1,4.631100595E-1,-3.601819277E-1
3.150601569E0,5.343475342E-1,4.726971686E-1,-3.601819277E-1
3.153076829E0,5.130428672E-1,4.833494723E-1,-3.644428551E-1
3.155552038E0,4.896077216E-1,4.971975088E-1,-3.687037826E-1
3.158027298E0,4.608464241E-1,5.078498721E-1,-3.697690070E-1
3.160502559E0,4.342156053E-1,5.216978788E-1,-3.718994856E-1
3.162977819E0,4.065195620E-1,5.291544795E-1,-3.718994856E-1
3.165453027E0,3.734973371E-1,5.334154367E-1,-3.655080795E-1
3.167928288E0,3.404751122E-1,5.440677404E-1,-3.665733039E-1
3.170403496E0,3.074528873E-1,5.472634435E-1,-3.644428551E-1
3.172878704E0,2.744306624E-1,5.504591465E-1,-3.612471521E-1
3.175353965E0,2.371474952E-1,5.568505526E-1,-3.601819277E-1
3.177829225E0,1.987991184E-1,5.664376616E-1,-3.559209704E-1
3.180303236E0,1.583202630E-1,5.770899653E-1,-3.516600430E-1
3.182778496E0,1.157109365E-1,5.877423286E-1,-3.452686667E-1
3.185253704E0,7.416684926E-2,5.994598866E-1,-3.410077095E-1
3.187728965E0,2.516612969E-2,6.111774445E-1,-3.378120363E-1
3.190204225E0,-2.489982173E-2,6.228950024E-1,-3.346163332E-1
3.192679434E0,-7.177007198E-2,6.303516626E-1,-3.303554058E-1
3.195154694E0,-1.250317246E-1,6.324821115E-1,-3.207682967E-1
3.197629954E0,-1.814890802E-1,6.356778145E-1,-3.143768907E-1
3.200105163E0,-2.336854935E-1,6.378082633E-1,-3.026593328E-1
3.202580423E0,-2.933385372E-1,6.303516626E-1,-2.920069993E-1
3.205055631E0,-3.519263566E-1,6.154384017E-1,-2.834851444E-1
3.207530892E0,-4.105141759E-1,5.983946323E-1,-2.675066292E-1
3.210004850E0,-4.680367708E-1,5.792204738E-1,-2.504629195E-1
3.212480111E0,-5.266245604E-1,5.611115098E-1,-2.355496585E-1
3.214955319E0,-5.830819011E-1,5.515244007E-1,-2.163754553E-1
3.217430579E0,-6.288869381E-1,5.398068428E-1,-1.982664913E-1
3.219905840E0,-6.704310179E-1,5.280892849E-1,-1.737661362E-1
3.222381048E0,-7.055837512E-1,5.206326246E-1,-1.471353173E-1
3.224856309E0,-7.386059761E-1,4.961322844E-1,-1.130478531E-1
3.227331517E0,-7.631062865E-1,4.726971686E-1,-7.043853402E-2
3.229806777E0,-7.812152505E-1,4.439358711E-1,-2.569874749E-2
3.232281986E0,-7.886719108E-1,4.098483920E-1,2.117150649E-2
3.234757246E0,-7.886719108E-1,3.651086092E-1,6.804175675E-2
3.237232506E0,-7.769543529E-1,3.097164929E-1,1.181077138E-1
3.239706517E0,-7.503235340E-1,2.362154275E-1,1.639127284E-1
3.242181777E0,-7.183665037E-1,1.509967744E-1,2.054568231E-1
3.244656986E0,-6.874747872E-1,6.045197323E-2,2.235657871E-1
3.247132246E0,-6.512568593E-1,-2.263620123E-2,2.246310115E-1
3.249607506E0,-6.107779741E-1,-8.974587917E-2,2.107829899E-1
3.252082715E0,-5.607120395E-1,-1.451379955E-1,1.777607650E-1
3.254557975E0,-5.021241903E-1,-2.005301118E-1,1.213034093E-1
3.257033184E0,-4.339492917E-1,-2.740311921E-1,4.460663348E-2
3.259508444E0,-3.497959077E-1,-3.699021637E-1,-5.552527308E-2
3.261983652E0,-2.262288630E-1,-4.764254689E-1,-1.833532304E-1
3.264458913E0,-6.218297780E-2,-5.999925137E-1,-3.260944486E-1
3.266934173E0,1.434070021E-1,-7.374075651E-1,-4.826837182E-1
3.269408079E0,3.671059310E-1,-8.737573624E-1,-6.414034367E-1
3.271883340E0,5.652392507E-1,-9.866721034E-1,-7.905360460E-1
3.274358600E0,7.219616771E-1,-1.064434052E0,-9.204944968E-1
3.276833809E0,8.380720615E-1,-1.116630554E0,-1.027017832E0
3.279309069E0,8.955946565E-1,-1.144326568E0,-1.116497397E0
3.281784329E0,9.168993235E-1,-1.156044126E0,-1.194259405E0
3.284259538E0,9.105079174E-1,-1.186935902E0,-1.251781940E0
3.286734746E0,9.094427228E-1,-1.257241249E0,-1.283738971E0
3.289210006E0,9.126383662E-1,-1.382938743E0,-1.277347565E0
3.291685267E0,9.051817656E-1,-1.552310824E0,-1.234738231E0
3.294160475E0,8.849423528E-1,-1.733400464E0,-1.162302375E0
3.296635736E0,8.465939164E-1,-1.901707292E0,-1.072822809E0
3.299109798E0,7.837451696E-1,-2.036991835E0,-9.737561345E-1
3.301585059E0,6.846785545E-1,-2.112623453E0,-8.608414531E-1
3.304060267E0,5.663045049E-1,-2.096644878E0,-7.223611474E-1
3.306535527E0,4.235632718E-1,-1.982664943E0,-5.785546899E-1
3.309010788E0,2.723001838E-1,-1.796249151E0,-4.336830080E-1
3.311486048E0,1.135804728E-1,-1.559767485E0,-3.015941083E-1
3.313961256E0,-5.259587988E-2,-1.309437752E0,-1.897446364E-1
3.316436465E0,-2.240983993E-1,-1.051651359E0,-8.641702682E-2
3.318911725E0,-3.870790601E-1,-7.800168991E-1,6.258244161E-3
3.321386934E0,-5.426030755E-1,-5.126433969E-1,1.074553803E-1
3.323862194E0,-6.810833812E-1,-2.655093372E-1,2.384790480E-1
3.326337454E0,-8.078460693E-1,-5.459319428E-2,3.961335421E-1
3.328775111E0,-9.186303020E-1,1.318225861E-1,5.676360726E-1
3.331250319E0,-1.015566587E0,2.937380075E-1,7.402037978E-1
3.333725579E0,-1.105046153E0,4.364792407E-1,9.053149223E-1
3.336200788E0,-1.192395210E0,5.770899653E-1,1.056578040E0
3.338676048E0,-1.284005284E0,7.230269313E-1,1.186536431E0
3.341151309E0,-1.375615239E0,8.678985834E-1,1.301581621E0
3.343626517E0,-1.461899161E0,1.003183246E0,1.398517847E0
3.346101777E0,-1.535400271E0,1.110771775E0,1.484801650E0
3.348577038E0,-1.603575110E0,1.175750971E0,1.557237506E0
3.351052246E0,-1.655771613E0,1.199186087E0,1.622216702E0
3.353527454E0,-1.699446082E0,1.182142377E0,1.679872513E0
3.356002715E0,-1.727142215E0,1.118228316E0,1.740590811E0
3.358479069E0,-1.737794518E0,1.022357345E0,1.791721940E0
3.360954329E0,-1.740990281E0,9.030513167E-1,1.826874614E0
3.363429538E0,-1.725011706E0,7.667014599E-1,1.855635881E0
3.365904798E0,-1.700511336E0,6.260907054E-1,1.873744845E0
3.368380059E0,-1.677076221E0,4.854799509E-1,1.866288304E0
3.370855267E0,-1.652575850E0,3.097164929E-1,1.825809360E0
3.373330475E0,-1.614227533E0,9.027849883E-2,1.754438758E0
3.375805736E0,-1.568422437E0,-1.515294015E-1,1.668154955E0
3.378280944E0,-1.524747968E0,-4.007939398E-1,1.563628912E0
3.380756204E0,-1.480008125E0,-6.575151086E-1,1.442192316E0
3.383231413E0,-1.449116349E0,-9.057143927E-1,1.312233925E0
3.385706673E0,-1.406507015E0,-1.135804653E0,1.169492722E0
3.388214694E0,-1.358571529E0,-1.342459917E0,1.020360112E0
3.390689902E0,-1.312766552E0,-1.533136606E0,8.659012914E-1
3.393165111E0,-1.255244017E0,-1.704639196E0,7.220948339E-1
3.395640371E0,-1.189199567E0,-1.852706552E0,5.921363831E-1
3.398115631E0,-1.126350760E0,-1.972012639E0,4.749607742E-1
3.400590840E0,-1.062436819E0,-2.058296442E0,3.705679476E-1
3.403066100E0,-1.005979419E0,-2.114753962E0,2.768274248E-1
3.405541309E0,-9.537830353E-1,-2.141384602E0,1.937392503E-1
3.408016569E0,-8.994561434E-1,-2.147776127E0,1.138467789E-1
3.410491777E0,-8.600425124E-1,-2.142449856E0,4.141093418E-2
3.412967090E0,-8.302159905E-1,-2.130732298E0,-2.250304818E-2
3.415442298E0,-7.971937656E-1,-2.123275757E0,-7.150376588E-2
3.417896673E0,-7.748238444E-1,-2.129667044E0,-1.045259908E-1
3.420371934E0,-7.631062865E-1,-2.141384602E0,-1.226349548E-1
3.422847142E0,-7.588453889E-1,-2.152036905E0,-1.290263534E-1
3.425322350E0,-7.726933956E-1,-2.162689447E0,-1.279611140E-1
3.427797611E0,-7.918676138E-1,-2.172276497E0,-1.215697154E-1
3.430272871E0,-8.110417724E-1,-2.171211243E0,-1.119826213E-1
3.432748079E0,-8.376725912E-1,-2.157363176E0,-1.034607589E-1
3.435223340E0,-8.706948161E-1,-2.131797552E0,-9.174319357E-2
3.437698548E0,-8.962604403E-1,-2.077470779E0,-7.363422960E-2
3.440173809E0,-9.196955562E-1,-2.002904415E0,-5.765573680E-2
3.442649017E0,-9.463263750E-1,-1.907033443E0,-3.954677656E-2
3.445124277E0,-9.676310420E-1,-1.778140187E0,-1.930734888E-2
3.447618236E0,-9.814790487E-1,-1.635398984E0,4.127778113E-3
3.450093496E0,-9.846747518E-1,-1.489462018E0,3.608476743E-2
3.452568704E0,-9.686962962E-1,-1.337133765E0,7.017222792E-2
3.455043965E0,-9.452611804E-1,-1.178413987E0,1.095858440E-1
3.457519225E0,-9.196955562E-1,-1.018629074E0,1.500647068E-1
3.459994434E0,-8.834776282E-1,-8.588441014E-1,1.873478591E-1
3.462469694E0,-8.387378454E-1,-7.075810432E-1,2.235657871E-1
3.464944902E0,-7.929328084E-1,-5.627093315E-1,2.619141638E-1
3.467420163E0,-7.449973226E-1,-4.348813891E-1,3.034582436E-1
3.469895423E0,-6.959966421E-1,-3.187709749E-1,3.492632806E-1
3.472370631E0,-6.480611563E-1,-2.197043151E-1,4.057206213E-1
3.474845892E0,-6.075822711E-1,-1.302247345E-1,4.579170346E-1
3.477261100E0,-5.724295974E-1,-5.139749497E-2,5.111786723E-1
3.479736309E0,-5.479292274E-1,1.890788600E-2,5.580489635E-1
3.482211569E0,-5.276898146E-1,8.175663650E-2,6.006582975E-1
3.484686777E0,-5.149070024E-1,1.318225861E-1,6.379414201E-1
3.487162038E0,-5.138418078E-1,1.595186442E-1,6.677679420E-1
3.489637298E0,-5.170374513E-1,1.712362021E-1,6.943987608E-1
3.492112506E0,-5.287550688E-1,1.701709777E-1,7.103772759E-1
3.494587767E0,-5.447335243E-1,1.520620137E-1,7.220948339E-1
3.497062975E0,-5.628424883E-1,1.233007237E-1,7.284862399E-1
3.499538236E0,-5.894733071E-1,7.643046975E-2,7.327471375E-1
3.502013444E0,-6.171693802E-1,2.210358530E-2,7.402037978E-1
3.504488704E0,-6.533873081E-1,-3.967992961E-2,7.508561015E-1
3.507013288E0,-6.821485758E-1,-1.078548431E-1,7.593780160E-1
3.509488496E0,-7.098446488E-1,-1.770949960E-1,7.689650655E-1
3.511963756E0,-7.407364249E-1,-2.580527067E-1,7.721607685E-1
3.514438965E0,-7.684324980E-1,-3.358147144E-1,7.742912769E-1
3.516914225E0,-7.908023596E-1,-4.167724252E-1,7.753564715E-1
3.519389486E0,-8.014547229E-1,-4.849473238E-1,7.753564715E-1
3.521864694E0,-8.110417724E-1,-5.424699187E-1,7.710955739E-1
3.524339954E0,-8.163679838E-1,-5.882749557E-1,7.625737190E-1
3.526815163E0,-8.121070266E-1,-6.319494843E-1,7.519213557E-1
3.529290423E0,-7.993242145E-1,-6.777545214E-1,7.412690520E-1
3.531765631E0,-7.822805047E-1,-7.235595584E-1,7.359428406E-1
3.534240892E0,-7.631062865E-1,-7.672340870E-1,7.263557911E-1
3.536708913E0,-7.396711707E-1,-7.896040082E-1,7.093120217E-1
3.539184121E0,-7.236927152E-1,-7.874734998E-1,6.890726089E-1
3.541659381E0,-7.162360549E-1,-7.672340870E-1,6.667027473E-1
3.544134642E0,-7.045184970E-1,-7.310161591E-1,6.443328261E-1
3.546609850E0,-6.959966421E-1,-6.841459274E-1,6.177020073E-1
3.549085111E0,-6.896052361E-1,-6.308842301E-1,5.910711884E-1
3.551560319E0,-6.810833812E-1,-5.765573978E-1,5.655055642E-1
3.554035579E0,-6.746919751E-1,-5.137086511E-1,5.431357026E-1
3.556510788E0,-6.661701202E-1,-4.508598745E-1,5.228962898E-1
3.558986048E0,-6.555177569E-1,-3.848154247E-1,5.037220716E-1
3.561461256E0,-6.395393014E-1,-3.198362291E-1,4.856131077E-1
3.563936517E0,-6.320826411E-1,-2.516613007E-1,4.685693681E-1
3.566412090E0,-6.192998290E-1,-1.834863871E-1,4.568518102E-1
3.568887298E0,-5.969299674E-1,-1.195724085E-1,4.483299553E-1
3.571362559E0,-5.830819011E-1,-5.565842614E-2,4.440690279E-1
3.573837819E0,-5.692338943E-1,1.145125460E-2,4.387428463E-1
3.576313027E0,-5.575163364E-1,8.069140464E-2,4.334166944E-1
3.578788288E0,-5.457987785E-1,1.435401440E-1,4.280905128E-1
3.581263496E0,-5.372769237E-1,1.946713328E-1,4.248948097E-1
3.583738756E0,-5.287550688E-1,2.383458912E-1,4.238295853E-1
3.586214017E0,-5.244941115E-1,2.830856740E-1,4.153077304E-1
3.588689225E0,-5.212984085E-1,3.310211599E-1,4.067858756E-1
3.591164434E0,-5.223636627E-1,3.800218701E-1,3.993292153E-1
3.593639694E0,-5.287550688E-1,4.194355011E-1,3.876116574E-1
3.596092871E0,-5.319507122E-1,4.407401681E-1,3.758940995E-1
3.598568079E0,-5.362116694E-1,4.492620230E-1,3.652417660E-1
3.601043340E0,-5.479292274E-1,4.481967986E-1,3.524589837E-1
3.603518548E0,-5.660381913E-1,4.354139864E-1,3.418066502E-1
3.605993809E0,-5.884081125E-1,4.162397981E-1,3.311543167E-1
3.608469069E0,-6.161041260E-1,3.853480518E-1,3.151758313E-1
3.610944277E0,-6.438001990E-1,3.384777904E-1,2.960016131E-1
3.613419538E0,-6.746919751E-1,2.745638192E-1,2.736317217E-1
3.615894746E0,-7.173013091E-1,1.872147024E-1,2.533923090E-1
3.618370006E0,-7.599105835E-1,8.601756394E-2,2.331528813E-1
3.620845215E0,-8.025199175E-1,-2.902759984E-2,2.150439173E-1
3.623320475E0,-8.419335485E-1,-1.568555683E-1,2.011958808E-1
3.625827663E0,-8.781514764E-1,-2.846835256E-1,1.926740259E-1
3.628302923E0,-9.164998531E-1,-4.093157947E-1,1.798912287E-1
3.630778131E0,-9.495220780E-1,-5.392742157E-1,1.692388952E-1
3.633253392E0,-9.708267450E-1,-6.479279995E-1,1.575213373E-1
3.635728652E0,-9.825443029E-1,-7.374075651E-1,1.447385401E-1
3.638203913E0,-9.963923693E-1,-8.087781668E-1,1.319557428E-1
3.640679121E0,-1.007044673E0,-8.567136526E-1,1.234338731E-1
3.643154381E0,-1.012370825E0,-8.886706233E-1,1.181077138E-1
3.645629590E0,-1.017696977E0,-9.153015018E-1,1.106510833E-1
3.648104798E0,-1.028349280E0,-9.366061091E-1,1.031944528E-1
3.650580059E0,-1.044327855E0,-9.621717334E-1,9.893351793E-2
3.653055319E0,-1.056045413E0,-9.834764004E-1,9.573781490E-2
3.655493496E0,-1.059241056E0,-9.962592125E-1,1.053249165E-1
3.657968704E0,-1.060306311E0,-1.014368176E0,1.191729456E-1
3.660443965E0,-1.068828225E0,-1.035672784E0,1.351514459E-1
3.662919173E0,-1.079480529E0,-1.061238408E0,1.543256342E-1
3.665394434E0,-1.082676172E0,-1.084673524E0,1.671084315E-1
3.667869694E0,-1.086937189E0,-1.108108640E0,1.788259894E-1
3.670344954E0,-1.089067578E0,-1.129413366E0,1.937392503E-1
3.672820163E0,-1.093328595E0,-1.156044126E0,2.054568231E-1
3.675295371E0,-1.097589493E0,-1.181609750E0,2.235657871E-1
3.677770631E0,-1.109307051E0,-1.203979611E0,2.427399755E-1
3.680245892E0,-1.115698457E0,-1.217827678E0,2.608489394E-1
3.682721100E0,-1.119959354E0,-1.219958067E0,2.821536064E-1
3.685230944E0,-1.126350760E0,-1.213566780E0,3.013277948E-1
3.687706204E0,-1.132742167E0,-1.207175374E0,3.162410557E-1
3.690181465E0,-1.128481269E0,-1.192262053E0,3.364804685E-1
3.692656725E0,-1.126350760E0,-1.182675004E0,3.471328020E-1
3.695131934E0,-1.123155117E0,-1.169892192E0,3.588503897E-1
3.697607194E0,-1.118894100E0,-1.160305023E0,3.748288751E-1
3.700082402E0,-1.109307051E0,-1.146457076E0,3.854812086E-1
3.702557611E0,-1.099720001E0,-1.140065670E0,3.940030634E-1
3.705032871E0,-1.090132833E0,-1.135804653E0,3.982639909E-1
3.707508079E0,-1.076284766E0,-1.140065670E0,4.014596939E-1
3.709983340E0,-1.062436819E0,-1.140065670E0,4.057206213E-1
3.712458600E0,-1.043262601E0,-1.136869907E0,4.078511000E-1
3.714932246E0,-1.023023129E0,-1.135804653E0,4.067858756E-1
3.717407506E0,-9.995880127E-1,-1.140065670E0,4.078511000E-1
3.719882715E0,-9.836095572E-1,-1.146457076E0,4.089163244E-1
3.722357975E0,-9.697614908E-1,-1.154978871E0,4.142425060E-1
3.724833236E0,-9.527177811E-1,-1.161370277E0,4.185034335E-1
3.727308444E0,-9.410002232E-1,-1.169892192E0,4.248948097E-1
3.729783704E0,-9.356740713E-1,-1.182675004E0,4.312862158E-1
3.732258913E0,-9.378045201E-1,-1.195457816E0,4.366123974E-1
3.734734173E0,-9.356740713E-1,-1.209305763E0,4.398080707E-1
3.737209434E0,-9.356740713E-1,-1.218892932E0,4.472647011E-1
3.739684642E0,-9.431306720E-1,-1.229545236E0,4.525908828E-1
3.742159902E0,-9.569787383E-1,-1.243393302E0,4.568518102E-1
3.744635371E0,-9.686962962E-1,-1.248719454E0,4.643084407E-1
3.747110684E0,-9.825443029E-1,-1.251915097E0,4.653736651E-1
3.749585840E0,-9.942618608E-1,-1.248719454E0,4.685693681E-1
3.752061152E0,-1.003849030E0,-1.250849843E0,4.760259986E-1
3.754536361E0,-1.021957874E0,-1.252980351E0,4.802869260E-1
3.757011569E0,-1.037936449E0,-1.255110860E0,4.802869260E-1
3.759486829E0,-1.049654007E0,-1.258306503E0,4.824174047E-1
3.761962038E0,-1.058175802E0,-1.263632655E0,4.866783321E-1
3.764437298E0,-1.072023869E0,-1.272154570E0,4.866783321E-1
3.766912506E0,-1.088002324E0,-1.282806873E0,4.898740351E-1
3.769387819E0,-1.103980899E0,-1.293459177E0,4.941349626E-1
3.771863027E0,-1.111437559E0,-1.311568141E0,5.037220716E-1
3.774297663E0,-1.114633203E0,-1.327546597E0,5.069177747E-1
3.776772871E0,-1.121024609E0,-1.338199019E0,5.122439265E-1
3.779248131E0,-1.125285506E0,-1.345655560E0,5.165048838E-1
3.781723340E0,-1.122089863E0,-1.348851323E0,5.239614844E-1
3.784198600E0,-1.119959354E0,-1.341394663E0,5.346138477E-1
3.786673861E0,-1.117828846E0,-1.320090055E0,5.410051942E-1
3.789149069E0,-1.108241796E0,-1.292393923E0,5.495271087E-1
3.791624329E0,-1.093328595E0,-1.263632655E0,5.580489635E-1
3.794099538E0,-1.082676172E0,-1.228479981E0,5.665708184E-1
3.796574798E0,-1.076284766E0,-1.191196799E0,5.729622245E-1
3.799050006E0,-1.069893360E0,-1.146457076E0,5.761579275E-1
3.801525267E0,-1.063502073E0,-1.096391082E0,5.804188251E-1
3.803980788E0,-1.054980159E0,-1.037803292E0,5.857450366E-1
3.806455996E0,-1.045393109E0,-9.792154431E-1,5.910711884E-1
3.808931256E0,-1.033675551E0,-9.153015018E-1,5.963973403E-1
3.811406465E0,-1.030479789E0,-8.481917977E-1,6.081148982E-1
3.813881777E0,-1.019827485E0,-7.746906877E-1,6.155715585E-1
3.816356986E0,-1.014501333E0,-7.011896372E-1,6.219629049E-1
3.818832194E0,-1.010240316E0,-6.266233325E-1,6.315500140E-1
3.821307454E0,-1.005979419E0,-5.541874766E-1,6.443328261E-1
3.823782663E0,-9.974575639E-1,-4.849473238E-1,6.507242322E-1
3.826257923E0,-9.963923693E-1,-4.252942801E-1,6.603113413E-1
3.828733131E0,-9.974575639E-1,-3.709673882E-1,6.720288992E-1
3.831208392E0,-9.963923693E-1,-3.294233084E-1,6.773550510E-1
3.833739225E0,-1.002783775E0,-3.017272651E-1,6.848116517E-1
3.836214486E0,-9.974575639E-1,-2.868140042E-1,6.848116517E-1
3.838689694E0,-9.963923693E-1,-2.793573737E-1,6.752246022E-1
3.841164954E0,-9.931966662E-1,-2.868140042E-1,6.635070443E-1
3.843640215E0,-9.793485999E-1,-3.070534170E-1,6.496589780E-1
3.846115423E0,-9.655005932E-1,-3.379451632E-1,6.251586080E-1
3.848590684E0,-9.505873322E-1,-3.720326424E-1,5.995930433E-1
3.851065892E0,-9.260869622E-1,-4.199681282E-1,5.729622245E-1
3.853541152E0,-8.983908892E-1,-4.753602445E-1,5.399399996E-1
3.856016361E0,-8.696296215E-1,-5.403394699E-1,5.069177747E-1
3.858491621E0,-8.366073966E-1,-6.159709692E-1,4.760259986E-1
3.860966881E0,-7.961285114E-1,-6.958634853E-1,4.408733249E-1
3.863403236E0,-7.471278310E-1,-7.736254930E-1,4.057206213E-1
3.865878496E0,-6.959966421E-1,-8.577789068E-1,3.748288751E-1
3.868353704E0,-6.374087930E-1,-9.525846243E-1,3.418066502E-1
3.870828913E0,-5.617772937E-1,-1.047390342E0,3.119801283E-1
3.873304173E0,-4.904066622E-1,-1.123021960E0,2.810883522E-1
3.875779434E0,-4.115794003E-1,-1.197588205E0,2.544575334E-1
3.878254642E0,-3.274259865E-1,-1.262567401E0,2.288919389E-1
3.880729902E0,-2.368811965E-1,-1.310502887E0,2.075872868E-1
3.883205111E0,-1.474016160E-1,-1.346720815E0,1.894783229E-1
3.885680371E0,-5.898727849E-2,-1.365895033E0,1.724345982E-1
3.888155579E0,3.155753016E-2,-1.362699389E0,1.617822647E-1
3.890630840E0,1.157109365E-1,-1.356307983E0,1.511299312E-1
3.893142975E0,1.956034154E-1,-1.336068511E0,1.479342431E-1
3.895618236E0,2.691044807E-1,-1.306241989E0,1.436733007E-1
3.898093444E0,3.394098580E-1,-1.270024061E0,1.426080763E-1
3.900568704E0,4.022586346E-1,-1.229545236E0,1.500647068E-1
3.903043965E0,4.619116783E-1,-1.185870647E0,1.543256342E-1
3.905519173E0,5.098471642E-1,-1.140065670E0,1.681736708E-1
3.907994434E0,5.577826500E-1,-1.093195438E0,1.798912287E-1
3.910469642E0,6.122426987E-1,-1.048455596E0,1.894783229E-1
3.912944902E0,6.633738875E-1,-1.009042025E0,2.033263594E-1
3.915420163E0,7.134398222E-1,-9.760197401E-1,2.171743810E-1
3.917895371E0,7.720276117E-1,-9.557803273E-1,2.267614752E-1
3.920370631E0,8.455287218E-1,-9.366061091E-1,2.406095117E-1
3.922844381E0,9.286168814E-1,-9.291495085E-1,2.544575334E-1
3.925319642E0,1.014900804E0,-9.248885512E-1,2.629793882E-1
3.927794850E0,1.111836910E0,-9.153015018E-1,2.661750913E-1
3.930270111E0,1.209838390E0,-9.046491385E-1,2.629793882E-1
3.932745371E0,1.304644108E0,-8.886706233E-1,2.480661422E-1
3.935220579E0,1.397319436E0,-8.567136526E-1,2.139786780E-1
3.937695840E0,1.480407596E0,-8.162348270E-1,1.724345982E-1
3.940171048E0,1.553908706E0,-7.576469779E-1,1.149120107E-1
3.942646309E0,1.618887901E0,-6.777545214E-1,4.780233279E-2
3.945121517E0,1.667888641E0,-5.861444473E-1,-2.356828004E-2
3.947596777E0,1.717954516E0,-4.849473238E-1,-1.066564545E-1
3.950072038E0,1.763759613E0,-3.784240186E-1,-1.897446364E-1
3.952540215E0,1.814890742E0,-2.708354890E-1,-2.738980353E-1
3.955015475E0,1.869217634E0,-1.696383655E-1,-3.559209704E-1
3.957490684E0,1.929935932E0,-7.696308941E-2,-4.315525293E-1
3.959965944E0,1.995980382E0,7.989247679E-4,-5.018579364E-1
3.962441204E0,2.071611881E0,6.364767253E-2,-5.604457259E-1
3.964916465E0,2.145112991E0,1.115831584E-1,-6.137073636E-1
3.967391673E0,2.225005388E0,1.403444558E-1,-6.616428494E-1
3.969866934E0,2.308093548E0,1.509967744E-1,-7.117088437E-1
3.972342142E0,2.387986183E0,1.446053833E-1,-7.649704814E-1
3.974817350E0,2.467878580E0,1.254311949E-1,-8.182321191E-1
3.977292611E0,2.556293011E0,1.019960642E-1,-8.725590110E-1
3.979767871E0,2.640446424E0,8.069140464E-2,-9.311468005E-1
3.982247038E0,2.721404076E0,6.471290439E-2,-1.000386953E0
3.984722298E0,2.800231218E0,5.619104207E-2,-1.064300895E0
3.987197559E0,2.877993345E0,6.364767253E-2,-1.127149701E0
3.989672767E0,2.947233438E0,8.921326697E-2,-1.188933253E0
3.992148027E0,3.004755974E0,1.275616586E-1,-1.248586297E0
3.994623236E0,3.053756714E0,1.744319052E-1,-1.309304595E0
3.997098496E0,3.092105150E0,2.298240215E-1,-1.366827130E0
3.999573704E0,3.114475012E0,2.894770801E-1,-1.422219276E0
4.002048965E0,3.120866537E0,3.438039720E-1,-1.477611303E0
4.004524173E0,3.120866537E0,3.917394578E-1,-1.525546789E0
4.006999434E0,3.110214233E0,4.268921316E-1,-1.563895226E0
4.009474694E0,3.087844133E0,4.513925016E-1,-1.607569814E0
4.011948965E0,3.061213493E0,4.641752839E-1,-1.648048639E0
4.014424173E0,3.036713123E0,4.663057625E-1,-1.681070924E0
4.016899434E0,3.013278008E0,4.567186534E-1,-1.716223598E0
4.019374642E0,2.999429941E0,4.418053925E-1,-1.747115254E0
4.021849902E0,2.981320858E0,4.087831676E-1,-1.774811387E0
4.024325111E0,2.966407776E0,3.512606025E-1,-1.799311757E0
4.026800371E0,2.951494455E0,2.734985650E-1,-1.817420721E0
4.029275579E0,2.935515881E0,1.637795717E-1,-1.825942516E0
4.031750840E0,2.933385372E0,6.364767253E-2,-1.829138279E0
4.034226100E0,2.939776897E0,-3.222329915E-2,-1.823812127E0
4.036701309E0,2.949363947E0,-1.248985752E-1,-1.814224958E0
4.039176569E0,2.965342522E0,-2.250304818E-1,-1.799311757E0
4.041650059E0,2.986647129E0,-3.272928596E-1,-1.776941895E0
4.044125267E0,3.002625704E0,-4.327509105E-1,-1.746050119E0
4.046600475E0,3.013278008E0,-5.392742157E-1,-1.703440785E0
4.049075736E0,3.012212753E0,-6.394061446E-1,-1.649113894E0
4.051550996E0,3.005821228E0,-7.278204560E-1,-1.586265087E0
4.054026256E0,2.985581875E0,-8.066477180E-1,-1.512764096E0
4.056501465E0,2.947233438E0,-8.631050587E-1,-1.437132478E0
4.058976673E0,2.901428461E0,-9.057143927E-1,-1.360435724E0
4.061451934E0,2.850297213E0,-9.344756603E-1,-1.291195631E0
4.063927142E0,2.790644169E0,-9.419323206E-1,-1.227281570E0
4.066402402E0,2.730991125E0,-9.344756603E-1,-1.171889424E0
4.068877663E0,2.675599098E0,-9.035838842E-1,-1.122888803E0
4.071351829E0,2.621272087E0,-8.503222466E-1,-1.070692301E0
4.073826986E0,2.568010569E0,-7.896040082E-1,-1.016365409E0
4.076302194E0,2.512618303E0,-7.139724493E-1,-9.705604315E-1
4.078777298E0,2.452965260E0,-6.330147386E-1,-9.290163517E-1
4.081252506E0,2.395442724E0,-5.509917736E-1,-8.917331696E-1
4.083727663E0,2.337920189E0,-4.625774324E-1,-8.651023507E-1
4.086202767E0,2.274006128E0,-3.720326424E-1,-8.491238952E-1
4.088677923E0,2.204766035E0,-2.772268951E-1,-8.427324891E-1
4.091153131E0,2.142982483E0,-1.675078869E-1,-8.459281921E-1
4.093628288E0,2.076938152E0,-4.713656008E-2,-8.565804958E-1
4.096103392E0,2.014089346E0,6.790860742E-2,-8.746894598E-1
4.098578548E0,1.957631946E0,1.659100503E-1,-9.023855329E-1
4.101053756E0,1.904370308E0,2.553896308E-1,-9.268859029E-1
4.103528913E0,1.847913027E0,3.576519787E-1,-9.535167217E-1
4.106004069E0,1.788259983E0,4.577838778E-1,-9.876041412E-1
4.108479225E0,1.728606939E0,5.153064728E-1,-1.028082967E0
4.110954381E0,1.668953896E0,5.270240307E-1,-1.071757555E0
4.113429538E0,1.618887901E0,5.121107697E-1,-1.115432143E0
4.115904694E0,1.573082924E0,5.174369216E-1,-1.158041477E0
4.118379850E0,1.530473590E0,5.653724074E-1,-1.197455049E0
4.120855006E0,1.475081444E0,6.942656040E-1,-1.240064383E0
4.123330163E0,1.399449944E0,8.561810255E-1,-1.289065123E0
4.125805267E0,1.325948834E0,9.563129544E-1,-1.351913810E0
4.128280475E0,1.270556688E0,9.978570342E-1,-1.426480174E0
4.130755371E0,1.215164542E0,1.002117991E0,-1.503176928E0
4.133230527E0,1.168294311E0,9.744219184E-1,-1.570286632E0
4.135705631E0,1.126750231E0,9.179645777E-1,-1.625678778E0
4.138180840E0,1.093728065E0,8.306154609E-1,-1.665092349E0
4.140655996E0,1.063901424E0,7.166355252E-1,-1.686397076E0
4.143131152E0,1.042596817E0,5.962641835E-1,-1.702375531E0
4.145606309E0,1.029814005E0,4.929365814E-1,-1.713027835E0
4.148081413E0,1.022357345E0,4.322183132E-1,-1.708766937E0
4.150556621E0,1.024487853E0,4.151745737E-1,-1.707701683E0
4.153031777E0,1.030879259E0,4.098483920E-1,-1.708766937E0
4.155506934E0,1.030879259E0,3.970656097E-1,-1.706636429E0
4.157982090E0,1.021292210E0,3.746957183E-1,-1.701310277E0
4.160456673E0,1.007444143E0,3.512606025E-1,-1.709832191E0
4.162931829E0,9.893351793E-1,3.459344208E-1,-1.717288733E0
4.165406986E0,9.690957665E-1,3.661738634E-1,-1.725810647E0
4.167882090E0,9.531172514E-1,4.141093493E-1,-1.734332561E0
4.170357298E0,9.456605911E-1,4.929365814E-1,-1.739658713E0
4.172832454E0,9.350082874E-1,6.005251408E-1,-1.750311017E0
4.175307611E0,9.275516272E-1,7.155702710E-1,-1.757767677E0
4.177782715E0,9.254211783E-1,8.338111639E-1,-1.759898067E0
4.180257923E0,9.254211783E-1,9.456605911E-1,-1.759898067E0
4.182733079E0,9.264864326E-1,1.051118731E0,-1.754571915E0
4.185208236E0,9.360735416E-1,1.136337280E0,-1.749245763E0
4.187683340E0,9.371387362E-1,1.204512239E0,-1.743919611E0
4.190134173E0,9.328778386E-1,1.266295791E0,-1.738593459E0
4.192609329E0,9.275516272E-1,1.318492174E0,-1.726875901E0
4.195084486E0,9.200950265E-1,1.370688558E0,-1.713027835E0
4.197559642E0,9.147688746E-1,1.421819806E0,-1.693853617E0
4.200034798E0,9.158340693E-1,1.467624784E0,-1.667222857E0
4.202509954E0,9.158340693E-1,1.503842711E0,-1.641657233E0
4.204985111E0,9.158340693E-1,1.543256402E0,-1.618222117E0
4.207460267E0,9.147688746E-1,1.584800482E0,-1.605439305E0
4.209935423E0,9.019860625E-1,1.611431241E0,-1.593721747E0
4.212410579E0,8.742899895E-1,1.619953156E0,-1.575612783E0
4.214885736E0,8.380720615E-1,1.617822647E0,-1.552177668E0
4.217360892E0,7.986584306E-1,1.617822647E0,-1.526612043E0
4.219855006E0,7.571143508E-1,1.612496495E0,-1.506372690E0
4.222330163E0,7.070484161E-1,1.617822647E0,-1.485067964E0
4.224805319E0,6.537867785E-1,1.638062119E0,-1.464828610E0
4.227280475E0,5.962641835E-1,1.658301473E0,-1.448850036E0
4.229755631E0,5.375432372E-1,1.683867097E0,-1.430741072E0
4.232230788E0,4.853467941E-1,1.719019771E0,-1.413697362E0
4.234705944E0,4.235632718E-1,1.762694359E0,-1.398784161E0
4.237181100E0,3.596493006E-1,1.810629845E0,-1.376414180E0
4.239656256E0,3.031919599E-1,1.860695839E0,-1.347652912E0
4.242131413E0,2.435389012E-1,1.910894871E0,-1.316761136E0
4.244606569E0,1.774944514E-1,1.958830357E0,-1.281608462E0
4.247081725E0,1.189066395E-1,2.000374556E0,-1.248586297E0
4.249561256E0,5.712312087E-2,2.034461975E0,-1.217694521E0
4.252036465E0,-8.921326138E-3,2.063223124E0,-1.184672236E0
4.254511621E0,-7.603100687E-2,2.086658239E0,-1.155910969E0
4.256986777E0,-1.410102248E-1,2.101571560E0,-1.122888803E0
4.259461934E0,-2.070546746E-1,2.109028339E0,-1.088801265E0
4.261937038E0,-2.773600519E-1,2.105832577E0,-1.060039997E0
4.264412194E0,-3.508611321E-1,2.094115019E0,-1.032343984E0
4.266887402E0,-4.222317338E-1,2.079201698E0,-1.007843614E0
4.269362506E0,-4.946675897E-1,2.057897091E0,-9.833432436E-1
4.271837715E0,-5.639077425E-1,2.045114279E0,-9.599081278E-1
4.274312871E0,-6.310173869E-1,2.035527229E0,-9.332773089E-1
4.276788027E0,-6.959966421E-1,2.030200958E0,-9.098421335E-1
4.279263444E0,-7.567148805E-1,2.032331467E0,-8.832113147E-1
4.281738600E0,-8.206288815E-1,2.045114279E0,-8.576457500E-1
4.284213704E0,-8.781514764E-1,2.060027599E0,-8.278192282E-1
4.286688913E0,-9.346088171E-1,2.076005936E0,-7.979927063E-1
4.289164069E0,-9.953271151E-1,2.084527969E0,-7.713618875E-1
4.291639225E0,-1.052849650E0,2.101571560E0,-7.447310090E-1
4.294114381E0,-1.106111288E0,2.119680643E0,-7.191654444E-1
4.296589486E0,-1.157242537E0,2.132463455E0,-6.925346255E-1
4.299064694E0,-1.210504174E0,2.152702808E0,-6.669690013E-1
4.301539798E0,-1.252048254E0,2.174007416E0,-6.382077336E-1
4.304015006E0,-1.298918486E0,2.186790228E0,-6.169030666E-1
4.306490111E0,-1.335136414E0,2.192116499E0,-5.934679508E-1
4.308965527E0,-1.377745748E0,2.191051245E0,-5.668371320E-1
4.311440631E0,-1.422485590E0,2.184659719E0,-5.412715077E-1
4.313915840E0,-1.462964416E0,2.176137924E0,-5.135754943E-1
4.316390944E0,-1.502377987E0,2.152702808E0,-4.890751243E-1
4.318866100E0,-1.546052575E0,2.130332947E0,-4.635095298E-1
4.321341309E0,-1.585466146E0,2.093049765E0,-4.368786812E-1
4.323816413E0,-1.619553685E0,2.047244787E0,-4.091826379E-1
4.326291621E0,-1.646184444E0,1.984395981E0,-3.846822679E-1
4.328766725E0,-1.672815323E0,1.921547174E0,-3.644428551E-1
4.331241934E0,-1.689859033E0,1.852173924E0,-3.388772607E-1
4.333717090E0,-1.694119930E0,1.768020511E0,-3.111811876E-1
4.336192246E0,-1.690924287E0,1.666823387E0,-2.845503688E-1
4.338666361E0,-1.671750069E0,1.546452045E0,-2.611152530E-1
4.341141517E0,-1.636597395E0,1.427145958E0,-2.419410497E-1
4.343616673E0,-1.591857553E0,1.302513719E0,-2.217016220E-1
4.346091777E0,-1.534335017E0,1.158707261E0,-2.025274336E-1
4.348566934E0,-1.468290567E0,1.002117991E0,-1.844184697E-1
4.351042142E0,-1.404376626E0,8.423330188E-1,-1.673747450E-1
4.353517246E0,-1.339397430E0,6.868090034E-1,-1.513962448E-1
4.355992402E0,-1.287200928E0,5.515244007E-1,-1.343525201E-1
4.358467611E0,-1.254178762E0,4.183702767E-1,-1.173087880E-1
4.360942767E0,-1.241395950E0,2.852161527E-1,-9.813459218E-2
4.363417923E0,-1.238200188E0,1.605838835E-1,-7.576470077E-2
4.365893027E0,-1.232874036E0,3.488638252E-2,-5.232957378E-2
4.368368600E0,-1.216895580E0,-8.655018359E-2,-2.463351376E-2
4.370843756E0,-1.184938550E0,-1.994648874E-1,5.193010904E-3
4.373318913E0,-1.129546523E0,-3.134448230E-1,4.354140162E-2
4.375794069E0,-1.048588753E0,-4.189028740E-1,7.549838722E-2
4.378269225E0,-9.527177811E-1,-4.987953603E-1,9.147688746E-2
4.380744381E0,-8.547163606E-1,-5.520570278E-1,9.680305421E-2
4.383219538E0,-7.449973226E-1,-5.957315564E-1,9.254211932E-2
4.385694694E0,-6.395393014E-1,-6.308842301E-1,7.443315536E-2
4.388169850E0,-5.287550688E-1,-6.511237025E-1,4.141093418E-2
4.390644954E0,-4.094489515E-1,-6.564498544E-1,1.997311832E-3
4.393120163E0,-2.944037914E-1,-6.394061446E-1,-4.380770773E-2
4.395595319E0,-1.719019860E-1,-5.967968106E-1,-8.961272985E-2
4.398070579E0,-4.940018058E-2,-5.264914036E-1,-1.332872808E-1
4.400545736E0,6.777545065E-2,-4.338161349E-1,-1.684399694E-1
4.403020892E0,1.753639877E-1,-3.155752718E-1,-1.929403245E-1
4.405496048E0,2.754958868E-1,-1.866820902E-1,-2.131797522E-1
4.407971204E0,3.639102280E-1,-4.713656008E-2,-2.323539555E-1
4.410446309E0,4.363460839E-1,1.094526947E-1,-2.483324558E-1
4.412921517E0,4.991948307E-1,2.777595222E-1,-2.600499988E-1
4.415396673E0,5.599130988E-1,4.545882046E-1,-2.675066292E-1
4.417871829E0,6.175688505E-1,6.410039663E-1,-2.728328109E-1
4.420346986E0,6.687000394E-1,8.188979030E-1,-2.738980353E-1
4.422822142E0,7.145050764E-1,9.904004335E-1,-2.728328109E-1
4.425297246E0,7.613753080E-1,1.146989703E0,-2.696371078E-1
4.427771934E0,8.029193878E-1,1.285470009E0,-2.664414048E-1
4.430247090E0,8.359416127E-1,1.420754552E0,-2.621804774E-1
4.432722246E0,8.540505767E-1,1.552843451E0,-2.493976802E-1
4.435197402E0,8.721595407E-1,1.661497235E0,-2.259625494E-1
4.437672559E0,8.742899895E-1,1.753107190E0,-1.897446364E-1
4.440147715E0,8.625724316E-1,1.831934452E0,-1.450048387E-1
4.442622871E0,8.455287218E-1,1.890655518E0,-1.002650559E-1
4.445098027E0,8.157021999E-1,1.936460495E0,-5.126433820E-2
4.447573184E0,7.720276117E-1,1.969482660E0,-1.331541280E-4
4.450048340E0,7.251573801E-1,1.970547915E0,5.206326395E-2
4.452523496E0,6.676347852E-1,1.925808191E0,1.021292135E-1
4.454998652E0,5.951989293E-1,1.834064960E0,1.585865617E-1
4.457438184E0,5.162385702E-1,1.685997605E0,2.171743810E-1
4.459913340E0,4.267589748E-1,1.482538104E0,2.810883522E-1
4.462388496E0,3.351489305E-1,1.227947354E0,3.503285050E-1
4.464863652E0,2.382127345E-1,9.488562942E-1,4.248948097E-1
4.467338809E0,1.306242049E-1,6.697652340E-1,5.037220716E-1
4.469813965E0,1.983996481E-2,3.970656097E-1,5.814840794E-1
4.472289121E0,-9.094426781E-2,1.264964193E-1,6.581808329E-1
4.474764277E0,-2.102503628E-1,-1.398118287E-1,7.306166887E-1
4.477239434E0,-3.402087986E-1,-3.880111277E-1,7.924002409E-1
4.479714590E0,-4.722976983E-1,-6.234276295E-1,8.456618786E-1
4.482189746E0,-5.937342644E-1,-8.407351375E-1,8.893364072E-1
4.484664902E0,-7.130403519E-1,-1.006911516E0,9.276847839E-1
4.487175059E0,-8.259550333E-1,-1.099586844E0,9.447285533E-1
4.489650215E0,-9.292826653E-1,-1.140065670E0,9.351414442E-1
4.492125371E0,-1.034740686E0,-1.120891452E0,8.797492981E-1
4.494600527E0,-1.146590233E0,-1.058042645E0,7.817478776E-1
4.497075684E0,-1.259504914E0,-9.493889213E-1,6.571156383E-1
4.499550840E0,-1.362832546E0,-8.109086156E-1,5.260919333E-1
4.502025996E0,-1.451246858E0,-6.617760062E-1,3.950682878E-1
4.504501152E0,-1.518356562E0,-5.382089615E-1,2.683055699E-1
4.506976309E0,-1.559900641E0,-4.817516208E-1,1.596518010E-1
4.509451465E0,-1.583335757E0,-5.147738457E-1,5.738943070E-2
4.511926621E0,-1.588661909E0,-6.159709692E-1,-2.676397935E-2
4.514401777E0,-1.572683454E0,-7.704297900E-1,-8.748225868E-2
4.516826465E0,-1.533269763E0,-9.781502485E-1,-1.279611140E-1
4.519301569E0,-1.454442501E0,-1.212501526E0,-1.482005417E-1
4.521776725E0,-1.339397430E0,-1.461766005E0,-1.482005417E-1
4.524251881E0,-1.192395210E0,-1.734465718E0,-1.375482082E-1
4.526727038E0,-1.009175181E0,-2.025274277E0,-1.183740199E-1
4.529202194E0,-7.758890986E-1,-2.348039865E0,-1.130478531E-1
4.531677350E0,-4.669715166E-1,-2.719806194E0,-1.290263534E-1
4.534152506E0,-1.271621883E-1,-3.153489113E0,-1.684399694E-1
4.536627663E0,1.476679295E-1,-3.589169502E0,-1.790923029E-1
4.539102819E0,3.266270757E-1,-3.967327356E0,-1.407439113E-1
4.541577975E0,4.097152650E-1,-4.231504917E0,-5.126433820E-2
4.544053131E0,4.011933804E-1,-4.366789818E0,7.017222792E-2
4.546577975E0,3.191704452E-1,-4.379572392E0,1.980001926E-1
4.549053131E0,1.977338791E-1,-4.282636166E0,3.173062801E-1
4.551528288E0,3.688369319E-2,-4.099416256E0,4.185034335E-1
4.554003444E0,-1.324883550E-1,-3.845890760E0,5.101134777E-1
4.556478600E0,-3.071865737E-1,-3.545495033E0,5.900059342E-1
4.558953704E0,-4.712324440E-1,-3.217403173E0,6.624417901E-1
4.561428913E0,-6.161041260E-1,-2.881854773E0,7.380733490E-1
4.563904017E0,-7.322145700E-1,-2.553629875E0,8.296833634E-1
4.566379173E0,-8.323464394E-1,-2.231929541E0,9.180977345E-1
4.568854381E0,-9.143694043E-1,-1.927272797E0,1.012903452E0
4.571329486E0,-9.889357090E-1,-1.626877189E0,1.114100575E0
4.573804694E0,-1.058175802E0,-1.352046967E0,1.216362953E0
4.576258340E0,-1.119959354E0,-1.089999676E0,1.307973027E0
4.578733496E0,-1.178547144E0,-8.471265435E-1,1.383604527E0
4.581208652E0,-1.240330696E0,-6.372756362E-1,1.445388079E0
4.583683809E0,-1.293592334E0,-4.636426866E-1,1.496519208E0
4.586158965E0,-1.329810262E0,-3.304885328E-1,1.538063288E0
4.588634121E0,-1.364962935E0,-2.378132790E-1,1.570020318E0
4.591109277E0,-1.391593814E0,-1.930734813E-1,1.607303500E0
4.593584434E0,-1.409702778E0,-1.834863871E-1,1.644719839E0
4.596059590E0,-1.418224573E0,-2.005301118E-1,1.682002902E0
4.598534746E0,-1.418224573E0,-2.474003732E-1,1.720351338E0
4.601009902E0,-1.413963675E0,-3.272928596E-1,1.758699775E0
4.603485006E0,-1.406507015E0,-4.327509105E-1,1.800243855E0
4.605972923E0,-1.392659068E0,-5.552527308E-1,1.837526917E0
4.608448079E0,-1.385202408E0,-6.894720793E-1,1.864157796E0
4.610923236E0,-1.385202408E0,-8.141043186E-1,1.878005862E0
4.613398392E0,-1.390528560E0,-9.291495085E-1,1.872679710E0
4.615873548E0,-1.409702778E0,-1.031411886E0,1.856701136E0
4.618348704E0,-1.432072639E0,-1.148587465E0,1.833266020E0
4.620823861E0,-1.455507755E0,-1.287067771E0,1.806635261E0
4.623299017E0,-1.477877617E0,-1.439396143E0,1.766156316E0
4.625774173E0,-1.500247598E0,-1.597050667E0,1.712894678E0
4.628249329E0,-1.519421697E0,-1.744052768E0,1.645784974E0
4.630724486E0,-1.527943611E0,-1.867619753E0,1.575346470E0
4.633199642E0,-1.525813103E0,-1.966686487E0,1.503975868E0
4.635669329E0,-1.517291307E0,-2.034861326E0,1.430474758E0
4.638144486E0,-1.503443241E0,-2.079601288E0,1.354843259E0
4.640619642E0,-1.471486211E0,-2.103036404E0,1.282407403E0
4.643094798E0,-1.427811742E0,-2.100905895E0,1.209971547E0
4.645569954E0,-1.380941510E0,-2.071079254E0,1.143927097E0
4.648045111E0,-1.337266922E0,-2.022078514E0,1.083208799E0
4.650520267E0,-1.289331436E0,-1.961360335E0,1.024621010E0
4.652995423E0,-1.245656848E0,-1.894250631E0,9.745550752E-1
4.655470579E0,-1.213699818E0,-1.813292861E0,9.287500381E-1
4.657945736E0,-1.190264702E0,-1.732335210E0,8.882712126E-1
4.660420892E0,-1.178547144E0,-1.647116542E0,8.456618786E-1
4.662896048E0,-1.174286246E0,-1.552310824E0,8.051829934E-1
4.665370892E0,-1.175351501E0,-1.462831259E0,7.636389136E-1
4.667846048E0,-1.175351501E0,-1.384003997E0,7.274209857E-1
4.670321204E0,-1.175351501E0,-1.327546597E0,6.912030578E-1
4.672796361E0,-1.174286246E0,-1.273219824E0,6.581808329E-1
4.675271517E0,-1.172155738E0,-1.232740879E0,6.262238622E-1
4.677746673E0,-1.173220992E0,-1.212501526E0,5.921363831E-1
4.680221829E0,-1.170025349E0,-1.198653460E0,5.484618545E-1
4.682696986E0,-1.166829586E0,-1.188001156E0,5.090482235E-1
4.685172142E0,-1.164699197E0,-1.172022581E0,4.760259986E-1
4.687647298E0,-1.160438180E0,-1.143261313E0,4.419385493E-1
4.690122454E0,-1.150851130E0,-1.096391082E0,4.110468030E-1
4.692597611E0,-1.138068318E0,-1.038868546E0,3.876116574E-1
4.695084538E0,-1.123155117E0,-9.781502485E-1,3.684374690E-1
4.697559746E0,-1.113567948E0,-9.206276536E-1,3.524589837E-1
4.700034902E0,-1.101850390E0,-8.620398045E-1,3.450023532E-1
4.702510059E0,-1.084806681E0,-8.162348270E-1,3.418066502E-1
4.704985215E0,-1.074154377E0,-7.906692028E-1,3.354152441E-1
4.707460371E0,-1.063502073E0,-7.768211961E-1,3.311543167E-1
4.709935475E0,-1.049654007E0,-7.587122321E-1,3.343500197E-1
4.712410631E0,-1.040066838E0,-7.310161591E-1,3.428718746E-1
4.714885840E0,-1.023023129E0,-7.192986012E-1,3.535242081E-1
4.717360996E0,-1.020892739E0,-7.299509048E-1,3.705679476E-1
4.719836152E0,-1.019827485E0,-7.640383840E-1,3.918725848E-1
4.722311256E0,-1.020892739E0,-8.141043186E-1,4.153077304E-1
4.724787767E0,-1.024088383E0,-8.705616593E-1,4.376776218E-1
4.727262871E0,-1.033675551E0,-9.291495085E-1,4.547213614E-1
4.729738079E0,-1.054980159E0,-9.983896613E-1,4.792217016E-1
4.732213236E0,-1.079480529E0,-1.062303662E0,5.111786723E-1
4.734688392E0,-1.100785136E0,-1.109173894E0,5.410051942E-1
4.737163548E0,-1.123155117E0,-1.137935162E0,5.676360726E-1
4.739638652E0,-1.138068318E0,-1.150717974E0,5.910711884E-1
4.742113861E0,-1.146590233E0,-1.147522330E0,6.102453470E-1
4.744589017E0,-1.157242537E0,-1.128348112E0,6.304848194E-1
4.747064173E0,-1.165764332E0,-1.098521590E0,6.496589780E-1
4.749539329E0,-1.170025349E0,-1.059107900E0,6.667027473E-1
4.752014486E0,-1.174286246E0,-1.007976770E0,6.794854999E-1
4.754455319E0,-1.183873296E0,-9.611064792E-1,6.890726089E-1
4.756930475E0,-1.186003804E0,-9.089100957E-1,6.943987608E-1
4.759405631E0,-1.189199567E0,-8.716269135E-1,6.954640150E-1
4.761880788E0,-1.190264702E0,-8.471265435E-1,6.954640150E-1
4.764355944E0,-1.198786616E0,-8.492570519E-1,6.912030578E-1
4.766831100E0,-1.209438920E0,-8.694964647E-1,6.805507541E-1
4.769306256E0,-1.208373666E0,-8.908011317E-1,6.688331962E-1
4.771781413E0,-1.221156478E0,-9.270190597E-1,6.592460871E-1
4.774256569E0,-1.226482630E0,-9.696283340E-1,6.422023773E-1
4.776731725E0,-1.232874036E0,-1.018629074E0,6.230281591E-1
4.779206881E0,-1.245656848E0,-1.080412626E0,6.070496440E-1
4.781682038E0,-1.258439660E0,-1.145391822E0,5.868102312E-1
4.784190736E0,-1.276548624E0,-1.214631915E0,5.612446666E-1
4.786665892E0,-1.292527080E0,-1.283872128E0,5.420704484E-1
4.789141048E0,-1.306375146E0,-1.352046967E0,5.207657814E-1
4.791616204E0,-1.325549364E0,-1.413830519E0,4.962654412E-1
4.794091309E0,-1.345788717E0,-1.462831259E0,4.728302956E-1
4.796566517E0,-1.355375886E0,-1.492657781E0,4.504604042E-1
4.799041673E0,-1.366028190E0,-1.509701490E0,4.291557670E-1
4.801516829E0,-1.375615239E0,-1.518223405E0,4.057206213E-1
4.803991986E0,-1.378811002E0,-1.523549557E0,3.801550269E-1
4.806467142E0,-1.380941510E0,-1.532071352E0,3.577851355E-1
4.808942298E0,-1.390528560E0,-1.548049927E0,3.375457227E-1
4.811417454E0,-1.393724203E0,-1.565093637E0,3.173062801E-1
4.813891986E0,-1.399050474E0,-1.572550297E0,3.023930192E-1
4.816367142E0,-1.395854712E0,-1.567224145E0,2.981320918E-1
4.818842246E0,-1.383071899E0,-1.553376079E0,2.928059399E-1
4.821317454E0,-1.367093444E0,-1.536332369E0,2.906754613E-1
4.823792559E0,-1.346853971E0,-1.517158151E0,2.928059399E-1
4.826267767E0,-1.327679753E0,-1.492657781E0,3.002625704E-1
4.828742923E0,-1.305309892E0,-1.485201120E0,3.087844253E-1
4.831218079E0,-1.289331436E0,-1.482005477E0,3.141105771E-1
4.833693236E0,-1.268026710E0,-1.476679325E0,3.247629106E-1
4.836168392E0,-1.244591594E0,-1.469222665E0,3.407414258E-1
4.838643496E0,-1.219026089E0,-1.461766005E0,3.599156141E-1
4.841118704E0,-1.192395210E0,-1.446852803E0,3.812202811E-1
4.843559277E0,-1.160438180E0,-1.423417687E0,4.099815488E-1
4.846034434E0,-1.132742167E0,-1.399982452E0,4.419385493E-1
4.848509590E0,-1.106111288E0,-1.376547337E0,4.781564772E-1
4.850984746E0,-1.082676172E0,-1.335003257E0,5.175700784E-1
4.853459902E0,-1.059241056E0,-1.286002517E0,5.612446666E-1
4.855935059E0,-1.034740686E0,-1.230610490E0,5.963973403E-1
4.858410215E0,-1.008109927E0,-1.164566040E0,6.358109713E-1
4.860885371E0,-9.836095572E-1,-1.088934422E0,6.741593480E-1
4.863360527E0,-9.665657878E-1,-1.006911516E0,7.071815729E-1
4.865835684E0,-9.505873322E-1,-9.270190597E-1,7.423342466E-1
4.868310840E0,-9.378045201E-1,-8.396699429E-1,7.838783264E-1
4.870785996E0,-9.282174110E-1,-7.491251230E-1,8.211615086E-1
4.873295631E0,-9.271522164E-1,-6.543194056E-1,8.541837335E-1
4.875770840E0,-9.228912592E-1,-5.477960706E-1,8.861407042E-1
4.878245996E0,-9.250217080E-1,-4.412727654E-1,9.223586321E-1
4.880721152E0,-9.324783683E-1,-3.326190114E-1,9.596418142E-1
4.883196309E0,-9.452611804E-1,-2.239652425E-1,9.884030819E-1
4.885671413E0,-9.569787383E-1,-1.174419373E-1,1.020360112E0
4.888146621E0,-9.729571939E-1,-1.731003635E-2,1.049121380E0
4.890621725E0,-9.889357090E-1,7.323476672E-2,1.076817393E0
4.893096934E0,-9.942618608E-1,1.627143472E-1,1.098122120E0
4.895572090E0,-1.008109927E0,2.383458912E-1,1.113035321E0
4.898047246E0,-1.018762231E0,3.086512685E-1,1.120491982E0
4.900522350E0,-1.032610297E0,3.629781604E-1,1.123687744E0
4.902952298E0,-1.044327855E0,4.087831676E-1,1.123687744E0
4.905427506E0,-1.052849650E0,4.418053925E-1,1.120491982E0
4.907902611E0,-1.066697717E0,4.524577260E-1,1.109839678E0
4.910377767E0,-1.076284766E0,4.481967986E-1,1.097056866E0
4.912852923E0,-1.080545783E0,4.258269072E-1,1.076817393E0
4.915328079E0,-1.088002324E0,3.789566457E-1,1.045925617E0
4.917803236E0,-1.090132833E0,3.139774203E-1,1.013968706E0
4.920278392E0,-1.076284766E0,2.330197245E-1,9.798812270E-1
4.922753548E0,-1.061371565E0,1.275616586E-1,9.351414442E-1
4.925228704E0,-1.034740686E0,9.320789017E-3,8.818798065E-1
4.927703861E0,-9.910661578E-1,-1.217028722E-1,8.200962543E-1
4.930179017E0,-9.356740713E-1,-2.591179311E-1,7.519213557E-1
4.932697819E0,-8.749557734E-1,-4.007939398E-1,6.752246022E-1
4.935172975E0,-7.993242145E-1,-5.446003675E-1,6.017234921E-1
4.937648079E0,-7.109099030E-1,-6.852111220E-1,5.239614844E-1
4.940123288E0,-6.161041260E-1,-8.247566819E-1,4.579170346E-1
4.942598444E0,-5.170374513E-1,-9.568455815E-1,4.014596939E-1
4.945073600E0,-4.115794003E-1,-1.069760323E0,3.535242081E-1
4.947548756E0,-3.114475012E-1,-1.175218344E0,3.173062801E-1
4.950023913E0,-2.102503628E-1,-1.262567401E0,2.885449827E-1
4.952499069E0,-1.069227681E-1,-1.328611851E0,2.651098669E-1
4.954974225E0,-1.424749196E-2,-1.373351693E0,2.491313666E-1
4.957449329E0,7.097115368E-2,-1.395721555E0,2.374138087E-1
4.959924486E0,1.497983932E-1,-1.391460657E0,2.310224175E-1
4.962399954E0,2.201037705E-1,-1.362699389E0,2.288919389E-1
4.964875111E0,2.808220685E-1,-1.313698649E0,2.331528813E-1
4.967350267E0,3.330184817E-1,-1.249784589E0,2.438052148E-1
