"Time (s)","Gyroscope x (rad/s)","Gyroscope y (rad/s)","Gyroscope z (rad/s)"
1.379842250E-1,6.872031838E-3,-1.359135192E-2,-4.275931045E-3
1.404658400E-1,6.872031838E-3,-1.481304597E-2,-3.054236295E-3
1.429447980E-1,5.650337320E-3,-1.114796288E-2,-4.275931045E-3
1.454230280E-1,3.206948051E-3,-1.236965694E-2,-4.275931045E-3
1.479020900E-1,4.428642802E-3,-8.704573847E-3,-3.054236295E-3
1.503819340E-1,1.985253533E-3,-8.704573847E-3,-3.054236295E-3
1.528609440E-1,1.985253533E-3,-8.704573847E-3,-3.054236295E-3
1.553391730E-1,7.635590737E-4,-8.704573847E-3,-1.832541777E-3
1.578182360E-1,-4.581354442E-4,-8.704573847E-3,-3.054236295E-3
1.602980800E-1,-4.581354442E-4,-9.926267900E-3,-3.054236295E-3
1.627770900E-1,-1.679830020E-3,-8.704573847E-3,-1.832541777E-3
1.652553190E-1,-1.679830020E-3,-9.926267900E-3,-3.054236295E-3
1.677343820E-1,-4.581354442E-4,-6.261184346E-3,-3.054236295E-3
1.702142250E-1,-1.679830020E-3,-7.482878864E-3,-3.054236295E-3
1.726932360E-1,-1.679830020E-3,-8.704573847E-3,-3.054236295E-3
1.751714650E-1,-4.581354442E-4,-6.261184346E-3,-1.832541777E-3
1.776504750E-1,-1.679830020E-3,-6.261184346E-3,-6.108472589E-4
1.801303190E-1,-4.581354442E-4,-6.261184346E-3,-6.108472589E-4
1.826093820E-1,-4.581354442E-4,-3.817795310E-3,-6.108472589E-4
1.850876110E-1,-4.581354442E-4,-3.817795310E-3,1.832541777E-3
1.875666210E-1,7.635590737E-4,-5.039489828E-3,6.108472589E-4
1.900464650E-1,7.635590737E-4,-3.817795310E-3,6.108472589E-4
1.925255280E-1,7.635590737E-4,-5.039489828E-3,1.832541777E-3
1.950037570E-1,7.635590737E-4,-3.817795310E-3,6.108472589E-4
1.974827670E-1,1.985253533E-3,-2.596100792E-3,6.108472589E-4
1.999626110E-1,1.985253533E-3,-2.596100792E-3,1.832541777E-3
2.024416730E-1,1.985253533E-3,-2.596100792E-3,3.054236295E-3
2.049199030E-1,7.635590737E-4,-2.596100792E-3,3.054236295E-3
2.073989130E-1,3.206948051E-3,-1.374406274E-3,6.108472589E-4
2.098788090E-1,1.985253533E-3,-1.527118147E-4,1.832541777E-3
2.123578190E-1,4.428642802E-3,-1.527118147E-4,1.832541777E-3
2.148360480E-1,5.650337320E-3,-1.527118147E-4,1.832541777E-3
2.173150590E-1,5.650337320E-3,1.068982761E-3,1.832541777E-3
2.197949550E-1,5.650337320E-3,-1.527118147E-4,1.832541777E-3
2.222739650E-1,5.650337320E-3,-2.596100792E-3,6.108472589E-4
2.247521940E-1,6.872031838E-3,-2.596100792E-3,6.108472589E-4
2.272312050E-1,6.872031838E-3,-1.527118147E-4,1.832541777E-3
2.297111000E-1,5.650337320E-3,-3.817795310E-3,1.832541777E-3
2.321901110E-1,5.650337320E-3,-2.596100792E-3,6.108472589E-4
2.346683400E-1,6.872031838E-3,-1.374406274E-3,6.108472589E-4
2.371473500E-1,8.093725890E-3,-2.596100792E-3,-6.108472589E-4
2.396272460E-1,8.093725890E-3,-3.817795310E-3,6.108472589E-4
2.421062570E-1,8.093725890E-3,-5.039489828E-3,1.832541777E-3
2.445844860E-1,6.872031838E-3,-3.817795310E-3,-6.108472589E-4
2.470634960E-1,9.315420873E-3,-5.039489828E-3,-6.108472589E-4
2.495433920E-1,8.093725890E-3,-6.261184346E-3,-6.108472589E-4
2.520224030E-1,8.093725890E-3,-9.926267900E-3,-1.832541777E-3
2.545006320E-1,6.872031838E-3,-6.261184346E-3,-1.832541777E-3
2.569796420E-1,6.872031838E-3,-6.261184346E-3,-1.832541777E-3
2.594595380E-1,6.872031838E-3,-7.482878864E-3,-3.054236295E-3
2.619384960E-1,6.872031838E-3,-7.482878864E-3,-3.054236295E-3
2.644167780E-1,6.872031838E-3,-9.926267900E-3,-3.054236295E-3
2.668957880E-1,5.650337320E-3,-8.704573847E-3,-3.054236295E-3
2.693756840E-1,5.650337320E-3,-8.704573847E-3,-1.832541777E-3
2.718546420E-1,4.428642802E-3,-9.926267900E-3,-1.832541777E-3
2.743328710E-1,3.206948051E-3,-9.926267900E-3,-1.832541777E-3
2.768119340E-1,3.206948051E-3,-8.704573847E-3,-1.832541777E-3
2.792918300E-1,3.206948051E-3,-8.704573847E-3,-3.054236295E-3
2.817707880E-1,1.985253533E-3,-7.482878864E-3,-3.054236295E-3
2.842490170E-1,7.635590737E-4,-6.261184346E-3,-3.054236295E-3
2.867280800E-1,7.635590737E-4,-6.261184346E-3,-3.054236295E-3
2.892079750E-1,1.985253533E-3,-6.261184346E-3,-3.054236295E-3
2.916869340E-1,-4.581354442E-4,-6.261184346E-3,-3.054236295E-3
2.941651630E-1,7.635590737E-4,-7.482878864E-3,-1.832541777E-3
2.966442250E-1,1.985253533E-3,-7.482878864E-3,-1.832541777E-3
2.991241210E-1,1.985253533E-3,-5.039489828E-3,-1.832541777E-3
3.016030800E-1,1.985253533E-3,-5.039489828E-3,-1.832541777E-3
3.040813090E-1,1.985253533E-3,-2.596100792E-3,-3.054236295E-3
3.065603710E-1,7.635590737E-4,-2.596100792E-3,-3.054236295E-3
3.090402670E-1,7.635590737E-4,-3.817795310E-3,-1.832541777E-3
3.115192250E-1,-4.581354442E-4,-2.596100792E-3,-1.832541777E-3
3.139974550E-1,7.635590737E-4,-2.596100792E-3,-1.832541777E-3
3.164765170E-1,-4.581354442E-4,-1.527118147E-4,6.108472589E-4
3.189564130E-1,-4.581354442E-4,-1.527118147E-4,1.832541777E-3
3.214353710E-1,-1.679830020E-3,-1.374406274E-3,6.108472589E-4
3.239136000E-1,-4.581354442E-4,-1.374406274E-3,1.832541777E-3
3.263926630E-1,-4.581354442E-4,1.068982761E-3,6.108472589E-4
3.288725590E-1,-1.679830020E-3,1.068982761E-3,-6.108472589E-4
3.313515170E-1,-2.901524538E-3,1.068982761E-3,6.108472589E-4
3.338297460E-1,-2.901524538E-3,1.068982761E-3,1.832541777E-3
3.363088090E-1,-2.901524538E-3,2.290677279E-3,1.832541777E-3
3.387887050E-1,-4.123218823E-3,1.068982761E-3,-6.108472589E-4
3.412676630E-1,-4.123218823E-3,2.290677279E-3,6.108472589E-4
3.437458920E-1,-5.344913341E-3,1.068982761E-3,1.832541777E-3
3.462249550E-1,-2.901524538E-3,4.734066315E-3,3.054236295E-3
3.487048500E-1,-4.123218823E-3,2.290677279E-3,3.054236295E-3
3.511838090E-1,-4.123218823E-3,1.068982761E-3,1.832541777E-3
3.536620380E-1,-5.344913341E-3,1.068982761E-3,6.108472589E-4
3.561411000E-1,-4.123218823E-3,-1.527118147E-4,1.832541777E-3
3.586209440E-1,-4.123218823E-3,-1.374406274E-3,1.832541777E-3
3.610999550E-1,-4.123218823E-3,-3.817795310E-3,3.054236295E-3
3.635781840E-1,-1.679830020E-3,-5.039489828E-3,1.832541777E-3
3.660572460E-1,-2.901524538E-3,-3.817795310E-3,3.054236295E-3
3.685371420E-1,-2.901524538E-3,-5.039489828E-3,3.054236295E-3
3.710161000E-1,-4.123218823E-3,-7.482878864E-3,1.832541777E-3
3.734943300E-1,-4.123218823E-3,-8.704573847E-3,3.054236295E-3
3.759733400E-1,-4.123218823E-3,-8.704573847E-3,1.832541777E-3
3.784532360E-1,-4.123218823E-3,-9.926267900E-3,6.108472589E-4
3.809322460E-1,-4.123218823E-3,-9.926267900E-3,6.108472589E-4
3.834104750E-1,-4.123218823E-3,-1.114796288E-2,1.832541777E-3
3.858894860E-1,-4.123218823E-3,-1.236965694E-2,3.054236295E-3
3.883693820E-1,-5.344913341E-3,-1.236965694E-2,1.832541777E-3
3.908483920E-1,-5.344913341E-3,-1.359135192E-2,1.832541777E-3
3.933266210E-1,-6.566607859E-3,-1.359135192E-2,3.054236295E-3
3.958056320E-1,-6.566607859E-3,-1.236965694E-2,1.832541777E-3
3.982855280E-1,-4.123218823E-3,-1.236965694E-2,-6.108472589E-4
4.007645380E-1,-5.344913341E-3,-1.114796288E-2,6.108472589E-4
4.032427670E-1,-6.566607859E-3,-1.114796288E-2,1.832541777E-3
4.057217780E-1,-7.788302377E-3,-1.114796288E-2,6.108472589E-4
4.082016730E-1,-7.788302377E-3,-9.926267900E-3,6.108472589E-4
4.106806840E-1,-7.788302377E-3,-9.926267900E-3,1.832541777E-3
4.131589130E-1,-7.788302377E-3,-9.926267900E-3,-6.108472589E-4
4.156379230E-1,-7.788302377E-3,-8.704573847E-3,1.832541777E-3
4.181178190E-1,-7.788302377E-3,-7.482878864E-3,-1.832541777E-3
4.205968300E-1,-7.788302377E-3,-5.039489828E-3,-1.832541777E-3
4.230750590E-1,-6.566607859E-3,-1.374406274E-3,-6.108472589E-4
4.255540690E-1,-7.788302377E-3,-3.817795310E-3,-6.108472589E-4
4.280339650E-1,-7.788302377E-3,-3.817795310E-3,-1.832541777E-3
4.305129750E-1,-6.566607859E-3,-2.596100792E-3,-6.108472589E-4
4.329912050E-1,-5.344913341E-3,-2.596100792E-3,6.108472589E-4
4.354702150E-1,-6.566607859E-3,-3.817795310E-3,6.108472589E-4
4.379501110E-1,-5.344913341E-3,-3.817795310E-3,6.108472589E-4
4.404291210E-1,-4.123218823E-3,-3.817795310E-3,1.832541777E-3
4.429073500E-1,-4.123218823E-3,-5.039489828E-3,1.832541777E-3
4.453863610E-1,-2.901524538E-3,-6.261184346E-3,1.832541777E-3
4.478662570E-1,-1.679830020E-3,-5.039489828E-3,3.054236295E-3
4.503452150E-1,-1.679830020E-3,-6.261184346E-3,1.832541777E-3
4.528234960E-1,-4.581354442E-4,-3.817795310E-3,4.275931045E-3
4.553025070E-1,7.635590737E-4,-5.039489828E-3,3.054236295E-3
4.577824030E-1,1.985253533E-3,-3.817795310E-3,3.054236295E-3
4.602613610E-1,3.206948051E-3,-5.039489828E-3,3.054236295E-3
4.627396420E-1,3.206948051E-3,-3.817795310E-3,4.275931045E-3
4.652186530E-1,4.428642802E-3,-2.596100792E-3,4.275931045E-3
4.676985480E-1,5.650337320E-3,-1.527118147E-4,3.054236295E-3
4.701775590E-1,6.872031838E-3,-1.527118147E-4,4.275931045E-3
4.726557360E-1,6.872031838E-3,-1.527118147E-4,4.275931045E-3
4.751347980E-1,8.093725890E-3,1.068982761E-3,1.832541777E-3
4.776146940E-1,9.315420873E-3,1.068982761E-3,1.832541777E-3
4.800936530E-1,1.175880991E-2,-1.527118147E-4,1.832541777E-3
4.825718820E-1,1.175880991E-2,2.290677279E-3,1.832541777E-3
4.850509440E-1,1.298050396E-2,3.512371797E-3,6.108472589E-4
4.875308400E-1,1.542389300E-2,4.734066315E-3,6.108472589E-4
4.900097980E-1,1.542389300E-2,5.955760833E-3,1.832541777E-3
4.924880280E-1,1.664558798E-2,4.734066315E-3,1.832541777E-3
4.949670900E-1,1.664558798E-2,4.734066315E-3,6.108472589E-4
4.974469860E-1,1.786728203E-2,4.734066315E-3,6.108472589E-4
4.999259440E-1,1.908897609E-2,5.955760833E-3,1.832541777E-3
5.024041730E-1,2.031067200E-2,3.512371797E-3,-6.108472589E-4
5.048832360E-1,2.031067200E-2,2.290677279E-3,6.108472589E-4
5.073631320E-1,2.031067200E-2,2.290677279E-3,3.054236295E-3
5.098420900E-1,2.275406010E-2,1.068982761E-3,1.832541777E-3
5.123203190E-1,2.275406010E-2,-1.527118147E-4,3.054236295E-3
5.147993820E-1,2.397575416E-2,-1.374406274E-3,1.832541777E-3
5.172792780E-1,2.275406010E-2,-3.817795310E-3,3.054236295E-3
5.197582360E-1,2.397575416E-2,-3.817795310E-3,3.054236295E-3
5.222364650E-1,2.519745007E-2,-2.596100792E-3,4.275931045E-3
5.247155280E-1,2.397575416E-2,-2.596100792E-3,4.275931045E-3
5.271954230E-1,2.519745007E-2,-2.596100792E-3,5.497625098E-3
5.296743820E-1,2.397575416E-2,-2.596100792E-3,5.497625098E-3
5.321526110E-1,2.397575416E-2,-3.817795310E-3,6.719320081E-3
5.346316730E-1,2.519745007E-2,-3.817795310E-3,6.719320081E-3
5.371115690E-1,2.519745007E-2,-3.817795310E-3,5.497625098E-3
5.395905280E-1,2.397575416E-2,-2.596100792E-3,6.719320081E-3
5.420687570E-1,2.519745007E-2,-2.596100792E-3,7.941014133E-3
5.445478190E-1,2.519745007E-2,-2.596100792E-3,6.719320081E-3
5.470277150E-1,2.275406010E-2,-3.817795310E-3,6.719320081E-3
5.495066730E-1,2.275406010E-2,-1.374406274E-3,5.497625098E-3
5.519849030E-1,2.275406010E-2,-1.374406274E-3,5.497625098E-3
5.544639130E-1,2.275406010E-2,2.290677279E-3,5.497625098E-3
5.569438090E-1,2.275406010E-2,1.068982761E-3,4.275931045E-3
5.594228190E-1,2.519745007E-2,1.068982761E-3,3.054236295E-3
5.619010480E-1,2.397575416E-2,1.068982761E-3,5.497625098E-3
5.643800590E-1,2.641914412E-2,3.512371797E-3,3.054236295E-3
5.668599550E-1,2.519745007E-2,2.290677279E-3,3.054236295E-3
5.693389650E-1,2.519745007E-2,4.734066315E-3,3.054236295E-3
5.718171940E-1,2.397575416E-2,5.955760833E-3,6.108472589E-4
5.742962050E-1,2.519745007E-2,4.734066315E-3,1.832541777E-3
5.767761000E-1,2.519745007E-2,5.955760833E-3,6.108472589E-4
5.792551110E-1,2.641914412E-2,4.734066315E-3,6.108472589E-4
5.817333400E-1,2.764083818E-2,3.512371797E-3,-6.108472589E-4
5.842123500E-1,2.886253223E-2,4.734066315E-3,-1.832541777E-3
5.866922460E-1,2.764083818E-2,3.512371797E-3,-1.832541777E-3
5.891712570E-1,3.008422814E-2,-1.527118147E-4,-1.832541777E-3
5.916494860E-1,2.886253223E-2,2.290677279E-3,-3.054236295E-3
5.941284960E-1,2.886253223E-2,3.512371797E-3,-4.275931045E-3
5.966083920E-1,2.886253223E-2,-1.527118147E-4,-3.054236295E-3
5.990874030E-1,3.008422814E-2,-1.527118147E-4,-6.108472589E-4
6.015656320E-1,3.008422814E-2,-1.374406274E-3,-6.108472589E-4
6.040446420E-1,3.008422814E-2,-1.527118147E-4,-6.108472589E-4
6.065245380E-1,3.130592033E-2,-1.374406274E-3,-6.108472589E-4
6.090035480E-1,3.008422814E-2,-1.374406274E-3,-6.108472589E-4
6.114817780E-1,2.886253223E-2,-5.039489828E-3,-6.108472589E-4
6.139607880E-1,2.764083818E-2,-6.261184346E-3,-1.832541777E-3
6.164406840E-1,2.641914412E-2,-7.482878864E-3,6.108472589E-4
6.189196940E-1,2.641914412E-2,-7.482878864E-3,6.108472589E-4
6.213979230E-1,2.519745007E-2,-7.482878864E-3,6.108472589E-4
6.238769340E-1,2.519745007E-2,-6.261184346E-3,3.054236295E-3
6.263568300E-1,2.275406010E-2,-6.261184346E-3,1.832541777E-3
6.288358400E-1,2.275406010E-2,-6.261184346E-3,6.108472589E-4
6.313140690E-1,2.153236605E-2,-5.039489828E-3,1.832541777E-3
6.337930800E-1,2.031067200E-2,-5.039489828E-3,1.832541777E-3
6.362729750E-1,1.908897609E-2,-2.596100792E-3,1.832541777E-3
6.387519860E-1,1.664558798E-2,-1.527118147E-4,3.054236295E-3
6.412302150E-1,1.664558798E-2,-1.374406274E-3,1.832541777E-3
6.437092250E-1,1.664558798E-2,-1.527118147E-4,6.108472589E-4
6.461891210E-1,1.420219894E-2,-1.527118147E-4,3.054236295E-3
6.486681320E-1,1.298050396E-2,1.068982761E-3,3.054236295E-3
6.511463610E-1,1.175880991E-2,3.512371797E-3,1.832541777E-3
6.536253710E-1,1.053711493E-2,3.512371797E-3,3.054236295E-3
6.561052670E-1,9.315420873E-3,4.734066315E-3,1.832541777E-3
6.585842780E-1,8.093725890E-3,9.620844387E-3,3.054236295E-3
6.610625070E-1,8.093725890E-3,1.084253844E-2,3.054236295E-3
6.635415170E-1,6.872031838E-3,9.620844387E-3,3.054236295E-3
6.660214130E-1,6.872031838E-3,1.328592747E-2,3.054236295E-3
6.685004230E-1,4.428642802E-3,1.084253844E-2,3.054236295E-3
6.709786000E-1,4.428642802E-3,1.206423342E-2,3.054236295E-3
6.734576630E-1,4.428642802E-3,1.084253844E-2,1.832541777E-3
6.759375590E-1,3.206948051E-3,1.450762246E-2,3.054236295E-3
6.784165170E-1,4.428642802E-3,1.206423342E-2,3.054236295E-3
6.808947460E-1,3.206948051E-3,1.572931744E-2,3.054236295E-3
6.833738090E-1,4.428642802E-3,1.450762246E-2,3.054236295E-3
6.858537050E-1,5.650337320E-3,1.328592747E-2,1.832541777E-3
6.883326630E-1,5.650337320E-3,1.450762246E-2,1.832541777E-3
6.908108920E-1,6.872031838E-3,1.695101149E-2,6.108472589E-4
6.932899550E-1,8.093725890E-3,1.450762246E-2,1.832541777E-3
6.957698500E-1,1.053711493E-2,1.572931744E-2,1.832541777E-3
6.982488090E-1,1.175880991E-2,1.572931744E-2,1.832541777E-3
7.007270380E-1,1.175880991E-2,1.328592747E-2,1.832541777E-3
7.032061000E-1,1.053711493E-2,1.206423342E-2,1.832541777E-3
7.056859960E-1,1.175880991E-2,1.206423342E-2,6.108472589E-4
7.081649550E-1,1.298050396E-2,1.206423342E-2,1.832541777E-3
7.106431840E-1,1.420219894E-2,1.206423342E-2,6.108472589E-4
7.131222460E-1,1.420219894E-2,9.620844387E-3,1.832541777E-3
7.156021420E-1,1.664558798E-2,1.084253844E-2,6.108472589E-4
7.180811000E-1,1.786728203E-2,9.620844387E-3,6.108472589E-4
7.205593300E-1,1.908897609E-2,9.620844387E-3,1.832541777E-3
7.230383920E-1,1.908897609E-2,1.084253844E-2,6.108472589E-4
7.255182880E-1,1.908897609E-2,7.177455351E-3,1.832541777E-3
7.279972460E-1,1.908897609E-2,5.955760833E-3,6.108472589E-4
7.304754750E-1,2.031067200E-2,4.734066315E-3,1.832541777E-3
7.329545380E-1,2.031067200E-2,4.734066315E-3,6.108472589E-4
7.354344340E-1,2.153236605E-2,4.734066315E-3,-6.108472589E-4
7.379133920E-1,2.153236605E-2,2.290677279E-3,-6.108472589E-4
7.403916210E-1,2.153236605E-2,3.512371797E-3,-6.108472589E-4
7.428706840E-1,2.153236605E-2,3.512371797E-3,-6.108472589E-4
7.453505800E-1,2.275406010E-2,2.290677279E-3,-6.108472589E-4
7.478295380E-1,2.397575416E-2,-1.527118147E-4,-6.108472589E-4
7.503077670E-1,2.153236605E-2,-3.817795310E-3,-1.832541777E-3
7.527868300E-1,2.153236605E-2,-5.039489828E-3,-1.832541777E-3
7.552667250E-1,2.153236605E-2,-2.596100792E-3,-6.108472589E-4
7.577456840E-1,2.153236605E-2,-3.817795310E-3,-1.832541777E-3
7.602239130E-1,2.153236605E-2,-5.039489828E-3,-3.054236295E-3
7.627029750E-1,2.031067200E-2,-3.817795310E-3,-3.054236295E-3
7.651828710E-1,1.786728203E-2,-3.817795310E-3,-1.832541777E-3
7.676618300E-1,1.786728203E-2,-7.482878864E-3,-3.054236295E-3
7.701400590E-1,1.664558798E-2,-6.261184346E-3,-3.054236295E-3
7.726190690E-1,1.664558798E-2,-8.704573847E-3,-1.832541777E-3
7.750989650E-1,1.664558798E-2,-9.926267900E-3,-4.275931045E-3
7.775779750E-1,1.298050396E-2,-8.704573847E-3,-4.275931045E-3
7.800562050E-1,1.420219894E-2,-7.482878864E-3,-3.054236295E-3
7.825352150E-1,1.175880991E-2,-6.261184346E-3,-3.054236295E-3
7.850151110E-1,1.175880991E-2,-7.482878864E-3,-3.054236295E-3
7.874941210E-1,1.175880991E-2,-9.926267900E-3,-3.054236295E-3
7.899723500E-1,1.053711493E-2,-9.926267900E-3,-3.054236295E-3
7.924513610E-1,9.315420873E-3,-8.704573847E-3,-1.832541777E-3
7.949312570E-1,8.093725890E-3,-7.482878864E-3,-1.832541777E-3
7.974102670E-1,6.872031838E-3,-7.482878864E-3,-1.832541777E-3
7.998884960E-1,6.872031838E-3,-7.482878864E-3,-1.832541777E-3
8.023675070E-1,6.872031838E-3,-3.817795310E-3,-3.054236295E-3
8.048474030E-1,5.650337320E-3,-3.817795310E-3,-6.108472589E-4
8.073264130E-1,5.650337320E-3,-2.596100792E-3,-6.108472589E-4
8.098046420E-1,4.428642802E-3,-2.596100792E-3,-6.108472589E-4
8.122836530E-1,5.650337320E-3,-1.527118147E-4,6.108472589E-4
8.147635480E-1,4.428642802E-3,2.290677279E-3,6.108472589E-4
8.172425590E-1,4.428642802E-3,1.068982761E-3,-6.108472589E-4
8.197207880E-1,6.872031838E-3,1.068982761E-3,-6.108472589E-4
8.221997980E-1,5.650337320E-3,2.290677279E-3,-6.108472589E-4
8.246796940E-1,5.650337320E-3,3.512371797E-3,6.108472589E-4
8.271587050E-1,5.650337320E-3,3.512371797E-3,1.832541777E-3
8.296369340E-1,3.206948051E-3,3.512371797E-3,6.108472589E-4
8.321159440E-1,4.428642802E-3,4.734066315E-3,-6.108472589E-4
8.345958400E-1,4.428642802E-3,4.734066315E-3,6.108472589E-4
8.370748500E-1,5.650337320E-3,7.177455351E-3,1.832541777E-3
8.395530800E-1,5.650337320E-3,3.512371797E-3,6.108472589E-4
8.420320900E-1,5.650337320E-3,2.290677279E-3,3.054236295E-3
8.445119860E-1,6.872031838E-3,2.290677279E-3,1.832541777E-3
8.469909960E-1,6.872031838E-3,-1.527118147E-4,1.832541777E-3
8.494692250E-1,5.650337320E-3,1.068982761E-3,1.832541777E-3
8.519482360E-1,5.650337320E-3,1.068982761E-3,6.108472589E-4
8.544281320E-1,6.872031838E-3,2.290677279E-3,6.108472589E-4
8.569071420E-1,8.093725890E-3,-1.527118147E-4,-6.108472589E-4
8.593853710E-1,6.872031838E-3,-2.596100792E-3,-6.108472589E-4
8.618643820E-1,8.093725890E-3,-1.527118147E-4,-6.108472589E-4
8.643442780E-1,8.093725890E-3,-2.596100792E-3,6.108472589E-4
8.668232880E-1,6.872031838E-3,-5.039489828E-3,-1.832541777E-3
8.693015170E-1,6.872031838E-3,-5.039489828E-3,-6.108472589E-4
8.717805280E-1,6.872031838E-3,-7.482878864E-3,-6.108472589E-4
8.742604230E-1,5.650337320E-3,-7.482878864E-3,-6.108472589E-4
8.767393820E-1,5.650337320E-3,-8.704573847E-3,-6.108472589E-4
8.792176630E-1,4.428642802E-3,-9.926267900E-3,-6.108472589E-4
8.816966730E-1,4.428642802E-3,-9.926267900E-3,1.832541777E-3
8.841765690E-1,5.650337320E-3,-1.236965694E-2,1.832541777E-3
8.866555280E-1,4.428642802E-3,-1.359135192E-2,1.832541777E-3
8.891337570E-1,4.428642802E-3,-1.236965694E-2,1.832541777E-3
8.916128190E-1,4.428642802E-3,-1.603474095E-2,3.054236295E-3
8.940927150E-1,3.206948051E-3,-1.847812906E-2,4.275931045E-3
8.965716730E-1,4.428642802E-3,-1.847812906E-2,4.275931045E-3
8.990499030E-1,5.650337320E-3,-1.969982497E-2,3.054236295E-3
9.015289650E-1,3.206948051E-3,-1.969982497E-2,5.497625098E-3
9.040088610E-1,5.650337320E-3,-1.847812906E-2,5.497625098E-3
9.064878190E-1,4.428642802E-3,-1.847812906E-2,6.719320081E-3
9.089660480E-1,4.428642802E-3,-1.725643501E-2,5.497625098E-3
9.114451110E-1,5.650337320E-3,-1.725643501E-2,5.497625098E-3
9.139250070E-1,5.650337320E-3,-1.725643501E-2,5.497625098E-3
9.164039650E-1,5.650337320E-3,-1.603474095E-2,1.832541777E-3
9.188821940E-1,5.650337320E-3,-1.359135192E-2,3.054236295E-3
9.213612570E-1,4.428642802E-3,-1.236965694E-2,3.054236295E-3
9.238411530E-1,5.650337320E-3,-9.926267900E-3,4.275931045E-3
9.263201110E-1,4.428642802E-3,-1.114796288E-2,3.054236295E-3
9.287983400E-1,4.428642802E-3,-1.114796288E-2,3.054236295E-3
9.312774030E-1,4.428642802E-3,-7.482878864E-3,6.108472589E-4
9.337572980E-1,5.650337320E-3,-6.261184346E-3,-6.108472589E-4
9.362362570E-1,6.872031838E-3,-5.039489828E-3,6.108472589E-4
9.387144860E-1,5.650337320E-3,-1.374406274E-3,1.832541777E-3
9.411935480E-1,4.428642802E-3,-3.817795310E-3,-6.108472589E-4
9.436734440E-1,3.206948051E-3,-2.596100792E-3,-1.832541777E-3
9.461524030E-1,3.206948051E-3,1.068982761E-3,-1.832541777E-3
9.486306320E-1,3.206948051E-3,1.068982761E-3,-1.832541777E-3
9.511096940E-1,3.206948051E-3,1.068982761E-3,-1.832541777E-3
9.535895900E-1,3.206948051E-3,2.290677279E-3,-1.832541777E-3
9.560685480E-1,4.428642802E-3,2.290677279E-3,-1.832541777E-3
9.585467780E-1,4.428642802E-3,2.290677279E-3,-6.108472589E-4
9.610258400E-1,4.428642802E-3,3.512371797E-3,-6.108472589E-4
9.635057360E-1,4.428642802E-3,2.290677279E-3,6.108472589E-4
9.659846940E-1,5.650337320E-3,3.512371797E-3,6.108472589E-4
9.684629230E-1,4.428642802E-3,1.068982761E-3,6.108472589E-4
9.709419860E-1,4.428642802E-3,-1.527118147E-4,1.832541777E-3
9.734218820E-1,3.206948051E-3,-2.596100792E-3,1.832541777E-3
9.759008400E-1,4.428642802E-3,-1.374406274E-3,3.054236295E-3
9.783790690E-1,4.428642802E-3,-2.596100792E-3,3.054236295E-3
9.808581320E-1,5.650337320E-3,-5.039489828E-3,4.275931045E-3
9.833380280E-1,5.650337320E-3,-7.482878864E-3,5.497625098E-3
9.858169860E-1,5.650337320E-3,-7.482878864E-3,4.275931045E-3
9.882952150E-1,4.428642802E-3,-8.704573847E-3,4.275931045E-3
9.907742250E-1,3.206948051E-3,-1.114796288E-2,4.275931045E-3
9.932541210E-1,4.428642802E-3,-8.704573847E-3,4.275931045E-3
9.957331320E-1,7.635590737E-4,-8.704573847E-3,5.497625098E-3
9.982113610E-1,1.985253533E-3,-1.114796288E-2,3.054236295E-3
1.000690423E0,7.635590737E-4,-9.926267900E-3,3.054236295E-3
1.003170267E0,-4.581354442E-4,-1.236965694E-2,3.054236295E-3
1.005649278E0,-4.581354442E-4,-9.926267900E-3,3.054236295E-3
1.008127507E0,-4.581354442E-4,-8.704573847E-3,3.054236295E-3
1.010606517E0,7.635590737E-4,-9.926267900E-3,1.832541777E-3
1.013086413E0,-4.581354442E-4,-8.704573847E-3,6.108472589E-4
1.015565423E0,-4.581354442E-4,-8.704573847E-3,1.832541777E-3
1.018043653E0,-4.581354442E-4,-8.704573847E-3,-6.108472589E-4
1.020522663E0,-4.581354442E-4,-7.482878864E-3,6.108472589E-4
1.023002559E0,-1.679830020E-3,-6.261184346E-3,6.108472589E-4
1.025481569E0,-4.581354442E-4,-8.704573847E-3,1.832541777E-3
1.027959798E0,7.635590737E-4,-1.114796288E-2,6.108472589E-4
1.030438809E0,7.635590737E-4,-1.236965694E-2,-6.108472589E-4
1.032918705E0,-4.581354442E-4,-1.236965694E-2,1.832541777E-3
1.035397715E0,7.635590737E-4,-1.359135192E-2,1.832541777E-3
1.037875944E0,-4.581354442E-4,-1.359135192E-2,3.054236295E-3
1.040354955E0,7.635590737E-4,-1.481304597E-2,3.054236295E-3
1.042834850E0,7.635590737E-4,-1.481304597E-2,1.832541777E-3
1.045313861E0,-4.581354442E-4,-1.603474095E-2,1.832541777E-3
1.047792090E0,1.985253533E-3,-1.725643501E-2,4.275931045E-3
1.050271100E0,1.985253533E-3,-1.847812906E-2,5.497625098E-3
1.052750996E0,1.985253533E-3,-1.847812906E-2,4.275931045E-3
1.055230007E0,3.206948051E-3,-1.481304597E-2,4.275931045E-3
1.057708236E0,3.206948051E-3,-1.847812906E-2,4.275931045E-3
1.060187246E0,3.206948051E-3,-1.725643501E-2,4.275931045E-3
1.062667142E0,4.428642802E-3,-1.481304597E-2,4.275931045E-3
1.065146153E0,5.650337320E-3,-1.603474095E-2,1.832541777E-3
1.067624382E0,5.650337320E-3,-1.847812906E-2,3.054236295E-3
1.070103392E0,5.650337320E-3,-1.481304597E-2,3.054236295E-3
1.072583288E0,5.650337320E-3,-1.359135192E-2,6.108472589E-4
1.075062298E0,4.428642802E-3,-1.236965694E-2,6.108472589E-4
1.077540528E0,5.650337320E-3,-1.236965694E-2,1.832541777E-3
1.080019538E0,6.872031838E-3,-9.926267900E-3,6.108472589E-4
1.082499434E0,5.650337320E-3,-1.114796288E-2,-6.108472589E-4
1.084978444E0,4.428642802E-3,-9.926267900E-3,-6.108472589E-4
1.087456673E0,4.428642802E-3,-9.926267900E-3,-1.832541777E-3
1.089935684E0,5.650337320E-3,-8.704573847E-3,6.108472589E-4
1.092415580E0,5.650337320E-3,-7.482878864E-3,-6.108472589E-4
1.094894590E0,4.428642802E-3,-8.704573847E-3,-1.832541777E-3
1.097372819E0,3.206948051E-3,-7.482878864E-3,-1.832541777E-3
1.099851830E0,4.428642802E-3,-7.482878864E-3,-1.832541777E-3
1.102331725E0,4.428642802E-3,-7.482878864E-3,-6.108472589E-4
1.104810736E0,3.206948051E-3,-6.261184346E-3,-6.108472589E-4
1.107288965E0,4.428642802E-3,-8.704573847E-3,-6.108472589E-4
1.109767975E0,4.428642802E-3,-9.926267900E-3,-1.832541777E-3
1.112247871E0,3.206948051E-3,-9.926267900E-3,-6.108472589E-4
1.114726830E0,3.206948051E-3,-1.114796288E-2,6.108472589E-4
1.117205059E0,4.428642802E-3,-9.926267900E-3,6.108472589E-4
1.119684121E0,3.206948051E-3,-9.926267900E-3,6.108472589E-4
1.122164017E0,3.206948051E-3,-1.114796288E-2,1.832541777E-3
1.124642975E0,4.428642802E-3,-1.114796288E-2,3.054236295E-3
1.127121257E0,4.428642802E-3,-1.114796288E-2,4.275931045E-3
1.129600267E0,5.650337320E-3,-1.236965694E-2,3.054236295E-3
1.132080163E0,4.428642802E-3,-9.926267900E-3,3.054236295E-3
1.134559121E0,4.428642802E-3,-1.114796288E-2,3.054236295E-3
1.137037350E0,4.428642802E-3,-1.236965694E-2,5.497625098E-3
1.139516413E0,4.428642802E-3,-1.236965694E-2,5.497625098E-3
1.141996309E0,5.650337320E-3,-1.481304597E-2,5.497625098E-3
1.144475267E0,4.428642802E-3,-1.481304597E-2,5.497625098E-3
1.146953496E0,4.428642802E-3,-1.481304597E-2,5.497625098E-3
1.149432559E0,4.428642802E-3,-1.481304597E-2,4.275931045E-3
1.151912455E0,5.650337320E-3,-1.359135192E-2,5.497625098E-3
1.154391413E0,4.428642802E-3,-1.481304597E-2,6.719320081E-3
1.156869642E0,5.650337320E-3,-1.359135192E-2,6.719320081E-3
1.159348705E0,5.650337320E-3,-1.236965694E-2,6.719320081E-3
1.161828600E0,5.650337320E-3,-9.926267900E-3,5.497625098E-3
1.164307559E0,8.093725890E-3,-8.704573847E-3,5.497625098E-3
1.166785788E0,5.650337320E-3,-7.482878864E-3,5.497625098E-3
1.169264850E0,6.872031838E-3,-7.482878864E-3,6.719320081E-3
1.171744746E0,8.093725890E-3,-7.482878864E-3,5.497625098E-3
1.174223705E0,8.093725890E-3,-6.261184346E-3,6.719320081E-3
1.176701934E0,8.093725890E-3,-6.261184346E-3,6.719320081E-3
1.179180996E0,8.093725890E-3,-6.261184346E-3,6.719320081E-3
1.181660892E0,6.872031838E-3,-5.039489828E-3,6.719320081E-3
1.184139850E0,8.093725890E-3,-5.039489828E-3,6.719320081E-3
1.186618080E0,9.315420873E-3,-5.039489828E-3,7.941014133E-3
1.189097142E0,9.315420873E-3,-3.817795310E-3,9.162709117E-3
1.191577038E0,9.315420873E-3,-5.039489828E-3,7.941014133E-3
1.194055996E0,1.175880991E-2,-7.482878864E-3,6.719320081E-3
1.196534225E0,9.315420873E-3,-7.482878864E-3,9.162709117E-3
1.199013288E0,1.053711493E-2,-8.704573847E-3,9.162709117E-3
1.201493184E0,1.175880991E-2,-8.704573847E-3,9.162709117E-3
1.203972142E0,1.175880991E-2,-8.704573847E-3,7.941014133E-3
1.206450371E0,9.315420873E-3,-1.114796288E-2,6.719320081E-3
1.208929434E0,1.175880991E-2,-8.704573847E-3,9.162709117E-3
1.211409330E0,1.175880991E-2,-1.236965694E-2,7.941014133E-3
1.213888288E0,1.175880991E-2,-1.114796288E-2,6.719320081E-3
1.216366517E0,1.175880991E-2,-1.236965694E-2,6.719320081E-3
1.218845580E0,1.175880991E-2,-1.236965694E-2,7.941014133E-3
1.221325475E0,1.175880991E-2,-1.114796288E-2,5.497625098E-3
1.223804434E0,1.175880991E-2,-1.236965694E-2,5.497625098E-3
1.226282663E0,1.175880991E-2,-1.114796288E-2,4.275931045E-3
1.228761725E0,1.298050396E-2,-9.926267900E-3,4.275931045E-3
1.231241621E0,1.298050396E-2,-7.482878864E-3,5.497625098E-3
1.233720580E0,1.053711493E-2,-7.482878864E-3,4.275931045E-3
1.236198809E0,1.053711493E-2,-6.261184346E-3,3.054236295E-3
1.238677819E0,1.053711493E-2,-5.039489828E-3,1.832541777E-3
1.241157715E0,9.315420873E-3,-5.039489828E-3,6.108472589E-4
1.243636725E0,9.315420873E-3,-1.374406274E-3,6.108472589E-4
1.246114955E0,8.093725890E-3,-1.374406274E-3,-6.108472589E-4
1.248594017E0,6.872031838E-3,-1.527118147E-4,1.832541777E-3
1.251073861E0,6.872031838E-3,-1.527118147E-4,-6.108472589E-4
1.253552871E0,5.650337320E-3,2.290677279E-3,-1.832541777E-3
1.256031100E0,5.650337320E-3,2.290677279E-3,-1.832541777E-3
1.258510111E0,4.428642802E-3,1.068982761E-3,-1.832541777E-3
1.260990007E0,5.650337320E-3,2.290677279E-3,-1.832541777E-3
1.263469017E0,5.650337320E-3,4.734066315E-3,-1.832541777E-3
1.265947246E0,3.206948051E-3,3.512371797E-3,6.108472589E-4
1.268426257E0,1.985253533E-3,2.290677279E-3,6.108472589E-4
1.270906153E0,1.985253533E-3,2.290677279E-3,6.108472589E-4
1.273385163E0,3.206948051E-3,2.290677279E-3,-6.108472589E-4
1.275863392E0,7.635590737E-4,1.068982761E-3,1.832541777E-3
1.278342403E0,7.635590737E-4,2.290677279E-3,1.832541777E-3
1.280822298E0,7.635590737E-4,-1.527118147E-4,1.832541777E-3
1.283301309E0,-4.581354442E-4,1.068982761E-3,1.832541777E-3
1.285779538E0,-4.581354442E-4,1.068982761E-3,4.275931045E-3
1.288258548E0,-1.679830020E-3,2.290677279E-3,3.054236295E-3
1.290738444E0,-2.901524538E-3,3.512371797E-3,5.497625098E-3
1.293217455E0,-2.901524538E-3,3.512371797E-3,5.497625098E-3
1.295695684E0,-1.679830020E-3,5.955760833E-3,6.719320081E-3
1.298174694E0,-1.679830020E-3,5.955760833E-3,5.497625098E-3
1.300654590E0,-1.679830020E-3,7.177455351E-3,5.497625098E-3
1.303133600E0,-2.901524538E-3,8.399149403E-3,4.275931045E-3
1.305611830E0,-1.679830020E-3,1.206423342E-2,5.497625098E-3
1.308090840E0,-2.901524538E-3,1.450762246E-2,6.719320081E-3
1.310570736E0,-1.679830020E-3,1.450762246E-2,4.275931045E-3
1.313049746E0,-1.679830020E-3,1.572931744E-2,3.054236295E-3
1.315527975E0,-1.679830020E-3,1.695101149E-2,6.719320081E-3
1.318006986E0,-2.901524538E-3,1.939439960E-2,5.497625098E-3
1.320486882E0,-1.679830020E-3,1.939439960E-2,5.497625098E-3
1.322965892E0,-2.901524538E-3,1.939439960E-2,5.497625098E-3
1.325444121E0,-2.901524538E-3,2.061609551E-2,4.275931045E-3
1.327923132E0,-4.123218823E-3,2.061609551E-2,5.497625098E-3
1.330403028E0,-2.901524538E-3,2.061609551E-2,4.275931045E-3
1.332882038E0,-2.901524538E-3,2.183778957E-2,5.497625098E-3
1.335360267E0,-4.123218823E-3,2.183778957E-2,6.719320081E-3
1.337839278E0,-4.123218823E-3,2.305948362E-2,5.497625098E-3
1.340319173E0,-4.123218823E-3,2.305948362E-2,5.497625098E-3
1.342798184E0,-4.123218823E-3,2.061609551E-2,5.497625098E-3
1.345276361E0,-2.901524538E-3,1.939439960E-2,4.275931045E-3
1.347755423E0,-4.123218823E-3,1.817270555E-2,3.054236295E-3
1.350235319E0,-4.123218823E-3,1.695101149E-2,5.497625098E-3
1.352714330E0,-2.901524538E-3,1.572931744E-2,5.497625098E-3
1.355192507E0,-2.901524538E-3,1.328592747E-2,4.275931045E-3
1.357671569E0,-4.581354442E-4,1.084253844E-2,4.275931045E-3
1.360151465E0,7.635590737E-4,1.084253844E-2,6.719320081E-3
1.362630423E0,3.206948051E-3,5.955760833E-3,5.497625098E-3
1.365108653E0,1.985253533E-3,4.734066315E-3,6.719320081E-3
1.367587715E0,3.206948051E-3,-1.527118147E-4,6.719320081E-3
1.370067611E0,3.206948051E-3,-1.374406274E-3,5.497625098E-3
1.372546569E0,3.206948051E-3,-2.596100792E-3,6.719320081E-3
1.375024798E0,4.428642802E-3,-6.261184346E-3,5.497625098E-3
1.377503861E0,4.428642802E-3,-7.482878864E-3,6.719320081E-3
1.379983757E0,6.872031838E-3,-7.482878864E-3,5.497625098E-3
1.382462715E0,5.650337320E-3,-7.482878864E-3,6.719320081E-3
1.384940944E0,8.093725890E-3,-9.926267900E-3,6.719320081E-3
1.387420007E0,6.872031838E-3,-9.926267900E-3,6.719320081E-3
1.389899903E0,6.872031838E-3,-9.926267900E-3,6.719320081E-3
1.392378861E0,6.872031838E-3,-9.926267900E-3,6.719320081E-3
1.394857090E0,8.093725890E-3,-7.482878864E-3,5.497625098E-3
1.397336153E0,8.093725890E-3,-8.704573847E-3,5.497625098E-3
1.399816048E0,8.093725890E-3,-8.704573847E-3,4.275931045E-3
1.402295007E0,6.872031838E-3,-7.482878864E-3,5.497625098E-3
1.404773236E0,6.872031838E-3,-5.039489828E-3,5.497625098E-3
1.407252298E0,6.872031838E-3,-3.817795310E-3,4.275931045E-3
1.409732194E0,6.872031838E-3,-2.596100792E-3,4.275931045E-3
1.412211153E0,5.650337320E-3,1.068982761E-3,3.054236295E-3
1.414689382E0,6.872031838E-3,1.068982761E-3,4.275931045E-3
1.417168444E0,6.872031838E-3,1.068982761E-3,5.497625098E-3
1.419648340E0,5.650337320E-3,2.290677279E-3,5.497625098E-3
1.422127298E0,5.650337320E-3,2.290677279E-3,4.275931045E-3
1.424605528E0,6.872031838E-3,3.512371797E-3,3.054236295E-3
1.427084590E0,6.872031838E-3,4.734066315E-3,4.275931045E-3
1.429564486E0,6.872031838E-3,4.734066315E-3,3.054236295E-3
1.432043444E0,6.872031838E-3,4.734066315E-3,3.054236295E-3
1.434521673E0,5.650337320E-3,5.955760833E-3,6.719320081E-3
1.437000736E0,5.650337320E-3,5.955760833E-3,5.497625098E-3
1.439480632E0,5.650337320E-3,8.399149403E-3,4.275931045E-3
1.441959590E0,6.872031838E-3,8.399149403E-3,5.497625098E-3
1.444437819E0,5.650337320E-3,5.955760833E-3,5.497625098E-3
1.446916882E0,5.650337320E-3,5.955760833E-3,5.497625098E-3
1.449396778E0,5.650337320E-3,5.955760833E-3,5.497625098E-3
1.451875736E0,5.650337320E-3,5.955760833E-3,5.497625098E-3
1.454353965E0,4.428642802E-3,7.177455351E-3,5.497625098E-3
1.456833028E0,4.428642802E-3,7.177455351E-3,7.941014133E-3
1.459312923E0,5.650337320E-3,5.955760833E-3,6.719320081E-3
1.461791882E0,4.428642802E-3,7.177455351E-3,6.719320081E-3
1.464270111E0,4.428642802E-3,5.955760833E-3,5.497625098E-3
1.466749173E0,4.428642802E-3,7.177455351E-3,5.497625098E-3
1.469229017E0,3.206948051E-3,9.620844387E-3,6.719320081E-3
1.471708028E0,3.206948051E-3,7.177455351E-3,6.719320081E-3
1.474186257E0,4.428642802E-3,7.177455351E-3,6.719320081E-3
1.476665267E0,3.206948051E-3,8.399149403E-3,6.719320081E-3
1.479145163E0,3.206948051E-3,9.620844387E-3,5.497625098E-3
1.481624173E0,1.985253533E-3,8.399149403E-3,5.497625098E-3
1.484102403E0,1.985253533E-3,7.177455351E-3,5.497625098E-3
1.486581465E0,1.985253533E-3,7.177455351E-3,5.497625098E-3
1.489061309E0,1.985253533E-3,5.955760833E-3,3.054236295E-3
1.491540319E0,7.635590737E-4,7.177455351E-3,5.497625098E-3
1.494018548E0,3.206948051E-3,5.955760833E-3,4.275931045E-3
1.496497559E0,1.985253533E-3,5.955760833E-3,6.719320081E-3
1.498977455E0,1.985253533E-3,3.512371797E-3,4.275931045E-3
1.501456465E0,7.635590737E-4,2.290677279E-3,4.275931045E-3
1.503934694E0,7.635590737E-4,3.512371797E-3,4.275931045E-3
1.506413705E0,7.635590737E-4,1.068982761E-3,4.275931045E-3
1.508893600E0,3.206948051E-3,2.290677279E-3,5.497625098E-3
1.511372611E0,3.206948051E-3,-1.527118147E-4,4.275931045E-3
1.513850840E0,7.635590737E-4,1.068982761E-3,5.497625098E-3
1.516329850E0,3.206948051E-3,-1.527118147E-4,5.497625098E-3
1.518809746E0,1.985253533E-3,-1.374406274E-3,5.497625098E-3
1.521288757E0,7.635590737E-4,-1.374406274E-3,5.497625098E-3
1.523766986E0,7.635590737E-4,-5.039489828E-3,4.275931045E-3
1.526245996E0,3.206948051E-3,-2.596100792E-3,6.719320081E-3
1.528725892E0,1.985253533E-3,-2.596100792E-3,5.497625098E-3
1.531204903E0,1.985253533E-3,-5.039489828E-3,5.497625098E-3
1.533683132E0,1.985253533E-3,-3.817795310E-3,4.275931045E-3
1.536162142E0,1.985253533E-3,-2.596100792E-3,3.054236295E-3
1.538642038E0,7.635590737E-4,-1.374406274E-3,5.497625098E-3
1.541121048E0,1.985253533E-3,-1.527118147E-4,4.275931045E-3
1.543599278E0,1.985253533E-3,-1.527118147E-4,4.275931045E-3
1.546078288E0,7.635590737E-4,1.068982761E-3,1.832541777E-3
1.548558184E0,1.985253533E-3,1.068982761E-3,1.832541777E-3
1.551037194E0,7.635590737E-4,2.290677279E-3,3.054236295E-3
1.553515423E0,1.985253533E-3,4.734066315E-3,3.054236295E-3
1.555994434E0,1.985253533E-3,3.512371797E-3,3.054236295E-3
1.558474330E0,1.985253533E-3,4.734066315E-3,1.832541777E-3
1.560953340E0,1.985253533E-3,7.177455351E-3,-6.108472589E-4
1.563431569E0,7.635590737E-4,7.177455351E-3,6.108472589E-4
1.565910580E0,1.985253533E-3,7.177455351E-3,1.832541777E-3
1.568390475E0,4.428642802E-3,7.177455351E-3,6.108472589E-4
1.570869486E0,7.635590737E-4,5.955760833E-3,-1.832541777E-3
1.573347715E0,7.635590737E-4,5.955760833E-3,6.108472589E-4
1.575826725E0,7.635590737E-4,4.734066315E-3,1.832541777E-3
1.578306621E0,-4.581354442E-4,4.734066315E-3,6.108472589E-4
1.580785632E0,-4.581354442E-4,3.512371797E-3,-6.108472589E-4
1.583263861E0,-4.581354442E-4,3.512371797E-3,1.832541777E-3
1.585742871E0,-4.581354442E-4,2.290677279E-3,1.832541777E-3
1.588222767E0,-4.581354442E-4,3.512371797E-3,3.054236295E-3
1.590701778E0,-4.581354442E-4,1.068982761E-3,1.832541777E-3
1.593180007E0,-1.679830020E-3,-1.527118147E-4,6.108472589E-4
1.595659017E0,-1.679830020E-3,-1.527118147E-4,3.054236295E-3
1.598138913E0,-2.901524538E-3,-2.596100792E-3,1.832541777E-3
1.600617923E0,-2.901524538E-3,-3.817795310E-3,1.832541777E-3
1.603096153E0,-2.901524538E-3,-3.817795310E-3,1.832541777E-3
1.605575163E0,-4.123218823E-3,-5.039489828E-3,1.832541777E-3
1.608055059E0,-2.901524538E-3,-3.817795310E-3,6.108472589E-4
1.610534069E0,-1.679830020E-3,-7.482878864E-3,1.832541777E-3
1.613012298E0,-2.901524538E-3,-7.482878864E-3,1.832541777E-3
1.615491309E0,-1.679830020E-3,-7.482878864E-3,1.832541777E-3
1.617971205E0,-1.679830020E-3,-8.704573847E-3,1.832541777E-3
1.620450163E0,-1.679830020E-3,-7.482878864E-3,1.832541777E-3
1.622928444E0,-1.679830020E-3,-7.482878864E-3,1.832541777E-3
1.625407455E0,-1.679830020E-3,-7.482878864E-3,1.832541777E-3
1.627887350E0,-1.679830020E-3,-8.704573847E-3,1.832541777E-3
1.630366309E0,-2.901524538E-3,-7.482878864E-3,1.832541777E-3
1.632844590E0,-4.581354442E-4,-8.704573847E-3,1.832541777E-3
1.635323600E0,-4.581354442E-4,-9.926267900E-3,1.832541777E-3
1.637803496E0,-4.581354442E-4,-7.482878864E-3,1.832541777E-3
1.640282455E0,-4.581354442E-4,-7.482878864E-3,3.054236295E-3
1.642760684E0,7.635590737E-4,-9.926267900E-3,1.832541777E-3
1.645239746E0,7.635590737E-4,-8.704573847E-3,1.832541777E-3
1.647719642E0,1.985253533E-3,-9.926267900E-3,4.275931045E-3
1.650198600E0,1.985253533E-3,-6.261184346E-3,4.275931045E-3
1.652676830E0,1.985253533E-3,-7.482878864E-3,1.832541777E-3
1.655155892E0,3.206948051E-3,-8.704573847E-3,1.832541777E-3
1.657635788E0,3.206948051E-3,-8.704573847E-3,3.054236295E-3
1.660114746E0,4.428642802E-3,-8.704573847E-3,3.054236295E-3
1.662592975E0,3.206948051E-3,-8.704573847E-3,1.832541777E-3
1.665072038E0,3.206948051E-3,-7.482878864E-3,1.832541777E-3
1.667551934E0,3.206948051E-3,-8.704573847E-3,3.054236295E-3
1.670030892E0,4.428642802E-3,-7.482878864E-3,4.275931045E-3
1.672509121E0,4.428642802E-3,-5.039489828E-3,3.054236295E-3
1.674988184E0,5.650337320E-3,-5.039489828E-3,3.054236295E-3
1.677468080E0,4.428642802E-3,-9.926267900E-3,3.054236295E-3
1.679947038E0,5.650337320E-3,-7.482878864E-3,3.054236295E-3
1.682425267E0,5.650337320E-3,-5.039489828E-3,3.054236295E-3
1.684904330E0,4.428642802E-3,-5.039489828E-3,3.054236295E-3
1.687384225E0,5.650337320E-3,-6.261184346E-3,1.832541777E-3
1.689863184E0,4.428642802E-3,-5.039489828E-3,1.832541777E-3
1.692341413E0,4.428642802E-3,-2.596100792E-3,1.832541777E-3
1.694820475E0,4.428642802E-3,-1.374406274E-3,4.275931045E-3
1.697300371E0,4.428642802E-3,-2.596100792E-3,1.832541777E-3
1.699779330E0,4.428642802E-3,-2.596100792E-3,1.832541777E-3
1.702257559E0,5.650337320E-3,-1.374406274E-3,1.832541777E-3
1.704736621E0,4.428642802E-3,-1.374406274E-3,6.108472589E-4
1.707216517E0,4.428642802E-3,-1.527118147E-4,3.054236295E-3
1.709695475E0,4.428642802E-3,-1.527118147E-4,4.275931045E-3
1.712173705E0,5.650337320E-3,-1.527118147E-4,3.054236295E-3
1.714652767E0,5.650337320E-3,1.068982761E-3,3.054236295E-3
1.717132663E0,5.650337320E-3,-2.596100792E-3,3.054236295E-3
1.719611621E0,5.650337320E-3,-1.527118147E-4,3.054236295E-3
1.722089850E0,6.872031838E-3,-1.527118147E-4,3.054236295E-3
1.724568913E0,8.093725890E-3,-1.527118147E-4,1.832541777E-3
1.727048809E0,8.093725890E-3,-1.527118147E-4,1.832541777E-3
1.729527767E0,8.093725890E-3,-1.374406274E-3,1.832541777E-3
1.732005996E0,6.872031838E-3,-1.374406274E-3,4.275931045E-3
1.734485059E0,6.872031838E-3,-1.374406274E-3,3.054236295E-3
1.736964955E0,6.872031838E-3,-1.527118147E-4,3.054236295E-3
1.739443913E0,8.093725890E-3,-1.527118147E-4,3.054236295E-3
1.741922142E0,8.093725890E-3,-1.527118147E-4,4.275931045E-3
1.744401205E0,5.650337320E-3,-1.374406274E-3,4.275931045E-3
1.746881100E0,6.872031838E-3,-1.374406274E-3,4.275931045E-3
1.749360059E0,6.872031838E-3,-1.527118147E-4,4.275931045E-3
1.751838288E0,5.650337320E-3,1.068982761E-3,1.832541777E-3
1.754317350E0,5.650337320E-3,-1.527118147E-4,1.832541777E-3
1.756797246E0,5.650337320E-3,-1.527118147E-4,1.832541777E-3
1.759276205E0,5.650337320E-3,-1.527118147E-4,1.832541777E-3
1.761754434E0,5.650337320E-3,1.068982761E-3,6.108472589E-4
1.764233496E0,5.650337320E-3,1.068982761E-3,1.832541777E-3
1.766713392E0,4.428642802E-3,-1.527118147E-4,3.054236295E-3
1.769192350E0,5.650337320E-3,-1.527118147E-4,1.832541777E-3
1.771670580E0,5.650337320E-3,-1.374406274E-3,4.275931045E-3
1.774149642E0,5.650337320E-3,-1.527118147E-4,3.054236295E-3
1.776629538E0,5.650337320E-3,-2.596100792E-3,1.832541777E-3
1.779108496E0,4.428642802E-3,-1.374406274E-3,3.054236295E-3
1.781586725E0,3.206948051E-3,-1.374406274E-3,3.054236295E-3
1.784065788E0,4.428642802E-3,-2.596100792E-3,3.054236295E-3
1.786545632E0,3.206948051E-3,-5.039489828E-3,1.832541777E-3
1.789024642E0,4.428642802E-3,-2.596100792E-3,6.108472589E-4
1.791502871E0,4.428642802E-3,-5.039489828E-3,4.275931045E-3
1.793981882E0,4.428642802E-3,-5.039489828E-3,3.054236295E-3
1.796461778E0,4.428642802E-3,-3.817795310E-3,3.054236295E-3
1.798940788E0,3.206948051E-3,-3.817795310E-3,3.054236295E-3
1.801419017E0,3.206948051E-3,-5.039489828E-3,3.054236295E-3
1.803898028E0,3.206948051E-3,-3.817795310E-3,3.054236295E-3
1.806377923E0,3.206948051E-3,-6.261184346E-3,3.054236295E-3
1.808856934E0,3.206948051E-3,-6.261184346E-3,1.832541777E-3
1.811335163E0,3.206948051E-3,-7.482878864E-3,4.275931045E-3
1.813814173E0,4.428642802E-3,-5.039489828E-3,1.832541777E-3
1.816294069E0,4.428642802E-3,-3.817795310E-3,3.054236295E-3
1.818773080E0,4.428642802E-3,-2.596100792E-3,3.054236295E-3
1.821251309E0,3.206948051E-3,-5.039489828E-3,3.054236295E-3
1.823730319E0,3.206948051E-3,-3.817795310E-3,3.054236295E-3
1.826210215E0,3.206948051E-3,-5.039489828E-3,4.275931045E-3
1.828689225E0,4.428642802E-3,-5.039489828E-3,1.832541777E-3
1.831167455E0,4.428642802E-3,-6.261184346E-3,6.108472589E-4
1.833646465E0,4.428642802E-3,-6.261184346E-3,3.054236295E-3
1.836126361E0,5.650337320E-3,-7.482878864E-3,3.054236295E-3
1.838605371E0,5.650337320E-3,-8.704573847E-3,3.054236295E-3
1.841083600E0,4.428642802E-3,-9.926267900E-3,3.054236295E-3
1.843562611E0,6.872031838E-3,-8.704573847E-3,4.275931045E-3
1.846042507E0,6.872031838E-3,-1.359135192E-2,3.054236295E-3
1.848521517E0,1.053711493E-2,-1.481304597E-2,3.054236295E-3
1.850999746E0,1.298050396E-2,-1.725643501E-2,5.497625098E-3
1.853478757E0,1.542389300E-2,-2.336490713E-2,6.719320081E-3
1.855958653E0,1.786728203E-2,-2.702999115E-2,6.719320081E-3
1.858437663E0,2.153236605E-2,-3.191677108E-2,6.719320081E-3
1.860915892E0,2.275406010E-2,-3.802524135E-2,6.719320081E-3
1.863394903E0,2.641914412E-2,-4.779879749E-2,7.941014133E-3
1.865874798E0,3.130592033E-2,-5.268557742E-2,7.941014133E-3
1.868353809E0,3.374931216E-2,-6.245913357E-2,1.038440317E-2
1.870832038E0,3.497100621E-2,-7.223268598E-2,1.160609815E-2
1.873311048E0,3.863608837E-2,-7.956285775E-2,1.282779220E-2
1.875790944E0,4.352286831E-2,-8.933641016E-2,1.527118124E-2
1.878269955E0,4.718795046E-2,-9.544488788E-2,1.649287529E-2
1.880748184E0,5.085303262E-2,-1.039967462E-1,1.649287529E-2
1.883227194E0,5.451811850E-2,-1.137702987E-1,1.893626526E-2
1.885707090E0,5.818320066E-2,-1.223221645E-1,2.137965336E-2
1.888186100E0,6.062658876E-2,-1.272089481E-1,2.382304333E-2
1.890664330E0,6.062658876E-2,-1.296523362E-1,2.382304333E-2
1.893143340E0,6.306997687E-2,-1.320957243E-1,2.626643144E-2
1.895623236E0,6.429167092E-2,-1.357607991E-1,2.993151546E-2
1.898102246E0,6.429167092E-2,-1.369825006E-1,3.237490356E-2
1.900580475E0,6.795676053E-2,-1.394258887E-1,3.359659761E-2
1.903059486E0,7.040014863E-2,-1.418692768E-1,3.481829539E-2
1.905539382E0,7.528692484E-2,-1.467560530E-1,3.603998944E-2
1.908018392E0,7.895200700E-2,-1.504211426E-1,3.603998944E-2
1.910496621E0,8.261708915E-2,-1.528645307E-1,3.481829539E-2
1.912975632E0,8.628217876E-2,-1.540862173E-1,3.481829539E-2
1.915455528E0,8.750387281E-2,-1.577513069E-1,3.237490356E-2
1.917934538E0,8.872556686E-2,-1.577513069E-1,3.115320951E-2
1.920412767E0,8.994726092E-2,-1.601946950E-1,2.870982140E-2
1.922891778E0,8.994726092E-2,-1.601946950E-1,2.870982140E-2
1.925371673E0,8.750387281E-2,-1.614163816E-1,2.870982140E-2
1.927850684E0,8.750387281E-2,-1.736333370E-1,3.115320951E-2
1.930328913E0,9.239064902E-2,-1.907370538E-1,3.726168349E-2
1.932807923E0,9.239064902E-2,-2.017323077E-1,3.726168349E-2
1.935287819E0,8.628217876E-2,-2.017323077E-1,2.993151546E-2
1.937766830E0,7.773031294E-2,-1.944021434E-1,2.382304333E-2
1.940245059E0,6.917845458E-2,-1.846285909E-1,1.527118124E-2
1.942724069E0,5.818320066E-2,-1.748550236E-1,7.941014133E-3
1.945203965E0,4.840964451E-2,-1.675248593E-1,5.497625098E-3
1.947682975E0,4.107947648E-2,-1.601946950E-1,6.108472589E-4
1.950161205E0,3.130592033E-2,-1.528645307E-1,-4.275931045E-3
1.952640215E0,2.397575416E-2,-1.418692768E-1,-1.038440317E-2
1.955120111E0,1.298050396E-2,-1.296523362E-1,-1.893626526E-2
1.957599069E0,3.206948051E-3,-1.149920002E-1,-2.504473738E-2
1.960077298E0,-6.566607859E-3,-1.039967462E-1,-3.481829539E-2
1.962556361E0,-1.511846948E-2,-9.055810422E-2,-4.092676565E-2
1.965036257E0,-2.122694254E-2,-8.322793990E-2,-4.581354558E-2
1.967515215E0,-2.489202656E-2,-7.711946964E-2,-5.192201585E-2
1.969993444E0,-2.977880463E-2,-7.223268598E-2,-5.558710173E-2
1.972472507E0,-2.977880463E-2,-6.734590977E-2,-6.291726977E-2
1.974952403E0,-2.977880463E-2,-6.612421572E-2,-6.780404598E-2
1.977431361E0,-3.100049868E-2,-6.368082762E-2,-7.024743408E-2
1.979909590E0,-3.222219273E-2,-6.001574174E-2,-7.513421029E-2
1.982388653E0,-3.344388679E-2,-5.268557742E-2,-7.635590434E-2
1.984868548E0,-3.588727489E-2,-4.657710344E-2,-7.879929990E-2
1.987347559E0,-4.199574888E-2,-3.802524135E-2,-7.879929990E-2
1.989825736E0,-4.688252881E-2,-2.702999115E-2,-7.879929990E-2
1.992304798E0,-5.421269313E-2,-1.847812906E-2,-7.879929990E-2
1.994784694E0,-6.032116711E-2,-6.261184346E-3,-7.879929990E-2
1.997263653E0,-6.642963737E-2,2.290677279E-3,-7.879929990E-2
1.999741882E0,-7.498150319E-2,1.572931744E-2,-7.635590434E-2
2.002220944E0,-8.231166750E-2,2.428117767E-2,-7.391251624E-2
2.004700840E0,-9.208522737E-2,3.283303976E-2,-7.269082218E-2
2.007179798E0,-9.819369763E-2,3.894151375E-2,-7.146912813E-2
2.009658028E0,-1.055238619E-1,4.504998401E-2,-6.780404598E-2
2.012137090E0,-1.128540337E-1,5.238015205E-2,-6.536065787E-2
2.014616986E0,-1.189625040E-1,5.482354015E-2,-6.413896382E-2
2.017095944E0,-1.226275861E-1,6.337540597E-2,-6.291726977E-2
2.019574173E0,-1.250709742E-1,7.070557028E-2,-6.047387794E-2
2.022053236E0,-1.262926757E-1,7.925742865E-2,-5.803048983E-2
2.024533132E0,-1.287360638E-1,8.903098851E-2,-6.047387794E-2
2.027012090E0,-1.299577504E-1,1.000262350E-1,-6.047387794E-2
2.029490319E0,-1.287360638E-1,1.122431830E-1,-5.925218388E-2
2.031969382E0,-1.250709742E-1,1.244601309E-1,-5.925218388E-2
2.034449278E0,-1.250709742E-1,1.354553849E-1,-6.047387794E-2
2.036928236E0,-1.262926757E-1,1.464506239E-1,-6.047387794E-2
2.039406465E0,-1.238492802E-1,1.611109674E-1,-6.169557199E-2
2.041885528E0,-1.250709742E-1,1.708845198E-1,-6.536065787E-2
2.044365423E0,-1.238492802E-1,1.818797737E-1,-6.780404598E-2
2.046844382E0,-1.226275861E-1,1.904316396E-1,-7.024743408E-2
2.049322611E0,-1.201841980E-1,1.953184158E-1,-7.391251624E-2
2.051801673E0,-1.201841980E-1,2.014268786E-1,-7.635590434E-2
2.054281569E0,-1.201841980E-1,2.050919682E-1,-7.635590434E-2
2.056760528E0,-1.189625040E-1,2.050919682E-1,-7.757759839E-2
2.059238757E0,-1.189625040E-1,2.063136548E-1,-7.879929990E-2
2.061717819E0,-1.189625040E-1,2.038702667E-1,-8.002099395E-2
2.064197715E0,-1.201841980E-1,1.965401024E-1,-8.246438205E-2
2.066676673E0,-1.226275861E-1,1.916533262E-1,-8.124268800E-2
2.069154903E0,-1.238492802E-1,1.818797737E-1,-8.246438205E-2
2.071633965E0,-1.250709742E-1,1.757712960E-1,-8.124268800E-2
2.074113861E0,-1.275143623E-1,1.684411317E-1,-8.124268800E-2
2.076592819E0,-1.275143623E-1,1.586675793E-1,-8.246438205E-2
2.079071048E0,-1.287360638E-1,1.525591016E-1,-7.879929990E-2
2.081550111E0,-1.311794519E-1,1.440072358E-1,-8.002099395E-2
2.084030007E0,-1.324011385E-1,1.330119967E-1,-8.002099395E-2
2.086508965E0,-1.324011385E-1,1.293469071E-1,-7.879929990E-2
2.088987194E0,-1.324011385E-1,1.232384369E-1,-7.879929990E-2
2.091466257E0,-1.324011385E-1,1.183516532E-1,-7.757759839E-2
2.093946153E0,-1.311794519E-1,1.097997949E-1,-7.879929990E-2
2.096425111E0,-1.299577504E-1,1.012479365E-1,-7.879929990E-2
2.098903340E0,-1.275143623E-1,9.636115283E-2,-7.879929990E-2
2.101382403E0,-1.262926757E-1,8.658760041E-2,-8.124268800E-2
2.103862298E0,-1.238492802E-1,8.047912270E-2,-7.879929990E-2
2.106341257E0,-1.201841980E-1,7.070557028E-2,-8.002099395E-2
2.108819486E0,-1.189625040E-1,6.459710002E-2,-8.246438205E-2
2.111298548E0,-1.152974218E-1,5.848862603E-2,-8.124268800E-2
2.113778392E0,-1.104106456E-1,5.115845799E-2,-7.879929990E-2
2.116257403E0,-1.091889441E-1,4.627167806E-2,-8.124268800E-2
2.118735632E0,-1.055238619E-1,4.260659590E-2,-8.368607610E-2
2.121214694E0,-1.018587798E-1,4.138490185E-2,-8.490777016E-2
2.123694538E0,-1.006370857E-1,4.382828996E-2,-8.612946421E-2
2.126173548E0,-9.941539168E-2,4.627167806E-2,-8.735115826E-2
2.128651778E0,-9.697200358E-2,5.238015205E-2,-8.735115826E-2
2.131130788E0,-9.575030953E-2,5.971032009E-2,-8.857285231E-2
2.133610684E0,-9.452861547E-2,6.581879407E-2,-9.101624042E-2
2.136089694E0,-9.330692142E-2,7.314895838E-2,-9.590301663E-2
2.138567923E0,-9.208522737E-2,7.925742865E-2,-9.712471068E-2
2.141046934E0,-8.842013776E-2,8.292251825E-2,-1.032331884E-1
2.143526830E0,-8.597674966E-2,8.536590636E-2,-1.056765765E-1
2.146005840E0,-8.231166750E-2,8.292251825E-2,-1.117850468E-1
2.148484069E0,-7.620319724E-2,7.803573459E-2,-1.166718230E-1
2.150963080E0,-7.131642103E-2,7.681404054E-2,-1.203369126E-1
2.153442975E0,-6.520794332E-2,7.070557028E-2,-1.240019947E-1
2.155921986E0,-6.154286116E-2,6.581879407E-2,-1.276670843E-1
2.158400215E0,-5.665608495E-2,6.337540597E-2,-1.313321590E-1
2.160879225E0,-5.054761097E-2,5.848862603E-2,-1.349972486E-1
2.163359121E0,-4.443913698E-2,5.238015205E-2,-1.386623234E-1
2.165838132E0,-3.833066672E-2,4.504998401E-2,-1.423274130E-1
2.168316361E0,-3.100049868E-2,4.016320780E-2,-1.459924877E-1
2.170795371E0,-2.367033064E-2,3.283303976E-2,-1.484358907E-1
2.173275267E0,-1.634016447E-2,2.183778957E-2,-1.533226669E-1
2.175754278E0,-6.566607859E-3,1.084253844E-2,-1.582094431E-1
2.178232507E0,1.985253533E-3,5.955760833E-3,-1.594311297E-1
2.180711517E0,9.315420873E-3,-5.039489828E-3,-1.618745178E-1
2.183191413E0,1.542389300E-2,-1.236965694E-2,-1.643179059E-1
2.185670423E0,2.153236605E-2,-2.092151903E-2,-1.667613089E-1
2.188148653E0,2.519745007E-2,-2.947338112E-2,-1.679829955E-1
2.190627663E0,3.130592033E-2,-3.680354729E-2,-1.692046970E-1
2.193107559E0,3.497100621E-2,-4.169032723E-2,-1.679829955E-1
2.195586569E0,3.863608837E-2,-4.779879749E-2,-1.667613089E-1
2.198064798E0,4.230117425E-2,-5.146388337E-2,-1.667613089E-1
2.200543809E0,4.352286831E-2,-5.512896553E-2,-1.655396074E-1
2.203023705E0,4.596625641E-2,-5.757235363E-2,-1.630962193E-1
2.205502715E0,4.963133857E-2,-6.123743951E-2,-1.606528312E-1
2.207980944E0,5.207473040E-2,-6.245913357E-2,-1.594311297E-1
2.210459955E0,5.329642445E-2,-6.001574174E-2,-1.557660550E-1
2.212939850E0,5.573981255E-2,-6.123743951E-2,-1.545443535E-1
2.215418861E0,5.696150661E-2,-5.879404768E-2,-1.508792788E-1
2.217897090E0,5.940489471E-2,-5.879404768E-2,-1.484358907E-1
2.220376100E0,6.306997687E-2,-5.512896553E-2,-1.447708011E-1
2.222855996E0,6.673506647E-2,-5.268557742E-2,-1.447708011E-1
2.225335007E0,7.162184268E-2,-5.024218559E-2,-1.435490996E-1
2.227813236E0,7.406523079E-2,-4.657710344E-2,-1.423274130E-1
2.230292246E0,8.139539510E-2,-4.413371533E-2,-1.411057115E-1
2.232772142E0,8.750387281E-2,-3.924693540E-2,-1.411057115E-1
2.235251153E0,9.361234307E-2,-3.680354729E-2,-1.398840249E-1
2.237729382E0,9.972081333E-2,-3.069507517E-2,-1.423274130E-1
2.240208392E0,1.046075895E-1,-2.947338112E-2,-1.423274130E-1
2.242688288E0,1.082726792E-1,-2.336490713E-2,-1.447708011E-1
2.245167298E0,1.107160673E-1,-1.969982497E-2,-1.435490996E-1
2.247645528E0,1.107160673E-1,-1.847812906E-2,-1.459924877E-1
2.250124538E0,1.119377613E-1,-1.481304597E-2,-1.496575773E-1
2.252604434E0,1.107160673E-1,-9.926267900E-3,-1.533226669E-1
2.255083444E0,1.094943732E-1,-8.704573847E-3,-1.569877416E-1
2.257561673E0,1.046075895E-1,-6.261184346E-3,-1.594311297E-1
2.260040684E0,9.972081333E-2,-7.482878864E-3,-1.643179059E-1
2.262520580E0,9.605573118E-2,-7.482878864E-3,-1.679829955E-1
2.264999590E0,8.994726092E-2,-8.704573847E-3,-1.692046970E-1
2.267477819E0,8.750387281E-2,-9.926267900E-3,-1.692046970E-1
2.269956830E0,8.383878320E-2,-1.236965694E-2,-1.728697717E-1
2.272436725E0,8.017370105E-2,-1.847812906E-2,-1.753131598E-1
2.274915736E0,7.773031294E-2,-2.214321308E-2,-1.753131598E-1
2.277393965E0,7.650861889E-2,-2.825168520E-2,-1.753131598E-1
2.279872975E0,7.650861889E-2,-3.436015919E-2,-1.753131598E-1
2.282352871E0,7.650861889E-2,-3.680354729E-2,-1.716480851E-1
2.284831830E0,7.650861889E-2,-3.680354729E-2,-1.655396074E-1
2.287310059E0,7.895200700E-2,-3.802524135E-2,-1.569877416E-1
2.289789121E0,8.017370105E-2,-3.802524135E-2,-1.484358907E-1
2.292269017E0,8.261708915E-2,-3.558185324E-2,-1.398840249E-1
2.294748028E0,8.139539510E-2,-3.069507517E-2,-1.301104724E-1
2.297226257E0,8.139539510E-2,-2.702999115E-2,-1.203369126E-1
2.299705267E0,7.773031294E-2,-2.092151903E-2,-1.105633527E-1
2.302185163E0,7.528692484E-2,-1.359135192E-2,-1.020114943E-1
2.304664121E0,6.917845458E-2,-7.482878864E-3,-9.345962852E-2
2.307142403E0,6.306997687E-2,1.068982761E-3,-8.979454637E-2
2.309621413E0,5.818320066E-2,8.399149403E-3,-8.368607610E-2
2.312101309E0,5.085303262E-2,1.939439960E-2,-8.124268800E-2
2.314580319E0,4.596625641E-2,2.916795574E-2,-7.635590434E-2
2.317058548E0,3.863608837E-2,3.649812192E-2,-7.269082218E-2
2.319537559E0,3.130592033E-2,4.138490185E-2,-7.024743408E-2
2.322017455E0,2.641914412E-2,4.749337584E-2,-6.780404598E-2
2.324496465E0,1.786728203E-2,4.993676394E-2,-6.536065787E-2
2.326974694E0,1.298050396E-2,4.749337584E-2,-5.925218388E-2
2.329453705E0,5.650337320E-3,4.016320780E-2,-5.803048983E-2
2.331933600E0,1.985253533E-3,2.794626169E-2,-5.436540768E-2
2.334412559E0,-1.679830020E-3,1.206423342E-2,-5.070032179E-2
2.336890788E0,-5.344913341E-3,-8.704573847E-3,-4.581354558E-2
2.339369850E0,-9.009997360E-3,-3.191677108E-2,-4.092676565E-2
2.341849746E0,-1.145338640E-2,-5.635065958E-2,-3.726168349E-2
2.344328705E0,-1.389677543E-2,-8.567132801E-2,-3.115320951E-2
2.346806934E0,-1.634016447E-2,-1.149920002E-1,-2.626643144E-2
2.349285996E0,-2.122694254E-2,-1.430909634E-1,-1.771457121E-2
2.351765892E0,-2.489202656E-2,-1.687465608E-1,-9.162709117E-3
2.354244850E0,-2.611372061E-2,-1.956238300E-1,-3.054236295E-3
2.356723080E0,-2.977880463E-2,-2.188360244E-1,5.497625098E-3
2.359202142E0,-3.588727489E-2,-2.408265322E-1,1.282779220E-2
2.361682038E0,-4.321744293E-2,-2.615953386E-1,1.649287529E-2
2.364160996E0,-4.932591692E-2,-2.774773538E-1,2.137965336E-2
2.366639225E0,-5.665608495E-2,-2.970244884E-1,2.260134928E-2
2.369118288E0,-6.642963737E-2,-3.116848171E-1,2.626643144E-2
2.371598184E0,-7.742489129E-2,-3.226800561E-1,2.626643144E-2
2.374077142E0,-8.964183182E-2,-3.312319219E-1,2.504473738E-2
2.376555371E0,-1.018587798E-1,-3.397837877E-1,2.260134928E-2
2.379034434E0,-1.152974218E-1,-3.471139669E-1,1.649287529E-2
2.381514330E0,-1.275143623E-1,-3.556658030E-1,9.162709117E-3
2.383993288E0,-1.397313178E-1,-3.666610718E-1,-6.108472589E-4
2.386471517E0,-1.495048702E-1,-3.788780272E-1,-1.404948719E-2
2.388950580E0,-1.592784226E-1,-3.898732662E-1,-2.993151546E-2
2.391430475E0,-1.641651988E-1,-4.020902216E-1,-4.703523964E-2
2.393909434E0,-1.666085869E-1,-4.130854607E-1,-6.780404598E-2
2.396387663E0,-1.690519750E-1,-4.240806997E-1,-8.612946421E-2
2.398866725E0,-1.678302884E-1,-4.326325655E-1,-1.044548824E-1
2.401346621E0,-1.641651988E-1,-4.350759685E-1,-1.240019947E-1
2.403825580E0,-1.580567211E-1,-4.375193417E-1,-1.447708011E-1
2.406303809E0,-1.519482583E-1,-4.350759685E-1,-1.655396074E-1
2.408782871E0,-1.458397806E-1,-4.301891923E-1,-1.826433241E-1
2.411262767E0,-1.385096163E-1,-4.253024161E-1,-2.021904439E-1
2.413741725E0,-1.324011385E-1,-4.167505503E-1,-2.205158621E-1
2.416219955E0,-1.275143623E-1,-4.106420577E-1,-2.376195788E-1
2.418699017E0,-1.238492802E-1,-3.984251320E-1,-2.559449971E-1
2.421178913E0,-1.177408099E-1,-3.825430870E-1,-2.742704153E-1
2.423657871E0,-1.152974218E-1,-3.691044450E-1,-2.925958335E-1
2.426136100E0,-1.128540337E-1,-3.495573401E-1,-3.109212518E-1
2.428615163E0,-1.104106456E-1,-3.287885487E-1,-3.268032968E-1
2.431095059E0,-1.091889441E-1,-3.080197275E-1,-3.463504016E-1
2.433574017E0,-1.104106456E-1,-2.823641598E-1,-3.622324169E-1
2.436052246E0,-1.091889441E-1,-2.640387416E-1,-3.744493723E-1
2.438531309E0,-1.091889441E-1,-2.396048307E-1,-3.878880143E-1
2.441011205E0,-1.091889441E-1,-2.151709497E-1,-3.988832533E-1
2.443490163E0,-1.079672500E-1,-1.797417998E-1,-4.098785222E-1
2.445968392E0,-1.067455560E-1,-1.491994411E-1,-4.159869850E-1
2.448447455E0,-1.055238619E-1,-1.101052165E-1,-4.196520746E-1
2.450927350E0,-1.018587798E-1,-6.734590977E-2,-4.269822240E-1
2.453406309E0,-9.819369763E-2,-2.702999115E-2,-4.367557764E-1
2.455884538E0,-9.086353332E-2,1.084253844E-2,-4.440859556E-1
2.458363600E0,-8.475505561E-2,4.993676394E-2,-4.514161348E-1
2.460843496E0,-7.498150319E-2,8.780929446E-2,-4.575245976E-1
2.463322455E0,-6.520794332E-2,1.220167428E-1,-4.624113739E-1
2.465800684E0,-5.421269313E-2,1.562241912E-1,-4.648547769E-1
2.468279746E0,-4.321744293E-2,1.892099380E-1,-4.672981501E-1
2.470759642E0,-2.977880463E-2,2.173089087E-1,-4.685198367E-1
2.473238600E0,-1.756185852E-2,2.454078794E-1,-4.685198367E-1
2.475716830E0,-4.123218823E-3,2.673983872E-1,-4.697415531E-1
2.478195892E0,9.315420873E-3,2.918322682E-1,-4.709632397E-1
2.480675788E0,2.153236605E-2,3.101576865E-1,-4.721849263E-1
2.483154746E0,3.252761811E-2,3.223746419E-1,-4.721849263E-1
2.485632975E0,4.718795046E-2,3.321481943E-1,-4.709632397E-1
2.488112038E0,6.062658876E-2,3.382566571E-1,-4.672981501E-1
2.490591934E0,7.162184268E-2,3.516952991E-1,-4.599680007E-1
2.493070892E0,8.017370105E-2,3.626905680E-1,-4.550811946E-1
2.495549121E0,8.994726092E-2,3.761292100E-1,-4.465293586E-1
2.498028184E0,9.727742523E-2,3.932329118E-1,-4.367557764E-1
2.500508080E0,9.972081333E-2,4.127800465E-1,-4.269822240E-1
2.502987038E0,1.021642014E-1,4.359922409E-1,-4.159869850E-1
2.505465267E0,1.046075895E-1,4.604261220E-1,-4.037700295E-1
2.507944330E0,1.033858955E-1,4.873034060E-1,-3.903313875E-1
2.510424225E0,1.021642014E-1,5.141806602E-1,-3.793361485E-1
2.512903184E0,9.972081333E-2,5.398362875E-1,-3.683409095E-1
2.515381413E0,9.849911928E-2,5.667135715E-1,-3.536805511E-1
2.517860475E0,9.483403713E-2,5.972558856E-1,-3.402419090E-1
2.520340371E0,9.116895497E-2,6.290199757E-1,-3.243598938E-1
2.522819330E0,8.750387281E-2,6.558972597E-1,-3.084778786E-1
2.525297559E0,8.628217876E-2,6.839962006E-1,-2.913741469E-1
2.527776569E0,8.383878320E-2,7.120952010E-1,-2.754921019E-1
2.530256517E0,8.139539510E-2,7.377507687E-1,-2.571666837E-1
2.532735475E0,8.139539510E-2,7.572978735E-1,-2.388412803E-1
2.535213705E0,8.139539510E-2,7.731798887E-1,-2.229592502E-1
2.537692767E0,8.383878320E-2,7.805100679E-1,-2.070772201E-1
2.540172663E0,8.750387281E-2,7.731798887E-1,-1.899735034E-1
2.542651621E0,8.994726092E-2,7.597413063E-1,-1.753131598E-1
2.545129850E0,9.361234307E-2,7.414158583E-1,-1.618745178E-1
2.547608861E0,9.727742523E-2,7.084301114E-1,-1.484358907E-1
2.550088757E0,1.033858955E-1,6.705575585E-1,-1.349972486E-1
2.552567767E0,1.119377613E-1,6.277982593E-1,-1.215586066E-1
2.555045996E0,1.180462316E-1,5.825955868E-1,-1.105633527E-1
2.557525059E0,1.241547018E-1,5.337277651E-1,-9.834641218E-2
2.560004955E0,1.265980899E-1,4.848600030E-1,-8.979454637E-2
2.562483913E0,1.302631795E-1,4.323271513E-1,-8.246438205E-2
2.564962142E0,1.314848661E-1,3.797942698E-1,-7.757759839E-2
2.567441205E0,1.327065676E-1,3.235963285E-1,-7.146912813E-2
2.569921100E0,1.327065676E-1,2.710634768E-1,-6.536065787E-2
2.572400059E0,1.327065676E-1,2.160872221E-1,-6.291726977E-2
2.574878288E0,1.327065676E-1,1.647760421E-1,-6.169557199E-2
2.577357298E0,1.314848661E-1,1.183516532E-1,-5.680879578E-2
2.579837194E0,1.302631795E-1,7.437065244E-2,-5.070032179E-2
2.582316205E0,1.327065676E-1,3.161134571E-2,-4.825693369E-2
2.584794434E0,1.314848661E-1,-6.261184346E-3,-4.581354558E-2
2.587273444E0,1.339282542E-1,-4.413371533E-2,-4.337015375E-2
2.589753340E0,1.351499557E-1,-7.834116369E-2,-4.703523964E-2
2.592232350E0,1.388150454E-1,-1.064401343E-1,-4.947862774E-2
2.594710580E0,1.437018216E-1,-1.284306347E-1,-5.558710173E-2
2.597189642E0,1.485885978E-1,-1.491994411E-1,-6.291726977E-2
2.599669486E0,1.522536725E-1,-1.626380831E-1,-7.513421029E-2
2.602148496E0,1.559187621E-1,-1.650814712E-1,-8.979454637E-2
2.604626725E0,1.608055383E-1,-1.589729935E-1,-1.068982705E-1
2.607105736E0,1.656923145E-1,-1.443126649E-1,-1.252236813E-1
2.609585632E0,1.718007922E-1,-1.333174109E-1,-1.423274130E-1
2.612064642E0,1.791309565E-1,-1.174353883E-1,-1.618745178E-1
2.614542871E0,1.840177327E-1,-9.422318637E-2,-1.777565479E-1
2.617021882E0,1.901262105E-1,-7.223268598E-2,-1.960819662E-1
2.619501778E0,1.974563748E-1,-5.268557742E-2,-2.107423097E-1
2.621980788E0,2.060082406E-1,-3.680354729E-2,-2.241809368E-1
2.624459017E0,2.133384049E-1,-1.847812906E-2,-2.339545041E-1
2.626938028E0,2.194468826E-1,-3.817795310E-3,-2.425063550E-1
2.629417923E0,2.267770469E-1,1.450762246E-2,-2.486148328E-1
2.631896934E0,2.353289127E-1,2.916795574E-2,-2.522799075E-1
2.634375163E0,2.414373755E-1,4.260659590E-2,-2.547233105E-1
2.636854173E0,2.463241518E-1,5.971032009E-2,-2.571666837E-1
2.639334069E0,2.487675399E-1,8.536590636E-2,-2.583884001E-1
2.641813080E0,2.524326444E-1,1.159082651E-1,-2.596100867E-1
2.644291309E0,2.524326444E-1,1.440072358E-1,-2.596100867E-1
2.646770319E0,2.524326444E-1,1.733279079E-1,-2.608317733E-1
2.649250215E0,2.524326444E-1,2.026485801E-1,-2.559449971E-1
2.651729225E0,2.512109280E-1,2.283041626E-1,-2.522799075E-1
2.654207455E0,2.475458533E-1,2.551814318E-1,-2.486148328E-1
2.656686465E0,2.438807636E-1,2.771719396E-1,-2.425063550E-1
2.659166361E0,2.389939874E-1,2.967190444E-1,-2.363978922E-1
2.661645371E0,2.316638231E-1,3.150444627E-1,-2.278460264E-1
2.664123600E0,2.231119573E-1,3.333698809E-1,-2.192941606E-1
2.666602611E0,2.145601064E-1,3.504736125E-1,-2.107423097E-1
2.669082507E0,2.047865391E-1,3.651339412E-1,-2.009687424E-1
2.671561517E0,1.950129867E-1,3.797942698E-1,-1.899735034E-1
2.674039746E0,1.864611208E-1,3.907895386E-1,-1.765348613E-1
2.676518757E0,1.779092699E-1,4.005630910E-1,-1.643179059E-1
2.678998653E0,1.656923145E-1,4.188885093E-1,-1.557660550E-1
2.681477663E0,1.522536725E-1,4.421007037E-1,-1.459924877E-1
2.683955892E0,1.375933439E-1,4.640912116E-1,-1.374406368E-1
2.686434903E0,1.241547018E-1,4.897467792E-1,-1.276670843E-1
2.688914798E0,1.119377613E-1,5.154023767E-1,-1.203369126E-1
2.691393809E0,9.849911928E-2,5.435013771E-1,-1.142284349E-1
2.693872038E0,8.506047726E-2,5.740436912E-1,-1.056765765E-1
2.696351048E0,7.406523079E-2,5.972558856E-1,-9.834641218E-2
2.698830944E0,6.429167092E-2,6.229115129E-1,-8.979454637E-2
2.701309955E0,5.451811850E-2,6.400152445E-1,-8.246438205E-2
2.703788184E0,4.352286831E-2,6.571189165E-1,-7.513421029E-2
2.706267194E0,3.497100621E-2,6.668924689E-1,-6.902574003E-2
2.708747090E0,2.519745007E-2,6.705575585E-1,-6.413896382E-2
2.711226100E0,1.786728203E-2,6.717792749E-1,-5.558710173E-2
2.713704330E0,8.093725890E-3,6.668924689E-1,-4.947862774E-2
2.716183340E0,1.985253533E-3,6.620057225E-1,-4.337015375E-2
2.718663236E0,-5.344913341E-3,6.522321701E-1,-3.970507160E-2
2.721142246E0,-1.267508045E-2,6.387935281E-1,-3.237490356E-2
2.723620475E0,-2.000524849E-2,6.229115129E-1,-2.748812735E-2
2.726099486E0,-2.733541466E-2,6.070294380E-1,-2.015795931E-2
2.728579382E0,-3.588727489E-2,5.923691392E-1,-1.282779220E-2
2.731058392E0,-4.443913698E-2,5.777087808E-1,-6.719320081E-3
2.733536621E0,-4.932591692E-2,5.667135715E-1,6.108472589E-4
2.736015632E0,-5.665608495E-2,5.569399595E-1,5.497625098E-3
2.738495528E0,-6.398624927E-2,5.471664071E-1,1.160609815E-2
2.740974538E0,-7.009471953E-2,5.373928547E-1,1.527118124E-2
2.743452767E0,-7.864658535E-2,5.276193023E-1,2.137965336E-2
2.745931778E0,-8.353336155E-2,5.202891231E-1,2.870982140E-2
2.748411673E0,-8.842013776E-2,5.117372870E-1,3.481829539E-2
2.750890684E0,-9.452861547E-2,5.056288242E-1,4.092676565E-2
2.753368913E0,-9.697200358E-2,5.044071078E-1,4.825693369E-2
2.755847923E0,-9.575030953E-2,4.970769584E-1,5.803048983E-2
2.758327819E0,-9.330692142E-2,4.897467792E-1,6.413896382E-2
2.760806830E0,-8.842013776E-2,4.799732268E-1,7.146912813E-2
2.763285059E0,-7.986827940E-2,4.689779878E-1,7.879929990E-2
2.765764069E0,-7.009471953E-2,4.567610323E-1,8.490777016E-2
2.768243965E0,-5.421269313E-2,4.408790171E-1,8.979454637E-2
2.770722975E0,-3.710897267E-2,4.201101959E-1,9.345962852E-2
2.773201205E0,-2.244863659E-2,4.054498672E-1,9.834641218E-2
2.775680215E0,-4.123218823E-3,3.871244490E-1,1.044548824E-1
2.778160111E0,1.542389300E-2,3.700207174E-1,1.093416587E-1
2.780639121E0,3.252761811E-2,3.443651497E-1,1.154501289E-1
2.783117350E0,4.718795046E-2,3.162661791E-1,1.203369126E-1
2.785596361E0,6.306997687E-2,2.869454920E-1,1.240019947E-1
2.788076257E0,7.895200700E-2,2.539597452E-1,1.337755471E-1
2.790555267E0,9.116895497E-2,2.197522968E-1,1.386623234E-1
2.793033496E0,1.046075895E-1,1.831014603E-1,1.447708011E-1
2.795512507E0,1.168245375E-1,1.488940120E-1,1.496575773E-1
2.797992403E0,1.290414780E-1,1.159082651E-1,1.557660550E-1
2.800471413E0,1.412584335E-1,8.658760041E-2,1.606528312E-1
2.802949642E0,1.546970755E-1,5.848862603E-2,1.630962193E-1
2.805428653E0,1.656923145E-1,3.894151375E-2,1.655396074E-1
2.807908548E0,1.779092699E-1,2.550287358E-2,1.716480851E-1
2.810387559E0,1.876828223E-1,2.305948362E-2,1.753131598E-1
2.812865788E0,1.962346882E-1,2.550287358E-2,1.777565479E-1
2.815344798E0,2.047865391E-1,4.016320780E-2,1.826433241E-1
2.817824694E0,2.121167034E-1,5.848862603E-2,1.863084137E-1
2.820303705E0,2.182251811E-1,7.681404054E-2,1.875301152E-1
2.822781934E0,2.206685692E-1,1.036913246E-1,1.911951900E-1
2.825260944E0,2.243336588E-1,1.281252056E-1,1.948602796E-1
2.827740840E0,2.292204350E-1,1.611109674E-1,1.973036677E-1
2.830219850E0,2.328855246E-1,2.014268786E-1,1.997470558E-1
2.832698080E0,2.353289127E-1,2.405211031E-1,1.973036677E-1
2.835177090E0,2.389939874E-1,2.783936262E-1,1.973036677E-1
2.837656986E0,2.402156889E-1,3.101576865E-1,1.973036677E-1
2.840135996E0,2.438807636E-1,3.419217467E-1,1.960819662E-1
2.842614225E0,2.463241518E-1,3.663556576E-1,1.960819662E-1
2.845093236E0,2.499892414E-1,3.834593594E-1,1.973036677E-1
2.847573132E0,2.524326444E-1,3.956763148E-1,1.985253543E-1
2.850052142E0,2.573194206E-1,4.017847776E-1,2.009687424E-1
2.852530371E0,2.609844804E-1,4.042281806E-1,2.046338320E-1
2.855009382E0,2.658712566E-1,4.054498672E-1,2.070772201E-1
2.857489278E0,2.707580328E-1,4.017847776E-1,2.107423097E-1
2.859968236E0,2.768665254E-1,3.944546282E-1,2.156290859E-1
2.862446517E0,2.805316150E-1,3.883461356E-1,2.241809368E-1
2.864925528E0,2.878617644E-1,3.810159862E-1,2.315111160E-1
2.867405423E0,2.951919436E-1,3.724641204E-1,2.412846684E-1
2.869884434E0,3.049654961E-1,3.675773442E-1,2.522799075E-1
2.872362663E0,3.135173619E-1,3.614688516E-1,2.657185495E-1
2.874841673E0,3.220692277E-1,3.516952991E-1,2.803788781E-1
2.877321569E0,3.306210935E-1,3.443651497E-1,2.925958335E-1
2.879800580E0,3.403946459E-1,3.333698809E-1,3.084778786E-1
2.882278809E0,3.501681983E-1,3.260397315E-1,3.243598938E-1
2.884757819E0,3.587200642E-1,3.199312389E-1,3.390202224E-1
2.887237715E0,3.684936166E-1,3.150444627E-1,3.573456407E-1
2.889716725E0,3.758237660E-1,3.126010895E-1,3.768927455E-1
2.892194903E0,3.819322586E-1,3.138227761E-1,3.976615667E-1
2.894673965E0,3.855973184E-1,3.174878657E-1,4.184303582E-1
2.897153861E0,3.868190348E-1,3.174878657E-1,4.379774928E-1
2.899632819E0,3.843756318E-1,3.187095523E-1,4.575245976E-1
2.902111048E0,3.770454824E-1,3.174878657E-1,4.770717025E-1
2.904590111E0,3.684936166E-1,3.199312389E-1,4.966188073E-1
2.907070007E0,3.574983478E-1,3.162661791E-1,5.112791657E-1
2.909548965E0,3.416163325E-1,3.150444627E-1,5.283828974E-1
2.912027246E0,3.196258247E-1,3.089359999E-1,5.418215394E-1
2.914506257E0,2.951919436E-1,3.040492237E-1,5.552601814E-1
2.916986153E0,2.670929730E-1,3.016058207E-1,5.638120174E-1
2.919465111E0,2.304421216E-1,3.077143133E-1,5.735855699E-1
2.921943340E0,1.925695986E-1,3.199312389E-1,5.760289431E-1
2.924422403E0,1.522536725E-1,3.443651497E-1,5.772506595E-1
2.926902298E0,1.131594554E-1,3.785725832E-1,5.723638535E-1
2.929381257E0,7.406523079E-2,4.140017331E-1,5.613686442E-1
2.931859486E0,3.497100621E-2,4.555393457E-1,5.479300022E-1
2.934338548E0,-2.901524538E-3,4.897467792E-1,5.296045542E-1
2.936818444E0,-3.955236077E-2,5.227325559E-1,5.027272701E-1
2.939297403E0,-7.742489129E-2,5.569399595E-1,4.770717025E-1
2.941775632E0,-1.128540337E-1,5.850389600E-1,4.465293586E-1
2.944254694E0,-1.458397806E-1,6.131379604E-1,4.208737612E-1
2.946734590E0,-1.751604527E-1,6.265766025E-1,3.915531039E-1
2.949213548E0,-2.008160353E-1,6.351284385E-1,3.646758199E-1
2.951691778E0,-2.215848416E-1,6.449019909E-1,3.390202224E-1
2.954170840E0,-2.338017821E-1,6.473453641E-1,3.170297146E-1
2.956650736E0,-2.411319613E-1,6.497887969E-1,2.950392365E-1
2.959129694E0,-2.411319613E-1,6.510104537E-1,2.742704153E-1
2.961607923E0,-2.374668717E-1,6.473453641E-1,2.571666837E-1
2.964086986E0,-2.350234836E-1,6.387935281E-1,2.425063550E-1
2.966566882E0,-2.301367074E-1,6.241331697E-1,2.315111160E-1
2.969045840E0,-2.289150059E-1,5.984776020E-1,2.205158621E-1
2.971524069E0,-2.301367074E-1,5.654918551E-1,2.107423097E-1
2.974003132E0,-2.325800955E-1,5.227325559E-1,1.997470558E-1
2.976483028E0,-2.399102598E-1,4.763081372E-1,1.911951900E-1
2.978961986E0,-2.509055138E-1,4.213318825E-1,1.814216375E-1
2.981440215E0,-2.667875290E-1,3.687990308E-1,1.765348613E-1
2.983919278E0,-2.912214398E-1,3.187095523E-1,1.728697717E-1
2.986399173E0,-3.254288733E-1,2.722851634E-1,1.740914732E-1
2.988878132E0,-3.657447994E-1,2.331909388E-1,1.801999360E-1
2.991356361E0,-4.182776511E-1,1.977618039E-1,1.875301152E-1
2.993835423E0,-4.781406820E-1,1.684411317E-1,1.973036677E-1
2.996315319E0,-5.477772951E-1,1.440072358E-1,2.046338320E-1
2.998794278E0,-6.247440577E-1,1.244601309E-1,2.107423097E-1
3.001272507E0,-7.090409398E-1,1.085781008E-1,2.156290859E-1
3.003751569E0,-8.006680608E-1,9.513945878E-2,2.180724740E-1
3.006231465E0,-8.971819282E-1,8.536590636E-2,2.168507725E-1
3.008710423E0,-9.985825419E-1,7.192726433E-2,2.156290859E-1
3.011188653E0,-1.102426648E0,6.093201414E-2,2.107423097E-1
3.013667715E0,-1.209935665E0,4.871506989E-2,2.046338320E-1
3.016147611E0,-1.318666577E0,3.161134571E-2,1.960819662E-1
3.018626569E0,-1.426175594E0,1.084253844E-2,1.875301152E-1
3.021104798E0,-1.533684731E0,-7.482878864E-3,1.740914732E-1
3.023583861E0,-1.641193867E0,-2.336490713E-2,1.582094431E-1
3.026063757E0,-1.745037913E0,-4.291202128E-2,1.398840249E-1
3.028542715E0,-1.845216870E0,-5.635065958E-2,1.178935245E-1
3.031020944E0,-1.942952394E0,-6.490252167E-2,9.223793447E-2
3.033500007E0,-2.034579515E0,-6.856760383E-2,6.536065787E-2
3.035979903E0,-2.122541428E0,-6.368082762E-2,3.726168349E-2
3.038458861E0,-2.204395056E0,-5.512896553E-2,4.275931045E-3
3.040937090E0,-2.281361818E0,-3.313846514E-2,-2.748812735E-2
3.043416153E0,-2.350998402E0,-5.039489828E-3,-5.925218388E-2
3.045896048E0,-2.419413328E0,2.794626169E-2,-8.979454637E-2
3.048375007E0,-2.481719732E0,6.704048812E-2,-1.215586066E-1
3.050853236E0,-2.545247793E0,1.171299592E-1,-1.545443535E-1
3.053332298E0,-2.605110884E0,1.721062213E-1,-1.850867122E-1
3.055812194E0,-2.657643795E0,2.331909388E-1,-2.168507725E-1
3.058291153E0,-2.705289841E0,3.003841341E-1,-2.486148328E-1
3.060769382E0,-2.751714230E0,3.761292100E-1,-2.828222811E-1
3.063248444E0,-2.799360275E0,4.616478086E-1,-3.206948042E-1
3.065728340E0,-2.856779814E0,5.520532131E-1,-3.671191931E-1
3.068207298E0,-2.922751427E0,6.558972597E-1,-4.196520746E-1
3.070685528E0,-2.988723040E0,7.878402472E-1,-4.721849263E-1
3.073164590E0,-3.057137728E0,9.381086826E-1,-5.296045542E-1
3.075644486E0,-3.120666027E0,1.089598775E0,-5.882459283E-1
3.078123444E0,-3.175642252E0,1.249640822E0,-6.395570636E-1
3.080601673E0,-3.213514805E0,1.412126184E0,-6.823163629E-1
3.083080736E0,-3.231840134E0,1.578276634E0,-7.165238261E-1
3.085560632E0,-3.231840134E0,1.743205309E0,-7.434011102E-1
3.088039590E0,-3.213514805E0,1.904469013E0,-7.580614686E-1
3.090517819E0,-3.171977043E0,2.070619583E0,-7.690566778E-1
3.092996882E0,-3.114557505E0,2.228218079E0,-7.763868570E-1
3.095476778E0,-3.042477369E0,2.374821424E0,-7.788302302E-1
3.097955736E0,-2.959402323E0,2.499434233E0,-7.837170362E-1
3.100433965E0,-2.870218515E0,2.593504667E0,-7.849387527E-1
3.102913028E0,-2.778591394E0,2.652146101E0,-7.898254991E-1
3.105392923E0,-2.690629482E0,2.668028116E0,-7.959339619E-1
3.107871882E0,-2.603889227E0,2.646037579E0,-7.995990515E-1
3.110350111E0,-2.519592285E0,2.580066204E0,-8.044858575E-1
3.112829173E0,-2.445068836E0,2.475000381E0,-8.105943203E-1
3.115309069E0,-2.379097462E0,2.328397036E0,-8.179244995E-1
3.117788028E0,-2.321677685E0,2.150029659E0,-8.203678727E-1
3.120266257E0,-2.270366669E0,1.944784999E0,-8.264763355E-1
3.122745319E0,-2.231272221E0,1.717549801E0,-8.289197087E-1
3.125225215E0,-2.205616713E0,1.485427856E0,-8.350282311E-1
3.127704173E0,-2.192178011E0,1.259414315E0,-8.423583508E-1
3.130182403E0,-2.193399906E0,1.059056401E0,-8.533536196E-1
3.132661465E0,-2.204395056E0,8.953493834E-1,-8.655705452E-1
3.135141361E0,-2.217833757E0,7.658497691E-1,-8.802309036E-1
3.137620319E0,-2.228828907E0,6.546755433E-1,-9.022213817E-1
3.140098548E0,-2.234937429E0,5.544965863E-1,-9.327637553E-1
3.142577611E0,-2.239824295E0,4.592044353E-1,-9.681929350E-1
3.145057507E0,-2.238602400E0,3.639122546E-1,-1.007287145E0
3.147536465E0,-2.236159086E0,2.710634768E-1,-1.051268101E0
3.150014694E0,-2.233715773E0,1.794363856E-1,-1.091584086E0
3.152493757E0,-2.232494116E0,9.636115283E-2,-1.130678296E0
3.154973653E0,-2.233715773E0,2.183778957E-2,-1.174659252E0
3.157452611E0,-2.236159086E0,-4.169032723E-2,-1.214975238E0
3.159930840E0,-2.238602400E0,-1.039967462E-1,-1.249182701E0
3.162409903E0,-2.236159086E0,-1.736333370E-1,-1.283390045E0
3.164889798E0,-2.231272221E0,-2.554868758E-1,-1.317597508E0
3.167368757E0,-2.222720385E0,-3.483356535E-1,-1.349361539E0
3.169846986E0,-2.215390205E0,-4.558447599E-1,-1.379903913E0
3.172326048E0,-2.204395056E0,-5.755708218E-1,-1.408002973E0
3.174805944E0,-2.190956354E0,-7.124006152E-1,-1.436101913E0
3.177284903E0,-2.176295996E0,-8.602256775E-1,-1.460535765E0
3.179763132E0,-2.167744160E0,-1.019045949E0,-1.483747959E0
3.182242194E0,-2.159192324E0,-1.172979474E0,-1.502073407E0
3.184722090E0,-2.159192324E0,-1.311030984E0,-1.519177079E0
3.187201048E0,-2.164079189E0,-1.425870180E0,-1.531394124E0
3.189679278E0,-2.176295996E0,-1.522384048E0,-1.539945960E0
3.192158340E0,-2.192178011E0,-1.608055353E0,-1.547276139E0
3.194638236E0,-2.209281921E0,-1.691130638E0,-1.552162886E0
3.197117194E0,-2.227607250E0,-1.766875744E0,-1.553384542E0
3.199595423E0,-2.245932579E0,-1.836512327E0,-1.553384542E0
3.202074486E0,-2.266701460E0,-1.897596955E0,-1.549719453E0
3.204554382E0,-2.288691998E0,-1.956238389E0,-1.546054363E0
3.207033340E0,-2.310682535E0,-2.006327868E0,-1.541167617E0
3.209511569E0,-2.333894730E0,-2.053973913E0,-1.535059214E0
3.211990632E0,-2.358328581E0,-2.091846466E0,-1.532615781E0
3.214470528E0,-2.383984089E0,-2.126053810E0,-1.532615781E0
3.216949486E0,-2.410861492E0,-2.167591572E0,-1.541167617E0
3.219427715E0,-2.438960314E0,-2.218902588E0,-1.553384542E0
3.221906778E0,-2.465837717E0,-2.257996798E0,-1.564379811E0
3.224386673E0,-2.489049911E0,-2.303199530E0,-1.579040170E0
3.226865632E0,-2.513483763E0,-2.353289127E0,-1.598587275E0
3.229343861E0,-2.536695957E0,-2.410708666E0,-1.619356036E0
3.231822923E0,-2.561129808E0,-2.471793413E0,-1.640124917E0
3.234302819E0,-2.585563660E0,-2.527991295E0,-1.662115335E0
3.236781778E0,-2.600224018E0,-2.565863848E0,-1.676775694E0
3.239260007E0,-2.609997511E0,-2.590297699E0,-1.686549306E0
3.241739069E0,-2.612441063E0,-2.598849773E0,-1.692657709E0
3.244218965E0,-2.611219406E0,-2.595184565E0,-1.703652978E0
3.246697923E0,-2.602667570E0,-2.576859236E0,-1.709761500E0
3.249176153E0,-2.591672182E0,-2.540208340E0,-1.708539724E0
3.251655215E0,-2.580677032E0,-2.490118742E0,-1.701209664E0
3.254135111E0,-2.561129808E0,-2.435142517E0,-1.688992620E0
3.256614069E0,-2.537917614E0,-2.386274815E0,-1.671888947E0
3.259092298E0,-2.512262106E0,-2.354510784E0,-1.649898410E0
3.261571361E0,-2.481719732E0,-2.331298590E0,-1.629129648E0
3.264051257E0,-2.447512150E0,-2.320303202E0,-1.601030707E0
3.266530215E0,-2.408417940E0,-2.320303202E0,-1.570488334E0
3.269008444E0,-2.368102074E0,-2.330076933E0,-1.537502527E0
3.271487507E0,-2.331451178E0,-2.344737291E0,-1.504516840E0
3.273967403E0,-2.302130699E0,-2.361840963E0,-1.472752690E0
3.276446361E0,-2.276474953E0,-2.378944635E0,-1.440988660E0
3.278924590E0,-2.253262758E0,-2.396048307E0,-1.408002973E0
3.281403653E0,-2.231272221E0,-2.409487009E0,-1.375017166E0
3.283883548E0,-2.211725235E0,-2.421704054E0,-1.335922956E0
3.286362507E0,-2.195843220E0,-2.427812338E0,-1.295607090E0
3.288840736E0,-2.186069727E0,-2.432699203E0,-1.254069448E0
3.291319798E0,-2.178739548E0,-2.441251040E0,-1.213753462E0
3.293799694E0,-2.173852682E0,-2.448581219E0,-1.170994163E0
3.296278653E0,-2.162857533E0,-2.440029383E0,-1.127013206E0
3.298756882E0,-2.143310308E0,-2.407043695E0,-1.079367161E0
3.301235944E0,-2.109102964E0,-2.349623919E0,-1.030499339E0
3.303715840E0,-2.060235023E0,-2.266548872E0,-9.816315174E-1
3.306194798E0,-1.995485306E0,-2.149266005E0,-9.315420985E-1
3.308673028E0,-1.922183633E0,-2.017323017E0,-8.838959932E-1
3.311152090E0,-1.847660303E0,-1.882936716E0,-8.386932611E-1
3.313631986E0,-1.779245377E0,-1.763210654E0,-7.995990515E-1
3.316110944E0,-1.720604062E0,-1.660588264E0,-7.653915882E-1
3.318589173E0,-1.670514584E0,-1.578582048E0,-7.360709310E-1
3.321068236E0,-1.636307120E0,-1.519940734E0,-7.067502737E-1
3.323548132E0,-1.615538239E0,-1.477181435E0,-6.676560640E-1
3.326027090E0,-1.604543090E0,-1.447860718E0,-6.236750484E-1
3.328505319E0,-1.602099657E0,-1.424648523E0,-5.809157491E-1
3.330984382E0,-1.604543090E0,-1.411209822E0,-5.393781066E-1
3.333464278E0,-1.603321314E0,-1.403879762E0,-5.002838969E-1
3.335943236E0,-1.600878000E0,-1.408766508E0,-4.648547769E-1
3.338421465E0,-1.589882731E0,-1.419761777E0,-4.318690002E-1
3.340900528E0,-1.570335627E0,-1.435643792E0,-4.025483429E-1
3.343380423E0,-1.543458343E0,-1.451525807E0,-3.781144619E-1
3.345859382E0,-1.512915969E0,-1.464964390E0,-3.573456407E-1
3.348337611E0,-1.478708506E0,-1.485733271E0,-3.365768492E-1
3.350816673E0,-1.440835953E0,-1.501615286E0,-3.182514310E-1
3.353296569E0,-1.401741743E0,-1.516275644E0,-3.035911024E-1
3.355775528E0,-1.360204101E0,-1.530935884E0,-2.938175201E-1
3.358253757E0,-1.319888234E0,-1.539487839E0,-2.828222811E-1
3.360732819E0,-1.275907159E0,-1.541931152E0,-2.791571915E-1
3.363212715E0,-1.231926203E0,-1.532157660E0,-2.816005945E-1
3.365691673E0,-1.184280157E0,-1.510167122E0,-2.840439677E-1
3.368169903E0,-1.135412335E0,-1.485733271E0,-2.901524603E-1
3.370648965E0,-1.087766290E0,-1.460077643E0,-2.962609231E-1
3.373128861E0,-1.040120125E0,-1.430757046E0,-3.072561622E-1
3.375607819E0,-9.936957955E-1,-1.396549582E0,-3.158080280E-1
3.378086048E0,-9.472714067E-1,-1.359898686E0,-3.243598938E-1
3.380565111E0,-8.996253014E-1,-1.328134656E0,-3.316900730E-1
3.383045007E0,-8.507575393E-1,-1.301257372E0,-3.414636254E-1
3.385523965E0,-8.018897176E-1,-1.284153700E0,-3.500154912E-1
3.388002194E0,-7.518002391E-1,-1.263384819E0,-3.597890437E-1
3.390481257E0,-7.004891038E-1,-1.240172625E0,-3.658975065E-1
3.392961153E0,-6.430694461E-1,-1.213295341E0,-3.695625961E-1
3.395440111E0,-5.856497884E-1,-1.175422788E0,-3.744493723E-1
3.397918340E0,-5.282301903E-1,-1.142437100E0,-3.817795515E-1
3.400397403E0,-4.744756222E-1,-1.103342891E0,-3.878880143E-1
3.402877298E0,-4.170559645E-1,-1.056918502E0,-3.903313875E-1
3.405356257E0,-3.596363366E-1,-1.003163934E0,-3.976615667E-1
3.407834486E0,-3.022166789E-1,-9.433009028E-1,-4.049917459E-1
3.410313548E0,-2.484621257E-1,-8.834378719E-1,-4.135435820E-1
3.412793444E0,-1.898207814E-1,-8.211314082E-1,-4.184303582E-1
3.415272403E0,-1.324011385E-1,-7.600467205E-1,-4.269822240E-1
3.417750632E0,-7.620319724E-2,-7.026270628E-1,-4.330907166E-1
3.420229694E0,-2.122694254E-2,-6.549809575E-1,-4.404208660E-1
3.422709590E0,3.374931216E-2,-6.146650314E-1,-4.465293586E-1
3.425188548E0,9.239064902E-2,-5.706840754E-1,-4.538595080E-1
3.427666778E0,1.498102844E-1,-5.279247165E-1,-4.611896873E-1
3.430145840E0,2.072299272E-1,-4.863871336E-1,-4.697415531E-1
3.432625684E0,2.634278834E-1,-4.460712075E-1,-4.795151055E-1
3.435104694E0,3.171824515E-1,-4.057552814E-1,-4.868452549E-1
3.437582923E0,3.660502136E-1,-3.654393852E-1,-4.929537475E-1
3.440061986E0,4.149180055E-1,-3.287885487E-1,-4.978405237E-1
3.442541882E0,4.588989913E-1,-2.933593988E-1,-5.039489865E-1
3.445020840E0,5.004366040E-1,-2.567085624E-1,-5.088357925E-1
3.447499069E0,5.395308137E-1,-2.261662036E-1,-5.125008225E-1
3.449978132E0,5.774033666E-1,-1.944021434E-1,-5.137225389E-1
3.452458028E0,6.164975762E-1,-1.638597846E-1,-5.161659122E-1
3.454936986E0,6.555918455E-1,-1.357607991E-1,-5.173876286E-1
3.457415215E0,6.934643388E-1,-1.101052165E-1,-5.173876286E-1
3.459894278E0,7.301151752E-1,-8.567132801E-2,-5.198310018E-1
3.462374173E0,7.679877281E-1,-5.757235363E-2,-5.210527182E-1
3.464853132E0,8.034168482E-1,-3.313846514E-2,-5.234960914E-1
3.467331361E0,8.400676847E-1,-8.704573847E-3,-5.259394646E-1
3.469810423E0,8.754968047E-1,1.450762246E-2,-5.283828974E-1
3.472290267E0,9.109259844E-1,3.771981969E-2,-5.344913602E-1
3.474769278E0,9.475768209E-1,5.848862603E-2,-5.393781066E-1
3.477247507E0,9.830059409E-1,7.925742865E-2,-5.479300022E-1
3.479726569E0,1.020878434E0,1.000262350E-1,-5.564818382E-1
3.482206465E0,1.057529330E0,1.183516532E-1,-5.686988235E-1
3.484685423E0,1.100288630E0,1.342336833E-1,-5.833591223E-1
3.487163653E0,1.146713018E0,1.501157135E-1,-5.980194807E-1
3.489642715E0,1.196802497E0,1.672194302E-1,-6.126797795E-1
3.492122559E0,1.255443811E0,1.806580722E-1,-6.310052276E-1
3.494601569E0,1.312863469E0,2.014268786E-1,-6.517740488E-1
3.497079798E0,1.377766013E0,2.234173864E-1,-6.713211536E-1
3.499558861E0,1.444959164E0,2.490729690E-1,-6.896465421E-1
3.502038757E0,1.513374090E0,2.759502530E-1,-7.067502737E-1
3.504517715E0,1.580567241E0,3.089359999E-1,-7.177455425E-1
3.506995944E0,1.639208674E0,3.468085229E-1,-7.250757217E-1
3.509474955E0,1.688076377E0,3.920112252E-1,-7.287407517E-1
3.511954903E0,1.717397094E0,4.396573007E-1,-7.250757217E-1
3.514433861E0,1.728392363E0,4.946335554E-1,-7.153021693E-1
3.516912090E0,1.713732004E0,5.593833923E-1,-7.018635273E-1
3.519391153E0,1.677081108E0,6.265766025E-1,-6.872031689E-1
3.521870996E0,1.617218137E0,6.925480962E-1,-6.725428104E-1
3.524350007E0,1.547581553E0,7.511894107E-1,-6.505523324E-1
3.526828236E0,1.474279881E0,7.939487100E-1,-6.187883019E-1
3.529307298E0,1.394869685E0,8.134958148E-1,-5.784723759E-1
3.531787194E0,1.301868200E0,7.963921428E-1,-5.344913602E-1
3.534266153E0,1.191915751E0,7.487460375E-1,-4.856235683E-1
3.536744382E0,1.062416077E0,6.656708121E-1,-4.391991794E-1
3.539223444E0,9.219212532E-1,5.361711979E-1,-3.793361485E-1
3.541703340E0,7.838697433E-1,3.810159862E-1,-3.182514310E-1
3.544182298E0,6.665870547E-1,2.221956849E-1,-2.547233105E-1
3.546660528E0,5.761816502E-1,6.093201414E-2,-1.973036677E-1
3.549139590E0,5.248705149E-1,-6.368082762E-2,-1.423274130E-1
3.551619434E0,5.334223509E-1,-1.272089481E-1,-8.124268800E-2
3.554098444E0,5.896202922E-1,-1.406475753E-1,-1.771457121E-2
3.556576673E0,6.922426820E-1,-1.015533581E-1,4.214845970E-2
3.559055736E0,8.339592218E-1,-9.926267900E-3,1.032331884E-1
3.561535632E0,1.001331329E0,1.232384369E-1,1.679829955E-1
3.564014590E0,1.173590302E0,2.612899244E-1,2.278460264E-1
3.566492819E0,1.329967141E0,3.651339412E-1,2.718270421E-1
3.568971882E0,1.452289343E0,4.030064642E-1,3.023693860E-1
3.571451725E0,1.529256105E0,3.736858070E-1,3.145863414E-1
3.573930736E0,1.563463569E0,2.942756712E-1,3.072561622E-1
3.576408965E0,1.568350315E0,1.953184158E-1,2.925958335E-1
3.578887975E0,1.563463569E0,1.073564067E-1,2.938175201E-1
3.581367871E0,1.562241912E0,4.016320780E-2,3.121429384E-1
3.583846882E0,1.574458838E0,1.084253844E-2,3.341334462E-1
3.586325111E0,1.608666301E0,2.305948362E-2,3.536805511E-1
3.588804121E0,1.659977436E0,7.192726433E-2,3.622324169E-1
3.591284069E0,1.730835676E0,1.513374150E-1,3.597890437E-1
3.593763028E0,1.816354275E0,2.478512824E-1,3.463504016E-1
3.596241257E0,1.907981396E0,3.578037918E-1,3.268032968E-1
3.598720319E0,1.997165084E0,4.653128982E-1,3.011476994E-1
3.601200163E0,2.074131966E0,5.728220344E-1,2.742704153E-1
3.603679173E0,2.130329847E0,6.766660213E-1,2.510582209E-1
3.606157403E0,2.162093878E0,7.621846795E-1,2.376195788E-1
3.608636465E0,2.168202400E0,8.354863524E-1,2.315111160E-1
3.611116361E0,2.151098728E0,8.880192041E-1,2.339545041E-1
3.613595319E0,2.115669489E0,9.258917570E-1,2.388412803E-1
3.616073548E0,2.071688414E0,9.381086826E-1,2.510582209E-1
3.618552611E0,2.022820711E0,9.417737722E-1,2.657185495E-1
3.621032455E0,1.972731233E0,9.344435930E-1,2.803788781E-1
3.623511465E0,1.922641754E0,9.246700406E-1,2.987042964E-1
3.625989694E0,1.874995708E0,9.161182046E-1,3.170297146E-1
3.628468705E0,1.831014633E0,9.148964882E-1,3.353551328E-1
3.630948600E0,1.790698767E0,9.271134138E-1,3.549022675E-1
3.633427611E0,1.758934736E0,9.527690411E-1,3.768927455E-1
3.635905840E0,1.732057452E0,9.894198179E-1,4.001049399E-1
3.638384850E0,1.713732004E0,1.032179117E0,4.220954478E-1
3.640864746E0,1.701515079E0,1.078603506E0,4.453076422E-1
3.643343757E0,1.697849989E0,1.128692985E0,4.672981501E-1
3.645821986E0,1.701515079E0,1.183669329E0,4.905103445E-1
3.648300996E0,1.710066915E0,1.234980464E0,5.125008225E-1
3.650780892E0,1.721062183E0,1.283848286E0,5.332696438E-1
3.653259903E0,1.730835676E0,1.326607585E0,5.564818382E-1
3.655738132E0,1.740609288E0,1.358371615E0,5.784723759E-1
3.658217194E0,1.750382781E0,1.379140377E0,6.016845703E-1
3.660697038E0,1.756491303E0,1.393800735E0,6.285618544E-1
3.663176048E0,1.761378050E0,1.402352571E0,6.578825116E-1
3.665654278E0,1.762599707E0,1.410904408E0,6.922426820E-1
3.668133340E0,1.766264796E0,1.418234587E0,7.301151752E-1
3.670613184E0,1.766264796E0,1.426786542E0,7.716528177E-1
3.673092194E0,1.762599707E0,1.432894945E0,8.180772066E-1
3.675570423E0,1.760156393E0,1.442668557E0,8.632798791E-1
3.678049434E0,1.757712960E0,1.457328796E0,9.109259844E-1
3.680529330E0,1.755269647E0,1.476875901E0,9.561286569E-1
3.683008340E0,1.752826214E0,1.503753185E0,1.001331329E0
3.685486569E0,1.754047871E0,1.531852245E0,1.042868972E0
3.687965632E0,1.755269647E0,1.562394619E0,1.079519868E0
3.690445475E0,1.760156393E0,1.588050127E0,1.107618809E0
3.692924486E0,1.766264796E0,1.605153918E0,1.127165914E0
3.695402715E0,1.773594975E0,1.612484097E0,1.136939406E0
3.697881725E0,1.779703498E0,1.602710485E0,1.132052660E0
3.700361673E0,1.782146931E0,1.577054858E0,1.114948988E0
3.702840632E0,1.780925155E0,1.533073902E0,1.088071704E0
3.705318861E0,1.774816751E0,1.474432588E0,1.050199151E0
3.707797871E0,1.763821483E0,1.409682751E0,1.007439852E0
3.710277767E0,1.752826214E0,1.341267824E0,9.610154629E-1
3.712756778E0,1.740609288E0,1.266744494E0,9.109259844E-1
3.715235007E0,1.730835676E0,1.192221165E0,8.608365059E-1
3.717714017E0,1.719840407E0,1.121362805E0,8.119687438E-1
3.720193913E0,1.710066915E0,1.059056401E0,7.594358325E-1
3.722672923E0,1.696628213E0,1.005301833E0,7.056813240E-1
3.725151153E0,1.684411287E0,9.674293399E-1,6.529957056E-1
3.727630163E0,1.674637794E0,9.466605186E-1,6.029062271E-1
3.730110059E0,1.669750929E0,9.393303990E-1,5.503733754E-1
3.732589069E0,1.667307615E0,9.527690411E-1,5.015056133E-1
3.735067298E0,1.669750929E0,9.784246087E-1,4.550811946E-1
3.737546309E0,1.674637794E0,1.016297102E0,4.135435820E-1
3.740026205E0,1.685633063E0,1.063943267E0,3.744493723E-1
3.742505215E0,1.701515079E0,1.121362805E0,3.365768492E-1
3.744983444E0,1.721062183E0,1.182447553E0,3.011476994E-1
3.747462455E0,1.743052602E0,1.238645554E0,2.681619525E-1
3.749942350E0,1.768708229E0,1.296065211E0,2.351761907E-1
3.752421361E0,1.794363856E0,1.346154690E0,2.046338320E-1
3.754899590E0,1.822462797E0,1.396244168E0,1.765348613E-1
3.757378600E0,1.845674992E0,1.449998736E0,1.533226669E-1
3.759858496E0,1.870108843E0,1.501309872E0,1.374406368E-1
3.762337507E0,1.890877724E0,1.548955917E0,1.240019947E-1
3.764815736E0,1.907981396E0,1.577054858E0,1.142284349E-1
3.767294798E0,1.917755008E0,1.594158649E0,1.081199646E-1
3.769774642E0,1.926306844E0,1.591715217E0,1.068982705E-1
3.772253653E0,1.928750277E0,1.585606813E0,1.093416587E-1
3.774731882E0,1.927528501E0,1.567281365E0,1.142284349E-1
3.777210892E0,1.923863411E0,1.541625738E0,1.240019947E-1
3.779690788E0,1.914089918E0,1.512305140E0,1.374406368E-1
3.782169798E0,1.901872993E0,1.474432588E0,1.557660550E-1
3.784648028E0,1.885990858E0,1.431673288E0,1.789782494E-1
3.787127038E0,1.862778664E0,1.385248899E0,2.058555335E-1
3.789606934E0,1.837123156E0,1.338824511E0,2.376195788E-1
3.792085944E0,1.805359125E0,1.283848286E0,2.718270421E-1
3.794564173E0,1.769929886E0,1.221541762E0,3.084778786E-1
3.797043184E0,1.732057452E0,1.151905179E0,3.487937748E-1
3.799523080E0,1.696628213E0,1.065164924E0,3.866663277E-1
3.802002090E0,1.661199093E0,9.662076235E-1,4.257605374E-1
3.804480319E0,1.626991630E0,8.611419201E-1,4.636330605E-1
3.806959382E0,1.594005942E0,7.487460375E-1,4.953971207E-1
3.809439278E0,1.559798479E0,6.400152445E-1,5.234960914E-1
3.811918236E0,1.525591016E0,5.312843919E-1,5.491516590E-1
3.814396465E0,1.488940239E0,4.249969721E-1,5.674771070E-1
3.816875475E0,1.454732776E0,3.223746419E-1,5.821374655E-1
3.819355371E0,1.420525312E0,2.197522968E-1,5.906893015E-1
3.821834382E0,1.386317849E0,1.256818175E-1,5.943543911E-1
3.824312611E0,1.353332043E0,3.527642787E-2,5.992411375E-1
3.826791621E0,1.323858738E0,-5.390727147E-2,6.016845703E-1
3.829271517E0,1.299424887E0,-1.406475753E-1,6.029062271E-1
3.831750528E0,1.279877663E0,-2.212794125E-1,6.016845703E-1
3.834228757E0,1.261552334E0,-2.933593988E-1,6.004628539E-1
3.836707767E0,1.248113632E0,-3.581092060E-1,5.992411375E-1
3.839187663E0,1.242005229E0,-4.167505503E-1,5.967977643E-1
3.841666673E0,1.239561796E0,-4.692834020E-1,5.967977643E-1
3.844144903E0,1.242005229E0,-5.083776116E-1,5.967977643E-1
3.846623965E0,1.246891975E0,-5.376983285E-1,5.980194807E-1
3.849103809E0,1.253000498E0,-5.523586273E-1,5.980194807E-1
3.851582819E0,1.260330558E0,-5.450284481E-1,5.955760479E-1
3.854061048E0,1.267660737E0,-5.242596865E-1,5.906893015E-1
3.856540111E0,1.279877663E0,-4.839437306E-1,5.833591223E-1
3.859019955E0,1.290872931E0,-4.301891923E-1,5.760289431E-1
3.861498965E0,1.303089857E0,-3.593308926E-1,5.674771070E-1
3.863977194E0,1.320193648E0,-2.725905776E-1,5.601469278E-1
3.866456257E0,1.337450027E0,-1.724116355E-1,5.540384650E-1
3.868936100E0,1.353332043E0,-6.734590977E-2,5.491516590E-1
3.871415111E0,1.369214177E0,4.382828996E-2,5.467082858E-1
3.873893340E0,1.385096192E0,1.550024897E-1,5.430431962E-1
3.876372403E0,1.399756551E0,2.661767006E-1,5.393781066E-1
3.878852246E0,1.415638566E0,3.712424338E-1,5.369347334E-1
3.881331257E0,1.429077148E0,4.701996744E-1,5.308262706E-1
3.883809486E0,1.443737507E0,5.618267655E-1,5.198310018E-1
3.886288496E0,1.457176089E0,6.449019909E-1,5.063923597E-1
3.888768392E0,1.469393134E0,7.157602906E-1,4.905103445E-1
3.891247403E0,1.479166627E0,7.768449783E-1,4.721849263E-1
3.893725632E0,1.482831717E0,8.305995464E-1,4.501944184E-1
3.896204642E0,1.481610060E0,8.806890249E-1,4.282039404E-1
3.898684538E0,1.477944970E0,9.258917570E-1,4.062134326E-1
3.901163548E0,1.464506269E0,9.625425935E-1,3.854446113E-1
3.903641778E0,1.447402596E0,9.967499971E-1,3.622324169E-1
3.906120788E0,1.424190402E0,1.030957460E0,3.451287150E-1
3.908600736E0,1.398534775E0,1.055391312E0,3.255815804E-1
3.911079694E0,1.367992401E0,1.071273327E0,3.048127890E-1
3.913557923E0,1.334854007E0,1.072495103E0,2.791571915E-1
3.916036986E0,1.304311633E0,1.060278177E0,2.535016239E-1
3.918516830E0,1.273769259E0,1.035844207E0,2.266243398E-1
3.920995840E0,1.245670319E0,1.001636744E0,1.985253543E-1
3.923474069E0,1.218793035E0,9.588775039E-1,1.704263836E-1
3.925953132E0,1.198024154E0,9.087880254E-1,1.447708011E-1
3.928432975E0,1.177255392E0,8.501466513E-1,1.215586066E-1
3.930911986E0,1.158929944E0,7.902836204E-1,1.007898003E-1
3.933390215E0,1.138161182E0,7.353073955E-1,8.857285231E-2
3.935869225E0,1.116170645E0,6.913263798E-1,8.002099395E-2
3.938349121E0,1.091736794E0,6.607840061E-1,7.513421029E-2
3.940828132E0,1.064859509E0,6.436802745E-1,7.879929990E-2
3.943306361E0,1.034317136E0,6.387935281E-1,8.612946421E-2
3.945785423E0,1.002553105E0,6.436802745E-1,9.712471068E-2
3.948265267E0,9.695672989E-1,6.510104537E-1,1.117850468E-1
3.950744278E0,9.365815520E-1,6.656708121E-1,1.288887709E-1
3.953222507E0,9.048175216E-1,6.852179170E-1,1.459924877E-1
3.955701569E0,8.754968047E-1,7.084301114E-1,1.618745178E-1
3.958181413E0,8.510629535E-1,7.304205894E-1,1.801999360E-1
3.960660423E0,8.315158486E-1,7.524111271E-1,1.985253543E-1
3.963138653E0,8.156337738E-1,7.646280527E-1,2.180724740E-1
3.965617663E0,8.021951914E-1,7.792884111E-1,2.376195788E-1
3.968097611E0,7.924215794E-1,7.841751575E-1,2.559449971E-1
3.970576569E0,7.814263701E-1,7.878402472E-1,2.718270421E-1
3.973054798E0,7.728744745E-1,7.878402472E-1,2.852656841E-1
3.975533809E0,7.667660117E-1,7.841751575E-1,2.987042964E-1
3.978013757E0,7.631009221E-1,7.817317843E-1,3.096995652E-1
3.980492715E0,7.594358325E-1,7.780666947E-1,3.219164908E-1
3.982970944E0,7.533273697E-1,7.707365155E-1,3.353551328E-1
3.985449955E0,7.459971905E-1,7.658497691E-1,3.426853120E-1
3.987929850E0,7.374453545E-1,7.585195899E-1,3.487937748E-1
3.990408861E0,7.240067124E-1,7.463026643E-1,3.561239541E-1
3.992887090E0,7.117897868E-1,7.340856791E-1,3.622324169E-1
3.995366100E0,6.983511448E-1,7.157602906E-1,3.695625961E-1
3.997846048E0,6.849125028E-1,6.949914694E-1,3.744493723E-1
4.000325007E0,6.726955175E-1,6.717792749E-1,3.793361485E-1
4.002803236E0,6.604785919E-1,6.449019909E-1,3.842229247E-1
4.005282298E0,6.507050395E-1,6.106945276E-1,3.878880143E-1
4.007762142E0,6.433748603E-1,5.630484819E-1,3.915531039E-1
4.010241153E0,6.372663975E-1,5.154023767E-1,3.939964771E-1
4.012719382E0,6.299362183E-1,4.726430774E-1,3.952181637E-1
4.015198444E0,6.250494719E-1,4.286620617E-1,3.939964771E-1
4.017678340E0,6.213843822E-1,3.883461356E-1,3.903313875E-1
4.020157298E0,6.213843822E-1,3.529170156E-1,3.878880143E-1
4.022635528E0,6.226060390E-1,3.223746419E-1,3.854446113E-1
4.025114590E0,6.274928451E-1,2.967190444E-1,3.817795515E-1
4.027594486E0,6.336013079E-1,2.881672084E-1,3.817795515E-1
4.030073444E0,6.372663975E-1,2.832804024E-1,3.817795515E-1
4.032551673E0,6.445965767E-1,2.918322682E-1,3.817795515E-1
4.035030736E0,6.543701291E-1,3.064926267E-1,3.854446113E-1
4.037510632E0,6.580352187E-1,3.235963285E-1,3.927747905E-1
4.039989590E0,6.641436815E-1,3.468085229E-1,4.013266563E-1
4.042467819E0,6.714738607E-1,3.675773442E-1,4.123218954E-1
4.044946882E0,6.800256968E-1,3.834593594E-1,4.269822240E-1
4.047426725E0,6.873558760E-1,3.968980014E-1,4.440859556E-1
4.049905736E0,6.971294284E-1,4.042281806E-1,4.611896873E-1
4.052383965E0,7.032378912E-1,4.091149569E-1,4.795151055E-1
4.054862975E0,7.105680704E-1,4.042281806E-1,4.978405237E-1
4.057342923E0,7.166765332E-1,3.944546282E-1,5.161659122E-1
4.059821882E0,7.240067124E-1,3.785725832E-1,5.381564498E-1
4.062300111E0,7.301151752E-1,3.541387022E-1,5.625903010E-1
4.064779173E0,7.374453545E-1,3.223746419E-1,5.919110179E-1
4.067259017E0,7.398887277E-1,2.893888950E-1,6.151232123E-1
4.069738028E0,7.398887277E-1,2.478512824E-1,6.395570636E-1
4.072216257E0,7.398887277E-1,2.050919682E-1,6.627692580E-1
4.074695267E0,7.337802649E-1,1.574458778E-1,6.861341596E-1
4.077175215E0,7.288935184E-1,1.073564067E-1,7.105680704E-1
4.079654173E0,7.166765332E-1,5.971032009E-2,7.301151752E-1
4.082132403E0,7.007945180E-1,1.328592747E-2,7.484406233E-1
4.084611465E0,6.836907864E-1,-3.069507517E-2,7.643226385E-1
4.087091361E0,6.641436815E-1,-7.223268598E-2,7.814263701E-1
4.089570319E0,6.409314871E-1,-1.064401343E-1,7.948650122E-1
4.092048548E0,6.140542030E-1,-1.296523362E-1,8.083036542E-1
4.094527611E0,5.871769190E-1,-1.516428292E-1,8.180772066E-1
4.097007507E0,5.541911721E-1,-1.614163816E-1,8.302941322E-1
4.099486465E0,5.175403357E-1,-1.638597846E-1,8.437327743E-1
4.101964694E0,4.760027230E-1,-1.601946950E-1,8.571714163E-1
4.104443757E0,4.308000207E-1,-1.467560530E-1,8.693883419E-1
4.106923653E0,3.794888556E-1,-1.296523362E-1,8.803836107E-1
4.109402611E0,3.208475113E-1,-1.003316641E-1,8.889354467E-1
4.111880840E0,2.548760176E-1,-6.368082762E-2,8.974873424E-1
4.114359903E0,1.827960461E-1,-1.603474095E-2,9.023740888E-1
4.116839798E0,1.033858955E-1,3.771981969E-2,8.987090588E-1
4.119318757E0,1.786728203E-2,1.036913246E-1,8.877137899E-1
4.121796986E0,-7.253811508E-2,1.782146841E-1,8.706100583E-1
4.124276048E0,-1.690519750E-1,2.564031482E-1,8.461761475E-1
4.126755944E0,-2.704526186E-1,3.345915973E-1,8.107470274E-1
4.129234903E0,-3.742966652E-1,4.078932703E-1,7.667660117E-1
4.131713132E0,-4.793623984E-1,4.701996744E-1,7.203416228E-1
4.134192194E0,-5.807630420E-1,5.190674663E-1,6.690304875E-1
4.136672090E0,-6.784985662E-1,5.544965863E-1,6.187883019E-1
4.139151048E0,-7.750124335E-1,5.777087808E-1,5.674771070E-1
4.141629278E0,-8.690829277E-1,5.972558856E-1,5.186093450E-1
4.144108340E0,-9.582666159E-1,6.180247068E-1,4.734066129E-1
4.146588236E0,-1.041341901E0,6.449019909E-1,4.294256270E-1
4.149067194E0,-1.117086887E0,6.778877378E-1,3.878880143E-1
4.151545423E0,-1.180615067E0,7.145385742E-1,3.487937748E-1
4.154024486E0,-1.233147860E0,7.585195899E-1,3.109212518E-1
4.156504382E0,-1.272242069E0,7.976137996E-1,2.730487287E-1
4.158983340E0,-1.302784443E0,8.281561732E-1,2.363978922E-1
4.161461569E0,-1.323553324E0,8.477032781E-1,1.985253543E-1
4.163940632E0,-1.334548593E0,8.501466513E-1,1.618745178E-1
4.166420528E0,-1.339435339E0,8.330429196E-1,1.276670843E-1
4.168899486E0,-1.334548593E0,7.963921428E-1,9.223793447E-2
4.171377715E0,-1.324774981E0,7.365291119E-1,5.925218388E-2
4.173856778E0,-1.311336398E0,6.558972597E-1,2.993151546E-2
4.176336673E0,-1.297897696E0,5.630484819E-1,4.275931045E-3
4.178815632E0,-1.283237338E0,4.579827189E-1,-2.015795931E-2
4.181293861E0,-1.269798756E0,3.516952991E-1,-4.214845970E-2
4.183772923E0,-1.263690233E0,2.441861928E-1,-5.925218388E-2
4.186252819E0,-1.264912009E0,1.342336833E-1,-7.269082218E-2
4.188731778E0,-1.273463845E0,2.672456764E-2,-8.002099395E-2
4.191210007E0,-1.293010950E0,-8.200624585E-2,-8.368607610E-2
4.193689069E0,-1.323553324E0,-1.919587553E-1,-8.368607610E-2
4.196168965E0,-1.365090966E0,-3.019112647E-1,-8.368607610E-2
4.198647923E0,-1.420067191E0,-4.106420577E-1,-8.124268800E-2
4.201126153E0,-1.486038685E0,-5.120427012E-1,-8.002099395E-2
4.203605215E0,-1.560562015E0,-6.085565686E-1,-7.635590434E-2
4.206085111E0,-1.647302389E0,-6.916317940E-1,-7.391251624E-2
4.208564069E0,-1.743816257E0,-7.624900937E-1,-7.146912813E-2
4.211042298E0,-1.848881960E0,-8.162446618E-1,-7.513421029E-2
4.213521361E0,-1.964942932E0,-8.492304087E-1,-7.879929990E-2
4.216001257E0,-2.090777397E0,-8.590039611E-1,-8.735115826E-2
4.218480215E0,-2.221498728E0,-8.431219459E-1,-1.020114943E-1
4.220958444E0,-2.358328581E0,-8.089144826E-1,-1.191152185E-1
4.223437507E0,-2.497601748E0,-7.588250041E-1,-1.423274130E-1
4.225917403E0,-2.640539885E0,-6.916317940E-1,-1.692046970E-1
4.228396361E0,-2.779813051E0,-6.061131954E-1,-1.936385781E-1
4.230874590E0,-2.919086456E0,-5.022691488E-1,-2.229592502E-1
4.233353653E0,-3.053472757E0,-3.862081766E-1,-2.486148328E-1
4.235833548E0,-3.179307222E0,-2.530434728E-1,-2.742704153E-1
4.238312507E0,-3.296589851E0,-1.039967462E-1,-2.987042964E-1
4.240790736E0,-3.401655674E0,5.604523420E-2,-3.255815804E-1
4.243269798E0,-3.492061138E0,2.258607745E-1,-3.524588645E-1
4.245749694E0,-3.562919378E0,4.005630910E-1,-3.830012381E-1
4.248228653E0,-3.615452290E0,5.874823332E-1,-4.135435820E-1
4.250706882E0,-3.649659634E0,7.853968740E-1,-4.453076422E-1
4.253185944E0,-3.658211470E0,9.845330715E-1,-4.721849263E-1
4.255665840E0,-3.645994663E0,1.182447553E0,-4.990622103E-1
4.258144798E0,-3.610565424E0,1.370588541E0,-5.259394646E-1
4.260623028E0,-3.554367542E0,1.548955917E0,-5.540384650E-1
4.263102090E0,-3.478622437E0,1.721214890E0,-5.858024955E-1
4.265581986E0,-3.391882181E0,1.887365341E0,-6.187883019E-1
4.268060944E0,-3.292924881E0,2.048629045E0,-6.542174220E-1
4.270539173E0,-3.181750774E0,2.197675705E0,-6.872031689E-1
4.273018236E0,-3.065689564E0,2.328397036E0,-7.177455425E-1
4.275498132E0,-2.944741964E0,2.423689127E0,-7.446228266E-1
4.277977090E0,-2.821350813E0,2.472557068E0,-7.727217674E-1
4.280455319E0,-2.699181318E0,2.457896709E0,-8.008207679E-1
4.282934382E0,-2.585563660E0,2.391925097E0,-8.276980519E-1
4.285414278E0,-2.478054523E0,2.272199154E0,-8.570187092E-1
4.287893236E0,-2.375432253E0,2.113378763E0,-8.863393664E-1
4.290371465E0,-2.285026789E0,1.924016118E0,-9.181034565E-1
4.292850528E0,-2.204395056E0,1.704111099E0,-9.498674870E-1
4.295330423E0,-2.138423443E0,1.465880752E0,-9.804098606E-1
4.297809382E0,-2.082225561E0,1.219098449E0,-1.006065488E0
4.300287611E0,-2.039466381E0,9.662076235E-1,-1.032942772E0
4.302766673E0,-2.005258799E0,7.206470370E-1,-1.056154966E0
4.305246569E0,-1.978381515E0,4.799732268E-1,-1.079367161E0
4.307725528E0,-1.953947663E0,2.612899244E-1,-1.100135922E0
4.310203757E0,-1.936843991E0,7.559234649E-2,-1.114796281E0
4.312682819E0,-1.923405290E0,-8.200624585E-2,-1.128234863E0
4.315162715E0,-1.912410021E0,-2.115058601E-1,-1.140451789E0
4.317641673E0,-1.903858185E0,-3.251234591E-1,-1.153890491E0
4.320119903E0,-1.901414752E0,-4.216373265E-1,-1.164885759E0
4.322598965E0,-1.901414752E0,-5.071559548E-1,-1.174659252E0
4.325078861E0,-1.906301618E0,-5.938962698E-1,-1.186876178E0
4.327557819E0,-1.917296886E0,-6.720846891E-1,-1.200314879E0
4.330036048E0,-1.931957126E0,-7.441646457E-1,-1.223527074E0
4.332515111E0,-1.955169320E0,-8.125795722E-1,-1.251626015E0
4.334995007E0,-1.983268380E0,-8.834378719E-1,-1.278503299E0
4.337473965E0,-2.015032291E0,-9.579612017E-1,-1.302937150E0
4.339952194E0,-2.054126501E0,-1.030041218E0,-1.327371120E0
4.342431257E0,-2.096885920E0,-1.102121115E0,-1.346918225E0
4.344911153E0,-2.143310308E0,-1.181531310E0,-1.368908763E0
4.347390111E0,-2.189734697E0,-1.271936655E0,-1.388455868E0
4.349868340E0,-2.233715773E0,-1.370893955E0,-1.405559540E0
4.352347403E0,-2.277696609E0,-1.482068181E0,-1.420219898E0
4.354827298E0,-2.319234371E0,-1.605612040E0,-1.432436824E0
4.357306257E0,-2.358328581E0,-1.731446505E0,-1.444653749E0
4.359784486E0,-2.396201134E0,-1.860946178E0,-1.450762272E0
4.362263548E0,-2.431630135E0,-1.983115673E0,-1.451983929E0
4.364743444E0,-2.465837717E0,-2.097954988E0,-1.451983929E0
4.367222403E0,-2.496380091E0,-2.203020573E0,-1.444653749E0
4.369700632E0,-2.524478912E0,-2.294647694E0,-1.434880257E0
4.372179694E0,-2.551356316E0,-2.381387949E0,-1.421441555E0
4.374659590E0,-2.574568510E0,-2.460798264E0,-1.408002973E0
4.377138548E0,-2.595337391E0,-2.527991295E0,-1.393342614E0
4.379616778E0,-2.617327690E0,-2.590297699E0,-1.382347345E0
4.382095840E0,-2.639318228E0,-2.637943983E0,-1.376238823E0
4.384575736E0,-2.662530422E0,-2.677038193E0,-1.372573733E0
4.387054694E0,-2.688186169E0,-2.708802223E0,-1.373795509E0
4.389532923E0,-2.716284990E0,-2.725905895E0,-1.381125689E0
4.392011986E0,-2.745605707E0,-2.735679388E0,-1.389677525E0
4.394491882E0,-2.778591394E0,-2.739344597E0,-1.405559540E0
4.396970840E0,-2.811577320E0,-2.739344597E0,-1.422663212E0
4.399449069E0,-2.847006321E0,-2.733236074E0,-1.440988660E0
4.401928132E0,-2.884878874E0,-2.721019030E0,-1.458092451E0
4.404408028E0,-2.923973083E0,-2.697806835E0,-1.475196123E0
4.406886986E0,-2.966732502E0,-2.681924820E0,-1.491078138E0
4.409365215E0,-3.002161503E0,-2.657490969E0,-1.492299795E0
4.411844278E0,-3.027817249E0,-2.609844923E0,-1.482526302E0
4.414324173E0,-3.042477369E0,-2.562198877E0,-1.465422630E0
4.416803132E0,-3.049807549E0,-2.512109280E0,-1.439767003E0
4.419281361E0,-3.043699265E0,-2.463241577E0,-1.405559540E0
4.421760423E0,-3.029038906E0,-2.419260502E0,-1.368908763E0
4.424240319E0,-3.003383160E0,-2.382609844E0,-1.326149344E0
4.426719278E0,-2.970397472E0,-2.355732441E0,-1.279724956E0
4.429197507E0,-2.931303263E0,-2.331298590E0,-1.230857253E0
4.431676569E0,-2.890987396E0,-2.305643082E0,-1.175881028E0
4.434156465E0,-2.847006321E0,-2.283652544E0,-1.122126460E0
4.436635423E0,-2.801803589E0,-2.268992186E0,-1.067150116E0
4.439113653E0,-2.755379200E0,-2.254331827E0,-1.014617324E0
4.441592715E0,-2.706511497E0,-2.244558334E0,-9.657495022E-1
4.444072611E0,-2.657643795E0,-2.239671469E0,-9.181034565E-1
4.446551569E0,-2.618549585E0,-2.229897976E0,-8.680139780E-1
4.449029798E0,-2.583120346E0,-2.206685781E0,-8.142594099E-1
4.451508861E0,-2.555021286E0,-2.165148020E0,-7.605048418E-1
4.453988757E0,-2.534252644E0,-2.116280317E0,-7.091936469E-1
4.456467715E0,-2.512262106E0,-2.066190958E0,-6.615476012E-1
4.458945944E0,-2.486606598E0,-2.006327868E0,-6.151232123E-1
4.461425007E0,-2.451177359E0,-1.933026195E0,-5.674771070E-1
4.463904903E0,-2.401087761E0,-1.846285820E0,-5.247178078E-1
4.466383861E0,-2.338781357E0,-1.742441773E0,-4.819584787E-1
4.468862090E0,-2.260592937E0,-1.628824234E0,-4.391991794E-1
4.471341153E0,-2.176295996E0,-1.507723689E0,-4.013266563E-1
4.473821048E0,-2.090777397E0,-1.387997627E0,-3.695625961E-1
4.476300007E0,-2.010145664E0,-1.282931924E0,-3.426853120E-1
4.478778288E0,-1.939287305E0,-1.196191669E0,-3.182514310E-1
4.481257298E0,-1.884311080E0,-1.131441832E0,-2.950392365E-1
4.483737194E0,-1.839108348E0,-1.085017443E0,-2.742704153E-1
4.486216153E0,-1.803679228E0,-1.044701576E0,-2.571666837E-1
4.488694382E0,-1.775580287E0,-1.028819442E0,-2.339545041E-1
4.491173444E0,-1.754811406E0,-1.045923233E0,-2.107423097E-1
4.493653340E0,-1.745037913E0,-1.082574010E0,-1.948602796E-1
4.496132298E0,-1.734042645E0,-1.125333309E0,-1.814216375E-1
4.498610580E0,-1.715717196E0,-1.166870952E0,-1.679829955E-1
4.501089590E0,-1.691283345E0,-1.203521848E0,-1.533226669E-1
4.503569486E0,-1.659519315E0,-1.232842445E0,-1.398840249E-1
4.506048444E0,-1.614316583E0,-1.251167893E0,-1.276670843E-1
4.508526725E0,-1.566670537E0,-1.259719729E0,-1.203369126E-1
4.511005736E0,-1.516581059E0,-1.253611326E0,-1.203369126E-1
4.513485632E0,-1.466491580E0,-1.242616057E0,-1.191152185E-1
4.515964590E0,-1.413958669E0,-1.249946237E0,-1.191152185E-1
4.518442819E0,-1.360204101E0,-1.262163162E0,-1.191152185E-1
4.520921882E0,-1.302784443E0,-1.280488610E0,-1.227803007E-1
4.523401778E0,-1.247808218E0,-1.286597013E0,-1.252236813E-1
4.525880788E0,-1.189166903E0,-1.289040446E0,-1.301104724E-1
4.528358965E0,-1.128082156E0,-1.285375357E0,-1.349972486E-1
4.530838028E0,-1.065775752E0,-1.271936655E0,-1.435490996E-1
4.533317923E0,-1.008356094E0,-1.254832983E0,-1.521009654E-1
4.535796882E0,-9.497147799E-1,-1.238950968E0,-1.594311297E-1
4.538275163E0,-8.910734653E-1,-1.216960430E0,-1.667613089E-1
4.540754173E0,-8.336538076E-1,-1.193748236E0,-1.728697717E-1
4.543234069E0,-7.774558663E-1,-1.166870952E0,-1.801999360E-1
4.545713080E0,-7.175928354E-1,-1.141215444E0,-1.911951900E-1
4.548191257E0,-6.601731777E-1,-1.115559816E0,-2.046338320E-1
4.550670319E0,-5.990884304E-1,-1.088682532E0,-2.144073844E-1
4.553150215E0,-5.392253995E-1,-1.063026905E0,-2.205158621E-1
4.555629225E0,-4.769189954E-1,-1.043479800E0,-2.254026383E-1
4.558107455E0,-4.121691883E-1,-1.025154471E0,-2.315111160E-1
4.560586465E0,-3.474193811E-1,-1.004385591E0,-2.376195788E-1
4.563066361E0,-2.777827978E-1,-9.799517393E-1,-2.437280566E-1
4.565545371E0,-2.118112892E-1,-9.555178285E-1,-2.449497581E-1
4.568023600E0,-1.421747059E-1,-9.323056340E-1,-2.486148328E-1
4.570502611E0,-7.375980914E-2,-9.042066336E-1,-2.522799075E-1
4.572982507E0,-5.344913341E-3,-8.773293495E-1,-2.547233105E-1
4.575461517E0,6.429167092E-2,-8.455653191E-1,-2.583884001E-1
4.577939746E0,1.339282542E-1,-8.113578558E-1,-2.620534599E-1
4.580418757E0,2.023431510E-1,-7.710419297E-1,-2.681619525E-1
4.582898653E0,2.683146596E-1,-7.295043468E-1,-2.754921019E-1
4.585377611E0,3.342861533E-1,-6.843016148E-1,-2.852656841E-1
4.587855892E0,3.965925872E-1,-6.342121959E-1,-2.974826097E-1
4.590334903E0,4.576773047E-1,-5.865660906E-1,-3.096995652E-1
4.592814798E0,5.187620521E-1,-5.376983285E-1,-3.255815804E-1
4.595293809E0,5.774033666E-1,-4.888305068E-1,-3.402419090E-1
4.597772038E0,6.311579347E-1,-4.375193417E-1,-3.524588645E-1
4.600251048E0,6.824691296E-1,-3.898732662E-1,-3.683409095E-1
4.602730944E0,7.350019813E-1,-3.336753249E-1,-3.854446113E-1
4.605209955E0,7.826480269E-1,-2.848075330E-1,-4.001049399E-1
4.607688184E0,8.254073858E-1,-2.359397560E-1,-4.159869850E-1
4.610167194E0,8.645015955E-1,-1.834068894E-1,-4.318690002E-1
4.612647090E0,9.035958052E-1,-1.272089481E-1,-4.477510452E-1
4.615126100E0,9.390249252E-1,-6.734590977E-2,-4.624113739E-1
4.617604330E0,9.707890153E-1,-7.482878864E-3,-4.758500159E-1
4.620083340E0,1.002553105E0,5.115845799E-2,-4.892886579E-1
4.622563236E0,1.033095479E0,1.073564067E-1,-4.978405237E-1
4.625042246E0,1.067302823E0,1.574458778E-1,-5.125008225E-1
4.627520475E0,1.101510286E0,2.026485801E-1,-5.259394646E-1
4.629999486E0,1.138161182E0,2.454078794E-1,-5.381564498E-1
4.632479382E0,1.174811959E0,2.783936262E-1,-5.528167486E-1
4.634958392E0,1.213906169E0,3.028275371E-1,-5.662553906E-1
4.637436621E0,1.250557065E0,3.248180151E-1,-5.748072863E-1
4.639915632E0,1.282321095E0,3.419217467E-1,-5.760289431E-1
4.642395528E0,1.303089857E0,3.663556576E-1,-5.748072863E-1
4.644874538E0,1.304311633E0,4.030064642E-1,-5.723638535E-1
4.647352767E0,1.281099439E0,4.530959427E-1,-5.686988235E-1
4.649831778E0,1.226123214E0,5.166240931E-1,-5.699204803E-1
4.652311673E0,1.138161182E0,5.948125124E-1,-5.748072863E-1
4.654790684E0,1.017213345E0,6.925480962E-1,-5.894675851E-1
4.657268913E0,8.730534315E-1,8.171609044E-1,-6.139014959E-1
4.659747923E0,7.227849960E-1,9.588775039E-1,-6.566607952E-1
4.662227819E0,5.932853818E-1,1.098150611E0,-7.165238261E-1
4.664706830E0,4.979932308E-1,1.230093718E0,-7.959339619E-1
4.667185059E0,4.454603493E-1,1.280183196E0,-8.741224408E-1
4.669664069E0,4.283566475E-1,1.247197390E0,-9.327637553E-1
4.672143965E0,4.442386627E-1,1.132358074E0,-9.620844126E-1
4.674622975E0,4.882196784E-1,9.356653094E-1,-9.620844126E-1
4.677101205E0,5.554128885E-1,6.937697530E-1,-9.413156509E-1
4.679580215E0,6.323796511E-1,4.469874799E-1,-9.132166505E-1
4.682060111E0,7.142331600E-1,2.185306102E-1,-8.973346353E-1
4.684539121E0,7.863131166E-1,2.550287358E-2,-8.961129189E-1
4.687017350E0,8.742751479E-1,-6.123743951E-2,-8.851176500E-1
4.689496361E0,9.720106721E-1,-3.191677108E-2,-8.692356348E-1
4.691976257E0,1.085628271E0,1.244601309E-1,-8.557969928E-1
4.694455267E0,1.221236348E0,3.859027624E-1,-8.460234404E-1
4.696933496E0,1.374100924E0,7.157602906E-1,-8.448017836E-1
4.699412507E0,1.537807941E0,1.043174386E0,-8.533536196E-1
4.701892403E0,1.701515079E0,1.297286868E0,-8.631271720E-1
4.704371413E0,1.851783514E0,1.437781692E0,-8.741224408E-1
4.706849642E0,1.983726501E0,1.462215662E0,-8.753440976E-1
4.709328653E0,2.092457294E0,1.379140377E0,-8.606837988E-1
4.711808548E0,2.175532579E0,1.236202121E0,-8.301414251E-1
4.714287559E0,2.240282297E0,1.084712029E0,-7.861604095E-1
4.716765788E0,2.294036865E0,9.613208771E-1,-7.360709310E-1
4.719244798E0,2.346569777E0,8.819107413E-1,-6.810947061E-1
4.721724694E0,2.395437479E0,8.513683677E-1,-6.285618544E-1
4.724203705E0,2.438196898E0,8.721371889E-1,-5.772506595E-1
4.726681934E0,2.473625898E0,9.320002198E-1,-5.332696438E-1
4.729160944E0,2.499281645E0,1.017518878E0,-4.978405237E-1
4.731640840E0,2.513942003E0,1.117697716E0,-4.660764635E-1
4.734119850E0,2.520050287E0,1.220320106E0,-4.453076422E-1
4.736598080E0,2.518828630E0,1.308282137E0,-4.269822240E-1
4.739077090E0,2.512720108E0,1.376697063E0,-4.159869850E-1
4.741556986E0,2.501724958E0,1.423121452E0,-4.086568058E-1
4.744035996E0,2.493173122E0,1.448776960E0,-4.013266563E-1
4.746514225E0,2.488286257E0,1.452442050E0,-3.952181637E-1
4.748993236E0,2.485842943E0,1.434116602E0,-3.915531039E-1
4.751473132E0,2.487064600E0,1.404796004E0,-3.891097009E-1
4.753952142E0,2.482177734E0,1.363258362E0,-3.830012381E-1
4.756430371E0,2.467517614E0,1.315612316E0,-3.781144619E-1
4.758909382E0,2.438196898E0,1.259414315E0,-3.695625961E-1
4.761389278E0,2.399102688E0,1.194664478E0,-3.597890437E-1
4.763868288E0,2.352678299E0,1.127471328E0,-3.414636254E-1
4.766346517E0,2.301367044E0,1.059056401E0,-3.219164908E-1
4.768825528E0,2.247612476E0,9.955283403E-1,-2.938175201E-1
4.771305423E0,2.192636251E0,9.368869662E-1,-2.583884001E-1
4.773784434E0,2.142546654E0,8.867974877E-1,-2.131856978E-1
4.776262663E0,2.099787474E0,8.464815617E-1,-1.630962193E-1
4.778741673E0,2.059471607E0,8.171609044E-1,-1.068982705E-1
4.781221569E0,2.028929234E0,7.951704264E-1,-4.581354558E-2
4.783700580E0,2.000830173E0,7.829535007E-1,2.015795931E-2
4.786178809E0,1.976396322E0,7.792884111E-1,8.979454637E-2
4.788657819E0,1.956849217E0,7.878402472E-1,1.606528312E-1
4.791137715E0,1.938523769E0,8.025006056E-1,2.351761907E-1
4.793616725E0,1.921420097E0,8.244910836E-1,3.109212518E-1
4.796094955E0,1.905538082E0,8.513683677E-1,3.878880143E-1
4.798573965E0,1.885990858E0,8.831323981E-1,4.697415531E-1
4.801053861E0,1.868887186E0,9.197832346E-1,5.515950918E-1
4.803532871E0,1.848118424E0,9.539906979E-1,6.322268844E-1
4.806011100E0,1.826127887E0,9.833113551E-1,7.105680704E-1
4.808490111E0,1.805359125E0,1.008966923E0,7.875348330E-1
4.810970007E0,1.785812020E0,1.032179117E0,8.620582223E-1
4.813449017E0,1.765043139E0,1.041952729E0,9.329164624E-1
4.815927246E0,1.744274378E0,1.041952729E0,1.004996419E0
4.818406257E0,1.724727273E0,1.028514028E0,1.073411345E0
4.820886153E0,1.706401825E0,1.004080176E0,1.136939406E0
4.823365163E0,1.689298153E0,9.723161459E-1,1.200467587E0
4.825843392E0,1.673416018E0,9.332218766E-1,1.261552334E0
4.828322403E0,1.658755779E0,8.843541145E-1,1.316528559E0
4.830802298E0,1.646538734E0,8.220477104E-1,1.362952948E0
4.833281309E0,1.636765242E0,7.475243211E-1,1.395938754E0
4.835759538E0,1.625769973E0,6.632274389E-1,1.422815919E0
4.838238548E0,1.618439794E0,5.691569448E-1,1.441141367E0
4.840718444E0,1.614774704E0,4.653128982E-1,1.447249889E0
4.843197455E0,1.615996480E0,3.590254784E-1,1.443584800E0
4.845675684E0,1.615996480E0,2.539597452E-1,1.430146098E0
4.848154694E0,1.623326540E0,1.537808031E-1,1.404490590E0
4.850634590E0,1.629435062E0,6.459710002E-2,1.367839694E0
4.853113600E0,1.637986898E0,-1.969982497E-2,1.322637081E0
4.855591830E0,1.644095421E0,-8.689302206E-2,1.267660737E0
4.858070892E0,1.650203824E0,-1.284306347E-1,1.210241079E0
4.860550788E0,1.653868914E0,-1.308740228E-1,1.151599765E0
4.863029746E0,1.657534003E0,-9.300149232E-2,1.091736794E0
4.865507975E0,1.662420869E0,-8.704573847E-3,1.034317136E0
4.867986986E0,1.669750929E0,1.159082651E-1,9.732323885E-1
4.870466882E0,1.684411287E0,2.539597452E-1,9.097042680E-1
4.872945892E0,1.706401825E0,4.091149569E-1,8.449544907E-1
4.875424121E0,1.736944199E0,5.752654076E-1,7.814263701E-1
4.877903184E0,1.777260065E0,7.377507687E-1,7.154548764E-1
4.880383080E0,1.824906230E0,8.880192041E-1,6.493306160E-1
4.882862038E0,1.878660798E0,1.018740535E0,5.858024955E-1
4.885340267E0,1.934858680E0,1.129914761E0,5.234960914E-1
4.887819330E0,1.991056681E0,1.220320106E0,4.648547769E-1
4.890299225E0,2.049697876E0,1.291178346E0,4.098785222E-1
4.892778184E0,2.103452444E0,1.354706526E0,3.610107303E-1
4.895256413E0,2.153542042E0,1.404796004E0,3.145863414E-1
4.897735475E0,2.193857908E0,1.451220393E0,2.754921019E-1
4.900215319E0,2.228065491E0,1.496423125E0,2.400629669E-1
4.902694330E0,2.252499342E0,1.539182425E0,2.119639963E-1
4.905172559E0,2.269603014E0,1.579498291E0,1.911951900E-1
4.907651621E0,2.278154850E0,1.608819008E0,1.704263836E-1
4.910131517E0,2.279376507E0,1.635696292E0,1.557660550E-1
4.912610475E0,2.273267984E0,1.649134874E0,1.472141892E-1
4.915088705E0,2.261051178E0,1.654021621E0,1.435490996E-1
4.917567767E0,2.241503954E0,1.646691442E0,1.423274130E-1
4.920047663E0,2.218291759E0,1.634474516E0,1.459924877E-1
4.922526621E0,2.191414595E0,1.613705754E0,1.533226669E-1
4.925004850E0,2.160872221E0,1.589271903E0,1.655396074E-1
4.927483913E0,2.132773161E0,1.558729529E0,1.789782494E-1
4.929963809E0,2.103452444E0,1.524522066E0,1.960819662E-1
4.932442767E0,2.074131966E0,1.481762767E0,2.119639963E-1
4.934920996E0,2.043589592E0,1.434116602E0,2.302894145E-1
4.937400059E0,2.014268875E0,1.379140377E0,2.510582209E-1
4.939879955E0,1.983726501E0,1.316833973E0,2.681619525E-1
4.942358913E0,1.950740695E0,1.249640822E0,2.852656841E-1
4.944837142E0,1.918976665E0,1.177560806E0,2.987042964E-1
4.947316205E0,1.887212634E0,1.098150611E0,3.121429384E-1
4.949796100E0,1.853005171E0,1.007745266E0,3.231382072E-1
4.952275059E0,1.813910961E0,9.112313986E-1,3.365768492E-1
4.954753288E0,1.777260065E0,8.110524416E-1,3.463504016E-1
4.957232350E0,1.740609288E0,6.986565590E-1,3.524588645E-1
4.959712246E0,1.706401825E0,5.850389600E-1,3.597890437E-1
4.962191205E0,1.674637794E0,4.689779878E-1,3.658975065E-1
4.964669434E0,1.644095421E0,3.553603888E-1,3.683409095E-1
4.967148496E0,1.618439794E0,2.405211031E-1,3.744493723E-1
4.969628392E0,1.596449256E0,1.317902952E-1,3.781144619E-1
4.972107350E0,1.576902151E0,2.916795574E-2,3.781144619E-1
4.974585580E0,1.561020136E0,-6.001574174E-2,3.817795515E-1
4.977064642E0,1.543916464E0,-1.333174109E-1,3.842229247E-1
4.979544538E0,1.529256105E0,-1.882936656E-1,3.866663277E-1
4.982023496E0,1.510930657E0,-2.188360244E-1,3.878880143E-1
4.984501725E0,1.491383553E0,-2.286095917E-1,3.927747905E-1
4.986980788E0,1.471836448E0,-2.237228155E-1,3.964398801E-1
4.989460684E0,1.452289343E0,-2.053973973E-1,3.988832533E-1
4.991939642E0,1.433963895E0,-1.821851879E-1,3.976615667E-1
4.994417871E0,1.421746969E0,-1.638597846E-1,3.976615667E-1
4.996896934E0,1.410751700E0,-1.479777545E-1,3.939964771E-1
4.999376830E0,1.404643297E0,-1.369825006E-1,3.903313875E-1
5.001855788E0,1.399756551E0,-1.284306347E-1,3.866663277E-1
5.004334017E0,1.399756551E0,-1.272089481E-1,3.817795515E-1
5.006813080E0,1.397313118E0,-1.272089481E-1,3.781144619E-1
5.009292975E0,1.397313118E0,-1.320957243E-1,3.756710589E-1
5.011771934E0,1.394869685E0,-1.369825006E-1,3.732276857E-1
5.014250163E0,1.389982939E0,-1.394258887E-1,3.732276857E-1
5.016729225E0,1.381431103E0,-1.369825006E-1,3.756710589E-1
5.019209121E0,1.365549088E0,-1.320957243E-1,3.817795515E-1
5.021688080E0,1.347223639E0,-1.308740228E-1,3.842229247E-1
5.024166309E0,1.327523828E0,-1.198787764E-1,3.817795515E-1
5.026645371E0,1.301868200E0,-1.101052165E-1,3.744493723E-1
5.029125267E0,1.270104170E0,-8.567132801E-2,3.658975065E-1
5.031604225E0,1.239561796E0,-4.779879749E-2,3.549022675E-1
5.034082455E0,1.206575990E0,2.290677279E-3,3.414636254E-1
5.036561517E0,1.173590302E0,5.971032009E-2,3.255815804E-1
5.039041413E0,1.144269586E0,1.256818175E-1,3.109212518E-1
5.041520371E0,1.114948988E0,1.965401024E-1,2.913741469E-1
5.043998600E0,1.088071704E0,2.722851634E-1,2.754921019E-1
5.046477663E0,1.062416077E0,3.480302393E-1,2.559449971E-1
5.048957559E0,1.040425539E0,4.201101959E-1,2.376195788E-1
5.051436517E0,1.025765300E0,4.946335554E-1,2.217375487E-1
5.053914746E0,1.018435121E0,5.630484819E-1,2.046338320E-1
5.056393809E0,1.015991688E0,6.277982593E-1,1.911951900E-1
5.058873705E0,1.017213345E0,6.864396334E-1,1.789782494E-1
5.061352663E0,1.024543524E0,7.438592315E-1,1.679829955E-1
5.063830892E0,1.035538793E0,7.988355160E-1,1.606528312E-1
5.066309955E0,1.048977494E0,8.586985469E-1,1.533226669E-1
5.068789850E0,1.062416077E0,9.234483242E-1,1.496575773E-1
5.071268809E0,1.077076435E0,9.894198179E-1,1.508792788E-1
5.073747038E0,1.091736794E0,1.056613088E0,1.533226669E-1
5.076226100E0,1.107618809E0,1.115254402E0,1.630962193E-1
5.078705996E0,1.124722481E0,1.178782463E0,1.753131598E-1
5.081184955E0,1.136939406E0,1.241088867E0,1.887518018E-1
5.083663236E0,1.146713018E0,1.294843435E0,2.070772201E-1
5.086142246E0,1.156486630E0,1.336381078E0,2.266243398E-1
5.088622142E0,1.163816690E0,1.369366884E0,2.510582209E-1
5.091101100E0,1.167481780E0,1.396244168E0,2.779355049E-1
5.093579330E0,1.165038466E0,1.414569497E0,3.048127890E-1
5.096058392E0,1.158929944E0,1.421899676E0,3.316900730E-1
5.098538288E0,1.150378108E0,1.423121452E0,3.622324169E-1
