"Time (s)","Gyroscope x (rad/s)","Gyroscope y (rad/s)","Gyroscope z (rad/s)"
2.061387500E-2,9.721374512E-2,7.296752930E-2,-6.648254395E-2
2.561875800E-2,9.400939941E-2,6.871032715E-2,-6.115722656E-2
3.062364000E-2,7.696533203E-2,7.723999023E-2,-5.796813965E-2
3.556748800E-2,5.992126465E-2,9.107971191E-2,-4.411315918E-2
4.054185300E-2,5.780029297E-2,1.006774902E-1,-2.601623535E-2
4.548570100E-2,6.205749512E-2,1.091918945E-1,-3.631591797E-3
5.046006600E-2,7.058715820E-2,1.113281250E-1,2.511596680E-2
5.540391400E-2,8.335876465E-2,9.854125977E-2,5.601501465E-2
6.037827900E-2,8.656311035E-2,7.617187500E-2,9.436035156E-2
6.532212700E-2,9.507751465E-2,5.166625977E-2,1.295166016E-1
7.029649200E-2,1.036071777E-1,2.822875977E-2,1.625366211E-1
7.524034000E-2,1.067962646E-1,1.651000977E-2,1.870422363E-1
8.021470500E-2,1.078643799E-1,1.225280762E-2,2.030181885E-1
8.518907000E-2,1.131896973E-1,1.225280762E-2,2.136688232E-1
9.013291800E-2,1.195831299E-1,2.078247070E-2,2.179412842E-1
9.507676500E-2,1.270446777E-1,3.782653809E-2,2.168731689E-1
1.000511310E-1,1.589965820E-1,9.747314453E-2,2.147369385E-1
1.050254960E-1,2.239837646E-1,1.571350098E-1,2.083435059E-1
1.099693440E-1,2.751159668E-1,1.709747314E-1,1.945037842E-1
1.149131910E-1,3.092041016E-1,1.784362793E-1,1.763916016E-1
1.198875560E-1,3.411560059E-1,1.954803467E-1,1.614837646E-1
1.248314040E-1,3.592681885E-1,2.210388184E-1,1.444396973E-1
1.298057690E-1,3.656616211E-1,2.583312988E-1,1.252593994E-1
1.347496170E-1,3.709869385E-1,2.828369141E-1,8.370971680E-2
1.396934650E-1,3.880310059E-1,2.977447510E-1,2.938842773E-2
1.446373120E-1,4.072113037E-1,3.020019531E-1,-3.559875488E-2
1.496116770E-1,4.338378906E-1,3.041381836E-1,-9.098815918E-2
1.545555250E-1,4.668579102E-1,2.977447510E-1,-1.218872070E-1
1.595298900E-1,5.084075928E-1,2.924194336E-1,-1.336059570E-1
1.644737380E-1,5.627288818E-1,2.849578857E-1,-1.240081787E-1
1.694481030E-1,6.319732666E-1,2.849578857E-1,-9.951782227E-2
1.743919510E-1,7.054748535E-1,2.870941162E-1,-5.371093750E-2
1.793357990E-1,7.811126709E-1,2.849578857E-1,7.019042969E-3
1.843101640E-1,8.599395752E-1,2.934875488E-1,7.945251465E-2
1.892540110E-1,9.366455078E-1,3.105316162E-1,1.646728516E-1
1.942283770E-1,1.011215210E0,3.233184814E-1,2.520294189E-1
1.991722240E-1,1.088973999E0,3.233184814E-1,3.415069580E-1
2.041465900E-1,1.173126221E0,3.094635010E-1,4.256591797E-1
2.091209550E-1,1.254089355E0,2.860260010E-1,5.034332275E-1
2.140648020E-1,1.337173462E0,2.551269531E-1,5.737304688E-1
2.190391680E-1,1.426666260E0,2.167816162E-1,6.291351318E-1
2.240135330E-1,1.522537231E0,1.880187988E-1,6.685485840E-1
2.289878980E-1,1.622665405E0,1.741790771E-1,6.898498535E-1
2.339317460E-1,1.721740723E0,1.816253662E-1,6.909179688E-1
2.389061110E-1,1.818679810E0,2.039947510E-1,6.728057861E-1
2.438499590E-1,1.912429810E0,2.402191162E-1,6.440429688E-1
2.488243240E-1,2.006164551E0,2.785644531E-1,6.067504883E-1
2.537681720E-1,2.093521118E0,3.201141357E-1,5.566864014E-1
2.587425370E-1,2.176605225E0,3.659210205E-1,4.959716797E-1
2.636863850E-1,2.252243042E0,4.021453857E-1,4.288635254E-1
2.686607500E-1,2.314025879E0,4.298400879E-1,3.681335449E-1
2.736045970E-1,2.359832764E0,4.575347900E-1,3.116760254E-1
2.785789630E-1,2.396057129E0,4.830932617E-1,2.605438232E-1
2.835228100E-1,2.417358398E0,5.022735596E-1,2.211303711E-1
2.884971760E-1,2.431213379E0,5.289001465E-1,1.912994385E-1
2.934410230E-1,2.446121216E0,5.608673096E-1,1.806488037E-1
2.983848710E-1,2.458908081E0,5.981445312E-1,1.912994385E-1
3.033592360E-1,2.468490601E0,6.247863770E-1,2.179412842E-1
3.083030840E-1,2.474884033E0,6.290435791E-1,2.520294189E-1
3.132469310E-1,2.474884033E0,6.119995117E-1,2.861175537E-1
3.181907790E-1,2.471679688E0,5.683288574E-1,3.244628906E-1
3.231346270E-1,2.474884033E0,4.937591553E-1,3.628082275E-1
3.281395100E-1,2.483398438E0,3.925476074E-1,4.001007080E-1
3.330833570E-1,2.497253418E0,2.721710205E-1,4.352569580E-1
3.380577220E-1,2.528152466E0,1.592559814E-1,4.725341797E-1
3.430015700E-1,2.566497803E0,7.084655762E-2,5.076904297E-1
3.479454180E-1,2.605911255E0,4.791259766E-3,5.321960449E-1
3.529197830E-1,2.636810303E0,-4.527282715E-2,5.428466797E-1
3.578636310E-1,2.658111572E0,-8.468627930E-2,5.460357666E-1
3.628379960E-1,2.671951294E0,-1.017303467E-1,5.545654297E-1
3.677818440E-1,2.680480957E0,-1.017303467E-1,5.705413818E-1
3.727562090E-1,2.690063477E0,-8.148193359E-2,5.854492188E-1
3.777000560E-1,2.696456909E0,-3.887939453E-2,5.875854492E-1
3.826744220E-1,2.678344727E0,9.854125977E-2,5.620117188E-1
3.876182690E-1,2.582473755E0,2.253112793E-1,5.119476318E-1
3.925926350E-1,2.497253418E0,8.682250977E-2,4.661407471E-1
3.975670000E-1,2.437591553E0,-1.969909668E-2,4.245910645E-1
4.025108470E-1,2.316162109E0,3.782653809E-2,3.777313232E-1
4.074546950E-1,2.168090820E0,8.363342285E-2,3.425750732E-1
4.124290600E-1,2.055175781E0,1.081237793E-1,3.223266602E-1
4.173729080E-1,1.961425781E0,1.251678467E-1,3.148803711E-1
4.223472730E-1,1.883666992E0,1.432800293E-1,3.212738037E-1
4.273216380E-1,1.827209473E0,1.709747314E-1,3.393707275E-1
4.322654860E-1,1.787780762E0,2.135925293E-1,3.564147949E-1
4.372398510E-1,1.762222290E0,2.711181641E-1,3.692016602E-1
4.421836990E-1,1.736648560E0,3.147888184E-1,3.755950928E-1
4.471580640E-1,1.700439453E0,3.446197510E-1,3.798522949E-1
4.521019120E-1,1.665283203E0,3.424835205E-1,3.841094971E-1
4.570762770E-1,1.656753540E0,2.945556641E-1,4.096832275E-1
4.620201250E-1,1.671676636E0,2.391510010E-1,4.618835449E-1
4.669639720E-1,1.703628540E0,2.008056641E-1,5.385742188E-1
4.719383380E-1,1.749435425E0,1.667175293E-1,6.237945557E-1
4.768821850E-1,1.812286377E0,1.486053467E-1,7.132873535E-1
4.818565510E-1,1.878341675E0,1.496734619E-1,8.016967773E-1
4.868003980E-1,1.941192627E0,1.581878662E-1,8.794708252E-1
4.917442460E-1,1.981658936E0,1.539306641E-1,9.497680664E-1
4.967186110E-1,2.005096436E0,1.123962402E-1,1.019012451E0
5.016929760E-1,2.008300781E0,4.847717285E-2,1.095718384E0
5.066673420E-1,1.996582031E0,-1.757812500E-2,1.192657471E0
5.116111890E-1,1.965682983E0,-6.018066406E-2,1.315155029E0
5.165855540E-1,1.909225464E0,-6.871032715E-2,1.467483521E0
5.215294020E-1,1.836791992E0,-4.313659668E-2,1.656036377E0
5.265037670E-1,1.770736694E0,3.738403320E-3,1.860580444E0
5.314476150E-1,1.698303223E0,4.420471191E-2,2.031021118E0
5.364219800E-1,1.609893799E0,6.124877930E-2,2.160980225E0
5.413658280E-1,1.514007568E0,6.338500977E-2,2.211044312E0
5.463096760E-1,1.417068481E0,5.273437500E-2,2.190811157E0
5.512535230E-1,1.335052490E0,5.699157715E-2,2.126892090E0
5.562278880E-1,1.270065308E0,7.829284668E-2,2.026748657E0
5.611717360E-1,1.222137451E0,1.123962402E-1,1.895721436E0
5.661461010E-1,1.182723999E0,1.518096924E-1,1.718887329E0
5.710899490E-1,1.144363403E0,1.954803467E-1,1.505844116E0
5.760643140E-1,1.104949951E0,2.285003662E-1,1.265090942E0
5.810081620E-1,1.059143066E0,2.455444336E-1,1.013687134E0
5.859825270E-1,1.010147095E0,2.317047119E-1,7.740020752E-1
5.909263750E-1,9.622039795E-1,2.050628662E-1,5.662841797E-1
5.959007400E-1,9.377136230E-1,2.359619141E-1,3.574829102E-1
6.008445880E-1,9.227905273E-1,2.892150879E-1,1.699981689E-1
6.058189530E-1,9.057464600E-1,3.456878662E-1,-3.631591797E-3
6.107933180E-1,9.057464600E-1,3.936157227E-1,-1.815338135E-1
6.157676830E-1,9.206695557E-1,4.277038574E-1,-3.455963135E-1
6.207115310E-1,9.345092773E-1,4.511413574E-1,-4.947204590E-1
6.256553790E-1,9.462280273E-1,4.937591553E-1,-6.257476807E-1
6.306297440E-1,9.536895752E-1,5.789794922E-1,-7.333526611E-1
6.355735920E-1,9.558105469E-1,6.791076660E-1,-8.292236328E-1
6.405479570E-1,9.558105469E-1,7.504882812E-1,-9.208374023E-1
6.454918040E-1,9.472961426E-1,7.622070312E-1,-1.012451172E0
6.504661700E-1,9.259948730E-1,7.270507812E-1,-1.099792480E0
6.554100170E-1,8.823089600E-1,6.823120117E-1,-1.155197144E0
6.603843830E-1,8.162689209E-1,6.716461182E-1,-1.173294067E0
6.653282300E-1,7.331695557E-1,6.886901855E-1,-1.163711548E0
6.703133090E-1,6.532745361E-1,6.993560791E-1,-1.128555298E0
6.752571570E-1,5.765838623E-1,6.940155029E-1,-1.082748413E0
6.802315220E-1,5.030822754E-1,6.737823486E-1,-1.022033691E0
6.852058880E-1,4.242553711E-1,6.673889160E-1,-9.485321045E-1
6.901802530E-1,3.443603516E-1,6.748504639E-1,-8.675689697E-1
6.951241000E-1,2.697906494E-1,6.855010986E-1,-7.759552002E-1
7.000984660E-1,2.026672363E-1,6.801757812E-1,-6.832733154E-1
7.050423130E-1,1.451568604E-1,6.599273682E-1,-5.916595459E-1
7.099861610E-1,1.046752930E-1,6.365051270E-1,-5.128326416E-1
7.149300090E-1,7.696533203E-2,6.151885986E-1,-4.531860352E-1
7.199043740E-1,6.419372559E-2,5.992126465E-1,-4.169616699E-1
7.248482220E-1,8.016967773E-2,5.843048096E-1,-4.073791504E-1
7.298225870E-1,1.376953125E-1,5.715179443E-1,-4.158935547E-1
7.347664340E-1,2.644653320E-1,5.843048096E-1,-4.361419678E-1
7.397408000E-1,4.551391602E-1,6.407623291E-1,-4.553070068E-1
7.446846470E-1,6.692657471E-1,7.877655029E-1,-4.521179199E-1
7.496590130E-1,8.865661621E-1,9.305114746E-1,-4.127044678E-1
7.546028600E-1,1.096435547E0,1.023193359E0,-3.498535156E-1
7.595772250E-1,1.294570923E0,1.091369629E0,-2.763519287E-1
7.645210730E-1,1.479919434E0,1.138244629E0,-2.028503418E-1
7.694649210E-1,1.640777588E0,1.162734985E0,-1.602325439E-1
7.744392860E-1,1.761154175E0,1.147827148E0,-1.570434570E-1
7.793831340E-1,1.842117310E0,1.100952148E0,-1.730194092E-1
7.843574990E-1,1.873001099E0,1.058349609E0,-1.836700439E-1
7.893318640E-1,1.858093262E0,1.045562744E0,-1.762084961E-1
7.942757120E-1,1.805892944E0,1.051956177E0,-1.431884766E-1
7.992500770E-1,1.724929810E0,1.067932129E0,-9.738159180E-2
8.041939250E-1,1.623733521E0,1.074325562E0,-5.690002441E-2
8.091682900E-1,1.514007568E0,1.063674927E0,-2.813720703E-2
8.141121380E-1,1.408554077E0,1.021057129E0,-1.216125488E-2
8.190865030E-1,1.299896240E0,9.432983398E-1,-1.109313965E-2
8.240303500E-1,1.190170288E0,8.463592529E-1,-1.962280273E-2
8.290047160E-1,1.076187134E0,7.451629639E-1,-3.985595703E-2
8.339485630E-1,9.632720947E-1,6.301116943E-1,-7.287597656E-2
8.388924110E-1,8.407745361E-1,4.916229248E-1,-1.229553223E-1
8.438667760E-1,7.012176514E-1,3.499450684E-1,-1.996459961E-1
8.488106240E-1,5.637969971E-1,2.295684814E-1,-2.976531982E-1
8.537849890E-1,4.380950928E-1,1.283721924E-1,-4.063110352E-1
8.587593540E-1,3.336944580E-1,5.487060547E-2,-5.117645264E-1
8.637032020E-1,2.570037842E-1,2.822875977E-2,-5.991210938E-1
8.686775670E-1,2.175903320E-1,4.420471191E-2,-6.555786133E-1
8.736214150E-1,2.175903320E-1,7.617187500E-2,-6.864776611E-1
8.785957800E-1,2.591400146E-1,9.001159668E-2,-6.907348633E-1
8.835396280E-1,3.305053711E-1,8.468627930E-2,-6.768798828E-1
8.885139930E-1,4.199829102E-1,7.936096191E-2,-6.534576416E-1
8.934578410E-1,5.190582275E-1,8.256530762E-2,-6.257476807E-1
8.984322060E-1,6.245117188E-1,9.640502930E-2,-5.916595459E-1
9.033760540E-1,7.278442383E-1,1.102600098E-1,-5.501251221E-1
9.083504190E-1,8.279876709E-1,1.230468750E-1,-5.128326416E-1
9.132942660E-1,9.238586426E-1,1.347656250E-1,-4.755554199E-1
9.182686320E-1,1.011215210E0,1.464843750E-1,-4.393310547E-1
9.232429970E-1,1.081512451E0,1.581878662E-1,-4.073791504E-1
9.281868450E-1,1.147567749E0,1.763000488E-1,-3.839416504E-1
9.331306920E-1,1.209350586E0,1.954803467E-1,-3.700866699E-1
9.381050580E-1,1.265808105E0,2.082672119E-1,-3.658294678E-1
9.430489050E-1,1.322265625E0,2.039947510E-1,-3.679656982E-1
9.480232700E-1,1.379791260E0,1.976165771E-1,-3.743438721E-1
9.529671180E-1,1.439453125E0,2.071990967E-1,-3.881988525E-1
9.579109660E-1,1.498031616E0,2.061309814E-1,-4.095001221E-1
9.628853310E-1,1.555557251E0,1.741790771E-1,-4.403991699E-1
9.678291790E-1,1.598175049E0,1.123962402E-1,-4.862060547E-1
9.728035440E-1,1.619476318E0,4.208374023E-2,-5.330810547E-1
9.777473910E-1,1.618408203E0,-1.225280762E-2,-5.852661133E-1
9.827217570E-1,1.599243164E0,-6.443786621E-2,-6.364135742E-1
9.876961220E-1,1.564086914E0,-1.326293945E-1,-6.918029785E-1
9.926399700E-1,1.512954712E0,-2.252960205E-1,-7.503967285E-1
9.976143350E-1,1.441574097E0,-3.275604248E-1,-8.047180176E-1
1.002558183E0,1.346771240E0,-4.000091553E-1,-8.558502197E-1
1.007532548E0,1.238113403E0,-4.479370117E-1,-9.048461914E-1
1.012476395E0,1.125198364E0,-4.766998291E-1,-9.538574219E-1
1.017420243E0,1.014404297E0,-4.809570312E-1,-9.922027588E-1
1.022394608E0,9.185333252E-1,-4.639129639E-1,-1.026290894E0
1.027338456E0,8.407745361E-1,-4.351501465E-1,-1.065704346E0
1.032312821E0,7.906951904E-1,-4.298248291E-1,-1.111511230E0
1.037287186E0,7.640686035E-1,-4.351501465E-1,-1.160522461E0
1.042231034E0,7.544860840E-1,-4.404907227E-1,-1.210586548E0
1.047205399E0,7.598114014E-1,-4.500732422E-1,-1.260650635E0
1.052149247E0,7.757873535E-1,-4.639129639E-1,-1.300064087E0
1.057123612E0,8.045501709E-1,-4.692382812E-1,-1.321365356E0
1.062067460E0,8.375701904E-1,-4.681854248E-1,-1.324569702E0
1.067041825E0,8.737945557E-1,-4.671173096E-1,-1.303268433E0
1.071985673E0,9.110717773E-1,-4.585876465E-1,-1.264907837E0
1.076960038E0,9.345092773E-1,-4.404907227E-1,-1.212707520E0
1.081903886E0,9.504852295E-1,-4.223785400E-1,-1.148803711E0
1.086878251E0,9.547576904E-1,-4.085235596E-1,-1.085952759E0
1.091822099E0,9.472961426E-1,-3.968048096E-1,-1.031616211E0
1.096796464E0,9.249267578E-1,-3.872222900E-1,-9.772949219E-1
1.101740311E0,8.855133057E-1,-3.659210205E-1,-9.325561523E-1
1.106714677E0,8.269195557E-1,-3.318328857E-1,-8.888702393E-1
1.111658524E0,7.534179688E-1,-2.881469727E-1,-8.473358154E-1
1.116602372E0,6.671295166E-1,-2.540588379E-1,-7.983245850E-1
1.121546220E0,5.744476318E-1,-2.370147705E-1,-7.429351807E-1
1.126520585E0,4.775085449E-1,-2.221069336E-1,-6.811523438E-1
1.131494950E0,3.890991211E-1,-2.039947510E-1,-6.161651611E-1
1.136469315E0,3.187866211E-1,-1.869506836E-1,-5.447998047E-1
1.141413163E0,2.676544189E-1,-1.656494141E-1,-4.808807373E-1
1.146357011E0,2.388916016E-1,-1.507263184E-1,-4.276123047E-1
1.151331376E0,2.303771973E-1,-1.560516357E-1,-3.786163330E-1
1.156275224E0,2.207794189E-1,-1.667175293E-1,-3.274841309E-1
1.161219071E0,2.090606689E-1,-1.549987793E-1,-2.720794678E-1
1.166193436E0,1.962890625E-1,-1.347503662E-1,-2.124328613E-1
1.171137284E0,1.771087646E-1,-1.219635010E-1,-1.580963135E-1
1.176111649E0,1.440887451E-1,-1.113128662E-1,-1.240081787E-1
1.181055497E0,9.082031250E-2,-1.006622314E-1,-1.101684570E-1
1.186029862E0,1.306152344E-2,-8.468627930E-2,-1.091003418E-1
1.190973710E0,-7.748413086E-2,-6.977844238E-2,-1.208190918E-1
1.195948075E0,-1.637725830E-1,-6.338500977E-2,-1.751403809E-1
1.200891923E0,-2.191772461E-1,-7.829284668E-2,-2.870025635E-1
1.205866288E0,-2.255554199E-1,-1.219635010E-1,-4.148254395E-1
1.210810136E0,-1.989288330E-1,-1.624450684E-1,-5.139007568E-1
1.215784501E0,-1.669769287E-1,-1.944122314E-1,-5.927276611E-1
1.220728349E0,-1.403350830E-1,-2.412719727E-1,-6.609039307E-1
1.225702714E0,-1.296844482E-1,-2.860260010E-1,-7.163085938E-1
1.230677079E0,-1.286163330E-1,-3.243713379E-1,-7.312164307E-1
1.235620927E0,-9.347534180E-2,-3.605957031E-1,-6.523895264E-1
1.240564774E0,-4.766845703E-2,-3.254394531E-1,-5.128326416E-1
1.245539140E0,-3.488159180E-2,-2.689819336E-1,-4.063110352E-1
1.250513505E0,-6.471252441E-2,-2.370147705E-1,-3.562469482E-1
1.255457352E0,-1.222381592E-1,-2.263641357E-1,-3.306732178E-1
1.260431718E0,-2.053222656E-1,-2.252960205E-1,-2.944488525E-1
1.265375565E0,-3.107910156E-1,-2.274322510E-1,-2.475891113E-1
1.270349931E0,-4.268951416E-1,-2.391510010E-1,-1.932525635E-1
1.275293778E0,-5.707092285E-1,-2.838897705E-1,-1.442565918E-1
1.280268143E0,-7.155914307E-1,-3.318328857E-1,-9.312438965E-2
1.285211991E0,-8.274383545E-1,-3.542022705E-1,-3.666687012E-2
1.290186356E0,-9.020080566E-1,-3.446044922E-1,1.446533203E-2
1.295130204E0,-9.371643066E-1,-3.318328857E-1,5.282592773E-2
1.300104569E0,-9.350280762E-1,-3.307647705E-1,7.199096680E-2
1.305048417E0,-9.009399414E-1,-3.254394531E-1,8.264160156E-2
1.310022782E0,-8.498077393E-1,-3.041229248E-1,9.117126465E-2
1.314966630E0,-7.890930176E-1,-2.743072510E-1,9.542846680E-2
1.319940995E0,-7.304992676E-1,-2.466125488E-1,1.007537842E-1
1.324884843E0,-6.782989502E-1,-2.338256836E-1,1.071472168E-1
1.329859208E0,-6.356964111E-1,-2.125244141E-1,1.177978516E-1
1.334803056E0,-6.186523438E-1,-1.922760010E-1,1.348419189E-1
1.339746903E0,-6.218414307E-1,-1.880187988E-1,1.529541016E-1
1.344721268E0,-6.388854980E-1,-1.997375488E-1,1.721343994E-1
1.349695634E0,-6.740417480E-1,-2.199707031E-1,1.881103516E-1
1.354639481E0,-7.102508545E-1,-2.455444336E-1,1.891784668E-1
1.359613847E0,-7.390136719E-1,-2.774963379E-1,1.923675537E-1
1.364557694E0,-7.656555176E-1,-3.083953857E-1,1.976928711E-1
1.369501542E0,-7.869567871E-1,-3.414154053E-1,2.168731689E-1
1.374475907E0,-7.954864502E-1,-3.680419922E-1,2.445678711E-1
1.379450272E0,-7.880249023E-1,-3.850860596E-1,2.786560059E-1
1.384394120E0,-7.826995850E-1,-3.829650879E-1,3.265991211E-1
1.389368485E0,-7.912139893E-1,-3.680419922E-1,3.990325928E-1
1.394312333E0,-8.114624023E-1,-3.478088379E-1,4.906463623E-1
1.399286698E0,-8.519439697E-1,-3.275604248E-1,5.854492188E-1
1.404230546E0,-8.934783936E-1,-3.083953857E-1,6.759948730E-1
1.409204911E0,-9.414215088E-1,-2.881469727E-1,7.772064209E-1
1.414148759E0,-1.018112183E0,-2.561950684E-1,8.826599121E-1
1.419092606E0,-1.112930298E0,-2.189025879E-1,9.838562012E-1
1.424066972E0,-1.219451904E0,-1.848144531E-1,1.106369019E0
1.429010819E0,-1.353683472E0,-1.581878662E-1,1.223541260E0
1.433985184E0,-1.490036011E0,-1.187744141E-1,1.324752808E0
1.438959550E0,-1.614669800E0,-9.107971191E-2,1.415298462E0
1.443903397E0,-1.730773926E0,-8.787536621E-2,1.473876953E0
1.448877763E0,-1.811737061E0,-5.166625977E-2,1.507965088E0
1.453821610E0,-1.725448608E0,6.977844238E-2,1.445114136E0
1.458765458E0,-1.536895752E0,1.422119141E-1,1.273605347E0
1.463709306E0,-1.369659424E0,1.922760010E-1,1.026473999E0
1.468683671E0,-1.172576904E0,2.082672119E-1,7.516326904E-1
1.473658036E0,-9.531402588E-1,1.869506836E-1,5.023651123E-1
1.478632401E0,-7.081298828E-1,1.933441162E-1,3.138122559E-1
1.483576249E0,-4.151763916E-1,1.976165771E-1,1.486968994E-1
1.488550614E0,-1.414031982E-1,1.496734619E-1,-3.666687012E-2
1.493494462E0,9.082031250E-2,8.042907715E-2,-1.964569092E-1
1.498468827E0,2.793731689E-1,-1.544189453E-2,-3.189544678E-1
1.503412675E0,4.402313232E-1,-1.134490967E-1,-4.020538330E-1
1.508387040E0,5.872344971E-1,-2.189025879E-1,-4.617004395E-1
1.513330888E0,7.097473145E-1,-3.115844727E-1,-4.925994873E-1
1.518305253E0,8.098754883E-1,-3.850860596E-1,-5.085754395E-1
1.523249100E0,8.919067383E-1,-4.085235596E-1,-5.021820068E-1
1.528223466E0,9.377136230E-1,-4.000091553E-1,-4.542388916E-1
1.533167313E0,9.281158447E-1,-4.106597900E-1,-3.988494873E-1
1.538141679E0,8.727264404E-1,-4.394226074E-1,-3.445281982E-1
1.543085526E0,7.587432861E-1,-4.490051270E-1,-2.880706787E-1
1.548029374E0,5.765838623E-1,-4.660491943E-1,-2.603607178E-1
1.553003739E0,3.667297363E-1,-4.543304443E-1,-2.262725830E-1
1.557947587E0,1.760406494E-1,-4.085235596E-1,-1.836700439E-1
1.562921952E0,2.690124512E-2,-3.296966553E-1,-1.346740723E-1
1.567865800E0,-9.240722656E-2,-2.572631836E-1,-8.566284180E-2
1.572840165E0,-1.999969482E-1,-2.498016357E-1,-4.306030273E-2
1.577814530E0,-2.969360352E-1,-2.657775879E-1,1.127624512E-2
1.582758378E0,-3.906707764E-1,-2.668457031E-1,6.880187988E-2
1.587702225E0,-4.790954590E-1,-2.593841553E-1,1.433715820E-1
1.592676591E0,-5.558013916E-1,-2.647094727E-1,2.232666016E-1
1.597620438E0,-6.260986328E-1,-2.753601074E-1,2.914428711E-1
1.602594804E0,-6.900177002E-1,-2.881469727E-1,3.510894775E-1
1.607569169E0,-7.592620850E-1,-2.987976074E-1,4.096832275E-1
1.612513016E0,-8.306274414E-1,-3.009338379E-1,4.608154297E-1
1.617456864E0,-8.998718262E-1,-2.945404053E-1,5.151519775E-1
1.622400712E0,-9.701843262E-1,-2.817535400E-1,5.598907471E-1
1.627375077E0,-1.049011230E0,-2.764282227E-1,6.067504883E-1
1.632349442E0,-1.185363770E0,-3.041229248E-1,6.685485840E-1
1.637293290E0,-1.389892578E0,-3.797607422E-1,7.452392578E-1
1.642237138E0,-1.525192261E0,-3.701782227E-1,8.176727295E-1
1.647211503E0,-1.570983887E0,-2.498016357E-1,8.613586426E-1
1.652155350E0,-1.588043213E0,-1.613769531E-1,8.720092773E-1
1.657129716E0,-1.581649780E0,-1.752319336E-1,8.698730469E-1
1.662073563E0,-1.550750732E0,-2.242279053E-1,8.624267578E-1
1.667047929E0,-1.509201050E0,-2.817535400E-1,8.656158447E-1
1.671991776E0,-1.468719482E0,-3.020019531E-1,8.815917969E-1
1.676966141E0,-1.420791626E0,-3.030700684E-1,8.890533447E-1
1.681909989E0,-1.390960693E0,-3.115844727E-1,8.847961426E-1
1.686884354E0,-1.417587280E0,-3.296966553E-1,8.847961426E-1
1.691828202E0,-1.436767578E0,-3.573913574E-1,8.986358643E-1
1.696802567E0,-1.427185059E0,-3.520660400E-1,9.156799316E-1
1.701746415E0,-1.418655396E0,-3.126525879E-1,9.380493164E-1
1.706690263E0,-1.406936646E0,-2.785644531E-1,8.890533447E-1
1.711664628E0,-1.361129761E0,-2.817535400E-1,7.931823730E-1
1.716638993E0,-1.291885376E0,-2.987976074E-1,6.930389404E-1
1.721582841E0,-1.221588135E0,-3.307647705E-1,5.918426514E-1
1.726557206E0,-1.141693115E0,-3.542022705E-1,5.055541992E-1
1.731501054E0,-1.066055298E0,-3.989410400E-1,4.608154297E-1
1.736475419E0,-1.045822144E0,-4.585876465E-1,4.810485840E-1
1.741449784E0,-1.037292480E0,-4.809570312E-1,4.597473145E-1
1.746424149E0,-1.022384644E0,-4.287719727E-1,3.990325928E-1
1.751367997E0,-9.978790283E-1,-3.478088379E-1,3.233947754E-1
1.756311845E0,-9.510040283E-1,-2.860260010E-1,2.616119385E-1
1.761286210E0,-8.934783936E-1,-2.817535400E-1,2.104797363E-1
1.766230058E0,-8.316955566E-1,-3.169097900E-1,1.699981689E-1
1.771173905E0,-7.794952393E-1,-3.499298096E-1,1.742553711E-1
1.776148270E0,-7.475433350E-1,-3.648529053E-1,2.339172363E-1
1.781092118E0,-7.411499023E-1,-3.786926270E-1,3.223266602E-1
1.786066483E0,-7.528686523E-1,-3.904113770E-1,4.011688232E-1
1.791040849E0,-7.741699219E-1,-3.542022705E-1,4.650726318E-1
1.795984696E0,-7.976074219E-1,-2.892150879E-1,5.279235840E-1
1.800928544E0,-8.146514893E-1,-2.359466553E-1,5.993041992E-1
1.805902909E0,-8.274383545E-1,-2.061309814E-1,6.546936035E-1
1.810846757E0,-8.242340088E-1,-2.114562988E-1,7.079620361E-1
1.815821122E0,-8.167877197E-1,-2.412719727E-1,7.761383057E-1
1.820764970E0,-8.146514893E-1,-2.604522705E-1,8.432464600E-1
1.825739335E0,-8.199768066E-1,-2.391510010E-1,9.550933838E-1
1.830713700E0,-8.434143066E-1,-1.869506836E-1,1.036056519E0
1.835657548E0,-8.455505371E-1,-1.347503662E-1,9.572296143E-1
1.840631913E0,-8.285064697E-1,-7.936096191E-2,8.443145752E-1
1.845575761E0,-8.050689697E-1,-7.083129883E-2,7.441711426E-1
1.850550126E0,-7.613830566E-1,-1.240997314E-1,6.472320557E-1
1.855493974E0,-6.932067871E-1,-1.890869141E-1,5.652160645E-1
1.860468339E0,-6.154479980E-1,-2.380828857E-1,4.853210449E-1
1.865412186E0,-5.483398438E-1,-2.604522705E-1,3.755950928E-1
1.870386552E0,-5.121154785E-1,-2.679138184E-1,2.871856689E-1
1.875330399E0,-5.046691895E-1,-2.817535400E-1,2.296600342E-1
1.880304765E0,-5.174407959E-1,-2.913513184E-1,1.891784668E-1
1.885248612E0,-5.355529785E-1,-2.881469727E-1,1.636047363E-1
1.890222977E0,-5.558013916E-1,-2.881469727E-1,1.529541016E-1
1.895166825E0,-5.696411133E-1,-3.020019531E-1,1.508178711E-1
1.900141190E0,-5.824279785E-1,-3.339538574E-1,1.529541016E-1
1.905085038E0,-5.952148438E-1,-3.637847900E-1,1.657409668E-1
1.910059403E0,-5.909423828E-1,-3.882904053E-1,2.552185059E-1
1.915003251E0,-6.005401611E-1,-3.680419922E-1,3.233947754E-1
1.919947099E0,-6.079864502E-1,-2.987976074E-1,3.777313232E-1
1.924890946E0,-6.303558350E-1,-2.316894531E-1,5.801239014E-1
1.929865311E0,-6.580657959E-1,-2.252960205E-1,8.144836426E-1
1.934839677E0,-6.942749023E-1,-2.679138184E-1,9.007720947E-1
1.939814042E0,-7.145233154E-1,-2.050628662E-1,9.604187012E-1
1.944757890E0,-7.219696045E-1,-1.603240967E-1,1.085067749E0
1.949701737E0,-7.198486328E-1,-1.347503662E-1,1.235260010E0
1.954676102E0,-7.102508545E-1,-1.134490967E-1,1.464294434E0
1.959650468E0,-7.262420654E-1,-9.320068359E-2,1.690124512E0
1.964594315E0,-7.304992676E-1,-4.739379883E-2,1.756179810E0
1.969568681E0,-7.272949219E-1,2.078247070E-2,1.765762329E0
1.974512528E0,-6.953430176E-1,3.675842285E-2,1.709304810E0
1.979456376E0,-6.165161133E-1,-5.859375000E-3,1.599578857E0
1.984430741E0,-4.812316895E-1,-1.017303467E-1,1.385467529E0
1.989405106E0,-3.193054199E-1,-1.198425293E-1,1.147918701E0
1.994348954E0,-1.595153809E-1,-1.006622314E-1,9.156799316E-1
1.999323319E0,-1.144409180E-2,-8.682250977E-2,6.781311035E-1
2.004267167E0,9.295654297E-2,-5.273437500E-2,5.023651123E-1
2.009241532E0,1.494140625E-1,-1.011657715E-2,4.214019775E-1
2.014185380E0,1.760406494E-1,2.183532715E-2,4.064941406E-1
2.019129227E0,1.771087646E-1,3.355407715E-2,4.022216797E-1
2.024073075E0,1.622009277E-1,5.380249023E-2,3.851776123E-1
2.029047440E0,1.430206299E-1,9.214782715E-2,3.564147949E-1
2.033991288E0,1.376953125E-1,1.304931641E-1,3.170013428E-1
2.038965653E0,1.430206299E-1,1.901550293E-1,2.999572754E-1
2.043940018E0,1.451568604E-1,2.412872314E-1,3.127441406E-1
2.048883866E0,1.494140625E-1,3.520660400E-1,3.351135254E-1
2.053858231E0,1.153259277E-1,5.086669922E-1,4.416351318E-1
2.058832597E0,1.731872559E-2,5.779113770E-1,6.483001709E-1
2.063776444E0,-9.666442871E-2,6.194610596E-1,8.677520752E-1
2.068750809E0,-2.330169678E-1,6.460876465E-1,1.073348999E0
2.073694657E0,-3.917388916E-1,6.418304443E-1,1.256561279E0
2.078669022E0,-5.366210938E-1,6.439514160E-1,1.440856934E0
2.083612870E0,-6.165161133E-1,6.748504639E-1,1.588928223E0
2.088587235E0,-6.655120850E-1,7.632598877E-1,1.787063599E0
2.093531083E0,-7.134552002E-1,7.622070312E-1,2.017166138E0
2.098505448E0,-7.422180176E-1,7.611389160E-1,2.205718994E0
2.103449296E0,-7.635192871E-1,7.856292725E-1,2.313308716E0
2.108423661E0,-7.848205566E-1,8.293151855E-1,2.318634033E0
2.113367509E0,-7.954864502E-1,8.154602051E-1,2.244064331E0
2.118341874E0,-7.890930176E-1,7.568664551E-1,2.092803955E0
2.123316239E0,-7.539367676E-1,6.609954834E-1,1.871231079E0
2.128260087E0,-6.921539307E-1,5.448913574E-1,1.618759155E0
2.133203934E0,-5.994720459E-1,4.383544922E-1,1.233139038E0
2.138178300E0,-4.865570068E-1,4.074707031E-1,7.814636230E-1
2.143122147E0,-3.512573242E-1,2.434234619E-1,4.757232666E-1
2.148096513E0,-1.754913330E-1,-4.739379883E-2,2.317810059E-1
2.153040360E0,-1.463317871E-2,-1.177062988E-1,5.282592773E-2
2.158014725E0,1.334381104E-1,-1.454010010E-1,-2.813720703E-2
2.162989091E0,2.516784668E-1,-2.146453857E-1,-1.322937012E-2
2.167902421E0,3.123931885E-1,-2.743072510E-1,2.938842773E-2
2.172846268E0,2.932281494E-1,-3.211669922E-1,5.175781250E-2
2.177820634E0,2.080078125E-1,-3.552551270E-1,2.725219727E-2
2.182794999E0,8.230590820E-2,-3.797607422E-1,-1.216125488E-2
2.187769364E0,-6.471252441E-2,-3.978729248E-1,-3.134155273E-2
2.192713212E0,-2.181091309E-1,-4.277038574E-1,-2.174377441E-2
2.197687577E0,-3.778991699E-1,-4.426116943E-1,1.660156250E-2
2.202661942E0,-5.312957764E-1,-4.308929443E-1,5.387878418E-2
2.207605790E0,-6.740417480E-1,-4.181060791E-1,7.945251465E-2
2.212549638E0,-7.922821045E-1,-4.095916748E-1,8.584594727E-2
2.217524003E0,-8.775024414E-1,-4.127807617E-1,7.838439941E-2
2.222467850E0,-9.094696045E-1,-4.117279053E-1,5.920410156E-2
2.227442216E0,-8.689880371E-1,-4.138488770E-1,4.003906250E-2
2.232386063E0,-7.709808350E-1,-4.298248291E-1,3.364562988E-2
2.237360429E0,-6.388854980E-1,-4.415435791E-1,3.578186035E-2
2.242304276E0,-4.886779785E-1,-4.415435791E-1,2.511596680E-2
2.247278641E0,-3.331604004E-1,-4.298248291E-1,1.020812988E-2
2.252222489E0,-1.882781982E-1,-4.085235596E-1,-7.904052734E-3
2.257196854E0,-6.257629395E-2,-3.786926270E-1,-2.494812012E-2
2.262140702E0,4.714965820E-2,-3.211669922E-1,-4.199218750E-2
2.267115067E0,1.355590820E-1,-2.689819336E-1,-5.796813965E-2
2.272058915E0,2.080078125E-1,-2.242279053E-1,-6.648254395E-2
2.277033280E0,2.655181885E-1,-1.837615967E-1,-7.501220703E-2
2.281977128E0,3.081359863E-1,-1.326293945E-1,-8.140563965E-2
2.286951493E0,3.347625732E-1,-6.871032715E-2,-8.033752441E-2
2.291895341E0,3.518066406E-1,-4.791259766E-3,-7.075500488E-2
2.296839188E0,3.571319580E-1,6.871032715E-2,-5.264282227E-2
2.301783036E0,3.496856689E-1,1.677856445E-1,-3.773498535E-2
2.306757401E0,3.134613037E-1,3.616638184E-1,-8.033752441E-2
2.311701249E0,2.399597168E-1,4.511413574E-1,-1.048431396E-1
2.316645097E0,1.483459473E-1,4.564666748E-1,-1.048431396E-1
2.321619462E0,7.377624512E-2,4.905548096E-1,-1.144256592E-1
2.326593827E0,2.903747559E-2,4.948120117E-1,-1.122894287E-1
2.331537675E0,9.857177734E-3,4.202575684E-1,-1.080322266E-1
2.336512040E0,1.412963867E-2,3.201141357E-1,-1.037750244E-1
2.341455888E0,6.098937988E-2,2.881622314E-1,-9.951782227E-2
2.346430253E0,1.270446777E-1,3.137207031E-1,-9.098815918E-2
2.351374100E0,1.941528320E-1,3.030700684E-1,-8.459472656E-2
2.356348466E0,2.527465820E-1,2.902832031E-1,-8.886718750E-2
2.361292313E0,2.996063232E-1,2.775115967E-1,-1.005706787E-1
2.366236161E0,3.347625732E-1,2.423553467E-1,-1.080322266E-1
2.371210526E0,3.571319580E-1,1.976165771E-1,-1.101684570E-1
2.376154374E0,3.667297363E-1,1.699066162E-1,-1.091003418E-1
2.381128739E0,3.624572754E-1,1.507415771E-1,-1.048431396E-1
2.386072587E0,3.486175537E-1,1.251678467E-1,-9.631347656E-2
2.391077470E0,3.241119385E-1,8.895874023E-2,-8.247375488E-2
2.396021317E0,2.857666016E-1,5.805969238E-2,-6.648254395E-2
2.400965165E0,2.378234863E-1,2.610778809E-2,-4.411315918E-2
2.405909013E0,1.813659668E-1,-5.859375000E-3,-2.174377441E-2
2.410883378E0,1.153259277E-1,-3.462219238E-2,1.693725586E-3
2.415827225E0,4.927062988E-2,-6.124877930E-2,2.406311035E-2
2.420832108E0,-1.275634766E-1,-5.485534668E-2,4.962158203E-2
2.425775956E0,-7.049255371E-1,-4.791259766E-3,7.624816895E-2
2.430719804E0,-1.121444702E0,-5.805969238E-2,1.295166016E-1
2.435663651E0,-1.306808472E0,-1.225280762E-2,1.433715820E-1
2.440638016E0,-1.333435059E0,1.496734619E-1,4.216003418E-2
2.445612382E0,-1.120391846E0,1.549987793E-1,-4.731750488E-2
2.450586747E0,-7.922821045E-1,1.332092285E-2,-5.050659180E-2
2.455530595E0,-4.684448242E-1,-1.091918945E-1,-1.641845703E-2
2.460474442E0,-2.351531982E-1,-1.805572510E-1,8.071899414E-3
2.465418290E0,-1.190338135E-1,-2.018585205E-1,5.950927734E-3
2.470392655E0,-7.855224609E-2,-1.741638184E-1,-1.322937012E-2
2.475336503E0,-7.748413086E-2,-1.262359619E-1,-3.985595703E-2
2.480310868E0,-8.708190918E-2,-5.805969238E-2,-6.648254395E-2
2.485254716E0,-8.387756348E-2,1.011657715E-2,-8.352661133E-2
2.490229081E0,-6.150817871E-2,5.805969238E-2,-9.631347656E-2
2.495172929E0,-1.676940918E-2,7.084655762E-2,-9.524536133E-2
2.500147294E0,2.583312988E-2,6.231689453E-2,-8.140563965E-2
2.505091141E0,7.058715820E-2,4.954528809E-2,-6.968688965E-2
2.510065507E0,1.110687256E-1,4.208374023E-2,-6.010437012E-2
2.515039872E0,1.376953125E-1,4.527282715E-2,-6.755065918E-2
2.520014237E0,1.547393799E-1,6.338500977E-2,-7.926940918E-2
2.524958085E0,1.643218994E-1,7.510375977E-2,-6.755065918E-2
2.529932450E0,1.781768799E-1,7.510375977E-2,-5.157470703E-2
2.534876298E0,1.984100342E-1,7.723999023E-2,-4.199218750E-2
2.539820145E0,2.239837646E-1,6.977844238E-2,-3.985595703E-2
2.544763993E0,2.442169189E-1,4.634094238E-2,-4.306030273E-2
2.549738358E0,2.516784668E-1,1.011657715E-2,-4.943847656E-2
2.554682206E0,2.431488037E-1,-1.757812500E-2,-5.583190918E-2
2.559656571E0,2.186584473E-1,-3.355407715E-2,-6.115722656E-2
2.564600419E0,1.802978516E-1,-3.994750977E-2,-7.926940918E-2
2.569574784E0,1.270446777E-1,-4.739379883E-2,-1.218872070E-1
2.574518632E0,8.230590820E-2,-6.657409668E-2,-1.399993896E-1
2.579492997E0,6.312561035E-2,-7.936096191E-2,-1.410522461E-1
2.584436845E0,6.098937988E-2,-8.787536621E-2,-1.517181396E-1
2.589411210E0,5.886840820E-2,-1.059875488E-1,-2.060394287E-1
2.594355058E0,2.796936035E-2,-1.145172119E-1,-4.041748047E-1
2.599329423E0,-5.085754395E-2,-6.338500977E-2,-5.671691895E-1
2.604273270E0,-1.275634766E-1,-7.403564453E-2,-6.310729980E-1
2.609247636E0,-1.510009766E-1,-8.361816406E-2,-6.055145264E-1
2.614222001E0,-1.456604004E-1,-5.166625977E-2,-5.895385742E-1
2.619165849E0,-1.360778809E-1,-7.980346680E-3,-6.236267090E-1
2.624109696E0,-1.360778809E-1,7.995605469E-3,-6.310729980E-1
2.629084061E0,-1.296844482E-1,-5.340576172E-4,-5.842132568E-1
2.634058427E0,-9.773254395E-2,1.545715332E-2,-4.947204590E-1
2.639032792E0,-5.725097656E-2,4.420471191E-2,-4.222869873E-1
2.643976640E0,-2.848815918E-2,8.256530762E-2,-3.850097656E-1
2.648920487E0,-1.463317871E-2,8.256530762E-2,-3.605041504E-1
2.653894852E0,-7.186889648E-3,5.699157715E-2,-3.296051025E-1
2.658838700E0,1.838684082E-2,3.143310547E-2,-2.806091309E-1
2.663813065E0,5.673217773E-2,2.078247070E-2,-2.188262939E-1
2.668787431E0,8.549499512E-2,3.462219238E-2,-1.463775635E-1
2.673731278E0,1.036071777E-1,5.912780762E-2,-5.157470703E-2
2.678675126E0,1.046752930E-1,5.487060547E-2,4.882812500E-3
2.683618974E0,7.484436035E-2,3.250122070E-2,1.127624512E-2
2.688593339E0,2.478027344E-2,1.864624023E-2,1.020812988E-2
2.693537186E0,-3.062438965E-2,1.545715332E-2,1.446533203E-2
2.698511552E0,-7.110595703E-2,1.757812500E-2,2.511596680E-2
2.703455399E0,-8.920288086E-2,1.757812500E-2,2.832031250E-2
2.708429765E0,-1.009216309E-1,1.225280762E-2,2.725219727E-2
2.713373612E0,-1.019897461E-1,1.602172852E-3,3.257751465E-2
2.718347977E0,-9.452819824E-2,-1.118469238E-2,3.578186035E-2
2.723322343E0,-8.815002441E-2,-3.034973145E-2,4.216003418E-2
2.728296708E0,-8.920288086E-2,-4.846191406E-2,4.855346680E-2
2.733240556E0,-9.240722656E-2,-5.699157715E-2,5.601501465E-2
2.738214921E0,-1.009216309E-1,-5.378723145E-2,5.815124512E-2
2.743158768E0,-1.115722656E-1,-4.739379883E-2,5.387878418E-2
2.748133134E0,-1.169128418E-1,-3.781127930E-2,4.643249512E-2
2.753076981E0,-1.115722656E-1,-2.929687500E-2,3.578186035E-2
2.758051347E0,-1.041259766E-1,-2.716064453E-2,3.045654297E-2
2.762995194E0,-9.347534180E-2,-3.141784668E-2,2.511596680E-2
2.767939042E0,-8.815002441E-2,-2.929687500E-2,2.085876465E-2
2.772882890E0,-9.347534180E-2,-1.969909668E-2,2.406311035E-2
2.777857255E0,-9.559631348E-2,-1.330566406E-2,3.578186035E-2
2.782801102E0,-9.240722656E-2,-1.330566406E-2,4.750061035E-2
2.787775468E0,-8.068847656E-2,-1.864624023E-2,5.815124512E-2
2.792719315E0,-5.938720703E-2,-1.757812500E-2,6.666564941E-2
2.797693681E0,-3.274536133E-2,-2.183532715E-2,7.199096680E-2
2.802637528E0,-7.934570312E-4,-2.183532715E-2,6.880187988E-2
2.807611893E0,2.478027344E-2,-1.969909668E-2,6.240844727E-2
2.812555741E0,4.927062988E-2,-1.651000977E-2,5.601501465E-2
2.817530106E0,6.631469727E-2,-1.757812500E-2,4.750061035E-2
2.822504472E0,7.910156250E-2,-2.397155762E-2,4.322814941E-2
2.827478837E0,9.400939941E-2,-3.569030762E-2,4.750061035E-2
2.832422684E0,1.046752930E-1,-4.206848145E-2,6.134033203E-2
2.837397050E0,1.089324951E-1,-3.674316406E-2,8.584594727E-2
2.842340897E0,9.082031250E-2,-1.969909668E-2,1.188659668E-1
2.847315263E0,2.796936035E-2,-4.101562500E-2,2.285919189E-1
2.852259110E0,-4.978942871E-2,-2.018585205E-1,2.733306885E-1
2.857233475E0,-1.328887939E-1,-1.517944336E-1,1.369781494E-1
2.862177323E0,-2.383422852E-1,7.191467285E-2,4.750061035E-2
2.867151688E0,-2.947998047E-1,1.545715332E-2,5.387878418E-2
2.872095536E0,-2.724304199E-1,-9.533691406E-2,9.968566895E-2
2.877069901E0,-2.106475830E-1,-1.081237793E-1,1.412353516E-1
2.882013749E0,-1.296844482E-1,-7.083129883E-2,1.582794189E-1
2.886957597E0,-3.913879395E-2,-2.609252930E-2,1.518859863E-1
2.891901444E0,3.861999512E-2,-1.118469238E-2,1.582794189E-1
2.896845292E0,1.014709473E-1,-1.969909668E-2,1.838531494E-1
2.901819657E0,1.579284668E-1,-2.716064453E-2,2.115478516E-1
2.906794022E0,2.186584473E-1,-2.609252930E-2,2.168731689E-1
2.911737870E0,2.655181885E-1,-3.462219238E-2,1.817169189E-1
2.916681718E0,2.655181885E-1,-3.674316406E-2,1.039581299E-1
2.921686600E0,2.367553711E-1,-2.609252930E-2,3.683471680E-2
2.926660966E0,2.069396973E-1,-4.206848145E-2,-1.510620117E-3
2.931604813E0,1.579284668E-1,-4.420471191E-2,-2.601623535E-2
2.936579179E0,9.721374512E-2,-2.716064453E-2,-3.773498535E-2
2.941523026E0,4.608154297E-2,-1.969909668E-2,-4.518127441E-2
2.946466874E0,2.410888672E-3,-2.076721191E-2,-4.624938965E-2
2.951410722E0,-4.127502441E-2,-1.864624023E-2,-4.092407227E-2
2.956354569E0,-7.748413086E-2,-1.544189453E-2,-2.920532227E-2
2.961328934E0,-1.062469482E-1,-1.011657715E-2,-1.962280273E-2
2.966272782E0,-1.286163330E-1,-5.859375000E-3,-1.429748535E-2
2.971247147E0,-1.350097656E-1,-5.859375000E-3,-1.109313965E-2
2.976221513E0,-1.286163330E-1,-7.980346680E-3,-7.904052734E-3
2.981165360E0,-1.137084961E-1,-1.437377930E-2,-4.699707031E-3
2.986139725E0,-9.559631348E-2,-2.183532715E-2,-4.699707031E-3
2.991083573E0,-7.855224609E-2,-2.822875977E-2,-5.767822266E-3
2.996057938E0,-5.938720703E-2,-3.034973145E-2,-3.631591797E-3
3.001001786E0,-4.660034180E-2,-2.397155762E-2,-2.578735352E-3
3.005976151E0,-3.274536133E-2,-1.330566406E-2,-1.510620117E-3
3.010919999E0,-1.890563965E-2,-5.340576172E-4,1.693725586E-3
3.015894364E0,-9.307861328E-3,7.995605469E-3,-3.631591797E-3
3.020838212E0,1.342773438E-3,1.651000977E-2,-2.578735352E-3
3.025782059E0,9.857177734E-3,1.864624023E-2,-4.425048828E-4
3.030756425E0,1.838684082E-2,2.610778809E-2,2.746582031E-3
3.035700272E0,2.478027344E-2,3.994750977E-2,9.140014648E-3
3.040674638E0,4.287719727E-2,5.059814453E-2,1.553344727E-2
3.045618485E0,6.205749512E-2,4.634094238E-2,1.766967773E-2
3.050592850E0,8.016967773E-2,-5.340576172E-4,2.938842773E-2
3.055567216E0,9.721374512E-2,-1.145172119E-1,6.986999512E-2
3.060541581E0,1.153259277E-1,-1.326293945E-1,9.117126465E-2
3.065485429E0,1.472778320E-1,-9.640502930E-2,8.370971680E-2
3.070459794E0,1.696472168E-1,-6.764221191E-2,1.273956299E-1
3.075403641E0,1.494140625E-1,-9.747314453E-2,2.882385254E-1
3.080347489E0,1.302337646E-1,-1.219635010E-1,3.383178711E-1
3.085291337E0,1.227722168E-1,-9.214782715E-2,3.489685059E-1
3.090265702E0,3.755187988E-2,-2.655029297E-3,2.765197754E-1
3.095209550E0,-1.616516113E-1,1.187744141E-1,1.859741211E-1
3.100183915E0,-3.917388916E-1,4.791259766E-3,2.275238037E-1
3.105158280E0,-5.280914307E-1,-1.475372314E-1,2.946319580E-1
3.110132645E0,-5.206451416E-1,-1.858825684E-1,3.287200928E-1
3.115076493E0,-4.300994873E-1,-1.400756836E-1,3.287200928E-1
3.120050858E0,-3.523254395E-1,-6.550598145E-2,3.542938232E-1
3.124994706E0,-2.308959961E-1,-4.420471191E-2,4.618835449E-1
3.129969071E0,-1.552581787E-1,-1.390075684E-1,6.046295166E-1
3.134912919E0,-4.908142090E-1,-3.318328857E-1,7.686767578E-1
3.139856766E0,-1.106536865E0,-2.487335205E-1,8.038330078E-1
3.144800614E0,-1.098007202E0,-3.569030762E-2,7.303314209E-1
3.149744462E0,-8.263702393E-1,-3.141784668E-2,6.759948730E-1
3.154718827E0,-7.155914307E-1,-1.059875488E-1,7.527008057E-1
3.159693192E0,-6.101226807E-1,-6.231689453E-2,8.336639404E-1
3.164637040E0,-4.332885742E-1,-9.048461914E-3,8.134155273E-1
3.169611405E0,-2.820281982E-1,-2.183532715E-2,7.431182861E-1
3.174555253E0,-2.095794678E-1,-3.723144531E-3,6.195373535E-1
3.179529618E0,-1.307525635E-1,-3.034973145E-2,4.874420166E-1
3.184473466E0,-6.364440918E-2,-1.006622314E-1,3.777313232E-1
3.189447831E0,-3.381347656E-2,-1.826934814E-1,3.020935059E-1
3.194391679E0,-3.594970703E-2,-2.370147705E-1,2.562866211E-1
3.199366044E0,-7.215881348E-2,-2.423400879E-1,2.275238037E-1
3.204309891E0,-1.019897461E-1,-2.061309814E-1,2.126159668E-1
3.209284257E0,-1.019897461E-1,-1.475372314E-1,1.838531494E-1
3.214228104E0,-7.322692871E-2,-6.977844238E-2,1.486968994E-1
3.219202470E0,-2.848815918E-2,-6.927490234E-3,1.231231689E-1
3.224146317E0,5.599975586E-3,2.397155762E-2,1.124725342E-1
3.229120683E0,9.857177734E-3,2.929687500E-2,9.756469727E-2
3.234064530E0,1.306152344E-2,2.397155762E-2,6.240844727E-2
3.239038895E0,1.518249512E-2,4.315185547E-2,6.256103516E-4
3.243982743E0,2.050781250E-2,5.487060547E-2,-6.861877441E-2
3.248957108E0,2.371215820E-2,5.805969238E-2,-8.886718750E-2
3.253900956E0,5.140686035E-2,5.699157715E-2,-3.985595703E-2
3.258875321E0,6.205749512E-2,6.871032715E-2,-2.706909180E-2
3.263819169E0,3.329467773E-2,6.977844238E-2,-4.838562012E-2
3.268793534E0,-3.062438965E-2,2.397155762E-2,-5.796813965E-2
3.273737382E0,-1.158447266E-1,-2.183532715E-2,-7.287597656E-2
3.278681229E0,-1.786956787E-1,-6.338500977E-2,-1.059112549E-1
3.283655595E0,-2.010650635E-1,-9.426879883E-2,-1.314697266E-1
3.288629960E0,-1.957397461E-1,-9.854125977E-2,-1.336059570E-1
3.293573808E0,-1.776275635E-1,-7.510375977E-2,-1.176300049E-1
3.298548173E0,-1.488647461E-1,-4.101562500E-2,-1.048431396E-1
3.303492020E0,-1.169128418E-1,-1.225280762E-2,-1.059112549E-1
3.308466386E0,-9.452819824E-2,-5.859375000E-3,-1.144256592E-1
3.313410233E0,-7.536315918E-2,-9.048461914E-3,-1.794128418E-1
3.318384599E0,-5.299377441E-2,2.078247070E-2,-3.338775635E-1
3.323328446E0,-2.955627441E-2,1.438903809E-2,-4.127044678E-1
3.328302811E0,1.092529297E-2,-7.980346680E-3,-4.585113525E-1
3.333246659E0,5.033874512E-2,-4.791259766E-3,-4.734191895E-1
3.338221024E0,3.543090820E-2,2.929687500E-2,-5.810089111E-1
3.343164872E0,-7.186889648E-3,6.445312500E-2,-7.045898438E-1
3.348139237E0,-5.831909180E-2,1.283721924E-1,-7.610473633E-1
3.353083085E0,-1.030578613E-1,1.901550293E-1,-7.716979980E-1
3.358057450E0,-1.094512939E-1,2.753753662E-1,-7.631683350E-1
3.363031815E0,-7.643127441E-2,3.787078857E-1,-7.407989502E-1
3.367975663E0,-6.683349609E-2,3.701782227E-1,-7.099151611E-1
3.372950028E0,-7.536315918E-2,3.052062988E-1,-6.790161133E-1
3.377893876E0,-8.815002441E-2,2.327575684E-1,-6.364135742E-1
3.382837724E0,-9.027099609E-2,1.890869141E-1,-5.895385742E-1
3.387812089E0,-8.068847656E-2,1.603240967E-1,-5.543823242E-1
3.392755936E0,-7.110595703E-2,1.336975098E-1,-5.426635742E-1
3.397699784E0,-4.553222656E-2,1.251678467E-1,-5.703582764E-1
3.402674149E0,1.518249512E-2,9.960937500E-2,-5.831451416E-1
3.407648515E0,8.763122559E-2,5.699157715E-2,-5.447998047E-1
3.412592362E0,1.313018799E-1,3.462219238E-2,-4.734191895E-1
3.417536210E0,1.611328125E-1,4.791259766E-3,-4.095001221E-1
3.422510575E0,1.984100342E-1,-4.420471191E-2,-3.551788330E-1
3.427484940E0,2.239837646E-1,-7.189941406E-2,-2.997894287E-1
3.432428788E0,2.420959473E-1,-8.255004883E-2,-2.593078613E-1
3.437403153E0,2.527465820E-1,-6.977844238E-2,-2.529144287E-1
3.442347001E0,2.633972168E-1,-1.651000977E-2,-2.614288330E-1
3.447290849E0,2.783050537E-1,2.397155762E-2,-2.230834961E-1
3.452265214E0,2.889556885E-1,4.315185547E-2,-1.133575439E-1
3.457239579E0,3.155975342E-1,5.592346191E-2,-3.666687012E-2
3.462183427E0,3.081359863E-1,6.231689453E-2,-5.903625488E-2
3.467157792E0,2.250518799E-1,2.503967285E-2,-5.050659180E-2
3.472101640E0,1.089324951E-1,-2.502441406E-2,-1.429748535E-2
3.477076005E0,7.736206055E-3,-4.101562500E-2,2.746582031E-3
3.482019852E0,-6.364440918E-2,-2.929687500E-2,1.660156250E-2
3.486994218E0,-1.094512939E-1,-2.502441406E-2,2.618408203E-2
3.491938065E0,-1.328887939E-1,-2.076721191E-2,2.832031250E-2
3.496881913E0,-1.371459961E-1,-1.011657715E-2,2.938842773E-2
3.501856278E0,-1.339569092E-1,5.340576172E-4,2.938842773E-2
3.506830643E0,-1.371459961E-1,2.670288086E-3,2.618408203E-2
3.511774491E0,-1.403350830E-1,6.927490234E-3,2.192687988E-2
3.516718339E0,-1.392822266E-1,1.332092285E-2,1.873779297E-2
3.521692704E0,-1.307525635E-1,1.651000977E-2,1.873779297E-2
3.526667069E0,-1.094512939E-1,7.995605469E-3,1.660156250E-2
3.531610917E0,-7.748413086E-2,-4.791259766E-3,5.950927734E-3
3.536585282E0,-3.701782227E-2,-2.290344238E-2,-1.510620117E-3
3.541529130E0,-7.934570312E-4,-4.420471191E-2,-5.767822266E-3
3.546503495E0,2.478027344E-2,-6.657409668E-2,-7.904052734E-3
3.551447343E0,4.287719727E-2,-8.787536621E-2,-5.767822266E-3
3.556421708E0,5.673217773E-2,-1.059875488E-1,-3.631591797E-3
3.561365556E0,6.419372559E-2,-1.187744141E-1,6.256103516E-4
3.566339921E0,7.270812988E-2,-1.198425293E-1,1.020812988E-2
3.571283768E0,7.803344727E-2,-1.326293945E-1,1.766967773E-2
3.576258134E0,8.123779297E-2,-1.475372314E-1,1.660156250E-2
3.581201981E0,8.335876465E-2,-1.539306641E-1,1.127624512E-2
3.586176347E0,8.230590820E-2,-1.720428467E-1,1.341247559E-2
3.591150712E0,8.442687988E-2,-1.986694336E-1,2.725219727E-2
3.596094559E0,9.614562988E-2,-1.912078857E-1,2.406311035E-2
3.601038407E0,1.057281494E-1,-1.624450684E-1,1.979064941E-2
3.605982255E0,1.121215820E-1,-1.539306641E-1,5.708312988E-2
3.610956620E0,1.451568604E-1,-2.008056641E-1,1.955718994E-1
3.615930985E0,1.366271973E-1,-2.881469727E-1,2.711944580E-1
3.620874833E0,1.408843994E-1,-2.881469727E-1,1.668090820E-1
3.625818681E0,1.558074951E-1,-2.061309814E-1,-3.985595703E-2
3.630793046E0,9.082031250E-2,-2.157135010E-1,-8.972167969E-3
3.635736893E0,1.199340820E-2,-3.073272705E-1,1.241912842E-1
3.640680741E0,-7.186889648E-3,-3.382110596E-1,1.945037842E-1
3.645655106E0,1.625061035E-2,-2.987976074E-1,1.795806885E-1
3.650598954E0,5.033874512E-2,-2.295684814E-1,1.508178711E-1
3.655573319E0,7.270812988E-2,-1.869506836E-1,1.518859863E-1
3.660517167E0,8.335876465E-2,-1.730957031E-1,1.604156494E-1
3.665491532E0,1.036071777E-1,-1.869506836E-1,1.625366211E-1
3.670465897E0,1.078643799E-1,-1.965332031E-1,1.582794189E-1
3.675409745E0,1.313018799E-1,-2.423400879E-1,1.337738037E-1
3.680384110E0,1.589965820E-1,-3.073272705E-1,8.903503418E-2
3.685327958E0,1.419525146E-1,-3.563232422E-1,5.494689941E-2
3.690302323E0,1.100006104E-1,-3.925476074E-1,3.683471680E-2
3.695246171E0,7.377624512E-2,-3.989410400E-1,4.003906250E-2
3.700220536E0,3.436279297E-2,-3.691101074E-1,6.027221680E-2
3.705164384E0,3.329467773E-2,-2.913513184E-1,8.370971680E-2
3.710138749E0,5.140686035E-2,-2.327575684E-1,5.708312988E-2
3.715113114E0,1.412963867E-2,-2.178497314E-1,4.322814941E-2
3.720056962E0,-4.127502441E-2,-2.071838379E-1,4.750061035E-2
3.725000809E0,-8.068847656E-2,-1.730957031E-1,4.643249512E-2
3.729975175E0,-1.019897461E-1,-1.368865967E-1,4.216003418E-2
3.734919022E0,-1.147766113E-1,-1.102447510E-1,3.364562988E-2
3.739893388E0,-1.201019287E-1,-9.854125977E-2,2.406311035E-2
3.744837235E0,-1.137084961E-1,-8.787536621E-2,1.446533203E-2
3.749811600E0,-1.062469482E-1,-8.575439453E-2,1.020812988E-2
3.754755448E0,-1.009216309E-1,-8.894348145E-2,1.341247559E-2
3.759699296E0,-9.773254395E-2,-9.320068359E-2,1.873779297E-2
3.764673661E0,-9.240722656E-2,-9.747314453E-2,2.192687988E-2
3.769648026E0,-8.280944824E-2,-9.959411621E-2,2.085876465E-2
3.774591874E0,-6.790161133E-2,-1.006622314E-1,2.299499512E-2
3.779535722E0,-4.339599609E-2,-9.320068359E-2,2.511596680E-2
3.784510087E0,-2.102661133E-2,-8.468627930E-2,2.299499512E-2
3.789484452E0,-1.037597656E-2,-7.936096191E-2,2.085876465E-2
3.794428300E0,-1.861572266E-3,-6.977844238E-2,2.085876465E-2
3.799372147E0,3.463745117E-3,-6.018066406E-2,1.873779297E-2
3.804346513E0,1.199340820E-2,-5.166625977E-2,1.553344727E-2
3.809320878E0,2.050781250E-2,-4.527282715E-2,1.341247559E-2
3.814264725E0,2.050781250E-2,-4.953002930E-2,1.020812988E-2
3.819239091E0,2.050781250E-2,-5.059814453E-2,7.019042969E-3
3.824182938E0,2.050781250E-2,-5.378723145E-2,5.950927734E-3
3.829157304E0,1.412963867E-2,-5.699157715E-2,4.882812500E-3
3.834101151E0,7.736206055E-3,-6.231689453E-2,4.882812500E-3
3.839075516E0,2.410888672E-3,-6.977844238E-2,5.950927734E-3
3.844019364E0,-1.861572266E-3,-8.682250977E-2,1.127624512E-2
3.848963212E0,1.731872559E-2,-1.390075684E-1,4.855346680E-2
3.853937577E0,3.649902344E-2,-2.103881836E-1,1.390991211E-1
3.858881425E0,1.518249512E-2,-2.721710205E-1,1.359100342E-1
3.863855790E0,1.092529297E-2,-2.924194336E-1,1.241912842E-1
3.868830155E0,1.945495605E-2,-2.966766357E-1,1.433715820E-1
3.873774003E0,2.371215820E-2,-2.987976074E-1,1.827850342E-1
3.878748368E0,1.625061035E-2,-3.009338379E-1,2.030181885E-1
3.883692216E0,-2.929687500E-3,-2.817535400E-1,1.678619385E-1
3.888666581E0,-1.358032227E-2,-2.402191162E-1,1.124725342E-1
3.893610429E0,-1.037597656E-2,-1.858825684E-1,3.364562988E-2
3.898584794E0,2.410888672E-3,-1.624450684E-1,-4.699707031E-3
3.903528641E0,8.789062500E-3,-1.613769531E-1,-1.641845703E-2
3.908503007E0,3.463745117E-3,-1.486053467E-1,-1.535034180E-2
3.913446854E0,8.789062500E-3,-1.240997314E-1,-1.109313965E-2
3.918421220E0,1.092529297E-2,-1.027984619E-1,-7.904052734E-3
3.923365067E0,4.531860352E-3,-1.102447510E-1,-1.510620117E-3
3.928339433E0,-7.186889648E-3,-1.070556641E-1,-1.002502441E-2
3.933283280E0,-1.144409180E-2,-8.575439453E-2,-1.641845703E-2
3.938257645E0,-8.255004883E-3,-5.273437500E-2,-2.069091797E-2
3.943201493E0,-6.118774414E-3,-3.462219238E-2,-2.601623535E-2
3.948175858E0,-2.929687500E-3,-2.822875977E-2,-2.174377441E-2
3.953119706E0,-2.929687500E-3,-2.822875977E-2,-1.748657227E-2
3.958094071E0,-2.929687500E-3,-3.462219238E-2,-1.641845703E-2
3.963037919E0,-3.982543945E-3,-4.101562500E-2,-1.535034180E-2
3.968012284E0,-3.982543945E-3,-4.953002930E-2,-1.748657227E-2
3.972956132E0,1.342773438E-3,-6.977844238E-2,-1.748657227E-2
3.977930497E0,7.736206055E-3,-7.189941406E-2,-1.002502441E-2
3.982874345E0,-6.118774414E-3,-6.018066406E-2,-1.641845703E-2
3.987848710E0,-1.358032227E-2,-6.231689453E-2,-2.174377441E-2
3.992792558E0,-1.358032227E-2,-5.911254883E-2,-2.281188965E-2
3.997736405E0,-1.783752441E-2,-4.420471191E-2,-2.494812012E-2
4.002710770E0,-1.997375488E-2,-3.355407715E-2,-2.920532227E-2
4.007685136E0,-1.144409180E-2,-2.929687500E-2,-2.494812012E-2
4.012628983E0,-7.186889648E-3,-3.141784668E-2,-1.962280273E-2
4.017572831E0,-7.934570312E-4,-4.206848145E-2,-1.641845703E-2
4.022547196E0,7.736206055E-3,-4.846191406E-2,-1.002502441E-2
4.027521561E0,8.789062500E-3,-4.634094238E-2,-1.109313965E-2
4.032465409E0,7.736206055E-3,-3.569030762E-2,-1.002502441E-2
4.037439774E0,6.668090820E-3,-2.502441406E-2,-1.216125488E-2
4.042383622E0,3.463745117E-3,-1.651000977E-2,-1.748657227E-2
4.047357987E0,3.463745117E-3,-2.397155762E-2,-1.535034180E-2
4.052301835E0,2.410888672E-3,-2.076721191E-2,-5.767822266E-3
4.057276200E0,-1.251220703E-2,-1.602172852E-3,-1.535034180E-2
4.062220048E0,-1.783752441E-2,-5.340576172E-4,-1.429748535E-2
4.067194413E0,-1.997375488E-2,1.011657715E-2,-1.109313965E-2
4.072138261E0,-2.529907227E-2,2.078247070E-2,-1.429748535E-2
4.077112626E0,-2.209472656E-2,2.290344238E-2,-1.641845703E-2
4.082056474E0,-1.570129395E-2,1.225280762E-2,-4.699707031E-3
4.087030839E0,-1.144409180E-2,4.791259766E-3,2.746582031E-3
4.091974686E0,7.736206055E-3,-1.437377930E-2,8.071899414E-3
4.096918534E0,3.010559082E-2,-6.764221191E-2,7.305908203E-2
4.101892899E0,3.543090820E-2,-1.326293945E-1,1.241912842E-1
4.106836747E0,7.058715820E-2,-1.635131836E-1,4.750061035E-2
4.111811112E0,9.934997559E-2,-2.764282227E-1,-6.648254395E-2
4.116754960E0,6.951904297E-2,-3.722991943E-1,-9.524536133E-2
4.121698808E0,3.436279297E-2,-4.064025879E-1,-8.140563965E-2
4.126703690E0,8.789062500E-3,-3.701782227E-1,-4.624938965E-2
4.131647538E0,1.092529297E-2,-3.169097900E-1,-2.069091797E-2
4.136621903E0,2.478027344E-2,-2.711029053E-1,-6.968688965E-2
4.141565751E0,6.631469727E-2,-1.912078857E-1,-1.623687744E-1
4.146540116E0,1.313018799E-1,-1.209106445E-1,-1.783447266E-1
4.151483964E0,1.600646973E-1,-5.485534668E-2,-1.165618896E-1
4.156458329E0,1.685791016E-1,7.995605469E-3,-3.773498535E-2
4.161402177E0,1.835021973E-1,-4.791259766E-3,-2.920532227E-2
4.166376542E0,1.824340820E-1,-6.124877930E-2,-4.199218750E-2
4.171320390E0,1.568603516E-1,-1.091918945E-1,-2.813720703E-2
4.176294755E0,1.206512451E-1,-1.272888184E-1,-2.069091797E-2
4.181238602E0,7.803344727E-2,-1.390075684E-1,-2.601623535E-2
4.186212968E0,3.010559082E-2,-1.411437988E-1,-2.069091797E-2
4.191156815E0,-5.511474609E-2,-1.113128662E-1,-1.962280273E-2
4.196131181E0,-1.328887939E-1,-8.042907715E-2,-2.813720703E-2
4.201075028E0,-1.936035156E-1,-3.887939453E-2,-2.920532227E-2
4.206018876E0,-2.372741699E-1,5.340576172E-4,-3.027343750E-2
4.210962724E0,-2.436676025E-1,2.183532715E-2,-2.813720703E-2
4.215937089E0,-2.308959961E-1,1.971435547E-2,-2.388000488E-2
4.220880936E0,-2.127838135E-1,2.610778809E-2,-1.962280273E-2
4.225855302E0,-1.893463135E-1,2.929687500E-2,-1.429748535E-2
4.230829667E0,-1.573791504E-1,3.250122070E-2,-1.641845703E-2
4.235773515E0,-1.286163330E-1,2.503967285E-2,-2.174377441E-2
4.240717362E0,-1.030578613E-1,1.438903809E-2,-2.281188965E-2
4.245691727E0,-8.387756348E-2,6.927490234E-3,-2.601623535E-2
4.250666093E0,-6.364440918E-2,-1.602172852E-3,-3.027343750E-2
4.255609940E0,-4.234313965E-2,-9.048461914E-3,-3.134155273E-2
4.260553788E0,-2.209472656E-2,-1.651000977E-2,-3.134155273E-2
4.265528153E0,-1.861572266E-3,-1.437377930E-2,-3.239440918E-2
4.270502518E0,1.838684082E-2,-5.859375000E-3,-3.239440918E-2
4.275446366E0,2.583312988E-2,1.602172852E-3,-3.134155273E-2
4.280420731E0,3.117370605E-2,1.011657715E-2,-3.134155273E-2
4.285364579E0,3.543090820E-2,1.438903809E-2,-2.494812012E-2
4.290338944E0,4.608154297E-2,1.438903809E-2,-2.494812012E-2
4.295282792E0,6.312561035E-2,1.545715332E-2,-2.174377441E-2
4.300257157E0,6.738281250E-2,1.438903809E-2,-1.535034180E-2
4.305201005E0,6.738281250E-2,1.545715332E-2,-1.216125488E-2
4.310175370E0,6.631469727E-2,2.183532715E-2,-6.835937500E-3
4.315119218E0,6.205749512E-2,3.143310547E-2,-4.699707031E-3
4.320093583E0,6.205749512E-2,3.462219238E-2,-5.767822266E-3
4.325037431E0,6.205749512E-2,2.610778809E-2,-5.767822266E-3
4.330011796E0,5.992126465E-2,1.651000977E-2,-4.699707031E-3
4.334955643E0,6.098937988E-2,1.118469238E-2,-2.578735352E-3
4.339899491E0,6.738281250E-2,5.859375000E-3,6.256103516E-4
4.344873856E0,7.377624512E-2,-5.340576172E-4,6.256103516E-4
4.349848222E0,8.123779297E-2,-4.791259766E-3,1.693725586E-3
4.354792069E0,9.082031250E-2,-5.340576172E-4,1.693725586E-3
4.359766434E0,9.828186035E-2,5.859375000E-3,-1.510620117E-3
4.364710282E0,1.025390625E-1,1.118469238E-2,-3.631591797E-3
4.369684647E0,1.014709473E-1,1.757812500E-2,-2.578735352E-3
4.374628495E0,9.934997559E-2,2.610778809E-2,-2.578735352E-3
4.379602860E0,9.507751465E-2,3.782653809E-2,-4.699707031E-3
4.384546708E0,8.656311035E-2,4.847717285E-2,-7.904052734E-3
4.389521073E0,7.696533203E-2,6.124877930E-2,-1.109313965E-2
4.394464921E0,6.845092773E-2,7.510375977E-2,-1.322937012E-2
4.399439286E0,6.526184082E-2,8.042907715E-2,-1.216125488E-2
4.404383134E0,6.951904297E-2,8.256530762E-2,-1.216125488E-2
4.409357499E0,7.696533203E-2,7.510375977E-2,-1.322937012E-2
4.414301347E0,8.442687988E-2,7.084655762E-2,-1.429748535E-2
4.419275712E0,8.868408203E-2,6.977844238E-2,-1.216125488E-2
4.424219559E0,8.975219727E-2,6.658935547E-2,-1.109313965E-2
4.429193925E0,8.549499512E-2,6.445312500E-2,-6.835937500E-3
4.434137772E0,7.058715820E-2,6.231689453E-2,-2.578735352E-3
4.439112138E0,5.566406250E-2,6.871032715E-2,-1.510620117E-3
4.444055985E0,5.140686035E-2,7.510375977E-2,2.746582031E-3
4.449030350E0,5.140686035E-2,7.191467285E-2,-2.578735352E-3
4.454004716E0,5.247497559E-2,5.805969238E-2,2.746582031E-3
4.458948563E0,5.673217773E-2,5.487060547E-2,7.019042969E-3
4.463892411E0,5.459594727E-2,5.059814453E-2,2.746582031E-3
4.468836259E0,4.714965820E-2,3.994750977E-2,1.693725586E-3
4.473810624E0,3.968811035E-2,3.036499023E-2,1.693725586E-3
4.478754472E0,3.222656250E-2,2.716064453E-2,6.256103516E-4
4.483728837E0,2.583312988E-2,1.971435547E-2,-1.510620117E-3
4.488703202E0,2.157592773E-2,1.545715332E-2,-4.699707031E-3
4.493647050E0,1.518249512E-2,1.864624023E-2,-6.835937500E-3
4.498621415E0,6.668090820E-3,1.118469238E-2,-2.578735352E-3
4.503565263E0,-7.934570312E-4,3.738403320E-3,1.693725586E-3
4.508539628E0,-8.255004883E-3,-9.048461914E-3,-3.631591797E-3
4.513483475E0,-1.144409180E-2,-1.602172852E-3,9.140014648E-3
4.518457841E0,1.342773438E-3,2.397155762E-2,2.511596680E-2
4.523401688E0,1.625061035E-2,1.651000977E-2,1.446533203E-2
4.528376054E0,1.518249512E-2,2.610778809E-2,-1.510620117E-3
4.533319901E0,1.625061035E-2,3.569030762E-2,-4.425048828E-4
4.538294266E0,2.371215820E-2,4.101562500E-2,-2.578735352E-3
4.543238114E0,3.222656250E-2,4.420471191E-2,-8.972167969E-3
4.548212479E0,3.436279297E-2,4.420471191E-2,-1.429748535E-2
4.553156327E0,3.117370605E-2,4.208374023E-2,-1.855468750E-2
4.558130692E0,2.690124512E-2,4.420471191E-2,-2.601623535E-2
4.563074540E0,1.945495605E-2,4.527282715E-2,-3.346252441E-2
4.568048905E0,9.857177734E-3,5.166625977E-2,-3.027343750E-2
4.572992753E0,2.746582031E-4,5.059814453E-2,-2.388000488E-2
4.577967118E0,-1.861572266E-3,1.118469238E-2,-1.429748535E-2
4.582910966E0,-1.144409180E-2,4.101562500E-2,-4.092407227E-2
4.587885331E0,-2.848815918E-2,9.214782715E-2,-3.773498535E-2
4.592829179E0,-2.635192871E-2,9.960937500E-2,-4.411315918E-2
4.597803544E0,-3.062438965E-2,1.006774902E-1,-5.477905273E-2
4.602747391E0,-3.701782227E-2,1.081237793E-1,-5.264282227E-2
4.607721757E0,-3.913879395E-2,1.166534424E-1,-5.371093750E-2
4.612665604E0,-4.339599609E-2,1.145172119E-1,-5.477905273E-2
4.617609452E0,-4.872131348E-2,1.006774902E-1,-5.371093750E-2
4.622553300E0,-5.085754395E-2,9.428405762E-2,-4.943847656E-2
4.627558183E0,-5.511474609E-2,9.533691406E-2,-4.624938965E-2
4.632502030E0,-5.511474609E-2,9.428405762E-2,-4.306030273E-2
4.637476395E0,-5.406188965E-2,9.747314453E-2,-4.199218750E-2
4.642420243E0,-5.406188965E-2,1.060028076E-1,-3.878784180E-2
4.647394608E0,-5.299377441E-2,1.145172119E-1,-3.666687012E-2
4.652338456E0,-5.299377441E-2,1.166534424E-1,-3.985595703E-2
4.657312821E0,-5.085754395E-2,1.155853271E-1,-4.199218750E-2
4.662256669E0,-4.872131348E-2,1.145172119E-1,-3.985595703E-2
4.667200516E0,-4.978942871E-2,1.177215576E-1,-3.878784180E-2
4.672174882E0,-5.192565918E-2,1.177215576E-1,-3.346252441E-2
4.677118729E0,-5.299377441E-2,1.240997314E-1,-3.134155273E-2
4.682093095E0,-5.085754395E-2,1.358184814E-1,-2.601623535E-2
4.687067460E0,-4.872131348E-2,1.518096924E-1,-2.494812012E-2
4.692011308E0,-4.234313965E-2,1.688537598E-1,-2.706909180E-2
4.696985673E0,-2.529907227E-2,1.784362793E-1,-2.813720703E-2
4.701929520E0,-7.186889648E-3,1.826934814E-1,-3.453063965E-2
4.706903886E0,7.736206055E-3,1.656494141E-1,-3.773498535E-2
4.711847733E0,1.838684082E-2,1.411437988E-1,-3.773498535E-2
4.716791581E0,2.583312988E-2,1.294403076E-1,-3.878784180E-2
4.721765946E0,2.690124512E-2,1.123962402E-1,-5.157470703E-2
4.726709794E0,3.010559082E-2,8.363342285E-2,-6.010437012E-2
4.731653641E0,3.543090820E-2,6.764221191E-2,-8.459472656E-2
4.736658524E0,4.182434082E-2,6.338500977E-2,-1.346740723E-1
4.741602372E0,3.329467773E-2,1.864624023E-2,-7.501220703E-2
4.746576737E0,3.117370605E-2,4.791259766E-3,-7.714843750E-2
4.751520585E0,4.075622559E-2,-3.034973145E-2,-2.209472656E-1
4.756494950E0,1.838684082E-2,-8.787536621E-2,-2.603607178E-1
4.761438798E0,-1.890563965E-2,-7.083129883E-2,-1.911315918E-1
4.766413163E0,-2.742004395E-2,3.738403320E-3,-1.122894287E-1
4.771357011E0,-3.982543945E-3,3.355407715E-2,-4.518127441E-2
4.776331376E0,1.306152344E-2,3.355407715E-2,-3.239440918E-2
4.781275224E0,1.199340820E-2,1.971435547E-2,-3.239440918E-2
4.786249589E0,1.518249512E-2,1.011657715E-2,-2.174377441E-2
4.791193436E0,1.518249512E-2,1.757812500E-2,-1.109313965E-2
4.796137284E0,5.599975586E-3,3.143310547E-2,-1.002502441E-2
4.801111649E0,-5.050659180E-3,3.887939453E-2,-7.904052734E-3
4.806055497E0,-1.783752441E-2,4.315185547E-2,-3.631591797E-3
4.811029862E0,-2.848815918E-2,4.208374023E-2,2.746582031E-3
4.816004227E0,-3.807067871E-2,4.420471191E-2,1.693725586E-3
4.820948075E0,-4.872131348E-2,3.782653809E-2,3.814697266E-3
4.825891923E0,-5.618286133E-2,4.101562500E-2,4.882812500E-3
4.830835770E0,-5.831909180E-2,5.059814453E-2,-1.510620117E-3
4.835810136E0,-5.831909180E-2,6.231689453E-2,-5.767822266E-3
4.840753983E0,-5.406188965E-2,7.084655762E-2,-1.322937012E-2
4.845728349E0,-4.978942871E-2,6.764221191E-2,-1.535034180E-2
4.850702714E0,-4.766845703E-2,6.124877930E-2,-1.641845703E-2
4.855646561E0,-4.446411133E-2,6.019592285E-2,-1.641845703E-2
4.860620927E0,-4.127502441E-2,6.871032715E-2,-1.748657227E-2
4.865564774E0,-4.020690918E-2,6.764221191E-2,-2.069091797E-2
4.870539140E0,-3.594970703E-2,5.912780762E-2,-2.174377441E-2
4.875482987E0,-3.167724609E-2,4.634094238E-2,-2.174377441E-2
4.880426835E0,-2.742004395E-2,2.822875977E-2,-1.855468750E-2
4.885401200E0,-2.742004395E-2,1.118469238E-2,-1.216125488E-2
4.890375565E0,-2.742004395E-2,-1.602172852E-3,-7.904052734E-3
4.895319413E0,-2.529907227E-2,-6.927490234E-3,-7.904052734E-3
4.900293778E0,-2.529907227E-2,-1.330566406E-2,-6.835937500E-3
4.905237626E0,-2.102661133E-2,-1.969909668E-2,-3.631591797E-3
4.910181474E0,-1.463317871E-2,-1.544189453E-2,-4.425048828E-4
4.915155839E0,-6.118774414E-3,-6.927490234E-3,8.071899414E-3
4.920130204E0,3.463745117E-3,1.602172852E-3,1.446533203E-2
4.925074052E0,1.306152344E-2,1.971435547E-2,1.660156250E-2
4.930048417E0,2.690124512E-2,4.101562500E-2,1.446533203E-2
4.934992265E0,3.755187988E-2,5.592346191E-2,1.127624512E-2
4.939936112E0,4.394531250E-2,6.338500977E-2,3.814697266E-3
4.944910477E0,4.501342773E-2,6.124877930E-2,2.746582031E-3
4.949854325E0,4.501342773E-2,5.699157715E-2,1.693725586E-3
4.954828690E0,4.608154297E-2,5.592346191E-2,3.814697266E-3
4.959803056E0,3.861999512E-2,5.380249023E-2,3.814697266E-3
4.964746903E0,3.649902344E-2,4.847717285E-2,9.140014648E-3
4.969690751E0,3.543090820E-2,3.355407715E-2,1.234436035E-2
4.974665116E0,3.755187988E-2,1.545715332E-2,1.341247559E-2
4.979608964E0,4.608154297E-2,-1.330566406E-2,-3.631591797E-3
4.984583329E0,4.075622559E-2,-3.569030762E-2,-5.690002441E-2
4.989527177E0,6.526184082E-2,-9.214782715E-2,-1.357269287E-1
4.994501542E0,1.142578125E-1,-2.285003662E-1,-1.868591309E-1
4.999475907E0,1.430206299E-1,-2.647094727E-1,-8.033752441E-2
5.004419755E0,6.526184082E-2,-2.636566162E-1,-8.033752441E-2
5.009394120E0,3.329467773E-2,-1.837615967E-1,-1.410522461E-1
5.014337968E0,7.377624512E-2,-9.214782715E-2,-1.762084961E-1
5.019281815E0,1.291656494E-1,-3.994750977E-2,-1.751403809E-1
5.024256181E0,1.558074951E-1,2.670288086E-3,-1.623687744E-1
5.029230546E0,1.589965820E-1,3.355407715E-2,-1.463775635E-1
5.034174393E0,1.472778320E-1,6.977844238E-2,-1.197509766E-1
5.039148759E0,1.238403320E-1,1.060028076E-1,-5.796813965E-2
5.044092606E0,1.089324951E-1,1.102600098E-1,-3.631591797E-3
5.049036454E0,8.975219727E-2,9.107971191E-2,-1.216125488E-2
5.054010819E0,4.927062988E-2,5.380249023E-2,-1.641845703E-2
5.058954667E0,-7.934570312E-4,3.355407715E-2,-6.835937500E-3
5.063929032E0,-4.339599609E-2,2.610778809E-2,-4.425048828E-4
5.068872880E0,-8.280944824E-2,1.651000977E-2,1.693725586E-3
5.073847245E0,-1.105194092E-1,1.118469238E-2,7.019042969E-3
5.078791093E0,-1.243591309E-1,1.651000977E-2,1.446533203E-2
5.083765458E0,-1.296844482E-1,2.397155762E-2,1.553344727E-2
5.088709306E0,-1.296844482E-1,2.610778809E-2,1.660156250E-2
5.093683671E0,-1.232910156E-1,3.250122070E-2,1.766967773E-2
5.098658036E0,-1.147766113E-1,3.355407715E-2,1.553344727E-2
5.103601884E0,-1.030578613E-1,2.822875977E-2,1.446533203E-2
5.108576249E0,-9.880065918E-2,2.183532715E-2,1.766967773E-2
5.113520097E0,-9.133911133E-2,1.438903809E-2,1.660156250E-2
5.118494462E0,-8.175659180E-2,2.670288086E-3,1.660156250E-2
5.123438309E0,-7.110595703E-2,-5.859375000E-3,2.085876465E-2
5.128412675E0,-5.725097656E-2,-1.651000977E-2,2.192687988E-2
5.133356522E0,-4.553222656E-2,-2.822875977E-2,2.299499512E-2
5.138330888E0,-4.234313965E-2,-3.462219238E-2,2.618408203E-2
5.143274735E0,-3.488159180E-2,-4.101562500E-2,2.406311035E-2
5.148249100E0,-2.316284180E-2,-4.527282715E-2,2.299499512E-2
5.153192948E0,-1.676940918E-2,-5.166625977E-2,1.979064941E-2
5.158167313E0,-1.037597656E-2,-5.592346191E-2,1.766967773E-2
5.163111161E0,-1.861572266E-3,-5.378723145E-2,1.553344727E-2
5.168055009E0,3.463745117E-3,-4.634094238E-2,1.341247559E-2
5.173029374E0,8.789062500E-3,-3.141784668E-2,7.019042969E-3
5.178003739E0,1.412963867E-2,-6.927490234E-3,1.693725586E-3
5.182947587E0,2.157592773E-2,2.397155762E-2,-6.835937500E-3
5.187891434E0,2.478027344E-2,4.634094238E-2,-1.322937012E-2
5.192865800E0,2.583312988E-2,6.871032715E-2,-1.962280273E-2
5.197809647E0,3.117370605E-2,8.682250977E-2,-2.388000488E-2
5.202753495E0,3.436279297E-2,1.070556641E-1,-3.134155273E-2
5.207727860E0,3.649902344E-2,1.336975098E-1,-3.453063965E-2
5.212671708E0,3.861999512E-2,1.667175293E-1,-3.453063965E-2
5.217676591E0,3.861999512E-2,2.061309814E-1,-3.666687012E-2
5.222620438E0,3.543090820E-2,2.455444336E-1,-4.092407227E-2
5.227594804E0,2.903747559E-2,2.828369141E-1,-4.199218750E-2
5.232538651E0,2.690124512E-2,2.998809814E-1,-4.411315918E-2
5.237513016E0,-1.997375488E-2,1.475372314E-1,-1.748657227E-2
5.242456864E0,-1.030578613E-1,-1.059875488E-1,2.085876465E-2
5.247400712E0,-1.009216309E-1,-1.358184814E-1,2.511596680E-2
5.252375077E0,-4.660034180E-2,-6.124877930E-2,2.192687988E-2
5.257349442E0,-7.934570312E-4,-1.864624023E-2,9.140014648E-3
5.262293290E0,2.796936035E-2,-5.340576172E-4,-3.027343750E-2
5.267237138E0,4.608154297E-2,1.091918945E-1,-4.943847656E-2
5.272211503E0,5.140686035E-2,1.496734619E-1,-8.459472656E-2
5.277155350E0,6.738281250E-2,7.936096191E-2,-1.154937744E-1
5.282129716E0,5.886840820E-2,1.864624023E-2,-1.069641113E-1
5.287104081E0,5.140686035E-2,-4.206848145E-2,-9.844970703E-2
5.292047929E0,4.287719727E-2,-6.657409668E-2,-9.844970703E-2
5.297022294E0,2.157592773E-2,-3.141784668E-2,-9.205627441E-2
5.301966141E0,-6.576538086E-2,1.358184814E-1,-5.796813965E-2
5.306940507E0,-1.520538330E-1,1.965484619E-1,-8.972167969E-3
5.311884354E0,-3.821563721E-1,1.773681641E-1,1.020812988E-2
5.316828202E0,-4.950714111E-1,1.752319336E-1,1.553344727E-2
5.321772050E0,-3.470001221E-1,1.134490967E-1,2.299499512E-2
5.326776933E0,-1.648406982E-1,7.084655762E-2,1.553344727E-2
5.331720780E0,-5.192565918E-2,5.166625977E-2,2.746582031E-3
5.336695145E0,7.736206055E-3,3.355407715E-2,-3.631591797E-3
5.341638993E0,2.371215820E-2,1.757812500E-2,-5.767822266E-3
5.346613358E0,1.731872559E-2,6.927490234E-3,-7.904052734E-3
5.351557206E0,8.789062500E-3,9.063720703E-3,-7.904052734E-3
5.356531571E0,1.342773438E-3,1.971435547E-2,-8.972167969E-3
5.361475419E0,-3.982543945E-3,3.355407715E-2,-8.972167969E-3
5.366449784E0,-9.307861328E-3,4.315185547E-2,-7.904052734E-3
5.371393632E0,-9.307861328E-3,4.634094238E-2,-5.767822266E-3
5.376337479E0,-8.255004883E-3,4.315185547E-2,-2.578735352E-3
5.381281327E0,-2.929687500E-3,3.569030762E-2,-4.425048828E-4
5.386255692E0,3.463745117E-3,2.929687500E-2,2.746582031E-3
5.391199540E0,7.736206055E-3,2.503967285E-2,4.882812500E-3
5.396204423E0,9.857177734E-3,2.078247070E-2,3.814697266E-3
5.401148270E0,1.092529297E-2,1.971435547E-2,4.882812500E-3
5.406092118E0,1.092529297E-2,2.290344238E-2,4.882812500E-3
5.411066483E0,1.092529297E-2,2.503967285E-2,3.814697266E-3
5.416040849E0,1.625061035E-2,2.822875977E-2,2.746582031E-3
5.420984696E0,1.625061035E-2,3.250122070E-2,1.693725586E-3
5.425928544E0,1.838684082E-2,3.462219238E-2,-1.510620117E-3
5.430872391E0,1.838684082E-2,3.462219238E-2,3.814697266E-3
5.435846757E0,1.625061035E-2,3.250122070E-2,2.746582031E-3
5.440821122E0,1.306152344E-2,3.462219238E-2,2.746582031E-3
5.445764970E0,9.857177734E-3,3.675842285E-2,3.814697266E-3
5.450708817E0,8.789062500E-3,3.782653809E-2,7.019042969E-3
5.455683183E0,6.668090820E-3,3.782653809E-2,5.950927734E-3
5.460627030E0,3.463745117E-3,3.675842285E-2,8.071899414E-3
5.465601395E0,3.463745117E-3,3.675842285E-2,1.020812988E-2
5.470575761E0,3.463745117E-3,4.101562500E-2,1.341247559E-2
5.475519608E0,4.531860352E-3,4.527282715E-2,1.553344727E-2
5.480463456E0,5.599975586E-3,4.954528809E-2,1.446533203E-2
5.485437821E0,8.789062500E-3,5.166625977E-2,1.553344727E-2
5.490412186E0,8.789062500E-3,5.273437500E-2,1.660156250E-2
5.495356034E0,8.789062500E-3,5.487060547E-2,1.660156250E-2
5.500330399E0,1.306152344E-2,5.592346191E-2,1.660156250E-2
5.505274247E0,1.412963867E-2,5.699157715E-2,1.979064941E-2
5.510248612E0,1.731872559E-2,5.699157715E-2,1.553344727E-2
5.515192460E0,1.945495605E-2,5.699157715E-2,1.873779297E-2
5.520166825E0,1.945495605E-2,5.805969238E-2,1.766967773E-2
5.525110673E0,2.050781250E-2,5.805969238E-2,1.873779297E-2
5.530085038E0,2.264404297E-2,6.019592285E-2,1.979064941E-2
5.535028886E0,2.371215820E-2,6.019592285E-2,1.873779297E-2
5.539972733E0,2.583312988E-2,6.231689453E-2,1.979064941E-2
5.544947099E0,2.690124512E-2,6.338500977E-2,2.085876465E-2
5.549921464E0,2.796936035E-2,6.552124023E-2,1.873779297E-2
5.554865311E0,2.903747559E-2,6.552124023E-2,2.085876465E-2
5.559839677E0,3.117370605E-2,6.231689453E-2,1.979064941E-2
5.564783524E0,2.796936035E-2,6.552124023E-2,1.979064941E-2
5.569757890E0,2.690124512E-2,6.445312500E-2,2.192687988E-2
5.574701737E0,2.903747559E-2,6.338500977E-2,2.085876465E-2
5.579676102E0,2.796936035E-2,6.124877930E-2,1.979064941E-2
5.584619950E0,2.690124512E-2,5.912780762E-2,1.766967773E-2
5.589594315E0,2.690124512E-2,5.592346191E-2,1.766967773E-2
5.594538163E0,2.690124512E-2,5.699157715E-2,2.299499512E-2
5.599512528E0,2.478027344E-2,5.273437500E-2,2.192687988E-2
5.604456376E0,2.371215820E-2,5.380249023E-2,2.406311035E-2
5.609430741E0,2.371215820E-2,5.273437500E-2,2.299499512E-2
5.614374589E0,2.371215820E-2,5.273437500E-2,2.192687988E-2
5.619348954E0,2.157592773E-2,5.273437500E-2,2.299499512E-2
5.624292802E0,2.050781250E-2,5.059814453E-2,2.085876465E-2
5.629267167E0,2.157592773E-2,5.059814453E-2,2.406311035E-2
5.634211015E0,2.050781250E-2,4.954528809E-2,2.406311035E-2
5.639185380E0,1.945495605E-2,4.847717285E-2,2.511596680E-2
5.644129227E0,1.945495605E-2,4.847717285E-2,2.511596680E-2
5.649073075E0,2.264404297E-2,4.634094238E-2,2.511596680E-2
5.654047440E0,2.583312988E-2,4.740905762E-2,2.406311035E-2
5.659021806E0,2.478027344E-2,4.740905762E-2,2.511596680E-2
5.663965653E0,2.690124512E-2,4.634094238E-2,2.725219727E-2
5.668909501E0,2.583312988E-2,4.740905762E-2,2.618408203E-2
5.673883866E0,2.371215820E-2,5.273437500E-2,2.511596680E-2
5.678827714E0,2.157592773E-2,5.166625977E-2,2.299499512E-2
5.683802079E0,1.838684082E-2,5.592346191E-2,2.192687988E-2
5.688745927E0,1.412963867E-2,5.805969238E-2,1.873779297E-2
5.693720292E0,1.199340820E-2,6.445312500E-2,1.553344727E-2
5.698664140E0,7.736206055E-3,6.445312500E-2,1.446533203E-2
5.703607987E0,2.410888672E-3,6.764221191E-2,1.234436035E-2
5.708612870E0,-7.934570312E-4,7.084655762E-2,8.071899414E-3
5.713556718E0,-3.982543945E-3,7.403564453E-2,9.140014648E-3
5.718531083E0,-5.050659180E-3,7.403564453E-2,5.950927734E-3
5.723474931E0,-9.307861328E-3,8.042907715E-2,3.814697266E-3
5.728449296E0,-1.251220703E-2,7.723999023E-2,1.693725586E-3
5.733393143E0,-1.358032227E-2,7.084655762E-2,6.256103516E-4
5.738367509E0,-1.783752441E-2,6.871032715E-2,1.693725586E-3
5.743311356E0,-1.783752441E-2,6.552124023E-2,-4.425048828E-4
5.748285722E0,-1.997375488E-2,6.019592285E-2,-4.425048828E-4
5.753229569E0,-2.102661133E-2,5.699157715E-2,-2.578735352E-3
5.758203934E0,-2.209472656E-2,5.059814453E-2,-1.510620117E-3
5.763147782E0,-2.423095703E-2,4.208374023E-2,-2.578735352E-3
5.768122147E0,-2.529907227E-2,3.675842285E-2,-5.767822266E-3
5.773065995E0,-2.848815918E-2,3.143310547E-2,-7.904052734E-3
5.778040360E0,-2.955627441E-2,2.610778809E-2,-7.904052734E-3
5.782984208E0,-2.848815918E-2,2.290344238E-2,-1.109313965E-2
5.787958573E0,-3.062438965E-2,2.183532715E-2,-1.109313965E-2
5.792902421E0,-2.955627441E-2,1.971435547E-2,-1.216125488E-2
5.797876786E0,-2.742004395E-2,1.651000977E-2,-1.109313965E-2
5.802820634E0,-2.635192871E-2,1.332092285E-2,-8.972167969E-3
5.807794999E0,-2.423095703E-2,7.995605469E-3,-8.972167969E-3
5.812738847E0,-2.316284180E-2,5.859375000E-3,-1.109313965E-2
5.817682694E0,-2.102661133E-2,4.791259766E-3,-1.109313965E-2
5.822626542E0,-1.783752441E-2,5.340576172E-4,-1.002502441E-2
5.827600907E0,-1.676940918E-2,-1.602172852E-3,-1.002502441E-2
5.832575272E0,-1.358032227E-2,-2.655029297E-3,-1.002502441E-2
5.837549638E0,-1.144409180E-2,-4.791259766E-3,-1.216125488E-2
5.842493485E0,-1.144409180E-2,-1.118469238E-2,-1.109313965E-2
5.847467850E0,-7.186889648E-3,-1.544189453E-2,-1.002502441E-2
5.852411698E0,-8.255004883E-3,-1.651000977E-2,-8.972167969E-3
5.857386063E0,-7.186889648E-3,-1.544189453E-2,-1.002502441E-2
5.862329911E0,-5.050659180E-3,-1.864624023E-2,-6.835937500E-3
5.867273759E0,-6.118774414E-3,-2.076721191E-2,-5.767822266E-3
5.872248124E0,-5.050659180E-3,-2.290344238E-2,-5.767822266E-3
5.877222489E0,-2.929687500E-3,-2.397155762E-2,-5.767822266E-3
5.882166337E0,-3.982543945E-3,-2.502441406E-2,-7.904052734E-3
5.887140702E0,-5.050659180E-3,-2.609252930E-2,-5.767822266E-3
5.892084550E0,-5.050659180E-3,-2.716064453E-2,-5.767822266E-3
5.897028397E0,-5.050659180E-3,-2.609252930E-2,-7.904052734E-3
5.902002763E0,-5.050659180E-3,-2.397155762E-2,-7.904052734E-3
5.906977128E0,-7.186889648E-3,-2.502441406E-2,-5.767822266E-3
5.911920975E0,-7.186889648E-3,-2.502441406E-2,-7.904052734E-3
5.916864823E0,-8.255004883E-3,-2.290344238E-2,-1.109313965E-2
5.921839188E0,-1.037597656E-2,-2.183532715E-2,-1.109313965E-2
5.926813554E0,-1.358032227E-2,-2.076721191E-2,-8.972167969E-3
5.931757401E0,-1.358032227E-2,-2.290344238E-2,-1.002502441E-2
5.936731766E0,-1.251220703E-2,-2.609252930E-2,-1.429748535E-2
5.941675614E0,-1.037597656E-2,-2.609252930E-2,-1.216125488E-2
5.946649979E0,-1.251220703E-2,-2.716064453E-2,-1.429748535E-2
5.951593827E0,-1.037597656E-2,-2.929687500E-2,-1.322937012E-2
5.956568192E0,-8.255004883E-3,-2.609252930E-2,-1.322937012E-2
5.961512040E0,-8.255004883E-3,-3.034973145E-2,-1.429748535E-2
5.966486405E0,-9.307861328E-3,-2.929687500E-2,-1.322937012E-2
5.971430253E0,-1.037597656E-2,-2.929687500E-2,-1.109313965E-2
5.976404618E0,-1.037597656E-2,-2.609252930E-2,-1.429748535E-2
5.981348466E0,-1.037597656E-2,-2.929687500E-2,-1.322937012E-2
5.986292313E0,-1.037597656E-2,-2.502441406E-2,-1.216125488E-2
5.991266679E0,-1.144409180E-2,-2.076721191E-2,-1.216125488E-2
5.996210526E0,-1.037597656E-2,-2.397155762E-2,-1.216125488E-2
6.001184891E0,-9.307861328E-3,-2.502441406E-2,-1.216125488E-2
6.006128739E0,-8.255004883E-3,-1.969909668E-2,-1.002502441E-2
6.011072587E0,-8.255004883E-3,-1.969909668E-2,-1.002502441E-2
6.016046952E0,-6.118774414E-3,-1.969909668E-2,-1.002502441E-2
6.020990800E0,-2.929687500E-3,-1.969909668E-2,-7.904052734E-3
6.025965165E0,-2.929687500E-3,-1.864624023E-2,-8.972167969E-3
6.030909013E0,1.342773438E-3,-2.076721191E-2,-6.835937500E-3
6.035883378E0,1.342773438E-3,-1.969909668E-2,-3.631591797E-3
6.040827225E0,2.410888672E-3,-1.757812500E-2,-2.578735352E-3
6.045801591E0,4.531860352E-3,-1.757812500E-2,-1.510620117E-3
6.050745438E0,4.531860352E-3,-1.757812500E-2,-2.578735352E-3
6.055719804E0,6.668090820E-3,-1.544189453E-2,6.256103516E-4
6.060663651E0,7.736206055E-3,-1.330566406E-2,1.693725586E-3
6.065638016E0,9.857177734E-3,-1.330566406E-2,-4.425048828E-4
6.070612382E0,1.092529297E-2,-1.330566406E-2,6.256103516E-4
6.075556229E0,8.789062500E-3,-1.225280762E-2,6.256103516E-4
6.080500077E0,1.199340820E-2,-1.437377930E-2,1.693725586E-3
6.085474442E0,1.306152344E-2,-1.225280762E-2,-4.425048828E-4
6.090448808E0,1.412963867E-2,-1.118469238E-2,1.693725586E-3
6.095392655E0,1.518249512E-2,-1.437377930E-2,1.693725586E-3
6.100367020E0,1.306152344E-2,-1.757812500E-2,6.256103516E-4
6.105310868E0,1.199340820E-2,-1.651000977E-2,-2.578735352E-3
6.110285233E0,1.625061035E-2,-1.969909668E-2,1.693725586E-3
6.115229081E0,1.731872559E-2,-1.969909668E-2,6.256103516E-4
6.120203446E0,2.050781250E-2,-1.864624023E-2,6.256103516E-4
6.125147294E0,2.050781250E-2,-1.757812500E-2,-4.425048828E-4
6.130121659E0,2.157592773E-2,-1.651000977E-2,6.256103516E-4
6.135065507E0,2.371215820E-2,-1.651000977E-2,1.693725586E-3
6.140039872E0,2.264404297E-2,-1.544189453E-2,2.746582031E-3
6.144983720E0,2.264404297E-2,-1.757812500E-2,1.693725586E-3
6.149958085E0,2.371215820E-2,-1.757812500E-2,3.814697266E-3
6.154901933E0,2.478027344E-2,-2.076721191E-2,4.882812500E-3
6.159876298E0,2.157592773E-2,-1.969909668E-2,5.950927734E-3
6.164820145E0,2.478027344E-2,-2.290344238E-2,7.019042969E-3
6.169794511E0,2.690124512E-2,-2.397155762E-2,1.127624512E-2
6.174738358E0,2.478027344E-2,-2.716064453E-2,1.020812988E-2
6.179712724E0,2.478027344E-2,-2.716064453E-2,9.140014648E-3
6.184656571E0,2.478027344E-2,-2.609252930E-2,8.071899414E-3
6.189630936E0,2.264404297E-2,-2.716064453E-2,5.950927734E-3
6.194574784E0,1.838684082E-2,-2.397155762E-2,5.950927734E-3
6.199549149E0,1.518249512E-2,-2.183532715E-2,5.950927734E-3
6.204492997E0,9.857177734E-3,-2.183532715E-2,4.882812500E-3
6.209467362E0,8.789062500E-3,-1.969909668E-2,2.746582031E-3
6.214411210E0,6.668090820E-3,-1.757812500E-2,4.882812500E-3
6.219385575E0,4.531860352E-3,-1.437377930E-2,3.814697266E-3
6.224329423E0,1.342773438E-3,-1.011657715E-2,6.256103516E-4
6.229303788E0,-7.934570312E-4,-1.011657715E-2,-4.425048828E-4
6.234247636E0,-2.929687500E-3,-7.980346680E-3,-2.578735352E-3
6.239222001E0,-1.861572266E-3,-6.927490234E-3,-4.699707031E-3
6.244165849E0,-1.861572266E-3,-3.723144531E-3,-3.631591797E-3
6.249140214E0,-2.929687500E-3,-2.655029297E-3,-6.835937500E-3
6.254084061E0,-2.929687500E-3,-1.602172852E-3,-6.835937500E-3
6.259058427E0,-3.982543945E-3,-5.340576172E-4,-5.767822266E-3
6.264002274E0,-3.982543945E-3,1.602172852E-3,-4.699707031E-3
6.268946122E0,-1.861572266E-3,4.791259766E-3,-5.767822266E-3
6.273920487E0,-5.050659180E-3,4.791259766E-3,-6.835937500E-3
6.278864335E0,-5.050659180E-3,3.738403320E-3,-6.835937500E-3
6.283838700E0,-6.118774414E-3,3.738403320E-3,-5.767822266E-3
6.288813065E0,-9.307861328E-3,3.738403320E-3,-5.767822266E-3
6.293756913E0,-9.307861328E-3,4.791259766E-3,-4.699707031E-3
6.298700761E0,-8.255004883E-3,5.859375000E-3,-5.767822266E-3
6.303644608E0,-7.186889648E-3,6.927490234E-3,-4.699707031E-3
6.308618974E0,-7.186889648E-3,7.995605469E-3,-6.835937500E-3
6.313562821E0,-5.050659180E-3,6.927490234E-3,-4.699707031E-3
6.318537186E0,-3.982543945E-3,4.791259766E-3,-4.699707031E-3
6.323481034E0,-1.861572266E-3,2.670288086E-3,-2.578735352E-3
6.328455399E0,-1.861572266E-3,2.670288086E-3,-2.578735352E-3
6.333399247E0,1.342773438E-3,5.859375000E-3,-2.578735352E-3
6.338373612E0,4.531860352E-3,4.791259766E-3,-3.631591797E-3
6.343347977E0,6.668090820E-3,4.791259766E-3,-4.699707031E-3
6.348322343E0,5.599975586E-3,7.995605469E-3,-2.578735352E-3
6.353266190E0,4.531860352E-3,7.995605469E-3,-4.425048828E-4
6.358240556E0,4.531860352E-3,1.011657715E-2,-1.510620117E-3
6.363184403E0,5.599975586E-3,1.225280762E-2,-1.510620117E-3
6.368128251E0,5.599975586E-3,1.545715332E-2,1.693725586E-3
6.373102616E0,6.668090820E-3,1.864624023E-2,6.256103516E-4
6.378046464E0,2.410888672E-3,1.971435547E-2,2.746582031E-3
6.382990311E0,1.342773438E-3,2.183532715E-2,3.814697266E-3
6.387964677E0,-7.934570312E-4,2.397155762E-2,5.950927734E-3
6.392908524E0,-7.934570312E-4,2.397155762E-2,5.950927734E-3
6.397882890E0,2.746582031E-4,2.503967285E-2,4.882812500E-3
6.402826737E0,-1.861572266E-3,2.503967285E-2,4.882812500E-3
6.407801102E0,2.746582031E-4,1.971435547E-2,5.950927734E-3
6.412775468E0,2.746582031E-4,2.290344238E-2,5.950927734E-3
6.417719315E0,1.342773438E-3,2.183532715E-2,4.882812500E-3
6.422693681E0,2.746582031E-4,1.864624023E-2,5.950927734E-3
6.427668046E0,2.746582031E-4,2.183532715E-2,3.814697266E-3
6.432611893E0,2.410888672E-3,2.183532715E-2,5.950927734E-3
6.437586259E0,-2.929687500E-3,1.864624023E-2,5.950927734E-3
6.442530106E0,-3.982543945E-3,2.503967285E-2,5.950927734E-3
6.447504472E0,-5.050659180E-3,3.036499023E-2,3.814697266E-3
6.452448319E0,-1.861572266E-3,3.143310547E-2,2.746582031E-3
6.457422684E0,-1.861572266E-3,3.143310547E-2,4.882812500E-3
6.462366532E0,-2.929687500E-3,3.143310547E-2,2.746582031E-3
6.467310380E0,-7.934570312E-4,3.675842285E-2,1.693725586E-3
6.472254227E0,2.746582031E-4,2.397155762E-2,5.950927734E-3
6.477228593E0,1.342773438E-3,3.036499023E-2,1.693725586E-3
6.482202958E0,-1.861572266E-3,3.675842285E-2,6.256103516E-4
6.487177323E0,-7.186889648E-3,2.929687500E-2,3.814697266E-3
6.492121171E0,-6.118774414E-3,2.397155762E-2,3.814697266E-3
6.497095536E0,-3.982543945E-3,3.143310547E-2,6.256103516E-4
6.502039384E0,-3.982543945E-3,2.397155762E-2,1.693725586E-3
6.506983231E0,-3.982543945E-3,1.971435547E-2,3.814697266E-3
6.511957597E0,-8.255004883E-3,2.290344238E-2,2.746582031E-3
6.516901444E0,-1.037597656E-2,2.290344238E-2,2.746582031E-3
6.521845292E0,-7.186889648E-3,2.290344238E-2,3.814697266E-3
6.526819657E0,-9.307861328E-3,2.290344238E-2,1.693725586E-3
6.531763505E0,-9.307861328E-3,2.822875977E-2,4.882812500E-3
6.536737870E0,-8.255004883E-3,3.143310547E-2,3.814697266E-3
6.541681718E0,-1.037597656E-2,2.716064453E-2,4.882812500E-3
6.546656083E0,-1.463317871E-2,2.503967285E-2,5.950927734E-3
6.551599931E0,-1.463317871E-2,2.610778809E-2,5.950927734E-3
6.556574296E0,-1.358032227E-2,2.716064453E-2,7.019042969E-3
6.561518143E0,-1.463317871E-2,2.290344238E-2,5.950927734E-3
6.566492509E0,-1.463317871E-2,2.078247070E-2,4.882812500E-3
6.571466874E0,-1.463317871E-2,1.651000977E-2,5.950927734E-3
6.576410722E0,-1.358032227E-2,1.438903809E-2,8.071899414E-3
6.581354569E0,-1.037597656E-2,1.438903809E-2,4.882812500E-3
6.586328934E0,-1.144409180E-2,1.225280762E-2,3.814697266E-3
6.591272782E0,-1.251220703E-2,6.927490234E-3,2.746582031E-3
6.596247147E0,-1.144409180E-2,1.011657715E-2,6.256103516E-4
6.601190995E0,-1.144409180E-2,1.011657715E-2,-1.510620117E-3
6.606165360E0,-1.570129395E-2,9.063720703E-3,-4.425048828E-4
6.611109208E0,-1.463317871E-2,6.927490234E-3,-1.510620117E-3
6.616083573E0,-1.251220703E-2,9.063720703E-3,-3.631591797E-3
6.621057938E0,-1.251220703E-2,2.670288086E-3,-4.425048828E-4
6.626001786E0,-1.783752441E-2,-5.859375000E-3,6.256103516E-4
6.630945634E0,-1.570129395E-2,-5.859375000E-3,-5.767822266E-3
6.635919999E0,-1.358032227E-2,5.340576172E-4,-7.904052734E-3
6.640863847E0,-9.307861328E-3,-1.602172852E-3,-4.699707031E-3
6.645838212E0,-1.144409180E-2,-2.655029297E-3,-6.835937500E-3
6.650812577E0,-1.358032227E-2,-3.723144531E-3,-4.699707031E-3
6.655756425E0,-1.358032227E-2,-7.980346680E-3,-6.835937500E-3
6.660700272E0,-1.463317871E-2,-9.048461914E-3,-7.904052734E-3
6.665674638E0,-1.358032227E-2,-1.118469238E-2,-5.767822266E-3
6.670649003E0,-1.037597656E-2,-1.225280762E-2,-4.699707031E-3
6.675592850E0,-1.251220703E-2,-1.757812500E-2,-1.510620117E-3
6.680536698E0,-1.251220703E-2,-2.183532715E-2,-1.510620117E-3
6.685480546E0,-1.144409180E-2,-2.076721191E-2,-1.510620117E-3
6.690485429E0,-9.307861328E-3,-1.969909668E-2,6.256103516E-4
6.695429276E0,-7.186889648E-3,-1.864624023E-2,3.814697266E-3
6.700403641E0,-3.982543945E-3,-1.864624023E-2,3.814697266E-3
6.705347489E0,3.463745117E-3,-1.757812500E-2,3.814697266E-3
6.710321854E0,7.736206055E-3,-1.651000977E-2,4.882812500E-3
6.715265702E0,8.789062500E-3,-1.437377930E-2,8.071899414E-3
6.720240067E0,9.857177734E-3,-1.225280762E-2,1.127624512E-2
6.725183915E0,1.306152344E-2,-1.118469238E-2,1.020812988E-2
6.730158280E0,1.199340820E-2,-5.859375000E-3,8.071899414E-3
6.735102128E0,1.199340820E-2,-5.859375000E-3,9.140014648E-3
6.740045975E0,1.306152344E-2,-7.980346680E-3,8.071899414E-3
6.744989823E0,1.412963867E-2,-7.980346680E-3,1.127624512E-2
6.749994706E0,1.518249512E-2,-9.048461914E-3,1.127624512E-2
6.754938554E0,1.625061035E-2,-1.011657715E-2,1.127624512E-2
6.759912919E0,1.625061035E-2,-1.011657715E-2,1.341247559E-2
6.764856766E0,1.625061035E-2,-1.011657715E-2,1.127624512E-2
6.769831132E0,1.731872559E-2,-9.048461914E-3,9.140014648E-3
6.774774979E0,1.731872559E-2,-5.859375000E-3,9.140014648E-3
6.779749345E0,1.625061035E-2,-4.791259766E-3,9.140014648E-3
6.784693192E0,1.518249512E-2,-2.655029297E-3,9.140014648E-3
6.789667558E0,1.838684082E-2,-2.655029297E-3,1.020812988E-2
6.794611405E0,1.945495605E-2,-4.791259766E-3,1.234436035E-2
6.799585770E0,1.945495605E-2,-9.048461914E-3,1.341247559E-2
6.804529618E0,1.838684082E-2,-1.118469238E-2,1.553344727E-2
6.809503983E0,1.838684082E-2,-1.118469238E-2,1.341247559E-2
6.814447831E0,2.157592773E-2,-1.225280762E-2,1.446533203E-2
6.819422196E0,1.945495605E-2,-1.225280762E-2,1.341247559E-2
6.824366044E0,1.945495605E-2,-1.118469238E-2,1.341247559E-2
6.829340409E0,1.838684082E-2,-1.011657715E-2,1.553344727E-2
6.834284257E0,1.731872559E-2,-1.225280762E-2,1.446533203E-2
6.839258622E0,1.731872559E-2,-7.980346680E-3,1.553344727E-2
6.844202470E0,1.625061035E-2,-9.048461914E-3,1.553344727E-2
6.849176835E0,1.518249512E-2,-1.011657715E-2,1.553344727E-2
6.854120683E0,9.857177734E-3,-1.118469238E-2,1.660156250E-2
6.859095048E0,7.736206055E-3,-9.048461914E-3,1.660156250E-2
6.864038895E0,8.789062500E-3,-4.791259766E-3,1.446533203E-2
6.868982743E0,8.789062500E-3,-5.340576172E-4,1.446533203E-2
6.873957108E0,6.668090820E-3,-5.340576172E-4,1.234436035E-2
6.878900956E0,5.599975586E-3,-1.602172852E-3,1.127624512E-2
6.883875321E0,5.599975586E-3,3.738403320E-3,1.127624512E-2
6.888819169E0,4.531860352E-3,7.995605469E-3,9.140014648E-3
6.893793534E0,2.410888672E-3,7.995605469E-3,7.019042969E-3
6.898737382E0,1.342773438E-3,9.063720703E-3,8.071899414E-3
6.903711747E0,-1.861572266E-3,9.063720703E-3,8.071899414E-3
6.908655595E0,-2.929687500E-3,1.011657715E-2,5.950927734E-3
6.913599442E0,-3.982543945E-3,7.995605469E-3,4.882812500E-3
6.918573808E0,-5.050659180E-3,9.063720703E-3,3.814697266E-3
6.923517655E0,-5.050659180E-3,1.011657715E-2,2.746582031E-3
6.928492020E0,-5.050659180E-3,1.011657715E-2,2.746582031E-3
6.933466386E0,-3.982543945E-3,1.011657715E-2,2.746582031E-3
6.938440751E0,-5.050659180E-3,9.063720703E-3,2.746582031E-3
6.943384599E0,-6.118774414E-3,1.118469238E-2,3.814697266E-3
6.948358964E0,-7.186889648E-3,1.118469238E-2,4.882812500E-3
6.953302811E0,-6.118774414E-3,1.118469238E-2,2.746582031E-3
6.958246659E0,-6.118774414E-3,1.011657715E-2,3.814697266E-3
6.963221024E0,-8.255004883E-3,1.225280762E-2,2.746582031E-3
6.968164872E0,-9.307861328E-3,6.927490234E-3,3.814697266E-3
6.973139237E0,-9.307861328E-3,9.063720703E-3,4.882812500E-3
6.978113602E0,-6.118774414E-3,6.927490234E-3,3.814697266E-3
6.983057450E0,-5.050659180E-3,5.859375000E-3,1.693725586E-3
6.988031815E0,-5.050659180E-3,3.738403320E-3,4.882812500E-3
6.992975663E0,-3.982543945E-3,5.340576172E-4,3.814697266E-3
6.997919511E0,-1.861572266E-3,2.670288086E-3,2.746582031E-3
7.002893876E0,-2.929687500E-3,1.602172852E-3,2.746582031E-3
7.007837724E0,-7.934570312E-4,5.340576172E-4,-4.425048828E-4
7.012812089E0,-7.934570312E-4,-1.602172852E-3,1.693725586E-3
7.017755936E0,-7.934570312E-4,-1.602172852E-3,3.814697266E-3
7.022699784E0,1.342773438E-3,-3.723144531E-3,1.693725586E-3
7.027674149E0,2.410888672E-3,-6.927490234E-3,1.693725586E-3
7.032648515E0,3.463745117E-3,-3.723144531E-3,6.256103516E-4
7.037622880E0,5.599975586E-3,5.340576172E-4,-4.425048828E-4
7.042566727E0,6.668090820E-3,5.340576172E-4,-1.510620117E-3
7.047541093E0,7.736206055E-3,-2.655029297E-3,-2.578735352E-3
7.052484940E0,9.857177734E-3,-3.723144531E-3,6.256103516E-4
7.057459306E0,9.857177734E-3,-6.927490234E-3,1.693725586E-3
7.062403153E0,9.857177734E-3,-5.859375000E-3,2.746582031E-3
7.067377518E0,1.092529297E-2,-9.048461914E-3,6.256103516E-4
7.072321366E0,1.092529297E-2,-1.118469238E-2,2.746582031E-3
7.077265214E0,9.857177734E-3,-1.544189453E-2,6.256103516E-4
7.082209061E0,9.857177734E-3,-1.864624023E-2,1.693725586E-3
7.087183427E0,9.857177734E-3,-2.397155762E-2,4.882812500E-3
7.092157792E0,8.789062500E-3,-2.290344238E-2,3.814697266E-3
7.097101640E0,6.668090820E-3,-2.183532715E-2,7.019042969E-3
7.102045487E0,7.736206055E-3,-2.397155762E-2,8.071899414E-3
7.107019852E0,4.531860352E-3,-2.822875977E-2,7.019042969E-3
7.111994218E0,2.410888672E-3,-2.609252930E-2,7.019042969E-3
7.116968583E0,1.342773438E-3,-2.502441406E-2,1.020812988E-2
7.121912431E0,2.410888672E-3,-2.397155762E-2,1.127624512E-2
7.126886796E0,2.746582031E-4,-2.183532715E-2,8.071899414E-3
7.131830643E0,-7.934570312E-4,-2.397155762E-2,8.071899414E-3
7.136774491E0,1.342773438E-3,-1.969909668E-2,1.020812988E-2
7.141748856E0,-7.934570312E-4,-1.864624023E-2,1.127624512E-2
7.146723222E0,2.746582031E-4,-1.651000977E-2,1.020812988E-2
7.151667069E0,-7.934570312E-4,-1.437377930E-2,1.234436035E-2
7.156641434E0,-7.934570312E-4,-1.437377930E-2,1.127624512E-2
7.161585282E0,-1.861572266E-3,-1.118469238E-2,8.071899414E-3
7.166559647E0,-1.861572266E-3,-3.723144531E-3,1.020812988E-2
7.171503495E0,-1.861572266E-3,-1.602172852E-3,9.140014648E-3
7.176477860E0,-3.982543945E-3,5.340576172E-4,5.950927734E-3
7.181421708E0,-6.118774414E-3,5.859375000E-3,5.950927734E-3
7.186396073E0,-6.118774414E-3,7.995605469E-3,7.019042969E-3
7.191339921E0,-7.186889648E-3,1.011657715E-2,5.950927734E-3
7.196314286E0,-7.186889648E-3,1.011657715E-2,8.071899414E-3
7.201258134E0,-9.307861328E-3,1.118469238E-2,4.882812500E-3
7.206232499E0,-9.307861328E-3,1.332092285E-2,5.950927734E-3
7.211206864E0,-9.307861328E-3,1.011657715E-2,2.746582031E-3
7.216150712E0,-9.307861328E-3,1.225280762E-2,6.256103516E-4
7.221125077E0,-1.037597656E-2,1.011657715E-2,1.693725586E-3
7.226038407E0,-1.251220703E-2,6.927490234E-3,1.693725586E-3
7.230982255E0,-1.144409180E-2,6.927490234E-3,-1.510620117E-3
7.235956620E0,-1.037597656E-2,5.859375000E-3,-3.631591797E-3
7.240900468E0,-1.037597656E-2,3.738403320E-3,-2.578735352E-3
7.245874833E0,-1.037597656E-2,4.791259766E-3,-2.578735352E-3
7.250818681E0,-1.037597656E-2,3.738403320E-3,-1.510620117E-3
7.255762528E0,-1.144409180E-2,1.602172852E-3,-1.510620117E-3
7.260736893E0,-1.037597656E-2,1.602172852E-3,-4.425048828E-4
7.265680741E0,-1.144409180E-2,2.670288086E-3,-4.425048828E-4
7.270685624E0,-1.251220703E-2,1.602172852E-3,1.693725586E-3
7.275629472E0,-1.358032227E-2,3.738403320E-3,2.746582031E-3
7.280603837E0,-1.463317871E-2,5.340576172E-4,2.746582031E-3
7.285547684E0,-1.358032227E-2,5.340576172E-4,3.814697266E-3
7.290522050E0,-1.463317871E-2,5.340576172E-4,2.746582031E-3
7.295465897E0,-1.676940918E-2,5.340576172E-4,2.746582031E-3
7.300440263E0,-1.358032227E-2,-5.340576172E-4,1.693725586E-3
7.305414628E0,-1.358032227E-2,5.340576172E-4,2.746582031E-3
7.310388993E0,-1.358032227E-2,-5.340576172E-4,2.746582031E-3
7.315332841E0,-1.570129395E-2,-1.602172852E-3,2.746582031E-3
7.320276688E0,-1.463317871E-2,5.340576172E-4,-4.425048828E-4
7.325220536E0,-1.251220703E-2,5.340576172E-4,6.256103516E-4
7.330194901E0,-1.358032227E-2,1.602172852E-3,6.256103516E-4
7.335138749E0,-1.251220703E-2,5.859375000E-3,6.256103516E-4
7.340082597E0,-1.144409180E-2,9.063720703E-3,2.746582031E-3
7.345056962E0,-1.251220703E-2,1.332092285E-2,-4.425048828E-4
7.350031327E0,-1.144409180E-2,1.332092285E-2,6.256103516E-4
7.354975175E0,-1.144409180E-2,1.225280762E-2,1.693725586E-3
7.359919022E0,-1.251220703E-2,1.332092285E-2,2.746582031E-3
7.364893388E0,-1.251220703E-2,1.332092285E-2,2.746582031E-3
7.369867753E0,-1.144409180E-2,1.118469238E-2,2.746582031E-3
7.374811600E0,-8.255004883E-3,9.063720703E-3,4.882812500E-3
7.379755448E0,-8.255004883E-3,9.063720703E-3,2.746582031E-3
7.384729813E0,-7.186889648E-3,5.859375000E-3,2.746582031E-3
7.389704179E0,-3.982543945E-3,2.670288086E-3,3.814697266E-3
7.394648026E0,-3.982543945E-3,2.670288086E-3,5.950927734E-3
7.399622391E0,-3.982543945E-3,4.791259766E-3,8.071899414E-3
7.404566239E0,-8.255004883E-3,5.340576172E-4,5.950927734E-3
7.409540604E0,-9.307861328E-3,1.602172852E-3,5.950927734E-3
7.414484452E0,-9.307861328E-3,5.340576172E-4,7.019042969E-3
7.419458817E0,-1.037597656E-2,-1.602172852E-3,3.814697266E-3
7.424402665E0,-1.251220703E-2,-1.602172852E-3,1.693725586E-3
7.429377030E0,-1.251220703E-2,-5.340576172E-4,5.950927734E-3
7.434320878E0,-1.358032227E-2,5.340576172E-4,7.019042969E-3
7.439295243E0,-1.144409180E-2,5.340576172E-4,3.814697266E-3
7.444239091E0,-1.144409180E-2,5.340576172E-4,2.746582031E-3
7.449213456E0,-1.251220703E-2,5.340576172E-4,3.814697266E-3
7.454157304E0,-1.144409180E-2,2.670288086E-3,5.950927734E-3
7.459131669E0,-1.037597656E-2,4.791259766E-3,4.882812500E-3
7.464075516E0,-1.144409180E-2,2.670288086E-3,5.950927734E-3
7.469049882E0,-7.186889648E-3,2.670288086E-3,3.814697266E-3
7.473993729E0,-5.050659180E-3,5.859375000E-3,3.814697266E-3
7.478968095E0,-5.050659180E-3,5.859375000E-3,2.746582031E-3
7.483911942E0,-2.929687500E-3,3.738403320E-3,4.882812500E-3
7.488886308E0,-2.929687500E-3,2.670288086E-3,4.882812500E-3
7.493830155E0,-3.982543945E-3,2.670288086E-3,3.814697266E-3
7.498774003E0,-2.929687500E-3,2.670288086E-3,4.882812500E-3
7.503717850E0,-3.982543945E-3,-5.340576172E-4,4.882812500E-3
7.508692216E0,2.746582031E-4,-1.602172852E-3,4.882812500E-3
7.513636063E0,-7.934570312E-4,1.602172852E-3,7.019042969E-3
7.518610429E0,-7.934570312E-4,1.602172852E-3,5.950927734E-3
7.523554276E0,1.342773438E-3,1.602172852E-3,2.746582031E-3
7.528528641E0,-7.934570312E-4,5.340576172E-4,5.950927734E-3
7.533472489E0,1.342773438E-3,1.602172852E-3,7.019042969E-3
7.538446854E0,2.746582031E-4,1.602172852E-3,5.950927734E-3
7.543390702E0,3.463745117E-3,1.602172852E-3,4.882812500E-3
7.548365067E0,4.531860352E-3,5.340576172E-4,2.746582031E-3
7.553339433E0,2.410888672E-3,2.670288086E-3,4.882812500E-3
7.558313798E0,2.410888672E-3,1.602172852E-3,3.814697266E-3
7.563257645E0,1.342773438E-3,-1.602172852E-3,4.882812500E-3
7.568201493E0,1.342773438E-3,-1.602172852E-3,8.071899414E-3
7.573145341E0,2.746582031E-4,-1.602172852E-3,7.019042969E-3
7.578119706E0,-7.934570312E-4,-4.791259766E-3,7.019042969E-3
7.583063554E0,-7.934570312E-4,-3.723144531E-3,5.950927734E-3
7.588037919E0,-1.861572266E-3,-3.723144531E-3,5.950927734E-3
7.592981766E0,-1.861572266E-3,-4.791259766E-3,8.071899414E-3
7.597956132E0,-3.982543945E-3,-4.791259766E-3,3.814697266E-3
7.602899979E0,-2.929687500E-3,-3.723144531E-3,3.814697266E-3
7.607874345E0,-7.934570312E-4,-1.602172852E-3,4.882812500E-3
7.612848710E0,-3.982543945E-3,-5.340576172E-4,2.746582031E-3
7.617792558E0,-6.118774414E-3,-5.340576172E-4,3.814697266E-3
7.622736405E0,-5.050659180E-3,-5.340576172E-4,2.746582031E-3
7.627710770E0,-7.186889648E-3,1.602172852E-3,6.256103516E-4
7.632654618E0,-8.255004883E-3,5.340576172E-4,-4.425048828E-4
7.637628983E0,-9.307861328E-3,4.791259766E-3,-4.425048828E-4
7.642572831E0,-8.255004883E-3,5.859375000E-3,-4.425048828E-4
7.647547196E0,-9.307861328E-3,2.670288086E-3,-4.425048828E-4
7.652491044E0,-1.037597656E-2,3.738403320E-3,-4.425048828E-4
7.657465409E0,-8.255004883E-3,5.859375000E-3,6.256103516E-4
7.662409257E0,-1.037597656E-2,3.738403320E-3,-4.425048828E-4
7.667383622E0,-9.307861328E-3,3.738403320E-3,-1.510620117E-3
7.672327470E0,-5.050659180E-3,2.670288086E-3,-2.578735352E-3
7.677301835E0,-8.255004883E-3,-5.340576172E-4,-2.578735352E-3
7.682245683E0,-7.186889648E-3,-2.655029297E-3,-4.699707031E-3
7.687220048E0,-7.186889648E-3,-4.791259766E-3,-4.699707031E-3
7.692163895E0,-7.186889648E-3,-1.011657715E-2,-4.699707031E-3
7.697138261E0,-9.307861328E-3,-1.011657715E-2,-6.835937500E-3
7.702112626E0,-7.186889648E-3,-1.118469238E-2,-3.631591797E-3
7.707086991E0,-8.255004883E-3,-1.330566406E-2,-1.510620117E-3
7.712030839E0,-7.186889648E-3,-1.864624023E-2,-4.699707031E-3
7.716974686E0,-9.307861328E-3,-1.757812500E-2,-3.631591797E-3
7.721949052E0,-9.307861328E-3,-1.544189453E-2,-4.699707031E-3
7.726923417E0,-1.144409180E-2,-1.544189453E-2,-3.631591797E-3
7.731867265E0,-8.255004883E-3,-1.757812500E-2,-2.578735352E-3
7.736811112E0,-9.307861328E-3,-1.651000977E-2,-2.578735352E-3
7.741754960E0,-1.251220703E-2,-1.757812500E-2,-2.578735352E-3
7.746698808E0,-1.144409180E-2,-1.757812500E-2,-4.699707031E-3
7.751673173E0,-8.255004883E-3,-1.437377930E-2,-2.578735352E-3
7.756647538E0,-8.255004883E-3,-1.330566406E-2,-2.578735352E-3
7.761591386E0,-9.307861328E-3,-1.118469238E-2,-3.631591797E-3
7.766565751E0,-7.186889648E-3,-7.980346680E-3,-5.767822266E-3
7.771509599E0,-2.929687500E-3,-7.980346680E-3,-3.631591797E-3
7.776483964E0,-5.050659180E-3,-4.791259766E-3,-2.578735352E-3
7.781427811E0,-3.982543945E-3,-5.859375000E-3,-3.631591797E-3
7.786402177E0,1.342773438E-3,-4.791259766E-3,-3.631591797E-3
7.791346024E0,1.342773438E-3,-2.655029297E-3,-2.578735352E-3
7.796320390E0,3.463745117E-3,-2.655029297E-3,-4.425048828E-4
7.801264237E0,3.463745117E-3,-2.655029297E-3,-4.425048828E-4
7.806238602E0,5.599975586E-3,-3.723144531E-3,1.693725586E-3
7.811182450E0,7.736206055E-3,-4.791259766E-3,-4.425048828E-4
7.816156815E0,7.736206055E-3,-4.791259766E-3,6.256103516E-4
7.821100663E0,6.668090820E-3,-3.723144531E-3,2.746582031E-3
7.826075028E0,6.668090820E-3,-1.602172852E-3,6.256103516E-4
7.831018876E0,5.599975586E-3,5.340576172E-4,1.693725586E-3
7.835993241E0,5.599975586E-3,2.670288086E-3,1.693725586E-3
7.840967606E0,5.599975586E-3,5.859375000E-3,2.746582031E-3
7.845911454E0,6.668090820E-3,9.063720703E-3,2.746582031E-3
7.850855302E0,2.410888672E-3,9.063720703E-3,3.814697266E-3
7.855829667E0,1.342773438E-3,1.332092285E-2,3.814697266E-3
7.860804032E0,1.342773438E-3,1.757812500E-2,2.746582031E-3
7.865747880E0,2.746582031E-4,2.078247070E-2,1.693725586E-3
7.870722245E0,1.342773438E-3,2.397155762E-2,3.814697266E-3
7.875666093E0,-7.934570312E-4,2.610778809E-2,4.882812500E-3
7.880640458E0,-1.861572266E-3,2.716064453E-2,3.814697266E-3
7.885584306E0,-3.982543945E-3,2.716064453E-2,7.019042969E-3
7.890558671E0,-6.118774414E-3,3.036499023E-2,4.882812500E-3
7.895502518E0,-3.982543945E-3,3.036499023E-2,3.814697266E-3
7.900476884E0,-3.982543945E-3,3.143310547E-2,1.693725586E-3
7.905451249E0,-8.255004883E-3,3.462219238E-2,2.746582031E-3
7.910395097E0,-7.186889648E-3,3.036499023E-2,4.882812500E-3
7.915338944E0,-8.255004883E-3,2.929687500E-2,3.814697266E-3
7.920313309E0,-1.037597656E-2,3.250122070E-2,4.882812500E-3
7.925257157E0,-5.050659180E-3,3.036499023E-2,4.882812500E-3
7.930231522E0,-1.861572266E-3,2.929687500E-2,4.882812500E-3
7.935175370E0,-2.929687500E-3,2.929687500E-2,2.746582031E-3
7.940119218E0,-7.934570312E-4,2.822875977E-2,1.693725586E-3
7.945063065E0,2.746582031E-4,2.822875977E-2,1.693725586E-3
7.950037431E0,1.342773438E-3,2.822875977E-2,2.746582031E-3
7.954981278E0,2.410888672E-3,2.822875977E-2,1.693725586E-3
7.959986161E0,1.342773438E-3,2.716064453E-2,2.746582031E-3
7.964930009E0,3.463745117E-3,2.290344238E-2,2.746582031E-3
7.969873856E0,3.463745117E-3,1.971435547E-2,6.256103516E-4
7.974817704E0,3.463745117E-3,1.757812500E-2,1.693725586E-3
7.979792069E0,4.531860352E-3,1.438903809E-2,1.693725586E-3
7.984766434E0,6.668090820E-3,1.438903809E-2,3.814697266E-3
7.989740800E0,8.789062500E-3,1.225280762E-2,2.746582031E-3
7.994684647E0,7.736206055E-3,1.118469238E-2,4.882812500E-3
7.999659013E0,4.531860352E-3,4.791259766E-3,3.814697266E-3
8.004602860E0,5.599975586E-3,4.791259766E-3,5.950927734E-3
8.009577225E0,7.736206055E-3,2.670288086E-3,4.882812500E-3
8.014521073E0,5.599975586E-3,1.602172852E-3,2.746582031E-3
8.019495438E0,2.410888672E-3,-2.655029297E-3,3.814697266E-3
8.024439286E0,3.463745117E-3,-1.602172852E-3,3.814697266E-3
8.029413651E0,2.410888672E-3,-1.602172852E-3,-4.425048828E-4
8.034357499E0,2.410888672E-3,-2.655029297E-3,-2.578735352E-3
8.039331864E0,1.342773438E-3,-4.791259766E-3,-1.510620117E-3
8.044275712E0,2.746582031E-4,-6.927490234E-3,-1.510620117E-3
8.049250077E0,2.410888672E-3,-9.048461914E-3,-3.631591797E-3
8.054193925E0,2.410888672E-3,-9.048461914E-3,-1.510620117E-3
8.059168290E0,4.531860352E-3,-1.118469238E-2,-4.699707031E-3
8.064142655E0,2.410888672E-3,-9.048461914E-3,-3.631591797E-3
8.069086503E0,6.668090820E-3,-7.980346680E-3,-2.578735352E-3
8.074030350E0,7.736206055E-3,-6.927490234E-3,-1.510620117E-3
8.079004716E0,4.531860352E-3,-4.791259766E-3,-1.510620117E-3
8.083948563E0,5.599975586E-3,-1.602172852E-3,-1.510620117E-3
8.088922929E0,5.599975586E-3,5.340576172E-4,1.693725586E-3
8.093866776E0,5.599975586E-3,3.738403320E-3,2.746582031E-3
8.098810624E0,3.463745117E-3,6.927490234E-3,2.746582031E-3
8.103754472E0,2.410888672E-3,1.118469238E-2,2.746582031E-3
8.108728837E0,-7.934570312E-4,1.651000977E-2,3.814697266E-3
8.113672684E0,-2.929687500E-3,1.651000977E-2,4.882812500E-3
8.118647050E0,-2.929687500E-3,2.183532715E-2,3.814697266E-3
8.123590897E0,-1.861572266E-3,2.397155762E-2,5.950927734E-3
8.128565263E0,-1.861572266E-3,2.822875977E-2,4.882812500E-3
8.133539628E0,-1.861572266E-3,3.036499023E-2,9.140014648E-3
8.138513993E0,-7.934570312E-4,3.250122070E-2,8.071899414E-3
8.143457841E0,-7.934570312E-4,3.782653809E-2,1.020812988E-2
8.148432206E0,1.342773438E-3,3.994750977E-2,1.127624512E-2
8.153376054E0,3.463745117E-3,4.527282715E-2,1.234436035E-2
8.158350419E0,4.531860352E-3,4.740905762E-2,1.127624512E-2
8.163294266E0,4.531860352E-3,4.847717285E-2,1.234436035E-2
8.168238114E0,4.531860352E-3,5.166625977E-2,1.446533203E-2
8.173181962E0,7.736206055E-3,5.059814453E-2,1.341247559E-2
8.178156327E0,9.857177734E-3,5.380249023E-2,1.341247559E-2
8.183100175E0,8.789062500E-3,5.273437500E-2,1.341247559E-2
8.188074540E0,9.857177734E-3,5.273437500E-2,1.234436035E-2
8.193018388E0,1.199340820E-2,4.847717285E-2,1.446533203E-2
8.197992753E0,1.306152344E-2,4.740905762E-2,1.127624512E-2
8.202936600E0,1.199340820E-2,4.634094238E-2,9.140014648E-3
8.207910966E0,1.092529297E-2,4.208374023E-2,1.234436035E-2
8.212885331E0,1.092529297E-2,3.994750977E-2,1.127624512E-2
8.217829179E0,1.199340820E-2,3.887939453E-2,1.020812988E-2
8.222773026E0,1.306152344E-2,3.887939453E-2,1.020812988E-2
8.227747391E0,1.306152344E-2,3.675842285E-2,1.020812988E-2
8.232691239E0,1.092529297E-2,3.675842285E-2,1.020812988E-2
8.237665604E0,9.857177734E-3,3.250122070E-2,9.140014648E-3
8.242609452E0,1.092529297E-2,2.822875977E-2,1.127624512E-2
8.247583817E0,1.412963867E-2,2.822875977E-2,1.234436035E-2
8.252527665E0,1.199340820E-2,2.716064453E-2,1.020812988E-2
8.257502030E0,1.306152344E-2,2.290344238E-2,1.020812988E-2
8.262445878E0,1.412963867E-2,1.757812500E-2,1.234436035E-2
8.267420243E0,1.625061035E-2,1.651000977E-2,1.020812988E-2
8.272364091E0,1.731872559E-2,1.225280762E-2,8.071899414E-3
8.277338456E0,1.731872559E-2,9.063720703E-3,7.019042969E-3
8.282282304E0,1.731872559E-2,5.859375000E-3,4.882812500E-3
8.287256669E0,1.945495605E-2,5.340576172E-4,1.693725586E-3
8.292200516E0,2.157592773E-2,-3.723144531E-3,6.256103516E-4
8.297174882E0,1.945495605E-2,-2.655029297E-3,-2.578735352E-3
8.302118729E0,2.050781250E-2,-4.791259766E-3,-2.578735352E-3
8.307093095E0,2.050781250E-2,-6.927490234E-3,-2.578735352E-3
8.312036942E0,1.945495605E-2,-9.048461914E-3,-4.699707031E-3
8.317011308E0,1.731872559E-2,-6.927490234E-3,-6.835937500E-3
8.321955155E0,1.412963867E-2,-9.048461914E-3,-7.904052734E-3
8.326899003E0,1.306152344E-2,-1.011657715E-2,-7.904052734E-3
8.331873368E0,1.306152344E-2,-1.011657715E-2,-6.835937500E-3
8.336847733E0,1.199340820E-2,-1.330566406E-2,-4.699707031E-3
8.341791581E0,9.857177734E-3,-1.544189453E-2,-4.699707031E-3
8.346765946E0,9.857177734E-3,-1.651000977E-2,-3.631591797E-3
8.351709794E0,6.668090820E-3,-1.437377930E-2,-1.510620117E-3
8.356684159E0,5.599975586E-3,-1.544189453E-2,-4.425048828E-4
8.361628007E0,4.531860352E-3,-1.864624023E-2,3.814697266E-3
8.366571854E0,6.668090820E-3,-1.651000977E-2,3.814697266E-3
8.371546220E0,5.599975586E-3,-1.437377930E-2,4.882812500E-3
8.376520585E0,2.410888672E-3,-1.437377930E-2,8.071899414E-3
8.381464433E0,3.463745117E-3,-1.651000977E-2,7.019042969E-3
8.386438798E0,3.463745117E-3,-1.651000977E-2,5.950927734E-3
8.391382645E0,5.599975586E-3,-1.651000977E-2,8.071899414E-3
8.396326493E0,7.736206055E-3,-1.651000977E-2,9.140014648E-3
8.401300858E0,5.599975586E-3,-1.544189453E-2,8.071899414E-3
8.406275224E0,5.599975586E-3,-1.864624023E-2,7.019042969E-3
8.411219071E0,6.668090820E-3,-1.969909668E-2,9.140014648E-3
8.416162919E0,7.736206055E-3,-1.757812500E-2,7.019042969E-3
8.421167802E0,1.092529297E-2,-1.864624023E-2,3.814697266E-3
8.426111649E0,1.199340820E-2,-2.183532715E-2,2.746582031E-3
8.431055497E0,1.412963867E-2,-2.290344238E-2,2.746582031E-3
8.436029862E0,1.412963867E-2,-2.716064453E-2,2.746582031E-3
8.440973710E0,1.518249512E-2,-2.609252930E-2,1.693725586E-3
8.445917558E0,1.625061035E-2,-2.609252930E-2,-4.425048828E-4
8.450891923E0,1.731872559E-2,-2.822875977E-2,6.256103516E-4
8.455866288E0,1.838684082E-2,-2.822875977E-2,6.256103516E-4
8.460810136E0,2.264404297E-2,-2.397155762E-2,-4.425048828E-4
8.465753983E0,2.371215820E-2,-2.716064453E-2,6.256103516E-4
8.470697831E0,2.478027344E-2,-3.034973145E-2,-1.510620117E-3
8.475672196E0,2.371215820E-2,-2.822875977E-2,-4.699707031E-3
8.480677079E0,2.371215820E-2,-2.822875977E-2,-2.578735352E-3
8.485620927E0,2.371215820E-2,-2.716064453E-2,-2.578735352E-3
8.490595292E0,2.583312988E-2,-2.929687500E-2,-3.631591797E-3
8.495539140E0,2.371215820E-2,-2.929687500E-2,-4.425048828E-4
8.500513505E0,2.050781250E-2,-2.716064453E-2,-1.510620117E-3
8.505457352E0,2.157592773E-2,-2.609252930E-2,-4.425048828E-4
8.510431718E0,1.945495605E-2,-2.397155762E-2,-2.578735352E-3
8.515375565E0,1.838684082E-2,-1.651000977E-2,-3.631591797E-3
8.520349931E0,1.412963867E-2,-1.225280762E-2,-1.510620117E-3
8.525324296E0,1.306152344E-2,-7.980346680E-3,-1.510620117E-3
8.530268143E0,9.857177734E-3,-1.602172852E-3,-4.425048828E-4
8.535211991E0,7.736206055E-3,4.791259766E-3,-4.425048828E-4
8.540155839E0,4.531860352E-3,1.332092285E-2,6.256103516E-4
8.545099686E0,2.410888672E-3,1.971435547E-2,1.693725586E-3
8.550074052E0,2.410888672E-3,2.716064453E-2,6.256103516E-4
8.555017899E0,-7.934570312E-4,3.675842285E-2,2.746582031E-3
8.560022782E0,-2.929687500E-3,3.994750977E-2,8.071899414E-3
8.564966630E0,-5.050659180E-3,4.420471191E-2,9.140014648E-3
8.569940995E0,-3.982543945E-3,4.847717285E-2,1.020812988E-2
8.574884843E0,-6.118774414E-3,4.954528809E-2,1.341247559E-2
8.579859208E0,-7.186889648E-3,5.059814453E-2,1.553344727E-2
8.584803056E0,-8.255004883E-3,5.166625977E-2,1.660156250E-2
8.589777421E0,-8.255004883E-3,5.273437500E-2,1.766967773E-2
8.594721268E0,-8.255004883E-3,5.487060547E-2,1.979064941E-2
8.599695634E0,-8.255004883E-3,5.699157715E-2,1.979064941E-2
8.604669999E0,-8.255004883E-3,6.019592285E-2,2.192687988E-2
8.609613847E0,-7.186889648E-3,5.592346191E-2,2.192687988E-2
8.614557694E0,-5.050659180E-3,5.380249023E-2,2.299499512E-2
8.619532059E0,-3.982543945E-3,5.487060547E-2,2.085876465E-2
8.624475907E0,-5.050659180E-3,5.592346191E-2,1.979064941E-2
8.629450272E0,2.746582031E-4,5.273437500E-2,1.873779297E-2
8.634394120E0,3.463745117E-3,4.847717285E-2,1.446533203E-2
8.639368485E0,6.668090820E-3,4.527282715E-2,1.341247559E-2
8.644312333E0,8.789062500E-3,4.527282715E-2,1.020812988E-2
8.649286698E0,8.789062500E-3,4.208374023E-2,1.127624512E-2
8.654230546E0,9.857177734E-3,3.569030762E-2,9.140014648E-3
8.659204911E0,1.199340820E-2,3.250122070E-2,8.071899414E-3
8.664148759E0,1.199340820E-2,3.143310547E-2,5.950927734E-3
8.669123124E0,1.306152344E-2,2.610778809E-2,5.950927734E-3
8.674066972E0,1.306152344E-2,2.290344238E-2,3.814697266E-3
8.679041337E0,1.412963867E-2,1.971435547E-2,2.746582031E-3
8.683985184E0,1.518249512E-2,1.438903809E-2,2.746582031E-3
8.688959550E0,1.412963867E-2,7.995605469E-3,6.256103516E-4
8.693903397E0,1.306152344E-2,4.791259766E-3,-4.425048828E-4
8.698847245E0,1.092529297E-2,5.340576172E-4,-1.510620117E-3
8.703791093E0,6.668090820E-3,-4.791259766E-3,-3.631591797E-3
8.708765458E0,5.599975586E-3,-7.980346680E-3,-4.425048828E-4
8.713709306E0,2.410888672E-3,-1.011657715E-2,-4.425048828E-4
8.718653153E0,5.599975586E-3,-1.225280762E-2,-1.510620117E-3
8.723627518E0,2.746582031E-4,-1.544189453E-2,-4.699707031E-3
8.728601884E0,1.342773438E-3,-1.864624023E-2,-3.631591797E-3
8.733545731E0,-7.934570312E-4,-1.969909668E-2,-2.578735352E-3
8.738520097E0,-7.934570312E-4,-2.076721191E-2,-3.631591797E-3
8.743463944E0,-1.861572266E-3,-2.397155762E-2,-4.699707031E-3
8.748438309E0,-1.861572266E-3,-2.609252930E-2,-5.767822266E-3
8.753382157E0,2.746582031E-4,-2.397155762E-2,-5.767822266E-3
8.758356522E0,-2.929687500E-3,-2.290344238E-2,-4.699707031E-3
8.763300370E0,-7.934570312E-4,-1.864624023E-2,-2.578735352E-3
8.768274735E0,2.746582031E-4,-1.437377930E-2,-1.510620117E-3
8.773218583E0,2.410888672E-3,-1.544189453E-2,2.746582031E-3
8.778192948E0,6.668090820E-3,-1.225280762E-2,2.746582031E-3
8.783136796E0,1.092529297E-2,-1.225280762E-2,2.746582031E-3
8.788111161E0,1.518249512E-2,-1.864624023E-2,1.693725586E-3
8.793055009E0,2.157592773E-2,-2.183532715E-2,6.256103516E-4
8.798029374E0,2.796936035E-2,-2.609252930E-2,-1.510620117E-3
8.802973222E0,3.010559082E-2,-2.716064453E-2,-5.767822266E-3
8.807947587E0,2.690124512E-2,-3.034973145E-2,-1.002502441E-2
8.812891434E0,2.371215820E-2,-3.355407715E-2,-1.641845703E-2
8.817835282E0,2.157592773E-2,-3.569030762E-2,-1.855468750E-2
8.822809647E0,1.838684082E-2,-3.994750977E-2,-2.388000488E-2
8.827784013E0,1.625061035E-2,-4.634094238E-2,-2.601623535E-2
8.832727860E0,1.306152344E-2,-5.378723145E-2,-2.494812012E-2
8.837702225E0,1.092529297E-2,-6.124877930E-2,-2.388000488E-2
8.842646073E0,7.736206055E-3,-6.443786621E-2,-2.388000488E-2
8.847620438E0,6.668090820E-3,-6.871032715E-2,-2.069091797E-2
8.852564286E0,3.463745117E-3,-7.189941406E-2,-1.535034180E-2
8.857538651E0,2.410888672E-3,-7.189941406E-2,-1.535034180E-2
8.862482499E0,4.531860352E-3,-6.977844238E-2,-1.109313965E-2
8.867456864E0,-1.861572266E-3,-6.764221191E-2,-7.904052734E-3
8.872400712E0,-7.934570312E-4,-6.443786621E-2,-2.578735352E-3
8.877375077E0,2.746582031E-4,-6.018066406E-2,2.746582031E-3
8.882318925E0,4.531860352E-3,-6.338500977E-2,8.071899414E-3
8.887293290E0,9.857177734E-3,-6.018066406E-2,9.140014648E-3
8.892237138E0,1.306152344E-2,-5.592346191E-2,1.127624512E-2
8.897211503E0,1.518249512E-2,-5.059814453E-2,1.234436035E-2
8.902155350E0,1.731872559E-2,-4.527282715E-2,1.020812988E-2
8.907129716E0,1.945495605E-2,-3.994750977E-2,1.127624512E-2
8.912073563E0,1.838684082E-2,-3.462219238E-2,9.140014648E-3
8.917047929E0,1.731872559E-2,-3.462219238E-2,7.019042969E-3
8.921991776E0,1.838684082E-2,-2.929687500E-2,4.882812500E-3
8.926966141E0,1.945495605E-2,-2.822875977E-2,2.746582031E-3
8.931909989E0,2.050781250E-2,-2.609252930E-2,3.814697266E-3
8.936853837E0,2.371215820E-2,-2.609252930E-2,7.019042969E-3
8.941828202E0,2.478027344E-2,-2.609252930E-2,3.814697266E-3
8.946802567E0,2.583312988E-2,-2.502441406E-2,8.071899414E-3
8.951746415E0,2.478027344E-2,-2.183532715E-2,1.020812988E-2
8.956690263E0,2.583312988E-2,-2.183532715E-2,1.020812988E-2
8.961664628E0,2.478027344E-2,-2.290344238E-2,1.020812988E-2
8.966608475E0,2.157592773E-2,-2.183532715E-2,9.140014648E-3
8.971582841E0,1.945495605E-2,-1.969909668E-2,9.140014648E-3
8.976557206E0,1.838684082E-2,-1.969909668E-2,7.019042969E-3
8.981501054E0,1.838684082E-2,-1.969909668E-2,4.882812500E-3
8.986444901E0,1.945495605E-2,-1.864624023E-2,4.882812500E-3
8.991419266E0,1.945495605E-2,-1.969909668E-2,6.256103516E-4
8.996363114E0,1.518249512E-2,-1.651000977E-2,6.256103516E-4
9.001337479E0,1.306152344E-2,-1.651000977E-2,1.693725586E-3
9.006311845E0,1.412963867E-2,-1.757812500E-2,-3.631591797E-3
9.011255692E0,1.092529297E-2,-1.757812500E-2,-3.631591797E-3
9.016199540E0,7.736206055E-3,-1.864624023E-2,-4.699707031E-3
9.021173905E0,5.599975586E-3,-2.183532715E-2,-7.904052734E-3
9.026148270E0,3.463745117E-3,-1.969909668E-2,-1.002502441E-2
9.031092118E0,2.746582031E-4,-2.076721191E-2,-1.322937012E-2
9.036066483E0,-2.929687500E-3,-2.397155762E-2,-1.748657227E-2
9.041010331E0,-7.186889648E-3,-2.822875977E-2,-1.962280273E-2
9.045984696E0,-1.144409180E-2,-3.141784668E-2,-2.174377441E-2
9.050928544E0,-1.463317871E-2,-3.462219238E-2,-2.706909180E-2
9.055902909E0,-1.890563965E-2,-3.994750977E-2,-3.239440918E-2
9.060846757E0,-2.423095703E-2,-4.527282715E-2,-3.666687012E-2
9.065821122E0,-2.848815918E-2,-5.166625977E-2,-3.985595703E-2
9.070764970E0,-2.848815918E-2,-5.805969238E-2,-4.411315918E-2
9.075739335E0,-3.062438965E-2,-6.338500977E-2,-4.838562012E-2
9.080713700E0,-3.488159180E-2,-6.657409668E-2,-4.943847656E-2
9.085657548E0,-3.701782227E-2,-6.871032715E-2,-5.690002441E-2
9.090631913E0,-3.913879395E-2,-6.871032715E-2,-5.903625488E-2
9.095575761E0,-4.127502441E-2,-7.403564453E-2,-6.115722656E-2
9.100550126E0,-4.446411133E-2,-7.510375977E-2,-6.329345703E-2
9.105493974E0,-4.660034180E-2,-7.615661621E-2,-6.222534180E-2
9.110468339E0,-4.872131348E-2,-7.403564453E-2,-6.436157227E-2
9.115412186E0,-4.872131348E-2,-7.510375977E-2,-6.436157227E-2
9.120386552E0,-4.872131348E-2,-7.722473145E-2,-6.010437012E-2
9.125330399E0,-4.660034180E-2,-7.510375977E-2,-5.583190918E-2
9.130304765E0,-4.339599609E-2,-7.403564453E-2,-5.583190918E-2
9.135248612E0,-4.339599609E-2,-7.403564453E-2,-5.050659180E-2
9.140192460E0,-3.913879395E-2,-7.510375977E-2,-4.624938965E-2
9.145136308E0,-3.913879395E-2,-7.403564453E-2,-4.411315918E-2
9.150110673E0,-3.701782227E-2,-7.403564453E-2,-3.559875488E-2
9.155054520E0,-3.381347656E-2,-7.189941406E-2,-3.346252441E-2
9.160028886E0,-3.167724609E-2,-7.510375977E-2,-2.920532227E-2
9.165003251E0,-2.955627441E-2,-7.510375977E-2,-2.601623535E-2
9.169947099E0,-2.529907227E-2,-7.083129883E-2,-2.069091797E-2
9.174921464E0,-1.783752441E-2,-6.977844238E-2,-1.641845703E-2
9.179865311E0,-1.144409180E-2,-7.189941406E-2,-1.429748535E-2
9.184839677E0,-6.118774414E-3,-6.871032715E-2,-1.429748535E-2
9.189814042E0,2.410888672E-3,-6.443786621E-2,-1.109313965E-2
9.194757890E0,8.789062500E-3,-6.550598145E-2,-7.904052734E-3
9.199732255E0,1.731872559E-2,-6.231689453E-2,-7.904052734E-3
9.204676102E0,2.478027344E-2,-5.699157715E-2,-3.631591797E-3
9.209650468E0,3.010559082E-2,-5.378723145E-2,-1.510620117E-3
9.214594315E0,3.543090820E-2,-5.059814453E-2,6.256103516E-4
9.219568681E0,3.649902344E-2,-4.953002930E-2,3.814697266E-3
9.224512528E0,3.968811035E-2,-4.846191406E-2,3.814697266E-3
9.229456376E0,4.287719727E-2,-4.420471191E-2,5.950927734E-3
9.234430741E0,4.287719727E-2,-3.887939453E-2,8.071899414E-3
9.239374589E0,4.182434082E-2,-3.674316406E-2,8.071899414E-3
9.244348954E0,3.968811035E-2,-3.248596191E-2,1.127624512E-2
9.249323319E0,3.649902344E-2,-3.034973145E-2,1.234436035E-2
9.254267167E0,3.222656250E-2,-2.716064453E-2,1.341247559E-2
9.259241532E0,3.010559082E-2,-2.609252930E-2,1.446533203E-2
9.264185380E0,2.690124512E-2,-2.183532715E-2,1.341247559E-2
9.269129227E0,2.050781250E-2,-1.757812500E-2,1.446533203E-2
9.274073075E0,1.838684082E-2,-1.118469238E-2,1.341247559E-2
9.279047440E0,1.731872559E-2,-7.980346680E-3,1.446533203E-2
9.283991288E0,1.412963867E-2,-3.723144531E-3,1.127624512E-2
9.288935136E0,1.199340820E-2,1.602172852E-3,1.234436035E-2
9.293909501E0,9.857177734E-3,5.859375000E-3,1.234436035E-2
9.298853349E0,8.789062500E-3,1.118469238E-2,1.341247559E-2
9.303827714E0,9.857177734E-3,1.225280762E-2,1.341247559E-2
9.308802079E0,1.092529297E-2,1.332092285E-2,1.446533203E-2
9.313745927E0,1.092529297E-2,1.225280762E-2,1.446533203E-2
9.318689774E0,1.199340820E-2,1.118469238E-2,1.553344727E-2
9.323664140E0,8.789062500E-3,1.011657715E-2,1.341247559E-2
9.328638505E0,9.857177734E-3,6.927490234E-3,1.341247559E-2
9.333582352E0,8.789062500E-3,2.670288086E-3,1.341247559E-2
9.338556718E0,4.531860352E-3,-1.602172852E-3,1.127624512E-2
9.343500565E0,8.789062500E-3,-5.340576172E-4,1.341247559E-2
9.348474931E0,4.531860352E-3,-4.791259766E-3,1.446533203E-2
9.353418778E0,1.342773438E-3,-5.859375000E-3,1.341247559E-2
9.358393143E0,2.746582031E-4,-5.859375000E-3,9.140014648E-3
9.363336991E0,-2.929687500E-3,-4.791259766E-3,1.020812988E-2
9.368280839E0,-6.118774414E-3,-1.602172852E-3,1.020812988E-2
9.373255204E0,-8.255004883E-3,1.602172852E-3,8.071899414E-3
9.378229569E0,-9.307861328E-3,3.738403320E-3,7.019042969E-3
9.383173417E0,-1.144409180E-2,7.995605469E-3,7.019042969E-3
9.388147782E0,-8.255004883E-3,1.118469238E-2,5.950927734E-3
9.393091630E0,-8.255004883E-3,1.225280762E-2,1.693725586E-3
9.398035477E0,-6.118774414E-3,1.118469238E-2,-1.510620117E-3
9.403009843E0,-3.982543945E-3,7.995605469E-3,-4.699707031E-3
9.407953690E0,-3.982543945E-3,7.995605469E-3,-1.002502441E-2
9.412928056E0,-5.050659180E-3,6.927490234E-3,-1.109313965E-2
9.417902421E0,-6.118774414E-3,5.859375000E-3,-1.322937012E-2
9.422846268E0,-9.307861328E-3,7.995605469E-3,-1.535034180E-2
9.427790116E0,-1.037597656E-2,1.225280762E-2,-1.855468750E-2
9.432764481E0,-1.676940918E-2,1.651000977E-2,-1.855468750E-2
9.437738847E0,-2.423095703E-2,2.397155762E-2,-2.174377441E-2
9.442682694E0,-2.955627441E-2,3.569030762E-2,-2.069091797E-2
9.447657059E0,-3.913879395E-2,4.634094238E-2,-1.962280273E-2
9.452600907E0,-4.660034180E-2,4.954528809E-2,-2.069091797E-2
9.457575272E0,-4.872131348E-2,4.954528809E-2,-1.641845703E-2
9.462519120E0,-4.978942871E-2,4.634094238E-2,-1.322937012E-2
9.467493485E0,-4.660034180E-2,3.887939453E-2,-8.972167969E-3
9.472437333E0,-4.446411133E-2,2.822875977E-2,-3.631591797E-3
9.477411698E0,-4.339599609E-2,2.929687500E-2,-2.578735352E-3
9.482355546E0,-4.446411133E-2,3.036499023E-2,6.256103516E-4
9.487329911E0,-4.234313965E-2,3.569030762E-2,2.746582031E-3
9.492273759E0,-4.553222656E-2,4.208374023E-2,9.140014648E-3
9.497248124E0,-4.660034180E-2,4.527282715E-2,1.234436035E-2
9.502191972E0,-3.913879395E-2,3.994750977E-2,1.873779297E-2
9.507166337E0,-3.913879395E-2,7.084655762E-2,1.660156250E-2
9.512110184E0,-4.020690918E-2,7.936096191E-2,1.553344727E-2
9.517084550E0,-3.701782227E-2,8.256530762E-2,2.085876465E-2
9.522058915E0,-3.701782227E-2,9.001159668E-2,2.725219727E-2
9.527033280E0,-3.167724609E-2,9.321594238E-2,3.045654297E-2
9.531977128E0,-2.209472656E-2,8.895874023E-2,3.364562988E-2
9.536951493E0,-1.358032227E-2,8.575439453E-2,3.471374512E-2
9.541895341E0,-6.118774414E-3,8.363342285E-2,3.578186035E-2
9.546839188E0,-1.861572266E-3,9.001159668E-2,3.578186035E-2
9.551813554E0,2.746582031E-4,9.001159668E-2,3.683471680E-2
9.556757401E0,4.531860352E-3,8.682250977E-2,3.364562988E-2
9.561701249E0,6.668090820E-3,7.936096191E-2,3.257751465E-2
9.566645097E0,1.092529297E-2,6.764221191E-2,2.938842773E-2
9.571619462E0,1.518249512E-2,5.912780762E-2,2.832031250E-2
9.576593827E0,1.518249512E-2,4.954528809E-2,2.938842773E-2
9.581537675E0,1.838684082E-2,4.208374023E-2,2.832031250E-2
9.586512040E0,1.945495605E-2,3.782653809E-2,2.618408203E-2
9.591455888E0,1.625061035E-2,3.569030762E-2,2.085876465E-2
9.596430253E0,1.518249512E-2,3.355407715E-2,2.085876465E-2
9.601374100E0,1.838684082E-2,3.036499023E-2,2.085876465E-2
9.606348466E0,2.157592773E-2,2.716064453E-2,1.660156250E-2
9.611292313E0,2.371215820E-2,2.610778809E-2,1.341247559E-2
9.616236161E0,2.478027344E-2,2.503967285E-2,9.140014648E-3
9.621210526E0,2.371215820E-2,2.078247070E-2,1.020812988E-2
9.626184891E0,2.264404297E-2,1.757812500E-2,1.020812988E-2
9.631128739E0,2.157592773E-2,1.225280762E-2,9.140014648E-3
9.636103104E0,2.050781250E-2,7.995605469E-3,8.071899414E-3
9.641046952E0,1.731872559E-2,2.670288086E-3,9.140014648E-3
9.645990800E0,1.412963867E-2,-1.602172852E-3,9.140014648E-3
9.650965165E0,9.857177734E-3,-2.655029297E-3,1.020812988E-2
9.655939530E0,9.857177734E-3,1.602172852E-3,1.341247559E-2
9.660883378E0,1.199340820E-2,3.738403320E-3,1.766967773E-2
9.665857743E0,8.789062500E-3,9.063720703E-3,1.766967773E-2
9.670832108E0,6.668090820E-3,1.545715332E-2,1.553344727E-2
9.675775956E0,1.342773438E-3,1.971435547E-2,1.553344727E-2
9.680719804E0,-2.929687500E-3,2.290344238E-2,1.341247559E-2
9.685694169E0,-5.050659180E-3,2.716064453E-2,1.341247559E-2
9.690668534E0,-1.144409180E-2,2.929687500E-2,8.071899414E-3
9.695612382E0,-1.463317871E-2,2.929687500E-2,3.814697266E-3
9.700586747E0,-1.676940918E-2,2.610778809E-2,1.693725586E-3
9.705561112E0,-1.783752441E-2,2.290344238E-2,-4.699707031E-3
9.710504960E0,-1.890563965E-2,2.078247070E-2,-8.972167969E-3
9.715448808E0,-2.102661133E-2,2.078247070E-2,-1.216125488E-2
9.720423173E0,-2.423095703E-2,2.078247070E-2,-1.535034180E-2
9.725397538E0,-2.742004395E-2,2.290344238E-2,-1.641845703E-2
9.730341386E0,-2.742004395E-2,2.610778809E-2,-1.641845703E-2
9.735285233E0,-3.274536133E-2,3.250122070E-2,-1.748657227E-2
9.740229081E0,-3.701782227E-2,3.887939453E-2,-1.962280273E-2
9.745172929E0,-4.339599609E-2,4.420471191E-2,-1.962280273E-2
9.750147294E0,-4.339599609E-2,5.059814453E-2,-1.962280273E-2
9.755091141E0,-4.446411133E-2,5.592346191E-2,-2.174377441E-2
9.760065507E0,-5.085754395E-2,6.124877930E-2,-2.174377441E-2
9.765009354E0,-5.299377441E-2,7.084655762E-2,-2.174377441E-2
9.769983720E0,-5.299377441E-2,7.936096191E-2,-2.174377441E-2
9.774927567E0,-5.192565918E-2,7.829284668E-2,-1.962280273E-2
9.779901933E0,-4.978942871E-2,8.042907715E-2,-2.069091797E-2
9.784845780E0,-4.553222656E-2,7.617187500E-2,-2.069091797E-2
9.789820145E0,-4.234313965E-2,7.191467285E-2,-1.962280273E-2
9.794763993E0,-3.701782227E-2,6.764221191E-2,-2.069091797E-2
9.799738358E0,-3.062438965E-2,6.871032715E-2,-2.069091797E-2
9.804682206E0,-3.167724609E-2,6.764221191E-2,-2.174377441E-2
9.809656571E0,-2.955627441E-2,7.084655762E-2,-2.281188965E-2
9.814600419E0,-2.848815918E-2,7.617187500E-2,-2.388000488E-2
9.819574784E0,-2.955627441E-2,7.510375977E-2,-2.494812012E-2
9.824518632E0,-3.381347656E-2,7.936096191E-2,-2.706909180E-2
9.829492997E0,-3.594970703E-2,8.256530762E-2,-2.494812012E-2
9.834436845E0,-3.807067871E-2,8.575439453E-2,-2.388000488E-2
9.839411210E0,-4.020690918E-2,8.895874023E-2,-1.962280273E-2
9.844355058E0,-3.167724609E-2,8.468627930E-2,-1.216125488E-2
9.849329423E0,-2.423095703E-2,9.428405762E-2,-6.835937500E-3
9.854273270E0,-2.423095703E-2,1.070556641E-1,-5.767822266E-3
9.859247636E0,-2.209472656E-2,1.102600098E-1,-1.510620117E-3
9.864222001E0,-1.463317871E-2,1.091918945E-1,7.019042969E-3
