"Time (s)","Gyroscope x (rad/s)","Gyroscope y (rad/s)","Gyroscope z (rad/s)"
2.970606700E-2,1.172128618E-1,9.587881714E-2,-5.672355369E-2
3.232070200E-2,1.001086533E-1,5.067482591E-2,-4.817144573E-2
3.491127500E-2,7.933925092E-2,3.027376719E-3,-3.717588261E-2
3.747809800E-2,6.223503500E-2,-4.095488414E-2,-2.373685874E-2
4.006242100E-2,4.513082653E-2,-8.371541649E-2,-9.076106362E-3
4.264674400E-2,2.680488303E-2,-1.240324900E-1,4.362917971E-3
4.521294200E-2,6.035482511E-3,-1.643495560E-1,1.902367175E-2
4.777971300E-2,-1.351218857E-2,-2.046666294E-1,3.368442506E-2
5.034789000E-2,-3.672504798E-2,-2.425402403E-1,4.590171948E-2
5.289231700E-2,-5.993790925E-2,-2.840790451E-1,6.056247279E-2
5.548153500E-2,-8.315076679E-2,-3.182874620E-1,7.644495368E-2
5.802601500E-2,-1.100288182E-1,-3.512741625E-1,8.988398314E-2
6.061799400E-2,-1.393503249E-1,-3.842608631E-1,1.033230051E-1
6.318242100E-2,-1.698935628E-1,-4.148041010E-1,1.179837584E-1
6.574887900E-2,-1.992150694E-1,-4.416821599E-1,1.326445043E-1
6.831794200E-2,-2.322017550E-1,-4.636732638E-1,1.485269964E-1
7.088507700E-2,-2.639667392E-1,-4.807775021E-1,1.631877422E-1
7.345283800E-2,-2.957316637E-1,-4.917730689E-1,1.815136820E-1
7.601778500E-2,-3.238314390E-1,-5.039903522E-1,1.961744428E-1
7.858481700E-2,-3.543747067E-1,-5.088772178E-1,2.132786512E-1
8.115325400E-2,-3.836961985E-1,-5.076555014E-1,2.328263223E-1
8.372091000E-2,-4.069090486E-1,-5.015468597E-1,2.535957098E-1
8.628757700E-2,-4.301218987E-1,-4.954382479E-1,2.719216645E-1
8.885403500E-2,-4.533348083E-1,-4.844426811E-1,2.914693356E-1
9.139820200E-2,-4.753259420E-1,-4.856643975E-1,2.975779772E-1
9.398830600E-2,-4.960952997E-1,-4.819992185E-1,2.914693356E-1
9.655846300E-2,-5.156430006E-1,-4.587863684E-1,2.878041267E-1
9.912419200E-2,-5.339689255E-1,-4.331300557E-1,2.878041267E-1
1.016901810E-1,-5.510731339E-1,-4.123606384E-1,2.951345146E-1
1.042592440E-1,-5.706207752E-1,-3.989216089E-1,3.110170066E-1
1.068261190E-1,-5.865032673E-1,-3.842608631E-1,3.281212151E-1
1.093926810E-1,-5.950554013E-1,-3.671566546E-1,3.488906026E-1
1.119610150E-1,-5.999423265E-1,-3.439438045E-1,3.684382737E-1
1.145264310E-1,-5.987205505E-1,-3.158440292E-1,3.904294074E-1
1.170957540E-1,-5.999423265E-1,-2.914094329E-1,4.063118994E-1
1.196454420E-1,-6.023857594E-1,-2.608661950E-1,4.221943617E-1
1.221402330E-1,-6.036074758E-1,-2.229925692E-1,4.356333911E-1
1.246544000E-1,-6.023857594E-1,-1.851189584E-1,4.429637790E-1
1.271707540E-1,-6.011640429E-1,-1.533539891E-1,4.454072416E-1
1.296896080E-1,-5.999423265E-1,-1.276976764E-1,4.405203164E-1
1.322047130E-1,-5.974988341E-1,-1.057065427E-1,4.307464659E-1
1.347245040E-1,-5.950554013E-1,-9.471098334E-2,4.087553620E-1
1.372408580E-1,-5.926119089E-1,-9.471098334E-2,3.721034527E-1
1.397543480E-1,-5.889467597E-1,-8.982405812E-2,3.354515731E-1
1.422714310E-1,-5.889467597E-1,-9.348925203E-2,2.951345146E-1
1.447880460E-1,-5.877249837E-1,-1.044848189E-1,2.597043514E-1
1.473051810E-1,-5.877249837E-1,-1.179238409E-1,2.303828597E-1
1.498221600E-1,-5.889467597E-1,-1.411366910E-1,2.047265470E-1
1.523400770E-1,-5.840598345E-1,-1.667930037E-1,1.876223385E-1
1.548561710E-1,-5.767294765E-1,-1.838972270E-1,1.741833091E-1
1.573283580E-1,-5.645121336E-1,-1.948927790E-1,1.668529361E-1
1.598496600E-1,-5.535165668E-1,-2.083318084E-1,1.644094735E-1
1.624070040E-1,-5.388558507E-1,-2.144404501E-1,1.692963988E-1
1.649253900E-1,-5.241950750E-1,-2.193273753E-1,1.766267717E-1
1.674444000E-1,-5.058691502E-1,-2.242143005E-1,1.900657862E-1
1.699596080E-1,-4.838780165E-1,-2.254360169E-1,2.022830844E-1
1.724762750E-1,-4.802128077E-1,-2.547575533E-1,2.132786512E-1
1.749929940E-1,-4.716607332E-1,-2.816355824E-1,2.206090242E-1
1.775089310E-1,-4.496695995E-1,-2.999615371E-1,2.291611284E-1
1.800282020E-1,-4.215698242E-1,-3.085136414E-1,2.340480536E-1
1.825441920E-1,-3.885831237E-1,-3.170657456E-1,2.352697849E-1
1.850597650E-1,-3.555964231E-1,-3.317264915E-1,2.340480536E-1
1.875766400E-1,-3.165010810E-1,-3.512741625E-1,2.303828597E-1
1.900936190E-1,-2.749623060E-1,-3.696001172E-1,2.279394120E-1
1.926107540E-1,-2.322017550E-1,-3.842608631E-1,2.254959494E-1
1.951276290E-1,-1.845543087E-1,-3.940347135E-1,2.267176807E-1
1.976446600E-1,-1.356851310E-1,-3.940347135E-1,2.316045910E-1
2.001615880E-1,-8.437249810E-2,-3.903695047E-1,2.377132475E-1
2.026802330E-1,-3.183813021E-2,-3.879260421E-1,2.462653518E-1
2.052141400E-1,2.069623582E-2,-3.854825795E-1,2.560391724E-1
2.077137230E-1,7.445233315E-2,-3.854825795E-1,2.645912766E-1
2.101855460E-1,1.269866973E-1,-3.818174005E-1,2.743650973E-1
2.127487230E-1,1.795210689E-1,-3.757087588E-1,2.829172313E-1
2.152644520E-1,2.296119779E-1,-3.720435798E-1,2.926910520E-1
2.177823690E-1,2.797029018E-1,-3.696001172E-1,3.012431562E-1
2.202985670E-1,3.310155272E-1,-3.683783710E-1,3.110170066E-1
2.228417960E-1,3.725543022E-1,-3.647131920E-1,3.159039021E-1
2.253323690E-1,4.128713608E-1,-3.610480130E-1,3.183473647E-1
2.278513270E-1,4.507449865E-1,-3.622697294E-1,3.134604394E-1
2.303344000E-1,4.739578366E-1,-3.830391467E-1,2.987996936E-1
2.328840350E-1,4.922838211E-1,-4.038085341E-1,2.768085599E-1
2.354004420E-1,5.106097460E-1,-4.196910262E-1,2.401566952E-1
2.379198690E-1,5.264922380E-1,-4.343517721E-1,1.912875175E-1
2.404344000E-1,5.448181629E-1,-4.465690553E-1,1.326445043E-1
2.429533580E-1,5.643658638E-1,-4.465690553E-1,7.522322237E-2
2.454680980E-1,5.778048635E-1,-4.367952347E-1,1.658021286E-2
2.479838790E-1,5.863569975E-1,-4.221344888E-1,-3.839761019E-2
2.505014830E-1,5.888004303E-1,-4.086954594E-1,-8.604505658E-2
2.530173690E-1,5.875787139E-1,-3.928129673E-1,-1.263621300E-1
2.555357020E-1,5.912439227E-1,-3.647131920E-1,-1.581270993E-1
2.580546080E-1,5.924656391E-1,-3.268395960E-1,-1.788965017E-1
2.605876290E-1,5.973525643E-1,-2.840790451E-1,-1.923355162E-1
2.630870560E-1,5.973525643E-1,-2.388750464E-1,-1.972224414E-1
2.656066400E-1,5.997959971E-1,-1.924493313E-1,-1.947789788E-1
2.681210670E-1,5.973525643E-1,-1.521322578E-1,-1.837834120E-1
2.706397650E-1,5.924656391E-1,-1.130369231E-1,-1.715661138E-1
2.732049210E-1,5.875787139E-1,-7.516331226E-2,-1.556836367E-1
2.756773690E-1,5.765831470E-1,-3.484623507E-2,-1.385794282E-1
2.781887230E-1,5.631441474E-1,4.249106161E-3,-1.190317571E-1
2.807058580E-1,5.521485806E-1,3.845752776E-2,-1.031492725E-1
2.832226290E-1,5.387095213E-1,6.900076568E-2,-8.726678789E-2
2.857417960E-1,5.252705216E-1,9.710054100E-2,-7.138431072E-2
2.882565880E-1,5.130532384E-1,1.239785925E-1,-5.428009480E-2
2.907740350E-1,5.032793880E-1,1.374176294E-1,-3.473242372E-2
2.932911190E-1,4.910621047E-1,1.423045397E-1,-1.518475357E-2
2.958074210E-1,4.837316871E-1,1.374176294E-1,5.584647413E-3
2.982811190E-1,4.751796126E-1,1.264220625E-1,2.635404840E-2
3.008436190E-1,4.654057622E-1,1.093178391E-1,4.834517837E-2
3.033584630E-1,4.519667029E-1,9.832227230E-2,6.911458075E-2
3.058744520E-1,4.409711361E-1,8.366151899E-2,8.621878922E-2
3.084105980E-1,4.299756289E-1,6.533557922E-2,9.843608737E-2
3.109100250E-1,4.202017784E-1,3.967925906E-2,1.094316542E-1
3.134269000E-1,4.165365696E-1,6.692565046E-3,1.167620271E-1
3.159457020E-1,4.128713608E-1,-2.751585841E-2,1.228706762E-1
3.184603900E-1,4.116496444E-1,-6.050255522E-2,1.289793253E-1
3.209770040E-1,4.104279280E-1,-8.982405812E-2,1.363096982E-1
3.234946080E-1,4.092062116E-1,-1.167021096E-1,1.411966234E-1
3.260110670E-1,4.116496444E-1,-1.435801536E-1,1.473052651E-1
3.285305980E-1,4.116496444E-1,-1.704581976E-1,1.509704441E-1
3.310453380E-1,4.128713608E-1,-1.936710626E-1,1.558573693E-1
3.335620040E-1,4.153148532E-1,-2.119970024E-1,1.558573693E-1
3.360788270E-1,4.153148532E-1,-2.229925692E-1,1.607442945E-1
3.385960150E-1,4.153148532E-1,-2.291012108E-1,1.680746675E-1
3.411128900E-1,4.092062116E-1,-2.303229421E-1,1.729615778E-1
3.436300770E-1,3.994323611E-1,-2.254360169E-1,1.790702343E-1
3.461467960E-1,3.896585107E-1,-2.156621814E-1,1.864006072E-1
3.486638270E-1,3.737760186E-1,-2.010014355E-1,1.949527115E-1
3.511807540E-1,3.554500937E-1,-1.790103018E-1,2.035048157E-1
3.536976290E-1,3.346806765E-1,-1.521322578E-1,2.120569199E-1
3.562146600E-1,3.126896024E-1,-1.142586544E-1,2.254959494E-1
3.587317960E-1,2.809246182E-1,-6.416774541E-2,2.413784266E-1
3.612490350E-1,2.528248429E-1,-2.140721306E-2,2.499305457E-1
3.637655980E-1,2.235033214E-1,1.280121226E-2,2.548174262E-1
3.662825250E-1,2.002904564E-1,3.357060999E-2,2.523739934E-1
3.687997130E-1,1.770776063E-1,4.823136330E-2,2.499305457E-1
3.713164310E-1,1.501995623E-1,4.456617683E-2,2.450436205E-1
3.738198690E-1,1.098824888E-1,1.035775337E-2,2.291611284E-1
3.763514310E-1,6.712195277E-2,-1.896375418E-2,2.010613531E-1
3.788674210E-1,4.635255411E-2,-1.859541051E-3,1.888440698E-1
3.813847650E-1,4.513082653E-2,5.556174368E-2,1.949527115E-1
3.839013790E-1,4.635255411E-2,1.105395630E-1,2.071700096E-1
3.864192440E-1,4.879601300E-2,1.557435691E-1,2.206090242E-1
3.889371600E-1,5.734811723E-2,1.972823590E-1,2.328263223E-1
3.914507540E-1,7.323060185E-2,2.351559848E-1,2.438218892E-1
3.939701810E-1,9.155654162E-2,2.669209242E-1,2.523739934E-1
3.964870040E-1,1.123259440E-1,2.864685953E-1,2.645912766E-1
3.990042440E-1,1.355388016E-1,2.986858785E-1,2.755868435E-1
4.015447650E-1,1.611951143E-1,3.060162663E-1,2.816954851E-1
4.040378380E-1,1.856297106E-1,3.121249080E-1,2.902475893E-1
4.065549730E-1,2.125077546E-1,3.182335794E-1,2.951345146E-1
4.090717960E-1,2.357206196E-1,3.243422210E-1,2.987996936E-1
4.115888790E-1,2.589334846E-1,3.280074000E-1,2.975779772E-1
4.141033580E-1,2.821463346E-1,3.280074000E-1,2.926910520E-1
4.166212230E-1,3.041374683E-1,3.255639374E-1,2.829172313E-1
4.191390880E-1,3.200199604E-1,3.182335794E-1,2.706999183E-1
4.216547130E-1,3.334589601E-1,3.096814454E-1,2.548174262E-1
4.241737750E-1,3.444545269E-1,2.986858785E-1,2.364915162E-1
4.266905980E-1,3.493414521E-1,2.864685953E-1,2.157221138E-1
4.292080980E-1,3.542283773E-1,2.718078494E-1,1.961744428E-1
4.317253900E-1,3.554500937E-1,2.595905364E-1,1.729615778E-1
4.342391920E-1,3.505631685E-1,2.473732680E-1,1.497487277E-1
4.367571600E-1,3.444545269E-1,2.388211638E-1,1.265358627E-1
4.392740350E-1,3.346806765E-1,2.302690595E-1,1.033230051E-1
4.417910150E-1,3.224633932E-1,2.229386866E-1,8.255360276E-2
4.443095560E-1,3.078026772E-1,2.180517614E-1,6.056247279E-2
4.468289310E-1,2.931419015E-1,2.204952240E-1,4.345826060E-2
4.493433060E-1,2.772594094E-1,2.266038656E-1,2.879750729E-2
4.518602330E-1,2.589334846E-1,2.375994325E-1,1.780194230E-2
4.543748690E-1,2.381640822E-1,2.547036409E-1,1.169329416E-2
4.568944520E-1,2.198381275E-1,2.742513120E-1,3.141188296E-3
4.594109630E-1,1.966252774E-1,2.999076247E-1,-2.967458917E-3
4.619285670E-1,1.758558750E-1,3.280074000E-1,-6.632647011E-3
4.644450250E-1,1.575299352E-1,3.573289216E-1,-1.029783580E-2
4.669621600E-1,1.379822642E-1,3.866504133E-1,-1.396302413E-2
4.694788790E-1,1.245432347E-1,4.135284722E-1,-1.762821153E-2
4.719966920E-1,1.098824888E-1,4.404065013E-1,-1.884994097E-2
4.745138270E-1,9.644345939E-2,4.685062766E-1,-2.129339986E-2
4.770307540E-1,9.033481777E-2,4.904974103E-1,-2.007167041E-2
4.795472130E-1,8.178270608E-2,5.124886036E-1,-2.007167041E-2
4.820171080E-1,7.567405701E-2,5.357014537E-1,-1.884994097E-2
4.845794000E-1,6.712195277E-2,5.552490950E-1,-1.640648209E-2
4.870955460E-1,6.345676631E-2,5.760185122E-1,-9.076106362E-3
4.896125250E-1,5.734811723E-2,5.943444371E-1,6.977294688E-4
4.921308580E-1,5.001774430E-2,6.114486456E-1,1.535848249E-2
4.946475250E-1,4.024390876E-2,6.261094213E-1,3.612788394E-2
4.971633580E-1,3.291352838E-2,6.371049881E-1,6.056247279E-2
4.996814310E-1,2.436142415E-2,6.468788385E-1,9.232743829E-2
5.022238270E-1,8.478941396E-3,6.517657042E-1,1.253141314E-1
5.047148690E-1,-7.403541356E-3,6.578744054E-1,1.607442945E-1
5.072313270E-1,-2.206429467E-2,6.627612710E-1,1.961744428E-1
5.097480460E-1,-4.039023817E-2,6.664264798E-1,2.279394120E-1
5.122668480E-1,-5.627271906E-2,6.664264798E-1,2.584826350E-1
5.147833580E-1,-7.704211771E-2,6.627612710E-1,2.841389477E-1
5.173003900E-1,-9.414633363E-2,6.505439878E-1,3.049083352E-1
5.197745560E-1,-1.136940047E-1,6.346614957E-1,3.220125735E-1
5.223332020E-1,-1.320199370E-1,6.187790632E-1,3.330081105E-1
5.248522650E-1,-1.515676230E-1,5.955661535E-1,3.342298567E-1
5.273708580E-1,-1.662283689E-1,5.674663782E-1,3.330081105E-1
5.298861190E-1,-1.833325773E-1,5.357014537E-1,3.232342899E-1
5.324039310E-1,-1.992150694E-1,5.014930367E-1,3.122387230E-1
5.349205980E-1,-2.150975466E-1,4.685062766E-1,2.963562310E-1
5.374371080E-1,-2.260931134E-1,4.318543971E-1,2.792520225E-1
5.399544520E-1,-2.370886803E-1,4.000894427E-1,2.645912766E-1
5.424708060E-1,-2.468625158E-1,3.658810258E-1,2.560391724E-1
5.449888270E-1,-2.566363513E-1,3.365595043E-1,2.474870831E-1
5.475037230E-1,-2.664101720E-1,3.109031916E-1,2.438218892E-1
5.500197650E-1,-2.786274552E-1,2.925772369E-1,2.426001579E-1
5.525365880E-1,-2.920665145E-1,2.803599536E-1,2.389349788E-1
5.550557020E-1,-3.067272305E-1,2.742513120E-1,2.364915162E-1
5.575729940E-1,-3.238314390E-1,2.656992078E-1,2.340480536E-1
5.600895040E-1,-3.409357071E-1,2.608122826E-1,2.267176807E-1
5.626075770E-1,-3.580399156E-1,2.559253573E-1,2.206090242E-1
5.651220560E-1,-3.739223480E-1,2.510384321E-1,2.132786512E-1
5.676380460E-1,-3.849179149E-1,2.449298054E-1,2.071700096E-1
5.701560670E-1,-3.983569741E-1,2.375994325E-1,2.035048157E-1
5.726903900E-1,-4.105742574E-1,2.253821343E-1,2.010613531E-1
5.751923170E-1,-4.215698242E-1,2.082779258E-1,1.986179054E-1
5.777092440E-1,-4.301218987E-1,1.887302548E-1,2.022830844E-1
5.802259630E-1,-4.350088239E-1,1.667391211E-1,2.035048157E-1
5.827421600E-1,-4.435609579E-1,1.447480023E-1,2.035048157E-1
5.852578380E-1,-4.484478831E-1,1.276437789E-1,2.059482783E-1
5.877741920E-1,-4.557782412E-1,1.093178391E-1,2.071700096E-1
5.902918480E-1,-4.618868828E-1,9.587881714E-2,2.096134573E-1
5.928078380E-1,-4.692172408E-1,8.610498160E-2,2.108351886E-1
5.953262230E-1,-4.753259420E-1,8.488325030E-2,2.120569199E-1
5.978452330E-1,-4.863215089E-1,9.343535453E-2,2.120569199E-1
6.003589830E-1,-5.009822249E-1,1.117612943E-1,2.145003825E-1
6.028948170E-1,-5.168647170E-1,1.386393458E-1,2.120569199E-1
6.053951810E-1,-5.315254331E-1,1.716260463E-1,2.083917409E-1
6.079121600E-1,-5.486296415E-1,2.107213885E-1,2.010613531E-1
6.104288790E-1,-5.645121336E-1,2.498167306E-1,1.876223385E-1
6.129458060E-1,-5.767294765E-1,2.937989831E-1,1.729615778E-1
6.154605980E-1,-5.889467597E-1,3.377812207E-1,1.558573693E-1
6.179773690E-1,-5.974988341E-1,3.829852343E-1,1.387531608E-1
6.204954940E-1,-6.072726846E-1,4.294109344E-1,1.192054898E-1
6.230371080E-1,-6.133813262E-1,4.746149480E-1,9.965781868E-2
6.255278900E-1,-6.182682514E-1,5.137103200E-1,8.255360276E-2
6.280466920E-1,-6.207116842E-1,5.454752445E-1,6.544938684E-2
6.305624730E-1,-6.219334602E-1,5.723533034E-1,4.956690967E-2
6.330808060E-1,-6.182682514E-1,5.931227207E-1,3.368442506E-2
6.355962750E-1,-6.170465350E-1,6.163355708E-1,1.902367175E-2
6.381133580E-1,-6.146030426E-1,6.322180629E-1,6.806376856E-3
6.406301290E-1,-6.121596098E-1,6.481005549E-1,-4.189188126E-3
6.431496600E-1,-6.048292518E-1,6.664264798E-1,-1.274129469E-2
6.456664310E-1,-6.023857594E-1,6.859741807E-1,-2.129339986E-2
6.481832020E-1,-6.011640429E-1,7.043001056E-1,-2.984550595E-2
6.507004940E-1,-6.023857594E-1,7.250695229E-1,-4.084107280E-2
6.532171080E-1,-6.011640429E-1,7.372868061E-1,-5.305836350E-2
6.557347130E-1,-6.011640429E-1,7.409519553E-1,-6.161047146E-2
6.582513270E-1,-5.999423265E-1,7.360650897E-1,-6.894084811E-2
6.607681500E-1,-5.987205505E-1,7.275129557E-1,-7.749295235E-2
6.632853900E-1,-5.999423265E-1,7.189608812E-1,-8.237987012E-2
6.658017440E-1,-6.072726846E-1,7.091870308E-1,-8.604505658E-2
6.683167440E-1,-6.182682514E-1,7.006348968E-1,-8.604505658E-2
6.708347650E-1,-6.292638183E-1,6.908610463E-1,-8.604505658E-2
6.733780460E-1,-6.414811015E-1,6.810872555E-1,-8.604505658E-2
6.758707020E-1,-6.549201608E-1,6.725351214E-1,-8.604505658E-2
6.783867960E-1,-6.720243692E-1,6.652047634E-1,-8.726678789E-2
6.809039310E-1,-6.854633689E-1,6.542091966E-1,-9.215370566E-2
6.834201290E-1,-6.989023685E-1,6.444353461E-1,-9.704062343E-2
6.859353900E-1,-7.086762190E-1,6.309963465E-1,-1.055927277E-1
6.884527330E-1,-7.196717858E-1,6.163355708E-1,-1.141448393E-1
6.909702330E-1,-7.294456363E-1,5.992313623E-1,-1.251403987E-1
6.934863790E-1,-7.367759943E-1,5.796837211E-1,-1.361359656E-1
6.960050250E-1,-7.404412031E-1,5.613577366E-1,-1.507967263E-1
6.985213790E-1,-7.477715611E-1,5.466970205E-1,-1.679009348E-1
7.010374210E-1,-7.514367700E-1,5.320362449E-1,-1.886703372E-1
7.035823170E-1,-7.526584864E-1,5.234841108E-1,-2.106614560E-1
7.060721600E-1,-7.551019192E-1,5.185972452E-1,-2.338743210E-1
7.086073170E-1,-7.563236952E-1,5.185972452E-1,-2.607523799E-1
7.111065350E-1,-7.612106204E-1,5.283710361E-1,-2.839652598E-1
7.136235670E-1,-7.660974860E-1,5.479187369E-1,-3.047346473E-1
7.161405980E-1,-7.734279037E-1,5.686881542E-1,-3.230606019E-1
7.186604420E-1,-7.819799781E-1,6.041182876E-1,-3.401648104E-1
7.211732020E-1,-7.966407537E-1,6.627612710E-1,-3.548255563E-1
7.236923170E-1,-8.088580370E-1,7.079653144E-1,-3.670428395E-1
7.262097650E-1,-8.100797534E-1,7.336215973E-1,-3.804818690E-1
7.287261710E-1,-8.003059626E-1,7.446171641E-1,-3.853687942E-1
7.312430460E-1,-7.795365453E-1,7.458388805E-1,-3.865905106E-1
7.337589830E-1,-7.563236952E-1,7.446171641E-1,-3.804818690E-1
7.362747650E-1,-7.208935022E-1,7.482823730E-1,-3.682645857E-1
7.387927850E-1,-6.879068017E-1,7.629430890E-1,-3.536038101E-1
7.413087230E-1,-6.573635936E-1,7.910428643E-1,-3.377213478E-1
7.437813270E-1,-6.317072511E-1,8.276947737E-1,-3.267257810E-1
7.462980460E-1,-6.121596098E-1,8.692335486E-1,-3.157302141E-1
7.488173170E-1,-5.999423265E-1,9.107723832E-1,-3.108432889E-1
7.513780460E-1,-5.901684761E-1,9.449808002E-1,-3.059563637E-1
7.538938790E-1,-5.816163421E-1,9.718588591E-1,-3.071781099E-1
7.564128900E-1,-5.791729093E-1,9.926282167E-1,-3.120650351E-1
7.589303900E-1,-5.791729093E-1,1.007289052E0,-3.193953931E-1
7.614468480E-1,-5.816163421E-1,1.017062783E0,-3.279474974E-1
7.639620560E-1,-5.877249837E-1,1.026836634E0,-3.413865268E-1
7.664798170E-1,-5.974988341E-1,1.037832260E0,-3.548255563E-1
7.689952850E-1,-6.133813262E-1,1.046384335E0,-3.707080483E-1
7.715122130E-1,-6.317072511E-1,1.057379961E0,-3.902557194E-1
7.740291920E-1,-6.500332355E-1,1.068375468E0,-4.098033905E-1
7.765494520E-1,-6.756895185E-1,1.078149319E0,-4.305727780E-1
7.790657020E-1,-7.013458610E-1,1.084257960E0,-4.501204491E-1
7.815824730E-1,-7.294456363E-1,1.090366602E0,-4.696681201E-1
7.841002850E-1,-7.551019192E-1,1.096475244E0,-4.843288660E-1
7.866170040E-1,-7.893103957E-1,1.103805661E0,-5.014330745E-1
7.891334630E-1,-8.247405291E-1,1.109914303E0,-5.136503577E-1
7.916501810E-1,-8.613923788E-1,1.119688153E0,-5.258676410E-1
7.941679420E-1,-9.004877210E-1,1.131905437E0,-5.393066406E-1
7.966819000E-1,-9.395830631E-1,1.142900944E0,-5.478587747E-1
7.992004420E-1,-9.786784053E-1,1.155118227E0,-5.576326251E-1
8.017174730E-1,-1.018995523E0,1.168557286E0,-5.637412667E-1
8.042633580E-1,-1.055647492E0,1.177109361E0,-5.710716248E-1
8.067527330E-1,-1.093521118E0,1.183218002E0,-5.759585500E-1
8.092690350E-1,-1.133838177E0,1.190548420E0,-5.796237588E-1
8.117860670E-1,-1.174155235E0,1.196657062E0,-5.845106840E-1
8.143187750E-1,-1.214472294E0,1.200322270E0,-5.881758332E-1
8.168176290E-1,-1.251124144E0,1.205209136E0,-5.918410420E-1
8.193345560E-1,-1.293884635E0,1.212539554E0,-5.967279673E-1
8.218515880E-1,-1.334201813E0,1.217426419E0,-6.028366089E-1
8.243687750E-1,-1.373297095E0,1.221091628E0,-6.113886833E-1
8.268861190E-1,-1.411170721E0,1.224756837E0,-6.211625338E-1
8.294025250E-1,-1.449044347E0,1.225978613E0,-6.284928918E-1
8.319198690E-1,-1.485696197E0,1.228422046E0,-6.370450258E-1
8.344372130E-1,-1.519904613E0,1.229643703E0,-6.468188763E-1
8.369542960E-1,-1.554113030E0,1.234530687E0,-6.565926671E-1
8.394705460E-1,-1.587099791E0,1.240639329E0,-6.663665175E-1
8.419887750E-1,-1.622529864E0,1.247969747E0,-6.761403680E-1
8.445066400E-1,-1.654294848E0,1.255300045E0,-6.834707260E-1
8.470233060E-1,-1.684838057E0,1.263852239E0,-6.908011436E-1
8.495411710E-1,-1.717824817E0,1.271182537E0,-6.932445765E-1
8.520575770E-1,-1.744702816E0,1.269960880E0,-6.969097853E-1
8.545742440E-1,-1.771580935E0,1.263852239E0,-6.969097853E-1
8.570917960E-1,-1.798458934E0,1.252856612E0,-6.969097853E-1
8.596089310E-1,-1.824115276E0,1.238195896E0,-6.908011436E-1
8.621253900E-1,-1.847328067E0,1.218648195E0,-6.846924424E-1
8.646599210E-1,-1.868097544E0,1.192991853E0,-6.773620844E-1
8.671570560E-1,-1.891310334E0,1.160005212E0,-6.675882339E-1
8.696753380E-1,-1.914523244E0,1.112357736E0,-6.578144431E-1
8.721908060E-1,-1.938957810E0,1.053714752E0,-6.480405927E-1
8.747098690E-1,-1.964614153E0,9.865195751E-1,-6.394884586E-1
8.772282020E-1,-1.992713928E0,9.119940996E-1,-6.272711754E-1
8.797439310E-1,-2.025700569E0,8.374686241E-1,-6.174973249E-1
8.822624210E-1,-2.066017628E0,7.629430890E-1,-6.077235341E-1
8.847759100E-1,-2.112443209E0,6.957479715E-1,-5.991714001E-1
8.872923690E-1,-2.171086311E0,6.358832717E-1,-5.906193256E-1
8.898104940E-1,-2.238281488E0,5.870140791E-1,-5.796237588E-1
8.923264310E-1,-2.315250397E0,5.503621697E-1,-5.710716248E-1
8.948449730E-1,-2.397106171E0,5.198189616E-1,-5.539674163E-1
8.973637750E-1,-2.476518631E0,5.014930367E-1,-5.319762826E-1
8.998788270E-1,-2.541270256E0,5.014930367E-1,-4.953244328E-1
9.023976810E-1,-2.617017508E0,5.185972452E-1,-4.464552701E-1
9.049388270E-1,-2.728194952E0,5.515839458E-1,-3.951426148E-1
9.074297130E-1,-2.801498652E0,6.114486456E-1,-3.401648104E-1
9.099466400E-1,-2.878467560E0,6.639830470E-1,-2.912956178E-1
9.124637750E-1,-2.954214811E0,7.189608812E-1,-2.375395149E-1
9.149982020E-1,-3.036070824E0,7.604996562E-1,-1.960007101E-1
9.174975770E-1,-3.081274748E0,8.008167148E-1,-1.520184427E-1
9.200143480E-1,-3.135030746E0,8.350251317E-1,-1.153665632E-1
9.225315350E-1,-3.176569700E0,8.863377571E-1,-7.871468365E-2
9.250496600E-1,-3.220551968E0,9.400938749E-1,-5.305836350E-2
9.275664830E-1,-3.249873400E0,9.865195751E-1,-2.618031763E-2
9.300832540E-1,-3.277973175E0,1.002402067E0,-5.410917569E-3
9.326001290E-1,-3.274307966E0,1.006067276E0,2.024540119E-2
9.351169000E-1,-3.258425474E0,9.987368584E-1,3.124096617E-2
9.376339830E-1,-3.248651743E0,9.865195751E-1,4.834517837E-2
9.401511190E-1,-3.226660490E0,9.730805755E-1,5.201036483E-2
9.426686710E-1,-3.208334684E0,9.547546506E-1,5.567555502E-2
9.451827330E-1,-3.180234909E0,9.376504421E-1,4.345826060E-2
9.477009630E-1,-3.153356791E0,9.181027412E-1,3.246269375E-2
9.502167960E-1,-3.111818075E0,8.973333240E-1,1.169329416E-2
9.527338270E-1,-3.070279121E0,8.716770411E-1,-5.410917569E-3
9.552544000E-1,-3.020188332E0,8.484641910E-1,-2.251512930E-2
9.577700250E-1,-2.968875647E0,8.154774904E-1,-4.572799057E-2
9.602879940E-1,-2.898015261E0,7.861559987E-1,-6.771911681E-2
9.628037230E-1,-2.843037605E0,7.592779398E-1,-9.826235473E-2
9.653187230E-1,-2.792946577E0,7.311781645E-1,-1.336925030E-1
9.678355460E-1,-2.762403250E0,7.079653144E-1,-1.776747704E-1
9.703531500E-1,-2.731860161E0,6.908610463E-1,-2.216570228E-1
9.728942960E-1,-2.709868908E0,6.639830470E-1,-2.558654547E-1
9.753862230E-1,-2.690321207E0,6.358832717E-1,-2.815217972E-1
9.779033060E-1,-2.681769133E0,6.028965712E-1,-2.900739014E-1
9.804219000E-1,-2.674438953E0,5.662446618E-1,-2.937390804E-1
9.829385150E-1,-2.656112909E0,5.259276032E-1,-2.912956178E-1
9.854556500E-1,-2.665886641E0,4.831670523E-1,-2.827435136E-1
9.879725250E-1,-2.665886641E0,4.404065013E-1,-2.705262303E-1
9.905000770E-1,-2.653669357E0,3.976459801E-1,-2.522002757E-1
9.930050770E-1,-2.652447701E0,3.475550711E-1,-2.302091271E-1
9.955223170E-1,-2.658556461E0,2.974641621E-1,-2.008876354E-1
9.980402850E-1,-2.670773745E0,2.412646264E-1,-1.691226661E-1
1.000557265E0,-2.680547476E0,1.752912402E-1,-1.312490553E-1
1.003073254E0,-2.690321207E0,1.068743765E-1,-8.971025050E-2
1.005545650E0,-2.720864534E0,3.479234129E-2,-4.694971815E-2
1.008106692E0,-2.736747026E0,-4.095488414E-2,-1.745729474E-3
1.010624244E0,-2.758738279E0,-1.191455647E-1,4.345826060E-2
1.013141692E0,-2.814937830E0,-2.034448981E-1,8.866225183E-2
1.015657994E0,-2.835707188E0,-2.840790451E-1,1.350879669E-1
1.018174504E0,-2.839372396E0,-3.732652962E-1,1.754050404E-1
1.020691327E0,-2.887019873E0,-4.685601890E-1,2.193873078E-1
1.023233098E0,-2.937110662E0,-5.601899028E-1,2.694782019E-1
1.025725598E0,-2.978649378E0,-6.505978703E-1,3.183473647E-1
1.028198723E0,-3.005527496E0,-7.263450623E-1,3.696600199E-1
1.030759348E0,-3.034848928E0,-8.057575226E-1,4.270812869E-1
1.033277473E0,-3.073944330E0,-8.729526401E-1,4.808373749E-1
1.035793515E0,-3.128922224E0,-9.242652655E-1,5.345935225E-1
1.038310129E0,-3.152135134E0,-9.792430997E-1,5.859061480E-1
1.040827004E0,-3.160687208E0,-1.019560099E0,6.323318481E-1
1.043344088E0,-3.180234909E0,-1.059877157E0,6.775358319E-1
1.045863775E0,-3.214443207E0,-1.069651008E0,7.154094577E-1
1.048380233E0,-3.224217176E0,-1.078203201E0,7.483961582E-1
1.050898410E0,-3.241321325E0,-1.079424858E0,7.789394259E-1
1.053402629E0,-3.219330072E0,-1.056212068E0,7.960436344E-1
1.055931119E0,-3.210777998E0,-1.039107800E0,8.058174253E-1
1.058448150E0,-3.259647131E0,-1.007342815E0,8.045957088E-1
1.060965546E0,-3.284081936E0,-9.584736824E-1,7.948218584E-1
1.063482160E0,-3.270642757E0,-9.010524154E-1,7.826045752E-1
1.065999035E0,-3.233990908E0,-8.363007307E-1,7.569482923E-1
1.068514035E0,-3.321955442E0,-7.532231212E-1,7.239615917E-1
1.071030650E0,-3.282860041E0,-6.457109451E-1,6.763141155E-1
1.073571275E0,-3.357385635E0,-5.577464104E-1,6.225580573E-1
1.076064608E0,-3.407476425E0,-4.331300557E-1,5.578063726E-1
1.078581796E0,-3.407476425E0,-3.219526708E-1,4.881677628E-1
1.081099452E0,-3.489332438E0,-2.205491066E-1,4.124205410E-1
1.083616327E0,-3.545531988E0,-1.203672960E-1,3.391167819E-1
1.086132681E0,-3.471006393E0,-1.285510603E-2,2.682564557E-1
1.088651640E0,-3.535758018E0,7.755286992E-2,1.998396367E-1
1.091169608E0,-3.462454319E0,1.728477776E-1,1.424183398E-1
1.093685650E0,-3.455123901E0,2.986858785E-1,9.477089345E-2
1.096202629E0,-3.378154993E0,3.952025175E-1,5.201036483E-2
1.098717213E0,-3.275529623E0,4.892756939E-1,1.169329416E-2
1.101235077E0,-3.243764877E0,5.699098706E-1,-2.373685874E-2
1.103754296E0,-3.191230297E0,6.529874802E-1,-6.527566165E-2
1.106271483E0,-3.094713688E0,6.920828223E-1,-9.704062343E-2
1.108806640E0,-2.992088556E0,7.214043140E-1,-1.214752123E-1
1.111304713E0,-2.862585068E0,6.994131804E-1,-1.251403987E-1
1.113821744E0,-2.728194952E0,6.566526294E-1,-1.129231080E-1
1.116336327E0,-2.603578568E0,6.065617204E-1,-8.360160142E-2
1.118853202E0,-2.447197199E0,5.393666029E-1,-5.672355369E-2
1.121371900E0,-2.320137262E0,4.220805764E-1,-3.351069242E-2
1.123913567E0,-2.229729414E0,2.314907908E-1,4.362917971E-3
1.126429244E0,-2.091673851E0,-4.828526080E-2,7.277976722E-2
1.128945650E0,-1.945066452E0,-3.964781463E-1,2.059482783E-1
1.131462213E0,-1.833889127E0,-6.701455116E-1,3.965380490E-1
1.133980390E0,-1.767915726E0,-8.998306394E-1,6.042320728E-1
1.136547629E0,-1.721490026E0,-1.238249660E0,9.328773022E-1
1.139115806E0,-1.722711682E0,-1.331101179E0,9.964072108E-1
1.141683983E0,-1.770359159E0,-1.417843938E0,1.020841718E0
1.144213723E0,-1.872984409E0,-1.465491414E0,1.052606702E0
1.146757681E0,-1.992713928E0,-1.481373906E0,1.085593462E0
1.149348775E0,-2.134434462E0,-1.493591189E0,1.095367312E0
1.151915025E0,-2.276154995E0,-1.487482548E0,1.069710970E0
1.154482525E0,-2.386110783E0,-1.454495788E0,1.001294136E0
1.157050650E0,-2.456970930E0,-1.425174356E0,9.059992433E-1
1.159617473E0,-2.521722555E0,-1.422730803E0,7.899349928E-1
1.162185754E0,-2.582809210E0,-1.397074580E0,6.677620411E-1
1.164752056E0,-2.618239403E0,-1.309110045E0,5.749105811E-1
1.167319348E0,-2.618239403E0,-1.169832826E0,5.370369554E-1
1.169887733E0,-2.587696075E0,-1.000012517E0,5.468108058E-1
1.172453879E0,-2.535161734E0,-8.155313134E-1,5.871278644E-1
1.175020858E0,-2.467966557E0,-6.286067367E-1,6.384404898E-1
1.177589921E0,-2.375115156E0,-4.135823846E-1,6.860879660E-1
1.180156848E0,-2.282263756E0,-1.924493313E-1,7.251833081E-1
1.182723567E0,-2.194299221E0,3.723580018E-2,7.532830834E-1
1.185289608E0,-2.092895508E0,2.656992078E-1,7.667220831E-1
1.187857004E0,-2.017148495E0,4.685062766E-1,7.679438591E-1
1.190425181E0,-1.942623019E0,6.151138544E-1,7.862697840E-1
1.192992369E0,-1.849771619E0,6.823089719E-1,8.400258422E-1
1.195560442E0,-1.739815950E0,7.140739560E-1,9.438728690E-1
1.198125963E0,-1.622529864E0,7.714952230E-1,1.069710970E0
1.200693983E0,-1.510130763E0,8.484641910E-1,1.185775280E0
1.203261535E0,-1.400175095E0,9.144375324E-1,1.267631173E0
1.205828150E0,-1.302436829E0,9.584197998E-1,1.312835097E0
1.208396431E0,-1.230354786E0,9.620850086E-1,1.322608948E0
1.210962056E0,-1.197368026E0,9.266548753E-1,1.301839590E0
1.213531067E0,-1.196146369E0,8.716770411E-1,1.250526905E0
1.216096588E0,-1.227911353E0,8.020384312E-1,1.169892788E0
1.218663463E0,-1.285332561E0,7.116304636E-1,1.062380552E0
1.221232160E0,-1.352527738E0,5.980096459E-1,9.389859438E-1
1.223798515E0,-1.401396871E0,4.538455307E-1,8.204782009E-1
1.226368150E0,-1.418501139E0,2.766947746E-1,7.264050245E-1
1.228933358E0,-1.402618647E0,7.266595215E-2,6.665402651E-1
1.231500233E0,-1.362301588E0,-1.215890273E-1,6.408839822E-1
1.234069192E0,-1.307323694E0,-2.743052244E-1,6.372187734E-1
1.236611796E0,-1.254789352E0,-3.867043257E-1,6.201145649E-1
1.239179973E0,-1.215693951E0,-4.661167264E-1,5.736888647E-1
1.241746744E0,-1.193702817E0,-5.137641430E-1,4.967198670E-1
1.244313775E0,-1.190037727E0,-5.381987691E-1,4.002032578E-1
1.246881223E0,-1.198589802E0,-5.443074107E-1,2.963562310E-1
1.249447838E0,-1.208363652E0,-5.320900679E-1,2.022830844E-1
1.252015702E0,-1.216915727E0,-5.186510682E-1,1.228706762E-1
1.254582525E0,-1.226689577E0,-5.027685761E-1,5.567555502E-2
1.257150129E0,-1.230354786E0,-4.832209647E-1,6.977294688E-4
1.259717473E0,-1.224246144E0,-4.514559805E-1,-4.084107280E-2
1.262282265E0,-1.208363652E0,-4.086954594E-1,-7.504949719E-2
1.264836796E0,-1.183929086E0,-3.561610878E-1,-1.019275412E-1
1.267355910E0,-1.154607534E0,-3.011832535E-1,-1.178100258E-1
1.269873150E0,-1.122842550E0,-2.572010159E-1,-1.239186749E-1
1.272389817E0,-1.084968925E0,-2.217708379E-1,-1.300273240E-1
1.274907265E0,-1.044651866E0,-1.826754957E-1,-1.398011595E-1
1.277423931E0,-9.945608974E-1,-1.460236162E-1,-1.471315324E-1
1.279940858E0,-9.420265555E-1,-1.081500053E-1,-1.520184427E-1
1.282457994E0,-8.846052885E-1,-7.760676742E-2,-1.507967263E-1
1.284974869E0,-8.259622455E-1,-4.584180191E-2,-1.459098011E-1
1.287492265E0,-7.599888444E-1,-3.081270494E-3,-1.507967263E-1
1.290009088E0,-7.111197114E-1,5.067482591E-2,-1.569053680E-1
1.292525702E0,-6.720243692E-1,1.093178391E-1,-1.642357409E-1
1.295044088E0,-6.365941763E-1,1.569653004E-1,-1.654574722E-1
1.297559504E0,-6.121596098E-1,2.058344632E-1,-1.666792035E-1
1.300076744E0,-5.913901925E-1,2.400428951E-1,-1.691226661E-1
1.302594504E0,-5.718425512E-1,2.534818947E-1,-1.703443974E-1
1.305110181E0,-5.571817756E-1,2.681426704E-1,-1.776747704E-1
1.307627681E0,-5.376340747E-1,2.754730284E-1,-1.850051433E-1
1.310144504E0,-5.193081498E-1,2.791382372E-1,-1.947789788E-1
1.312659452E0,-4.997605085E-1,2.803599536E-1,-2.033310831E-1
1.315176015E0,-4.863215089E-1,2.791382372E-1,-2.167701125E-1
1.317695338E0,-4.802128077E-1,2.766947746E-1,-2.338743210E-1
1.320212733E0,-4.741041660E-1,2.791382372E-1,-2.473133504E-1
1.322729452E0,-4.692172408E-1,2.901337743E-1,-2.546437383E-1
1.325246535E0,-4.655520916E-1,3.060162663E-1,-2.631958425E-1
1.327763202E0,-4.594434500E-1,3.182335794E-1,-2.705262303E-1
1.330280285E0,-4.496695995E-1,3.414464295E-1,-2.778565884E-1
1.332797265E0,-4.386740327E-1,3.732113838E-1,-2.815217972E-1
1.335314035E0,-4.240132570E-1,3.890938759E-1,-2.839652598E-1
1.337831171E0,-4.008004069E-1,4.074198008E-1,-2.876304388E-1
1.340347942E0,-3.763658404E-1,4.342978597E-1,-2.900739014E-1
1.342864921E0,-3.482660651E-1,4.697280228E-1,-2.925173640E-1
1.345382317E0,-3.103924394E-1,5.051581860E-1,-2.925173640E-1
1.347899035E0,-2.639667392E-1,5.418100953E-1,-2.803000510E-1
1.350413619E0,-2.089889050E-1,5.833488703E-1,-2.644175589E-1
1.352930442E0,-1.515676230E-1,6.248877048E-1,-2.412046939E-1
1.355448254E0,-8.803768456E-2,6.664264798E-1,-2.131049186E-1
1.357964713E0,-2.695121244E-2,7.104087472E-1,-1.801182330E-1
1.360481535E0,3.047007322E-2,7.519475222E-1,-1.459098011E-1
1.362998515E0,8.666962385E-2,7.959297895E-1,-1.080361903E-1
1.365515494E0,1.404257268E-1,8.386903405E-1,-6.771911681E-2
1.368034504E0,1.917383522E-1,8.838943243E-1,-2.373685874E-2
1.370552733E0,2.418292612E-1,9.156593084E-1,2.513231896E-2
1.373068358E0,2.906984687E-1,9.352069497E-1,8.011014760E-2
1.375585806E0,3.334589601E-1,9.352069497E-1,1.314227730E-1
1.378103150E0,3.664456606E-1,9.229896665E-1,1.705181152E-1
1.380617942E0,3.835498691E-1,9.034420252E-1,1.986179054E-1
1.383135181E0,3.957671523E-1,8.790073991E-1,2.267176807E-1
1.385651848E0,4.055410028E-1,8.411337733E-1,2.523739934E-1
1.388167994E0,4.043192863E-1,8.118122816E-1,2.853606641E-1
1.390685390E0,3.921020031E-1,8.008167148E-1,3.317863941E-1
1.393202213E0,3.676673770E-1,8.008167148E-1,3.892076910E-1
1.395719921E0,3.236851096E-1,8.081470728E-1,4.539593458E-1
1.398235963E0,2.760376930E-1,8.203644156E-1,5.235979557E-1
1.400753098E0,2.198381275E-1,8.325816989E-1,5.969017148E-1
1.403270181E0,1.563082039E-1,8.399120569E-1,6.677620411E-1
1.405814869E0,9.155654162E-2,8.460206985E-1,7.361788750E-1
1.408304140E0,2.069623582E-2,8.399120569E-1,8.021522760E-1
1.410820806E0,-4.772061110E-2,8.191426396E-1,8.644604683E-1
1.413337838E0,-1.173591912E-1,7.934863567E-1,9.218817353E-1
1.415856067E0,-1.845543087E-1,7.678300142E-1,9.768595695E-1
1.418373775E0,-2.419755906E-1,7.482823730E-1,1.029393911E0
1.420891171E0,-2.884013057E-1,7.299563885E-1,1.077041268E0
1.423407942E0,-3.250532150E-1,7.226260304E-1,1.122245312E0
1.425925702E0,-3.531529903E-1,7.201825976E-1,1.160118937E0
1.428439504E0,-3.653702736E-1,7.250695229E-1,1.194327354E0
1.430956431E0,-3.665919900E-1,7.458388805E-1,1.224870563E0
1.433473931E0,-3.555964231E-1,7.788255811E-1,1.256635547E0
1.436016327E0,-3.287183642E-1,8.203644156E-1,1.290843964E0
1.438507369E0,-2.920665145E-1,8.680118322E-1,1.311613321E0
1.441025546E0,-2.505276799E-1,9.254330993E-1,1.320165515E0
1.443541275E0,-2.016585171E-1,9.950717092E-1,1.320165515E0
1.446058254E0,-1.466806978E-1,1.073262334E0,1.312835097E0
1.448575390E0,-8.437249810E-2,1.158783436E0,1.300617814E0
1.451092056E0,-2.084256522E-2,1.252856612E0,1.278626680E0
1.453611327E0,4.024390876E-2,1.355481863E0,1.250526905E0
1.456128358E0,1.001086533E-1,1.464215755E0,1.215096712E0
1.458645546E0,1.550864726E-1,1.575393200E0,1.174779654E0
1.461162108E0,2.088425756E-1,1.679240227E0,1.128353953E0
1.463679192E0,2.613769174E-1,1.781865478E0,1.081928253E0
1.466196067E0,3.139113188E-1,1.894264579E0,1.039167762E0
1.468713098E0,3.701108694E-1,2.013993979E0,1.008624434E0
1.471230025E0,4.311973453E-1,2.106845379E0,9.915203452E-1
1.473747265E0,4.947272539E-1,2.164266825E0,9.829682112E-1
1.476263879E0,5.607006550E-1,2.205805540E0,9.768595695E-1
1.478781119E0,6.291174889E-1,2.238792181E0,9.768595695E-1
1.481295650E0,7.048647404E-1,2.266891956E0,9.793030024E-1
1.483813306E0,7.769467831E-1,2.288883209E0,9.866334200E-1
1.486356848E0,8.551374674E-1,2.301100492E0,1.000072360E0
1.488848983E0,9.198890924E-1,2.329200268E0,1.007402778E0
1.491365806E0,9.809755683E-1,2.359743595E0,1.017176628E0
1.493882629E0,1.043283701E0,2.370738983E0,1.035502553E0
1.496399817E0,1.106813669E0,2.376847744E0,1.058715343E0
1.498917056E0,1.170343637E0,2.381734610E0,1.081928253E0
1.501433619E0,1.224099636E0,2.389065027E0,1.100254178E0
1.503951067E0,1.269303679E0,2.391508341E0,1.108806252E0
1.506495390E0,1.298625231E0,2.392730236E0,1.110028028E0
1.508984452E0,1.319394588E0,2.387843370E0,1.102697611E0
1.511499504E0,1.325503230E0,2.374404192E0,1.096588969E0
1.514016223E0,1.315729380E0,2.352413177E0,1.091702104E0
1.516535442E0,1.285186172E0,2.324313402E0,1.088036895E0
1.519052525E0,1.235095263E0,2.293770075E0,1.088036895E0
1.521569400E0,1.167900085E0,2.257118225E0,1.077041268E0
1.524086171E0,1.087265968E0,2.197253466E0,1.066045761E0
1.526600858E0,1.001744986E0,2.127614975E0,1.051385045E0
1.529118046E0,9.088935256E-1,2.089741230E0,1.034280777E0
1.531638046E0,8.038248420E-1,2.010328770E0,1.009846210E0
1.534154244E0,6.621041894E-1,1.906481862E0,9.719726443E-1
1.536696015E0,5.069445968E-1,1.781865478E0,9.353207946E-1
1.539187942E0,3.542283773E-1,1.636479616E0,9.096644521E-1
1.541706067E0,2.100643069E-1,1.472767949E0,8.876733184E-1
1.544221900E0,7.200887054E-2,1.291952014E0,8.681256771E-1
1.546739504E0,-6.482482702E-2,1.103805661E0,8.510214090E-1
1.549256588E0,-1.943281442E-1,9.205462337E-1,8.375824094E-1
1.551732681E0,-3.213880062E-1,7.433954477E-1,8.253651261E-1
1.554289817E0,-4.460043907E-1,5.699098706E-1,8.143695593E-1
1.556806640E0,-5.693990588E-1,3.964242637E-1,8.094826341E-1
1.559323671E0,-6.854633689E-1,2.461515516E-1,8.009305596E-1
1.561840806E0,-7.917538285E-1,1.142047569E-1,7.887132168E-1
1.564311119E0,-8.992660046E-1,-9.189917706E-3,7.911567092E-1
1.566828879E0,-9.872305393E-1,-1.179238409E-1,8.107043505E-1
1.569345077E0,-1.054425716E0,-2.071100771E-1,8.351389766E-1
1.571908775E0,-1.111847043E0,-2.681965530E-1,8.497996926E-1
1.574425598E0,-1.149720669E0,-3.109571040E-1,8.583518267E-1
1.576941952E0,-1.175376892E0,-3.146222830E-1,8.522431850E-1
1.579459713E0,-1.185150743E0,-3.011832535E-1,8.339172006E-1
1.581977473E0,-1.144833684E0,-2.999615371E-1,8.180347681E-1
1.584494192E0,-1.044651866E0,-3.036267161E-1,8.204782009E-1
1.587011119E0,-9.090398550E-1,-2.938528955E-1,8.253651261E-1
1.589528254E0,-7.428846359E-1,-2.804138660E-1,8.388041258E-1
1.592044452E0,-5.693990588E-1,-2.584227324E-1,8.473562598E-1
1.594561431E0,-4.179046154E-1,-2.168839127E-1,8.522431850E-1
1.597078671E0,-2.908447981E-1,-1.423584223E-1,8.510214090E-1
1.599595858E0,-1.784456670E-1,-2.385067195E-2,8.473562598E-1
1.602112160E0,-7.704211771E-2,1.056526527E-1,8.400258422E-1
1.604629296E0,3.780044615E-2,2.143865824E-1,8.412476182E-1
1.607172838E0,1.416474432E-1,3.365595043E-1,8.522431850E-1
1.609663202E0,2.393857986E-1,4.465151429E-1,8.693473935E-1
1.612180181E0,3.407893777E-1,5.149320364E-1,8.986688852E-1
1.614696848E0,4.360842705E-1,5.686881542E-1,9.328773022E-1
1.617214713E0,5.203835964E-1,6.285528541E-1,9.670857191E-1
1.619731327E0,5.949090719E-1,7.116304636E-1,9.780812860E-1
1.622247525E0,6.486651897E-1,7.702735066E-1,9.756378531E-1
1.624764817E0,6.828736067E-1,7.959297895E-1,9.768595695E-1
1.627281900E0,7.060864568E-1,7.837125063E-1,9.841899276E-1
1.629799192E0,7.121950984E-1,7.360650897E-1,9.890768528E-1
1.632316327E0,6.987560987E-1,6.798654795E-1,9.829682112E-1
1.634832421E0,6.706563234E-1,6.090052128E-1,9.695292115E-1
1.637350181E0,6.291174889E-1,5.222623944E-1,9.499815106E-1
1.639866588E0,5.704745054E-1,4.147501886E-1,9.243252277E-1
1.642384035E0,5.057228208E-1,2.852468789E-1,8.974471688E-1
1.644900963E0,4.348624945E-1,1.374176294E-1,8.766777515E-1
1.647417369E0,3.578935862E-1,-7.968188263E-3,8.546866179E-1
1.649934504E0,2.735942602E-1,-1.570191681E-1,8.229216337E-1
1.652451692E0,1.941818148E-1,-3.060701787E-1,7.838262916E-1
1.654968306E0,1.159911305E-1,-4.624515474E-1,7.471744418E-1
1.657485494E0,3.780044615E-2,-6.188328862E-1,7.117443085E-1
1.660002473E0,-3.916850686E-2,-7.654404044E-1,6.787576079E-1
1.662519452E0,-1.173591912E-1,-8.815047145E-1,6.506578326E-1
1.665036744E0,-1.906629652E-1,-9.767996073E-1,6.286666989E-1
1.667553463E0,-2.456407845E-1,-1.046438217E0,6.225580573E-1
1.670070025E0,-2.859578729E-1,-1.094085693E0,6.262232065E-1
1.672586952E0,-3.140576482E-1,-1.120963693E0,6.408839822E-1
1.675103879E0,-3.262749314E-1,-1.124628901E0,6.567664742E-1
1.677621067E0,-3.287183642E-1,-1.107524633E0,6.689837575E-1
1.680138463E0,-3.201662898E-1,-1.070872784E0,6.726489663E-1
1.682654973E0,-3.042837977E-1,-1.012229800E0,6.750923991E-1
1.685171640E0,-2.749623060E-1,-9.340390563E-1,6.726489663E-1
1.687689140E0,-2.346452177E-1,-8.387441635E-1,6.726489663E-1
1.690206431E0,-1.857760400E-1,-7.287885547E-1,6.640968323E-1
1.692722733E0,-1.295764893E-1,-6.066156030E-1,6.555446982E-1
1.695239713E0,-6.482482702E-2,-4.722253978E-1,6.469926238E-1
1.697756796E0,4.813753068E-3,-3.195092082E-1,6.372187734E-1
1.700273775E0,6.834368408E-2,-1.619060934E-1,6.250014901E-1
1.702790702E0,1.318736225E-1,-1.163337659E-2,6.140059233E-1
1.705307942E0,1.868514419E-1,1.215351298E-1,5.993451476E-1
1.707853254E0,2.344988883E-1,2.400428951E-1,5.822409391E-1
1.710341588E0,2.687073350E-1,3.475550711E-1,5.602498055E-1
1.712859192E0,2.955853343E-1,4.465151429E-1,5.333718061E-1
1.715376379E0,3.139113188E-1,5.393666029E-1,5.064937472E-1
1.717892890E0,3.261286020E-1,6.212224960E-1,4.820591211E-1
1.720409296E0,3.407893777E-1,6.908610463E-1,4.612897038E-1
1.722926223E0,3.554500937E-1,7.470606565E-1,4.454072416E-1
1.725396431E0,3.701108694E-1,7.922646403E-1,4.295247495E-1
1.727913410E0,3.762195110E-1,8.276947737E-1,4.185291827E-1
1.730477108E0,3.798847198E-1,8.582379818E-1,4.099770784E-1
1.732994192E0,3.835498691E-1,8.655683994E-1,4.050901532E-1
1.735511483E0,3.725543022E-1,8.276947737E-1,4.063118994E-1
1.738028150E0,3.432328105E-1,7.824907899E-1,4.197508991E-1
1.740545494E0,3.078026772E-1,7.458388805E-1,4.380768538E-1
1.743062369E0,2.674855590E-1,7.079653144E-1,4.551810622E-1
1.745578879E0,2.222815901E-1,6.639830470E-1,4.673983753E-1
1.748096067E0,1.697472334E-1,6.138921380E-1,4.710635543E-1
1.750612838E0,1.159911305E-1,5.552490950E-1,4.722852707E-1
1.753129452E0,6.345676631E-2,4.929408729E-1,4.710635543E-1
1.755646796E0,1.092240028E-2,4.269674718E-1,4.686200917E-1
1.758163879E0,-4.283369333E-2,3.561071754E-1,4.661766291E-1
1.760680546E0,-1.002549827E-1,2.876903415E-1,4.625114501E-1
1.763197838E0,-1.662283689E-1,2.314907908E-1,4.490724206E-1
1.765714713E0,-2.260931134E-1,1.679608524E-1,4.417420328E-1
1.768231848E0,-2.786274552E-1,1.032091901E-1,4.344116747E-1
1.770748358E0,-3.274966478E-1,5.067482591E-2,4.295247495E-1
1.773265754E0,-3.653702736E-1,5.839178339E-4,4.209726453E-1
1.775782838E0,-4.008004069E-1,-4.462007433E-2,4.124205410E-1
1.778299556E0,-4.301218987E-1,-8.615887165E-2,4.026466906E-1
1.780816379E0,-4.545565248E-1,-1.203672960E-1,3.916511238E-1
1.783333983E0,-4.753259420E-1,-1.533539891E-1,3.794338405E-1
1.785875285E0,-4.838780165E-1,-1.802320331E-1,3.684382737E-1
1.788367629E0,-4.912083745E-1,-1.863406748E-1,3.562209904E-1
1.790884192E0,-4.850997329E-1,-1.741233915E-1,3.378950357E-1
1.793401275E0,-4.679955244E-1,-1.484670639E-1,3.134604394E-1
1.795918150E0,-4.460043907E-1,-1.081500053E-1,2.816954851E-1
1.798435650E0,-4.142394662E-1,-4.950699210E-2,2.450436205E-1
1.800952317E0,-3.800310493E-1,2.257504687E-2,2.010613531E-1
1.803469035E0,-3.372704983E-1,1.142047569E-1,1.497487277E-1
1.805986067E0,-2.993968725E-1,2.058344632E-1,9.110570699E-2
1.808532785E0,-2.639667392E-1,2.925772369E-1,3.124096617E-2
1.811020806E0,-2.273148447E-1,3.854286969E-1,-3.228896484E-2
1.813536796E0,-2.089889050E-1,4.831670523E-1,-1.019275412E-1
1.816053827E0,-1.931064129E-1,5.772402287E-1,-1.715661138E-1
1.818570910E0,-1.833325773E-1,6.737568378E-1,-2.436481565E-1
1.821087733E0,-1.601197273E-1,7.800472975E-1,-3.218388557E-1
1.823604713E0,-1.479024291E-1,8.716770411E-1,-4.098033905E-1
1.826121796E0,-1.417937726E-1,9.437590837E-1,-4.989896119E-1
1.828638515E0,-1.369068623E-1,9.877413511E-1,-5.747368336E-1
1.831155963E0,-1.344633996E-1,9.987368584E-1,-6.382667422E-1
1.833672733E0,-1.393503249E-1,9.889630675E-1,-7.030184269E-1
1.836213931E0,-1.491241604E-1,9.718588591E-1,-7.677700520E-1
1.838706640E0,-1.698935628E-1,9.449808002E-1,-8.251913786E-1
1.841223306E0,-1.882195026E-1,9.071071744E-1,-8.765040040E-1
1.843741223E0,-2.163192779E-1,8.631249070E-1,-9.217079878E-1
1.846257421E0,-2.273148447E-1,8.252513409E-1,-9.534729719E-1
1.848774973E0,-2.431973219E-1,8.032602072E-1,-9.803509712E-1
1.851291119E0,-2.664101720E-1,7.531692982E-1,-1.003563881E0
1.853808306E0,-2.725188136E-1,6.908610463E-1,-1.025555015E0
1.856325754E0,-2.810709476E-1,6.419919133E-1,-1.041437507E0
1.858842213E0,-2.969534397E-1,6.077834964E-1,-1.054876566E0
1.861359035E0,-2.932882309E-1,5.809054375E-1,-1.071980715E0
1.863876223E0,-2.908447981E-1,5.576925874E-1,-1.089084983E0
1.866392994E0,-2.835143805E-1,5.332579613E-1,-1.114741325E0
1.868910442E0,-2.761840224E-1,5.124886036E-1,-1.144062757E0
1.871426952E0,-2.676318884E-1,4.929408729E-1,-1.175827742E0
1.873944140E0,-2.627450228E-1,4.758366644E-1,-1.208814502E0
1.876461067E0,-2.456407845E-1,4.672845602E-1,-1.240579486E0
1.878977994E0,-2.395321280E-1,4.733932018E-1,-1.273566127E0
1.881495285E0,-2.334234864E-1,5.320362449E-1,-1.308996320E0
1.884011848E0,-2.346452177E-1,5.845705867E-1,-1.345648170E0
1.886552838E0,-2.395321280E-1,6.041182876E-1,-1.383521795E0
1.889045806E0,-2.395321280E-1,6.493222713E-1,-1.420173645E0
1.891562942E0,-2.431973219E-1,7.116304636E-1,-1.455603838E0
1.894080025E0,-2.419755906E-1,7.861559987E-1,-1.503251314E0
1.896596796E0,-2.419755906E-1,8.643466830E-1,-1.559450865E0
1.899114348E0,-2.554146051E-1,9.669719338E-1,-1.625424147E0
1.901630806E0,-2.884013057E-1,1.109914303E0,-1.706058383E0
1.904147681E0,-3.409357071E-1,1.260187030E0,-1.790357709E0
1.906664660E0,-3.873614073E-1,1.408016205E0,-1.878322244E0
1.909199660E0,-4.191263914E-1,1.537519574E0,-1.960178018E0
1.911698619E0,-4.227915406E-1,1.643810034E0,-2.023708105E0
1.914215546E0,-4.203481078E-1,1.732996345E0,-2.071355343E0
1.916732577E0,-4.069090486E-1,1.827069402E0,-2.110450745E0
1.919249556E0,-3.836961985E-1,1.922364354E0,-2.145880938E0
1.921719765E0,-3.617050648E-1,2.007885456E0,-2.177645922E0
1.924236848E0,-3.409357071E-1,2.104402065E0,-2.211854219E0
1.926801379E0,-3.091707230E-1,2.210692406E0,-2.246062756E0
1.929317317E0,-2.712970972E-1,2.304765701E0,-2.280271292E0
1.931834348E0,-2.297583073E-1,2.391508341E0,-2.307149172E0
1.934351744E0,-1.857760400E-1,2.490468502E0,-2.338914156E0
1.936868515E0,-1.332416832E-1,2.600424290E0,-2.370679140E0
1.939385181E0,-8.437249810E-2,2.712823391E0,-2.403665781E0
1.941902733E0,-2.817294188E-2,2.819113731E0,-2.437874317E0
1.944419296E0,2.558315545E-2,2.931512833E0,-2.479413033E0
1.946936327E0,7.200887054E-2,3.042690277E0,-2.530725718E0
1.949453254E0,1.330953389E-1,3.152645826E0,-2.585703611E0
1.951970181E0,1.746341437E-1,3.254049540E0,-2.638237953E0
1.954486796E0,2.149512172E-1,3.353009462E0,-2.689550638E0
1.957004088E0,2.589334846E-1,3.447082758E0,-2.746971846E0
1.959520858E0,2.797029018E-1,3.539934158E0,-2.809279919E0
1.962038358E0,3.053591847E-1,3.612016201E0,-2.874031782E0
1.964555129E0,3.310155272E-1,3.666994095E0,-2.929009438E0
1.967072525E0,3.481197357E-1,3.721971750E0,-2.981543779E0
1.969588879E0,3.591153026E-1,3.768397570E0,-3.038965225E0
1.972105910E0,3.725543022E-1,3.789166927E0,-3.087834358E0
1.974622994E0,3.798847198E-1,3.794053793E0,-3.131816626E0
1.977139765E0,3.884367943E-1,3.787945271E0,-3.166024923E0
1.979656692E0,3.933237195E-1,3.770840883E0,-3.189237833E0
1.982173671E0,3.811064363E-1,3.739076138E0,-3.199011803E0
1.984690546E0,3.725543022E-1,3.688985109E0,-3.206342220E0
1.987207525E0,3.627804518E-1,3.623011827E0,-3.212450743E0
1.989724608E0,3.530066609E-1,3.544821024E0,-3.212450743E0
1.992241431E0,3.481197357E-1,3.449526072E0,-3.211229086E0
1.994758515E0,3.395676017E-1,3.350566149E0,-3.205120325E0
1.997275390E0,3.200199604E-1,3.244275570E0,-3.197789907E0
1.999792265E0,2.894766927E-1,3.117215633E0,-3.190459728E0
2.002309348E0,2.662638426E-1,2.981603861E0,-3.180685759E0
2.004826119E0,2.393857986E-1,2.837439775E0,-3.169690132E0
2.007343671E0,2.161729485E-1,2.679836512E0,-3.156251192E0
2.009888827E0,1.746341437E-1,2.510016203E0,-3.137925148E0
2.012376952E0,1.245432347E-1,2.323091507E0,-3.108603716E0
2.014893879E0,7.323060185E-2,2.119062901E0,-3.069508314E0
2.017410754E0,1.214412972E-2,1.905260086E0,-3.025526047E0
2.019928046E0,-5.138580129E-2,1.693900943E0,-2.980322123E0
2.022445598E0,-1.088070869E-1,1.487428665E0,-2.936339855E0
2.024915494E0,-1.650066376E-1,1.291952014E0,-2.899688005E0
2.027479296E0,-2.126540840E-1,1.111135960E0,-2.870366573E0
2.029995754E0,-2.627450228E-1,9.449808002E-1,-2.843488455E0
2.032512838E0,-3.091707230E-1,7.898211479E-1,-2.821497440E0
2.035029608E0,-3.494877815E-1,6.444353461E-1,-2.798284531E0
2.037546692E0,-3.812527657E-1,5.124886036E-1,-2.779958487E0
2.040063671E0,-4.069090486E-1,3.988676965E-1,-2.756745577E0
2.042580650E0,-4.325653911E-1,3.047945499E-1,-2.731089354E0
2.045097629E0,-4.472261667E-1,2.241604179E-1,-2.705433130E0
2.047614504E0,-4.582217336E-1,1.533001065E-1,-2.683441877E0
2.050131535E0,-4.582217336E-1,9.587881714E-2,-2.660228968E0
2.052650077E0,-4.594434500E-1,4.456617683E-2,-2.635794401E0
2.055165494E0,-4.545565248E-1,-4.302999936E-3,-2.606472969E0
2.057682629E0,-4.472261667E-1,-4.706352949E-2,-2.575929642E0
2.060200077E0,-4.398957491E-1,-7.638503611E-2,-2.553938627E0
2.062716588E0,-4.350088239E-1,-9.959789366E-2,-2.531947374E0
2.065233098E0,-4.240132570E-1,-1.130369231E-1,-2.512399673E0
2.067750285E0,-4.105742574E-1,-1.142586544E-1,-2.500182390E0
2.070267629E0,-4.020221233E-1,-1.105934605E-1,-2.502625942E0
2.072784192E0,-3.922483325E-1,-1.105934605E-1,-2.512399673E0
2.075301119E0,-3.885831237E-1,-1.179238409E-1,-2.527060509E0
2.077818046E0,-3.800310493E-1,-1.252542138E-1,-2.542943001E0
2.080335025E0,-3.775875568E-1,-1.289193928E-1,-2.560047150E0
2.082852421E0,-3.653702736E-1,-1.338063180E-1,-2.577151537E0
2.085368827E0,-3.592616320E-1,-1.496887952E-1,-2.599142551E0
2.087885546E0,-3.568181396E-1,-1.826754957E-1,-2.610138178E0
2.090400442E0,-3.494877815E-1,-2.119970024E-1,-2.621133804E0
2.092918306E0,-3.519312143E-1,-2.547575533E-1,-2.628463984E0
2.095434713E0,-3.641485572E-1,-3.072918952E-1,-2.629685879E0
2.097951588E0,-3.788092732E-1,-3.671566546E-1,-2.626020670E0
2.100468775E0,-3.971352577E-1,-4.367952347E-1,-2.618690252E0
2.102987577E0,-4.166828990E-1,-5.088772178E-1,-2.611359835E0
2.105505598E0,-4.374523163E-1,-5.760723352E-1,-2.613803387E0
2.108021692E0,-4.643303752E-1,-6.469326615E-1,-2.618690252E0
2.110563879E0,-4.997605085E-1,-7.141277790E-1,-2.630907536E0
2.113055233E0,-5.315254331E-1,-7.837663889E-1,-2.643124819E0
2.115572681E0,-5.681773424E-1,-8.485180140E-1,-2.654120445E0
2.118042994E0,-6.048292518E-1,-9.169348478E-1,-2.657785654E0
2.120559869E0,-6.439245939E-1,-9.792430997E-1,-2.666337729E0
2.123124973E0,-6.805764437E-1,-1.047659874E0,-2.665116072E0
2.125640390E0,-7.160065770E-1,-1.116076827E0,-2.661450863E0
2.128157317E0,-7.453281283E-1,-1.182050109E0,-2.651676893E0
2.130673671E0,-7.722061276E-1,-1.255353928E0,-2.638237953E0
2.133188983E0,-8.027493954E-1,-1.321327329E0,-2.616246700E0
2.135708515E0,-8.247405291E-1,-1.376305103E0,-2.597920895E0
2.138224660E0,-8.430664539E-1,-1.415400505E0,-2.574707985E0
2.140742004E0,-8.540620208E-1,-1.442278504E0,-2.552716732E0
2.143258983E0,-8.565055132E-1,-1.461826205E0,-2.531947374E0
2.145775806E0,-8.638358712E-1,-1.474043489E0,-2.508734703E0
2.148293098E0,-8.699445128E-1,-1.485039115E0,-2.490408659E0
2.150809921E0,-8.711662292E-1,-1.505808473E0,-2.474526167E0
2.153326692E0,-8.711662292E-1,-1.524134398E0,-2.464752436E0
2.155843723E0,-8.772748709E-1,-1.533908248E0,-2.462308884E0
2.158360963E0,-8.870487213E-1,-1.544903755E0,-2.469639301E0
2.160894192E0,-9.041529298E-1,-1.560786247E0,-2.485521793E0
2.163394817E0,-9.139267802E-1,-1.558342814E0,-2.500182390E0
2.165911848E0,-9.200354218E-1,-1.533908248E0,-2.509956360E0
2.168426588E0,-9.163702130E-1,-1.474043489E0,-2.513621569E0
2.170945702E0,-9.114832878E-1,-1.393409371E0,-2.512399673E0
2.173463306E0,-9.041529298E-1,-1.311553478E0,-2.497739077E0
2.175979452E0,-8.931573629E-1,-1.227254152E0,-2.475747824E0
2.178496535E0,-8.907139301E-1,-1.144176602E0,-2.451313257E0
2.181013463E0,-8.882704377E-1,-1.069651008E0,-2.418326616E0
2.183528150E0,-8.980442882E-1,-1.008564591E0,-2.373122692E0
2.186072577E0,-9.053746462E-1,-9.450346231E-1,-2.314479589E0
2.188564400E0,-9.102615714E-1,-8.851699233E-1,-2.246062756E0
2.191081119E0,-9.175919890E-1,-8.191965222E-1,-2.177645922E0
2.193598306E0,-9.298092723E-1,-7.300102711E-1,-2.103120327E0
2.196114921E0,-9.383613467E-1,-6.090590358E-1,-2.026151419E0
2.198630285E0,-9.469134808E-1,-4.661167264E-1,-1.957734585E0
2.201147056E0,-9.542438388E-1,-3.243961334E-1,-1.891761184E0
2.203665963E0,-9.566873312E-1,-1.851189584E-1,-1.825787783E0
2.206183306E0,-9.603524804E-1,-5.195044726E-2,-1.759814501E0
2.208697838E0,-9.640176892E-1,7.388768345E-2,-1.698727965E0
2.211244921E0,-9.689046144E-1,1.777346879E-1,-1.646193624E0
2.213733983E0,-9.786784053E-1,2.522601783E-1,-1.599767923E0
2.216252004E0,-9.908957481E-1,2.913555205E-1,-1.561894298E0
2.218767994E0,-9.970043898E-1,2.925772369E-1,-1.532572746E0
2.221285546E0,-1.009221673E0,2.559253573E-1,-1.502029538E0
2.223802160E0,-1.015330434E0,2.009475529E-1,-1.475151539E0
2.226318827E0,-1.022660732E0,1.374176294E-1,-1.447051764E0
2.228835702E0,-1.016552091E0,7.266595215E-2,-1.421395421E0
2.231352785E0,-1.017773867E0,3.027376719E-3,-1.399404287E0
2.233870181E0,-1.015330434E0,-5.561563745E-2,-1.377413154E0
2.236411327E0,-1.008000016E0,-1.008196250E-1,-1.357865453E0
2.238926431E0,-9.945608974E-1,-1.484670639E-1,-1.339539528E0
2.241444088E0,-9.823436141E-1,-1.961145103E-1,-1.321213603E0
2.243962056E0,-9.689046144E-1,-2.388750464E-1,-1.308996320E0
2.246476952E0,-9.530221224E-1,-2.706400156E-1,-1.302887678E0
2.249007160E0,-9.273657799E-1,-2.962963581E-1,-1.299222469E0
2.251509973E0,-9.065964222E-1,-3.072918952E-1,-1.295557261E0
2.254027785E0,-8.858270049E-1,-3.170657456E-1,-1.290670395E0
2.256546640E0,-8.552837372E-1,-3.390568793E-1,-1.289448619E0
2.259062525E0,-8.186318874E-1,-3.463872373E-1,-1.285783410E0
2.261580650E0,-7.868669033E-1,-3.317264915E-1,-1.284561634E0
2.264097160E0,-7.538802028E-1,-3.048484623E-1,-1.291892052E0
2.266611692E0,-7.208935022E-1,-2.718617618E-1,-1.304109335E0
2.269128254E0,-6.940154433E-1,-2.376533151E-1,-1.318770170E0
2.271648098E0,-6.659156680E-1,-2.058883458E-1,-1.330987453E0
2.274164192E0,-6.414811015E-1,-1.729016602E-1,-1.344426394E0
2.276682108E0,-6.158247590E-1,-1.240324900E-1,-1.362752318E0
2.279198410E0,-5.852815509E-1,-7.760676742E-2,-1.377413154E0
2.281713931E0,-5.657339096E-1,-3.240277618E-2,-1.389630437E0
2.284232994E0,-5.498514175E-1,1.646640152E-2,-1.400625944E0
2.286748775E0,-5.290820003E-1,6.900076568E-2,-1.407956362E0
2.289267213E0,-5.034257174E-1,1.142047569E-1,-1.411621571E0
2.291782421E0,-4.899866581E-1,1.594087481E-1,-1.411621571E0
2.294301431E0,-4.679955244E-1,1.899519861E-1,-1.410399795E0
2.296816379E0,-4.484478831E-1,2.094996572E-1,-1.403069496E0
2.299334817E0,-4.350088239E-1,2.119431198E-1,-1.387187004E0
2.301851171E0,-4.203481078E-1,2.082779258E-1,-1.368860960E0
2.304368619E0,-4.008004069E-1,1.923954487E-1,-1.346869946E0
2.306883983E0,-3.898048401E-1,1.642956734E-1,-1.322435260E0
2.309400910E0,-3.775875568E-1,1.349741668E-1,-1.298000693E0
2.311920858E0,-3.617050648E-1,1.044309214E-1,-1.271122694E0
2.314489088E0,-3.470443487E-1,3.967925906E-2,-1.216144800E0
2.317056796E0,-3.323835731E-1,9.136023931E-3,-1.188045025E0
2.319601692E0,-3.287183642E-1,-2.385067195E-2,-1.162388802E0
2.322191171E0,-3.262749314E-1,-6.172428280E-2,-1.140397668E0
2.324758723E0,-3.250532150E-1,-9.959789366E-2,-1.122071624E0
2.327327160E0,-3.238314390E-1,-1.448018849E-1,-1.107410908E0
2.329895442E0,-3.262749314E-1,-1.765668392E-1,-1.100080490E0
2.332461900E0,-3.262749314E-1,-2.071100771E-1,-1.098858833E0
2.335029504E0,-3.287183642E-1,-2.327664047E-1,-1.100080490E0
2.337594921E0,-3.287183642E-1,-2.523140907E-1,-1.100080490E0
2.340163983E0,-3.274966478E-1,-2.706400156E-1,-1.102524042E0
2.342729192E0,-3.384922147E-1,-2.828573287E-1,-1.101302266E0
2.345297473E0,-3.409357071E-1,-2.938528955E-1,-1.097637057E0
2.347865702E0,-3.531529903E-1,-3.060701787E-1,-1.090306759E0
2.350408723E0,-3.690354824E-1,-3.158440292E-1,-1.084198117E0
2.352975702E0,-3.885831237E-1,-3.256178498E-1,-1.071980715E0
2.355542942E0,-4.093525410E-1,-3.292830288E-1,-1.054876566E0
2.358110910E0,-4.264567494E-1,-3.317264915E-1,-1.031663656E0
2.360677681E0,-4.472261667E-1,-3.280613124E-1,-1.006007433E0
2.363245546E0,-4.569999576E-1,-3.195092082E-1,-9.766858220E-1
2.365812213E0,-4.741041660E-1,-3.048484623E-1,-9.461425543E-1
2.368378983E0,-4.985387921E-1,-2.804138660E-1,-9.119341373E-1
2.370946640E0,-5.278602839E-1,-2.449836880E-1,-8.813909292E-1
2.373513983E0,-5.510731339E-1,-2.022231668E-1,-8.496259451E-1
2.376081379E0,-5.657339096E-1,-1.509105265E-1,-8.215261698E-1
2.378649244E0,-5.877249837E-1,-9.226752073E-2,-7.922046781E-1
2.381213150E0,-5.974988341E-1,-3.240277618E-2,-7.641049027E-1
2.383782785E0,-6.109378934E-1,2.746196464E-2,-7.396702766E-1
2.386350494E0,-6.231551766E-1,8.977016807E-2,-7.189009190E-1
2.388917629E0,-6.304855347E-1,1.386393458E-1,-7.042401433E-1
2.391484921E0,-6.414811015E-1,1.752912402E-1,-6.920228601E-1
2.394052525E0,-6.512549520E-1,2.119431198E-1,-6.834707260E-1
2.396619660E0,-6.659156680E-1,2.327125221E-1,-6.785838008E-1
2.399187004E0,-6.781330109E-1,2.363777012E-1,-6.773620844E-1
2.401754088E0,-6.805764437E-1,2.388211638E-1,-6.773620844E-1
2.404321171E0,-6.732460856E-1,2.363777012E-1,-6.785838008E-1
2.406888827E0,-6.622505188E-1,2.327125221E-1,-6.822490096E-1
2.409455910E0,-6.488114595E-1,2.107213885E-1,-6.846924424E-1
2.412050442E0,-6.219334602E-1,1.679608524E-1,-6.846924424E-1
2.414591119E0,-5.938336849E-1,1.129830256E-1,-6.834707260E-1
2.417157525E0,-5.461862087E-1,4.578790814E-2,-6.736969352E-1
2.419725338E0,-5.070908666E-1,-4.339834303E-2,-6.517058015E-1
2.422292629E0,-4.692172408E-1,-1.362497658E-1,-6.248277426E-1
2.424859817E0,-4.374523163E-1,-2.181056440E-1,-5.942844748E-1
2.427427317E0,-4.032438993E-1,-2.950746119E-1,-5.564109087E-1
2.429994035E0,-3.898048401E-1,-3.659349382E-1,-5.160937905E-1
2.432561744E0,-3.592616320E-1,-4.416821599E-1,-4.684464037E-1
2.435128827E0,-3.446008563E-1,-5.113207102E-1,-4.232423902E-1
2.437696067E0,-3.372704983E-1,-5.675202608E-1,-3.792601526E-1
2.440261900E0,-3.384922147E-1,-6.090590358E-1,-3.438299894E-1
2.442779452E0,-3.360487819E-1,-6.432674527E-1,-3.218388557E-1
2.445294869E0,-3.336052895E-1,-6.652585864E-1,-3.145084679E-1
2.447811379E0,-3.311618567E-1,-6.750324368E-1,-3.206171393E-1
2.450326379E0,-3.568181396E-1,-6.567065120E-1,-3.401648104E-1
2.452843046E0,-4.020221233E-1,-6.017286777E-1,-3.792601526E-1
2.455362681E0,-4.179046154E-1,-5.553029776E-1,-4.269075990E-1
2.457879817E0,-5.046474338E-1,-4.991034269E-1,-4.989896119E-1
2.460396848E0,-5.510731339E-1,-4.722253978E-1,-5.564109087E-1
2.462913619E0,-6.268203259E-1,-4.551211596E-1,-5.661846995E-1
2.465435077E0,-8.601706624E-1,-4.209127426E-1,-5.405284166E-1
2.467947473E0,-9.676828980E-1,-4.319083095E-1,-5.136503577E-1
2.470464504E0,-1.186372519E0,-4.441256225E-1,-5.319762826E-1
2.472981588E0,-1.290219545E0,-4.551211596E-1,-5.930627584E-1
2.475498306E0,-1.396510005E0,-4.710036516E-1,-6.333798170E-1
2.478015494E0,-1.541895747E0,-5.333118439E-1,-6.321581006E-1
2.480530181E0,-1.510130763E0,-6.469326615E-1,-6.211625338E-1
2.483049504E0,-1.482030988E0,-7.813228965E-1,-5.539674163E-1
2.485567004E0,-1.405062079E0,-1.014673233E0,-4.843288660E-1
2.488081379E0,-1.329314828E0,-1.278566837E0,-4.281293154E-1
2.490600338E0,-4.350088239E-1,-1.734271884E0,-3.890339732E-1
2.493117265E0,-1.088070869E-1,-1.802688718E0,-2.803000510E-1
2.495634140E0,8.666962385E-2,-1.726941466E0,-2.033310831E-1
2.498151744E0,7.323060185E-2,-1.339653254E0,-1.886703372E-1
2.500668098E0,2.063991129E-1,-1.009786367E0,-2.179918438E-1
2.503185338E0,1.111042127E-1,-7.629969716E-1,-2.485350817E-1
2.505701952E0,1.074390262E-1,-5.760723352E-1,-2.644175589E-1
2.508216848E0,1.465343684E-1,-4.367952347E-1,-2.497567981E-1
2.510689035E0,1.416474432E-1,-2.816355824E-1,-2.167701125E-1
2.513206067E0,1.135476753E-1,-1.313628554E-1,-1.691226661E-1
2.515770858E0,1.025521085E-1,3.234888241E-2,-1.153665632E-1
2.518287890E0,1.074390262E-1,1.386393458E-1,-6.649738550E-2
2.520803671E0,7.933925092E-2,2.241604179E-1,-2.373685874E-2
2.523320754E0,5.123947188E-2,3.231204748E-1,8.028105833E-3
2.525838254E0,4.390909523E-2,4.233022928E-1,3.124096617E-2
2.528354869E0,3.902217746E-2,4.843887687E-1,4.956690967E-2
2.530871483E0,1.947450638E-2,5.344796777E-1,6.667111814E-2
2.533388827E0,4.813753068E-3,5.845705867E-1,7.888841629E-2
2.535905546E0,-9.847000241E-3,6.102269292E-1,8.621878922E-2
2.538422525E0,-2.328602411E-2,6.065617204E-1,8.988398314E-2
2.540939713E0,-3.916850686E-2,5.919010043E-1,8.866225183E-2
2.543456483E0,-6.115963683E-2,5.711315870E-1,8.255360276E-2
2.545973358E0,-8.192903548E-2,5.259276032E-1,6.911458075E-2
2.548491067E0,-9.536805749E-2,4.733932018E-1,4.834517837E-2
2.551029765E0,-1.014767066E-1,4.245240390E-1,2.513231896E-2
2.553525181E0,-1.112505421E-1,3.768765628E-1,6.977294688E-4
2.556041067E0,-1.173591912E-1,3.316725791E-1,-2.740204707E-2
2.558557994E0,-1.136940047E-1,3.047945499E-1,-6.283219904E-2
2.561075338E0,-1.088070869E-1,2.828034163E-1,-9.704062343E-2
2.563592838E0,-1.075853556E-1,2.754730284E-1,-1.288055927E-1
2.566109192E0,-9.536805749E-2,2.742513120E-1,-1.556836367E-1
2.568625858E0,-7.948558033E-2,2.791382372E-1,-1.715661138E-1
2.571143567E0,-5.993790925E-2,2.803599536E-1,-1.788965017E-1
2.573659817E0,-4.527715594E-2,2.925772369E-1,-1.788965017E-1
2.576177473E0,-2.572948299E-2,3.060162663E-1,-1.764530391E-1
2.578694140E0,-1.229045913E-2,3.206770122E-1,-1.715661138E-1
2.581208671E0,-1.294894144E-3,3.304508626E-1,-1.703443974E-1
2.583727942E0,6.035482511E-3,3.438898921E-1,-1.679009348E-1
2.586244973E0,1.825277694E-2,3.524419963E-1,-1.679009348E-1
2.588760233E0,1.825277694E-2,3.634375632E-1,-1.691226661E-1
2.591279088E0,2.191796526E-2,3.707679212E-1,-1.727878451E-1
2.593795806E0,1.703104749E-2,3.829852343E-1,-1.776747704E-1
2.596312994E0,9.700670838E-3,3.939808011E-1,-1.813399643E-1
2.598830963E0,-3.738353029E-3,4.025329053E-1,-1.862268746E-1
2.601346900E0,-1.229045913E-2,4.086415470E-1,-1.935572475E-1
2.603863723E0,-2.695121244E-2,4.135284722E-1,-1.972224414E-1
2.606380598E0,-4.039023817E-2,4.110850096E-1,-1.984441727E-1
2.608897317E0,-5.627271906E-2,4.110850096E-1,-2.008876354E-1
2.611414504E0,-6.971174479E-2,4.074198008E-1,-2.008876354E-1
2.613933410E0,-8.437249810E-2,4.000894427E-1,-1.996659040E-1
2.616448671E0,-9.903325140E-2,3.927590549E-1,-1.972224414E-1
2.618965285E0,-1.124722734E-1,3.866504133E-1,-1.960007101E-1
2.621482108E0,-1.246895641E-1,3.780983090E-1,-1.923355162E-1
2.623999400E0,-1.369068623E-1,3.683244586E-1,-1.898920685E-1
2.626516171E0,-1.479024291E-1,3.597723544E-1,-1.874486059E-1
2.629034296E0,-1.527893394E-1,3.597723544E-1,-1.874486059E-1
2.631550338E0,-1.552328020E-1,3.622158170E-1,-1.923355162E-1
2.634068046E0,-1.564545333E-1,3.695462048E-1,-1.947789788E-1
2.636584244E0,-1.552328020E-1,3.780983090E-1,-2.033310831E-1
2.639101327E0,-1.527893394E-1,3.890938759E-1,-2.118831873E-1
2.641618619E0,-1.515676230E-1,3.964242637E-1,-2.241004854E-1
2.644135233E0,-1.515676230E-1,3.964242637E-1,-2.314308584E-1
2.646652629E0,-1.527893394E-1,3.939808011E-1,-2.412046939E-1
2.649169348E0,-1.540110707E-1,3.903155923E-1,-2.473133504E-1
2.651708827E0,-1.576762646E-1,3.842069507E-1,-2.522002757E-1
2.654201015E0,-1.601197273E-1,3.829852343E-1,-2.583089173E-1
2.656718931E0,-1.662283689E-1,3.829852343E-1,-2.631958425E-1
2.659235442E0,-1.723370105E-1,3.829852343E-1,-2.693044841E-1
2.661754088E0,-1.808891147E-1,3.854286969E-1,-2.778565884E-1
2.664271900E0,-1.918846816E-1,3.890938759E-1,-2.851869762E-1
2.666788410E0,-2.041019797E-1,3.927590549E-1,-2.937390804E-1
2.669304817E0,-2.187627405E-1,4.013111591E-1,-3.022911847E-1
2.671822369E0,-2.370886803E-1,4.098632634E-1,-3.132867515E-1
2.674338619E0,-2.554146051E-1,4.196371138E-1,-3.242823184E-1
2.676855754E0,-2.761840224E-1,4.330761433E-1,-3.340561390E-1
2.679373306E0,-2.957316637E-1,4.489586055E-1,-3.450517058E-1
2.681890598E0,-3.152793646E-1,4.648410976E-1,-3.548255563E-1
2.684406535E0,-3.384922147E-1,4.856104851E-1,-3.609341979E-1
2.686923358E0,-3.617050648E-1,5.112668276E-1,-3.682645857E-1
2.689440546E0,-3.849179149E-1,5.357014537E-1,-3.755949438E-1
2.691957733E0,-4.032438993E-1,5.638012290E-1,-3.804818690E-1
2.694475390E0,-4.227915406E-1,5.894575119E-1,-3.817035854E-1
2.696991692E0,-4.398957491E-1,6.175572872E-1,-3.829253316E-1
2.699507213E0,-4.545565248E-1,6.419919133E-1,-3.829253316E-1
2.702049817E0,-4.692172408E-1,6.639830470E-1,-3.829253316E-1
2.704542890E0,-4.753259420E-1,6.786437631E-1,-3.829253316E-1
2.707013046E0,-4.789910913E-1,6.908610463E-1,-3.829253316E-1
2.709529765E0,-4.777693748E-1,6.981914639E-1,-3.792601526E-1
2.712093254E0,-4.704390168E-1,6.994131804E-1,-3.731514812E-1
2.714611015E0,-4.533348083E-1,6.896393299E-1,-3.645993769E-1
2.717127265E0,-4.386740327E-1,6.762003303E-1,-3.523820937E-1
2.719644556E0,-4.203481078E-1,6.627612710E-1,-3.401648104E-1
2.722161119E0,-3.898048401E-1,6.383267045E-1,-3.267257810E-1
2.724677525E0,-3.531529903E-1,6.016747952E-1,-3.145084679E-1
2.727195129E0,-3.116141558E-1,5.479187369E-1,-2.998477221E-1
2.729712890E0,-2.688536644E-1,4.856104851E-1,-2.827435136E-1
2.732229140E0,-2.248713821E-1,4.159719050E-1,-2.668610215E-1
2.734745702E0,-1.833325773E-1,3.390029669E-1,-2.497567981E-1
2.737262942E0,-1.405720562E-1,2.608122826E-1,-2.326525897E-1
2.739779817E0,-9.781152010E-2,1.875085235E-1,-2.131049186E-1
2.742296640E0,-5.138580129E-2,1.154264882E-1,-1.947789788E-1
2.744814035E0,-6.181811914E-3,5.556174368E-2,-1.740095764E-1
2.747330806E0,4.024390876E-2,1.524467114E-2,-1.544619054E-1
2.749847838E0,9.033481777E-2,-9.189917706E-3,-1.349142343E-1
2.752388463E0,1.416474432E-1,-1.774202287E-2,-1.178100258E-1
2.754881744E0,1.929600835E-1,-1.652029529E-2,-1.055927277E-1
2.757398619E0,2.406075448E-1,-1.285510603E-2,-9.826235473E-2
2.759915702E0,2.858115435E-1,-5.524729379E-3,-9.215370566E-2
2.762433202E0,3.285720348E-1,3.027376719E-3,-8.726678789E-2
2.764949660E0,3.615587354E-1,1.890986040E-2,-8.237987012E-2
2.767467160E0,3.933237195E-1,3.357060999E-2,-7.993641496E-2
2.769981171E0,4.214234948E-1,4.578790814E-2,-7.749295235E-2
2.772498202E0,4.434146285E-1,5.434001237E-2,-7.382776588E-2
2.775015963E0,4.629622698E-1,6.655731052E-2,-6.894084811E-2
2.777531952E0,4.788447618E-1,7.755286992E-2,-6.527566165E-2
2.780049504E0,4.898403287E-1,8.121805638E-2,-6.038874388E-2
2.782566171E0,4.971707463E-1,7.877460122E-2,-5.672355369E-2
2.785085442E0,5.045011044E-1,7.388768345E-2,-5.061490834E-2
2.787602160E0,5.069445968E-1,7.388768345E-2,-4.572799057E-2
2.790119088E0,4.971707463E-1,8.121805638E-2,-4.328452796E-2
2.792636275E0,4.837316871E-1,9.221362323E-2,-3.961934149E-2
2.795153150E0,4.654057622E-1,1.044309214E-1,-3.839761019E-2
2.797670129E0,4.446363449E-1,1.154264882E-1,-3.839761019E-2
2.800187056E0,4.238669276E-1,1.288655102E-1,-3.961934149E-2
2.802704400E0,3.969889283E-1,1.410828084E-1,-4.084107280E-2
2.805221223E0,3.652239442E-1,1.545218378E-1,-4.817144573E-2
2.807738306E0,3.322372437E-1,1.704043150E-1,-5.794528127E-2
2.810254869E0,2.980288267E-1,1.813998818E-1,-6.894084811E-2
2.812769556E0,2.638204098E-1,1.862867922E-1,-7.993641496E-2
2.815286483E0,2.320554256E-1,1.899519861E-1,-9.337543696E-2
2.817805650E0,2.002904564E-1,1.911737174E-1,-1.043710038E-1
2.820322942E0,1.673037708E-1,1.960606426E-1,-1.153665632E-1
2.822839817E0,1.343170702E-1,1.997258216E-1,-1.263621300E-1
2.825356640E0,1.037738398E-1,2.058344632E-1,-1.361359656E-1
2.827873827E0,7.323060185E-2,2.180517614E-1,-1.410228908E-1
2.830390390E0,4.146563634E-2,2.278255969E-1,-1.459098011E-1
2.832907890E0,1.580931805E-2,2.339342535E-1,-1.459098011E-1
2.835424608E0,-3.738353029E-3,2.437080890E-1,-1.422446221E-1
2.837942317E0,-2.206429467E-2,2.449298054E-1,-1.385794282E-1
2.840458410E0,-4.283369333E-2,2.534818947E-1,-1.349142343E-1
2.842976119E0,-6.726828218E-2,2.571471035E-1,-1.385794282E-1
2.845492785E0,-9.048114717E-2,2.302690595E-1,-1.483532637E-1
2.848010963E0,-1.088070869E-1,2.168300301E-1,-1.556836367E-1
2.850526483E0,-1.283547580E-1,2.180517614E-1,-1.581270993E-1
2.853043098E0,-1.454589665E-1,2.217169553E-1,-1.581270993E-1
2.855560181E0,-1.564545333E-1,2.278255969E-1,-1.569053680E-1
2.858077421E0,-1.637849063E-1,2.302690595E-1,-1.520184427E-1
2.860594348E0,-1.674501002E-1,2.314907908E-1,-1.483532637E-1
2.863111275E0,-1.711152941E-1,2.327125221E-1,-1.446880698E-1
2.865628619E0,-1.711152941E-1,2.314907908E-1,-1.410228908E-1
2.868145025E0,-1.686718315E-1,2.241604179E-1,-1.349142343E-1
2.870662994E0,-1.625631750E-1,2.143865824E-1,-1.288055927E-1
2.873179244E0,-1.552328020E-1,2.058344632E-1,-1.239186749E-1
2.875696119E0,-1.515676230E-1,1.948389113E-1,-1.226969436E-1
2.878212994E0,-1.466806978E-1,1.887302548E-1,-1.251403987E-1
2.880727942E0,-1.430155039E-1,1.948389113E-1,-1.251403987E-1
2.883247317E0,-1.344633996E-1,1.997258216E-1,-1.300273240E-1
2.885764608E0,-1.295764893E-1,2.046127468E-1,-1.312490553E-1
2.888281015E0,-1.234678403E-1,2.082779258E-1,-1.361359656E-1
2.890798671E0,-1.185809225E-1,2.094996572E-1,-1.361359656E-1
2.893314921E0,-1.112505421E-1,2.180517614E-1,-1.385794282E-1
2.895832056E0,-1.014767066E-1,2.314907908E-1,-1.422446221E-1
2.898346431E0,-9.414633363E-2,2.449298054E-1,-1.434663385E-1
2.900866119E0,-8.925941586E-2,2.547036409E-1,-1.434663385E-1
2.903335598E0,-7.948558033E-2,2.644774616E-1,-1.422446221E-1
2.905853306E0,-6.971174479E-2,2.742513120E-1,-1.434663385E-1
2.908420650E0,-6.238136441E-2,2.828034163E-1,-1.434663385E-1
2.910933619E0,-5.505099148E-2,2.901337743E-1,-1.422446221E-1
2.913478619E0,-5.016407371E-2,2.913555205E-1,-1.422446221E-1
2.915965181E0,-4.405542463E-2,2.901337743E-1,-1.422446221E-1
2.918482317E0,-3.672504798E-2,2.974641621E-1,-1.459098011E-1
2.921001431E0,-1.595564745E-2,3.292291164E-1,-1.642357409E-1
2.923518775E0,8.478941396E-3,3.548854589E-1,-1.740095764E-1
2.926035650E0,3.169180080E-2,3.768765628E-1,-1.727878451E-1
2.928552629E0,4.879601300E-2,3.927590549E-1,-1.679009348E-1
2.931070025E0,6.345676631E-2,3.988676965E-1,-1.630140096E-1
2.933584140E0,7.567405701E-2,3.976459801E-1,-1.569053680E-1
2.936101952E0,8.178270608E-2,3.866504133E-1,-1.556836367E-1
2.938618827E0,8.422616869E-2,3.707679212E-1,-1.544619054E-1
2.941134973E0,8.422616869E-2,3.475550711E-1,-1.581270993E-1
2.943651900E0,8.422616869E-2,3.255639374E-1,-1.605705619E-1
2.946169035E0,8.178270608E-2,3.072380126E-1,-1.654574722E-1
2.948685806E0,7.811751962E-2,2.913555205E-1,-1.691226661E-1
2.951206223E0,7.445233315E-2,2.766947746E-1,-1.703443974E-1
2.953722108E0,7.078714669E-2,2.620339990E-1,-1.715661138E-1
2.956239035E0,6.101331115E-2,2.424863577E-1,-1.740095764E-1
2.958756744E0,5.123947188E-2,2.266038656E-1,-1.776747704E-1
2.961272577E0,3.902217746E-2,2.082779258E-1,-1.837834120E-1
2.963789713E0,2.802661061E-2,1.923954487E-1,-1.898920685E-1
2.966307108E0,1.947450638E-2,1.752912402E-1,-1.960007101E-1
2.968823827E0,1.092240028E-2,1.581870168E-1,-2.021093518E-1
2.971340963E0,1.148564741E-3,1.410828084E-1,-2.069962770E-1
2.973858567E0,-6.181811914E-3,1.239785925E-1,-2.131049186E-1
2.976374713E0,-1.106872968E-2,1.080961078E-1,-2.179918438E-1
2.978891483E0,-1.595564745E-2,9.099189192E-2,-2.204353064E-1
2.981406483E0,-2.084256522E-2,7.266595215E-2,-2.228787541E-1
2.983925702E0,-2.450775355E-2,5.311828107E-2,-2.265439481E-1
2.986442629E0,-2.572948299E-2,3.357060999E-2,-2.265439481E-1
2.988959452E0,-3.305985779E-2,1.280121226E-2,-2.302091271E-1
2.991476067E0,-3.916850686E-2,-6.746458821E-3,-2.326525897E-1
2.993993463E0,-4.283369333E-2,-2.507239953E-2,-2.338743210E-1
2.996510494E0,-4.527715594E-2,-4.462007433E-2,-2.363177836E-1
2.999027369E0,-5.138580129E-2,-6.050255522E-2,-2.350960523E-1
3.001545181E0,-5.382926017E-2,-7.149811834E-2,-2.326525897E-1
3.004061692E0,-5.382926017E-2,-8.493714780E-2,-2.326525897E-1
3.006578515E0,-5.505099148E-2,-9.593270719E-2,-2.277656794E-1
3.009096223E0,-5.749444664E-2,-1.069282740E-1,-2.241004854E-1
3.011612369E0,-6.115963683E-2,-1.215890273E-1,-2.192135751E-1
3.014153098E0,-6.604655087E-2,-1.325845867E-1,-2.143266499E-1
3.016646171E0,-6.849001348E-2,-1.411366910E-1,-2.057745457E-1
3.019163671E0,-7.215519994E-2,-1.521322578E-1,-1.960007101E-1
3.021680546E0,-7.704211771E-2,-1.631278247E-1,-1.837834120E-1
3.024175754E0,-8.315076679E-2,-1.716799289E-1,-1.679009348E-1
3.026714556E0,-8.803768456E-2,-1.765668392E-1,-1.507967263E-1
3.029231431E0,-9.170287102E-2,-1.826754957E-1,-1.349142343E-1
3.031748515E0,-9.781152010E-2,-1.851189584E-1,-1.178100258E-1
3.034265442E0,-1.002549827E-1,-1.851189584E-1,-1.007058173E-1
3.036781952E0,-1.051418930E-1,-1.863406748E-1,-8.604505658E-2
3.039298619E0,-1.051418930E-1,-1.875624061E-1,-7.016257942E-2
3.041816067E0,-1.075853556E-1,-1.863406748E-1,-5.305836350E-2
3.044332942E0,-1.075853556E-1,-1.826754957E-1,-3.351069242E-2
3.046850181E0,-1.075853556E-1,-1.814537644E-1,-1.518475357E-2
3.049366952E0,-1.075853556E-1,-1.826754957E-1,5.584647413E-3
3.051907317E0,-1.051418930E-1,-1.851189584E-1,2.268886007E-2
3.054401483E0,-1.063636243E-1,-1.875624061E-1,3.734961152E-2
3.056917838E0,-1.088070869E-1,-1.887841374E-1,4.345826060E-2
3.059435129E0,-1.124722734E-1,-1.936710626E-1,4.101480171E-2
3.061951588E0,-1.136940047E-1,-1.997797042E-1,3.857134283E-2
3.064468775E0,-1.149157286E-1,-2.058883458E-1,3.979307413E-2
3.066985858E0,-1.161374599E-1,-2.119970024E-1,4.345826060E-2
3.069503046E0,-1.124722734E-1,-2.156621814E-1,4.712344706E-2
3.072019452E0,-1.112505421E-1,-2.193273753E-1,5.323209614E-2
3.074537004E0,-1.088070869E-1,-2.205491066E-1,6.056247279E-2
3.077054140E0,-1.088070869E-1,-2.217708379E-1,6.789284945E-2
3.079571223E0,-1.063636243E-1,-2.229925692E-1,7.277976722E-2
3.082087577E0,-1.039201692E-1,-2.205491066E-1,7.766668499E-2
3.084604608E0,-1.039201692E-1,-2.193273753E-1,8.133187145E-2
3.087121588E0,-1.014767066E-1,-2.205491066E-1,8.377533406E-2
3.089638515E0,-1.002549827E-1,-2.181056440E-1,8.499705791E-2
3.092155442E0,-9.903325140E-2,-2.193273753E-1,7.644495368E-2
3.094673358E0,-1.014767066E-1,-2.254360169E-1,6.911458075E-2
3.097190233E0,-9.903325140E-2,-2.303229421E-1,6.544938684E-2
3.099706431E0,-9.781152010E-2,-2.291012108E-1,6.300593168E-2
3.102247629E0,-9.414633363E-2,-2.229925692E-1,6.422766298E-2
3.104740598E0,-8.925941586E-2,-2.156621814E-1,6.544938684E-2
3.107257838E0,-8.803768456E-2,-2.071100771E-1,6.911458075E-2
3.109774244E0,-8.192903548E-2,-1.961145103E-1,7.400149852E-2
3.112291483E0,-8.070731163E-2,-1.851189584E-1,7.644495368E-2
3.114835025E0,-7.459866256E-2,-1.753451079E-1,7.888841629E-2
3.117325129E0,-7.582038641E-2,-1.631278247E-1,7.888841629E-2
3.119842317E0,-6.971174479E-2,-1.533539891E-1,7.888841629E-2
3.122359244E0,-6.604655087E-2,-1.448018849E-1,7.644495368E-2
3.124876119E0,-6.115963683E-2,-1.362497658E-1,7.400149852E-2
3.127392838E0,-5.993790925E-2,-1.325845867E-1,6.544938684E-2
3.129910181E0,-5.749444664E-2,-1.362497658E-1,5.567555502E-2
3.132426796E0,-5.627271906E-2,-1.374714971E-1,4.834517837E-2
3.134944244E0,-5.382926017E-2,-1.399149597E-1,4.712344706E-2
3.137460910E0,-5.382926017E-2,-1.362497658E-1,4.467999190E-2
3.139977838E0,-5.016407371E-2,-1.325845867E-1,4.345826060E-2
3.142495598E0,-4.894234240E-2,-1.264759451E-1,4.223652929E-2
3.145011848E0,-4.283369333E-2,-1.191455647E-1,4.101480171E-2
3.147528983E0,-4.039023817E-2,-1.154803783E-1,3.857134283E-2
3.150045806E0,-3.672504798E-2,-1.118151918E-1,3.734961152E-2
3.152587525E0,-3.305985779E-2,-1.057065427E-1,3.368442506E-2
3.155079660E0,-3.061640076E-2,-1.044848189E-1,2.879750729E-2
3.157596483E0,-3.061640076E-2,-1.057065427E-1,2.513231896E-2
3.160113671E0,-2.939467132E-2,-1.093717292E-1,2.268886007E-2
3.162630598E0,-2.817294188E-2,-1.118151918E-1,1.780194230E-2
3.165147733E0,-2.939467132E-2,-1.130369231E-1,1.780194230E-2
3.167664660E0,-3.305985779E-2,-1.191455647E-1,1.658021286E-2
3.170181379E0,-3.916850686E-2,-1.252542138E-1,1.780194230E-2
3.172698410E0,-4.405542463E-2,-1.289193928E-1,1.780194230E-2
3.175215390E0,-5.016407371E-2,-1.301411241E-1,1.902367175E-2
3.177732213E0,-5.627271906E-2,-1.301411241E-1,1.902367175E-2
3.180247160E0,-5.993790925E-2,-1.350280493E-1,1.535848249E-2
3.182766067E0,-6.726828218E-2,-1.484670639E-1,8.028105833E-3
3.185283410E0,-7.459866256E-2,-1.594626307E-1,8.028105833E-3
3.187800338E0,-7.582038641E-2,-1.680147350E-1,9.249835275E-3
3.190316744E0,-7.704211771E-2,-1.716799289E-1,1.780194230E-2
3.192833983E0,-7.704211771E-2,-1.753451079E-1,2.757577784E-2
3.195351848E0,-7.582038641E-2,-1.790103018E-1,3.612788394E-2
3.197869348E0,-7.093347609E-2,-1.741233915E-1,4.101480171E-2
3.200384817E0,-6.604655087E-2,-1.704581976E-1,4.590171948E-2
3.202903879E0,-5.993790925E-2,-1.655712873E-1,4.956690967E-2
3.205419035E0,-5.627271906E-2,-1.667930037E-1,5.078863725E-2
3.207937056E0,-5.260752887E-2,-1.716799289E-1,5.323209614E-2
3.210453046E0,-5.016407371E-2,-1.729016602E-1,5.567555502E-2
3.212967733E0,-4.527715594E-2,-1.777885705E-1,5.811901391E-2
3.215511640E0,-4.161196575E-2,-1.777885705E-1,5.934074521E-2
3.218003827E0,-3.916850686E-2,-1.838972270E-1,5.689728260E-2
3.220520858E0,-3.794677556E-2,-1.900058687E-1,5.323209614E-2
3.223037994E0,-3.794677556E-2,-1.948927790E-1,5.323209614E-2
3.225555129E0,-3.794677556E-2,-1.961145103E-1,5.567555502E-2
3.228072629E0,-3.550332040E-2,-1.961145103E-1,5.811901391E-2
3.230588723E0,-3.428158909E-2,-1.936710626E-1,6.544938684E-2
3.233105442E0,-3.061640076E-2,-1.912276000E-1,7.277976722E-2
3.235623202E0,-3.061640076E-2,-1.887841374E-1,8.011014760E-2
3.238139765E0,-2.939467132E-2,-1.875624061E-1,8.621878922E-2
3.240656640E0,-2.817294188E-2,-1.924493313E-1,9.232743829E-2
3.243173463E0,-2.817294188E-2,-1.961145103E-1,9.843608737E-2
3.245690442E0,-2.939467132E-2,-2.010014355E-1,1.033230051E-1
3.248207421E0,-3.183813021E-2,-2.058883458E-1,1.057664603E-1
3.250724608E0,-3.794677556E-2,-2.242143005E-1,1.057664603E-1
3.253242160E0,-4.283369333E-2,-2.327664047E-1,1.082099229E-1
3.255758306E0,-4.772061110E-2,-2.364315838E-1,1.118751094E-1
3.258275494E0,-4.772061110E-2,-2.339881212E-1,1.167620271E-1
3.260792525E0,-4.772061110E-2,-2.291012108E-1,1.192054898E-1
3.263307004E0,-4.527715594E-2,-2.229925692E-1,1.228706762E-1
3.265825338E0,-4.039023817E-2,-2.156621814E-1,1.277575940E-1
3.268344244E0,-3.550332040E-2,-2.119970024E-1,1.289793253E-1
3.270860181E0,-3.061640076E-2,-2.107752711E-1,1.314227730E-1
3.273378775E0,-2.695121244E-2,-2.119970024E-1,1.338662356E-1
3.275894765E0,-2.572948299E-2,-2.132187337E-1,1.350879669E-1
3.278410806E0,-2.695121244E-2,-2.132187337E-1,1.314227730E-1
3.280928098E0,-3.061640076E-2,-2.095535398E-1,1.289793253E-1
3.283445910E0,-3.672504798E-2,-2.058883458E-1,1.302010566E-1
3.285962213E0,-4.283369333E-2,-2.010014355E-1,1.302010566E-1
3.288479140E0,-4.894234240E-2,-1.985579729E-1,1.289793253E-1
3.290996223E0,-5.260752887E-2,-1.961145103E-1,1.277575940E-1
3.293512994E0,-5.505099148E-2,-1.973362416E-1,1.265358627E-1
3.296027838E0,-5.749444664E-2,-1.961145103E-1,1.228706762E-1
3.298547004E0,-6.115963683E-2,-1.924493313E-1,1.216489449E-1
3.301064192E0,-6.115963683E-2,-1.887841374E-1,1.192054898E-1
3.303581119E0,-6.238136441E-2,-1.863406748E-1,1.155402958E-1
3.306051535E0,-6.360309571E-2,-1.802320331E-1,1.143185645E-1
3.308616483E0,-6.238136441E-2,-1.729016602E-1,1.094316542E-1
3.311132056E0,-6.360309571E-2,-1.667930037E-1,1.057664603E-1
3.313648723E0,-5.993790925E-2,-1.606843621E-1,1.021012738E-1
3.316181796E0,-5.627271906E-2,-1.557974368E-1,1.008795425E-1
3.318682681E0,-4.894234240E-2,-1.557974368E-1,9.599262476E-2
3.321199921E0,-4.405542463E-2,-1.472453326E-1,9.110570699E-2
3.323717213E0,-3.916850686E-2,-1.362497658E-1,8.621878922E-2
3.326234452E0,-3.428158909E-2,-1.215890273E-1,8.255360276E-2
3.328750546E0,-3.428158909E-2,-1.057065427E-1,7.766668499E-2
3.331266171E0,-3.550332040E-2,-9.104578942E-2,7.277976722E-2
3.333783202E0,-3.672504798E-2,-7.271984965E-2,7.033631206E-2
3.336299556E0,-3.794677556E-2,-5.439390987E-2,6.544938684E-2
3.338816275E0,-3.916850686E-2,-4.339834303E-2,6.056247279E-2
3.341333254E0,-4.161196575E-2,-4.950699210E-2,5.689728260E-2
3.343850181E0,-4.527715594E-2,-5.683736503E-2,5.078863725E-2
3.346367213E0,-4.527715594E-2,-5.805909634E-2,4.834517837E-2
3.348884296E0,-4.527715594E-2,-4.828526080E-2,4.467999190E-2
3.351403150E0,-4.161196575E-2,-2.995931730E-2,4.467999190E-2
3.353942629E0,-4.283369333E-2,-2.507239953E-2,4.590171948E-2
3.356460702E0,-3.672504798E-2,-1.529856492E-2,4.712344706E-2
3.358977629E0,-3.183813021E-2,3.234888241E-2,4.956690967E-2
3.361494088E0,-2.695121244E-2,6.777903438E-2,5.078863725E-2
3.364012473E0,-2.817294188E-2,8.243978769E-2,5.078863725E-2
3.366528254E0,-3.061640076E-2,1.129830256E-1,4.956690967E-2
3.369046952E0,-3.305985779E-2,1.508566439E-1,5.078863725E-2
3.371562369E0,-3.794677556E-2,1.801781505E-1,5.201036483E-2
3.374079608E0,-4.039023817E-2,1.997258216E-1,5.323209614E-2
3.376597265E0,-4.161196575E-2,2.119431198E-1,5.323209614E-2
3.379112108E0,-4.039023817E-2,2.143865824E-1,5.201036483E-2
3.381629244E0,-4.405542463E-2,2.119431198E-1,4.956690967E-2
3.384147785E0,-4.283369333E-2,2.058344632E-1,4.467999190E-2
3.386641275E0,-4.283369333E-2,1.960606426E-1,4.223652929E-2
3.389180077E0,-4.039023817E-2,1.813998818E-1,4.223652929E-2
3.391697942E0,-3.794677556E-2,1.606304795E-1,4.101480171E-2
3.394214765E0,-3.428158909E-2,1.410828084E-1,3.979307413E-2
3.396730546E0,-3.061640076E-2,1.288655102E-1,3.734961152E-2
3.399226640E0,-2.572948299E-2,1.178699434E-1,3.857134283E-2
3.401763410E0,-2.084256522E-2,1.080961078E-1,3.734961152E-2
3.404284452E0,-1.717737690E-2,1.019874588E-1,3.857134283E-2
3.406777785E0,-1.229045913E-2,9.587881714E-2,3.612788394E-2
3.409314765E0,-6.181811914E-3,8.854843676E-2,3.490615636E-2
3.411826692E0,-3.738353029E-3,8.488325030E-2,3.246269375E-2
3.414349348E0,1.148564741E-3,8.243978769E-2,3.124096617E-2
3.416863046E0,6.035482511E-3,7.999633253E-2,2.879750729E-2
3.419382421E0,9.700670838E-3,7.877460122E-2,2.879750729E-2
3.421905963E0,1.580931805E-2,7.999633253E-2,2.757577784E-2
3.424393619E0,1.947450638E-2,8.243978769E-2,2.513231896E-2
3.426932838E0,2.313969284E-2,8.366151899E-2,2.268886007E-2
3.429454660E0,2.558315545E-2,8.977016807E-2,2.146713063E-2
3.431969608E0,2.680488303E-2,9.710054100E-2,1.658021286E-2
3.434485858E0,2.802661061E-2,1.056526527E-1,1.169329416E-2
3.437004713E0,2.924834192E-2,1.117612943E-1,9.249835275E-3
3.439520390E0,3.047007322E-2,1.142047569E-1,4.362917971E-3
3.442037525E0,3.169180080E-2,1.166482121E-1,-5.239999737E-4
3.444554973E0,3.169180080E-2,1.215351298E-1,-7.854376920E-3
3.447049296E0,3.291352838E-2,1.227568612E-1,-1.274129469E-2
3.449588619E0,3.535699099E-2,1.215351298E-1,-2.007167041E-2
3.452105338E0,3.413525969E-2,1.215351298E-1,-2.618031763E-2
3.454621483E0,3.291352838E-2,1.215351298E-1,-3.351069242E-2
3.457138358E0,3.291352838E-2,1.190916747E-1,-3.839761019E-2
3.459658306E0,3.291352838E-2,1.166482121E-1,-4.328452796E-2
3.462148150E0,3.169180080E-2,1.154264882E-1,-4.817144573E-2
3.464665963E0,2.924834192E-2,1.166482121E-1,-5.305836350E-2
3.467182004E0,3.047007322E-2,1.166482121E-1,-5.916701257E-2
3.469698983E0,2.680488303E-2,1.166482121E-1,-6.283219904E-2
3.472218463E0,2.436142415E-2,1.215351298E-1,-6.771911681E-2
3.474735338E0,2.191796526E-2,1.239785925E-1,-7.138431072E-2
3.477251796E0,2.191796526E-2,1.239785925E-1,-7.504949719E-2
3.479769035E0,2.069623582E-2,1.252003312E-1,-7.749295235E-2
3.482285285E0,1.947450638E-2,1.276437789E-1,-8.115814626E-2
3.484803150E0,1.703104749E-2,1.300872415E-1,-8.360160142E-2
3.487320181E0,1.458758861E-2,1.300872415E-1,-8.482333273E-2
3.489834296E0,1.214412972E-2,1.325307041E-1,-8.604505658E-2
3.492351640E0,8.478941396E-3,1.325307041E-1,-8.726678789E-2
3.494868619E0,7.257211953E-3,1.337524354E-1,-8.726678789E-2
3.497386588E0,3.592023626E-3,1.361958981E-1,-8.848851919E-2
3.499904348E0,-1.294894144E-3,1.386393458E-1,-8.726678789E-2
3.502419400E0,-4.960082471E-3,1.386393458E-1,-8.604505658E-2
3.504936431E0,-8.625270799E-3,1.398610771E-1,-8.482333273E-2
3.507454400E0,-1.106872968E-2,1.398610771E-1,-8.360160142E-2
3.509971744E0,-1.473391801E-2,1.398610771E-1,-8.237987012E-2
3.512488410E0,-1.962083578E-2,1.398610771E-1,-8.115814626E-2
3.515004400E0,-2.328602411E-2,1.423045397E-1,-8.115814626E-2
3.517539140E0,-2.450775355E-2,1.447480023E-1,-7.749295235E-2
3.520041223E0,-2.572948299E-2,1.459697336E-1,-7.627122104E-2
3.522557525E0,-2.817294188E-2,1.508566439E-1,-7.260603458E-2
3.525074556E0,-3.061640076E-2,1.533001065E-1,-7.016257942E-2
3.527591744E0,-3.305985779E-2,1.557435691E-1,-6.649738550E-2
3.530108515E0,-3.550332040E-2,1.606304795E-1,-6.283219904E-2
3.532625494E0,-3.794677556E-2,1.630739421E-1,-6.038874388E-2
3.535143098E0,-3.794677556E-2,1.655174047E-1,-5.550182611E-2
3.537659660E0,-3.916850686E-2,1.679608524E-1,-5.061490834E-2
3.540176379E0,-4.283369333E-2,1.691825837E-1,-4.939317703E-2
3.542693463E0,-4.772061110E-2,1.704043150E-1,-4.817144573E-2
3.545208567E0,-4.894234240E-2,1.691825837E-1,-4.450625926E-2
3.547725285E0,-5.016407371E-2,1.679608524E-1,-4.206280038E-2
3.550242213E0,-5.138580129E-2,1.667391211E-1,-4.084107280E-2
3.552762160E0,-5.260752887E-2,1.630739421E-1,-3.961934149E-2
3.555278202E0,-5.627271906E-2,1.606304795E-1,-3.717588261E-2
3.557796379E0,-5.749444664E-2,1.545218378E-1,-3.595415503E-2
3.560312265E0,-5.871617794E-2,1.496349126E-1,-3.351069242E-2
3.562829400E0,-5.871617794E-2,1.459697336E-1,-3.351069242E-2
3.565346223E0,-5.749444664E-2,1.398610771E-1,-3.228896484E-2
3.567863046E0,-5.749444664E-2,1.361958981E-1,-2.984550595E-2
3.570380181E0,-5.749444664E-2,1.313089728E-1,-2.984550595E-2
3.572897213E0,-5.627271906E-2,1.276437789E-1,-2.862377651E-2
3.575414244E0,-5.505099148E-2,1.252003312E-1,-2.862377651E-2
3.577931015E0,-5.138580129E-2,1.239785925E-1,-2.862377651E-2
3.580445598E0,-5.260752887E-2,1.227568612E-1,-2.862377651E-2
3.582962785E0,-4.772061110E-2,1.203133985E-1,-2.862377651E-2
3.585479504E0,-4.527715594E-2,1.203133985E-1,-2.862377651E-2
3.587996848E0,-4.405542463E-2,1.190916747E-1,-2.740204707E-2
3.590513671E0,-4.039023817E-2,1.178699434E-1,-2.618031763E-2
3.593030442E0,-3.672504798E-2,1.178699434E-1,-2.618031763E-2
3.595547421E0,-3.305985779E-2,1.178699434E-1,-2.618031763E-2
3.598064348E0,-3.061640076E-2,1.154264882E-1,-2.373685874E-2
3.600581796E0,-2.572948299E-2,1.105395630E-1,-2.373685874E-2
3.603100858E0,-2.206429467E-2,1.068743765E-1,-2.129339986E-2
3.605618775E0,-1.962083578E-2,1.056526527E-1,-2.007167041E-2
3.608132525E0,-1.473391801E-2,1.019874588E-1,-1.884994097E-2
3.610649452E0,-1.106872968E-2,9.954400361E-2,-1.884994097E-2
3.613166588E0,-7.403541356E-3,9.710054100E-2,-1.762821153E-2
3.615683306E0,-6.181811914E-3,9.710054100E-2,-1.640648209E-2
3.618226483E0,-1.294894144E-3,9.465708584E-2,-1.640648209E-2
3.620717265E0,-1.294894144E-3,9.587881714E-2,-1.640648209E-2
3.623234192E0,3.592023626E-3,9.587881714E-2,-1.518475357E-2
3.625750963E0,3.592023626E-3,9.587881714E-2,-1.518475357E-2
3.628269869E0,6.035482511E-3,9.587881714E-2,-1.274129469E-2
3.630785181E0,6.035482511E-3,9.587881714E-2,-1.151956525E-2
3.633302108E0,7.257211953E-3,9.832227230E-2,-1.274129469E-2
3.635820025E0,7.257211953E-3,9.587881714E-2,-1.274129469E-2
3.638337160E0,6.035482511E-3,9.710054100E-2,-1.151956525E-2
3.640852994E0,3.592023626E-3,9.587881714E-2,-1.029783580E-2
3.643372265E0,2.370294183E-3,9.465708584E-2,-9.076106362E-3
3.645889348E0,-1.294894144E-3,9.343535453E-2,-9.076106362E-3
3.648403983E0,-3.738353029E-3,9.099189192E-2,-7.854376920E-3
3.650922213E0,-4.960082471E-3,8.488325030E-2,-7.854376920E-3
3.653437838E0,-4.960082471E-3,8.243978769E-2,-6.632647011E-3
3.655954973E0,-8.625270799E-3,7.633114606E-2,-5.410917569E-3
3.658471848E0,-9.847000241E-3,7.144422084E-2,-2.967458917E-3
3.661014192E0,-9.847000241E-3,6.533557922E-2,-1.745729474E-3
3.663506119E0,-8.625270799E-3,5.922693014E-2,-1.745729474E-3
3.666022838E0,-1.106872968E-2,5.311828107E-2,6.977294688E-4
3.668540181E0,-1.106872968E-2,4.700963572E-2,3.141188296E-3
3.671056640E0,-1.106872968E-2,4.334444553E-2,3.141188296E-3
3.673573723E0,-9.847000241E-3,3.967925906E-2,8.028105833E-3
3.676090858E0,-9.847000241E-3,3.479234129E-2,9.249835275E-3
3.678608567E0,-8.625270799E-3,3.234888241E-2,1.169329416E-2
3.681127577E0,-8.625270799E-3,2.868369222E-2,1.413675305E-2
3.683643983E0,-8.625270799E-3,2.746196464E-2,1.658021286E-2
3.686160858E0,-7.403541356E-3,2.624023706E-2,1.902367175E-2
3.688678671E0,-7.403541356E-3,2.379677817E-2,2.146713063E-2
3.691192525E0,-7.403541356E-3,2.135331929E-2,2.513231896E-2
3.693709504E0,-6.181811914E-3,2.013158798E-2,2.635404840E-2
3.696226588E0,-4.960082471E-3,2.013158798E-2,2.635404840E-2
3.698743463E0,-2.516623586E-3,1.890986040E-2,2.757577784E-2
3.701261379E0,-2.516623586E-3,1.524467114E-2,2.879750729E-2
3.703777421E0,-6.181811914E-3,1.402294170E-2,3.001923673E-2
3.706294296E0,-4.960082471E-3,1.280121226E-2,3.001923673E-2
3.708812525E0,-6.181811914E-3,1.157948282E-2,3.124096617E-2
3.711352838E0,-4.960082471E-3,9.136023931E-3,3.124096617E-2
3.713845338E0,-8.625270799E-3,9.136023931E-3,3.001923673E-2
3.716362421E0,-1.229045913E-2,7.914294489E-3,2.879750729E-2
3.718904035E0,-1.595564745E-2,6.692565046E-3,2.757577784E-2
3.721397108E0,-1.717737690E-2,4.249106161E-3,2.757577784E-2
3.723915494E0,-2.084256522E-2,1.805647276E-3,2.635404840E-2
3.726432577E0,-2.450775355E-2,-3.081270494E-3,2.635404840E-2
3.728947213E0,-2.695121244E-2,-7.968188263E-3,2.146713063E-2
3.731466640E0,-2.939467132E-2,-1.163337659E-2,1.902367175E-2
3.733983515E0,-3.183813021E-2,-1.529856492E-2,1.658021286E-2
3.736500233E0,-3.305985779E-2,-1.896375418E-2,1.169329416E-2
3.739015338E0,-3.550332040E-2,-2.262894064E-2,9.249835275E-3
3.741531952E0,-3.428158909E-2,-2.629413083E-2,8.028105833E-3
3.744048931E0,-3.550332040E-2,-3.118104860E-2,3.141188296E-3
3.746566015E0,-3.794677556E-2,-3.484623507E-2,-5.239999737E-4
3.749083567E0,-3.794677556E-2,-3.851142526E-2,-4.189188126E-3
3.751600077E0,-3.550332040E-2,-4.217661172E-2,-6.632647011E-3
3.754116952E0,-3.672504798E-2,-4.584180191E-2,-1.151956525E-2
3.756633827E0,-3.672504798E-2,-4.950699210E-2,-1.518475357E-2
3.759150702E0,-3.672504798E-2,-5.317217857E-2,-1.884994097E-2
3.761692525E0,-3.672504798E-2,-5.683736503E-2,-2.373685874E-2
3.764187421E0,-3.672504798E-2,-6.050255522E-2,-2.740204707E-2
3.766704035E0,-3.672504798E-2,-6.294601411E-2,-2.984550595E-2
3.769218671E0,-3.550332040E-2,-6.538946927E-2,-3.351069242E-2
3.771735702E0,-3.672504798E-2,-6.783293188E-2,-3.717588261E-2
3.774252525E0,-3.794677556E-2,-6.905466318E-2,-4.084107280E-2
3.776769660E0,-3.794677556E-2,-7.271984965E-2,-4.450625926E-2
3.779286640E0,-4.039023817E-2,-7.516331226E-2,-4.817144573E-2
3.781803619E0,-3.794677556E-2,-7.760676742E-2,-5.183663592E-2
3.784320598E0,-4.161196575E-2,-8.249368519E-2,-5.428009480E-2
3.786838515E0,-4.283369333E-2,-8.738060296E-2,-5.794528127E-2
3.789354817E0,-4.405542463E-2,-9.104578942E-2,-6.038874388E-2
3.791871119E0,-4.649888352E-2,-9.348925203E-2,-6.405393034E-2
3.794388567E0,-4.772061110E-2,-9.715443850E-2,-6.527566165E-2
3.796905546E0,-4.772061110E-2,-9.837616980E-2,-6.771911681E-2
3.799422525E0,-4.894234240E-2,-1.020413563E-1,-7.016257942E-2
3.801940077E0,-4.772061110E-2,-1.057065427E-1,-7.382776588E-2
3.804458463E0,-4.649888352E-2,-1.093717292E-1,-7.627122104E-2
3.806975806E0,-4.772061110E-2,-1.191455647E-1,-7.871468365E-2
3.809490494E0,-4.772061110E-2,-1.264759451E-1,-8.115814626E-2
3.812008150E0,-4.649888352E-2,-1.240324900E-1,-8.237987012E-2
3.814542369E0,-4.772061110E-2,-1.203672960E-1,-8.482333273E-2
3.817041327E0,-4.649888352E-2,-1.154803783E-1,-8.726678789E-2
3.819586744E0,-4.649888352E-2,-1.105934605E-1,-8.726678789E-2
3.822074713E0,-4.649888352E-2,-1.057065427E-1,-8.971025050E-2
3.824592056E0,-4.527715594E-2,-1.032630876E-1,-8.971025050E-2
3.827109348E0,-4.772061110E-2,-9.959789366E-2,-8.971025050E-2
3.829627213E0,-4.772061110E-2,-9.837616980E-2,-9.337543696E-2
3.832144088E0,-4.649888352E-2,-9.837616980E-2,-9.459716827E-2
3.834660233E0,-4.894234240E-2,-9.959789366E-2,-9.581889212E-2
3.837176900E0,-5.016407371E-2,-9.715443850E-2,-9.704062343E-2
3.839695181E0,-5.016407371E-2,-9.471098334E-2,-9.826235473E-2
3.842211327E0,-5.382926017E-2,-9.348925203E-2,-9.826235473E-2
3.844730546E0,-5.627271906E-2,-8.982405812E-2,-1.007058173E-1
3.847248046E0,-5.871617794E-2,-8.493714780E-2,-9.948408604E-2
3.849762681E0,-6.238136441E-2,-8.249368519E-2,-1.007058173E-1
3.852278983E0,-6.604655087E-2,-8.249368519E-2,-1.007058173E-1
3.854795858E0,-6.726828218E-2,-8.249368519E-2,-1.019275412E-1
3.857312942E0,-6.971174479E-2,-8.127195388E-2,-1.031492725E-1
3.859829869E0,-7.337693125E-2,-8.127195388E-2,-1.019275412E-1
3.862346952E0,-7.459866256E-2,-8.493714780E-2,-1.043710038E-1
3.864863775E0,-7.948558033E-2,-8.615887165E-2,-1.043710038E-1
3.867380650E0,-8.192903548E-2,-8.738060296E-2,-1.068144590E-1
3.869897733E0,-8.437249810E-2,-8.860233426E-2,-1.068144590E-1
3.872414817E0,-8.925941586E-2,-9.104578942E-2,-1.080361903E-1
3.874931692E0,-9.292460233E-2,-9.348925203E-2,-1.092579216E-1
3.877454400E0,-9.536805749E-2,-9.471098334E-2,-1.104796529E-1
3.879965233E0,-9.781152010E-2,-9.471098334E-2,-1.117013767E-1
3.882482577E0,-9.903325140E-2,-9.715443850E-2,-1.117013767E-1
3.885001848E0,-1.014767066E-1,-9.959789366E-2,-1.141448393E-1
3.887518671E0,-1.026984379E-1,-1.020413563E-1,-1.153665632E-1
3.890033671E0,-1.039201692E-1,-1.032630876E-1,-1.165882945E-1
3.892550546E0,-1.039201692E-1,-1.044848189E-1,-1.178100258E-1
3.895067369E0,-1.039201692E-1,-1.081500053E-1,-1.165882945E-1
3.897584452E0,-1.002549827E-1,-1.081500053E-1,-1.178100258E-1
3.900102838E0,-1.002549827E-1,-1.081500053E-1,-1.214752123E-1
3.902618515E0,-9.903325140E-2,-1.057065427E-1,-1.190317571E-1
3.905136640E0,-9.658978879E-2,-1.057065427E-1,-1.190317571E-1
3.907652369E0,-9.414633363E-2,-1.032630876E-1,-1.202534884E-1
3.910169348E0,-9.292460233E-2,-1.020413563E-1,-1.202534884E-1
3.912686379E0,-8.681595325E-2,-9.837616980E-2,-1.202534884E-1
3.915203619E0,-8.315076679E-2,-9.715443850E-2,-1.214752123E-1
3.917723723E0,-8.192903548E-2,-9.593270719E-2,-1.190317571E-1
3.920265181E0,-7.948558033E-2,-9.226752073E-2,-1.202534884E-1
3.922756379E0,-7.459866256E-2,-9.104578942E-2,-1.214752123E-1
3.925273671E0,-7.337693125E-2,-8.860233426E-2,-1.214752123E-1
3.927790754E0,-7.093347609E-2,-8.615887165E-2,-1.214752123E-1
3.930307785E0,-6.726828218E-2,-8.249368519E-2,-1.214752123E-1
3.932824452E0,-6.604655087E-2,-8.127195388E-2,-1.226969436E-1
3.935341640E0,-6.482482702E-2,-7.882849872E-2,-1.214752123E-1
3.937858150E0,-6.238136441E-2,-7.638503611E-2,-1.214752123E-1
3.940375650E0,-5.993790925E-2,-7.394158095E-2,-1.214752123E-1
3.942892160E0,-5.871617794E-2,-7.271984965E-2,-1.226969436E-1
3.945407890E0,-5.993790925E-2,-7.027638704E-2,-1.214752123E-1
3.947924192E0,-5.749444664E-2,-7.027638704E-2,-1.202534884E-1
3.950441588E0,-5.627271906E-2,-6.905466318E-2,-1.202534884E-1
3.952959035E0,-5.627271906E-2,-6.905466318E-2,-1.202534884E-1
3.955475077E0,-5.627271906E-2,-6.783293188E-2,-1.165882945E-1
3.957991952E0,-5.382926017E-2,-6.783293188E-2,-1.165882945E-1
3.960509660E0,-5.505099148E-2,-6.783293188E-2,-1.165882945E-1
3.963026744E0,-5.382926017E-2,-6.783293188E-2,-1.153665632E-1
3.965542994E0,-5.138580129E-2,-6.661120057E-2,-1.129231080E-1
3.968060806E0,-5.260752887E-2,-6.538946927E-2,-1.117013767E-1
3.970577629E0,-5.138580129E-2,-6.783293188E-2,-1.092579216E-1
3.973093306E0,-5.138580129E-2,-6.783293188E-2,-1.080361903E-1
3.975610702E0,-4.894234240E-2,-6.661120057E-2,-1.055927277E-1
3.978128723E0,-4.894234240E-2,-6.416774541E-2,-1.055927277E-1
3.980644921E0,-4.649888352E-2,-6.172428280E-2,-1.019275412E-1
3.983161744E0,-4.405542463E-2,-6.050255522E-2,-9.948408604E-2
3.985678671E0,-4.161196575E-2,-5.928082764E-2,-9.581889212E-2
3.988195181E0,-3.916850686E-2,-5.683736503E-2,-9.337543696E-2
3.990713723E0,-3.550332040E-2,-5.561563745E-2,-9.093198180E-2
3.993229556E0,-3.183813021E-2,-5.561563745E-2,-9.093198180E-2
3.995746483E0,-2.695121244E-2,-5.317217857E-2,-8.848851919E-2
3.998263515E0,-2.328602411E-2,-5.072871968E-2,-8.482333273E-2
4.000780494E0,-1.962083578E-2,-4.828526080E-2,-8.237987012E-2
4.003297733E0,-1.351218857E-2,-4.584180191E-2,-8.237987012E-2
4.005814504E0,-8.625270799E-3,-4.462007433E-2,-7.993641496E-2
4.008331431E0,-4.960082471E-3,-3.851142526E-2,-7.749295235E-2
4.010873775E0,-7.316470146E-5,-3.728969395E-2,-7.749295235E-2
4.013366640E0,3.592023626E-3,-3.484623507E-2,-7.504949719E-2
4.015882577E0,8.478941396E-3,-3.118104860E-2,-7.382776588E-2
4.018399556E0,1.092240028E-2,-2.873758972E-2,-7.260603458E-2
4.020943306E0,1.336585917E-2,-2.385067195E-2,-7.382776588E-2
4.023433723E0,1.825277694E-2,-1.896375418E-2,-7.260603458E-2
4.025951119E0,1.825277694E-2,-1.407683548E-2,-7.260603458E-2
4.028467473E0,2.069623582E-2,-1.285510603E-2,-7.138431072E-2
4.030984452E0,2.313969284E-2,-7.968188263E-3,-7.138431072E-2
4.033501483E0,2.436142415E-2,-5.524729379E-3,-6.894084811E-2
4.036019088E0,2.436142415E-2,-6.378116086E-4,-6.771911681E-2
4.038535338E0,2.680488303E-2,4.249106161E-3,-7.016257942E-2
4.041053046E0,2.802661061E-2,9.136023931E-3,-6.894084811E-2
4.043571379E0,2.558315545E-2,1.157948282E-2,-6.894084811E-2
4.046088254E0,2.680488303E-2,1.402294170E-2,-6.894084811E-2
4.048602994E0,2.558315545E-2,1.890986040E-2,-6.894084811E-2
4.051120442E0,2.680488303E-2,2.135331929E-2,-6.771911681E-2
4.053637108E0,2.802661061E-2,2.257504687E-2,-6.771911681E-2
4.056154035E0,2.558315545E-2,2.501850575E-2,-6.649738550E-2
4.058671223E0,2.558315545E-2,2.990542352E-2,-6.649738550E-2
4.061213463E0,2.558315545E-2,2.746196464E-2,-6.771911681E-2
4.063704713E0,2.436142415E-2,1.402294170E-2,-6.771911681E-2
4.066222213E0,2.313969284E-2,4.249106161E-3,-7.016257942E-2
4.068738775E0,2.191796526E-2,4.249106161E-3,-7.138431072E-2
4.071255963E0,2.069623582E-2,6.692565046E-3,-7.382776588E-2
4.073772838E0,1.703104749E-2,1.157948282E-2,-7.504949719E-2
4.076289713E0,1.703104749E-2,1.768812910E-2,-7.871468365E-2
4.078806952E0,1.336585917E-2,2.501850575E-2,-7.993641496E-2
4.081323827E0,1.214412972E-2,3.112715483E-2,-8.115814626E-2
4.083843150E0,9.700670838E-3,3.723580018E-2,-8.360160142E-2
4.086360858E0,7.257211953E-3,4.334444553E-2,-8.604505658E-2
4.088875858E0,4.813753068E-3,5.067482591E-2,-8.604505658E-2
4.091391744E0,3.592023626E-3,5.311828107E-2,-8.726678789E-2
4.093908619E0,-7.316470146E-5,5.800519884E-2,-8.971025050E-2
4.096426588E0,-2.516623586E-3,6.167038530E-2,-9.093198180E-2
4.098942629E0,-3.738353029E-3,6.655731052E-2,-9.337543696E-2
4.101459660E0,-8.625270799E-3,7.144422084E-2,-9.337543696E-2
4.103976379E0,-1.106872968E-2,7.633114606E-2,-9.581889212E-2
4.106493358E0,-1.351218857E-2,7.633114606E-2,-9.581889212E-2
4.109010494E0,-1.595564745E-2,7.633114606E-2,-9.704062343E-2
4.111527733E0,-1.839910634E-2,7.510941476E-2,-9.704062343E-2
4.114044400E0,-1.962083578E-2,7.266595215E-2,-9.704062343E-2
4.116561275E0,-2.084256522E-2,6.655731052E-2,-9.704062343E-2
4.119078358E0,-1.962083578E-2,6.289211661E-2,-9.948408604E-2
4.121645442E0,-2.328602411E-2,6.044866145E-2,-9.948408604E-2
4.124259556E0,-2.084256522E-2,5.067482591E-2,-1.007058173E-1
4.126825285E0,-1.839910634E-2,4.578790814E-2,-1.019275412E-1
4.129346379E0,-1.839910634E-2,4.090099037E-2,-1.031492725E-1
4.131959140E0,-1.595564745E-2,2.990542352E-2,-1.055927277E-1
4.134526171E0,-1.351218857E-2,9.136023931E-3,-1.080361903E-1
4.137094192E0,-9.847000241E-3,-7.968188263E-3,-1.104796529E-1
4.139661483E0,-9.847000241E-3,-1.652029529E-2,-1.141448393E-1
4.142228619E0,-9.847000241E-3,-1.652029529E-2,-1.190317571E-1
4.144795338E0,-1.106872968E-2,-1.041164715E-2,-1.214752123E-1
4.147362629E0,-1.229045913E-2,-1.859541051E-3,-1.275838614E-1
4.149929869E0,-9.847000241E-3,5.470835604E-3,-1.275838614E-1
4.152499608E0,-7.403541356E-3,7.914294489E-3,-1.300273240E-1
4.155067160E0,-1.294894144E-3,4.249106161E-3,-1.300273240E-1
4.157634869E0,1.148564741E-3,-3.081270494E-3,-1.300273240E-1
4.160201535E0,4.813753068E-3,-9.189917706E-3,-1.288055927E-1
4.162769140E0,9.700670838E-3,-1.407683548E-2,-1.288055927E-1
4.165335963E0,1.214412972E-2,-1.896375418E-2,-1.300273240E-1
4.167900910E0,1.458758861E-2,-2.018548176E-2,-1.300273240E-1
4.170468046E0,1.580931805E-2,-2.629413083E-2,-1.324707717E-1
4.173035494E0,1.947450638E-2,-3.118104860E-2,-1.336925030E-1
4.175602838E0,2.069623582E-2,-3.240277618E-2,-1.349142343E-1
4.178170181E0,1.825277694E-2,-3.118104860E-2,-1.385794282E-1
4.180737473E0,1.458758861E-2,-2.995931730E-2,-1.422446221E-1
4.183304556E0,9.700670838E-3,-2.873758972E-2,-1.434663385E-1
4.185871848E0,7.257211953E-3,-2.751585841E-2,-1.459098011E-1
4.188439140E0,3.592023626E-3,-2.507239953E-2,-1.471315324E-1
4.191007421E0,-7.316470146E-5,-2.507239953E-2,-1.507967263E-1
4.193573983E0,-8.625270799E-3,-2.140721306E-2,-1.520184427E-1
4.196141067E0,-1.473391801E-2,-2.018548176E-2,-1.520184427E-1
4.198708306E0,-1.717737690E-2,-2.018548176E-2,-1.556836367E-1
4.201278202E0,-2.084256522E-2,-2.018548176E-2,-1.569053680E-1
4.203845077E0,-2.328602411E-2,-2.262894064E-2,-1.581270993E-1
4.206412838E0,-2.572948299E-2,-2.385067195E-2,-1.593488306E-1
4.208979817E0,-2.450775355E-2,-2.751585841E-2,-1.605705619E-1
4.211547473E0,-2.572948299E-2,-3.240277618E-2,-1.605705619E-1
4.214114660E0,-2.817294188E-2,-3.851142526E-2,-1.642357409E-1
4.216681796E0,-2.572948299E-2,-4.706352949E-2,-1.617922932E-1
4.219249296E0,-2.450775355E-2,-5.805909634E-2,-1.630140096E-1
4.221832473E0,-2.206429467E-2,-6.905466318E-2,-1.630140096E-1
4.224381379E0,-1.962083578E-2,-8.249368519E-2,-1.630140096E-1
4.226948463E0,-1.839910634E-2,-9.104578942E-2,-1.593488306E-1
4.229515858E0,-1.351218857E-2,-1.008196250E-1,-1.593488306E-1
4.232083463E0,-1.229045913E-2,-1.081500053E-1,-1.581270993E-1
4.234650650E0,-9.847000241E-3,-1.154803783E-1,-1.569053680E-1
4.237217994E0,-9.847000241E-3,-1.240324900E-1,-1.544619054E-1
4.239785546E0,-7.403541356E-3,-1.313628554E-1,-1.520184427E-1
4.242352317E0,-6.181811914E-3,-1.386932284E-1,-1.459098011E-1
4.244922317E0,-6.181811914E-3,-1.484670639E-1,-1.434663385E-1
4.247446744E0,-2.516623586E-3,-1.557974368E-1,-1.410228908E-1
4.249964400E0,-2.516623586E-3,-1.619060934E-1,-1.373576969E-1
4.252478254E0,-2.516623586E-3,-1.655712873E-1,-1.336925030E-1
4.254996119E0,1.148564741E-3,-1.729016602E-1,-1.300273240E-1
4.257512160E0,3.592023626E-3,-1.777885705E-1,-1.251403987E-1
4.260029973E0,3.592023626E-3,-1.826754957E-1,-1.214752123E-1
4.262546119E0,7.257211953E-3,-1.863406748E-1,-1.165882945E-1
4.265062994E0,8.478941396E-3,-1.900058687E-1,-1.117013767E-1
4.267580129E0,8.478941396E-3,-1.948927790E-1,-1.043710038E-1
4.270097160E0,1.214412972E-2,-1.973362416E-1,-1.007058173E-1
4.272613879E0,1.580931805E-2,-1.985579729E-1,-9.459716827E-2
4.275131015E0,1.703104749E-2,-2.022231668E-1,-8.848851919E-2
4.277647421E0,1.947450638E-2,-2.010014355E-1,-8.482333273E-2
4.280164921E0,1.947450638E-2,-1.997797042E-1,-7.749295235E-2
4.282682056E0,2.313969284E-2,-1.985579729E-1,-7.260603458E-2
4.285201275E0,2.558315545E-2,-1.985579729E-1,-6.649738550E-2
4.287718879E0,2.680488303E-2,-1.961145103E-1,-6.161047146E-2
4.290233879E0,2.924834192E-2,-1.924493313E-1,-5.672355369E-2
4.292749817E0,2.924834192E-2,-1.900058687E-1,-5.305836350E-2
4.295267838E0,2.924834192E-2,-1.863406748E-1,-4.817144573E-2
4.297783827E0,3.291352838E-2,-1.838972270E-1,-4.206280038E-2
4.300300806E0,3.169180080E-2,-1.814537644E-1,-3.961934149E-2
4.302817785E0,3.535699099E-2,-1.790103018E-1,-3.473242372E-2
4.305335650E0,3.535699099E-2,-1.741233915E-1,-3.228896484E-2
4.307852629E0,3.535699099E-2,-1.704581976E-1,-2.862377651E-2
4.310368619E0,3.657871857E-2,-1.667930037E-1,-2.740204707E-2
4.312885546E0,3.535699099E-2,-1.631278247E-1,-2.251512930E-2
4.315402785E0,3.535699099E-2,-1.619060934E-1,-1.640648209E-2
4.317920181E0,3.657871857E-2,-1.606843621E-1,-1.396302413E-2
4.320436900E0,3.657871857E-2,-1.594626307E-1,-1.029783580E-2
4.322979452E0,3.657871857E-2,-1.606843621E-1,-6.632647011E-3
4.325472629E0,3.780044615E-2,-1.594626307E-1,-5.410917569E-3
4.327989869E0,3.902217746E-2,-1.582408994E-1,-5.239999737E-4
4.330506796E0,4.146563634E-2,-1.570191681E-1,1.919458853E-3
4.333024035E0,4.635255411E-2,-1.570191681E-1,4.362917971E-3
4.335541692E0,4.757428169E-2,-1.594626307E-1,5.584647413E-3
4.338057838E0,5.123947188E-2,-1.594626307E-1,1.169329416E-2
4.340575285E0,5.001774430E-2,-1.570191681E-1,1.780194230E-2
4.343092160E0,5.123947188E-2,-1.582408994E-1,2.146713063E-2
4.345607265E0,5.490466207E-2,-1.606843621E-1,2.635404840E-2
4.348123410E0,5.734811723E-2,-1.643495560E-1,3.001923673E-2
4.350641171E0,5.979157984E-2,-1.704581976E-1,3.124096617E-2
4.353157265E0,6.223503500E-2,-1.753451079E-1,3.001923673E-2
4.355675181E0,6.834368408E-2,-1.814537644E-1,2.757577784E-2
4.358191483E0,6.956541538E-2,-1.838972270E-1,2.879750729E-2
4.360708202E0,7.323060185E-2,-1.863406748E-1,2.879750729E-2
4.363228358E0,7.689578831E-2,-1.875624061E-1,2.757577784E-2
4.365745233E0,8.056098223E-2,-1.863406748E-1,2.635404840E-2
4.368261640E0,8.422616869E-2,-1.863406748E-1,2.879750729E-2
4.370778723E0,8.422616869E-2,-1.936710626E-1,3.001923673E-2
4.373295650E0,8.300443739E-2,-1.997797042E-1,2.879750729E-2
4.375812473E0,8.300443739E-2,-1.985579729E-1,2.879750729E-2
4.378330702E0,8.422616869E-2,-1.924493313E-1,3.001923673E-2
4.380846327E0,8.178270608E-2,-1.838972270E-1,3.001923673E-2
4.383363879E0,7.933925092E-2,-1.765668392E-1,2.879750729E-2
4.385880806E0,7.689578831E-2,-1.667930037E-1,2.757577784E-2
4.388397369E0,7.689578831E-2,-1.545757204E-1,2.513231896E-2
4.390914140E0,7.200887054E-2,-1.411366910E-1,2.391058952E-2
4.393431431E0,7.078714669E-2,-1.301411241E-1,2.268886007E-2
4.395946171E0,7.200887054E-2,-1.191455647E-1,1.902367175E-2
4.398463827E0,6.956541538E-2,-1.057065427E-1,1.658021286E-2
4.400982160E0,6.956541538E-2,-9.226752073E-2,1.658021286E-2
4.403499452E0,6.712195277E-2,-8.127195388E-2,1.535848249E-2
4.406015910E0,6.467849761E-2,-7.027638704E-2,1.413675305E-2
4.408533410E0,6.712195277E-2,-6.172428280E-2,1.291502360E-2
4.411073983E0,6.467849761E-2,-5.195044726E-2,1.169329416E-2
4.413567108E0,6.590022147E-2,-4.339834303E-2,9.249835275E-3
4.416084400E0,6.590022147E-2,-3.606796637E-2,5.584647413E-3
4.418601015E0,6.590022147E-2,-3.118104860E-2,3.141188296E-3
4.421118046E0,6.590022147E-2,-2.751585841E-2,6.977294688E-4
4.423662785E0,6.712195277E-2,-2.385067195E-2,-1.745729474E-3
4.426153306E0,6.834368408E-2,-2.262894064E-2,-1.745729474E-3
4.428668931E0,6.834368408E-2,-1.896375418E-2,-2.967458917E-3
4.431183567E0,7.078714669E-2,-1.652029529E-2,-7.854376920E-3
4.433656744E0,7.200887054E-2,-1.529856492E-2,-1.151956525E-2
4.436177160E0,7.200887054E-2,-1.285510603E-2,-1.640648209E-2
4.438743933E0,7.445233315E-2,-6.746458821E-3,-1.640648209E-2
4.441261537E0,7.689578831E-2,-3.081270494E-3,-1.762821153E-2
4.443777787E0,7.567405701E-2,1.805647276E-3,-2.129339986E-2
4.446294819E0,7.811751962E-2,3.027376719E-3,-2.251512930E-2
4.448811642E0,7.811751962E-2,6.692565046E-3,-2.495858818E-2
4.451329350E0,7.445233315E-2,6.692565046E-3,-2.618031763E-2
4.453845704E0,7.811751962E-2,9.136023931E-3,-2.984550595E-2
4.456362579E0,7.445233315E-2,1.035775337E-2,-3.106723540E-2
4.458880600E0,7.323060185E-2,1.280121226E-2,-3.228896484E-2
4.461421537E0,7.200887054E-2,1.280121226E-2,-3.351069242E-2
4.463937006E0,7.200887054E-2,1.280121226E-2,-3.473242372E-2
4.466456069E0,6.590022147E-2,6.692565046E-3,-3.595415503E-2
4.468970339E0,6.101331115E-2,-6.378116086E-4,-3.961934149E-2
4.471487423E0,5.979157984E-2,-6.378116086E-4,-4.084107280E-2
4.474005183E0,5.612638593E-2,4.249106161E-3,-4.206280038E-2
4.476521589E0,5.368293077E-2,1.035775337E-2,-4.572799057E-2
4.479039089E0,4.757428169E-2,1.646640152E-2,-4.694971815E-2
4.481556121E0,4.268736392E-2,2.257504687E-2,-4.817144573E-2
4.484072006E0,3.780044615E-2,2.868369222E-2,-4.817144573E-2
4.486590079E0,3.535699099E-2,3.234888241E-2,-5.061490834E-2
4.489106433E0,3.169180080E-2,3.601407260E-2,-5.305836350E-2
4.491625235E0,2.924834192E-2,3.723580018E-2,-5.428009480E-2
4.494140496E0,2.680488303E-2,3.845752776E-2,-5.550182611E-2
4.496657423E0,2.680488303E-2,3.967925906E-2,-5.550182611E-2
4.499174662E0,2.680488303E-2,3.845752776E-2,-5.916701257E-2
4.501690548E0,2.558315545E-2,3.479234129E-2,-6.161047146E-2
4.504207787E0,2.558315545E-2,3.234888241E-2,-6.527566165E-2
4.506726329E0,2.924834192E-2,2.990542352E-2,-6.894084811E-2
4.509243777E0,2.924834192E-2,2.990542352E-2,-7.260603458E-2
4.511757631E0,3.047007322E-2,2.624023706E-2,-7.504949719E-2
4.514274402E0,3.535699099E-2,2.624023706E-2,-7.749295235E-2
4.516791225E0,3.657871857E-2,2.257504687E-2,-8.115814626E-2
4.519310756E0,3.902217746E-2,2.013158798E-2,-8.360160142E-2
4.521804350E0,4.024390876E-2,1.890986040E-2,-8.360160142E-2
4.524355183E0,4.390909523E-2,1.402294170E-2,-8.482333273E-2
4.526860808E0,4.390909523E-2,1.157948282E-2,-8.604505658E-2
4.529377579E0,4.513082653E-2,9.136023931E-3,-8.482333273E-2
4.531894037E0,4.879601300E-2,6.692565046E-3,-8.604505658E-2
4.534388777E0,4.879601300E-2,6.692565046E-3,-8.848851919E-2
4.536928517E0,5.123947188E-2,3.027376719E-3,-9.093198180E-2
4.539448152E0,5.490466207E-2,-3.081270494E-3,-9.093198180E-2
4.541963048E0,5.856984854E-2,-6.746458821E-3,-9.215370566E-2
4.544479662E0,6.223503500E-2,-1.041164715E-2,-9.215370566E-2
4.546995652E0,6.590022147E-2,-1.896375418E-2,-9.215370566E-2
4.549511121E0,6.956541538E-2,-2.629413083E-2,-9.215370566E-2
4.552027683E0,7.078714669E-2,-3.118104860E-2,-9.093198180E-2
4.554546225E0,7.078714669E-2,-3.484623507E-2,-8.726678789E-2
4.557063204E0,6.956541538E-2,-3.728969395E-2,-8.237987012E-2
4.559579558E0,7.200887054E-2,-4.217661172E-2,-7.993641496E-2
4.562098204E0,7.200887054E-2,-4.339834303E-2,-7.382776588E-2
4.564615860E0,7.078714669E-2,-4.584180191E-2,-7.138431072E-2
4.567132944E0,7.078714669E-2,-4.828526080E-2,-6.771911681E-2
4.569650444E0,7.200887054E-2,-5.072871968E-2,-6.283219904E-2
4.572167058E0,6.956541538E-2,-5.439390987E-2,-5.794528127E-2
4.574660600E0,6.834368408E-2,-5.928082764E-2,-5.305836350E-2
4.577177475E0,6.956541538E-2,-6.050255522E-2,-4.939317703E-2
4.579694714E0,6.956541538E-2,-6.172428280E-2,-4.328452796E-2
4.582209558E0,6.712195277E-2,-6.416774541E-2,-3.961934149E-2
4.584726537E0,6.590022147E-2,-6.661120057E-2,-3.595415503E-2
4.587243777E0,6.467849761E-2,-6.661120057E-2,-3.228896484E-2
4.589760183E0,6.345676631E-2,-6.538946927E-2,-2.862377651E-2
4.592277110E0,5.979157984E-2,-6.661120057E-2,-2.251512930E-2
4.594793725E0,6.101331115E-2,-6.661120057E-2,-1.884994097E-2
4.597267423E0,6.101331115E-2,-6.416774541E-2,-1.518475357E-2
4.599829089E0,5.979157984E-2,-6.294601411E-2,-1.151956525E-2
4.602347631E0,5.734811723E-2,-6.172428280E-2,-9.076106362E-3
4.604863933E0,5.612638593E-2,-5.805909634E-2,-5.410917569E-3
4.607381485E0,5.734811723E-2,-5.317217857E-2,-5.410917569E-3
4.609899194E0,5.490466207E-2,-4.706352949E-2,-1.745729474E-3
4.612416173E0,5.246119946E-2,-4.462007433E-2,-1.745729474E-3
4.614930183E0,5.246119946E-2,-4.217661172E-2,-5.239999737E-4
4.617448412E0,5.001774430E-2,-4.217661172E-2,-1.745729474E-3
4.619964089E0,5.001774430E-2,-3.728969395E-2,-1.745729474E-3
4.622480808E0,4.879601300E-2,-3.484623507E-2,-2.967458917E-3
4.625022787E0,4.757428169E-2,-2.995931730E-2,-2.967458917E-3
4.627515079E0,4.635255411E-2,-2.629413083E-2,-4.189188126E-3
4.630032006E0,4.513082653E-2,-2.140721306E-2,-4.189188126E-3
4.632548933E0,4.513082653E-2,-1.896375418E-2,-6.632647011E-3
4.635066017E0,4.513082653E-2,-1.652029529E-2,-6.632647011E-3
4.637583100E0,4.268736392E-2,-1.285510603E-2,-7.854376920E-3
4.640100808E0,4.024390876E-2,-1.041164715E-2,-1.151956525E-2
4.642616850E0,4.268736392E-2,-7.968188263E-3,-1.274129469E-2
4.645136121E0,4.390909523E-2,-6.746458821E-3,-1.518475357E-2
4.647654037E0,4.390909523E-2,-4.302999936E-3,-1.762821153E-2
4.650167787E0,4.635255411E-2,-1.859541051E-3,-2.007167041E-2
4.652684558E0,4.635255411E-2,3.027376719E-3,-2.251512930E-2
4.655202527E0,4.757428169E-2,5.470835604E-3,-2.251512930E-2
4.657719714E0,4.879601300E-2,6.692565046E-3,-2.251512930E-2
4.660238881E0,5.123947188E-2,9.136023931E-3,-2.251512930E-2
4.662755287E0,5.246119946E-2,1.157948282E-2,-2.495858818E-2
4.665272162E0,5.368293077E-2,1.280121226E-2,-2.129339986E-2
4.667786954E0,5.246119946E-2,1.646640152E-2,-2.129339986E-2
4.670303777E0,5.246119946E-2,1.890986040E-2,-2.251512930E-2
4.672844194E0,5.368293077E-2,2.257504687E-2,-2.007167041E-2
4.675338412E0,5.490466207E-2,2.746196464E-2,-2.129339986E-2
4.677854662E0,5.490466207E-2,2.868369222E-2,-1.884994097E-2
4.680371485E0,5.368293077E-2,3.112715483E-2,-1.518475357E-2
4.682888829E0,5.246119946E-2,3.357060999E-2,-1.274129469E-2
4.685408048E0,5.246119946E-2,3.357060999E-2,-1.029783580E-2
4.687925079E0,5.001774430E-2,3.601407260E-2,-9.076106362E-3
4.690442631E0,5.001774430E-2,3.723580018E-2,-9.076106362E-3
4.692958725E0,4.757428169E-2,3.601407260E-2,-5.410917569E-3
4.695475912E0,4.635255411E-2,3.601407260E-2,-5.410917569E-3
4.697992631E0,4.513082653E-2,3.357060999E-2,-2.967458917E-3
4.700509714E0,4.513082653E-2,3.234888241E-2,-5.239999737E-4
4.703026850E0,4.390909523E-2,3.234888241E-2,6.977294688E-4
4.705543621E0,4.146563634E-2,2.868369222E-2,6.977294688E-4
4.708060548E0,4.146563634E-2,2.624023706E-2,1.919458853E-3
4.710577579E0,3.902217746E-2,2.501850575E-2,6.977294688E-4
4.713094714E0,3.780044615E-2,2.135331929E-2,1.919458853E-3
4.715612475E0,3.657871857E-2,2.013158798E-2,6.977294688E-4
4.718128725E0,3.413525969E-2,1.646640152E-2,1.919458853E-3
4.720645652E0,3.291352838E-2,1.402294170E-2,1.919458853E-3
4.723187319E0,3.535699099E-2,1.280121226E-2,-5.239999737E-4
4.725704871E0,3.169180080E-2,1.157948282E-2,-1.745729474E-3
4.728196642E0,3.169180080E-2,1.035775337E-2,-4.189188126E-3
4.730713464E0,3.047007322E-2,7.914294489E-3,-5.410917569E-3
4.733228152E0,3.047007322E-2,6.692565046E-3,-7.854376920E-3
4.735745183E0,2.802661061E-2,5.470835604E-3,-1.029783580E-2
4.738262058E0,2.680488303E-2,3.027376719E-3,-1.151956525E-2
4.740779194E0,2.680488303E-2,-6.378116086E-4,-1.518475357E-2
4.743296017E0,2.436142415E-2,-4.302999936E-3,-1.762821153E-2
4.745814454E0,2.436142415E-2,-5.524729379E-3,-2.129339986E-2
4.748330131E0,2.313969284E-2,-7.968188263E-3,-2.495858818E-2
4.750847735E0,2.069623582E-2,-7.968188263E-3,-2.862377651E-2
4.753364142E0,2.069623582E-2,-1.041164715E-2,-3.106723540E-2
4.755880808E0,2.069623582E-2,-1.285510603E-2,-3.473242372E-2
4.758397944E0,1.947450638E-2,-1.407683548E-2,-3.839761019E-2
4.760915912E0,1.825277694E-2,-1.652029529E-2,-3.961934149E-2
4.763434037E0,1.825277694E-2,-1.774202287E-2,-4.328452796E-2
4.765951485E0,1.825277694E-2,-2.140721306E-2,-4.694971815E-2
4.768466225E0,1.825277694E-2,-2.507239953E-2,-4.817144573E-2
4.770984037E0,1.825277694E-2,-2.751585841E-2,-5.061490834E-2
4.773526954E0,1.947450638E-2,-3.118104860E-2,-5.061490834E-2
4.776019089E0,1.947450638E-2,-3.484623507E-2,-5.061490834E-2
4.778536277E0,1.825277694E-2,-3.728969395E-2,-5.183663592E-2
4.781052839E0,1.825277694E-2,-4.217661172E-2,-5.428009480E-2
4.783570339E0,1.947450638E-2,-4.706352949E-2,-5.550182611E-2
4.786086954E0,1.947450638E-2,-5.072871968E-2,-5.428009480E-2
4.788604610E0,2.069623582E-2,-5.561563745E-2,-5.428009480E-2
4.791121069E0,2.191796526E-2,-6.050255522E-2,-5.183663592E-2
4.793637996E0,2.069623582E-2,-6.661120057E-2,-5.061490834E-2
4.796152944E0,2.191796526E-2,-6.905466318E-2,-4.939317703E-2
4.798669610E0,2.313969284E-2,-7.394158095E-2,-4.817144573E-2
4.801188985E0,2.313969284E-2,-8.005022258E-2,-4.939317703E-2
4.803705964E0,2.191796526E-2,-9.471098334E-2,-4.450625926E-2
4.806222683E0,2.313969284E-2,-1.093717292E-1,-4.084107280E-2
4.808740652E0,2.069623582E-2,-1.118151918E-1,-3.839761019E-2
4.811256746E0,1.825277694E-2,-1.069282740E-1,-3.473242372E-2
4.813773881E0,1.458758861E-2,-1.008196250E-1,-3.106723540E-2
4.816288569E0,1.214412972E-2,-1.008196250E-1,-2.740204707E-2
4.818805652E0,1.092240028E-2,-1.020413563E-1,-2.373685874E-2
4.821322475E0,8.478941396E-3,-1.057065427E-1,-1.884994097E-2
4.823840392E0,8.478941396E-3,-1.105934605E-1,-1.518475357E-2
4.826381694E0,3.592023626E-3,-1.130369231E-1,-1.151956525E-2
4.828873569E0,2.370294183E-3,-1.142586544E-1,-7.854376920E-3
4.831390860E0,1.148564741E-3,-1.167021096E-1,-5.410917569E-3
4.833907162E0,-1.294894144E-3,-1.179238409E-1,-1.745729474E-3
4.836424298E0,-3.738353029E-3,-1.215890273E-1,-1.745729474E-3
4.838941694E0,-4.960082471E-3,-1.240324900E-1,-1.745729474E-3
4.841458464E0,-8.625270799E-3,-1.240324900E-1,-5.239999737E-4
4.843977423E0,-1.106872968E-2,-1.252542138E-1,6.977294688E-4
4.846495704E0,-1.595564745E-2,-1.240324900E-1,6.977294688E-4
4.849009089E0,-1.595564745E-2,-1.203672960E-1,6.977294688E-4
4.851527267E0,-1.717737690E-2,-1.191455647E-1,-1.745729474E-3
4.854043412E0,-1.962083578E-2,-1.167021096E-1,-1.745729474E-3
4.856561173E0,-1.962083578E-2,-1.118151918E-1,-2.967458917E-3
4.859077371E0,-2.206429467E-2,-1.081500053E-1,-5.410917569E-3
4.861594037E0,-2.084256522E-2,-1.032630876E-1,-7.854376920E-3
4.864110912E0,-2.084256522E-2,-9.837616980E-2,-7.854376920E-3
4.866628308E0,-1.962083578E-2,-9.348925203E-2,-9.076106362E-3
4.869145079E0,-1.962083578E-2,-8.615887165E-2,-1.396302413E-2
4.871662006E0,-2.084256522E-2,-7.882849872E-2,-1.640648209E-2
4.874179923E0,-1.839910634E-2,-7.271984965E-2,-1.640648209E-2
4.876695912E0,-1.351218857E-2,-7.149811834E-2,-2.007167041E-2
4.879213360E0,-1.106872968E-2,-7.394158095E-2,-2.251512930E-2
4.881730027E0,-6.181811914E-3,-7.516331226E-2,-2.618031763E-2
4.884249558E0,-3.738353029E-3,-6.661120057E-2,-2.862377651E-2
4.886766433E0,-1.294894144E-3,-5.561563745E-2,-2.984550595E-2
4.889283100E0,1.148564741E-3,-4.584180191E-2,-3.106723540E-2
4.891800235E0,2.370294183E-3,-3.973315656E-2,-3.351069242E-2
4.894317944E0,6.035482511E-3,-3.118104860E-2,-3.473242372E-2
4.896833985E0,9.700670838E-3,-2.629413083E-2,-3.595415503E-2
4.899350183E0,1.336585917E-2,-2.262894064E-2,-3.473242372E-2
4.901867006E0,1.703104749E-2,-1.896375418E-2,-3.351069242E-2
4.904383933E0,1.947450638E-2,-1.529856492E-2,-3.106723540E-2
4.906900548E0,2.436142415E-2,-1.285510603E-2,-3.106723540E-2
4.909417683E0,2.558315545E-2,-1.285510603E-2,-3.106723540E-2
4.911933777E0,2.680488303E-2,-1.407683548E-2,-2.862377651E-2
4.914451642E0,3.169180080E-2,-1.285510603E-2,-2.740204707E-2
4.916967839E0,3.413525969E-2,-1.163337659E-2,-2.495858818E-2
4.919485079E0,3.657871857E-2,-9.189917706E-3,-2.373685874E-2
4.922001537E0,3.780044615E-2,-7.968188263E-3,-2.007167041E-2
4.924518569E0,3.902217746E-2,-4.302999936E-3,-2.007167041E-2
4.927063464E0,3.902217746E-2,-3.081270494E-3,-1.762821153E-2
4.929552839E0,4.024390876E-2,-6.378116086E-4,-1.640648209E-2
4.932069506E0,4.024390876E-2,-6.378116086E-4,-1.518475357E-2
4.934586746E0,4.024390876E-2,5.839178339E-4,-1.151956525E-2
4.937103829E0,4.268736392E-2,3.027376719E-3,-1.274129469E-2
4.939620600E0,4.268736392E-2,5.470835604E-3,-1.274129469E-2
4.942137631E0,4.390909523E-2,6.692565046E-3,-1.151956525E-2
4.944655339E0,4.513082653E-2,7.914294489E-3,-1.151956525E-2
4.947171485E0,4.635255411E-2,9.136023931E-3,-1.151956525E-2
4.949688673E0,4.879601300E-2,1.035775337E-2,-1.029783580E-2
4.952205444E0,5.001774430E-2,1.402294170E-2,-1.029783580E-2
4.954722631E0,5.123947188E-2,1.646640152E-2,-1.151956525E-2
4.957239402E0,5.368293077E-2,1.768812910E-2,-1.274129469E-2
4.959756485E0,5.368293077E-2,1.768812910E-2,-1.274129469E-2
4.962273517E0,5.612638593E-2,1.524467114E-2,-1.396302413E-2
4.964792683E0,5.612638593E-2,1.524467114E-2,-1.151956525E-2
4.967310079E0,5.734811723E-2,1.402294170E-2,-1.274129469E-2
4.969826589E0,5.856984854E-2,1.280121226E-2,-1.396302413E-2
4.972344142E0,6.101331115E-2,1.402294170E-2,-1.151956525E-2
4.974860548E0,6.345676631E-2,1.768812910E-2,-1.029783580E-2
4.977378152E0,6.467849761E-2,1.890986040E-2,-1.029783580E-2
4.979895444E0,6.712195277E-2,2.013158798E-2,-9.076106362E-3
4.982411069E0,6.956541538E-2,2.257504687E-2,-7.854376920E-3
4.984928256E0,7.200887054E-2,2.379677817E-2,-5.410917569E-3
4.987445964E0,7.567405701E-2,2.379677817E-2,-4.189188126E-3
4.989962267E0,7.811751962E-2,2.501850575E-2,-1.745729474E-3
4.992479714E0,8.178270608E-2,2.624023706E-2,1.919458853E-3
4.994994246E0,8.056098223E-2,2.746196464E-2,4.362917971E-3
4.997511173E0,8.178270608E-2,2.746196464E-2,1.047156472E-2
5.000030287E0,8.178270608E-2,2.746196464E-2,1.047156472E-2
5.002547944E0,8.666962385E-2,2.746196464E-2,1.413675305E-2
5.005092267E0,8.911308646E-2,2.501850575E-2,1.658021286E-2
5.007581329E0,8.911308646E-2,2.501850575E-2,1.902367175E-2
5.010051537E0,9.033481777E-2,2.379677817E-2,2.146713063E-2
5.012615756E0,9.277827293E-2,2.135331929E-2,2.391058952E-2
5.015132058E0,9.277827293E-2,2.013158798E-2,2.391058952E-2
5.017649089E0,9.277827293E-2,1.890986040E-2,2.757577784E-2
