"Time (s)","Gyroscope x (rad/s)","Gyroscope y (rad/s)","Gyroscope z (rad/s)"
1.316245700E-2,7.878749818E-2,6.737499963E-3,8.524999954E-3
1.569965200E-2,7.878749818E-2,6.737499963E-3,8.524999954E-3
1.823683300E-2,7.878749818E-2,6.737499963E-3,8.524999954E-3
2.077332600E-2,7.878749818E-2,6.737499963E-3,8.524999954E-3
2.330983300E-2,7.878749818E-2,6.737499963E-3,8.524999954E-3
2.584733200E-2,7.878749818E-2,6.737499963E-3,8.524999954E-3
2.838483100E-2,7.878749818E-2,6.737499963E-3,8.524999954E-3
3.092240800E-2,7.878749818E-2,6.737499963E-3,8.524999954E-3
3.345998500E-2,7.878749818E-2,6.737499963E-3,8.524999954E-3
3.599781100E-2,7.878749818E-2,6.737499963E-3,8.524999954E-3
3.853562000E-2,7.878749818E-2,6.737499963E-3,8.524999954E-3
4.107284900E-2,7.878749818E-2,6.737499963E-3,8.524999954E-3
4.361008200E-2,7.878749818E-2,6.737499963E-3,8.524999954E-3
4.614703400E-2,7.878749818E-2,6.737499963E-3,8.524999954E-3
4.868395700E-2,7.878749818E-2,6.737499963E-3,8.524999954E-3
5.122122600E-2,7.878749818E-2,6.737499963E-3,8.524999954E-3
5.375849500E-2,7.878749818E-2,6.737499963E-3,8.524999954E-3
5.629541600E-2,7.878749818E-2,6.737499963E-3,8.524999954E-3
5.883234100E-2,7.878749818E-2,6.737499963E-3,8.524999954E-3
6.136860900E-2,7.878749818E-2,6.737499963E-3,8.524999954E-3
6.390487800E-2,7.878749818E-2,6.737499963E-3,8.524999954E-3
6.644241800E-2,2.956249937E-2,-2.131249942E-2,3.849999979E-3
6.897995500E-2,2.956249937E-2,-2.131249942E-2,3.849999979E-3
7.151691600E-2,2.956249937E-2,-2.131249942E-2,3.849999979E-3
7.405387900E-2,2.956249937E-2,-2.131249942E-2,3.849999979E-3
7.659140800E-2,2.956249937E-2,-2.131249942E-2,3.849999979E-3
7.912894500E-2,2.956249937E-2,-2.131249942E-2,3.849999979E-3
8.166659900E-2,2.956249937E-2,-2.131249942E-2,3.849999979E-3
8.420425400E-2,2.956249937E-2,-2.131249942E-2,3.849999979E-3
8.674071800E-2,4.001250118E-2,-1.704999991E-2,5.362499971E-3
8.927718100E-2,4.001250118E-2,-1.704999991E-2,5.362499971E-3
9.181348900E-2,4.001250118E-2,-1.704999991E-2,5.362499971E-3
9.434979600E-2,4.001250118E-2,-1.704999991E-2,5.362499971E-3
9.688660900E-2,4.001250118E-2,-1.704999991E-2,5.362499971E-3
9.942341600E-2,4.001250118E-2,-1.704999991E-2,5.362499971E-3
1.019604930E-1,4.001250118E-2,-1.704999991E-2,5.362499971E-3
1.044975700E-1,4.001250118E-2,-1.704999991E-2,5.362499971E-3
1.070355990E-1,5.046249926E-2,-8.249999955E-3,7.012499962E-3
1.095736000E-1,5.046249926E-2,-8.249999955E-3,7.012499962E-3
1.121101750E-1,5.046249926E-2,-8.249999955E-3,7.012499962E-3
1.146467520E-1,5.046249926E-2,-8.249999955E-3,7.012499962E-3
1.171840080E-1,5.046249926E-2,-8.249999955E-3,7.012499962E-3
1.197212770E-1,5.046249926E-2,-8.249999955E-3,7.012499962E-3
1.222583520E-1,5.046249926E-2,-8.249999955E-3,7.012499962E-3
1.247954310E-1,5.046249926E-2,-8.249999955E-3,7.012499962E-3
1.273322000E-1,4.675000161E-2,1.099999994E-3,6.462499965E-3
1.298689690E-1,4.675000161E-2,1.099999994E-3,6.462499965E-3
1.324063160E-1,4.675000161E-2,1.099999994E-3,6.462499965E-3
1.349436610E-1,4.675000161E-2,1.099999994E-3,6.462499965E-3
1.374811080E-1,4.675000161E-2,1.099999994E-3,6.462499965E-3
1.400185310E-1,4.675000161E-2,1.099999994E-3,6.462499965E-3
1.425561840E-1,4.675000161E-2,1.099999994E-3,6.462499965E-3
1.450938390E-1,4.675000161E-2,1.099999994E-3,6.462499965E-3
1.476320310E-1,4.138749838E-2,8.249999955E-4,5.362499971E-3
1.501702240E-1,4.138749838E-2,8.249999955E-4,5.362499971E-3
1.527072990E-1,4.138749838E-2,8.249999955E-4,5.362499971E-3
1.552443780E-1,4.138749838E-2,8.249999955E-4,5.362499971E-3
1.577812660E-1,4.138749838E-2,8.249999955E-4,5.362499971E-3
1.603181510E-1,4.138749838E-2,8.249999955E-4,5.362499971E-3
1.628555740E-1,4.138749838E-2,8.249999955E-4,5.362499971E-3
1.653929970E-1,4.138749838E-2,8.249999955E-4,5.362499971E-3
1.679301880E-1,3.712499887E-2,-0.000000000E0,4.399999976E-3
1.704673810E-1,3.712499887E-2,-0.000000000E0,4.399999976E-3
1.730043430E-1,3.712499887E-2,-0.000000000E0,4.399999976E-3
1.755413040E-1,3.712499887E-2,-0.000000000E0,4.399999976E-3
1.780782230E-1,3.712499887E-2,-0.000000000E0,4.399999976E-3
1.806151460E-1,3.712499887E-2,-0.000000000E0,4.399999976E-3
1.831520300E-1,3.712499887E-2,-0.000000000E0,4.399999976E-3
1.856889150E-1,3.712499887E-2,-0.000000000E0,4.399999976E-3
1.882259050E-1,3.341250122E-2,4.537499975E-3,3.987499978E-3
1.907628660E-1,3.341250122E-2,4.537499975E-3,3.987499978E-3
1.932997890E-1,3.341250122E-2,4.537499975E-3,3.987499978E-3
1.958367140E-1,3.341250122E-2,4.537499975E-3,3.987499978E-3
1.983735980E-1,3.341250122E-2,4.537499975E-3,3.987499978E-3
2.009104830E-1,3.341250122E-2,4.537499975E-3,3.987499978E-3
2.034483290E-1,3.341250122E-2,4.537499975E-3,3.987499978E-3
2.059861740E-1,3.341250122E-2,4.537499975E-3,3.987499978E-3
2.085229670E-1,3.217500076E-2,2.639999986E-2,4.399999976E-3
2.110597760E-1,3.217500076E-2,2.639999986E-2,4.399999976E-3
2.135971620E-1,3.217500076E-2,2.639999986E-2,4.399999976E-3
2.161345450E-1,3.217500076E-2,2.639999986E-2,4.399999976E-3
2.186713130E-1,3.217500076E-2,2.639999986E-2,4.399999976E-3
2.212080840E-1,3.217500076E-2,2.639999986E-2,4.399999976E-3
2.237446610E-1,3.217500076E-2,2.639999986E-2,4.399999976E-3
2.262812380E-1,3.217500076E-2,2.639999986E-2,4.399999976E-3
2.288183530E-1,3.341250122E-2,7.039999962E-2,5.637499969E-3
2.313554680E-1,3.341250122E-2,7.039999962E-2,5.637499969E-3
2.338925450E-1,3.341250122E-2,7.039999962E-2,5.637499969E-3
2.364296220E-1,3.341250122E-2,7.039999962E-2,5.637499969E-3
2.389665070E-1,3.341250122E-2,7.039999962E-2,5.637499969E-3
2.415033920E-1,3.341250122E-2,7.039999962E-2,5.637499969E-3
2.440407770E-1,3.341250122E-2,7.039999962E-2,5.637499969E-3
2.465781600E-1,3.341250122E-2,7.039999962E-2,5.637499969E-3
2.491161700E-1,3.423750028E-2,1.267749965E-1,6.874999963E-3
2.516541710E-1,3.423750028E-2,1.267749965E-1,6.874999963E-3
2.541912850E-1,3.423750028E-2,1.267749965E-1,6.874999963E-3
2.567284020E-1,3.423750028E-2,1.267749965E-1,6.874999963E-3
2.592659020E-1,3.423750028E-2,1.267749965E-1,6.874999963E-3
2.618034010E-1,3.423750028E-2,1.267749965E-1,6.874999963E-3
2.643407850E-1,3.437500075E-2,1.725624949E-1,7.287499961E-3
2.668781700E-1,3.437500075E-2,1.725624949E-1,7.287499961E-3
2.694154400E-1,3.437500075E-2,1.725624949E-1,7.287499961E-3
2.719527090E-1,3.437500075E-2,1.725624949E-1,7.287499961E-3
2.744900940E-1,3.437500075E-2,1.725624949E-1,7.287499961E-3
2.770274790E-1,3.437500075E-2,1.725624949E-1,7.287499961E-3
2.795645530E-1,3.437500075E-2,1.725624949E-1,7.287499961E-3
2.821016320E-1,3.437500075E-2,1.725624949E-1,7.287499961E-3
2.846386710E-1,4.083750024E-2,1.952500045E-1,7.562499959E-3
2.871757080E-1,4.083750024E-2,1.952500045E-1,7.562499959E-3
2.897132620E-1,4.083750024E-2,1.952500045E-1,7.562499959E-3
2.922508390E-1,4.083750024E-2,1.952500045E-1,7.562499959E-3
2.947880300E-1,4.083750024E-2,1.952500045E-1,7.562499959E-3
2.973252230E-1,4.083750024E-2,1.952500045E-1,7.562499959E-3
2.998624920E-1,4.083750024E-2,1.952500045E-1,7.562499959E-3
3.023997610E-1,4.083750024E-2,1.952500045E-1,7.562499959E-3
3.049372990E-1,6.256250292E-2,2.091374993E-1,9.487500414E-3
3.074748380E-1,6.256250292E-2,2.091374993E-1,9.487500414E-3
3.100125450E-1,6.256250292E-2,2.091374993E-1,9.487500414E-3
3.125502380E-1,6.256250292E-2,2.091374993E-1,9.487500414E-3
3.150875830E-1,6.256250292E-2,2.091374993E-1,9.487500414E-3
3.176249300E-1,6.256250292E-2,2.091374993E-1,9.487500414E-3
3.201625220E-1,6.256250292E-2,2.091374993E-1,9.487500414E-3
3.227000990E-1,6.256250292E-2,2.091374993E-1,9.487500414E-3
3.252377900E-1,8.717499673E-2,2.153249979E-1,1.141249947E-2
3.277754830E-1,8.717499673E-2,2.153249979E-1,1.141249947E-2
3.303131750E-1,8.717499673E-2,2.153249979E-1,1.141249947E-2
3.328508680E-1,8.717499673E-2,2.153249979E-1,1.141249947E-2
3.353883660E-1,8.717499673E-2,2.153249979E-1,1.141249947E-2
3.379258670E-1,8.717499673E-2,2.153249979E-1,1.141249947E-2
3.404635460E-1,8.717499673E-2,2.153249979E-1,1.141249947E-2
3.430012370E-1,8.717499673E-2,2.153249979E-1,1.141249947E-2
3.455391220E-1,8.456250280E-2,1.934625059E-1,9.074999951E-3
3.480770070E-1,8.456250280E-2,1.934625059E-1,9.074999951E-3
3.506149580E-1,8.456250280E-2,1.934625059E-1,9.074999951E-3
3.531529210E-1,8.456250280E-2,1.934625059E-1,9.074999951E-3
3.556901500E-1,8.456250280E-2,1.934625059E-1,9.074999951E-3
3.582273810E-1,8.456250280E-2,1.934625059E-1,9.074999951E-3
3.607642810E-1,8.456250280E-2,1.934625059E-1,9.074999951E-3
3.633012040E-1,8.456250280E-2,1.934625059E-1,9.074999951E-3
3.658375500E-1,6.338749826E-2,1.500124931E-1,3.849999979E-3
3.683738970E-1,6.338749826E-2,1.500124931E-1,3.849999979E-3
3.709111280E-1,6.338749826E-2,1.500124931E-1,3.849999979E-3
3.734483570E-1,6.338749826E-2,1.500124931E-1,3.849999979E-3
3.759860500E-1,6.338749826E-2,1.500124931E-1,3.849999979E-3
3.785237430E-1,6.338749826E-2,1.500124931E-1,3.849999979E-3
3.810612550E-1,6.338749826E-2,1.500124931E-1,3.849999979E-3
3.835987560E-1,6.338749826E-2,1.500124931E-1,3.849999979E-3
3.861353720E-1,3.684999794E-2,1.075249985E-1,-2.062499989E-3
3.886719870E-1,3.684999794E-2,1.075249985E-1,-2.062499989E-3
3.912092570E-1,3.684999794E-2,1.075249985E-1,-2.062499989E-3
3.937465260E-1,3.684999794E-2,1.075249985E-1,-2.062499989E-3
3.962832550E-1,3.684999794E-2,1.075249985E-1,-2.062499989E-3
3.988199880E-1,3.684999794E-2,1.075249985E-1,-2.062499989E-3
4.013584700E-1,3.684999794E-2,1.075249985E-1,-2.062499989E-3
4.038969690E-1,3.684999794E-2,1.075249985E-1,-2.062499989E-3
4.064331210E-1,-4.372499883E-2,-1.029874980E-1,-2.021249942E-2
4.089692760E-1,-4.372499883E-2,-1.029874980E-1,-2.021249942E-2
4.115060220E-1,-4.372499883E-2,-1.029874980E-1,-2.021249942E-2
4.140427510E-1,-4.372499883E-2,-1.029874980E-1,-2.021249942E-2
4.165794050E-1,-4.372499883E-2,-1.029874980E-1,-2.021249942E-2
4.191160600E-1,-4.372499883E-2,-1.029874980E-1,-2.021249942E-2
4.216529440E-1,-4.372499883E-2,-1.029874980E-1,-2.021249942E-2
4.241898290E-1,-4.372499883E-2,-1.029874980E-1,-2.021249942E-2
4.267270970E-1,-1.155000031E-1,-3.210625052E-1,-4.111250117E-2
4.292643680E-1,-1.155000031E-1,-3.210625052E-1,-4.111250117E-2
4.318021650E-1,-1.155000031E-1,-3.210625052E-1,-4.111250117E-2
4.343400120E-1,-1.155000031E-1,-3.210625052E-1,-4.111250117E-2
4.368767410E-1,-1.155000031E-1,-3.210625052E-1,-4.111250117E-2
4.394134720E-1,-1.155000031E-1,-3.210625052E-1,-4.111250117E-2
4.419498190E-1,-1.155000031E-1,-3.210625052E-1,-4.111250117E-2
4.444861660E-1,-1.155000031E-1,-3.210625052E-1,-4.111250117E-2
4.470224350E-1,-1.352999955E-1,-3.592875004E-1,-4.633750021E-2
4.495587040E-1,-1.352999955E-1,-3.592875004E-1,-4.633750021E-2
4.520951840E-1,-1.352999955E-1,-3.592875004E-1,-4.633750021E-2
4.546316450E-1,-1.352999955E-1,-3.592875004E-1,-4.633750021E-2
4.571684530E-1,-1.352999955E-1,-3.592875004E-1,-4.633750021E-2
4.597052620E-1,-1.352999955E-1,-3.592875004E-1,-4.633750021E-2
4.622424910E-1,-1.352999955E-1,-3.592875004E-1,-4.633750021E-2
4.647797220E-1,-1.352999955E-1,-3.592875004E-1,-4.633750021E-2
4.673167600E-1,-1.307625026E-1,-3.825249970E-1,-4.619999975E-2
4.698537990E-1,-1.307625026E-1,-3.825249970E-1,-4.619999975E-2
4.723902610E-1,-1.307625026E-1,-3.825249970E-1,-4.619999975E-2
4.749267220E-1,-1.307625026E-1,-3.825249970E-1,-4.619999975E-2
4.774634920E-1,-1.307625026E-1,-3.825249970E-1,-4.619999975E-2
4.800002610E-1,-1.307625026E-1,-3.825249970E-1,-4.619999975E-2
4.825376130E-1,-1.307625026E-1,-3.825249970E-1,-4.619999975E-2
4.850749980E-1,-1.307625026E-1,-3.825249970E-1,-4.619999975E-2
4.876122660E-1,-1.457500011E-1,-4.281750023E-1,-5.183750018E-2
4.901495350E-1,-1.457500011E-1,-4.281750023E-1,-5.183750018E-2
4.926867280E-1,-1.457500011E-1,-4.281750023E-1,-5.183750018E-2
4.952239590E-1,-1.457500011E-1,-4.281750023E-1,-5.183750018E-2
4.977620750E-1,-1.457500011E-1,-4.281750023E-1,-5.183750018E-2
5.003001900E-1,-1.457500011E-1,-4.281750023E-1,-5.183750018E-2
5.028374860E-1,-1.457500011E-1,-4.281750023E-1,-5.183750018E-2
5.053747570E-1,-1.457500011E-1,-4.281750023E-1,-5.183750018E-2
5.079113720E-1,-1.758625060E-1,-4.582875073E-1,-5.884999782E-2
5.104479870E-1,-1.758625060E-1,-4.582875073E-1,-5.884999782E-2
5.129858290E-1,-1.758625060E-1,-4.582875073E-1,-5.884999782E-2
5.155236740E-1,-1.758625060E-1,-4.582875073E-1,-5.884999782E-2
5.180615200E-1,-1.758625060E-1,-4.582875073E-1,-5.884999782E-2
5.205993670E-1,-1.758625060E-1,-4.582875073E-1,-5.884999782E-2
5.231380010E-1,-1.758625060E-1,-4.582875073E-1,-5.884999782E-2
5.256766160E-1,-1.758625060E-1,-4.582875073E-1,-5.884999782E-2
5.282146150E-1,-1.926375031E-1,-4.811125100E-1,-6.228749827E-2
5.307526160E-1,-1.926375031E-1,-4.811125100E-1,-6.228749827E-2
5.332910270E-1,-1.926375031E-1,-4.811125100E-1,-6.228749827E-2
5.358294500E-1,-1.926375031E-1,-4.811125100E-1,-6.228749827E-2
5.383677560E-1,-1.926375031E-1,-4.811125100E-1,-6.228749827E-2
5.409060650E-1,-1.926375031E-1,-4.811125100E-1,-6.228749827E-2
5.434437470E-1,-1.926375031E-1,-4.811125100E-1,-6.228749827E-2
5.459814400E-1,-1.926375031E-1,-4.811125100E-1,-6.228749827E-2
5.485191320E-1,-1.982749999E-1,-4.845499992E-1,-6.201250106E-2
5.510568230E-1,-1.982749999E-1,-4.845499992E-1,-6.201250106E-2
5.535938950E-1,-1.982749999E-1,-4.845499992E-1,-6.201250106E-2
5.561309720E-1,-1.982749999E-1,-4.845499992E-1,-6.201250106E-2
5.586685500E-1,-1.982749999E-1,-4.845499992E-1,-6.201250106E-2
5.612061270E-1,-1.982749999E-1,-4.845499992E-1,-6.201250106E-2
5.637436410E-1,-1.982749999E-1,-4.845499992E-1,-6.201250106E-2
5.662811420E-1,-1.982749999E-1,-4.845499992E-1,-6.201250106E-2
5.688187190E-1,-2.010249943E-1,-4.598000050E-1,-5.912499875E-2
5.713562960E-1,-2.010249943E-1,-4.598000050E-1,-5.912499875E-2
5.738936310E-1,-2.010249943E-1,-4.598000050E-1,-5.912499875E-2
5.764309780E-1,-2.010249943E-1,-4.598000050E-1,-5.912499875E-2
5.789682470E-1,-2.010249943E-1,-4.598000050E-1,-5.912499875E-2
5.815055160E-1,-2.010249943E-1,-4.598000050E-1,-5.912499875E-2
5.840427620E-1,-2.010249943E-1,-4.598000050E-1,-5.912499875E-2
5.865799930E-1,-2.010249943E-1,-4.598000050E-1,-5.912499875E-2
5.891171850E-1,-2.070749998E-1,-4.092000127E-1,-5.472499877E-2
5.916543780E-1,-2.070749998E-1,-4.092000127E-1,-5.472499877E-2
5.941923960E-1,-2.070749998E-1,-4.092000127E-1,-5.472499877E-2
5.967303950E-1,-2.070749998E-1,-4.092000127E-1,-5.472499877E-2
5.992692030E-1,-2.070749998E-1,-4.092000127E-1,-5.472499877E-2
6.018080100E-1,-2.070749998E-1,-4.092000127E-1,-5.472499877E-2
6.043458550E-1,-2.139499933E-1,-3.528249860E-1,-5.059999973E-2
6.068837040E-1,-2.139499933E-1,-3.528249860E-1,-5.059999973E-2
6.094219730E-1,-2.139499933E-1,-3.528249860E-1,-5.059999973E-2
6.119602420E-1,-2.139499933E-1,-3.528249860E-1,-5.059999973E-2
6.144984000E-1,-2.139499933E-1,-3.528249860E-1,-5.059999973E-2
6.170365550E-1,-2.139499933E-1,-3.528249860E-1,-5.059999973E-2
6.195742850E-1,-2.139499933E-1,-3.528249860E-1,-5.059999973E-2
6.221120160E-1,-2.139499933E-1,-3.528249860E-1,-5.059999973E-2
6.246504680E-1,-2.194499969E-1,-3.082749844E-1,-4.812499881E-2
6.271889290E-1,-2.194499969E-1,-3.082749844E-1,-4.812499881E-2
6.297267740E-1,-2.194499969E-1,-3.082749844E-1,-4.812499881E-2
6.322646210E-1,-2.194499969E-1,-3.082749844E-1,-4.812499881E-2
6.348030710E-1,-2.194499969E-1,-3.082749844E-1,-4.812499881E-2
6.373415320E-1,-2.194499969E-1,-3.082749844E-1,-4.812499881E-2
6.398798380E-1,-2.194499969E-1,-3.082749844E-1,-4.812499881E-2
6.424181470E-1,-2.194499969E-1,-3.082749844E-1,-4.812499881E-2
6.449559910E-1,-2.144999951E-1,-2.715624869E-1,-4.468749836E-2
6.474938000E-1,-2.144999951E-1,-2.715624869E-1,-4.468749836E-2
6.500316460E-1,-2.144999951E-1,-2.715624869E-1,-4.468749836E-2
6.525694910E-1,-2.144999951E-1,-2.715624869E-1,-4.468749836E-2
6.551077210E-1,-2.144999951E-1,-2.715624869E-1,-4.468749836E-2
6.576459140E-1,-2.144999951E-1,-2.715624869E-1,-4.468749836E-2
6.601843370E-1,-2.144999951E-1,-2.715624869E-1,-4.468749836E-2
6.627227600E-1,-2.144999951E-1,-2.715624869E-1,-4.468749836E-2
6.652615680E-1,-1.997874975E-1,-2.404875010E-1,-4.015000165E-2
6.678003750E-1,-1.997874975E-1,-2.404875010E-1,-4.015000165E-2
6.703394380E-1,-1.997874975E-1,-2.404875010E-1,-4.015000165E-2
6.728785150E-1,-1.997874975E-1,-2.404875010E-1,-4.015000165E-2
6.754177450E-1,-1.997874975E-1,-2.404875010E-1,-4.015000165E-2
6.779569760E-1,-1.997874975E-1,-2.404875010E-1,-4.015000165E-2
6.804958470E-1,-1.997874975E-1,-2.404875010E-1,-4.015000165E-2
6.830347320E-1,-1.997874975E-1,-2.404875010E-1,-4.015000165E-2
6.855728860E-1,-1.857624948E-1,-2.238499969E-1,-3.671250120E-2
6.881110390E-1,-1.857624948E-1,-2.238499969E-1,-3.671250120E-2
6.906489520E-1,-1.857624948E-1,-2.238499969E-1,-3.671250120E-2
6.931868370E-1,-1.857624948E-1,-2.238499969E-1,-3.671250120E-2
6.957260300E-1,-1.857624948E-1,-2.238499969E-1,-3.671250120E-2
6.982652210E-1,-1.857624948E-1,-2.238499969E-1,-3.671250120E-2
7.008036880E-1,-1.857624948E-1,-2.238499969E-1,-3.671250120E-2
7.033421510E-1,-1.857624948E-1,-2.238499969E-1,-3.671250120E-2
7.058801510E-1,-1.680250019E-1,-2.032250017E-1,-3.148749843E-2
7.084181500E-1,-1.680250019E-1,-2.032250017E-1,-3.148749843E-2
7.109561840E-1,-1.680250019E-1,-2.032250017E-1,-3.148749843E-2
7.134942230E-1,-1.680250019E-1,-2.032250017E-1,-3.148749843E-2
7.160328370E-1,-1.680250019E-1,-2.032250017E-1,-3.148749843E-2
7.185714540E-1,-1.680250019E-1,-2.032250017E-1,-3.148749843E-2
7.211092660E-1,-1.680250019E-1,-2.032250017E-1,-3.148749843E-2
7.236470750E-1,-1.680250019E-1,-2.032250017E-1,-3.148749843E-2
7.261846510E-1,-1.336500049E-1,-1.603250057E-1,-2.131249942E-2
7.287222280E-1,-1.336500049E-1,-1.603250057E-1,-2.131249942E-2
7.312597230E-1,-1.336500049E-1,-1.603250057E-1,-2.131249942E-2
7.337972220E-1,-1.336500049E-1,-1.603250057E-1,-2.131249942E-2
7.363353770E-1,-1.336500049E-1,-1.603250057E-1,-2.131249942E-2
7.388735300E-1,-1.336500049E-1,-1.603250057E-1,-2.131249942E-2
7.414117220E-1,-1.336500049E-1,-1.603250057E-1,-2.131249942E-2
7.439499150E-1,-1.336500049E-1,-1.603250057E-1,-2.131249942E-2
7.464877600E-1,-1.086250022E-1,-1.157749966E-1,-1.746249944E-2
7.490256070E-1,-1.086250022E-1,-1.157749966E-1,-1.746249944E-2
7.515631030E-1,-1.086250022E-1,-1.157749966E-1,-1.746249944E-2
7.541006020E-1,-1.086250022E-1,-1.157749966E-1,-1.746249944E-2
7.566381800E-1,-1.086250022E-1,-1.157749966E-1,-1.746249944E-2
7.591757570E-1,-1.086250022E-1,-1.157749966E-1,-1.746249944E-2
7.617137560E-1,-1.086250022E-1,-1.157749966E-1,-1.746249944E-2
7.642517570E-1,-1.086250022E-1,-1.157749966E-1,-1.746249944E-2
7.667900250E-1,-9.033749998E-2,-9.899999946E-2,-2.543750033E-2
7.693282940E-1,-9.033749998E-2,-9.899999946E-2,-2.543750033E-2
7.718661790E-1,-9.033749998E-2,-9.899999946E-2,-2.543750033E-2
7.744040640E-1,-9.033749998E-2,-9.899999946E-2,-2.543750033E-2
7.769417560E-1,-9.033749998E-2,-9.899999946E-2,-2.543750033E-2
7.794794490E-1,-9.033749998E-2,-9.899999946E-2,-2.543750033E-2
7.820175840E-1,-9.033749998E-2,-9.899999946E-2,-2.543750033E-2
7.845556990E-1,-9.033749998E-2,-9.899999946E-2,-2.543750033E-2
7.870932740E-1,-7.782500237E-2,-8.923749626E-2,-3.203750029E-2
7.896308530E-1,-7.782500237E-2,-8.923749626E-2,-3.203750029E-2
7.921686940E-1,-7.782500237E-2,-8.923749626E-2,-3.203750029E-2
7.947065390E-1,-7.782500237E-2,-8.923749626E-2,-3.203750029E-2
7.972445390E-1,-7.782500237E-2,-8.923749626E-2,-3.203750029E-2
7.997825400E-1,-7.782500237E-2,-8.923749626E-2,-3.203750029E-2
8.023198810E-1,-7.782500237E-2,-8.923749626E-2,-3.203750029E-2
8.048572280E-1,-7.782500237E-2,-8.923749626E-2,-3.203750029E-2
8.073944980E-1,-6.682500243E-2,-9.116250277E-2,-3.877500072E-2
8.099317670E-1,-6.682500243E-2,-9.116250277E-2,-3.877500072E-2
8.124688090E-1,-6.682500243E-2,-9.116250277E-2,-3.877500072E-2
8.150058860E-1,-6.682500243E-2,-9.116250277E-2,-3.877500072E-2
8.175427710E-1,-6.682500243E-2,-9.116250277E-2,-3.877500072E-2
8.200796560E-1,-6.682500243E-2,-9.116250277E-2,-3.877500072E-2
8.226173870E-1,-6.682500243E-2,-9.116250277E-2,-3.877500072E-2
8.251551180E-1,-6.682500243E-2,-9.116250277E-2,-3.877500072E-2
8.276931170E-1,-5.018749833E-2,-8.827500045E-2,-4.661250114E-2
8.302311180E-1,-5.018749833E-2,-8.827500045E-2,-4.661250114E-2
8.327698580E-1,-5.018749833E-2,-8.827500045E-2,-4.661250114E-2
8.353085890E-1,-5.018749833E-2,-8.827500045E-2,-4.661250114E-2
8.378478570E-1,-5.018749833E-2,-8.827500045E-2,-4.661250114E-2
8.403871280E-1,-5.018749833E-2,-8.827500045E-2,-4.661250114E-2
8.429259150E-1,-5.018749833E-2,-8.827500045E-2,-4.661250114E-2
8.454646840E-1,-5.018749833E-2,-8.827500045E-2,-4.661250114E-2
8.480031460E-1,-3.753750026E-2,-7.369999588E-2,-5.719999969E-2
8.505416070E-1,-3.753750026E-2,-7.369999588E-2,-5.719999969E-2
8.530794250E-1,-3.753750026E-2,-7.369999588E-2,-5.719999969E-2
8.556172720E-1,-3.753750026E-2,-7.369999588E-2,-5.719999969E-2
8.581552330E-1,-3.753750026E-2,-7.369999588E-2,-5.719999969E-2
8.606931940E-1,-3.753750026E-2,-7.369999588E-2,-5.719999969E-2
8.632306170E-1,-3.753750026E-2,-7.369999588E-2,-5.719999969E-2
8.657680400E-1,-3.753750026E-2,-7.369999588E-2,-5.719999969E-2
8.683060410E-1,-1.168750040E-2,-7.383749634E-2,-6.627500057E-2
8.708440400E-1,-1.168750040E-2,-7.383749634E-2,-6.627500057E-2
8.733816800E-1,-1.168750040E-2,-7.383749634E-2,-6.627500057E-2
8.759193350E-1,-1.168750040E-2,-7.383749634E-2,-6.627500057E-2
8.784576810E-1,-1.168750040E-2,-7.383749634E-2,-6.627500057E-2
8.809960260E-1,-1.168750040E-2,-7.383749634E-2,-6.627500057E-2
8.835340250E-1,-1.168750040E-2,-7.383749634E-2,-6.627500057E-2
8.860720260E-1,-1.168750040E-2,-7.383749634E-2,-6.627500057E-2
8.886095640E-1,3.575000167E-2,-7.397499681E-2,-6.833750010E-2
8.911471030E-1,3.575000167E-2,-7.397499681E-2,-6.833750010E-2
8.936858200E-1,3.575000167E-2,-7.397499681E-2,-6.833750010E-2
8.962245490E-1,3.575000167E-2,-7.397499681E-2,-6.833750010E-2
8.987622790E-1,3.575000167E-2,-7.397499681E-2,-6.833750010E-2
9.013000120E-1,3.575000167E-2,-7.397499681E-2,-6.833750010E-2
9.038379680E-1,3.575000167E-2,-7.397499681E-2,-6.833750010E-2
9.063759290E-1,3.575000167E-2,-7.397499681E-2,-6.833750010E-2
9.089145830E-1,1.245749965E-1,-8.497499675E-2,-5.967500061E-2
9.114532380E-1,1.245749965E-1,-8.497499675E-2,-5.967500061E-2
9.139915300E-1,1.245749965E-1,-8.497499675E-2,-5.967500061E-2
9.165298390E-1,1.245749965E-1,-8.497499675E-2,-5.967500061E-2
9.190678000E-1,1.245749965E-1,-8.497499675E-2,-5.967500061E-2
9.216057610E-1,1.245749965E-1,-8.497499675E-2,-5.967500061E-2
9.241426990E-1,1.947000027E-1,-4.949999973E-2,-3.189999983E-2
9.266796220E-1,1.947000027E-1,-4.949999973E-2,-3.189999983E-2
9.292167370E-1,1.947000027E-1,-4.949999973E-2,-3.189999983E-2
9.317538520E-1,1.947000027E-1,-4.949999973E-2,-3.189999983E-2
9.342918670E-1,1.947000027E-1,-4.949999973E-2,-3.189999983E-2
9.368298680E-1,1.947000027E-1,-4.949999973E-2,-3.189999983E-2
9.393678670E-1,1.947000027E-1,-4.949999973E-2,-3.189999983E-2
9.419058680E-1,1.947000027E-1,-4.949999973E-2,-3.189999983E-2
9.444439620E-1,1.947000027E-1,-4.949999973E-2,-3.189999983E-2
9.469820790E-1,1.947000027E-1,-4.949999973E-2,-3.189999983E-2
9.495194620E-1,2.461249977E-1,-1.911249943E-2,2.282499894E-2
9.520568470E-1,2.461249977E-1,-1.911249943E-2,2.282499894E-2
9.545946950E-1,2.461249977E-1,-1.911249943E-2,2.282499894E-2
9.571325400E-1,2.461249977E-1,-1.911249943E-2,2.282499894E-2
9.596711940E-1,2.461249977E-1,-1.911249943E-2,2.282499894E-2
9.622098470E-1,2.461249977E-1,-1.911249943E-2,2.282499894E-2
9.647484280E-1,3.526875079E-1,-2.131249942E-2,9.721250087E-2
9.672870070E-1,3.526875079E-1,-2.131249942E-2,9.721250087E-2
9.698253530E-1,3.526875079E-1,-2.131249942E-2,9.721250087E-2
9.723636980E-1,3.526875079E-1,-2.131249942E-2,9.721250087E-2
9.749020070E-1,3.526875079E-1,-2.131249942E-2,9.721250087E-2
9.774403140E-1,3.526875079E-1,-2.131249942E-2,9.721250087E-2
9.799775440E-1,3.526875079E-1,-2.131249942E-2,9.721250087E-2
9.825147750E-1,3.526875079E-1,-2.131249942E-2,9.721250087E-2
9.850525790E-1,5.248374939E-1,-5.444999784E-2,1.852124929E-1
9.875903860E-1,5.248374939E-1,-5.444999784E-2,1.852124929E-1
9.901288860E-1,5.248374939E-1,-5.444999784E-2,1.852124929E-1
9.926673870E-1,5.248374939E-1,-5.444999784E-2,1.852124929E-1
9.952054960E-1,5.248374939E-1,-5.444999784E-2,1.852124929E-1
9.977436130E-1,5.248374939E-1,-5.444999784E-2,1.852124929E-1
1.000281497E0,5.248374939E-1,-5.444999784E-2,1.852124929E-1
1.002819382E0,5.248374939E-1,-5.444999784E-2,1.852124929E-1
1.005356573E0,5.165874958E-1,3.162499983E-3,2.646875083E-1
1.007893766E0,5.165874958E-1,3.162499983E-3,2.646875083E-1
1.010431473E0,5.165874958E-1,3.162499983E-3,2.646875083E-1
1.012969204E0,5.165874958E-1,3.162499983E-3,2.646875083E-1
1.015507472E0,5.165874958E-1,3.162499983E-3,2.646875083E-1
1.018045741E0,5.165874958E-1,3.162499983E-3,2.646875083E-1
1.020584632E0,5.165874958E-1,3.162499983E-3,2.646875083E-1
1.023123555E0,5.165874958E-1,3.162499983E-3,2.646875083E-1
1.025662208E0,5.253875256E-1,5.431250110E-2,3.535124958E-1
1.028200863E0,5.253875256E-1,5.431250110E-2,3.535124958E-1
1.030739457E0,5.253875256E-1,5.431250110E-2,3.535124958E-1
1.033278072E0,5.253875256E-1,5.431250110E-2,3.535124958E-1
1.035816958E0,5.253875256E-1,5.431250110E-2,3.535124958E-1
1.038355841E0,5.253875256E-1,5.431250110E-2,3.535124958E-1
1.040894009E0,5.253875256E-1,5.431250110E-2,3.535124958E-1
1.043432164E0,5.253875256E-1,5.431250110E-2,3.535124958E-1
1.045969896E0,5.638874769E-1,5.032499880E-2,4.570499957E-1
1.048507627E0,5.638874769E-1,5.032499880E-2,4.570499957E-1
1.051045314E0,5.638874769E-1,5.032499880E-2,4.570499957E-1
1.053583005E0,5.638874769E-1,5.032499880E-2,4.570499957E-1
1.056121006E0,5.638874769E-1,5.032499880E-2,4.570499957E-1
1.058659005E0,5.638874769E-1,5.032499880E-2,4.570499957E-1
1.061196581E0,5.638874769E-1,5.032499880E-2,4.570499957E-1
1.063734120E0,5.638874769E-1,5.032499880E-2,4.570499957E-1
1.066271967E0,5.502749681E-1,4.207500070E-2,5.752999783E-1
1.068809812E0,5.502749681E-1,4.207500070E-2,5.752999783E-1
1.071347635E0,5.502749681E-1,4.207500070E-2,5.752999783E-1
1.073885444E0,5.502749681E-1,4.207500070E-2,5.752999783E-1
1.076424059E0,5.502749681E-1,4.207500070E-2,5.752999783E-1
1.078962674E0,5.502749681E-1,4.207500070E-2,5.752999783E-1
1.081500524E0,5.502749681E-1,4.207500070E-2,5.752999783E-1
1.084038371E0,5.502749681E-1,4.207500070E-2,5.752999783E-1
1.086575949E0,7.394750118E-1,-7.081250101E-2,7.365875244E-1
1.089113526E0,7.394750118E-1,-7.081250101E-2,7.365875244E-1
1.091652550E0,7.394750118E-1,-7.081250101E-2,7.365875244E-1
1.094191587E0,7.394750118E-1,-7.081250101E-2,7.365875244E-1
1.096729278E0,7.394750118E-1,-7.081250101E-2,7.365875244E-1
1.099266971E0,7.394750118E-1,-7.081250101E-2,7.365875244E-1
1.101804540E0,7.394750118E-1,-7.081250101E-2,7.365875244E-1
1.104342117E0,7.394750118E-1,-7.081250101E-2,7.365875244E-1
1.106879771E0,9.729499817E-1,-6.448750198E-2,8.802750111E-1
1.109417424E0,9.729499817E-1,-6.448750198E-2,8.802750111E-1
1.111955573E0,9.729499817E-1,-6.448750198E-2,8.802750111E-1
1.114493728E0,9.729499817E-1,-6.448750198E-2,8.802750111E-1
1.117032188E0,9.729499817E-1,-6.448750198E-2,8.802750111E-1
1.119570651E0,9.729499817E-1,-6.448750198E-2,8.802750111E-1
1.122109279E0,9.729499817E-1,-6.448750198E-2,8.802750111E-1
1.124647896E0,9.729499817E-1,-6.448750198E-2,8.802750111E-1
1.127186510E0,1.055174947E0,7.658749819E-2,9.656624794E-1
1.129725125E0,1.055174947E0,7.658749819E-2,9.656624794E-1
1.132262856E0,1.055174947E0,7.658749819E-2,9.656624794E-1
1.134800587E0,1.055174947E0,7.658749819E-2,9.656624794E-1
1.137338857E0,1.055174947E0,7.658749819E-2,9.656624794E-1
1.139877126E0,1.055174947E0,7.658749819E-2,9.656624794E-1
1.142414735E0,1.055174947E0,7.658749819E-2,9.656624794E-1
1.144952314E0,1.055174947E0,7.658749819E-2,9.656624794E-1
1.147489237E0,1.069474936E0,1.683000028E-1,1.049399972E0
1.150026160E0,1.069474936E0,1.683000028E-1,1.049399972E0
1.152563410E0,1.069474936E0,1.683000028E-1,1.049399972E0
1.155100641E0,1.069474936E0,1.683000028E-1,1.049399972E0
1.157638448E0,1.069474936E0,1.683000028E-1,1.049399972E0
1.160176255E0,1.069474936E0,1.683000028E-1,1.049399972E0
1.162714245E0,1.069474936E0,1.683000028E-1,1.049399972E0
1.165252246E0,1.069474936E0,1.683000028E-1,1.049399972E0
1.167789514E0,1.380774975E0,1.923625022E-1,1.214812517E0
1.170326785E0,1.380774975E0,1.923625022E-1,1.214812517E0
1.172864776E0,1.380774975E0,1.923625022E-1,1.214812517E0
1.175402775E0,1.380774975E0,1.923625022E-1,1.214812517E0
1.177940120E0,1.380774975E0,1.923625022E-1,1.214812517E0
1.180477467E0,1.380774975E0,1.923625022E-1,1.214812517E0
1.183015347E0,1.380774975E0,1.923625022E-1,1.214812517E0
1.185553192E0,1.380774975E0,1.923625022E-1,1.214812517E0
1.188091192E0,1.441962481E0,3.038749993E-1,1.345849991E0
1.190629193E0,1.441962481E0,3.038749993E-1,1.345849991E0
1.193166769E0,1.441962481E0,3.038749993E-1,1.345849991E0
1.195704346E0,1.441962481E0,3.038749993E-1,1.345849991E0
1.198242462E0,1.441962481E0,3.038749993E-1,1.345849991E0
1.200780577E0,1.441962481E0,3.038749993E-1,1.345849991E0
1.203318313E0,1.441962481E0,3.038749993E-1,1.345849991E0
1.205856044E0,1.441962481E0,3.038749993E-1,1.345849991E0
1.208393891E0,1.493387461E0,4.845499992E-1,1.468775034E0
1.210931736E0,1.493387461E0,4.845499992E-1,1.468775034E0
1.213469582E0,1.493387461E0,4.845499992E-1,1.468775034E0
1.216007429E0,1.493387461E0,4.845499992E-1,1.468775034E0
1.218545543E0,1.493387461E0,4.845499992E-1,1.468775034E0
1.221083660E0,1.493387461E0,4.845499992E-1,1.468775034E0
1.223621794E0,1.493387461E0,4.845499992E-1,1.468775034E0
1.226159949E0,1.493387461E0,4.845499992E-1,1.468775034E0
1.228697832E0,1.663887501E0,5.949624777E-1,1.588675022E0
1.231235717E0,1.663887501E0,5.949624777E-1,1.588675022E0
1.233773510E0,1.663887501E0,5.949624777E-1,1.588675022E0
1.236311317E0,1.663887501E0,5.949624777E-1,1.588675022E0
1.238849203E0,1.663887501E0,5.949624777E-1,1.588675022E0
1.241387088E0,1.663887501E0,5.949624777E-1,1.588675022E0
1.243925389E0,1.663887501E0,5.949624777E-1,1.588675022E0
1.246463698E0,1.663887501E0,5.949624777E-1,1.588675022E0
1.249001389E0,1.742949963E0,6.437749863E-1,1.591012478E0
1.251539082E0,1.742949963E0,6.437749863E-1,1.591012478E0
1.254076910E0,1.742949963E0,6.437749863E-1,1.591012478E0
1.256614717E0,1.742949963E0,6.437749863E-1,1.591012478E0
1.259152409E0,1.742949963E0,6.437749863E-1,1.591012478E0
1.261690102E0,1.742949963E0,6.437749863E-1,1.591012478E0
1.264228694E0,1.708987474E0,7.283374667E-1,1.516625047E0
1.266767309E0,1.708987474E0,7.283374667E-1,1.516625047E0
1.269305001E0,1.708987474E0,7.283374667E-1,1.516625047E0
1.271842694E0,1.708987474E0,7.283374667E-1,1.516625047E0
1.274379640E0,1.708987474E0,7.283374667E-1,1.516625047E0
1.276916563E0,1.708987474E0,7.283374667E-1,1.516625047E0
1.279454410E0,1.708987474E0,7.283374667E-1,1.516625047E0
1.281992257E0,1.708987474E0,7.283374667E-1,1.516625047E0
1.284530410E0,1.801249981E0,8.531875014E-1,1.496137500E0
1.287068563E0,1.801249981E0,8.531875014E-1,1.496137500E0
1.289607063E0,1.801249981E0,8.531875014E-1,1.496137500E0
1.292145564E0,1.801249981E0,8.531875014E-1,1.496137500E0
1.294684024E0,1.801249981E0,8.531875014E-1,1.496137500E0
1.297222487E0,1.801249981E0,8.531875014E-1,1.496137500E0
1.299760295E0,1.801249981E0,8.531875014E-1,1.496137500E0
1.302298102E0,1.801249981E0,8.531875014E-1,1.496137500E0
1.304836083E0,1.928437471E0,9.329375029E-1,1.495862484E0
1.307374082E0,1.928437471E0,9.329375029E-1,1.495862484E0
1.309912736E0,1.928437471E0,9.329375029E-1,1.495862484E0
1.312451391E0,1.928437471E0,9.329375029E-1,1.495862484E0
1.314989818E0,1.928437471E0,9.329375029E-1,1.495862484E0
1.317528281E0,1.928437471E0,9.329375029E-1,1.495862484E0
1.320066896E0,1.928437471E0,9.329375029E-1,1.495862484E0
1.322605511E0,1.928437471E0,9.329375029E-1,1.495862484E0
1.325142879E0,2.013137579E0,9.886249900E-1,1.435362458E0
1.327680266E0,2.013137579E0,9.886249900E-1,1.435362458E0
1.330217766E0,2.013137579E0,9.886249900E-1,1.435362458E0
1.332755265E0,2.013137579E0,9.886249900E-1,1.435362458E0
1.335292664E0,2.013137579E0,9.886249900E-1,1.435362458E0
1.337830049E0,2.013137579E0,9.886249900E-1,1.435362458E0
1.340367127E0,2.013137579E0,9.886249900E-1,1.435362458E0
1.342904204E0,2.013137579E0,9.886249900E-1,1.435362458E0
1.345441776E0,2.161087513E0,1.038125038E0,1.268574953E0
1.347979353E0,2.161087513E0,1.038125038E0,1.268574953E0
1.350516582E0,2.161087513E0,1.038125038E0,1.268574953E0
1.353053813E0,2.161087513E0,1.038125038E0,1.268574953E0
1.355591006E0,2.161087513E0,1.038125038E0,1.268574953E0
1.358128199E0,2.161087513E0,1.038125038E0,1.268574953E0
1.360665175E0,2.161087513E0,1.038125038E0,1.268574953E0
1.363202136E0,2.161087513E0,1.038125038E0,1.268574953E0
1.365739214E0,2.285525084E0,9.820249677E-1,1.091612458E0
1.368276291E0,2.285525084E0,9.820249677E-1,1.091612458E0
1.370812131E0,2.285525084E0,9.820249677E-1,1.091612458E0
1.373347978E0,2.285525084E0,9.820249677E-1,1.091612458E0
1.375885056E0,2.285525084E0,9.820249677E-1,1.091612458E0
1.378422133E0,2.285525084E0,9.820249677E-1,1.091612458E0
1.380959521E0,2.285525084E0,9.820249677E-1,1.091612458E0
1.383496906E0,2.285525084E0,9.820249677E-1,1.091612458E0
1.386034251E0,2.194225073E0,8.420500159E-1,9.817500114E-1
1.388571598E0,2.194225073E0,8.420500159E-1,9.817500114E-1
1.391108660E0,2.194225073E0,8.420500159E-1,9.817500114E-1
1.393645737E0,2.194225073E0,8.420500159E-1,9.817500114E-1
1.396182815E0,2.194225073E0,8.420500159E-1,9.817500114E-1
1.398719892E0,2.194225073E0,8.420500159E-1,9.817500114E-1
1.401257167E0,2.194225073E0,8.420500159E-1,9.817500114E-1
1.403794436E0,2.194225073E0,8.420500159E-1,9.817500114E-1
1.406333012E0,2.119699955E0,7.302625179E-1,8.619874716E-1
1.408871589E0,2.119699955E0,7.302625179E-1,8.619874716E-1
1.411409319E0,2.119699955E0,7.302625179E-1,8.619874716E-1
1.413947050E0,2.119699955E0,7.302625179E-1,8.619874716E-1
1.416484858E0,2.119699955E0,7.302625179E-1,8.619874716E-1
1.419022665E0,2.119699955E0,7.302625179E-1,8.619874716E-1
1.421560684E0,2.119699955E0,7.302625179E-1,8.619874716E-1
1.424098723E0,2.119699955E0,7.302625179E-1,8.619874716E-1
1.426636837E0,2.237262487E0,5.218124986E-1,7.242124677E-1
1.429174954E0,2.237262487E0,5.218124986E-1,7.242124677E-1
1.431712973E0,2.237262487E0,5.218124986E-1,7.242124677E-1
1.434250974E0,2.237262487E0,5.218124986E-1,7.242124677E-1
1.436788512E0,2.237262487E0,5.218124986E-1,7.242124677E-1
1.439326051E0,2.237262487E0,5.218124986E-1,7.242124677E-1
1.441863901E0,2.237262487E0,5.218124986E-1,7.242124677E-1
1.444401786E0,2.237262487E0,5.218124986E-1,7.242124677E-1
1.446939939E0,2.005712509E0,4.442625046E-1,6.417124867E-1
1.449478094E0,2.005712509E0,4.442625046E-1,6.417124867E-1
1.452015804E0,2.005712509E0,4.442625046E-1,6.417124867E-1
1.454553497E0,2.005712509E0,4.442625046E-1,6.417124867E-1
1.457091036E0,2.005712509E0,4.442625046E-1,6.417124867E-1
1.459628575E0,2.005712509E0,4.442625046E-1,6.417124867E-1
1.462166075E0,2.005712509E0,4.442625046E-1,6.417124867E-1
1.464703574E0,2.005712509E0,4.442625046E-1,6.417124867E-1
1.467241267E0,1.855837464E0,3.502124846E-1,5.637499690E-1
1.469778958E0,1.855837464E0,3.502124846E-1,5.637499690E-1
1.472316034E0,1.855837464E0,3.502124846E-1,5.637499690E-1
1.474853113E0,1.855837464E0,3.502124846E-1,5.637499690E-1
1.477391152E0,1.855837464E0,3.502124846E-1,5.637499690E-1
1.479929189E0,1.855837464E0,3.502124846E-1,5.637499690E-1
1.482467684E0,1.855837464E0,3.502124846E-1,5.637499690E-1
1.485006147E0,1.855837464E0,3.502124846E-1,5.637499690E-1
1.487545185E0,1.823799968E0,-9.638749808E-2,7.460749745E-1
1.490084224E0,1.823799968E0,-9.638749808E-2,7.460749745E-1
1.492622235E0,1.823799968E0,-9.638749808E-2,7.460749745E-1
1.495160236E0,1.823799968E0,-9.638749808E-2,7.460749745E-1
1.497698121E0,1.823799968E0,-9.638749808E-2,7.460749745E-1
1.500236006E0,1.823799968E0,-9.638749808E-2,7.460749745E-1
1.502774429E0,1.823799968E0,-9.638749808E-2,7.460749745E-1
1.505312852E0,1.823799968E0,-9.638749808E-2,7.460749745E-1
1.507850274E0,1.622774959E0,-2.804999948E-1,8.177124858E-1
1.510387699E0,1.622774959E0,-2.804999948E-1,8.177124858E-1
1.512924887E0,1.622774959E0,-2.804999948E-1,8.177124858E-1
1.515462078E0,1.622774959E0,-2.804999948E-1,8.177124858E-1
1.517999464E0,1.622774959E0,-2.804999948E-1,8.177124858E-1
1.520536849E0,1.622774959E0,-2.804999948E-1,8.177124858E-1
1.523074231E0,1.622774959E0,-2.804999948E-1,8.177124858E-1
1.525611616E0,1.622774959E0,-2.804999948E-1,8.177124858E-1
1.528149308E0,1.512500048E0,-2.820124924E-1,6.960250139E-1
1.530687001E0,1.512500048E0,-2.820124924E-1,6.960250139E-1
1.533225510E0,1.512500048E0,-2.820124924E-1,6.960250139E-1
1.535764011E0,1.512500048E0,-2.820124924E-1,6.960250139E-1
1.538302318E0,1.512500048E0,-2.820124924E-1,6.960250139E-1
1.540840627E0,1.512500048E0,-2.820124924E-1,6.960250139E-1
1.543378742E0,1.512500048E0,-2.820124924E-1,6.960250139E-1
1.545916857E0,1.512500048E0,-2.820124924E-1,6.960250139E-1
1.548455011E0,1.511399984E0,-3.553000093E-1,6.070625186E-1
1.550993164E0,1.511399984E0,-3.553000093E-1,6.070625186E-1
1.553531534E0,1.511399984E0,-3.553000093E-1,6.070625186E-1
1.556069881E0,1.511399984E0,-3.553000093E-1,6.070625186E-1
1.558608188E0,1.511399984E0,-3.553000093E-1,6.070625186E-1
1.561146497E0,1.511399984E0,-3.553000093E-1,6.070625186E-1
1.563685218E0,1.511399984E0,-3.553000093E-1,6.070625186E-1
1.566223949E0,1.511399984E0,-3.553000093E-1,6.070625186E-1
1.568762255E0,1.478675008E0,-5.348749757E-1,6.668750048E-1
1.571300564E0,1.478675008E0,-5.348749757E-1,6.668750048E-1
1.573838396E0,1.478675008E0,-5.348749757E-1,6.668750048E-1
1.576376241E0,1.478675008E0,-5.348749757E-1,6.668750048E-1
1.578914396E0,1.478675008E0,-5.348749757E-1,6.668750048E-1
1.581452549E0,1.478675008E0,-5.348749757E-1,6.668750048E-1
1.583992088E0,1.478675008E0,-5.348749757E-1,6.668750048E-1
1.586531627E0,1.478675008E0,-5.348749757E-1,6.668750048E-1
1.589069317E0,1.570387483E0,-7.203624845E-1,6.599999666E-1
1.591607012E0,1.570387483E0,-7.203624845E-1,6.599999666E-1
1.594145204E0,1.570387483E0,-7.203624845E-1,6.599999666E-1
1.596683395E0,1.570387483E0,-7.203624845E-1,6.599999666E-1
1.599221510E0,1.570387483E0,-7.203624845E-1,6.599999666E-1
1.601759627E0,1.570387483E0,-7.203624845E-1,6.599999666E-1
1.604297795E0,1.690425038E0,-8.629499674E-1,5.483499765E-1
1.606835948E0,1.690425038E0,-8.629499674E-1,5.483499765E-1
1.609373486E0,1.690425038E0,-8.629499674E-1,5.483499765E-1
1.611911025E0,1.690425038E0,-8.629499674E-1,5.483499765E-1
1.614449050E0,1.690425038E0,-8.629499674E-1,5.483499765E-1
1.616987089E0,1.690425038E0,-8.629499674E-1,5.483499765E-1
1.619524472E0,1.690425038E0,-8.629499674E-1,5.483499765E-1
1.622061857E0,1.690425038E0,-8.629499674E-1,5.483499765E-1
1.624599397E0,1.806337476E0,-6.521624923E-1,4.426124990E-1
1.627136934E0,1.806337476E0,-6.521624923E-1,4.426124990E-1
1.629675241E0,1.806337476E0,-6.521624923E-1,4.426124990E-1
1.632213550E0,1.806337476E0,-6.521624923E-1,4.426124990E-1
1.634752270E0,1.806337476E0,-6.521624923E-1,4.426124990E-1
1.637291001E0,1.806337476E0,-6.521624923E-1,4.426124990E-1
1.639829347E0,1.806337476E0,-6.521624923E-1,4.426124990E-1
1.642367694E0,1.806337476E0,-6.521624923E-1,4.426124990E-1
1.644905830E0,2.065799952E0,-3.364624977E-1,5.103999972E-1
1.647443983E0,2.065799952E0,-3.364624977E-1,5.103999972E-1
1.649981983E0,2.065799952E0,-3.364624977E-1,5.103999972E-1
1.652519984E0,2.065799952E0,-3.364624977E-1,5.103999972E-1
1.655058715E0,2.065799952E0,-3.364624977E-1,5.103999972E-1
1.657597444E0,2.065799952E0,-3.364624977E-1,5.103999972E-1
1.660134986E0,2.065799952E0,-3.364624977E-1,5.103999972E-1
1.662672525E0,2.065799952E0,-3.364624977E-1,5.103999972E-1
1.665210987E0,2.658562422E0,2.520374954E-1,6.897000074E-1
1.667749448E0,2.658562422E0,2.520374954E-1,6.897000074E-1
1.670286867E0,2.658562422E0,2.520374954E-1,6.897000074E-1
1.672824290E0,2.658562422E0,2.520374954E-1,6.897000074E-1
1.675362406E0,2.658562422E0,2.520374954E-1,6.897000074E-1
1.677900521E0,2.658562422E0,2.520374954E-1,6.897000074E-1
1.680438819E0,2.658562422E0,2.520374954E-1,6.897000074E-1
1.682977128E0,2.658562422E0,2.520374954E-1,6.897000074E-1
1.685516088E0,3.297937393E0,5.483775139E0,2.038024902E0
1.688055051E0,3.297937393E0,5.483775139E0,2.038024902E0
1.690593376E0,3.297937393E0,5.483775139E0,2.038024902E0
1.693131685E0,3.297937393E0,5.483775139E0,2.038024902E0
1.695670146E0,3.297937393E0,5.483775139E0,2.038024902E0
1.698208607E0,3.297937393E0,5.483775139E0,2.038024902E0
1.700747467E0,3.297937393E0,5.483775139E0,2.038024902E0
1.703286352E0,3.297937393E0,5.483775139E0,2.038024902E0
1.705824852E0,2.776812553E0,1.167636204E1,2.428800106E0
1.708363353E0,2.776812553E0,1.167636204E1,2.428800106E0
1.710901776E0,2.776812553E0,1.167636204E1,2.428800106E0
1.713440199E0,2.776812553E0,1.167636204E1,2.428800106E0
1.715977776E0,2.776812553E0,1.167636204E1,2.428800106E0
1.718515353E0,2.776812553E0,1.167636204E1,2.428800106E0
1.721053518E0,2.776812553E0,1.167636204E1,2.428800106E0
1.723591671E0,2.776812553E0,1.167636204E1,2.428800106E0
1.726129323E0,2.120662451E0,1.144096279E1,1.490499973E0
1.728666978E0,2.120662451E0,1.144096279E1,1.490499973E0
1.731205023E0,2.120662451E0,1.144096279E1,1.490499973E0
1.733743060E0,2.120662451E0,1.144096279E1,1.490499973E0
1.736281059E0,2.120662451E0,1.144096279E1,1.490499973E0
1.738819060E0,2.120662451E0,1.144096279E1,1.490499973E0
1.741356618E0,2.120662451E0,1.144096279E1,1.490499973E0
1.743894157E0,2.120662451E0,1.144096279E1,1.490499973E0
1.746432619E0,1.770312548E0,1.049991226E1,9.255124927E-1
1.748971080E0,1.770312548E0,1.049991226E1,9.255124927E-1
1.751509348E0,1.770312548E0,1.049991226E1,9.255124927E-1
1.754047617E0,1.770312548E0,1.049991226E1,9.255124927E-1
1.756586272E0,1.770312548E0,1.049991226E1,9.255124927E-1
1.759124925E0,1.770312548E0,1.049991226E1,9.255124927E-1
1.761663170E0,1.770312548E0,1.049991226E1,9.255124927E-1
1.764201441E0,1.770312548E0,1.049991226E1,9.255124927E-1
1.766738978E0,9.246875048E-1,9.392212868E0,1.143312454E0
1.769276517E0,9.246875048E-1,9.392212868E0,1.143312454E0
1.771814517E0,9.246875048E-1,9.392212868E0,1.143312454E0
1.774352516E0,9.246875048E-1,9.392212868E0,1.143312454E0
1.776889900E0,9.246875048E-1,9.392212868E0,1.143312454E0
1.779427287E0,9.246875048E-1,9.392212868E0,1.143312454E0
1.781965167E0,9.246875048E-1,9.392212868E0,1.143312454E0
1.784503050E0,9.246875048E-1,9.392212868E0,1.143312454E0
1.787040280E0,7.645000219E-1,8.562399864E0,7.458000183E-1
1.789577513E0,7.645000219E-1,8.562399864E0,7.458000183E-1
1.792115508E0,7.645000219E-1,8.562399864E0,7.458000183E-1
1.794653507E0,7.645000219E-1,8.562399864E0,7.458000183E-1
1.797190583E0,7.645000219E-1,8.562399864E0,7.458000183E-1
1.799727660E0,7.645000219E-1,8.562399864E0,7.458000183E-1
1.802265810E0,7.645000219E-1,8.562399864E0,7.458000183E-1
1.804803963E0,7.645000219E-1,8.562399864E0,7.458000183E-1
1.807342424E0,2.160124928E-1,7.669475079E0,7.528125048E-1
1.809880887E0,2.160124928E-1,7.669475079E0,7.528125048E-1
1.812418891E0,2.160124928E-1,7.669475079E0,7.528125048E-1
1.814956892E0,2.160124928E-1,7.669475079E0,7.528125048E-1
1.817494853E0,2.160124928E-1,7.669475079E0,7.528125048E-1
1.820032814E0,2.160124928E-1,7.669475079E0,7.528125048E-1
1.822570238E0,2.160124928E-1,7.669475079E0,7.528125048E-1
1.825107661E0,2.160124928E-1,7.669475079E0,7.528125048E-1
1.827644891E0,-4.059000015E-1,6.879950047E0,6.686624885E-1
1.830182122E0,-4.059000015E-1,6.879950047E0,6.686624885E-1
1.832720099E0,-4.059000015E-1,6.879950047E0,6.686624885E-1
1.835258060E0,-4.059000015E-1,6.879950047E0,6.686624885E-1
1.837796059E0,-4.059000015E-1,6.879950047E0,6.686624885E-1
1.840334060E0,-4.059000015E-1,6.879950047E0,6.686624885E-1
1.842872270E0,-4.059000015E-1,6.879950047E0,6.686624885E-1
1.845410463E0,-4.059000015E-1,6.879950047E0,6.686624885E-1
1.847948463E0,-7.177500129E-1,6.207300186E0,5.405125022E-1
1.850486464E0,-7.177500129E-1,6.207300186E0,5.405125022E-1
1.853024285E0,-7.177500129E-1,6.207300186E0,5.405125022E-1
1.855562130E0,-7.177500129E-1,6.207300186E0,5.405125022E-1
1.858100246E0,-7.177500129E-1,6.207300186E0,5.405125022E-1
1.860638361E0,-7.177500129E-1,6.207300186E0,5.405125022E-1
1.863176381E0,-7.177500129E-1,6.207300186E0,5.405125022E-1
1.865714382E0,-7.177500129E-1,6.207300186E0,5.405125022E-1
1.868252882E0,-9.728124738E-1,5.628974915E0,6.687999964E-1
1.870791381E0,-9.728124738E-1,5.628974915E0,6.687999964E-1
1.873329500E0,-9.728124738E-1,5.628974915E0,6.687999964E-1
1.875867617E0,-9.728124738E-1,5.628974915E0,6.687999964E-1
1.878405771E0,-9.728124738E-1,5.628974915E0,6.687999964E-1
1.880943924E0,-9.728124738E-1,5.628974915E0,6.687999964E-1
1.883482058E0,-9.728124738E-1,5.628974915E0,6.687999964E-1
1.886020213E0,-9.728124738E-1,5.628974915E0,6.687999964E-1
1.888557788E0,-1.166275024E0,5.096712589E0,8.112499714E-1
1.891095367E0,-1.166275024E0,5.096712589E0,8.112499714E-1
1.893633213E0,-1.166275024E0,5.096712589E0,8.112499714E-1
1.896171058E0,-1.166275024E0,5.096712589E0,8.112499714E-1
1.898709174E0,-1.166275024E0,5.096712589E0,8.112499714E-1
1.901247289E0,-1.166275024E0,5.096712589E0,8.112499714E-1
1.903785789E0,-1.166275024E0,5.096712589E0,8.112499714E-1
1.906324290E0,-1.166275024E0,5.096712589E0,8.112499714E-1
1.908862135E0,-1.059712529E0,4.690262318E0,7.970874906E-1
1.911399982E0,-1.059712529E0,4.690262318E0,7.970874906E-1
1.913937497E0,-1.059712529E0,4.690262318E0,7.970874906E-1
1.916474996E0,-1.059712529E0,4.690262318E0,7.970874906E-1
1.919013189E0,-1.059712529E0,4.690262318E0,7.970874906E-1
1.921551382E0,-1.059712529E0,4.690262318E0,7.970874906E-1
1.924089986E0,-2.521750033E-1,4.603224754E0,6.190249920E-1
1.926628563E0,-2.521750033E-1,4.603224754E0,6.190249920E-1
1.929166254E0,-2.521750033E-1,4.603224754E0,6.190249920E-1
1.931703947E0,-2.521750033E-1,4.603224754E0,6.190249920E-1
1.934241068E0,-2.521750033E-1,4.603224754E0,6.190249920E-1
1.936778183E0,-2.521750033E-1,4.603224754E0,6.190249920E-1
1.939316300E0,-2.521750033E-1,4.603224754E0,6.190249920E-1
1.941854415E0,-2.521750033E-1,4.603224754E0,6.190249920E-1
1.944392617E0,-2.858625054E-1,4.359162331E0,5.350124836E-1
1.946930810E0,-2.858625054E-1,4.359162331E0,5.350124836E-1
1.949469232E0,-2.858625054E-1,4.359162331E0,5.350124836E-1
1.952007655E0,-2.858625054E-1,4.359162331E0,5.350124836E-1
1.954545962E0,-2.858625054E-1,4.359162331E0,5.350124836E-1
1.957084271E0,-2.858625054E-1,4.359162331E0,5.350124836E-1
1.959622727E0,-2.858625054E-1,4.359162331E0,5.350124836E-1
1.962161188E0,-2.858625054E-1,4.359162331E0,5.350124836E-1
1.964700149E0,-4.729999974E-2,4.207362652E0,2.598749995E-1
1.967239112E0,-4.729999974E-2,4.207362652E0,2.598749995E-1
1.969777601E0,-4.729999974E-2,4.207362652E0,2.598749995E-1
1.972316064E0,-4.729999974E-2,4.207362652E0,2.598749995E-1
1.974853872E0,-4.729999974E-2,4.207362652E0,2.598749995E-1
1.977391679E0,-4.729999974E-2,4.207362652E0,2.598749995E-1
1.979929843E0,-4.729999974E-2,4.207362652E0,2.598749995E-1
1.982467996E0,-4.729999974E-2,4.207362652E0,2.598749995E-1
1.985005071E0,3.414124846E-1,4.220699787E0,1.143999994E-1
1.987542150E0,3.414124846E-1,4.220699787E0,1.143999994E-1
1.990079535E0,3.414124846E-1,4.220699787E0,1.143999994E-1
1.992616920E0,3.414124846E-1,4.220699787E0,1.143999994E-1
1.995153995E0,3.414124846E-1,4.220699787E0,1.143999994E-1
1.997691074E0,3.414124846E-1,4.220699787E0,1.143999994E-1
2.000227988E0,3.414124846E-1,4.220699787E0,1.143999994E-1
2.002764911E0,3.414124846E-1,4.220699787E0,1.143999994E-1
2.005302141E0,2.147749960E-1,4.202687263E0,-1.204499975E-1
2.007839372E0,2.147749960E-1,4.202687263E0,-1.204499975E-1
2.010376736E0,2.147749960E-1,4.202687263E0,-1.204499975E-1
2.012914121E0,2.147749960E-1,4.202687263E0,-1.204499975E-1
2.015451851E0,2.147749960E-1,4.202687263E0,-1.204499975E-1
2.017989582E0,2.147749960E-1,4.202687263E0,-1.204499975E-1
2.020527901E0,2.147749960E-1,4.202687263E0,-1.204499975E-1
2.023066208E0,2.147749960E-1,4.202687263E0,-1.204499975E-1
2.025604169E0,1.567499936E-1,4.246687412E0,-3.834874928E-1
2.028142132E0,1.567499936E-1,4.246687412E0,-3.834874928E-1
2.030680003E0,1.567499936E-1,4.246687412E0,-3.834874928E-1
2.033217888E0,1.567499936E-1,4.246687412E0,-3.834874928E-1
2.035755734E0,1.567499936E-1,4.246687412E0,-3.834874928E-1
2.038293579E0,1.567499936E-1,4.246687412E0,-3.834874928E-1
2.040831829E0,1.567499936E-1,4.246687412E0,-3.834874928E-1
2.043370098E0,1.567499936E-1,4.246687412E0,-3.834874928E-1
2.045907790E0,6.957499683E-2,4.330562592E0,-4.064500034E-1
2.048445483E0,6.957499683E-2,4.330562592E0,-4.064500034E-1
2.050981982E0,6.957499683E-2,4.330562592E0,-4.064500034E-1
2.053518483E0,6.957499683E-2,4.330562592E0,-4.064500034E-1
2.056055522E0,6.957499683E-2,4.330562592E0,-4.064500034E-1
2.058592559E0,6.957499683E-2,4.330562592E0,-4.064500034E-1
2.061130598E0,6.957499683E-2,4.330562592E0,-4.064500034E-1
2.063668637E0,6.957499683E-2,4.330562592E0,-4.064500034E-1
2.066205981E0,1.553750038E-2,3.923424959E0,-3.481499851E-1
2.068743328E0,1.553750038E-2,3.923424959E0,-3.481499851E-1
2.071280593E0,1.553750038E-2,3.923424959E0,-3.481499851E-1
2.073817862E0,1.553750038E-2,3.923424959E0,-3.481499851E-1
2.076356132E0,1.553750038E-2,3.923424959E0,-3.481499851E-1
2.078894401E0,1.553750038E-2,3.923424959E0,-3.481499851E-1
2.081430846E0,1.553750038E-2,3.923424959E0,-3.481499851E-1
2.083967309E0,1.553750038E-2,3.923424959E0,-3.481499851E-1
2.086504541E0,-2.939749956E-1,3.524674892E0,-1.372250021E-1
2.089041772E0,-2.939749956E-1,3.524674892E0,-1.372250021E-1
2.091579150E0,-2.939749956E-1,3.524674892E0,-1.372250021E-1
2.094116535E0,-2.939749956E-1,3.524674892E0,-1.372250021E-1
2.096653496E0,-2.939749956E-1,3.524674892E0,-1.372250021E-1
2.099190459E0,-2.939749956E-1,3.524674892E0,-1.372250021E-1
2.101727680E0,-2.939749956E-1,3.524674892E0,-1.372250021E-1
2.104264911E0,-2.939749956E-1,3.524674892E0,-1.372250021E-1
2.106802718E0,-5.028374791E-1,3.185324907E0,1.361249983E-1
2.109340525E0,-5.028374791E-1,3.185324907E0,1.361249983E-1
2.111878250E0,-5.028374791E-1,3.185324907E0,1.361249983E-1
2.114415983E0,-5.028374791E-1,3.185324907E0,1.361249983E-1
2.116953983E0,-5.028374791E-1,3.185324907E0,1.361249983E-1
2.119491982E0,-5.028374791E-1,3.185324907E0,1.361249983E-1
2.122030722E0,-5.028374791E-1,3.185324907E0,1.361249983E-1
2.124569453E0,-5.028374791E-1,3.185324907E0,1.361249983E-1
2.127108261E0,-6.938250065E-1,2.864399910E0,3.690499961E-1
2.129647070E0,-6.938250065E-1,2.864399910E0,3.690499961E-1
2.132185670E0,-6.938250065E-1,2.864399910E0,3.690499961E-1
2.134724287E0,-6.938250065E-1,2.864399910E0,3.690499961E-1
2.137262710E0,-6.938250065E-1,2.864399910E0,3.690499961E-1
2.139801133E0,-6.938250065E-1,2.864399910E0,3.690499961E-1
2.142339440E0,-6.938250065E-1,2.864399910E0,3.690499961E-1
2.144877785E0,-6.938250065E-1,2.864399910E0,3.690499961E-1
2.147415901E0,-8.991125226E-1,2.538525105E0,5.317124724E-1
2.149954016E0,-8.991125226E-1,2.538525105E0,5.317124724E-1
2.152491593E0,-8.991125226E-1,2.538525105E0,5.317124724E-1
2.155029170E0,-8.991125226E-1,2.538525105E0,5.317124724E-1
2.157566555E0,-8.991125226E-1,2.538525105E0,5.317124724E-1
2.160103940E0,-8.991125226E-1,2.538525105E0,5.317124724E-1
2.162641454E0,-8.991125226E-1,2.538525105E0,5.317124724E-1
2.165178953E0,-8.991125226E-1,2.538525105E0,5.317124724E-1
2.167716030E0,-7.490999699E-1,2.354274988E0,7.838875055E-1
2.170253107E0,-7.490999699E-1,2.354274988E0,7.838875055E-1
2.172791167E0,-7.490999699E-1,2.354274988E0,7.838875055E-1
2.175329204E0,-7.490999699E-1,2.354274988E0,7.838875055E-1
2.177868704E0,-7.490999699E-1,2.354274988E0,7.838875055E-1
2.180408205E0,-7.490999699E-1,2.354274988E0,7.838875055E-1
2.182946352E0,-7.490999699E-1,2.354274988E0,7.838875055E-1
2.185484507E0,-7.490999699E-1,2.354274988E0,7.838875055E-1
2.188022545E0,-7.910374999E-1,2.097699881E0,9.367874861E-1
2.190560584E0,-7.910374999E-1,2.097699881E0,9.367874861E-1
2.193097967E0,-7.910374999E-1,2.097699881E0,9.367874861E-1
2.195635314E0,-7.910374999E-1,2.097699881E0,9.367874861E-1
2.198173045E0,-7.910374999E-1,2.097699881E0,9.367874861E-1
2.200710774E0,-7.910374999E-1,2.097699881E0,9.367874861E-1
2.203248149E0,-7.910374999E-1,2.097699881E0,9.367874861E-1
2.205785496E0,-7.910374999E-1,2.097699881E0,9.367874861E-1
2.208322920E0,-6.835125089E-1,1.913174987E0,8.915500045E-1
2.210860343E0,-6.835125089E-1,1.913174987E0,8.915500045E-1
2.213397283E0,-6.835125089E-1,1.913174987E0,8.915500045E-1
2.215934208E0,-6.835125089E-1,1.913174987E0,8.915500045E-1
2.218471438E0,-6.835125089E-1,1.913174987E0,8.915500045E-1
2.221008669E0,-6.835125089E-1,1.913174987E0,8.915500045E-1
2.223546019E0,-6.835125089E-1,1.913174987E0,8.915500045E-1
2.226083366E0,-6.835125089E-1,1.913174987E0,8.915500045E-1
2.228621251E0,-5.792874694E-1,1.754500031E0,8.471375108E-1
2.231159136E0,-5.792874694E-1,1.754500031E0,8.471375108E-1
2.233696615E0,-5.792874694E-1,1.754500031E0,8.471375108E-1
2.236234116E0,-5.792874694E-1,1.754500031E0,8.471375108E-1
2.238772117E0,-5.792874694E-1,1.754500031E0,8.471375108E-1
2.241310116E0,-5.792874694E-1,1.754500031E0,8.471375108E-1
2.243848293E0,-5.792874694E-1,1.754500031E0,8.471375108E-1
2.246386486E0,-5.792874694E-1,1.754500031E0,8.471375108E-1
2.248924755E0,-2.773374915E-1,1.705274940E0,8.222500086E-1
2.251463024E0,-2.773374915E-1,1.705274940E0,8.222500086E-1
2.254000567E0,-2.773374915E-1,1.705274940E0,8.222500086E-1
2.256538106E0,-2.773374915E-1,1.705274940E0,8.222500086E-1
2.259076299E0,-2.773374915E-1,1.705274940E0,8.222500086E-1
2.261614492E0,-2.773374915E-1,1.705274940E0,8.222500086E-1
2.264153419E0,-5.431250110E-2,1.642712474E0,7.510250211E-1
2.266692342E0,-5.431250110E-2,1.642712474E0,7.510250211E-1
2.269231535E0,-5.431250110E-2,1.642712474E0,7.510250211E-1
2.271770728E0,-5.431250110E-2,1.642712474E0,7.510250211E-1
2.274310121E0,-5.431250110E-2,1.642712474E0,7.510250211E-1
2.276849506E0,-5.431250110E-2,1.642712474E0,7.510250211E-1
2.279387235E0,-5.431250110E-2,1.642712474E0,7.510250211E-1
2.281924968E0,-5.431250110E-2,1.642712474E0,7.510250211E-1
2.284463083E0,1.614249945E-1,1.590324998E0,6.606875062E-1
2.287001198E0,1.614249945E-1,1.590324998E0,6.606875062E-1
2.289538735E0,1.614249945E-1,1.590324998E0,6.606875062E-1
2.292076274E0,1.614249945E-1,1.590324998E0,6.606875062E-1
2.294613082E0,1.614249945E-1,1.590324998E0,6.606875062E-1
2.297149889E0,1.614249945E-1,1.590324998E0,6.606875062E-1
2.299688621E0,1.614249945E-1,1.590324998E0,6.606875062E-1
2.302227352E0,1.614249945E-1,1.590324998E0,6.606875062E-1
2.304765225E0,2.547875047E-1,1.516762495E0,5.788750052E-1
2.307303072E0,2.547875047E-1,1.516762495E0,5.788750052E-1
2.309841112E0,2.547875047E-1,1.516762495E0,5.788750052E-1
2.312379149E0,2.547875047E-1,1.516762495E0,5.788750052E-1
2.314917726E0,2.547875047E-1,1.516762495E0,5.788750052E-1
2.317456303E0,2.547875047E-1,1.516762495E0,5.788750052E-1
2.319994803E0,2.547875047E-1,1.516762495E0,5.788750052E-1
2.322533304E0,2.547875047E-1,1.516762495E0,5.788750052E-1
2.325072342E0,2.591874897E-1,1.441412449E0,4.995374978E-1
2.327611381E0,2.591874897E-1,1.441412449E0,4.995374978E-1
2.330149995E0,2.591874897E-1,1.441412449E0,4.995374978E-1
2.332688612E0,2.591874897E-1,1.441412449E0,4.995374978E-1
2.335226303E0,2.591874897E-1,1.441412449E0,4.995374978E-1
2.337763996E0,2.591874897E-1,1.441412449E0,4.995374978E-1
2.340301996E0,2.591874897E-1,1.441412449E0,4.995374978E-1
2.342839995E0,2.591874897E-1,1.441412449E0,4.995374978E-1
2.345378352E0,3.397625089E-1,1.415974975E0,4.218499959E-1
2.347916699E0,3.397625089E-1,1.415974975E0,4.218499959E-1
2.350454237E0,3.397625089E-1,1.415974975E0,4.218499959E-1
2.352991776E0,3.397625089E-1,1.415974975E0,4.218499959E-1
2.355529930E0,3.397625089E-1,1.415974975E0,4.218499959E-1
2.358068083E0,3.397625089E-1,1.415974975E0,4.218499959E-1
2.360606482E0,3.397625089E-1,1.415974975E0,4.218499959E-1
2.363144907E0,3.397625089E-1,1.415974975E0,4.218499959E-1
2.365683406E0,3.151499927E-1,1.388749957E0,3.657499850E-1
2.368221907E0,3.151499927E-1,1.388749957E0,3.657499850E-1
2.370760198E0,3.151499927E-1,1.388749957E0,3.657499850E-1
2.373298507E0,3.151499927E-1,1.388749957E0,3.657499850E-1
2.375838046E0,3.151499927E-1,1.388749957E0,3.657499850E-1
2.378377583E0,3.151499927E-1,1.388749957E0,3.657499850E-1
2.380915679E0,3.151499927E-1,1.388749957E0,3.657499850E-1
2.383453796E0,3.151499927E-1,1.388749957E0,3.657499850E-1
2.385992565E0,2.666125000E-1,1.359874964E0,3.078624904E-1
2.388531334E0,2.666125000E-1,1.359874964E0,3.078624904E-1
2.391069481E0,2.666125000E-1,1.359874964E0,3.078624904E-1
2.393607636E0,2.666125000E-1,1.359874964E0,3.078624904E-1
2.396145637E0,2.666125000E-1,1.359874964E0,3.078624904E-1
2.398683636E0,2.666125000E-1,1.359874964E0,3.078624904E-1
2.401222133E0,2.666125000E-1,1.359874964E0,3.078624904E-1
2.403760594E0,2.666125000E-1,1.359874964E0,3.078624904E-1
2.406298900E0,2.419999987E-1,1.322612524E0,2.201374918E-1
2.408837209E0,2.419999987E-1,1.322612524E0,2.201374918E-1
2.411375242E0,2.419999987E-1,1.322612524E0,2.201374918E-1
2.413913243E0,2.419999987E-1,1.322612524E0,2.201374918E-1
2.416451128E0,2.419999987E-1,1.322612524E0,2.201374918E-1
2.418989013E0,2.419999987E-1,1.322612524E0,2.201374918E-1
2.421527484E0,2.419999987E-1,1.322612524E0,2.201374918E-1
2.424065945E0,2.419999987E-1,1.322612524E0,2.201374918E-1
2.426604559E0,2.155999988E-1,1.279987454E0,1.487749964E-1
2.429143176E0,2.155999988E-1,1.279987454E0,1.487749964E-1
2.431681482E0,2.155999988E-1,1.279987454E0,1.487749964E-1
2.434219791E0,2.155999988E-1,1.279987454E0,1.487749964E-1
2.436757636E0,2.155999988E-1,1.279987454E0,1.487749964E-1
2.439295483E0,2.155999988E-1,1.279987454E0,1.487749964E-1
2.441833892E0,2.155999988E-1,1.279987454E0,1.487749964E-1
2.444372315E0,2.155999988E-1,1.279987454E0,1.487749964E-1
2.446910660E0,1.887875050E-1,1.237224936E0,1.153625026E-1
2.449449007E0,1.887875050E-1,1.237224936E0,1.153625026E-1
2.451987469E0,1.887875050E-1,1.237224936E0,1.153625026E-1
2.454525930E0,1.887875050E-1,1.237224936E0,1.153625026E-1
2.457064084E0,1.887875050E-1,1.237224936E0,1.153625026E-1
2.459602239E0,1.887875050E-1,1.237224936E0,1.153625026E-1
2.462139795E0,1.887875050E-1,1.237224936E0,1.153625026E-1
2.464677334E0,1.887875050E-1,1.237224936E0,1.153625026E-1
2.467215488E0,1.766874939E-1,1.182362437E0,4.344999790E-2
2.469753641E0,1.766874939E-1,1.182362437E0,4.344999790E-2
2.472293175E0,1.766874939E-1,1.182362437E0,4.344999790E-2
2.474832714E0,1.766874939E-1,1.182362437E0,4.344999790E-2
2.477370866E0,1.766874939E-1,1.182362437E0,4.344999790E-2
2.479909021E0,1.766874939E-1,1.182362437E0,4.344999790E-2
2.482447137E0,1.766874939E-1,1.182362437E0,4.344999790E-2
2.484985252E0,1.766874939E-1,1.182362437E0,4.344999790E-2
2.487524330E0,1.824624985E-1,1.112787485E0,-8.332499862E-2
2.490063405E0,1.824624985E-1,1.112787485E0,-8.332499862E-2
2.492602651E0,1.824624985E-1,1.112787485E0,-8.332499862E-2
2.495141882E0,1.824624985E-1,1.112787485E0,-8.332499862E-2
2.497680650E0,1.824624985E-1,1.112787485E0,-8.332499862E-2
2.500219421E0,1.824624985E-1,1.112787485E0,-8.332499862E-2
2.502757622E0,1.824624985E-1,1.112787485E0,-8.332499862E-2
2.505295815E0,1.824624985E-1,1.112787485E0,-8.332499862E-2
2.507833815E0,2.146375030E-1,1.082537532E0,-3.781250119E-2
2.510371814E0,2.146375030E-1,1.082537532E0,-3.781250119E-2
2.512910421E0,2.146375030E-1,1.082537532E0,-3.781250119E-2
2.515449036E0,2.146375030E-1,1.082537532E0,-3.781250119E-2
2.517986573E0,2.146375030E-1,1.082537532E0,-3.781250119E-2
2.520524112E0,2.146375030E-1,1.082537532E0,-3.781250119E-2
2.523062728E0,2.146375030E-1,1.082537532E0,-3.781250119E-2
2.525601343E0,2.146375030E-1,1.082537532E0,-3.781250119E-2
2.528139649E0,2.991999984E-1,1.080199957E0,6.819999963E-2
2.530677958E0,2.991999984E-1,1.080199957E0,6.819999963E-2
2.533215487E0,2.991999984E-1,1.080199957E0,6.819999963E-2
2.535753026E0,2.991999984E-1,1.080199957E0,6.819999963E-2
2.538291295E0,2.991999984E-1,1.080199957E0,6.819999963E-2
2.540829564E0,2.991999984E-1,1.080199957E0,6.819999963E-2
2.543367606E0,2.991999984E-1,1.080199957E0,6.819999963E-2
2.545905645E0,2.991999984E-1,1.080199957E0,6.819999963E-2
2.548443915E0,3.066250086E-1,1.085425019E0,2.508000135E-1
2.550982184E0,3.066250086E-1,1.085425019E0,2.508000135E-1
2.553520222E0,3.066250086E-1,1.085425019E0,2.508000135E-1
2.556058261E0,3.066250086E-1,1.085425019E0,2.508000135E-1
2.558595954E0,3.066250086E-1,1.085425019E0,2.508000135E-1
2.561133645E0,3.066250086E-1,1.085425019E0,2.508000135E-1
2.563671746E0,3.066250086E-1,1.085425019E0,2.508000135E-1
2.566209861E0,3.066250086E-1,1.085425019E0,2.508000135E-1
2.568747707E0,2.348500043E-1,1.072362542E0,4.003999829E-1
2.571285554E0,2.348500043E-1,1.072362542E0,4.003999829E-1
2.573824310E0,2.348500043E-1,1.072362542E0,4.003999829E-1
2.576363079E0,2.348500043E-1,1.072362542E0,4.003999829E-1
2.578900616E0,2.348500043E-1,1.072362542E0,4.003999829E-1
2.581438155E0,2.348500043E-1,1.072362542E0,4.003999829E-1
2.583975987E0,2.315499932E-1,1.021075010E0,3.876124918E-1
2.586513832E0,2.315499932E-1,1.021075010E0,3.876124918E-1
2.589050908E0,2.315499932E-1,1.021075010E0,3.876124918E-1
2.591587987E0,2.315499932E-1,1.021075010E0,3.876124918E-1
2.594126026E0,2.315499932E-1,1.021075010E0,3.876124918E-1
2.596664063E0,2.315499932E-1,1.021075010E0,3.876124918E-1
2.599202371E0,2.315499932E-1,1.021075010E0,3.876124918E-1
2.601740678E0,2.315499932E-1,1.021075010E0,3.876124918E-1
2.604278077E0,2.259124964E-1,9.832624793E-1,4.109874964E-1
2.606815464E0,2.259124964E-1,9.832624793E-1,4.109874964E-1
2.609354503E0,2.259124964E-1,9.832624793E-1,4.109874964E-1
2.611893540E0,2.259124964E-1,9.832624793E-1,4.109874964E-1
2.614431553E0,2.259124964E-1,9.832624793E-1,4.109874964E-1
2.616969554E0,2.259124964E-1,9.832624793E-1,4.109874964E-1
2.619508055E0,2.259124964E-1,9.832624793E-1,4.109874964E-1
2.622046554E0,2.259124964E-1,9.832624793E-1,4.109874964E-1
2.624585260E0,1.185249984E-1,9.992125034E-1,6.175125241E-1
2.627123991E0,1.185249984E-1,9.992125034E-1,6.175125241E-1
2.629662337E0,1.185249984E-1,9.992125034E-1,6.175125241E-1
2.632200684E0,1.185249984E-1,9.992125034E-1,6.175125241E-1
2.634738799E0,1.185249984E-1,9.992125034E-1,6.175125241E-1
2.637276914E0,1.185249984E-1,9.992125034E-1,6.175125241E-1
2.639815376E0,1.185249984E-1,9.992125034E-1,6.175125241E-1
2.642353837E0,1.185249984E-1,9.992125034E-1,6.175125241E-1
2.644892303E0,-6.311249733E-2,1.035237551E0,8.733999729E-1
2.647430766E0,-6.311249733E-2,1.035237551E0,8.733999729E-1
2.649969227E0,-6.311249733E-2,1.035237551E0,8.733999729E-1
2.652507690E0,-6.311249733E-2,1.035237551E0,8.733999729E-1
2.655046150E0,-6.311249733E-2,1.035237551E0,8.733999729E-1
2.657584613E0,-6.311249733E-2,1.035237551E0,8.733999729E-1
2.660123357E0,-6.311249733E-2,1.035237551E0,8.733999729E-1
2.662662126E0,-6.311249733E-2,1.035237551E0,8.733999729E-1
2.665200625E0,-1.733874977E-1,9.931625128E-1,8.855000138E-1
2.667739126E0,-1.733874977E-1,9.931625128E-1,8.855000138E-1
2.670278323E0,-1.733874977E-1,9.931625128E-1,8.855000138E-1
2.672817516E0,-1.733874977E-1,9.931625128E-1,8.855000138E-1
2.675355861E0,-1.733874977E-1,9.931625128E-1,8.855000138E-1
2.677894208E0,-1.733874977E-1,9.931625128E-1,8.855000138E-1
2.680432531E0,-1.733874977E-1,9.931625128E-1,8.855000138E-1
2.682970838E0,-1.733874977E-1,9.931625128E-1,8.855000138E-1
2.685508839E0,-2.396624982E-1,9.194625020E-1,8.140000105E-1
2.688046838E0,-2.396624982E-1,9.194625020E-1,8.140000105E-1
2.690584834E0,-2.396624982E-1,9.194625020E-1,8.140000105E-1
2.693122833E0,-2.396624982E-1,9.194625020E-1,8.140000105E-1
2.695659871E0,-2.396624982E-1,9.194625020E-1,8.140000105E-1
2.698196910E0,-2.396624982E-1,9.194625020E-1,8.140000105E-1
2.700734497E0,-2.396624982E-1,9.194625020E-1,8.140000105E-1
2.703272074E0,-2.396624982E-1,9.194625020E-1,8.140000105E-1
2.705810343E0,-4.278999865E-1,8.269249797E-1,7.405750155E-1
2.708348612E0,-4.278999865E-1,8.269249797E-1,7.405750155E-1
2.710886914E0,-4.278999865E-1,8.269249797E-1,7.405750155E-1
2.713425223E0,-4.278999865E-1,8.269249797E-1,7.405750155E-1
2.715963106E0,-4.278999865E-1,8.269249797E-1,7.405750155E-1
2.718500991E0,-4.278999865E-1,8.269249797E-1,7.405750155E-1
2.721039262E0,-4.278999865E-1,8.269249797E-1,7.405750155E-1
2.723577531E0,-4.278999865E-1,8.269249797E-1,7.405750155E-1
2.726115837E0,-5.483499765E-1,7.254499793E-1,6.253499985E-1
2.728654146E0,-5.483499765E-1,7.254499793E-1,6.253499985E-1
2.731192198E0,-5.483499765E-1,7.254499793E-1,6.253499985E-1
2.733730237E0,-5.483499765E-1,7.254499793E-1,6.253499985E-1
2.736268238E0,-5.483499765E-1,7.254499793E-1,6.253499985E-1
2.738806237E0,-5.483499765E-1,7.254499793E-1,6.253499985E-1
2.741343617E0,-5.483499765E-1,7.254499793E-1,6.253499985E-1
2.743881002E0,-5.483499765E-1,7.254499793E-1,6.253499985E-1
2.746418540E0,-6.492750049E-1,6.297500134E-1,5.262125134E-1
2.748956079E0,-6.492750049E-1,6.297500134E-1,5.262125134E-1
2.751494405E0,-6.492750049E-1,6.297500134E-1,5.262125134E-1
2.754032714E0,-6.492750049E-1,6.297500134E-1,5.262125134E-1
2.756570366E0,-6.492750049E-1,6.297500134E-1,5.262125134E-1
2.759108021E0,-6.492750049E-1,6.297500134E-1,5.262125134E-1
2.761646498E0,-6.492750049E-1,6.297500134E-1,5.262125134E-1
2.764184959E0,-6.492750049E-1,6.297500134E-1,5.262125134E-1
2.766724228E0,-8.610249758E-1,4.555374980E-1,3.177624941E-1
2.769263497E0,-8.610249758E-1,4.555374980E-1,3.177624941E-1
2.771801447E0,-8.610249758E-1,4.555374980E-1,3.177624941E-1
2.774339410E0,-8.610249758E-1,4.555374980E-1,3.177624941E-1
2.776877757E0,-8.610249758E-1,4.555374980E-1,3.177624941E-1
2.779416102E0,-8.610249758E-1,4.555374980E-1,3.177624941E-1
2.781954203E0,-8.610249758E-1,4.555374980E-1,3.177624941E-1
2.784492320E0,-8.610249758E-1,4.555374980E-1,3.177624941E-1
2.787031090E0,-1.096150041E0,2.681249976E-1,1.285624951E-1
2.789569859E0,-1.096150041E0,2.681249976E-1,1.285624951E-1
2.792108054E0,-1.096150041E0,2.681249976E-1,1.285624951E-1
2.794646247E0,-1.096150041E0,2.681249976E-1,1.285624951E-1
2.797184709E0,-1.096150041E0,2.681249976E-1,1.285624951E-1
2.799723170E0,-1.096150041E0,2.681249976E-1,1.285624951E-1
2.802261607E0,-1.096150041E0,2.681249976E-1,1.285624951E-1
2.804800070E0,-1.096150041E0,2.681249976E-1,1.285624951E-1
2.807338646E0,-1.033862472E0,2.931500077E-1,3.383874893E-1
2.809877223E0,-1.033862472E0,2.931500077E-1,3.383874893E-1
2.812414924E0,-1.033862472E0,2.931500077E-1,3.383874893E-1
2.814952617E0,-1.033862472E0,2.931500077E-1,3.383874893E-1
2.817490502E0,-1.033862472E0,2.931500077E-1,3.383874893E-1
2.820028387E0,-1.033862472E0,2.931500077E-1,3.383874893E-1
2.822567151E0,-1.033862472E0,2.931500077E-1,3.383874893E-1
2.825105920E0,-1.033862472E0,2.931500077E-1,3.383874893E-1
2.827644958E0,-1.017087460E0,2.076250017E-1,2.771999836E-1
2.830183997E0,-1.017087460E0,2.076250017E-1,2.771999836E-1
2.832722795E0,-1.017087460E0,2.076250017E-1,2.771999836E-1
2.835261604E0,-1.017087460E0,2.076250017E-1,2.771999836E-1
2.837800488E0,-1.017087460E0,2.076250017E-1,2.771999836E-1
2.840339373E0,-1.017087460E0,2.076250017E-1,2.771999836E-1
2.842878466E0,-1.017087460E0,2.076250017E-1,2.771999836E-1
2.845417583E0,-1.017087460E0,2.076250017E-1,2.771999836E-1
2.847956351E0,-9.585124850E-1,1.446499974E-1,2.123000026E-1
2.850495122E0,-9.585124850E-1,1.446499974E-1,2.123000026E-1
2.853033257E0,-9.585124850E-1,1.446499974E-1,2.123000026E-1
2.855571372E0,-9.585124850E-1,1.446499974E-1,2.123000026E-1
2.858109064E0,-9.585124850E-1,1.446499974E-1,2.123000026E-1
2.860646757E0,-9.585124850E-1,1.446499974E-1,2.123000026E-1
2.863185117E0,-9.585124850E-1,1.446499974E-1,2.123000026E-1
2.865723462E0,-9.585124850E-1,1.446499974E-1,2.123000026E-1
2.868263155E0,-8.497499824E-1,5.059999973E-2,-3.464999795E-2
2.870802848E0,-8.497499824E-1,5.059999973E-2,-3.464999795E-2
2.873340538E0,-8.497499824E-1,5.059999973E-2,-3.464999795E-2
2.875878231E0,-8.497499824E-1,5.059999973E-2,-3.464999795E-2
2.878416963E0,-8.497499824E-1,5.059999973E-2,-3.464999795E-2
2.880955694E0,-8.497499824E-1,5.059999973E-2,-3.464999795E-2
2.883494327E0,-8.497499824E-1,5.059999973E-2,-3.464999795E-2
2.886032944E0,-8.497499824E-1,5.059999973E-2,-3.464999795E-2
2.888570982E0,-7.884249687E-1,2.777500078E-2,-5.403750017E-2
2.891109021E0,-7.884249687E-1,2.777500078E-2,-5.403750017E-2
2.893646693E0,-7.884249687E-1,2.777500078E-2,-5.403750017E-2
2.896184386E0,-7.884249687E-1,2.777500078E-2,-5.403750017E-2
2.898721732E0,-7.884249687E-1,2.777500078E-2,-5.403750017E-2
2.901259079E0,-7.884249687E-1,2.777500078E-2,-5.403750017E-2
2.903797286E0,-7.884249687E-1,2.777500078E-2,-5.403750017E-2
2.906335477E0,-7.884249687E-1,2.777500078E-2,-5.403750017E-2
2.908873631E0,-7.177500129E-1,2.543750033E-2,-2.598750032E-2
2.911411786E0,-7.177500129E-1,2.543750033E-2,-2.598750032E-2
2.913950242E0,-7.177500129E-1,2.543750033E-2,-2.598750032E-2
2.916488703E0,-7.177500129E-1,2.543750033E-2,-2.598750032E-2
2.919026818E0,-7.177500129E-1,2.543750033E-2,-2.598750032E-2
2.921564935E0,-7.177500129E-1,2.543750033E-2,-2.598750032E-2
2.924103401E0,-7.177500129E-1,2.543750033E-2,-2.598750032E-2
2.926641862E0,-7.177500129E-1,2.543750033E-2,-2.598750032E-2
2.929180168E0,-6.258999705E-1,4.606249928E-2,6.008749828E-2
2.931718477E0,-6.258999705E-1,4.606249928E-2,6.008749828E-2
2.934256174E0,-6.258999705E-1,4.606249928E-2,6.008749828E-2
2.936793867E0,-6.258999705E-1,4.606249928E-2,6.008749828E-2
2.939332174E0,-6.258999705E-1,4.606249928E-2,6.008749828E-2
2.941870481E0,-6.258999705E-1,4.606249928E-2,6.008749828E-2
2.944409251E0,-5.246999860E-1,5.156249925E-2,6.613750011E-2
2.946948020E0,-5.246999860E-1,5.156249925E-2,6.613750011E-2
2.949486635E0,-5.246999860E-1,5.156249925E-2,6.613750011E-2
2.952025252E0,-5.246999860E-1,5.156249925E-2,6.613750011E-2
2.954562982E0,-5.246999860E-1,5.156249925E-2,6.613750011E-2
2.957100713E0,-5.246999860E-1,5.156249925E-2,6.613750011E-2
2.959639175E0,-5.246999860E-1,5.156249925E-2,6.613750011E-2
2.962177636E0,-5.246999860E-1,5.156249925E-2,6.613750011E-2
2.964716366E0,-1.112374961E-1,3.918749839E-2,-2.549250126E-1
2.967255097E0,-1.112374961E-1,3.918749839E-2,-2.549250126E-1
2.969792981E0,-1.112374961E-1,3.918749839E-2,-2.549250126E-1
2.972330828E0,-1.112374961E-1,3.918749839E-2,-2.549250126E-1
2.974869175E0,-1.112374961E-1,3.918749839E-2,-2.549250126E-1
2.977407522E0,-1.112374961E-1,3.918749839E-2,-2.549250126E-1
2.979945659E0,-1.112374961E-1,3.918749839E-2,-2.549250126E-1
2.982483814E0,-1.112374961E-1,3.918749839E-2,-2.549250126E-1
2.985022083E0,-1.949750036E-1,1.869999990E-2,-1.825999916E-1
2.987560352E0,-1.949750036E-1,1.869999990E-2,-1.825999916E-1
2.990098376E0,-1.949750036E-1,1.869999990E-2,-1.825999916E-1
2.992636415E0,-1.949750036E-1,1.869999990E-2,-1.825999916E-1
2.995175301E0,-1.949750036E-1,1.869999990E-2,-1.825999916E-1
2.997714184E0,-1.949750036E-1,1.869999990E-2,-1.825999916E-1
3.000252852E0,-1.949750036E-1,1.869999990E-2,-1.825999916E-1
3.002791507E0,-1.949750036E-1,1.869999990E-2,-1.825999916E-1
3.005330430E0,-2.021249980E-1,1.130250022E-1,2.375999987E-1
3.007869353E0,-2.021249980E-1,1.130250022E-1,2.375999987E-1
3.010407477E0,-2.021249980E-1,1.130250022E-1,2.375999987E-1
3.012945594E0,-2.021249980E-1,1.130250022E-1,2.375999987E-1
3.015483786E0,-2.021249980E-1,1.130250022E-1,2.375999987E-1
3.018021977E0,-2.021249980E-1,1.130250022E-1,2.375999987E-1
3.020559957E0,-2.021249980E-1,1.130250022E-1,2.375999987E-1
3.023097958E0,-2.021249980E-1,1.130250022E-1,2.375999987E-1
3.025635650E0,-3.444375098E-1,1.871374995E-1,6.257625222E-1
3.028173343E0,-3.444375098E-1,1.871374995E-1,6.257625222E-1
3.030711483E0,-3.444375098E-1,1.871374995E-1,6.257625222E-1
3.033249636E0,-3.444375098E-1,1.871374995E-1,6.257625222E-1
3.035788058E0,-3.444375098E-1,1.871374995E-1,6.257625222E-1
3.038326483E0,-3.444375098E-1,1.871374995E-1,6.257625222E-1
3.040864679E0,-3.444375098E-1,1.871374995E-1,6.257625222E-1
3.043402872E0,-3.444375098E-1,1.871374995E-1,6.257625222E-1
3.045940718E0,-4.420624971E-1,1.721500009E-1,6.953374743E-1
3.048478565E0,-4.420624971E-1,1.721500009E-1,6.953374743E-1
3.051016198E0,-4.420624971E-1,1.721500009E-1,6.953374743E-1
3.053553851E0,-4.420624971E-1,1.721500009E-1,6.953374743E-1
3.056091544E0,-4.420624971E-1,1.721500009E-1,6.953374743E-1
3.058629237E0,-4.420624971E-1,1.721500009E-1,6.953374743E-1
3.061167087E0,-4.420624971E-1,1.721500009E-1,6.953374743E-1
3.063704934E0,-4.420624971E-1,1.721500009E-1,6.953374743E-1
3.066243279E0,-3.550249934E-1,1.058750004E-1,4.879874885E-1
3.068781626E0,-3.550249934E-1,1.058750004E-1,4.879874885E-1
3.071318997E0,-3.550249934E-1,1.058750004E-1,4.879874885E-1
3.073856382E0,-3.550249934E-1,1.058750004E-1,4.879874885E-1
3.076394075E0,-3.550249934E-1,1.058750004E-1,4.879874885E-1
3.078931766E0,-3.550249934E-1,1.058750004E-1,4.879874885E-1
3.081470175E0,-3.550249934E-1,1.058750004E-1,4.879874885E-1
3.084008598E0,-3.550249934E-1,1.058750004E-1,4.879874885E-1
3.086546905E0,-3.971000016E-1,5.115000159E-2,3.869250119E-1
3.089085214E0,-3.971000016E-1,5.115000159E-2,3.869250119E-1
3.091623540E0,-3.971000016E-1,5.115000159E-2,3.869250119E-1
3.094161887E0,-3.971000016E-1,5.115000159E-2,3.869250119E-1
3.096700347E0,-3.971000016E-1,5.115000159E-2,3.869250119E-1
3.099238810E0,-3.971000016E-1,5.115000159E-2,3.869250119E-1
3.101777401E0,-3.971000016E-1,5.115000159E-2,3.869250119E-1
3.104316016E0,-3.971000016E-1,5.115000159E-2,3.869250119E-1
3.106854785E0,-3.795000017E-1,3.093750030E-2,3.460874856E-1
3.109393556E0,-3.795000017E-1,3.093750030E-2,3.460874856E-1
3.111931978E0,-3.795000017E-1,3.093750030E-2,3.460874856E-1
3.114470401E0,-3.795000017E-1,3.093750030E-2,3.460874856E-1
3.117009017E0,-3.795000017E-1,3.093750030E-2,3.460874856E-1
3.119547632E0,-3.795000017E-1,3.093750030E-2,3.460874856E-1
3.122086098E0,-3.795000017E-1,3.093750030E-2,3.460874856E-1
3.124624561E0,-3.795000017E-1,3.093750030E-2,3.460874856E-1
3.127163484E0,-8.185374737E-1,-1.150875017E-1,2.694999874E-1
3.129702407E0,-8.185374737E-1,-1.150875017E-1,2.694999874E-1
3.132240891E0,-8.185374737E-1,-1.150875017E-1,2.694999874E-1
3.134779392E0,-8.185374737E-1,-1.150875017E-1,2.694999874E-1
3.137317353E0,-8.185374737E-1,-1.150875017E-1,2.694999874E-1
3.139855314E0,-8.185374737E-1,-1.150875017E-1,2.694999874E-1
3.142394277E0,-8.185374737E-1,-1.150875017E-1,2.694999874E-1
3.144933238E0,-8.185374737E-1,-1.150875017E-1,2.694999874E-1
3.147471698E0,-8.335250020E-1,-1.951124966E-1,6.104999781E-2
3.150010161E0,-8.335250020E-1,-1.951124966E-1,6.104999781E-2
3.152548459E0,-8.335250020E-1,-1.951124966E-1,6.104999781E-2
3.155086728E0,-8.335250020E-1,-1.951124966E-1,6.104999781E-2
3.157623959E0,-8.335250020E-1,-1.951124966E-1,6.104999781E-2
3.160161190E0,-8.335250020E-1,-1.951124966E-1,6.104999781E-2
3.162699517E0,-8.335250020E-1,-1.951124966E-1,6.104999781E-2
3.165237862E0,-8.335250020E-1,-1.951124966E-1,6.104999781E-2
3.167775977E0,-8.842625022E-1,-3.201000094E-1,-2.847625017E-1
3.170314094E0,-8.842625022E-1,-3.201000094E-1,-2.847625017E-1
3.172852248E0,-8.842625022E-1,-3.201000094E-1,-2.847625017E-1
3.175390401E0,-8.842625022E-1,-3.201000094E-1,-2.847625017E-1
3.177928708E0,-8.842625022E-1,-3.201000094E-1,-2.847625017E-1
3.180467017E0,-8.842625022E-1,-3.201000094E-1,-2.847625017E-1
3.183004847E0,-8.842625022E-1,-3.201000094E-1,-2.847625017E-1
3.185542694E0,-8.842625022E-1,-3.201000094E-1,-2.847625017E-1
3.188079771E0,-7.017999887E-1,-3.724874854E-1,-6.938250065E-1
3.190616848E0,-7.017999887E-1,-3.724874854E-1,-6.938250065E-1
3.193153796E0,-7.017999887E-1,-3.724874854E-1,-6.938250065E-1
3.195690757E0,-7.017999887E-1,-3.724874854E-1,-6.938250065E-1
3.198228412E0,-7.017999887E-1,-3.724874854E-1,-6.938250065E-1
3.200766065E0,-7.017999887E-1,-3.724874854E-1,-6.938250065E-1
3.203302828E0,-7.017999887E-1,-3.724874854E-1,-6.938250065E-1
3.205839599E0,-7.017999887E-1,-3.724874854E-1,-6.938250065E-1
3.208377176E0,-4.589749873E-1,-3.658874929E-1,-9.619500041E-1
3.210914753E0,-4.589749873E-1,-3.658874929E-1,-9.619500041E-1
3.213452444E0,-4.589749873E-1,-3.658874929E-1,-9.619500041E-1
3.215990137E0,-4.589749873E-1,-3.658874929E-1,-9.619500041E-1
3.218527636E0,-4.589749873E-1,-3.658874929E-1,-9.619500041E-1
3.221065137E0,-4.589749873E-1,-3.658874929E-1,-9.619500041E-1
3.223602709E0,-4.589749873E-1,-3.658874929E-1,-9.619500041E-1
3.226140286E0,-4.589749873E-1,-3.658874929E-1,-9.619500041E-1
3.228678901E0,-3.480125070E-1,-3.572250009E-1,-9.553499818E-1
3.231217516E0,-3.480125070E-1,-3.572250009E-1,-9.553499818E-1
3.233755515E0,-3.480125070E-1,-3.572250009E-1,-9.553499818E-1
3.236293516E0,-3.480125070E-1,-3.572250009E-1,-9.553499818E-1
3.238831786E0,-3.480125070E-1,-3.572250009E-1,-9.553499818E-1
3.241370055E0,-3.480125070E-1,-3.572250009E-1,-9.553499818E-1
3.243908126E0,-3.480125070E-1,-3.572250009E-1,-9.553499818E-1
3.246446165E0,-3.480125070E-1,-3.572250009E-1,-9.553499818E-1
3.248984127E0,-5.266249925E-2,-2.942500114E-1,-9.443500042E-1
3.251522088E0,-5.266249925E-2,-2.942500114E-1,-9.443500042E-1
3.254059974E0,-5.266249925E-2,-2.942500114E-1,-9.443500042E-1
3.256597859E0,-5.266249925E-2,-2.942500114E-1,-9.443500042E-1
3.259136898E0,-5.266249925E-2,-2.942500114E-1,-9.443500042E-1
3.261675935E0,-5.266249925E-2,-2.942500114E-1,-9.443500042E-1
3.264214449E0,1.626625061E-1,-2.674374878E-1,-1.016537547E0
3.266752950E0,1.626625061E-1,-2.674374878E-1,-1.016537547E0
3.269290949E0,1.626625061E-1,-2.674374878E-1,-1.016537547E0
3.271828950E0,1.626625061E-1,-2.674374878E-1,-1.016537547E0
3.274366796E0,1.626625061E-1,-2.674374878E-1,-1.016537547E0
3.276904641E0,1.626625061E-1,-2.674374878E-1,-1.016537547E0
3.279443104E0,1.626625061E-1,-2.674374878E-1,-1.016537547E0
3.281981565E0,1.626625061E-1,-2.674374878E-1,-1.016537547E0
3.284519404E0,3.635500073E-1,-2.315499932E-1,-9.299125075E-1
3.287057251E0,3.635500073E-1,-2.315499932E-1,-9.299125075E-1
3.289594637E0,3.635500073E-1,-2.315499932E-1,-9.299125075E-1
3.292132022E0,3.635500073E-1,-2.315499932E-1,-9.299125075E-1
3.294669729E0,3.635500073E-1,-2.315499932E-1,-9.299125075E-1
3.297207420E0,3.635500073E-1,-2.315499932E-1,-9.299125075E-1
3.299744805E0,3.635500073E-1,-2.315499932E-1,-9.299125075E-1
3.302282190E0,3.635500073E-1,-2.315499932E-1,-9.299125075E-1
3.304819864E0,6.261749864E-1,-1.836999953E-1,-9.343125224E-1
3.307357555E0,6.261749864E-1,-1.836999953E-1,-9.343125224E-1
3.309895401E0,6.261749864E-1,-1.836999953E-1,-9.343125224E-1
3.312433248E0,6.261749864E-1,-1.836999953E-1,-9.343125224E-1
3.314971386E0,6.261749864E-1,-1.836999953E-1,-9.343125224E-1
3.317509541E0,6.261749864E-1,-1.836999953E-1,-9.343125224E-1
3.320047193E0,6.261749864E-1,-1.836999953E-1,-9.343125224E-1
3.322584848E0,6.261749864E-1,-1.836999953E-1,-9.343125224E-1
3.325122440E0,7.794874907E-1,-1.571625024E-1,-9.785875082E-1
3.327660017E0,7.794874907E-1,-1.571625024E-1,-9.785875082E-1
3.330198132E0,7.794874907E-1,-1.571625024E-1,-9.785875082E-1
3.332736247E0,7.794874907E-1,-1.571625024E-1,-9.785875082E-1
3.335273780E0,7.794874907E-1,-1.571625024E-1,-9.785875082E-1
3.337811319E0,7.794874907E-1,-1.571625024E-1,-9.785875082E-1
3.340348549E0,7.794874907E-1,-1.571625024E-1,-9.785875082E-1
3.342885780E0,7.794874907E-1,-1.571625024E-1,-9.785875082E-1
3.345422424E0,8.430125117E-1,-1.447875053E-1,-1.086662531E0
3.347959039E0,8.430125117E-1,-1.447875053E-1,-1.086662531E0
3.350496309E0,8.430125117E-1,-1.447875053E-1,-1.086662531E0
3.353033578E0,8.430125117E-1,-1.447875053E-1,-1.086662531E0
3.355570307E0,8.430125117E-1,-1.447875053E-1,-1.086662531E0
3.358107040E0,8.430125117E-1,-1.447875053E-1,-1.086662531E0
3.360645108E0,8.430125117E-1,-1.447875053E-1,-1.086662531E0
3.363183145E0,8.430125117E-1,-1.447875053E-1,-1.086662531E0
3.365720837E0,6.447374821E-1,-1.694000065E-1,-9.634624720E-1
3.368258530E0,6.447374821E-1,-1.694000065E-1,-9.634624720E-1
3.370796689E0,6.447374821E-1,-1.694000065E-1,-9.634624720E-1
3.373334842E0,6.447374821E-1,-1.694000065E-1,-9.634624720E-1
3.375871918E0,6.447374821E-1,-1.694000065E-1,-9.634624720E-1
3.378408997E0,6.447374821E-1,-1.694000065E-1,-9.634624720E-1
3.380946060E0,6.447374821E-1,-1.694000065E-1,-9.634624720E-1
3.383483137E0,6.447374821E-1,-1.694000065E-1,-9.634624720E-1
3.386020676E0,1.582625061E-1,-2.666125000E-1,-7.640874982E-1
3.388558213E0,1.582625061E-1,-2.666125000E-1,-7.640874982E-1
3.391095909E0,1.582625061E-1,-2.666125000E-1,-7.640874982E-1
3.393633602E0,1.582625061E-1,-2.666125000E-1,-7.640874982E-1
3.396170331E0,1.582625061E-1,-2.666125000E-1,-7.640874982E-1
3.398707064E0,1.582625061E-1,-2.666125000E-1,-7.640874982E-1
3.401244454E0,1.582625061E-1,-2.666125000E-1,-7.640874982E-1
3.403781837E0,1.582625061E-1,-2.666125000E-1,-7.640874982E-1
3.406319221E0,-9.322500229E-2,-3.192749918E-1,-5.831375122E-1
3.408856606E0,-9.322500229E-2,-3.192749918E-1,-5.831375122E-1
3.411394727E0,-9.322500229E-2,-3.192749918E-1,-5.831375122E-1
3.413932882E0,-9.322500229E-2,-3.192749918E-1,-5.831375122E-1
3.416470573E0,-9.322500229E-2,-3.192749918E-1,-5.831375122E-1
3.419008266E0,-9.322500229E-2,-3.192749918E-1,-5.831375122E-1
3.421545804E0,-9.322500229E-2,-3.192749918E-1,-5.831375122E-1
3.424083343E0,-9.322500229E-2,-3.192749918E-1,-5.831375122E-1
3.426621381E0,-3.016749918E-1,-3.715249896E-1,-4.258374870E-1
3.429159420E0,-3.016749918E-1,-3.715249896E-1,-4.258374870E-1
3.431697424E0,-3.016749918E-1,-3.715249896E-1,-4.258374870E-1
3.434235425E0,-3.016749918E-1,-3.715249896E-1,-4.258374870E-1
3.436773540E0,-3.016749918E-1,-3.715249896E-1,-4.258374870E-1
3.439311655E0,-3.016749918E-1,-3.715249896E-1,-4.258374870E-1
3.441848884E0,-3.016749918E-1,-3.715249896E-1,-4.258374870E-1
3.444386117E0,-3.016749918E-1,-3.715249896E-1,-4.258374870E-1
3.446923694E0,-4.092000127E-1,-4.047999978E-1,-3.926999867E-1
3.449461271E0,-4.092000127E-1,-4.047999978E-1,-3.926999867E-1
3.451998159E0,-4.092000127E-1,-4.047999978E-1,-3.926999867E-1
3.454535044E0,-4.092000127E-1,-4.047999978E-1,-3.926999867E-1
3.457072160E0,-4.092000127E-1,-4.047999978E-1,-3.926999867E-1
3.459609275E0,-4.092000127E-1,-4.047999978E-1,-3.926999867E-1
3.462146645E0,-4.092000127E-1,-4.047999978E-1,-3.926999867E-1
3.464684030E0,-4.092000127E-1,-4.047999978E-1,-3.926999867E-1
3.467221721E0,-5.945500135E-1,-4.548499882E-1,-1.991000026E-1
3.469759414E0,-5.945500135E-1,-4.548499882E-1,-1.991000026E-1
3.472297269E0,-5.945500135E-1,-4.548499882E-1,-1.991000026E-1
3.474835078E0,-5.945500135E-1,-4.548499882E-1,-1.991000026E-1
3.477373385E0,-5.945500135E-1,-4.548499882E-1,-1.991000026E-1
3.479911692E0,-5.945500135E-1,-4.548499882E-1,-1.991000026E-1
3.482449696E0,-5.945500135E-1,-4.548499882E-1,-1.991000026E-1
3.484987697E0,-5.945500135E-1,-4.548499882E-1,-1.991000026E-1
3.487525275E0,-5.424374938E-1,-4.162124991E-1,-1.413500011E-1
3.490062852E0,-5.424374938E-1,-4.162124991E-1,-1.413500011E-1
3.492600689E0,-5.424374938E-1,-4.162124991E-1,-1.413500011E-1
3.495138536E0,-5.424374938E-1,-4.162124991E-1,-1.413500011E-1
3.497676958E0,-5.424374938E-1,-4.162124991E-1,-1.413500011E-1
3.500215381E0,-5.424374938E-1,-4.162124991E-1,-1.413500011E-1
3.502753265E0,-5.424374938E-1,-4.162124991E-1,-1.413500011E-1
3.505291150E0,-5.424374938E-1,-4.162124991E-1,-1.413500011E-1
3.507828843E0,-5.002250075E-1,-3.856875002E-1,-1.017500013E-1
3.510366536E0,-5.002250075E-1,-3.856875002E-1,-1.017500013E-1
3.512903905E0,-5.002250075E-1,-3.856875002E-1,-1.017500013E-1
3.515441290E0,-5.002250075E-1,-3.856875002E-1,-1.017500013E-1
3.517979290E0,-5.002250075E-1,-3.856875002E-1,-1.017500013E-1
3.520517289E0,-5.002250075E-1,-3.856875002E-1,-1.017500013E-1
3.523054649E0,-5.002250075E-1,-3.856875002E-1,-1.017500013E-1
3.525591996E0,-5.002250075E-1,-3.856875002E-1,-1.017500013E-1
3.528130497E0,-4.056249857E-1,-3.542000055E-1,-1.046374962E-1
3.530668996E0,-4.056249857E-1,-3.542000055E-1,-1.046374962E-1
3.533207145E0,-4.056249857E-1,-3.542000055E-1,-1.046374962E-1
3.535745300E0,-4.056249857E-1,-3.542000055E-1,-1.046374962E-1
3.538283261E0,-4.056249857E-1,-3.542000055E-1,-1.046374962E-1
3.540821222E0,-4.056249857E-1,-3.542000055E-1,-1.046374962E-1
3.543358775E0,-4.056249857E-1,-3.542000055E-1,-1.046374962E-1
3.545896314E0,-4.056249857E-1,-3.542000055E-1,-1.046374962E-1
3.548434353E0,-7.851249725E-2,-2.554749846E-1,-3.959999979E-1
3.550972390E0,-7.851249725E-2,-2.554749846E-1,-3.959999979E-1
3.553509889E0,-7.851249725E-2,-2.554749846E-1,-3.959999979E-1
3.556047390E0,-7.851249725E-2,-2.554749846E-1,-3.959999979E-1
3.558585545E0,-7.851249725E-2,-2.554749846E-1,-3.959999979E-1
3.561123698E0,-7.851249725E-2,-2.554749846E-1,-3.959999979E-1
3.563661222E0,-7.851249725E-2,-2.554749846E-1,-3.959999979E-1
3.566198761E0,-7.851249725E-2,-2.554749846E-1,-3.959999979E-1
3.568735992E0,-3.451250121E-2,-2.520374954E-1,-7.677999735E-1
3.571273223E0,-3.451250121E-2,-2.520374954E-1,-7.677999735E-1
3.573811083E0,-3.451250121E-2,-2.520374954E-1,-7.677999735E-1
3.576348928E0,-3.451250121E-2,-2.520374954E-1,-7.677999735E-1
3.578886659E0,-3.451250121E-2,-2.520374954E-1,-7.677999735E-1
3.581424390E0,-3.451250121E-2,-2.520374954E-1,-7.677999735E-1
3.583962506E0,-3.451250121E-2,-2.520374954E-1,-7.677999735E-1
3.586500621E0,-3.451250121E-2,-2.520374954E-1,-7.677999735E-1
3.589038813E0,3.382499889E-2,-2.204124928E-1,-9.878000021E-1
3.591577006E0,3.382499889E-2,-2.204124928E-1,-9.878000021E-1
3.594114707E0,3.382499889E-2,-2.204124928E-1,-9.878000021E-1
3.596652400E0,3.382499889E-2,-2.204124928E-1,-9.878000021E-1
3.599190208E0,3.382499889E-2,-2.204124928E-1,-9.878000021E-1
3.601728015E0,3.382499889E-2,-2.204124928E-1,-9.878000021E-1
3.604265880E0,5.059999973E-2,-1.953874975E-1,-1.132862449E0
3.606803727E0,5.059999973E-2,-1.953874975E-1,-1.132862449E0
3.609341419E0,5.059999973E-2,-1.953874975E-1,-1.132862449E0
3.611879112E0,5.059999973E-2,-1.953874975E-1,-1.132862449E0
3.614417261E0,5.059999973E-2,-1.953874975E-1,-1.132862449E0
3.616955414E0,5.059999973E-2,-1.953874975E-1,-1.132862449E0
3.619493259E0,5.059999973E-2,-1.953874975E-1,-1.132862449E0
3.622031106E0,5.059999973E-2,-1.953874975E-1,-1.132862449E0
3.624569415E0,-1.289750040E-1,-2.502500117E-1,-1.146887541E0
3.627107722E0,-1.289750040E-1,-2.502500117E-1,-1.146887541E0
3.629646068E0,-1.289750040E-1,-2.502500117E-1,-1.146887541E0
3.632184415E0,-1.289750040E-1,-2.502500117E-1,-1.146887541E0
3.634722861E0,-1.289750040E-1,-2.502500117E-1,-1.146887541E0
3.637261324E0,-1.289750040E-1,-2.502500117E-1,-1.146887541E0
3.639799938E0,-1.289750040E-1,-2.502500117E-1,-1.146887541E0
3.642338555E0,-1.289750040E-1,-2.502500117E-1,-1.146887541E0
3.644876500E0,-1.593624949E-1,-2.639999986E-1,-1.071400046E0
3.647414463E0,-1.593624949E-1,-2.639999986E-1,-1.071400046E0
3.649952501E0,-1.593624949E-1,-2.639999986E-1,-1.071400046E0
3.652490540E0,-1.593624949E-1,-2.639999986E-1,-1.071400046E0
3.655029770E0,-1.593624949E-1,-2.639999986E-1,-1.071400046E0
3.657569001E0,-1.593624949E-1,-2.639999986E-1,-1.071400046E0
3.660107419E0,-1.593624949E-1,-2.639999986E-1,-1.071400046E0
3.662645842E0,-1.593624949E-1,-2.639999986E-1,-1.071400046E0
3.665184804E0,-1.379124969E-1,-2.627624869E-1,-1.010074973E0
3.667723765E0,-1.379124969E-1,-2.627624869E-1,-1.010074973E0
3.670261534E0,-1.379124969E-1,-2.627624869E-1,-1.010074973E0
3.672799343E0,-1.379124969E-1,-2.627624869E-1,-1.010074973E0
3.675337343E0,-1.379124969E-1,-2.627624869E-1,-1.010074973E0
3.677875342E0,-1.379124969E-1,-2.627624869E-1,-1.010074973E0
3.680412749E0,-1.379124969E-1,-2.627624869E-1,-1.010074973E0
3.682950174E0,-1.379124969E-1,-2.627624869E-1,-1.010074973E0
3.685487520E0,-1.846625060E-1,-2.908124924E-1,-9.462749958E-1
3.688024867E0,-1.846625060E-1,-2.908124924E-1,-9.462749958E-1
3.690562073E0,-1.846625060E-1,-2.908124924E-1,-9.462749958E-1
3.693099304E0,-1.846625060E-1,-2.908124924E-1,-9.462749958E-1
3.695637189E0,-1.846625060E-1,-2.908124924E-1,-9.462749958E-1
3.698175074E0,-1.846625060E-1,-2.908124924E-1,-9.462749958E-1
3.700713184E0,-1.846625060E-1,-2.908124924E-1,-9.462749958E-1
3.703251299E0,-1.846625060E-1,-2.908124924E-1,-9.462749958E-1
3.705788991E0,-1.922249943E-1,-3.031874895E-1,-8.709250093E-1
3.708326684E0,-1.922249943E-1,-3.031874895E-1,-8.709250093E-1
3.710864381E0,-1.922249943E-1,-3.031874895E-1,-8.709250093E-1
3.713402074E0,-1.922249943E-1,-3.031874895E-1,-8.709250093E-1
3.715939804E0,-1.922249943E-1,-3.031874895E-1,-8.709250093E-1
3.718477535E0,-1.922249943E-1,-3.031874895E-1,-8.709250093E-1
3.721015842E0,-1.922249943E-1,-3.031874895E-1,-8.709250093E-1
3.723554151E0,-1.922249943E-1,-3.031874895E-1,-8.709250093E-1
3.726092264E0,-1.952500045E-1,-3.084124923E-1,-7.841625214E-1
3.728630381E0,-1.952500045E-1,-3.084124923E-1,-7.841625214E-1
3.731168237E0,-1.952500045E-1,-3.084124923E-1,-7.841625214E-1
3.733706084E0,-1.952500045E-1,-3.084124923E-1,-7.841625214E-1
3.736244122E0,-1.952500045E-1,-3.084124923E-1,-7.841625214E-1
3.738782161E0,-1.952500045E-1,-3.084124923E-1,-7.841625214E-1
3.741319794E0,-1.952500045E-1,-3.084124923E-1,-7.841625214E-1
3.743857449E0,-1.952500045E-1,-3.084124923E-1,-7.841625214E-1
3.746394679E0,-1.588124931E-1,-2.905375063E-1,-6.781499982E-1
3.748931910E0,-1.588124931E-1,-2.905375063E-1,-6.781499982E-1
3.751469488E0,-1.588124931E-1,-2.905375063E-1,-6.781499982E-1
3.754007065E0,-1.588124931E-1,-2.905375063E-1,-6.781499982E-1
3.756544910E0,-1.588124931E-1,-2.905375063E-1,-6.781499982E-1
3.759082757E0,-1.588124931E-1,-2.905375063E-1,-6.781499982E-1
3.761620232E0,-1.588124931E-1,-2.905375063E-1,-6.781499982E-1
3.764157733E0,-1.588124931E-1,-2.905375063E-1,-6.781499982E-1
3.766694655E0,-1.659625024E-1,-2.846249938E-1,-6.061000228E-1
3.769231578E0,-1.659625024E-1,-2.846249938E-1,-6.061000228E-1
3.771769410E0,-1.659625024E-1,-2.846249938E-1,-6.061000228E-1
3.774307255E0,-1.659625024E-1,-2.846249938E-1,-6.061000228E-1
3.776844485E0,-1.659625024E-1,-2.846249938E-1,-6.061000228E-1
3.779381718E0,-1.659625024E-1,-2.846249938E-1,-6.061000228E-1
3.781919295E0,-1.659625024E-1,-2.846249938E-1,-6.061000228E-1
3.784456872E0,-1.659625024E-1,-2.846249938E-1,-6.061000228E-1
3.786994371E0,-1.197625026E-1,-2.441999912E-1,-5.743374825E-1
3.789531872E0,-1.197625026E-1,-2.441999912E-1,-5.743374825E-1
3.792069464E0,-1.197625026E-1,-2.441999912E-1,-5.743374825E-1
3.794607041E0,-1.197625026E-1,-2.441999912E-1,-5.743374825E-1
3.797145194E0,-1.197625026E-1,-2.441999912E-1,-5.743374825E-1
3.799683347E0,-1.197625026E-1,-2.441999912E-1,-5.743374825E-1
3.802222381E0,-1.197625026E-1,-2.441999912E-1,-5.743374825E-1
3.804761420E0,-1.197625026E-1,-2.441999912E-1,-5.743374825E-1
3.807298956E0,-9.844999760E-2,-2.117500007E-1,-5.446375012E-1
3.809836497E0,-9.844999760E-2,-2.117500007E-1,-5.446375012E-1
3.812373626E0,-9.844999760E-2,-2.117500007E-1,-5.446375012E-1
3.814910741E0,-9.844999760E-2,-2.117500007E-1,-5.446375012E-1
3.817448088E0,-9.844999760E-2,-2.117500007E-1,-5.446375012E-1
3.819985433E0,-9.844999760E-2,-2.117500007E-1,-5.446375012E-1
3.822523025E0,-9.844999760E-2,-2.117500007E-1,-5.446375012E-1
3.825060602E0,-9.844999760E-2,-2.117500007E-1,-5.446375012E-1
3.827598410E0,-1.064250022E-1,-1.930499971E-1,-5.157625079E-1
3.830136219E0,-1.064250022E-1,-1.930499971E-1,-5.157625079E-1
3.832673789E0,-1.064250022E-1,-1.930499971E-1,-5.157625079E-1
3.835211328E0,-1.064250022E-1,-1.930499971E-1,-5.157625079E-1
3.837749329E0,-1.064250022E-1,-1.930499971E-1,-5.157625079E-1
3.840287328E0,-1.064250022E-1,-1.930499971E-1,-5.157625079E-1
3.842824881E0,-1.064250022E-1,-1.930499971E-1,-5.157625079E-1
3.845362420E0,-1.064250022E-1,-1.930499971E-1,-5.157625079E-1
3.847899997E0,3.162499983E-3,-1.545500010E-1,-2.648249865E-1
3.850437574E0,3.162499983E-3,-1.545500010E-1,-2.648249865E-1
3.852976775E0,3.162499983E-3,-1.545500010E-1,-2.648249865E-1
3.855515968E0,3.162499983E-3,-1.545500010E-1,-2.648249865E-1
3.858053543E0,3.162499983E-3,-1.545500010E-1,-2.648249865E-1
3.860591122E0,3.162499983E-3,-1.545500010E-1,-2.648249865E-1
3.863129709E0,3.162499983E-3,-1.545500010E-1,-2.648249865E-1
3.865668286E0,3.162499983E-3,-1.545500010E-1,-2.648249865E-1
3.868205553E0,-5.898749828E-2,-1.812250018E-1,-1.241625026E-1
3.870742824E0,-5.898749828E-2,-1.812250018E-1,-1.241625026E-1
3.873280665E0,-5.898749828E-2,-1.812250018E-1,-1.241625026E-1
3.875818512E0,-5.898749828E-2,-1.812250018E-1,-1.241625026E-1
3.878356357E0,-5.898749828E-2,-1.812250018E-1,-1.241625026E-1
3.880894204E0,-5.898749828E-2,-1.812250018E-1,-1.241625026E-1
3.883431741E0,-5.898749828E-2,-1.812250018E-1,-1.241625026E-1
3.885969280E0,-5.898749828E-2,-1.812250018E-1,-1.241625026E-1
3.888507281E0,-5.018749833E-2,-1.626625061E-1,-7.686249912E-2
3.891045280E0,-5.018749833E-2,-1.626625061E-1,-7.686249912E-2
3.893582365E0,-5.018749833E-2,-1.626625061E-1,-7.686249912E-2
3.896119444E0,-5.018749833E-2,-1.626625061E-1,-7.686249912E-2
3.898657444E0,-5.018749833E-2,-1.626625061E-1,-7.686249912E-2
3.901195443E0,-5.018749833E-2,-1.626625061E-1,-7.686249912E-2
3.903732967E0,-5.018749833E-2,-1.626625061E-1,-7.686249912E-2
3.906270468E0,-5.018749833E-2,-1.626625061E-1,-7.686249912E-2
3.908807392E0,-2.254999988E-2,-1.592250019E-1,2.173874974E-1
3.911344315E0,-2.254999988E-2,-1.592250019E-1,2.173874974E-1
3.913881430E0,-2.254999988E-2,-1.592250019E-1,2.173874974E-1
3.916418545E0,-2.254999988E-2,-1.592250019E-1,2.173874974E-1
3.918955622E0,-2.254999988E-2,-1.592250019E-1,2.173874974E-1
3.921492699E0,-2.254999988E-2,-1.592250019E-1,2.173874974E-1
3.924029939E0,-2.254999988E-2,-1.592250019E-1,2.173874974E-1
3.926567170E0,-2.254999988E-2,-1.592250019E-1,2.173874974E-1
3.929104207E0,1.167374998E-1,-8.538749814E-2,5.491750240E-1
3.931641246E0,1.167374998E-1,-8.538749814E-2,5.491750240E-1
3.934178613E0,1.167374998E-1,-8.538749814E-2,5.491750240E-1
3.936715996E0,1.167374998E-1,-8.538749814E-2,5.491750240E-1
3.939253573E0,1.167374998E-1,-8.538749814E-2,5.491750240E-1
3.941791150E0,1.167374998E-1,-8.538749814E-2,5.491750240E-1
3.944329323E0,1.097249985E-1,-5.912499875E-2,6.660500169E-1
3.946867478E0,1.097249985E-1,-5.912499875E-2,6.660500169E-1
3.949405284E0,1.097249985E-1,-5.912499875E-2,6.660500169E-1
3.951943093E0,1.097249985E-1,-5.912499875E-2,6.660500169E-1
3.954481901E0,1.097249985E-1,-5.912499875E-2,6.660500169E-1
3.957020708E0,1.097249985E-1,-5.912499875E-2,6.660500169E-1
3.959556398E0,1.097249985E-1,-5.912499875E-2,6.660500169E-1
3.962092093E0,1.097249985E-1,-5.912499875E-2,6.660500169E-1
3.964629454E0,1.050499976E-1,-2.777500078E-2,6.470749974E-1
3.967166837E0,1.050499976E-1,-2.777500078E-2,6.470749974E-1
3.969704491E0,1.050499976E-1,-2.777500078E-2,6.470749974E-1
3.972242146E0,1.050499976E-1,-2.777500078E-2,6.470749974E-1
3.974779414E0,1.050499976E-1,-2.777500078E-2,6.470749974E-1
3.977316685E0,1.050499976E-1,-2.777500078E-2,6.470749974E-1
3.979853915E0,1.050499976E-1,-2.777500078E-2,6.470749974E-1
3.982391146E0,1.050499976E-1,-2.777500078E-2,6.470749974E-1
3.984928169E0,7.287500054E-2,-1.429999992E-2,6.162750125E-1
3.987465246E0,7.287500054E-2,-1.429999992E-2,6.162750125E-1
3.990002747E0,7.287500054E-2,-1.429999992E-2,6.162750125E-1
3.992540246E0,7.287500054E-2,-1.429999992E-2,6.162750125E-1
3.995077938E0,7.287500054E-2,-1.429999992E-2,6.162750125E-1
3.997615631E0,7.287500054E-2,-1.429999992E-2,6.162750125E-1
4.000153323E0,7.287500054E-2,-1.429999992E-2,6.162750125E-1
4.002691016E0,7.287500054E-2,-1.429999992E-2,6.162750125E-1
4.005228747E0,7.603749633E-2,1.402499992E-2,5.079249740E-1
4.007766478E0,7.603749633E-2,1.402499992E-2,5.079249740E-1
4.010303500E0,7.603749633E-2,1.402499992E-2,5.079249740E-1
4.012840539E0,7.603749633E-2,1.402499992E-2,5.079249740E-1
4.015376731E0,7.603749633E-2,1.402499992E-2,5.079249740E-1
4.017912924E0,7.603749633E-2,1.402499992E-2,5.079249740E-1
4.020449973E0,7.603749633E-2,1.402499992E-2,5.079249740E-1
4.022987050E0,7.603749633E-2,1.402499992E-2,5.079249740E-1
4.025524857E0,6.655000150E-2,2.969999984E-2,4.529249966E-1
4.028062666E0,6.655000150E-2,2.969999984E-2,4.529249966E-1
4.030600237E0,6.655000150E-2,2.969999984E-2,4.529249966E-1
4.033137814E0,6.655000150E-2,2.969999984E-2,4.529249966E-1
4.035675468E0,6.655000150E-2,2.969999984E-2,4.529249966E-1
4.038213121E0,6.655000150E-2,2.969999984E-2,4.529249966E-1
4.040750352E0,6.655000150E-2,2.969999984E-2,4.529249966E-1
4.043287583E0,6.655000150E-2,2.969999984E-2,4.529249966E-1
4.045824699E0,9.363749623E-2,5.829999968E-2,3.894000053E-1
4.048361814E0,9.363749623E-2,5.829999968E-2,3.894000053E-1
4.050900425E0,9.363749623E-2,5.829999968E-2,3.894000053E-1
4.053439040E0,9.363749623E-2,5.829999968E-2,3.894000053E-1
4.055977000E0,9.363749623E-2,5.829999968E-2,3.894000053E-1
4.058514963E0,9.363749623E-2,5.829999968E-2,3.894000053E-1
4.061053319E0,9.363749623E-2,5.829999968E-2,3.894000053E-1
4.063591664E0,9.363749623E-2,5.829999968E-2,3.894000053E-1
4.066129163E0,1.267749965E-1,9.350000322E-2,2.770625055E-1
4.068666664E0,1.267749965E-1,9.350000322E-2,2.770625055E-1
4.071204376E0,1.267749965E-1,9.350000322E-2,2.770625055E-1
4.073742107E0,1.267749965E-1,9.350000322E-2,2.770625055E-1
4.076279606E0,1.267749965E-1,9.350000322E-2,2.770625055E-1
4.078817107E0,1.267749965E-1,9.350000322E-2,2.770625055E-1
4.081355112E0,1.267749965E-1,9.350000322E-2,2.770625055E-1
4.083893111E0,1.267749965E-1,9.350000322E-2,2.770625055E-1
4.086430957E0,6.517499685E-2,9.652499855E-2,-1.773750037E-2
4.088968804E0,6.517499685E-2,9.652499855E-2,-1.773750037E-2
4.091507410E0,6.517499685E-2,9.652499855E-2,-1.773750037E-2
4.094046025E0,6.517499685E-2,9.652499855E-2,-1.773750037E-2
4.096584062E0,6.517499685E-2,9.652499855E-2,-1.773750037E-2
4.099122101E0,6.517499685E-2,9.652499855E-2,-1.773750037E-2
4.101660890E0,6.517499685E-2,9.652499855E-2,-1.773750037E-2
4.104199659E0,6.517499685E-2,9.652499855E-2,-1.773750037E-2
4.106737620E0,1.032624990E-1,1.392875016E-1,-3.258749843E-2
4.109275583E0,1.032624990E-1,1.392875016E-1,-3.258749843E-2
4.111814012E0,1.032624990E-1,1.392875016E-1,-3.258749843E-2
4.114352473E0,1.032624990E-1,1.392875016E-1,-3.258749843E-2
4.116890664E0,1.032624990E-1,1.392875016E-1,-3.258749843E-2
4.119428857E0,1.032624990E-1,1.392875016E-1,-3.258749843E-2
4.121966637E0,1.032624990E-1,1.392875016E-1,-3.258749843E-2
4.124504444E0,1.032624990E-1,1.392875016E-1,-3.258749843E-2
4.127041714E0,1.090374961E-1,1.699499935E-1,-2.447500080E-2
4.129578983E0,1.090374961E-1,1.699499935E-1,-2.447500080E-2
4.132116228E0,1.090374961E-1,1.699499935E-1,-2.447500080E-2
4.134653459E0,1.090374961E-1,1.699499935E-1,-2.447500080E-2
4.137190690E0,1.090374961E-1,1.699499935E-1,-2.447500080E-2
4.139727921E0,1.090374961E-1,1.699499935E-1,-2.447500080E-2
4.142264991E0,1.090374961E-1,1.699499935E-1,-2.447500080E-2
4.144802070E0,1.090374961E-1,1.699499935E-1,-2.447500080E-2
4.147339724E0,1.398375034E-1,2.136749923E-1,-1.636249945E-2
4.149877377E0,1.398375034E-1,2.136749923E-1,-1.636249945E-2
4.152415876E0,1.398375034E-1,2.136749923E-1,-1.636249945E-2
4.154954337E0,1.398375034E-1,2.136749923E-1,-1.636249945E-2
4.157492683E0,1.398375034E-1,2.136749923E-1,-1.636249945E-2
4.160031030E0,1.398375034E-1,2.136749923E-1,-1.636249945E-2
4.162569190E0,1.398375034E-1,2.136749923E-1,-1.636249945E-2
4.165107343E0,1.398375034E-1,2.136749923E-1,-1.636249945E-2
4.167644690E0,1.718750000E-1,2.545124888E-1,1.746249944E-2
4.170182037E0,1.718750000E-1,2.545124888E-1,1.746249944E-2
4.172719743E0,1.718750000E-1,2.545124888E-1,1.746249944E-2
4.175257434E0,1.718750000E-1,2.545124888E-1,1.746249944E-2
4.177795588E0,1.718750000E-1,2.545124888E-1,1.746249944E-2
4.180333743E0,1.718750000E-1,2.545124888E-1,1.746249944E-2
4.182871010E0,1.718750000E-1,2.545124888E-1,1.746249944E-2
4.185408281E0,1.718750000E-1,2.545124888E-1,1.746249944E-2
4.187945819E0,3.104749918E-1,3.366000056E-1,2.571249902E-1
4.190483358E0,3.104749918E-1,3.366000056E-1,2.571249902E-1
4.193021304E0,3.104749918E-1,3.366000056E-1,2.571249902E-1
4.195559267E0,3.104749918E-1,3.366000056E-1,2.571249902E-1
4.198097728E0,3.104749918E-1,3.366000056E-1,2.571249902E-1
4.200636191E0,3.104749918E-1,3.366000056E-1,2.571249902E-1
4.203174035E0,3.104749918E-1,3.366000056E-1,2.571249902E-1
4.205711882E0,3.104749918E-1,3.366000056E-1,2.571249902E-1
4.208250229E0,4.020499885E-1,3.961375058E-1,4.056249857E-1
4.210788574E0,4.020499885E-1,3.961375058E-1,4.056249857E-1
4.213325823E0,4.020499885E-1,3.961375058E-1,4.056249857E-1
4.215863056E0,4.020499885E-1,3.961375058E-1,4.056249857E-1
4.218400748E0,4.020499885E-1,3.961375058E-1,4.056249857E-1
4.220938439E0,4.020499885E-1,3.961375058E-1,4.056249857E-1
4.223476415E0,4.020499885E-1,3.961375058E-1,4.056249857E-1
4.226014416E0,4.020499885E-1,3.961375058E-1,4.056249857E-1
4.228551953E0,3.671250045E-1,3.961375058E-1,4.721750021E-1
4.231089492E0,3.671250045E-1,3.961375058E-1,4.721750021E-1
4.233627324E0,3.671250045E-1,3.961375058E-1,4.721750021E-1
4.236165171E0,3.671250045E-1,3.961375058E-1,4.721750021E-1
4.238703324E0,3.671250045E-1,3.961375058E-1,4.721750021E-1
4.241241477E0,3.671250045E-1,3.961375058E-1,4.721750021E-1
4.243778861E0,3.671250045E-1,3.961375058E-1,4.721750021E-1
4.246316248E0,3.671250045E-1,3.961375058E-1,4.721750021E-1
4.248854402E0,3.397625089E-1,3.951750100E-1,4.710749984E-1
4.251392555E0,3.397625089E-1,3.951750100E-1,4.710749984E-1
4.253930251E0,3.397625089E-1,3.951750100E-1,4.710749984E-1
4.256467944E0,3.397625089E-1,3.951750100E-1,4.710749984E-1
4.259005599E0,3.397625089E-1,3.951750100E-1,4.710749984E-1
4.261543252E0,3.397625089E-1,3.951750100E-1,4.710749984E-1
4.264080349E0,3.397625089E-1,3.951750100E-1,4.710749984E-1
4.266617464E0,3.397625089E-1,3.951750100E-1,4.710749984E-1
4.269155118E0,3.132250011E-1,3.957250118E-1,4.838624895E-1
4.271692771E0,3.132250011E-1,3.957250118E-1,4.838624895E-1
4.274230785E0,3.132250011E-1,3.957250118E-1,4.838624895E-1
4.276768786E0,3.132250011E-1,3.957250118E-1,4.838624895E-1
4.279306978E0,3.132250011E-1,3.957250118E-1,4.838624895E-1
4.281845171E0,3.132250011E-1,3.957250118E-1,4.838624895E-1
4.284383651E0,2.755500078E-1,3.909125030E-1,4.743750095E-1
4.286922114E0,2.755500078E-1,3.909125030E-1,4.743750095E-1
4.289460228E0,2.755500078E-1,3.909125030E-1,4.743750095E-1
4.291998345E0,2.755500078E-1,3.909125030E-1,4.743750095E-1
4.294536806E0,2.755500078E-1,3.909125030E-1,4.743750095E-1
4.297075267E0,2.755500078E-1,3.909125030E-1,4.743750095E-1
4.299613420E0,2.755500078E-1,3.909125030E-1,4.743750095E-1
4.302151575E0,2.755500078E-1,3.909125030E-1,4.743750095E-1
4.304690079E0,2.580874860E-1,3.888500035E-1,4.269374907E-1
4.307228578E0,2.580874860E-1,3.888500035E-1,4.269374907E-1
4.309766693E0,2.580874860E-1,3.888500035E-1,4.269374907E-1
4.312304810E0,2.580874860E-1,3.888500035E-1,4.269374907E-1
4.314842386E0,2.580874860E-1,3.888500035E-1,4.269374907E-1
4.317379963E0,2.580874860E-1,3.888500035E-1,4.269374907E-1
4.319918080E0,2.580874860E-1,3.888500035E-1,4.269374907E-1
4.322456195E0,2.580874860E-1,3.888500035E-1,4.269374907E-1
4.324994044E0,2.360875010E-1,3.790875077E-1,3.361875117E-1
4.327531891E0,2.360875010E-1,3.790875077E-1,3.361875117E-1
4.330070392E0,2.360875010E-1,3.790875077E-1,3.361875117E-1
4.332608891E0,2.360875010E-1,3.790875077E-1,3.361875117E-1
4.335148276E0,2.360875010E-1,3.790875077E-1,3.361875117E-1
4.337687661E0,2.360875010E-1,3.790875077E-1,3.361875117E-1
4.340226121E0,2.360875010E-1,3.790875077E-1,3.361875117E-1
4.342764584E0,2.360875010E-1,3.790875077E-1,3.361875117E-1
4.345303513E0,4.186874926E-1,4.059000015E-1,-2.341624945E-1
4.347842436E0,4.186874926E-1,4.059000015E-1,-2.341624945E-1
4.350380703E0,4.186874926E-1,4.059000015E-1,-2.341624945E-1
4.352918974E0,4.186874926E-1,4.059000015E-1,-2.341624945E-1
4.355457488E0,4.186874926E-1,4.059000015E-1,-2.341624945E-1
4.357995987E0,4.186874926E-1,4.059000015E-1,-2.341624945E-1
4.360533833E0,4.186874926E-1,4.059000015E-1,-2.341624945E-1
4.363071680E0,4.186874926E-1,4.059000015E-1,-2.341624945E-1
4.365609334E0,4.512749910E-1,4.116750062E-1,-3.251875043E-1
4.368146987E0,4.512749910E-1,4.116750062E-1,-3.251875043E-1
4.370684834E0,4.512749910E-1,4.116750062E-1,-3.251875043E-1
4.373222681E0,4.512749910E-1,4.116750062E-1,-3.251875043E-1
4.375760862E0,4.512749910E-1,4.116750062E-1,-3.251875043E-1
4.378299055E0,4.512749910E-1,4.116750062E-1,-3.251875043E-1
4.380836862E0,4.512749910E-1,4.116750062E-1,-3.251875043E-1
4.383374671E0,4.512749910E-1,4.116750062E-1,-3.251875043E-1
4.385912252E0,3.973749876E-1,4.002625048E-1,-2.098249942E-1
4.388449829E0,3.973749876E-1,4.002625048E-1,-2.098249942E-1
4.390987329E0,3.973749876E-1,4.002625048E-1,-2.098249942E-1
4.393524828E0,3.973749876E-1,4.002625048E-1,-2.098249942E-1
4.396062526E0,3.973749876E-1,4.002625048E-1,-2.098249942E-1
4.398600219E0,3.973749876E-1,4.002625048E-1,-2.098249942E-1
4.401138718E0,3.973749876E-1,4.002625048E-1,-2.098249942E-1
4.403677219E0,3.973749876E-1,4.002625048E-1,-2.098249942E-1
4.406215828E0,2.100999951E-1,3.341250122E-1,-1.570249945E-1
4.408754445E0,2.100999951E-1,3.341250122E-1,-1.570249945E-1
4.411292097E0,2.100999951E-1,3.341250122E-1,-1.570249945E-1
4.413829752E0,2.100999951E-1,3.341250122E-1,-1.570249945E-1
4.416367440E0,2.100999951E-1,3.341250122E-1,-1.570249945E-1
4.418905131E0,2.100999951E-1,3.341250122E-1,-1.570249945E-1
4.421442977E0,2.100999951E-1,3.341250122E-1,-1.570249945E-1
4.423980824E0,2.100999951E-1,3.341250122E-1,-1.570249945E-1
4.426517914E0,1.663749963E-1,3.176249862E-1,-1.317249984E-1
4.429054993E0,1.663749963E-1,3.176249862E-1,-1.317249984E-1
4.431592532E0,1.663749963E-1,3.176249862E-1,-1.317249984E-1
4.434130069E0,1.663749963E-1,3.176249862E-1,-1.317249984E-1
4.436668381E0,1.663749963E-1,3.176249862E-1,-1.317249984E-1
4.439206690E0,1.663749963E-1,3.176249862E-1,-1.317249984E-1
4.441744573E0,1.663749963E-1,3.176249862E-1,-1.317249984E-1
4.444282458E0,1.663749963E-1,3.176249862E-1,-1.317249984E-1
4.446820455E0,1.428624988E-1,3.059374988E-1,-1.164624989E-1
4.449358454E0,1.428624988E-1,3.059374988E-1,-1.164624989E-1
4.451896761E0,1.428624988E-1,3.059374988E-1,-1.164624989E-1
4.454435070E0,1.428624988E-1,3.059374988E-1,-1.164624989E-1
4.456973506E0,1.428624988E-1,3.059374988E-1,-1.164624989E-1
4.459511931E0,1.428624988E-1,3.059374988E-1,-1.164624989E-1
4.462050276E0,1.428624988E-1,3.059374988E-1,-1.164624989E-1
4.464588623E0,1.428624988E-1,3.059374988E-1,-1.164624989E-1
4.467126738E0,1.152250022E-1,2.917749882E-1,-1.027124971E-1
4.469664853E0,1.152250022E-1,2.917749882E-1,-1.027124971E-1
4.472201978E0,1.152250022E-1,2.917749882E-1,-1.027124971E-1
4.474739093E0,1.152250022E-1,2.917749882E-1,-1.027124971E-1
4.477277364E0,1.152250022E-1,2.917749882E-1,-1.027124971E-1
4.479815633E0,1.152250022E-1,2.917749882E-1,-1.027124971E-1
4.482353347E0,1.152250022E-1,2.917749882E-1,-1.027124971E-1
4.484891078E0,1.152250022E-1,2.917749882E-1,-1.027124971E-1
4.487429387E0,1.111000031E-1,2.846249938E-1,-6.737499684E-2
4.489967694E0,1.111000031E-1,2.846249938E-1,-6.737499684E-2
4.492505958E0,1.111000031E-1,2.846249938E-1,-6.737499684E-2
4.495044227E0,1.111000031E-1,2.846249938E-1,-6.737499684E-2
4.497582113E0,1.111000031E-1,2.846249938E-1,-6.737499684E-2
4.500119998E0,1.111000031E-1,2.846249938E-1,-6.737499684E-2
4.502657483E0,1.111000031E-1,2.846249938E-1,-6.737499684E-2
4.505194984E0,1.111000031E-1,2.846249938E-1,-6.737499684E-2
4.507732060E0,-6.118749827E-2,2.587749958E-1,3.709749877E-1
4.510269137E0,-6.118749827E-2,2.587749958E-1,3.709749877E-1
4.512806108E0,-6.118749827E-2,2.587749958E-1,3.709749877E-1
4.515343069E0,-6.118749827E-2,2.587749958E-1,3.709749877E-1
4.517880416E0,-6.118749827E-2,2.587749958E-1,3.709749877E-1
4.520417763E0,-6.118749827E-2,2.587749958E-1,3.709749877E-1
4.522955501E0,-6.118749827E-2,2.587749958E-1,3.709749877E-1
4.525493232E0,-6.118749827E-2,2.587749958E-1,3.709749877E-1
4.528031039E0,-1.032624990E-1,2.224749923E-1,3.148750067E-1
4.530568848E0,-1.032624990E-1,2.224749923E-1,3.148750067E-1
4.533107151E0,-1.032624990E-1,2.224749923E-1,3.148750067E-1
4.535645458E0,-1.032624990E-1,2.224749923E-1,3.148750067E-1
4.538183496E0,-1.032624990E-1,2.224749923E-1,3.148750067E-1
4.540721535E0,-1.032624990E-1,2.224749923E-1,3.148750067E-1
4.543260571E0,-1.032624990E-1,2.224749923E-1,3.148750067E-1
4.545799608E0,-1.032624990E-1,2.224749923E-1,3.148750067E-1
4.548338069E0,-5.266249925E-2,1.805374920E-1,-7.507500052E-2
4.550876532E0,-5.266249925E-2,1.805374920E-1,-7.507500052E-2
4.553414108E0,-5.266249925E-2,1.805374920E-1,-7.507500052E-2
4.555951685E0,-5.266249925E-2,1.805374920E-1,-7.507500052E-2
4.558489955E0,-5.266249925E-2,1.805374920E-1,-7.507500052E-2
4.561028224E0,-5.266249925E-2,1.805374920E-1,-7.507500052E-2
4.563566531E0,-5.266249925E-2,1.805374920E-1,-7.507500052E-2
4.566104840E0,-5.266249925E-2,1.805374920E-1,-7.507500052E-2
4.568642577E0,2.091374993E-1,2.689499855E-1,-1.163249984E-1
4.571180308E0,2.091374993E-1,2.689499855E-1,-1.163249984E-1
4.573717963E0,2.091374993E-1,2.689499855E-1,-1.163249984E-1
4.576255616E0,2.091374993E-1,2.689499855E-1,-1.163249984E-1
4.578793040E0,2.091374993E-1,2.689499855E-1,-1.163249984E-1
4.581330463E0,2.091374993E-1,2.689499855E-1,-1.163249984E-1
4.583868271E0,2.091374993E-1,2.689499855E-1,-1.163249984E-1
4.586406078E0,2.091374993E-1,2.689499855E-1,-1.163249984E-1
4.588943818E0,1.794375032E-1,2.479124963E-1,-1.203124970E-1
4.591481549E0,1.794375032E-1,2.479124963E-1,-1.203124970E-1
4.594019204E0,1.794375032E-1,2.479124963E-1,-1.203124970E-1
4.596556857E0,1.794375032E-1,2.479124963E-1,-1.203124970E-1
4.599094410E0,1.794375032E-1,2.479124963E-1,-1.203124970E-1
4.601631949E0,1.794375032E-1,2.479124963E-1,-1.203124970E-1
4.604169988E0,1.563374996E-1,2.330625057E-1,-1.121999994E-1
4.606708025E0,1.563374996E-1,2.330625057E-1,-1.121999994E-1
4.609245870E0,1.563374996E-1,2.330625057E-1,-1.121999994E-1
4.611783717E0,1.563374996E-1,2.330625057E-1,-1.121999994E-1
4.614321564E0,1.563374996E-1,2.330625057E-1,-1.121999994E-1
4.616859409E0,1.563374996E-1,2.330625057E-1,-1.121999994E-1
4.619396934E0,1.563374996E-1,2.330625057E-1,-1.121999994E-1
4.621934473E0,1.563374996E-1,2.330625057E-1,-1.121999994E-1
4.624473243E0,1.318625063E-1,2.194499969E-1,-1.102750003E-1
4.627012012E0,1.318625063E-1,2.194499969E-1,-1.102750003E-1
4.629550630E0,1.318625063E-1,2.194499969E-1,-1.102750003E-1
4.632089247E0,1.318625063E-1,2.194499969E-1,-1.102750003E-1
4.634628170E0,1.318625063E-1,2.194499969E-1,-1.102750003E-1
4.637167093E0,1.318625063E-1,2.194499969E-1,-1.102750003E-1
4.639705539E0,1.318625063E-1,2.194499969E-1,-1.102750003E-1
4.642244002E0,1.318625063E-1,2.194499969E-1,-1.102750003E-1
4.644782771E0,1.049124971E-1,2.069374919E-1,-1.236125007E-1
4.647321540E0,1.049124971E-1,2.069374919E-1,-1.236125007E-1
4.649860129E0,1.049124971E-1,2.069374919E-1,-1.236125007E-1
4.652398708E0,1.049124971E-1,2.069374919E-1,-1.236125007E-1
4.654936439E0,1.049124971E-1,2.069374919E-1,-1.236125007E-1
4.657474170E0,1.049124971E-1,2.069374919E-1,-1.236125007E-1
4.660012637E0,1.049124971E-1,2.069374919E-1,-1.236125007E-1
4.662551098E0,1.049124971E-1,2.069374919E-1,-1.236125007E-1
4.665088944E0,8.332499862E-2,1.941500008E-1,-1.528999954E-1
4.667626791E0,8.332499862E-2,1.941500008E-1,-1.528999954E-1
4.670165075E0,8.332499862E-2,1.941500008E-1,-1.528999954E-1
4.672703344E0,8.332499862E-2,1.941500008E-1,-1.528999954E-1
4.675240920E0,8.332499862E-2,1.941500008E-1,-1.528999954E-1
4.677778497E0,8.332499862E-2,1.941500008E-1,-1.528999954E-1
4.680316310E0,8.332499862E-2,1.941500008E-1,-1.528999954E-1
4.682854117E0,8.332499862E-2,1.941500008E-1,-1.528999954E-1
4.685391693E0,7.273750007E-2,1.891999990E-1,-1.843875051E-1
4.687929272E0,7.273750007E-2,1.891999990E-1,-1.843875051E-1
4.690466955E0,7.273750007E-2,1.891999990E-1,-1.843875051E-1
4.693004646E0,7.273750007E-2,1.891999990E-1,-1.843875051E-1
4.695543223E0,7.273750007E-2,1.891999990E-1,-1.843875051E-1
4.698081800E0,7.273750007E-2,1.891999990E-1,-1.843875051E-1
4.700619688E0,7.273750007E-2,1.891999990E-1,-1.843875051E-1
4.703157573E0,7.273750007E-2,1.891999990E-1,-1.843875051E-1
4.705695536E0,5.541250110E-2,1.911250055E-1,-1.722874939E-1
4.708233497E0,5.541250110E-2,1.911250055E-1,-1.722874939E-1
4.710772305E0,5.541250110E-2,1.911250055E-1,-1.722874939E-1
4.713311112E0,5.541250110E-2,1.911250055E-1,-1.722874939E-1
4.715850612E0,5.541250110E-2,1.911250055E-1,-1.722874939E-1
4.718390113E0,5.541250110E-2,1.911250055E-1,-1.722874939E-1
4.720928733E0,5.541250110E-2,1.911250055E-1,-1.722874939E-1
4.723467388E0,5.541250110E-2,1.911250055E-1,-1.722874939E-1
4.726006157E0,5.169999972E-2,2.036374956E-1,-1.325500011E-1
4.728544926E0,5.169999972E-2,2.036374956E-1,-1.325500011E-1
4.731083347E0,5.169999972E-2,2.036374956E-1,-1.325500011E-1
4.733621772E0,5.169999972E-2,2.036374956E-1,-1.325500011E-1
4.736160080E0,5.169999972E-2,2.036374956E-1,-1.325500011E-1
4.738698387E0,5.169999972E-2,2.036374956E-1,-1.325500011E-1
4.741236540E0,5.169999972E-2,2.036374956E-1,-1.325500011E-1
4.743774693E0,5.169999972E-2,2.036374956E-1,-1.325500011E-1
4.746313618E0,5.169999972E-2,2.182125002E-1,-8.676250279E-2
4.748852541E0,5.169999972E-2,2.182125002E-1,-8.676250279E-2
4.751390424E0,5.169999972E-2,2.182125002E-1,-8.676250279E-2
4.753928309E0,5.169999972E-2,2.182125002E-1,-8.676250279E-2
4.756465501E0,5.169999972E-2,2.182125002E-1,-8.676250279E-2
4.759002694E0,5.169999972E-2,2.182125002E-1,-8.676250279E-2
4.761539449E0,5.169999972E-2,2.182125002E-1,-8.676250279E-2
4.764076218E0,5.169999972E-2,2.182125002E-1,-8.676250279E-2
4.766613488E0,1.138499975E-1,2.657875121E-1,4.083750024E-2
4.769150757E0,1.138499975E-1,2.657875121E-1,4.083750024E-2
4.771689977E0,1.138499975E-1,2.657875121E-1,4.083750024E-2
4.774229208E0,1.138499975E-1,2.657875121E-1,4.083750024E-2
4.776767669E0,1.138499975E-1,2.657875121E-1,4.083750024E-2
4.779306132E0,1.138499975E-1,2.657875121E-1,4.083750024E-2
4.781844878E0,1.138499975E-1,2.657875121E-1,4.083750024E-2
4.784383609E0,1.138499975E-1,2.657875121E-1,4.083750024E-2
4.786921953E0,2.249500006E-1,3.359124959E-1,1.989624947E-1
4.789460300E0,2.249500006E-1,3.359124959E-1,1.989624947E-1
4.791998704E0,2.249500006E-1,3.359124959E-1,1.989624947E-1
4.794537127E0,2.249500006E-1,3.359124959E-1,1.989624947E-1
4.797075010E0,2.249500006E-1,3.359124959E-1,1.989624947E-1
4.799612895E0,2.249500006E-1,3.359124959E-1,1.989624947E-1
4.802151473E0,2.249500006E-1,3.359124959E-1,1.989624947E-1
4.804690050E0,2.249500006E-1,3.359124959E-1,1.989624947E-1
4.807228241E0,2.769249976E-1,3.737249970E-1,3.062124848E-1
4.809766434E0,2.769249976E-1,3.737249970E-1,3.062124848E-1
4.812305204E0,2.769249976E-1,3.737249970E-1,3.062124848E-1
4.814843973E0,2.769249976E-1,3.737249970E-1,3.062124848E-1
4.817382126E0,2.769249976E-1,3.737249970E-1,3.062124848E-1
4.819920281E0,2.769249976E-1,3.737249970E-1,3.062124848E-1
4.822458277E0,2.769249976E-1,3.737249970E-1,3.062124848E-1
4.824996276E0,2.769249976E-1,3.737249970E-1,3.062124848E-1
4.827534238E0,2.590500116E-1,3.700124919E-1,3.355000019E-1
4.830072199E0,2.590500116E-1,3.700124919E-1,3.355000019E-1
4.832610238E0,2.590500116E-1,3.700124919E-1,3.355000019E-1
4.835148277E0,2.590500116E-1,3.700124919E-1,3.355000019E-1
4.837686545E0,2.590500116E-1,3.700124919E-1,3.355000019E-1
4.840224814E0,2.590500116E-1,3.700124919E-1,3.355000019E-1
4.842763309E0,2.590500116E-1,3.700124919E-1,3.355000019E-1
4.845301810E0,2.590500116E-1,3.700124919E-1,3.355000019E-1
4.847840271E0,2.403499931E-1,3.680875003E-1,3.894000053E-1
4.850378734E0,2.403499931E-1,3.680875003E-1,3.894000053E-1
4.852916685E0,2.403499931E-1,3.680875003E-1,3.894000053E-1
4.855454646E0,2.403499931E-1,3.680875003E-1,3.894000053E-1
4.857992993E0,2.403499931E-1,3.680875003E-1,3.894000053E-1
4.860531338E0,2.403499931E-1,3.680875003E-1,3.894000053E-1
4.863069915E0,2.403499931E-1,3.680875003E-1,3.894000053E-1
4.865608492E0,2.403499931E-1,3.680875003E-1,3.894000053E-1
4.868146492E0,1.885125041E-1,3.394874930E-1,3.727625012E-1
4.870684493E0,1.885125041E-1,3.394874930E-1,3.727625012E-1
4.873223123E0,1.885125041E-1,3.394874930E-1,3.727625012E-1
4.875761738E0,1.885125041E-1,3.394874930E-1,3.727625012E-1
4.878300199E0,1.885125041E-1,3.394874930E-1,3.727625012E-1
4.880838662E0,1.885125041E-1,3.394874930E-1,3.727625012E-1
4.883377002E0,1.885125041E-1,3.394874930E-1,3.727625012E-1
4.885915309E0,1.885125041E-1,3.394874930E-1,3.727625012E-1
4.888453618E0,1.603250057E-1,3.102000058E-1,3.334375024E-1
4.890991925E0,1.603250057E-1,3.102000058E-1,3.334375024E-1
4.893530425E0,1.603250057E-1,3.102000058E-1,3.334375024E-1
4.896068926E0,1.603250057E-1,3.102000058E-1,3.334375024E-1
4.898607040E0,1.603250057E-1,3.102000058E-1,3.334375024E-1
4.901145155E0,1.603250057E-1,3.102000058E-1,3.334375024E-1
4.903683771E0,1.603250057E-1,3.102000058E-1,3.334375024E-1
4.906222386E0,1.603250057E-1,3.102000058E-1,3.334375024E-1
4.908760424E0,1.197625026E-1,2.674374878E-1,2.554749846E-1
4.911298463E0,1.197625026E-1,2.674374878E-1,2.554749846E-1
4.913836901E0,1.197625026E-1,2.674374878E-1,2.554749846E-1
4.916375324E0,1.197625026E-1,2.674374878E-1,2.554749846E-1
4.918914439E0,1.197625026E-1,2.674374878E-1,2.554749846E-1
4.921453554E0,1.197625026E-1,2.674374878E-1,2.554749846E-1
4.923992029E0,1.197625026E-1,2.674374878E-1,2.554749846E-1
4.926530492E0,1.197625026E-1,2.674374878E-1,2.554749846E-1
4.929068492E0,8.992499858E-2,2.340250015E-1,2.007499933E-1
4.931606491E0,8.992499858E-2,2.340250015E-1,2.007499933E-1
4.934144651E0,8.992499858E-2,2.340250015E-1,2.007499933E-1
4.936682804E0,8.992499858E-2,2.340250015E-1,2.007499933E-1
4.939222766E0,8.992499858E-2,2.340250015E-1,2.007499933E-1
4.941762727E0,8.992499858E-2,2.340250015E-1,2.007499933E-1
4.944301226E0,6.256250292E-2,2.056999952E-1,1.709125042E-1
4.946839727E0,6.256250292E-2,2.056999952E-1,1.709125042E-1
4.949377997E0,6.256250292E-2,2.056999952E-1,1.709125042E-1
4.951916266E0,6.256250292E-2,2.056999952E-1,1.709125042E-1
4.954454881E0,6.256250292E-2,2.056999952E-1,1.709125042E-1
4.956993496E0,6.256250292E-2,2.056999952E-1,1.709125042E-1
4.959531015E0,6.256250292E-2,2.056999952E-1,1.709125042E-1
4.962068554E0,6.256250292E-2,2.056999952E-1,1.709125042E-1
4.964607209E0,3.038750030E-2,1.776500046E-1,1.570249945E-1
4.967145862E0,3.038750030E-2,1.776500046E-1,1.570249945E-1
4.969683669E0,3.038750030E-2,1.776500046E-1,1.570249945E-1
4.972221478E0,3.038750030E-2,1.776500046E-1,1.570249945E-1
4.974759670E0,3.038750030E-2,1.776500046E-1,1.570249945E-1
4.977297863E0,3.038750030E-2,1.776500046E-1,1.570249945E-1
4.979836323E0,3.038750030E-2,1.776500046E-1,1.570249945E-1
4.982374786E0,3.038750030E-2,1.776500046E-1,1.570249945E-1
4.984913246E0,-1.099999994E-3,1.530375034E-1,1.575749964E-1
4.987451709E0,-1.099999994E-3,1.530375034E-1,1.575749964E-1
4.989990578E0,-1.099999994E-3,1.530375034E-1,1.575749964E-1
4.992529463E0,-1.099999994E-3,1.530375034E-1,1.575749964E-1
4.995067615E0,-1.099999994E-3,1.530375034E-1,1.575749964E-1
4.997605770E0,-1.099999994E-3,1.530375034E-1,1.575749964E-1
5.000143973E0,-1.099999994E-3,1.530375034E-1,1.575749964E-1
5.002682166E0,-1.099999994E-3,1.530375034E-1,1.575749964E-1
5.005220434E0,-1.043625027E-1,1.623875052E-1,3.993000090E-1
5.007758703E0,-1.043625027E-1,1.623875052E-1,3.993000090E-1
5.010296557E0,-1.043625027E-1,1.623875052E-1,3.993000090E-1
5.012834404E0,-1.043625027E-1,1.623875052E-1,3.993000090E-1
5.015372290E0,-1.043625027E-1,1.623875052E-1,3.993000090E-1
5.017910175E0,-1.043625027E-1,1.623875052E-1,3.993000090E-1
5.020448612E0,-1.043625027E-1,1.623875052E-1,3.993000090E-1
5.022987035E0,-1.043625027E-1,1.623875052E-1,3.993000090E-1
5.025525227E0,3.904999793E-2,2.481874973E-1,5.853375196E-1
5.028063420E0,3.904999793E-2,2.481874973E-1,5.853375196E-1
5.030601828E0,3.904999793E-2,2.481874973E-1,5.853375196E-1
5.033140251E0,3.904999793E-2,2.481874973E-1,5.853375196E-1
5.035678904E0,3.904999793E-2,2.481874973E-1,5.853375196E-1
5.038217559E0,3.904999793E-2,2.481874973E-1,5.853375196E-1
5.040755365E0,3.904999793E-2,2.481874973E-1,5.853375196E-1
5.043293174E0,3.904999793E-2,2.481874973E-1,5.853375196E-1
5.045831329E0,-7.424999960E-3,2.292124927E-1,6.018375158E-1
5.048369482E0,-7.424999960E-3,2.292124927E-1,6.018375158E-1
5.050907216E0,-7.424999960E-3,2.292124927E-1,6.018375158E-1
5.053444949E0,-7.424999960E-3,2.292124927E-1,6.018375158E-1
5.055983988E0,-7.424999960E-3,2.292124927E-1,6.018375158E-1
5.058523025E0,-7.424999960E-3,2.292124927E-1,6.018375158E-1
5.061061486E0,-7.424999960E-3,2.292124927E-1,6.018375158E-1
5.063599949E0,-7.424999960E-3,2.292124927E-1,6.018375158E-1
5.066138410E0,-2.626249939E-2,2.106499970E-1,5.900124907E-1
5.068676871E0,-2.626249939E-2,2.106499970E-1,5.900124907E-1
5.071215482E0,-2.626249939E-2,2.106499970E-1,5.900124907E-1
5.073754097E0,-2.626249939E-2,2.106499970E-1,5.900124907E-1
5.076292558E0,-2.626249939E-2,2.106499970E-1,5.900124907E-1
5.078831021E0,-2.626249939E-2,2.106499970E-1,5.900124907E-1
5.081369338E0,-2.626249939E-2,2.106499970E-1,5.900124907E-1
5.083907683E0,-2.626249939E-2,2.106499970E-1,5.900124907E-1
5.086446145E0,-3.368749842E-2,1.802625060E-1,5.528874993E-1
5.088984606E0,-3.368749842E-2,1.802625060E-1,5.528874993E-1
