"Time (s)","Gyroscope x (rad/s)","Gyroscope y (rad/s)","Gyroscope z (rad/s)"
2.078791800E-2,-3.291767538E-1,-7.052266002E-1,-3.728539124E-2
2.580250300E-2,-3.313073516E-1,-7.052266002E-1,-4.154657945E-2
3.098245000E-2,-3.163931966E-1,-7.158795595E-1,-4.900366068E-2
3.597193100E-2,-3.089361191E-1,-7.265325189E-1,-5.433014408E-2
4.107620100E-2,-2.876301706E-1,-7.073571682E-1,-5.965662748E-2
4.637135900E-2,-2.450182885E-1,-6.338516474E-1,-8.096256852E-2
5.126453600E-2,-1.917534471E-1,-5.635420680E-1,-1.022685021E-1
5.624745400E-2,-1.438150853E-1,-5.092119575E-1,-1.129214764E-1
6.133464100E-2,-1.097255871E-1,-4.623388648E-1,-1.139867753E-1
6.638073600E-2,-8.841964602E-2,-4.175963998E-1,-1.161173657E-1
7.152000600E-2,-7.457078248E-2,-3.622009456E-1,-1.225091442E-1
7.651334100E-2,-6.285251677E-2,-2.950872481E-1,-1.406191885E-1
8.167636200E-2,-5.539543927E-2,-2.237123549E-1,-1.683169156E-1
8.685558200E-2,-5.433014408E-2,-1.619251370E-1,-2.045370042E-1
9.187735200E-2,-5.646073818E-2,-1.150520667E-1,-2.418224066E-1
9.679339500E-2,-6.072192639E-2,-8.841964602E-2,-2.748466134E-1
1.017875100E-1,-6.285251677E-2,-9.907261282E-2,-2.801730931E-1
1.069402710E-1,-6.817900389E-2,-9.800732136E-2,-2.492794842E-1
1.122827710E-1,-8.522375673E-2,-9.587672353E-2,-2.130593807E-1
1.170506370E-1,-9.587672353E-2,-1.225091442E-1,-1.970799267E-1
1.223394390E-1,-1.097255871E-1,-1.683169156E-1,-1.853616685E-1
1.272360550E-1,-1.374233067E-1,-2.333000302E-1,-1.587292403E-1
1.323923040E-1,-1.747086942E-1,-3.089361191E-1,-1.150520667E-1
1.374282360E-1,-2.130593807E-1,-3.845722079E-1,-5.859133229E-2
1.426559510E-1,-2.354306281E-1,-4.612735808E-1,-8.522375487E-3
1.475354320E-1,-2.439530045E-1,-5.230607986E-1,3.195890784E-2
1.526818370E-1,-2.450182885E-1,-5.550196767E-1,7.350549102E-2
1.576322550E-1,-2.439530045E-1,-5.656726956E-1,1.107908785E-1
1.627292270E-1,-2.471488863E-1,-5.709991455E-1,1.438150853E-1
1.677726210E-1,-2.524753809E-1,-5.646073818E-1,1.661863178E-1
1.729203290E-1,-2.599324584E-1,-5.347790718E-1,1.725780964E-1
1.778524660E-1,-2.652589381E-1,-4.921671748E-1,1.597945392E-1
1.827574130E-1,-2.748466134E-1,-4.389023483E-1,1.331621110E-1
1.879968940E-1,-2.844342887E-1,-3.749845326E-1,1.012032107E-1
1.931764250E-1,-2.801730931E-1,-3.036096394E-1,6.817900389E-2
1.985511660E-1,-2.652589381E-1,-2.247776538E-1,3.089361079E-2
2.033013740E-1,-2.492794842E-1,-1.459456831E-1,7.457078435E-3
2.082949690E-1,-2.524753809E-1,-9.587672353E-2,-4.261187743E-3
2.134623640E-1,-2.801730931E-1,-6.285251677E-2,-8.522375487E-3
2.184371570E-1,-3.238502741E-1,-2.237123623E-2,-3.195890691E-3
2.235668970E-1,-3.675274551E-1,2.024064213E-2,2.130593918E-2
2.285586690E-1,-3.867027760E-1,3.941598535E-2,5.113425106E-2
2.337309080E-1,-3.771151006E-1,2.663242258E-2,6.391781569E-2
2.387313260E-1,-3.600703776E-1,1.491415687E-2,6.711370498E-2
2.439000760E-1,-3.408950269E-1,1.171826664E-2,6.498311460E-2
2.488719520E-1,-3.291767538E-1,4.261187743E-3,6.072192639E-2
2.540199210E-1,-3.153278828E-1,-2.024064213E-2,5.646073818E-2
2.590779950E-1,-2.961525619E-1,-5.113425106E-2,6.604841352E-2
2.641632550E-1,-2.812383771E-1,-7.350549102E-2,9.161553532E-2
2.691577870E-1,-2.748466134E-1,-7.883197069E-2,1.427497864E-1
2.742699230E-1,-2.780424953E-1,-6.817900389E-2,2.109287977E-1
2.793784130E-1,-2.876301706E-1,-6.285251677E-2,2.748466134E-1
2.844483090E-1,-3.004137278E-1,-6.817900389E-2,3.153278828E-1
2.894488830E-1,-3.100014031E-1,-8.948494494E-2,3.366338313E-1
2.945356540E-1,-3.131972849E-1,-1.033338010E-1,3.238502741E-1
2.996227900E-1,-3.206543922E-1,-1.033338010E-1,2.908260524E-1
3.046791960E-1,-3.334379494E-1,-1.001379117E-1,2.482141852E-1
3.096993020E-1,-3.419603109E-1,-8.841964602E-2,2.045370042E-1
3.148346140E-1,-3.504827023E-1,-7.989726961E-2,1.565986425E-1
3.198922200E-1,-3.494173884E-1,-7.244019210E-2,1.139867753E-1
3.249701360E-1,-3.430256248E-1,-5.859133229E-2,8.309315890E-2
3.301323770E-1,-3.281114697E-1,-4.474247247E-2,6.178722158E-2
3.351598770E-1,-3.036096394E-1,-3.728539124E-2,5.326484516E-2
3.401397220E-1,-2.620630562E-1,4.261187743E-3,1.235744432E-1
3.452467520E-1,-1.800351888E-1,1.310315281E-1,3.302420378E-1
3.502783160E-1,-7.137489319E-2,1.001379117E-1,4.410329461E-1
3.554084720E-1,3.515479714E-2,-2.663242258E-2,4.282493591E-1
3.604180050E-1,1.001379117E-1,-7.989726961E-2,3.707233369E-1
3.655664940E-1,1.246397421E-1,-1.139867753E-1,2.972178459E-1
3.706329460E-1,1.246397421E-1,-1.310315281E-1,2.716507316E-1
3.757573280E-1,1.214438528E-1,-1.182479635E-1,2.823036909E-1
3.808325900E-1,9.800732136E-2,-7.776667923E-2,3.068055212E-1
3.864193610E-1,3.941598535E-2,-4.367717355E-2,3.174584806E-1
3.909643100E-1,-8.522375487E-3,-2.024064213E-2,3.142625988E-1
3.960163930E-1,-6.391781382E-3,1.491415687E-2,3.046749234E-1
4.011016550E-1,1.917534508E-2,3.408950195E-2,3.110667169E-1
4.062098310E-1,2.769771963E-2,2.876301669E-2,3.281114697E-1
4.112754060E-1,2.237123623E-2,7.137489319E-2,3.440909088E-1
4.163437390E-1,1.704475097E-2,1.427497864E-1,3.579397798E-1
4.214686360E-1,1.171826664E-2,1.853616685E-1,3.440909088E-1
4.264929060E-1,1.597945392E-2,2.098634988E-1,2.897607684E-1
4.314843660E-1,1.491415687E-2,2.215817571E-1,2.205164731E-1
4.371531680E-1,-1.065296936E-3,2.354306281E-1,1.608598381E-1
4.416772320E-1,-2.343653329E-2,2.396918088E-1,1.278356314E-1
4.467833250E-1,-5.219954997E-2,2.173205763E-1,1.043990999E-1
4.518084310E-1,-5.646073818E-2,1.842963696E-1,7.563608140E-2
4.570929090E-1,-4.474247247E-2,1.534027606E-1,5.326484516E-2
4.619014000E-1,-4.367717355E-2,1.331621110E-1,5.006895587E-2
4.670624940E-1,-5.752603337E-2,1.203785539E-1,5.965662748E-2
4.722164010E-1,-7.563608140E-2,8.522375673E-2,7.244019210E-2
4.772387970E-1,-8.522375673E-2,2.450183034E-2,8.841964602E-2
4.822239020E-1,-1.012032107E-1,-5.326484516E-2,1.555333585E-1
4.873304120E-1,-1.235744432E-1,-1.203785539E-1,2.386265099E-1
4.923488510E-1,-1.427497864E-1,-1.448803842E-1,3.078708053E-1
4.976386950E-1,-1.619251370E-1,-1.502068639E-1,3.717886209E-1
5.026476540E-1,-1.693822145E-1,-1.811004728E-1,4.037475288E-1
5.075902580E-1,-1.384886056E-1,-2.109287977E-1,4.080087245E-1
5.126836970E-1,-8.096256852E-2,-2.098634988E-1,3.984210491E-1
5.177579680E-1,-2.769771963E-2,-1.502068639E-1,4.261187613E-1
5.228921880E-1,5.006895587E-2,-4.793836176E-2,4.772530198E-1
5.279037500E-1,1.278356314E-1,-3.408950195E-2,4.985589683E-1
5.329453660E-1,1.938840449E-1,-7.030959427E-2,4.751224220E-1
5.380136470E-1,2.482141852E-1,-1.012032107E-1,4.367717505E-1
5.430134920E-1,2.769772112E-1,-1.129214764E-1,4.314452708E-1
5.484334400E-1,2.918913662E-1,-1.129214764E-1,4.602082670E-1
5.534048470E-1,3.089361191E-1,-1.502068639E-1,4.974936545E-1
5.583727630E-1,3.227849603E-1,-2.130593807E-1,5.230607986E-1
5.633796920E-1,3.142625988E-1,-2.769772112E-1,5.358443856E-1
5.684770870E-1,2.727160156E-1,-3.494173884E-1,5.358443856E-1
5.734784430E-1,2.151899785E-1,-4.452941120E-1,5.315831900E-1
5.786454740E-1,1.885575503E-1,-4.825794995E-1,5.326484442E-1
5.836127670E-1,1.970799267E-1,-4.506205916E-1,5.401055217E-1
5.887423500E-1,1.874922663E-1,-4.389023483E-1,5.273219943E-1
5.937509970E-1,1.704475135E-1,-4.175963998E-1,4.900365770E-1
5.988649550E-1,1.597945392E-1,-3.696580231E-1,4.463594258E-1
6.039285500E-1,1.555333585E-1,-3.121320009E-1,4.069434404E-1
6.090166230E-1,1.565986425E-1,-2.599324584E-1,3.771151006E-1
6.142493320E-1,1.629904360E-1,-2.183858752E-1,3.547438681E-1
6.192156860E-1,1.821657717E-1,-2.151899785E-1,3.472867906E-1
6.243035000E-1,2.151899785E-1,-2.375612110E-1,3.611356616E-1
6.292653750E-1,2.418224066E-1,-2.343653291E-1,3.867027760E-1
6.343192300E-1,2.567365468E-1,-2.237123549E-1,3.994863629E-1
6.394692820E-1,2.684548199E-1,-2.119940966E-1,3.920292854E-1
6.444663140E-1,2.684548199E-1,-1.917534471E-1,3.760498166E-1
6.496099600E-1,2.631283402E-1,-1.715128124E-1,3.664621413E-1
6.547208470E-1,2.567365468E-1,-1.576639414E-1,3.632662594E-1
6.597947000E-1,2.535406649E-1,-1.416844875E-1,3.622009456E-1
6.649259520E-1,2.546059787E-1,-1.427497864E-1,3.526133001E-1
6.695909510E-1,2.514100671E-1,-1.512721628E-1,3.483521044E-1
6.750329320E-1,2.482141852E-1,-1.576639414E-1,3.547438681E-1
6.800211610E-1,2.482141852E-1,-1.789698899E-1,3.653968573E-1
6.850695480E-1,2.535406649E-1,-2.130593807E-1,3.749845326E-1
6.902904330E-1,2.652589381E-1,-2.450182885E-1,3.867027760E-1
6.951753300E-1,2.727160156E-1,-2.482141852E-1,4.005516469E-1
7.000484020E-1,2.695201337E-1,-2.322347313E-1,4.144005179E-1
7.053077790E-1,2.641936541E-1,-2.205164731E-1,4.346411526E-1
7.105193410E-1,2.609977424E-1,-2.258429527E-1,4.548817873E-1
7.154219460E-1,2.631283402E-1,-2.343653291E-1,4.666000605E-1
7.206605400E-1,2.620630562E-1,-2.343653291E-1,4.697959423E-1
7.257363220E-1,2.673895359E-1,-2.343653291E-1,4.676653445E-1
7.307562180E-1,2.844342887E-1,-2.354306281E-1,4.783183336E-1
7.357799690E-1,3.004137278E-1,-2.503447831E-1,4.879060090E-1
7.408739790E-1,3.131972849E-1,-2.801730931E-1,4.985589683E-1
7.458737200E-1,3.302420378E-1,-3.068055212E-1,5.081466436E-1
7.510887200E-1,3.451561928E-1,-3.259808719E-1,5.113425255E-1
7.560909090E-1,3.558091819E-1,-3.355685472E-1,5.092119575E-1
7.611501790E-1,3.600703776E-1,-3.376991153E-1,4.932324886E-1
7.662043470E-1,3.643315434E-1,-3.259808719E-1,4.719265401E-1
7.712787740E-1,3.813762963E-1,-3.025443256E-1,4.548817873E-1
7.764325780E-1,4.037475288E-1,-2.705854177E-1,4.474247098E-1
7.816625250E-1,4.282493591E-1,-2.588671446E-1,4.506205916E-1
7.865200790E-1,5.230607986E-1,-4.346411526E-1,5.369096398E-1
7.915884640E-1,6.168069243E-1,-5.251913667E-1,6.359822750E-1
7.966132050E-1,5.635420680E-1,-2.631283402E-1,5.944356918E-1
8.017432040E-1,5.571503043E-1,-2.609977424E-1,4.879060090E-1
8.067756530E-1,6.029580832E-1,-3.622009456E-1,4.154658020E-1
8.118674240E-1,5.965662599E-1,-2.908260524E-1,3.994863629E-1
8.168865920E-1,5.571503043E-1,-2.269082516E-1,3.941598535E-1
8.220196650E-1,5.230607986E-1,-2.290388346E-1,3.930945694E-1
8.270971140E-1,4.942977726E-1,-2.269082516E-1,3.952251673E-1
8.321503430E-1,4.644694626E-1,-2.162552774E-1,3.973557651E-1
8.372473160E-1,4.197269976E-1,-2.002758235E-1,3.973557651E-1
8.422654480E-1,3.760498166E-1,-1.672516167E-1,4.016169310E-1
8.473057100E-1,3.398297131E-1,-1.182479635E-1,4.016169310E-1
8.527052410E-1,3.100014031E-1,-8.309315890E-2,3.792456985E-1
8.576230540E-1,2.886954844E-1,-7.350549102E-2,3.451561928E-1
8.626354500E-1,2.812383771E-1,-7.137489319E-2,3.078708053E-1
8.676352430E-1,2.823036909E-1,-8.202786744E-2,2.844342887E-1
8.728527430E-1,2.769772112E-1,-8.202786744E-2,2.854995728E-1
8.778475880E-1,2.663242221E-1,-6.711370498E-2,2.993484437E-1
8.828383160E-1,2.503447831E-1,-4.687306657E-2,3.089361191E-1
8.878998280E-1,2.311694324E-1,-2.450183034E-2,3.057402074E-1
8.930126400E-1,2.066676021E-1,2.130593872E-3,2.918913662E-1
8.979957670E-1,1.885575503E-1,1.704475097E-2,2.684548199E-1
9.031385790E-1,1.651210189E-1,2.982831374E-2,2.546059787E-1
9.081762360E-1,1.352927089E-1,1.917534508E-2,2.514100671E-1
9.132422260E-1,1.118561774E-1,1.278356276E-2,2.482141852E-1
9.183117060E-1,9.481142461E-2,2.130593918E-2,2.407571077E-1
9.235489980E-1,7.989726961E-2,3.622009605E-2,2.226470560E-1
9.283922800E-1,7.030959427E-2,8.096256852E-2,1.970799267E-1
9.336074880E-1,7.137489319E-2,1.384886056E-1,1.693822145E-1
9.385953020E-1,9.055023640E-2,1.874922663E-1,1.448803842E-1
9.436783230E-1,1.544680595E-1,2.333000302E-1,1.129214764E-1
9.487210320E-1,1.757739931E-1,2.823036909E-1,8.522375673E-2
9.539586360E-1,1.491415650E-1,3.217196763E-1,4.367717355E-2
9.588555120E-1,1.225091442E-1,3.376991153E-1,-1.704475097E-2
9.640032200E-1,1.257050335E-1,3.355685472E-1,-7.670138031E-2
9.690027530E-1,1.406191885E-1,3.345032334E-1,-1.363580078E-1
9.743338460E-1,1.608598381E-1,3.472867906E-1,-2.034717202E-1
9.792621810E-1,1.874922663E-1,3.781804144E-1,-2.823036909E-1
9.839613470E-1,2.087981999E-1,4.250534773E-1,-3.707233369E-1
9.894572340E-1,2.258429527E-1,4.857754111E-1,-4.452941120E-1
9.945824420E-1,2.567365468E-1,5.464973450E-1,-5.028201342E-1
9.995170270E-1,2.801730931E-1,5.390402675E-1,-5.358443856E-1
1.004707391E0,3.259808719E-1,2.908260524E-1,-5.720644593E-1
1.009846663E0,3.430256248E-1,2.769772112E-1,-6.200028062E-1
1.014766871E0,2.844342887E-1,5.315831900E-1,-6.583535075E-1
1.019725154E0,1.874922663E-1,5.795215368E-1,-7.552955151E-1
1.024862654E0,1.246397421E-1,4.538165033E-1,-8.873923421E-1
1.029896457E0,1.033338010E-1,3.898986876E-1,-9.577019215E-1
1.035199790E0,7.137489319E-2,4.154658020E-1,-9.651589990E-1
1.040003906E0,1.384885982E-2,4.623388648E-1,-9.662243128E-1
1.045121301E0,-4.793836176E-2,5.038854480E-1,-9.907261729E-1
1.050198594E0,-1.001379117E-1,4.932324886E-1,-1.052513361E0
1.055282136E0,-1.416844875E-1,4.495553076E-1,-1.140933037E0
1.060275054E0,-2.077329010E-1,4.495553076E-1,-1.232548594E0
1.065569689E0,-2.940219641E-1,5.230607986E-1,-1.325229406E0
1.070636141E0,-3.568744659E-1,5.997622013E-1,-1.420040846E0
1.075514638E0,-3.835068941E-1,6.391781569E-1,-1.516982794E0
1.080618389E0,-3.909639716E-1,6.913776994E-1,-1.613924861E0
1.085680576E0,-3.888333738E-1,7.084224820E-1,-1.701279163E0
1.090867921E0,-3.739192188E-1,6.828553081E-1,-1.767327666E0
1.096024796E0,-3.579397798E-1,6.487658620E-1,-1.809939504E0
1.100866099E0,-3.483521044E-1,6.178722382E-1,-1.837637186E0
1.105976620E0,-3.440909088E-1,5.997622013E-1,-1.850420833E0
1.111017611E0,-3.451561928E-1,5.720644593E-1,-1.858943105E0
1.116056725E0,-3.536785841E-1,5.454320312E-1,-1.864269614E0
1.120786987E0,-3.579397798E-1,5.156037211E-1,-1.880249143E0
1.126312976E0,-3.462215066E-1,4.548817873E-1,-1.914338589E0
1.131247821E0,-3.547438681E-1,4.431635141E-1,-1.950558662E0
1.136341363E0,-3.781804144E-1,4.399676323E-1,-1.980386972E0
1.141488395E0,-3.771151006E-1,4.122699201E-1,-2.026194811E0
1.146509489E0,-3.622009456E-1,3.813762963E-1,-2.089047194E0
1.151592302E0,-3.419603109E-1,3.355685472E-1,-2.162552834E0
1.156641469E0,-3.195890784E-1,2.918913662E-1,-2.240319490E0
1.161780012E0,-2.833689749E-1,2.556712627E-1,-2.315955639E0
1.167020689E0,-2.269082516E-1,2.333000302E-1,-2.390526295E0
1.171995898E0,-1.640557349E-1,2.151899785E-1,-2.469358206E0
1.177113867E0,-1.118561774E-1,1.992105246E-1,-2.539667845E0
1.181977670E0,-5.752603337E-2,1.864269674E-1,-2.599324465E0
1.187122566E0,3.195890691E-3,1.842963696E-1,-2.633414030E0
1.192124702E0,6.498311460E-2,1.896228492E-1,-2.647262812E0
1.197228087E0,1.139867753E-1,2.151899785E-1,-2.640871048E0
1.202329182E0,1.587292403E-1,2.471488863E-1,-2.623826265E0
1.207378297E0,2.013411224E-1,2.631283402E-1,-2.623826265E0
1.212394131E0,2.386265099E-1,2.514100671E-1,-2.637675285E0
1.217610746E0,2.748466134E-1,1.981452256E-1,-2.661111832E0
1.222632257E0,3.014790416E-1,1.438150853E-1,-2.682417631E0
1.227645122E0,3.206543922E-1,7.244019210E-2,-2.693070650E0
1.232699915E0,3.313073516E-1,2.876301669E-2,-2.690940142E0
1.237806269E0,3.440909088E-1,7.457078435E-3,-2.673895359E0
1.242967728E0,3.547438681E-1,2.343653329E-2,-2.655785322E0
1.247988145E0,3.675274551E-1,5.646073818E-2,-2.649393559E0
1.252970802E0,3.952251673E-1,8.096256852E-2,-2.676025867E0
1.258067260E0,4.389023483E-1,1.193132550E-1,-2.745270252E0
1.263117886E0,5.006895661E-1,1.129214764E-1,-2.853930473E0
1.268198719E0,5.741950274E-1,7.670138031E-2,-2.989223242E0
1.273186221E0,6.327863932E-1,1.150520667E-1,-3.111732244E0
1.278360908E0,6.668758988E-1,2.301041335E-1,-3.185237885E0
1.283419347E0,6.956388950E-1,3.962904513E-1,-3.207609177E0
1.288627784E0,7.339895964E-1,6.200028062E-1,-3.194825411E0
1.293669712E0,7.979074121E-1,7.947115302E-1,-3.167127848E0
1.298608306E0,8.863270283E-1,8.415845633E-1,-3.156474829E0
1.303662630E0,9.811384678E-1,8.011032939E-1,-3.157540083E0
1.308754921E0,1.080211043E0,7.073571682E-1,-3.144756556E0
1.313890391E0,1.202720284E0,5.923051238E-1,-3.094687700E0
1.319006120E0,1.365710616E0,4.506205916E-1,-3.019051552E0
1.323893622E0,1.553202987E0,3.302420378E-1,-2.933827877E0
1.329172267E0,1.752413511E0,2.588671446E-1,-2.851799965E0
1.334172633E0,1.953754544E0,2.119940966E-1,-2.787882090E0
1.339190445E0,2.148703814E0,1.225091442E-1,-2.737813234E0
1.344168363E0,2.334065676E0,-1.278356276E-2,-2.700527668E0
1.349306957E0,2.498121262E0,-1.150520667E-1,-2.657915831E0
1.354344614E0,2.635544538E0,-2.056023031E-1,-2.603585720E0
1.359459510E0,2.748466015E0,-1.747086942E-1,-2.521557808E0
1.364501282E0,2.854995728E0,-3.195890691E-3,-2.393722296E0
1.369581907E0,2.965786695E0,2.865648866E-1,-2.226470709E0
1.374641856E0,3.086165190E0,5.901744962E-1,-2.048566103E0
1.379894772E0,3.191629648E0,8.756740689E-1,-1.894097924E0
1.384757274E0,3.263004541E0,1.135606527E0,-1.758805275E0
1.389922377E0,3.318399906E0,1.247462749E0,-1.642687917E0
1.394887327E0,3.261939287E0,5.347790718E-1,-1.629904270E0
1.400024826E0,3.110666990E0,-4.506205916E-1,-1.766262293E0
1.405181807E0,3.029704571E0,-8.735434711E-2,-1.840833068E0
1.410324150E0,2.869910002E0,-2.247776538E-1,-1.947362781E0
1.415161495E0,2.633414030E0,-3.600703776E-1,-2.067741394E0
1.420391443E0,2.363893986E0,-2.567365468E-1,-2.173205853E0
1.425358996E0,2.062414885E0,-2.247776538E-1,-2.293584347E0
1.430424881E0,1.753478765E0,-2.141246796E-1,-2.432072878E0
1.435251549E0,1.457326174E0,-1.320968270E-1,-2.555647373E0
1.440621445E0,1.164369583E0,-8.522375487E-3,-2.639805794E0
1.445589103E0,8.767393827E-1,2.556712627E-1,-2.671764612E0
1.450743269E0,6.317210793E-1,6.615493894E-1,-2.623826265E0
1.455786968E0,4.697959423E-1,1.089798808E0,-2.515166044E0
1.460948843E0,3.898986876E-1,1.355057716E0,-2.392656803E0
1.465862282E0,3.227849603E-1,1.371037126E0,-2.271213055E0
1.471049990E0,2.173205763E-1,1.287943959E0,-2.154030323E0
1.476076189E0,1.086602882E-1,1.218699694E0,-2.040043592E0
1.481237803E0,5.326484796E-3,1.144128919E0,-1.946297526E0
1.486181711E0,-1.097255871E-1,1.102582335E0,-1.872792006E0
1.491284575E0,-2.290388346E-1,1.187806129E0,-1.823788404E0
1.496308691E0,-2.929566503E-1,1.408322573E0,-1.813135386E0
1.501461816E0,-2.727160156E-1,1.616055489E0,-1.836571932E0
1.506474109E0,-1.768392920E-1,1.760935783E0,-1.903685570E0
1.511556244E0,-1.171826664E-2,1.833376050E0,-2.030456066E0
1.516575412E0,2.077329010E-1,1.823788404E0,-2.199838161E0
1.521749266E0,4.548817873E-1,1.757739902E0,-2.396918058E0
1.526772079E0,7.062918544E-1,1.658667326E0,-2.595063448E0
1.531882079E0,9.395918846E-1,1.543615222E0,-2.774033308E0
1.536957966E0,1.129214764E0,1.404061317E0,-2.893346548E0
1.541999632E0,1.268768668E0,1.231483221E0,-2.908260584E0
1.547107446E0,1.361449480E0,1.029076815E0,-2.827298164E0
1.552287185E0,1.421106100E0,8.288010359E-1,-2.703723669E0
1.557211562E0,1.485023975E0,7.382507920E-1,-2.591867447E0
1.562431926E0,1.568117142E0,6.924430132E-1,-2.482141972E0
1.567352031E0,1.603271842E0,6.636800170E-1,-2.324477911E0
1.572432708E0,1.607533097E0,7.531649470E-1,-2.127398014E0
1.577421772E0,1.609663725E0,9.257430434E-1,-1.911142707E0
1.582594220E0,1.571313024E0,1.055709243E0,-1.697018027E0
1.587658127E0,1.454130292E0,1.081276417E0,-1.488219857E0
1.592734846E0,1.271964550E0,1.061035752E0,-1.315641761E0
1.597793128E0,1.061035752E0,9.395918846E-1,-1.197393775E0
1.602879794E0,8.160174489E-1,8.415845633E-1,-1.146259546E0
1.607991098E0,5.528891087E-1,8.458457589E-1,-1.167565465E0
1.613072816E0,2.897607684E-1,8.522375226E-1,-1.214438558E0
1.618075734E0,3.408950195E-2,8.309316039E-1,-1.263442159E0
1.623337869E0,-2.056023031E-1,7.744708657E-1,-1.311380506E0
1.628148287E0,-4.378370345E-1,6.839206219E-1,-1.363580108E0
1.633343027E0,-6.647452712E-1,5.784562230E-1,-1.418975472E0
1.638434018E0,-8.799352646E-1,4.751224220E-1,-1.470109820E0
1.643475476E0,-1.081276417E0,4.250534773E-1,-1.520178676E0
1.648449748E0,-1.260246277E0,3.824416101E-1,-1.556398869E0
1.653714852E0,-1.427497864E0,3.792456985E-1,-1.555333495E0
1.658684332E0,-1.575574160E0,4.719265401E-1,-1.497807503E0
1.663789696E0,-1.720454574E0,5.784562230E-1,-1.379559517E0
1.668883916E0,-1.872792006E0,6.732676625E-1,-1.222960830E0
1.673654229E0,-2.061349630E0,7.797973752E-1,-1.050382733E0
1.678867667E0,-2.309563875E0,8.788699508E-1,-8.735435009E-1
1.684020844E0,-2.559908628E0,8.916535378E-1,-6.775288582E-1
1.689326158E0,-2.779359818E0,8.426498771E-1,-4.655347466E-1
1.694254751E0,-2.964721441E0,7.968420982E-1,-2.546059787E-1
1.699200169E0,-3.111732244E0,7.851238251E-1,-5.113425106E-2
1.704359492E0,-3.211870193E0,7.979074121E-1,1.523374617E-1
1.709456368E0,-3.269396305E0,8.266704082E-1,3.653968573E-1
1.714433191E0,-3.293898106E0,8.618252277E-1,5.859133005E-1
1.719447359E0,-3.303485870E0,8.671516776E-1,8.117562532E-1
1.724627359E0,-3.309877634E0,8.330622315E-1,1.038664460E0
1.729670589E0,-3.315204144E0,7.371854782E-1,1.266638041E0
1.734776474E0,-3.287506342E0,6.082845330E-1,1.488219857E0
1.739800121E0,-3.231045723E0,4.687306583E-1,1.706605673E0
1.744910017E0,-3.156474829E0,3.174584806E-1,1.912207961E0
1.750293039E0,-3.076577663E0,1.608598381E-1,2.080524921E0
1.755033612E0,-3.003072023E0,0.000000000E0,2.199838161E0
1.760181478E0,-2.941284895E0,-1.193132550E-1,2.269082546E0
1.765178665E0,-2.892281294E0,-2.109287977E-1,2.288257837E0
1.770205593E0,-2.859256983E0,-2.940219641E-1,2.257364273E0
1.775382155E0,-2.828363419E0,-3.707233369E-1,2.161487579E0
1.780356115E0,-2.794273853E0,-4.431635141E-1,1.991039991E0
1.785454031E0,-2.751662016E0,-5.283873081E-1,1.756674647E0
1.790532054E0,-2.695201159E0,-6.061539650E-1,1.496742249E0
1.795643095E0,-2.609977484E0,-6.263945699E-1,1.248528004E0
1.800765440E0,-2.487468243E0,-5.997622013E-1,1.037599206E0
1.806487471E0,-2.325543165E0,-5.411708355E-1,8.447804451E-1
1.810775545E0,-2.130593777E0,-4.602082670E-1,6.924430132E-1
1.815934347E0,-1.924991608E0,-3.579397798E-1,5.933703780E-1
1.820910025E0,-1.723650455E0,-2.460835874E-1,5.624767542E-1
1.826373931E0,-1.524439931E0,-1.235744432E-1,6.029580832E-1
1.831219141E0,-1.335882306E0,3.302420676E-2,7.030959725E-1
1.836514557E0,-1.185675502E0,1.896228492E-1,8.426498771E-1
1.841287736E0,-1.100451708E0,3.100014031E-1,1.009901524E0
1.846306277E0,-1.087668180E0,4.101393223E-1,1.181414247E0
1.851373414E0,-1.133475900E0,5.038854480E-1,1.341208816E0
1.856524872E0,-1.217634439E0,6.050886512E-1,1.481828094E0
1.861584509E0,-1.330555916E0,7.297284007E-1,1.594749570E0
1.866656071E0,-1.466913939E0,8.927188516E-1,1.677842617E0
1.871676645E0,-1.638426661E0,1.086602926E0,1.721519828E0
1.876772634E0,-1.836571932E0,1.270899296E0,1.735368729E0
1.881776698E0,-2.041108847E0,1.439216137E0,1.742825747E0
1.886725135E0,-2.243515253E0,1.563855886E0,1.755609393E0
1.892123939E0,-2.427811623E0,1.658667326E0,1.767327666E0
1.897035761E0,-2.584410429E0,1.735368729E0,1.780111194E0
1.902014877E0,-2.706919432E0,1.815266013E0,1.790764093E0
1.907271596E0,-2.791078091E0,1.900489688E0,1.805678248E0
1.912354201E0,-2.843277454E0,1.946297526E0,1.795025349E0
1.917365086E0,-2.873105764E0,1.952689290E0,1.749217510E0
1.922278994E0,-2.897607565E0,1.815266013E0,1.658667326E0
1.927431493E0,-2.910391331E0,1.750282884E0,1.539354086E0
1.932550036E0,-2.915717602E0,1.943101645E0,1.474370956E0
1.937819099E0,-2.921044111E0,1.866400242E0,1.457326174E0
1.942720558E0,-2.928501368E0,1.644818425E0,1.414714336E0
1.947724516E0,-2.880563021E0,1.604337215E0,1.357188344E0
1.952834882E0,-2.780425072E0,1.593684196E0,1.306053996E0
1.958055871E0,-2.678156614E0,1.458391547E0,1.235744476E0
1.962863842E0,-2.593997955E0,1.387016654E0,1.164369583E0
1.968050143E0,-2.494925499E0,1.327360034E0,1.114300609E0
1.973027384E0,-2.378808022E0,1.289009333E0,1.104712963E0
1.978112019E0,-2.272278309E0,1.298596978E0,1.130280018E0
1.983147951E0,-2.177466869E0,1.269833922E0,1.170761347E0
1.988241291E0,-2.090112686E0,1.181414247E0,1.198459029E0
1.993228740E0,-2.016607046E0,1.086602926E0,1.209112048E0
1.998328011E0,-1.963342309E0,1.036533952E0,1.208046675E0
2.003177596E0,-1.912207961E0,1.068492770E0,1.186740756E0
2.008508741E0,-1.855747223E0,1.075949907E0,1.148390055E0
2.013578534E0,-1.814200640E0,1.054643989E0,1.098321199E0
2.018678378E0,-1.788633585E0,1.112169981E0,1.052513361E0
2.023783223E0,-1.769458175E0,1.035468578E0,1.040795088E0
2.028759264E0,-1.708736300E0,1.757739931E-1,9.214818478E-1
2.033774578E0,-1.591553569E0,-1.917534471E-1,7.520996332E-1
2.038941088E0,-1.463717937E0,7.787320614E-1,7.616873384E-1
2.043903954E0,-1.412583709E0,1.248528004E0,7.776667476E-1
2.049042078E0,-1.535092831E0,1.369971871E0,7.616873384E-1
2.054078330E0,-1.762001157E0,1.494611621E0,7.563608289E-1
2.059183902E0,-1.953754544E0,1.536158204E0,7.201407552E-1
2.064220414E0,-2.068806648E0,1.474370956E0,6.104151607E-1
2.069346299E0,-2.098634958E0,1.318837643E0,4.314452708E-1
2.074381978E0,-2.069871902E0,1.194197893E0,2.492794842E-1
2.079568436E0,-2.024064064E0,1.129214764E0,1.289009303E-1
2.084499062E0,-1.993170619E0,1.068492770E0,1.001379117E-1
2.089797708E0,-2.003823519E0,9.907261729E-1,1.491415650E-1
2.094662969E0,-2.028325319E0,1.033338070E0,2.673895359E-1
2.099734531E0,-2.030456066E0,1.056774616E0,4.410329461E-1
2.104770054E0,-1.981452346E0,1.090864062E0,6.349169612E-1
2.109902710E0,-1.889836788E0,1.165434837E0,8.138868809E-1
2.114982346E0,-1.756674647E0,1.238940358E0,9.651589990E-1
2.120051981E0,-1.606467724E0,1.317772269E0,1.078080535E0
2.125063389E0,-1.455195665E0,1.446673274E0,1.137737155E0
2.130222816E0,-1.312445879E0,1.522309303E0,1.091929317E0
2.135182765E0,-1.259181023E0,1.491415739E0,9.534407854E-1
2.140369431E0,-1.285813451E0,1.332686424E0,8.810005784E-1
2.145340526E0,-1.306053996E0,1.237874985E0,8.746087551E-1
2.150443651E0,-1.307119370E0,1.119627118E0,7.457078695E-1
2.155516777E0,-1.411518455E0,8.213439584E-1,6.040233374E-1
2.160668340E0,-1.595814824E0,5.891091824E-1,5.923051238E-1
2.165773393E0,-1.699148655E0,5.464973450E-1,5.060160160E-1
2.170772247E0,-1.721519828E0,5.102772117E-1,3.259808719E-1
2.175830790E0,-1.700213909E0,4.389023483E-1,1.406191885E-1
2.180854227E0,-1.659732580E0,3.909639716E-1,-2.982831374E-2
2.185929385E0,-1.677842617E0,4.964283705E-1,-1.459456831E-1
2.191117920E0,-1.661863208E0,4.676653445E-1,-2.684548199E-1
2.196457250E0,-1.559594750E0,2.524753809E-1,-4.271840751E-1
2.201251885E0,-1.473305702E0,1.661863178E-1,-4.942977726E-1
2.206311939E0,-1.463717937E0,2.375612110E-1,-4.548817873E-1
2.211651626E0,-1.512721658E0,3.259808719E-1,-3.792456985E-1
2.216455117E0,-1.581965923E0,3.952251673E-1,-3.227849603E-1
2.221539752E0,-1.640557289E0,4.378370345E-1,-2.780424953E-1
2.226665118E0,-1.678907990E0,4.538165033E-1,-2.311694324E-1
2.231697305E0,-1.689560890E0,4.314452708E-1,-1.715128124E-1
2.236689338E0,-1.683169127E0,3.760498166E-1,-1.012032107E-1
2.242048921E0,-1.660797954E0,2.950872481E-1,-3.302420676E-2
2.246909339E0,-1.618185997E0,1.704475135E-1,2.343653329E-2
2.251955432E0,-1.556398869E0,2.450183034E-2,6.604841352E-2
2.256991788E0,-1.494611621E0,-1.235744432E-1,9.587672353E-2
2.262202725E0,-1.460522056E0,-2.695201337E-1,1.033338010E-1
2.267120903E0,-1.469044447E0,-3.813762963E-1,9.587672353E-2
2.272259965E0,-1.535092831E0,-4.900365770E-1,6.178722158E-2
2.277722519E0,-1.649079680E0,-5.965662599E-1,2.130593872E-3
2.282516320E0,-1.812070131E0,-6.849859357E-1,-7.244019210E-2
2.287564499E0,-2.033651829E0,-7.275978327E-1,-1.587292403E-1
2.292525905E0,-2.304237366E0,-7.062918544E-1,-2.514100671E-1
2.297544656E0,-2.629152775E0,-6.178722382E-1,-3.568744659E-1
2.302749187E0,-3.000941515E0,-4.942977726E-1,-4.697959423E-1
2.307666480E0,-3.392970800E0,-4.048128426E-1,-5.933703780E-1
2.312844188E0,-3.800979376E0,-3.824416101E-1,-7.286630869E-1
2.318000856E0,-4.233489990E0,-3.206543922E-1,-8.788699508E-1
2.322942835E0,-4.683045387E0,-1.747086942E-1,-1.022685051E0
2.328057993E0,-5.140057564E0,-2.876301669E-2,-1.161173701E0
2.333262367E0,-5.602396488E0,2.769771963E-2,-1.296466351E0
2.338125702E0,-5.962466717E0,-4.900366068E-2,-1.463717937E0
2.342934972E0,-6.246901035E0,-2.982831299E-1,-1.649079680E0
2.348227474E0,-6.530270100E0,-5.997622013E-1,-1.841898441E0
2.353454296E0,-6.816834927E0,-7.084224820E-1,-2.024064064E0
2.358458360E0,-7.027763844E0,-7.776667476E-1,-2.162552834E0
2.363779454E0,-7.065049171E0,-9.832690954E-1,-2.259494781E0
2.368561851E0,-6.969172478E0,-1.177153111E0,-2.337261438E0
2.373696173E0,-6.796594620E0,-1.220830321E0,-2.379873276E0
2.378754143E0,-6.569686413E0,-1.075949907E0,-2.377742767E0
2.383870914E0,-6.345973969E0,-7.638179064E-1,-2.280800819E0
2.388953103E0,-6.054082394E0,-5.763256550E-1,-2.196642399E0
2.393960863E0,-5.667379856E0,-5.017548800E-1,-2.177466869E0
2.398985552E0,-5.216759205E0,-3.845722079E-1,-2.152965069E0
2.404115395E0,-4.739506245E0,-1.534027606E-1,-2.054957867E0
2.409126386E0,-4.285689354E0,6.285251677E-2,-1.834441304E0
2.414276959E0,-3.856374979E0,1.992105246E-1,-1.571313024E0
2.419890502E0,-3.433452129E0,3.078708053E-1,-1.391277790E0
2.424471178E0,-3.029704571E0,4.506205916E-1,-1.320968151E0
2.429433211E0,-2.660046339E0,6.924430132E-1,-1.339078307E0
2.434658211E0,-2.354306221E0,9.310694933E-1,-1.414714336E0
2.439590608E0,-2.138051033E0,1.122823000E0,-1.516982794E0
2.444718837E0,-2.017672300E0,1.274095178E0,-1.592618942E0
2.449657328E0,-1.994235873E0,1.306053996E0,-1.568117142E0
2.454832171E0,-2.034717083E0,1.254919767E0,-1.444542646E0
2.459998631E0,-2.090112686E0,1.172891974E0,-1.274095178E0
2.465014828E0,-2.144442797E0,1.095125198E0,-1.112169981E0
2.469998163E0,-2.187054634E0,1.029076815E0,-9.608978629E-1
2.475125923E0,-2.234992981E0,1.031207442E0,-7.755361795E-1
2.480280456E0,-2.278670073E0,1.182479620E0,-5.731297731E-1
2.485302487E0,-2.206229925E0,1.454130292E0,-4.346411526E-1
2.490241030E0,-2.030456066E0,1.595814824E0,-3.813762963E-1
2.495589623E0,-1.812070131E0,1.469044447E0,-3.920292854E-1
2.500395353E0,-1.579835415E0,1.247462749E0,-4.335758388E-1
2.505492645E0,-1.349731207E0,1.031207442E0,-4.761877358E-1
2.510684313E0,-1.134541273E0,9.001759291E-1,-4.889712930E-1
2.515613844E0,-9.513101578E-1,8.362581134E-1,-4.911018908E-1
2.520743949E0,-8.160174489E-1,8.064298034E-1,-4.985589683E-1
2.525800043E0,-7.286630869E-1,8.011032939E-1,-5.134730935E-1
2.530827440E0,-6.807247400E-1,8.074950576E-1,-5.337137580E-1
2.535912283E0,-6.700717807E-1,8.192133307E-1,-5.667379498E-1
2.540882805E0,-6.860512495E-1,8.032338619E-1,-6.093498468E-1
2.546280566E0,-7.297284007E-1,7.489037514E-1,-6.658105850E-1
2.551214109E0,-7.915156484E-1,6.817900538E-1,-7.329242826E-1
2.556320983E0,-8.564987183E-1,6.104151607E-1,-8.064298034E-1
2.561271349E0,-9.214818478E-1,5.198649168E-1,-8.863270283E-1
2.566494682E0,-9.822037816E-1,4.016169310E-1,-9.672896266E-1
2.571400517E0,-1.029076815E0,2.716507316E-1,-1.051448107E0
2.576517652E0,-1.064231634E0,1.672516167E-1,-1.136671782E0
2.581486559E0,-1.072754025E0,1.001379117E-1,-1.222960830E0
2.586776611E0,-1.063166380E0,6.924430281E-2,-1.302858114E0
2.591651300E0,-1.069558144E0,9.268083423E-2,-1.358253598E0
2.596889789E0,-1.091929317E0,1.289009303E-1,-1.424301982E0
2.601773489E0,-1.110039353E0,1.640557349E-1,-1.496742249E0
2.606916926E0,-1.123888254E0,2.205164731E-1,-1.556398869E0
2.612196094E0,-1.145194173E0,3.036096394E-1,-1.590488315E0
2.617068437E0,-1.182479620E0,4.367717505E-1,-1.608598351E0
2.622068074E0,-1.227222085E0,6.178722382E-1,-1.603271842E0
2.627350313E0,-1.263442159E0,8.277357221E-1,-1.584096551E0
2.632259794E0,-1.292205215E0,1.039729834E0,-1.555333495E0
2.637379950E0,-1.315641761E0,1.210177302E0,-1.503134012E0
2.642365784E0,-1.318837643E0,1.328425288E0,-1.417910218E0
2.647609534E0,-1.293270469E0,1.375298381E0,-1.295401096E0
2.652580369E0,-1.221895576E0,1.381690145E0,-1.165434837E0
2.657619535E0,-1.107908845E0,1.315641761E0,-1.059970498E0
2.662720682E0,-9.481142759E-1,1.198459029E0,-9.608978629E-1
2.667806046E0,-7.606220245E-1,1.024815679E0,-8.746087551E-1
2.672821516E0,-6.008274555E-1,8.128215671E-1,-8.000379801E-1
2.677989068E0,-5.102772117E-1,6.168069243E-1,-7.180101275E-1
2.682962351E0,-5.092119575E-1,4.783183336E-1,-6.413087845E-1
2.688363965E0,-5.688685775E-1,4.016169310E-1,-5.923051238E-1
2.693107039E0,-6.626147032E-1,3.483521044E-1,-5.933703780E-1
2.698202560E0,-7.616873384E-1,3.195890784E-1,-6.466352344E-1
2.703258551E0,-8.330622315E-1,3.366338313E-1,-7.446425557E-1
2.708426259E0,-8.863270283E-1,3.664621413E-1,-8.618252277E-1
2.713401677E0,-9.182859659E-1,3.898986876E-1,-9.598325491E-1
2.718579333E0,-9.246777296E-1,3.962904513E-1,-1.046121597E0
2.723496365E0,-9.108288884E-1,3.771151006E-1,-1.132410645E0
2.728617511E0,-8.746087551E-1,3.653968573E-1,-1.201654911E0
2.733665898E0,-8.192133307E-1,3.664621413E-1,-1.276225686E0
2.738733970E0,-7.489037514E-1,3.483521044E-1,-1.361449480E0
2.744009388E0,-6.722023487E-1,3.174584806E-1,-1.449869156E0
2.748996002E0,-5.944356918E-1,2.833689749E-1,-1.525505185E0
2.754033035E0,-5.145384073E-1,2.524753809E-1,-1.578770041E0
2.759158972E0,-4.378370345E-1,2.279735506E-1,-1.606467724E0
2.764040484E0,-3.781804144E-1,1.960146427E-1,-1.617120743E0
2.769532515E0,-3.494173884E-1,1.640557349E-1,-1.616055489E0
2.774321474E0,-3.526133001E-1,1.480762810E-1,-1.602206588E0
2.779349130E0,-3.856374919E-1,1.427497864E-1,-1.579835415E0
2.784479965E0,-4.367717505E-1,1.416844875E-1,-1.553202987E0
2.789546944E0,-4.974936545E-1,1.299662292E-1,-1.539354086E0
2.794511476E0,-5.550196767E-1,1.022685021E-1,-1.557464123E0
2.799648559E0,-6.093498468E-1,7.350549102E-2,-1.597945452E0
2.804678665E0,-6.530269980E-1,5.433014408E-2,-1.657602072E0
2.809746946E0,-6.967042089E-1,4.900366068E-2,-1.719389200E0
2.814742312E0,-7.435772419E-1,4.580776766E-2,-1.767327666E0
2.819892937E0,-7.819279432E-1,4.793836176E-2,-1.807808876E0
2.825082313E0,-8.096256852E-1,4.261187837E-2,-1.847224832E0
2.830116740E0,-8.224092126E-1,2.876301669E-2,-1.886640906E0
2.835244137E0,-8.192133307E-1,2.450183034E-2,-1.904750943E0
2.840426376E0,-8.032338619E-1,1.917534508E-2,-1.906881571E0
2.845219607E0,-7.776667476E-1,1.065296936E-3,-1.909012079E0
2.850367106E0,-7.531649470E-1,-1.597945392E-2,-1.901555061E0
2.855331847E0,-7.382507920E-1,-2.024064213E-2,-1.882379651E0
2.860602576E0,-7.254672050E-1,-1.597945392E-2,-1.854681969E0
2.865569609E0,-7.254672050E-1,-7.670138031E-2,-1.852551341E0
2.870796848E0,-7.531649470E-1,-2.013411224E-1,-1.861073732E0
2.875648724E0,-8.170827627E-1,-3.355685472E-1,-1.825918913E0
2.880909974E0,-8.905882239E-1,-3.856374919E-1,-1.703409791E0
2.885796225E0,-9.193512797E-1,-4.229228795E-1,-1.565986514E0
2.891020131E0,-9.065676928E-1,-5.688685775E-1,-1.471175075E0
2.896109299E0,-9.374613166E-1,-7.744708657E-1,-1.459456801E0
2.901204611E0,-1.026946187E0,-8.383886814E-1,-1.454130292E0
2.905764404E0,-1.151585937E0,-7.169448137E-1,-1.335882306E0
2.911204508E0,-1.274095178E0,-6.370475888E-1,-1.203785539E0
2.916178312E0,-1.308184624E0,-6.455699205E-1,-1.082341671E0
2.921337061E0,-1.278356314E0,-7.467731237E-1,-9.044371247E-1
2.926349667E0,-1.229352713E0,-8.937841058E-1,-6.935083270E-1
2.931477323E0,-1.180348992E0,-9.917914271E-1,-4.804489315E-1
2.936478626E0,-1.168630719E0,-1.054643989E0,-2.833689749E-1
2.941638938E0,-1.201654911E0,-1.053578615E0,-1.182479635E-1
2.946792169E0,-1.248528004E0,-9.832690954E-1,-2.343653329E-2
2.951789720E0,-1.299662232E0,-9.150900841E-1,-1.278356276E-2
2.956820816E0,-1.379559517E0,-8.703476191E-1,-1.395539045E-1
2.961876805E0,-1.494611621E0,-8.256051540E-1,-4.367717505E-1
2.966970035E0,-1.526570559E0,-8.437151909E-1,-8.756740689E-1
2.972049254E0,-1.358253598E0,-9.193512797E-1,-1.244266868E0
2.977169151E0,-1.274095178E0,-9.108288884E-1,-1.577704787E0
2.982220661E0,-1.398734927E0,-8.905882239E-1,-1.979321718E0
2.987159777E0,-1.456260920E0,-9.960526228E-1,-2.206229925E0
2.992381339E0,-1.314576387E0,-1.212307930E0,-2.147638559E0
2.997568268E0,-1.130280018E0,-1.436020255E0,-1.999562383E0
3.002549101E0,-1.031207442E0,-1.585161805E0,-1.903685570E0
3.007492748E0,-9.960526228E-1,-1.659732580E0,-1.848290205E0
3.012584206E0,-9.694201946E-1,-1.626708388E0,-1.811004758E0
3.017736603E0,-9.097635746E-1,-1.463717937E0,-1.801417112E0
3.022768321E0,-8.096256852E-1,-1.177153111E0,-1.817396522E0
3.027828479E0,-6.999000907E-1,-8.575640321E-1,-1.828049541E0
3.032902281E0,-5.837827325E-1,-5.006895661E-1,-1.831245422E0
3.038120667E0,-4.442288280E-1,-1.406191885E-1,-1.825918913E0
3.043193896E0,-3.110667169E-1,1.065296903E-1,-1.798221231E0
3.048016554E0,-2.109287977E-1,2.098634988E-1,-1.724715710E0
3.053321085E0,-1.576639414E-1,2.333000302E-1,-1.607533097E0
3.058167336E0,-1.555333585E-1,2.119940966E-1,-1.485023975E0
3.063456398E0,-1.800351888E-1,1.683169156E-1,-1.388081908E0
3.068323691E0,-2.162552774E-1,8.735434711E-2,-1.300727606E0
3.073487962E0,-2.226470560E-1,5.326484516E-2,-1.217634439E0
3.078455515E0,-1.779045910E-1,1.054643989E-1,-1.144128919E0
3.083593692E0,-1.257050335E-1,2.077329010E-1,-1.090864062E0
3.088761350E0,-7.883197069E-2,3.387644291E-1,-1.047186852E0
3.093765047E0,-3.728539124E-2,4.729918540E-1,-9.992485046E-1
3.098887444E0,-7.457078435E-3,5.944356918E-1,-9.470489621E-1
3.104080517E0,1.811004803E-2,7.052266002E-1,-8.905882239E-1
3.108967445E0,3.195890784E-2,8.192133307E-1,-8.533028364E-1
3.114042028E0,4.261187837E-2,9.438530803E-1,-8.383886814E-1
3.119108175E0,7.030959427E-2,1.073819280E0,-8.266704082E-1
3.124216769E0,1.331621110E-1,1.224026203E0,-8.288010359E-1
3.129155416E0,2.098634988E-1,1.382755399E0,-8.447804451E-1
3.134446978E0,2.748466134E-1,1.493546247E0,-8.682169914E-1
3.139281250E0,3.398297131E-1,1.477566838E0,-9.001759291E-1
3.144487396E0,3.994863629E-1,1.401930809E0,-9.278736115E-1
3.149438960E0,4.303799570E-1,1.364645362E0,-9.630284309E-1
3.154977814E0,4.420982301E-1,1.323098779E0,-1.009901524E0
3.159728961E0,4.186616838E-1,1.222960830E0,-1.078080535E0
3.164714794E0,3.302420378E-1,1.035468578E0,-1.131345391E0
3.169741931E0,1.874922663E-1,8.138868809E-1,-1.151585937E0
3.174898441E0,5.859133229E-2,6.317210793E-1,-1.192067266E0
3.179826202E0,2.876301669E-2,4.804489315E-1,-1.292205215E0
3.185016358E0,1.619251370E-1,4.303799570E-1,-1.410453200E0
3.190073860E0,2.844342887E-1,4.261187613E-1,-1.395539045E0
3.195164693E0,1.853616685E-1,2.322347313E-1,-1.351861835E0
3.200288548E0,-9.800732136E-2,-1.491415687E-2,-1.312445879E0
3.205275579E0,-4.207922816E-1,-3.323726356E-1,-1.132410645E0
3.210316674E0,-6.530269980E-1,-6.999000907E-1,-9.118942022E-1
3.215492403E0,-8.511722684E-1,-9.023064971E-1,-8.224092126E-1
3.220744956E0,-1.032272696E0,-1.012032032E0,-7.840585709E-1
3.225653029E0,-1.017358541E0,-1.080211043E0,-7.457078695E-1
3.230586676E0,-9.193512797E-1,-1.024815679E0,-7.265325189E-1
3.235727822E0,-7.766014934E-1,-9.204165339E-1,-6.892471313E-1
3.240764906E0,-5.837827325E-1,-8.032338619E-1,-5.912398100E-1
3.245881104E0,-4.527511895E-1,-6.977695227E-1,-5.102772117E-1
3.250881626E0,-4.250534773E-1,-6.413087845E-1,-3.408950269E-1
3.256157511E0,-4.133352041E-1,-5.901744962E-1,-1.832310706E-1
3.261043450E0,-3.622009456E-1,-5.198649168E-1,-1.225091442E-1
3.266255116E0,-3.068055212E-1,-4.112046063E-1,-1.246397421E-1
3.271323191E0,-2.695201337E-1,-2.812383771E-1,-1.672516167E-1
3.276418711E0,-2.386265099E-1,-1.725780964E-1,-2.386265099E-1
3.281513713E0,-1.960146427E-1,-1.097255871E-1,-3.345032334E-1
3.286621368E0,-1.448803842E-1,-8.948494494E-2,-4.335758388E-1
3.291580641E0,-1.107908785E-1,-9.800732136E-2,-5.187996030E-1
3.296547359E0,-1.171826646E-1,-9.055023640E-2,-5.592808723E-1
3.301563871E0,-1.470109820E-1,-5.965662748E-2,-5.177342892E-1
3.306787933E0,-1.629904360E-1,-5.006895587E-2,-4.474247098E-1
3.311779549E0,-1.672516167E-1,-7.137489319E-2,-3.845722079E-1
3.316916059E0,-1.384886056E-1,-7.776667923E-2,-3.355685472E-1
3.321952206E0,-5.539543927E-2,-4.687306657E-2,-3.089361191E-1
3.327062466E0,4.580776766E-2,0.000000000E0,-3.046749234E-1
3.332068978E0,1.331621110E-1,2.769771963E-2,-3.195890784E-1
3.337134967E0,1.832310706E-1,2.982831374E-2,-3.313073516E-1
3.342206791E0,2.109287977E-1,6.391781382E-3,-3.334379494E-1
3.347295437E0,2.247776538E-1,-3.302420676E-2,-3.121320009E-1
3.352331636E0,2.471488863E-1,-2.556712553E-2,-2.652589381E-1
3.357441115E0,2.780424953E-1,6.924430281E-2,-2.109287977E-1
3.362464450E0,3.206543922E-1,1.992105246E-1,-1.214438528E-1
3.367706585E0,3.217196763E-1,2.514100671E-1,-6.924430281E-2
3.372574763E0,2.886954844E-1,2.663242221E-1,-1.491415687E-2
3.377756898E0,1.906881481E-1,2.503447831E-1,4.261187743E-3
3.382852993E0,6.072192639E-2,2.024064213E-1,2.663242258E-2
3.387861639E0,-6.604841352E-2,1.086602882E-1,9.800732136E-2
3.392876588E0,-1.715128124E-1,1.171826664E-2,1.874922663E-1
3.398019765E0,-2.759118974E-1,-5.646073818E-2,2.514100671E-1
3.402968516E0,-3.707233369E-1,-8.415845782E-2,2.684548199E-1
3.408066849E0,-4.570123851E-1,-6.285251677E-2,2.609977424E-1
3.413164507E0,-5.305178761E-1,-2.343653329E-2,2.450182885E-1
3.418176329E0,-5.923051238E-1,5.326484796E-3,2.343653291E-1
3.423320081E0,-6.583535075E-1,2.343653329E-2,2.450182885E-1
3.428330393E0,-6.764635444E-1,8.309315890E-2,2.865648866E-1
3.433362686E0,-6.477005482E-1,1.608598381E-1,3.430256248E-1
3.438442009E0,-6.295905113E-1,2.546059787E-1,4.026822448E-1
3.443531697E0,-6.338516474E-1,3.398297131E-1,4.623388648E-1
3.448774353E0,-6.562229395E-1,3.781804144E-1,5.592808723E-1
3.453740240E0,-6.498311162E-1,4.527511895E-1,6.370475888E-1
3.458849146E0,-6.498311162E-1,4.985589683E-1,6.381128430E-1
3.464030710E0,-6.732676625E-1,4.815142155E-1,6.029580832E-1
3.469158470E0,-6.690064669E-1,5.251913667E-1,5.379749537E-1
3.474377325E0,-6.413087845E-1,6.029580832E-1,4.463594258E-1
3.479291173E0,-6.189374924E-1,6.775288582E-1,3.366338313E-1
3.484093316E0,-5.880439281E-1,7.595567107E-1,2.269082516E-1
3.489295659E0,-5.219954848E-1,8.383886814E-1,1.438150853E-1
3.494458005E0,-4.239881933E-1,8.980453014E-1,1.235744432E-1
3.499410973E0,-3.345032334E-1,9.150900841E-1,1.704475135E-1
3.504397328E0,-2.503447831E-1,9.204165339E-1,2.929566503E-1
3.509562589E0,-1.874922663E-1,8.810005784E-1,4.090740085E-1
3.514554100E0,-1.225091442E-1,7.819279432E-1,4.218575954E-1
3.519751444E0,-4.048128426E-2,7.925809026E-1,3.334379494E-1
3.524775403E0,0.000000000E0,8.341274858E-1,1.438150853E-1
3.529826132E0,6.711370498E-2,8.447804451E-1,-7.030959427E-2
3.535041915E0,1.480762810E-1,8.575640321E-1,-2.290388346E-1
3.540057175E0,1.832310706E-1,8.564987183E-1,-3.100014031E-1
3.544975510E0,1.661863178E-1,8.021686077E-1,-3.376991153E-1
3.550172436E0,1.448803842E-1,7.116183639E-1,-3.568744659E-1
3.555165615E0,1.267703325E-1,6.242640018E-1,-3.856374919E-1
3.560451865E0,1.075949892E-1,5.773909688E-1,-4.431635141E-1
3.565242178E0,9.374613315E-2,5.464973450E-1,-5.347790718E-1
3.570672386E0,8.309315890E-2,5.251913667E-1,-6.061539650E-1
3.575497804E0,8.096256852E-2,4.985589683E-1,-6.295905113E-1
3.580542283E0,9.481142461E-2,4.697959423E-1,-6.221334338E-1
3.585539264E0,7.457078248E-2,3.835068941E-1,-6.753982306E-1
3.590670722E0,-3.195890691E-3,2.673895359E-1,-7.861891389E-1
3.595481035E0,-7.989726961E-2,1.597945392E-1,-8.714128733E-1
3.600777025E0,-1.086602882E-1,6.391781569E-2,-9.268083572E-1
3.605863172E0,-1.043990999E-1,-1.065296959E-2,-9.715508223E-1
3.611073588E0,-1.203785539E-1,-8.735434711E-2,-1.005640268E0
3.616142444E0,-1.459456831E-1,-1.704475135E-1,-1.053578615E0
3.621085985E0,-1.587292403E-1,-2.428877056E-1,-1.106843472E0
3.626128382E0,-1.523374617E-1,-2.812383771E-1,-1.141998291E0
3.631254059E0,-1.395539045E-1,-3.142625988E-1,-1.143063664E0
3.636222237E0,-1.438150853E-1,-3.483521044E-1,-1.112169981E0
3.641409998E0,-1.651210189E-1,-3.685927391E-1,-1.080211043E0
3.646368593E0,-1.864269674E-1,-3.579397798E-1,-1.083406925E0
3.651759061E0,-1.864269674E-1,-3.217196763E-1,-1.119627118E0
3.656551302E0,-1.693822145E-1,-2.737812996E-1,-1.137737155E0
3.661652864E0,-1.491415650E-1,-2.364959270E-1,-1.095125198E0
3.666721199E0,-1.470109820E-1,-2.077329010E-1,-1.120692372E0
3.672013594E0,-1.363580078E-1,-1.597945392E-1,-1.211242557E0
3.676807294E0,-2.162552774E-1,-2.609977424E-1,-1.270899296E0
3.682019949E0,-3.376991153E-1,-3.664621413E-1,-1.358253598E0
3.687034117E0,-4.367717505E-1,-4.367717505E-1,-1.485023975E0
3.692141305E0,-4.825794995E-1,-4.857754111E-1,-1.606467724E0
3.697199483E0,-4.996242523E-1,-5.156037211E-1,-1.722585201E0
3.702427087E0,-4.666000605E-1,-5.603461862E-1,-1.825918913E0
3.707377297E0,-3.536785841E-1,-5.869786143E-1,-1.914338589E0
3.712443749E0,-1.704475135E-1,-5.752603412E-1,-1.931383371E0
3.717535683E0,4.261187837E-2,-5.369096398E-1,-1.880249143E0
3.722496308E0,1.715128124E-1,-5.092119575E-1,-1.818461895E0
3.727980007E0,1.874922663E-1,-4.751224220E-1,-1.770523548E0
3.732674277E0,1.427497864E-1,-4.570123851E-1,-1.704475045E0
3.737708654E0,1.012032107E-1,-3.845722079E-1,-1.595814824E0
3.742786831E0,1.150520667E-1,-2.471488863E-1,-1.466913939E0
3.747891571E0,1.310315281E-1,-1.342274100E-1,-1.401930809E0
3.753246832E0,1.331621110E-1,-6.072192639E-2,-1.328425288E0
3.758039593E0,1.171826646E-1,-3.195890691E-3,-1.212307930E0
3.762740739E0,1.693822145E-1,8.948494494E-2,-1.036533952E0
3.768065428E0,2.567365468E-1,1.928187460E-1,-7.915156484E-1
3.773237927E0,2.173205763E-1,2.876301706E-1,-5.763256550E-1
3.778251679E0,1.672516167E-1,3.259808719E-1,-4.719265401E-1
3.783416262E0,1.651210189E-1,3.579397798E-1,-3.462215066E-1
3.788412357E0,1.480762810E-1,4.218575954E-1,-2.205164731E-1
3.793510950E0,1.171826646E-1,4.783183336E-1,-8.096256852E-2
3.798528399E0,8.628904819E-2,4.942977726E-1,1.225091442E-1
3.803787201E0,2.876301669E-2,4.964283705E-1,3.728539348E-1
3.808333348E0,-5.433014408E-2,5.124078393E-1,5.347790718E-1
3.813780327E0,-1.075949892E-1,5.582156181E-1,6.253293157E-1
3.818821110E0,-1.512721628E-1,6.562229395E-1,6.604840755E-1
3.823976630E0,-1.800351888E-1,7.851238251E-1,6.317210793E-1
3.829118663E0,-2.045370042E-1,8.639557958E-1,6.423740387E-1
3.834084444E0,-2.439530045E-1,9.001759291E-1,7.137489319E-1
3.839157674E0,-2.641936541E-1,9.300042391E-1,8.245398402E-1
3.844293559E0,-2.428877056E-1,9.779425859E-1,9.896608591E-1
3.849191425E0,-2.002758235E-1,1.000313878E0,1.178218365E0
3.854360123E0,-1.523374617E-1,1.015228033E0,1.330555916E0
3.859420489E0,-1.150520667E-1,1.028011560E0,1.431759119E0
3.864487884E0,-2.322347313E-1,8.319969177E-1,1.525505185E0
3.869566219E0,-5.273219943E-1,4.857754111E-1,1.665059090E0
3.874622365E0,-5.539544225E-1,4.484900236E-1,1.754544020E0
3.879809137E0,-4.048128426E-1,5.262566805E-1,1.573443532E0
3.884783980E0,-2.972178459E-1,5.454320312E-1,1.244266868E0
3.889806273E0,-2.684548199E-1,4.932324886E-1,9.800731540E-1
3.894907627E0,-2.876301706E-1,3.984210491E-1,7.968420982E-1
3.900061066E0,-3.068055212E-1,2.865648866E-1,6.210681200E-1
3.905099139E0,-3.004137278E-1,1.661863178E-1,4.261187613E-1
3.910039296E0,-2.609977424E-1,8.841964602E-2,2.769772112E-1
3.915519556E0,-1.747086942E-1,6.604841352E-2,1.523374617E-1
3.920318984E0,-8.522375673E-2,1.384885982E-2,-1.278356276E-2
3.925055703E0,-6.604841352E-2,-8.309315890E-2,-1.033338010E-1
3.930041694E0,-2.961525619E-1,-3.100014031E-1,-2.343653329E-2
3.935446954E0,-4.080087245E-1,-4.634041786E-1,9.587672353E-2
3.940519403E0,-3.249155581E-1,-5.422361493E-1,3.195890784E-2
3.945740913E0,-2.823036909E-1,-5.305178761E-1,-1.150520667E-1
3.950783988E0,-2.961525619E-1,-5.624767542E-1,-2.876301706E-1
3.955890029E0,-3.036096394E-1,-6.349169612E-1,-3.568744659E-1
3.960806541E0,-2.641936541E-1,-6.434393525E-1,-3.973557651E-1
3.966183259E0,-2.279735506E-1,-6.104151607E-1,-4.676653445E-1
3.970954771E0,-2.087981999E-1,-5.901744962E-1,-6.008274555E-1
3.975772062E0,-1.651210189E-1,-5.326484442E-1,-7.979074121E-1
3.981260397E0,-1.512721628E-1,-5.102772117E-1,-9.417225122E-1
3.986368730E0,-8.309315890E-2,-4.825794995E-1,-1.074884653E0
3.991204981E0,-4.261187743E-3,-4.463594258E-1,-1.203785539E0
3.996413262E0,1.597945392E-2,-4.697959423E-1,-1.265572786E0
4.001437847E0,3.941598535E-2,-5.273219943E-1,-1.281552196E0
4.006521596E0,-8.522375487E-3,-5.752603412E-1,-1.201654911E0
4.011741858E0,-1.363580078E-1,-6.849859357E-1,-1.050382733E0
4.016711129E0,-2.631283402E-1,-8.490416408E-1,-9.417225122E-1
4.021601182E0,-3.440909088E-1,-9.449183941E-1,-9.193512797E-1
4.026825557E0,-3.813762963E-1,-1.038664460E0,-9.811384678E-1
4.031940089E0,-3.728539348E-1,-1.136671782E0,-1.119627118E0
4.037122693E0,-8.309315890E-2,-1.672516227E0,-1.315641761E0
4.041982382E0,3.526133001E-1,-1.833376050E0,-1.371037126E0
4.047225351E0,2.535406649E-1,-1.248528004E0,-1.259181023E0
4.052098529E0,-1.395539045E-1,-9.385265708E-1,-1.216569066E0
4.057198841E0,-3.004137278E-1,-1.090864062E0,-1.156912446E0
4.062341967E0,-1.757739931E-1,-1.264507413E0,-9.992485046E-1
4.067438939E0,-7.776667923E-2,-1.225091457E0,-8.767393827E-1
4.072269833E0,-1.171826646E-1,-1.100451708E0,-8.277357221E-1
4.077392333E0,-1.800351888E-1,-1.054643989E0,-7.808626294E-1
4.082403532E0,-1.981452256E-1,-1.054643989E0,-7.020306587E-1
4.087572334E0,-2.215817571E-1,-1.005640268E0,-6.093498468E-1
4.092609679E0,-2.386265099E-1,-9.321348071E-1,-5.124078393E-1
4.097563116E0,-2.269082516E-1,-9.236124158E-1,-4.250534773E-1
4.102673898E0,-1.970799267E-1,-9.374613166E-1,-3.483521044E-1
4.107984575E0,-1.768392920E-1,-9.236124158E-1,-2.886954844E-1
4.112940566E0,-1.608598381E-1,-8.575640321E-1,-2.514100671E-1
4.117925253E0,-1.459456831E-1,-7.169448137E-1,-2.418224066E-1
4.122954109E0,-1.384886056E-1,-7.904503345E-1,-2.215817571E-1
4.128167494E0,-1.406191885E-1,-8.650211096E-1,-1.842963696E-1
4.133120360E0,-1.033338010E-1,-8.522375226E-1,-1.374233067E-1
4.138331610E0,-1.001379117E-1,-7.339895964E-1,-8.841964602E-2
4.143365882E0,-1.182479635E-1,-6.349169612E-1,-1.043990999E-1
4.148414996E0,-1.065296903E-1,-5.763256550E-1,-1.097255871E-1
4.153375987E0,-1.171826646E-1,-4.452941120E-1,-1.022685021E-1
4.158574841E0,-1.310315281E-1,-3.291767538E-1,-1.235744432E-1
4.163566196E0,-1.193132550E-1,-2.482141852E-1,-1.331621110E-1
4.168663904E0,-8.628904819E-2,-1.747086942E-1,-1.171826646E-1
4.173664687E0,-6.391781569E-2,-9.481142461E-2,-8.841964602E-2
4.178831926E0,-2.663242258E-2,-5.859133229E-2,-4.793836176E-2
4.183844427E0,2.024064213E-2,-1.161173657E-1,1.917534508E-2
4.188950052E0,2.876301669E-2,-1.757739931E-1,1.054643989E-1
4.193949741E0,1.917534508E-2,-2.972178459E-1,8.735434711E-2
4.199092970E0,-1.597945392E-2,-2.993484437E-1,9.268083423E-2
4.204114742E0,-1.811004803E-2,-2.290388346E-1,1.363580078E-1
4.209251981E0,-7.457078435E-3,-1.949493438E-1,1.416844875E-1
4.214294951E0,-2.024064213E-2,-1.853616685E-1,1.640557349E-1
4.219546722E0,-2.876301669E-2,-1.480762810E-1,2.109287977E-1
4.224383338E0,-2.876301669E-2,-1.139867753E-1,2.439530045E-1
4.229509952E0,-3.728539124E-2,-8.948494494E-2,2.663242221E-1
4.234524901E0,-4.687306657E-2,-3.515479714E-2,2.918913662E-1
4.239634953E0,-6.924430281E-2,5.219954997E-2,3.142625988E-1
4.244667611E0,-9.481142461E-2,1.395539045E-1,3.291767538E-1
4.249779016E0,-1.107908785E-1,2.173205763E-1,3.451561928E-1
4.254796257E0,-1.161173657E-1,2.918913662E-1,3.558091819E-1
4.259673288E0,-1.182479635E-1,3.504827023E-1,3.632662594E-1
4.264974696E0,-1.171826646E-1,4.005516469E-1,3.856374919E-1
4.270056258E0,-1.235744432E-1,4.335758388E-1,4.122699201E-1
4.275224280E0,-1.363580078E-1,4.623388648E-1,4.325105548E-1
4.280290732E0,-1.512721628E-1,4.740571380E-1,4.357064366E-1
4.285468760E0,-1.832310706E-1,4.580776691E-1,4.207922816E-1
4.290687302E0,-1.960146427E-1,4.783183336E-1,4.420982301E-1
4.295555116E0,-1.565986425E-1,4.719265401E-1,4.900365770E-1
4.300630792E0,-1.289009303E-1,4.186616838E-1,4.815142155E-1
4.305615846E0,-1.139867753E-1,4.112046063E-1,4.634041786E-1
4.310727356E0,-9.481142461E-2,4.474247098E-1,5.273219943E-1
4.315790066E0,-7.563608140E-2,4.570123851E-1,6.263945699E-1
4.320942721E0,-5.752603337E-2,4.101393223E-1,6.668758988E-1
4.325553296E0,-5.539543927E-2,3.675274551E-1,6.349169612E-1
4.331083400E0,-6.498311460E-2,4.058781266E-1,5.955010056E-1
4.336079547E0,-7.989726961E-2,3.675274551E-1,5.688685775E-1
4.341324859E0,-1.075949892E-1,2.237123549E-1,5.880439281E-1
4.346264287E0,-1.438150853E-1,1.097255871E-1,6.231986880E-1
4.351292204E0,-1.683169156E-1,6.924430281E-2,6.508964300E-1
4.356416163E0,-1.779045910E-1,2.769771963E-2,6.892471313E-1
4.361500798E0,-1.832310706E-1,-2.130593872E-3,7.648832202E-1
4.366520904E0,-1.896228492E-1,-4.367717355E-2,8.810005784E-1
4.371666372E0,-1.864269674E-1,-9.374613315E-2,9.406571984E-1
4.376607467E0,-1.747086942E-1,-1.342274100E-1,9.023064971E-1
4.381747728E0,-1.757739931E-1,-7.563608140E-2,7.734055519E-1
4.386800229E0,-1.853616685E-1,-4.900366068E-2,7.797973752E-1
4.391930541E0,-1.938840449E-1,-1.086602882E-1,8.831311464E-1
4.396777417E0,-1.874922663E-1,-1.597945392E-1,9.875302315E-1
4.402019709E0,-1.704475135E-1,-1.597945392E-1,1.104712963E0
4.407119606E0,-1.448803842E-1,-1.075949892E-1,1.210177302E0
4.412188929E0,-1.267703325E-1,-9.374613315E-2,1.265572786E0
4.417248409E0,-1.150520667E-1,-5.006895587E-2,1.291139841E0
4.422284554E0,-1.171826646E-1,-4.580776766E-2,1.328425288E0
4.427343358E0,-1.523374617E-1,-8.628904819E-2,1.283682823E0
4.432446743E0,-2.588671446E-1,-3.941598535E-2,1.180348992E0
4.437567734E0,-3.526133001E-1,-6.072192639E-2,1.080211043E0
4.442588411E0,-3.984210491E-1,-4.261187743E-3,9.779425859E-1
4.447690235E0,-3.728539348E-1,5.965662748E-2,9.555713534E-1
4.452825860E0,-3.366338313E-1,3.302420676E-2,9.608978629E-1
4.457764923E0,-2.929566503E-1,-1.811004803E-2,9.417225122E-1
4.462889038E0,-2.386265099E-1,-5.646073818E-2,9.001759291E-1
4.467882633E0,-1.885575503E-1,1.065296936E-3,8.032338619E-1
4.473014455E0,-1.001379117E-1,1.107908785E-1,7.062918544E-1
4.478198050E0,3.089361079E-2,2.077329010E-1,6.519617438E-1
4.483180446E0,1.597945392E-1,2.599324584E-1,6.434393525E-1
4.488231645E0,2.428877056E-1,2.546059787E-1,6.860512495E-1
4.493282582E0,2.801730931E-1,2.226470560E-1,7.712749839E-1
4.498343157E0,3.110667169E-1,1.789698899E-1,8.831311464E-1
4.503688261E0,3.643315434E-1,1.320968270E-1,9.853996634E-1
4.508460658E0,4.293146729E-1,7.883197069E-2,1.067427516E0
4.513574928E0,4.868406951E-1,1.704475097E-2,1.120692372E0
4.518604200E0,5.145384073E-1,-3.835069016E-2,1.104712963E0
4.523681752E0,5.145384073E-1,-4.900366068E-2,1.018423915E0
4.528759045E0,5.081466436E-1,-3.195890691E-3,9.161553383E-1
4.533907430E0,4.751224220E-1,6.604841352E-2,8.554334641E-1
4.538894359E0,4.410329461E-1,6.817900389E-2,7.755361795E-1
4.543992483E0,3.973557651E-1,5.859133229E-2,6.551576257E-1
4.549026912E0,3.611356616E-1,1.310315281E-1,5.699338317E-1
4.554176807E0,3.707233369E-1,3.803110123E-1,5.038854480E-1
4.559362017E0,4.058781266E-1,6.839206219E-1,5.134730935E-1
4.564507225E0,4.005516469E-1,8.564987183E-1,5.294525623E-1
4.569433164E0,2.812383771E-1,1.040795088E0,4.655347466E-1
4.574473476E0,9.587672539E-3,1.336947680E0,2.716507316E-1
4.579499050E0,-2.886954844E-1,1.535092831E0,2.982831374E-2
4.584779154E0,-4.751224220E-1,1.552137613E0,-1.683169156E-1
4.589571864E0,-4.719265401E-1,1.333751798E0,-2.396918088E-1
4.594723061E0,-2.929566503E-1,8.948494196E-1,-1.693822145E-1
4.599817333E0,-1.619251370E-1,5.614115000E-1,-6.498311460E-2
4.604863791E0,-7.457078248E-2,3.345032334E-1,9.268083423E-2
4.609832439E0,-1.278356276E-2,3.036096394E-1,3.366338313E-1
4.615026032E0,-8.202786744E-2,4.708612561E-1,6.082845330E-1
4.620069627E0,-2.098634988E-1,5.592808723E-1,9.278736115E-1
4.626961971E0,-2.620630562E-1,3.781804144E-1,1.171826601E0
4.630295930E0,-2.641936541E-1,1.267703325E-1,1.310315251E0
4.635411659E0,-3.131972849E-1,1.491415687E-2,1.448803782E0
4.640405254E0,-3.845722079E-1,9.055023640E-2,1.571313024E0
4.645556556E0,-3.984210491E-1,2.482141852E-1,1.712997437E0
4.650432651E0,-3.526133001E-1,3.323726356E-1,1.890902042E0
4.655611765E0,-2.705854177E-1,3.430256248E-1,2.124202013E0
4.660704475E0,-1.470109820E-1,3.387644291E-1,2.419289351E0
4.665664162E0,3.195890691E-3,3.483521044E-1,2.728225470E0
4.670679788E0,1.534027606E-1,3.142625988E-1,3.054206371E0
4.675908642E0,3.068055212E-1,1.587292403E-1,3.372730017E0
4.680886144E0,4.516859055E-1,-1.033338010E-1,3.437713146E0
4.686393279E0,6.327863932E-1,-3.888333738E-1,3.239567995E0
4.690994530E0,8.820658922E-1,-6.626147032E-1,2.937023640E0
4.696151248E0,1.152651310E0,-8.884576559E-1,2.573757410E0
4.701237812E0,1.392343044E0,-1.018423915E0,2.199838161E0
4.706499791E0,1.586227179E0,-1.198459029E0,1.900489688E0
4.711311563E0,1.667189717E0,-1.326294661E0,1.616055489E0
4.716428334E0,1.661863208E0,-1.377428889E0,1.350796461E0
4.721498127E0,1.562790632E0,-1.284748077E0,1.056774616E0
4.726630783E0,1.408322573E0,-1.264507413E0,7.489037514E-1
4.731619430E0,1.270899296E0,-1.252789140E0,4.889712930E-1
4.736708492E0,1.188871384E0,-1.169696093E0,3.142625988E-1
4.741939118E0,1.096190572E0,-9.662243128E-1,2.056023031E-1
4.746828181E0,9.704855084E-1,-6.519617438E-1,1.448803842E-1
4.751848390E0,8.224092126E-1,-4.080087245E-1,1.384886056E-1
4.756982452E0,6.540923119E-1,-2.897607684E-1,1.736433953E-1
4.761992089E0,4.772530198E-1,-1.757739931E-1,2.247776538E-1
4.767126881E0,3.408950269E-1,-8.522375673E-2,2.737812996E-1
4.772146934E0,2.631283402E-1,-1.842963696E-1,2.322347313E-1
4.777304382E0,2.258429527E-1,-2.950872481E-1,9.800732136E-2
4.782246362E0,2.428877056E-1,-1.885575503E-1,1.917534508E-2
4.787515164E0,2.471488863E-1,-6.072192639E-2,-4.048128426E-2
4.792395321E0,1.161173657E-1,1.193132550E-1,-9.587672353E-2
4.797599904E0,-1.352927089E-1,3.611356616E-1,-1.949493438E-1
4.802563708E0,-4.697959423E-1,5.262566805E-1,-3.739192188E-1
4.807704176E0,-7.190754414E-1,4.666000605E-1,-5.464973450E-1
4.812722355E0,-8.692823052E-1,4.389023483E-1,-6.487658620E-1
4.817861208E0,-1.112169981E0,5.869786143E-1,-7.212060094E-1
4.822860116E0,-1.675712109E0,8.266704082E-1,-8.117562532E-1
4.827627043E0,-2.274409056E0,7.148142457E-1,-8.085603714E-1
4.833135221E0,-2.728225470E0,3.526133001E-1,-6.647452712E-1
4.838094544E0,-3.024378061E0,-2.024064213E-2,-4.144005179E-1
4.843116941E0,-3.205478430E0,-2.045370042E-1,-1.246397421E-1
4.848371680E0,-3.289636850E0,-3.355685472E-1,1.363580078E-1
4.853242411E0,-3.306681633E0,-4.250534773E-1,3.345032334E-1
4.858410379E0,-3.286441088E0,-4.708612561E-1,4.612735808E-1
4.863473766E0,-3.216131449E0,-5.475625992E-1,5.070813298E-1
4.868643661E0,-3.064859390E0,-7.094877362E-1,4.591429830E-1
4.873506632E0,-2.830493927E0,-8.937841058E-1,3.419603109E-1
4.878734287E0,-2.576953173E0,-9.513101578E-1,1.874922663E-1
4.883701320E0,-2.343653202E0,-9.204165339E-1,9.587672539E-3
4.889101736E0,-2.156161070E0,-8.873923421E-1,-1.565986425E-1
4.893856217E0,-2.011280537E0,-9.193512797E-1,-2.908260524E-1
4.899089550E0,-1.901555061E0,-9.704855084E-1,-4.080087245E-1
4.903954864E0,-1.837637186E0,-9.981832504E-1,-5.283873081E-1
4.909114030E0,-1.842963696E0,-9.523754716E-1,-6.285251975E-1
4.914107677E0,-1.890902042E0,-8.309316039E-1,-6.519617438E-1
4.919237312E0,-1.872792006E0,-7.766014934E-1,-6.391781569E-1
4.924816896E0,-1.785437703E0,-7.457078695E-1,-6.370475888E-1
4.929918981E0,-1.718323946E0,-6.125457287E-1,-6.647452712E-1
4.934588662E0,-1.600075960E0,-5.230607986E-1,-7.190754414E-1
4.939670909E0,-1.363580108E0,-5.571503043E-1,-7.702096701E-1
4.944588982E0,-1.075949907E0,-6.381128430E-1,-8.288010359E-1
4.949576379E0,-7.595567107E-1,-7.989727259E-1,-9.086982608E-1
4.954932941E0,-3.867027760E-1,-9.896608591E-1,-1.039729834E0
4.959736640E0,2.343653329E-2,-1.170761347E0,-1.201654911E0
4.964865077E0,3.941598535E-1,-1.264507413E0,-1.315641761E0
4.969916068E0,6.604840755E-1,-1.273029804E0,-1.352927089E0
4.974982520E0,8.319969177E-1,-1.289009333E0,-1.320968151E0
4.980047163E0,9.470489621E-1,-1.311380506E0,-1.233613849E0
4.985135079E0,1.037599206E0,-1.303923488E0,-1.102582335E0
4.990277789E0,1.117496490E0,-1.304988742E0,-9.193512797E-1
4.994971278E0,1.189936638E0,-1.359318852E0,-7.094877362E-1
5.000577946E0,1.250658631E0,-1.429628491E0,-5.081466436E-1
5.005433258E0,1.307119370E0,-1.462652683E0,-3.462215066E-1
5.010616541E0,1.360384226E0,-1.455195665E0,-2.535406649E-1
5.015668207E0,1.412583709E0,-1.445607901E0,-2.514100671E-1
5.020295240E0,1.458391547E0,-1.482893348E0,-3.227849603E-1
5.025377896E0,1.515917540E0,-1.503134012E0,-4.420982301E-1
5.030433418E0,1.592618942E0,-1.462652683E0,-5.997622013E-1
5.035558938E0,1.668254972E0,-1.473305702E0,-7.829932570E-1
5.040544565E0,1.754544020E0,-1.554268241E0,-9.715508223E-1
5.045672585E0,1.851486087E0,-1.619251370E0,-1.163304210E0
5.050674566E0,1.939905763E0,-1.705540419E0,-1.346535325E0
5.055805138E0,2.038978338E0,-1.838702559E0,-1.513786912E0
5.060827640E0,2.150834560E0,-1.949493408E0,-1.652275562E0
5.065953421E0,2.245646000E0,-2.096504450E0,-1.748152256E0
5.070966807E0,2.351110220E0,-2.280800819E0,-1.798221231E0
5.076082068E0,2.473619461E0,-2.419289351E0,-1.803547740E0
5.081136288E0,2.602520466E0,-2.607846975E0,-1.764131784E0
5.086221079E0,2.752727270E0,-2.898673058E0,-1.699148655E0
5.091234309E0,2.915717602E0,-3.157540083E0,-1.632034898E0
5.096376913E0,3.068055153E0,-3.329052925E0,-1.557464123E0
5.101379310E0,3.159670830E0,-3.316269398E0,-1.434955001E0
5.106587643E0,3.173519611E0,-3.196956158E0,-1.284748077E0
5.111543791E0,3.163931847E0,-3.073381662E0,-1.168630719E0
5.116702124E0,3.161801338E0,-2.917848349E0,-1.054643989E0
5.121689729E0,3.190564394E0,-2.779359818E0,-9.555713534E-1
5.126802958E0,3.238502741E0,-2.623826265E0,-8.863270283E-1
5.132106709E0,3.282179832E0,-2.539667845E0,-8.458457589E-1
5.137141501E0,3.297094107E0,-2.476815462E0,-8.224092126E-1
5.142187492E0,3.299224615E0,-2.449117661E0,-8.224092126E-1
5.147444887E0,3.300289869E0,-2.448052406E0,-8.362581134E-1
5.152448013E0,3.304551125E0,-2.425681114E0,-8.501069546E-1
5.157533378E0,3.309877634E0,-2.369220495E0,-8.596946001E-1
5.162583744E0,3.314138651E0,-2.303171873E0,-8.607599139E-1
5.167859264E0,3.329052925E0,-2.287192583E0,-8.575640321E-1
5.172925463E0,3.358881235E0,-2.270147800E0,-8.533028364E-1
5.178225932E0,3.397231817E0,-2.223274708E0,-8.522375226E-1
5.182953277E0,3.434517384E0,-2.198772907E0,-8.501069546E-1
5.187963850E0,3.467541456E0,-2.236058235E0,-8.309316039E-1
5.193218538E0,3.484586239E0,-2.304237366E0,-7.904503345E-1
5.198150205E0,3.489912748E0,-2.374546766E0,-7.201407552E-1
5.203206196E0,3.489912748E0,-2.432072878E0,-6.136110425E-1
5.208421716E0,3.498435020E0,-2.410767078E0,-4.793836176E-1
5.213295676E0,3.506957531E0,-2.327673912E0,-3.259808719E-1
5.218391248E0,3.503761530E0,-2.245646000E0,-1.736433953E-1
5.223456302E0,3.478194475E0,-2.168944597E0,-3.941598535E-2
5.228531197E0,3.444104910E0,-2.128463268E0,6.817900389E-2
5.233587761E0,3.430256128E0,-2.130593777E0,1.555333585E-1
5.238875052E0,3.416407347E0,-2.061349630E0,2.407571077E-1
5.244068543E0,3.401493073E0,-2.012346029E0,3.078708053E-1
5.248898647E0,3.411080837E0,-2.015541792E0,3.472867906E-1
5.253909065E0,3.453692675E0,-2.067741394E0,3.494173884E-1
5.258965159E0,3.536785841E0,-2.119940996E0,2.961525619E-1
5.264074379E0,3.656099081E0,-2.144442797E0,1.938840449E-1
5.269121514E0,3.809501886E0,-2.138051033E0,8.096256852E-2
5.274220578E0,3.995928764E0,-2.083720922E0,-1.811004803E-2
5.278979119E0,4.200465679E0,-1.967603445E0,-4.048128426E-2
5.284310631E0,4.423112869E0,-1.914338589E0,-6.391781382E-3
5.289467558E0,4.636172295E0,-1.875987887E0,-4.261187743E-3
5.294465996E0,4.732048988E0,-1.630969644E0,1.811004803E-2
5.299548548E0,4.707547188E0,-1.346535325E0,5.219954997E-2
5.304798706E0,4.651086330E0,-1.166500092E0,9.800732136E-2
5.309762872E0,4.574385166E0,-9.672896266E-1,1.704475135E-1
5.314770998E0,4.455071926E0,-7.563608289E-1,2.567365468E-1
5.319846258E0,4.276102066E0,-5.805868506E-1,3.121320009E-1
5.324859749E0,4.024692059E0,-4.261187613E-1,3.696580231E-1
5.330000478E0,3.740257502E0,-3.930945694E-1,4.165311158E-1
5.335083188E0,3.432386637E0,-4.250534773E-1,4.687306583E-1
5.340359386E0,3.104275227E0,-4.463594258E-1,5.390402675E-1
5.345211054E0,2.777229071E0,-4.644694626E-1,6.104151607E-1
5.350216464E0,2.460835934E0,-4.857754111E-1,6.711370945E-1
5.355264336E0,2.158291578E0,-5.006895661E-1,7.190754414E-1
5.360516419E0,1.866400242E0,-4.964283705E-1,7.435772419E-1
5.365449128E0,1.595814824E0,-4.708612561E-1,7.339895964E-1
5.370736420E0,1.360384226E0,-4.357064366E-1,6.924430132E-1
5.375608973E0,1.156912446E0,-3.685927391E-1,6.317210793E-1
5.380735587E0,9.758120179E-1,-3.004137278E-1,5.656726956E-1
5.385771526E0,8.096256852E-1,-3.014790416E-1,5.006895661E-1
5.390932776E0,6.615493894E-1,-3.302420378E-1,4.335758388E-1
5.395885329E0,5.411708355E-1,-3.728539348E-1,3.781804144E-1
5.401005173E0,4.538165033E-1,-4.186616838E-1,3.398297131E-1
5.406027310E0,3.835068941E-1,-4.452941120E-1,3.366338313E-1
5.411315018E0,3.131972849E-1,-4.420982301E-1,3.696580231E-1
5.416111321E0,2.407571077E-1,-3.930945694E-1,4.293146729E-1
5.421346842E0,1.693822145E-1,-2.950872481E-1,5.070813298E-1
5.426274864E0,1.033338010E-1,-1.651210189E-1,5.965662599E-1
5.431461999E0,4.154657945E-2,-6.285251677E-2,6.871165037E-1
5.436576063E0,-9.587672539E-3,6.391781382E-3,7.776667476E-1
5.441533250E0,-4.367717355E-2,1.097255871E-1,8.618252277E-1
5.446737105E0,-7.457078248E-2,2.119940966E-1,9.193512797E-1
5.451853720E0,-1.129214764E-1,2.673895359E-1,9.502448440E-1
5.456760440E0,-1.480762810E-1,2.215817571E-1,9.491795897E-1
5.462233721E0,-1.672516167E-1,8.948494494E-2,9.097635746E-1
5.466845441E0,-1.651210189E-1,-4.367717355E-2,8.319969177E-1
5.472046534E0,-1.363580078E-1,-1.150520667E-1,7.190754414E-1
5.476960494E0,-1.001379117E-1,-1.736433953E-1,5.944356918E-1
5.482246066E0,-7.030959427E-2,-2.247776538E-1,4.942977726E-1
5.487188672E0,-4.687306657E-2,-2.439530045E-1,4.335758388E-1
5.492264349E0,-3.089361079E-2,-2.141246796E-1,4.090740085E-1
5.497340235E0,-1.917534508E-2,-1.544680595E-1,4.048128426E-1
5.502360183E0,-1.171826664E-2,-9.587672353E-2,4.069434404E-1
5.507594716E0,-1.065296959E-2,-4.687306657E-2,4.112046063E-1
5.512726746E0,-6.391781382E-3,4.048128426E-2,4.122699201E-1
5.517614508E0,-6.391781382E-3,1.597945392E-1,4.165311158E-1
5.522797789E0,-2.556712553E-2,2.439530045E-1,4.346411526E-1
5.527824405E0,-7.350549102E-2,2.705854177E-1,4.634041786E-1
5.533166644E0,-1.565986425E-1,2.705854177E-1,4.953630865E-1
5.537818729E0,-2.641936541E-1,2.737812996E-1,5.156037211E-1
5.542967479E0,-3.984210491E-1,2.929566503E-1,5.187996030E-1
5.547962220E0,-5.603461862E-1,3.195890784E-1,5.198649168E-1
5.553141334E0,-7.457078695E-1,3.451561928E-1,5.443667173E-1
5.558112116E0,-9.470489621E-1,3.568744659E-1,5.976315737E-1
5.563360189E0,-1.154781938E0,3.451561928E-1,6.732676625E-1
5.568401284E0,-1.353992462E0,2.950872481E-1,7.414466739E-1
5.573355502E0,-1.516982794E0,2.215817571E-1,7.787320614E-1
5.578447848E0,-1.635230780E0,1.672516167E-1,7.819279432E-1
5.583508264E0,-1.716193318E0,1.459456831E-1,7.670137882E-1
5.588684672E0,-1.769458175E0,1.661863178E-1,7.446425557E-1
5.593711546E0,-1.806743622E0,2.162552774E-1,7.148142457E-1
5.598776027E0,-1.834441304E0,2.695201337E-1,6.700717807E-1
5.603805297E0,-1.865334988E0,3.355685472E-1,5.965662599E-1
5.608784986E0,-1.905816197E0,4.186616838E-1,4.996242523E-1
5.614068007E0,-1.954819918E0,5.038854480E-1,4.112046063E-1
5.619103112E0,-2.016607046E0,5.827174187E-1,3.590050638E-1
5.624235508E0,-2.086916685E0,6.551576257E-1,3.579397798E-1
5.629116082E0,-2.160422087E0,7.137489319E-1,3.962904513E-1
5.634264675E0,-2.230731726E0,7.563608289E-1,4.495553076E-1
5.639356499E0,-2.289323092E0,7.680791020E-1,4.942977726E-1
5.644563270E0,-2.324477911E0,7.435772419E-1,5.241261125E-1
5.649394417E0,-2.335130930E0,6.743329763E-1,5.454320312E-1
5.654530615E0,-2.333000183E0,5.475625992E-1,5.688685775E-1
5.659659783E0,-2.307433128E0,3.771151006E-1,5.837827325E-1
5.664692178E0,-2.257364273E0,2.151899785E-1,5.805868506E-1
5.669673534E0,-2.181728125E0,9.374613315E-2,5.592808723E-1
5.674755981E0,-2.084786177E0,1.704475097E-2,5.198649168E-1
5.679911087E0,-1.982517600E0,-7.457078435E-3,4.697959423E-1
5.685027962E0,-1.883445024E0,1.597945392E-2,4.144005179E-1
5.689942025E0,-1.789698839E0,6.817900389E-2,3.568744659E-1
5.695179681E0,-1.699148655E0,1.480762810E-1,3.025443256E-1
5.700168381E0,-1.609663725E0,2.514100671E-1,2.684548199E-1
5.705356297E0,-1.520178676E0,3.760498166E-1,2.567365468E-1
5.710296402E0,-1.441346765E0,5.156037211E-1,2.705854177E-1
5.715381402E0,-1.379559517E0,6.445046663E-1,3.089361191E-1
5.720532966E0,-1.331621170E0,7.680791020E-1,3.760498166E-1
5.725537705E0,-1.290074587E0,9.086982608E-1,4.580776691E-1
5.730678904E0,-1.267703295E0,1.065296888E0,5.507585406E-1
5.735720935E0,-1.277291059E0,1.222960830E0,6.658105850E-1
5.740815989E0,-1.329490542E0,1.368906617E0,8.106909394E-1
5.745787082E0,-1.416844964E0,1.521244049E0,9.907261729E-1
5.750853229E0,-1.528701067E0,1.699148655E0,1.200589657E0
5.755943594E0,-1.652275562E0,1.903685570E0,1.425367355E0
5.761059012E0,-1.771588802E0,2.114614487E0,1.643753171E0
5.766262345E0,-1.879183769E0,2.307433128E0,1.845094323E0
5.771103596E0,-1.966538191E0,2.485337734E0,2.027260065E0
5.776209116E0,-2.024064064E0,2.655785322E0,2.196642399E0
5.781418857E0,-2.061349630E0,2.821971655E0,2.361763239E0
5.786474222E0,-2.083720922E0,3.002006769E0,2.526884317E0
5.791378963E0,-2.093308449E0,3.210804939E0,2.693070650E0
5.796533285E0,-2.084786177E0,3.463280439E0,2.863518238E0
5.801728391E0,-2.066676140E0,3.732800484E0,3.038226843E0
5.806663442E0,-2.040043592E0,3.990602255E0,3.211870193E0
5.811699954E0,-2.011280537E0,4.205792427E0,3.358881235E0
5.816864954E0,-1.976125836E0,4.367717266E0,3.464345694E0
5.821980372E0,-1.930317998E0,4.468920708E0,3.524002314E0
5.826957976E0,-1.873857260E0,4.521120071E0,3.548504114E0
5.831937664E0,-1.802482367E0,4.538165092E0,3.553830624E0
5.837185425E0,-1.728976965E0,4.518989563E0,3.541047096E0
5.842216936E0,-1.652275562E0,4.471051216E0,3.490978003E0
5.847402040E0,-1.563855886E0,4.385827541E0,3.394036055E0
5.852297771E0,-1.464783311E0,4.237751007E0,3.244894505E0
5.857504281E0,-1.367841244E0,4.012973785E0,3.041422844E0
5.862453293E0,-1.309249878E0,3.789261103E0,2.783620834E0
5.867636209E0,-1.253854513E0,3.570875406E0,2.457639933E0
5.872522825E0,-1.159043074E0,3.374860764E0,2.097569704E0
5.877738293E0,-1.053578615E0,3.263004541E0,1.754544020E0
5.882640690E0,-9.790078998E-1,3.241698503E0,1.444542646E0
5.887864440E0,-9.513101578E-1,3.271526814E0,1.205916166E0
5.892882254E0,-9.704855084E-1,3.305616379E0,1.055709243E0
5.897912879E0,-1.032272696E0,3.338640690E0,9.875302315E-1
5.904722879E0,-1.116431236E0,3.385513544E0,9.917914271E-1
5.908025745E0,-1.197393775E0,3.436647892E0,1.068492770E0
5.913206265E0,-1.254919767E0,3.496304512E0,1.209112048E0
5.918173506E0,-1.281552196E0,3.559157133E0,1.400865436E0
5.923394235E0,-1.270899296E0,3.629466772E0,1.629904270E0
5.928481632E0,-1.242136240E0,3.702972174E0,1.872792006E0
5.933423403E0,-1.291139841E0,3.815893650E0,2.072002649E0
5.938461321E0,-1.364645362E0,3.715755701E0,2.181728125E0
5.943567675E0,-1.331621170E0,3.296028614E0,2.175336361E0
5.948610332E0,-1.219764948E0,2.770837307E0,2.020868301E0
5.953686895E0,-1.061035752E0,2.275474310E0,1.724715710E0
5.958853667E0,-8.607599139E-1,1.837637186E0,1.326294661E0
5.963895021E0,-6.253293157E-1,1.499938130E0,8.458457589E-1
5.968871845E0,-3.803110123E-1,1.281552196E0,3.206543922E-1
5.974026011E0,-1.448803842E-1,1.138802409E0,-1.970799267E-1
5.979070387E0,5.219954997E-2,1.079145789E0,-6.551576257E-1
5.984336689E0,1.342274100E-1,1.150520682E0,-1.042925715E0
5.989304816E0,6.711370498E-2,1.287943959E0,-1.356122971E0
5.994380909E0,-1.161173657E-1,1.441346765E0,-1.586227179E0
5.999311796E0,-3.813762963E-1,1.613924861E0,-1.714062810E0
6.004435181E0,-6.988347769E-1,1.805678248E0,-1.799286485E0
6.009396901E0,-1.068492770E0,2.058153629E0,-1.857877851E0
6.014887994E0,-1.460522056E0,2.290388346E0,-1.879183769E0
6.019698829E0,-1.842963696E0,2.433138132E0,-1.869596124E0
6.024839922E0,-2.209425926E0,2.539667845E0,-1.840833068E0
6.029862580E0,-2.562039137E0,2.629152775E0,-1.808874249E0
6.034819663E0,-2.877367020E0,2.674960613E0,-1.770523548E0
6.039872529E0,-3.146887064E0,2.631283522E0,-1.720454574E0
6.044970081E0,-3.358881235E0,2.312759638E0,-1.661863208E0
6.049998572E0,-3.548504114E0,1.724715710E0,-1.621381879E0
6.055332894E0,-3.676339626E0,1.165434837E0,-1.643753171E0
6.060207687E0,-3.575136423E0,7.105530500E-1,-1.728976965E0
6.065340083E0,-3.202282667E0,3.675274551E-1,-1.826984286E0
6.070295240E0,-2.562039137E0,2.471488863E-1,-1.899424434E0
6.075595761E0,-1.842963696E0,1.597945392E-1,-1.933513880E0
6.080430866E0,-1.411518455E0,-1.704475135E-1,-1.967603445E0
6.085678210E0,-9.992485046E-1,-3.845722079E-1,-1.959081054E0
6.090539774E0,-7.659484744E-1,-4.985589683E-1,-1.962276936E0
6.095875555E0,-7.190754414E-1,-5.422361493E-1,-2.004888773E0
6.100776545E0,-7.723402977E-1,-5.859133005E-1,-2.089047194E0
6.105861233E0,-9.193512797E-1,-5.326484442E-1,-2.189185143E0
6.110881234E0,-1.038664460E0,-5.486279130E-1,-2.252037764E0
6.115954671E0,-1.083406925E0,-5.933703780E-1,-2.250972509E0
6.121003735E0,-1.098321199E0,-5.550196767E-1,-2.183858633E0
6.126090297E0,-1.105778217E0,-4.261187613E-1,-2.070937157E0
6.131021548E0,-1.111104727E0,-2.482141852E-1,-1.934579253E0
6.136307225E0,-1.107908845E0,-8.415845782E-2,-1.756674647E0
6.141390612E0,-1.065296888E0,-3.515479714E-2,-1.521244049E0
6.146435872E0,-9.768772721E-1,-2.450183034E-2,-1.253854513E0
6.151469832E0,-8.501069546E-1,1.491415687E-2,-9.843343496E-1
6.156503633E0,-7.073571682E-1,-8.522375487E-3,-7.403813601E-1
6.161569416E0,-5.464973450E-1,-8.522375673E-2,-5.454320312E-1
6.166697176E0,-3.622009456E-1,-1.576639414E-1,-4.282493591E-1
6.171685198E0,-1.779045910E-1,-2.077329010E-1,-3.835068941E-1
6.176895250E0,-4.261187743E-3,-2.215817571E-1,-3.952251673E-1
6.181854991E0,1.491415650E-1,-2.290388346E-1,-4.484900236E-1
6.187002022E0,2.961525619E-1,-2.695201337E-1,-5.283873081E-1
6.191969836E0,4.474247098E-1,-3.014790416E-1,-6.178722382E-1
6.197165200E0,6.061539650E-1,-2.972178459E-1,-7.041612864E-1
6.202148222E0,7.563608289E-1,-2.823036909E-1,-7.680791020E-1
6.207293378E0,8.671516776E-1,-2.886954844E-1,-8.181480169E-1
6.212364838E0,9.470489621E-1,-3.281114697E-1,-8.884576559E-1
6.217425254E0,1.016293287E0,-3.803110123E-1,-9.917914271E-1
6.222360360E0,1.090864062E0,-3.930945694E-1,-1.111104727E0
6.227562078E0,1.182479620E0,-3.760498166E-1,-1.220830321E0
6.232532548E0,1.284748077E0,-3.579397798E-1,-1.290074587E0
6.237724787E0,1.392343044E0,-3.536785841E-1,-1.310315251E0
6.242692080E0,1.488219857E0,-3.685927391E-1,-1.281552196E0
6.247907236E0,1.577704787E0,-3.952251673E-1,-1.228287339E0
6.252912647E0,1.660797954E0,-3.994863629E-1,-1.170761347E0
6.257943696E0,1.738564610E0,-3.590050638E-1,-1.118561745E0
6.262993124E0,1.805678248E0,-3.217196763E-1,-1.066362262E0
6.268308697E0,1.862138987E0,-3.345032334E-1,-1.002444386E0
6.273205729E0,1.888771415E0,-3.068055212E-1,-9.268083572E-1
6.278302864E0,1.878118515E0,-2.503447831E-1,-8.543681502E-1
6.283245053E0,1.857877851E0,-2.343653291E-1,-8.042991757E-1
6.288346459E0,1.850420833E0,-2.407571077E-1,-7.648832202E-1
6.293455263E0,1.865334988E0,-1.960146427E-1,-7.510343194E-1
6.298707033E0,1.869596124E0,-5.859133229E-2,-7.893850207E-1
6.303718180E0,1.822723031E0,1.512721628E-1,-8.788699508E-1
6.308898909E0,1.780111194E0,2.471488863E-1,-9.427877665E-1
6.313842973E0,1.679973245E0,4.580776691E-1,-9.278736115E-1
6.318875525E0,1.421106100E0,9.736813903E-1,-8.042991757E-1
6.323889328E0,1.057839870E0,1.385951281E0,-5.923051238E-1
6.328919901E0,7.254672050E-1,1.328425288E0,-3.941598535E-1
6.333946725E0,3.952251673E-1,1.253854513E0,-2.354306281E-1
6.339128027E0,1.043990999E-1,1.148390055E0,-1.459456831E-1
6.344087455E0,-1.054643989E-1,9.587672353E-1,-1.448803842E-1
6.349214948E0,-2.439530045E-1,7.265325189E-1,-2.098634988E-1
6.354251935E0,-3.771151006E-1,6.157416105E-1,-2.759118974E-1
6.359427768E0,-5.507585406E-1,6.029580832E-1,-2.599324584E-1
6.364277613E0,-5.230607986E-1,6.125457287E-1,-2.705854177E-1
6.369570738E0,-3.174584806E-1,8.746087551E-1,-3.483521044E-1
6.374493604E0,-8.628904819E-2,9.971179366E-1,-4.122699201E-1
6.379673604E0,4.048128426E-2,8.426498771E-1,-4.783183336E-1
6.384694595E0,4.580776766E-2,6.146763563E-1,-6.061539650E-1
6.389893344E0,-4.048128426E-2,5.038854480E-1,-7.691444159E-1
6.394812512E0,-1.800351888E-1,4.602082670E-1,-9.193512797E-1
6.400084179E0,-3.174584806E-1,4.090740085E-1,-1.007770896E0
6.404622722E0,-4.133352041E-1,3.100014031E-1,-1.019489169E0
6.409936367E0,-4.602082670E-1,1.842963696E-1,-9.896608591E-1
6.415067514E0,-4.623388648E-1,8.309315890E-2,-9.300042391E-1
6.420258660E0,-4.378370345E-1,4.048128426E-2,-8.405193090E-1
6.425243453E0,-4.261187613E-1,6.072192639E-2,-7.446425557E-1
6.430566473E0,-4.048128426E-1,1.938840449E-1,-6.839206219E-1
6.435388759E0,-3.462215066E-1,3.568744659E-1,-6.391781569E-1
6.440722724E0,-2.599324584E-1,4.921671748E-1,-6.168069243E-1
6.445542726E0,-1.629904360E-1,5.795215368E-1,-6.306557655E-1
6.450660486E0,-7.030959427E-2,6.178722382E-1,-6.711370945E-1
6.455760122E0,1.704475097E-2,6.583535075E-1,-7.190754414E-1
6.461203716E0,8.735434711E-2,7.116183639E-1,-7.670137882E-1
6.466047676E0,1.384886056E-1,7.947115302E-1,-8.213439584E-1
6.471024498E0,1.864269674E-1,9.385265708E-1,-8.447804451E-1
6.476237781E0,2.354306281E-1,1.028011560E0,-8.479763865E-1
6.481168249E0,2.716507316E-1,1.036533952E0,-8.724781871E-1
6.486155282E0,3.004137278E-1,1.072754025E0,-9.161553383E-1
6.491247729E0,3.515479863E-1,1.234679103E0,-9.747467041E-1
6.496312887E0,4.175963998E-1,1.398734927E0,-1.014162660E0
6.501409710E0,4.346411526E-1,1.545745850E0,-1.059970498E0
6.506450180E0,3.867027760E-1,1.671450853E0,-1.114300609E0
6.511523252E0,3.121320009E-1,1.758805275E0,-1.169696093E0
6.516530233E0,2.631283402E-1,1.668254972E0,-1.172891974E0
6.521765701E0,1.960146427E-1,1.341208816E0,-1.107908845E0
6.526631327E0,8.096256852E-2,9.992485046E-1,-1.045056343E0
6.531823306E0,-3.835069016E-2,7.702096701E-1,-9.747467041E-1
6.536855078E0,-6.391781569E-2,6.860512495E-1,-8.746087551E-1
6.541947526E0,-3.302420676E-2,6.562229395E-1,-8.138868809E-1
6.547944454E0,2.130593872E-3,6.178722382E-1,-8.021686077E-1
6.552147580E0,1.171826664E-2,5.667379498E-1,-8.213439584E-1
6.557505757E0,7.457078435E-3,5.773909688E-1,-8.362581134E-1
6.562333310E0,-2.450183034E-2,4.889712930E-1,-8.341274858E-1
6.567378049E0,-8.309315890E-2,4.357064366E-1,-8.064298034E-1
6.572451540E0,-1.331621110E-1,4.516859055E-1,-7.616873384E-1
6.577626853E0,-1.661863178E-1,4.687306583E-1,-7.020306587E-1
6.582506906E0,-1.874922663E-1,4.538165033E-1,-6.434393525E-1
6.587616645E0,-1.896228492E-1,4.282493591E-1,-6.072192788E-1
6.592890709E0,-1.704475135E-1,4.048128426E-1,-5.848480463E-1
6.597784094E0,-1.214438528E-1,4.058781266E-1,-6.072192788E-1
6.602762845E0,-5.965662748E-2,3.558091819E-1,-6.700717807E-1
6.607932324E0,1.065296936E-3,3.376991153E-1,-7.009654045E-1
6.613021961E0,4.367717355E-2,2.918913662E-1,-6.743329763E-1
6.618119148E0,5.539543927E-2,2.663242221E-1,-5.454320312E-1
6.623040295E0,8.309315890E-2,3.898986876E-1,-4.282493591E-1
6.628276805E0,1.416844875E-1,6.125457287E-1,-3.835068941E-1
6.633179411E0,2.173205763E-1,7.446425557E-1,-4.133352041E-1
6.639184775E0,2.918913662E-1,7.691444159E-1,-4.474247098E-1
6.643366124E0,3.494173884E-1,7.254672050E-1,-4.612735808E-1
6.648480349E0,3.611356616E-1,7.563608289E-1,-4.708612561E-1
6.653587069E0,3.483521044E-1,8.224092126E-1,-4.772530198E-1
6.658607798E0,3.632662594E-1,8.607599139E-1,-5.017548800E-1
6.663589674E0,3.867027760E-1,8.415845633E-1,-5.177342892E-1
6.668809205E0,4.069434404E-1,7.755361795E-1,-5.241261125E-1
6.673807540E0,4.357064366E-1,7.286630869E-1,-5.411708355E-1
6.678856446E0,4.634041786E-1,7.137489319E-1,-5.326484442E-1
6.683877229E0,4.942977726E-1,7.212060094E-1,-4.974936545E-1
6.689267957E0,5.273219943E-1,7.947115302E-1,-4.580776691E-1
6.694279365E0,5.731297731E-1,9.246777296E-1,-4.367717505E-1
6.699429521E0,6.253293157E-1,1.054643989E0,-4.484900236E-1
6.704233949E0,6.753982306E-1,1.182479620E0,-4.815142155E-1
6.709412491E0,7.318589687E-1,1.324164033E0,-5.262566805E-1
6.714387961E0,8.213439584E-1,1.498872757E0,-5.635420680E-1
6.719391867E0,9.438530803E-1,1.731107473E0,-5.869786143E-1
6.725452648E0,1.086602926E0,1.995301127E0,-6.040233374E-1
6.729572956E0,1.230417967E0,2.217948198E0,-6.359822750E-1
6.734660670E0,1.363580108E0,2.328739166E0,-7.030959725E-1
6.740003484E0,1.464783311E0,2.386265039E0,-7.904503345E-1
6.744875567E0,1.540419340E0,2.412897587E0,-8.852617741E-1
6.749773693E0,1.523374677E0,2.341522694E0,-9.630284309E-1
6.754884058E0,1.263442159E0,2.123136759E0,-9.726160765E-1
6.759892028E0,7.201407552E-1,1.767327666E0,-8.810005784E-1
6.765077705E0,2.130593918E-2,1.278356314E0,-7.382507920E-1
6.770106404E0,-6.487658620E-1,7.510343194E-1,-6.029580832E-1
6.775190310E0,-1.152651310E0,4.197269976E-1,-4.974936545E-1
6.780204426E0,-1.389147162E0,3.728539348E-1,-4.005516469E-1
6.785442654E0,-1.376363635E0,4.985589683E-1,-3.313073516E-1
6.790350416E0,-1.176087856E0,7.787320614E-1,-3.174584806E-1
6.795527655E0,-8.927188516E-1,1.098321199E0,-3.185237944E-1
6.800602865E0,-6.263945699E-1,1.294335723E0,-3.174584806E-1
6.805594792E0,-4.122699201E-1,1.300727606E0,-3.142625988E-1
6.810684116E0,-2.663242221E-1,1.170761347E0,-2.823036909E-1
6.815891981E0,-1.811004728E-1,1.020554423E0,-2.215817571E-1
6.820803023E0,-1.395539045E-1,8.586293459E-1,-1.150520667E-1
6.826025992E0,-1.374233067E-1,6.785941720E-1,-3.195890691E-3
6.831117243E0,-1.715128124E-1,5.230607986E-1,3.195890784E-2
6.836278337E0,-2.237123549E-1,3.909639716E-1,1.171826664E-2
6.841169171E0,-2.865648866E-1,2.556712627E-1,-1.917534508E-2
6.846349483E0,-3.408950269E-1,1.502068639E-1,-7.030959427E-2
6.851385415E0,-3.600703776E-1,8.735434711E-2,-1.161173657E-1
6.856349068E0,-3.526133001E-1,3.728539124E-2,-1.459456831E-1
6.861361048E0,-3.440909088E-1,-5.219954997E-2,-1.406191885E-1
6.866111621E0,-3.494173884E-1,-1.661863178E-1,-1.150520667E-1
6.871507820E0,-3.643315434E-1,-2.631283402E-1,-8.628904819E-2
6.876635684E0,-3.856374919E-1,-3.376991153E-1,-4.580776766E-2
6.881695842E0,-4.144005179E-1,-4.048128426E-1,-1.065296936E-3
6.886727404E0,-4.506205916E-1,-4.857754111E-1,4.900366068E-2
6.891876208E0,-5.145384073E-1,-5.837827325E-1,1.043990999E-1
6.896895582E0,-6.295905113E-1,-6.913776994E-1,1.523374617E-1
6.901968917E0,-6.743329763E-1,-7.339895964E-1,1.672516167E-1
6.907025323E0,-6.892471313E-1,-7.723402977E-1,1.363580078E-1
6.912136783E0,-7.137489319E-1,-7.925809026E-1,9.907261282E-2
6.917317772E0,-6.839206219E-1,-6.508964300E-1,3.408950195E-2
6.922182461E0,-5.635420680E-1,-3.504827023E-1,-2.769771963E-2
6.927419023E0,-3.888333738E-1,-7.137489319E-2,-6.924430281E-2
6.932520587E0,-1.853616685E-1,8.735434711E-2,-9.907261282E-2
6.937491159E0,1.597945392E-2,1.597945392E-1,-1.310315281E-1
6.942477879E0,1.981452256E-1,2.002758235E-1,-1.864269674E-1
6.947690535E0,3.078708053E-1,2.663242221E-1,-2.045370042E-1
6.952647412E0,3.345032334E-1,3.206543922E-1,-1.704475135E-1
6.957925640E0,3.036096394E-1,2.673895359E-1,-1.374233067E-1
6.962816788E0,2.226470560E-1,1.363580078E-1,-1.065296903E-1
6.967978766E0,1.289009303E-1,-9.587672539E-3,-8.522375673E-2
6.972946789E0,5.326484516E-2,-1.150520667E-1,-6.604841352E-2
6.978126632E0,-6.391781382E-3,-1.800351888E-1,-4.900366068E-2
6.982715852E0,-3.728539124E-2,-2.482141852E-1,-4.900366068E-2
6.988201321E0,-5.113425106E-2,-3.227849603E-1,-6.178722158E-2
6.993147780E0,-5.965662748E-2,-3.888333738E-1,-9.055023640E-2
6.998305794E0,-7.244019210E-2,-4.612735808E-1,-1.299662292E-1
7.003266010E0,-9.055023640E-2,-5.486279130E-1,-1.683169156E-1
7.008364187E0,-1.246397421E-1,-6.530269980E-1,-1.821657717E-1
7.013362261E0,-1.629904360E-1,-7.137489319E-1,-1.736433953E-1
7.018562834E0,-1.949493438E-1,-7.233366370E-1,-1.629904360E-1
7.023515544E0,-2.119940966E-1,-6.999000907E-1,-1.480762810E-1
7.028628200E0,-2.237123549E-1,-6.690064669E-1,-1.416844875E-1
7.033681274E0,-2.354306281E-1,-6.508964300E-1,-1.544680595E-1
7.038873357E0,-2.492794842E-1,-6.583535075E-1,-1.736433953E-1
7.043795910E0,-2.578018606E-1,-6.913776994E-1,-1.885575503E-1
7.048951952E0,-2.556712627E-1,-7.286630869E-1,-2.002758235E-1
7.053984870E0,-2.471488863E-1,-7.702096701E-1,-2.151899785E-1
7.059179400E0,-2.237123549E-1,-7.925809026E-1,-2.301041335E-1
7.064080600E0,-2.002758235E-1,-7.648832202E-1,-2.375612110E-1
7.069264037E0,-1.704475135E-1,-6.722023487E-1,-2.258429527E-1
7.074213049E0,-1.363580078E-1,-4.964283705E-1,-2.034717202E-1
7.079397736E0,-1.001379117E-1,-2.844342887E-1,-1.640557349E-1
7.084385237E0,-6.817900389E-2,-1.342274100E-1,-1.150520667E-1
7.089504247E0,-4.900366068E-2,-4.793836176E-2,-7.776667923E-2
7.094526072E0,-2.663242258E-2,1.065296959E-2,-5.539543927E-2
7.099666488E0,-6.391781382E-3,3.195890784E-2,-4.900366068E-2
7.104647270E0,1.704475097E-2,1.704475097E-2,-6.178722158E-2
7.109895708E0,3.835069016E-2,-3.835069016E-2,-5.113425106E-2
7.114923105E0,7.137489319E-2,-9.374613315E-2,-4.793836176E-2
7.119973104E0,9.907261282E-2,-1.395539045E-1,-5.752603337E-2
7.124938314E0,1.139867753E-1,-1.960146427E-1,-2.769771963E-2
7.130066126E0,1.406191885E-1,-2.844342887E-1,2.024064213E-2
7.135077951E0,1.832310706E-1,-3.675274551E-1,5.219954997E-2
7.140208836E0,2.450182885E-1,-3.749845326E-1,5.646073818E-2
7.145198681E0,3.249155581E-1,-2.769772112E-1,2.982831374E-2
7.150413837E0,4.154658020E-1,-1.150520667E-1,-1.917534508E-2
7.155478838E0,4.974936545E-1,4.900366068E-2,-7.030959427E-2
7.160471338E0,5.582156181E-1,2.013411224E-1,-1.129214764E-1
7.165498631E0,5.955010056E-1,3.717886209E-1,-1.374233067E-1
7.170641495E0,6.157416105E-1,5.305178761E-1,-1.310315281E-1
7.175647642E0,6.200028062E-1,6.583535075E-1,-1.129214764E-1
7.180770142E0,6.093498468E-1,7.883197069E-1,-1.086602882E-1
7.185776654E0,5.976315737E-1,8.863270283E-1,-1.565986425E-1
7.190981028E0,5.678032637E-1,9.640937448E-1,-2.141246796E-1
7.196027071E0,4.974936545E-1,1.064231634E0,-2.418224066E-1
7.201124043E0,4.080087245E-1,1.191002011E0,-2.322347313E-1
7.206263947E0,3.355685472E-1,1.329490542E0,-2.002758235E-1
7.211517801E0,3.068055212E-1,1.498872757E0,-1.512721628E-1
7.216480563E0,3.046749234E-1,1.685299754E0,-9.481142461E-2
7.221617542E0,3.131972849E-1,1.777980566E0,-5.006895587E-2
7.226429730E0,3.323726356E-1,1.767327666E0,-1.491415687E-2
7.231640147E0,3.547438681E-1,1.743891120E0,1.171826664E-2
7.236617388E0,3.792456985E-1,1.726846337E0,2.237123623E-2
7.241817752E0,3.835068941E-1,1.661863208E0,3.408950195E-2
7.246634472E0,3.291767538E-1,1.539354086E0,5.433014408E-2
7.251862284E0,2.269082516E-1,1.357188344E0,7.137489319E-2
7.256854786E0,1.225091442E-1,1.144128919E0,8.096256852E-2
7.261954317E0,3.302420676E-2,9.406571984E-1,8.735434711E-2
7.266997026E0,-4.900366068E-2,7.584913969E-1,9.907261282E-2
7.272073745E0,-1.171826646E-1,6.093498468E-1,1.065296903E-1
7.277098433E0,-1.800351888E-1,5.177342892E-1,1.139867753E-1
7.282426402E0,-1.342274100E-1,5.507585406E-1,1.043990999E-1
7.287559476E0,-4.261187743E-3,6.200028062E-1,8.841964602E-2
7.292390622E0,9.055023640E-2,4.602082670E-1,1.161173657E-1
7.297408644E0,2.130593807E-1,2.013411224E-1,9.694202244E-2
7.302585362E0,3.568744659E-1,-1.065296936E-3,5.113425106E-2
7.307617499E0,4.676653445E-1,-1.171826646E-1,3.728539124E-2
7.312677759E0,4.911018908E-1,-1.438150853E-1,1.171826664E-2
7.317746042E0,4.527511895E-1,-8.415845782E-2,-1.917534508E-2
7.322877916E0,4.026822448E-1,2.876301669E-2,-3.622009605E-2
7.327888022E0,3.771151006E-1,2.013411224E-1,-5.113425106E-2
7.333084376E0,4.026822448E-1,4.144005179E-1,-7.030959427E-2
7.337988231E0,4.484900236E-1,5.656726956E-1,-7.989726961E-2
7.343209377E0,4.463594258E-1,6.455699205E-1,-8.096256852E-2
7.348136357E0,3.419603109E-1,6.242640018E-1,-9.481142461E-2
7.353359378E0,2.162552774E-1,5.539544225E-1,-1.406191885E-1
7.358398546E0,1.086602882E-1,5.060160160E-1,-1.970799267E-1
7.363386254E0,2.663242258E-2,4.218575954E-1,-2.269082516E-1
7.368503130E0,1.278356276E-2,2.833689749E-1,-2.578018606E-1
7.373696463E0,4.154657945E-2,1.161173657E-1,-3.014790416E-1
7.378597037E0,6.817900389E-2,-6.711370498E-2,-3.653968573E-1
7.383706724E0,7.670138031E-2,-1.438150853E-1,-4.080087245E-1
7.388734122E0,6.498311460E-2,-2.141246796E-1,-4.516859055E-1
7.393956674E0,4.154657945E-2,-2.673895359E-1,-4.879060090E-1
7.399021154E0,3.408950195E-2,-2.258429527E-1,-5.081466436E-1
7.404080425E0,5.113425106E-2,-1.811004728E-1,-5.166690350E-1
7.409184540E0,6.817900389E-2,-2.066676021E-1,-5.422361493E-1
7.414170790E0,7.563608140E-2,-2.588671446E-1,-5.816521049E-1
7.419183396E0,7.350549102E-2,-3.142625988E-1,-6.189374924E-1
7.424302614E0,6.498311460E-2,-3.930945694E-1,-6.615493894E-1
7.429293449E0,4.687306657E-2,-4.676653445E-1,-7.009654045E-1
7.434117459E0,0.000000000E0,-5.795215368E-1,-7.094877362E-1
7.439491575E0,0.000000000E0,-5.326484442E-1,-6.913776994E-1
7.444532876E0,2.982831374E-2,-4.527511895E-1,-7.286630869E-1
7.449565169E0,4.261187837E-2,-4.410329461E-1,-7.829932570E-1
7.454752669E0,5.433014408E-2,-4.506205916E-1,-8.149521351E-1
7.459700587E0,8.096256852E-2,-4.942977726E-1,-8.288010359E-1
7.464896628E0,1.107908785E-1,-5.667379498E-1,-8.362581134E-1
7.470030744E0,1.331621110E-1,-6.338516474E-1,-8.362581134E-1
7.475049598E0,1.534027606E-1,-6.551576257E-1,-8.213439584E-1
7.480028506E0,1.608598381E-1,-6.508964300E-1,-7.989727259E-1
7.485325953E0,1.661863178E-1,-6.231986880E-1,-7.723402977E-1
7.490317986E0,1.747086942E-1,-5.997622013E-1,-7.435772419E-1
7.495303923E0,1.619251370E-1,-5.805868506E-1,-7.041612864E-1
7.500543247E0,1.374233067E-1,-5.454320312E-1,-6.562229395E-1
7.505344966E0,1.182479635E-1,-4.740571380E-1,-6.093498468E-1
7.510412415E0,1.203785539E-1,-3.941598535E-1,-5.614115000E-1
7.515503925E0,1.406191885E-1,-3.259808719E-1,-5.028201342E-1
7.520551531E0,1.768392920E-1,-2.556712627E-1,-4.676653445E-1
7.525694864E0,2.247776538E-1,-1.981452256E-1,-4.612735808E-1
7.530942990E0,2.620630562E-1,-1.842963696E-1,-4.793836176E-1
7.535807313E0,2.780424953E-1,-1.768392920E-1,-5.028201342E-1
7.541041585E0,2.673895359E-1,-1.853616685E-1,-5.219954848E-1
7.546081584E0,2.247776538E-1,-2.141246796E-1,-5.326484442E-1
7.551364711E0,1.747086942E-1,-2.354306281E-1,-5.326484442E-1
7.556179450E0,1.267703325E-1,-2.258429527E-1,-5.326484442E-1
7.561162003E0,7.776667923E-2,-2.034717202E-1,-5.401055217E-1
7.566492368E0,4.367717355E-2,-1.715128124E-1,-5.379749537E-1
7.571299713E0,4.900366068E-2,-1.352927089E-1,-5.251913667E-1
7.576422525E0,7.350549102E-2,-1.161173657E-1,-5.049507618E-1
7.581479610E0,9.268083423E-2,-1.427497864E-1,-4.847100973E-1
7.586690130E0,9.587672353E-2,-1.992105246E-1,-4.655347466E-1
7.591835913E0,8.096256852E-2,-2.045370042E-1,-4.101393223E-1
7.596815235E0,8.522375673E-2,-1.896228492E-1,-3.483521044E-1
7.601929299E0,1.267703325E-1,-1.320968270E-1,-2.897607684E-1
7.606843147E0,2.119940966E-1,-1.278356276E-2,-2.056023031E-1
7.612002633E0,3.334379494E-1,9.907261282E-2,-7.137489319E-2
7.616892581E0,4.325105548E-1,1.182479635E-1,7.776667923E-2
7.621918572E0,5.401055217E-1,-2.130593872E-3,1.715128124E-1
7.627020499E0,6.274598837E-1,-1.693822145E-1,2.109287977E-1
7.632014250E0,6.817900538E-1,-3.089361191E-1,2.141246796E-1
7.637223260E0,7.414466739E-1,-4.080087245E-1,1.853616685E-1
7.642167532E0,8.032338619E-1,-4.474247098E-1,1.193132550E-1
7.647276907E0,8.490416408E-1,-4.154658020E-1,2.130593918E-2
7.652305502E0,8.714128733E-1,-3.462215066E-1,-8.096256852E-2
7.657448939E0,8.639557958E-1,-3.398297131E-1,-1.725780964E-1
7.662512066E0,8.309316039E-1,-4.399676323E-1,-2.066676021E-1
7.667586232E0,7.755361795E-1,-5.230607986E-1,-1.864269674E-1
7.672591962E0,7.446425557E-1,-6.008274555E-1,-1.672516167E-1
7.677713889E0,7.467731237E-1,-7.052266002E-1,-1.502068639E-1
7.682753734E0,7.755361795E-1,-7.648832202E-1,-1.289009303E-1
7.687932119E0,8.234745264E-1,-7.425119877E-1,-1.278356314E-1
7.692880194E0,8.447804451E-1,-7.169448137E-1,-9.800732136E-2
7.698137641E0,8.628905416E-1,-6.775288582E-1,-6.285251677E-2
7.703059986E0,8.873923421E-1,-6.466352344E-1,-3.941598535E-2
7.708174830E0,9.332001209E-1,-6.381128430E-1,-5.326484516E-2
7.713138164E0,1.017358541E0,-6.487658620E-1,-7.883197069E-2
7.718534362E0,1.168630719E0,-6.349169612E-1,-1.331621110E-1
7.723133009E0,1.317772269E0,-6.125457287E-1,-1.725780964E-1
7.728497957E0,1.375298381E0,-5.198649168E-1,-1.587292403E-1
7.733437385E0,1.330555916E0,-4.378370345E-1,-1.214438528E-1
7.738586916E0,1.291139841E0,-2.695201337E-1,-1.587292403E-1
7.743577490E0,1.275160432E0,-1.161173657E-1,-1.757739931E-1
7.748753219E0,1.304988742E0,1.171826664E-2,-1.416844875E-1
7.753759939E0,1.421106100E0,6.817900389E-2,-2.876301669E-2
7.758664314E0,1.486089230E0,4.261187743E-3,1.757739931E-1
7.763858794E0,1.443477392E0,-1.384885982E-2,3.622009456E-1
7.768862596E0,1.502068639E0,-3.941598535E-2,4.154658020E-1
7.774016243E0,1.704475045E0,-1.491415650E-1,3.739192188E-1
7.778914889E0,2.141246796E0,-5.337137580E-1,3.345032334E-1
7.784159213E0,2.337261438E0,-4.080087245E-1,4.026822448E-1
7.789141869E0,2.354306221E0,-5.486279130E-1,3.898986876E-1
7.794285308E0,2.604650974E0,-1.229352713E0,1.853616685E-1
7.799380985E0,2.552451372E0,-9.907261729E-1,1.406191885E-1
7.804447184E0,2.337261438E0,-5.219954848E-1,1.832310706E-1
7.809754944E0,2.237123489E0,-4.357064366E-1,8.841964602E-2
7.814594737E0,2.139116287E0,-2.801730931E-1,-2.343653329E-2
7.819691709E0,2.015541792E0,2.450183034E-2,-4.687306657E-2
7.824839998E0,1.808874249E0,3.760498166E-1,-6.498311460E-2
7.829902446E0,1.561725259E0,4.836448133E-1,-1.054643989E-1
7.835098020E0,1.328425288E0,5.358443856E-1,-1.512721628E-1
7.840051874E0,1.299662232E0,4.250534773E-1,-1.832310706E-1
7.845033386E0,1.332686424E0,3.749845326E-1,-1.608598381E-1
7.850220833E0,1.293270469E0,3.057402074E-1,-1.374233067E-1
7.855192866E0,1.278356314E0,1.395539045E-1,-1.459456831E-1
7.860358022E0,1.269833922E0,4.793836176E-2,-8.735434711E-2
7.865358336E0,1.296466351E0,1.597945392E-2,-5.539543927E-2
7.870544898E0,1.283682823E0,-3.408950195E-2,-4.261187743E-3
7.875476514E0,8.202786446E-1,4.495553076E-1,9.374613315E-2
7.880617295E0,5.475625992E-1,4.804489315E-1,1.320968270E-1
7.885617036E0,4.719265401E-1,2.098634988E-1,1.587292403E-1
7.890757244E0,4.165311158E-1,1.906881481E-1,2.056023031E-1
7.895862922E0,3.813762963E-1,3.110667169E-1,2.269082516E-1
7.900915891E0,3.238502741E-1,3.057402074E-1,2.290388346E-1
7.905984486E0,2.599324584E-1,2.631283402E-1,2.673895359E-1
7.911024017E0,2.567365468E-1,3.057402074E-1,3.579397798E-1
7.916072195E0,3.121320009E-1,3.472867906E-1,4.495553076E-1
7.921283341E0,3.696580231E-1,3.430256248E-1,4.921671748E-1
7.926340894E0,3.590050638E-1,3.302420378E-1,4.932324886E-1
7.931310998E0,2.844342887E-1,2.972178459E-1,4.793836176E-1
7.936028291E0,1.512721628E-1,2.940219641E-1,4.772530198E-1
7.941545165E0,-1.171826664E-2,3.376991153E-1,4.932324886E-1
7.946520583E0,-1.725780964E-1,4.101393223E-1,4.836448133E-1
7.951620062E0,-3.100014031E-1,4.186616838E-1,4.335758388E-1
7.956710793E0,-4.250534773E-1,3.195890784E-1,3.462215066E-1
7.961939907E0,-5.454320312E-1,1.363580078E-1,1.981452256E-1
7.966952304E0,-6.690064669E-1,-8.309315890E-2,2.769771963E-2
7.971871575E0,-7.499690652E-1,-2.673895359E-1,-1.235744432E-1
7.976956784E0,-7.840585709E-1,-4.655347466E-1,-2.812383771E-1
7.982033295E0,-7.254672050E-1,-6.604840755E-1,-4.367717505E-1
7.987062567E0,-5.433014631E-1,-7.819279432E-1,-4.921671748E-1
7.992211993E0,-3.323726356E-1,-8.522375226E-1,-4.389023483E-1
7.999156005E0,-1.608598381E-1,-8.724781871E-1,-3.781804144E-1
8.002360689E0,-9.481142461E-2,-8.042991757E-1,-2.535406649E-1
8.007417464E0,-1.257050335E-1,-7.137489319E-1,-1.257050335E-1
8.012358246E0,-1.704475135E-1,-6.722023487E-1,-8.628904819E-2
8.017468454E0,-1.597945392E-1,-7.286630869E-1,-1.597945392E-1
8.022490851E0,-1.289009303E-1,-6.636800170E-1,-2.471488863E-1
8.027687414E0,-9.907261282E-2,-5.187996030E-1,-3.291767538E-1
8.032639290E0,-7.030959427E-2,-3.930945694E-1,-3.984210491E-1
8.037757831E0,-2.876301669E-2,-3.206543922E-1,-4.612735808E-1
8.042827937E0,2.450183034E-2,-2.908260524E-1,-5.305178761E-1
8.047898718E0,6.924430281E-2,-2.993484437E-1,-5.944356918E-1
8.052953511E0,1.043990999E-1,-3.739192188E-1,-6.263945699E-1
8.058144188E0,1.352927089E-1,-5.379749537E-1,-6.381128430E-1
8.063047730E0,1.640557349E-1,-7.254672050E-1,-6.551576257E-1
8.068267939E0,1.864269674E-1,-7.499690652E-1,-6.945735812E-1
8.073198617E0,1.800351888E-1,-6.040233374E-1,-7.435772419E-1
8.078321533E0,1.331621110E-1,-4.069434404E-1,-7.670137882E-1
8.083342368E0,8.096256852E-2,-3.089361191E-1,-7.329242826E-1
8.088497680E0,7.030959427E-2,-4.101393223E-1,-5.656726956E-1
8.093499036E0,1.118561774E-1,-5.912398100E-1,-4.229228795E-1
8.098583567E0,1.768392920E-1,-7.169448137E-1,-3.653968573E-1
8.103742578E0,2.482141852E-1,-7.435772419E-1,-3.568744659E-1
8.108742005E0,3.249155581E-1,-7.094877362E-1,-3.803110123E-1
8.113745756E0,4.058781266E-1,-6.082845330E-1,-4.207922816E-1
8.118912214E0,4.964283705E-1,-4.410329461E-1,-4.623388648E-1
8.123923830E0,5.752603412E-1,-2.897607684E-1,-4.729918540E-1
8.129015549E0,6.327863932E-1,-2.024064213E-1,-4.186616838E-1
8.134057425E0,6.753982306E-1,-1.853616685E-1,-2.684548199E-1
8.139226591E0,7.148142457E-1,-1.906881481E-1,-2.450183034E-2
8.144241124E0,7.840585709E-1,-5.113425106E-2,2.567365468E-1
8.149368155E0,8.884576559E-1,1.704475135E-1,5.518237948E-1
8.154495500E0,9.960526228E-1,3.110667169E-1,8.224092126E-1
8.159450031E0,1.046121597E0,3.590050638E-1,9.491795897E-1
8.164455449E0,1.057839870E0,4.580776691E-1,8.724781871E-1
8.169704824E0,1.016293287E0,5.901744962E-1,7.180101275E-1
8.174730502E0,8.820658922E-1,6.200028062E-1,6.445046663E-1
8.179818523E0,7.510343194E-1,5.571503043E-1,6.583535075E-1
8.184853472E0,6.849859357E-1,5.060160160E-1,6.807247400E-1
8.189880711E0,6.391781569E-1,4.463594258E-1,6.636800170E-1
8.194885087E0,6.061539650E-1,3.984210491E-1,6.114804149E-1
8.200049150E0,5.933703780E-1,3.952251673E-1,5.422361493E-1
8.205054880E0,5.837827325E-1,4.058781266E-1,4.708612561E-1
8.210160088E0,5.773909688E-1,3.749845326E-1,4.144005179E-1
8.215158162E0,6.018927693E-1,3.930945694E-1,3.952251673E-1
8.220309412E0,6.210681200E-1,4.666000605E-1,4.101393223E-1
8.225316288E0,6.349169612E-1,5.294525623E-1,4.207922816E-1
8.230445194E0,6.508964300E-1,5.773909688E-1,4.399676323E-1
8.235511646E0,6.722023487E-1,6.338516474E-1,5.092119575E-1
8.240379935E0,6.988347769E-1,6.668758988E-1,6.093498468E-1
8.245637436E0,7.233366370E-1,6.317210793E-1,7.052266002E-1
8.250838321E0,7.403813601E-1,5.752603412E-1,7.691444159E-1
8.255798687E0,7.659484744E-1,5.145384073E-1,7.989727259E-1
8.261013635E0,8.064298034E-1,4.676653445E-1,8.330622315E-1
8.265974574E0,8.554334641E-1,4.580776691E-1,8.703476191E-1
8.271114261E0,8.980453014E-1,4.644694626E-1,9.150900841E-1
8.276348481E0,9.289389253E-1,4.335758388E-1,9.566366673E-1
8.281529262E0,9.491795897E-1,4.197269976E-1,9.885955453E-1
8.286286503E0,9.736813903E-1,4.857754111E-1,1.018423915E0
8.291387284E0,1.010966778E0,5.443667173E-1,1.047186852E0
8.296674889E0,1.077015162E0,5.092119575E-1,1.054643989E0
8.301575878E0,1.160108328E0,4.410329461E-1,9.779425859E-1
8.306539057E0,1.243201494E0,3.238502741E-1,8.628905416E-1
8.311698327E0,1.367841244E0,1.619251370E-1,7.904503345E-1
8.316674266E0,1.505264521E0,8.628904819E-2,7.968420982E-1
8.321909266E0,1.577704787E0,1.043990999E-1,8.479763865E-1
8.326791715E0,1.606467724E0,1.928187460E-1,9.310694933E-1
8.331906350E0,1.622447252E0,3.717886209E-1,1.045056343E0
8.336936820E0,1.626708388E0,5.454320312E-1,1.202720284E0
8.342061820E0,1.633100152E0,6.402434707E-1,1.397669554E0
8.347220571E0,1.634165525E0,5.965662599E-1,1.607533097E0
8.352279321E0,1.613924861E0,4.484900236E-1,1.811004758E0
8.357297812E0,1.605402470E0,2.609977424E-1,1.954819918E0
8.362365520E0,1.649079680E0,1.203785539E-1,1.984648228E0
8.367499948E0,1.694887400E0,4.261187837E-2,1.921795726E0
8.372509583E0,1.674646735E0,3.515479714E-2,1.732172847E0
8.377727918E0,1.600075960E0,1.544680595E-1,1.482893348E0
8.382719428E0,1.472240329E0,1.299662292E-1,1.211242557E0
8.387690211E0,1.296466351E0,6.285251677E-2,9.470489621E-1
8.393087815E0,1.101517081E0,5.433014408E-2,7.414466739E-1
8.397895108E0,8.820658922E-1,2.556712553E-2,5.848480463E-1
8.402966409E0,6.626147032E-1,-1.597945392E-2,4.793836176E-1
8.407643077E0,5.060160160E-1,-9.800732136E-2,4.367717505E-1
8.413059796E0,4.271840751E-1,-1.970799267E-1,4.484900236E-1
8.418072453E0,4.207922816E-1,-2.780424953E-1,4.825794995E-1
8.423243182E0,4.676653445E-1,-3.345032334E-1,5.070813298E-1
8.428262767E0,5.390402675E-1,-3.046749234E-1,5.209302306E-1
8.433335475E0,5.880439281E-1,-2.631283402E-1,5.315831900E-1
8.438371987E0,6.008274555E-1,-2.226470560E-1,5.422361493E-1
8.443741049E0,6.050886512E-1,-2.599324584E-1,4.985589683E-1
8.449089488E0,5.891091824E-1,-4.431635141E-1,4.314452708E-1
8.453668966E0,5.113425255E-1,-4.080087245E-1,4.431635141E-1
8.458821468E0,4.666000605E-1,-3.100014031E-1,3.962904513E-1
8.464148655E0,4.495553076E-1,-2.727160156E-1,3.185237944E-1
8.468957406E0,4.186616838E-1,-2.631283402E-1,2.386265099E-1
8.474007406E0,3.888333738E-1,-1.257050335E-1,2.141246796E-1
8.479097095E0,3.579397798E-1,2.556712553E-2,2.024064213E-1
8.484093188E0,3.004137278E-1,5.752603337E-2,1.587292403E-1
8.489094752E0,2.194511741E-1,4.580776766E-2,1.161173657E-1
8.494313450E0,1.427497864E-1,1.597945392E-2,9.907261282E-2
8.499271472E0,1.193132550E-1,-2.343653329E-2,1.129214764E-1
8.504340534E0,1.267703325E-1,-1.107908785E-1,1.267703325E-1
8.509427202E0,1.917534471E-1,-2.375612110E-1,1.033338010E-1
8.514470275E0,2.727160156E-1,-3.355685472E-1,1.075949892E-1
8.519550536E0,3.345032334E-1,-3.440909088E-1,1.672516167E-1
8.524666526E0,3.867027760E-1,-3.440909088E-1,2.333000302E-1
8.529711944E0,4.090740085E-1,-3.238502741E-1,2.876301706E-1
8.534854027E0,4.186616838E-1,-2.503447831E-1,3.526133001E-1
8.539830434E0,4.207922816E-1,-2.748466134E-1,3.462215066E-1
8.545087569E0,3.707233369E-1,-3.845722079E-1,3.174584806E-1
8.549960748E0,2.865648866E-1,-2.034717202E-1,3.909639716E-1
8.555094029E0,2.482141852E-1,-2.130593872E-3,4.463594258E-1
8.560147780E0,2.546059787E-1,6.072192639E-2,4.357064366E-1
8.565288196E0,2.663242221E-1,2.769771963E-2,4.197269976E-1
8.570396844E0,2.524753809E-1,1.171826664E-2,4.144005179E-1
8.575237156E0,2.194511741E-1,-9.587672539E-3,4.378370345E-1
8.580401428E0,2.013411224E-1,-6.072192639E-2,5.134730935E-1
8.585702000E0,2.279735506E-1,-4.154657945E-2,6.349169612E-1
8.590514241E0,3.174584806E-1,6.711370498E-2,7.829932570E-1
8.595672626E0,4.815142155E-1,7.030959427E-2,9.182859659E-1
8.600632628E0,6.508964300E-1,7.563608140E-2,1.065296888E0
8.605823721E0,8.149521351E-1,1.597945392E-1,1.221895576E0
8.610767837E0,9.747467041E-1,2.759118974E-1,1.353992462E0
8.615947264E0,1.104712963E0,3.888333738E-1,1.447738528E0
8.620947005E0,1.144128919E0,4.729918540E-1,1.489285111E0
8.626078775E0,1.124953508E0,5.635420680E-1,1.465848565E0
8.631130860E0,1.100451708E0,6.423740387E-1,1.390212536E0
8.636328672E0,1.040795088E0,7.116183639E-1,1.317772269E0
8.641241955E0,9.523754716E-1,7.712749839E-1,1.275160432E0
8.646569142E0,7.989727259E-1,8.064298034E-1,1.254919767E0
8.651374820E0,5.443667173E-1,6.487658620E-1,1.194197893E0
8.656496747E0,3.238502741E-1,6.050886512E-1,1.233613849E0
8.661519248E0,4.261187837E-2,5.464973450E-1,1.303923488E0
8.666849873E0,-2.087981999E-1,4.495553076E-1,1.368906617E0
8.671827583E0,-3.973557651E-1,3.920292854E-1,1.416844964E0
8.676771951E0,-5.177342892E-1,4.101393223E-1,1.379559517E0
8.681871750E0,-5.635420680E-1,4.602082670E-1,1.251723886E0
8.687053469E0,-6.178722382E-1,4.911018908E-1,1.086602926E0
8.691950137E0,-6.999000907E-1,4.868406951E-1,9.992485046E-1
8.697370814E0,-8.362581134E-1,3.195890784E-1,9.683549404E-1
8.702279982E0,-1.085537553E0,-4.037475288E-1,8.788699508E-1
8.707270658E0,-1.417910218E0,-9.406571984E-1,9.800731540E-1
8.712240972E0,-1.532962322E0,-8.980453014E-1,1.111104727E0
8.717434045E0,-1.456260920E0,-6.722023487E-1,8.596946001E-1
8.722363525E0,-1.453065038E0,-4.005516469E-1,3.579397798E-1
8.727633890E0,-1.459456801E0,-2.343653329E-2,-7.670138031E-2
8.732557328E0,-1.473305702E0,3.622009456E-1,-4.389023483E-1
8.737300818E0,-1.557464123E0,6.210681200E-1,-7.435772419E-1
8.742654309E0,-1.693822145E0,7.361201644E-1,-9.726160765E-1
8.747858787E0,-1.814200640E0,6.530269980E-1,-1.164369583E0
8.752863528E0,-1.869596124E0,5.518237948E-1,-1.336947680E0
8.757965768E0,-1.845094323E0,8.405193090E-1,-1.536158204E0
8.762943269E0,-1.757739902E0,9.417225122E-1,-1.725781083E0
8.768239362E0,-1.535092831E0,8.224092126E-1,-1.815266013E0
8.773228270E0,-1.162238955E0,7.552955151E-1,-1.850420833E0
8.778260405E0,-7.084224820E-1,7.148142457E-1,-1.875987887E0
8.783337073E0,-2.556712627E-1,6.189374924E-1,-1.894097924E0
8.788353635E0,1.416844875E-1,4.740571380E-1,-1.943101645E0
8.793355512E0,4.484900236E-1,3.057402074E-1,-2.050696611E0
8.798474678E0,6.690064669E-1,1.320968270E-1,-2.200903416E0
8.803496971E0,8.170827627E-1,-7.457078435E-3,-2.372416258E0
8.808652179E0,9.118942022E-1,-8.948494494E-2,-2.539667845E0
8.813675722E0,9.608978629E-1,-1.246397421E-1,-2.694135904E0
8.818954472E0,9.843343496E-1,-1.022685021E-1,-2.853930473E0
8.823786713E0,9.800731540E-1,-1.704475097E-2,-2.999876261E0
8.829028275E0,9.321348071E-1,8.415845782E-2,-3.124516010E0
8.833967703E0,8.415845633E-1,1.597945392E-1,-3.218261957E0
8.839055984E0,7.222713232E-1,2.226470560E-1,-3.306681633E0
8.844194162E0,5.933703780E-1,2.609977424E-1,-3.383383036E0
8.849220100E0,4.527511895E-1,2.599324584E-1,-3.444104910E0
8.854245309E0,3.110667169E-1,2.663242221E-1,-3.508022785E0
8.859101871E0,2.002758235E-1,3.323726356E-1,-3.580462933E0
8.864527654E0,1.406191885E-1,4.719265401E-1,-3.652903080E0
8.869655050E0,1.118561774E-1,6.317210793E-1,-3.691253901E0
8.874493124E0,8.096256852E-2,7.403813601E-1,-3.675274372E0
8.879749634E0,3.195890784E-2,8.032338619E-1,-3.587920189E0
8.884939062E0,-6.604841352E-2,8.032338619E-1,-3.373795509E0
8.889786822E0,-2.247776538E-1,8.756740689E-1,-2.902934074E0
8.894754324E0,-3.739192188E-1,1.315641761E0,-1.860008478E0
8.899888646E0,-4.389023483E-1,2.067741394E0,-1.523374617E-1
8.904690991E0,-4.016169310E-1,2.829428673E0,1.767327666E0
8.910025887E0,-2.109287977E-1,3.332248926E0,3.265135050E0
8.915051357E0,1.299662292E-1,3.498435020E0,3.718951702E0
8.920269534E0,4.836448133E-1,3.559157133E0,3.014790297E0
8.925252556E0,7.094877362E-1,3.415342093E0,1.813135386E0
8.930441462E0,7.787320614E-1,2.982831478E0,7.371854782E-1
8.935328182E0,7.201407552E-1,2.339392185E0,1.278356276E-2
8.940496827E0,6.157416105E-1,1.662928462E0,-3.259808719E-1
8.945487506E0,4.974936545E-1,1.042925715E0,-3.824416101E-1
8.950653391E0,3.494173884E-1,4.623388648E-1,-2.684548199E-1
8.955310892E0,1.779045910E-1,-5.752603337E-2,-6.072192639E-2
8.960510892E0,3.515479714E-2,-4.399676323E-1,1.789698899E-1
8.965749018E0,-2.663242258E-2,-6.061539650E-1,3.856374919E-1
8.970912924E0,-4.261187743E-3,-5.709991455E-1,5.241261125E-1
8.976010738E0,6.604841352E-2,-4.186616838E-1,6.178722382E-1
8.980992092E0,1.491415650E-1,-2.109287977E-1,6.860512495E-1
8.986178552E0,2.290388346E-1,3.195890691E-3,7.414466739E-1
8.991213135E0,2.876301706E-1,1.832310706E-1,7.883197069E-1
8.996186157E0,3.206543922E-1,3.004137278E-1,8.277357221E-1
9.001302302E0,3.323726356E-1,3.504827023E-1,8.596946001E-1
9.006305793E0,3.313073516E-1,3.355685472E-1,8.927188516E-1
9.011498137E0,3.185237944E-1,2.673895359E-1,9.300042391E-1
9.016498242E0,3.100014031E-1,1.512721628E-1,9.747467041E-1
9.022028502E0,2.993484437E-1,4.261187743E-3,1.020554423E0
9.026723868E0,2.769772112E-1,-1.534027606E-1,1.058905125E0
9.031855899E0,2.524753809E-1,-3.100014031E-1,1.085537553E0
9.036849234E0,2.247776538E-1,-4.420982301E-1,1.092994690E0
9.041912150E0,1.938840449E-1,-5.187996030E-1,1.061035752E0
9.046961839E0,1.747086942E-1,-5.145384073E-1,9.672896266E-1
9.052040589E0,1.416844875E-1,-4.474247098E-1,8.522375226E-1
9.057092621E0,5.646073818E-2,-3.707233369E-1,7.766014934E-1
9.062221788E0,-1.704475097E-2,-2.439530045E-1,6.796594262E-1
9.067412466E0,-4.580776766E-2,-7.457078248E-2,5.891091824E-1
9.072478559E0,-5.326484516E-2,7.989726961E-2,5.752603412E-1
9.077379342E0,-5.113425106E-2,1.970799267E-1,6.349169612E-1
9.082570331E0,-9.055023640E-2,2.173205763E-1,7.467731237E-1
9.087458301E0,-1.363580078E-1,2.428877056E-1,8.234745264E-1
9.092644291E0,-1.757739931E-1,3.419603109E-1,8.373233676E-1
9.097593406E0,-2.215817571E-1,4.942977726E-1,8.160174489E-1
9.103112365E0,-2.567365468E-1,6.540923119E-1,7.840585709E-1
9.107710803E0,-2.578018606E-1,7.712749839E-1,7.616873384E-1
9.112906688E0,-2.301041335E-1,8.383886814E-1,7.648832202E-1
9.118053981E0,-1.811004728E-1,8.937841058E-1,7.819279432E-1
9.123113877E0,-1.257050335E-1,9.566366673E-1,7.947115302E-1
9.128088767E0,-8.415845782E-2,1.029076815E0,8.117562532E-1
9.133267055E0,-5.965662748E-2,1.115365863E0,8.266704082E-1
9.138151640E0,-4.048128426E-2,1.222960830E0,8.405193090E-1
9.143343514E0,-2.769771963E-2,1.331621170E0,8.490416408E-1
9.148426172E0,-2.556712553E-2,1.424301982E0,8.501069546E-1
9.153465911E0,-2.024064213E-2,1.489285111E0,8.490416408E-1
9.158499454E0,-3.195890691E-3,1.524439931E0,8.575640321E-1
9.163607631E0,1.491415687E-2,1.538288832E0,8.756740689E-1
9.168643778E0,3.728539124E-2,1.529766440E0,8.767393827E-1
9.173711017E0,6.391781569E-2,1.496742249E0,8.596946001E-1
9.178717946E0,8.415845782E-2,1.459456801E0,8.234745264E-1
9.183827581E0,1.161173657E-1,1.437085509E0,7.766014934E-1
9.188864874E0,1.565986425E-1,1.412583709E0,7.371854782E-1
9.194017686E0,2.013411224E-1,1.365710616E0,7.169448137E-1
9.199037687E0,2.471488863E-1,1.299662232E0,7.052266002E-1
9.204146593E0,2.886954844E-1,1.216569066E0,6.935083270E-1
9.209234043E0,3.408950269E-1,1.121757627E0,6.775288582E-1
9.214414667E0,3.952251673E-1,1.014162660E0,6.572881937E-1
9.219362846E0,4.452941120E-1,8.969800472E-1,6.402434707E-1
9.224517377E0,5.006895661E-1,7.723402977E-1,6.274598837E-1
9.229468732E0,5.550196767E-1,6.370475888E-1,6.125457287E-1
9.235128524E0,5.986968875E-1,4.857754111E-1,5.955010056E-1
9.239594254E0,6.359822750E-1,3.217196763E-1,5.752603412E-1
9.246639202E0,6.668758988E-1,1.470109820E-1,5.507585406E-1
9.250019099E0,6.871165037E-1,-2.450183034E-2,5.230607986E-1
9.254867275E0,7.020306587E-1,-1.821657717E-1,4.900365770E-1
9.260237641E0,7.137489319E-1,-3.185237944E-1,4.442288280E-1
9.265210714E0,7.244018912E-1,-4.303799570E-1,3.920292854E-1
9.270163944E0,7.350549102E-1,-5.070813298E-1,3.376991153E-1
9.275133527E0,7.190754414E-1,-5.070813298E-1,2.833689749E-1
9.280156445E0,6.775288582E-1,-4.271840751E-1,2.258429527E-1
9.285338945E0,6.253293157E-1,-3.302420378E-1,1.576639414E-1
9.290337124E0,5.582156181E-1,-2.343653291E-1,9.800732136E-2
9.295433217E0,4.697959423E-1,-1.491415650E-1,5.539543927E-2
9.300604468E0,3.696580231E-1,-9.268083423E-2,3.195890784E-2
9.305602176E0,2.833689749E-1,-9.268083423E-2,2.237123623E-2
9.310607587E0,2.194511741E-1,-1.672516167E-1,5.326484796E-3
9.315786344E0,1.715128124E-1,-3.014790416E-1,-2.450183034E-2
9.320867387E0,1.470109820E-1,-4.527511895E-1,-6.924430281E-2
9.325888064E0,1.459456831E-1,-5.496932268E-1,-1.054643989E-1
9.330855773E0,1.683169156E-1,-5.582156181E-1,-1.139867753E-1
9.336047388E0,1.928187460E-1,-5.049507618E-1,-1.086602882E-1
9.341011191E0,2.034717202E-1,-4.154658020E-1,-1.075949892E-1
9.346150982E0,1.992105246E-1,-3.068055212E-1,-1.118561774E-1
9.351251453E0,1.821657717E-1,-1.874922663E-1,-1.225091442E-1
9.356286608E0,1.544680595E-1,-6.604841352E-2,-1.289009303E-1
9.361322808E0,1.214438528E-1,5.006895587E-2,-1.289009303E-1
9.366542807E0,8.628904819E-2,1.395539045E-1,-1.182479635E-1
9.371588694E0,6.072192639E-2,1.864269674E-1,-1.097255871E-1
9.376555621E0,4.261187837E-2,1.970799267E-1,-9.587672353E-2
9.381568643E0,3.835069016E-2,1.736433953E-1,-8.415845782E-2
9.386681195E0,4.154657945E-2,1.289009303E-1,-7.883197069E-2
9.391724530E0,4.900366068E-2,8.096256852E-2,-7.244019210E-2
9.396966352E0,6.072192639E-2,3.515479714E-2,-6.711370498E-2
9.402050156E0,8.096256852E-2,0.000000000E0,-6.711370498E-2
9.407014426E0,1.043990999E-1,-3.195890784E-2,-7.030959427E-2
9.412165886E0,1.310315281E-1,-5.646073818E-2,-7.457078248E-2
9.417201042E0,1.534027606E-1,-7.457078248E-2,-7.776667923E-2
9.422356303E0,1.619251370E-1,-7.457078248E-2,-7.030959427E-2
9.427349897E0,1.534027606E-1,-4.580776766E-2,-6.285251677E-2
9.432378075E0,1.384886056E-1,1.917534508E-2,-5.539543927E-2
9.437763804E0,1.225091442E-1,1.065296903E-1,-5.219954997E-2
9.442655889E0,1.086602882E-1,1.917534471E-1,-5.113425106E-2
9.447733180E0,9.800732136E-2,2.556712627E-1,-4.793836176E-2
9.452564796E0,8.948494494E-2,2.918913662E-1,-4.154657945E-2
9.457686202E0,8.096256852E-2,2.929566503E-1,-3.408950195E-2
9.462746880E0,7.244019210E-2,2.652589381E-1,-2.663242258E-2
9.467964380E0,6.817900389E-2,2.194511741E-1,-2.024064213E-2
9.472829225E0,6.924430281E-2,1.629904360E-1,-1.811004803E-2
9.477980162E0,7.137489319E-2,9.481142461E-2,-1.704475097E-2
9.483098028E0,6.498311460E-2,-7.457078435E-3,-2.130593918E-2
9.488288392E0,3.302420676E-2,-1.534027606E-1,-2.343653329E-2
9.493189279E0,-9.587672539E-3,-2.844342887E-1,-2.343653329E-2
9.498434539E0,-2.556712553E-2,-3.376991153E-1,-2.237123623E-2
9.503438968E0,-1.384885982E-2,-3.163931966E-1,-2.130593918E-2
9.508450113E0,9.587672539E-3,-2.684548199E-1,-2.024064213E-2
9.513414698E0,3.941598535E-2,-2.205164731E-1,5.539543927E-2
9.518880166E0,7.030959427E-2,-1.832310706E-1,2.652589381E-1
9.523627355E0,8.522375673E-2,-1.629904360E-1,5.038854480E-1
9.528747147E0,7.350549102E-2,-1.832310706E-1,6.008274555E-1
9.533804492E0,4.154657945E-2,-2.823036909E-1,5.124078393E-1
9.538847877E0,-9.587672539E-3,-4.314452708E-1,4.090740085E-1
9.543887826E0,-7.776667923E-2,-5.571503043E-1,4.026822448E-1
9.549084545E0,-1.565986425E-1,-6.434393525E-1,4.165311158E-1
9.553956629E0,-2.098634988E-1,-6.764635444E-1,4.101393223E-1
9.559090587E0,-2.087981999E-1,-6.231986880E-1,4.335758388E-1
9.564187099E0,-1.459456831E-1,-4.879060090E-1,4.697959423E-1
9.569636109E0,-5.433014408E-2,-3.313073516E-1,3.803110123E-1
9.574426423E0,2.450183034E-2,-1.171826646E-1,3.600703776E-1
9.579449964E0,8.841964602E-2,9.268083423E-2,4.133352041E-1
9.584396840E0,1.693822145E-1,2.141246796E-1,4.644694626E-1
9.589568819E0,2.695201337E-1,2.407571077E-1,5.273219943E-1
9.594638300E0,3.728539348E-1,1.779045910E-1,5.912398100E-1
9.599703039E0,4.793836176E-1,4.687306657E-2,6.615493894E-1
9.604786426E0,5.859133005E-1,-1.257050335E-1,7.190754414E-1
9.609824186E0,6.817900538E-1,-3.376991153E-1,7.361201644E-1
9.614890437E0,7.403813601E-1,-5.379749537E-1,6.945735812E-1
9.620052624E0,7.222713232E-1,-6.753982306E-1,5.283873081E-1
9.625088407E0,6.082845330E-1,-6.945735812E-1,2.737812996E-1
9.630271167E0,3.930945694E-1,-5.901744962E-1,5.965662748E-2
9.635104033E0,1.320968270E-1,-4.495553076E-1,-5.433014408E-2
9.640234866E0,-8.522375673E-2,-3.121320009E-1,-4.154657945E-2
9.645403721E0,-1.928187460E-1,-2.056023031E-1,1.171826664E-2
9.650518565E0,-2.130593807E-1,-1.885575503E-1,1.171826664E-2
9.655432212E0,-1.800351888E-1,-2.631283402E-1,-3.195890691E-3
9.660488305E0,-1.299662292E-1,-3.877680898E-1,5.326484796E-3
9.665581328E0,-8.628904819E-2,-5.219954848E-1,1.065296959E-2
9.670768463E0,-4.687306657E-2,-6.466352344E-1,2.663242258E-2
9.675758308E0,-1.278356276E-2,-7.584913969E-1,5.646073818E-2
9.680957683E0,1.917534508E-2,-8.490416408E-1,8.735434711E-2
9.685896642E0,5.006895587E-2,-9.055023789E-1,1.203785539E-1
9.691141434E0,8.735434711E-2,-8.959147334E-1,1.928187460E-1
9.695986018E0,1.544680595E-1,-8.128215671E-1,2.609977424E-1
9.701292632E0,2.215817571E-1,-8.042991757E-1,2.439530045E-1
9.706216592E0,2.791078091E-1,-8.256051540E-1,2.301041335E-1
9.711276748E0,3.185237944E-1,-8.277357221E-1,2.482141852E-1
9.716296385E0,3.430256248E-1,-8.181480169E-1,2.663242221E-1
9.721463833E0,3.515479863E-1,-8.170827627E-1,2.652589381E-1
9.726433052E0,3.483521044E-1,-8.234745264E-1,2.567365468E-1
9.731687948E0,3.270461559E-1,-8.160174489E-1,2.588671446E-1
9.736854147E0,3.036096394E-1,-7.904503345E-1,2.663242221E-1
9.741745918E0,2.801730931E-1,-7.616873384E-1,2.631283402E-1
9.746727013E0,2.578018606E-1,-7.361201644E-1,2.631283402E-1
9.752068523E0,2.396918088E-1,-7.275978327E-1,2.801730931E-1
9.756714774E0,2.173205763E-1,-7.318589687E-1,3.100014031E-1
9.761981961E0,1.906881481E-1,-7.478384376E-1,3.504827023E-1
9.767197900E0,1.672516167E-1,-7.872544527E-1,3.962904513E-1
9.772362952E0,1.619251370E-1,-8.756740689E-1,4.346411526E-1
9.777144776E0,1.704475135E-1,-1.006705642E0,4.697959423E-1
9.782318526E0,1.896228492E-1,-1.140933037E0,5.049507618E-1
9.787529777E0,2.056023031E-1,-1.283682823E0,5.305178761E-1
9.792439829E0,2.279735506E-1,-1.425367355E0,5.518237948E-1
9.797577591E0,2.503447831E-1,-1.531896949E0,5.795215368E-1
9.802567122E0,2.599324584E-1,-1.594749570E0,5.955010056E-1
9.807550196E0,2.503447831E-1,-1.632034898E0,5.816521049E-1
9.812858060E0,2.130593807E-1,-1.691691518E0,4.942977726E-1
9.817699364E0,1.747086942E-1,-1.718323946E0,4.634041786E-1
9.822797749E0,1.438150853E-1,-1.675712109E0,5.049507618E-1
9.828048115E0,1.001379117E-1,-1.592618942E0,4.729918540E-1
9.832976708E0,5.539543927E-2,-1.475436211E0,4.154658020E-1
9.838004730E0,1.597945392E-2,-1.326294661E0,3.835068941E-1
9.843262490E0,-1.384885982E-2,-1.156912446E0,3.547438681E-1
9.848161815E0,-4.261187837E-2,-1.024815679E0,2.865648866E-1
9.853279002E0,-5.539543927E-2,-9.278736115E-1,1.938840449E-1
9.858308066E0,-6.391781569E-2,-8.341274858E-1,9.800732136E-2
9.863537857E0,-6.498311460E-2,-7.318589687E-1,8.522375487E-3
9.868405931E0,-4.687306657E-2,-6.295905113E-1,-5.113425106E-2
9.873625566E0,-3.089361079E-2,-5.656726956E-1,-8.202786744E-2
9.878731453E0,-1.278356276E-2,-5.550196767E-1,-9.800732136E-2
9.883827546E0,0.000000000E0,-5.699338317E-1,-1.129214764E-1
9.888794579E0,3.195890691E-3,-5.784562230E-1,-1.235744432E-1
9.893909006E0,3.195890691E-3,-5.880439281E-1,-1.139867753E-1
9.899121038E0,2.130593872E-3,-5.848480463E-1,-1.033338010E-1
9.904192861E0,2.130593872E-3,-5.518237948E-1,-1.161173657E-1
9.909097862E0,2.556712553E-2,-4.857754111E-1,-1.278356314E-1
9.914096299E0,6.817900389E-2,-3.973557651E-1,-1.427497864E-1
9.919417915E0,1.139867753E-1,-3.004137278E-1,-1.651210189E-1
9.924235207E0,1.523374617E-1,-1.885575503E-1,-2.013411224E-1
9.929279375E0,1.853616685E-1,-5.539543927E-2,-2.450182885E-1
9.934675156E0,2.119940966E-1,1.139867753E-1,-3.025443256E-1
9.939471095E0,2.215817571E-1,3.547438681E-1,-3.717886209E-1
9.944554271E0,2.087981999E-1,6.508964300E-1,-4.516859055E-1
9.949646773E0,1.811004728E-1,9.513101578E-1,-5.433014631E-1
9.955020314E0,1.384886056E-1,1.246397376E0,-6.466352344E-1
9.959705680E0,5.965662748E-2,1.550006986E0,-8.074950576E-1
9.964872763E0,-6.817900389E-2,1.884510279E0,-1.003509760E0
9.969992973E0,-2.652589381E-1,2.163618088E0,-1.121757627E0
9.975025316E0,-4.751224220E-1,2.386265039E0,-1.164369583E0
9.980024536E0,-5.912398100E-1,2.630218029E0,-1.075949907E0
9.985407244E0,-6.551576257E-1,2.896542311E0,-9.097635746E-1
9.990120475E0,-7.627525926E-1,3.159670830E0,-7.563608289E-1
9.995266829E0,-9.150900841E-1,3.405754328E0,-6.168069243E-1
1.000028844E1,-1.063166380E0,3.600703716E0,-4.676653445E-1
1.000537954E1,-1.202720284E0,3.767955303E0,-3.014790416E-1
1.001045417E1,-1.324164033E0,3.904313326E0,-1.363580078E-1
1.001571277E1,-1.392343044E0,3.929880381E0,4.261187743E-3
1.002076735E1,-1.390212536E0,3.774347067E0,1.193132550E-1
1.002570766E1,-1.314576387E0,3.492043257E0,2.130593807E-1
1.003081152E1,-1.171826601E0,3.128777027E0,2.833689749E-1
1.003588938E1,-9.459837079E-1,2.696266651E0,3.217196763E-1
1.004111850E1,-6.583535075E-1,2.207295179E0,3.302420378E-1
1.004597074E1,-3.728539348E-1,1.677842617E0,3.238502741E-1
1.005094975E1,-1.171826646E-1,1.139867663E0,3.163931966E-1
1.005640808E1,1.001379117E-1,6.487658620E-1,3.185237944E-1
1.006112100E1,2.705854177E-1,2.546059787E-1,3.259808719E-1
1.006621293E1,3.504827023E-1,1.597945392E-2,3.025443256E-1
1.007136142E1,3.025443256E-1,-2.343653329E-2,2.641936541E-1
1.007644111E1,1.693822145E-1,9.694202244E-2,1.768392920E-1
1.008140444E1,-1.171826664E-2,2.854995728E-1,4.687306657E-2
1.008660142E1,-2.439530045E-1,4.793836176E-1,-5.859133229E-2
1.009168049E1,-4.942977726E-1,6.753982306E-1,-9.587672353E-2
1.009665537E1,-7.382507920E-1,8.927188516E-1,-7.883197069E-2
1.010172179E1,-9.704855084E-1,1.149455428E0,-4.580776766E-2
1.010693200E1,-1.135606527E0,1.416844964E0,1.065296936E-3
1.011203137E1,-1.220830321E0,1.626708388E0,4.474247247E-2
1.011695637E1,-1.220830321E0,1.705540419E0,7.030959427E-2
1.012207304E1,-1.129214764E0,1.622447252E0,9.481142461E-2
1.012709424E1,-9.577019215E-1,1.406191945E0,1.267703325E-1
1.013214153E1,-7.350549102E-1,1.122823000E0,1.310315281E-1
1.013735705E1,-5.060160160E-1,8.330622315E-1,7.989726961E-2
1.014223580E1,-2.886954844E-1,5.624767542E-1,1.491415687E-2
1.014746747E1,-9.694202244E-2,3.270461559E-1,-1.917534508E-2
1.015244794E1,5.433014408E-2,1.480762810E-1,-1.704475097E-2
1.015775143E1,1.725780964E-1,3.089361079E-2,0.000000000E0
1.016255408E1,2.599324584E-1,-3.515479714E-2,2.237123623E-2
1.016791992E1,3.036096394E-1,-6.285251677E-2,3.408950195E-2
1.017272263E1,3.110667169E-1,-4.900366068E-2,2.450183034E-2
1.017784914E1,2.918913662E-1,-4.261187743E-3,3.195890691E-3
