"Time (s)","Gyroscope x (rad/s)","Gyroscope y (rad/s)","Gyroscope z (rad/s)"
2.691947210E-1,5.407257006E-2,5.579948425E-2,2.923417836E-2
2.711947210E-1,5.712689459E-2,5.030169711E-2,2.679071575E-2
2.731947210E-1,5.712689459E-2,4.663651064E-2,2.801244706E-2
2.751947210E-1,5.834862590E-2,4.602564126E-2,2.801244706E-2
2.771947210E-1,6.079208851E-2,4.174958542E-2,3.045590781E-2
2.791947210E-1,6.201381609E-2,3.625179827E-2,2.679071575E-2
2.811943870E-1,6.262468547E-2,3.686266392E-2,2.679071575E-2
2.831941010E-1,6.262468547E-2,3.625179827E-2,2.617985196E-2
2.851938510E-1,6.323555112E-2,3.380833939E-2,2.740158327E-2
2.871936280E-1,6.262468547E-2,3.014314547E-2,2.556898631E-2
2.891934280E-1,6.201381609E-2,2.953227982E-2,2.740158327E-2
2.911932460E-1,6.323555112E-2,2.892141603E-2,2.434725501E-2
2.931930790E-1,6.628987193E-2,2.647795528E-2,2.434725501E-2
2.951929250E-1,6.628987193E-2,2.525622398E-2,2.251465991E-2
2.971926390E-1,6.628987193E-2,2.281276323E-2,2.251465991E-2
2.991923720E-1,6.934420019E-2,2.159103192E-2,2.373639122E-2
3.011921220E-1,7.239852846E-2,1.975843683E-2,2.373639122E-2
3.031918860E-1,7.362025231E-2,1.914757118E-2,2.251465991E-2
3.051916630E-1,7.178765535E-2,1.731497608E-2,2.007119916E-2
3.071914520E-1,7.667458057E-2,1.548238005E-2,1.823860407E-2
3.091912520E-1,7.911804318E-2,9.984591976E-3,2.007119916E-2
3.111909660E-1,7.850717753E-2,1.059545763E-2,1.946033537E-2
3.131906930E-1,7.728544623E-2,8.151996881E-3,1.884946786E-2
3.151904320E-1,7.972890884E-2,5.708535668E-3,1.579514146E-2
3.171901820E-1,7.972890884E-2,2.654209267E-3,1.640600711E-2
3.191899420E-1,7.972890884E-2,1.432479010E-3,1.335168164E-2
3.211897110E-1,7.911804318E-2,-1.621847274E-3,1.457341202E-2
3.231894880E-1,8.156150579E-2,1.432479010E-3,1.518427767E-2
3.251892730E-1,8.033977449E-2,-4.676173907E-3,1.518427767E-2
3.271889970E-1,8.278323710E-2,-3.454443067E-3,1.212995127E-2
3.291887300E-1,7.606372237E-2,-8.341364563E-3,1.518427767E-2
3.311884630E-1,7.789631933E-2,-6.508769002E-3,1.396254729E-2
3.331881960E-1,7.911804318E-2,-1.017396059E-2,1.396254729E-2
3.351879290E-1,7.911804318E-2,-1.261742227E-2,1.090821996E-2
3.371876620E-1,7.972890884E-2,-1.200655662E-2,1.151908562E-2
3.391873950E-1,7.728544623E-2,-1.445001736E-2,1.090821996E-2
3.411871950E-1,7.850717753E-2,-1.383915264E-2,1.151908562E-2
3.431869280E-1,7.606372237E-2,-1.567174867E-2,8.464760147E-3
3.451866610E-1,7.789631933E-2,-2.116953395E-2,7.243029308E-3
3.471863940E-1,7.300939411E-2,-2.605645731E-2,1.151908562E-2
3.491861270E-1,7.056593150E-2,-2.911078185E-2,9.686490521E-3
3.511858600E-1,7.300939411E-2,-2.483472601E-2,5.410433281E-3
3.531855930E-1,7.667458057E-2,-2.116953395E-2,6.021298934E-3
3.551853260E-1,7.667458057E-2,-1.872607507E-2,5.410433281E-3
3.571851260E-1,7.911804318E-2,-1.445001736E-2,4.188702907E-3
3.591848590E-1,7.667458057E-2,-1.017396059E-2,1.134376740E-3
3.611845920E-1,7.484199107E-2,-1.017396059E-2,2.966972534E-3
3.631843250E-1,7.667458057E-2,-6.508769002E-3,1.134376740E-3
3.651840580E-1,7.239852846E-2,-5.287038628E-3,-1.309084124E-3
3.671837910E-1,6.934420019E-2,-2.232712461E-3,5.235115532E-4
3.691835240E-1,6.812246889E-2,-4.001167545E-4,5.235115532E-4
3.711833240E-1,6.812246889E-2,1.432479010E-3,-6.982189952E-4
3.731831240E-1,6.262468547E-2,8.216137066E-4,5.235115532E-4
3.751828570E-1,6.262468547E-2,5.097670481E-3,-3.141680034E-3
3.771825900E-1,5.773776397E-2,-4.001167545E-4,-1.309084124E-3
3.791823230E-1,5.468343198E-2,8.216137066E-4,-2.530814614E-3
3.811820560E-1,4.979651421E-2,-4.001167545E-4,-1.919949427E-3
3.831817890E-1,4.857478291E-2,-1.621847274E-3,-1.309084124E-3
3.851815220E-1,4.735305160E-2,-1.621847274E-3,-4.363410641E-3
3.871813220E-1,4.368786141E-2,-3.454443067E-3,-5.585140549E-3
3.891810550E-1,4.002267122E-2,-8.341364563E-3,-3.141680034E-3
3.911807880E-1,3.513574600E-2,-8.952230215E-3,-4.974275362E-3
3.931805210E-1,3.208142146E-2,-1.078482624E-2,-4.363410641E-3
3.951802540E-1,2.780536376E-2,-1.139569096E-2,-4.974275362E-3
3.971799870E-1,2.291844226E-2,-1.200655662E-2,-7.417736575E-3
3.991797200E-1,1.864238456E-2,-1.628261432E-2,-5.585140549E-3
4.011794530E-1,1.803152077E-2,-1.628261432E-2,-7.417736575E-3
4.031792530E-1,1.619892567E-2,-2.116953395E-2,-7.417736575E-3
4.051789860E-1,8.257675916E-3,-2.666732296E-2,-3.752545221E-3
4.071787190E-1,7.035946008E-3,-2.788905427E-2,-4.363410641E-3
4.091784520E-1,5.203349981E-3,-2.972164936E-2,-4.974275362E-3
4.111781850E-1,2.149024047E-3,-3.155424446E-2,-6.196006201E-3
4.131779180E-1,3.164281952E-4,-3.338684142E-2,-8.028601296E-3
4.151776510E-1,-2.127032727E-3,-3.644116595E-2,-6.806871388E-3
4.171773840E-1,-2.944370499E-4,-3.460856900E-2,-8.028601296E-3
4.191771840E-1,-5.181358662E-3,-3.583030030E-2,-8.639466949E-3
4.211769170E-1,-3.348763334E-3,-3.705203161E-2,-8.639466949E-3
4.231766500E-1,-5.792224314E-3,-3.460856900E-2,-9.861197323E-3
4.251763830E-1,-7.013954688E-3,-3.644116595E-2,-8.639466949E-3
4.271761160E-1,-8.846551180E-3,-3.583030030E-2,-8.028601296E-3
4.291758490E-1,-5.792224314E-3,-3.583030030E-2,-9.861197323E-3
4.311755820E-1,-7.013954688E-3,-3.521943837E-2,-9.861197323E-3
4.331753150E-1,-4.570493475E-3,-3.583030030E-2,-9.861197323E-3
4.351751150E-1,-7.013954688E-3,-3.583030030E-2,-9.861197323E-3
4.371748480E-1,-6.403089501E-3,-3.888462856E-2,-9.250332601E-3
4.391745810E-1,-4.570493475E-3,-3.949549049E-2,-6.196006201E-3
4.411743140E-1,-5.792224314E-3,-4.010635614E-2,-6.806871388E-3
4.431740470E-1,-6.403089501E-3,-4.316068441E-2,-4.974275362E-3
4.451737800E-1,-6.403089501E-3,-4.682587460E-2,-6.196006201E-3
4.471735130E-1,-1.516167540E-3,-4.865847155E-2,-8.639466949E-3
4.491733130E-1,-7.013954688E-3,-5.476712435E-2,-3.752545221E-3
4.511731130E-1,-1.067914627E-2,-5.843231454E-2,-3.752545221E-3
4.531728460E-1,-8.235685527E-3,-5.721058324E-2,-3.141680034E-3
4.551725790E-1,-8.846551180E-3,-5.904318020E-2,-1.919949427E-3
4.571723120E-1,-1.067914627E-2,-5.904318020E-2,-3.141680034E-3
4.591720450E-1,-1.190087665E-2,-5.965404585E-2,-8.735372830E-5
4.611717780E-1,-1.495520305E-2,-6.087577343E-2,1.134376740E-3
4.631715110E-1,-1.556606870E-2,-6.148663908E-2,-6.982189952E-4
4.651713110E-1,-2.289645188E-2,-6.087577343E-2,1.745242043E-3
4.671711110E-1,-2.228558622E-2,-5.782144889E-2,2.356107347E-3
4.691708440E-1,-2.289645188E-2,-5.721058324E-2,2.356107347E-3
4.711705770E-1,-2.411818132E-2,-5.782144889E-2,1.745242043E-3
4.731703100E-1,-2.533991262E-2,-5.415625870E-2,5.235115532E-4
4.751700430E-1,-2.778337337E-2,-5.293452740E-2,2.356107347E-3
4.771697760E-1,-2.595077641E-2,-5.293452740E-2,1.745242043E-3
4.791695090E-1,-2.595077641E-2,-4.865847155E-2,4.799568094E-3
4.811693090E-1,-2.778337337E-2,-5.171279982E-2,5.410433281E-3
4.831690420E-1,-2.717250772E-2,-5.171279982E-2,4.799568094E-3
4.851687750E-1,-2.533991262E-2,-5.293452740E-2,4.799568094E-3
4.871685080E-1,-2.656164207E-2,-5.049106479E-2,5.410433281E-3
4.891682410E-1,-2.717250772E-2,-5.049106479E-2,4.188702907E-3
4.911679740E-1,-2.656164207E-2,-4.926933721E-2,4.799568094E-3
4.931677070E-1,-2.839423716E-2,-4.743674025E-2,6.021298934E-3
4.951674400E-1,-2.717250772E-2,-4.560414329E-2,5.410433281E-3
4.971672400E-1,-2.595077641E-2,-4.438241571E-2,6.632164121E-3
4.991669730E-1,-2.472904697E-2,-4.438241571E-2,6.021298934E-3
5.011667060E-1,-2.656164207E-2,-4.010635614E-2,4.799568094E-3
5.031664390E-1,-2.656164207E-2,-3.949549049E-2,6.021298934E-3
5.051661720E-1,-2.411818132E-2,-3.888462856E-2,6.632164121E-3
5.071659050E-1,-2.167472057E-2,-3.155424446E-2,4.188702907E-3
5.091656380E-1,-2.778337337E-2,-3.521943837E-2,7.853894494E-3
5.111653710E-1,-2.228558622E-2,-2.849991806E-2,7.243029308E-3
5.131651710E-1,-2.350731567E-2,-2.727818675E-2,7.243029308E-3
5.151649040E-1,-2.106385678E-2,-2.544559166E-2,7.853894494E-3
5.171646370E-1,-1.923125982E-2,-2.239126526E-2,7.243029308E-3
5.191643700E-1,-1.617693342E-2,-1.994780451E-2,7.853894494E-3
5.211641030E-1,-1.862039417E-2,-1.628261432E-2,9.075625800E-3
5.231638360E-1,-1.373347268E-2,-1.506088302E-2,7.853894494E-3
5.251635690E-1,-1.312260702E-2,-1.445001736E-2,6.021298934E-3
5.271633020E-1,-1.190087665E-2,-1.383915264E-2,6.632164121E-3
5.291631020E-1,-1.006828155E-2,-1.322828699E-2,8.464760147E-3
5.311628350E-1,-6.403089501E-3,-1.078482624E-2,7.243029308E-3
5.331625680E-1,-8.846551180E-3,-8.952230215E-3,8.464760147E-3
5.351623010E-1,-4.570493475E-3,-9.563094936E-3,5.410433281E-3
5.371620340E-1,-3.959628753E-3,-8.341364563E-3,7.243029308E-3
5.391617670E-1,9.272934403E-4,-7.730499841E-3,6.632164121E-3
5.411615000E-1,2.759889234E-3,-7.730499841E-3,1.029735524E-2
5.431613000E-1,7.035946008E-3,-7.119634654E-3,8.464760147E-3
5.451611000E-1,8.257675916E-3,-5.287038628E-3,9.075625800E-3
5.471608660E-1,7.035946008E-3,-4.676173907E-3,9.686490521E-3
5.491606660E-1,1.131200232E-2,-2.843577648E-3,9.686490521E-3
5.511604320E-1,1.070113759E-2,-2.843577648E-3,1.090821996E-2
5.531601980E-1,1.253373362E-2,8.216137066E-4,1.090821996E-2
5.551599640E-1,1.680978946E-2,-4.001167545E-4,1.212995127E-2
5.571597300E-1,1.925325021E-2,2.043344313E-3,1.396254729E-2
5.591595630E-1,2.047498152E-2,2.654209267E-3,1.335168164E-2
5.611593290E-1,1.864238456E-2,2.043344313E-3,1.701687276E-2
5.631590950E-1,1.925325021E-2,5.097670481E-3,1.640600711E-2
5.651588610E-1,2.414017357E-2,9.373727255E-3,1.946033537E-2
5.671586270E-1,3.085969016E-2,1.731497608E-2,1.335168164E-2
5.691583930E-1,3.024882451E-2,1.609324478E-2,2.190379612E-2
5.711581590E-1,3.452488407E-2,2.281276323E-2,1.884946786E-2
5.731579250E-1,3.513574600E-2,2.464535832E-2,1.701687276E-2
5.751577580E-1,4.002267122E-2,2.953227982E-2,2.129293047E-2
5.771575240E-1,3.880093619E-2,3.380833939E-2,2.068206482E-2
5.791572900E-1,4.613132030E-2,3.991698846E-2,1.823860407E-2
5.811570560E-1,4.674218595E-2,3.930612653E-2,2.068206482E-2
5.831568220E-1,5.040737987E-2,4.724737257E-2,2.251465991E-2
5.851565880E-1,5.101824179E-2,4.969083518E-2,2.312552556E-2
5.871563540E-1,5.468343198E-2,5.641034991E-2,2.373639122E-2
5.891561200E-1,5.590516701E-2,6.190813705E-2,2.679071575E-2
5.911559530E-1,5.712689459E-2,6.557332724E-2,2.617985196E-2
5.931557190E-1,6.079208851E-2,7.229284942E-2,2.923417836E-2
5.951554850E-1,6.262468547E-2,7.779063284E-2,2.740158327E-2
5.971552510E-1,6.384640932E-2,8.206668496E-2,2.984504402E-2
5.991550170E-1,6.690074503E-2,8.695361018E-2,3.289936855E-2
6.011547830E-1,6.812246889E-2,9.184053540E-2,3.289936855E-2
6.031545490E-1,7.545284927E-2,9.794919193E-2,3.106677346E-2
6.051543150E-1,7.667458057E-2,1.028361097E-1,3.473196551E-2
6.071541150E-1,7.728544623E-2,1.065013036E-1,3.595369682E-2
6.091538150E-1,7.850717753E-2,1.132208183E-1,3.412109986E-2
6.111535480E-1,8.033977449E-2,1.193294674E-1,3.778629377E-2
6.131532810E-1,7.972890884E-2,1.217729375E-1,3.595369682E-2
6.151530140E-1,8.461582661E-2,1.229946613E-1,4.267321527E-2
6.171527470E-1,8.767015487E-2,1.284924448E-1,3.900802135E-2
6.191524800E-1,8.828102052E-2,1.272707283E-1,4.206234589E-2
6.211522800E-1,8.889189363E-2,1.321576387E-1,4.328408092E-2
6.231520800E-1,9.133534878E-2,1.327685118E-1,4.267321527E-2
6.251517800E-1,9.133534878E-2,1.352119744E-1,4.511667415E-2
6.271515130E-1,1.004983261E-1,1.382662952E-1,4.633840546E-2
6.291512460E-1,9.622227401E-2,1.339902282E-1,5.183619261E-2
6.311509790E-1,9.744399786E-2,1.364337057E-1,5.183619261E-2
6.331507120E-1,1.017200649E-1,1.388771683E-1,5.183619261E-2
6.351504450E-1,1.053852513E-1,1.388771683E-1,5.489051715E-2
6.371502450E-1,1.072178483E-1,1.419314891E-1,5.305792391E-2
6.391499780E-1,1.090504453E-1,1.425423473E-1,5.855571106E-2
6.411497110E-1,1.102721691E-1,1.462075412E-1,5.672311410E-2
6.431494440E-1,1.163808182E-1,1.480401307E-1,5.733397976E-2
6.451491770E-1,1.157699600E-1,1.492618769E-1,5.794484168E-2
6.471489430E-1,1.145482287E-1,1.498727202E-1,5.733397976E-2
6.491486760E-1,1.212677434E-1,1.492618769E-1,5.977743864E-2
6.511484090E-1,1.218786091E-1,1.492618769E-1,6.344263256E-2
6.531482090E-1,1.243220717E-1,1.504835933E-1,6.405349821E-2
6.551479420E-1,1.255438030E-1,1.468183994E-1,6.222090125E-2
6.571476750E-1,1.249329373E-1,1.407097429E-1,6.527522951E-2
6.591474080E-1,1.267655343E-1,1.376554221E-1,6.832955033E-2
6.611471410E-1,1.255438030E-1,1.352119744E-1,6.405349821E-2
6.631468740E-1,1.279872656E-1,1.333793849E-1,6.527522951E-2
6.651466070E-1,1.285981238E-1,1.346011013E-1,6.710782647E-2
6.671463400E-1,1.279872656E-1,1.358228326E-1,6.466435641E-2
6.691461400E-1,1.316524446E-1,1.315467805E-1,6.527522951E-2
6.711458730E-1,1.322633177E-1,1.309359074E-1,6.466435641E-2
6.731456060E-1,1.310416013E-1,1.284924448E-1,6.527522951E-2
6.751453390E-1,1.285981238E-1,1.272707283E-1,6.710782647E-2
6.771450720E-1,1.285981238E-1,1.291033179E-1,6.710782647E-2
6.791448050E-1,1.304307282E-1,1.266598552E-1,6.527522951E-2
6.811445380E-1,1.279872656E-1,1.254381239E-1,6.588609517E-2
6.831442710E-1,1.279872656E-1,1.278815866E-1,6.405349821E-2
6.851441040E-1,1.273763925E-1,1.284924448E-1,6.527522951E-2
6.871439370E-1,1.285981238E-1,1.291033179E-1,6.222090125E-2
6.891436700E-1,1.237112060E-1,1.272707283E-1,6.405349821E-2
6.911434030E-1,1.279872656E-1,1.327685118E-1,6.405349821E-2
6.931431360E-1,1.304307282E-1,1.339902282E-1,6.222090125E-2
6.951428690E-1,1.322633177E-1,1.364337057E-1,6.405349821E-2
6.971426020E-1,1.304307282E-1,1.388771683E-1,6.466435641E-2
6.991424020E-1,1.353176385E-1,1.437640786E-1,6.099917367E-2
7.011422020E-1,1.389828324E-1,1.431532204E-1,5.977743864E-2
7.031420350E-1,1.389828324E-1,1.413206160E-1,6.099917367E-2
7.051417680E-1,1.426480263E-1,1.419314891E-1,5.916657671E-2
7.071414680E-1,1.438697726E-1,1.431532204E-1,6.283176690E-2
7.091412010E-1,1.481458098E-1,1.419314891E-1,6.038830429E-2
7.111409340E-1,1.505892724E-1,1.407097429E-1,6.099917367E-2
7.131406670E-1,1.493675560E-1,1.376554221E-1,5.977743864E-2
7.151404670E-1,1.524218768E-1,1.370445639E-1,5.977743864E-2
7.171402670E-1,1.524218768E-1,1.309359074E-1,5.916657671E-2
7.191400000E-1,1.548653394E-1,1.260489821E-1,6.038830429E-2
7.211397330E-1,1.542544663E-1,1.168860123E-1,6.099917367E-2
7.231394660E-1,1.554761976E-1,1.168860123E-1,6.161003560E-2
7.251391990E-1,1.548653394E-1,1.083339006E-1,6.222090125E-2
7.271389320E-1,1.560870707E-1,1.052795723E-1,5.916657671E-2
7.291386650E-1,1.566979438E-1,1.040578410E-1,6.038830429E-2
7.311384650E-1,1.573087871E-1,1.034469754E-1,6.099917367E-2
7.331381980E-1,1.573087871E-1,1.003926471E-1,5.794484168E-2
7.351379310E-1,1.573087871E-1,9.917092323E-2,5.672311410E-2
7.371376640E-1,1.609739810E-1,1.022252440E-1,5.244705454E-2
7.391373970E-1,1.615848541E-1,9.794919193E-2,5.427965149E-2
7.411371300E-1,1.634174436E-1,1.028361097E-1,5.000359565E-2
7.431368630E-1,1.676935107E-1,1.028361097E-1,4.694926739E-2
7.451365960E-1,1.725804359E-1,1.046687067E-1,4.450580850E-2
7.471362960E-1,1.829651296E-1,1.095556244E-1,3.900802135E-2
7.491360290E-1,1.860194653E-1,1.113882214E-1,3.656455874E-2
7.511357620E-1,1.884629279E-1,1.150534153E-1,3.412109986E-2
7.531354950E-1,1.970150322E-1,1.193294674E-1,2.679071575E-2
7.551352280E-1,2.025128156E-1,1.211620644E-1,2.251465991E-2
7.571349610E-1,2.043454200E-1,1.199403405E-1,2.495812252E-2
7.591346940E-1,2.104540765E-1,1.205511987E-1,2.740158327E-2
7.611344270E-1,2.104540765E-1,1.162751466E-1,2.556898631E-2
7.631341270E-1,2.147301286E-1,1.150534153E-1,2.617985196E-2
7.651338600E-1,2.171735913E-1,1.113882214E-1,2.862331271E-2
7.671335930E-1,2.196170539E-1,1.119990945E-1,2.617985196E-2
7.691333260E-1,2.214496434E-1,1.107773557E-1,2.862331271E-2
7.711330590E-1,2.196170539E-1,1.065013036E-1,2.923417836E-2
7.731327920E-1,2.245039642E-1,1.003926471E-1,2.862331271E-2
7.751325250E-1,2.232822478E-1,9.978178144E-2,2.923417836E-2
7.771322580E-1,2.257257104E-1,9.611659497E-2,2.434725501E-2
7.791320580E-1,2.257257104E-1,9.428399801E-2,2.434725501E-2
7.811317910E-1,2.287800312E-1,8.756447583E-2,2.312552556E-2
7.831315240E-1,2.263365686E-1,7.473630458E-2,2.740158327E-2
7.851312570E-1,2.257257104E-1,7.168198377E-2,2.679071575E-2
7.871309900E-1,2.257257104E-1,6.068640947E-2,3.045590781E-2
7.891307230E-1,2.226713747E-1,4.846910387E-2,3.106677346E-2
7.911304560E-1,2.251148373E-1,4.480391368E-2,3.289936855E-2
7.931302560E-1,2.202279270E-1,2.892141603E-2,3.839715570E-2
7.951300560E-1,2.190061808E-1,1.609324478E-2,4.206234589E-2
7.971297890E-1,2.177844495E-1,9.373727255E-3,4.267321527E-2
7.991295220E-1,2.141192555E-1,-2.232712461E-3,4.694926739E-2
8.011292550E-1,2.116757929E-1,-1.139569096E-2,4.939273000E-2
8.031289880E-1,2.098432034E-1,-1.445001736E-2,5.427965149E-2
8.051287210E-1,2.067888826E-1,-2.055867016E-2,5.244705454E-2
8.071284540E-1,2.080105990E-1,-2.483472601E-2,5.427965149E-2
8.091282540E-1,2.031236887E-1,-3.033251315E-2,5.611224845E-2
8.111279870E-1,2.012910992E-1,-3.094337881E-2,5.489051715E-2
8.131277200E-1,1.951824278E-1,-3.277597576E-2,5.366878957E-2
8.151274530E-1,1.927389801E-1,-3.216510639E-2,5.122532696E-2
8.171271860E-1,1.884629279E-1,-3.216510639E-2,4.939273000E-2
8.191269190E-1,1.811325401E-1,-3.277597576E-2,4.694926739E-2
8.211266520E-1,1.829651296E-1,-2.911078185E-2,4.328408092E-2
8.231263850E-1,1.744130254E-1,-3.399770334E-2,4.511667415E-2
8.251261850E-1,1.701369584E-1,-3.705203161E-2,4.389494285E-2
8.271259180E-1,1.670826375E-1,-3.827376291E-2,4.389494285E-2
8.291256510E-1,1.597522646E-1,-4.316068441E-2,4.328408092E-2
8.311253840E-1,1.621957272E-1,-4.499327764E-2,4.206234589E-2
8.331251170E-1,1.585305333E-1,-5.171279982E-2,4.206234589E-2
8.351248500E-1,1.548653394E-1,-5.171279982E-2,3.778629377E-2
8.371245830E-1,1.512001455E-1,-5.659972131E-2,3.656455874E-2
8.391243160E-1,1.487566829E-1,-5.659972131E-2,3.473196551E-2
8.411241160E-1,1.450914890E-1,-5.965404585E-2,3.106677346E-2
8.431238490E-1,1.426480263E-1,-5.904318020E-2,3.045590781E-2
8.451235820E-1,1.377611011E-1,-5.965404585E-2,2.740158327E-2
8.471233150E-1,1.340959221E-1,-6.148663908E-2,2.740158327E-2
8.491230480E-1,1.292089969E-1,-6.270837039E-2,2.495812252E-2
8.511227810E-1,1.249329373E-1,-6.698442996E-2,2.556898631E-2
8.531225140E-1,1.194351465E-1,-6.942788512E-2,2.679071575E-2
8.551222470E-1,1.206568852E-1,-7.187135518E-2,2.373639122E-2
8.571220470E-1,1.127156317E-1,-7.675827295E-2,2.801244706E-2
8.591217800E-1,1.090504453E-1,-8.347778767E-2,2.740158327E-2
8.611215130E-1,1.066069826E-1,-8.592125028E-2,2.923417836E-2
8.631212460E-1,9.866573662E-2,-8.958644420E-2,2.923417836E-2
8.651209790E-1,9.072449058E-2,-8.897557855E-2,3.412109986E-2
8.671207120E-1,9.377881140E-2,-8.653212339E-2,2.862331271E-2
8.691204450E-1,8.156150579E-2,-8.714298159E-2,2.984504402E-2
8.711202450E-1,8.033977449E-2,-8.408865333E-2,2.984504402E-2
8.731200450E-1,7.117679715E-2,-8.225605637E-2,3.045590781E-2
8.751197780E-1,6.934420019E-2,-7.431481034E-2,2.923417836E-2
8.771195110E-1,6.201381609E-2,-7.553654164E-2,2.923417836E-2
8.791192440E-1,5.468343198E-2,-7.370395213E-2,3.351023421E-2
8.811189770E-1,4.796391726E-2,-7.370395213E-2,3.778629377E-2
8.831187100E-1,4.552045837E-2,-7.553654164E-2,3.900802135E-2
8.851184430E-1,3.635747731E-2,-7.187135518E-2,4.145148396E-2
8.871182430E-1,2.841622941E-2,-6.881702691E-2,4.145148396E-2
8.891179760E-1,2.536190487E-2,-6.515183300E-2,4.022975266E-2
8.911177090E-1,2.169671282E-2,-6.515183300E-2,3.900802135E-2
8.931174420E-1,1.680978946E-2,-6.393010169E-2,3.595369682E-2
8.951171750E-1,1.864238456E-2,-6.270837039E-2,3.412109986E-2
8.971169080E-1,1.742065512E-2,-6.026491150E-2,2.984504402E-2
8.991166410E-1,1.009027194E-2,-5.965404585E-2,2.617985196E-2
9.011163740E-1,1.314459834E-2,-5.537798628E-2,2.556898631E-2
9.031161740E-1,1.009027194E-2,-5.354539305E-2,2.495812252E-2
9.051159070E-1,8.257675916E-3,-4.988020286E-2,2.190379612E-2
9.071156400E-1,6.425080821E-3,-4.804760590E-2,2.007119916E-2
9.091153730E-1,3.981619608E-3,-4.316068441E-2,2.068206482E-2
9.111151060E-1,3.164281952E-4,-3.644116595E-2,1.823860407E-2
9.131148390E-1,-3.348763334E-3,-3.216510639E-2,2.068206482E-2
9.151145720E-1,-6.403089501E-3,-2.788905427E-2,1.884946786E-2
9.171143050E-1,-7.013954688E-3,-2.300213091E-2,1.396254729E-2
9.191141050E-1,-1.006828155E-2,-2.116953395E-2,1.396254729E-2
9.211138380E-1,-1.556606870E-2,-1.872607507E-2,1.396254729E-2
9.231135710E-1,-2.106385678E-2,-1.933693886E-2,1.640600711E-2
9.251133040E-1,-2.411818132E-2,-1.933693886E-2,1.335168164E-2
9.271131370E-1,-2.167472057E-2,-1.811520942E-2,1.274081599E-2
9.291128700E-1,-3.205942735E-2,-2.422386222E-2,1.396254729E-2
9.311126030E-1,-3.022683412E-2,-2.727818675E-2,1.640600711E-2
9.331123360E-1,-3.389202431E-2,-3.094337881E-2,1.762773842E-2
9.351121360E-1,-3.694634885E-2,-3.583030030E-2,1.457341202E-2
9.371118690E-1,-3.877894580E-2,-4.071722552E-2,1.701687276E-2
9.391116020E-1,-4.183327407E-2,-4.316068441E-2,1.701687276E-2
9.411113350E-1,-4.244413599E-2,-4.743674025E-2,2.007119916E-2
9.431110680E-1,-4.244413599E-2,-4.926933721E-2,1.946033537E-2
9.451108010E-1,-4.183327407E-2,-5.598885193E-2,2.129293047E-2
9.471105340E-1,-4.183327407E-2,-5.721058324E-2,2.068206482E-2
9.491103340E-1,-4.122240841E-2,-5.965404585E-2,2.251465991E-2
9.511101340E-1,-4.183327407E-2,-6.209750846E-2,2.190379612E-2
9.531099000E-1,-4.427673295E-2,-6.393010169E-2,2.251465991E-2
9.551096660E-1,-4.549846798E-2,-6.087577343E-2,2.373639122E-2
9.571094320E-1,-4.549846798E-2,-5.904318020E-2,2.373639122E-2
9.591091980E-1,-4.610932991E-2,-5.415625870E-2,2.251465991E-2
9.611089640E-1,-4.427673295E-2,-4.743674025E-2,2.312552556E-2
9.631087300E-1,-4.549846798E-2,-4.621501267E-2,2.312552556E-2
9.651085630E-1,-4.610932991E-2,-3.766289353E-2,2.251465991E-2
9.671083960E-1,-4.488759860E-2,-2.727818675E-2,2.251465991E-2
9.691081620E-1,-4.916365817E-2,-2.666732296E-2,2.434725501E-2
9.711079280E-1,-4.733106121E-2,-1.567174867E-2,2.434725501E-2
9.731076940E-1,-4.733106121E-2,-5.287038628E-3,2.434725501E-2
9.751074600E-1,-4.733106121E-2,-4.065308254E-3,2.923417836E-2
9.771072260E-1,-5.282884836E-2,3.265074687E-3,2.984504402E-2
9.791069920E-1,-5.343971401E-2,6.319400854E-3,3.106677346E-2
9.811068250E-1,-4.977452010E-2,1.059545763E-2,3.045590781E-2
9.831065910E-1,-5.405057967E-2,1.670410857E-2,3.412109986E-2
9.851063570E-1,-5.221798271E-2,2.403449267E-2,3.656455874E-2
9.871060230E-1,-5.221798271E-2,3.014314547E-2,3.473196551E-2
9.891057890E-1,-5.954836681E-2,2.647795528E-2,4.267321527E-2
9.911055550E-1,-5.893750116E-2,3.258660436E-2,4.572753981E-2
9.931053210E-1,-5.832663178E-2,3.380833939E-2,4.756013304E-2
9.951050870E-1,-5.771576986E-2,3.441920131E-2,5.061446130E-2
9.971049200E-1,-6.138096377E-2,3.258660436E-2,5.427965149E-2
9.991046860E-1,-6.138096377E-2,3.319747001E-2,5.733397976E-2
1.001104452E0,-6.260269135E-2,3.258660436E-2,5.916657671E-2
1.003104218E0,-6.015922874E-2,3.441920131E-2,5.855571106E-2
1.005103984E0,-6.260269135E-2,3.625179827E-2,6.222090125E-2
1.007103750E0,-6.626788527E-2,3.564093262E-2,6.832955033E-2
1.009103516E0,-6.321355700E-2,3.808439150E-2,6.771869212E-2
1.011103282E0,-6.565701962E-2,4.358217865E-2,7.016214728E-2
1.013103082E0,-6.687874347E-2,4.602564126E-2,6.894042343E-2
1.015102815E0,-6.626788527E-2,5.152342841E-2,7.504907250E-2
1.017102548E0,-6.565701962E-2,5.579948425E-2,7.565993816E-2
1.019102281E0,-6.810048223E-2,5.824294686E-2,7.810340077E-2
1.021102014E0,-6.810048223E-2,5.885381252E-2,7.749252766E-2
1.023101747E0,-6.687874347E-2,5.885381252E-2,7.993599772E-2
1.025101480E0,-6.810048223E-2,5.885381252E-2,8.299031854E-2
1.027101213E0,-6.687874347E-2,5.885381252E-2,8.054686338E-2
1.029101013E0,-7.054393739E-2,5.396688730E-2,8.054686338E-2
1.031100746E0,-6.871134043E-2,5.213429406E-2,8.237945288E-2
1.033100479E0,-7.054393739E-2,5.396688730E-2,8.299031854E-2
1.035100212E0,-6.504614651E-2,5.763208121E-2,8.543377370E-2
1.037099945E0,-6.260269135E-2,5.457775667E-2,8.787724376E-2
1.039099678E0,-5.893750116E-2,5.641034991E-2,8.604464680E-2
1.041099411E0,-5.527230725E-2,5.763208121E-2,8.848810941E-2
1.043099211E0,-4.855279252E-2,5.335602537E-2,9.154243767E-2
1.045099011E0,-4.733106121E-2,5.641034991E-2,8.970984071E-2
1.047098744E0,-3.633548692E-2,6.007554382E-2,8.665551245E-2
1.049098477E0,-4.000068083E-2,5.579948425E-2,9.276416153E-2
1.051098210E0,-2.595077641E-2,5.641034991E-2,9.215329587E-2
1.053097943E0,-1.923125982E-2,5.579948425E-2,9.337502718E-2
1.055097676E0,-1.190087665E-2,5.396688730E-2,9.520762414E-2
1.057097409E0,-5.181358662E-3,5.763208121E-2,9.520762414E-2
1.059097209E0,1.009027194E-2,5.946467444E-2,9.154243767E-2
1.061096942E0,1.375546400E-2,6.007554382E-2,8.970984071E-2
1.063096675E0,2.352930792E-2,6.496246159E-2,9.154243767E-2
1.065096408E0,3.024882451E-2,6.740592420E-2,9.215329587E-2
1.067096141E0,3.513574600E-2,7.046025246E-2,9.154243767E-2
1.069095874E0,4.429872334E-2,7.534717768E-2,9.581848979E-2
1.071095607E0,4.918564484E-2,8.206668496E-2,9.215329587E-2
1.073095340E0,5.651602894E-2,8.389928192E-2,9.154243767E-2
1.075095140E0,5.957035720E-2,8.512102067E-2,9.337502718E-2
1.077094873E0,6.751160324E-2,8.451015502E-2,9.704022110E-2
1.079094606E0,7.117679715E-2,8.267755806E-2,9.642935544E-2
1.081094339E0,7.850717753E-2,7.962322980E-2,9.948368371E-2
1.083094072E0,8.278323710E-2,7.351458073E-2,1.037597358E-1
1.085093805E0,8.583756536E-2,6.740592420E-2,1.062031984E-1
1.087093538E0,9.438967705E-2,6.129727140E-2,1.049814671E-1
1.089093271E0,1.017200649E-1,5.946467444E-2,1.043706089E-1
1.091093071E0,1.047743857E-1,5.274515972E-2,1.068140641E-1
1.093092804E0,1.108830348E-1,4.358217865E-2,1.086466610E-1
1.095092537E0,1.169916913E-1,4.052785411E-2,1.080357954E-1
1.097092270E0,1.194351465E-1,3.014314547E-2,1.129227132E-1
1.099092003E0,1.267655343E-1,2.159103192E-2,1.110901162E-1
1.101091736E0,1.279872656E-1,1.548238005E-2,1.123118550E-1
1.103091469E0,1.322633177E-1,6.319400854E-3,1.117009893E-1
1.105091202E0,1.371502429E-1,-3.454443067E-3,1.074249297E-1
1.107091135E0,1.457023621E-1,-3.454443067E-3,1.025380120E-1
1.109090868E0,1.450914890E-1,-1.506088302E-2,9.887281805E-2
1.111090601E0,1.512001455E-1,-6.508769002E-3,8.970984071E-2
1.113090334E0,1.560870707E-1,-5.287038628E-3,8.237945288E-2
1.115090067E0,1.579196602E-1,-1.010982087E-3,7.565993816E-2
1.117089800E0,1.615848541E-1,6.319400854E-3,6.649695337E-2
1.119089533E0,1.603631228E-1,5.708535668E-3,6.466435641E-2
1.121089333E0,1.634174436E-1,3.265074687E-3,6.161003560E-2
1.123089133E0,1.664717644E-1,-3.454443067E-3,6.099917367E-2
1.125088866E0,1.646391749E-1,-4.065308254E-3,5.794484168E-2
1.127088599E0,1.640283167E-1,-1.383915264E-2,5.794484168E-2
1.129088332E0,1.640283167E-1,-1.872607507E-2,5.916657671E-2
1.131088065E0,1.646391749E-1,-2.178040147E-2,5.794484168E-2
1.133087798E0,1.646391749E-1,-3.094337881E-2,5.672311410E-2
1.135087531E0,1.646391749E-1,-3.033251315E-2,5.611224845E-2
1.137087331E0,1.640283167E-1,-2.972164936E-2,5.489051715E-2
1.139087064E0,1.628065854E-1,-2.788905427E-2,5.794484168E-2
1.141086797E0,1.585305333E-1,-2.972164936E-2,5.794484168E-2
1.143086530E0,1.597522646E-1,-2.239126526E-2,5.427965149E-2
1.145086263E0,1.591413915E-1,-1.383915264E-2,5.244705454E-2
1.147085996E0,1.591413915E-1,-1.322828699E-2,5.366878957E-2
1.149085729E0,1.597522646E-1,-6.508769002E-3,5.061446130E-2
1.151085462E0,1.615848541E-1,-2.843577648E-3,5.183619261E-2
1.153085262E0,1.609739810E-1,-2.843577648E-3,5.244705454E-2
1.155084995E0,1.628065854E-1,-3.454443067E-3,5.305792391E-2
1.157084728E0,1.658609211E-1,-1.017396059E-2,5.427965149E-2
1.159084461E0,1.676935107E-1,-1.139569096E-2,5.550138652E-2
1.161084194E0,1.695261151E-1,-1.567174867E-2,5.550138652E-2
1.163083927E0,1.731912941E-1,-2.300213091E-2,5.733397976E-2
1.165083660E0,1.725804359E-1,-2.788905427E-2,5.733397976E-2
1.167083260E0,1.774673462E-1,-3.277597576E-2,5.672311410E-2
1.169083060E0,1.713587046E-1,-4.377155006E-2,6.161003560E-2
1.171082793E0,1.756347567E-1,-4.499327764E-2,6.161003560E-2
1.173082526E0,1.725804359E-1,-4.560414329E-2,6.222090125E-2
1.175082259E0,1.719695628E-1,-5.171279982E-2,6.588609517E-2
1.177081992E0,1.731912941E-1,-5.415625870E-2,6.832955033E-2
1.179081725E0,1.738021523E-1,-5.965404585E-2,6.955128163E-2
1.181081458E0,1.707478315E-1,-6.820616126E-2,7.199474424E-2
1.183081191E0,1.744130254E-1,-6.820616126E-2,7.199474424E-2
1.185080991E0,1.725804359E-1,-7.614740729E-2,7.565993816E-2
1.187080724E0,1.719695628E-1,-7.859086245E-2,7.627080381E-2
1.189080457E0,1.750238985E-1,-8.347778767E-2,7.871426642E-2
1.191080190E0,1.719695628E-1,-9.019730985E-2,8.115772158E-2
1.193079923E0,1.725804359E-1,-9.264077246E-2,8.176859468E-2
1.195079656E0,1.738021523E-1,-1.005820185E-1,8.543377370E-2
1.197079389E0,1.725804359E-1,-1.054689437E-1,8.665551245E-2
1.199079189E0,1.750238985E-1,-1.079123989E-1,8.726637065E-2
1.201078989E0,1.701369584E-1,-1.115775928E-1,9.337502718E-2
1.203078755E0,1.731912941E-1,-1.134101897E-1,9.826194495E-2
1.205078521E0,1.750238985E-1,-1.127993241E-1,1.025380120E-1
1.207078287E0,1.774673462E-1,-1.158536449E-1,1.068140641E-1
1.209078053E0,1.768564880E-1,-1.195188388E-1,1.110901162E-1
1.211077819E0,1.786890924E-1,-1.207405701E-1,1.147553101E-1
1.213077585E0,1.811325401E-1,-1.176862419E-1,1.190313697E-1
1.215077418E0,1.817434132E-1,-1.189079732E-1,1.257508844E-1
1.217077251E0,1.854086071E-1,-1.182971150E-1,1.269726157E-1
1.219077117E0,1.854086071E-1,-1.152427793E-1,1.318595409E-1
1.221076983E0,1.896846443E-1,-1.097449958E-1,1.343029886E-1
1.223076849E0,1.909063905E-1,-1.103558615E-1,1.361355931E-1
1.225076715E0,1.951824278E-1,-1.011928767E-1,1.361355931E-1
1.227076581E0,2.000693679E-1,-9.325163066E-2,1.373573244E-1
1.229076447E0,1.964041740E-1,-9.569509327E-2,1.446877122E-1
1.231076380E0,2.025128156E-1,-8.714298159E-2,1.416333765E-1
1.233076313E0,2.067888826E-1,-8.531038463E-2,1.410225183E-1
1.235076246E0,2.135083973E-1,-8.531038463E-2,1.373573244E-1
1.237076179E0,2.226713747E-1,-7.431481034E-2,1.263617575E-1
1.239076112E0,2.287800312E-1,-6.515183300E-2,1.178096384E-1
1.241076045E0,2.428299189E-1,-6.270837039E-2,1.141444445E-1
1.243075978E0,2.483277172E-1,-6.393010169E-2,1.196422353E-1
1.245075911E0,2.507711649E-1,-6.270837039E-2,1.226965636E-1
1.247075911E0,2.556580901E-1,-6.881702691E-2,1.300269514E-1
1.249075844E0,2.605450153E-1,-6.881702691E-2,1.391899288E-1
1.251075810E0,2.642101943E-1,-7.003875822E-2,1.416333765E-1
1.253075776E0,2.697080076E-1,-6.393010169E-2,1.459094435E-1
1.255075742E0,2.800927162E-1,-5.415625870E-2,1.452985704E-1
1.257075708E0,2.837578952E-1,-4.926933721E-2,1.459094435E-1
1.259075674E0,2.935317457E-1,-3.766289353E-2,1.446877122E-1
1.261075640E0,3.014729917E-1,-2.239126526E-2,1.440768391E-1
1.263075640E0,3.081924915E-1,-1.689347811E-2,1.428551227E-1
1.265075606E0,3.155228794E-1,-1.621847274E-3,1.391899288E-1
1.267075572E0,3.234641552E-1,1.731497608E-2,1.355247349E-1
1.269075538E0,3.252967596E-1,2.647795528E-2,1.343029886E-1
1.271075504E0,3.326271474E-1,4.480391368E-2,1.245291606E-1
1.273075470E0,3.362923265E-1,5.518862233E-2,1.190313697E-1
1.275075436E0,3.405683637E-1,7.779063284E-2,1.092575192E-1
1.277075402E0,3.460661769E-1,9.794919193E-2,9.948368371E-2
1.279075335E0,3.478987515E-1,1.058904380E-1,9.337502718E-2
1.281075268E0,3.503422141E-1,1.266598552E-1,8.604464680E-2
1.283075201E0,3.527856767E-1,1.480401307E-1,7.810340077E-2
1.285075134E0,3.540074229E-1,1.590357125E-1,7.443820685E-2
1.287075100E0,3.607269228E-1,1.816377193E-1,6.588609517E-2
1.289075033E0,3.564508557E-1,1.981310844E-1,6.527522951E-2
1.291074966E0,3.595051765E-1,2.079049349E-1,6.222090125E-2
1.293074899E0,3.601160645E-1,2.305069417E-1,6.099917367E-2
1.295074832E0,3.613378108E-1,2.488328964E-1,5.855571106E-2
1.297074698E0,3.607269228E-1,2.561632991E-1,6.222090125E-2
1.299074564E0,3.607269228E-1,2.720457911E-1,6.405349821E-2
1.301074430E0,3.631703854E-1,2.836522162E-1,5.977743864E-2
1.303074296E0,3.643921316E-1,2.897608578E-1,6.283176690E-2
1.305074162E0,3.643921316E-1,2.995347381E-1,6.771869212E-2
1.307074028E0,3.680573106E-1,3.080868125E-1,6.832955033E-2
1.309073961E0,3.686681688E-1,3.111411333E-1,7.321647555E-2
1.311073794E0,3.686681688E-1,3.148063421E-1,8.115772158E-2
1.313073627E0,3.741659522E-1,3.135846257E-1,8.604464680E-2
1.315073460E0,3.711116314E-1,3.056433797E-1,9.154243767E-2
1.317073293E0,3.674464524E-1,2.891500294E-1,9.642935544E-2
1.319073126E0,3.692790270E-1,2.793761492E-1,1.000945419E-1
1.321072959E0,3.668355644E-1,2.653262615E-1,1.049814671E-1
1.323072792E0,3.686681688E-1,2.488328964E-1,1.147553101E-1
1.325072658E0,3.698898852E-1,2.396699190E-1,1.178096384E-1
1.327072458E0,3.711116314E-1,2.189005166E-1,1.233074293E-1
1.329072258E0,3.637812436E-1,1.969093680E-1,1.294160783E-1
1.331072058E0,3.650029898E-1,1.828594506E-1,1.275834739E-1
1.333071858E0,3.588943183E-1,1.547596604E-1,1.318595409E-1
1.335071691E0,3.485096097E-1,1.248272583E-1,1.367464662E-1
1.337071491E0,3.485096097E-1,1.089447662E-1,1.361355931E-1
1.339071291E0,3.362923265E-1,7.779063284E-2,1.355247349E-1
1.341071091E0,3.246858716E-1,4.541477561E-2,1.385790557E-1
1.343070824E0,3.222424090E-1,3.075401112E-2,1.391899288E-1
1.345070557E0,3.185772002E-1,6.930266507E-3,1.440768391E-1
1.347070223E0,3.210206926E-1,-1.200655662E-2,1.471311599E-1
1.349069956E0,3.130794466E-1,-3.033251315E-2,1.532398164E-1
1.351069689E0,3.149120212E-1,-5.049106479E-2,1.538506895E-1
1.353069455E0,3.118577003E-1,-7.859086245E-2,1.550724208E-1
1.355069188E0,3.112468123E-1,-8.531038463E-2,1.569050103E-1
1.357068988E0,3.045273125E-1,-1.066906676E-1,1.544615477E-1
1.359068721E0,3.014729917E-1,-1.231840253E-1,1.507963538E-1
1.361068454E0,3.014729917E-1,-1.347904652E-1,1.495746374E-1
1.363068187E0,3.002512455E-1,-1.494512260E-1,1.404116452E-1
1.365067920E0,2.990295291E-1,-1.586142182E-1,1.373573244E-1
1.367067653E0,3.020838499E-1,-1.744967103E-1,1.281943470E-1
1.369067386E0,3.075816333E-1,-1.806053668E-1,1.171987727E-1
1.371067186E0,3.057490587E-1,-1.848814189E-1,1.153661832E-1
1.373066986E0,3.088033795E-1,-1.928226650E-1,1.055923328E-1
1.375066719E0,3.075816333E-1,-2.056508362E-1,1.025380120E-1
1.377066452E0,3.081924915E-1,-2.123703659E-1,9.887281805E-2
1.379066185E0,3.094142377E-1,-2.282528579E-1,9.276416153E-2
1.381065918E0,3.045273125E-1,-2.404701561E-1,8.604464680E-2
1.383065651E0,3.020838499E-1,-2.471896857E-1,8.299031854E-2
1.385065384E0,2.978078127E-1,-2.661264837E-1,7.810340077E-2
1.387065184E0,2.916991711E-1,-2.820090055E-1,7.504907250E-2
1.389064984E0,2.898665369E-1,-2.881176472E-1,7.077302039E-2
1.391064717E0,2.874231040E-1,-3.076653481E-1,6.649695337E-2
1.393064450E0,2.819252908E-1,-3.333216906E-1,6.894042343E-2
1.395064150E0,2.831470370E-1,-3.443172574E-1,6.344263256E-2
1.397063883E0,2.776492536E-1,-3.626432121E-1,5.855571106E-2
1.399063616E0,2.752057910E-1,-3.791365623E-1,5.122532696E-2
1.401063349E0,2.715405822E-1,-3.889104128E-1,5.061446130E-2
1.403063149E0,2.660428286E-1,-4.102907181E-1,4.145148396E-2
1.405062882E0,2.581015527E-1,-4.249514639E-1,2.923417836E-2
1.407062648E0,2.599341571E-1,-4.304492474E-1,2.312552556E-2
1.409062381E0,2.471059859E-1,-4.487752020E-1,1.579514146E-2
1.411062114E0,2.422190756E-1,-4.561055899E-1,1.151908562E-2
1.413061814E0,2.306126207E-1,-4.695446193E-1,1.745242043E-3
1.415061547E0,2.202279270E-1,-4.854271114E-1,-7.417736575E-3
1.417061280E0,2.147301286E-1,-4.927574992E-1,-1.230465900E-2
1.419061080E0,2.000693679E-1,-5.123052001E-1,-1.535898540E-2
1.421060813E0,1.915172487E-1,-5.300202370E-1,-2.452196367E-2
1.423060546E0,1.860194653E-1,-5.410158634E-1,-2.879801951E-2
1.425060279E0,1.780782193E-1,-5.507896543E-1,-4.223705828E-2
1.427060012E0,1.756347567E-1,-5.697265267E-1,-4.956743866E-2
1.429059745E0,1.713587046E-1,-5.795003772E-1,-4.468051344E-2
1.431059478E0,1.646391749E-1,-6.051567197E-1,-3.796099871E-2
1.433059211E0,1.579196602E-1,-6.277587414E-1,-3.368493915E-2
1.435059011E0,1.560870707E-1,-6.381434202E-1,-2.940888517E-2
1.437058744E0,1.512001455E-1,-6.613563299E-1,-2.452196367E-2
1.439058477E0,1.524218768E-1,-6.802931428E-1,-2.268936671E-2
1.441058210E0,1.512001455E-1,-6.870126128E-1,-2.024590597E-2
1.443057943E0,1.548653394E-1,-7.041168809E-1,-1.963504218E-2
1.445057676E0,1.542544663E-1,-7.212211490E-1,-1.658071578E-2
1.447057409E0,1.573087871E-1,-7.254971862E-1,-1.963504218E-2
1.449057142E0,1.591413915E-1,-7.340492606E-1,-3.001975082E-2
1.451056942E0,1.670826375E-1,-7.401579618E-1,-4.162618890E-2
1.453056675E0,1.713587046E-1,-7.456557155E-1,-4.162618890E-2
1.455056408E0,1.780782193E-1,-7.535969615E-1,-3.612840176E-2
1.457056141E0,1.811325401E-1,-7.578730583E-1,-3.063061461E-2
1.459055874E0,1.872411966E-1,-7.615382075E-1,-2.330023423E-2
1.461055607E0,1.915172487E-1,-7.597056031E-1,-1.413725503E-2
1.463055340E0,1.927389801E-1,-7.603164911E-1,-1.047206298E-2
1.465055173E0,2.019019574E-1,-7.517643571E-1,-7.417736575E-3
1.467055106E0,2.116757929E-1,-7.407687902E-1,-7.417736575E-3
1.469054839E0,2.110649347E-1,-7.383252978E-1,-6.196006201E-3
1.471054572E0,2.196170539E-1,-7.303841114E-1,-1.047206298E-2
1.473054305E0,2.293909043E-1,-7.181668282E-1,-1.474811975E-2
1.475054038E0,2.318343520E-1,-7.193884850E-1,-1.230465900E-2
1.477053771E0,2.354995459E-1,-7.096146941E-1,-1.108292770E-2
1.479053504E0,2.373321354E-1,-7.065603733E-1,-8.028601296E-3
1.481053304E0,2.373321354E-1,-7.053385973E-1,-7.417736575E-3
1.483053037E0,2.385538816E-1,-6.973973513E-1,-6.806871388E-3
1.485052770E0,2.416082025E-1,-6.912887096E-1,-6.196006201E-3
1.487052503E0,2.416082025E-1,-6.894561052E-1,-8.639466949E-3
1.489052236E0,2.440516651E-1,-6.870126128E-1,-9.861197323E-3
1.491051969E0,2.452733964E-1,-6.857908964E-1,-1.291552372E-2
1.493051702E0,2.458842695E-1,-6.821257472E-1,-1.474811975E-2
1.495051435E0,2.477168590E-1,-6.778496504E-1,-1.352638938E-2
1.497051235E0,2.513820529E-1,-6.686866879E-1,-1.474811975E-2
1.499050968E0,2.550472319E-1,-6.656323671E-1,-1.596985012E-2
1.501050701E0,2.654319406E-1,-6.570802331E-1,-2.574369498E-2
1.503050434E0,2.745949030E-1,-6.515824795E-1,-3.185234591E-2
1.505050167E0,2.800927162E-1,-6.515824795E-1,-2.940888517E-2
1.507049900E0,2.874231040E-1,-6.515824795E-1,-2.207850292E-2
1.509049633E0,2.868122160E-1,-6.497498751E-1,-1.780244708E-2
1.511049366E0,2.868122160E-1,-6.497498751E-1,-6.806871388E-3
1.513049166E0,2.898665369E-1,-6.381434202E-1,1.134376740E-3
1.515048899E0,2.947534919E-1,-6.308130622E-1,4.188702907E-3
1.517048632E0,2.941426039E-1,-6.204283237E-1,6.632164121E-3
1.519048365E0,2.941426039E-1,-6.112653613E-1,9.686490521E-3
1.521048098E0,2.959752083E-1,-6.057676077E-1,1.090821996E-2
1.523047831E0,3.008621335E-1,-5.917176604E-1,7.243029308E-3
1.525047531E0,2.996404171E-1,-5.868307352E-1,1.090821996E-2
1.527047131E0,3.026947379E-1,-5.795003772E-1,8.464760147E-3
1.529046931E0,3.002512455E-1,-5.740025640E-1,1.457341202E-2
1.531046664E0,3.026947379E-1,-5.605635643E-1,1.090821996E-2
1.533046397E0,3.014729917E-1,-5.575092435E-1,1.151908562E-2
1.535046130E0,3.020838499E-1,-5.465136766E-1,1.274081599E-2
1.537045863E0,3.020838499E-1,-5.379615426E-1,1.335168164E-2
1.539045596E0,3.063599169E-1,-5.324637294E-1,1.457341202E-2
1.541045329E0,3.033055961E-1,-5.245225430E-1,1.212995127E-2
1.543045129E0,3.051381707E-1,-5.245225430E-1,1.212995127E-2
1.545044929E0,3.045273125E-1,-5.214682221E-1,1.274081599E-2
1.547044662E0,3.051381707E-1,-5.147486329E-1,1.212995127E-2
1.549044395E0,3.063599169E-1,-5.159704089E-1,1.274081599E-2
1.551044128E0,3.088033795E-1,-5.190247297E-1,9.075625800E-3
1.553043861E0,3.118577003E-1,-5.220790505E-1,6.021298934E-3
1.555043594E0,3.106359839E-1,-5.233007669E-1,4.799568094E-3
1.557043327E0,3.112468123E-1,-5.300202370E-1,2.966972534E-3
1.559043127E0,3.112468123E-1,-5.397941470E-1,2.356107347E-3
1.561042860E0,3.118577003E-1,-5.428484678E-1,2.356107347E-3
1.563042693E0,3.088033795E-1,-5.575092435E-1,3.577837721E-3
1.565042426E0,3.069708049E-1,-5.654504299E-1,-1.309084124E-3
1.567042159E0,3.020838499E-1,-5.746134520E-1,-6.982189952E-4
1.569041892E0,2.971969247E-1,-5.849981904E-1,-1.919949427E-3
1.571041625E0,2.910882831E-1,-5.935502648E-1,-2.530814614E-3
1.573041358E0,2.910882831E-1,-5.990480185E-1,-3.752545221E-3
1.575041158E0,2.825361490E-1,-6.106544733E-1,-5.585140549E-3
1.577040891E0,2.764275074E-1,-6.155414581E-1,-7.417736575E-3
1.579040624E0,2.703188658E-1,-6.198174953E-1,-8.639466949E-3
1.581040357E0,2.635993361E-1,-6.283695698E-1,-1.413725503E-2
1.583040090E0,2.562689483E-1,-6.405869126E-1,-1.780244708E-2
1.585039823E0,2.556580901E-1,-6.424195170E-1,-2.452196367E-2
1.587039556E0,2.519929111E-1,-6.430303454E-1,-3.246321157E-2
1.589039289E0,2.403864712E-1,-6.534150243E-1,-3.307407722E-2
1.591039089E0,2.367212772E-1,-6.570802331E-1,-4.406965151E-2
1.593038822E0,2.306126207E-1,-6.607454419E-1,-5.689782277E-2
1.595038555E0,2.263365686E-1,-6.692975760E-1,-6.178474426E-2
1.597038288E0,2.171735913E-1,-6.766279340E-1,-6.972599030E-2
1.599038021E0,2.122866660E-1,-6.778496504E-1,-7.766723633E-2
1.601037754E0,2.080105990E-1,-6.790714264E-1,-8.133243024E-2
1.603037487E0,2.000693679E-1,-6.876235604E-1,-8.988454193E-2
1.605037220E0,1.945715845E-1,-6.931212544E-1,-9.843666106E-2
1.607037020E0,1.909063905E-1,-6.931212544E-1,-1.014909819E-1
1.609036753E0,1.890737861E-1,-6.925104260E-1,-1.106539592E-1
1.611036486E0,1.854086071E-1,-6.992299557E-1,-1.155408844E-1
1.613036219E0,1.847977340E-1,-6.955647469E-1,-1.198169440E-1
1.615035952E0,1.792999357E-1,-7.010625601E-1,-1.259255856E-1
1.617035685E0,1.725804359E-1,-7.077820301E-1,-1.320342422E-1
1.619035418E0,1.695261151E-1,-7.096146941E-1,-1.332559884E-1
1.621035218E0,1.646391749E-1,-7.163341641E-1,-1.387537718E-1
1.623034918E0,1.585305333E-1,-7.230536938E-1,-1.448624134E-1
1.625034651E0,1.548653394E-1,-7.248862982E-1,-1.570797265E-1
1.627034384E0,1.463132203E-1,-7.364927530E-1,-1.857903898E-1
1.629034117E0,1.389828324E-1,-7.566512823E-1,-1.949533671E-1
1.631033850E0,1.316524446E-1,-7.658142447E-1,-1.931207776E-1
1.633033583E0,1.279872656E-1,-7.884162664E-1,-1.876229793E-1
1.635033316E0,1.237112060E-1,-7.969684005E-1,-1.845686585E-1
1.637033116E0,1.194351465E-1,-8.055205345E-1,-1.827360690E-1
1.639032916E0,1.212677434E-1,-8.183487058E-1,-1.864012629E-1
1.641032649E0,1.206568852E-1,-8.207921386E-1,-1.900664568E-1
1.643032382E0,1.212677434E-1,-8.269008398E-1,-1.980076879E-1
1.645032115E0,1.224894822E-1,-8.360638022E-1,-2.035054713E-1
1.647031848E0,1.243220717E-1,-8.403398395E-1,-2.071706653E-1
1.649031581E0,1.206568852E-1,-8.495028019E-1,-2.157227844E-1
1.651031314E0,1.206568852E-1,-8.543897271E-1,-2.254966348E-1
1.653031114E0,1.188242882E-1,-8.598875403E-1,-2.291618139E-1
1.655030847E0,1.169916913E-1,-8.684396148E-1,-2.413791269E-1
1.657030580E0,1.151590943E-1,-8.806568980E-1,-2.487094998E-1
1.659030313E0,1.139373630E-1,-8.831003904E-1,-2.554290295E-1
1.661030046E0,1.139373630E-1,-8.965394497E-1,-2.597050667E-1
1.663029779E0,1.090504453E-1,-9.014263153E-1,-2.682572007E-1
1.665029512E0,1.066069826E-1,-9.050915241E-1,-2.731440961E-1
1.667029245E0,1.041635200E-1,-9.081458449E-1,-2.798636556E-1
1.669029045E0,1.017200649E-1,-9.136436582E-1,-2.902483642E-1
1.671028811E0,1.011091918E-1,-9.112001657E-1,-2.951352596E-1
1.673028577E0,9.438967705E-2,-9.105893373E-1,-3.073525727E-1
1.675028343E0,9.072449058E-2,-9.136436582E-1,-3.134612143E-1
1.677028109E0,8.583756536E-2,-9.154762626E-1,-3.159047067E-1
1.679027875E0,7.606372237E-2,-9.203631878E-1,-3.201807439E-1
1.681027641E0,7.300939411E-2,-9.203631878E-1,-3.214024603E-1
1.683027407E0,6.567900628E-2,-9.301370382E-1,-3.201807439E-1
1.685027240E0,5.773776397E-2,-9.386891723E-1,-3.165155649E-1
1.687027006E0,5.773776397E-2,-9.411325455E-1,-3.183481395E-1
1.689026772E0,4.735305160E-2,-9.490738511E-1,-3.183481395E-1
1.691026538E0,4.307699576E-2,-9.600694180E-1,-3.152938187E-1
1.693026304E0,3.757920861E-2,-9.686214924E-1,-3.134612143E-1
1.695026070E0,2.841622941E-2,-9.777845144E-1,-3.079634309E-1
1.697025836E0,1.986411586E-2,-9.906126857E-1,-2.988004386E-1
1.699025602E0,1.375546400E-2,-9.961104989E-1,-2.957461178E-1
1.701025435E0,6.425080821E-3,-1.000386477E0,-2.914700508E-1
1.703025201E0,-2.944370499E-4,-1.001608253E0,-2.841396928E-1
1.705024967E0,-5.792224314E-3,-1.003440857E0,-2.768093050E-1
1.707024733E0,-8.235685527E-3,-9.942778945E-1,-2.798636556E-1
1.709024499E0,-2.472904697E-2,-9.893909097E-1,-2.725332677E-1
1.711024265E0,-2.533991262E-2,-9.814497232E-1,-2.737549841E-1
1.713024031E0,-3.022683412E-2,-9.637346268E-1,-2.725332677E-1
1.715023864E0,-3.267029673E-2,-9.405217171E-1,-2.761984468E-1
1.717023697E0,-3.572462127E-2,-9.350239038E-1,-2.804744840E-1
1.719023463E0,-3.450288996E-2,-9.136436582E-1,-2.865831554E-1
1.721023229E0,-4.183327407E-2,-8.995937705E-1,-2.981896102E-1
1.723022995E0,-4.610932991E-2,-8.928742409E-1,-2.981896102E-1
1.725022761E0,-5.954836681E-2,-8.892090321E-1,-3.012439311E-1
1.727022527E0,-6.443528831E-2,-8.849329948E-1,-3.036873639E-1
1.729022293E0,-7.298740745E-2,-8.873764873E-1,-3.030765057E-1
1.731022093E0,-7.481999695E-2,-8.885982037E-1,-3.000221848E-1
1.733021826E0,-7.726345956E-2,-8.940959573E-1,-2.969678640E-1
1.735021559E0,-7.298740745E-2,-9.093676209E-1,-2.957461178E-1
1.737021292E0,-7.237653434E-2,-9.228066206E-1,-2.920809388E-1
1.739021025E0,-7.115481049E-2,-9.301370382E-1,-2.865831554E-1
1.741020758E0,-6.748961657E-2,-9.441869259E-1,-2.761984468E-1
1.743020491E0,-6.077009439E-2,-9.588476419E-1,-2.652028799E-1
1.745020224E0,-6.565701962E-2,-9.673997760E-1,-2.584833503E-1
1.747020024E0,-6.260269135E-2,-9.741193056E-1,-2.487094998E-1
1.749019757E0,-6.443528831E-2,-9.741193056E-1,-2.395465225E-1
1.751019490E0,-6.871134043E-2,-9.759519100E-1,-2.328270078E-1
1.753019223E0,-7.543086261E-2,-9.759519100E-1,-2.230531573E-1
1.755018956E0,-8.337210864E-2,-9.741193056E-1,-2.132793218E-1
1.757018689E0,-8.825903386E-2,-9.759519100E-1,-2.077815384E-1
1.759018422E0,-1.041415259E-1,-9.777845144E-1,-2.022837549E-1
1.761018155E0,-1.200240254E-1,-9.796171188E-1,-1.949533671E-1
1.763017955E0,-1.267435402E-1,-9.808388352E-1,-1.912881732E-1
1.765017688E0,-1.420151740E-1,-9.722867608E-1,-1.906773001E-1
1.767017421E0,-1.560650766E-1,-9.600694180E-1,-1.839578003E-1
1.769017187E0,-1.646171808E-1,-9.527390003E-1,-1.821251959E-1
1.771016920E0,-1.756127626E-1,-9.289152622E-1,-1.760165393E-1
1.773016653E0,-1.817214191E-1,-9.118110538E-1,-1.723513454E-1
1.775016386E0,-1.988256425E-1,-8.818786740E-1,-1.650209725E-1
1.777016119E0,-2.140972763E-1,-8.495028019E-1,-1.583014578E-1
1.779015919E0,-2.244819850E-1,-8.293442130E-1,-1.546362638E-1
1.781015652E0,-2.428079396E-1,-7.896379828E-1,-1.454732865E-1
1.783015385E0,-2.635773718E-1,-7.462666035E-1,-1.411972195E-1
1.785015118E0,-2.745729387E-1,-7.224428058E-1,-1.375320256E-1
1.787014851E0,-2.965640724E-1,-6.747953296E-1,-1.265364587E-1
1.789014584E0,-3.222204149E-1,-6.369217038E-1,-1.210386753E-1
1.791014317E0,-3.338268697E-1,-6.204283237E-1,-1.155408844E-1
1.793014117E0,-3.570397198E-1,-5.947719812E-1,-1.124865562E-1
1.795013917E0,-3.802526295E-1,-5.764460564E-1,-1.094322354E-1
1.797013650E0,-3.924699128E-1,-5.685048103E-1,-1.069887727E-1
1.799013383E0,-4.193480015E-1,-5.550657511E-1,-1.021018550E-1
1.801013116E0,-4.474477768E-1,-5.514006019E-1,-9.904752672E-2
1.803012849E0,-4.627194107E-1,-5.489571095E-1,-9.843666106E-2
1.805012582E0,-4.969278872E-1,-5.459027886E-1,-9.721492976E-2
1.807012315E0,-5.280820131E-1,-5.391832590E-1,-9.721492976E-2
1.809012115E0,-5.378558636E-1,-5.330745578E-1,-9.965838492E-2
1.811011848E0,-5.622904897E-1,-5.086399913E-1,-1.033235788E-1
1.813011581E0,-5.885576606E-1,-4.890923202E-1,-1.069887727E-1
1.815011314E0,-6.007749438E-1,-4.475534558E-1,-1.124865562E-1
1.817011047E0,-6.313182116E-1,-4.017385840E-1,-1.173734814E-1
1.819010780E0,-6.441464424E-1,-3.803583086E-1,-1.192060784E-1
1.821010513E0,-6.765222549E-1,-3.327108026E-1,-1.247038618E-1
1.823010246E0,-7.015677691E-1,-2.850633264E-1,-1.314233840E-1
1.825010046E0,-7.150067687E-1,-2.594069839E-1,-1.363103092E-1
1.827009779E0,-7.351653576E-1,-2.068725675E-1,-1.430298090E-1
1.829009479E0,-7.632651329E-1,-1.592250764E-1,-1.424189657E-1
1.831009212E0,-7.736498117E-1,-1.299035549E-1,-1.454732865E-1
1.833008945E0,-7.901431918E-1,-7.675827295E-2,-1.466950029E-1
1.835008678E0,-8.035821915E-1,-2.239126526E-2,-1.497493386E-1
1.837008411E0,-8.139669299E-1,1.432479010E-3,-1.473058760E-1
1.839008144E0,-8.292385936E-1,5.579948425E-2,-1.466950029E-1
1.841007944E0,-8.432884812E-1,1.022252440E-1,-1.442515552E-1
1.843007677E0,-8.475645185E-1,1.242163926E-1,-1.436406821E-1
1.845007410E0,-8.616144657E-1,1.620900482E-1,-1.387537718E-1
1.847007143E0,-8.719991446E-1,1.956876218E-1,-1.356994361E-1
1.849006876E0,-8.781077862E-1,2.121809870E-1,-1.344777048E-1
1.851006609E0,-8.866599202E-1,2.433351129E-1,-1.271473169E-1
1.853006342E0,-8.952120543E-1,2.805978954E-1,-1.204278097E-1
1.855006075E0,-9.000989199E-1,2.983129919E-1,-1.173734814E-1
1.857005875E0,-9.123162031E-1,3.337431550E-1,-1.106539592E-1
1.859005608E0,-9.214792252E-1,3.520691097E-1,-1.082105041E-1
1.861005341E0,-9.373617172E-1,3.887210488E-1,-1.027127132E-1
1.863005074E0,-9.581311941E-1,4.278164208E-1,-9.660406411E-2
1.865004807E0,-9.685158730E-1,4.479749799E-1,-9.843666106E-2
1.867004540E0,-9.935613275E-1,4.895138144E-1,-8.866281062E-2
1.869004273E0,-1.022882819E0,5.316635370E-1,-8.377589285E-2
1.871004073E0,-1.036932707E0,5.567089915E-1,-8.133243024E-2
1.873003873E0,-1.068086863E0,6.049673557E-1,-7.827810943E-2
1.875003606E0,-1.100462794E0,6.587235332E-1,-7.888896763E-2
1.877003339E0,-1.115123510E0,6.856015921E-1,-7.949983329E-2
1.879003072E0,-1.159105778E0,7.399685383E-1,-7.400204241E-2
1.881002805E0,-1.207975030E0,8.041094542E-1,-6.911512464E-2
1.883002538E0,-1.230576992E0,8.432047963E-1,-6.911512464E-2
1.885002271E0,-1.278835416E0,9.238389730E-1,-7.155858725E-2
1.887002071E0,-1.319763303E0,1.019133925E0,-8.133243024E-2
1.889001871E0,-1.347863197E0,1.059451103E0,-8.621935546E-2
1.891001604E0,-1.396121621E0,1.157189608E0,-9.538233280E-2
1.893001337E0,-1.460873246E0,1.254927993E0,-1.088213623E-1
1.895001070E0,-1.496303439E0,1.309294939E0,-1.161517501E-1
1.897000836E0,-1.577548504E0,1.410698652E0,-1.320342422E-1
1.899000569E0,-1.655128360E0,1.515767455E0,-1.552471370E-1
1.901000302E0,-1.693002105E0,1.562804103E0,-1.674644351E-1
1.903000102E0,-1.773025393E0,1.647714376E0,-1.998402923E-1
1.904999835E0,-1.812731624E0,1.688031316E0,-2.212205678E-1
1.906999568E0,-1.871374607E0,1.775995970E0,-2.639811337E-1
1.908999301E0,-1.922687411E0,1.867625833E0,-3.067416847E-1
1.910999034E0,-1.943456769E0,1.914051533E0,-3.250676692E-1
1.912998767E0,-1.989882588E0,2.010568142E0,-3.635521829E-1
1.914998500E0,-2.029588699E0,2.107084990E0,-4.008149505E-1
1.916998233E0,-2.052801847E0,2.156565189E0,-4.197517633E-1
1.918998033E0,-2.102892637E0,2.242086172E0,-4.515167773E-1
1.920997766E0,-2.154205322E0,2.321498871E0,-4.869469702E-1
1.922997499E0,-2.186581135E0,2.362426758E0,-5.034403205E-1
1.924997232E0,-2.247056961E0,2.438173771E0,-5.407031178E-1
1.926996965E0,-2.316695452E0,2.510866880E0,-5.688028932E-1
1.928996698E0,-2.357623577E0,2.546907902E0,-5.834636688E-1
1.930996431E0,-2.441922903E0,2.618989944E0,-6.121743321E-1
1.932996164E0,-2.540272236E0,2.703289509E0,-6.335546374E-1
1.934995964E0,-2.592806578E0,2.744828463E0,-6.427175999E-1
1.936995697E0,-2.699707985E0,2.829127789E0,-6.622652411E-1
1.938995430E0,-2.807220221E0,2.914649010E0,-6.769260168E-1
1.940995163E0,-2.858532906E0,2.958020210E0,-6.842564344E-1
1.942994896E0,-2.972153902E0,3.029491425E0,-6.909759641E-1
1.944994629E0,-3.079055071E0,3.082636833E0,-7.044149637E-1
1.946994362E0,-3.123648405E0,3.105238676E0,-7.111344934E-1
1.948994095E0,-3.215278387E0,3.118677616E0,-7.196865678E-1
1.950993895E0,-3.248264790E0,3.119288683E0,-7.264061570E-1
1.952993628E0,-3.286138773E0,3.099130154E0,-7.416777611E-1
1.954993361E0,-3.296523094E0,3.047817469E0,-7.471755147E-1
1.956993061E0,-3.286749601E0,3.011165619E0,-7.496190071E-1
1.958992794E0,-3.243377924E0,2.926866293E0,-7.502298355E-1
1.960992527E0,-3.176182747E0,2.828516960E0,-7.435103655E-1
1.962992260E0,-3.134644032E0,2.776593208E0,-7.404560447E-1
1.964992060E0,-3.040570736E0,2.682519913E0,-7.239626646E-1
1.966991860E0,-2.942221403E0,2.606161833E0,-7.013606429E-1
1.968991593E0,-2.894573927E0,2.570120811E0,-6.854781508E-1
1.970991326E0,-2.798668146E0,2.518197298E0,-6.555457711E-1
1.972991059E0,-2.713757753E0,2.493151903E0,-6.262242198E-1
1.974990792E0,-2.674662590E0,2.492541075E0,-6.127852201E-1
1.976990525E0,-2.609299898E0,2.517586470E0,-5.889614224E-1
1.978990258E0,-2.556765318E0,2.565844774E0,-5.773549676E-1
1.980990058E0,-2.537828684E0,2.593333721E0,-5.755224228E-1
1.982989791E0,-2.507896185E0,2.662972450E0,-5.785767436E-1
1.984989524E0,-2.480407238E0,2.739941359E0,-5.852962732E-1
1.986989257E0,-2.475520611E0,2.775371552E0,-5.901831388E-1
1.988988990E0,-2.464524984E0,2.844399452E0,-6.042330861E-1
1.990988723E0,-2.450474739E0,2.894490242E0,-6.103417277E-1
1.992988456E0,-2.442533731E0,2.903653383E0,-6.103417277E-1
1.994988189E0,-2.420542479E0,2.897544622E0,-6.146178246E-1
1.996987989E0,-2.404660225E0,2.885327339E0,-6.158395410E-1
1.998987722E0,-2.358845234E0,2.834625483E0,-6.127852201E-1
2.000987455E0,-2.304477930E0,2.761932611E0,-6.011787653E-1
2.002987188E0,-2.275767565E0,2.717339277E0,-5.914049149E-1
2.004986921E0,-2.212848425E0,2.613492250E0,-5.718572140E-1
2.006986654E0,-2.153594494E0,2.498038769E0,-5.535312295E-1
2.008986387E0,-2.136490345E0,2.426567316E0,-5.394814014E-1
2.010986120E0,-2.104725122E0,2.300729275E0,-5.272640586E-1
2.012985920E0,-2.110222816E0,2.149234533E0,-5.242097378E-1
2.014985653E0,-2.127327204E0,2.063102722E0,-5.235988498E-1
2.016985386E0,-2.187803030E0,1.861517072E0,-5.266531706E-1
2.018985119E0,-2.266604424E0,1.618392825E0,-5.272640586E-1
2.020984852E0,-2.307532549E0,1.491943717E0,-5.229879618E-1
2.022984585E0,-2.386333942E0,1.199950099E0,-5.126032829E-1
2.024984318E0,-2.449253082E0,8.816892505E-1,-4.930556118E-1
2.026984051E0,-2.471244335E0,7.106470466E-1,-4.783948362E-1
2.028983851E0,-2.504230976E0,3.697842062E-1,-4.521276355E-1
2.030983584E0,-2.509728670E0,3.686266392E-2,-4.209735096E-1
2.032983317E0,-2.508507013E0,-1.207405701E-1,-3.971497416E-1
2.034983050E0,-2.471244335E0,-3.931864500E-1,-3.531674743E-1
2.036982783E0,-2.397940397E0,-5.843872428E-1,-3.067416847E-1
2.038982516E0,-2.341741085E0,-6.344782710E-1,-2.847505510E-1
2.040982249E0,-2.223233223E0,-6.479172707E-1,-2.468769103E-1
2.042982049E0,-2.160924911E0,-6.259261370E-1,-2.267183512E-1
2.044981849E0,-2.041195154E0,-5.275768638E-1,-1.827360690E-1
2.046981582E0,-1.934904695E0,-3.834126294E-1,-1.332559884E-1
2.048981315E0,-1.887257218E0,-2.972806394E-1,-1.130974293E-1
2.050981048E0,-1.806622982E0,-1.066906676E-1,-7.155858725E-2
2.052980781E0,-1.743703842E0,1.174968705E-1,-3.246321157E-2
2.054980514E0,-1.719269276E0,2.372264713E-1,-1.719157957E-2
2.056980247E0,-1.671010852E0,4.803508222E-1,1.884946786E-2
2.058980047E0,-1.639856815E0,7.314164639E-1,5.794484168E-2
2.060979780E0,-1.625196099E0,8.493134379E-1,7.871426642E-2
2.062979513E0,-1.606259108E0,1.080831409E0,1.184205040E-1
2.064979246E0,-1.591598392E0,1.278751731E0,1.575158834E-1
2.066978979E0,-1.583046317E0,1.372824907E0,1.721766442E-1
2.068978712E0,-1.578159451E0,1.538980365E0,2.124937624E-1
2.070978445E0,-1.554946542E0,1.703913927E0,2.662498653E-1
2.072978178E0,-1.540285826E0,1.786380768E0,2.980148792E-1
2.074977978E0,-1.492027402E0,1.945205688E0,3.658209145E-1
2.076977744E0,-1.437660456E0,2.086926460E0,4.256857336E-1
2.078977510E0,-1.407727957E0,2.144347668E0,4.550072551E-1
2.080977310E0,-1.344808817E0,2.232312202E0,5.050982237E-1
2.082977076E0,-1.282500625E0,2.267131567E0,5.307545066E-1
2.084976842E0,-1.252568245E0,2.309281588E0,5.784020424E-1
2.086976608E0,-1.195757747E0,2.321498871E0,6.217734218E-1
2.088976374E0,-1.165825367E0,2.325774670E0,6.419320107E-1
2.090976207E0,-1.109625697E0,2.322720528E0,6.773622036E-1
2.092975973E0,-1.057702184E0,2.308670521E0,7.158467174E-1
2.094975739E0,-1.032656789E0,2.299507618E0,7.378379107E-1
2.096975505E0,-9.758462310E-1,2.283624887E0,7.781549692E-1
2.098975271E0,-9.196466208E-1,2.263466597E0,8.160286546E-1
2.100975037E0,-8.872707486E-1,2.250638485E0,8.282459378E-1
2.102974803E0,-8.335146308E-1,2.210932016E0,8.514587879E-1
2.104974569E0,-7.834237218E-1,2.150456190E0,8.691738844E-1
2.106974402E0,-7.571564913E-1,2.115637302E0,8.771151304E-1
2.108974168E0,-7.088981271E-1,2.046609402E0,8.899433017E-1
2.110973934E0,-6.679701805E-1,1.978192329E0,9.101018906E-1
2.112973700E0,-6.453681588E-1,1.942762256E0,9.168213606E-1
2.114973466E0,-5.977206230E-1,1.898169041E0,9.253734946E-1
2.116973232E0,-5.543492436E-1,1.859073758E0,9.363690615E-1
2.118972998E0,-5.360232592E-1,1.838915110E0,9.449211955E-1
2.120972831E0,-5.054799914E-1,1.799819708E0,9.577493072E-1
2.122972664E0,-4.877648950E-1,1.741787553E0,9.675232172E-1
2.124972430E0,-4.840996861E-1,1.716131210E0,9.772970676E-1
2.126972196E0,-4.669954777E-1,1.675814033E0,9.937903881E-1
2.128971962E0,-4.694389403E-1,1.648325205E0,1.007840276E0
2.130971728E0,-4.614977241E-1,1.587238669E0,1.026777148E0
2.132971494E0,-4.498912692E-1,1.533482552E0,1.049989939E0
2.134971260E0,-4.431717396E-1,1.512713194E0,1.065261602E0
2.136971060E0,-4.181262553E-1,1.477283001E0,1.096415758E0
2.138970860E0,-3.881938756E-1,1.452237368E0,1.129402518E0
2.140970593E0,-3.765874207E-1,1.440631032E0,1.143452406E0
2.142970326E0,-3.417680860E-1,1.422305107E0,1.168497801E0
2.144970059E0,-3.087813854E-1,1.403368115E0,1.192932487E0
2.146969792E0,-2.910662889E-1,1.392983556E0,1.205760598E0
2.148969525E0,-2.556360960E-1,1.368548989E0,1.223475695E0
2.150969258E0,-2.202059329E-1,1.330064297E0,1.236914754E0
2.152969058E0,-2.006582320E-1,1.309905887E0,1.244856000E0
2.154968791E0,-1.627845913E-1,1.256149650E0,1.257073402E0
2.156968524E0,-1.273544133E-1,1.194452286E0,1.265625477E0
2.158968257E0,-1.065849885E-1,1.166352510E0,1.269901514E0
2.160967990E0,-6.993307173E-2,1.105265975E0,1.278453588E0
2.162967723E0,-2.839423716E-2,1.050288081E0,1.274788499E0
2.164967456E0,-8.846551180E-3,1.019744873E0,1.274788499E0
2.166967189E0,2.841622941E-2,9.617126584E-1,1.273566604E0
2.168966989E0,6.445727497E-2,9.067348242E-1,1.266236305E0
2.170966722E0,8.095064014E-2,8.823001981E-1,1.265625477E0
2.172966455E0,1.139373630E-1,8.395395875E-1,1.264403701E0
2.174966188E0,1.279872656E-1,8.212136030E-1,1.266236305E0
2.176965921E0,1.579196602E-1,7.918921113E-1,1.268068790E0
2.178965654E0,1.847977340E-1,7.662357688E-1,1.265625477E0
2.180965387E0,2.012910992E-1,7.552402020E-1,1.263792872E0
2.182965120E0,2.251148373E-1,7.338598967E-1,1.264403701E0
2.184965086E0,2.434407920E-1,7.106470466E-1,1.264403701E0
2.186964819E0,2.581015527E-1,6.990405917E-1,1.263182044E0
2.188964552E0,2.660428286E-1,6.782711744E-1,1.269901514E0
2.190964285E0,2.862013578E-1,6.684973240E-1,1.272955775E0
2.192964018E0,2.971969247E-1,6.672755480E-1,1.272955775E0
2.194963751E0,3.112468123E-1,6.593343616E-1,1.271734118E0
2.196963484E0,3.252967596E-1,6.575017571E-1,1.272955775E0
2.198963217E0,3.320162594E-1,6.520039439E-1,1.270512342E0
2.200962983E0,3.540074229E-1,6.452844143E-1,1.274177432E0
2.202962716E0,3.735550940E-1,6.391757727E-1,1.276620984E0
2.204962449E0,3.863832653E-1,6.379540563E-1,1.275399327E0
2.206962182E0,4.175373912E-1,6.275693178E-1,1.280897141E0
2.208961915E0,4.474698007E-1,6.031347513E-1,1.287005782E0
2.210961648E0,4.615196884E-1,5.890848637E-1,1.290060043E0
2.212961381E0,4.957281351E-1,5.524328947E-1,1.296168685E0
2.214961181E0,5.342126489E-1,5.121158361E-1,1.301666498E0
2.216960981E0,5.568146110E-1,4.882920980E-1,1.301055670E0
2.218960714E0,6.020186543E-1,4.406445920E-1,1.298612237E0
2.220960447E0,6.197337508E-1,4.131556451E-1,1.299833894E0
2.222960180E0,6.631052494E-1,3.661190271E-1,1.298612237E0
2.224959913E0,7.125853300E-1,3.196932673E-1,1.297390342E0
2.226959646E0,7.345764637E-1,2.983129919E-1,1.298612237E0
2.228959379E0,7.803913355E-1,2.463894337E-1,1.291892648E0
2.230959179E0,8.255953789E-1,1.920224279E-1,1.288227439E0
2.232958912E0,8.469756246E-1,1.657552272E-1,1.284562230E0
2.234958645E0,8.934014440E-1,1.132208183E-1,1.279064417E0
2.236958378E0,9.367728233E-1,6.740592420E-2,1.267457962E0
2.238958111E0,9.581531286E-1,4.419304803E-2,1.263182044E0
2.240957844E0,9.954158664E-1,-4.065308254E-3,1.250964761E0
2.242957577E0,1.036954761E0,-5.415625870E-2,1.233249664E0
2.244957143E0,1.059556723E0,-7.798000425E-2,1.226530075E0
2.246956943E0,1.099873900E0,-1.201297045E-1,1.215534449E0
2.248956676E0,1.134693265E0,-1.586142182E-1,1.205760598E0
2.250956409E0,1.154851675E0,-1.787727624E-1,1.198430300E0
2.252956142E0,1.191503644E0,-2.142029554E-1,1.180715203E0
2.254955875E0,1.224490404E0,-2.484114021E-1,1.160556674E0
2.256955641E0,1.240983725E0,-2.673482299E-1,1.156280518E0
2.258955374E0,1.269694448E0,-3.015566766E-1,1.148339391E0
2.260955107E0,1.297794223E0,-3.290456235E-1,1.141008854E0
2.262954907E0,1.311233282E0,-3.400411904E-1,1.139176250E0
2.264954640E0,1.332002640E0,-3.565345407E-1,1.136121988E0
2.266954373E0,1.344219923E0,-3.675301075E-1,1.130624294E0
2.268954106E0,1.359491587E0,-3.846343756E-1,1.123293877E0
2.270953839E0,1.367432833E0,-3.968516588E-1,1.112909198E0
2.272953572E0,1.373541474E0,-3.986842632E-1,1.103135228E0
2.274953305E0,1.374152303E0,-3.986842632E-1,1.086030960E0
2.276953038E0,1.371098042E0,-3.937973380E-1,1.066483378E0
2.278952838E0,1.366211057E0,-3.889104128E-1,1.052433491E0
2.280952571E0,1.349717736E0,-3.785257041E-1,1.028609753E0
2.282952304E0,1.318563581E0,-3.669192493E-1,9.998990297E-1
2.284952037E0,1.299626827E0,-3.577562869E-1,9.846274257E-1
2.286951770E0,1.244648933E0,-3.437063992E-1,9.540841579E-1
2.288951503E0,1.175621271E0,-3.241586983E-1,9.192648530E-1
2.290951236E0,1.129195452E0,-3.204934895E-1,9.033823013E-1
2.292951036E0,1.030846119E0,-3.009458184E-1,8.734499216E-1
2.294950836E0,9.166142941E-1,-2.832307220E-1,8.392415047E-1
2.296950602E0,8.457539082E-1,-2.752894759E-1,8.288568258E-1
2.298950368E0,6.985353827E-1,-2.685699463E-1,8.001461029E-1
2.300950134E0,5.342126489E-1,-2.575743794E-1,7.659376860E-1
2.302949900E0,4.493023753E-1,-2.508548796E-1,7.457790971E-1
2.304949666E0,2.599341571E-1,-2.490222752E-1,7.079054713E-1
2.306949432E0,6.445727497E-2,-2.453570813E-1,6.736969948E-1
2.308949265E0,-3.511375561E-2,-2.502439916E-1,6.572036743E-1
2.310949098E0,-2.379210144E-1,-2.496331334E-1,6.297147274E-1
2.312948898E0,-3.356594443E-1,-2.471896857E-1,6.187191010E-1
2.314948698E0,-5.335797668E-1,-2.539092004E-1,5.967279673E-1
2.316948464E0,-7.247806191E-1,-2.514657378E-1,5.741260052E-1
2.318948264E0,-8.151886463E-1,-2.459679395E-1,5.600760579E-1
2.320948064E0,-9.837874770E-1,-2.306963205E-1,5.344197154E-1
2.322947864E0,-1.138336420E0,-1.995421946E-1,5.050982237E-1
2.324947730E0,-1.202477336E0,-1.738858521E-1,4.886048138E-1
2.326947596E0,-1.317930818E0,-1.103558615E-1,4.605050385E-1
2.328947462E0,-1.401008368E0,-3.766289353E-2,4.354595542E-1
2.330947328E0,-1.425442934E0,6.319400854E-3,4.226314127E-1
2.332947194E0,-1.456597209E0,9.733832628E-2,4.067488909E-1
2.334947060E0,-1.451099396E0,2.042397410E-1,3.933098614E-1
2.336946926E0,-1.433384299E0,2.647154033E-1,3.878120780E-1
2.338946792E0,-1.376573801E0,3.954405487E-1,3.847577572E-1
2.340946725E0,-1.284944057E0,5.475460291E-1,3.841468692E-1
2.342946591E0,-1.233020544E0,6.239041686E-1,3.847577572E-1
2.344946457E0,-1.096186638E0,8.028876781E-1,3.743730485E-1
2.346946323E0,-9.367508292E-1,1.017912269E0,3.511601686E-1
2.348946189E0,-8.487862349E-1,1.131533146E0,3.401645720E-1
2.350946055E0,-6.698027253E-1,1.359996796E0,3.279472888E-1
2.352945921E0,-4.914300740E-1,1.587849498E0,3.236712217E-1
2.354945787E0,-4.034654796E-1,1.703303099E0,3.200060427E-1
2.356945687E0,-2.293688953E-1,1.940318704E0,3.053452671E-1
2.358945520E0,-1.450695097E-1,2.065546036E0,2.888518870E-1
2.360945353E0,1.742065512E-2,2.301950932E0,2.515891194E-1
2.362945186E0,1.695261151E-1,2.535912275E0,2.014981806E-1
2.364945019E0,2.397755980E-1,2.650144339E0,1.770635694E-1
2.366944985E0,3.723333776E-1,2.871888161E0,1.098683923E-1
2.368944818E0,4.767913222E-1,3.049039364E0,5.733397976E-2
2.370944651E0,5.287148356E-1,3.132117033E0,2.801244706E-2
2.372944517E0,6.136251092E-1,3.270783186E0,-2.391109802E-2
2.374944317E0,6.759334207E-1,3.383182287E0,-7.216944546E-2
2.376944117E0,7.052549720E-1,3.432051659E0,-9.416060150E-2
2.378943917E0,7.498480678E-1,3.501079559E0,-1.424189657E-1
2.380943717E0,7.748935819E-1,3.529789925E0,-1.931207776E-1
2.382943517E0,7.816131115E-1,3.532233715E0,-2.181662470E-1
2.384943317E0,7.822239399E-1,3.512685776E0,-2.554290295E-1
2.386943117E0,7.767261267E-1,3.485807896E0,-2.743658423E-1
2.388942917E0,7.663414478E-1,3.474201441E0,-2.707006633E-1
2.390942650E0,7.406851053E-1,3.454042673E0,-2.450443059E-1
2.392942383E0,6.912050247E-1,3.410060644E0,-2.193879634E-1
2.394942116E0,6.606617570E-1,3.378295660E0,-2.120575905E-1
2.396941849E0,5.739188790E-1,3.300104618E0,-2.120575905E-1
2.398941582E0,5.213844776E-1,3.260398626E0,-2.181662470E-1
2.400941315E0,4.004331529E-1,3.152886152E0,-2.151119262E-1
2.402941115E0,2.635993361E-1,3.038654566E0,-2.102249861E-1
2.404940848E0,1.927389801E-1,2.989174366E0,-2.035054713E-1
2.406940581E0,4.796391726E-2,2.917092323E0,-1.796817333E-1
2.408940314E0,-8.703730255E-2,2.884716511E0,-1.454732865E-1
2.410940047E0,-1.505672932E-1,2.877386093E0,-1.289799213E-1
2.412939780E0,-2.495274544E-1,2.875553370E0,-1.033235788E-1
2.414939513E0,-3.191660941E-1,2.862725258E0,-8.988454193E-2
2.416939246E0,-3.417680860E-1,2.849897146E0,-9.171713889E-2
2.418939046E0,-3.619266748E-1,2.798584461E0,-1.112648323E-1
2.420938779E0,-3.503202200E-1,2.701456785E0,-1.375320256E-1
2.422938512E0,-3.326051235E-1,2.637926817E0,-1.491384804E-1
2.424938245E0,-2.696860135E-1,2.467495441E0,-1.833469272E-1
2.426937845E0,-1.823322773E-1,2.256135941E0,-2.413791269E-1
2.428937578E0,-1.414043158E-1,2.132130384E0,-2.810853720E-1
2.430937311E0,-5.405057967E-2,1.896336436E0,-4.075344801E-1
2.432937044E0,1.070113759E-2,1.671538115E0,-5.859071016E-1
2.434936844E0,3.269228712E-2,1.567080021E0,-6.885324717E-1
2.436936577E0,5.590516701E-2,1.368548989E0,-9.286025167E-1
2.438936310E0,6.079208851E-2,1.188343644E0,-1.211433053E0
2.440936043E0,5.162910745E-2,1.107709527E0,-1.362927675E0
2.442935776E0,2.230757661E-2,9.775951505E-1,-1.677523375E0
2.444935509E0,-3.959628753E-3,9.299476147E-1,-1.844289541E0
2.446935242E0,-9.131336212E-2,8.786349297E-1,-2.163161039E0
2.448934975E0,-2.092103511E-1,8.535894752E-1,-2.449656963E0
2.450934775E0,-2.702968717E-1,8.468700051E-1,-2.568164825E0
2.452934508E0,-3.967459798E-1,8.151049614E-1,-2.728822470E0
2.454934241E0,-4.798236787E-1,7.509641051E-1,-2.785022020E0
2.456933974E0,-5.024256706E-1,7.088144422E-1,-2.775248051E0
2.458933707E0,-5.109778047E-1,6.177955270E-1,-2.691559553E0
2.460933440E0,-4.682172239E-1,5.408264995E-1,-2.551671505E0
2.462933173E0,-4.315653145E-1,5.194462538E-1,-2.471037388E0
2.464932973E0,-3.356594443E-1,5.212787986E-1,-2.294497252E0
2.466932773E0,-2.195950598E-1,5.591524839E-1,-2.111848354E0
2.468932506E0,-1.572868079E-1,5.860305429E-1,-2.018996954E0
2.470932239E0,-2.533991262E-2,6.129085422E-1,-1.838180900E0
2.472931972E0,1.212677434E-1,5.634285212E-1,-1.656753898E0
2.474931705E0,1.976259053E-1,5.053963065E-1,-1.566956639E0
2.476931438E0,3.533965349E-1,3.031999171E-1,-1.398357868E0
2.478931171E0,5.073345900E-1,-4.676173907E-3,-1.244419813E0
2.480930971E0,5.812492967E-1,-1.897683442E-1,-1.182111621E0
2.482930704E0,7.193048000E-1,-6.002697945E-1,-1.094146967E0
2.484930437E0,8.408669829E-1,-1.027264595E0,-1.037947416E0
2.486930203E0,9.019535780E-1,-1.233126163E0,-1.023286581E0
2.488929936E0,1.000913739E0,-1.602699757E0,-9.884673357E-1
2.490929669E0,1.048561215E0,-1.754194260E0,-9.664762020E-1
2.492929402E0,1.133471489E0,-1.982657790E0,-9.218829870E-1
2.494929135E0,1.197001457E0,-2.113383055E0,-8.650725484E-1
2.496928935E0,1.222046852E0,-2.142093658E0,-8.271989226E-1
2.498928668E0,1.256255388E0,-2.146980524E0,-7.453429699E-1
2.500928401E0,1.262364030E0,-2.095057011E0,-6.500479579E-1
2.502928167E0,1.256255388E0,-2.055961609E0,-5.944592357E-1
2.504927900E0,1.227544665E0,-1.969218731E0,-4.820600152E-1
2.506927633E0,1.179897189E0,-1.894082427E0,-3.653847575E-1
2.508927366E0,1.153630018E0,-1.869036913E0,-3.055199981E-1
2.510927099E0,1.099873900E0,-1.856208682E0,-1.821251959E-1
2.512926899E0,1.052226424E0,-1.880643368E0,-6.422819942E-2
2.514926632E0,1.030235171E0,-1.910575628E0,-4.363410641E-3
2.516926365E0,9.960268140E-1,-2.003427267E0,1.080357954E-1
2.518926098E0,9.642617702E-1,-2.143315315E0,2.137154788E-1
2.520925831E0,9.502119422E-1,-2.224560499E0,2.601412237E-1
2.522925564E0,9.215012193E-1,-2.402933121E0,3.389428854E-1
2.524925297E0,8.891253471E-1,-2.583138466E0,4.024728537E-1
2.526925030E0,8.714102507E-1,-2.666826963E0,4.232422411E-1
2.528924830E0,8.433104753E-1,-2.815877914E0,4.525637925E-1
2.530924563E0,8.262062669E-1,-2.946603298E0,4.678354263E-1
2.532924296E0,8.249844909E-1,-3.006468058E0,4.696680307E-1
2.534924029E0,8.408669829E-1,-3.132916927E0,4.647811055E-1
2.536923762E0,8.555277586E-1,-3.201334000E0,4.537855089E-1
2.538923495E0,8.952339888E-1,-3.363824129E0,4.232422411E-1
2.540923228E0,9.544879198E-1,-3.549527168E0,3.804816902E-1
2.542923028E0,9.911398292E-1,-3.658261299E0,3.578796685E-1
2.544922828E0,1.063832760E0,-3.881227016E0,3.090104759E-1
2.546922528E0,1.142634392E0,-4.091364861E0,2.509782612E-1
2.548922261E0,1.179286361E0,-4.187881470E0,2.247110605E-1
2.550921994E0,1.258698821E0,-4.329602242E0,1.605702043E-1
2.552921727E0,1.326504827E0,-4.387634277E0,1.013162732E-1
2.554921460E0,1.359491587E0,-4.380303860E0,7.443820685E-2
2.556921193E0,1.407750010E0,-4.289896011E0,2.434725501E-2
2.558920993E0,1.440736651E0,-4.091364861E0,-1.719157957E-2
2.560920793E0,1.454175711E0,-3.953919888E0,-3.612840176E-2
2.562920493E0,1.463949561E0,-3.625885248E0,-5.384349450E-2
2.564920226E0,1.467614770E0,-3.234931707E0,-5.934128165E-2
2.566919959E0,1.465171218E0,-3.022961378E0,-5.628695711E-2
2.568919692E0,1.447456121E0,-2.593523264E0,-3.490667418E-2
2.570919425E0,1.434017181E0,-2.175691128E0,-4.974275362E-3
2.572919158E0,1.424243331E0,-1.979603529E0,1.884946786E-2
2.574918958E0,1.418134689E0,-1.624079943E0,6.771869212E-2
2.576918691E0,1.419356465E0,-1.324756026E0,1.214748323E-1
2.578918424E0,1.424243331E0,-1.200750351E0,1.514072269E-1
2.580918157E0,1.437682390E0,-1.002829909E0,2.051633745E-1
2.582917890E0,1.445623636E0,-9.264718294E-1,2.295979708E-1
2.584917623E0,1.470669031E0,-8.195704222E-1,2.723585367E-1
2.586917356E0,1.497547150E0,-7.584838867E-1,3.077887297E-1
2.588917089E0,1.512818694E0,-7.419905663E-1,3.242821097E-1
2.590916889E0,1.545805573E0,-7.450448871E-1,3.450515270E-1
2.592916622E0,1.583679199E0,-7.786424756E-1,3.645991981E-1
2.594916355E0,1.601394296E0,-8.018553257E-1,3.700969815E-1
2.596916088E0,1.645987391E0,-8.672178984E-1,3.792599440E-1
2.598915821E0,1.695467472E0,-9.496846795E-1,3.878120780E-1
2.600915554E0,1.724178076E0,-9.973322153E-1,3.914772570E-1
2.602915287E0,1.783432126E0,-1.103011847E0,3.963641822E-1
2.604915020E0,1.842686057E0,-1.219687104E0,3.957533240E-1
2.606914820E0,1.878727078E0,-1.279551864E0,3.872011900E-1
2.608914553E0,1.931261420E0,-1.416385770E0,3.817034364E-1
2.610914286E0,1.986239433E0,-1.548332691E0,3.572688401E-1
2.612914019E0,2.012506485E0,-1.614306211E0,3.419972062E-1
2.614913752E0,2.058321476E0,-1.744420409E0,3.120647967E-1
2.616913485E0,2.091308117E0,-1.854987025E0,2.778563201E-1
2.618913218E0,2.106579781E0,-1.903245330E0,2.589195371E-1
2.620912951E0,2.120629549E0,-1.988155603E0,2.222675979E-1
2.622912751E0,2.122462511E0,-2.063902855E0,1.788961589E-1
2.624912484E0,2.120018721E0,-2.094446182E0,1.514072269E-1
2.626912217E0,2.096805811E0,-2.140871763E0,9.154243767E-2
2.628911950E0,2.077869177E0,-2.159808874E0,6.649695337E-2
2.630911683E0,2.035108566E0,-2.190962791E0,2.373639122E-2
2.632911416E0,1.976465464E0,-2.223949671E0,-8.028601296E-3
2.634911149E0,1.944700599E0,-2.242886543E0,-2.391109802E-2
2.636910949E0,1.875672698E0,-2.277705908E0,-5.078916997E-2
2.638910749E0,1.805423260E0,-2.305805683E0,-7.705637068E-2
2.640910482E0,1.776101708E0,-2.322909594E0,-8.377589285E-2
2.642910215E0,1.712571621E0,-2.342457533E0,-9.293887019E-2
2.644909948E0,1.661259055E0,-2.347955227E0,-9.599319100E-2
2.646909681E0,1.632548332E0,-2.355896473E0,-9.538233280E-2
2.648909414E0,1.586733580E0,-2.361394405E0,-9.721492976E-2
2.650909147E0,1.546416402E0,-2.353453159E0,-1.051561758E-1
2.652908947E0,1.528701305E0,-2.338792324E0,-1.069887727E-1
2.654908680E0,1.499990582E0,-2.283203602E0,-1.088213623E-1
2.656908413E0,1.474945188E0,-2.201958418E0,-1.045453101E-1
2.658908146E0,1.462727785E0,-2.156754494E0,-9.904752672E-2
2.660907879E0,1.438293219E0,-2.049853086E0,-8.438675851E-2
2.662907612E0,1.405917406E0,-1.936842918E0,-5.628695711E-2
2.664907345E0,1.389423966E0,-1.884919405E0,-3.979359567E-2
2.666907078E0,1.358880758E0,-1.770687580E0,2.356107347E-3
2.668906878E0,1.335057020E0,-1.726705313E0,3.351023421E-2
2.670906611E0,1.295961618E0,-1.642405868E0,7.810340077E-2
2.672906344E0,1.241594553E0,-1.594758391E0,1.220856905E-1
2.674906077E0,1.214105725E0,-1.575821519E0,1.361355931E-1
2.676905810E0,1.161571264E0,-1.540391326E0,1.617919356E-1
2.678905543E0,1.116367221E0,-1.506183028E0,1.880591363E-1
2.680905276E0,1.102928281E0,-1.489078760E0,1.990547180E-1
2.682905009E0,1.085213184E0,-1.470141888E0,2.302088439E-1
2.684904809E0,1.082769632E0,-1.465865850E0,2.644172907E-1
2.686904542E0,1.085213184E0,-1.473807096E0,2.827432454E-1
2.688904275E0,1.081547856E0,-1.525730610E0,3.108430505E-1
2.690904008E0,1.074828386E0,-1.611251712E0,3.383319974E-1
2.692903741E0,1.067498088E0,-1.661342740E0,3.456623852E-1
2.694903474E0,1.054669857E0,-1.771909356E0,3.566579521E-1
2.696903207E0,1.038176537E0,-1.894693255E0,3.676535487E-1
2.698902940E0,1.030846119E0,-1.952114582E0,3.731513023E-1
2.700902740E0,1.021683097E0,-2.074898481E0,3.817034364E-1
2.702902506E0,1.011298418E0,-2.189741135E0,3.933098614E-1
2.704902306E0,1.008244038E0,-2.244108200E0,3.988076448E-1
2.706902072E0,1.000302911E0,-2.349176884E0,4.128575325E-1
2.708901838E0,1.001524568E0,-2.446304560E0,4.183553457E-1
2.710901604E0,9.954158664E-1,-2.491508484E0,4.220205247E-1
2.712901370E0,9.880855083E-1,-2.570310354E0,4.159118533E-1
2.714901203E0,9.850311875E-1,-2.600242615E0,4.140792787E-1
2.716901036E0,9.709812999E-1,-2.657052994E0,4.061380327E-1
2.718900836E0,9.489901662E-1,-2.696759224E0,3.951424658E-1
2.720900602E0,9.386054873E-1,-2.712030888E0,3.872011900E-1
2.722900368E0,9.135599732E-1,-2.729135275E0,3.700969815E-1
2.724900134E0,8.793514967E-1,-2.731578588E0,3.493275642E-1
2.726899900E0,8.701885343E-1,-2.724248409E0,3.364993930E-1
2.728899666E0,8.255953789E-1,-2.705311537E0,3.157299757E-1
2.730899499E0,7.938303947E-1,-2.666826963E0,2.888518870E-1
2.732899265E0,7.779479027E-1,-2.644835711E0,2.766346037E-1
2.734899031E0,7.455720305E-1,-2.587414503E0,2.473130673E-1
2.736898797E0,7.144179344E-1,-2.523273706E0,2.167697996E-1
2.738898563E0,7.028114796E-1,-2.481123686E0,1.984438449E-1
2.740898329E0,6.679921150E-1,-2.400489807E0,1.648462713E-1
2.742898095E0,6.405032277E-1,-2.308859825E0,1.269726157E-1
2.744897861E0,6.252315640E-1,-2.263655663E0,1.129227132E-1
2.746897694E0,5.952991843E-1,-2.165306568E0,7.688166946E-2
2.748897460E0,5.751405954E-1,-2.066957235E0,4.206234589E-2
2.750897226E0,5.610907078E-1,-2.021142244E0,2.434725501E-2
2.752896992E0,5.409321785E-1,-1.929512620E0,-1.108292770E-2
2.754896758E0,5.213844776E-1,-1.844602346E0,-4.223705828E-2
2.756896524E0,5.085563064E-1,-1.804895997E0,-5.750868469E-2
2.758896290E0,4.914520979E-1,-1.729759693E0,-9.538233280E-2
2.760896056E0,4.810673892E-1,-1.696772933E0,-1.130974293E-1
2.762895856E0,4.578544796E-1,-1.636297226E0,-1.460841596E-1
2.764895556E0,4.352524579E-1,-1.586206317E0,-1.699078977E-1
2.766895289E0,4.267003834E-1,-1.562993407E0,-1.839578003E-1
2.768895022E0,4.089852870E-1,-1.519621968E0,-2.102249861E-1
2.770894755E0,3.900484741E-1,-1.479915738E0,-2.303835452E-1
2.772894488E0,3.821071982E-1,-1.462811470E0,-2.456551790E-1
2.774894221E0,3.668355644E-1,-1.423716187E0,-2.670354545E-1
2.776893954E0,3.570617437E-1,-1.387675047E0,-2.884157300E-1
2.778893720E0,3.521748185E-1,-1.368127465E0,-2.988004386E-1
2.780893453E0,3.393466473E-1,-1.340027571E0,-3.171263933E-1
2.782893186E0,3.295727968E-1,-1.308873415E0,-3.354523480E-1
2.784892919E0,3.234641552E-1,-1.293601751E0,-3.433936238E-1
2.786892652E0,3.246858716E-1,-1.260004282E0,-3.647738993E-1
2.788892385E0,3.185772002E-1,-1.236791372E0,-3.843216002E-1
2.790892118E0,3.191880882E-1,-1.225795746E0,-3.885976672E-1
2.792891918E0,3.307945132E-1,-1.203804731E0,-4.124213755E-1
2.794891718E0,3.515639305E-1,-1.193419933E0,-4.289147556E-1
2.796891451E0,3.650029898E-1,-1.190976381E0,-4.399103522E-1
2.798891184E0,4.047092199E-1,-1.197696090E0,-4.551819861E-1
2.800890917E0,4.493023753E-1,-1.213578463E0,-4.716753364E-1
2.802890650E0,4.725152552E-1,-1.227017522E0,-4.771730900E-1
2.804890383E0,5.256605148E-1,-1.248397827E0,-4.967207909E-1
2.806890116E0,5.549820662E-1,-1.261836767E0,-5.052729249E-1
2.808889916E0,6.221772432E-1,-1.291769266E0,-5.248206258E-1
2.810889716E0,6.863180995E-1,-1.317425489E0,-5.394814014E-1
2.812889449E0,7.217482924E-1,-1.330253839E0,-5.455900431E-1
2.814889182E0,7.938303947E-1,-1.354688406E0,-5.651376843E-1
2.816888915E0,8.677450418E-1,-1.383399010E0,-5.773549676E-1
2.818888648E0,9.068404436E-1,-1.392562032E0,-5.846853852E-1
2.820888381E0,9.777008295E-1,-1.423105240E0,-5.950701237E-1
2.822888114E0,1.050393820E0,-1.453037739E0,-6.048439145E-1
2.824887914E0,1.077882648E0,-1.472585320E0,-6.060656905E-1
2.826887647E0,1.142634392E0,-1.503128648E0,-6.195046902E-1
2.828887380E0,1.192725301E0,-1.539780498E0,-6.274459958E-1
2.830887113E0,1.214105725E0,-1.553219557E0,-6.396632791E-1
2.832886846E0,1.253201008E0,-1.580708504E0,-6.518805623E-1
2.834886579E0,1.284355283E0,-1.606364846E0,-6.531022787E-1
2.836886312E0,1.302070260E0,-1.611251712E0,-6.549348831E-1
2.838886045E0,1.330780864E0,-1.617971301E0,-6.506587863E-1
2.840885845E0,1.368654490E0,-1.618582129E0,-6.488262415E-1
2.842885578E0,1.384537101E0,-1.615527868E0,-6.463828087E-1
2.844885311E0,1.416302085E0,-1.622858167E0,-6.439393163E-1
2.846885111E0,1.449288845E0,-1.629577756E0,-6.384415030E-1
2.848884844E0,1.454786658E0,-1.636908054E0,-6.335546374E-1
2.850884577E0,1.478610396E0,-1.644238472E0,-6.286676526E-1
2.852884310E0,1.493881941E0,-1.644238472E0,-6.262242198E-1
2.854884043E0,1.507931828E0,-1.644849420E0,-6.158395410E-1
2.856883843E0,1.521981835E0,-1.638740778E0,-5.999570489E-1
2.858883576E0,1.529312134E0,-1.630799413E0,-5.950701237E-1
2.860883309E0,1.534809947E0,-1.611251712E0,-5.718572140E-1
2.862883042E0,1.539085984E0,-1.586206317E0,-5.498660803E-1
2.864882775E0,1.539696932E0,-1.574599862E0,-5.364270806E-1
2.866882508E0,1.536642551E0,-1.543445706E0,-5.126032829E-1
2.868882241E0,1.529312134E0,-1.509848118E0,-4.832817614E-1
2.870881974E0,1.521370888E0,-1.493965745E0,-4.655666947E-1
2.872881774E0,1.503655791E0,-1.457313776E0,-4.386886060E-1
2.874881507E0,1.466393113E0,-1.421272755E0,-4.075344801E-1
2.876881240E0,1.445012689E0,-1.401114106E0,-3.922628462E-1
2.878880973E0,1.399808764E0,-1.357131839E0,-3.745477498E-1
2.880880706E0,1.343609095E0,-1.319869041E0,-3.592761159E-1
2.882880439E0,1.315509319E0,-1.293601751E0,-3.513348699E-1
2.884880172E0,1.247703195E0,-1.247786999E0,-3.391175568E-1
2.886879972E0,1.164625645E0,-1.196474195E0,-3.287328482E-1
2.888879772E0,1.118810654E0,-1.172039628E0,-3.256785274E-1
2.890879505E0,1.018017888E0,-1.110342264E0,-3.220133483E-1
2.892879238E0,9.135599732E-1,-1.051699162E0,-3.201807439E-1
2.894878971E0,8.640798926E-1,-1.016269088E0,-3.256785274E-1
2.896878704E0,7.590110302E-1,-9.570150971E-1,-3.305654526E-1
2.898878437E0,7.113636136E-1,-9.270827174E-1,-3.366740942E-1
2.900878170E0,6.160686016E-1,-8.721048236E-1,-3.501131237E-1
2.902877970E0,5.329909325E-1,-8.232355714E-1,-3.611086905E-1
2.904877703E0,4.951172769E-1,-7.957466245E-1,-3.659956455E-1
2.906877369E0,4.303655624E-1,-7.511535287E-1,-3.788237870E-1
2.908877102E0,3.619486392E-1,-7.157233357E-1,-3.769912124E-1
2.910876835E0,3.307945132E-1,-6.961756349E-1,-3.794346750E-1
2.912876568E0,2.788709700E-1,-6.497498751E-1,-3.763803542E-1
2.914876301E0,2.348886877E-1,-6.027132273E-1,-3.702717125E-1
2.916876034E0,2.165627331E-1,-5.740025640E-1,-3.672173619E-1
2.918875834E0,1.683043689E-1,-5.165812373E-1,-3.543891907E-1
2.920875567E0,1.273763925E-1,-4.530512691E-1,-3.421719074E-1
2.922875300E0,1.017200649E-1,-4.243406057E-1,-3.342306614E-1
2.924875033E0,5.834862590E-2,-3.656975329E-1,-3.195698857E-1
2.926874766E0,9.479407221E-3,-3.021675348E-1,-3.116286397E-1
2.928874499E0,-1.617693342E-2,-2.752894759E-1,-3.049091101E-1
2.930874232E0,-6.443528831E-2,-2.276419848E-1,-2.975787222E-1
2.932873965E0,-1.163588315E-1,-1.909900606E-1,-2.896374762E-1
2.934873765E0,-1.414043158E-1,-1.824379563E-1,-2.890266180E-1
2.936873498E0,-1.853866130E-1,-1.696097851E-1,-2.884157300E-1
2.938873231E0,-2.037125677E-1,-1.708315313E-1,-2.835288346E-1
2.940872964E0,-2.440296561E-1,-1.995421946E-1,-2.694789171E-1
2.942872697E0,-2.825141847E-1,-2.459679395E-1,-2.517638505E-1
2.944872430E0,-2.971749604E-1,-2.752894759E-1,-2.426008582E-1
2.946872163E0,-3.240530193E-1,-3.492041528E-1,-2.248857617E-1
2.948871896E0,-3.442115784E-1,-4.212862849E-1,-2.047272027E-1
2.950871696E0,-3.527636826E-1,-4.622142315E-1,-1.961750984E-1
2.952871429E0,-3.655918539E-1,-5.391832590E-1,-1.778491437E-1
2.954871162E0,-3.888047040E-1,-6.045458317E-1,-1.552471370E-1
2.956870895E0,-3.991894424E-1,-6.356999278E-1,-1.430298090E-1
2.958870628E0,-4.260675013E-1,-6.937322021E-1,-1.204278097E-1
2.960870361E0,-4.517238438E-1,-7.377144694E-1,-9.843666106E-2
2.962870094E0,-4.676063657E-1,-7.566512823E-1,-8.805194497E-2
2.964869894E0,-4.920409620E-1,-7.914705873E-1,-7.033686340E-2
2.966869694E0,-5.176973343E-1,-8.165161014E-1,-4.773484543E-2
2.968869427E0,-5.323581100E-1,-8.250681758E-1,-3.918272629E-2
2.970869160E0,-5.531275272E-1,-8.226247430E-1,-2.879801951E-2
2.972868893E0,-5.800055265E-1,-8.024662137E-1,-1.658071578E-2
2.974868626E0,-5.916119814E-1,-7.859728336E-1,-1.291552372E-2
2.976868359E0,-6.184900403E-1,-7.444339395E-1,-6.806871388E-3
2.978868092E0,-6.441464424E-1,-6.973973513E-1,-7.417736575E-3
2.980867892E0,-6.588072181E-1,-6.711301208E-1,-8.639466949E-3
2.982867625E0,-6.930156350E-1,-6.222609282E-1,-4.363410641E-3
2.984867358E0,-7.070655227E-1,-5.959936976E-1,-2.530814614E-3
2.986867091E0,-7.467718124E-1,-5.465136766E-1,5.235115532E-4
2.988866824E0,-7.925866842E-1,-4.976444542E-1,5.410433281E-3
2.990866557E0,-8.145778179E-1,-4.732097983E-1,6.632164121E-3
2.992866290E0,-8.658905029E-1,-4.298383892E-1,1.029735524E-2
2.994866023E0,-9.184249043E-1,-3.882995546E-1,1.701687276E-2
2.996865823E0,-9.489681125E-1,-3.669192493E-1,2.007119916E-2
2.998865556E0,-1.009443879E0,-3.247695565E-1,2.862331271E-2
3.000865289E0,-1.063810825E0,-2.881176472E-1,2.862331271E-2
3.002865022E0,-1.087634563E0,-2.649047673E-1,2.862331271E-2
3.004864755E0,-1.131006002E0,-2.142029554E-1,3.167763725E-2
3.006864488E0,-1.173766613E0,-1.616685539E-1,4.633840546E-2
3.008864221E0,-1.196979523E0,-1.286818236E-1,5.183619261E-2
3.010863954E0,-1.242794275E0,-5.476712435E-2,6.466435641E-2
3.012863754E0,-1.291663527E0,2.098016813E-2,7.565993816E-2
3.014863487E0,-1.317319989E0,6.190813705E-2,8.421204984E-2
3.016863220E0,-1.363745570E0,1.462075412E-1,9.765108675E-2
3.018862953E0,-1.419334292E0,2.384482026E-1,1.159770414E-1
3.020862686E0,-1.446212530E0,2.867065370E-1,1.226965636E-1
3.022862419E0,-1.504855633E0,3.844449818E-1,1.391899288E-1
3.024862152E0,-1.567163825E0,4.919572771E-1,1.569050103E-1
3.026861885E0,-1.597096205E0,5.487677455E-1,1.672897190E-1
3.028861685E0,-1.670400023E0,6.599451900E-1,1.941678077E-1
3.030861418E0,-1.705830216E0,7.222535014E-1,2.057742327E-1
3.032861151E0,-1.779134035E0,8.493134379E-1,2.253219187E-1
3.034860884E0,-1.853048682E0,9.873689413E-1,2.418152839E-1
3.036860617E0,-1.892144084E0,1.057007551E0,2.528108656E-1
3.038860350E0,-1.974610925E0,1.192008734E0,2.729694247E-1
3.040860083E0,-2.063186169E0,1.311738372E0,2.974040210E-1
3.042859883E0,-2.109611988E0,1.371603251E0,3.090104759E-1
3.044859683E0,-2.200020313E0,1.499274015E0,3.285581470E-1
3.046859416E0,-2.280043364E0,1.633053541E0,3.364993930E-1
3.048859149E0,-2.317917347E0,1.705135584E0,3.377211392E-1
3.050858882E0,-2.389999151E0,1.863960624E0,3.310016096E-1
3.052858615E0,-2.449863911E0,2.055161476E0,3.096213341E-1
3.054858348E0,-2.476131439E0,2.165117264E0,2.980148792E-1
3.056858081E0,-2.535385370E0,2.397245884E0,2.784672081E-1
3.058857881E0,-2.595860958E0,2.640370369E0,2.644172907E-1
3.060857681E0,-2.629458427E0,2.760099888E0,2.589195371E-1
3.062857414E0,-2.694210291E0,2.989174366E0,2.467022091E-1
3.064857147E0,-2.747355461E0,3.208475113E0,2.234893143E-1
3.066856880E0,-2.771179199E0,3.307435274E0,2.100502998E-1
3.068856613E0,-2.797446251E0,3.490083933E0,1.715657860E-1
3.070856346E0,-2.804166079E0,3.663569689E0,1.330812722E-1
3.072856079E0,-2.805387735E0,3.749701738E0,1.159770414E-1
3.074855879E0,-2.797446251E0,3.935404539E0,7.993599772E-2
3.076855612E0,-2.798668146E0,4.032532215E0,6.222090125E-2
3.078855345E0,-2.802944183E0,4.229230881E0,2.556898631E-2
3.080855078E0,-2.813939810E0,4.400883675E0,-2.146763727E-2
3.082854811E0,-2.820048332E0,4.472354889E0,-4.284792021E-2
3.084854544E0,-2.820659161E0,4.574980259E0,-8.316502720E-2
3.086854277E0,-2.801722527E0,4.621406078E0,-1.149300262E-1
3.088854010E0,-2.793781281E0,4.616519451E0,-1.259255856E-1
3.090853810E0,-2.756518364E0,4.589641094E0,-1.405863613E-1
3.092853543E0,-2.707038403E0,4.523667812E0,-1.503601968E-1
3.094853276E0,-2.681382179E0,4.480296612E0,-1.564688534E-1
3.096853009E0,-2.638010502E0,4.391721249E0,-1.619666517E-1
3.098852742E0,-2.604413033E0,4.294593334E0,-1.711296290E-1
3.100852475E0,-2.594028234E0,4.251222134E0,-1.747948080E-1
3.102852208E0,-2.584865332E0,4.174863815E0,-1.741839498E-1
3.104851941E0,-2.573869705E0,4.111944675E0,-1.686861515E-1
3.106851741E0,-2.572037220E0,4.076514721E0,-1.656318307E-1
3.108851507E0,-2.574480534E0,3.998323679E0,-1.692970246E-1
3.110851273E0,-2.583643436E0,3.899974346E0,-1.918990463E-1
3.112851039E0,-2.586086988E0,3.849272728E0,-2.028946131E-1
3.114850805E0,-2.572648048E0,3.750923395E0,-2.346596122E-1
3.116850571E0,-2.535385370E0,3.668456554E0,-2.823070884E-1
3.118850337E0,-2.508507013E0,3.628750324E0,-3.085743189E-1
3.120850070E0,-2.441922903E0,3.551781178E0,-3.617195785E-1
3.122849903E0,-2.396107912E0,3.513907671E0,-3.879867792E-1
3.124849669E0,-2.299591303E0,3.449766874E0,-4.313582182E-1
3.126849435E0,-2.187191963E0,3.382571459E0,-4.680101275E-1
3.128849201E0,-2.124883890E0,3.353250027E0,-4.845034778E-1
3.130848967E0,-2.007597685E0,3.306213379E0,-5.046620369E-1
3.132848733E0,-1.888478875E0,3.270172358E0,-5.272640586E-1
3.134848499E0,-1.837166309E0,3.255511761E0,-5.376487374E-1
3.136848332E0,-1.754088521E0,3.226190090E0,-5.633051395E-1
3.138848165E0,-1.706441045E0,3.191981792E0,-5.981244445E-1
3.140847931E0,-1.695445418E0,3.167547226E0,-6.225590110E-1
3.142847697E0,-1.702775836E0,3.106460333E0,-6.720391512E-1
3.144847463E0,-1.744925499E0,3.030713081E0,-7.264061570E-1
3.146847229E0,-1.774857998E0,2.981233120E0,-7.593928576E-1
3.148846995E0,-1.865265965E0,2.854173183E0,-8.180359006E-1
3.150846761E0,-1.972778320E0,2.691072226E0,-8.797332644E-1
3.152846594E0,-2.033864975E0,2.604329348E0,-9.114983082E-1
3.154846360E0,-2.159092188E0,2.409463406E0,-9.768608809E-1
3.156846126E0,-2.281265497E0,2.203601837E0,-1.033671379E0
3.158845892E0,-2.339297295E0,2.101587057E0,-1.063603759E0
3.160845658E0,-2.446809769E0,1.893893123E0,-1.111251235E0
3.162845424E0,-2.544548035E0,1.689253211E0,-1.151568413E0
3.164845190E0,-2.584865332E0,1.589682102E0,-1.169283390E0
3.166844956E0,-2.666110277E0,1.388707399E0,-1.196161509E0
3.168844756E0,-2.697875261E0,1.285471201E0,-1.208989620E0
3.170844489E0,-2.758961916E0,1.094881177E0,-1.229758978E0
3.172844222E0,-2.807220221E0,9.128434658E-1,-1.252361059E0
3.174843955E0,-2.823713541E0,8.254896998E-1,-1.259691477E0
3.176843688E0,-2.853035212E0,6.373432279E-1,-1.270686984E0
3.178843421E0,-2.870139360E0,4.504184127E-1,-1.277406573E0
3.180843187E0,-2.873193502E0,3.593994975E-1,-1.272519708E0
3.182842920E0,-2.873193502E0,1.981310844E-1,-1.254193783E0
3.184842720E0,-2.860365391E0,6.435160339E-2,-1.210822225E0
3.186842453E0,-2.845704794E0,8.762862533E-3,-1.176002979E0
3.188842186E0,-2.814550638E0,-8.042345941E-2,-1.084984064E0
3.190841919E0,-2.766903162E0,-1.292926818E-1,-9.683088064E-1
3.192841652E0,-2.729640484E0,-1.311252713E-1,-8.998918533E-1
3.194841385E0,-2.630069256E0,-8.531038463E-2,-7.404560447E-1
3.196841118E0,-2.485904932E0,3.014314547E-2,-5.468117595E-1
3.198840851E0,-2.401605606E0,1.071121693E-1,-4.417429268E-1
3.200840651E0,-2.220789433E0,2.738783956E-1,-2.151119262E-1
3.202840384E0,-2.038140774E0,4.467532337E-1,5.410433281E-3
3.204840117E0,-1.945289373E0,5.322743654E-1,1.092575192E-1
3.206839850E0,-1.782188296E0,6.721625328E-1,2.925170958E-1
3.208839583E0,-1.721712589E0,7.265295386E-1,3.878120780E-1
3.210839316E0,-1.604426503E0,8.285440207E-1,5.454152822E-1
3.212839049E0,-1.506077290E0,8.969609141E-1,6.895795465E-1
3.214838849E0,-1.465760112E0,9.152868390E-1,7.573855519E-1
3.216838649E0,-1.404062748E0,9.134542942E-1,8.710064888E-1
3.218838382E0,-1.364356518E0,8.462591171E-1,9.632471204E-1
3.220838115E0,-1.360080481E0,7.906703353E-1,1.002342582E0
3.222837848E0,-1.371076107E0,6.355106235E-1,1.079311490E0
3.224837581E0,-1.412614822E0,4.272055626E-1,1.135511160E0
3.226837414E0,-1.441936374E0,3.080868125E-1,1.159334898E0
3.228837147E0,-1.494470835E0,6.679505855E-2,1.202095509E0
3.230836947E0,-1.544561744E0,-1.018037498E-1,1.237525582E0
3.232836680E0,-1.565331221E0,-1.366230547E-1,1.250353813E0
3.234836413E0,-1.590376735E0,-1.231840253E-1,1.272955775E0
3.236836146E0,-1.593430996E0,-2.116953395E-2,1.294336081E0
3.238835879E0,-1.587933183E0,5.702121556E-2,1.304109931E0
3.240835612E0,-1.556779027E0,2.353938818E-1,1.315716386E0
3.242835345E0,-1.493860006E0,4.217077494E-1,1.319381595E0
3.244835078E0,-1.451099396E0,5.047854185E-1,1.313883781E0
3.246834878E0,-1.348474026E0,6.953754425E-1,1.305942535E0
3.248834611E0,-1.235463977E0,9.415540695E-1,1.296168685E0
3.250834344E0,-1.189038157E0,1.091216087E0,1.300444722E0
3.252834077E0,-1.101073623E0,1.467509031E0,1.302277327E0
3.254833810E0,-1.066254258E0,1.681922674E0,1.302277327E0
3.256833543E0,-1.011276484E0,2.120523930E0,1.298001289E0
3.258833276E0,-9.721810222E-1,2.503536701E0,1.292503595E0
3.260833009E0,-9.477464557E-1,2.658696175E0,1.286394954E0
3.262832809E0,-9.049858451E-1,2.863336086E0,1.266236305E0
3.264832542E0,-8.438993692E-1,2.951300859E0,1.229584336E0
3.266832275E0,-8.103017807E-1,2.965350628E0,1.211869240E0
3.268832008E0,-7.406631112E-1,2.966572285E0,1.175828218E0
3.270831741E0,-6.588072181E-1,2.971459150E0,1.139787197E0
3.272831474E0,-6.221552491E-1,2.967183352E0,1.117796063E0
3.274831207E0,-5.396884680E-1,2.940916061E0,1.078700662E0
3.276830940E0,-4.572216570E-1,2.892657757E0,1.041437864E0
3.278830740E0,-4.132393599E-1,2.858449221E0,1.029831409E0
3.280830473E0,-3.301616907E-1,2.789421320E0,1.012116313E0
3.282830206E0,-2.641882300E-1,2.709398270E0,1.001120806E0
3.284829939E0,-2.342558354E-1,2.672746181E0,9.986773133E-1
3.286829572E0,-1.750018895E-1,2.605551004E0,9.864600301E-1
3.288829305E0,-1.181914285E-1,2.557903528E0,9.687449336E-1
3.290829038E0,-9.375681728E-2,2.539577723E0,9.595819712E-1
3.292828838E0,-4.733106121E-2,2.502925634E0,9.382016659E-1
3.294828638E0,-8.235685527E-3,2.473603964E0,9.198757410E-1
3.296828371E0,1.070113759E-2,2.458943367E0,9.119344354E-1
3.298828104E0,4.674218595E-2,2.426567316E0,8.856672645E-1
3.300827837E0,6.079208851E-2,2.408852339E0,8.752825260E-1
3.302827570E0,8.767015487E-2,2.364259243E0,8.526805639E-1
3.304827303E0,1.163808182E-1,2.315390110E0,8.319111466E-1
3.306827036E0,1.255438030E-1,2.293398857E0,8.270241618E-1
3.308826836E0,1.524218768E-1,2.251249313E0,8.135851622E-1
3.310826636E0,1.738021523E-1,2.219484091E0,8.056439161E-1
3.312826369E0,1.878520697E-1,2.206045151E0,8.025895953E-1
3.314826102E0,2.049562782E-1,2.168782473E0,7.952592373E-1
3.316825835E0,2.293909043E-1,2.133963108E0,7.909831405E-1
3.318825568E0,2.409973294E-1,2.113804340E0,7.879288197E-1
3.320825301E0,2.562689483E-1,2.066767931E0,7.830418944E-1
3.322825034E0,2.758166492E-1,2.019731283E0,7.744898200E-1
3.324824834E0,2.837578952E-1,1.989187956E0,7.744898200E-1
3.326824567E0,3.057490587E-1,1.927490592E0,7.653267980E-1
3.328824300E0,3.173555136E-1,1.850521564E0,7.647159696E-1
3.330824033E0,3.252967596E-1,1.808982730E0,7.598290443E-1
3.332823766E0,3.454552889E-1,1.719796419E0,7.561638355E-1
3.334823499E0,3.711116314E-1,1.622668862E0,7.488334179E-1
3.336823232E0,3.863832653E-1,1.568301916E0,7.506660223E-1
3.338822965E0,4.224243164E-1,1.460178733E0,7.555530071E-1
3.340822765E0,4.664066136E-1,1.355109811E0,7.671594024E-1
3.342822531E0,4.883977771E-1,1.304408073E0,7.732680440E-1
3.344822297E0,5.427647829E-1,1.193230629E0,7.879288197E-1
3.346822063E0,5.751405954E-1,1.141917825E0,7.922049165E-1
3.348821829E0,6.343945265E-1,1.025242686E0,8.074765205E-1
3.350821595E0,6.979245543E-1,8.981826901E-1,8.306893706E-1
3.352821361E0,7.296895385E-1,8.334309459E-1,8.422958255E-1
3.354821127E0,7.993282080E-1,7.063709497E-1,8.642869592E-1
3.356820960E0,8.683559299E-1,5.707589388E-1,8.832238317E-1
3.358820826E0,9.068404436E-1,5.053963065E-1,8.923867941E-1
3.360820692E0,9.752573967E-1,3.648973107E-1,9.119344354E-1
3.362820558E0,1.052226424E0,2.213439643E-1,9.278169274E-1
3.364820424E0,1.087656617E0,1.504835933E-1,9.375908375E-1
3.366820290E0,1.157295108E0,6.930266507E-3,9.516406655E-1
3.368820156E0,1.225712180E0,-1.384556592E-1,9.626362920E-1
3.370820022E0,1.263585806E0,-2.087051719E-1,9.656906128E-1
3.372819955E0,1.330170035E0,-3.485932946E-1,9.711884260E-1
3.374819888E0,1.399197817E0,-4.897031784E-1,9.717992544E-1
3.376819821E0,1.429130197E0,-5.562874675E-1,9.736318588E-1
3.378819754E0,1.495714545E0,-6.870126128E-1,9.620254040E-1
3.380819687E0,1.558022857E0,-8.146834970E-1,9.400342703E-1
3.382819620E0,1.589787841E0,-8.739374280E-1,9.223191738E-1
3.384819553E0,1.653928638E0,-9.924452305E-1,8.777260184E-1
3.386819553E0,1.720512986E0,-1.081631541E0,8.313002586E-1
3.388819553E0,1.744947553E0,-1.128057361E0,8.123633862E-1
3.390819519E0,1.794427633E0,-1.192198277E0,7.738789320E-1
3.392819485E0,1.813975334E0,-1.228239298E0,7.573855519E-1
3.394819451E0,1.845740318E0,-1.280773640E0,7.268422842E-1
3.396819417E0,1.865288019E0,-1.313149571E0,6.908012033E-1
3.398819383E0,1.872007608E0,-1.321090817E0,6.700317860E-1
3.400819349E0,1.864066243E0,-1.319869041E0,6.315473318E-1
3.402819349E0,1.838409901E0,-1.285049677E0,5.869541764E-1
3.404819315E0,1.821916580E0,-1.251452208E0,5.637412667E-1
3.406819281E0,1.767549515E0,-1.162265897E0,5.148720741E-1
3.408819247E0,1.687526226E0,-1.048034072E0,4.586724639E-1
3.410819213E0,1.635602713E0,-9.887800813E-1,4.311835170E-1
3.412819179E0,1.498157978E0,-8.831003904E-1,3.719295561E-1
3.414819145E0,1.338722110E0,-7.707011700E-1,3.163408637E-1
3.416819111E0,1.248925090E0,-7.187776566E-1,2.864084542E-1
3.418819044E0,1.054058909E0,-6.393651962E-1,2.216567248E-1
3.420818977E0,8.433104753E-1,-5.746134520E-1,1.611810774E-1
3.422818910E0,7.388525605E-1,-5.361288786E-1,1.312486678E-1
3.424818843E0,5.323800445E-1,-4.579381645E-1,7.871426642E-2
3.426818776E0,3.393466473E-1,-3.711953163E-1,2.923417836E-2
3.428818709E0,2.458842695E-1,-3.186609149E-1,-1.309084124E-3
3.430818642E0,8.278323710E-2,-1.787727624E-1,-7.644551247E-2
3.432818575E0,-5.588317662E-2,-4.065308254E-3,-1.595231742E-1
3.434818508E0,-1.218566224E-1,9.428399801E-2,-1.943424940E-1
3.436818374E0,-2.330340892E-1,3.123628795E-1,-2.499312460E-1
3.438818240E0,-2.825141847E-1,4.278164208E-1,-2.645920217E-1
3.440818106E0,-3.704787791E-1,6.739951372E-1,-2.768093050E-1
3.442817972E0,-4.474477768E-1,9.421649575E-1,-2.615377009E-1
3.444817838E0,-4.773801863E-1,1.085718274E0,-2.487094998E-1
3.446817704E0,-5.231950879E-1,1.397259474E0,-2.193879634E-1
3.448817570E0,-5.635122061E-1,1.710022569E0,-1.802926064E-1
3.450817470E0,-5.738968849E-1,1.872512698E0,-1.674644351E-1
3.452817303E0,-5.903902650E-1,2.196271181E0,-1.515819430E-1
3.454817136E0,-5.946663022E-1,2.513921261E0,-1.424189657E-1
3.456816969E0,-5.971097946E-1,2.660528898E0,-1.387537718E-1
3.458816802E0,-5.952771902E-1,2.933585644E0,-1.424189657E-1
3.460816635E0,-5.824490190E-1,3.168158054E0,-1.546362638E-1
3.462816468E0,-5.732859969E-1,3.272004843E0,-1.619666517E-1
3.464816334E0,-5.488514304E-1,3.443658113E0,-1.802926064E-1
3.466816200E0,-5.231950879E-1,3.568885565E0,-2.028946131E-1
3.468816000E0,-5.091452003E-1,3.617754698E0,-2.145010531E-1
3.470815800E0,-4.847105742E-1,3.689836979E0,-2.358813286E-1
3.472815600E0,-4.657737315E-1,3.742982149E0,-2.523747087E-1
3.474815400E0,-4.627194107E-1,3.759475470E0,-2.609268129E-1
3.476815200E0,-4.755476117E-1,3.793683767E0,-2.731440961E-1
3.478815000E0,-5.042582750E-1,3.812009811E0,-2.829179764E-1
3.480814800E0,-5.335797668E-1,3.810177326E0,-2.871940434E-1
3.482814600E0,-6.013858914E-1,3.789407969E0,-2.963570058E-1
3.484814333E0,-6.441464424E-1,3.774747133E0,-3.030765057E-1
3.486814066E0,-7.321110368E-1,3.723434210E0,-3.201807439E-1
3.488813799E0,-8.072474599E-1,3.658071756E0,-3.488914073E-1
3.490813532E0,-8.329037428E-1,3.615922213E0,-3.647738993E-1
3.492813265E0,-8.573383689E-1,3.506577253E0,-3.959280252E-1
3.494812998E0,-8.420667648E-1,3.362413168E0,-4.173083305E-1
3.496812798E0,-8.237407804E-1,3.281167984E0,-4.270821512E-1
3.498812531E0,-7.516586781E-1,3.079582453E0,-4.606797397E-1
3.500812264E0,-6.472007632E-1,2.811412573E0,-5.071054697E-1
3.502811997E0,-5.897794366E-1,2.645868063E0,-5.400922298E-1
3.504811730E0,-4.541673362E-1,2.243307829E0,-6.359980702E-1
3.506811530E0,-3.271073401E-1,1.758891821E0,-7.826057076E-1
3.508811263E0,-2.812924385E-1,1.498052359E0,-8.650725484E-1
3.510810996E0,-2.220385224E-1,9.855363965E-1,-1.087427497E0
3.512810796E0,-1.902735233E-1,5.072289109E-1,-1.369036436E0
3.514810529E0,-1.743910313E-1,2.860956788E-1,-1.535802603E0
3.516810262E0,-1.279652715E-1,-1.042472050E-1,-1.899267435E0
3.518809995E0,-6.015922874E-2,-4.133450389E-1,-2.292664528E0
3.520809728E0,-3.328115866E-2,-5.397941470E-1,-2.485697985E0
3.522809461E0,-2.737898147E-3,-7.236645222E-1,-2.850995302E0
3.524809194E0,-5.181358662E-3,-7.768098116E-1,-3.006155252E0
3.526808927E0,-8.642643690E-2,-8.079639673E-1,-3.221179724E0
3.528808727E0,-2.397536188E-1,-7.468774319E-1,-3.277990341E0
3.530808460E0,-3.381029069E-1,-6.931212544E-1,-3.238283873E0
3.532808193E0,-5.354124308E-1,-5.428484678E-1,-3.031200647E0
3.534807926E0,-6.820200682E-1,-3.699735999E-1,-2.704387665E0
3.536807659E0,-7.278349400E-1,-2.856741846E-1,-2.510743380E0
3.538807392E0,-7.479934692E-1,-1.097449958E-1,-2.105739832E0
3.540807258E0,-6.911830306E-1,7.779063284E-2,-1.722116470E0
3.542806991E0,-6.380378008E-1,1.816377193E-1,-1.546187282E0
3.544806791E0,-5.048691630E-1,3.881101608E-1,-1.249306798E0
3.546806524E0,-3.356594443E-1,5.176135898E-1,-1.035503864E0
3.548806257E0,-2.379210144E-1,5.151701570E-1,-9.567023516E-1
3.550805990E0,-3.389202431E-2,3.374083638E-1,-8.595747948E-1
3.552805723E0,1.786890924E-1,-7.126048207E-2,-8.210902810E-1
3.554805456E0,2.874231040E-1,-3.504258990E-1,-8.235337138E-1
3.556805189E0,5.030585527E-1,-9.875583649E-1,-8.601856232E-1
3.558804989E0,7.070875168E-1,-1.632632136E0,-9.279916286E-1
3.560804789E0,8.060476780E-1,-1.930734277E0,-9.676978588E-1
3.562804522E0,9.893072248E-1,-2.423091888E0,-1.050775647E0
3.564804255E0,1.149353981E0,-2.749904633E0,-1.132631421E0
3.566803921E0,1.226323009E0,-2.834815025E0,-1.174170375E0
3.568803654E0,1.353993773E0,-2.872077703E0,-1.231591702E0
3.570803387E0,1.413247705E0,-2.819543123E0,-1.256026268E0
3.572803120E0,1.528090477E0,-2.572753668E0,-1.271908760E0
3.574802920E0,1.626439691E0,-2.201958418E0,-1.250528574E0
3.576802653E0,1.665535092E0,-1.986322999E0,-1.216320038E0
3.578802386E0,1.725399852E0,-1.550776124E0,-1.111251235E0
3.580802119E0,1.755943060E0,-1.175094008E0,-9.524262547E-1
3.582801852E0,1.760830045E0,-1.021766782E0,-8.565204740E-1
3.584801585E0,1.746780157E0,-7.865836620E-1,-6.506587863E-1
3.586801318E0,1.720512986E0,-6.363108754E-1,-4.594579935E-1
3.588801051E0,1.706462979E0,-5.862199068E-1,-3.757694662E-1
3.590800851E0,1.680195808E0,-5.434592962E-1,-2.419899851E-1
3.592800584E0,1.651485205E0,-5.788895488E-1,-1.454732865E-1
3.594800317E0,1.632548332E0,-6.179848909E-1,-1.063779071E-1
3.596800050E0,1.593453050E0,-7.535969615E-1,-4.834570736E-2
3.598799783E0,1.541529417E0,-9.545716643E-1,-5.585140549E-3
3.600799383E0,1.517094851E0,-1.070636034E0,1.029735524E-2
3.602799116E0,1.469447374E0,-1.338194966E0,4.084061831E-2
3.604798849E0,1.448067069E0,-1.649125338E0,7.627080381E-2
3.606798649E0,1.441347480E0,-1.818945885E0,1.049814671E-1
3.608798382E0,1.451732278E0,-2.178745508E0,1.648462713E-1
3.610798115E0,1.495714545E0,-2.587414503E0,2.308197021E-1
3.612797848E0,1.524425149E0,-2.815877914E0,2.674716115E-1
3.614797581E0,1.602005124E0,-3.311289787E0,3.340559304E-1
3.616797314E0,1.642933130E0,-3.569074869E0,3.639883399E-1
3.618797047E0,1.735173702E0,-4.074260712E0,4.177444875E-1
3.620796780E0,1.839631677E0,-4.548902988E0,4.385138750E-1
3.622796580E0,1.901939988E0,-4.768814564E0,4.501203299E-1
3.624796313E0,2.045493364E0,-5.151826859E0,4.794418514E-1
3.626796046E0,2.193322659E0,-5.410833359E0,5.154829025E-1
3.628795779E0,2.257463694E0,-5.489024639E0,5.356414914E-1
3.630795512E0,2.394297361E0,-5.512848377E0,5.631304383E-1
3.632795245E0,2.510972738E0,-5.374181747E0,5.838998556E-1
3.634794978E0,2.559841871E0,-5.244678020E0,5.881758928E-1
3.636794778E0,2.634367466E0,-4.876937389E0,6.040583253E-1
3.638794578E0,2.682014942E0,-4.387634277E0,6.284929514E-1
3.640794311E0,2.687512636E0,-4.106636047E0,6.480406523E-1
3.642794044E0,2.674073458E0,-3.503712416E0,7.005750537E-1
3.644799499E0,2.628258705E0,-2.891625166E0,7.720463276E-1
3.646799232E0,2.589774132E0,-2.605129719E0,8.105308414E-1
3.648798965E0,2.493257523E0,-2.092613459E0,8.972736597E-1
3.650798698E0,2.374138594E0,-1.674781680E0,9.827948213E-1
3.652798498E0,2.308776140E0,-1.503128648E0,1.021890163E0
3.654798231E0,2.173774958E0,-1.248397827E0,1.097026587E0
3.656797964E0,2.037552118E0,-1.118283510E0,1.162389159E0
3.658797697E0,1.973411083E0,-1.092627168E0,1.193543315E0
3.660797430E0,1.857346773E0,-1.112785816E0,1.255240679E0
3.662797163E0,1.811531901E0,-1.143939853E0,1.283340573E0
3.664796896E0,1.746169329E0,-1.238013029E0,1.324268579E0
3.666796629E0,1.709517360E0,-1.351023197E0,1.343816161E0
3.668796429E0,1.699743509E0,-1.412109733E0,1.346259594E0
3.670796162E0,1.710739136E0,-1.514735103E0,1.324879408E0
3.672795895E0,1.749834418E0,-1.590482354E0,1.286394954E0
3.674795628E0,1.777323484E0,-1.612473488E0,1.256462455E0
3.676795361E0,1.853681684E0,-1.624079943E0,1.197819352E0
3.678795094E0,1.942867875E0,-1.613084316E0,1.128180742E0
3.680794827E0,1.983185053E0,-1.603310585E0,1.090307117E0
3.682794560E0,2.065041065E0,-1.579486847E0,1.010283709E0
3.684794360E0,2.140177488E0,-1.553830385E0,9.278169274E-1
3.686794093E0,2.178050995E0,-1.539169669E0,8.826129436E-1
3.688793826E0,2.237304926E0,-1.508626461E0,8.093090653E-1
3.690793559E0,2.299613237E0,-1.458535433E0,7.396704555E-1
3.692793292E0,2.328934908E0,-1.431657314E0,7.097380161E-1
3.694793025E0,2.376582384E0,-1.371792555E0,6.468189955E-1
3.696792758E0,2.402849436E0,-1.313149571E0,5.857324004E-1
3.698792491E0,2.410790682E0,-1.290547490E0,5.594652295E-1
3.700792291E0,2.408347130E0,-1.252673864E0,5.057090521E-1
3.702792024E0,2.386355877E0,-1.223352313E0,4.574507177E-1
3.704791790E0,2.364975929E0,-1.211745858E0,4.348486960E-1
3.706791523E0,2.325269461E0,-1.184256911E0,3.939207196E-1
3.708791256E0,2.293504715E0,-1.177537441E0,3.755947649E-1
3.710790989E0,2.211648703E0,-1.186089635E0,3.389428854E-1
3.712790722E0,2.118797064E0,-1.200139403E0,2.955714166E-1
3.714790522E0,2.072371244E0,-1.209913373E0,2.766346037E-1
3.716790322E0,1.975243807E0,-1.242289186E0,2.497565299E-1
3.718790055E0,1.879337907E0,-1.292990923E0,2.350957692E-1
3.720789788E0,1.836577415E0,-1.315593004E0,2.326522917E-1
3.722789521E0,1.762662768E0,-1.367516518E0,2.436478734E-1
3.724789254E0,1.701576114E0,-1.435322642E0,2.662498653E-1
3.726788987E0,1.669811130E0,-1.475639701E0,2.766346037E-1
3.728788720E0,1.613000751E0,-1.580708504E0,3.041235209E-1
3.730788520E0,1.561687946E0,-1.702881575E0,3.248929381E-1
3.732788320E0,1.537253380E0,-1.772520185E0,3.371102512E-1
3.734788053E0,1.495714545E0,-1.907521367E0,3.554362059E-1
3.736787786E0,1.465171218E0,-2.040079117E0,3.700969815E-1
3.738787519E0,1.452953935E0,-2.099333048E0,3.798708320E-1
3.740787252E0,1.437071562E0,-2.195239067E0,3.951424658E-1
3.742786985E0,1.426075935E0,-2.256325483E0,4.159118533E-1
3.744786718E0,1.423632503E0,-2.275872946E0,4.214096665E-1
3.746786518E0,1.421188951E0,-2.302140474E0,4.354595542E-1
3.748786251E0,1.407139063E0,-2.321687937E0,4.470660090E-1
3.750785984E0,1.402863026E0,-2.328407526E0,4.495094717E-1
3.752785717E0,1.385147929E0,-2.329018354E0,4.525637925E-1
3.754785450E0,1.369876385E0,-2.330240250E0,4.580615759E-1
3.756785183E0,1.344219923E0,-2.328407526E0,4.513420761E-1
3.758784916E0,1.303902864E0,-2.336959600E0,4.421790838E-1
3.760784649E0,1.284966111E0,-2.347344398E0,4.342378378E-1
3.762784449E0,1.239151120E0,-2.367502928E0,4.183553457E-1
3.764784182E0,1.193336248E0,-2.394381046E0,3.988076448E-1
3.766783915E0,1.171345115E0,-2.404765606E0,3.859795034E-1
3.768783648E0,1.123086810E0,-2.425535202E0,3.652100563E-1
3.770783381E0,1.074217558E0,-2.437752485E0,3.407754600E-1
3.772783114E0,1.049782991E0,-2.438974142E0,3.316124976E-1
3.774782847E0,1.002746224E0,-2.439584970E0,3.053452671E-1
3.776782580E0,9.544879198E-1,-2.434698105E0,2.809106410E-1
3.778782380E0,9.276098609E-1,-2.431643724E0,2.656390369E-1
3.780782113E0,8.793514967E-1,-2.420648098E0,2.399826795E-1
3.782781846E0,8.280388117E-1,-2.404154778E0,2.149372101E-1
3.784781579E0,8.078802824E-1,-2.394381046E0,1.984438449E-1
3.786781312E0,7.584002018E-1,-2.369335413E0,1.666788608E-1
3.788781045E0,7.144179344E-1,-2.333294392E0,1.336921453E-1
3.790780778E0,6.967028379E-1,-2.314357758E0,1.190313697E-1
3.792780511E0,6.496661901E-1,-2.276484013E0,8.848810941E-2
3.794780311E0,6.337836981E-1,-2.257547140E0,7.199474424E-2
3.796780044E0,5.946882963E-1,-2.217230082E0,4.511667415E-2
3.798779777E0,5.665885210E-1,-2.179967403E0,1.396254729E-2
3.800779510E0,5.562037826E-1,-2.159198046E0,-5.585140549E-3
3.802779243E0,5.366561413E-1,-2.124378681E0,-4.040446132E-2
3.804778976E0,5.268822908E-1,-2.088948488E0,-7.155858725E-2
3.806778709E0,5.323800445E-1,-2.075509310E0,-8.683021367E-2
3.808778509E0,5.409321785E-1,-2.050463915E0,-1.057670414E-1
3.810778309E0,5.696428418E-1,-2.021142244E0,-1.173734814E-1
3.812778042E0,5.849145055E-1,-2.006481647E0,-1.253147274E-1
3.814777775E0,6.319510937E-1,-1.971051335E0,-1.326451153E-1
3.816777508E0,6.948702335E-1,-1.927069068E0,-1.369211674E-1
3.818777241E0,7.254134417E-1,-1.897747517E0,-1.369211674E-1
3.820776974E0,7.962738872E-1,-1.837271810E0,-1.509710699E-1
3.822776707E0,8.653016090E-1,-1.774963617E0,-1.650209725E-1
3.824776507E0,9.037861228E-1,-1.735257387E0,-1.723513454E-1
3.826776273E0,9.831985831E-1,-1.663786173E0,-1.894555837E-1
3.828776039E0,1.058945894E0,-1.592314959E0,-2.083923966E-1
3.830775805E0,1.093765259E0,-1.553830385E0,-2.212205678E-1
3.832775571E0,1.165847301E0,-1.481748343E0,-2.438225895E-1
3.834775337E0,1.231820822E0,-1.423105240E0,-2.652028799E-1
3.836775103E0,1.261753201E0,-1.393783689E0,-2.761984468E-1
3.838774869E0,1.323450565E0,-1.338805914E0,-2.988004386E-1
3.840774702E0,1.349717736E0,-1.314982176E0,-3.116286397E-1
3.842774468E0,1.398586869E0,-1.268556356E0,-3.391175568E-1
3.844774234E0,1.438904047E0,-1.228239298E0,-3.733260334E-1
3.846774000E0,1.459062576E0,-1.209913373E0,-3.898193538E-1
3.848773766E0,1.494492769E0,-1.168374538E0,-4.185300469E-1
3.850773532E0,1.526868701E0,-1.127446532E0,-4.496841729E-1
3.852773298E0,1.545194626E0,-1.107288003E0,-4.661775231E-1
3.854773064E0,1.572072744E0,-1.073079467E0,-4.936664701E-1
3.856772897E0,1.602005124E0,-1.035816669E0,-5.248206258E-1
3.858772663E0,1.611778975E0,-1.019934177E0,-5.388704538E-1
3.860772429E0,1.628272295E0,-9.967213273E-1,-5.663594604E-1
3.862772195E0,1.645376563E0,-9.765627980E-1,-5.938484073E-1
3.864771961E0,1.648430943E0,-9.667889476E-1,-6.030113697E-1
3.866771727E0,1.662480712E0,-9.551824927E-1,-6.262242198E-1
3.868771493E0,1.657593846E0,-9.502955675E-1,-6.372197866E-1
3.870771259E0,1.655150414E0,-9.472412467E-1,-6.469936371E-1
3.872771092E0,1.649652600E0,-9.325805306E-1,-6.592109203E-1
3.874770858E0,1.652706861E0,-9.008154869E-1,-6.750934720E-1
3.876770624E0,1.645376563E0,-8.873764873E-1,-6.793695092E-1
3.878770390E0,1.650874257E0,-8.348420262E-1,-6.909759641E-1
3.880770156E0,1.655761242E0,-7.645925283E-1,-6.989171505E-1
3.882769922E0,1.655150414E0,-7.303841114E-1,-7.050257921E-1
3.884769688E0,1.659426451E0,-6.625780463E-1,-7.068584561E-1
3.886769488E0,1.660648227E0,-6.308130622E-1,-7.074692845E-1
3.888769288E0,1.657593846E0,-5.788895488E-1,-7.093018889E-1
3.890769021E0,1.650263429E0,-5.379615426E-1,-7.080801725E-1
3.892768754E0,1.636824489E0,-5.312420130E-1,-7.038041353E-1
3.894768487E0,1.620941877E0,-5.147486329E-1,-6.952520013E-1
3.896768220E0,1.586733580E0,-5.025313497E-1,-6.854781508E-1
3.898767953E0,1.563520670E0,-5.006987453E-1,-6.781477928E-1
3.900767686E0,1.514651418E0,-4.952009618E-1,-6.628761888E-1
3.902767486E0,1.455397487E0,-4.878705740E-1,-6.494371295E-1
3.904767219E0,1.428519368E0,-4.725989401E-1,-6.439393163E-1
3.906766952E0,1.361324191E0,-4.652685523E-1,-6.390524507E-1
3.908766685E0,1.287409544E0,-4.561055899E-1,-6.317220330E-1
3.910766418E0,1.253201008E0,-4.518295228E-1,-6.286676526E-1
3.912766151E0,1.179897189E0,-4.487752020E-1,-6.243916750E-1
3.914765884E0,1.121254206E0,-4.530512691E-1,-6.237807870E-1
3.916765617E0,1.093154311E0,-4.561055899E-1,-6.280568242E-1
3.918765417E0,1.035122156E0,-4.884814322E-1,-6.231698990E-1
3.920765150E0,9.868637919E-1,-5.281876922E-1,-6.231698990E-1
3.922764883E0,9.679269791E-1,-5.507896543E-1,-6.195046902E-1
3.924764616E0,9.312750697E-1,-6.130979657E-1,-6.109525561E-1
3.926764349E0,9.068404436E-1,-6.802931428E-1,-6.030113697E-1
3.928764082E0,8.940122724E-1,-7.169450521E-1,-5.950701237E-1
3.930763815E0,8.762971759E-1,-7.810858488E-1,-5.822419524E-1
3.932763548E0,8.646907210E-1,-8.140726089E-1,-5.712463260E-1
3.934763348E0,8.469756246E-1,-8.678287268E-1,-5.498660803E-1
3.936763081E0,8.255953789E-1,-9.203631878E-1,-5.266531706E-1
3.938762814E0,8.127672076E-1,-9.405217171E-1,-5.156576037E-1
3.940762547E0,7.901651859E-1,-9.796171188E-1,-4.924447238E-1
3.942762280E0,7.687849402E-1,-9.991648197E-1,-4.698427022E-1
3.944762013E0,7.590110302E-1,-1.002219081E0,-4.557928145E-1
3.946761746E0,7.419068813E-1,-1.000997424E0,-4.313582182E-1
3.948761479E0,7.199156880E-1,-9.820605516E-1,-4.063127339E-1
3.950761279E0,7.095310092E-1,-9.680106640E-1,-3.934845626E-1
3.952761012E0,6.893724203E-1,-9.374673963E-1,-3.647738993E-1
3.954760745E0,6.710464358E-1,-9.014263153E-1,-3.378958404E-1
3.956760478E0,6.582183242E-1,-8.831003904E-1,-3.269002736E-1
3.958760211E0,6.362271905E-1,-8.458375931E-1,-3.049091101E-1
3.960759944E0,6.087382436E-1,-8.152943850E-1,-2.847505510E-1
3.962759677E0,5.983535051E-1,-7.963575721E-1,-2.780310512E-1
3.964759477E0,5.745297670E-1,-7.707011700E-1,-2.658137083E-1
3.966759277E0,5.525386333E-1,-7.432122827E-1,-2.499312460E-1
3.968759010E0,5.403212905E-1,-7.316058278E-1,-2.432117164E-1
3.970758743E0,5.146650076E-1,-7.145015597E-1,-2.316052914E-1
3.972758476E0,4.969498515E-1,-6.931212544E-1,-2.206097096E-1
3.974758209E0,4.908412099E-1,-6.821257472E-1,-2.151119262E-1
3.976757942E0,4.731261432E-1,-6.637997627E-1,-2.059489489E-1
3.978757675E0,4.615196884E-1,-6.576911211E-1,-2.035054713E-1
3.980757475E0,4.395285249E-1,-6.375325918E-1,-1.967859715E-1
3.982757275E0,4.230351746E-1,-6.179848909E-1,-1.955642402E-1
3.984757008E0,4.071526825E-1,-6.137087941E-1,-1.949533671E-1
3.986756741E0,3.888267279E-1,-5.856090188E-1,-1.949533671E-1
3.988756474E0,3.564508557E-1,-5.654504299E-1,-1.870121211E-1
3.990756207E0,3.405683637E-1,-5.532331467E-1,-1.888447106E-1
3.992755940E0,3.112468123E-1,-5.312420130E-1,-1.857903898E-1
3.994755673E0,2.794818282E-1,-5.080291629E-1,-1.809034795E-1
3.996755473E0,2.617667615E-1,-5.025313497E-1,-1.802926064E-1
3.998755206E0,2.287800312E-1,-4.982552826E-1,-1.747948080E-1
4.000754939E0,1.933498383E-1,-5.000879169E-1,-1.729622185E-1
4.002754672E0,1.750238985E-1,-5.037530661E-1,-1.699078977E-1
4.004754405E0,1.444806159E-1,-5.080291629E-1,-1.680753082E-1
4.006754138E0,1.114939004E-1,-5.178029537E-1,-1.662427038E-1
4.008753871E0,9.683313966E-2,-5.220790505E-1,-1.650209725E-1
4.010753604E0,6.995506585E-2,-5.281876922E-1,-1.576905847E-1
4.012753404E0,4.307699576E-2,-5.300202370E-1,-1.570797265E-1
4.014753137E0,3.147055581E-2,-5.294094086E-1,-1.570797265E-1
4.016752870E0,9.479407221E-3,-5.141378045E-1,-1.546362638E-1
4.018752603E0,-1.800952852E-2,-4.964227080E-1,-1.540253907E-1
4.020752336E0,-3.267029673E-2,-4.829836786E-1,-1.558579803E-1
4.022752102E0,-6.626788527E-2,-4.585490525E-1,-1.595231742E-1
4.024751835E0,-8.520470560E-2,-4.475534558E-1,-1.589123160E-1
4.026751568E0,-1.200240254E-1,-4.243406057E-1,-1.637992412E-1
4.028751368E0,-1.578976810E-1,-4.054037929E-1,-1.662427038E-1
4.030751101E0,-1.804996729E-1,-3.980734050E-1,-1.668535620E-1
4.032750834E0,-2.208167911E-1,-3.852452040E-1,-1.686861515E-1
4.034750567E0,-2.629664838E-1,-3.699735999E-1,-1.705187559E-1
4.036750300E0,-2.812924385E-1,-3.595888615E-1,-1.723513454E-1
4.038750033E0,-3.307725191E-1,-3.437063992E-1,-1.680753082E-1
4.040749766E0,-3.729222417E-1,-3.284347653E-1,-1.717404872E-1
4.042749499E0,-3.961350918E-1,-3.211043775E-1,-1.705187559E-1
4.044749299E0,-4.425608814E-1,-2.997241020E-1,-1.729622185E-1
4.046749032E0,-4.865431786E-1,-2.771220803E-1,-1.729622185E-1
4.048748765E0,-5.128103495E-1,-2.704025507E-1,-1.723513454E-1
4.050748498E0,-5.561818480E-1,-2.404701561E-1,-1.705187559E-1
4.052748231E0,-5.952771902E-1,-2.044291049E-1,-1.747948080E-1
4.054747964E0,-6.136031747E-1,-1.842705607E-1,-1.754056811E-1
4.056747697E0,-6.533094049E-1,-1.421208531E-1,-1.760165393E-1
4.058747497E0,-6.862961054E-1,-9.386249632E-2,-1.760165393E-1
4.060747297E0,-7.034003139E-1,-6.881702691E-2,-1.778491437E-1
4.062747030E0,-7.406631112E-1,-1.872607507E-2,-1.741839498E-1
4.064746763E0,-7.565456033E-1,6.319400854E-3,-1.747948080E-1
4.066746496E0,-7.913649082E-1,5.641034991E-2,-1.723513454E-1
4.068746229E0,-8.225190639E-1,1.028361097E-1,-1.705187559E-1
4.070745962E0,-8.390123844E-1,1.242163926E-1,-1.674644351E-1
4.072745695E0,-8.738317490E-1,1.657552272E-1,-1.607449204E-1
4.074745495E0,-9.074293375E-1,2.091266662E-1,-1.521928012E-1
4.076745228E0,-9.288096428E-1,2.262308896E-1,-1.424189657E-1
4.078744961E0,-9.679049850E-1,2.634936869E-1,-1.356994361E-1
4.080744694E0,-1.008222103E0,3.025890589E-1,-1.210386753E-1
4.082744394E0,-1.025326252E0,3.258019090E-1,-1.124865562E-1
4.084744127E0,-1.071141243E0,3.777254522E-1,-9.843666106E-2
4.086743860E0,-1.115123510E0,4.272055626E-1,-8.194329590E-2
4.088743593E0,-1.139558077E0,4.510293007E-1,-7.339118421E-2
4.090743393E0,-1.191481709E0,5.060071945E-1,-5.384349450E-2
4.092743126E0,-1.239129186E0,5.597633123E-1,-3.307407722E-2
4.094742859E0,-1.266618013E0,5.878630877E-1,-1.963504218E-2
4.096742592E0,-1.313654661E0,6.501713991E-1,-1.919949427E-3
4.098742325E0,-1.357026100E0,7.179774046E-1,1.884946786E-2
4.100742058E0,-1.382682443E0,7.509641051E-1,3.106677346E-2
4.102741791E0,-1.432162642E0,8.236570954E-1,5.977743864E-2
4.104741524E0,-1.486529589E0,8.994044065E-1,9.032069892E-2
4.106741324E0,-1.513407588E0,9.403323531E-1,1.031488702E-1
4.108741057E0,-1.584268093E0,1.016079664E0,1.343029886E-1
4.110740790E0,-1.617865562E0,1.058840156E0,1.471311599E-1
4.112740523E0,-1.696056366E0,1.140696168E0,1.795070320E-1
4.114740256E0,-1.775468826E0,1.223163009E0,2.002764493E-1
4.116739989E0,-1.815785885E0,1.257982254E0,2.118828893E-1
4.118739722E0,-1.887868047E0,1.336783886E0,2.302088439E-1
4.120739455E0,-1.953230619E0,1.411920309E0,2.497565299E-1
4.122739255E0,-1.981941342E0,1.456513524E0,2.583086491E-1
4.124738988E0,-2.033864975E0,1.559138775E0,2.796889246E-1
4.126738721E0,-2.087009907E0,1.703913927E0,2.955714166E-1
4.128738454E0,-2.114499092E0,1.787602425E0,2.986257672E-1
4.130738187E0,-2.167644262E0,1.981246710E0,2.974040210E-1
4.132737920E0,-2.227509022E0,2.198714733E0,2.894627750E-1
4.134737653E0,-2.255608797E0,2.311724901E0,2.790780663E-1
4.136737453E0,-2.311808586E0,2.550573349E0,2.583086491E-1
4.138737253E0,-2.361899376E0,2.782091141E0,2.332631648E-1
4.140736986E0,-2.379003763E0,2.893879414E0,2.186024040E-1
4.142736719E0,-2.405271053E0,3.101573467E0,1.892808676E-1
4.144736452E0,-2.413822889E0,3.290941954E0,1.569050103E-1
4.146736185E0,-2.411379576E0,3.380128145E0,1.416333765E-1
4.148735918E0,-2.401605606E0,3.557279110E0,1.055923328E-1
4.150735651E0,-2.389999151E0,3.730154037E0,7.138387859E-2
4.152735451E0,-2.388166666E0,3.811398983E0,5.489051715E-2
4.154735184E0,-2.397329569E0,3.984884739E0,2.373639122E-2
4.156734917E0,-2.415655613E0,4.067351341E0,1.090821996E-2
4.158734650E0,-2.465746641E0,4.219457150E0,-1.841331087E-2
4.160734383E0,-2.542104721E0,4.331244946E0,-5.017830431E-2
4.162734116E0,-2.587919712E0,4.363621235E0,-6.483907253E-2
4.164733849E0,-2.690544844E0,4.392942905E0,-9.843666106E-2
4.166733582E0,-2.785228968E0,4.372173309E0,-1.363103092E-1
4.168733382E0,-2.835930824E0,4.333688736E0,-1.503601968E-1
4.170733115E0,-2.913510799E0,4.227398396E0,-1.980076879E-1
4.172732848E0,-2.977040768E0,4.085066795E0,-2.383247912E-1
4.174732581E0,-2.998421192E0,4.005043030E0,-2.578724921E-1
4.176732314E0,-3.038738251E0,3.834001064E0,-2.902483642E-1
4.178732047E0,-3.064394474E0,3.659904480E0,-3.207916021E-1
4.180731780E0,-3.074168444E0,3.582324505E0,-3.317871690E-1
4.182731513E0,-3.086385727E0,3.436938763E0,-3.556109369E-1
4.184731313E0,-3.085774899E0,3.317209005E0,-3.818781376E-1
4.186731046E0,-3.083331347E0,3.266507387E0,-3.953171670E-1
4.188730779E0,-3.075390100E0,3.174877405E0,-4.154756963E-1
4.190730512E0,-3.071114063E0,3.087523699E0,-4.301364720E-1
4.192730245E0,-3.062561989E0,3.046595812E0,-4.368560314E-1
4.194729978E0,-3.041792393E0,2.966572285E0,-4.429646730E-1
4.196729711E0,-3.008805752E0,2.892046928E0,-4.490733147E-1
4.198729444E0,-2.986814737E0,2.858449221E0,-4.521276355E-1
4.200729244E0,-2.934280157E0,2.782701969E0,-4.631232023E-1
4.202728977E0,-2.908623695E0,2.745439291E0,-4.741187692E-1
4.204728710E0,-2.851202726E0,2.685574532E0,-4.991642535E-1
4.206728443E0,-2.787061691E0,2.655030966E0,-5.364270806E-1
4.208728176E0,-2.752853155E0,2.647700787E0,-5.608616471E-1
4.210727909E0,-2.679549217E0,2.659307241E0,-6.158395410E-1
4.212727642E0,-2.608078241E0,2.694126368E0,-6.775369048E-1
4.214727442E0,-2.570815325E0,2.721004725E0,-7.160214186E-1
4.216727242E0,-2.498122215E0,2.774760723E0,-7.942121625E-1
4.218726975E0,-2.424207687E0,2.824851513E0,-8.882853985E-1
4.220726708E0,-2.389388323E0,2.845621109E0,-9.353220463E-1
4.222726441E0,-2.334410667E0,2.865168810E0,-1.039169192E0
4.224726174E0,-2.289817333E0,2.861503601E0,-1.155844331E0
4.226725907E0,-2.273324013E0,2.850507975E0,-1.217541695E0
4.228725640E0,-2.259885073E0,2.785756350E0,-1.330551863E0
4.230725440E0,-2.249500275E0,2.691072226E0,-1.442951083E0
4.232725240E0,-2.247667789E0,2.629985571E0,-1.496096373E0
4.234725006E0,-2.253776312E0,2.485821486E0,-1.599943519E0
4.236724772E0,-2.269047737E0,2.311724901E0,-1.694627523E0
4.238724538E0,-2.279432535E0,2.215208054E0,-1.737388015E0
4.240724304E0,-2.305088997E0,2.018509626E0,-1.813746214E0
4.242724070E0,-2.331356287E0,1.823032618E0,-1.872389317E0
4.244723836E0,-2.344184399E0,1.728959322E0,-1.896824002E0
4.246723669E0,-2.374727488E0,1.544478059E0,-1.934697628E0
4.248723435E0,-2.389388323E0,1.458956957E0,-1.947525740E0
4.250723201E0,-2.426651239E0,1.306240559E0,-1.973182082E0
4.252722967E0,-2.471244335E0,1.172461152E0,-1.981734276E0
4.254722733E0,-2.490792036E0,1.112596273E0,-1.984788537E0
4.256722499E0,-2.541493893E0,1.002640605E0,-1.982345104E0
4.258722265E0,-2.587308884E0,9.024587274E-1,-1.971349478E0
4.260722031E0,-2.609910727E0,8.560329676E-1,-1.961575627E0
4.262721864E0,-2.638621330E0,7.772313356E-1,-1.931032300E0
4.264721630E0,-2.644119024E0,7.204208970E-1,-1.890715361E0
4.266721396E0,-2.639843225E0,7.088144422E-1,-1.866891623E0
4.268721162E0,-2.602580309E0,7.448554635E-1,-1.810691953E0
4.270720928E0,-2.555543661E0,8.303765655E-1,-1.725781560E0
4.272720694E0,-2.529887438E0,8.865762353E-1,-1.677523375E0
4.274720460E0,-2.474298477E0,1.017301440E0,-1.585282683E0
4.276720226E0,-2.424207687E0,1.155967832E0,-1.494874597E0
4.278720059E0,-2.400994778E0,1.220719457E0,-1.450892329E0
