"Time (s)","Acceleration x (m/s^2)","Acceleration y (m/s^2)","Acceleration z (m/s^2)"
2.518956000E-2,5.970730186E-1,4.526256561E0,7.400232315E0
2.765294500E-2,7.551746368E-1,4.607703209E0,7.481678486E0
3.011633000E-2,8.030841947E-1,4.550211430E0,7.529587746E0
3.257971600E-2,7.647565007E-1,4.535838604E0,7.706254482E0
3.504310100E-2,5.539544225E-1,4.646030426E0,7.830819130E0
3.750648700E-2,3.006325662E-1,4.769996643E0,7.973949432E0
3.996987200E-2,2.862596810E-1,4.784369469E0,8.132050514E0
4.243320500E-2,2.958416045E-1,4.722086906E0,8.418909073E0
4.489659100E-2,3.341692686E-1,4.626866817E0,8.605157852E0
4.735997600E-2,3.820788264E-1,4.617284775E0,8.609949112E0
4.982336200E-2,4.204064906E-1,4.583748341E0,8.696186066E0
5.228674700E-2,5.258075595E-1,4.559793472E0,8.796196938E0
5.475013200E-2,5.737171173E-1,4.540629387E0,8.853688240E0
5.721351800E-2,5.353894830E-1,4.555002213E0,9.001609802E0
5.967690300E-2,5.401803851E-1,4.631657600E0,9.059101105E0
6.214028900E-2,6.162368655E-1,4.665194511E0,9.102219582E0
6.460367400E-2,5.785080791E-1,4.793951511E0,9.245349884E0
6.706706000E-2,5.928809643E-1,4.880188465E0,9.365123749E0
6.953044500E-2,6.162368655E-1,4.865815639E0,9.661563873E0
7.199383000E-2,6.162368655E-1,4.875397682E0,9.843021393E0
7.445721600E-2,6.737283468E-1,4.856234074E0,9.953213692E0
7.692060100E-2,6.928921938E-1,4.832279205E0,1.006280613E1
7.938398700E-2,7.695474625E-1,4.779578686E0,1.012508869E1
8.184737200E-2,8.366208673E-1,4.741250992E0,1.011071587E1
8.431075700E-2,1.070778966E0,4.602911949E0,1.011071587E1
8.677414300E-2,1.300744891E0,4.545420647E0,1.008676147E1
8.923752800E-2,1.348055601E0,4.641239643E0,9.929258347E0
9.170086200E-2,1.238462448E0,4.636448860E0,9.704682350E0
9.416424700E-2,1.257626176E0,4.631657600E0,9.527417183E0
9.662763200E-2,1.224089503E0,4.646030426E0,9.283677101E0
9.909101800E-2,1.171388984E0,4.646030426E0,9.207620621E0
1.015544030E-1,1.056406021E0,4.646030426E0,8.872852325E0
1.040177890E-1,9.755586386E-1,4.612493992E0,8.566829681E0
1.064811740E-1,1.310326815E0,4.650821686E0,8.423700333E0
1.089445600E-1,2.027772665E0,4.564584255E0,8.270389557E0
1.114079450E-1,1.496575236E0,4.387917995E0,7.663734913E0
1.138713300E-1,8.270389438E-1,4.325635433E0,6.927124977E0
1.163347160E-1,-1.149829701E-1,4.593329906E0,5.694052696E0
1.187981010E-1,-9.953213334E-1,4.841860771E0,3.954336166E0
1.212614870E-1,-1.569038391E0,4.808324337E0,3.505183935E0
1.237248720E-1,-2.090653896E0,4.665194511E0,4.733465672E0
1.261882570E-1,-2.717071533E0,4.411273956E0,6.358798027E0
1.286516430E-1,-3.219523191E0,4.072313309E0,7.396039963E0
1.311150280E-1,-3.530336618E0,3.904629946E0,7.854773998E0
1.335784140E-1,-3.496799707E0,3.699217796E0,7.941011429E0
1.360417990E-1,-3.386607885E0,3.469850779E0,7.658943653E0
1.385051320E-1,-3.424935341E0,3.259048462E0,6.965452671E0
1.409685180E-1,-3.367444038E0,3.068009138E0,6.315679073E0
1.434319030E-1,-3.243478060E0,2.857805967E0,5.995284081E0
1.458952890E-1,-3.133285999E0,2.656585693E0,5.976119995E0
1.483586740E-1,-2.898529053E0,2.527828693E0,5.995284081E0
1.508220600E-1,-2.760190248E0,2.479919195E0,6.043193340E0
1.532854450E-1,-2.803308725E0,2.537410736E0,6.191114426E0
1.557488300E-1,-2.893738031E0,2.771568775E0,6.373170853E0
1.582122160E-1,-3.085376263E0,3.000935793E0,6.697758198E0
1.606756010E-1,-3.343489170E0,3.211138964E0,6.865441322E0
1.631389870E-1,-3.606392860E0,3.426732063E0,6.688176155E0
1.656023720E-1,-3.769285440E0,3.536325216E0,6.645656586E0
1.680657570E-1,-3.845940828E0,3.656099081E0,6.660029411E0
1.705291430E-1,-3.869895697E0,3.704008579E0,6.716921806E0
1.729925280E-1,-3.993861675E0,3.675262928E0,7.090017796E0
1.754559140E-1,-4.060935020E0,3.680053949E0,7.166672707E0
1.779192990E-1,-4.060935020E0,3.665681124E0,7.075644970E0
1.803825280E-1,-4.051352978E0,3.541116238E0,7.247520447E0
1.828457050E-1,-4.070517063E0,3.450686932E0,7.439158440E0
1.853088820E-1,-4.094471931E0,3.388404369E0,7.281056881E0
1.877720600E-1,-4.113635540E0,3.278212309E0,7.061271667E0
1.902352370E-1,-4.046562195E0,3.120709658E0,6.712131023E0
1.926984140E-1,-4.027398109E0,3.053636312E0,6.301306248E0
1.951615910E-1,-4.046562195E0,3.087172985E0,6.152786732E0
1.976247680E-1,-4.075307846E0,3.153647423E0,6.152786732E0
2.000879450E-1,-4.089680672E0,3.297376156E0,6.052775383E0
2.025511220E-1,-4.113635540E0,3.407568216E0,6.014447689E0
2.050142990E-1,-4.132799149E0,3.555489063E0,6.062357426E0
2.074774760E-1,-4.185499668E0,3.656099081E0,6.062357426E0
2.099406530E-1,-4.644234180E0,3.723172426E0,1.134438705E1
2.124038300E-1,-6.409701824E0,3.756110430E0,2.641554070E1
2.148670070E-1,-6.413893700E0,4.114833355E0,2.397275162E1
2.173301850E-1,-5.046075344E0,4.497510910E0,1.017299843E1
2.197934140E-1,-4.323838711E0,4.755623817E0,3.223116398E0
2.222565910E-1,-4.199872971E0,4.861024857E0,2.931466818E0
2.247197680E-1,-4.251974583E0,4.980199814E0,3.949545145E0
2.271829450E-1,-4.261556149E0,5.028109550E0,5.058651924E0
2.296461220E-1,-4.438821793E0,5.167047024E0,6.449227333E0
2.321092990E-1,-4.587341309E0,5.286222458E0,6.889396191E0
2.345724760E-1,-4.563386440E0,5.348504543E0,6.908560276E0
2.370356530E-1,-4.443612576E0,5.425159931E0,6.664820194E0
2.394988300E-1,-4.280720234E0,5.501815319E0,6.315679073E0
2.419620070E-1,-4.199872971E0,5.640154362E0,6.091103077E0
2.444251850E-1,-4.056144238E0,5.750346184E0,5.980911255E0
2.468883620E-1,-3.845940828E0,5.864730358E0,6.463600159E0
2.493515390E-1,-2.812291861E0,5.702436447E0,7.276266098E0
2.518147160E-1,-1.516337872E0,5.410787106E0,8.686604500E0
2.542778930E-1,3.353669867E-2,4.965826988E0,9.116592407E0
2.567410700E-1,2.209828854E0,4.143579006E0,9.465733528E0
2.592042470E-1,4.204064846E0,3.364449501E0,9.532806396E0
2.616674240E-1,6.538458824E0,2.264326096E0,9.523224831E0
2.641306010E-1,8.972864151E0,1.007298708E0,9.671145439E0
2.665937780E-1,1.188576603E1,-1.311524510E-1,9.637609482E0
2.690569550E-1,1.546341324E1,-1.527117610E0,9.150129318E0
2.715201320E-1,1.686955833E1,-2.230190516E0,8.624321938E0
2.739833100E-1,1.685518646E1,-2.306246996E0,7.806864738E0
2.764465390E-1,1.586046314E1,-2.206235647E0,7.018153191E0
2.789097160E-1,1.393270206E1,-1.666055322E0,5.555713654E0
2.813728930E-1,1.115873814E1,-4.988583922E-1,3.848935127E0
2.838360700E-1,8.016469002E0,9.593891501E-1,2.496687412E0
2.862992470E-1,5.026911736E0,2.336190462E0,1.588202238E0
2.887624240E-1,2.272111416E0,3.521952391E0,9.336377382E-1
2.912256010E-1,3.353669867E-2,4.344200134E0,6.276153922E-1
2.936887780E-1,-1.678631544E0,4.865815639E0,5.461691022E-1
2.961519550E-1,-2.922483921E0,5.205374718E0,4.982595444E-1
2.986151320E-1,-3.553692341E0,5.386832237E0,3.599206507E-1
3.010783100E-1,-3.649511576E0,5.506606102E0,5.509600639E-1
3.035414870E-1,-3.362653017E0,5.501815319E0,5.844967365E-1
3.060046640E-1,-2.788336992E0,5.429951191E0,4.317850173E-1
3.084678410E-1,-2.099637032E0,5.401205063E0,7.180446982E-1
3.109310180E-1,-1.707377315E0,5.487442493E0,1.291761756E0
3.133941950E-1,-1.669049621E0,5.458696842E0,2.281693220E0
3.158573720E-1,-3.668675423E0,5.109555721E0,5.646741867E0
3.183205490E-1,-7.279859066E0,4.746041775E0,1.193247795E1
3.207837260E-1,-7.757757187E0,4.191488743E0,1.343803596E1
3.232469030E-1,-6.715125084E0,3.560280085E0,9.613654137E0
3.257100800E-1,-6.887599468E0,3.139274597E0,7.587079525E0
3.281732570E-1,-7.088221073E0,2.905116558E0,6.501927853E0
3.306364870E-1,-6.987610817E0,2.680540562E0,5.211363792E0
3.330996640E-1,-6.466594219E0,2.011004210E0,3.944754362E0
3.355628410E-1,-5.653329372E0,1.294157267E0,3.591421127E0
3.380260180E-1,-4.878392220E0,1.016281724E0,4.021409512E0
3.404891950E-1,-3.969906807E0,7.102593780E-1,4.231612682E0
3.429523720E-1,-2.922483921E0,3.856720328E-1,4.135793686E0
3.454155490E-1,-2.506269455E0,8.060785532E-1,2.998540163E0
3.478787260E-1,-1.540292740E0,1.183965325E0,2.491896629E0
3.503419030E-1,-2.581128180E-1,6.198300719E-1,2.070891142E0
3.528050800E-1,4.928697050E-1,2.754800320E-1,2.018789530E0
3.552682570E-1,9.611857533E-1,3.569262922E-1,2.496687412E0
3.577314350E-1,1.205524564E0,8.827338219E-1,4.050155163E0
3.601946120E-1,1.258225083E0,1.169592381E0,5.096979618E0
3.626577890E-1,7.414005995E-1,1.217501998E0,5.909645557E0
3.651209660E-1,-1.431298405E-1,1.451660037E0,6.464199066E0
3.675841430E-1,-7.126548886E-1,1.900812268E0,7.181046009E0
3.700473200E-1,-1.271999121E0,2.183478594E0,7.152299881E0
3.725104970E-1,-1.654676795E0,2.125987291E0,6.645656586E0
3.749736740E-1,-1.683422565E0,1.661863208E0,6.019238472E0
3.774368510E-1,-1.841524124E0,1.016281724E0,5.335928440E0
3.799000280E-1,-2.181083202E0,9.785529971E-1,4.934086800E0
3.823632050E-1,-2.482314587E0,1.198338151E0,4.619081497E0
3.848264350E-1,-2.793128014E0,1.370213747E0,4.829284668E0
3.872896120E-1,-2.998540163E0,1.599580765E0,7.022944450E0
3.897527890E-1,-3.926788092E0,1.709772825E0,7.453531265E0
3.922159660E-1,-5.457499027E0,1.571433902E0,6.330051899E0
3.946791430E-1,-6.734289169E0,1.451660037E0,6.262978554E0
3.971423200E-1,-6.992402077E0,1.695399880E0,7.267282963E0
3.996054970E-1,-7.073848248E0,1.786428094E0,8.098514557E0
4.020686740E-1,-7.001983643E0,1.810382962E0,9.130965233E0
4.045318510E-1,-6.624096870E0,1.772055268E0,1.018257999E1
4.069950280E-1,-6.169555187E0,1.585207939E0,1.145398045E1
4.094582050E-1,-5.997679234E0,1.092937112E0,1.307931328E1
4.119213820E-1,-8.638095856E0,-2.421229839E0,2.606640053E1
4.143845600E-1,-7.169667244E0,-2.086461782E0,2.350922585E1
4.168477370E-1,-3.921997309E0,5.144290328E-1,2.897930145E0
4.193109140E-1,-4.706516266E0,-9.282479435E-2,6.827113628E0
4.217740910E-1,-4.739454269E0,-9.534004331E-1,8.820751190E0
4.242372680E-1,-4.299883842E0,-1.087547302E0,6.774413109E0
4.267004450E-1,-3.893251419E0,-9.869371653E-1,5.096979618E0
4.291636220E-1,-3.214133263E0,-1.063592434E0,3.959127188E0
4.316267990E-1,-2.563162088E0,-9.102818370E-1,2.921885014E0
4.340899760E-1,-2.314631224E0,-7.240334153E-1,3.366845131E0
4.365531530E-1,-2.161919355E0,-7.527791262E-1,4.150765419E0
4.390163300E-1,-1.946326375E0,-9.965190887E-1,4.494516850E0
4.414795600E-1,-1.884043932E0,-1.140247822E0,4.255567551E0
4.439427370E-1,-1.936744452E0,-1.312123418E0,4.030991554E0
4.464059140E-1,-2.051727295E0,-1.464835167E0,4.293895245E0
4.488690910E-1,-2.161320448E0,-1.503162742E0,4.552008152E0
4.513322680E-1,-2.271512508E0,-1.579818130E0,4.643036366E0
4.537954450E-1,-2.329004049E0,-1.766066551E0,4.757420540E0
4.562586220E-1,-2.553580046E0,-1.972077727E0,4.719092846E0
4.587217990E-1,-2.726054668E0,-2.326009750E0,4.810121059E0
4.611849760E-1,-3.008122206E0,-2.736834288E0,5.029906273E0
4.636481530E-1,-3.118314266E0,-3.406370401E0,5.919227600E0
4.661113300E-1,-2.955421686E0,-4.090279579E0,6.669610977E0
4.685745070E-1,-2.936257839E0,-4.663996696E0,6.966051579E0
4.710376850E-1,-2.831455708E0,-5.146685600E0,7.190627575E0
4.735008620E-1,-2.625444412E0,-5.615600586E0,7.673316479E0
4.759640390E-1,-2.467941761E0,-6.012052059E0,8.184751511E0
4.784272160E-1,-2.357749701E0,-6.227645397E0,8.605157852E0
4.808903930E-1,-2.271512508E0,-6.303701878E0,8.997417450E0
4.833535700E-1,-2.223603010E0,-6.399520874E0,9.484897614E0
4.858167470E-1,-2.295467377E0,-6.261181831E0,1.028319073E1
4.882799240E-1,-2.391286373E0,-5.983905315E0,1.098087406E1
4.907431010E-1,-2.443986893E0,-5.792267323E0,1.153542709E1
4.932062780E-1,-2.386495590E0,-5.644346237E0,1.222891808E1
4.956695070E-1,-2.237975836E0,-5.505408764E0,1.278347111E1
4.981326850E-1,-2.051727295E0,-5.457499027E0,1.292660141E1
5.005958620E-1,-1.893625736E0,-5.362278938E0,1.264453316E1
5.030590390E-1,-1.793015718E0,-5.208968163E0,1.210914421E1
5.055222160E-1,-1.688213468E0,-5.037092686E0,1.157854557E1
5.079853930E-1,-1.759479046E0,-4.702324390E0,1.084253502E1
5.104485700E-1,-1.951117277E0,-4.381928921E0,1.031672764E1
5.129117470E-1,-2.156529665E0,-4.133398056E0,1.000112247E1
5.153749240E-1,-2.496088743E0,-3.731556654E0,9.680727959E0
5.178381010E-1,-2.721263647E0,-3.439907074E0,9.551970482E0
5.203012780E-1,-2.921885014E0,-3.220122099E0,9.566343307E0
5.227644550E-1,-3.371636152E0,-2.861399174E0,9.317812920E0
5.252276320E-1,-3.668076515E0,-2.593704462E0,9.212411880E0
5.276908100E-1,-3.811805248E0,-2.478721380E0,9.308230400E0
5.301539870E-1,-3.930980206E0,-2.588913441E0,9.460942268E0
5.326171640E-1,-4.141782284E0,-2.502676249E0,9.164502144E0
5.350803410E-1,-4.199274063E0,-2.507467270E0,9.303440094E0
5.375435180E-1,-4.299284935E0,-2.502676249E0,9.351349831E0
5.400066950E-1,-4.404685974E0,-2.469139576E0,9.221993446E0
5.424698720E-1,-4.457386494E0,-2.627241135E0,9.518433571E0
5.449330490E-1,-4.380731583E0,-2.985964060E0,9.848411560E0
5.473962260E-1,-4.270539284E0,-3.224912882E0,9.910693169E0
5.498594550E-1,-4.117827415E0,-3.511771441E0,9.905902863E0
5.523226320E-1,-4.084290981E0,-3.851330519E0,9.962795258E0
5.547858100E-1,-3.993262768E0,-4.228618622E0,9.958003998E0
5.572489870E-1,-3.859115839E0,-4.544222832E0,9.829247475E0
5.597121640E-1,-3.763895750E0,-4.812516212E0,9.561553001E0
5.621753410E-1,-3.744731903E0,-5.065838337E0,9.269903183E0
5.646385180E-1,-3.792641401E0,-5.256877899E0,8.849496841E0
5.671016950E-1,-3.902234554E0,-5.371860504E0,8.648276329E0
5.695648720E-1,-4.017217636E0,-5.586854935E0,8.548265457E0
5.720280490E-1,-4.227420807E0,-5.620391369E0,8.294942856E0
5.744912260E-1,-4.691544533E0,-5.625182629E0,8.079949379E0
5.769544030E-1,-5.131713867E0,-5.644346237E0,8.060785294E0
5.794175800E-1,-5.657521248E0,-5.558109283E0,8.084739685E0
5.818807570E-1,-6.193509579E0,-5.524572372E0,8.156005859E0
5.843439350E-1,-6.633678913E0,-5.376651764E0,8.132050514E0
5.868071120E-1,-6.982820034E0,-5.189804077E0,8.261406898E0
5.892702890E-1,-7.264887333E0,-4.840663433E0,8.261406898E0
5.917334660E-1,-7.585282803E0,-4.444211483E0,8.342852592E0
5.941966430E-1,-7.819440842E0,-4.013624191E0,8.634502411E0
5.966598200E-1,-7.910469055E0,-3.635737658E0,8.839914322E0
5.991229970E-1,-8.044615746E0,-3.167421579E0,8.883033752E0
6.015861740E-1,-8.058988571E0,-2.870980978E0,9.298648834E0
6.040493510E-1,-7.991915226E0,-2.641613960E0,9.662162781E0
6.065125800E-1,-7.790695190E0,-2.507467270E0,9.981959343E0
6.089757570E-1,-7.590073586E0,-2.397874117E0,1.023048973E1
6.114389350E-1,-7.279260635E0,-2.445184708E0,1.051734829E1
6.139021120E-1,-6.958865166E0,-2.574540615E0,1.080899811E1
6.163652890E-1,-6.465995312E0,-2.894935846E0,1.122042179E1
6.188284660E-1,-5.920425415E0,-3.224912882E0,1.163124561E1
6.212916430E-1,-5.456900120E0,-3.669274330E0,1.171269226E1
6.237548200E-1,-5.069431305E0,-4.099861622E0,1.160729122E1
6.262179970E-1,-4.734663486E0,-4.449002743E0,1.138750648E1
6.286811740E-1,-4.447804928E0,-4.764606953E0,1.114855671E1
6.311443510E-1,-4.136392593E0,-4.984392166E0,1.079462528E1
6.336075280E-1,-3.820788383E0,-5.113747597E0,1.052693081E1
6.360707050E-1,-3.509974957E0,-5.199386120E0,1.035026360E1
6.385338820E-1,-3.314144611E0,-5.113747597E0,1.030714512E1
6.409970600E-1,-3.146461010E0,-4.955646038E0,1.029756355E1
6.434602370E-1,-3.103342533E0,-4.649623871E0,1.001549625E1
6.459234140E-1,-3.151252031E0,-4.338810444E0,9.891530037E0
6.483865910E-1,-3.242280245E0,-4.186098576E0,9.953812599E0
6.508497680E-1,-3.323726416E0,-3.975296736E0,9.905902863E0
6.533129450E-1,-3.342291355E0,-3.736347675E0,9.752592087E0
6.557761220E-1,-3.399782896E0,-3.478234768E0,9.896320343E0
6.582392990E-1,-3.442901611E0,-3.215331078E0,9.901111603E0
6.607025280E-1,-3.486020088E0,-3.085975170E0,1.011610603E1
6.631657050E-1,-3.490811110E0,-2.789534807E0,1.023587990E1
6.656288820E-1,-3.538720608E0,-2.454766750E0,1.014964294E1
6.680920600E-1,-3.681850433E0,-2.148744345E0,1.002986908E1
6.705552370E-1,-3.658494711E0,-1.972077727E0,1.011131477E1
6.730184140E-1,-3.620167017E0,-1.814574957E0,1.016401577E1
6.754815910E-1,-3.644121647E0,-1.704383016E0,9.934648514E0
6.779447680E-1,-3.677059650E0,-1.589400053E0,9.747800827E0
6.804079450E-1,-3.715387106E0,-1.551072359E0,9.518433571E0
6.828712260E-1,-3.681850433E0,-1.598981977E0,9.504060745E0
6.853344550E-1,-3.691432476E0,-1.622936726E0,9.241157532E0
6.877976850E-1,-3.801624537E0,-1.685219169E0,9.035744667E0
6.902609140E-1,-3.964516878E0,-1.785829306E0,8.887824059E0
6.927241950E-1,-4.241793633E0,-1.838529825E0,8.777632713E0
6.951874240E-1,-4.547815800E0,-1.890631437E0,8.720140457E0
6.976506530E-1,-4.853838444E0,-2.043941975E0,8.739304543E0
7.001139350E-1,-5.074222565E0,-2.130179405E0,8.835124016E0
7.025771640E-1,-5.356289864E0,-2.278100014E0,8.596175194E0
7.050403930E-1,-5.418572426E0,-2.464348555E0,9.260321617E0
7.075036220E-1,-5.446719170E0,-2.598495245E0,9.633417130E0
7.099669030E-1,-5.475465298E0,-2.555376768E0,9.819664955E0
7.124301320E-1,-5.528165817E0,-2.521840096E0,9.920275688E0
7.148933620E-1,-5.576075077E0,-2.340382576E0,9.428004265E0
7.173565910E-1,-5.695848942E0,-2.258936167E0,9.193846703E0
7.198198720E-1,-5.824605942E0,-2.268518209E0,9.360931396E0
7.222831010E-1,-5.781487465E0,-2.273309231E0,9.322603226E0
7.247463300E-1,-5.676685333E0,-2.239772320E0,9.269903183E0
7.272095600E-1,-5.480256081E0,-2.455365419E0,9.456750870E0
7.296728410E-1,-5.274843693E0,-2.794325829E0,9.638208389E0
7.321360700E-1,-4.920911789E0,-3.205749273E0,9.590298653E0
7.345992990E-1,-4.629262447E0,-3.669274330E0,9.484897614E0
7.370625280E-1,-4.389714241E0,-4.042369843E0,9.404049873E0
7.395258100E-1,-4.232211590E0,-4.492121220E0,9.384885788E0
7.419890390E-1,-4.160347462E0,-4.855635166E0,9.260321617E0
7.444522680E-1,-4.131601810E0,-5.204176903E0,9.145936966E0
7.469154970E-1,-4.122019768E0,-5.510199547E0,9.131564140E0
7.493787780E-1,-4.189093113E0,-5.706628799E0,9.069281578E0
7.518420070E-1,-4.293895245E0,-5.950368881E0,8.935733795E0
7.543052370E-1,-4.432833195E0,-6.155780792E0,8.863869667E0
7.567684660E-1,-4.619680405E0,-6.361792088E0,8.715350151E0
7.592317470E-1,-4.719691753E0,-6.667814732E0,8.567428589E0
7.616949760E-1,-4.844256401E0,-6.878017902E0,8.548265457E0
7.641582050E-1,-4.901748180E0,-7.073848248E0,8.357225418E0
7.666214350E-1,-4.920911789E0,-7.193622112E0,8.070366859E0
7.690847160E-1,-4.873002052E0,-7.399034500E0,7.888909817E0
7.715479450E-1,-4.781973839E0,-7.576299667E0,7.640378952E0
7.740111740E-1,-4.762810230E0,-7.733802319E0,7.363101959E0
7.764744030E-1,-4.700527668E0,-7.815248966E0,7.143317223E0
7.789376850E-1,-4.628663540E0,-7.800875664E0,7.009170055E0
7.814009140E-1,-4.690945625E0,-7.810457706E0,6.736684322E0
7.838641430E-1,-4.777183056E0,-7.724220753E0,6.574390888E0
7.863273720E-1,-4.901748180E0,-7.499644279E0,6.478571892E0
7.887906530E-1,-5.083205700E0,-7.365497589E0,6.306695938E0
7.912538820E-1,-5.365272999E0,-7.102593899E0,6.106074810E0
7.937171120E-1,-5.590447903E0,-6.878017902E0,5.909645557E0
7.961803410E-1,-5.542538643E0,-6.820526123E0,6.230041027E0
7.986436220E-1,-5.614402771E0,-6.710334301E0,6.086911201E0
8.011068510E-1,-5.643148422E0,-6.729497910E0,6.062956333E0
8.035700800E-1,-5.552120209E0,-6.810944557E0,6.321069241E0
8.060333620E-1,-5.614402771E0,-6.815735340E0,6.445034981E0
8.084965910E-1,-5.714414120E0,-6.739079952E0,6.932514668E0
8.109598200E-1,-5.867724895E0,-6.734289169E0,7.530186653E0
8.134230490E-1,-6.101882935E0,-6.734289169E0,7.998502731E0
8.158863300E-1,-6.494142532E0,-6.719916344E0,8.648875237E0
8.183495600E-1,-7.006175995E0,-6.624695778E0,9.246546745E0
8.208127890E-1,-7.493655682E0,-6.686978340E0,9.676535606E0
8.232760180E-1,-7.929033756E0,-6.839690208E0,1.015922451E1
8.257392990E-1,-8.297338486E0,-6.983418941E0,1.048920155E1
8.282025280E-1,-8.646479607E0,-7.207994938E0,1.085690784E1
8.306657570E-1,-8.871055603E0,-7.528390408E0,1.117730331E1
8.331289870E-1,-9.024366379E0,-7.858367443E0,1.139229679E1
8.355922680E-1,-8.957293510E0,-8.193135262E0,1.149769783E1
8.380554970E-1,-8.885428429E0,-8.523112297E0,1.136834240E1
8.405187260E-1,-8.680016518E0,-8.890818596E0,1.133061314E1
8.429819550E-1,-8.574615479E0,-9.220795631E0,1.134498596E1
8.454452370E-1,-8.488378525E0,-9.417224884E0,1.128749466E1
8.479084660E-1,-8.364412308E0,-9.502862930E0,1.123000336E1
8.503716950E-1,-8.316502571E0,-9.555563927E0,1.121563053E1
8.528349240E-1,-8.292548180E0,-9.498072624E0,1.101021862E1
8.552982050E-1,-8.350039482E0,-9.369315147E0,1.063233185E1
8.577614350E-1,-8.441067696E0,-9.158513069E0,1.024546146E1
8.602246640E-1,-8.612942696E0,-8.890818596E0,9.719654083E0
8.626878930E-1,-8.832728386E0,-8.565632820E0,9.136355400E0
8.651511740E-1,-8.981247902E0,-8.412920952E0,8.859078407E0
8.676144030E-1,-9.115394592E0,-8.264401436E0,8.629711151E0
8.700776320E-1,-9.215406418E0,-7.972751617E0,8.194931984E0
8.725408620E-1,-9.248942375E0,-7.681101799E0,7.807463646E0
8.750041430E-1,-9.421417236E0,-7.600254536E0,7.530186653E0
8.774673720E-1,-9.507654190E0,-7.552344799E0,7.200209618E0
8.799306010E-1,-9.564546585E0,-7.466107845E0,6.866040230E0
8.823938300E-1,-9.574129105E0,-7.475689888E0,6.660628319E0
8.848571120E-1,-9.607666016E0,-7.504435539E0,6.359396458E0
8.873203410E-1,-9.631620407E0,-7.600254536E0,6.359396458E0
8.897835700E-1,-9.631620407E0,-7.743384361E0,6.292323112E0
8.922467990E-1,-9.564546585E0,-7.815248966E0,6.263577461E0
8.947100800E-1,-9.660366058E0,-7.958378792E0,6.110865593E0
8.971733100E-1,-9.636411667E0,-8.236253738E0,6.497735500E0
8.996365390E-1,-9.397461891E0,-8.532694817E0,6.516899586E0
9.020998200E-1,-9.411835670E0,-8.651869774E0,6.402515411E0
9.045630490E-1,-9.502264977E0,-8.809970856E0,6.751057625E0
9.070262780E-1,-9.641201973E0,-8.833926201E0,6.966051579E0
9.094895070E-1,-9.832840919E0,-8.685406685E0,6.990006447E0
9.119527890E-1,-1.007658005E1,-8.537485123E0,7.152898788E0
9.144160180E-1,-1.032990265E1,-8.341055870E0,7.262492180E0
9.168792470E-1,-1.050716782E1,-8.169180870E0,7.387056828E0
9.193424760E-1,-1.062155151E1,-8.078152657E0,7.387056828E0
9.218057570E-1,-1.078444481E1,-7.800875664E0,7.276865005E0
9.242689870E-1,-1.086589050E1,-7.643373013E0,7.310401440E0
9.267322160E-1,-1.084672642E1,-7.490062714E0,7.296028614E0
9.291954450E-1,-1.084193611E1,-7.294232368E0,7.228955269E0
9.316587260E-1,-1.084672642E1,-7.155294418E0,7.176853657E0
9.341219550E-1,-1.084672642E1,-7.045701027E0,6.832503796E0
9.365851850E-1,-1.079881763E1,-7.002582550E0,6.765430450E0
9.390484140E-1,-1.082756329E1,-6.782198429E0,6.627091408E0
9.415116950E-1,-1.075090790E1,-6.663023472E0,6.316277981E0
9.439749240E-1,-1.053052330E1,-6.610322952E0,6.263577461E0
9.464381530E-1,-1.057364273E1,-6.725306034E0,6.153984547E0
9.489013820E-1,-1.054489613E1,-6.887599468E0,5.928809166E0
9.513646640E-1,-1.055447865E1,-7.002582550E0,5.613803864E0
9.538278930E-1,-1.044009399E1,-7.036119461E0,5.426956654E0
9.562911220E-1,-1.026282883E1,-7.150503635E0,5.221544266E0
9.587543510E-1,-1.018138313E1,-7.265486240E0,4.963431358E0
9.612176320E-1,-1.013407230E1,-7.241531849E0,4.652618408E0
9.636808620E-1,-1.005262566E1,-7.279859066E0,4.408878326E0
9.661440910E-1,-9.827450752E0,-7.403825283E0,4.375341415E0
9.686073200E-1,-9.684320450E0,-7.494853497E0,4.184302330E0
9.710706010E-1,-9.564546585E0,-7.600254536E0,3.802223206E0
9.735338300E-1,-9.224987984E0,-7.690683842E0,3.754313707E0
9.759970600E-1,-8.938129425E0,-7.752966404E0,3.491410017E0
9.784602890E-1,-8.603361130E0,-7.729011536E0,3.171014786E0
9.809235700E-1,-8.239847183E0,-7.518808365E0,2.860201359E0
9.833867990E-1,-8.067373276E0,-7.542763233E0,2.673952818E0
9.858500280E-1,-8.053000450E0,-7.427780151E0,2.367930651E0
9.883132570E-1,-8.182355881E0,-7.270277500E0,2.005015612E0
9.907765390E-1,-8.349440575E0,-7.036119461E0,1.861286879E0
9.932397680E-1,-8.531497002E0,-6.839690208E0,1.842123032E0
9.957029970E-1,-8.832728386E0,-6.571995258E0,1.732529879E0
9.981662260E-1,-9.105214119E0,-6.323464394E0,1.703784108E0
1.000629507E0,-9.372908592E0,-5.983905315E0,1.512145877E0
1.003092737E0,-9.631620407E0,-5.754538536E0,1.479207993E0
1.005555966E0,-9.641201973E0,-5.673091888E0,1.450462222E0
1.008019247E0,-9.641201973E0,-5.625182629E0,1.488789916E0
1.010482476E0,-9.550173759E0,-5.921622753E0,1.737320781E0
1.012945705E0,-9.248942375E0,-6.366582870E0,2.000224590E0
1.015408935E0,-9.578919411E0,-6.390537739E0,1.813377261E0
1.017872216E0,-1.028678417E1,-6.189317703E0,1.503162742E0
1.020335445E0,-1.067425251E1,-6.208481312E0,1.516936779E0
1.022798674E0,-1.072216225E1,-6.323464394E0,1.742111802E0
1.025261903E0,-1.080780029E1,-6.404910564E0,1.808586359E0
1.027725185E0,-1.071257973E1,-6.571995258E0,1.794213414E0
1.030188414E0,-1.053351784E1,-6.762435913E0,1.802597642E0
1.032651643E0,-1.036104393E1,-7.001384735E0,1.721750259E0
1.035114872E0,-1.029456902E1,-7.245124817E0,1.554066658E0
1.037578153E0,-1.058621883E1,-7.312198162E0,1.176778793E0
1.040041382E0,-1.072455788E1,-7.470299721E0,6.940898895E-1
1.042504612E0,-1.080600357E1,-7.594265938E0,3.114122152E-1
1.044967841E0,-1.105034256E1,-7.608638763E0,4.216042161E-1
1.047431122E0,-1.101680565E1,-7.857169628E0,8.084740043E-1
1.049894351E0,-1.087786770E1,-8.163191795E0,1.104914427E0
1.052357580E0,-1.095931435E1,-8.273384094E0,1.463637352E0
1.054820810E0,-1.102159691E1,-8.397949219E0,2.218811989E0
1.057284091E0,-1.090182304E1,-8.684807777E0,2.778156281E0
1.059747320E0,-1.099764156E1,-8.780027390E0,3.036268950E0
1.062210549E0,-1.146595764E1,-8.689598083E0,3.073997736E0
1.064673778E0,-1.203548336E1,-8.469214439E0,2.443388224E0
1.067137060E0,-1.283916569E1,-8.134446144E0,1.224688411E0
1.069600289E0,-1.340330124E1,-7.723621845E0,4.168132544E-1
1.072063518E0,-1.361350441E1,-6.819927216E0,-6.252198815E-1
1.074526747E0,-1.361829567E1,-5.423363209E0,-2.518246889E0
1.076990028E0,-1.516337872E1,-3.635138750E0,-8.000898361E0
1.079453257E0,-1.641681290E1,-2.052925110E0,-1.183426285E1
1.081916487E0,-1.725343513E1,-7.090616226E-1,-1.304877090E1
1.084379716E0,-1.764569473E1,-1.557061076E-2,-1.251338100E1
1.086842997E0,-1.729176140E1,4.611296207E-2,-1.036224174E1
1.089306226E0,-1.670367241E1,-2.790732384E-1,-8.287756920E0
1.091769455E0,-1.565145779E1,-9.048920274E-1,-6.146199226E0
1.094232685E0,-1.444114208E1,-1.842123032E0,-4.554403782E0
1.096695966E0,-1.352307510E1,-2.927873611E0,-3.044054270E0
1.099159195E0,-1.262357330E1,-4.003443718E0,-1.825354695E0
1.101622424E0,-1.207860184E1,-4.998166084E0,-8.737508059E-1
1.104085705E0,-1.160010529E1,-5.868323326E0,1.682823747E-1
1.106548935E0,-1.151386738E1,-6.461204529E0,9.947224855E-1
1.109012164E0,-1.133720112E1,-7.116367817E0,2.018190622E0
1.111475393E0,-1.118389034E1,-7.890706539E0,2.978777647E0
1.113938674E0,-1.104555130E1,-8.469214439E0,3.910618782E0
1.116401903E0,-1.059580040E1,-9.382490158E0,4.235805035E0
1.118865132E0,-1.088265896E1,-9.827450752E0,4.551409245E0
1.121328362E0,-1.082516766E1,-1.056346130E1,4.632256508E0
1.123791643E0,-1.079163074E1,-1.162525749E1,5.598233223E0
1.126254872E0,-1.102638817E1,-1.209357357E1,6.348617077E0
1.128718101E0,-1.112639904E1,-1.260081577E1,6.721114159E0
1.131181330E0,-1.032810593E1,-1.300684929E1,6.740277767E0
1.133644612E0,-9.399857521E0,-1.287809277E1,6.506119728E0
1.136107841E0,-9.844818115E0,-1.224688435E1,7.228356361E0
1.138571070E0,-1.014125824E1,-1.184504223E1,8.222479820E0
1.141034299E0,-8.787813187E0,-1.164921188E1,8.174570084E0
1.143497580E0,-7.051690102E0,-1.188337040E1,7.246921539E0
1.145960810E0,-6.214470387E0,-1.204087257E1,7.113373756E0
1.148424039E0,-5.865329266E0,-1.145757389E1,6.831305981E0
1.150887268E0,-6.209679127E0,-1.040595913E1,6.076131344E0
1.153350549E0,-6.458209991E0,-9.980162621E0,5.932402611E0
1.155813778E0,-6.415690422E0,-9.760376930E0,6.233633995E0
1.158277007E0,-7.013362408E0,-9.698095322E0,6.659430504E0
1.160740237E0,-7.443949699E0,-9.626230240E0,7.347531796E0
1.163203518E0,-7.567915440E0,-9.545383453E0,7.290040016E0
1.165666747E0,-7.769135952E0,-9.588501930E0,6.984017849E0
1.168129976E0,-7.917056561E0,-9.301643372E0,5.521577835E0
1.170593205E0,-8.965078354E0,-8.957293510E0,4.560991287E0
1.173056487E0,-9.748998642E0,-9.071677208E0,5.110753536E0
1.175519716E0,-1.025145054E1,-9.229779243E0,7.290040016E0
1.177982945E0,-1.029456902E1,-9.755586624E0,9.799902916E0
1.180446278E0,-9.299846649E0,-1.009993649E1,1.065029716E1
1.182909716E0,-9.194445610E0,-9.774749756E0,1.083235359E1
1.185373153E0,-9.189654350E0,-9.396862984E0,9.551371574E0
1.187836539E0,-8.845304489E0,-9.143541336E0,9.063293457E0
1.190299976E0,-7.085226536E0,-8.584197044E0,8.447055817E0
1.192763362E0,-5.922820568E0,-8.087135315E0,7.486469269E0
1.195226799E0,-4.177115917E0,-8.359621048E0,6.486956120E0
1.197690185E0,-5.080810070E0,-7.651757240E0,6.654639244E0
1.200153622E0,-7.458322525E0,-6.461204529E0,8.150615692E0
1.202617060E0,-9.668151855E0,-5.734176636E0,1.163064766E1
1.205080445E0,-8.893214226E0,-5.786877155E0,1.360452175E1
1.207543882E0,-4.937680244E0,-6.097690582E0,9.928659439E0
1.210007268E0,-1.015563107E1,-4.854437351E0,2.149163437E1
1.212470705E0,-1.319309807E1,-4.251974583E0,2.029629135E1
1.214934091E0,-9.175281525E0,-5.285024643E0,7.103791714E0
1.217397528E0,-3.933375835E0,-6.628289223E0,8.676423073E0
1.219860966E0,-2.302054882E0,-6.738481045E0,8.900999069E0
1.222324351E0,-1.680428147E0,-6.671407700E0,4.006437778E0
1.224787789E0,1.371411443E0,-8.641689301E0,8.069169044E0
1.227251174E0,-2.994348109E-2,-2.540405035E0,1.336557293E1
1.229714612E0,-1.015682936E0,-1.832541108E0,7.505034447E0
1.232177997E0,-1.401354969E-1,-1.015742779E1,1.212291813E1
1.234641435E0,2.150540829E0,-8.914174080E0,1.464655495E1
1.237104872E0,-5.228132010E-1,-1.407343626E0,-6.313882351E0
1.239568257E0,-2.608077288E0,3.239884675E-1,-1.067784595E1
1.242031695E0,-2.282891035E0,7.396039963E-1,-8.268592834E0
1.244495080E0,-1.861885667E0,1.265411496E0,-8.326084137E0
1.246958518E0,-2.574540615E0,2.083467484E0,-1.010891914E1
1.249421903E0,-3.459669828E0,2.766777754E0,-1.038619614E1
1.251885341E0,-3.919003010E0,3.359658718E0,-1.068742752E1
1.254348726E0,-3.693827868E0,3.637534142E0,-1.075929165E1
1.256812164E0,-3.315941095E0,3.948347569E0,-1.011371040E1
1.259275601E0,-2.895534754E0,4.450200081E0,-1.061556339E1
1.261738987E0,-2.555376768E0,4.837668896E0,-1.084493065E1
1.264202424E0,-2.139761209E0,4.565183163E0,-1.008975601E1
1.266665810E0,-1.575027108E0,3.689635754E0,-8.397949219E0
1.269129247E0,-1.264213800E0,3.235692739E0,-7.021147728E0
1.271592632E0,-1.221095204E0,2.561365366E0,-6.461803436E0
1.274056070E0,-1.316914320E0,1.643298268E0,-4.989781857E0
1.276519507E0,-1.551072359E0,8.402140737E-1,-2.652393579E0
1.278982893E0,-1.761874437E0,-4.431635141E-2,-1.425309777E-1
1.281446330E0,-2.268518209E0,-1.039038777E0,2.142156601E0
1.283909716E0,-2.770969868E0,-2.138563395E0,4.096867085E0
1.286373153E0,-3.383014679E0,-2.942246437E0,4.680166245E0
1.288836539E0,-3.928584814E0,-3.496799707E0,4.622674942E0
1.291299976E0,-4.009432316E0,-3.921997309E0,4.919115067E0
1.293763414E0,-3.851929426E0,-4.194482803E0,5.435340881E0
1.296226799E0,-3.641127348E0,-4.381330490E0,5.779690742E0
1.298690237E0,-3.315941095E0,-4.553205967E0,6.167159557E0
1.301153622E0,-3.191975117E0,-4.610697269E0,6.635475636E0
1.303617060E0,-3.325523138E0,-4.562787533E0,6.401317596E0
1.306080445E0,-3.421342134E0,-4.692143440E0,5.899464607E0
1.308543882E0,-3.665082216E0,-4.749635220E0,5.693453789E0
1.311007320E0,-3.808810949E0,-4.840064526E0,5.401803970E0
1.313470705E0,-3.928584814E0,-4.854437351E0,5.096380711E0
1.315934143E0,-3.923793793E0,-4.816109657E0,4.665793419E0
1.318397528E0,-3.799228907E0,-4.644234180E0,4.354979992E0
1.320860966E0,-3.645918369E0,-4.410076141E0,4.106449127E0
1.323324351E0,-3.344686985E0,-3.989070654E0,3.877082109E0
1.325787789E0,-3.354268789E0,-3.448890209E0,3.743534088E0
1.328251174E0,-3.416551352E0,-2.836845398E0,3.833963394E0
1.330714612E0,-3.655500174E0,-1.904405475E0,3.336901665E0
1.333178049E0,-3.789647102E0,-1.856495857E0,2.969195604E0
1.335641435E0,-3.770483255E0,-2.215218782E0,3.690833569E0
1.338104872E0,-3.976494312E0,-2.085862875E0,3.556686878E0
1.340568257E0,-4.133996964E0,-2.100235701E0,3.217726469E0
1.343031695E0,-4.052550793E0,-2.306246996E0,3.628551006E0
1.345495080E0,-4.086087704E0,-2.415840149E0,3.719579220E0
1.347958518E0,-4.143579006E0,-2.693116665E0,4.192686558E0
1.350421955E0,-4.196279526E0,-2.865591288E0,4.637047768E0
1.352885341E0,-4.143579006E0,-3.071003437E0,4.804730892E0
1.355348778E0,-4.138788223E0,-3.439308405E0,4.904742241E0
1.357812164E0,-3.952539682E0,-3.974697828E0,4.322041988E0
1.360275601E0,-3.827974796E0,-4.744843960E0,3.370438337E0
1.362738987E0,-3.756110430E0,-5.538346291E0,2.433806181E0
1.365202424E0,-3.832765579E0,-5.796459198E0,1.797806621E0
1.367665862E0,-3.608189583E0,-5.834786892E0,1.305535793E0
1.370129247E0,-3.263839483E0,-5.992289543E0,5.359883308E-1
1.372592685E0,-3.110528946E0,-6.183928013E0,-4.629262388E-1
1.375056070E0,-2.971591234E0,-6.183928013E0,-3.862709105E-1
1.377519507E0,-3.196766138E0,-5.925815105E0,-3.533330858E-1
1.379982893E0,-3.249466658E0,-5.352097988E0,-4.533443153E-1
1.382446330E0,-3.986076355E0,-4.907137871E0,-5.874910951E-1
1.384909768E0,-4.674776554E0,-4.682561874E0,7.366096377E-1
1.387373153E0,-4.947262287E0,-4.514878273E0,1.754688025E0
1.389836591E0,-4.865815639E0,-4.419657707E0,2.476924896E0
1.392299976E0,-3.957330465E0,-4.333420753E0,3.121907473E0
1.394763414E0,-2.905116558E0,-4.165737152E0,3.551895857E0
1.397226799E0,-2.197252750E0,-4.596324444E0,4.885578632E0
1.399690237E0,-1.943331957E0,-5.131713867E0,5.607815266E0
1.402153622E0,-1.905004263E0,-5.954560757E0,5.607815266E0
1.404617060E0,-2.589512348E0,-6.924729824E0,5.005352497E0
1.407080497E0,-3.387805462E0,-7.794887066E0,4.766403198E0
1.409543882E0,-3.804019928E0,-8.282965660E0,4.747239590E0
1.412007320E0,-3.995658159E0,-8.182355881E0,4.661002159E0
1.414470705E0,-4.387917995E0,-7.991316319E0,4.340607166E0
1.416934143E0,-4.837069988E0,-7.838006020E0,3.886663914E0
1.419397528E0,-4.875397682E0,-7.627802372E0,3.284201145E0
1.421860966E0,-4.622076035E0,-7.952988625E0,2.763184547E0
1.424324403E0,-4.602911949E0,-7.742785454E0,1.539693832E0
1.426787789E0,-4.220234394E0,-7.245124817E0,8.036830425E-1
1.429251226E0,-4.081296444E0,-7.417599201E0,5.886888504E-1
1.431714612E0,-4.196279526E0,-7.240334034E0,9.234569669E-1
1.434178049E0,-4.674776554E0,-6.853464127E0,1.305535793E0
1.436641435E0,-4.793951511E0,-6.843882084E0,1.558857679E0
1.439104872E0,-4.617284775E0,-6.776808739E0,1.138451219E0
1.441568310E0,-3.895048141E0,-6.446831703E0,1.248044372E0
1.444031695E0,-3.847138643E0,-6.351012707E0,-6.348018050E-1
1.446495132E0,-4.928098202E0,-6.518695831E0,-5.347905755E-1
1.448958518E0,-5.832391262E0,-6.604334354E0,1.898416758E0
1.451421955E0,-5.554515839E0,-6.451622486E0,1.941535354E0
1.453885341E0,-4.832279205E0,-6.924729824E0,2.381105661E0
1.456348778E0,-4.737058640E0,-7.493655682E0,2.830257893E0
1.458812216E0,-4.511883736E0,-8.201519966E0,3.853127241E0
1.461275601E0,-3.627353430E0,-9.736422539E0,3.256054163E0
1.463739039E0,-3.124901772E0,-1.026222992E1,1.745106101E0
1.466202424E0,-2.900325537E0,-9.946625710E0,2.777557373E0
1.468665862E0,-2.995545864E0,-1.021911144E1,3.833963394E0
1.471129247E0,-2.426619768E0,-1.048261452E1,3.365647316E0
1.473592685E0,-2.426619768E0,-1.103716755E1,2.978777647E0
1.476056070E0,-3.268630505E0,-1.224209309E1,2.835048914E0
1.478519507E0,-3.225511789E0,-1.336557293E1,2.787139177E0
1.480982945E0,-3.765692234E0,-1.403031826E1,3.270426989E0
1.483446330E0,-4.478347301E0,-1.365722179E1,3.270426989E0
1.485909768E0,-4.516674995E0,-1.315536976E1,2.261331797E0
1.488373153E0,-4.550211430E0,-1.310746002E1,2.591308832E0
1.490836591E0,-4.248980045E0,-1.299247646E1,3.336901665E0
1.493299976E0,-4.923307419E0,-1.217981052E1,4.503499508E0
1.495763414E0,-5.516787052E0,-1.206003666E1,4.952651978E0
1.498226851E0,-5.449713707E0,-1.211273766E1,5.263465405E0
1.500690237E0,-4.870606899E0,-1.224688435E1,5.340120316E0
1.503153674E0,-4.550211430E0,-1.243313217E1,5.631171227E0
1.505617060E0,-4.540629387E0,-1.235168648E1,5.688662529E0
1.508080497E0,-4.473556042E0,-1.234689522E1,5.134109497E0
1.510543882E0,-4.258562088E0,-1.256248856E1,5.019725323E0
1.513007320E0,-4.234607220E0,-1.240438652E1,4.933487892E0
1.515470757E0,-4.081895351E0,-1.252895164E1,4.952651978E0
1.517934143E0,-3.780065060E0,-1.293019390E1,4.589138031E0
1.520397580E0,-4.407081604E0,-1.180192375E1,7.208593845E0
1.522860966E0,-5.564097881E0,-9.353744507E0,1.202709866E1
1.525324403E0,-5.210165977E0,-1.044907761E1,4.756821632E0
1.527787789E0,-4.033986092E0,-1.234210396E1,-1.687015772E0
1.530251226E0,-3.517161369E0,-1.297810364E1,-4.119624138E0
1.532714664E0,-3.287794352E0,-1.219897461E1,-3.431523085E0
1.535178049E0,-2.900325537E0,-1.171568680E1,-3.082381964E0
1.537641487E0,-3.230302811E0,-1.137672615E1,-2.040348768E0
1.540104872E0,-4.239398003E0,-1.110364151E1,-1.342665672E0
1.542568310E0,-4.875397682E0,-1.186420631E1,-3.150054216E-1
1.545031695E0,-5.870718956E0,-1.252895164E1,5.455702543E-1
1.547495132E0,-6.262978554E0,-1.282539177E1,9.090840816E-1
1.549958518E0,-6.286334515E0,-1.285892868E1,1.358236313E0
1.552421955E0,-6.386944771E0,-1.282539177E1,1.587603450E0
1.554885393E0,-6.855859756E0,-1.286371994E1,1.893625736E0
1.557348778E0,-7.061271667E0,-1.245708752E1,1.884043932E0
1.559812216E0,-7.463113308E0,-1.184983349E1,1.764269948E0
1.562275601E0,-7.673915386E0,-1.161567593E1,1.816970468E0
1.564739039E0,-7.448740482E0,-1.126653481E1,1.501366138E0
1.567202424E0,-7.334356308E0,-1.132881737E1,1.061795831E0
1.569665862E0,-7.195418835E0,-1.155339336E1,1.143242121E0
1.572129299E0,-7.090017796E0,-1.145278263E1,1.124078274E0
1.574592685E0,-6.922933102E0,-1.106591320E1,8.324288130E-1
1.577056122E0,-6.764831543E0,-1.097488499E1,9.659767151E-1
1.579519507E0,-6.631283283E0,-1.066886234E1,7.701463699E-1
1.581982945E0,-6.525882244E0,-1.012868214E1,5.407792926E-1
1.584446330E0,-6.262978554E0,-9.875360489E0,5.024515986E-1
1.586909768E0,-6.042594433E0,-9.674139977E0,2.874574363E-1
1.589373205E0,-5.832391262E0,-9.444772720E0,-2.814687230E-2
1.591836591E0,-5.841973305E0,-9.406445503E0,-8.563835919E-2
1.594300028E0,-5.535951138E0,-9.478309631E0,-1.191750541E-1
1.596763414E0,-5.210165977E0,-9.741213799E0,-1.952314973E-1
1.599226851E0,-5.009544373E0,-9.717258453E0,-1.808586270E-1
1.601690237E0,-4.928098202E0,-9.631021500E0,-4.341804981E-1
1.604153674E0,-4.837668896E0,-9.545383453E0,-6.683385372E-1
1.606617112E0,-4.756222725E0,-9.425609589E0,-8.312310576E-1
1.609080497E0,-4.703522205E0,-9.129168510E0,-1.065389037E0
1.611543935E0,-4.717895031E0,-8.823145866E0,-1.007897615E0
1.614007320E0,-4.722685814E0,-8.469214439E0,-7.689486146E-1
1.616470757E0,-4.808923244E0,-8.148818970E0,-7.162480950E-1
1.618934143E0,-4.985589504E0,-7.804469109E0,-7.114571333E-1
1.621397580E0,-4.937680244E0,-7.551147461E0,-3.772878647E-1
1.623860966E0,-4.808923244E0,-7.431972027E0,-4.245985746E-1
1.626324403E0,-4.717895031E0,-7.249915600E0,-6.210278273E-1
1.628787841E0,-4.526256561E0,-7.087622166E0,-4.916719794E-1
1.631251226E0,-4.177115917E0,-6.987011909E0,-4.629262388E-1
1.633714664E0,-3.670471907E0,-7.106785774E0,-3.629150093E-1
1.636178049E0,-3.215929985E0,-7.216379166E0,-3.677059710E-1
1.638641487E0,-2.838043213E0,-7.446344852E0,-5.252086520E-1
1.641104872E0,-2.608676195E0,-7.618220806E0,-8.264400959E-1
1.643568310E0,-2.608676195E0,-7.618220806E0,-1.031852365E0
1.646031747E0,-2.603885174E0,-7.623011589E0,-9.695699215E-1
1.648495132E0,-2.407455921E0,-7.493655682E0,-6.545644999E-1
1.650958570E0,-2.283489943E0,-7.336153030E0,-4.293895364E-1
1.653421955E0,-2.249953270E0,-7.087622166E0,-2.000224590E-1
1.655885393E0,-2.312235594E0,-6.752853870E0,3.209941387E-1
1.658348778E0,-2.331399441E0,-6.513905048E0,8.180559278E-1
1.660812216E0,-2.488902092E0,-6.203091621E0,1.267208099E0
1.663275653E0,-2.517647982E0,-6.011453629E0,1.510948062E0
1.665739039E0,-2.355354309E0,-5.930605888E0,1.673840642E0
1.668202476E0,-2.388292074E0,-5.634165764E0,1.678631544E0
1.670665862E0,-2.421828747E0,-5.432945251E0,1.568439603E0
1.673129299E0,-2.278698921E0,-5.232324123E0,1.549275756E0
1.675592685E0,-2.216416597E0,-4.950256348E0,1.424710870E0
1.678056122E0,-2.259535074E0,-4.510087013E0,1.271999121E0
1.680519560E0,-2.240371227E0,-4.036980152E0,1.047423005E0
1.682983049E0,-2.187670708E0,-3.745330811E0,1.109705448E0
1.685446487E0,-2.202043533E0,-3.181195498E0,1.066586852E0
1.687909976E0,-2.240371227E0,-2.377512455E0,1.592394352E0
1.690373466E0,-2.120597363E0,-1.976269841E0,2.342777967E0
1.692836903E0,-2.125388384E0,-1.760676742E0,2.973986626E0
1.695300393E0,-2.120597363E0,-1.627128839E0,3.527940989E0
1.697763830E0,-2.077478647E0,-1.627128839E0,3.762697935E0
1.700227320E0,-2.106224537E0,-1.665456414E0,3.757906914E0
1.702690810E0,-2.144552231E0,-1.679829359E0,3.566268682E0
1.705154247E0,-2.091851711E0,-1.822959185E0,3.150653124E0
1.707617737E0,-2.149343014E0,-1.899614453E0,2.796721220E0
1.710081174E0,-2.197252750E0,-2.081072092E0,2.596099854E0
1.712544664E0,-2.154134035E0,-2.272710323E0,2.175693274E0
1.715008153E0,-1.972676635E0,-2.458958626E0,1.879252911E0
1.717471591E0,-1.790620208E0,-2.760190248E0,1.448665619E0
1.719935080E0,-1.657072306E0,-3.027884960E0,9.659767151E-1
1.722398518E0,-1.383987784E0,-3.314743519E0,2.874574363E-1
1.724862007E0,-1.145038724E0,-3.611183882E0,-4.964629412E-1
1.727325445E0,-8.294344544E-1,-3.859714746E0,-1.089343905E0
1.729788935E0,-4.898753762E-1,-4.056144238E0,-1.514541268E0
1.732252424E0,-2.317625433E-1,-4.146573544E0,-1.548078060E0
1.734715862E0,-1.796608907E-3,-4.065725803E0,-1.361829519E0
1.737179351E0,1.221694052E-1,-4.022607327E0,-9.695699215E-1
1.739642789E0,1.988247186E-1,-3.984279633E0,-6.827113628E-1
1.742106278E0,2.419433296E-1,-3.907624483E0,-5.156267285E-1
1.744569768E0,3.090167344E-1,-3.830969095E0,-8.084739745E-2
1.747033205E0,2.706890702E-1,-3.678257227E0,2.778755128E-1
1.749496695E0,2.563162148E-1,-3.520155668E0,3.305760324E-1
1.751960132E0,3.760901392E-1,-3.524946690E0,2.635026276E-1
1.754423622E0,4.527454376E-1,-3.678257227E0,9.162705392E-2
1.756887112E0,5.862933993E-1,-3.850132942E0,-1.569038481E-1
1.759350549E0,7.731407285E-1,-4.032189369E0,-6.162368655E-1
1.761814039E0,1.031253457E0,-4.165737152E0,-1.007897615E0
1.764277476E0,1.183965325E0,-4.352584362E0,-1.194744945E0
1.766740966E0,1.103117824E0,-4.428640842E0,-1.318710923E0
1.769204455E0,9.498072267E-1,-4.462177753E0,-1.471422672E0
1.771667893E0,9.258524776E-1,-4.711307526E0,-1.452857733E0
1.774131382E0,1.055208325E0,-4.854437351E0,-1.610360503E0
1.776594820E0,1.074372172E0,-4.988584042E0,-1.581614733E0
1.779058310E0,1.016880631E0,-5.064640522E0,-1.629524231E0
1.781521799E0,8.539881110E-1,-5.131713867E0,-1.624733329E0
1.783985237E0,8.156604171E-1,-5.280233383E0,-1.567241788E0
1.786448726E0,7.970954776E-1,-5.408990383E0,-1.552868962E0
1.788912164E0,8.539881110E-1,-5.628775597E0,-1.390575290E0
1.791375653E0,8.491971493E-1,-5.772504330E0,-1.289965153E0
1.793839143E0,8.875247836E-1,-5.772504330E0,-1.208518982E0
1.796302580E0,7.348130345E-1,-5.695848942E0,-1.089343905E0
1.798766070E0,5.048471093E-1,-5.724595070E0,-4.533443153E-1
1.801229507E0,3.665082157E-1,-5.796459198E0,4.114234447E-1
1.803692997E0,6.527678668E-2,-5.939589024E0,1.482202291E0
1.806156487E0,-2.700901926E-1,-6.140809059E0,2.634427547E0
1.808619924E0,-5.234120488E-1,-6.245611668E0,4.163940430E0
1.811083414E0,-8.342254162E-1,-6.274357319E0,5.946775436E0
1.813546851E0,-8.246434927E-1,-6.480368137E0,7.643971920E0
1.816010341E0,-8.533892035E-1,-6.690571785E0,8.704569817E0
1.818473830E0,-1.034846783E0,-6.772017956E0,9.010592461E0
1.820937268E0,-1.101920128E0,-6.628289223E0,9.168694496E0
1.823400757E0,-9.539993405E-1,-6.704944611E0,8.786016464E0
1.825864195E0,-7.623610497E-1,-6.905565739E0,8.336864471E0
1.828327685E0,-9.348354936E-1,-6.886402130E0,7.767938137E0
1.830791174E0,-9.539993405E-1,-6.958266258E0,7.294830799E0
1.833254612E0,-6.809147596E-1,-6.982221127E0,6.926526070E0
1.835718101E0,-5.904854536E-1,-6.757645130E0,6.491746902E0
1.838181539E0,-6.096493006E-1,-6.422876835E0,5.803645611E0
1.840645028E0,-4.707115293E-1,-6.408504009E0,4.943069935E0
1.843108518E0,-3.126099408E-1,-6.480368137E0,4.063330650E0
1.845571955E0,-2.461354136E-1,-6.599543571E0,3.542313814E0
1.848035445E0,-1.790620238E-1,-6.628289223E0,3.083579779E0
1.850498882E0,-2.844630778E-1,-7.900288105E0,2.576936007E0
1.852962372E0,-9.779540896E-1,-1.726241684E1,9.036942720E-1
1.855425810E0,-3.053636312E0,-3.547523880E1,-5.362877369E0
1.857889299E0,-3.239884615E0,-5.656143951E1,-9.937044144E0
1.860352789E0,-8.725530505E-1,-7.420952606E1,-1.161986732E1
1.862816226E0,1.131863594E0,-8.710498810E1,-1.251817226E1
1.865279716E0,3.015907526E0,-9.472680664E1,-9.765168190E0
1.867743153E0,4.613691807E0,-9.184384155E1,-5.859939575E0
1.870206643E0,4.508290768E0,-7.640917969E1,-6.401916146E-1
1.872670132E0,4.125612736E0,-5.963543701E1,3.288991928E0
1.875133570E0,3.470449448E0,-4.564524460E1,5.850956440E0
1.877597060E0,2.614065886E0,-3.407867813E1,8.006887436E0
1.880060497E0,1.724744558E0,-2.481236649E1,9.197440147E0
1.882523987E0,9.641801119E-1,-1.772594261E1,1.032990265E1
1.884987476E0,4.234008193E-1,-1.218939209E1,1.083654594E1
1.887450914E0,7.785305381E-3,-8.053000450E0,1.020593643E1
1.889914403E0,-1.263614893E-1,-4.911928654E0,8.236253738E0
1.892377841E0,2.994348295E-3,-2.248755455E0,4.694539070E0
1.894841330E0,1.173784509E-1,-3.982483149E-1,2.266122818E0
1.897304820E0,4.713104069E-1,6.539656520E-1,1.104914427E0
1.899768257E0,7.587678432E-1,1.155818343E0,2.922483683E-1
1.902231747E0,8.012875915E-1,1.437886000E0,1.197739244E-1
1.904695185E0,7.725418210E-1,1.662462115E0,1.820563674E-1
1.907158674E0,6.437848806E-1,1.820563674E0,6.216266751E-1
1.909622164E0,5.815024376E-1,1.806190848E0,1.023468256E0
1.912085601E0,5.623385906E-1,1.810981750E0,1.300744891E0
1.914549091E0,5.767114758E-1,1.676834941E0,1.563648582E0
1.917012528E0,4.377737045E-1,1.500168443E0,1.893625736E0
1.919476018E0,-3.054235131E-2,9.887337685E-1,1.931354523E0
1.921939507E0,-3.132088184E-1,2.090055048E-1,1.921772718E0
1.924402945E0,-2.461354136E-1,-8.809372187E-1,1.893625736E0
1.926866435E0,-1.646891534E-1,-2.071490049E0,1.701987505E0
1.929329872E0,-3.084178567E-1,-2.573941708E0,1.788224697E0
1.931793362E0,-5.377849340E-1,-2.951229572E0,1.826552391E0
1.934256851E0,-7.000786066E-1,-3.520155668E0,1.793015718E0
1.936720289E0,-9.396264553E-1,-4.189692020E0,1.621140122E0
1.939183778E0,-1.097129226E0,-4.993374825E0,1.310326815E0
1.941647216E0,-1.183366418E0,-5.906651020E0,1.013886333E0
1.944110705E0,-1.173784494E0,-6.852865219E0,8.372197747E-1
1.946574195E0,-1.001908898E0,-7.881124496E0,6.359995604E-1
1.949037632E0,-7.000786066E-1,-8.932739258E0,2.970393300E-1
1.951501122E0,-2.700901926E-1,-1.009035492E1,1.676834971E-1
1.953964560E0,2.323614210E-1,-1.131923485E1,-1.377400197E-2
1.956428049E0,9.258524776E-1,-1.267687225E1,2.455365472E-2
1.958891539E0,1.739117384E0,-1.400157166E1,3.305760324E-1
1.961354976E0,2.604484081E0,-1.519691563E1,6.503724456E-1
1.963818466E0,3.508777142E0,-1.621499443E1,9.132761955E-1
1.966281903E0,4.139985561E0,-1.675577354E1,1.286371946E0
1.968745393E0,4.618482590E0,-1.701867676E1,1.888834834E0
1.971208882E0,4.532245636E0,-1.631560516E1,2.400269508E0
1.973672320E0,3.718980551E0,-1.458487129E1,2.596099854E0
1.976135810E0,2.671557426E0,-1.294935799E1,2.548190355E0
1.978599247E0,1.772654176E0,-1.144320107E1,2.490698814E0
1.981062737E0,8.396152258E-1,-9.946625710E0,2.314032316E0
1.983526226E0,2.658981085E-1,-8.923157692E0,2.237376928E0
1.985989664E0,-2.575139515E-2,-8.306921005E0,2.280495644E0
1.988453153E0,-1.598981917E-1,-7.809259892E0,2.227795124E0
1.990916591E0,-2.557173371E-1,-7.512819767E0,2.208631277E0
1.993380080E0,-2.796721160E-1,-7.374480724E0,2.218213081E0
1.995843518E0,-2.700901926E-1,-7.101994991E0,2.261331797E0
1.998307007E0,-6.407905370E-2,-7.230751991E0,2.328405142E0
2.000770497E0,3.114122152E-2,-7.512819767E0,2.199049234E0
2.003233935E0,7.425983250E-2,-7.608638763E0,2.094247103E0
2.005697424E0,2.036156803E-1,-7.914660931E0,1.936145544E0
2.008160862E0,1.509151459E-1,-8.105700493E0,1.721151352E0
2.010624351E0,-1.616948098E-2,-7.704457760E0,1.367818236E0
2.013087841E0,9.821461886E-2,-7.637384415E0,1.123479486E0
2.015551278E0,2.036156803E-1,-7.756559372E0,9.899315238E-1
2.018014768E0,2.419433296E-1,-7.866751671E0,7.557734847E-1
2.020478205E0,1.796608865E-1,-7.790096283E0,5.791069269E-1
2.022941695E0,2.395478543E-3,-7.632593632E0,3.826777041E-1
2.025405185E0,-4.970617965E-2,-7.350525856E0,1.485196650E-1
2.027868622E0,-5.928809568E-2,-7.168469429E0,5.389826838E-3
2.030332112E0,8.324287832E-2,-7.460119247E0,-1.239660159E-1
2.032795549E0,6.887000799E-2,-7.660740376E0,-3.156042993E-1
2.035259039E0,1.119886190E-1,-7.918853283E0,-6.066549420E-1
2.037722528E0,3.078189790E-1,-8.258412361E0,-7.887113094E-1
2.040185966E0,3.078189790E-1,-8.320694923E0,-7.695474625E-1
2.042649455E0,3.413556814E-1,-8.224875450E0,-1.383388788E-1
2.045112893E0,2.934461236E-1,-8.076954842E0,4.970617890E-1
2.047576382E0,2.982370853E-1,-8.158401489E0,9.749597907E-1
2.050039872E0,3.174009025E-1,-8.506942749E0,1.453456640E0
2.052503310E0,3.796833456E-1,-8.865666389E0,1.610959291E0
2.054966799E0,6.042594910E-1,-9.750196457E0,1.801998734E0
2.057430237E0,1.058801532E0,-1.133300877E1,1.304936886E0
2.059893726E0,1.303140283E0,-1.239959621E1,8.557847142E-1
2.062357216E0,1.340869069E0,-1.331706429E1,7.216379046E-1
2.064820653E0,1.216903090E0,-1.408721066E1,3.635138571E-1
2.067284143E0,9.252535701E-1,-1.444593334E1,-4.790957086E-3
2.069747580E0,6.282142401E-1,-1.454115391E1,-5.305985212E-1
2.072211070E0,2.551184595E-1,-1.451779747E1,-9.653778672E-1
2.074674560E0,-6.527678668E-2,-1.435490513E1,-1.185163021E0
2.077137997E0,-2.275704592E-1,-1.394827271E1,-1.118688464E0
2.079601487E0,-1.892428100E-1,-1.341767406E1,-6.641464233E-1
2.082064924E0,1.616948098E-2,-1.295894051E1,-1.527117640E-1
2.084528414E0,4.084290862E-1,-1.260500813E1,2.485308945E-1
2.086991903E0,7.527791262E-1,-1.222712135E1,6.264176369E-1
2.089455341E0,1.130665898E0,-1.184444332E1,9.605869055E-1
2.091918830E0,1.331287146E0,-1.142403698E1,1.094733715E0
2.094382268E0,1.407942533E0,-1.099824047E1,1.276191235E0
2.096845757E0,1.412733436E0,-1.057304382E1,1.290564060E0
2.099309247E0,1.321705341E0,-1.027660275E1,1.089942694E0
2.101772685E0,1.212112188E0,-9.989145279E0,9.372310042E-1
2.104236174E0,1.010891914E0,-9.817270279E0,7.551746368E-1
2.106699612E0,8.054796457E-1,-9.697496414E0,5.401803851E-1
2.109163101E0,6.569600105E-1,-9.477710724E0,2.629037797E-1
2.111626591E0,4.898753762E-1,-9.267507553E0,5.270052701E-2
2.114090028E0,3.892652690E-1,-9.162106514E0,-2.874574251E-2
2.116553518E0,3.078189790E-1,-9.099823952E0,-6.707339734E-2
2.119016955E0,3.317737877E-1,-9.014185905E0,-4.790957272E-2
2.121480445E0,3.365647495E-1,-9.057304382E0,0.000000000E0
2.123943882E0,3.509376049E-1,-9.205224991E0,5.270052701E-2
2.126407372E0,3.509376049E-1,-9.291461945E0,6.707339734E-2
2.128870862E0,3.461466432E-1,-9.386682510E0,1.245648861E-1
2.131334299E0,3.126099408E-1,-9.554366112E0,2.245761156E-1
2.133797789E0,2.886551619E-1,-9.631021500E0,3.683048189E-1
2.136261226E0,1.784631461E-1,-9.669348717E0,5.114346743E-1
2.138724716E0,1.928360164E-1,-9.764569283E0,5.641351938E-1
2.141188205E0,1.503162831E-1,-9.836433411E0,5.353894830E-1
2.143651643E0,1.167795807E-1,-9.898715973E0,5.737171173E-1
2.146115132E0,6.587565877E-3,-1.004663658E1,6.833102703E-1
2.148578570E0,6.587565877E-3,-1.007538319E1,7.455927134E-1
2.151042060E0,4.970617965E-2,-1.006100941E1,8.797395229E-1
2.153505549E0,1.311524510E-1,-1.012329197E1,9.605869055E-1
2.155968987E0,1.976269782E-1,-1.010412884E1,1.032451272E0
2.158432476E0,2.838642001E-1,-1.016641140E1,1.056406021E0
2.160895914E0,3.940562308E-1,-1.012808323E1,1.065987945E0
2.163359403E0,4.850844145E-1,-1.009933758E1,1.089942694E0
2.165822893E0,4.940674603E-1,-1.008017349E1,1.080360770E0
2.168286330E0,5.323951244E-1,-1.003226376E1,1.094733715E0
2.170749820E0,5.276041627E-1,-9.984354973E0,1.118688464E0
2.173213257E0,5.755137205E-1,-9.869970322E0,1.171388984E0
2.175676747E0,5.755137205E-1,-9.812479019E0,1.199535847E0
2.178140237E0,6.713328362E-1,-9.635812759E0,1.223490715E0
2.180603674E0,8.198525310E-1,-9.563947678E0,1.280982137E0
2.183067164E0,9.246547222E-1,-9.458546638E0,1.333682656E0
2.185530653E0,9.869371653E-1,-9.463337898E0,1.314518809E0
2.187994195E0,1.001309991E0,-9.511247635E0,1.367219329E0
2.190457685E0,1.097129226E0,-9.583111763E0,1.362428427E0
2.192921174E0,1.116292953E0,-9.759778023E0,1.252236366E0
2.195384716E0,1.130665898E0,-9.913088799E0,1.218699694E0
2.197848205E0,1.145038724E0,-1.001789093E1,1.357637405E0
2.200311695E0,1.168993473E0,-1.011850166E1,1.352846503E0
2.202775237E0,1.182767510E0,-1.016162014E1,1.400756121E0
2.205238726E0,1.201931357E0,-1.003226376E1,1.328891754E0
2.207702216E0,1.273795724E0,-9.932252884E0,1.343264580E0
2.210165757E0,1.350450993E0,-9.807687759E0,1.280982137E0
2.212629247E0,1.422315359E0,-9.626230240E0,1.223490715E0
2.215092737E0,1.470224977E0,-9.448965073E0,1.261818290E0
2.217556278E0,1.531908512E0,-9.301044464E0,1.314518809E0
2.220019768E0,1.565445185E0,-9.157315254E0,1.271400213E0
2.222483257E0,1.613354802E0,-8.995021820E0,1.223490715E0
2.224946799E0,1.713964939E0,-8.937530518E0,1.228281617E0
2.227410289E0,1.809784055E0,-8.817756653E0,1.199535847E0
2.229873778E0,1.819365978E0,-8.741700172E0,1.189953923E0
2.232337320E0,1.876258612E0,-8.750682831E0,1.137852311E0
2.234800810E0,1.881049514E0,-8.741700172E0,1.075569868E0
2.237264299E0,1.866676688E0,-8.817756653E0,1.042033195E0
2.239727841E0,1.914586186E0,-8.894412041E0,1.032451272E0
2.242191330E0,1.962495804E0,-8.985440254E0,1.013287425E0
2.244654820E0,2.024778128E0,-9.061496735E0,9.270501733E-1
2.247118362E0,2.106224537E0,-9.214807510E0,8.509937525E-1
2.249581851E0,2.063105822E0,-9.334581375E0,9.132761955E-1
2.252045341E0,2.053524017E0,-9.549574852E0,8.941123486E-1
2.254508882E0,2.115806341E0,-9.716659546E0,8.893213868E-1
2.256972372E0,2.130179405E0,-9.922671318E0,8.845304251E-1
2.259435862E0,2.120597363E0,-1.012808323E1,9.557959437E-1
2.261899403E0,2.134970188E0,-1.029995918E1,9.941235781E-1
2.264362893E0,2.163716078E0,-1.031433201E1,1.065987945E0
2.266826382E0,2.215817690E0,-1.041015053E1,1.099524617E0
2.269289924E0,2.187670708E0,-1.043410587E1,1.094733715E0
2.271753414E0,2.168506861E0,-1.038140488E1,1.175581098E0
2.274216903E0,2.206235647E0,-1.032391357E1,1.300145984E0
2.276680445E0,2.230190516E0,-1.027600384E1,1.386383176E0
2.279143935E0,2.211026669E0,-1.015203762E1,1.495976329E0
2.281607424E0,2.239772320E0,-9.879552841E0,1.548676848E0
2.284070966E0,2.215817690E0,-9.745405197E0,1.615750313E0
2.286534455E0,2.163716078E0,-9.592694283E0,1.644495964E0
2.288997997E0,2.196653843E0,-9.458546638E0,1.630123138E0
2.291461487E0,2.191862822E0,-9.291461945E0,1.639705062E0
2.293924976E0,2.206235647E0,-9.200434685E0,1.539094925E0
2.296388518E0,2.125388384E0,-9.085451126E0,1.472021580E0
2.298852007E0,2.082269669E0,-8.875247955E0,1.304936886E0
2.301315497E0,2.034360170E0,-8.774638176E0,1.276191235E0
2.303779039E0,2.043941975E0,-8.803383827E0,1.189953923E0
2.306242528E0,2.082269669E0,-8.860875130E0,1.142643213E0
2.308706018E0,2.120597363E0,-8.951903343E0,1.161208272E0
2.311169560E0,2.111015558E0,-9.032751083E0,1.133061409E0
2.313633049E0,2.063105822E0,-9.210016251E0,1.008496523E0
2.316096539E0,1.996032476E0,-9.434592247E0,9.366320968E-1
2.318560080E0,1.962495804E0,-9.683123589E0,8.318299055E-1
2.321023570E0,1.924168110E0,-9.745405197E0,7.455927134E-1
2.323487060E0,1.876258612E0,-9.778942108E0,7.072650194E-1
2.325950601E0,1.813976169E0,-9.812479019E0,6.497735381E-1
2.328414091E0,1.757083535E0,-9.831643105E0,6.216266751E-1
2.330877580E0,1.742710590E0,-9.764569283E0,6.833102703E-1
2.333341122E0,1.752292514E0,-9.745405197E0,7.455927134E-1
2.335804612E0,1.799603224E0,-9.692705154E0,8.222479820E-1
2.338268101E0,1.742710590E0,-9.539993286E0,7.551746368E-1
2.340731643E0,1.670846343E0,-9.425010681E0,7.312198281E-1
2.343195132E0,1.613354802E0,-9.219597816E0,5.449713469E-1
2.345658622E0,1.206722260E0,-9.176479340E0,4.204064906E-1
2.348122164E0,4.413669109E-1,-9.104615211E0,-3.299771547E-1
2.350585653E0,1.642100573E0,-8.990230560E0,-2.255941868E0
2.353049143E0,2.851817131E0,-8.574016571E0,-3.159636259E0
2.355512685E0,3.124901772E0,-8.482988358E0,-1.639705062E0
2.357976174E0,2.799715519E0,-9.224389076E0,4.347793460E-1
2.360439664E0,1.991241574E0,-9.516038895E0,1.199535847E0
2.362903205E0,1.388778687E0,-9.219597816E0,1.797207832E0
2.365366695E0,9.534004331E-1,-8.923157692E0,2.127184868E0
2.367830185E0,7.473893166E-1,-8.502152443E0,1.954710484E0
2.370293726E0,6.617509723E-1,-8.411723137E0,1.467230558E0
2.372757216E0,5.515589118E-1,-8.559643745E0,9.989145398E-1
2.375220705E0,3.695025742E-1,-8.961484909E0,1.018078327E0
2.377684247E0,2.359546423E-1,-9.338772774E0,1.113897562E0
2.380147737E0,1.161807105E-1,-9.754987717E0,1.027660251E0
2.382611226E0,1.065987945E-1,-1.020952988E1,9.030954242E-1
2.385074768E0,-2.275704592E-2,-1.051076126E1,6.785193086E-1
2.387538257E0,-1.610959321E-1,-1.075450134E1,4.012426436E-1
2.390001747E0,-2.425422072E-1,-1.088804913E1,3.868697882E-1
2.392465289E0,-2.760789096E-1,-1.092158508E1,4.395703077E-1
2.394928778E0,-3.191975057E-1,-1.119407082E1,4.970617890E-1
2.397392268E0,-5.533555150E-1,-1.117490768E1,4.156155288E-1
2.399855810E0,-1.648688078E0,-8.072163582E0,1.338473678E0
2.402319299E0,-3.562076569E0,-2.281693220E0,2.906314373E0
2.404782789E0,-2.921286106E0,-4.476550579E0,-1.749298215E0
2.407246330E0,-1.438484907E0,-9.152524948E0,-5.922221661E0
2.409709820E0,-1.289965153E0,-9.377100945E0,-4.459782124E0
2.412173310E0,-1.174982190E0,-9.501666069E0,-3.637534142E0
2.414636851E0,-8.545869589E-1,-1.065868187E1,-3.432121992E0
2.417100341E0,-5.773103237E-1,-1.185881615E1,-2.060111523E0
2.419563830E0,-3.814799488E-1,-1.249960709E1,-4.257963002E-1
2.422027372E0,-3.233896196E-2,-1.314518833E1,1.228281617E0
2.424490862E0,2.784743905E-1,-1.353205872E1,2.289478540E0
2.426954351E0,6.563611031E-1,-1.380993366E1,3.317138910E0
2.429417893E0,9.486095309E-1,-1.385245323E1,4.182505608E0
2.431881382E0,1.158812761E0,-1.356080437E1,4.426245689E0
2.434344872E0,1.383388877E0,-1.335060120E1,4.230415344E0
2.436808414E0,1.450462222E0,-1.320747089E1,3.599206448E0
2.439271903E0,1.407343626E0,-1.291103077E1,3.135681391E0
2.441735393E0,1.211513281E0,-1.257626247E1,2.609873772E0
2.444198935E0,8.959089518E-1,-1.208339310E1,2.404461622E0
2.446662424E0,6.324063540E-1,-1.174383354E1,2.217614174E0
2.449125914E0,4.030392766E-1,-1.154800320E1,2.036156654E0
2.451589455E0,1.065987945E-1,-1.113178921E1,2.279896736E0
2.454052945E0,-2.856608033E-1,-1.066826344E1,2.542800426E0
2.456516435E0,-6.012651324E-1,-1.030474949E1,2.672156334E0
2.458979976E0,-8.408129811E-1,-1.001789093E1,2.590710163E0
2.461443466E0,-1.194744945E0,-9.563947678E0,2.442190409E0
2.463906955E0,-1.419321060E0,-9.333982468E0,2.131975889E0
2.466370497E0,-1.491185427E0,-9.472919464E0,1.758880138E0
2.468833987E0,-1.323501945E0,-1.042931461E1,1.491185427E0
2.471297476E0,-7.737395763E-1,-1.175341511E1,1.380993366E0
2.473761018E0,-4.198076129E-1,-1.189714432E1,1.362428427E0
2.476224507E0,-1.563049704E-1,-1.167735863E1,1.300145984E0
2.478687997E0,2.593105435E-1,-1.183965302E1,9.318411350E-1
2.481151539E0,5.515589118E-1,-1.181090736E1,4.635250866E-1
2.483615028E0,8.384174705E-1,-1.198817253E1,7.605644315E-2
2.486078518E0,8.000898361E-1,-1.138570976E1,-6.120447516E-1
2.488542060E0,6.180334687E-1,-1.069700909E1,-1.094733715E0
2.491005549E0,5.419770479E-1,-1.029037666E1,-1.543885946E0
2.493469039E0,3.503387272E-1,-9.735823631E0,-1.940936446E0
2.495932580E0,1.688812375E-1,-9.166897774E0,-2.242167950E0
2.498396070E0,1.970281154E-1,-8.731519699E0,-2.223004103E0
2.500859560E0,4.461578727E-1,-8.239248276E0,-2.428416491E0
2.503323101E0,4.701126516E-1,-7.497848034E0,-2.939851046E0
2.505786591E0,4.317850173E-1,-6.809746742E0,-3.422539949E0
2.508250080E0,6.755249500E-1,-6.250402451E0,-3.030879259E0
2.510713622E0,7.330164313E-1,-5.451510429E0,-2.423625469E0
2.513177112E0,4.413669109E-1,-4.725081444E0,-2.184676409E0
2.515640601E0,3.359658718E-1,-5.198188305E0,-2.179885387E0
2.518104143E0,6.348018348E-2,-5.762323856E0,-1.984055161E0
2.520567632E0,-1.185761914E-1,-6.087509632E0,-1.754688025E0
2.523031122E0,-6.108470261E-2,-6.460605621E0,-1.682823658E0
2.525494664E0,-3.233896196E-2,-7.053486347E0,-1.740315199E0
2.527958153E0,-5.150279030E-2,-7.708650112E0,-1.916981697E0
2.530421643E0,-8.983044326E-2,-8.382378578E0,-2.036156654E0
2.532885185E0,-1.185761914E-1,-8.889620781E0,-2.246958971E0
2.535348674E0,-1.569038481E-1,-9.324399948E0,-2.131975889E0
2.537812164E0,-1.089942753E-1,-9.535202026E0,-1.658868909E0
2.540275705E0,5.868922547E-2,-9.855597496E0,-9.989145398E-1
2.542739195E0,5.892876983E-1,-9.965190887E0,3.832765669E-2
2.545202685E0,1.115694165E0,-1.001310062E1,8.030841947E-1
2.547666226E0,1.321106434E0,-1.021851254E1,6.881012321E-1
2.550129716E0,7.042707205E-1,-1.003705502E1,-7.665531337E-2
2.552593205E0,-4.533443153E-1,-9.874761581E0,-1.118688464E0
2.555056747E0,-1.309129000E0,-9.898117065E0,-2.203840256E0
2.557520237E0,-1.912190795E0,-9.936445236E0,-2.959014893E0
2.559983726E0,-1.821162581E0,-1.008975601E1,-2.992551565E0
2.562447268E0,-2.175094604E0,-1.012329197E1,-3.245873451E0
2.564910757E0,-2.328405142E0,-9.788524628E0,-2.332597256E0
2.567374247E0,-1.984055161E0,-1.012329197E1,-2.017591715E0
2.569837789E0,-2.529026508E0,-1.012808323E1,-2.022382736E0
2.572301278E0,-1.734925389E0,-1.017539406E1,-5.497623086E-1
2.574764768E0,1.154021740E0,-1.073533726E1,2.953624964E0
2.577228310E0,1.947524071E0,-1.117490768E1,3.312347889E0
2.579691799E0,-2.521241307E-1,-1.055807209E1,1.070778966E0
2.582155289E0,-2.404461622E0,-9.468129158E0,-6.695362329E-1
2.584618830E0,-2.285286427E0,-9.037541389E0,4.731070250E-2
2.587082320E0,-1.921772718E0,-8.769846916E0,7.168469429E-1
2.589545810E0,-2.184676409E0,-8.411124229E0,7.408017516E-1
2.592009351E0,-1.979264140E0,-8.574016571E0,7.935022712E-1
2.594472841E0,-8.983044624E-1,-9.678332329E0,1.218699694E0
2.596936330E0,-1.233671457E-1,-1.070180035E1,1.491185427E0
2.599399872E0,1.034247875E0,-1.095991325E1,2.542800426E0
2.601863362E0,1.378597856E0,-1.062514496E1,2.571546316E0
2.604326851E0,1.316315413E0,-9.993936539E0,2.079275370E0
2.606790393E0,1.522326589E0,-1.003705502E1,1.543885946E0
2.609253882E0,1.369015932E0,-1.013766479E1,4.204064906E-1
2.611717372E0,2.784743905E-1,-1.014724731E1,-1.701987505E0
2.614180914E0,-2.060710430E0,-9.654376984E0,-3.637534142E0
2.616644403E0,-2.117603064E0,-8.999214172E0,-2.437998295E0
2.619107893E0,-3.383613527E-1,-9.429800987E0,-4.970617890E-1
2.621571435E0,8.042819500E-1,-1.000830936E1,9.941235781E-1
2.624034924E0,1.612755895E0,-1.048620701E1,1.667851925E0
2.626498414E0,2.014597416E0,-1.048620701E1,2.131376982E0
2.628961955E0,2.258337498E0,-1.034307766E1,2.284687757E0
2.631425445E0,2.382902384E0,-1.020893097E1,2.045738697E0
2.633888935E0,2.517049074E0,-1.021372128E1,1.845117331E0
2.636352476E0,2.760788918E0,-1.064910030E1,1.409739137E0
2.638815966E0,2.373320341E0,-1.094074917E1,4.443612695E-1
2.641279455E0,1.785230398E0,-1.101740456E1,-7.414005995E-1
2.643742997E0,1.445671320E0,-1.095991325E1,-1.391174197E0
2.646206487E0,9.911292195E-1,-1.056286240E1,-1.276790023E0
2.648669976E0,8.186547756E-1,-1.027600384E1,-1.046824098E0
2.651133518E0,1.048620701E0,-1.035265923E1,-9.468128681E-1
2.653597007E0,9.911292195E-1,-1.025204945E1,-8.509937525E-1
2.656060497E0,1.287569761E0,-1.031912231E1,-7.126548886E-1
2.658524039E0,1.698993206E0,-1.051974392E1,-2.676947415E-1
2.660987528E0,1.856495857E0,-1.056765366E1,2.054122835E-1
2.663451018E0,1.713366032E0,-1.014245605E1,5.970730186E-1
2.665914560E0,1.316315413E0,-9.596885681E0,7.455927134E-1
2.668378049E0,1.110903144E0,-9.415428162E0,7.791293859E-1
2.670841591E0,1.058202624E0,-9.396265030E0,6.976830959E-1
2.673305080E0,1.134259105E0,-9.391473770E0,6.354007125E-1
2.675768570E0,1.182168603E0,-9.472919464E0,4.443612695E-1
2.678232112E0,1.105513334E0,-9.448965073E0,1.095931455E-1
2.680695445E0,1.225287318E0,-9.415428162E0,1.575027108E-1
2.683158778E0,1.478609085E0,-9.630422592E0,-4.790957272E-2
2.685622060E0,1.015084028E0,-9.262117386E0,-3.730957806E-1
2.688085393E0,8.665643334E-1,-9.290863991E0,-3.778867424E-1
2.690548674E0,1.110304356E0,-9.520829201E0,-4.305872619E-1
2.693012007E0,1.100722432E0,-9.290863991E0,-3.347681165E-1
2.695475289E0,1.287569761E0,-9.090242386E0,-3.353669867E-2
2.697938622E0,1.761275649E0,-9.415428162E0,1.766665429E-1
2.700401903E0,1.832541108E0,-9.687913895E0,2.335591614E-2
2.702865237E0,1.675038338E0,-9.683123589E0,1.718755811E-1
2.705328518E0,1.651083589E0,-9.697496414E0,2.341580242E-1
2.707791851E0,1.665456414E0,-9.711869240E0,6.689373851E-1
2.710255132E0,1.584010243E0,-9.754987717E0,5.443724990E-1
2.712718466E0,1.636710763E0,-9.798106194E0,8.887225389E-1
2.715181747E0,1.483400106E0,-9.798106194E0,8.791406155E-1
2.717645080E0,1.220496297E0,-9.745405197E0,8.264400959E-1
2.720108362E0,1.129468083E0,-9.769360542E0,8.791406155E-1
2.722571695E0,1.110304356E0,-9.740614891E0,8.887225389E-1
2.725034976E0,1.143841028E0,-9.822060585E0,7.791293859E-1
2.727498310E0,1.034247875E0,-9.835834503E0,7.168469429E-1
2.729961591E0,1.110304356E0,-9.912489891E0,4.539431930E-1
2.732424924E0,1.316315413E0,-9.979563713E0,2.862596810E-1
2.734888205E0,1.440281510E0,-9.850207329E0,3.389602005E-1
2.737351539E0,1.507354856E0,-9.888535500E0,2.485308945E-1
2.739814820E0,1.646292686E0,-9.965190887E0,1.766665429E-1
2.742278153E0,1.698993206E0,-9.979563713E0,1.287569702E-1
2.744741435E0,1.540891528E0,-9.912489891E0,1.048021838E-1
2.747204768E0,1.497772932E0,-1.006100941E1,1.239660159E-1
2.749668049E0,1.430699587E0,-1.006100941E1,2.341580242E-1
2.752131382E0,1.340270281E0,-1.001789093E1,3.389602005E-1
2.754594664E0,1.321106434E0,-9.817270279E0,6.785193086E-1
2.757057997E0,1.086349487E0,-9.726242065E0,5.066437125E-1
2.759521278E0,9.575925469E-1,-9.735823631E0,4.778979719E-1
2.761984612E0,8.138638139E-1,-9.654376984E0,4.060336053E-1
2.764447893E0,8.713552952E-1,-9.654376984E0,3.245873451E-1
2.766911226E0,9.815473557E-1,-9.707077980E0,1.239660159E-1
2.769374507E0,9.719654322E-1,-9.759778023E0,1.431298405E-1
2.771837841E0,7.947000265E-1,-9.649586678E0,4.192087334E-3
2.774301122E0,8.138638139E-1,-9.673541069E0,-7.665531337E-2
2.776764455E0,9.719654322E-1,-9.888535500E0,-1.149829701E-1
2.779227737E0,1.268405914E0,-1.013706589E1,1.000112295E-1
2.781691070E0,1.282778740E0,-1.028079510E1,3.772878647E-1
2.784154351E0,1.091140509E0,-1.032391357E1,7.455927134E-1
2.786617685E0,7.180446982E-1,-1.038140488E1,1.103716731E0
2.789080966E0,7.994909883E-1,-1.072096443E1,1.629524231E0
2.791544299E0,8.138638139E-1,-1.089763069E1,1.868473291E0
2.794007580E0,7.515813708E-1,-1.096470451E1,1.897219062E0
2.796470914E0,3.545308113E-1,-1.084013939E1,1.787625909E0
2.798934195E0,7.803271413E-1,-1.103117847E1,1.687015772E0
2.801397528E0,7.180446982E-1,-1.088325787E1,1.074970961E0
2.803860810E0,4.886776209E-1,-1.062035370E1,5.635363460E-1
2.806324143E0,5.557510257E-1,-1.032870483E1,2.389489859E-1
2.808787424E0,6.653441787E-1,-1.022330379E1,-3.353669867E-2
2.811250757E0,5.413781404E-1,-1.012269306E1,-2.964404821E-1
2.813714039E0,4.024403989E-1,-9.840625763E0,-8.270389438E-1
2.816177372E0,5.413781404E-1,-9.754987717E0,-1.018677235E0
2.818640653E0,4.120223224E-1,-9.769360542E0,-9.324400425E-1
2.821103987E0,2.922483683E-1,-9.946026802E0,-9.947224855E-1
2.823567268E0,1.497174054E-2,-9.902908325E0,-1.075569868E0
2.826030601E0,1.395366192E-1,-9.859789848E0,-8.653666377E-1
2.828493882E0,3.305760324E-1,-1.006100941E1,-5.689261556E-1
2.830957216E0,3.880675137E-1,-1.006580067E1,-5.389826838E-3
2.833420497E0,1.874461919E-1,-9.731032372E0,3.341692686E-1
2.835883830E0,3.880675137E-1,-9.735823631E0,5.874910951E-1
2.838347112E0,9.641800821E-2,-9.338772774E0,7.408017516E-1
2.840810445E0,5.329939723E-2,-9.324399948E0,7.737395763E-1
2.843273726E0,1.059999242E-1,-9.114196777E0,9.126773477E-1
2.845737060E0,-3.437511623E-1,-7.124752045E0,1.008496523E0
2.848200341E0,-1.496575236E0,-5.743159771E0,4.731070101E-1
2.850663674E0,-1.515739083E0,-7.297226429E0,-1.820563674E-1
2.853126955E0,-1.496575236E0,-7.923644066E0,-3.347681165E-1
2.855590289E0,-1.501366138E0,-8.105101585E0,-5.928809643E-1
2.858053570E0,-1.276191235E0,-8.459033966E0,-1.033050179E0
2.860516903E0,-1.056406021E0,-8.468615532E0,-1.339072466E0
2.862980185E0,-7.312198281E-1,-8.554852486E0,-1.410338044E0
2.865443518E0,-4.060336053E-1,-8.511734009E0,-1.319908619E0
2.867906799E0,-1.143840998E-1,-8.502152443E0,-1.219298601E0
2.870370132E0,3.545308113E-1,-8.554852486E0,-1.066586852E0
2.872833414E0,7.659542561E-1,-8.502152443E0,-9.899315238E-1
2.875296747E0,1.296552777E0,-8.468615532E0,-9.228581190E-1
2.877760028E0,1.526518703E0,-8.473406792E0,-8.989033103E-1
2.880223362E0,1.765467644E0,-8.511734009E0,-9.468128681E-1
2.882686643E0,1.909196377E0,-8.511734009E0,-8.845304251E-1
2.885149976E0,1.999625683E0,-8.769846916E0,-1.009095311E0
2.887613257E0,2.081072092E0,-8.865666389E0,-9.755586386E-1
2.890076591E0,1.952314973E0,-8.889620781E0,-9.372310042E-1
2.892539872E0,1.999625683E0,-9.004005432E0,-7.988920808E-1
2.895003205E0,2.243964434E0,-9.109406471E0,-5.880900025E-1
2.897466487E0,2.367930651E0,-9.218998909E0,-2.778755128E-1
2.899929820E0,2.482913494E0,-9.209417343E0,2.814687230E-2
2.902393101E0,2.521241188E0,-9.142942429E0,1.856495813E-2
2.904856435E0,2.482913494E0,-9.128569603E0,1.095931455E-1
2.907319716E0,2.497286320E0,-9.252535820E0,1.239660159E-1
2.909783049E0,2.411049128E0,-9.209417343E0,-6.228244305E-2
2.912246330E0,2.301455975E0,-9.247744560E0,-2.491297722E-1
2.914709664E0,1.985252857E0,-9.233371735E0,-3.778867424E-1
2.917172945E0,1.832541108E0,-9.238162994E0,-3.970505595E-1
2.919636278E0,1.765467644E0,-9.596885681E0,-3.539319634E-1
2.922099560E0,1.731930971E0,-9.893326759E0,-3.018302917E-1
2.924562893E0,1.822959185E0,-1.020413971E1,-3.970505595E-1
2.927026174E0,1.818168163E0,-1.032391357E1,-2.778755128E-1
2.929489507E0,1.741512895E0,-1.047662544E1,-3.539319634E-1
2.931952789E0,1.540891528E0,-1.052453518E1,-5.120335221E-1
2.934416122E0,1.354044199E0,-1.073952961E1,-7.653554082E-1
2.936879403E0,1.225287318E0,-1.091679478E1,-1.013886333E0
2.939342737E0,1.076767564E0,-1.103117847E1,-1.171388984E0
2.941806018E0,8.282366991E-1,-1.095991325E1,-1.262417197E0
2.944269351E0,7.515813708E-1,-1.083534813E1,-1.166598082E0
2.946732632E0,7.132537365E-1,-1.077785683E1,-1.033050179E0
2.949195966E0,6.078526974E-1,-1.076827526E1,-9.563947916E-1
2.951659247E0,4.838866591E-1,-1.064430904E1,-8.845304251E-1
2.954122580E0,4.455589950E-1,-1.066347313E1,-8.036830425E-1
2.956585862E0,4.551409185E-1,-1.083534813E1,-7.030729651E-1
2.959049195E0,4.407680631E-1,-1.090721226E1,-5.455702543E-1
2.961512476E0,4.503499568E-1,-1.081618404E1,-3.922595978E-1
2.963975810E0,4.599318802E-1,-1.086409378E1,-2.970393300E-1
2.966439091E0,4.695138037E-1,-1.085451221E1,-9.102818370E-2
2.968902424E0,4.743047655E-1,-1.082576656E1,-1.018078346E-2
2.971365705E0,5.359883308E-1,-1.080660248E1,1.287569702E-1
2.973829039E0,5.647340417E-1,-1.075390244E1,1.952314973E-1
2.976292320E0,6.365984082E-1,-1.074431992E1,2.623049021E-1
2.978755653E0,7.994909883E-1,-1.080181122E1,2.958416045E-1
2.981218935E0,9.042931795E-1,-1.075390244E1,3.772878647E-1
2.983682268E0,1.038439989E0,-1.082097530E1,5.252086520E-1
2.986145549E0,1.234270334E0,-1.079222965E1,5.299996138E-1
2.988608882E0,1.349253297E0,-1.084013939E1,5.539544225E-1
2.991072164E0,1.301343679E0,-1.084972095E1,4.347793460E-1
2.993535497E0,1.445072412E0,-1.101680565E1,3.581240475E-1
2.995998778E0,1.440281510E0,-1.096470451E1,3.437511623E-1
2.998462112E0,1.392371893E0,-1.096949482E1,4.347793460E-1
3.000925393E0,1.282179832E0,-1.085930347E1,4.204064906E-1
3.003388726E0,1.119886160E0,-1.080660248E1,4.251974523E-1
3.005852007E0,1.014485121E0,-1.085930347E1,2.718868256E-1
3.008315341E0,1.019276142E0,-1.085451221E1,3.485421240E-1
3.010778622E0,9.522027373E-1,-1.084972095E1,4.204064906E-1
3.013241955E0,7.707452178E-1,-1.084013939E1,2.191862911E-1
3.015705289E0,5.264064074E-1,-1.077306557E1,1.287569702E-1
3.018168570E0,3.593217731E-1,-1.072994709E1,-1.006100997E-1
3.020631903E0,4.641239643E-1,-1.079702091E1,-1.389377564E-1
3.023095185E0,5.503612161E-1,-1.076348400E1,-1.533106267E-1
3.025558518E0,4.928697050E-1,-1.059160805E1,2.048134208E-1
3.028021799E0,6.605532169E-1,-1.068682861E1,4.677171707E-1
3.030485132E0,7.569712400E-1,-1.077366447E1,5.689261556E-1
3.032948414E0,6.994797587E-1,-1.078803730E1,6.497735381E-1
3.035411747E0,3.790844679E-1,-1.060598087E1,5.114346743E-1
3.037875028E0,6.827113777E-2,-1.034307766E1,4.108245671E-1
3.040338362E0,-9.462140501E-2,-1.030474949E1,2.868585587E-1
3.042801643E0,-3.287794292E-1,-1.029516792E1,1.670846343E-1
3.045264976E0,-4.629262388E-1,-1.022809410E1,1.287569702E-1
3.047728257E0,-6.012651324E-1,-1.010891914E1,1.239660159E-1
3.050191591E0,-6.875023246E-1,-1.004663658E1,1.383388788E-1
3.052654872E0,-5.533555150E-1,-1.002268219E1,3.533330858E-1
3.055118205E0,-5.725193620E-1,-9.902908325E0,5.401803851E-1
3.057581487E0,-7.114571333E-1,-9.783733368E0,8.270389438E-1
3.060044820E0,-7.785305381E-1,-9.663959503E0,1.003705502E0
3.062508101E0,-9.599879980E-1,-9.511247635E0,1.237863541E0
3.064971435E0,-8.791406155E-1,-9.463337898E0,1.476812482E0
3.067434716E0,-7.497847676E-1,-9.539993286E0,1.706179619E0
3.069898049E0,-6.779204011E-1,-9.506456375E0,2.079275370E0
3.072361330E0,-5.916832089E-1,-9.305236816E0,2.446981430E0
3.074824664E0,-3.048246503E-1,-9.233970642E0,2.648201466E0
3.077287945E0,-8.983044326E-2,-9.018378258E0,2.772167444E0
3.079751278E0,2.209828943E-1,-8.975857735E0,2.781749487E0
3.082214560E0,6.084515452E-1,-9.090242386E0,2.776958466E0
3.084677893E0,1.062993646E0,-9.405846596E0,2.657783508E0
3.087141174E0,1.546281457E0,-9.549574852E0,2.542800426E0
3.089604507E0,1.790021300E0,-9.439383507E0,2.413444519E0
3.092067789E0,1.990642667E0,-9.262716293E0,2.222405195E0
3.094531122E0,2.143953323E0,-9.123779297E0,1.925964713E0
3.096994403E0,2.339783669E0,-9.118988037E0,1.629524231E0
3.099457737E0,2.373320341E0,-9.109406471E0,1.161208272E0
3.101921018E0,2.387693167E0,-9.095032692E0,7.887113094E-1
3.104384351E0,2.411648035E0,-9.018378258E0,3.820788264E-1
3.106847632E0,2.378111362E0,-9.008795738E0,1.437287126E-2
3.109310966E0,2.378111362E0,-9.095032692E0,-8.144626766E-2
3.111774247E0,2.430811882E0,-9.047123909E0,-6.707339734E-2
3.114237580E0,2.488303423E0,-9.051914215E0,-4.790957272E-2
3.116700862E0,2.464348555E0,-9.027959824E0,8.563835919E-2
3.119164195E0,2.334992647E0,-9.013586998E0,2.533218563E-1
3.121627476E0,2.211026669E0,-9.023168564E0,3.629150093E-1
3.124090810E0,2.072088957E0,-9.128569603E0,4.491522312E-1
3.126554091E0,1.828348994E0,-9.171688080E0,4.683160484E-1
3.129017424E0,1.622337818E0,-9.200434685E0,3.533330858E-1
3.131480705E0,1.292360663E0,-9.233970642E0,2.533218563E-1
3.133944039E0,1.091739297E0,-9.338772774E0,1.622936726E-1
3.136407320E0,8.905191422E-1,-9.520829201E0,-2.395478636E-2
3.138870653E0,6.803159118E-1,-9.745405197E0,-4.497511089E-1
3.141333935E0,8.809372187E-1,-9.893326759E0,-2.485308945E-1
3.143797268E0,9.623835087E-1,-9.860388756E0,1.527117640E-1
3.146260549E0,9.623835087E-1,-9.692705154E0,4.347793460E-1
3.148723882E0,1.024665952E0,-9.582512856E0,7.935022712E-1
3.151187164E0,1.201931357E0,-9.535202026E0,9.989145398E-1
3.153650497E0,1.292360663E0,-9.511247635E0,1.070778966E0
3.156113778E0,1.426507473E0,-9.472919464E0,1.042033195E0
3.158577112E0,1.354643106E0,-9.448965073E0,9.174683094E-1
3.161040393E0,1.431298375E0,-9.477710724E0,7.982932329E-1
3.163503726E0,1.493580818E0,-9.386682510E0,8.312310576E-1
3.165967007E0,1.460044146E0,-9.396265030E0,9.030954242E-1
3.168430341E0,1.641501665E0,-9.468129158E0,1.051615119E0
3.170893622E0,2.014597416E0,-9.401055336E0,1.261818290E0
3.173356955E0,2.072088957E0,-9.448965073E0,1.428902984E0
3.175820237E0,2.028970242E0,-9.463337898E0,1.539094925E0
3.178283570E0,2.076879978E0,-9.663959503E0,1.744507194E0
3.180746955E0,2.124789476E0,-9.831643105E0,1.882846117E0
3.183210445E0,2.143953323E0,-9.998727798E0,1.892428041E0
3.185673882E0,2.134371281E0,-1.011371040E1,1.763671041E0
3.188137372E0,2.076879978E0,-1.016641140E1,1.639106154E0
3.190600862E0,2.000224590E0,-1.009454632E1,1.596586466E0
3.193064299E0,2.000224590E0,-9.946026802E0,1.380993366E0
3.195527789E0,2.100834608E0,-9.750196457E0,1.146835327E0
3.197991226E0,2.339783669E0,-9.654376984E0,8.839315772E-1
3.200454716E0,2.267919302E0,-9.778942108E0,5.353894830E-1
3.202918153E0,2.182281017E0,-9.960399628E0,1.383388788E-1
3.205381643E0,1.942733049E0,-9.893326759E0,3.293783069E-1
3.207845132E0,1.876258612E0,-9.807687759E0,6.162368655E-1
3.210308570E0,1.885840535E0,-9.869371414E0,5.114346743E-1
3.212772060E0,1.780439377E0,-9.888535500E0,4.731070101E-1
3.215235497E0,1.550473452E0,-9.860388756E0,6.258187890E-1
3.217698987E0,1.210914373E0,-9.802897453E0,7.599655390E-1
3.220162424E0,1.043829799E0,-9.974772453E0,8.599767685E-1
3.222625914E0,8.953101039E-1,-1.005621910E1,9.366320968E-1
3.225089403E0,6.132425070E-1,-9.936445236E0,9.414230585E-1
3.227552841E0,4.790956974E-1,-9.860388756E0,1.046824098E0
3.230016330E0,3.790844679E-1,-9.912489891E0,1.170790195E0
3.232479768E0,3.790844679E-1,-1.002747345E1,1.261818290E0
3.234943257E0,3.263839483E-1,-1.021851254E1,1.366620541E0
3.237406747E0,2.209828943E-1,-1.035265923E1,1.515140176E0
3.239870185E0,2.353557646E-1,-1.032391357E1,1.634315252E0
3.242333674E0,1.682823747E-1,-9.984354973E0,1.672642946E0
3.244797112E0,-3.593217814E-3,-9.644795418E0,1.587004542E0
3.247260601E0,-8.384174667E-3,-9.878953934E0,1.433693886E0
3.249724039E0,2.784743905E-1,-1.016581249E1,1.161208272E0
3.252187528E0,1.874461919E-1,-1.000830936E1,1.103716731E0
3.254651018E0,1.059999242E-1,-9.817270279E0,1.013287425E0
3.257114455E0,9.641800821E-2,-9.635213852E0,9.078863859E-1
3.259577945E0,8.683609962E-2,-9.582512856E0,8.456039429E-1
3.262041382E0,2.784743905E-1,-9.778942108E0,7.216379046E-1
3.264504872E0,6.180334687E-1,-9.998727798E0,5.731182694E-1
3.266968310E0,6.803159118E-1,-1.003705502E1,4.587341547E-1
3.269431799E0,6.036605835E-1,-9.922072411E0,3.054235280E-1
3.271895289E0,6.132425070E-1,-9.898117065E0,1.239660159E-1
3.274358726E0,6.755249500E-1,-9.941235542E0,5.210165679E-2
3.276822216E0,7.234345078E-1,-9.888535500E0,3.293782845E-2
3.279285653E0,9.001010656E-1,-1.017539406E1,-1.533106267E-1
3.281749143E0,1.230078220E0,-1.088804913E1,-6.503724456E-1
3.284212580E0,6.946887970E-1,-1.004663658E1,-1.439083695E0
3.286676070E0,-7.018752098E-1,-7.684695244E0,-2.380506754E0
3.289139560E0,-1.491185427E0,-6.207283974E0,-3.126099586E0
3.291602997E0,-8.264400959E-1,-7.311599255E0,-2.791930199E0
3.294066487E0,4.407680631E-1,-9.582512856E0,-1.534902930E0
3.296529924E0,1.144439816E0,-1.041494179E1,-4.257963002E-1
3.298993414E0,1.053411722E0,-9.912489891E0,1.143840998E-1
3.301456903E0,7.761350274E-1,-9.396265030E0,4.060336053E-1
3.303920341E0,8.521915078E-1,-9.290863991E0,5.827001333E-1
3.306383830E0,9.432196617E-1,-9.381891251E0,8.503949046E-1
3.308847268E0,8.713552952E-1,-9.343564034E0,1.180372000E0
3.311310757E0,8.090728521E-1,-9.401055336E0,1.587004542E0
3.313774195E0,8.090728521E-1,-9.396265030E0,1.988247156E0
3.316237685E0,9.144739509E-1,-9.305236816E0,2.084066391E0
3.318701174E0,9.863383174E-1,-9.243553162E0,1.930755734E0
3.321164612E0,1.134259105E0,-9.229180336E0,1.615151405E0
3.323628101E0,1.034247875E0,-9.095032692E0,1.276191235E0
3.326091539E0,1.106112242E0,-9.233970642E0,1.003705502E0
3.328555028E0,1.512145877E0,-9.620841026E0,7.982932329E-1
3.331018466E0,1.464835167E0,-9.635213852E0,4.108245671E-1
3.333481955E0,1.287569761E0,-9.912489891E0,2.335591614E-2
3.335945445E0,1.273196816E0,-1.002268219E1,-4.311861470E-2
3.338408882E0,1.067784548E0,-9.974772453E0,7.126548886E-2
3.340872372E0,1.024665952E0,-1.012808323E1,2.676947415E-1
3.343335810E0,9.767563939E-1,-1.018976688E1,5.353894830E-1
3.345799299E0,9.528015852E-1,-1.032391357E1,5.635363460E-1
3.348262737E0,1.029456854E0,-1.026642227E1,5.114346743E-1
3.350726226E0,8.090728521E-1,-1.018018532E1,2.676947415E-1
3.353189716E0,8.521915078E-1,-1.054848957E1,-3.832765669E-2
3.355653153E0,8.809372187E-1,-1.058202648E1,-1.676834971E-1
3.358116643E0,8.042819500E-1,-1.060598087E1,-3.395590782E-1
3.360580080E0,8.809372187E-1,-1.065389061E1,-5.641351938E-1
3.363043570E0,6.994797587E-1,-1.049099827E1,-7.839203477E-1
3.365507060E0,5.653329492E-1,-1.035745049E1,-8.893213868E-1
3.367970497E0,6.611520648E-1,-1.038619614E1,-9.132761955E-1
3.370433987E0,7.330164313E-1,-1.034786797E1,-8.749485612E-1
3.372897424E0,7.138525844E-1,-1.025684071E1,-7.982932329E-1
3.375360914E0,7.138525844E-1,-1.003226376E1,-8.030841947E-1
3.377824351E0,8.138638139E-1,-9.846015930E0,-6.887000799E-1
3.380287841E0,9.432196617E-1,-9.898117065E0,-5.449713469E-1
3.382751330E0,1.388179779E0,-1.059639931E1,-5.024515986E-1
3.385214768E0,1.909196377E0,-1.114616203E1,-6.934910417E-1
3.387678257E0,1.894823551E0,-1.089283943E1,-6.982820034E-1
3.390141695E0,1.794812322E0,-1.034307766E1,-5.162256360E-1
3.392605185E0,1.842123032E0,-1.005142784E1,-3.539319634E-1
3.395068622E0,1.894823551E0,-9.979563713E0,-1.197739244E-1
3.397532112E0,1.918778300E0,-9.893326759E0,5.689261481E-2
3.399995601E0,1.957105994E0,-9.807687759E0,3.245873451E-1
3.402459039E0,1.957105994E0,-9.721450806E0,5.683273077E-1
3.404922528E0,1.961896896E0,-9.663959503E0,8.456039429E-1
3.407385966E0,1.880450606E0,-9.659168243E0,1.008496523E0
3.409849455E0,1.713366032E0,-9.582512856E0,1.018078327E0
3.412312893E0,1.569637299E0,-9.463337898E0,1.018078327E0
3.414776382E0,1.397761703E0,-9.348355293E0,9.653778672E-1
3.417239872E0,1.359434128E0,-9.434592247E0,8.839315772E-1
3.419703310E0,1.359434128E0,-9.611258507E0,8.408129811E-1
3.422166799E0,1.373806953E0,-9.668749809E0,8.456039429E-1
3.424630237E0,1.426507473E0,-9.640004158E0,7.839203477E-1
3.427093726E0,1.364225030E0,-9.487293243E0,7.791293859E-1
3.429557216E0,1.268405914E0,-9.224389076E0,6.928921938E-1
3.432020653E0,1.177377701E0,-8.903993607E0,6.785193086E-1
3.434484143E0,6.851068735E-1,-7.861361504E0,6.593554616E-1
3.436947580E0,3.215929866E-1,-6.828311443E0,4.731070101E-1
3.439411070E0,3.359658718E-1,-6.613317490E0,3.341692686E-1
3.441874507E0,1.347456723E-1,-6.670808792E0,2.485308945E-1
3.444337997E0,3.413556889E-2,-6.976831436E0,3.772878647E-2
3.446801487E0,1.491185427E-1,-7.536175728E0,-1.197739244E-1
3.449264924E0,3.599206507E-1,-8.148220062E0,-4.257963002E-1
3.451728414E0,4.216042161E-1,-8.588389397E0,-8.126661181E-1
3.454191851E0,4.599318802E-1,-8.903993607E0,-9.707676768E-1
3.456655341E0,5.030505061E-1,-9.186060905E0,-1.286371946E0
3.459118778E0,3.832765818E-1,-9.247744560E0,-1.544484735E0
3.461582268E0,2.736834288E-1,-9.305236816E0,-1.783433795E0
3.464045757E0,8.204513788E-2,-9.329191208E0,-2.131975889E0
3.466509195E0,-5.629374459E-2,-9.338772774E0,-2.203840256E0
3.468972685E0,4.850843921E-2,-9.635213852E0,-1.984055161E0
3.471436122E0,1.299547106E-1,-9.907699585E0,-1.969682217E0
3.473899612E0,2.114009857E-1,-1.023767662E1,-1.845117331E0
3.476363049E0,2.497286350E-1,-1.024246693E1,-1.807388544E0
3.478826539E0,2.832653522E-1,-1.020893097E1,-1.807388544E0
3.481290028E0,3.359658718E-1,-1.003226376E1,-2.084066391E0
3.483753466E0,4.790956974E-1,-9.965190887E0,-2.524235487E0
3.486216955E0,6.180334687E-1,-9.845417023E0,-3.112325430E0
3.488680393E0,8.521915078E-1,-9.774150848E0,-3.747726202E0
3.491143882E0,1.024665952E0,-9.726242065E0,-3.943556547E0
3.493607320E0,1.067185640E0,-9.783733368E0,-3.671070814E0
3.496070810E0,1.196541548E0,-1.011371040E1,-3.030879259E0
3.498534299E0,1.076767564E0,-1.020893097E1,-2.031964779E0
3.500997737E0,9.144739509E-1,-1.029516792E1,-8.653666377E-1
3.503461226E0,7.324175835E-1,-1.054848957E1,3.868697882E-1
3.505924664E0,6.132425070E-1,-1.067305470E1,1.237863541E0
3.508388153E0,3.072201312E-1,-1.048141670E1,1.782834888E0
3.510851643E0,-4.192087334E-3,-1.027600384E1,2.007411003E0
3.513315080E0,-1.473219246E-1,-1.024246693E1,1.993038177E0
3.515778570E0,-3.910618722E-1,-9.979563713E0,2.012202024E0
3.518242007E0,-7.929034233E-1,-9.630422592E0,2.188868523E0
3.520705497E0,-1.151626348E0,-9.357936859E0,2.179286718E0
3.523168935E0,-1.314518809E0,-9.157315254E0,1.615151405E0
3.525632424E0,-1.261818290E0,-9.133360863E0,9.701688290E-1
3.528095914E0,-1.367219329E0,-9.075869560E0,6.114459038E-1
3.530559351E0,-1.500767350E0,-9.051914215E0,7.455927134E-1
3.533022841E0,-1.668450832E0,-8.999214172E0,1.361829519E0
3.535486278E0,-1.773851871E0,-9.104615211E0,2.222405195E0
3.537949768E0,-1.788224697E0,-9.252535820E0,3.078189850E0
3.540413205E0,-1.649286985E0,-9.731032372E0,3.971703529E0
3.542876695E0,-1.381592274E0,-1.050057983E1,4.707714081E0
3.545340185E0,-9.510049820E-1,-1.133300877E1,4.880188465E0
3.547803622E0,-5.347905755E-1,-1.194445515E1,4.574166298E0
3.550267112E0,-2.718868256E-1,-1.238941479E1,3.909420967E0
3.552730549E0,-1.616947949E-1,-1.259961796E1,2.820077181E0
3.555194039E0,3.413556889E-2,-1.296313190E1,1.515140176E0
3.557657476E0,-8.983044885E-3,-1.282000256E1,2.575139403E-1
3.560120966E0,-2.527229786E-1,-1.220795727E1,-1.070778966E0
3.562584455E0,-5.299996138E-1,-1.137552834E1,-2.213422060E0
3.565047893E0,-6.354007125E-1,-1.056286240E1,-3.341692686E0
3.567511382E0,-6.593554616E-1,-9.969982147E0,-4.292697430E0
3.569974820E0,-5.827001333E-1,-9.572931290E0,-5.177227974E0
3.572438310E0,-3.006325662E-1,-9.338772774E0,-5.746154308E0
3.574901799E0,1.682823747E-1,-9.205224991E0,-5.965939522E0
3.577365237E0,8.761462569E-1,-9.281281471E0,-6.037204742E0
3.579828726E0,1.540891528E0,-9.295654297E0,-5.822210789E0
3.582292164E0,2.196054935E0,-9.420219421E0,-5.487442493E0
3.584755653E0,2.732043266E0,-9.616049767E0,-5.033499241E0
3.587219091E0,3.085975170E0,-9.692705154E0,-4.546019554E0
3.589682580E0,3.363251925E0,-9.750196457E0,-4.077703476E0
3.592146070E0,3.430325270E0,-9.644795418E0,-3.412958145E0
3.594609507E0,3.300969362E0,-9.496874809E0,-2.806303024E0
3.597072997E0,3.233896017E0,-9.606468201E0,-2.165512562E0
3.599536435E0,3.406370401E0,-1.050537109E1,-1.558857679E0
3.601999924E0,3.856121540E0,-1.237025166E1,-1.328891754E0
3.604463362E0,3.176404476E0,-1.210734749E1,-7.653554082E-1
3.606926851E0,2.000224590E0,-1.077785683E1,-1.006100997E-1
3.609390341E0,1.249242067E0,-1.018018532E1,4.347793460E-1
3.611853778E0,7.419995070E-1,-1.021372128E1,7.168469429E-1
3.614317268E0,2.114009857E-1,-1.008975601E1,8.743496537E-1
3.616780705E0,-2.335591614E-1,-9.931653976E0,8.983044624E-1
3.619244195E0,-5.539544225E-1,-9.888535500E0,8.408129811E-1
3.621707632E0,-7.264288664E-1,-9.826252937E0,5.970730186E-1
3.624171122E0,-7.647565007E-1,-9.798106194E0,2.910506427E-1
3.626634612E0,-7.408017516E-1,-9.826252937E0,-2.395478636E-2
3.629098049E0,-6.497735381E-1,-9.840625763E0,-1.964292377E-1
3.631561539E0,-6.354007125E-1,-9.902908325E0,-3.443500400E-1
3.634024976E0,-5.779091716E-1,-9.984354973E0,-5.024515986E-1
3.636488466E0,-6.449825764E-1,-9.946026802E0,-6.455814838E-1
3.638951955E0,-5.827001333E-1,-9.955608368E0,-3.874686658E-1
3.641415393E0,-2.479320318E-1,-9.998727798E0,1.383388788E-1
3.643878882E0,3.689036965E-1,-1.022330379E1,5.347905755E-1
3.646342320E0,5.940786600E-1,-1.027121353E1,5.922820568E-1
3.648805810E0,6.180334687E-1,-1.010891914E1,3.102144599E-1
3.651269247E0,6.036605835E-1,-1.004184628E1,1.856495813E-2
3.653732737E0,6.276153922E-1,-1.006100941E1,-3.012314141E-1
3.656196226E0,7.180446982E-1,-1.000351810E1,-6.024628282E-1
3.658659664E0,8.569824696E-1,-9.869371414E0,-7.222367525E-1
3.661123153E0,1.028858066E0,-9.750196457E0,-8.078751564E-1
3.663586591E0,1.225287318E0,-9.711869240E0,-9.372310042E-1
3.666050080E0,1.377999067E0,-9.654376984E0,-9.851405621E-1
3.668513518E0,1.502563953E0,-9.525021553E0,-9.372310042E-1
3.670977007E0,1.689411283E0,-9.463337898E0,-9.516038299E-1
3.673440497E0,1.784631491E0,-9.482501984E0,-9.563947916E-1
3.675903935E0,1.765467644E0,-9.482501984E0,-9.372310042E-1
3.678367424E0,1.694202185E0,-9.415428162E0,-9.228581190E-1
3.680830810E0,1.560055375E0,-9.415428162E0,-8.462027907E-1
3.683294143E0,1.387580991E0,-9.391473770E0,-7.126548886E-1
3.685757476E0,1.206123471E0,-9.362728119E0,-6.359995604E-1
3.688220810E0,1.057603836E0,-9.353145599E0,-5.497623086E-1
3.690684143E0,9.336377382E-1,-9.401055336E0,-4.497511089E-1
3.693147476E0,8.378186226E-1,-9.453756332E0,-3.156042993E-1
3.695610810E0,6.940898895E-1,-9.468129158E0,-1.341467947E-1
3.698074143E0,6.126436591E-1,-9.534603119E0,-5.270052701E-2
3.700537476E0,5.749148726E-1,-9.601676941E0,1.622936726E-1
3.703000810E0,4.359771013E-1,-9.649586678E0,3.341692686E-1
3.705464143E0,3.497398794E-1,-9.731032372E0,3.820788264E-1
3.707927476E0,2.635026276E-1,-9.711869240E0,4.826889336E-1
3.710390810E0,1.874461919E-1,-9.731032372E0,5.683273077E-1
3.712854143E0,5.809035525E-2,-9.740614891E0,6.976830959E-1
3.715317476E0,-1.048021838E-1,-9.692705154E0,7.360107899E-1
3.717780810E0,-1.904405504E-1,-9.654376984E0,7.455927134E-1
3.720244143E0,-2.335591614E-1,-9.587304115E0,8.072762489E-1
3.722707476E0,-2.479320318E-1,-9.731032372E0,8.551858664E-1
3.725170810E0,-2.479320318E-1,-9.702286720E0,8.695586920E-1
3.727634143E0,-2.766777575E-1,-9.663959503E0,8.216491342E-1
3.730097476E0,-3.054235280E-1,-9.687913895E0,7.641576529E-1
3.732560810E0,-3.820788264E-1,-9.702286720E0,7.503836751E-1
3.735024195E0,-4.012426436E-1,-9.668749809E0,6.306097507E-1
3.737487528E0,-4.491522312E-1,-9.625631332E0,4.778979719E-1
3.739950862E0,-4.778979719E-1,-9.616049767E0,4.491522312E-1
3.742414195E0,-4.635250866E-1,-9.659168243E0,3.724969029E-1
3.744877528E0,-4.964629412E-1,-9.429800987E0,1.862484515E-1
3.747340862E0,-4.299883842E-1,-9.568140030E0,8.563835919E-2
3.749804195E0,-2.718868256E-1,-9.969982147E0,-1.497174054E-2
3.752267528E0,-2.575139403E-1,-1.006100941E1,-2.012201995E-1
3.754730862E0,-2.862596810E-1,-9.974772453E0,-1.820563674E-1
3.757194195E0,-2.718868256E-1,-9.821461678E0,-2.203840315E-1
3.759657528E0,-2.335591614E-1,-9.750196457E0,-1.964292377E-1
3.762120862E0,-2.143953294E-1,-9.716659546E0,-2.347569019E-1
3.764584195E0,-1.191750541E-1,-9.798106194E0,-1.437287182E-1
3.767047528E0,-5.210165679E-2,-9.840625763E0,-1.437287182E-1
3.769510862E0,5.988696357E-4,-9.840625763E0,-4.790957272E-2
3.771974195E0,2.934461273E-2,-9.807088852E0,2.814687230E-2
3.774437528E0,2.066100240E-1,-9.874162674E0,8.563835919E-2
3.776900862E0,2.491297722E-1,-9.946026802E0,4.731070250E-2
3.779364195E0,2.203840315E-1,-9.878953934E0,4.731070250E-2
3.781827528E0,2.635026276E-1,-9.893326759E0,5.689261481E-2
3.784290862E0,3.497398794E-1,-9.936445236E0,3.772878647E-2
3.786754195E0,4.790956974E-1,-9.931653976E0,1.377400197E-2
3.789217528E0,5.317962170E-1,-9.922072411E0,3.293782845E-2
3.791680914E0,5.222142935E-1,-9.979563713E0,-1.293558478E-1
3.794144247E0,5.605419874E-1,-9.946026802E0,-2.347569019E-1
3.796607580E0,6.126436591E-1,-1.002268219E1,-2.587116957E-1
3.799070914E0,6.078526974E-1,-1.001789093E1,-3.060223758E-1
3.801534247E0,6.461803317E-1,-9.941235542E0,-3.108133376E-1
3.803997580E0,6.461803317E-1,-9.907699585E0,-3.491410017E-1
3.806460914E0,6.413893700E-1,-9.955608368E0,-3.683048189E-1
3.808924247E0,5.982707739E-1,-9.936445236E0,-3.922595978E-1
3.811387580E0,4.503499568E-1,-9.683123589E0,-4.210053682E-1
3.813850914E0,5.413781404E-1,-9.840625763E0,-4.449601471E-1
3.816314247E0,5.461691022E-1,-1.005142784E1,-6.695362329E-1
3.818777580E0,4.072313607E-1,-9.974772453E0,-7.461915612E-1
3.821240914E0,3.353669941E-1,-9.898117065E0,-7.414005995E-1
3.823704247E0,3.066212535E-1,-9.874162674E0,-6.551634073E-1
3.826167580E0,2.970393300E-1,-9.840625763E0,-6.455814838E-1
3.828630914E0,3.209941387E-1,-9.826252937E0,-5.599430799E-1
3.831094247E0,2.778755128E-1,-9.850207329E0,-4.305872619E-1
3.833557580E0,2.922483683E-1,-9.850207329E0,-4.114234447E-1
3.836020914E0,3.401579559E-1,-9.821461678E0,-4.018415213E-1
3.838484247E0,3.305760324E-1,-9.816671371E0,-3.874686658E-1
3.840947580E0,3.545308113E-1,-9.859789848E0,-5.455702543E-1
3.843410914E0,4.168132544E-1,-9.859789848E0,-6.695362329E-1
3.845874299E0,3.880675137E-1,-9.854998589E0,-5.928809643E-1
3.848337632E0,3.593217731E-1,-9.883744240E0,-5.359883308E-1
3.850800966E0,3.114122152E-1,-9.750196457E0,-5.551521778E-1
3.853264299E0,3.162031770E-1,-9.778942108E0,-5.928809643E-1
3.855727632E0,3.257850707E-1,-9.859789848E0,-6.455814838E-1
3.858190966E0,3.066212535E-1,-9.888535500E0,-6.791181564E-1
3.860654299E0,2.395478487E-1,-9.912489891E0,-6.887000799E-1
3.863117632E0,1.539094895E-1,-9.902908325E0,-7.078639269E-1
3.865580966E0,7.725418359E-2,-9.850207329E0,-6.647452712E-1
3.868044299E0,7.725418359E-2,-9.888535500E0,-5.832990408E-1
3.870507632E0,-3.293782845E-2,-9.859789848E0,-5.785080791E-1
3.872970966E0,-1.143840998E-1,-9.941235542E0,-4.928697050E-1
3.875434299E0,-7.605644315E-2,-1.000351810E1,-3.826777041E-1
3.877897632E0,-1.431298405E-1,-9.974772453E0,-2.730845511E-1
3.880360966E0,-2.335591614E-1,-9.874162674E0,-1.964292377E-1
3.882824299E0,-2.143953294E-1,-9.926862717E0,-6.707339734E-2
3.885287632E0,-2.287681997E-1,-9.907699585E0,-6.707339734E-2
3.887750966E0,-1.622936726E-1,-9.874162674E0,-1.724744588E-1
3.890214299E0,-1.904405504E-1,-9.931653976E0,-3.156042993E-1
3.892677632E0,-2.000224590E-1,-9.883744240E0,-4.162144065E-1
3.895140966E0,-1.575027108E-1,-9.926862717E0,-5.168244839E-1
3.897604299E0,-1.239660159E-1,-9.845417023E0,-5.976719260E-1
3.900067632E0,-7.126548886E-2,-9.807088852E0,-5.737171173E-1
3.902531018E0,-2.335591614E-2,-9.864581108E0,-6.120447516E-1
3.904994351E0,4.371748492E-2,-9.893326759E0,-5.647340417E-1
3.907457685E0,1.012089700E-1,-9.874162674E0,-4.593330026E-1
3.909921018E0,5.809035525E-2,-9.787925720E0,-4.689149261E-1
3.912384351E0,3.413556889E-2,-9.802298546E0,-3.251862228E-1
3.914847685E0,7.725418359E-2,-9.821461678E0,-1.868473291E-1
3.917311018E0,-2.814687230E-2,-9.735823631E0,-4.850843921E-2
3.919774351E0,-5.210165679E-2,-9.640004158E0,9.042931348E-2
3.922237685E0,4.371748492E-2,-9.740614891E0,2.287681997E-1
3.924701018E0,3.413556889E-2,-9.687913895E0,3.245873451E-1
3.927164351E0,-5.689261481E-2,-9.477710724E0,4.491522312E-1
3.929627685E0,5.329939723E-2,-9.510648727E0,4.347793460E-1
3.932091018E0,1.155818403E-1,-9.548975945E0,4.251974523E-1
3.934554351E0,2.395478487E-1,-9.668749809E0,4.539431930E-1
3.937017685E0,2.347569019E-1,-9.668749809E0,3.150054216E-1
3.939481018E0,2.635026276E-1,-9.587304115E0,2.335591614E-1
3.941944351E0,3.066212535E-1,-9.558558464E0,2.383501083E-1
3.944407685E0,4.120223224E-1,-9.678332329E0,1.191750541E-1
3.946871018E0,4.647228420E-1,-9.711869240E0,2.814687230E-2
3.949334351E0,5.120335221E-1,-9.678332329E0,-2.934461273E-2
3.951797685E0,5.934798121E-1,-9.702286720E0,-5.809035525E-2
3.954261018E0,5.455702543E-1,-9.668749809E0,-1.101920158E-1
3.956724351E0,5.503612161E-1,-9.620841026E0,-6.707339734E-2
3.959187737E0,6.605532169E-1,-9.726242065E0,-4.371748492E-2
3.961651070E0,6.365984082E-1,-9.726242065E0,-1.437287182E-1
3.964114403E0,6.653441787E-1,-9.745405197E0,-2.251749784E-1
3.966577737E0,6.030617356E-1,-9.702286720E0,-1.724744588E-1
3.969041070E0,6.030617356E-1,-9.740614891E0,-2.778755128E-1
3.971504403E0,5.838978887E-1,-9.740614891E0,-2.491297722E-1
3.973967737E0,6.174346209E-1,-9.816671371E0,-2.635026276E-1
3.976431070E0,6.126436591E-1,-9.745405197E0,-2.299659401E-1
3.978894403E0,6.845079660E-1,-9.811880112E0,-2.251749784E-1
3.981357737E0,5.503612161E-1,-9.778343201E0,-2.970393300E-1
3.983821070E0,5.168244839E-1,-9.707077980E0,-3.162031770E-1
3.986284403E0,5.791069269E-1,-9.750196457E0,-3.395590782E-1
3.988747737E0,4.790956974E-1,-9.754987717E0,-3.874686658E-1
3.991211070E0,4.599318802E-1,-9.759778023E0,-4.114234447E-1
3.993674403E0,4.455589950E-1,-9.769360542E0,-3.347681165E-1
3.996137737E0,4.695138037E-1,-9.816671371E0,-1.293558478E-1
3.998601070E0,4.599318802E-1,-9.802298546E0,-5.329939723E-2
4.001064403E0,4.455589950E-1,-9.802298546E0,-3.892652690E-2
4.003527737E0,4.880787432E-1,-9.859789848E0,-1.497174054E-2
4.005991070E0,4.784968495E-1,-9.811880112E0,1.377400197E-2
4.008454403E0,5.024515986E-1,-9.864581108E0,-5.329939723E-2
4.010917737E0,5.791069269E-1,-9.888535500E0,-2.251749784E-1
4.013381122E0,6.318074465E-1,-9.888535500E0,-3.443500400E-1
4.015844455E0,6.605532169E-1,-9.950818062E0,-5.264064074E-1
4.018307789E0,7.132537365E-1,-9.998727798E0,-6.647452712E-1
4.020771122E0,6.701351404E-1,-1.000830936E1,-8.468016386E-1
4.023234455E0,6.653441787E-1,-1.003226376E1,-8.845304251E-1
4.025697789E0,6.318074465E-1,-1.004663658E1,-8.797395229E-1
4.028161122E0,6.413893700E-1,-1.004184628E1,-7.078639269E-1
4.030624455E0,7.180446982E-1,-1.004663658E1,-5.641351938E-1
4.033087789E0,7.372085452E-1,-1.000351810E1,-3.060223758E-1
4.035551122E0,8.042819500E-1,-1.003226376E1,-2.455365472E-2
4.038014455E0,8.378186226E-1,-1.006100941E1,3.293782845E-2
4.040477789E0,8.521915078E-1,-1.006580067E1,1.383388788E-1
4.042941122E0,8.857281804E-1,-1.002268219E1,5.156267285E-1
4.045404455E0,1.014485121E0,-9.969982147E0,8.168581724E-1
4.047867789E0,1.163004875E0,-9.926862717E0,9.414230585E-1
4.050331122E0,1.277987838E0,-9.941235542E0,1.041434288E0
4.052794455E0,1.392371893E0,-9.969982147E0,1.070180058E0
4.055257789E0,1.497772932E0,-9.955608368E0,9.222592115E-1
4.057721122E0,1.555264473E0,-9.969982147E0,7.216379046E-1
4.060184455E0,1.612755895E0,-9.941235542E0,4.635250866E-1
4.062647789E0,1.627128839E0,-9.922072411E0,3.437511623E-1
4.065111122E0,1.650484681E0,-9.898117065E0,1.622936726E-1
4.067574455E0,1.660066605E0,-9.859789848E0,1.239660159E-1
4.070037841E0,1.631919742E0,-9.835834503E0,1.000112295E-1
4.072501174E0,1.679230452E0,-9.793314934E0,1.479208022E-1
4.074964507E0,1.712767124E0,-9.716659546E0,2.054122835E-1
4.077427841E0,1.736721992E0,-9.707077980E0,3.150054216E-1
4.079891174E0,1.765467644E0,-9.769360542E0,3.006325662E-1
4.082354507E0,1.779840589E0,-9.778942108E0,2.431410700E-1
4.084817841E0,1.784631491E0,-9.816671371E0,1.479208022E-1
4.087281174E0,1.755885720E0,-9.893326759E0,-5.389826838E-3
4.089744507E0,1.688812375E0,-9.850207329E0,-9.581914544E-2
4.092207841E0,1.736721992E0,-9.850207329E0,-4.311861470E-2
4.094671174E0,1.741512895E0,-9.840625763E0,1.856495813E-2
4.097134507E0,1.660066605E0,-9.826252937E0,7.126548886E-2
4.099597841E0,1.473818183E0,-9.515439987E0,1.670846343E-1
4.102061174E0,1.387580991E0,-9.367518425E0,2.102032453E-1
4.104524507E0,1.627128839E0,-1.018976688E1,3.006325662E-1
4.106987841E0,1.669648528E0,-1.038140488E1,3.916607499E-1
4.109451174E0,1.473818183E0,-9.912489891E0,4.347793460E-1
4.111914507E0,1.368417144E0,-9.707077980E0,5.539544225E-1
4.114377841E0,1.373208046E0,-9.807088852E0,5.156267285E-1
4.116841174E0,1.244451046E0,-9.788524628E0,4.299883842E-1
4.119304507E0,1.148631930E0,-9.759778023E0,3.964517117E-1
4.121767841E0,1.105513334E0,-9.716659546E0,2.814687192E-1
4.124231226E0,1.095931411E0,-9.735823631E0,2.910506427E-1
4.126694560E0,1.076767564E0,-9.778942108E0,3.197963834E-1
4.129157893E0,9.857394099E-1,-9.759778023E0,2.670958638E-1
4.131621226E0,1.000112295E0,-9.726242065E0,1.479208022E-1
4.134084560E0,1.004903197E0,-9.759778023E0,1.143840998E-1
4.136547893E0,9.617846608E-1,-9.769360542E0,1.000112295E-1
4.139011226E0,9.857394099E-1,-9.759778023E0,3.772878647E-2
4.141474560E0,9.426208138E-1,-9.731032372E0,-4.790957272E-2
4.143937893E0,9.617846608E-1,-9.735823631E0,-1.006100997E-1
4.146401226E0,9.665755630E-1,-9.697496414E0,-1.485196650E-1
4.148864560E0,9.857394099E-1,-9.687913895E0,-3.892652690E-2
4.151327893E0,1.014485121E0,-9.692705154E0,-9.102818370E-2
4.153791226E0,1.086349487E0,-9.678332329E0,-5.749148503E-2
4.156254560E0,1.153422952E0,-9.731032372E0,4.251974449E-2
4.158717893E0,1.210914373E0,-9.754987717E0,6.647452712E-2
4.161181226E0,1.230078220E0,-9.716659546E0,1.239660159E-1
4.163644560E0,1.167795777E0,-9.726242065E0,1.048021838E-1
4.166107893E0,1.239660144E0,-9.835834503E0,9.522027522E-2
4.168571226E0,1.244451046E0,-9.816671371E0,1.383388788E-1
4.171034560E0,1.249242067E0,-9.802298546E0,1.910394132E-1
4.173497893E0,1.249242067E0,-9.845417023E0,1.287569702E-1
4.175961226E0,1.249242067E0,-9.850207329E0,2.102032453E-1
4.178424560E0,1.272598028E0,-9.874162674E0,2.287681997E-1
4.180887893E0,1.249242067E0,-9.883744240E0,2.143953294E-1
4.183351226E0,1.206123471E0,-9.878953934E0,2.335591614E-1
4.185814560E0,1.225287318E0,-9.845417023E0,1.958303750E-1
4.188277893E0,1.196541548E0,-9.845417023E0,1.766665429E-1
4.190741226E0,1.239660144E0,-9.835834503E0,1.431298405E-1
4.193204560E0,1.234869242E0,-9.802298546E0,1.000112295E-1
4.195667893E0,1.263016105E0,-9.807088852E0,4.251974449E-2
4.198131226E0,1.272598028E0,-9.778942108E0,-5.389826838E-3
4.200594560E0,1.267807007E0,-9.778942108E0,-7.186435908E-2
4.203057945E0,1.234869242E0,-9.745405197E0,-6.707339734E-2
4.205521278E0,1.253434181E0,-9.644795418E0,-1.389377564E-1
4.207984612E0,1.296552777E0,-9.697496414E0,-1.964292377E-1
4.210447945E0,1.315716624E0,-9.654376984E0,-2.347569019E-1
4.212911278E0,1.306134701E0,-9.678332329E0,-2.970393300E-1
4.215374612E0,1.277388930E0,-9.659168243E0,-3.587229252E-1
4.217837945E0,1.272598028E0,-9.625631332E0,-3.635138571E-1
4.220301278E0,1.243852258E0,-9.616049767E0,-3.491410017E-1
4.222764612E0,1.282179832E0,-9.644795418E0,-3.826777041E-1
4.225227945E0,1.306134701E0,-9.640004158E0,-4.257963002E-1
4.227691330E0,1.282179832E0,-9.640004158E0,-3.443500400E-1
4.230154664E0,1.253434181E0,-9.654376984E0,-2.491297722E-1
4.232617997E0,1.220496297E0,-9.668749809E0,-2.874574363E-1
4.235081330E0,1.239061236E0,-9.707077980E0,-2.922483683E-1
4.237544664E0,1.215705395E0,-9.745405197E0,-2.491297722E-1
4.240007997E0,1.153422952E0,-9.759778023E0,-2.539207339E-1
4.242471330E0,1.119886160E0,-9.787925720E0,-3.066212535E-1
4.244934664E0,1.024067044E0,-9.783733368E0,-2.155930698E-1
4.247397997E0,1.028858066E0,-9.759778023E0,-2.491297722E-1
4.249861330E0,9.617846608E-1,-9.797507286E0,-2.251749784E-1
4.252324716E0,9.042931795E-1,-9.821461678E0,-2.539207339E-1
4.254788049E0,8.138638139E-1,-9.807088852E0,-3.874686658E-1
4.257251382E0,7.467904091E-1,-9.821461678E0,-4.593330026E-1
4.259714716E0,7.180446982E-1,-9.807088852E0,-5.120335221E-1
4.262178049E0,6.222255230E-1,-9.840625763E0,-5.407792926E-1
4.264641382E0,5.695250034E-1,-9.835834503E0,-5.880900025E-1
4.267104716E0,5.503612161E-1,-9.845417023E0,-6.072537899E-1
4.269568049E0,4.886776209E-1,-9.807088852E0,-6.455814838E-1
4.272031382E0,4.359771013E-1,-9.826252937E0,-6.264176369E-1
4.274494768E0,4.455589950E-1,-9.869371414E0,-5.880900025E-1
4.276958101E0,4.120223224E-1,-9.845417023E0,-6.024628282E-1
4.279421435E0,4.551409185E-1,-9.902908325E0,-6.407905221E-1
4.281884768E0,4.982595444E-1,-9.874162674E0,-6.887000799E-1
4.284348101E0,5.168244839E-1,-9.893326759E0,-7.653554082E-1
4.286811435E0,4.695138037E-1,-9.941235542E0,-8.324288130E-1
4.289274768E0,4.934685826E-1,-9.926862717E0,-7.749373317E-1
4.291738101E0,4.886776209E-1,-9.984354973E0,-5.791069269E-1
4.294201435E0,4.647228420E-1,-9.859789848E0,-4.593330026E-1
4.296664768E0,4.072313607E-1,-9.826252937E0,-3.539319634E-1
4.299128153E0,3.641127348E-1,-9.802298546E0,-2.874574363E-1
4.301591487E0,3.353669941E-1,-9.854998589E0,-2.347569019E-1
4.304054820E0,3.401579559E-1,-9.878953934E0,-2.826664746E-1
4.306518153E0,3.545308113E-1,-9.883744240E0,-4.593330026E-1
4.308981487E0,4.599318802E-1,-9.950818062E0,-6.216266751E-1
4.311444820E0,4.647228420E-1,-9.922072411E0,-7.941011190E-1
4.313908153E0,5.934798121E-1,-9.907699585E0,-8.324288130E-1
4.316371487E0,6.845079660E-1,-9.898117065E0,-9.372310042E-1
4.318834820E0,7.611632943E-1,-9.869371414E0,-9.132761955E-1
4.321298153E0,7.372085452E-1,-9.859789848E0,-8.605756760E-1
4.323761539E0,7.228356600E-1,-9.745405197E0,-8.509937525E-1
4.326224872E0,6.988808513E-1,-9.620841026E0,-8.509937525E-1
4.328688205E0,6.749261022E-1,-9.659168243E0,-8.276378512E-1
4.331151539E0,7.132537365E-1,-9.898117065E0,-8.180559278E-1
4.333614872E0,6.126436591E-1,-9.893326759E0,-7.030729651E-1
4.336078205E0,5.407792926E-1,-9.707077980E0,-5.407792926E-1
4.338541539E0,5.647340417E-1,-9.592095375E0,-3.970505595E-1
4.341004872E0,5.551521778E-1,-9.616049767E0,-3.683048189E-1
4.343468205E0,5.120335221E-1,-9.616049767E0,-3.395590782E-1
4.345931591E0,4.455589950E-1,-9.630422592E0,-4.018415213E-1
4.348394924E0,3.257850707E-1,-9.663959503E0,-4.976606667E-1
4.350858257E0,2.682935894E-1,-9.668749809E0,-4.784968495E-1
4.353321591E0,2.826664746E-1,-9.726242065E0,-4.210053682E-1
4.355784924E0,2.874574363E-1,-9.787925720E0,-4.928697050E-1
4.358248257E0,2.682935894E-1,-9.787925720E0,-5.216154456E-1
4.360711591E0,2.922483683E-1,-9.783134460E0,-4.976606667E-1
4.363174924E0,2.443388104E-1,-9.859789848E0,-5.264064074E-1
4.365638257E0,2.251749784E-1,-9.854998589E0,-5.647340417E-1
4.368101591E0,2.587116957E-1,-9.883744240E0,-6.120447516E-1
4.370564976E0,2.395478487E-1,-9.917281151E0,-6.120447516E-1
4.373028310E0,2.635026276E-1,-9.917281151E0,-6.024628282E-1
4.375491643E0,3.162031770E-1,-9.936445236E0,-6.599543095E-1
4.377954976E0,3.449489176E-1,-9.931653976E0,-6.503724456E-1
4.380418310E0,3.305760324E-1,-9.917281151E0,-6.551634073E-1
4.382881643E0,4.216042161E-1,-9.936445236E0,-6.264176369E-1
4.385344976E0,2.730845511E-1,-9.486694336E0,-5.551521778E-1
4.387808310E0,2.539207339E-1,-9.410637856E0,-4.641239643E-1
4.390271643E0,7.084627748E-1,-1.059639931E1,-6.982820034E-1
4.392734976E0,7.228356600E-1,-1.074431992E1,-8.036830425E-1
4.395198362E0,5.599430799E-1,-1.002268219E1,-6.887000799E-1
4.397661695E0,5.311973691E-1,-9.960399628E0,-6.647452712E-1
4.400125028E0,5.503612161E-1,-1.005142784E1,-6.455814838E-1
4.402588362E0,4.832877815E-1,-9.907699585E0,-6.503724456E-1
4.405051695E0,2.443388104E-1,-9.271699905E0,-5.551521778E-1
4.407515028E0,4.832877815E-1,-9.926862717E0,-4.928697050E-1
4.409978362E0,7.755361795E-1,-1.055328083E1,-6.168357134E-1
4.412441695E0,6.988808513E-1,-1.029995918E1,-6.407905221E-1
4.414905028E0,5.311973691E-1,-9.898117065E0,-4.832877815E-1
4.417368414E0,5.311973691E-1,-9.845417023E0,-4.497511089E-1
4.419831747E0,5.695250034E-1,-9.845417023E0,-4.832877815E-1
4.422295080E0,5.743159652E-1,-9.726242065E0,-4.737058878E-1
4.424758414E0,4.024403989E-1,-9.429800987E0,-3.539319634E-1
4.427221747E0,3.593217731E-1,-9.310027122E0,-2.491297722E-1
4.429685080E0,6.461803317E-1,-1.007957458E1,-3.395590782E-1
4.432148414E0,7.324175835E-1,-1.026642227E1,-3.778867424E-1
4.434611747E0,5.934798121E-1,-9.888535500E0,-4.353782237E-1
4.437075080E0,5.168244839E-1,-9.616049767E0,-3.587229252E-1
4.439538414E0,5.024515986E-1,-9.635213852E0,-3.257850707E-1
4.442001799E0,4.737058878E-1,-9.606468201E0,-3.395590782E-1
4.444465132E0,4.072313607E-1,-9.520230293E0,-3.305760324E-1
4.446928466E0,4.024403989E-1,-9.401055336E0,-2.299659401E-1
4.449391799E0,4.024403989E-1,-9.401055336E0,-1.581015885E-1
4.451855132E0,4.311861396E-1,-9.486694336E0,-7.665531337E-2
4.454318466E0,5.072425604E-1,-9.596885681E0,-9.581914544E-2
4.456781799E0,5.695250034E-1,-9.792716026E0,-1.772654057E-1
4.459245132E0,5.455702543E-1,-9.792716026E0,-1.868473291E-1
4.461708466E0,4.216042161E-1,-9.678332329E0,-9.102818370E-2
4.464171799E0,4.880787432E-1,-9.606468201E0,-1.054010540E-1
4.466635185E0,5.359883308E-1,-9.596885681E0,-6.288131326E-2
4.469098518E0,5.791069269E-1,-9.663959503E0,-1.341467947E-1
4.471561851E0,6.030617356E-1,-9.640004158E0,-8.144626766E-2
4.474025185E0,6.557622552E-1,-9.702286720E0,-1.485196650E-1
4.476488518E0,7.132537365E-1,-9.683123589E0,-1.437287182E-1
4.478951851E0,7.228356600E-1,-9.687913895E0,-1.724744588E-1
4.481415185E0,7.988920808E-1,-9.735823631E0,-2.251749784E-1
4.483878518E0,7.899090648E-1,-9.654376984E0,-1.772654057E-1
4.486341851E0,8.995022178E-1,-9.768761635E0,-1.772654057E-1
4.488805237E0,8.899202943E-1,-9.745405197E0,-2.060111612E-1
4.491268570E0,9.378298521E-1,-9.759778023E0,-2.060111612E-1
4.493731903E0,1.009694219E0,-9.831044197E0,-2.491297722E-1
4.496195237E0,1.028858066E0,-9.816671371E0,-2.682935894E-1
4.498658570E0,1.124677181E0,-9.907699585E0,-2.491297722E-1
4.501121903E0,1.043230891E0,-9.807088852E0,-1.724744588E-1
4.503585237E0,1.110304356E0,-9.821461678E0,-1.485196650E-1
4.506048570E0,1.210315585E0,-9.878953934E0,-2.203840315E-1
4.508511903E0,1.195942640E0,-9.936445236E0,-2.682935894E-1
4.510975237E0,1.091140509E0,-9.807088852E0,-2.443388104E-1
4.513438622E0,1.186360717E0,-9.912489891E0,-3.257850707E-1
4.515901955E0,1.186360717E0,-9.922072411E0,-3.066212535E-1
4.518365289E0,1.176778793E0,-9.835834503E0,-3.874686658E-1
4.520828622E0,1.229479313E0,-9.874162674E0,-3.162031770E-1
4.523291955E0,1.282179832E0,-9.893326759E0,-3.635138571E-1
4.525755289E0,1.234270334E0,-9.878953934E0,-4.210053682E-1
4.528218622E0,1.248643160E0,-9.702286720E0,-3.587229252E-1
4.530681955E0,1.258225083E0,-9.587304115E0,-5.359883308E-1
4.533145289E0,1.205524564E0,-9.759778023E0,-5.024515986E-1
4.535608622E0,1.473818183E0,-1.011311150E1,-4.257963002E-1
4.538072007E0,1.592993259E0,-1.010352993E1,-3.209941387E-1
4.540535341E0,1.516337872E0,-9.917281151E0,-3.922595978E-1
4.542998674E0,1.377999067E0,-9.735823631E0,-3.401579559E-1
4.545462007E0,1.339671373E0,-9.616049767E0,-2.922483683E-1
4.547925341E0,1.535501719E0,-9.773552895E0,-3.826777041E-1
4.550388674E0,1.506755948E0,-9.735823631E0,-4.353782237E-1
4.552852007E0,1.506755948E0,-9.616049767E0,-6.312085986E-1
4.555315341E0,1.243852258E0,-9.515439987E0,-6.030617356E-1
4.557778674E0,1.430699587E0,-9.826252937E0,-6.030617356E-1
4.560242060E0,1.631320834E0,-9.974772453E0,-5.072425604E-1
4.562705393E0,1.506755948E0,-9.893326759E0,-4.066324830E-1
4.565168726E0,1.373208046E0,-9.854998589E0,-3.209941387E-1
4.567632060E0,1.272598028E0,-9.802298546E0,-3.353669941E-1
4.570095393E0,1.258225083E0,-9.864581108E0,-3.826777041E-1
4.572558726E0,1.200733662E0,-9.850207329E0,-3.449489176E-1
4.575022060E0,1.119886160E0,-9.816671371E0,-3.257850707E-1
4.577485393E0,1.133660197E0,-9.931653976E0,-4.066324830E-1
4.579948726E0,1.076767564E0,-9.874162674E0,-4.449601471E-1
4.582412060E0,1.024067044E0,-9.792716026E0,-3.778867424E-1
4.584875445E0,1.076767564E0,-9.783134460E0,-3.826777041E-1
4.587338778E0,9.905303717E-1,-9.731032372E0,-4.066324830E-1
4.589802112E0,1.009694219E0,-9.740614891E0,-3.922595978E-1
4.592265445E0,9.809484482E-1,-9.663959503E0,-4.832877815E-1
4.594728778E0,1.009694219E0,-9.587304115E0,-4.928697050E-1
4.597192112E0,9.330388904E-1,-9.520230293E0,-4.305872619E-1
4.599655445E0,9.953213334E-1,-9.444173813E0,-3.587229252E-1
4.602118778E0,8.468016386E-1,-9.095032692E0,-2.970393300E-1
4.604582112E0,8.372197747E-1,-8.850694656E0,-2.635026276E-1
4.607045445E0,9.569936991E-1,-8.879440308E0,-1.820563674E-1
4.609508830E0,9.522027373E-1,-8.941722870E0,-2.635026276E-1
4.611972164E0,9.090840816E-1,-8.927350044E0,-3.257850707E-1
4.614435497E0,8.563835621E-1,-8.984841347E0,-2.730845511E-1
4.616898830E0,8.372197747E-1,-8.980050087E0,-2.587116957E-1
4.619362164E0,7.893101573E-1,-9.032751083E0,-3.209941387E-1
4.621825497E0,7.036718130E-1,-9.104615211E0,-2.826664746E-1
4.624288830E0,6.940898895E-1,-9.171089172E0,-2.012201995E-1
4.626752164E0,6.030617356E-1,-9.214208603E0,-1.724744588E-1
4.629215497E0,5.216154456E-1,-9.295654297E0,-1.676834971E-1
4.631678882E0,3.784856200E-1,-9.324399948E0,-2.251749784E-1
4.634142216E0,3.784856200E-1,-9.457947731E0,-1.964292377E-1
4.636605549E0,2.587116957E-1,-9.481903076E0,-1.437287182E-1
4.639068882E0,1.676834971E-1,-9.548975945E0,-1.197739244E-1
4.641532216E0,1.676834971E-1,-9.592095375E0,-1.245648861E-1
4.643995549E0,1.676834971E-1,-9.620841026E0,-1.485196650E-1
4.646458882E0,1.101920158E-1,-9.692705154E0,-2.060111612E-1
4.648922216E0,3.353669867E-2,-9.735823631E0,-2.251749784E-1
4.651385549E0,7.665531337E-2,-9.768761635E0,-2.730845511E-1
4.653848882E0,1.245648861E-1,-9.778343201E0,-3.922595978E-1
4.656312268E0,1.197739244E-1,-9.778343201E0,-5.024515986E-1
4.658775601E0,7.186435908E-2,-9.826252937E0,-5.982707739E-1
4.661238935E0,2.874574251E-2,-9.854998589E0,-6.407905221E-1
4.663702268E0,2.395478636E-2,-9.821461678E0,-7.126548886E-1
4.666165601E0,5.749148503E-2,-9.831044197E0,-7.414005995E-1
4.668628935E0,8.623722941E-2,-9.831044197E0,-8.132649660E-1
4.671092268E0,1.054010540E-1,-9.893326759E0,-8.228468895E-1
4.673555601E0,2.874574251E-2,-9.859789848E0,-8.372197747E-1
4.676018935E0,4.311861470E-2,-9.811880112E0,-8.755474091E-1
4.678482268E0,9.581914544E-2,-9.878953934E0,-8.941123486E-1
4.680945601E0,1.006100997E-1,-9.893326759E0,-9.132761955E-1
4.683408882E0,1.245648861E-1,-9.917281151E0,-9.180671573E-1
4.685872164E0,9.581914544E-2,-9.926862717E0,-9.084852338E-1
4.688335445E0,1.006100997E-1,-9.979563713E0,-8.707564473E-1
4.690798726E0,1.389377564E-1,-9.989145279E0,-8.803383708E-1
4.693262007E0,1.676834971E-1,-9.965190887E0,-8.659654856E-1
4.695725289E0,1.964292377E-1,-1.000351810E1,-8.180559278E-1
4.698188622E0,2.108021080E-1,-9.974772453E0,-8.372197747E-1
4.700651903E0,2.443388104E-1,-9.984354973E0,-8.563835621E-1
4.703115185E0,2.299659401E-1,-9.955608368E0,-9.084852338E-1
4.705578466E0,2.778755128E-1,-9.960399628E0,-8.893213868E-1
4.708041747E0,2.347569019E-1,-9.902908325E0,-9.084852338E-1
4.710505028E0,2.874574363E-1,-9.936445236E0,-8.755474091E-1
4.712968310E0,2.539207339E-1,-9.907699585E0,-8.659654856E-1
4.715431591E0,2.299659401E-1,-9.936445236E0,-8.036830425E-1
4.717894872E0,2.395478487E-1,-9.902908325E0,-7.845191956E-1
4.720358153E0,2.491297722E-1,-9.859789848E0,-7.078639269E-1
4.722821487E0,2.299659401E-1,-9.831044197E0,-6.743271947E-1
4.725284768E0,2.060111612E-1,-9.759179115E0,-6.695362329E-1
4.727748049E0,1.916382909E-1,-9.816671371E0,-6.503724456E-1
4.730211330E0,1.485196650E-1,-9.811880112E0,-6.174346209E-1
4.732674612E0,1.868473291E-1,-9.759179115E0,-5.695250034E-1
4.735137893E0,1.293558478E-1,-9.726242065E0,-5.551521778E-1
4.737601174E0,1.341467947E-1,-9.754388809E0,-5.024515986E-1
4.740064455E0,1.341467947E-1,-9.740614891E0,-5.168244839E-1
4.742527737E0,1.197739244E-1,-9.673541069E0,-5.264064074E-1
4.744991018E0,1.389377564E-1,-9.707077980E0,-4.449601471E-1
4.747454299E0,1.676834971E-1,-9.683123589E0,-4.832877815E-1
4.749917632E0,2.012201995E-1,-9.654376984E0,-5.120335221E-1
4.752380914E0,1.868473291E-1,-9.711869240E0,-4.880787432E-1
4.754844195E0,2.060111612E-1,-9.711869240E0,-5.455702543E-1
4.757307476E0,2.155930698E-1,-9.673541069E0,-6.174346209E-1
4.759770757E0,2.587116957E-1,-9.731032372E0,-5.599430799E-1
4.762234039E0,2.108021080E-1,-9.702286720E0,-6.551634073E-1
4.764697320E0,2.395478487E-1,-9.687913895E0,-6.359995604E-1
4.767160601E0,2.203840315E-1,-9.659168243E0,-5.982707739E-1
4.769623882E0,2.251749784E-1,-9.649586678E0,-6.030617356E-1
4.772087164E0,2.443388104E-1,-9.721450806E0,-6.551634073E-1
4.774550445E0,2.203840315E-1,-9.711869240E0,-6.887000799E-1
4.777013778E0,2.395478487E-1,-9.697496414E0,-6.455814838E-1
4.779477060E0,2.491297722E-1,-9.702286720E0,-6.503724456E-1
4.781940341E0,1.820563674E-1,-9.692705154E0,-6.887000799E-1
4.784403622E0,1.533106267E-1,-9.711869240E0,-6.647452712E-1
4.786866903E0,1.820563674E-1,-9.744806290E0,-7.126548886E-1
4.789330185E0,2.203840315E-1,-9.697496414E0,-7.366096377E-1
4.791793466E0,1.437287182E-1,-9.716659546E0,-6.934910417E-1
4.794256747E0,1.964292377E-1,-9.754388809E0,-6.407905221E-1
4.796720028E0,2.922483683E-1,-9.759179115E0,-6.887000799E-1
4.799183310E0,2.730845511E-1,-9.740015984E0,-6.934910417E-1
4.801646643E0,2.443388104E-1,-9.740015984E0,-7.126548886E-1
4.804109924E0,2.826664746E-1,-9.754388809E0,-7.030729651E-1
4.806573205E0,3.066212535E-1,-9.783134460E0,-7.030729651E-1
4.809036487E0,2.874574363E-1,-9.787925720E0,-7.174458504E-1
4.811499768E0,2.970393300E-1,-9.763970375E0,-7.174458504E-1
4.813963049E0,2.874574363E-1,-9.778343201E0,-6.839091182E-1
4.816426330E0,3.491410017E-1,-9.754388809E0,-7.126548886E-1
4.818889612E0,3.730957806E-1,-9.797507286E0,-7.701463699E-1
4.821352893E0,3.970505595E-1,-9.797507286E0,-7.174458504E-1
4.823816174E0,3.922595978E-1,-9.802298546E0,-7.222367525E-1
4.826279455E0,4.066324830E-1,-9.840625763E0,-6.551634073E-1
4.828742789E0,4.401691854E-1,-9.811880112E0,-7.126548886E-1
4.831206070E0,4.497511089E-1,-9.821461678E0,-6.695362329E-1
4.833669351E0,4.018415213E-1,-9.826252937E0,-7.509825230E-1
4.836132632E0,4.114234447E-1,-9.826252937E0,-7.414005995E-1
4.838595914E0,4.162144065E-1,-9.831044197E0,-7.941011190E-1
4.841059195E0,4.305872619E-1,-9.854998589E0,-8.276378512E-1
4.843522476E0,4.784968495E-1,-9.869371414E0,-7.749373317E-1
4.845985757E0,4.928697050E-1,-9.888535500E0,-7.318186760E-1
4.848449039E0,5.024515986E-1,-9.898117065E0,-7.701463699E-1
4.850912320E0,5.695250034E-1,-9.878953934E0,-7.174458504E-1
4.853375653E0,5.982707739E-1,-9.898117065E0,-7.126548886E-1
4.855838935E0,6.701351404E-1,-9.917281151E0,-7.174458504E-1
4.858302216E0,6.653441787E-1,-9.922072411E0,-6.503724456E-1
4.860765497E0,6.887000799E-1,-9.931653976E0,-6.455814838E-1
4.863228778E0,7.509825230E-1,-9.984354973E0,-6.743271947E-1
4.865692060E0,7.605644464E-1,-9.950818062E0,-6.695362329E-1
4.868155341E0,7.845191956E-1,-9.955608368E0,-6.551634073E-1
4.870618622E0,8.084740043E-1,-9.926862717E0,-6.743271947E-1
4.873081903E0,8.276378512E-1,-9.965190887E0,-6.695362329E-1
4.875545185E0,8.468016386E-1,-9.950818062E0,-6.174346209E-1
4.878008466E0,8.468016386E-1,-9.922072411E0,-6.503724456E-1
4.880471799E0,8.372197747E-1,-9.869371414E0,-6.695362329E-1
4.882935080E0,8.611745238E-1,-9.845417023E0,-5.838978887E-1
4.885398362E0,8.755474091E-1,-9.859789848E0,-6.318074465E-1
4.887861643E0,8.659654856E-1,-9.816671371E0,-6.455814838E-1
4.890324924E0,8.995022178E-1,-9.840625763E0,-6.503724456E-1
4.892788205E0,8.420107365E-1,-9.821461678E0,-6.318074465E-1
4.895251487E0,8.420107365E-1,-9.783134460E0,-6.839091182E-1
4.897714768E0,8.611745238E-1,-9.778343201E0,-6.174346209E-1
4.900178049E0,8.899202943E-1,-9.740015984E0,-6.503724456E-1
4.902641330E0,8.707564473E-1,-9.749597549E0,-6.503724456E-1
4.905104612E0,8.420107365E-1,-9.711869240E0,-6.934910417E-1
4.907567945E0,8.372197747E-1,-9.735224724E0,-6.551634073E-1
4.910031226E0,8.228468895E-1,-9.721450806E0,-6.743271947E-1
4.912494507E0,8.084740043E-1,-9.668749809E0,-6.365984082E-1
4.914957789E0,8.180559278E-1,-9.721450806E0,-6.503724456E-1
4.917421070E0,8.324288130E-1,-9.744806290E0,-6.695362329E-1
4.919884351E0,8.084740043E-1,-9.735224724E0,-6.599543095E-1
4.922347632E0,8.324288130E-1,-9.702286720E0,-6.222255230E-1
4.924810914E0,8.563835621E-1,-9.740015984E0,-6.551634073E-1
4.927274195E0,8.324288130E-1,-9.740015984E0,-6.887000799E-1
4.929737476E0,8.707564473E-1,-9.735224724E0,-6.743271947E-1
4.932200810E0,8.803383708E-1,-9.778343201E0,-6.887000799E-1
4.934664091E0,8.851293325E-1,-9.811880112E0,-6.982820034E-1
4.937127372E0,8.851293325E-1,-9.797507286E0,-7.126548886E-1
4.939590653E0,9.569936991E-1,-9.854998589E0,-7.126548886E-1
4.942053935E0,9.522027373E-1,-9.826252937E0,-6.887000799E-1
4.944517216E0,9.474117756E-1,-9.826252937E0,-6.934910417E-1
4.946980497E0,9.905303717E-1,-9.874162674E0,-6.647452712E-1
4.949443778E0,9.809484482E-1,-9.821461678E0,-6.647452712E-1
4.951907060E0,1.000112295E0,-9.859789848E0,-6.791181564E-1
4.954370341E0,9.953213334E-1,-9.859789848E0,-6.413893700E-1
4.956833622E0,1.018677235E0,-9.859789848E0,-6.413893700E-1
4.959296955E0,1.047423005E0,-9.878953934E0,-5.838978887E-1
4.961760237E0,1.042631984E0,-9.850207329E0,-6.270164847E-1
4.964223518E0,1.028259158E0,-9.840625763E0,-5.934798121E-1
4.966686799E0,1.057004929E0,-9.845417023E0,-5.311973691E-1
4.969150080E0,1.071377754E0,-9.811880112E0,-5.838978887E-1
4.971613362E0,1.109705448E0,-9.802298546E0,-5.455702543E-1
4.974076643E0,1.104914427E0,-9.807088852E0,-5.216154456E-1
4.976539924E0,1.052213907E0,-9.768761635E0,-5.120335221E-1
4.979003205E0,1.076168776E0,-9.783134460E0,-5.216154456E-1
4.981466487E0,1.061795831E0,-9.749597549E0,-5.407792926E-1
4.983929768E0,1.104914427E0,-9.783134460E0,-4.784968495E-1
4.986393101E0,1.100123525E0,-9.749597549E0,-5.168244839E-1
4.988856382E0,1.071377754E0,-9.754388809E0,-5.599430799E-1
4.991319664E0,1.104914427E0,-9.754388809E0,-5.311973691E-1
4.993782945E0,1.104914427E0,-9.792716026E0,-4.976606667E-1
4.996246226E0,1.085750699E0,-9.797507286E0,-5.455702543E-1
4.998709507E0,1.085750699E0,-9.735224724E0,-5.934798121E-1
5.001172789E0,9.899315238E-1,-9.659168243E0,-6.126436591E-1
5.003636070E0,9.899315238E-1,-9.749597549E0,-5.695250034E-1
5.006099351E0,1.018677235E0,-9.807088852E0,-6.126436591E-1
5.008562632E0,9.857394099E-1,-9.759179115E0,-6.174346209E-1
5.011025966E0,9.186660051E-1,-9.802298546E0,-6.030617356E-1
5.013489247E0,9.138750434E-1,-9.816671371E0,-5.455702543E-1
5.015952528E0,8.899202943E-1,-9.816671371E0,-6.030617356E-1
5.018415810E0,8.899202943E-1,-9.792716026E0,-6.413893700E-1
5.020879091E0,8.036830425E-1,-9.840625763E0,-5.599430799E-1
5.023342372E0,7.893101573E-1,-9.869371414E0,-5.886888504E-1
5.025805653E0,7.893101573E-1,-9.854998589E0,-5.838978887E-1
5.028268935E0,8.036830425E-1,-9.835834503E0,-5.743159652E-1
5.030732216E0,8.228468895E-1,-9.797507286E0,-5.743159652E-1
5.033195497E0,8.132649660E-1,-9.816671371E0,-5.886888504E-1
5.035658778E0,7.653554082E-1,-9.792716026E0,-5.264064074E-1
5.038122112E0,7.078639269E-1,-9.807088852E0,-5.551521778E-1
5.040585393E0,7.414005995E-1,-9.783134460E0,-5.743159652E-1
