"Time (s)","Acceleration x (m/s^2)","Acceleration y (m/s^2)","Acceleration z (m/s^2)"
7.300616000E-3,3.009999990E-1,1.009899998E1,5.260000229E-1
9.800710000E-3,2.939999998E-1,1.008500004E1,4.880000055E-1
1.230107300E-2,3.400000036E-1,1.009899998E1,5.460000038E-1
1.480143600E-2,3.249999881E-1,1.002999973E1,4.309999943E-1
1.730179900E-2,3.560000062E-1,1.005099964E1,4.469999969E-1
1.980216200E-2,3.680000007E-1,1.006799984E1,3.849999905E-1
2.230252500E-2,3.249999881E-1,9.998999596E0,5.170000196E-1
2.480288800E-2,3.589999974E-1,9.987000465E0,4.690000117E-1
2.730325100E-2,3.350000083E-1,1.001799965E1,4.350000024E-1
2.980361400E-2,3.350000083E-1,1.001500034E1,5.379999876E-1
3.230397700E-2,3.799999952E-1,1.005399990E1,5.000000000E-1
3.480434000E-2,3.869999945E-1,9.944000244E0,5.310000181E-1
3.730470300E-2,2.939999998E-1,9.998999596E0,4.930000007E-1
3.980506600E-2,3.950000107E-1,1.002700043E1,5.619999766E-1
4.230542900E-2,3.639999926E-1,1.002000046E1,5.289999843E-1
4.480579200E-2,4.070000052E-1,1.001099968E1,5.289999843E-1
4.730615500E-2,2.919999957E-1,1.007499981E1,5.139999986E-1
4.980651800E-2,3.709999919E-1,1.001799965E1,5.189999938E-1
5.230688100E-2,3.059999943E-1,1.002999973E1,4.070000052E-1
5.480724400E-2,3.300000131E-1,1.002000046E1,5.580000281E-1
5.730760700E-2,3.899999857E-1,1.011600018E1,5.220000148E-1
5.980797000E-2,2.579999864E-1,1.005099964E1,5.019999743E-1
6.230833300E-2,3.319999874E-1,1.005399990E1,4.550000131E-1
6.480869600E-2,2.700000107E-1,1.003899956E1,5.910000205E-1
6.730905900E-2,3.079999983E-1,1.006299973E1,4.670000076E-1
6.980942200E-2,3.440000117E-1,1.007800007E1,5.600000024E-1
7.230978500E-2,3.300000131E-1,1.012300014E1,5.720000267E-1
7.481014800E-2,4.020000100E-1,1.014999962E1,5.649999976E-1
7.731051100E-2,4.040000141E-1,1.021199989E1,5.310000181E-1
7.981087400E-2,3.179999888E-1,1.010599995E1,5.979999900E-1
8.231123700E-2,3.230000138E-1,1.012300014E1,4.950000048E-1
8.481160000E-2,3.519999981E-1,1.014700031E1,5.580000281E-1
8.731196300E-2,3.680000007E-1,1.014000034E1,6.100000143E-1
8.985380900E-2,3.639999926E-1,1.017800045E1,5.770000219E-1
9.235780900E-2,3.589999974E-1,1.009899998E1,6.029999852E-1
9.485604000E-2,4.020000100E-1,1.018999958E1,5.580000281E-1
9.736004000E-2,2.939999998E-1,1.013500023E1,5.550000072E-1
9.985823200E-2,3.779999912E-1,1.008300018E1,5.000000000E-1
1.023623090E-1,3.610000014E-1,1.016199970E1,5.220000148E-1
1.048604620E-1,3.540000021E-1,1.013300037E1,5.049999952E-1
1.073645390E-1,3.869999945E-1,1.013799953E1,6.010000110E-1
1.098627700E-1,4.160000086E-1,1.021199989E1,5.740000010E-1
1.123667700E-1,3.799999952E-1,1.004899979E1,4.379999936E-1
1.148650010E-1,3.420000076E-1,1.008500004E1,5.550000072E-1
1.173690780E-1,2.630000114E-1,9.972000122E0,1.554000020E0
1.198672630E-1,3.779999912E-1,1.016600037E1,-4.140000045E-1
1.223713400E-1,3.400000036E-1,9.871999741E0,1.468000054E0
1.248695700E-1,4.210000038E-1,1.029100037E1,-5.260000229E-1
1.273735700E-1,3.540000021E-1,9.963000298E0,1.550999999E0
1.298717960E-1,3.729999959E-1,1.017800045E1,-3.709999919E-1
1.323757960E-1,3.919999897E-1,9.902999878E0,1.524999976E0
1.348740270E-1,3.950000107E-1,1.028100014E1,-4.950000048E-1
1.373781040E-1,3.779999912E-1,9.902999878E0,1.503999949E0
1.398762580E-1,4.550000131E-1,1.023799992E1,-4.900000095E-1
1.423803530E-1,3.919999897E-1,9.901000023E0,1.555999994E0
1.448785830E-1,4.309999943E-1,1.022599983E1,-5.619999766E-1
1.473825830E-1,3.420000076E-1,9.866999626E0,1.524999976E0
1.498808140E-1,3.829999864E-1,1.024800014E1,-4.740000069E-1
1.523848860E-1,3.300000131E-1,9.968000412E0,1.598999977E0
1.548830400E-1,3.490000069E-1,1.027700043E1,-4.259999990E-1
1.573871170E-1,4.309999943E-1,9.901000023E0,1.712000012E0
1.598852710E-1,3.400000036E-1,1.017800045E1,-5.479999781E-1
1.623893480E-1,3.400000036E-1,9.934000015E0,1.646999955E0
1.648875740E-1,4.350000024E-1,1.021199989E1,-6.079999804E-1
1.673915740E-1,3.639999926E-1,9.907999992E0,1.595000029E0
1.698898040E-1,4.379999936E-1,1.032699966E1,-6.370000243E-1
1.723938810E-1,3.319999874E-1,1.003499985E1,1.656999946E0
1.748920550E-1,4.140000045E-1,1.021700001E1,-5.649999976E-1
1.773961320E-1,3.869999945E-1,1.002299976E1,1.654000044E0
1.798943630E-1,3.709999919E-1,1.025000000E1,-5.960000157E-1
1.823983630E-1,3.589999974E-1,1.004199982E1,1.661999941E0
1.848965260E-1,3.680000007E-1,1.033600044E1,-5.239999890E-1
1.874006020E-1,3.490000069E-1,1.006799984E1,1.641999960E0
1.898987560E-1,4.230000079E-1,1.033199978E1,-5.410000086E-1
1.924028330E-1,3.109999895E-1,1.004399967E1,1.702000022E0
1.949009870E-1,3.950000107E-1,1.031999969E1,-5.600000024E-1
1.974050590E-1,2.770000100E-1,1.005399990E1,1.641999960E0
1.999032900E-1,4.259999990E-1,1.027700043E1,-5.580000281E-1
2.024073670E-1,3.869999945E-1,1.010900021E1,1.603999972E0
2.049055210E-1,4.040000141E-1,1.034799957E1,-5.239999890E-1
2.074096170E-1,3.849999905E-1,1.002999973E1,1.511000037E0
2.099077700E-1,3.919999897E-1,1.028100014E1,-5.479999781E-1
2.124118470E-1,3.160000145E-1,1.007299995E1,1.654000044E0
2.149100780E-1,2.870000005E-1,1.035299969E1,-5.699999928E-1
2.174140780E-1,3.319999874E-1,1.000800037E1,1.527999997E0
2.199123040E-1,4.280000031E-1,1.027400017E1,-5.289999843E-1
2.224163810E-1,3.109999895E-1,1.001299953E1,1.565999985E0
2.249145350E-1,4.589999914E-1,1.018099976E1,-6.439999938E-1
2.274186120E-1,3.639999926E-1,9.994000435E0,1.638000011E0
2.299168320E-1,4.740000069E-1,1.025500011E1,-6.169999838E-1
2.324208320E-1,3.280000091E-1,9.944000244E0,1.550999999E0
2.349190630E-1,4.160000086E-1,1.013799953E1,-6.489999890E-1
2.374231400E-1,3.400000036E-1,9.838000298E0,1.633000016E0
2.399212950E-1,4.210000038E-1,1.020199966E1,-5.220000148E-1
2.424253720E-1,3.129999936E-1,9.916999817E0,1.597000003E0
2.449235260E-1,4.620000124E-1,1.009000015E1,-6.560000181E-1
2.474276030E-1,3.300000131E-1,9.880999565E0,1.685999990E0
2.499258230E-1,4.350000024E-1,1.002299976E1,-4.830000103E-1
2.524299000E-1,3.109999895E-1,9.765999794E0,1.675999999E0
2.549280540E-1,4.230000079E-1,1.009000015E1,-5.479999781E-1
2.574321310E-1,4.210000038E-1,9.814000130E0,1.697999954E0
2.599302850E-1,4.449999928E-1,1.008300018E1,-5.019999743E-1
2.624343520E-1,3.109999895E-1,9.909999847E0,1.639999986E0
2.649325830E-1,4.230000079E-1,1.010900021E1,-5.360000134E-1
2.674365830E-1,3.779999912E-1,9.911999702E0,1.628000021E0
2.699348130E-1,5.120000243E-1,1.013500023E1,-4.760000110E-1
2.724388900E-1,3.109999895E-1,9.940999985E0,1.621000051E0
2.749370440E-1,4.329999983E-1,1.016199970E1,-4.880000055E-1
2.774411210E-1,2.989999950E-1,9.960000038E0,1.651999950E0
2.799393520E-1,5.049999952E-1,1.009899998E1,-4.309999943E-1
2.824433430E-1,3.799999952E-1,9.970000267E0,1.527999997E0
2.849415740E-1,4.379999936E-1,1.016600037E1,-4.469999969E-1
2.874456510E-1,3.540000021E-1,1.002299976E1,1.585000038E0
2.899438040E-1,3.249999881E-1,1.018099976E1,-4.709999859E-1
2.924478810E-1,3.519999981E-1,1.004699993E1,1.697999954E0
2.949461020E-1,4.709999859E-1,1.010900021E1,-3.869999945E-1
2.974501020E-1,3.039999902E-1,1.001299953E1,1.618999958E0
2.999483330E-1,4.230000079E-1,1.012300014E1,-5.070000291E-1
3.024524100E-1,2.649999857E-1,9.991999626E0,1.493999958E0
3.049505260E-1,4.230000079E-1,1.013300037E1,-4.210000038E-1
3.074546030E-1,3.639999926E-1,9.984000206E0,1.603999972E0
3.099528330E-1,3.680000007E-1,1.010900021E1,-5.479999781E-1
3.124569100E-1,2.460000068E-1,1.006599998E1,1.587000012E0
3.149550640E-1,4.259999990E-1,1.009899998E1,-3.829999864E-1
3.174591070E-1,2.080000043E-1,9.987000465E0,1.623000026E0
3.199572610E-1,4.620000124E-1,1.011800003E1,-3.799999952E-1
3.224613380E-1,3.779999912E-1,1.002999973E1,1.580000043E0
3.249595690E-1,4.569999874E-1,1.016600037E1,-4.309999943E-1
3.274635450E-1,2.579999864E-1,1.001299953E1,1.590000033E0
3.299617760E-1,4.550000131E-1,1.014700031E1,-4.140000045E-1
3.324658520E-1,2.630000114E-1,1.000800037E1,1.513000011E0
3.349640060E-1,4.550000131E-1,1.009000015E1,-4.379999936E-1
3.374680830E-1,2.730000019E-1,9.987000465E0,1.460000038E0
3.399663090E-1,4.469999969E-1,1.013300037E1,-4.040000141E-1
3.424703090E-1,2.319999933E-1,1.007299995E1,1.518000007E0
3.449685400E-1,4.790000021E-1,1.009899998E1,-3.869999945E-1
3.474726170E-1,2.389999926E-1,1.006299973E1,1.445999980E0
3.499707570E-1,3.869999945E-1,1.017599964E1,-4.429999888E-1
3.524748330E-1,1.889999956E-1,1.003199959E1,1.463000059E0
3.549730640E-1,4.210000038E-1,1.009500027E1,-5.049999952E-1
3.574771410E-1,2.770000100E-1,1.009200001E1,1.401000023E0
3.599753520E-1,4.760000110E-1,1.009000015E1,-4.900000095E-1
3.624794290E-1,2.700000107E-1,1.002000046E1,1.486999989E0
3.649775830E-1,5.170000196E-1,1.000800037E1,-3.829999864E-1
3.674816600E-1,3.059999943E-1,1.005399990E1,1.404999971E0
3.699798910E-1,4.519999921E-1,1.007999992E1,-4.040000141E-1
3.724838910E-1,2.389999926E-1,1.009700012E1,1.445999980E0
3.749821210E-1,5.289999843E-1,1.008699989E1,-3.490000069E-1
3.774861980E-1,3.179999888E-1,1.003199959E1,1.432000041E0
3.799843520E-1,4.880000055E-1,1.010400009E1,-4.230000079E-1
3.824884250E-1,2.249999940E-1,1.004199982E1,1.274000049E0
3.849866560E-1,5.339999795E-1,1.021399975E1,-3.160000145E-1
3.874907330E-1,2.800000012E-1,1.006299973E1,1.402999997E0
3.899888870E-1,5.019999743E-1,1.012600040E1,-3.249999881E-1
3.924929640E-1,2.890000045E-1,1.013300037E1,1.401000023E0
3.949911980E-1,4.930000007E-1,1.011400032E1,-3.589999974E-1
3.974951980E-1,2.849999964E-1,1.010900021E1,1.468000054E0
3.999934290E-1,5.019999743E-1,1.014000034E1,-3.759999871E-1
4.024975060E-1,3.230000138E-1,1.012600040E1,1.355000019E0
4.049956600E-1,5.099999905E-1,1.010599995E1,-4.090000093E-1
4.074997370E-1,2.849999964E-1,1.011600018E1,1.391000032E0
4.099979680E-1,5.000000000E-1,1.014000034E1,-3.639999926E-1
4.125019680E-1,2.460000068E-1,1.010200024E1,1.391000032E0
4.150002130E-1,4.790000021E-1,1.010599995E1,-3.490000069E-1
4.175042900E-1,3.179999888E-1,1.015699959E1,1.340999961E0
4.200024440E-1,4.690000117E-1,1.008699989E1,-2.800000012E-1
4.225065210E-1,2.890000045E-1,1.014200020E1,1.439000010E0
4.250047370E-1,5.310000181E-1,1.005399990E1,-1.480000019E-1
4.275087370E-1,2.849999964E-1,1.011600018E1,1.302000046E0
4.300069680E-1,4.189999998E-1,9.953000069E0,-2.370000035E-1
4.325110450E-1,2.939999998E-1,1.011800003E1,1.366999984E0
4.350092030E-1,4.880000055E-1,9.987000465E0,-2.409999967E-1
4.375132800E-1,2.319999933E-1,1.007999992E1,1.292999983E0
4.400115110E-1,5.619999766E-1,9.979999542E0,-2.489999980E-1
4.425155880E-1,3.230000138E-1,1.009700012E1,1.333999991E0
4.450137420E-1,5.070000291E-1,9.946000099E0,-8.600000292E-2
4.475178330E-1,2.680000067E-1,9.996000290E0,1.245000005E0
4.500159870E-1,3.709999919E-1,1.004399967E1,-1.500000060E-1
4.525200640E-1,2.700000107E-1,1.004699993E1,1.389000058E0
4.550182940E-1,4.740000069E-1,1.006599998E1,-1.099999994E-1
4.575223760E-1,2.870000005E-1,1.007800007E1,1.266000032E0
4.600205300E-1,5.220000148E-1,1.002999973E1,-1.909999996E-1
4.625246070E-1,2.700000107E-1,1.012800026E1,1.324000001E0
4.650227610E-1,5.429999828E-1,1.004199982E1,-2.269999981E-1
4.675268380E-1,2.529999912E-1,1.012600040E1,1.269000053E0
4.700250690E-1,4.379999936E-1,1.002700043E1,-1.190000027E-1
4.725291460E-1,2.919999957E-1,1.009899998E1,1.271000028E0
4.750272990E-1,5.310000181E-1,9.951000214E0,-9.099999815E-2
4.775313760E-1,3.109999895E-1,1.007100010E1,1.235000014E0
4.800296160E-1,5.019999743E-1,1.003699970E1,-1.700000018E-1
4.825336160E-1,2.529999912E-1,1.011100006E1,1.238000035E0
4.850318470E-1,4.329999983E-1,1.005399990E1,-8.100000024E-2
4.875359240E-1,2.220000029E-1,1.004899979E1,1.156000018E0
4.900340780E-1,4.900000095E-1,1.000599957E1,-1.379999965E-1
4.925381840E-1,1.959999949E-1,1.021700001E1,1.245000005E0
4.950364140E-1,4.690000117E-1,9.939000130E0,-9.099999815E-2
4.975404910E-1,2.460000068E-1,1.010900021E1,1.182999969E0
5.000386450E-1,5.019999743E-1,1.001500034E1,-6.199999899E-2
5.025427500E-1,2.460000068E-1,1.019699955E1,1.161000013E0
5.050409040E-1,4.639999866E-1,1.000800037E1,-1.239999980E-1
5.075449810E-1,2.249999940E-1,1.015699959E1,1.041000009E0
5.100432120E-1,4.930000007E-1,1.001500034E1,-6.199999899E-2
5.125472890E-1,2.630000114E-1,1.014000034E1,1.118000031E0
5.150454470E-1,5.239999890E-1,1.002000046E1,-6.899999827E-2
5.175495240E-1,2.080000043E-1,1.024800014E1,1.075000048E0
5.200477550E-1,4.329999983E-1,1.005900002E1,-1.120000035E-1
5.225517550E-1,2.370000035E-1,1.026000023E1,9.720000029E-1
5.250499810E-1,4.449999928E-1,1.000800037E1,-1.550000012E-1
5.275540580E-1,3.709999919E-1,1.019299984E1,9.959999919E-1
5.300522120E-1,4.469999969E-1,1.000100040E1,-7.100000232E-2
5.325562890E-1,2.080000043E-1,1.018799973E1,1.031999946E0
5.350545000E-1,5.189999938E-1,1.006599998E1,-9.799999744E-2
5.375585770E-1,1.979999989E-1,1.023799992E1,1.039000034E0
5.400567310E-1,4.309999943E-1,9.960000038E0,-6.199999899E-2
5.425608080E-1,2.269999981E-1,1.027900028E1,1.041000009E0
5.450590390E-1,5.289999843E-1,1.002999973E1,-5.700000003E-2
5.475630440E-1,2.870000005E-1,1.022900009E1,9.670000076E-1
5.500612750E-1,4.830000103E-1,9.965000153E0,-2.000000095E-3
5.525653520E-1,2.989999950E-1,1.029800034E1,9.620000124E-1
5.550635050E-1,5.000000000E-1,1.000599957E1,-3.099999949E-2
5.575675680E-1,3.039999902E-1,1.018099976E1,9.670000076E-1
5.600657990E-1,4.830000103E-1,9.935999870E0,8.999999613E-3
5.625697990E-1,2.800000012E-1,1.019699955E1,9.649999738E-1
5.650680300E-1,4.860000014E-1,9.970000267E0,4.000000190E-3
5.675721070E-1,3.009999990E-1,1.021700001E1,8.980000019E-1
5.700702560E-1,5.669999719E-1,9.895999908E0,9.300000221E-2
5.725743330E-1,2.509999871E-1,1.022599983E1,8.619999886E-1
5.750725630E-1,6.250000000E-1,9.963000298E0,1.700000018E-1
5.775766400E-1,3.440000117E-1,1.026700020E1,9.190000296E-1
5.800747990E-1,4.790000021E-1,9.902999878E0,9.799999744E-2
5.825788760E-1,2.610000074E-1,1.022099972E1,8.330000043E-1
5.850771070E-1,5.619999766E-1,9.975000381E0,3.999999911E-2
5.875811070E-1,2.509999871E-1,1.021199989E1,8.019999862E-1
5.900793230E-1,4.830000103E-1,9.984000206E0,7.599999756E-2
5.925834000E-1,2.269999981E-1,1.026200008E1,8.709999919E-1
5.950815530E-1,4.950000048E-1,9.866999626E0,1.000000015E-1
5.975856300E-1,3.039999902E-1,1.024300003E1,8.999999762E-1
6.000838610E-1,4.790000021E-1,9.927000046E0,9.300000221E-2
6.025879440E-1,2.290000021E-1,1.022399998E1,8.109999895E-1
6.050860980E-1,5.410000086E-1,9.890999794E0,1.120000035E-1
6.075901750E-1,2.610000074E-1,1.024499989E1,8.140000105E-1
6.100884060E-1,4.309999943E-1,9.911999702E0,1.379999965E-1
6.125924350E-1,2.099999934E-1,1.025500011E1,8.709999919E-1
6.150906650E-1,4.830000103E-1,9.963000298E0,2.049999982E-1
6.175947420E-1,4.090000093E-1,1.001299953E1,5.099999905E-1
6.200928960E-1,3.829999864E-1,1.012100029E1,3.919999897E-1
6.225969730E-1,4.160000086E-1,1.013300037E1,4.379999936E-1
6.250952130E-1,3.639999926E-1,1.009500027E1,5.669999719E-1
6.275992900E-1,4.329999983E-1,1.014000034E1,4.550000131E-1
6.300974440E-1,3.470000029E-1,1.011800003E1,4.519999921E-1
6.326015210E-1,3.009999990E-1,1.013000011E1,4.499999881E-1
6.350997660E-1,3.639999926E-1,1.001500034E1,4.569999874E-1
6.376037660E-1,3.470000029E-1,1.000300026E1,5.000000000E-1
6.401019970E-1,3.950000107E-1,1.009500027E1,5.910000205E-1
6.426060740E-1,3.779999912E-1,1.005399990E1,5.000000000E-1
6.451042410E-1,3.440000117E-1,1.005399990E1,4.880000055E-1
6.476083180E-1,3.560000062E-1,9.996000290E0,4.350000024E-1
6.501065490E-1,3.729999959E-1,1.009200001E1,4.469999969E-1
6.526106260E-1,3.319999874E-1,1.005599976E1,4.880000055E-1
6.551088080E-1,4.140000045E-1,1.009000015E1,4.550000131E-1
6.576128850E-1,2.849999964E-1,1.007999992E1,4.399999976E-1
6.601111160E-1,3.470000029E-1,1.005099964E1,4.670000076E-1
6.626151160E-1,3.799999952E-1,1.014700031E1,4.550000131E-1
6.651133470E-1,3.370000124E-1,1.006099987E1,5.120000243E-1
6.676174240E-1,3.989999890E-1,1.010400009E1,5.669999719E-1
6.701155780E-1,3.540000021E-1,1.011800003E1,4.639999866E-1
6.726196550E-1,3.470000029E-1,1.002299976E1,3.950000107E-1
6.751178850E-1,3.400000036E-1,1.010900021E1,5.360000134E-1
6.776219520E-1,3.249999881E-1,1.013500023E1,4.259999990E-1
6.801201060E-1,2.870000005E-1,1.008699989E1,4.900000095E-1
6.826241830E-1,3.589999974E-1,1.015200043E1,4.309999943E-1
6.851224140E-1,3.249999881E-1,1.010400009E1,4.110000134E-1
6.876264140E-1,3.370000124E-1,1.012100029E1,4.569999874E-1
6.901246450E-1,2.989999950E-1,1.014500046E1,4.070000052E-1
6.926287220E-1,3.350000083E-1,1.020499992E1,4.589999914E-1
6.951268750E-1,2.820000052E-1,1.016899967E1,4.900000095E-1
6.976309520E-1,2.800000012E-1,1.008300018E1,4.860000014E-1
7.001291930E-1,3.199999928E-1,1.023299980E1,5.220000148E-1
7.026332700E-1,3.420000076E-1,1.011100006E1,4.550000131E-1
7.051314240E-1,3.179999888E-1,1.017099953E1,5.239999890E-1
7.076355010E-1,2.730000019E-1,1.015400028E1,4.160000086E-1
7.101337560E-1,3.079999983E-1,1.014999962E1,5.600000024E-1
7.126377560E-1,2.939999998E-1,1.017599964E1,4.469999969E-1
7.151359860E-1,2.319999933E-1,1.019299984E1,4.790000021E-1
7.176400630E-1,3.230000138E-1,1.015400028E1,6.290000081E-1
7.201382170E-1,4.189999998E-1,1.011400032E1,4.449999928E-1
7.226422890E-1,3.179999888E-1,1.016199970E1,4.639999866E-1
7.251405200E-1,3.709999919E-1,1.014000034E1,5.099999905E-1
7.276445970E-1,3.300000131E-1,1.003499985E1,5.699999928E-1
7.301427510E-1,3.490000069E-1,1.022399998E1,5.239999890E-1
7.326468330E-1,3.869999945E-1,1.014200020E1,5.500000119E-1
7.351450630E-1,3.230000138E-1,1.007100010E1,5.479999781E-1
7.376491400E-1,3.869999945E-1,1.006299973E1,4.860000014E-1
7.401472940E-1,4.329999983E-1,1.006299973E1,4.830000103E-1
7.426513710E-1,4.399999976E-1,1.006599998E1,4.309999943E-1
7.451495060E-1,3.470000029E-1,1.006799984E1,5.720000267E-1
7.476535830E-1,3.709999919E-1,1.007299995E1,4.639999866E-1
7.501518140E-1,4.090000093E-1,1.006799984E1,4.670000076E-1
7.526558910E-1,4.329999983E-1,1.010599995E1,5.809999704E-1
7.551540430E-1,3.470000029E-1,1.016600037E1,4.350000024E-1
7.576581200E-1,3.779999912E-1,1.002999973E1,4.740000069E-1
7.601563510E-1,4.090000093E-1,1.013300037E1,4.350000024E-1
7.626604280E-1,4.020000100E-1,1.007999992E1,5.170000196E-1
7.651585820E-1,4.639999866E-1,1.007100010E1,5.479999781E-1
7.676626590E-1,3.950000107E-1,1.004399967E1,5.360000134E-1
7.701608900E-1,4.140000045E-1,1.007100010E1,5.410000086E-1
7.726648900E-1,3.899999857E-1,1.009500027E1,5.979999900E-1
7.751631200E-1,3.919999897E-1,1.004399967E1,4.810000062E-1
7.776671830E-1,2.770000100E-1,1.007100010E1,4.449999928E-1
7.801653370E-1,3.420000076E-1,1.003699970E1,5.360000134E-1
7.826694140E-1,3.370000124E-1,1.000599957E1,4.880000055E-1
7.851676450E-1,3.849999905E-1,1.003899956E1,5.339999795E-1
7.876716450E-1,3.199999928E-1,9.991999626E0,4.930000007E-1
7.901698610E-1,4.280000031E-1,9.901000023E0,6.079999804E-1
7.926739380E-1,3.470000029E-1,1.004699993E1,5.500000119E-1
7.951721680E-1,3.950000107E-1,9.968000412E0,5.379999876E-1
7.976762450E-1,4.469999969E-1,9.968000412E0,4.160000086E-1
8.001743750E-1,4.160000086E-1,9.970000267E0,4.900000095E-1
8.026784520E-1,3.919999897E-1,1.001799965E1,5.289999843E-1
8.051766830E-1,3.039999902E-1,9.928999901E0,5.889999866E-1
8.076806830E-1,2.649999857E-1,1.001799965E1,5.669999719E-1
8.101789050E-1,2.730000019E-1,1.003899956E1,5.550000072E-1
8.126829820E-1,3.319999874E-1,1.001099968E1,4.670000076E-1
8.151811350E-1,3.849999905E-1,1.006299973E1,4.860000014E-1
8.176852120E-1,3.160000145E-1,9.970000267E0,4.429999888E-1
8.201834280E-1,3.680000007E-1,1.003199959E1,5.070000291E-1
8.226875050E-1,3.680000007E-1,1.010400009E1,3.249999881E-1
8.251856590E-1,3.729999959E-1,1.012600040E1,4.550000131E-1
8.276897360E-1,3.849999905E-1,1.003499985E1,4.550000131E-1
8.301879620E-1,4.429999888E-1,1.009500027E1,4.639999866E-1
8.326919620E-1,3.610000014E-1,1.011100006E1,5.500000119E-1
8.351901920E-1,3.659999967E-1,1.008500004E1,4.569999874E-1
8.376942690E-1,3.560000062E-1,1.004899979E1,4.589999914E-1
8.401924230E-1,2.680000067E-1,1.018999958E1,4.709999859E-1
8.426964960E-1,3.869999945E-1,1.008699989E1,4.070000052E-1
8.451947270E-1,3.560000062E-1,1.009000015E1,4.090000093E-1
8.476988040E-1,3.350000083E-1,1.007499981E1,4.399999976E-1
8.501969580E-1,3.540000021E-1,1.016600037E1,4.140000045E-1
8.527010390E-1,3.829999864E-1,1.007800007E1,3.779999912E-1
8.551992690E-1,3.829999864E-1,1.007100010E1,3.350000083E-1
8.577033460E-1,3.779999912E-1,1.014700031E1,4.350000024E-1
8.602015000E-1,3.440000117E-1,1.008500004E1,4.230000079E-1
8.627055770E-1,3.610000014E-1,1.009500027E1,3.179999888E-1
8.652038040E-1,2.939999998E-1,1.002000046E1,5.120000243E-1
8.677078810E-1,2.989999950E-1,1.005099964E1,3.680000007E-1
8.702060350E-1,3.079999983E-1,1.009200001E1,3.950000107E-1
8.727101120E-1,3.350000083E-1,9.982000351E0,4.210000038E-1
8.752083220E-1,3.440000117E-1,1.002000046E1,5.429999828E-1
8.777123220E-1,3.589999974E-1,1.007100010E1,4.449999928E-1
8.802105530E-1,3.350000083E-1,1.010599995E1,5.289999843E-1
8.827146300E-1,3.400000036E-1,1.007800007E1,4.569999874E-1
8.852127510E-1,3.540000021E-1,1.012300014E1,4.280000031E-1
8.877168280E-1,3.319999874E-1,1.016399956E1,5.289999843E-1
8.902150590E-1,3.420000076E-1,1.018999958E1,4.860000014E-1
8.927190590E-1,2.870000005E-1,1.011800003E1,3.680000007E-1
8.952172890E-1,3.659999967E-1,1.017399979E1,4.810000062E-1
8.977213900E-1,3.659999967E-1,1.018299961E1,5.000000000E-1
9.002196210E-1,3.589999974E-1,1.012600040E1,5.070000291E-1
9.027236210E-1,3.589999974E-1,1.005599976E1,5.070000291E-1
9.052218520E-1,3.009999990E-1,1.012100029E1,4.379999936E-1
9.077259240E-1,3.829999864E-1,1.004199982E1,4.259999990E-1
9.102241550E-1,2.610000074E-1,1.003899956E1,4.880000055E-1
9.127281550E-1,3.440000117E-1,1.012100029E1,4.020000100E-1
9.152263850E-1,3.350000083E-1,1.006599998E1,6.150000095E-1
9.177304620E-1,3.589999974E-1,1.007999992E1,3.639999926E-1
9.202286350E-1,3.709999919E-1,1.002299976E1,4.309999943E-1
9.227327120E-1,3.129999936E-1,1.002999973E1,5.000000000E-1
9.252309430E-1,4.210000038E-1,1.002299976E1,5.500000119E-1
9.277350200E-1,4.160000086E-1,1.009500027E1,5.019999743E-1
9.302331880E-1,3.639999926E-1,1.014999962E1,5.220000148E-1
9.327372650E-1,3.280000091E-1,1.011100006E1,4.670000076E-1
9.352354950E-1,3.230000138E-1,1.013300037E1,4.259999990E-1
9.377394950E-1,2.870000005E-1,1.009000015E1,4.259999990E-1
9.402377260E-1,3.280000091E-1,1.010900021E1,5.019999743E-1
9.427418030E-1,2.800000012E-1,1.005099964E1,4.589999914E-1
9.452400340E-1,3.540000021E-1,1.007999992E1,5.070000291E-1
9.477441110E-1,3.540000021E-1,1.010900021E1,4.790000021E-1
9.502422650E-1,3.370000124E-1,1.015200043E1,4.760000110E-1
9.527463470E-1,3.560000062E-1,1.013500023E1,5.070000291E-1
9.552445770E-1,3.729999959E-1,1.014000034E1,5.049999952E-1
9.577485770E-1,3.919999897E-1,1.016899967E1,4.709999859E-1
9.602468080E-1,4.210000038E-1,1.007499981E1,3.970000148E-1
9.627508750E-1,3.420000076E-1,1.015400028E1,4.399999976E-1
9.652490290E-1,2.800000012E-1,1.018099976E1,4.550000131E-1
9.677531060E-1,3.919999897E-1,1.006099987E1,5.460000038E-1
9.702513370E-1,3.540000021E-1,1.012600040E1,5.019999743E-1
9.727554140E-1,4.070000052E-1,1.013500023E1,4.860000014E-1
9.752535480E-1,4.309999943E-1,1.001799965E1,4.790000021E-1
9.777576250E-1,3.639999926E-1,1.012300014E1,4.090000093E-1
9.802558560E-1,3.589999974E-1,9.989000320E0,5.669999719E-1
9.827599330E-1,4.020000100E-1,1.009899998E1,3.350000083E-1
9.852580820E-1,3.709999919E-1,1.008699989E1,4.950000048E-1
9.877621590E-1,4.230000079E-1,1.008699989E1,4.429999888E-1
9.902603900E-1,3.519999981E-1,1.000599957E1,4.979999959E-1
9.927643900E-1,4.110000134E-1,1.004199982E1,4.519999921E-1
9.952626160E-1,4.210000038E-1,1.010400009E1,4.499999881E-1
9.977666930E-1,3.799999952E-1,1.009000015E1,3.610000014E-1
1.000264924E0,4.160000086E-1,1.004699993E1,4.690000117E-1
1.002768924E0,3.280000091E-1,1.005900002E1,5.580000281E-1
1.005267154E0,3.950000107E-1,9.996000290E0,4.639999866E-1
1.007771231E0,3.490000069E-1,1.007299995E1,4.709999859E-1
1.010269385E0,3.709999919E-1,1.009700012E1,5.580000281E-1
1.012773462E0,3.729999959E-1,1.009200001E1,4.350000024E-1
1.015271692E0,3.950000107E-1,1.009899998E1,4.790000021E-1
1.017775779E0,3.470000029E-1,1.008699989E1,4.880000055E-1
1.020274010E0,4.230000079E-1,1.010400009E1,4.740000069E-1
1.022778010E0,3.659999967E-1,1.007100010E1,3.540000021E-1
1.025276241E0,3.440000117E-1,1.003499985E1,5.120000243E-1
1.027780289E0,3.709999919E-1,1.012600040E1,4.569999874E-1
1.030278443E0,3.829999864E-1,1.009899998E1,4.550000131E-1
1.032782519E0,3.989999890E-1,1.007299995E1,5.000000000E-1
1.035280750E0,4.210000038E-1,1.012600040E1,4.160000086E-1
1.037784827E0,3.490000069E-1,1.018599987E1,4.519999921E-1
1.040282976E0,3.109999895E-1,1.004199982E1,4.309999943E-1
1.042787053E0,3.639999926E-1,1.009200001E1,4.810000062E-1
1.045285284E0,4.309999943E-1,1.006599998E1,3.540000021E-1
1.047789284E0,4.020000100E-1,1.006599998E1,5.099999905E-1
1.050287515E0,3.490000069E-1,1.009899998E1,4.499999881E-1
1.052791625E0,3.709999919E-1,1.010200024E1,4.189999998E-1
1.055289856E0,4.449999928E-1,1.013300037E1,5.529999733E-1
1.057793856E0,4.070000052E-1,1.013300037E1,4.860000014E-1
1.060292087E0,4.690000117E-1,1.012300014E1,5.049999952E-1
1.062796159E0,3.919999897E-1,1.011400032E1,5.460000038E-1
1.065294313E0,3.470000029E-1,1.007100010E1,5.049999952E-1
1.067798390E0,3.490000069E-1,1.012800026E1,4.070000052E-1
1.070296621E0,3.779999912E-1,1.008699989E1,4.810000062E-1
1.072800673E0,3.470000029E-1,1.007800007E1,4.950000048E-1
1.075298827E0,3.319999874E-1,1.014200020E1,5.889999866E-1
1.077802904E0,3.779999912E-1,1.009200001E1,4.880000055E-1
1.080301135E0,3.680000007E-1,1.018299961E1,5.239999890E-1
1.082805193E0,4.230000079E-1,1.010900021E1,4.280000031E-1
1.085303347E0,3.610000014E-1,1.015699959E1,4.550000131E-1
1.087807424E0,3.610000014E-1,1.007499981E1,5.049999952E-1
1.090305654E0,3.319999874E-1,1.003699970E1,4.790000021E-1
1.092809731E0,3.799999952E-1,1.009899998E1,6.150000095E-1
1.095307885E0,4.070000052E-1,1.002999973E1,5.460000038E-1
1.097811962E0,3.919999897E-1,1.011400032E1,4.790000021E-1
1.100310193E0,3.950000107E-1,1.006299973E1,4.690000117E-1
1.102814270E0,3.540000021E-1,1.007999992E1,4.810000062E-1
1.105312414E0,4.309999943E-1,1.003499985E1,5.289999843E-1
1.107816491E0,3.709999919E-1,1.004399967E1,4.810000062E-1
1.110314721E0,4.020000100E-1,1.001500034E1,5.099999905E-1
1.112818721E0,4.140000045E-1,1.011600018E1,5.929999948E-1
1.115316952E0,4.550000131E-1,1.000300026E1,5.809999704E-1
1.117821029E0,3.370000124E-1,1.008500004E1,5.289999843E-1
1.120319183E0,4.259999990E-1,1.002299976E1,4.670000076E-1
1.122823260E0,3.160000145E-1,1.015400028E1,5.929999948E-1
1.125321491E0,4.620000124E-1,1.010200024E1,5.809999704E-1
1.127825506E0,3.589999974E-1,1.008699989E1,5.529999733E-1
1.130323736E0,4.589999914E-1,1.012100029E1,5.789999962E-1
1.132827736E0,4.259999990E-1,1.005900002E1,4.639999866E-1
1.135325967E0,3.400000036E-1,1.013500023E1,5.289999843E-1
1.137830044E0,3.400000036E-1,1.005399990E1,5.720000267E-1
1.140328202E0,3.919999897E-1,1.018299961E1,4.469999969E-1
1.142832279E0,3.869999945E-1,1.017800045E1,4.930000007E-1
1.145330510E0,4.280000031E-1,1.013500023E1,5.619999766E-1
1.147834587E0,3.540000021E-1,1.019299984E1,6.219999790E-1
1.150332784E0,4.070000052E-1,1.014200020E1,4.690000117E-1
1.152836861E0,3.950000107E-1,1.006599998E1,5.139999986E-1
1.155335092E0,4.160000086E-1,1.007100010E1,3.989999890E-1
1.157839169E0,3.950000107E-1,1.004199982E1,3.610000014E-1
1.160337342E0,4.469999969E-1,1.009899998E1,5.120000243E-1
1.162841419E0,3.989999890E-1,1.009500027E1,4.740000069E-1
1.165339650E0,4.429999888E-1,1.012800026E1,4.639999866E-1
1.167843650E0,4.429999888E-1,1.014999962E1,4.639999866E-1
1.170341875E0,4.589999914E-1,1.002999973E1,5.379999876E-1
1.172845952E0,4.499999881E-1,1.008500004E1,5.170000196E-1
1.175344183E0,4.230000079E-1,1.008500004E1,5.479999781E-1
1.177848183E0,4.210000038E-1,1.005399990E1,5.260000229E-1
1.180346419E0,4.090000093E-1,1.002700043E1,4.350000024E-1
1.182850496E0,3.109999895E-1,1.004399967E1,5.120000243E-1
1.185348727E0,3.759999871E-1,1.007299995E1,4.830000103E-1
1.187852727E0,3.829999864E-1,1.006299973E1,5.529999733E-1
1.190350957E0,4.309999943E-1,1.014200020E1,5.289999843E-1
1.192855039E0,4.110000134E-1,1.006099987E1,5.649999976E-1
1.195353193E0,3.249999881E-1,9.996000290E0,5.099999905E-1
1.197857270E0,3.950000107E-1,1.014200020E1,3.989999890E-1
1.200355501E0,3.950000107E-1,1.010400009E1,5.379999876E-1
1.202859616E0,3.639999926E-1,1.005399990E1,5.410000086E-1
1.205357847E0,4.210000038E-1,9.991999626E0,5.910000205E-1
1.207861847E0,4.449999928E-1,1.011400032E1,4.259999990E-1
1.210360077E0,3.899999857E-1,1.008300018E1,5.170000196E-1
1.212864154E0,3.560000062E-1,1.009500027E1,4.569999874E-1
1.215362318E0,3.199999928E-1,1.007299995E1,4.760000110E-1
1.217866395E0,4.140000045E-1,1.014200020E1,4.569999874E-1
1.220364626E0,3.519999981E-1,1.013500023E1,5.019999743E-1
1.222868703E0,3.779999912E-1,1.012600040E1,4.880000055E-1
1.225366847E0,4.379999936E-1,1.003499985E1,4.979999959E-1
1.227870924E0,3.919999897E-1,1.006299973E1,4.399999976E-1
1.230369154E0,4.550000131E-1,1.010599995E1,4.709999859E-1
1.232873231E0,3.230000138E-1,1.008699989E1,4.350000024E-1
1.235371400E0,4.110000134E-1,1.007499981E1,5.170000196E-1
1.237875477E0,4.790000021E-1,1.011400032E1,4.790000021E-1
1.240373708E0,4.760000110E-1,1.003499985E1,5.619999766E-1
1.242877785E0,4.810000062E-1,1.004899979E1,5.379999876E-1
1.245375939E0,3.829999864E-1,1.004199982E1,4.810000062E-1
1.247880030E0,4.040000141E-1,1.002999973E1,4.900000095E-1
1.250378260E0,3.950000107E-1,1.009000015E1,4.900000095E-1
1.252882260E0,4.110000134E-1,9.994000435E0,5.910000205E-1
1.255380491E0,4.309999943E-1,1.008500004E1,4.740000069E-1
1.257884611E0,4.280000031E-1,1.011100006E1,4.210000038E-1
1.260382842E0,4.090000093E-1,1.013000011E1,5.500000119E-1
1.262886842E0,3.300000131E-1,1.001299953E1,4.379999936E-1
1.265385073E0,4.930000007E-1,1.006099987E1,5.120000243E-1
1.267889150E0,3.420000076E-1,1.003699970E1,5.239999890E-1
1.270387385E0,3.989999890E-1,1.008500004E1,4.259999990E-1
1.272891462E0,3.589999974E-1,1.004199982E1,5.049999952E-1
1.275389616E0,3.950000107E-1,1.004399967E1,4.329999983E-1
1.277893693E0,4.309999943E-1,1.006299973E1,4.499999881E-1
1.280391919E0,3.639999926E-1,1.010200024E1,4.740000069E-1
1.282895919E0,4.020000100E-1,9.939000130E0,4.760000110E-1
1.285394150E0,3.729999959E-1,1.003899956E1,5.019999743E-1
1.287898226E0,4.309999943E-1,1.009500027E1,5.139999986E-1
1.290396462E0,3.779999912E-1,1.005099964E1,6.129999757E-1
1.292900462E0,4.140000045E-1,1.003199959E1,4.569999874E-1
1.295398693E0,3.919999897E-1,1.008300018E1,5.099999905E-1
1.297902770E0,4.709999859E-1,1.007100010E1,5.170000196E-1
1.300401001E0,3.759999871E-1,1.014200020E1,5.479999781E-1
1.302905073E0,4.379999936E-1,1.005900002E1,5.669999719E-1
1.305403304E0,4.210000038E-1,1.014999962E1,4.950000048E-1
1.307907380E0,3.779999912E-1,1.010900021E1,5.070000291E-1
1.310405534E0,4.329999983E-1,1.009899998E1,4.379999936E-1
1.312909621E0,4.329999983E-1,1.009899998E1,5.239999890E-1
1.315407852E0,4.880000055E-1,1.009000015E1,5.460000038E-1
1.317911929E0,3.490000069E-1,1.013500023E1,5.120000243E-1
1.320410160E0,4.140000045E-1,1.003199959E1,5.889999866E-1
1.322914160E0,3.919999897E-1,1.009200001E1,5.580000281E-1
1.325412391E0,4.070000052E-1,1.012100029E1,5.479999781E-1
1.327916467E0,4.070000052E-1,1.001799965E1,5.580000281E-1
1.330414621E0,3.849999905E-1,1.008500004E1,5.479999781E-1
1.332918698E0,3.560000062E-1,1.007800007E1,5.889999866E-1
1.335416929E0,3.680000007E-1,1.013500023E1,6.100000143E-1
1.337920986E0,3.779999912E-1,1.013799953E1,5.649999976E-1
1.340419140E0,3.680000007E-1,1.010900021E1,4.880000055E-1
1.342923217E0,3.970000148E-1,1.006599998E1,5.049999952E-1
1.345421447E0,3.919999897E-1,1.018799973E1,4.309999943E-1
1.347925534E0,3.639999926E-1,1.005099964E1,4.519999921E-1
1.350423688E0,4.810000062E-1,1.012600040E1,5.460000038E-1
1.352927765E0,3.300000131E-1,1.012800026E1,5.479999781E-1
1.355425996E0,4.620000124E-1,1.009000015E1,6.169999838E-1
1.357930078E0,3.659999967E-1,1.010599995E1,5.720000267E-1
1.360428232E0,3.919999897E-1,9.989000320E0,5.600000024E-1
1.362932309E0,3.440000117E-1,1.015400028E1,4.880000055E-1
1.365430539E0,4.070000052E-1,1.013500023E1,4.499999881E-1
1.367934597E0,3.729999959E-1,1.011800003E1,5.860000253E-1
1.370432751E0,3.319999874E-1,1.007100010E1,4.830000103E-1
1.372936828E0,3.729999959E-1,1.006299973E1,5.049999952E-1
1.375435059E0,4.469999969E-1,1.008699989E1,4.259999990E-1
1.377939121E0,4.350000024E-1,1.005900002E1,5.120000243E-1
1.380437275E0,4.569999874E-1,1.005099964E1,5.000000000E-1
1.382941352E0,4.090000093E-1,1.016199970E1,5.619999766E-1
1.385439582E0,3.420000076E-1,1.009200001E1,6.200000048E-1
1.387943659E0,3.729999959E-1,1.009500027E1,5.460000038E-1
1.390441823E0,3.970000148E-1,1.008300018E1,5.619999766E-1
1.392945900E0,4.090000093E-1,1.006299973E1,5.979999900E-1
1.395444131E0,4.020000100E-1,1.000800037E1,5.600000024E-1
1.397948208E0,4.880000055E-1,1.007800007E1,6.250000000E-1
1.400446357E0,3.869999945E-1,1.006799984E1,5.789999962E-1
1.402950434E0,3.659999967E-1,1.004899979E1,5.360000134E-1
1.405448664E0,3.540000021E-1,1.010599995E1,6.290000081E-1
1.407952741E0,3.490000069E-1,1.009899998E1,6.370000243E-1
1.410450895E0,4.709999859E-1,1.006599998E1,6.370000243E-1
1.412954967E0,3.779999912E-1,1.010599995E1,5.580000281E-1
1.415453198E0,3.519999981E-1,1.002499962E1,5.669999719E-1
1.417957275E0,3.659999967E-1,1.012300014E1,5.979999900E-1
1.420455429E0,4.230000079E-1,1.015200043E1,6.219999790E-1
1.422959511E0,4.449999928E-1,1.010400009E1,6.150000095E-1
1.425457741E0,4.309999943E-1,1.014700031E1,5.979999900E-1
1.427961818E0,3.709999919E-1,1.002700043E1,4.760000110E-1
1.430459972E0,3.779999912E-1,1.006299973E1,6.560000181E-1
1.432963997E0,3.400000036E-1,1.003899956E1,6.700000167E-1
1.435462228E0,3.680000007E-1,1.005099964E1,6.409999728E-1
1.437966305E0,3.829999864E-1,1.012600040E1,6.510000229E-1
1.440464459E0,4.020000100E-1,1.005599976E1,6.750000119E-1
1.442968536E0,3.709999919E-1,1.004899979E1,5.580000281E-1
1.445466761E0,3.919999897E-1,1.010400009E1,6.150000095E-1
1.447970838E0,3.610000014E-1,1.007999992E1,6.250000000E-1
1.450468992E0,3.319999874E-1,1.007100010E1,6.579999924E-1
1.452973069E0,4.090000093E-1,1.002000046E1,6.290000081E-1
1.455471300E0,4.020000100E-1,1.009200001E1,7.300000191E-1
1.457975377E0,3.610000014E-1,9.991999626E0,5.720000267E-1
1.460473531E0,3.729999959E-1,9.965000153E0,6.050000191E-1
1.462977608E0,3.560000062E-1,1.001099968E1,7.080000043E-1
1.465475828E0,2.960000038E-1,1.002000046E1,5.740000010E-1
1.467979905E0,4.070000052E-1,9.996000290E0,6.610000134E-1
1.470478059E0,4.210000038E-1,1.007299995E1,6.389999986E-1
1.472982136E0,3.950000107E-1,1.008500004E1,6.529999971E-1
1.475480367E0,3.869999945E-1,1.009200001E1,6.050000191E-1
1.477984449E0,4.709999859E-1,1.010599995E1,6.129999757E-1
1.480482603E0,3.919999897E-1,1.013000011E1,6.129999757E-1
1.482986679E0,4.329999983E-1,1.011400032E1,6.579999924E-1
1.485484910E0,3.970000148E-1,1.011800003E1,6.890000105E-1
1.487989001E0,3.610000014E-1,1.007999992E1,7.080000043E-1
1.490487155E0,3.849999905E-1,1.012100029E1,6.219999790E-1
1.492991232E0,4.160000086E-1,1.013000011E1,6.629999876E-1
1.495489463E0,4.230000079E-1,1.012300014E1,6.629999876E-1
1.497993540E0,4.230000079E-1,1.008699989E1,6.150000095E-1
1.500491675E0,4.329999983E-1,1.010900021E1,6.629999876E-1
1.502995751E0,4.930000007E-1,1.009200001E1,6.169999838E-1
1.505493982E0,3.829999864E-1,1.009200001E1,6.290000081E-1
1.507998059E0,4.790000021E-1,1.010599995E1,6.679999828E-1
1.510496213E0,4.379999936E-1,1.004699993E1,6.389999986E-1
1.513000290E0,4.449999928E-1,1.014200020E1,5.600000024E-1
1.515498521E0,3.659999967E-1,1.007499981E1,7.039999962E-1
1.518002598E0,4.309999943E-1,1.006599998E1,5.929999948E-1
1.520500747E0,3.919999897E-1,1.012100029E1,6.320000291E-1
1.523004823E0,3.950000107E-1,1.002499962E1,7.200000286E-1
1.525503054E0,4.329999983E-1,1.002700043E1,6.800000072E-1
1.528007131E0,4.469999969E-1,1.007299995E1,6.869999766E-1
1.530505276E0,4.589999914E-1,1.003699970E1,6.370000243E-1
1.533009353E0,4.280000031E-1,9.996000290E0,7.039999962E-1
1.535507584E0,4.620000124E-1,1.006299973E1,6.800000072E-1
1.538011661E0,3.799999952E-1,1.007800007E1,6.250000000E-1
1.540509814E0,5.580000281E-1,1.002700043E1,6.290000081E-1
1.543013891E0,4.189999998E-1,1.008300018E1,7.639999986E-1
1.545512122E0,4.429999888E-1,1.010400009E1,7.110000253E-1
1.548016199E0,3.849999905E-1,1.001500034E1,7.129999995E-1
1.550514353E0,3.919999897E-1,9.977000237E0,7.059999704E-1
1.553018420E0,4.040000141E-1,1.003499985E1,6.769999862E-1
1.555516651E0,4.690000117E-1,1.004199982E1,6.219999790E-1
1.558020728E0,4.230000079E-1,1.007800007E1,6.219999790E-1
1.560518881E0,4.569999874E-1,1.012800026E1,6.990000010E-1
1.563022958E0,3.950000107E-1,9.970000267E0,5.979999900E-1
1.565521160E0,4.550000131E-1,1.004899979E1,6.460000277E-1
1.568025237E0,4.519999921E-1,1.004399967E1,6.819999814E-1
1.570523468E0,4.259999990E-1,9.975000381E0,7.680000067E-1
1.573027468E0,4.379999936E-1,1.000800037E1,7.710000277E-1
1.575525713E0,4.589999914E-1,1.007299995E1,7.319999933E-1
1.578029790E0,4.140000045E-1,1.011800003E1,6.489999890E-1
1.580527943E0,4.399999976E-1,1.003499985E1,6.460000277E-1
1.583032020E0,4.309999943E-1,1.004399967E1,6.890000105E-1
1.585530251E0,4.930000007E-1,1.000100040E1,7.350000143E-1
1.588034353E0,4.110000134E-1,1.005099964E1,6.959999800E-1
1.590532584E0,4.429999888E-1,1.005099964E1,6.959999800E-1
1.593036584E0,4.740000069E-1,1.013500023E1,7.590000033E-1
1.595534815E0,3.230000138E-1,9.987000465E0,6.679999828E-1
1.598038887E0,4.569999874E-1,9.994000435E0,6.840000153E-1
1.600537040E0,4.449999928E-1,1.001500034E1,7.059999704E-1
1.603041117E0,4.469999969E-1,1.009700012E1,7.400000095E-1
1.605539348E0,4.309999943E-1,1.009200001E1,6.990000010E-1
1.608043458E0,4.210000038E-1,1.002999973E1,6.990000010E-1
1.610541689E0,5.379999876E-1,1.006599998E1,6.650000215E-1
1.613045689E0,4.930000007E-1,1.000300026E1,7.129999995E-1
1.615543920E0,3.610000014E-1,1.009500027E1,6.750000119E-1
1.618047997E0,3.729999959E-1,1.009500027E1,6.959999800E-1
1.620546227E0,4.979999959E-1,1.007299995E1,7.279999852E-1
1.623050227E0,4.280000031E-1,1.013500023E1,6.819999814E-1
1.625548458E0,4.670000076E-1,1.010200024E1,7.179999948E-1
1.628052535E0,2.989999950E-1,1.005599976E1,6.409999728E-1
1.630550766E0,3.869999945E-1,1.013799953E1,6.750000119E-1
1.633054843E0,4.379999936E-1,1.005599976E1,5.960000157E-1
1.635552997E0,3.519999981E-1,1.002999973E1,6.219999790E-1
1.638057073E0,3.989999890E-1,1.005399990E1,6.320000291E-1
1.640555304E0,4.090000093E-1,9.972000122E0,6.489999890E-1
1.643059304E0,3.589999974E-1,1.005099964E1,6.250000000E-1
1.645557535E0,3.079999983E-1,1.002000046E1,6.050000191E-1
1.648061612E0,3.799999952E-1,9.991999626E0,6.890000105E-1
1.650559843E0,3.709999919E-1,1.002299976E1,6.800000072E-1
1.653063930E0,3.989999890E-1,1.011100006E1,5.529999733E-1
1.655562084E0,3.950000107E-1,1.003899956E1,6.560000181E-1
1.658066160E0,4.950000048E-1,1.003499985E1,5.889999866E-1
1.660564391E0,3.849999905E-1,1.007100010E1,6.750000119E-1
1.663068468E0,4.140000045E-1,1.005099964E1,6.529999971E-1
1.665566598E0,3.829999864E-1,1.010900021E1,6.769999862E-1
1.668070675E0,4.309999943E-1,1.006599998E1,6.959999800E-1
1.670568906E0,3.869999945E-1,1.000800037E1,7.059999704E-1
1.673072983E0,3.779999912E-1,1.004699993E1,7.080000043E-1
1.675571126E0,3.639999926E-1,1.007499981E1,7.440000176E-1
1.678075203E0,4.160000086E-1,1.003499985E1,7.440000176E-1
1.680573434E0,3.729999959E-1,1.015900040E1,7.559999824E-1
1.683077511E0,3.970000148E-1,1.005399990E1,6.169999838E-1
1.685575660E0,3.659999967E-1,1.012100029E1,6.729999781E-1
1.688079737E0,3.540000021E-1,1.002299976E1,6.750000119E-1
1.690577968E0,3.639999926E-1,1.005900002E1,7.250000238E-1
1.693082045E0,3.950000107E-1,1.008300018E1,6.990000010E-1
1.695580256E0,4.280000031E-1,1.006799984E1,6.959999800E-1
1.698084256E0,4.379999936E-1,1.002700043E1,6.700000167E-1
1.700582487E0,4.160000086E-1,1.009899998E1,7.969999909E-1
1.703086564E0,4.880000055E-1,1.007100010E1,7.200000286E-1
1.705584790E0,4.709999859E-1,1.009700012E1,6.819999814E-1
1.708088867E0,5.120000243E-1,1.001500034E1,7.469999790E-1
1.710587021E0,5.000000000E-1,1.009899998E1,7.680000067E-1
1.713091098E0,5.529999733E-1,1.009000015E1,6.990000010E-1
1.715589328E0,4.309999943E-1,1.004899979E1,6.560000181E-1
1.718093328E0,4.550000131E-1,1.006799984E1,7.490000129E-1
1.720591559E0,4.979999959E-1,1.004399967E1,7.749999762E-1
1.723095636E0,3.989999890E-1,1.009500027E1,6.409999728E-1
1.725593867E0,4.449999928E-1,1.004899979E1,7.129999995E-1
1.728097829E0,5.289999843E-1,1.007299995E1,6.150000095E-1
1.730596060E0,4.429999888E-1,1.005900002E1,6.990000010E-1
1.733100137E0,4.110000134E-1,1.002999973E1,6.869999766E-1
1.735598367E0,4.350000024E-1,1.006799984E1,6.750000119E-1
1.738102444E0,4.309999943E-1,1.003899956E1,5.910000205E-1
1.740600617E0,4.830000103E-1,1.014000034E1,6.610000134E-1
1.743104694E0,4.620000124E-1,1.004399967E1,6.919999719E-1
1.745602925E0,4.550000131E-1,1.008699989E1,6.579999924E-1
1.748107002E0,4.309999943E-1,1.010900021E1,6.150000095E-1
1.750605137E0,5.070000291E-1,1.005599976E1,6.439999938E-1
1.753109214E0,4.230000079E-1,1.007800007E1,6.010000110E-1
1.755607444E0,4.399999976E-1,1.014700031E1,6.579999924E-1
1.758111521E0,4.709999859E-1,1.002700043E1,6.890000105E-1
1.760609641E0,4.760000110E-1,1.010200024E1,6.629999876E-1
1.763113718E0,5.580000281E-1,1.013300037E1,6.370000243E-1
1.765611949E0,4.860000014E-1,1.009899998E1,6.629999876E-1
1.768116026E0,4.930000007E-1,1.014000034E1,6.579999924E-1
1.770614180E0,5.099999905E-1,1.004399967E1,7.279999852E-1
1.773118237E0,4.399999976E-1,1.011800003E1,5.550000072E-1
1.775616468E0,5.170000196E-1,1.006099987E1,6.169999838E-1
1.778120545E0,4.350000024E-1,9.987000465E0,6.219999790E-1
1.780618776E0,3.829999864E-1,9.923999786E0,6.079999804E-1
1.783122795E0,4.379999936E-1,1.007100010E1,5.860000253E-1
1.785621026E0,4.930000007E-1,1.012600040E1,6.290000081E-1
1.788125103E0,4.090000093E-1,1.004199982E1,6.200000048E-1
1.790623333E0,4.189999998E-1,9.987000465E0,5.580000281E-1
1.793127410E0,4.020000100E-1,1.002299976E1,6.579999924E-1
1.795625569E0,3.970000148E-1,9.982000351E0,6.010000110E-1
1.798129646E0,4.639999866E-1,9.956000328E0,6.250000000E-1
1.800627877E0,5.619999766E-1,1.002299976E1,7.300000191E-1
1.803131954E0,4.160000086E-1,1.004199982E1,7.519999743E-1
1.805630103E0,3.849999905E-1,1.000599957E1,7.039999962E-1
1.808134180E0,3.779999912E-1,1.008699989E1,7.730000019E-1
1.810632410E0,3.919999897E-1,1.002299976E1,7.250000238E-1
1.813136410E0,4.040000141E-1,1.008500004E1,7.160000205E-1
1.815634622E0,4.090000093E-1,1.009200001E1,6.290000081E-1
1.818138699E0,4.429999888E-1,1.000599957E1,6.840000153E-1
1.820636930E0,4.860000014E-1,1.006299973E1,7.129999995E-1
1.823141007E0,4.449999928E-1,1.000800037E1,7.319999933E-1
1.825639161E0,5.139999986E-1,1.004399967E1,7.080000043E-1
1.828143214E0,4.210000038E-1,9.998999596E0,6.510000229E-1
1.830641444E0,4.930000007E-1,1.005599976E1,7.160000205E-1
1.833145521E0,3.420000076E-1,1.002000046E1,7.609999776E-1
1.835643675E0,4.329999983E-1,9.977000237E0,7.829999924E-1
1.838147752E0,3.989999890E-1,1.014200020E1,7.829999924E-1
1.840646006E0,3.759999871E-1,1.004899979E1,7.990000248E-1
1.843150083E0,4.569999874E-1,1.004899979E1,6.679999828E-1
1.845648314E0,4.790000021E-1,1.010200024E1,6.819999814E-1
1.848152314E0,4.429999888E-1,1.010200024E1,6.389999986E-1
1.850650544E0,3.829999864E-1,1.015400028E1,6.679999828E-1
1.853154621E0,4.709999859E-1,1.014999962E1,6.269999743E-1
1.855652852E0,5.139999986E-1,1.019299984E1,6.679999828E-1
1.858156929E0,4.589999914E-1,1.021399975E1,7.039999962E-1
1.860655102E0,3.709999919E-1,1.010599995E1,6.150000095E-1
1.863159179E0,4.399999976E-1,1.024300003E1,7.160000205E-1
1.865657410E0,4.620000124E-1,1.016600037E1,5.619999766E-1
1.868161486E0,4.329999983E-1,1.010900021E1,6.269999743E-1
1.870659654E0,4.790000021E-1,1.018299961E1,5.789999962E-1
1.873163731E0,4.090000093E-1,1.007299995E1,5.310000181E-1
1.875661962E0,4.550000131E-1,1.008500004E1,4.469999969E-1
1.878166039E0,4.639999866E-1,1.010900021E1,6.150000095E-1
1.880664188E0,5.120000243E-1,1.009500027E1,5.239999890E-1
1.883168265E0,4.950000048E-1,1.006299973E1,5.460000038E-1
1.885666496E0,4.070000052E-1,1.001799965E1,4.449999928E-1
1.888170572E0,4.499999881E-1,1.002299976E1,5.839999914E-1
1.890668726E0,5.379999876E-1,9.991999626E0,7.080000043E-1
1.893172808E0,4.550000131E-1,9.977000237E0,6.560000181E-1
1.895671039E0,4.790000021E-1,1.001799965E1,7.250000238E-1
1.898175116E0,4.740000069E-1,1.009899998E1,6.439999938E-1
1.900673270E0,4.110000134E-1,9.968000412E0,6.460000277E-1
1.903177472E0,5.310000181E-1,1.005900002E1,6.409999728E-1
1.905675626E0,4.950000048E-1,9.965000153E0,6.629999876E-1
1.908179702E0,4.790000021E-1,9.951000214E0,7.080000043E-1
1.910677933E0,4.620000124E-1,1.009000015E1,7.200000286E-1
1.913181933E0,5.139999986E-1,1.001500034E1,6.819999814E-1
1.915680154E0,4.900000095E-1,9.958000183E0,6.129999757E-1
1.918184231E0,5.809999704E-1,1.006299973E1,7.369999886E-1
1.920682462E0,5.839999914E-1,9.987000465E0,5.720000267E-1
1.923186539E0,5.699999928E-1,9.994000435E0,6.959999800E-1
1.925684683E0,4.979999959E-1,9.946000099E0,6.890000105E-1
1.928188760E0,5.410000086E-1,1.002700043E1,7.469999790E-1
1.930686991E0,5.479999781E-1,9.953000069E0,7.229999900E-1
1.933191068E0,5.239999890E-1,1.001299953E1,6.940000057E-1
1.935689236E0,5.099999905E-1,1.003199959E1,7.250000238E-1
1.938193313E0,4.709999859E-1,9.982000351E0,6.919999719E-1
1.940691544E0,4.930000007E-1,9.920000076E0,6.750000119E-1
1.943195621E0,4.930000007E-1,1.009000015E1,6.919999719E-1
1.945693774E0,5.860000253E-1,1.002000046E1,6.560000181E-1
1.948197861E0,5.600000024E-1,1.009500027E1,6.869999766E-1
1.950696092E0,4.930000007E-1,1.005599976E1,7.200000286E-1
1.953200169E0,4.860000014E-1,1.013500023E1,6.320000291E-1
1.955698400E0,5.649999976E-1,1.012800026E1,6.579999924E-1
1.958202361E0,5.170000196E-1,1.007299995E1,7.009999752E-1
1.960700592E0,4.930000007E-1,1.009700012E1,6.579999924E-1
1.963204669E0,5.170000196E-1,1.008300018E1,7.540000081E-1
1.965702899E0,4.810000062E-1,1.007100010E1,7.179999948E-1
1.968206976E0,4.979999959E-1,1.008699989E1,5.929999948E-1
1.970705121E0,4.499999881E-1,1.008500004E1,6.290000081E-1
1.973209198E0,4.519999921E-1,1.005900002E1,6.489999890E-1
1.975707429E0,4.230000079E-1,1.004899979E1,6.169999838E-1
1.978211506E0,4.639999866E-1,9.994000435E0,6.650000215E-1
1.980709665E0,5.550000072E-1,1.004899979E1,6.439999938E-1
1.983213742E0,5.189999938E-1,1.014000034E1,6.610000134E-1
1.985711972E0,4.449999928E-1,1.009200001E1,6.409999728E-1
1.988216049E0,4.329999983E-1,1.004199982E1,6.219999790E-1
1.990714203E0,4.280000031E-1,1.002499962E1,6.409999728E-1
1.993218289E0,4.399999976E-1,1.006799984E1,7.039999962E-1
1.995716520E0,3.869999945E-1,1.013500023E1,6.269999743E-1
1.998220597E0,4.429999888E-1,1.009700012E1,6.250000000E-1
2.000718827E0,5.379999876E-1,1.010900021E1,7.160000205E-1
2.003222834E0,4.639999866E-1,1.005599976E1,5.839999914E-1
2.005721064E0,4.900000095E-1,1.006099987E1,5.960000157E-1
2.008225141E0,4.930000007E-1,1.011600018E1,6.579999924E-1
2.010723372E0,4.020000100E-1,1.005900002E1,6.529999971E-1
2.013227353E0,5.170000196E-1,1.002299976E1,6.389999986E-1
2.015725584E0,4.690000117E-1,1.002999973E1,5.910000205E-1
2.018229661E0,5.000000000E-1,1.010599995E1,6.750000119E-1
2.020727891E0,4.979999959E-1,1.001500034E1,6.990000010E-1
2.023231968E0,4.499999881E-1,1.008500004E1,6.460000277E-1
2.025730131E0,3.799999952E-1,1.000100040E1,7.829999924E-1
2.028234208E0,4.429999888E-1,1.004899979E1,6.840000153E-1
2.030732439E0,5.260000229E-1,1.002299976E1,6.510000229E-1
2.033236516E0,4.160000086E-1,1.005900002E1,6.489999890E-1
2.035734728E0,5.429999828E-1,1.002700043E1,6.990000010E-1
2.038238728E0,4.709999859E-1,1.002999973E1,6.579999924E-1
2.040736958E0,4.070000052E-1,1.004899979E1,5.809999704E-1
2.043241035E0,4.189999998E-1,1.001299953E1,6.650000215E-1
2.045739271E0,4.620000124E-1,1.005099964E1,6.629999876E-1
2.048243348E0,5.260000229E-1,1.007100010E1,6.489999890E-1
2.050741502E0,4.709999859E-1,1.006599998E1,6.370000243E-1
2.053245579E0,4.469999969E-1,1.001799965E1,6.460000277E-1
2.055743819E0,4.569999874E-1,1.001299953E1,7.319999933E-1
2.058247896E0,4.620000124E-1,1.013000011E1,8.109999895E-1
2.060746049E0,4.449999928E-1,1.007299995E1,6.560000181E-1
2.063250126E0,4.620000124E-1,1.012800026E1,7.639999986E-1
2.065748357E0,5.000000000E-1,1.002000046E1,6.579999924E-1
2.068252444E0,4.350000024E-1,1.003899956E1,7.179999948E-1
2.070750598E0,4.930000007E-1,1.009899998E1,6.819999814E-1
2.073254675E0,5.120000243E-1,1.002000046E1,6.250000000E-1
2.075752906E0,5.139999986E-1,1.018299961E1,7.129999995E-1
2.078256988E0,4.379999936E-1,1.010599995E1,7.419999838E-1
2.080755218E0,4.230000079E-1,1.004899979E1,6.100000143E-1
2.083259218E0,4.210000038E-1,1.016399956E1,7.229999900E-1
2.085757449E0,4.709999859E-1,1.006799984E1,6.100000143E-1
2.088261526E0,5.049999952E-1,1.012800026E1,6.250000000E-1
2.090759747E0,5.789999962E-1,1.014200020E1,6.510000229E-1
2.093263824E0,4.860000014E-1,1.024800014E1,5.839999914E-1
2.095761978E0,4.519999921E-1,1.017800045E1,5.979999900E-1
2.098266055E0,4.790000021E-1,1.015699959E1,6.629999876E-1
2.100764295E0,5.600000024E-1,1.017399979E1,6.409999728E-1
2.103268372E0,5.479999781E-1,1.002000046E1,6.129999757E-1
2.105766526E0,4.860000014E-1,1.006299973E1,7.440000176E-1
2.108270603E0,4.230000079E-1,1.006599998E1,6.409999728E-1
2.110768843E0,5.000000000E-1,1.011100006E1,6.010000110E-1
2.113272920E0,5.170000196E-1,1.002299976E1,7.300000191E-1
2.115771074E0,4.280000031E-1,1.004699993E1,6.389999986E-1
2.118275150E0,4.399999976E-1,1.003499985E1,6.100000143E-1
2.120773381E0,5.310000181E-1,9.970000267E0,6.029999852E-1
2.123277420E0,4.830000103E-1,9.928999901E0,5.860000253E-1
2.125775651E0,4.350000024E-1,9.921999931E0,5.619999766E-1
2.128279651E0,4.189999998E-1,9.916999817E0,6.029999852E-1
2.130777882E0,4.110000134E-1,9.963000298E0,6.150000095E-1
2.133281959E0,3.680000007E-1,9.989000320E0,6.629999876E-1
2.135780208E0,4.280000031E-1,9.904999733E0,6.489999890E-1
2.138284285E0,3.970000148E-1,9.970000267E0,6.409999728E-1
2.140782439E0,3.350000083E-1,9.927000046E0,6.800000072E-1
2.143286516E0,4.329999983E-1,9.916999817E0,6.959999800E-1
2.145784757E0,3.470000029E-1,9.979999542E0,6.729999781E-1
2.148288834E0,4.880000055E-1,9.989000320E0,6.290000081E-1
2.150786988E0,4.760000110E-1,9.977000237E0,7.300000191E-1
2.153291065E0,5.120000243E-1,9.987000465E0,6.819999814E-1
2.155789294E0,4.930000007E-1,1.003699970E1,6.460000277E-1
2.158293371E0,4.110000134E-1,1.009700012E1,6.650000215E-1
2.160791602E0,5.000000000E-1,1.012300014E1,8.349999785E-1
2.163295602E0,4.810000062E-1,1.007999992E1,7.540000081E-1
2.165793833E0,5.789999962E-1,1.006799984E1,7.639999986E-1
2.168297934E0,5.460000038E-1,1.014700031E1,6.959999800E-1
2.170796165E0,4.900000095E-1,1.014000034E1,7.080000043E-1
2.173300242E0,4.469999969E-1,1.024300003E1,6.560000181E-1
2.175798395E0,5.139999986E-1,1.017599964E1,6.750000119E-1
2.178302482E0,5.000000000E-1,1.012300014E1,6.219999790E-1
2.180800713E0,5.120000243E-1,1.019299984E1,6.819999814E-1
2.183304790E0,5.139999986E-1,1.015200043E1,6.629999876E-1
2.185803021E0,4.709999859E-1,1.016899967E1,6.250000000E-1
2.188307108E0,5.139999986E-1,1.021199989E1,6.250000000E-1
2.190805262E0,5.189999938E-1,1.015400028E1,6.560000181E-1
2.193309338E0,5.619999766E-1,1.020199966E1,5.960000157E-1
2.195807569E0,5.049999952E-1,1.014700031E1,5.139999986E-1
2.198311646E0,5.099999905E-1,1.006599998E1,5.789999962E-1
2.200809809E0,5.339999795E-1,1.010599995E1,5.339999795E-1
2.203313886E0,5.019999743E-1,1.006099987E1,5.669999719E-1
2.205812117E0,4.469999969E-1,1.012100029E1,4.979999959E-1
2.208316194E0,5.360000134E-1,1.006799984E1,5.479999781E-1
2.210814363E0,5.070000291E-1,1.003699970E1,5.410000086E-1
2.213318439E0,5.070000291E-1,1.008699989E1,6.169999838E-1
2.215816670E0,5.379999876E-1,1.002999973E1,4.690000117E-1
2.218320747E0,5.139999986E-1,1.003499985E1,5.500000119E-1
2.220818987E0,4.350000024E-1,9.975000381E0,5.360000134E-1
2.223322987E0,4.309999943E-1,1.003499985E1,5.379999876E-1
2.225821218E0,4.639999866E-1,1.002000046E1,5.170000196E-1
2.228325295E0,4.950000048E-1,1.001299953E1,5.479999781E-1
2.230823549E0,5.239999890E-1,1.003499985E1,6.200000048E-1
2.233327626E0,5.500000119E-1,1.003699970E1,5.580000281E-1
2.235825780E0,4.690000117E-1,1.008500004E1,5.649999976E-1
2.238329857E0,4.760000110E-1,1.005099964E1,5.550000072E-1
2.240828088E0,4.709999859E-1,1.005099964E1,5.860000253E-1
2.243332141E0,5.619999766E-1,1.009899998E1,5.410000086E-1
2.245830295E0,5.000000000E-1,1.012100029E1,6.389999986E-1
2.248334372E0,5.170000196E-1,1.002999973E1,6.219999790E-1
2.250832602E0,4.309999943E-1,9.979999542E0,5.580000281E-1
2.253336669E0,5.000000000E-1,1.002499962E1,5.619999766E-1
2.255834900E0,5.289999843E-1,1.004899979E1,6.010000110E-1
2.258338977E0,5.120000243E-1,9.996000290E0,6.050000191E-1
2.260837131E0,4.589999914E-1,1.001500034E1,5.379999876E-1
2.263341208E0,6.100000143E-1,1.001299953E1,5.260000229E-1
2.265839459E0,4.620000124E-1,1.004699993E1,7.319999933E-1
2.268343536E0,5.189999938E-1,1.004199982E1,5.170000196E-1
2.270841689E0,4.760000110E-1,9.979999542E0,5.460000038E-1
2.273345766E0,4.790000021E-1,1.000599957E1,6.610000134E-1
2.275843982E0,5.379999876E-1,1.001299953E1,6.510000229E-1
2.278348059E0,5.360000134E-1,1.007499981E1,6.389999986E-1
2.280846290E0,5.649999976E-1,1.001500034E1,6.250000000E-1
2.283350290E0,4.620000124E-1,1.004399967E1,6.150000095E-1
2.285848531E0,5.580000281E-1,1.000100040E1,6.200000048E-1
2.288352607E0,5.189999938E-1,1.001500034E1,5.379999876E-1
2.290850838E0,5.839999914E-1,1.003199959E1,5.669999719E-1
2.293354915E0,5.960000157E-1,1.012300014E1,5.460000038E-1
2.295853069E0,5.839999914E-1,1.003199959E1,5.979999900E-1
2.298357179E0,5.580000281E-1,1.004899979E1,5.460000038E-1
2.300855410E0,4.930000007E-1,1.009700012E1,5.289999843E-1
2.303359487E0,4.350000024E-1,1.003499985E1,5.979999900E-1
2.305857717E0,5.000000000E-1,1.008699989E1,6.610000134E-1
2.308361717E0,4.329999983E-1,1.003499985E1,5.649999976E-1
2.310859948E0,4.830000103E-1,1.012800026E1,5.929999948E-1
2.313364025E0,4.210000038E-1,1.016600037E1,5.410000086E-1
2.315862256E0,4.589999914E-1,1.012100029E1,6.389999986E-1
2.318366333E0,5.239999890E-1,1.004199982E1,5.699999928E-1
2.320864473E0,4.309999943E-1,1.007800007E1,7.059999704E-1
2.323368550E0,3.970000148E-1,1.010400009E1,6.389999986E-1
2.325866780E0,4.429999888E-1,1.014999962E1,6.510000229E-1
2.328370857E0,4.810000062E-1,1.006099987E1,6.610000134E-1
2.330869011E0,4.259999990E-1,1.008699989E1,5.860000253E-1
2.333373088E0,4.709999859E-1,1.002000046E1,6.100000143E-1
2.335871319E0,4.790000021E-1,9.991999626E0,6.769999862E-1
2.338375396E0,4.670000076E-1,9.977000237E0,7.080000043E-1
2.340873574E0,4.709999859E-1,1.007100010E1,5.979999900E-1
2.343377574E0,5.429999828E-1,1.001299953E1,6.050000191E-1
2.345875804E0,4.709999859E-1,1.000100040E1,7.229999900E-1
2.348379881E0,4.620000124E-1,9.970000267E0,6.819999814E-1
2.350878112E0,4.090000093E-1,1.006299973E1,6.729999781E-1
2.353382194E0,5.170000196E-1,9.902999878E0,7.129999995E-1
2.355880425E0,4.499999881E-1,1.006299973E1,5.789999962E-1
2.358384425E0,5.239999890E-1,9.965000153E0,5.860000253E-1
2.360882656E0,4.760000110E-1,1.002299976E1,6.800000072E-1
2.363386723E0,4.709999859E-1,1.002700043E1,6.169999838E-1
2.365884953E0,4.639999866E-1,9.953000069E0,5.979999900E-1
2.368388953E0,5.049999952E-1,9.939000130E0,7.519999743E-1
2.370887184E0,3.659999967E-1,1.003199959E1,5.669999719E-1
2.373391251E0,4.639999866E-1,1.007299995E1,6.269999743E-1
2.375889482E0,5.120000243E-1,1.007100010E1,6.529999971E-1
2.378393559E0,4.090000093E-1,1.012800026E1,6.370000243E-1
2.380891713E0,4.379999936E-1,1.005900002E1,6.729999781E-1
2.383395789E0,4.930000007E-1,1.001799965E1,5.910000205E-1
2.385894006E0,4.589999914E-1,1.002299976E1,6.269999743E-1
2.388398083E0,4.189999998E-1,1.001299953E1,5.529999733E-1
2.390896314E0,4.950000048E-1,1.004399967E1,6.269999743E-1
2.393400314E0,4.499999881E-1,1.007100010E1,6.050000191E-1
2.395898535E0,4.810000062E-1,1.009899998E1,6.389999986E-1
2.398402612E0,4.639999866E-1,1.013500023E1,6.409999728E-1
2.400900842E0,4.900000095E-1,1.008300018E1,6.409999728E-1
2.403404919E0,5.019999743E-1,1.009500027E1,6.560000181E-1
2.405903049E0,4.790000021E-1,1.014700031E1,7.639999986E-1
2.408407126E0,4.830000103E-1,1.012100029E1,7.400000095E-1
2.410905357E0,4.210000038E-1,1.005599976E1,7.369999886E-1
2.413409434E0,5.000000000E-1,1.008500004E1,7.319999933E-1
2.415907665E0,4.189999998E-1,1.009500027E1,7.639999986E-1
2.418411776E0,4.379999936E-1,1.012100029E1,6.819999814E-1
2.420909929E0,4.329999983E-1,1.007100010E1,7.300000191E-1
2.423414006E0,3.970000148E-1,1.005599976E1,5.860000253E-1
2.425912237E0,4.830000103E-1,1.007800007E1,6.200000048E-1
2.428416314E0,4.399999976E-1,1.005399990E1,6.269999743E-1
2.430914473E0,4.639999866E-1,1.015200043E1,7.400000095E-1
2.433418550E0,5.019999743E-1,1.008699989E1,6.510000229E-1
2.435916781E0,4.860000014E-1,1.003899956E1,6.890000105E-1
2.438420858E0,4.350000024E-1,1.011400032E1,6.819999814E-1
2.440919097E0,4.379999936E-1,1.001299953E1,7.350000143E-1
2.443423097E0,4.620000124E-1,1.008500004E1,7.129999995E-1
2.445921328E0,5.139999986E-1,1.005599976E1,6.869999766E-1
2.448425405E0,4.350000024E-1,1.010400009E1,7.110000253E-1
2.450923646E0,4.880000055E-1,9.998999596E0,7.369999886E-1
2.453427723E0,3.560000062E-1,1.002999973E1,5.649999976E-1
2.455925877E0,4.399999976E-1,1.007499981E1,6.729999781E-1
2.458429954E0,4.860000014E-1,1.003499985E1,6.129999757E-1
2.460928170E0,3.420000076E-1,1.001500034E1,7.129999995E-1
2.463432247E0,4.160000086E-1,9.965000153E0,7.039999962E-1
2.465930478E0,4.569999874E-1,9.975000381E0,7.080000043E-1
2.468434555E0,4.519999921E-1,1.001500034E1,7.300000191E-1
2.470932709E0,4.230000079E-1,1.006099987E1,6.560000181E-1
2.473436790E0,4.740000069E-1,1.003699970E1,6.290000081E-1
2.475935020E0,4.429999888E-1,1.005099964E1,7.419999838E-1
2.478439097E0,5.289999843E-1,1.001500034E1,6.940000057E-1
2.480937251E0,4.020000100E-1,1.000100040E1,7.039999962E-1
2.483441323E0,4.690000117E-1,1.007499981E1,6.729999781E-1
2.485939554E0,5.019999743E-1,1.001799965E1,7.250000238E-1
2.488443631E0,5.479999781E-1,9.998999596E0,8.550000191E-1
2.490941862E0,4.379999936E-1,1.010900021E1,7.039999962E-1
2.493445939E0,4.569999874E-1,1.005099964E1,6.629999876E-1
2.495944102E0,5.070000291E-1,1.004899979E1,7.469999790E-1
2.498448179E0,4.760000110E-1,1.001299953E1,6.840000153E-1
2.500946410E0,5.019999743E-1,1.003199959E1,6.650000215E-1
2.503450487E0,5.339999795E-1,1.009500027E1,7.179999948E-1
2.505948646E0,5.429999828E-1,1.008699989E1,5.239999890E-1
2.508452723E0,5.099999905E-1,1.009899998E1,6.389999986E-1
2.510950954E0,5.189999938E-1,1.006099987E1,6.050000191E-1
2.513455031E0,5.120000243E-1,1.009500027E1,6.079999804E-1
2.515953294E0,6.100000143E-1,1.011800003E1,6.219999790E-1
2.518457371E0,4.760000110E-1,9.987000465E0,6.610000134E-1
2.520955525E0,4.740000069E-1,1.010400009E1,6.650000215E-1
2.523459602E0,5.699999928E-1,1.006299973E1,6.650000215E-1
2.525957799E0,5.120000243E-1,1.011600018E1,6.320000291E-1
2.528461876E0,4.830000103E-1,1.002299976E1,6.340000033E-1
2.530960030E0,5.479999781E-1,1.005900002E1,6.679999828E-1
2.533464107E0,5.019999743E-1,1.002299976E1,6.890000105E-1
2.535962337E0,5.580000281E-1,1.014500046E1,6.629999876E-1
2.538466399E0,5.669999719E-1,9.958000183E0,6.890000105E-1
2.540964630E0,4.589999914E-1,9.960000038E0,6.729999781E-1
2.543468707E0,5.649999976E-1,9.958000183E0,6.579999924E-1
2.545966861E0,4.790000021E-1,1.003499985E1,6.919999719E-1
2.548470929E0,5.070000291E-1,1.004199982E1,6.389999986E-1
2.550969160E0,5.000000000E-1,1.009500027E1,6.320000291E-1
2.553473236E0,5.000000000E-1,1.004899979E1,6.840000153E-1
2.555971390E0,5.699999928E-1,1.002299976E1,6.010000110E-1
2.558475544E0,5.120000243E-1,1.011600018E1,6.560000181E-1
2.560973698E0,5.550000072E-1,1.007499981E1,6.290000081E-1
2.563477775E0,5.910000205E-1,1.007499981E1,5.479999781E-1
2.565976006E0,5.479999781E-1,9.956000328E0,6.029999852E-1
2.568480083E0,5.360000134E-1,9.991999626E0,6.029999852E-1
2.570978245E0,4.449999928E-1,9.987000465E0,6.150000095E-1
2.573482322E0,5.019999743E-1,1.003699970E1,5.580000281E-1
2.575980553E0,5.239999890E-1,9.982000351E0,7.080000043E-1
2.578484630E0,5.189999938E-1,1.003499985E1,7.179999948E-1
2.580982861E0,4.790000021E-1,1.003199959E1,6.250000000E-1
2.583486938E0,5.000000000E-1,9.977000237E0,5.379999876E-1
2.585985092E0,5.170000196E-1,1.003899956E1,6.940000057E-1
2.588489169E0,5.000000000E-1,9.982000351E0,6.029999852E-1
2.590987399E0,5.860000253E-1,1.006299973E1,6.409999728E-1
2.593491457E0,5.529999733E-1,1.003499985E1,6.409999728E-1
2.595989611E0,5.929999948E-1,1.015400028E1,6.129999757E-1
2.598493688E0,5.260000229E-1,1.002700043E1,6.529999971E-1
2.600991919E0,5.310000181E-1,1.009200001E1,7.590000033E-1
2.603496020E0,5.120000243E-1,1.000800037E1,6.629999876E-1
2.605994251E0,5.529999733E-1,1.009899998E1,6.079999804E-1
2.608498327E0,5.619999766E-1,1.001799965E1,6.729999781E-1
2.610996481E0,5.550000072E-1,1.002299976E1,6.010000110E-1
2.613500558E0,5.889999866E-1,9.977000237E0,6.890000105E-1
2.615998775E0,5.770000219E-1,9.960000038E0,6.940000057E-1
2.618502852E0,5.550000072E-1,9.994000435E0,6.460000277E-1
2.621001083E0,5.789999962E-1,1.003199959E1,7.559999824E-1
2.623505160E0,5.619999766E-1,1.002299976E1,6.129999757E-1
2.626003309E0,6.200000048E-1,1.007499981E1,6.340000033E-1
2.628507385E0,6.340000033E-1,1.000800037E1,7.519999743E-1
2.631005616E0,4.860000014E-1,9.909999847E0,6.409999728E-1
2.633509693E0,5.170000196E-1,1.007299995E1,5.649999976E-1
2.636007909E0,5.019999743E-1,1.000800037E1,5.460000038E-1
2.638511909E0,6.200000048E-1,1.001799965E1,6.439999938E-1
2.641010140E0,5.910000205E-1,9.996000290E0,6.800000072E-1
2.643514217E0,5.789999962E-1,9.972000122E0,6.129999757E-1
2.646012447E0,5.120000243E-1,1.002000046E1,7.400000095E-1
2.648516500E0,5.310000181E-1,1.005900002E1,6.840000153E-1
2.651014731E0,5.529999733E-1,9.998999596E0,7.129999995E-1
2.653518731E0,5.839999914E-1,1.004399967E1,6.800000072E-1
2.656016962E0,5.600000024E-1,1.003699970E1,8.190000057E-1
2.658521039E0,5.360000134E-1,1.005599976E1,6.320000291E-1
2.661019270E0,5.619999766E-1,1.004699993E1,7.160000205E-1
2.663523270E0,5.260000229E-1,9.998999596E0,7.590000033E-1
2.666021500E0,5.789999962E-1,1.011600018E1,7.659999728E-1
2.668525577E0,5.049999952E-1,1.000800037E1,6.959999800E-1
2.671023813E0,5.339999795E-1,9.984000206E0,7.229999900E-1
2.673527890E0,4.519999921E-1,1.012300014E1,7.590000033E-1
2.676026121E0,4.259999990E-1,1.003199959E1,7.059999704E-1
2.678530121E0,5.529999733E-1,1.002299976E1,7.200000286E-1
2.681028347E0,5.310000181E-1,1.006799984E1,6.409999728E-1
2.683532424E0,4.830000103E-1,1.009500027E1,5.619999766E-1
2.686030654E0,4.690000117E-1,1.006299973E1,6.940000057E-1
2.688534731E0,4.230000079E-1,9.987000465E0,6.150000095E-1
2.691032890E0,3.829999864E-1,1.005599976E1,7.129999995E-1
2.693536967E0,5.360000134E-1,1.009700012E1,5.889999866E-1
2.696035198E0,4.639999866E-1,1.006599998E1,7.559999824E-1
2.698539275E0,4.589999914E-1,1.012100029E1,7.369999886E-1
2.701037519E0,4.930000007E-1,9.979999542E0,7.009999752E-1
2.703541596E0,5.189999938E-1,1.001500034E1,7.300000191E-1
2.706039750E0,4.810000062E-1,1.005399990E1,7.229999900E-1
2.708543827E0,4.379999936E-1,1.007299995E1,6.579999924E-1
2.711042058E0,4.790000021E-1,1.010200024E1,7.250000238E-1
2.713546164E0,4.709999859E-1,1.009200001E1,6.959999800E-1
2.716044395E0,5.260000229E-1,1.009200001E1,6.629999876E-1
2.718548472E0,5.239999890E-1,1.009899998E1,6.560000181E-1
2.721046625E0,5.000000000E-1,1.016399956E1,5.860000253E-1
2.723550707E0,5.619999766E-1,1.012100029E1,6.219999790E-1
2.726048938E0,4.569999874E-1,1.010400009E1,6.800000072E-1
2.728553015E0,5.289999843E-1,1.005399990E1,6.290000081E-1
2.731051246E0,4.090000093E-1,1.015200043E1,6.529999971E-1
2.733555246E0,4.160000086E-1,1.007100010E1,6.679999828E-1
2.736053486E0,4.550000131E-1,1.010599995E1,7.080000043E-1
2.738557563E0,4.930000007E-1,1.010599995E1,6.389999986E-1
2.741055793E0,5.000000000E-1,1.008500004E1,6.290000081E-1
2.743559870E0,4.550000131E-1,1.003499985E1,7.639999986E-1
2.746058024E0,4.830000103E-1,1.002999973E1,7.400000095E-1
2.748562087E0,4.160000086E-1,1.004199982E1,7.400000095E-1
2.751060318E0,5.220000148E-1,1.012800026E1,6.650000215E-1
2.753564395E0,5.889999866E-1,1.002499962E1,6.650000215E-1
2.756062626E0,4.519999921E-1,1.006299973E1,6.940000057E-1
2.758566702E0,4.690000117E-1,1.005099964E1,6.869999766E-1
2.761064856E0,4.950000048E-1,1.002700043E1,7.319999933E-1
2.763568933E0,4.499999881E-1,1.003899956E1,6.750000119E-1
2.766067164E0,5.099999905E-1,1.007100010E1,6.800000072E-1
2.768571236E0,5.049999952E-1,1.004199982E1,6.840000153E-1
2.771069467E0,4.589999914E-1,1.005099964E1,7.160000205E-1
2.773573467E0,5.170000196E-1,9.956000328E0,7.229999900E-1
2.776071698E0,5.000000000E-1,1.001500034E1,7.129999995E-1
2.778575741E0,5.310000181E-1,1.005599976E1,6.840000153E-1
2.781073972E0,5.170000196E-1,1.009899998E1,7.110000253E-1
2.783578049E0,4.860000014E-1,1.001500034E1,6.650000215E-1
2.786076203E0,5.000000000E-1,1.002299976E1,6.290000081E-1
2.788580232E0,5.429999828E-1,1.007100010E1,6.729999781E-1
2.791078463E0,5.839999914E-1,1.005900002E1,7.160000205E-1
2.793582540E0,5.120000243E-1,1.008500004E1,8.159999847E-1
2.796080770E0,5.379999876E-1,1.010400009E1,7.009999752E-1
2.798584847E0,4.979999959E-1,1.005599976E1,7.590000033E-1
2.801083097E0,5.239999890E-1,1.002999973E1,7.250000238E-1
2.803587097E0,5.699999928E-1,1.006299973E1,8.019999862E-1
2.806085328E0,4.760000110E-1,1.002499962E1,8.209999800E-1
2.808589405E0,6.219999790E-1,1.005099964E1,8.040000200E-1
2.811087664E0,5.550000072E-1,9.987000465E0,7.129999995E-1
2.813591741E0,5.720000267E-1,1.004899979E1,7.129999995E-1
2.816089971E0,5.289999843E-1,1.004899979E1,6.250000000E-1
2.818593971E0,5.289999843E-1,1.005599976E1,7.440000176E-1
2.821092202E0,6.169999838E-1,1.003899956E1,6.169999838E-1
2.823596318E0,5.979999900E-1,1.003699970E1,7.300000191E-1
2.826094549E0,5.600000024E-1,1.002999973E1,6.100000143E-1
2.828598626E0,5.460000038E-1,1.001799965E1,5.410000086E-1
2.831096780E0,5.479999781E-1,1.006599998E1,6.650000215E-1
2.833600870E0,5.099999905E-1,1.002000046E1,6.489999890E-1
2.836099101E0,5.019999743E-1,1.008699989E1,7.229999900E-1
2.838603178E0,4.589999914E-1,1.004899979E1,6.150000095E-1
2.841101409E0,4.950000048E-1,9.998999596E0,7.900000215E-1
2.843605486E0,4.280000031E-1,9.951000214E0,6.439999938E-1
2.846103650E0,4.309999943E-1,9.982000351E0,5.960000157E-1
2.848607727E0,4.429999888E-1,1.004399967E1,6.489999890E-1
2.851105957E0,4.259999990E-1,9.984000206E0,6.629999876E-1
2.853610034E0,4.620000124E-1,9.996000290E0,7.039999962E-1
2.856108275E0,4.329999983E-1,1.003199959E1,6.729999781E-1
2.858612352E0,4.740000069E-1,9.982000351E0,6.629999876E-1
2.861110506E0,4.790000021E-1,1.002499962E1,7.059999704E-1
2.863614583E0,4.070000052E-1,1.009200001E1,6.169999838E-1
2.866112804E0,4.230000079E-1,1.003899956E1,5.529999733E-1
2.868616881E0,4.469999969E-1,1.006299973E1,6.579999924E-1
2.871115111E0,4.670000076E-1,1.001099968E1,6.250000000E-1
2.873619188E0,3.869999945E-1,1.007800007E1,5.889999866E-1
2.876117352E0,4.429999888E-1,1.006299973E1,5.979999900E-1
2.878621429E0,4.690000117E-1,1.007499981E1,6.169999838E-1
2.881119660E0,4.070000052E-1,1.000800037E1,5.839999914E-1
2.883623737E0,4.449999928E-1,1.007100010E1,5.550000072E-1
2.886121891E0,4.550000131E-1,1.005599976E1,6.460000277E-1
2.888625959E0,4.399999976E-1,1.010400009E1,5.649999976E-1
2.891124189E0,4.160000086E-1,1.003699970E1,5.619999766E-1
2.893628266E0,4.690000117E-1,1.010400009E1,5.929999948E-1
2.896126497E0,4.550000131E-1,1.007100010E1,4.880000055E-1
2.898630583E0,3.950000107E-1,1.011400032E1,5.770000219E-1
2.901128737E0,4.350000024E-1,1.002499962E1,6.489999890E-1
2.903632814E0,4.860000014E-1,1.010200024E1,6.200000048E-1
2.906131045E0,4.469999969E-1,1.004899979E1,5.649999976E-1
2.908635121E0,5.000000000E-1,1.005399990E1,6.269999743E-1
2.911133352E0,5.019999743E-1,1.011600018E1,6.150000095E-1
2.913637429E0,4.550000131E-1,9.975000381E0,6.510000229E-1
2.916135660E0,4.550000131E-1,1.000599957E1,7.300000191E-1
2.918639660E0,4.639999866E-1,1.000599957E1,5.580000281E-1
2.921137896E0,6.029999852E-1,9.928999901E0,6.100000143E-1
2.923641973E0,4.569999874E-1,9.953000069E0,6.629999876E-1
2.926140203E0,4.499999881E-1,9.951000214E0,6.919999719E-1
2.928644280E0,4.930000007E-1,9.934000015E0,7.200000286E-1
2.931142458E0,5.120000243E-1,9.991999626E0,6.750000119E-1
2.933646535E0,4.550000131E-1,9.850000381E0,6.579999924E-1
2.936144766E0,4.589999914E-1,9.934000015E0,6.990000010E-1
2.938648843E0,4.620000124E-1,9.921999931E0,6.219999790E-1
2.941147074E0,4.880000055E-1,1.005599976E1,7.059999704E-1
2.943651156E0,4.900000095E-1,9.920000076E0,7.590000033E-1
2.946149309E0,3.989999890E-1,9.914999962E0,6.729999781E-1
2.948653386E0,4.309999943E-1,1.000599957E1,7.590000033E-1
2.951151617E0,4.550000131E-1,9.921999931E0,7.779999971E-1
2.953655722E0,3.849999905E-1,9.850000381E0,7.350000143E-1
2.956153953E0,4.810000062E-1,9.869000435E0,7.319999933E-1
2.958658030E0,3.829999864E-1,9.878999710E0,7.350000143E-1
2.961156260E0,4.189999998E-1,9.838000298E0,7.900000215E-1
2.963660260E0,5.000000000E-1,9.923999786E0,8.429999948E-1
2.966158486E0,4.900000095E-1,9.909999847E0,8.780000210E-1
2.968662563E0,4.830000103E-1,9.859999657E0,7.850000262E-1
2.971160794E0,4.040000141E-1,9.862000465E0,8.659999967E-1
2.973664871E0,3.610000014E-1,9.810000420E0,7.969999909E-1
2.976163025E0,3.899999857E-1,9.880999565E0,8.640000224E-1
2.978667088E0,3.680000007E-1,9.883999825E0,8.690000176E-1
2.981165318E0,3.420000076E-1,9.902999878E0,9.259999990E-1
2.983669395E0,3.639999926E-1,9.885999680E0,8.309999704E-1
2.986167626E0,3.319999874E-1,9.975000381E0,8.899999857E-1
2.988671684E0,3.680000007E-1,9.895999908E0,8.399999738E-1
2.991169838E0,3.230000138E-1,9.885999680E0,8.500000238E-1
2.993673915E0,3.849999905E-1,9.885999680E0,9.049999714E-1
2.996172146E0,2.319999933E-1,9.869000435E0,9.240000248E-1
2.998676209E0,1.930000037E-1,9.878999710E0,1.008000016E0
3.001174439E0,2.610000074E-1,9.838000298E0,9.120000005E-1
3.003678516E0,2.099999934E-1,9.876999855E0,8.880000114E-1
3.006176670E0,1.700000018E-1,9.916999817E0,9.499999881E-1
3.008680737E0,2.610000074E-1,9.777999878E0,9.290000200E-1
3.011178968E0,1.480000019E-1,9.857000351E0,8.859999776E-1
3.013683045E0,1.360000074E-1,9.895999908E0,9.890000224E-1
3.016181276E0,1.739999950E-1,9.807000160E0,1.460000038E0
3.018685352E0,2.319999933E-1,9.836000443E0,1.450999975E0
3.021183501E0,1.289999932E-1,9.857000351E0,1.304999948E0
3.023687578E0,1.500000060E-1,9.958000183E0,1.340999961E0
3.026185809E0,8.299999684E-2,9.888999939E0,1.314000010E0
3.028689886E0,4.699999839E-2,9.901000023E0,1.177999973E0
3.031188112E0,6.400000304E-2,9.911999702E0,1.098999977E0
3.033692189E0,3.999999911E-2,9.859999657E0,1.065000057E0
3.036190419E0,6.700000167E-2,9.824000359E0,9.789999723E-1
3.038694496E0,6.400000304E-2,9.776000023E0,8.709999919E-1
3.041192670E0,5.700000003E-2,9.852999687E0,8.899999857E-1
3.043696747E0,1.309999973E-1,9.892999649E0,9.620000124E-1
3.046194978E0,1.289999932E-1,9.838000298E0,9.459999800E-1
3.048699055E0,6.899999827E-2,9.885999680E0,8.399999738E-1
3.051197209E0,1.019999981E-1,9.921999931E0,9.380000234E-1
3.053701286E0,2.800000012E-1,9.979999542E0,8.659999967E-1
3.056199516E0,2.409999967E-1,9.953000069E0,8.399999738E-1
3.058703593E0,2.820000052E-1,9.892999649E0,8.640000224E-1
3.061201824E0,2.730000019E-1,9.996000290E0,9.890000224E-1
3.063705915E0,2.249999940E-1,1.004899979E1,9.599999785E-1
3.066204146E0,3.109999895E-1,9.979999542E0,1.039000034E0
3.068708146E0,3.420000076E-1,1.009899998E1,9.890000224E-1
3.071206377E0,3.729999959E-1,1.000800037E1,1.171000004E0
3.073710444E0,3.919999897E-1,1.006299973E1,1.116000056E0
3.076208674E0,4.690000117E-1,1.005900002E1,1.258999944E0
3.078712751E0,4.830000103E-1,9.944000244E0,1.207000017E0
3.081210982E0,5.669999719E-1,9.991999626E0,1.317000031E0
3.083715059E0,5.500000119E-1,9.998999596E0,1.277999997E0
3.086213228E0,6.100000143E-1,1.008500004E1,1.307000041E0
3.088717305E0,6.489999890E-1,1.006599998E1,1.276000023E0
3.091215535E0,5.379999876E-1,1.012100029E1,1.340999961E0
3.093719612E0,5.669999719E-1,1.006799984E1,1.422000051E0
3.096217851E0,5.960000157E-1,9.965000153E0,1.444000006E0
3.098721851E0,6.439999938E-1,1.009899998E1,1.455999970E0
3.101220082E0,6.370000243E-1,1.007100010E1,1.483999968E0
3.103724159E0,5.770000219E-1,1.006599998E1,1.439000010E0
3.106222362E0,6.169999838E-1,1.008300018E1,1.419999957E0
3.108726439E0,6.629999876E-1,9.982000351E0,1.398000002E0
3.111224669E0,6.169999838E-1,1.006599998E1,1.307000041E0
3.113728746E0,5.889999866E-1,9.991999626E0,1.376999974E0
3.116226900E0,6.729999781E-1,1.003499985E1,1.302000046E0
3.118730973E0,6.819999814E-1,1.009899998E1,1.199000001E0
3.121229204E0,6.439999938E-1,1.003499985E1,1.228000045E0
3.123733281E0,7.279999852E-1,1.002000046E1,1.250000000E0
3.126231512E0,7.059999704E-1,9.972000122E0,1.108000040E0
3.128735573E0,6.250000000E-1,1.008699989E1,1.202000022E0
3.131233727E0,5.649999976E-1,1.000100040E1,1.182999969E0
3.133737804E0,5.860000253E-1,1.004899979E1,1.258999944E0
3.136236035E0,4.930000007E-1,1.000599957E1,1.228000045E0
3.138740112E0,5.000000000E-1,9.946000099E0,1.366999984E0
3.141238410E0,4.930000007E-1,9.911999702E0,1.483999968E0
3.143742487E0,4.830000103E-1,9.897999763E0,1.427000046E0
3.146240641E0,4.569999874E-1,9.965000153E0,1.687999964E0
3.148744794E0,4.569999874E-1,9.977000237E0,1.832000017E0
3.151242952E0,3.589999974E-1,1.003699970E1,1.944000006E0
3.153747029E0,2.560000122E-1,1.001299953E1,1.947000027E0
3.156245260E0,3.440000117E-1,1.017800045E1,2.046999931E0
3.158749337E0,3.230000138E-1,1.023299980E1,2.062000036E0
3.161247549E0,2.750000060E-1,1.026000023E1,1.950999975E0
3.163751626E0,1.790000051E-1,1.026000023E1,1.963000059E0
3.166249779E0,4.300000146E-2,1.015400028E1,1.924999952E0
3.168753856E0,-5.200000107E-2,1.012100029E1,1.748000026E0
3.171252006E0,3.999999911E-2,1.018999958E1,1.710000038E0
3.173756083E0,2.010000050E-1,1.034799957E1,2.193000078E0
3.176254314E0,3.849999905E-1,1.044200039E1,2.378000021E0
3.178758391E0,3.490000069E-1,1.060700035E1,2.335000038E0
3.181256545E0,3.350000083E-1,1.080799961E1,2.267999887E0
3.183760617E0,1.959999949E-1,1.095400047E1,2.440000057E0
3.186258847E0,-7.000000216E-3,1.097099972E1,2.221999884E0
3.188762924E0,-9.099999815E-2,1.096199989E1,2.405999899E0
3.191261155E0,-7.000000216E-3,1.105000019E1,2.437999964E0
3.193765242E0,7.100000232E-2,1.114599991E1,2.542999983E0
3.196263396E0,-1.790000051E-1,1.111200047E1,2.497999907E0
3.198767473E0,-2.389999926E-1,1.119099998E1,2.519000053E0
3.201265704E0,-2.199999988E-1,1.117500019E1,2.463999987E0
3.203769780E0,-1.340000033E-1,1.121800041E1,2.497999907E0
3.206268001E0,-3.300000131E-1,1.119099998E1,2.664999962E0
3.208772078E0,-3.680000007E-1,1.110799980E1,2.631999969E0
3.211270309E0,-4.350000024E-1,1.126299953E1,2.599999905E0
3.213774386E0,-3.109999895E-1,1.132100010E1,2.736999989E0
3.216272516E0,-6.629999876E-1,1.118900013E1,2.667999983E0
3.218776593E0,-6.990000010E-1,1.128199959E1,2.691999912E0
3.221274823E0,-7.419999838E-1,1.136400032E1,2.753999949E0
3.223778900E0,-8.470000029E-1,1.138099957E1,2.778000116E0
3.226277131E0,-6.150000095E-1,1.146899986E1,2.805999994E0
3.228781198E0,-8.209999800E-1,1.138300037E1,2.911999941E0
3.231279352E0,-9.769999981E-1,1.125800037E1,3.029000044E0
3.233783429E0,-1.029000044E0,1.131099987E1,3.095999956E0
3.236281660E0,-1.004999995E0,1.123900032E1,3.019999981E0
3.238785741E0,-1.055999994E0,1.127799988E1,3.036000013E0
3.241283971E0,-1.171000004E0,1.128199959E1,3.000000000E0
3.243788048E0,-1.235000014E0,1.132299995E1,3.043999910E0
3.246286202E0,-1.003000021E0,1.135200024E1,3.155999899E0
3.248790284E0,-1.317000031E0,1.113899994E1,3.138999939E0
3.251288515E0,-1.503999949E0,1.093999958E1,3.384000063E0
3.253792592E0,-1.501000047E0,1.103299999E1,3.341000080E0
3.256290822E0,-1.470000029E0,1.093999958E1,3.246999979E0
3.258794899E0,-1.472000003E0,1.088199997E1,3.367000103E0
3.261293135E0,-1.439000010E0,1.092099953E1,3.288000107E0
3.263797212E0,-1.501000047E0,1.090400028E1,3.325999975E0
3.266295366E0,-1.373999953E0,1.108800030E1,3.288000107E0
3.268799443E0,-1.786000013E0,1.079100037E1,3.278000116E0
3.271297664E0,-1.996999979E0,1.061900043E1,3.295000076E0
3.273801741E0,-1.991999984E0,1.058500004E1,3.384000063E0
3.276299971E0,-1.917999983E0,1.049199963E1,3.496000051E0
3.278804048E0,-1.907999992E0,1.041100025E1,3.507999897E0
3.281302231E0,-1.865000010E0,1.035299969E1,3.549000025E0
3.283806308E0,-1.907999992E0,1.024499989E1,3.486999989E0
3.286304539E0,-1.570999980E0,1.038000011E1,3.569999933E0
3.288808616E0,-1.904000044E0,9.866999626E0,3.792999983E0
3.291306847E0,-2.003999949E0,9.605999947E0,3.668999910E0
3.293810929E0,-2.131000042E0,9.595999718E0,3.766999960E0
3.296309159E0,-2.099999905E0,9.560000420E0,3.733000040E0
3.298813236E0,-2.081000090E0,9.350000381E0,3.525000095E0
3.301311390E0,-2.354000092E0,9.277999878E0,3.447999954E0
3.303815476E0,-2.344000101E0,9.189000130E0,3.391000032E0
3.306313707E0,-2.220000029E0,9.255999565E0,3.217999935E0
3.308817784E0,-1.990000010E0,9.187000275E0,3.278000116E0
3.311316014E0,-1.942000031E0,8.928000450E0,3.474999905E0
3.313820091E0,-1.937000036E0,8.770000458E0,3.615999937E0
3.316318313E0,-1.809999943E0,8.862999916E0,3.644999981E0
3.318822313E0,-1.651999950E0,8.895000458E0,3.772000074E0
3.321320544E0,-1.307000041E0,8.861000061E0,3.835999966E0
3.323824621E0,-1.082000017E0,8.677000046E0,4.131000042E0
3.326322861E0,-9.240000248E-1,8.664999962E0,4.368000031E0
3.328826938E0,-8.470000029E-1,8.815999985E0,4.396999836E0
3.331325168E0,-7.009999752E-1,8.855999947E0,4.331999779E0
3.333829245E0,-5.770000219E-1,8.939999580E0,4.099999905E0
3.336327423E0,-4.020000100E-1,9.442999840E0,4.013999939E0
3.338831500E0,-8.349999785E-1,9.206000328E0,4.144999981E0
3.341329731E0,-1.052999973E0,9.043000221E0,4.129000187E0
3.343833808E0,-1.475000024E0,8.810999870E0,4.065999985E0
3.346332136E0,-1.587000012E0,8.866000175E0,3.990000010E0
3.348836212E0,-2.028000116E0,8.840000153E0,3.990000010E0
3.351334443E0,-2.016000032E0,8.883000374E0,3.884000063E0
3.353838520E0,-2.267999887E0,8.701000214E0,3.834000111E0
3.356336674E0,-2.493000031E0,8.786999702E0,3.565999985E0
3.358840755E0,-2.526000023E0,8.562000275E0,3.525000095E0
3.361338986E0,-2.211999893E0,8.590000153E0,3.523000002E0
3.363843063E0,-1.360000014E0,9.199000359E0,3.542000055E0
3.366341293E0,-1.774000049E0,8.649999619E0,3.934999943E0
3.368845361E0,-1.828999996E0,8.170999527E0,4.138000011E0
3.371343515E0,-1.978000045E0,8.079999924E0,4.322999954E0
3.373847592E0,-1.950999975E0,7.980000019E0,4.512000084E0
3.376345823E0,-1.944000006E0,8.064000130E0,4.436999798E0
3.378849900E0,-1.965999961E0,8.052000046E0,4.373000145E0
3.381348140E0,-2.069000006E0,8.128000259E0,4.460999966E0
3.383852217E0,-2.013999939E0,8.043999672E0,4.460999966E0
3.386350447E0,-2.088000059E0,8.022999763E0,4.377999783E0
3.388854524E0,-2.095000029E0,7.940999985E0,4.471000195E0
3.391352698E0,-2.052000046E0,8.034999847E0,4.441999912E0
3.393856775E0,-2.020999908E0,7.960999966E0,4.427999973E0
3.396355006E0,-1.722000003E0,8.059000015E0,4.425000191E0
3.398859083E0,-1.947000027E0,7.984000206E0,4.184000015E0
3.401357323E0,-2.045000076E0,7.505000114E0,4.452000141E0
3.403861399E0,-2.609999895E0,7.284999847E0,4.629000187E0
3.406359553E0,-2.210000038E0,7.397999763E0,4.866000175E0
3.408863707E0,-2.144999981E0,7.426000118E0,4.663000107E0
3.411361861E0,-2.335000038E0,7.355000019E0,4.652999878E0
3.413865924E0,-2.247999907E0,7.431000233E0,4.626999855E0
3.416364155E0,-2.236000061E0,7.544000149E0,4.559999943E0
3.418868232E0,-2.253000021E0,7.567999840E0,4.513999939E0
3.421366462E0,-2.346999884E0,7.644000053E0,4.448999882E0
3.423870534E0,-2.296000004E0,7.769000053E0,4.434999943E0
3.426368765E0,-2.394999981E0,7.886000156E0,4.538000107E0
3.428872842E0,-2.405999899E0,7.967999935E0,4.535999775E0
3.431370996E0,-2.375000000E0,8.119000435E0,4.403999805E0
3.433875073E0,-2.437999964E0,8.338999748E0,4.532999992E0
3.436373285E0,-2.246000051E0,8.843999863E0,4.440000057E0
3.438877362E0,-2.634000063E0,8.479999542E0,4.489999771E0
3.441375592E0,-2.696000099E0,8.475000381E0,4.633999825E0
3.443879669E0,-2.667999983E0,8.791999817E0,4.610000134E0
3.446377885E0,-2.617000103E0,8.897000313E0,4.610000134E0
3.448881885E0,-2.621999979E0,9.034000397E0,4.689000130E0
3.451380116E0,-2.566999912E0,9.267999649E0,4.629000187E0
3.453884193E0,-2.687000036E0,9.302000046E0,4.708000183E0
3.456382400E0,-2.743999958E0,9.338000298E0,4.738999844E0
3.458886476E0,-2.864000082E0,9.352000237E0,4.743999958E0
3.461384707E0,-2.980999947E0,9.289999962E0,4.870999813E0
3.463888784E0,-3.187000036E0,9.409999847E0,4.956999779E0
3.466387015E0,-3.234999895E0,9.406999588E0,5.081999779E0
3.468891092E0,-3.119999886E0,9.366000175E0,5.263999939E0
3.471389246E0,-3.046000004E0,9.333000183E0,5.328000069E0
3.473893323E0,-2.180999994E0,8.581000328E0,5.182000160E0
3.476391553E0,-1.274000049E0,8.581000328E0,4.682000160E0
3.478895616E0,-1.590000033E0,8.439999580E0,4.821000099E0
3.481393847E0,-2.059000015E0,8.362999916E0,4.885000229E0
3.483897924E0,-2.107000113E0,8.229000092E0,4.986000061E0
3.486396155E0,-2.371000051E0,8.159000397E0,5.072000027E0
3.488900232E0,-2.559999943E0,8.059000015E0,5.096000195E0
3.491398367E0,-2.608000040E0,8.036999702E0,5.098000050E0
3.493902520E0,-2.569000006E0,7.943999767E0,5.122000217E0
3.496400674E0,-2.584000111E0,7.909999847E0,5.263999939E0
3.498904751E0,-2.746999979E0,7.756999969E0,5.335999966E0
3.501402963E0,-2.559999943E0,7.974999905E0,5.565999985E0
3.503907040E0,-1.784000039E0,8.692999840E0,5.451000214E0
3.506405271E0,-2.749000072E0,8.079999924E0,5.270999908E0
3.508909348E0,-2.759000063E0,8.036999702E0,5.533999920E0
3.511407511E0,-2.821000099E0,7.888999939E0,5.623000145E0
3.513911588E0,-2.624000072E0,7.953000069E0,5.592000008E0
3.516409819E0,-2.556999922E0,7.965000153E0,5.637000084E0
3.518913896E0,-2.631999969E0,7.951000214E0,5.676000118E0
3.521412127E0,-2.645999908E0,7.973000050E0,5.664000034E0
3.523916189E0,-2.644000053E0,7.962999821E0,5.632999897E0
3.526414420E0,-2.691999912E0,7.977000237E0,5.546000004E0
3.528918497E0,-2.404000044E0,8.041999817E0,5.348000050E0
3.531416650E0,-1.947000027E0,8.520999908E0,5.348000050E0
3.533920809E0,-2.854000092E0,7.995999813E0,5.114999771E0
3.536418963E0,-2.569000006E0,7.857999802E0,5.400000095E0
3.538923040E0,-2.785000086E0,7.706999779E0,5.284999847E0
3.541421271E0,-2.811000109E0,7.651999950E0,5.481999874E0
3.543925324E0,-2.846999884E0,7.948999882E0,5.335999966E0
3.546423554E0,-2.943000078E0,8.039999962E0,5.360000134E0
3.548927631E0,-3.190000057E0,8.199999809E0,5.151000023E0
3.551425862E0,-3.095999956E0,8.303000450E0,5.315999985E0
3.553929939E0,-3.094000101E0,8.498999596E0,5.249000072E0
3.556428103E0,-3.361999989E0,8.748999596E0,5.179999828E0
3.558932180E0,-2.573999882E0,8.949999809E0,5.066999912E0
3.561430411E0,-3.349999905E0,8.954000473E0,5.177999973E0
3.563934488E0,-3.288000107E0,8.875000000E0,5.669000149E0
3.566432718E0,-3.234999895E0,8.998000145E0,5.537000179E0
3.568936795E0,-3.572999954E0,9.156000137E0,5.751999855E0
3.571435026E0,-3.456000090E0,9.274999619E0,5.862999916E0
3.573939103E0,-3.341000080E0,9.383000374E0,6.034999847E0
3.576437257E0,-3.543999910E0,9.461999893E0,6.158999920E0
3.578941334E0,-3.471999884E0,9.352000237E0,6.282000065E0
3.581439565E0,-3.147000074E0,9.605999947E0,6.124000072E0
3.583943642E0,-3.191999912E0,9.810000420E0,6.102000237E0
3.586441872E0,-3.062999964E0,9.972000122E0,6.046999931E0
3.588945958E0,-2.332000017E0,1.006299973E1,6.065999985E0
3.591444189E0,-3.167999983E0,9.571999550E0,5.755000114E0
3.593948266E0,-2.865999937E0,8.472999573E0,6.959000111E0
3.596446497E0,-2.803999901E0,7.962999821E0,6.892000198E0
3.598950579E0,-2.865999937E0,8.168999672E0,7.033999920E0
3.601448732E0,-2.854000092E0,8.586000443E0,7.295000076E0
3.603952809E0,-3.292999983E0,9.437999725E0,7.431000233E0
3.606451040E0,-3.808000088E0,1.109300041E1,7.618000031E0
3.608955117E0,-3.990000010E0,1.279800034E1,7.728000164E0
3.611453363E0,-3.171000004E0,1.181700039E1,8.319999695E0
3.613957440E0,-1.891999960E0,9.914999962E0,8.305000305E0
3.616455671E0,-1.208999991E0,8.902000427E0,7.284999847E0
3.618959748E0,-5.789999962E-1,8.420000076E0,6.315000057E0
3.621457915E0,-5.220000148E-1,8.017999649E0,5.879000187E0
3.623961992E0,-4.110000134E-1,7.867000103E0,5.960999966E0
3.626460223E0,-6.200000048E-1,8.095000267E0,6.313000202E0
3.628964300E0,-6.560000181E-1,8.229000092E0,6.158999920E0
3.631462516E0,-6.610000134E-1,9.208000183E0,5.974999905E0
3.633966593E0,4.860000014E-1,9.902999878E0,6.313000202E0
3.636464823E0,-3.869999945E-1,8.777000427E0,6.809000015E0
3.638968900E0,-6.150000095E-1,8.092000008E0,6.611999989E0
3.641467131E0,-7.469999790E-1,7.981999874E0,6.373000145E0
3.643971131E0,-1.396000028E0,7.676000118E0,7.061999798E0
3.646469362E0,-2.075999975E0,7.735000134E0,7.289999962E0
3.648973439E0,-2.207999945E0,8.326999664E0,6.585999966E0
3.651471670E0,-2.250999928E0,8.475000381E0,6.071000099E0
3.653975747E0,-2.118999958E0,8.708000183E0,5.627999783E0
3.656473982E0,-2.167000055E0,8.715000153E0,5.565999985E0
3.658978059E0,-2.190999985E0,8.213999748E0,5.671000004E0
3.661476290E0,-1.922999978E0,8.664999962E0,5.251999855E0
3.663980290E0,-7.400000095E-1,9.289999962E0,5.744999886E0
3.666478540E0,-1.159000039E0,8.595000267E0,5.574999809E0
3.668982617E0,-1.559000015E0,7.770999908E0,5.458000183E0
3.671480848E0,-2.246000051E0,7.035999775E0,5.210999966E0
3.673984924E0,-2.602999926E0,6.750999928E0,4.875999928E0
3.676483174E0,-2.599999905E0,7.477000237E0,4.592999935E0
3.678987251E0,-2.990999937E0,7.201000214E0,5.012000084E0
3.681485405E0,-2.845000029E0,6.585999966E0,5.126999855E0
3.683989482E0,-3.040999889E0,6.561999798E0,4.743999958E0
3.686487698E0,-3.029000044E0,5.828999996E0,4.952000141E0
3.688991775E0,-3.144000053E0,5.409999847E0,5.039000034E0
3.691490005E0,-3.242000103E0,5.660999775E0,4.877999783E0
3.693994082E0,-2.599999905E0,5.788000107E0,5.247000217E0
3.696492313E0,-2.421000004E0,5.254000187E0,5.585000038E0
3.698996390E0,-2.766000032E0,4.927999973E0,5.769000053E0
3.701494544E0,-2.773000002E0,4.881000042E0,5.702000141E0
3.703998621E0,-2.802000046E0,4.756000042E0,5.553999901E0
3.706496852E0,-2.628999949E0,5.026999950E0,5.574999809E0
3.709000925E0,-2.480999947E0,5.323999882E0,5.560999870E0
3.711499155E0,-2.542999983E0,5.323999882E0,5.593999863E0
3.714003232E0,-2.358999968E0,5.039000034E0,5.699999809E0
3.716501463E0,-2.065999985E0,4.935999870E0,5.676000118E0
3.719005558E0,-2.088000059E0,4.979000092E0,5.841000080E0
3.721503712E0,-1.911000013E0,4.967000008E0,6.059000015E0
3.724007789E0,-1.916000009E0,4.842000008E0,5.988999844E0
3.726506020E0,-1.868000031E0,5.033999920E0,6.125999928E0
3.729010096E0,-1.899000049E0,5.216000080E0,6.204999924E0
3.731508318E0,-1.863000035E0,5.277999878E0,6.245999813E0
3.734012395E0,-1.917999983E0,5.340000153E0,6.131000042E0
3.736510626E0,-1.868000031E0,5.589000225E0,6.124000072E0
3.739014626E0,-1.963000059E0,5.763999939E0,6.250999928E0
3.741512866E0,-2.049999952E0,5.739999771E0,6.276999950E0
3.744016943E0,-2.042000055E0,5.973000050E0,6.278999805E0
3.746515173E0,-2.232000113E0,6.032999992E0,6.262000084E0
3.749019250E0,-1.995000005E0,5.894000053E0,6.343999863E0
3.751517487E0,-2.029999971E0,5.790999889E0,6.410999775E0
3.754021564E0,-1.968000054E0,5.857999802E0,6.464000225E0
3.756519795E0,-1.939000010E0,5.830999851E0,6.262000084E0
3.759023872E0,-1.968000054E0,5.736000061E0,6.329999924E0
3.761522026E0,-2.062000036E0,5.842999935E0,6.210000038E0
3.764026093E0,-2.085999966E0,5.728000164E0,6.274000168E0
3.766524323E0,-2.078000069E0,5.816999912E0,6.381999969E0
3.769028400E0,-2.063999891E0,5.756999969E0,6.290999889E0
3.771526631E0,-2.132999897E0,5.864999771E0,6.267000198E0
3.774030708E0,-2.207999945E0,5.874000072E0,6.339000225E0
3.776528939E0,-2.020999908E0,5.730999947E0,6.598000050E0
3.779032939E0,-2.075999975E0,5.737999916E0,6.434999943E0
3.781531170E0,-2.125999928E0,5.665999889E0,6.368000031E0
3.784035246E0,-2.053999901E0,5.609000206E0,6.350999832E0
3.786533453E0,-2.117000103E0,5.579999924E0,6.357999802E0
3.789037530E0,-2.160000086E0,5.623000145E0,6.313000202E0
3.791535761E0,-2.095000029E0,5.683000088E0,6.388999939E0
3.794039838E0,-2.124000072E0,5.699999809E0,6.388999939E0
3.796538069E0,-2.121000051E0,5.755000114E0,6.422999859E0
3.799042146E0,-2.109999895E0,5.785999775E0,6.464000225E0
3.801540376E0,-2.190999985E0,5.934000015E0,6.527999878E0
3.804044376E0,-2.038000107E0,5.888999939E0,6.610000134E0
3.806542627E0,-2.204999924E0,5.846000195E0,6.610000134E0
3.809046704E0,-2.168999910E0,6.037000179E0,6.715000153E0
3.811544935E0,-2.138000011E0,6.034999847E0,6.870999813E0
3.814049012E0,-2.200999975E0,6.178999901E0,6.821000099E0
3.816547238E0,-2.153000116E0,6.222000122E0,6.868000031E0
3.819051314E0,-2.223999977E0,6.362999916E0,6.968999863E0
3.821549545E0,-2.118999958E0,6.433000088E0,7.012000084E0
3.824053545E0,-2.178999901E0,6.519000053E0,6.926000118E0
3.826551776E0,-2.180999994E0,6.576000214E0,7.035999775E0
3.829055867E0,-2.174000025E0,6.585999966E0,7.046000004E0
3.831554098E0,-2.229000092E0,6.559000015E0,7.019000053E0
3.834058175E0,-2.243999958E0,6.561999798E0,7.186999798E0
3.836556405E0,-2.174000025E0,6.583000183E0,7.065000057E0
3.839060482E0,-2.272000074E0,6.571000099E0,7.002999783E0
3.841558646E0,-2.286999941E0,6.855999947E0,7.059999943E0
3.844062723E0,-2.490000010E0,6.964000225E0,7.163000107E0
3.846560954E0,-2.502000093E0,7.054999828E0,7.277999878E0
3.849065031E0,-2.529000044E0,7.125000000E0,7.419000149E0
3.851563252E0,-2.548000097E0,6.894999981E0,7.310999870E0
3.854067329E0,-2.611999989E0,6.896999836E0,7.321000099E0
3.856565559E0,-2.417999983E0,6.987999916E0,7.337999821E0
3.859069636E0,-2.635999918E0,6.991000175E0,7.390999794E0
3.861567872E0,-2.732000113E0,6.998000145E0,7.495999813E0
3.864071872E0,-2.691999912E0,6.949999809E0,7.368999958E0
3.866570103E0,-2.696000099E0,6.979000092E0,7.265999794E0
3.869074180E0,-2.548000097E0,6.696000099E0,7.309000015E0
3.871572391E0,-2.664999962E0,6.690999985E0,7.219999790E0
3.874076468E0,-2.671999931E0,6.806000233E0,7.242000103E0
3.876574699E0,-2.749000072E0,6.743999958E0,7.242000103E0
3.879078776E0,-2.739000082E0,6.959000111E0,7.230000019E0
3.881577007E0,-2.749000072E0,7.024000168E0,7.249000072E0
3.884081079E0,-2.670000076E0,7.070000172E0,7.254000187E0
3.886579233E0,-2.726999998E0,6.949999809E0,7.296999931E0
3.889083387E0,-2.641000032E0,7.072000027E0,7.309000015E0
3.891581540E0,-2.641000032E0,6.940000057E0,7.386000156E0
3.894085627E0,-2.490000010E0,7.061999798E0,7.361999989E0
3.896583858E0,-2.523999929E0,7.073999882E0,7.473999977E0
3.899087935E0,-2.494999886E0,7.066999912E0,7.386000156E0
3.901586166E0,-2.566999912E0,7.081999779E0,7.585000038E0
3.904090243E0,-2.526000023E0,7.119999886E0,7.498000145E0
3.906588401E0,-2.516999960E0,7.040999889E0,7.653999805E0
3.909092478E0,-2.573999882E0,7.065000057E0,7.716000080E0
3.911590708E0,-2.505000114E0,7.040999889E0,7.853000164E0
3.914094785E0,-2.608000040E0,7.184999943E0,7.782999992E0
3.916593011E0,-2.566999912E0,7.337999821E0,7.907999992E0
3.919097088E0,-2.486000061E0,7.209000111E0,8.072999954E0
3.921595319E0,-2.457000017E0,7.065000057E0,7.789999962E0
3.924099396E0,-2.358999968E0,7.052999973E0,7.744999886E0
3.926597539E0,-2.477999926E0,7.156000137E0,7.698999882E0
3.929101616E0,-2.398999929E0,7.449999809E0,7.795000076E0
3.931599847E0,-2.263000011E0,7.405000210E0,7.616000175E0
3.934103924E0,-2.259999990E0,7.209000111E0,7.355000019E0
3.936602140E0,-2.325000048E0,7.505000114E0,7.228000164E0
3.939106217E0,-2.336999893E0,7.763999939E0,7.513000011E0
3.941604448E0,-2.253000021E0,7.932000160E0,7.446000099E0
3.944108525E0,-2.576999903E0,8.303000450E0,7.716000080E0
3.946606755E0,-2.569000006E0,8.406000137E0,7.630000114E0
3.949110818E0,-2.770999908E0,8.774999619E0,7.788000107E0
3.951608972E0,-2.635999918E0,8.840000153E0,7.683000088E0
3.954113049E0,-2.770999908E0,9.119999886E0,7.646999836E0
3.956611280E0,-2.914000034E0,9.289999962E0,7.830999851E0
3.959115362E0,-2.940999985E0,9.253999710E0,7.728000164E0
3.961613592E0,-2.849999905E0,9.449999809E0,7.789999962E0
3.964117669E0,-2.875999928E0,9.571999550E0,7.980000019E0
3.966615900E0,-2.996000051E0,9.694999695E0,7.814000130E0
3.969119977E0,-2.854000092E0,9.826000214E0,7.762000084E0
3.971618126E0,-2.793999910E0,9.935999870E0,7.743000031E0
3.974122203E0,-2.864000082E0,1.000800037E1,7.706999779E0
3.976620434E0,-2.936000109E0,1.019699955E1,7.932000160E0
3.979124511E0,-3.040999889E0,1.038899994E1,7.732999802E0
3.981622741E0,-3.040999889E0,1.049899960E1,7.419000149E0
3.984126818E0,-3.043999910E0,1.061200047E1,7.219999790E0
3.986625049E0,-3.023999929E0,1.084200001E1,7.021999836E0
3.989129126E0,-3.119999886E0,1.090600014E1,7.010000229E0
3.991627328E0,-3.163000107E0,1.102900028E1,7.054999828E0
3.994131328E0,-3.130000114E0,1.100699997E1,6.868000031E0
3.996629559E0,-3.105999947E0,1.110299969E1,6.987999916E0
3.999133635E0,-3.227999926E0,1.112399960E1,7.084000111E0
4.001631866E0,-3.242000103E0,1.104800034E1,7.532000065E0
4.004135901E0,-3.309000015E0,1.098299980E1,7.616000175E0
4.006634132E0,-3.296999931E0,1.108399963E1,7.709000111E0
4.009138209E0,-3.341000080E0,1.127999973E1,7.646999836E0
4.011636440E0,-3.302000046E0,1.122500038E1,7.612999916E0
4.014140517E0,-3.250000000E0,1.120300007E1,7.477000237E0
4.016638674E0,-3.302000046E0,1.139000034E1,7.318999767E0
4.019142751E0,-3.305000067E0,1.151200008E1,7.472000122E0
4.021640982E0,-3.262000084E0,1.186900043E1,7.347000122E0
4.024145059E0,-3.263999939E0,1.208199978E1,7.473999977E0
4.026643290E0,-3.476999998E0,1.234599972E1,7.438000202E0
4.029147363E0,-3.282999992E0,1.254199982E1,7.268000126E0
4.031645594E0,-3.111000061E0,1.300000000E1,7.084000111E0
4.034149671E0,-3.072000027E0,1.328199959E1,7.040999889E0
4.036647901E0,-2.997999907E0,1.352900028E1,7.070000172E0
4.039151973E0,-2.937999964E0,1.376599979E1,7.375999928E0
4.041650127E0,-2.881000042E0,1.389500046E1,7.695000172E0
4.044154204E0,-2.881000042E0,1.410900021E1,7.902999878E0
4.046652435E0,-2.937999964E0,1.421599960E1,8.279000282E0
4.049156502E0,-2.825999975E0,1.431200027E1,8.451999664E0
4.051654732E0,-2.775000095E0,1.424499989E1,8.513999939E0
4.054158809E0,-2.681999922E0,1.415200043E1,8.435000420E0
4.056657040E0,-2.691999912E0,1.406799984E1,8.392000198E0
4.059161122E0,-2.490000010E0,1.394799995E1,8.270000458E0
4.061659276E0,-2.272000074E0,1.392700005E1,7.951000214E0
4.064163430E0,-2.062000036E0,1.367700005E1,7.811999798E0
4.066661584E0,-1.881999969E0,1.346199989E1,7.349999905E0
4.069165661E0,-1.707000017E0,1.322700024E1,7.091000080E0
4.071663896E0,-1.549000025E0,1.286600018E1,6.885000229E0
4.074167973E0,-1.496000051E0,1.244600010E1,6.780000210E0
4.076666204E0,-1.396000028E0,1.209899998E1,6.798999786E0
4.079170281E0,-1.513000011E0,1.193900013E1,6.782000065E0
4.081668526E0,-1.894000053E0,1.114799976E1,6.673999786E0
4.084172603E0,-1.891999960E0,1.089900017E1,6.441999912E0
4.086670757E0,-1.875000000E0,1.064999962E1,6.257999897E0
4.089174833E0,-2.009000063E0,1.046100044E1,5.986999989E0
4.091673054E0,-2.062000036E0,1.006599998E1,5.818999767E0
4.094177131E0,-2.049999952E0,9.892999649E0,5.510000229E0
4.096675362E0,-2.073999882E0,9.838000298E0,5.276000023E0
4.099179439E0,-2.430000067E0,9.461999893E0,5.017000198E0
4.101677670E0,-2.253000021E0,9.274999619E0,4.780000210E0
4.104181747E0,-2.256000042E0,9.086000443E0,4.633999825E0
4.106679977E0,-2.190999985E0,8.798999786E0,4.418000221E0
4.109184054E0,-2.247999907E0,8.704999924E0,4.350999832E0
4.111682213E0,-2.289000034E0,8.578000069E0,4.192999840E0
4.114186290E0,-2.322999954E0,8.350999832E0,4.099999905E0
4.116684521E0,-2.250999928E0,8.255000114E0,4.065999985E0
4.119188598E0,-2.497999907E0,8.039999962E0,3.898999929E0
4.121686829E0,-2.578999996E0,7.849999905E0,3.867000103E0
4.124190919E0,-2.703000069E0,7.781000137E0,3.589999914E0
4.126689150E0,-2.608000040E0,7.695000172E0,3.424000025E0
4.129193227E0,-2.408999920E0,7.630000114E0,2.770999908E0
4.131691458E0,-2.617000103E0,7.419000149E0,2.655999899E0
4.134195535E0,-2.404000044E0,7.280000210E0,2.964999914E0
4.136693689E0,-2.404000044E0,7.460000038E0,3.036000013E0
4.139197766E0,-2.289000034E0,7.502999783E0,3.227999926E0
4.141695996E0,-2.301000118E0,7.625000000E0,3.278000116E0
4.144200073E0,-2.390000105E0,7.709000111E0,3.278000116E0
4.146698313E0,-2.326999903E0,7.709000111E0,3.026999950E0
4.149202390E0,-2.329999924E0,7.709000111E0,2.842000008E0
4.151700621E0,-2.319999933E0,7.778999805E0,2.792000055E0
4.154204698E0,-2.275000095E0,7.867000103E0,2.477999926E0
4.156702924E0,-2.131000042E0,7.955999851E0,2.329999924E0
4.159207000E0,-2.073999882E0,8.039999962E0,2.186000109E0
4.161705154E0,-2.029999971E0,8.211999893E0,2.229000092E0
4.164209308E0,-1.912999988E0,8.319999695E0,2.069000006E0
4.166707491E0,-1.838999987E0,8.489999771E0,2.088000059E0
4.169211568E0,-1.610999942E0,8.515999794E0,2.062000036E0
4.171709799E0,-1.529999971E0,8.593000412E0,1.953999996E0
4.174213876E0,-1.511000037E0,8.678999901E0,1.907999992E0
4.176712106E0,-1.361999989E0,8.701000214E0,1.761999965E0
4.179216207E0,-1.289999962E0,8.715000153E0,1.685999990E0
4.181714438E0,-1.251999974E0,8.635999680E0,1.167999983E0
4.184218515E0,-1.210999966E0,8.689000130E0,1.401000023E0
4.186716746E0,-1.167999983E0,8.807999611E0,1.639999986E0
4.189220828E0,-1.075000048E0,8.835000038E0,1.906000018E0
4.191718982E0,-8.930000067E-1,8.925999641E0,1.791000009E0
4.194223059E0,-8.640000224E-1,8.937999725E0,2.319999933E0
4.196721289E0,-1.013000011E0,9.100999832E0,2.545000076E0
4.199225366E0,-9.860000014E-1,9.156000137E0,2.825999975E0
4.201723597E0,-1.003000021E0,8.980999947E0,2.785000086E0
4.204227674E0,-7.990000248E-1,9.126999855E0,2.900000095E0
4.206725905E0,-7.490000129E-1,9.170000076E0,2.592999935E0
4.209229982E0,-8.190000057E-1,9.187000275E0,2.617000103E0
4.211728212E0,-8.569999933E-1,9.093000412E0,2.796999931E0
4.214232289E0,-1.057999969E0,8.986000061E0,2.871000051E0
4.216730443E0,-9.480000138E-1,9.140999794E0,2.921000004E0
4.219234520E0,-1.108000040E0,9.171999931E0,2.730000019E0
4.221732794E0,-1.258999944E0,9.064999580E0,2.415999889E0
4.224236871E0,-1.324000001E0,9.026000023E0,2.372999907E0
4.226735102E0,-1.460000038E0,9.074000359E0,2.505000114E0
4.229239179E0,-1.651999950E0,9.001999855E0,2.576999903E0
4.231737409E0,-1.750000000E0,9.157999992E0,2.734999895E0
4.234241481E0,-1.881999969E0,9.064999580E0,2.967000008E0
4.236739712E0,-2.016000032E0,8.993000031E0,3.187000036E0
4.239243789E0,-2.177000046E0,8.973999977E0,3.167999983E0
4.241742020E0,-2.253000021E0,8.854000092E0,3.384000063E0
4.244246088E0,-2.512000084E0,8.765000343E0,3.444000006E0
4.246744242E0,-2.378000021E0,8.862999916E0,3.400000095E0
4.249248318E0,-2.427999973E0,8.793999672E0,3.227999926E0
4.251746549E0,-2.486000061E0,8.861000061E0,3.072000027E0
4.254250626E0,-2.427999973E0,8.684000015E0,2.799000025E0
4.256748837E0,-2.566999912E0,8.668999672E0,2.703000069E0
4.259252914E0,-2.523999929E0,8.685999870E0,2.573999882E0
4.261751145E0,-2.417999983E0,8.741000175E0,2.440000057E0
4.264255222E0,-2.548000097E0,8.677000046E0,2.394999981E0
4.266753443E0,-2.473999977E0,8.621999741E0,2.434999943E0
4.269257520E0,-2.483000040E0,8.557000160E0,2.368000031E0
4.271755674E0,-2.506999969E0,8.571000099E0,2.243999958E0
4.274259751E0,-2.591000080E0,8.423000336E0,2.153000116E0
4.276757982E0,-2.619999886E0,8.423000336E0,2.141000032E0
4.279262059E0,-2.548000097E0,8.494999886E0,2.135999918E0
4.281760290E0,-2.494999886E0,8.388999939E0,2.214999914E0
4.284264366E0,-2.595999956E0,8.487000465E0,2.114000082E0
4.286762592E0,-2.615000010E0,8.420000076E0,2.023000002E0
4.289266669E0,-2.664999962E0,8.484999657E0,1.963000059E0
4.291764900E0,-2.615000010E0,8.581000328E0,2.117000103E0
4.294268977E0,-2.542999983E0,8.607000351E0,2.259999990E0
4.296767131E0,-2.450000048E0,8.543000221E0,2.329999924E0
4.299271213E0,-2.375000000E0,8.626000404E0,2.394999981E0
4.301769443E0,-2.414000034E0,8.701000214E0,2.421000004E0
4.304273520E0,-2.250999928E0,8.798999786E0,2.417999983E0
4.306771751E0,-2.319999933E0,9.010000229E0,2.257999897E0
4.309275837E0,-2.365999937E0,9.147999763E0,2.174000025E0
4.311774068E0,-2.336999893E0,9.390000343E0,2.157000065E0
4.314278145E0,-2.267999887E0,9.432999611E0,2.111999989E0
4.316776376E0,-2.188999891E0,9.543999672E0,2.098000050E0
4.319280452E0,-2.032999992E0,9.616000175E0,2.118999958E0
4.321778688E0,-1.911000013E0,9.739999771E0,2.078000069E0
4.324282765E0,-1.804999948E0,9.850000381E0,2.157000065E0
4.326780996E0,-2.069000006E0,9.739999771E0,2.308000088E0
4.329284996E0,-1.654000044E0,1.002999973E1,2.257999897E0
4.331783232E0,-1.685999990E0,1.016199970E1,2.384999990E0
4.334287309E0,-1.710000038E0,1.022099972E1,2.516999960E0
4.336785539E0,-1.606999993E0,1.027900028E1,2.486000061E0
4.339289616E0,-1.508000016E0,1.034099960E1,2.581000090E0
4.341787871E0,-1.440999985E0,1.030500031E1,2.591000080E0
4.344291948E0,-1.376999974E0,1.044900036E1,2.707999945E0
4.346790179E0,-1.292999983E0,1.038399982E1,2.829999924E0
4.349294256E0,-1.220999956E0,1.029100037E1,2.904999971E0
4.351792487E0,-1.177999973E0,1.024499989E1,3.019999981E0
4.354296568E0,-1.286000013E0,1.012800026E1,3.091000080E0
4.356794722E0,-1.218999982E0,1.009700012E1,3.252000093E0
4.359298799E0,-1.393000007E0,9.947999954E0,3.115000010E0
4.361797030E0,-1.325999975E0,9.914999962E0,3.055999994E0
4.364301092E0,-1.304999948E0,9.722999573E0,2.967000008E0
4.366799323E0,-1.286000013E0,9.680000305E0,2.818000078E0
4.369303400E0,-1.580000043E0,9.467000008E0,2.641000032E0
4.371801630E0,-1.215999961E0,9.527000427E0,2.680000067E0
4.374305707E0,-1.100999951E0,9.380999565E0,2.655999899E0
4.376803938E0,-1.008000016E0,9.359000206E0,2.677000046E0
4.379308015E0,-9.139999747E-1,9.296999931E0,2.469000101E0
4.381806246E0,-8.309999704E-1,9.201000214E0,2.361000061E0
4.384310323E0,-8.090000153E-1,9.270999908E0,2.384999990E0
4.386808496E0,-7.369999886E-1,9.239000320E0,2.246000051E0
4.389312573E0,-8.069999814E-1,9.109999657E0,2.171999931E0
4.391810803E0,-7.850000262E-1,9.138999939E0,2.105000019E0
4.394314880E0,-7.710000277E-1,9.211000443E0,1.906000018E0
4.396813102E0,-8.709999919E-1,9.151000023E0,1.939000010E0
4.399317179E0,-9.720000029E-1,9.170000076E0,1.700000048E0
4.401815410E0,-9.549999833E-1,9.114999771E0,1.756999969E0
4.404319487E0,-8.980000019E-1,9.093000412E0,1.606999993E0
4.406817726E0,-9.340000153E-1,9.053000450E0,1.562999964E0
4.409321803E0,-8.859999776E-1,9.013999939E0,1.488999963E0
4.411819957E0,-9.769999981E-1,8.854000092E0,1.439000010E0
4.414324034E0,-1.003000021E0,8.883000374E0,1.353000045E0
4.416822265E0,-1.009999990E0,8.835000038E0,1.225999951E0
4.419326352E0,-1.034000039E0,8.793999672E0,1.184999943E0
4.421824583E0,-1.062999964E0,8.708000183E0,1.049000025E0
4.424328660E0,-1.098999977E0,8.571000099E0,1.373999953E0
4.426826890E0,-1.253999949E0,8.555000305E0,1.488999963E0
4.429330976E0,-1.330999970E0,8.435000420E0,1.559000015E0
4.431829207E0,-1.623000026E0,8.439999580E0,1.437000036E0
4.434333284E0,-1.621000051E0,8.284000397E0,1.483999968E0
4.436831515E0,-1.481999993E0,8.201999664E0,1.671000004E0
4.439335592E0,-1.513000011E0,8.187999725E0,1.764999986E0
4.441833756E0,-1.513000011E0,8.008000374E0,1.712000012E0
4.444337832E0,-1.427000046E0,7.914999962E0,1.883999944E0
4.446836063E0,-1.324000001E0,7.828999996E0,1.963000059E0
4.449340140E0,-1.386000037E0,7.683000088E0,2.107000113E0
4.451838366E0,-1.386000037E0,7.750000000E0,1.896000028E0
4.454342443E0,-1.324000001E0,7.665999889E0,1.904000044E0
4.456840674E0,-1.422000051E0,7.651999950E0,1.896000028E0
4.459344751E0,-1.524999976E0,7.703999996E0,1.838999987E0
4.461842986E0,-1.470000029E0,7.618000031E0,1.631000042E0
4.464347063E0,-1.567999959E0,7.691999912E0,1.450999975E0
4.466845294E0,-1.376999974E0,7.688000202E0,1.202000022E0
4.469349371E0,-1.361999989E0,7.802000046E0,1.105999947E0
4.471847525E0,-1.488999963E0,7.807000160E0,1.325999975E0
4.474351587E0,-1.476999998E0,7.848000050E0,1.383999944E0
4.476849818E0,-1.460000038E0,8.029999733E0,1.202000022E0
4.479353894E0,-1.419999957E0,8.031999588E0,1.269000053E0
4.481852125E0,-1.348000050E0,8.020000458E0,1.082000017E0
4.484356193E0,-1.055999994E0,8.126000404E0,9.810000062E-1
4.486854424E0,-1.062999964E0,8.218999863E0,9.020000100E-1
4.489358501E0,-8.569999933E-1,8.298000336E0,7.749999762E-1
4.491856732E0,-5.720000267E-1,8.458999634E0,7.009999752E-1
4.494360809E0,-6.370000243E-1,8.496999741E0,7.749999762E-1
4.496859019E0,-6.100000143E-1,8.708000183E0,7.730000019E-1
4.499363096E0,-6.729999781E-1,8.647999763E0,7.590000033E-1
4.501861250E0,-7.639999986E-1,8.654999733E0,8.470000029E-1
4.504365327E0,-8.349999785E-1,8.843999863E0,6.389999986E-1
4.506863553E0,-8.309999704E-1,8.899000168E0,7.160000205E-1
4.509367630E0,-8.309999704E-1,8.970999718E0,6.250000000E-1
4.511865861E0,-8.709999919E-1,9.064999580E0,6.370000243E-1
4.514369937E0,-9.620000124E-1,9.086000443E0,6.679999828E-1
4.516868149E0,-9.860000014E-1,9.067000389E0,6.869999766E-1
4.519372226E0,-1.008000016E0,9.119999886E0,7.710000277E-1
4.521870457E0,-9.769999981E-1,9.114999771E0,7.440000176E-1
4.524374534E0,-1.154000044E0,9.112999916E0,7.490000129E-1
4.526872688E0,-1.261999965E0,9.053000450E0,6.629999876E-1
4.529376861E0,-1.225999951E0,9.262999535E0,7.250000238E-1
4.531875014E0,-1.093999982E0,9.310999870E0,6.029999852E-1
4.534379091E0,-1.110999942E0,9.289999962E0,5.839999914E-1
4.536877322E0,-1.110999942E0,9.241999626E0,5.619999766E-1
4.539381409E0,-1.055999994E0,9.220000267E0,6.800000072E-1
4.541879640E0,-1.077000022E0,9.022000313E0,5.979999900E-1
4.544383717E0,-1.139999986E0,9.050000191E0,5.809999704E-1
4.546881948E0,-1.271000028E0,9.022000313E0,5.649999976E-1
4.549386024E0,-1.350000024E0,9.022000313E0,6.409999728E-1
4.551884197E0,-1.450999975E0,8.880000114E0,7.039999962E-1
4.554388351E0,-1.656999946E0,8.765000343E0,8.209999800E-1
4.556886505E0,-1.621000051E0,8.836999893E0,8.830000162E-1
4.559390582E0,-1.590000033E0,8.904000282E0,8.209999800E-1
4.561888794E0,-1.669000030E0,8.897000313E0,9.309999943E-1
4.564392871E0,-1.712000012E0,8.904000282E0,1.067999959E0
4.566891101E0,-1.906000018E0,8.939999580E0,1.057999969E0
4.569395178E0,-1.843999982E0,8.961999893E0,1.072000027E0
4.571893385E0,-1.912999988E0,8.944999695E0,1.087000012E0
4.574397462E0,-1.973000050E0,8.968999863E0,1.149000049E0
4.576895693E0,-1.868000031E0,9.050000191E0,1.228000045E0
4.579399770E0,-1.860000014E0,9.048000336E0,1.149000049E0
4.581898001E0,-1.817000031E0,9.057000160E0,1.184999943E0
4.584402073E0,-1.965999961E0,9.081000328E0,1.129999995E0
4.586900226E0,-2.029999971E0,9.050000191E0,1.123000026E0
4.589404303E0,-1.958999991E0,9.218000412E0,1.049000025E0
4.591902534E0,-1.745000005E0,9.333000183E0,9.769999981E-1
4.594406597E0,-1.712000012E0,9.380999565E0,8.809999824E-1
4.596904828E0,-1.697999954E0,9.453000069E0,8.259999752E-1
4.599408905E0,-1.675999999E0,9.461999893E0,7.990000248E-1
4.601907135E0,-1.750000000E0,9.421999931E0,7.829999924E-1
4.604411217E0,-1.675999999E0,9.473999977E0,6.510000229E-1
4.606909448E0,-1.524999976E0,9.480999947E0,5.839999914E-1
4.609413525E0,-1.697999954E0,9.510000229E0,6.629999876E-1
4.611911756E0,-1.488999963E0,9.557999611E0,5.310000181E-1
4.614415756E0,-1.427000046E0,9.619999886E0,5.809999704E-1
4.616913986E0,-1.314000010E0,9.673000336E0,6.150000095E-1
4.619418063E0,-1.282999992E0,9.571999550E0,5.580000281E-1
4.621916293E0,-1.100999951E0,9.699000359E0,6.129999757E-1
4.624420370E0,-9.739999771E-1,9.824000359E0,5.839999914E-1
4.626918617E0,-9.070000052E-1,9.810000420E0,6.489999890E-1
4.629422694E0,-8.019999862E-1,9.789999962E0,6.819999814E-1
4.631920925E0,-8.450000286E-1,9.746999741E0,6.650000215E-1
4.634425002E0,-9.049999714E-1,9.668000221E0,6.700000167E-1
4.636923232E0,-9.620000124E-1,9.694999695E0,8.309999704E-1
4.639427309E0,-9.769999981E-1,9.619999886E0,8.500000238E-1
4.641925463E0,-8.659999967E-1,9.567999840E0,8.690000176E-1
4.644429540E0,-7.799999714E-1,9.751999855E0,9.259999990E-1
4.646927771E0,-8.159999847E-1,9.642000198E0,9.380000234E-1
4.649431853E0,-7.950000167E-1,9.739999771E0,9.409999847E-1
4.651930084E0,-7.559999824E-1,9.722999573E0,1.070000052E0
4.654434161E0,-7.469999790E-1,9.649000168E0,1.082000017E0
4.656932391E0,-8.470000029E-1,9.708999634E0,1.036999941E0
4.659436458E0,-8.999999762E-1,9.612999916E0,1.031999946E0
4.661934689E0,-1.087000012E0,9.534000397E0,1.080000043E0
4.664438766E0,-1.261999965E0,9.595999718E0,1.177999973E0
4.666936997E0,-1.366999984E0,9.739999771E0,1.182999969E0
4.669441074E0,-1.432000041E0,9.701999664E0,1.230999947E0
4.671939328E0,-1.503999949E0,9.685000420E0,1.154000044E0
4.674443405E0,-1.580000043E0,9.756999969E0,1.276000023E0
4.676941559E0,-1.644999981E0,9.689999580E0,1.319000006E0
4.679445636E0,-1.916000009E0,9.638999939E0,1.427000046E0
4.681943862E0,-1.764999986E0,9.782999992E0,1.171000004E0
4.684447939E0,-1.685999990E0,9.838000298E0,1.220999956E0
4.686946170E0,-1.523000002E0,1.005599976E1,1.129999995E0
4.689450247E0,-1.547000051E0,9.914999962E0,1.161000013E0
4.691948487E0,-1.659000039E0,1.002999973E1,1.083999991E0
4.694452564E0,-1.748000026E0,9.953000069E0,1.075000048E0
4.696950718E0,-1.800999999E0,9.944000244E0,9.100000262E-1
4.699454872E0,-1.723999977E0,9.958000183E0,7.400000095E-1
4.701953021E0,-1.766999960E0,9.960000038E0,4.950000048E-1
4.704457175E0,-1.797999978E0,9.991999626E0,4.979999959E-1
4.706955329E0,-1.815000057E0,1.000300026E1,4.090000093E-1
4.709459405E0,-1.815000057E0,9.965000153E0,2.700000107E-1
4.711957636E0,-1.891999960E0,9.934000015E0,2.409999967E-1
4.714461694E0,-1.786000013E0,1.002999973E1,2.169999927E-1
4.716959925E0,-1.638000011E0,9.970000267E0,1.099999994E-1
4.719464002E0,-1.610999942E0,1.002999973E1,1.309999973E-1
4.721962233E0,-1.623000026E0,1.001500034E1,1.620000005E-1
4.724466300E0,-1.452999949E0,1.004199982E1,3.869999945E-1
4.726964530E0,-1.412999988E0,1.006299973E1,4.230000079E-1
4.729468607E0,-1.322000027E0,1.005399990E1,3.199999928E-1
4.731966761E0,-1.256999969E0,9.953000069E0,3.950000107E-1
4.734470915E0,-1.294999957E0,1.012800026E1,3.899999857E-1
4.736969088E0,-1.253999949E0,9.989000320E0,4.449999928E-1
4.739473165E0,-1.131999969E0,1.012100029E1,5.189999938E-1
4.741971396E0,-1.052999973E0,1.009899998E1,4.639999866E-1
4.744475473E0,-1.223000050E0,1.000100040E1,7.160000205E-1
4.746973718E0,-1.087000012E0,1.012600040E1,6.840000153E-1
4.749477795E0,-9.240000248E-1,1.020499992E1,7.250000238E-1
4.751976026E0,-6.579999924E-1,1.022399998E1,7.730000019E-1
4.754480103E0,-7.200000286E-1,1.016199970E1,7.900000215E-1
4.756978334E0,-7.799999714E-1,1.018599987E1,8.330000043E-1
4.759482411E0,-8.330000043E-1,1.013799953E1,8.550000191E-1
4.761980641E0,-8.399999738E-1,1.009700012E1,9.840000272E-1
4.764484718E0,-6.959999800E-1,1.011100006E1,9.980000257E-1
4.766982872E0,-6.439999938E-1,1.007499981E1,1.026999950E0
4.769486949E0,-6.890000105E-1,1.004699993E1,1.118000031E0
4.771985180E0,-6.819999814E-1,1.015699959E1,1.171000004E0
4.774489257E0,-7.990000248E-1,1.026000023E1,1.050999999E0
4.776987488E0,-8.709999919E-1,1.026700020E1,1.036999941E0
4.779491550E0,-8.780000210E-1,1.032400036E1,9.909999967E-1
4.781989780E0,-1.003000021E0,1.045600033E1,9.580000043E-1
4.784493857E0,-1.059999943E0,1.049199963E1,8.230000138E-1
4.786992088E0,-1.162999988E0,1.067399979E1,7.469999790E-1
4.789496165E0,-1.233000040E0,1.069999981E1,7.969999909E-1
4.791994382E0,-1.233000040E0,1.079899979E1,7.710000277E-1
4.794498382E0,-1.292999983E0,1.082999992E1,7.490000129E-1
4.796996612E0,-1.299999952E0,1.094499969E1,7.590000033E-1
4.799500689E0,-1.286000013E0,1.103600025E1,6.959999800E-1
4.801998920E0,-1.519999981E0,1.086800003E1,8.159999847E-1
4.804502992E0,-1.404999971E0,1.102099991E1,9.049999714E-1
4.807001223E0,-1.250000000E0,1.124699974E1,7.519999743E-1
4.809505300E0,-1.136999965E0,1.127999973E1,7.870000005E-1
4.812003531E0,-1.149000049E0,1.124699974E1,6.959999800E-1
4.814507617E0,-1.118000031E0,1.131599998E1,6.010000110E-1
4.817005847E0,-1.282999992E0,1.132299995E1,6.250000000E-1
4.819509924E0,-1.230999947E0,1.132999992E1,5.649999976E-1
4.822008078E0,-1.021999955E0,1.127299976E1,5.139999986E-1
4.824512241E0,-8.090000153E-1,1.126099968E1,4.309999943E-1
4.827010395E0,-7.559999824E-1,1.134200001E1,4.900000095E-1
4.829514472E0,-5.699999928E-1,1.150500011E1,4.329999983E-1
4.832012702E0,-5.019999743E-1,1.152700043E1,3.230000138E-1
4.834516779E0,-4.900000095E-1,1.156999969E1,2.319999933E-1
4.837015020E0,-4.070000052E-1,1.166800022E1,1.840000004E-1
4.839519097E0,-2.199999988E-1,1.167800045E1,6.700000167E-2
4.842017328E0,-1.720000058E-1,1.170600033E1,-1.120000035E-1
4.844521405E0,-1.190000027E-1,1.162300014E1,-1.620000005E-1
4.847019621E0,4.699999839E-2,1.173299980E1,-1.720000058E-1
4.849523698E0,1.979999989E-1,1.174199963E1,-2.010000050E-1
4.852021928E0,1.819999963E-1,1.179500008E1,-2.509999871E-1
4.854526005E0,1.480000019E-1,1.173299980E1,-2.389999926E-1
4.857024159E0,1.410000026E-1,1.188599968E1,-2.820000052E-1
4.859528313E0,2.150000036E-1,1.192000008E1,-1.889999956E-1
4.862026467E0,1.430000067E-1,1.210900021E1,-2.849999964E-1
4.864530544E0,1.019999981E-1,1.214000034E1,-1.169999987E-1
4.867028766E0,-7.100000232E-2,1.231900024E1,-9.499999881E-2
4.869532843E0,-1.410000026E-1,1.254899979E1,6.700000167E-2
4.872031074E0,-3.300000131E-1,1.264799976E1,2.800000086E-2
4.874535151E0,-3.899999857E-1,1.283199978E1,1.959999949E-1
4.877033362E0,-4.469999969E-1,1.288199997E1,1.669999957E-1
4.879537439E0,-6.610000134E-1,1.309500027E1,2.730000019E-1
4.882035670E0,-8.259999752E-1,1.325599957E1,2.220000029E-1
4.884539747E0,-1.062999964E0,1.333699989E1,2.890000045E-1
4.887037977E0,-1.289999962E0,1.341199970E1,2.509999871E-1
4.889542054E0,-1.333999991E0,1.351900005E1,9.799999744E-2
4.892040285E0,-1.592000008E0,1.367000008E1,9.499999881E-2
4.894544362E0,-1.595000029E0,1.388799953E1,-2.000000095E-3
4.897042593E0,-1.728999972E0,1.393900013E1,8.999999613E-3
4.899546574E0,-1.646999955E0,1.409399986E1,-3.299999982E-2
4.902044804E0,-1.412999988E0,1.405099964E1,1.049999967E-1
4.904548881E0,-1.261999965E0,1.414700031E1,-1.239999980E-1
4.907047112E0,-1.098999977E0,1.407999992E1,-1.239999980E-1
4.909551189E0,-9.530000091E-1,1.397000027E1,2.000000095E-3
4.912049401E0,-6.729999781E-1,1.391499996E1,4.000000190E-3
4.914553478E0,-5.979999900E-1,1.389799976E1,-2.099999972E-2
4.917051709E0,-7.160000205E-1,1.368900013E1,1.220000014E-1
4.919555786E0,-8.519999981E-1,1.359099960E1,1.220000014E-1
4.922054016E0,-8.830000162E-1,1.345499992E1,1.099999994E-2
4.924558093E0,-5.529999733E-1,1.371599960E1,-2.870000005E-1
4.927056324E0,-3.009999990E-1,1.367500019E1,-4.589999914E-1
4.929560401E0,-1.239999980E-1,1.379500008E1,-7.490000129E-1
4.932058555E0,1.819999963E-1,1.391499996E1,-8.709999919E-1
4.934562565E0,2.460000068E-1,1.400100040E1,-1.141999960E0
4.937060795E0,4.090000093E-1,1.406799984E1,-1.274000049E0
4.939564872E0,4.900000095E-1,1.405300045E1,-1.414999962E0
4.942063103E0,5.070000291E-1,1.412500000E1,-6.079999804E-1
4.944567170E0,3.059999943E-1,1.408899975E1,-5.929999948E-1
4.947065401E0,3.160000145E-1,1.419200039E1,-1.539000034E0
4.949569478E0,2.319999933E-1,1.421599960E1,-1.863000035E0
4.952067709E0,2.610000074E-1,1.427600002E1,-2.107000113E0
4.954571733E0,1.790000051E-1,1.417300034E1,-2.627000093E0
4.957069963E0,-3.999999911E-2,1.404599953E1,-2.871000051E0
4.959574040E0,-2.029999942E-1,1.400300026E1,-2.900000095E0
4.962072271E0,-2.169999927E-1,1.386699963E1,-2.854000092E0
4.964576348E0,-2.939999998E-1,1.392700005E1,-2.803999901E0
4.967074593E0,-2.610000074E-1,1.396500015E1,-2.802000046E0
4.969578593E0,-8.600000292E-2,1.400100040E1,-2.684000015E0
4.972076824E0,-1.190000027E-1,1.401000023E1,-2.753999949E0
4.974580900E0,6.199999899E-2,1.410400009E1,-2.786999941E0
4.977079116E0,1.019999981E-1,1.411800003E1,-2.760999918E0
4.979583193E0,1.410000026E-1,1.401299953E1,-2.868999958E0
4.982081424E0,2.919999957E-1,1.388300037E1,-2.921000004E0
4.984585501E0,2.960000038E-1,1.380399990E1,-2.987999916E0
4.987083732E0,3.709999919E-1,1.372799969E1,-3.051000118E0
4.989587795E0,4.230000079E-1,1.359799957E1,-3.217999935E0
4.992086025E0,4.090000093E-1,1.337300014E1,-3.242000103E0
4.994590102E0,4.790000021E-1,1.314299965E1,-3.417000055E0
4.997088333E0,6.800000072E-1,1.303100014E1,-3.519999981E0
4.999592400E0,7.279999852E-1,1.287800026E1,-3.632999897E0
5.002090631E0,7.540000081E-1,1.262399960E1,-3.750000000E0
5.004594631E0,7.900000215E-1,1.236699963E1,-3.661000013E0
5.007092862E0,8.349999785E-1,1.220199966E1,-3.673000097E0
5.009596947E0,7.540000081E-1,1.188599968E1,-3.733000040E0
5.012095178E0,8.280000091E-1,1.180900002E1,-3.723999977E0
5.014599255E0,8.590000272E-1,1.155500031E1,-3.684999943E0
5.017097486E0,8.280000091E-1,1.121100044E1,-3.661000013E0
5.019601583E0,8.399999738E-1,1.106700039E1,-3.342999935E0
5.022099814E0,4.930000007E-1,1.061400032E1,-3.125000000E0
5.024603891E0,7.009999752E-1,1.055700016E1,-3.147000074E0
5.027102121E0,7.369999886E-1,1.040299988E1,-2.671999931E0
5.029606198E0,7.590000033E-1,1.030799961E1,-2.338999987E0
5.032104453E0,6.169999838E-1,1.003199959E1,-1.807999969E0
5.034608530E0,7.080000043E-1,9.923999786E0,-1.870000005E0
5.037106761E0,6.010000110E-1,9.890999794E0,-1.513000011E0
5.039610838E0,5.189999938E-1,9.765999794E0,-1.240000010E0
5.042109058E0,4.880000055E-1,9.647000313E0,-8.619999886E-1
5.044613058E0,5.120000243E-1,9.630000114E0,-6.650000215E-1
5.047111289E0,4.259999990E-1,9.612999916E0,-4.690000117E-1
5.049615366E0,1.500000060E-1,9.255999565E0,-1.959999949E-1
5.052113616E0,2.960000038E-1,9.571999550E0,-1.669999957E-1
5.054617693E0,4.110000134E-1,9.649000168E0,1.909999996E-1
5.057115924E0,4.740000069E-1,9.605999947E0,6.629999876E-1
5.059620001E0,6.489999890E-1,9.701999664E0,8.230000138E-1
5.062118231E0,6.320000291E-1,9.750000000E0,1.001000047E0
5.064622313E0,4.620000124E-1,9.890999794E0,9.929999709E-1
5.067120544E0,4.709999859E-1,9.857000351E0,1.024999976E0
5.069624621E0,3.950000107E-1,1.000100040E1,1.095999956E0
5.072122852E0,3.639999926E-1,1.000100040E1,1.093999982E0
5.074626881E0,3.470000029E-1,1.009200001E1,1.297999978E0
5.077125111E0,5.339999795E-1,1.019699955E1,1.177999973E0
5.079629188E0,5.529999733E-1,1.018999958E1,1.210999966E0
5.082127342E0,5.529999733E-1,1.031700039E1,1.057999969E0
5.084631419E0,6.769999862E-1,1.032400036E1,1.113000035E0
5.087129655E0,7.990000248E-1,1.035999966E1,1.092000008E0
5.089633732E0,9.599999785E-1,1.038399982E1,1.041000009E0
5.092131963E0,1.044000030E0,1.040100002E1,8.759999871E-1
5.094636040E0,1.134999990E0,1.026000023E1,7.009999752E-1
5.097134275E0,1.129999995E0,1.012100029E1,5.529999733E-1
5.099638352E0,1.105999947E0,1.006599998E1,6.100000143E-1
5.102136583E0,1.162999988E0,1.006299973E1,6.990000010E-1
5.104640660E0,1.167999983E0,9.970000267E0,8.590000272E-1
5.107138953E0,1.322000027E0,9.850000381E0,8.980000019E-1
5.109643030E0,1.277999997E0,9.670999527E0,1.075000048E0
5.112141260E0,1.371999979E0,9.604000092E0,1.243000031E0
5.114645337E0,1.366999984E0,9.453000069E0,1.238000035E0
5.117143573E0,1.199000001E0,9.307000160E0,1.251999974E0
5.119647650E0,1.082000017E0,9.321000099E0,1.457999945E0
5.122145881E0,1.029000044E0,9.390000343E0,1.631000042E0
5.124649881E0,9.190000296E-1,9.309000015E0,1.738000035E0
5.127148112E0,7.870000005E-1,9.338000298E0,1.865000010E0
5.129652237E0,6.919999719E-1,9.460000038E0,2.052000046E0
5.132150467E0,6.629999876E-1,9.579999924E0,2.098000050E0
5.134654544E0,5.910000205E-1,9.571999550E0,2.382999897E0
5.137152775E0,6.079999804E-1,9.437999725E0,2.874000072E0
5.139656852E0,5.120000243E-1,9.449999809E0,3.414999962E0
5.142155107E0,5.099999905E-1,9.359000206E0,3.684999943E0
5.144659184E0,4.550000131E-1,9.543999672E0,3.665999889E0
5.147157414E0,2.870000005E-1,9.616000175E0,3.507999897E0
5.149661491E0,-3.299999982E-2,9.729999542E0,3.206000090E0
5.152159737E0,-5.260000229E-1,9.737999916E0,3.165999889E0
5.154663814E0,-8.040000200E-1,9.866999626E0,2.983999968E0
5.157162045E0,-7.639999986E-1,9.907999992E0,2.770999908E0
5.159666122E0,-8.069999814E-1,9.725999832E0,2.648000002E0
5.162164363E0,-7.710000277E-1,9.625000000E0,2.415999889E0
5.164668440E0,-4.429999888E-1,9.555999756E0,2.039999962E0
5.167166593E0,1.480000019E-1,9.531999588E0,1.659000039E0
5.169670747E0,9.499999881E-2,9.326000214E0,1.179999948E0
5.172168905E0,3.799999878E-2,9.064999580E0,5.839999914E-1
5.174672982E0,-4.500000179E-2,9.213000298E0,2.440000027E-1
5.177171213E0,-3.869999945E-1,9.192000389E0,7.160000205E-1
5.179675290E0,3.059999943E-1,9.232000351E0,8.159999847E-1
