"Time (s)","Acceleration x (m/s^2)","Acceleration y (m/s^2)","Acceleration z (m/s^2)"
2.689979200E-2,-3.883252144E0,6.028417587E0,6.792026997E0
2.933708400E-2,-3.842274904E0,6.030810356E0,6.803991318E0
3.179177100E-2,-3.820739508E0,6.033203125E0,6.844669342E0
3.423989600E-2,-3.770490170E0,6.069095612E0,6.899703979E0
3.668369800E-2,-3.744169235E0,6.071488380E0,6.937989235E0
3.912463600E-2,-3.763311863E0,6.035595894E0,7.002595425E0
4.156359400E-2,-3.720241070E0,6.016453266E0,7.036095142E0
4.400104200E-2,-3.703491211E0,5.980561256E0,7.110272408E0
4.643724000E-2,-3.669991732E0,5.975775242E0,7.160521984E0
4.887234400E-2,-3.617349625E0,5.927918911E0,7.079165936E0
5.130671900E-2,-3.576671600E0,5.872884274E0,7.249355316E0
5.374046900E-2,-3.509672642E0,5.831906796E0,7.294818878E0
5.617359400E-2,-3.466601849E0,5.786443233E0,7.325925827E0
5.860619800E-2,-3.411566973E0,5.736194134E0,7.364210606E0
6.103833400E-2,-3.354139090E0,5.740979671E0,7.388139248E0
6.347015700E-2,-3.313461065E0,5.685945034E0,7.459923744E0
6.590156300E-2,-3.255734205E0,5.645267010E0,7.507780075E0
6.833270900E-2,-3.157628536E0,5.614160061E0,7.560422421E0
7.076359400E-2,-3.112164974E0,5.616552830E0,7.625028610E0
7.319427100E-2,-3.083451033E0,5.618945599E0,7.672884941E0
7.562468800E-2,-3.023630619E0,5.621338367E0,7.730312824E0
7.805484400E-2,-2.980559587E0,5.583053589E0,7.802396297E0
8.048479200E-2,-2.939881802E0,5.575874805E0,7.890930653E0
8.291458400E-2,-2.944667339E0,5.583053589E0,7.945965767E0
8.534416700E-2,-2.930310488E0,5.585446358E0,7.991429329E0
8.777359400E-2,-2.927917719E0,5.580660820E0,8.044071198E0
9.020286500E-2,-2.925524712E0,5.583053589E0,8.058428764E0
9.263198000E-2,-2.944667339E0,5.544768333E0,8.106285095E0
9.506099000E-2,-2.939881802E0,5.551946640E0,8.099106789E0
9.748979200E-2,-2.959024191E0,5.544768333E0,8.077570915E0
9.991849000E-2,-2.947060108E0,5.520840168E0,8.051250458E0
1.023470840E-1,-2.944667339E0,5.489733219E0,7.993822098E0
1.047755730E-1,-2.949453115E0,5.496912003E0,7.967501163E0
1.072039070E-1,-2.956631422E0,5.489733219E0,7.957930088E0
1.096321360E-1,-2.980559587E0,5.518447399E0,7.950751305E0
1.120603130E-1,-2.994916677E0,5.535196781E0,7.929215908E0
1.144883860E-1,-3.026023388E0,5.535196781E0,7.871788502E0
1.169163020E-1,-3.061915636E0,5.542375565E0,7.821538925E0
1.193441150E-1,-3.095415115E0,5.549553871E0,7.807182312E0
1.217718750E-1,-3.131307602E0,5.547161102E0,7.747062206E0
1.241994800E-1,-3.145664454E0,5.554339409E0,7.715955734E0
1.266269800E-1,-3.157628536E0,5.537590027E0,7.703991413E0
1.290411980E-1,-3.169592619E0,5.535196781E0,7.670492172E0
1.314307300E-1,-3.191128016E0,5.547161102E0,7.663313389E0
1.338084380E-1,-3.179163933E0,5.568696499E0,7.651349545E0
1.361861460E-1,-3.191128016E0,5.561518192E0,7.689634800E0
1.385646360E-1,-3.102593660E0,5.566303730E0,7.708777428E0
1.409431250E-1,-3.267698526E0,5.513661385E0,7.725526810E0
1.433208340E-1,-3.421138287E0,5.480162144E0,7.747062206E0
1.456985420E-1,-3.500101328E0,5.468197823E0,7.689634800E0
1.480770320E-1,-3.528815269E0,5.468197823E0,7.601100445E0
1.504555210E-1,-3.526422262E0,5.472983360E0,7.469494820E0
1.528332300E-1,-3.461816072E0,5.496912003E0,7.321139812E0
1.552109380E-1,-3.421138287E0,5.532804012E0,7.203592777E0
1.575894270E-1,-3.428316593E0,5.566303730E0,7.138986588E0
1.599679170E-1,-3.433102369E0,5.561518192E0,7.048058987E0
1.623456770E-1,-3.423531055E0,5.580660820E0,6.993024349E0
1.647233860E-1,-3.466601849E0,5.604588985E0,6.935596466E0
1.671018750E-1,-3.457030535E0,5.621338367E0,6.882954121E0
1.694803650E-1,-3.476173162E0,5.602196217E0,6.866204739E0
1.718580730E-1,-3.464209080E0,5.609374523E0,6.844669342E0
1.742357820E-1,-3.440280676E0,5.606981754E0,6.820741177E0
1.766142710E-1,-3.437887907E0,5.635695457E0,6.787241459E0
1.789927610E-1,-3.413959742E0,5.626124382E0,6.803991318E0
1.813704690E-1,-3.411566973E0,5.650052547E0,6.842276573E0
1.837481770E-1,-3.406781197E0,5.688337803E0,6.887740135E0
1.861266670E-1,-3.421138287E0,5.697908878E0,6.911668301E0
1.885051570E-1,-3.428316593E0,5.724229813E0,6.978667259E0
1.908829170E-1,-3.464209080E0,5.721837044E0,7.036095142E0
1.932606250E-1,-3.483351469E0,5.738586903E0,7.048058987E0
1.956391150E-1,-3.495315790E0,5.729015827E0,7.110272408E0
1.980176050E-1,-3.502494097E0,5.745765209E0,7.165307522E0
2.003953130E-1,-3.531208038E0,5.740979671E0,7.217949390E0
2.027730210E-1,-3.521636724E0,5.740979671E0,7.225128174E0
2.051515110E-1,-3.535993576E0,5.721837044E0,7.273283482E0
2.075300000E-1,-3.509672642E0,5.755336761E0,7.287640572E0
2.099077090E-1,-3.483351469E0,5.757729530E0,7.316354275E0
2.122854170E-1,-3.490530014E0,5.736194134E0,7.330711365E0
2.146639070E-1,-3.464209080E0,5.709873199E0,7.335496902E0
2.170423960E-1,-3.495315790E0,5.712265968E0,7.330711365E0
2.194201050E-1,-3.454637766E0,5.673980713E0,7.297211647E0
2.217978130E-1,-3.339782238E0,5.685945034E0,7.325925827E0
2.241763020E-1,-3.270091295E0,5.731408596E0,7.318747044E0
2.265547920E-1,-3.143271685E0,5.690730572E0,7.321139812E0
2.289325520E-1,-2.923131943E0,5.264508724E0,7.412067413E0
2.313102610E-1,-3.018844843E0,5.226223946E0,7.409674644E0
2.336887500E-1,-3.148057222E0,5.425127029E0,7.067201614E0
2.360672400E-1,-2.935096025E0,5.559125423E0,7.119843960E0
2.384449480E-1,-2.992523909E0,5.690730572E0,7.136593342E0
2.408226570E-1,-3.083451033E0,5.880062580E0,7.141379356E0
2.432011460E-1,-2.956631422E0,6.004489422E0,7.261319637E0
2.455796360E-1,-2.944667339E0,6.131309032E0,7.313961506E0
2.479573440E-1,-2.935096025E0,6.203093529E0,7.395317554E0
2.503350520E-1,-2.915953398E0,6.219843388E0,7.479066372E0
2.527135420E-1,-2.935096025E0,6.215057850E0,7.498209000E0
2.550920320E-1,-2.982952595E0,6.198307991E0,7.546065331E0
2.574697920E-1,-3.037987471E0,6.133701801E0,7.565207958E0
2.598475000E-1,-3.116950512E0,6.004489422E0,7.543672562E0
2.622259900E-1,-3.181556702E0,5.942276001E0,7.543672562E0
2.646044800E-1,-3.255734205E0,5.851348877E0,7.476673603E0
2.669821880E-1,-3.344567776E0,5.745765209E0,7.395317554E0
2.693598960E-1,-3.392424345E0,5.688337803E0,7.335496902E0
2.717383860E-1,-3.445066452E0,5.635695457E0,7.232605457E0
2.741168750E-1,-3.466601849E0,5.575874805E0,7.160521984E0
2.764945840E-1,-3.471387386E0,5.549553871E0,7.055237770E0
2.788722920E-1,-3.452244759E0,5.547161102E0,6.997809887E0
2.812507820E-1,-3.435495138E0,5.513661385E0,6.930810928E0
2.836292710E-1,-3.406781197E0,5.504090309E0,6.904489517E0
2.860070320E-1,-3.445066452E0,5.494519234E0,6.923632145E0
2.883847400E-1,-3.442673683E0,5.468197823E0,6.868597507E0
2.907632300E-1,-3.418745279E0,5.437091351E0,6.880561352E0
2.931417190E-1,-3.425923824E0,5.401198864E0,6.887740135E0
2.955194270E-1,-3.445066452E0,5.367699623E0,6.897311211E0
2.978971360E-1,-3.478565931E0,5.317450047E0,6.897311211E0
3.002756250E-1,-3.516851187E0,5.274080276E0,6.902096748E0
3.026541150E-1,-3.550350666E0,5.233402252E0,6.861418724E0
3.050318230E-1,-3.586242914E0,5.216652393E0,6.849454880E0
3.074095320E-1,-3.602992773E0,5.207081318E0,6.837490559E0
3.097880210E-1,-3.581457376E0,5.223830700E0,6.782455921E0
3.121665110E-1,-3.574278831E0,5.240580559E0,6.772884369E0
3.145442190E-1,-3.516851187E0,5.291129112E0,6.746563435E0
3.169219270E-1,-3.459423304E0,5.372485161E0,6.760920525E0
3.193004690E-1,-3.380460262E0,5.458626747E0,6.803991318E0
3.216789590E-1,-3.308376312E0,5.542375565E0,6.880561352E0
3.240566670E-1,-3.215056419E0,5.618945599E0,6.952346325E0
3.264343750E-1,-3.160021305E0,5.688337803E0,7.033702374E0
3.288128650E-1,-3.102593660E0,5.731408596E0,7.124629498E0
3.311913550E-1,-3.066701412E0,5.764907837E0,7.184450150E0
3.335690630E-1,-3.047558784E0,5.748157978E0,7.275676250E0
3.359467710E-1,-3.040380239E0,5.731408596E0,7.392924786E0
3.383252610E-1,-3.006880760E0,5.676373482E0,7.479066372E0
3.407037500E-1,-2.999702215E0,5.650052547E0,7.536494255E0
3.430814590E-1,-2.968595505E0,5.587839127E0,7.574779034E0
3.454591670E-1,-2.959024191E0,5.511268616E0,7.593921661E0
3.478377090E-1,-2.949453115E0,5.441876888E0,7.598707199E0
3.502161980E-1,-2.932703257E0,5.389235020E0,7.651349545E0
3.525939070E-1,-2.884846687E0,5.315057278E0,7.644171238E0
3.549716150E-1,-2.877668381E0,5.291129112E0,7.565207958E0
3.573501050E-1,-2.870489836E0,5.250152111E0,7.507780075E0
3.597285940E-1,-2.868097067E0,5.245366573E0,7.416852951E0
3.621063020E-1,-2.858525753E0,5.247759342E0,7.280461788E0
3.644840110E-1,-2.880061150E0,5.278865814E0,7.174878597E0
3.668625000E-1,-2.856132984E0,5.343770981E0,7.043273449E0
3.692409900E-1,-2.920739174E0,5.343770981E0,6.928418159E0
3.716187500E-1,-2.997309446E0,5.324628353E0,6.765706062E0
3.739964590E-1,-3.104986429E0,5.336592674E0,6.585945129E0
3.763749480E-1,-3.203092098E0,5.353342533E0,6.439982891E0
3.787534380E-1,-3.291626692E0,5.372485161E0,6.294020653E0
3.811311460E-1,-3.351746321E0,5.410770416E0,6.121737480E0
3.835088550E-1,-3.423531055E0,5.458626747E0,5.987440586E0
3.858873440E-1,-3.485744476E0,5.477769375E0,5.867799282E0
3.882658340E-1,-3.576671600E0,5.484947681E0,5.779264927E0
3.906435420E-1,-3.614956856E0,5.525625706E0,5.688337803E0
3.930212500E-1,-3.701098442E0,5.528018475E0,5.645267010E0
3.953997400E-1,-3.803989887E0,5.537590027E0,5.614160061E0
3.977782300E-1,-3.873680830E0,5.513661385E0,5.573482037E0
4.001559900E-1,-3.955036640E0,5.516054630E0,5.537290573E0
4.025336980E-1,-4.036392689E0,5.480162144E0,5.487041473E0
4.049121880E-1,-4.129712582E0,5.487340450E0,5.458327770E0
4.072906770E-1,-4.220640182E0,5.482554913E0,5.424828053E0
4.096683860E-1,-4.337888241E0,5.451447964E0,5.396114349E0
4.120460940E-1,-4.424029827E0,5.461019516E0,5.403292656E0
4.144245840E-1,-4.527220249E0,5.441876888E0,5.360221863E0
4.168030730E-1,-4.637290478E0,5.413163185E0,5.350650311E0
4.191807820E-1,-4.716253281E0,5.427519798E0,5.329114914E0
4.215584900E-1,-4.797609329E0,5.439484119E0,5.333900928E0
4.239370320E-1,-4.852644444E0,5.465805054E0,5.324329376E0
4.263155210E-1,-4.929214478E0,5.528018475E0,5.360221863E0
4.286932300E-1,-4.960321426E0,5.626124382E0,5.388935566E0
4.310709380E-1,-4.965106964E0,5.721837044E0,5.429613590E0
4.334494270E-1,-5.003691196E0,5.791228771E0,5.439185143E0
4.358279170E-1,-5.022833824E0,5.872884274E0,5.455934525E0
4.382056250E-1,-5.034798145E0,5.973382473E0,5.463113308E0
4.405833340E-1,-5.092225552E0,6.090631008E0,5.477469921E0
4.429618230E-1,-5.154438972E0,6.114559174E0,5.482255936E0
4.453403130E-1,-5.238187790E0,6.157629967E0,5.465506077E0
4.477180730E-1,-5.300401211E0,6.219843388E0,5.448756218E0
4.500957820E-1,-5.376971722E0,6.236593246E0,5.415256977E0
4.524742710E-1,-5.455934525E0,6.270092487E0,5.408078194E0
4.548527610E-1,-5.525326729E0,6.291627884E0,5.376971722E0
4.572304690E-1,-5.609374523E0,6.325127602E0,5.372185707E0
4.596081770E-1,-5.647659779E0,6.327520370E0,5.365007401E0
4.619866670E-1,-5.705087185E0,6.339484692E0,5.333900928E0
4.643651570E-1,-5.705087185E0,6.372983932E0,5.374578953E0
4.667428650E-1,-5.693123341E0,6.425925255E0,5.384150028E0
4.691205730E-1,-5.666802406E0,6.485745907E0,5.379364491E0
4.714991150E-1,-5.592624664E0,6.555137634E0,5.422435284E0
4.738776050E-1,-5.506184101E0,6.612565517E0,5.398507118E0
4.762553130E-1,-5.422435284E0,6.660421848E0,5.384150028E0
4.786330210E-1,-5.348257542E0,6.720242500E0,5.372185707E0
4.810115110E-1,-5.247759342E0,6.760920525E0,5.365007401E0
4.833900000E-1,-5.190331459E0,6.794419765E0,5.333900928E0
4.857677090E-1,-5.183153152E0,6.806384087E0,5.341079235E0
4.881454170E-1,-5.195116997E0,6.820741177E0,5.278865814E0
4.905239070E-1,-5.228616714E0,6.861418724E0,5.252544880E0
4.929023960E-1,-5.281258583E0,6.923632145E0,5.209474087E0
4.952801570E-1,-5.305186749E0,6.978966236E0,5.149653435E0
4.976578650E-1,-5.250152111E0,7.045965195E0,5.094618320E0
5.000363550E-1,-5.173581600E0,7.110571384E0,5.013262749E0
5.024148440E-1,-5.104189873E0,7.199106216E0,4.931607246E0
5.047925520E-1,-5.046761990E0,7.280461788E0,4.855037212E0
5.071702610E-1,-5.039583683E0,7.330711365E0,4.783252239E0
5.095487500E-1,-5.039583683E0,7.402495861E0,4.701896667E0
5.119272400E-1,-5.063511848E0,7.459923744E0,4.663611412E0
5.143049480E-1,-5.123332500E0,7.416852951E0,4.613361835E0
5.166826570E-1,-5.216652393E0,7.368996620E0,4.558327198E0
5.190611980E-1,-5.302793980E0,7.309175968E0,4.491328239E0
5.214396880E-1,-5.391328335E0,7.251748085E0,4.407280445E0
5.238173960E-1,-5.451148987E0,7.191927433E0,4.311567307E0
5.261951050E-1,-5.513362408E0,7.124928474E0,4.213461399E0
5.285735940E-1,-5.580660820E0,7.096214771E0,4.156033993E0
5.309520840E-1,-5.683551788E0,7.072286606E0,4.091427803E0
5.333297920E-1,-5.791228771E0,7.034001350E0,4.067499161E0
5.357075000E-1,-5.913262844E0,7.057929516E0,4.043570995E0
5.380859900E-1,-6.054439545E0,7.110571384E0,4.031607151E0
5.404644800E-1,-6.229414463E0,7.144071102E0,3.995714664E0
5.428422400E-1,-6.411269188E0,7.167999268E0,3.976572037E0
5.452199480E-1,-6.638587475E0,7.220641613E0,3.928715706E0
5.475984380E-1,-6.854240417E0,7.278069019E0,3.871287823E0
5.499769270E-1,-7.076773167E0,7.340282440E0,3.811168194E0
5.523546360E-1,-7.266105175E0,7.407281399E0,3.734597921E0
5.547323440E-1,-7.438388348E0,7.483851910E0,3.602992773E0
5.571108340E-1,-7.593921661E0,7.543971539E0,3.545564890E0
5.594893230E-1,-7.682456017E0,7.632505894E0,3.442673683E0
5.618670840E-1,-7.715955734E0,7.697112083E0,3.313461065E0
5.642447920E-1,-7.718348503E0,7.790432453E0,3.195913792E0
5.666232820E-1,-7.663313389E0,7.893323898E0,3.097808123E0
5.690017710E-1,-7.565207958E0,7.989036560E0,2.982952595E0
5.713794800E-1,-7.419245720E0,8.044071198E0,2.903989315E0
5.737571880E-1,-7.282855034E0,8.116155624E0,2.836990356E0
5.761356770E-1,-7.131807804E0,8.240582466E0,2.796312332E0
5.785141670E-1,-6.961917400E0,8.312366486E0,2.729014158E0
5.808918750E-1,-6.811169624E0,8.396115303E0,2.664407969E0
5.832695840E-1,-6.619444847E0,8.465507507E0,2.647658348E0
5.856480730E-1,-6.451947212E0,8.539685249E0,2.573480844E0
5.880265630E-1,-6.284449577E0,8.616254807E0,2.563909531E0
5.904043230E-1,-6.109474182E0,8.673981667E0,2.571087837E0
5.927820320E-1,-5.970690727E0,8.714659691E0,2.559123755E0
5.951605210E-1,-5.858228207E0,8.762516975E0,2.599801779E0
5.975390110E-1,-5.750551224E0,8.791230202E0,2.618944407E0
5.999167190E-1,-5.695516109E0,8.786444664E0,2.640479803E0
6.022944270E-1,-5.671587944E0,8.784051895E0,2.602194548E0
6.046729690E-1,-5.690730572E0,8.772088051E0,2.597409010E0
6.070514590E-1,-5.738586903E0,8.748159409E0,2.573480844E0
6.094291670E-1,-5.822335720E0,8.717052460E0,2.504088879E0
6.118068750E-1,-5.934798241E0,8.633005142E0,2.465803623E0
6.141853650E-1,-6.116951942E0,8.597112656E0,2.372483730E0
6.165638550E-1,-6.327520370E0,8.496614456E0,2.312663078E0
6.189415630E-1,-6.557231426E0,8.410472870E0,2.207378864E0
6.213192710E-1,-6.753741741E0,8.309973717E0,2.056331873E0
6.236977610E-1,-6.839883327E0,8.156833649E0,1.453041553E0
6.260762500E-1,-6.899703979E0,8.063214302E0,9.119645357E-1
6.284540110E-1,-6.835097790E0,7.986643791E0,4.594219327E-1
6.308317190E-1,-6.703492641E0,7.955537319E0,-5.982056633E-2
6.332102090E-1,-6.325127602E0,8.058428764E0,-1.716551185E0
6.355886980E-1,-5.877370834E0,8.027321815E0,-2.291127682E0
6.379664070E-1,-5.678766251E0,8.104190826E0,-2.166700840E0
6.403441150E-1,-5.630909920E0,8.168797493E0,-2.425424814E0
6.427226050E-1,-5.858228207E0,8.142476082E0,-2.061416626E0
6.451010940E-1,-6.128916264E0,8.154440880E0,-1.767099500E0
6.474788550E-1,-5.867799282E0,8.226224899E0,-5.338985324E-1
6.498565630E-1,-5.939583778E0,8.142476082E0,-1.674975827E-2
6.522350520E-1,-6.325127602E0,7.989036560E0,1.201795220E0
6.546135420E-1,-5.453541756E0,8.135297775E0,2.575873613E0
6.569912500E-1,-5.448756218E0,8.087141991E0,3.614956856E0
6.593689590E-1,-5.367400169E0,8.046463966E0,4.522434711E0
6.617474480E-1,-5.149653435E0,7.977072716E0,5.278865814E0
6.641259380E-1,-4.931607246E0,7.919644833E0,5.827121258E0
6.665036980E-1,-4.783252239E0,7.895716667E0,6.140880108E0
6.688814070E-1,-4.795216560E0,7.871788502E0,6.250949860E0
6.712598960E-1,-4.862215519E0,7.850253105E0,6.195915222E0
6.736383860E-1,-5.049154758E0,7.802396297E0,5.997011662E0
6.760160940E-1,-5.207081318E0,7.826324463E0,5.614160061E0
6.783938020E-1,-5.393721104E0,7.859824181E0,5.187938690E0
6.807722920E-1,-5.518147945E0,7.948358536E0,4.692325115E0
6.831507820E-1,-5.561518192E0,8.067999840E0,4.230211258E0
6.855285420E-1,-5.520540714E0,8.178368568E0,3.837489367E0
6.879062500E-1,-5.479863167E0,8.262117386E0,3.643670797E0
6.902847400E-1,-5.530112267E0,8.319544792E0,3.569493294E0
6.926632300E-1,-5.628517151E0,8.396115303E0,3.533600807E0
6.950409380E-1,-5.719444275E0,8.439186096E0,3.531208038E0
6.974186460E-1,-5.784050465E0,8.508578300E0,3.492922783E0
6.997971360E-1,-5.867799282E0,8.577970505E0,3.473780155E0
7.021756250E-1,-5.932405472E0,8.644968987E0,3.437887907E0
7.045533860E-1,-6.032904148E0,8.671588898E0,3.421138287E0
7.069310940E-1,-6.066403389E0,8.697910309E0,3.380460262E0
7.093095840E-1,-6.064010620E0,8.752944946E0,3.303590775E0
7.116880730E-1,-6.013761520E0,8.760123253E0,3.265305519E0
7.140657820E-1,-5.918048382E0,8.815158844E0,3.167199850E0
7.164434900E-1,-5.683551788E0,8.860622406E0,3.045166016E0
7.188219800E-1,-5.398507118E0,8.930013657E0,2.880061150E0
7.212004690E-1,-4.984249592E0,8.963513374E0,2.740978241E0
7.235781770E-1,-4.555934429E0,9.016156197E0,2.599801779E0
7.259558860E-1,-4.134498596E0,9.023334503E0,2.508874655E0
7.283344270E-1,-3.756133318E0,9.030512810E0,2.472982168E0
7.307129170E-1,-3.543172121E0,8.977870941E0,2.401197433E0
7.330906250E-1,-3.411566973E0,8.886942863E0,2.295913219E0
7.354683340E-1,-3.342175007E0,8.776873589E0,2.065903187E0
7.378468230E-1,-3.339782238E0,8.659625053E0,1.862513304E0
7.402253130E-1,-3.447459221E0,8.570791245E0,1.706979871E0
7.426030210E-1,-3.677170277E0,8.556434631E0,1.572682738E0
7.449807300E-1,-3.878466368E0,8.520542145E0,1.383649707E0
7.473592710E-1,-4.048357010E0,8.441578865E0,1.280758262E0
7.497377610E-1,-4.244568348E0,8.372187614E0,1.213759303E0
7.521154690E-1,-4.359423637E0,8.314759254E0,1.168295622E0
7.544931770E-1,-4.441078663E0,8.266902924E0,1.237687469E0
7.568716670E-1,-4.522434711E0,8.247760773E0,1.335793257E0
7.592501570E-1,-4.630111694E0,8.238189697E0,1.467398524E0
7.616278650E-1,-4.687539577E0,8.204689980E0,1.575075507E0
7.640055730E-1,-4.788038254E0,8.209475517E0,1.695015788E0
7.663841150E-1,-4.869394302E0,8.233403206E0,1.855334878E0
7.687626050E-1,-4.967499733E0,8.274081230E0,2.082653046E0
7.711403130E-1,-5.065904617E0,8.278866768E0,2.195414782E0
7.735180210E-1,-5.101797104E0,8.336295128E0,2.207378864E0
7.758965110E-1,-5.099404335E0,8.441578865E0,2.255235434E0
7.782750000E-1,-5.053940296E0,8.568398476E0,2.245664120E0
7.806527610E-1,-5.008476734E0,8.755337715E0,2.180758715E0
7.830304690E-1,-4.931607246E0,8.891729355E0,2.123331070E0
7.854089590E-1,-4.905286312E0,9.025727272E0,2.092224360E0
7.877874480E-1,-4.893322468E0,9.121439934E0,2.044367790E0
7.901651570E-1,-4.902893543E0,9.178867340E0,2.018046856E0
7.925428650E-1,-4.924428940E0,9.200403214E0,1.943869352E0
7.949213550E-1,-4.895715237E0,9.215059280E0,1.836192250E0
7.972998440E-1,-4.828716278E0,9.229415894E0,1.762014747E0
7.996776050E-1,-4.675575256E0,9.284450531E0,1.711765528E0
8.020553130E-1,-4.424029827E0,9.356235504E0,1.654337764E0
8.044338020E-1,-4.007678986E0,9.394520760E0,1.635195136E0
8.068122920E-1,-3.502494097E0,9.449555397E0,1.687837243E0
8.091900000E-1,-2.959024191E0,9.542876244E0,1.790728688E0
8.115677090E-1,-2.343769789E0,9.583553314E0,1.917548299E0
8.139461980E-1,-1.802692771E0,9.650552750E0,2.053939104E0
8.163246880E-1,-1.340578914E0,9.693623543E0,2.142473459E0
8.187024480E-1,-1.168295622E0,9.638588905E0,2.180758715E0
8.210801570E-1,-1.053141117E0,9.588339806E0,2.089831591E0
8.234586460E-1,-1.082154036E0,9.547661781E0,1.721336842E0
8.258371360E-1,-9.358927608E-1,9.612267494E0,1.628016710E0
8.282148440E-1,-7.061817646E-1,9.705587387E0,1.630409479E0
8.305925520E-1,-5.171487927E-1,9.760622978E0,1.692622900E0
8.329710420E-1,-2.751746178E-1,9.837491989E0,1.773978829E0
8.353495320E-1,-2.632104978E-2,9.918848038E0,1.857727647E0
8.377272920E-1,1.247258782E-1,9.976275444E0,1.963011861E0
8.401050000E-1,2.347957194E-1,1.006002426E1,2.075474501E0
8.424834900E-1,2.754737139E-1,1.014616585E1,2.111366987E0
8.448619800E-1,2.563311160E-1,1.021077251E1,2.092224360E0
8.472396880E-1,2.132603228E-1,1.032084274E1,2.049153566E0
8.496173960E-1,1.965105534E-1,1.040010452E1,1.989332914E0
8.519958860E-1,1.558325738E-1,1.049103165E1,1.888834357E0
8.543743750E-1,1.127617657E-1,1.056999493E1,1.809871197E0
8.567521360E-1,7.926224917E-2,1.064895821E1,1.728515267E0
8.591298440E-1,1.435693540E-2,1.074706364E1,1.718943954E0
8.615083340E-1,-1.196411345E-2,1.081645584E1,1.771586061E0
8.638868230E-1,-5.024927482E-2,1.093639565E1,1.838585138E0
8.662645320E-1,-1.483550072E-1,1.104885864E1,1.939083695E0
8.686422400E-1,-2.105683982E-1,1.115174961E1,2.032403708E0
8.710207300E-1,-2.847459018E-1,1.123310566E1,2.108973980E0
8.733992190E-1,-3.541377485E-1,1.131446171E1,2.159223318E0
8.757769800E-1,-4.283152521E-1,1.138385391E1,2.188236237E0
8.781546880E-1,-4.809573591E-1,1.145563793E1,2.171187401E0
8.805331770E-1,-5.000999570E-1,1.144367409E1,2.101795673E0
8.829116670E-1,-5.315057039E-1,1.145324516E1,2.013261080E0
8.852893750E-1,-5.506483316E-1,1.144606686E1,1.917548299E0
8.876670840E-1,-5.554339290E-1,1.144367409E1,1.831406593E0
8.900455730E-1,-5.554339290E-1,1.140299606E1,1.762014747E0
8.924240630E-1,-5.267201066E-1,1.134078312E1,1.733300924E0
8.948018230E-1,-4.761717021E-1,1.125942707E1,1.735693693E0
8.971795320E-1,-4.283152521E-1,1.117089272E1,1.807478428E0
8.995580210E-1,-4.187439680E-1,1.105603695E1,1.903191328E0
9.019365110E-1,-4.091726840E-1,1.095075321E1,2.001296997E0
9.043142190E-1,-4.498506486E-1,1.082124138E1,2.068295956E0
9.066919270E-1,-5.195416212E-1,1.069202900E1,2.130509377E0
9.090704690E-1,-6.080760360E-1,1.053410244E1,2.085045815E0
9.114489590E-1,-6.535396576E-1,1.043838978E1,1.970190287E0
9.138266670E-1,-6.966105103E-1,1.030169964E1,1.812264085E0
9.162043750E-1,-7.085745931E-1,1.019880867E1,1.659123421E0
9.185828650E-1,-6.822535396E-1,1.006959629E1,1.508076429E0
9.209613550E-1,-6.320042610E-1,9.969097137E0,1.347757339E0
9.233390630E-1,-5.602195859E-1,9.847063065E0,1.280758262E0
9.257167710E-1,-5.123631358E-1,9.770194054E0,1.228116274E0
9.280953130E-1,-4.402793646E-1,9.648159981E0,1.173081279E0
9.304738020E-1,-3.924229145E-1,9.540482521E0,1.149153113E0
9.328515110E-1,-2.847459018E-1,9.425627708E0,1.122832060E0
9.352292190E-1,-2.009970993E-1,9.332307816E0,1.079761267E0
9.376077090E-1,-1.076770201E-1,9.250951767E0,1.079761267E0
9.399861980E-1,-9.571290575E-3,9.186046600E0,1.060618639E0
9.423639590E-1,8.644071966E-2,9.128618240E0,1.050748229E0
9.447416670E-1,1.797607988E-1,9.099904060E0,1.082154036E0
9.471201570E-1,2.443670183E-1,9.042476654E0,1.077368379E0
9.494986460E-1,2.994019389E-1,9.059226990E0,1.084546804E0
9.518763550E-1,3.281157911E-1,9.052047729E0,1.094118118E0
9.542540630E-1,3.903291821E-1,9.111868858E0,1.079761267E0
9.566325520E-1,4.166502357E-1,9.181260109E0,1.074975610E0
9.590110420E-1,4.549354017E-1,9.238986969E0,1.024427176E0
9.613888020E-1,4.668995142E-1,9.313164711E0,1.017248750E0
9.637665110E-1,4.716851711E-1,9.356235504E0,9.693922997E-1
9.661450000E-1,4.645066857E-1,9.406484604E0,9.071788788E-1
9.685234900E-1,4.357928336E-1,9.447162628E0,9.263214469E-1
9.709011980E-1,3.999004960E-1,9.487840652E0,9.000003934E-1
9.732789070E-1,3.496512175E-1,9.497411728E0,9.430712461E-1
9.756573960E-1,2.563311160E-1,9.490233421E0,9.646066427E-1
9.780358860E-1,1.486541033E-1,9.490233421E0,9.909276962E-1
9.804136460E-1,3.589234129E-2,9.471091270E0,1.012463093E0
9.827913550E-1,-9.332008660E-2,9.463912964E0,1.014855862E0
9.851698440E-1,-2.536391914E-1,9.418449402E0,1.022034407E0
9.875483340E-1,-4.211367965E-1,9.444769859E0,9.957132936E-1
9.899260420E-1,-5.697908998E-1,9.463912964E0,1.019641519E0
9.923037500E-1,-6.798607111E-1,9.516554832E0,1.045962572E0
9.946822920E-1,-7.612167001E-1,9.581160545E0,1.065404296E0
9.970607820E-1,-7.707880139E-1,9.655338287E0,1.137188911E0
9.994384900E-1,-7.492526174E-1,9.731908798E0,1.165902853E0
1.001816198E0,-6.798607111E-1,9.787242889E0,1.247258782E0
1.004194688E0,-5.889334679E-1,9.818349838E0,1.307079315E0
1.006573177E0,-5.024927258E-1,9.820742607E0,1.323829174E0
1.008950938E0,-4.139583111E-1,9.760622978E0,1.362114310E0
1.011328646E0,-2.632105052E-1,9.700801849E0,1.347757339E0
1.013707136E0,-8.135596663E-2,9.588339806E0,1.311864972E0
1.016085625E0,8.644071966E-2,9.490233421E0,1.247258782E0
1.018463334E0,2.611167729E-1,9.394520760E0,1.156331539E0
1.020841042E0,4.381856322E-1,9.294022560E0,1.106082320E0
1.023219532E0,6.032904387E-1,9.200403214E0,1.120439172E0
1.025598021E0,8.117650747E-1,9.126225471E0,1.130010486E0
1.027975782E0,1.043868899E0,9.083154678E0,1.144367456E0
1.030353490E0,1.233201027E0,9.008976936E0,1.185045362E0
1.032731980E0,1.455733418E0,8.956335068E0,1.189831018E0
1.035110469E0,1.668694735E0,8.918049812E0,1.187438250E0
1.037488177E0,1.855633974E0,8.906085968E0,1.177866936E0
1.039865886E0,2.047059774E0,8.903693199E0,1.182652593E0
1.042244375E0,2.166700840E0,8.908478737E0,1.185045362E0
1.044622865E0,2.293520451E0,8.937192917E0,1.220937729E0
1.047000625E0,2.394318104E0,8.982656479E0,1.254437327E0
1.049378334E0,2.458924294E0,9.016156197E0,1.311864972E0
1.051756823E0,2.523530483E0,9.064012527E0,1.342971683E0
1.054135313E0,2.518744946E0,9.095118523E0,1.378864050E0
1.056513021E0,2.501995087E0,9.138189316E0,1.431506157E0
1.058890730E0,2.425424814E0,9.195617676E0,1.450648785E0
1.061269271E0,2.329711914E0,9.209974289E0,1.469791293E0
1.063647761E0,2.252842426E0,9.250951767E0,1.484148264E0
1.066025469E0,2.181057930E0,9.284450531E0,1.508076429E0
1.068403177E0,2.104487419E0,9.315557480E0,1.543968797E0
1.070781667E0,2.039881229E0,9.346664429E0,1.591825247E0
1.073160157E0,1.956132531E0,9.406484604E0,1.615753531E0
1.075537917E0,1.872383714E0,9.439984322E0,1.663909078E0
1.077915625E0,1.793420553E0,9.495018959E0,1.697408557E0
1.080294115E0,1.671087503E0,9.552447319E0,1.706979871E0
1.082672605E0,1.608874083E0,9.578767776E0,1.690230131E0
1.085050313E0,1.501197100E0,9.569196701E0,1.656730533E0
1.087428021E0,1.429412484E0,9.602696419E0,1.613360643E0
1.089806511E0,1.371984720E0,9.626625061E0,1.575075507E0
1.092185000E0,1.331306696E0,9.600303650E0,1.551147223E0
1.094562761E0,1.302592874E0,9.600303650E0,1.543968797E0
1.096940469E0,1.233201027E0,9.564411163E0,1.500898004E0
1.099318959E0,1.197308660E0,9.557232857E0,1.476969719E0
1.101697448E0,1.163509965E0,9.528518677E0,1.453041553E0
1.104075157E0,1.161117196E0,9.523733139E0,1.426720500E0
1.106452865E0,1.130010486E0,9.480662346E0,1.417149186E0
1.108831355E0,1.130010486E0,9.487840652E0,1.412363529E0
1.111209844E0,1.168295622E0,9.473484039E0,1.402792215E0
1.113587605E0,1.187737346E0,9.454340935E0,1.405185103E0
1.115965313E0,1.249950767E0,9.430413246E0,1.366899967E0
1.118343802E0,1.302592874E0,9.389735222E0,1.340578914E0
1.120722292E0,1.381555915E0,9.344271660E0,1.271187067E0
1.123100052E0,1.472483277E0,9.289237022E0,1.206580877E0
1.125477761E0,1.582553029E0,9.229415894E0,1.163509965E0
1.127856250E0,1.728515267E0,9.193224907E0,1.156331539E0
1.130234740E0,1.896311998E0,9.111868858E0,1.086939692E0
1.132612448E0,2.097309113E0,9.054440498E0,1.070189953E0
1.134990157E0,2.267199516E0,8.982656479E0,1.026820064E0
1.137368646E0,2.408675194E0,8.946763992E0,1.033998489E0
1.139747240E0,2.521137714E0,8.927620888E0,1.113260746E0
1.142125521E0,2.597707987E0,8.867800713E0,1.185045362E0
1.144503125E0,2.614457846E0,8.855836868E0,1.278365493E0
1.146881094E0,2.590529680E0,8.827122688E0,1.402792215E0
1.149259584E0,2.561815739E0,8.836693764E0,1.465005636E0
1.151637292E0,2.518744946E0,8.853444099E0,1.479362607E0
1.154015000E0,2.458924294E0,8.855836868E0,1.469791293E0
1.156393490E0,2.375175476E0,8.874979019E0,1.467398524E0
1.158771980E0,2.315355062E0,8.906085968E0,1.412363529E0
1.161149740E0,2.233700037E0,8.932407379E0,1.388435364E0
1.163527448E0,2.193022013E0,8.953942299E0,1.338186026E0
1.165905938E0,2.078166485E0,8.946763992E0,1.321436286E0
1.168284427E0,2.018345833E0,8.951549530E0,1.275972724E0
1.170662136E0,1.977667928E0,8.970691681E0,1.292722464E0
1.173039844E0,1.953739643E0,8.951549530E0,1.275972724E0
1.175418386E0,1.929811478E0,8.977870941E0,1.304686546E0
1.177796875E0,1.922633052E0,8.980263710E0,1.323829174E0
1.180174584E0,1.905883193E0,8.987442017E0,1.357328653E0
1.182552292E0,1.867598057E0,8.977870941E0,1.431506157E0
1.184930782E0,1.848455548E0,8.989834785E0,1.515254974E0
1.187309271E0,1.800599098E0,8.985049248E0,1.582253933E0
1.189687032E0,1.781456470E0,8.939585686E0,1.644766450E0
1.192064740E0,1.743171334E0,8.898907661E0,1.685444474E0
1.194443230E0,1.716551185E0,8.879764557E0,1.678265929E0
1.196821719E0,1.687837243E0,8.865407944E0,1.668694735E0
1.199199427E0,1.678265929E0,8.858229637E0,1.651944876E0
1.201577136E0,1.647159338E0,8.848658562E0,1.656730533E0
1.203955625E0,1.589731574E0,8.886942863E0,1.647159338E0
1.206334115E0,1.563410521E0,8.898907661E0,1.678265929E0
1.208711875E0,1.534696579E0,8.963513374E0,1.692622900E0
1.211089584E0,1.527518153E0,9.006584167E0,1.683051586E0
1.213468073E0,1.489233017E0,9.040083885E0,1.651944876E0
1.215846563E0,1.427019596E0,9.087940216E0,1.608574986E0
1.218224271E0,1.412662625E0,9.114261627E0,1.587039590E0
1.220601980E0,1.410269856E0,9.140582085E0,1.587039590E0
1.222980521E0,1.395912886E0,9.152546883E0,1.623231053E0
1.225359011E0,1.383948803E0,9.183652878E0,1.606182218E0
1.227736719E0,1.395912886E0,9.190832138E0,1.690230131E0
1.230114427E0,1.417448282E0,9.188439369E0,1.793121457E0
1.232492917E0,1.431805253E0,9.188439369E0,1.917548299E0
1.234871407E0,1.458126307E0,9.164510727E0,2.018046856E0
1.237249167E0,1.455733418E0,9.181260109E0,2.015654087E0
1.239626875E0,1.484447360E0,9.190832138E0,1.991725802E0
1.242005365E0,1.479661703E0,9.183652878E0,1.948654890E0
1.244383855E0,1.534696579E0,9.178867340E0,1.888834357E0
1.246761563E0,1.582553029E0,9.181260109E0,1.857727647E0
1.249139271E0,1.625623941E0,9.198010445E0,1.833799481E0
1.251517813E0,1.656730533E0,9.217452049E0,1.891227245E0
1.253896302E0,1.723729610E0,9.231808662E0,1.922333837E0
1.256274011E0,1.814955950E0,9.274879456E0,1.958226204E0
1.258651719E0,1.901097536E0,9.315557480E0,2.013261080E0
1.261030209E0,1.992024899E0,9.334700584E0,2.063510418E0
1.263408698E0,2.070987940E0,9.372985840E0,2.104188442E0
1.265786459E0,2.178664923E0,9.382556915E0,2.077867270E0
1.268164167E0,2.219342947E0,9.401699066E0,2.063510418E0
1.270542657E0,2.286342144E0,9.420842171E0,2.034796476E0
1.272921146E0,2.344068766E0,9.384949684E0,2.041975021E0
1.275298855E0,2.356033087E0,9.392127991E0,2.058724880E0
1.277676563E0,2.351247311E0,9.380164146E0,2.077867270E0
1.280055052E0,2.324926376E0,9.344271660E0,2.123331070E0
1.282433542E0,2.303390980E0,9.317950249E0,2.147259235E0
1.284811302E0,2.281556368E0,9.308379173E0,2.156830549E0
1.287189011E0,2.271985054E0,9.284450531E0,2.128116608E0
1.289567500E0,2.226521492E0,9.284450531E0,2.065903187E0
1.291945990E0,2.212164640E0,9.277272224E0,1.991725802E0
1.294323698E0,2.140379906E0,9.243772507E0,1.986940145E0
1.296701407E0,2.099701881E0,9.241379738E0,1.955833435E0
1.299079948E0,2.037488461E0,9.224630356E0,1.934298038E0
1.301458438E0,1.972882271E0,9.157332420E0,1.951047778E0
1.303836146E0,1.908276081E0,9.107083321E0,1.972583175E0
1.306213855E0,1.831705689E0,9.049654961E0,2.006082773E0
1.308592344E0,1.762313843E0,8.999405861E0,2.046760559E0
1.310970834E0,1.706979871E0,8.977870941E0,2.128116608E0
1.313348594E0,1.673480392E0,8.930013657E0,2.202593327E0
1.315726302E0,1.608874083E0,8.932407379E0,2.233700037E0
1.318104792E0,1.575374603E0,8.894122124E0,2.269592285E0
1.320483282E0,1.527518153E0,8.913264275E0,2.295913219E0
1.322860990E0,1.510768414E0,8.901300430E0,2.334198475E0
1.325238698E0,1.460519075E0,8.906085968E0,2.343769789E0
1.327617240E0,1.429412484E0,8.882157326E0,2.336591244E0
1.329995730E0,1.364806175E0,8.874979019E0,2.307877541E0
1.332373438E0,1.304985642E0,8.884550095E0,2.262413740E0
1.334751146E0,1.266700506E0,8.894122124E0,2.264806747E0
1.337129636E0,1.211665511E0,8.915657043E0,2.255235434E0
1.339508125E0,1.177866936E0,8.903693199E0,2.250449657E0
1.341885886E0,1.094118118E0,8.934800148E0,2.269592285E0
1.344263594E0,1.077368379E0,8.956335068E0,2.255235434E0
1.346642084E0,1.041476011E0,8.985049248E0,2.293520451E0
1.349020573E0,1.024726272E0,8.989834785E0,2.295913219E0
1.351398282E0,1.017547846E0,9.001798630E0,2.305484533E0
1.353775990E0,1.015154958E0,9.025727272E0,2.300698996E0
1.356154480E0,1.048654556E0,9.064012527E0,2.276770830E0
1.358532969E0,1.074975610E0,9.085547447E0,2.216950178E0
1.360910730E0,1.125224829E0,9.114261627E0,2.144866467E0
1.363288438E0,1.192523003E0,9.133403778E0,2.051546335E0
1.365666927E0,1.235593796E0,9.154939651E0,1.977368832E0
1.368045417E0,1.295414329E0,9.195617676E0,1.919941068E0
1.370423177E0,1.324128270E0,9.190832138E0,1.934298038E0
1.372800886E0,1.328913927E0,9.217452049E0,1.951047778E0
1.375179375E0,1.304985642E0,9.212666512E0,2.003689766E0
1.377557865E0,1.300199986E0,9.234201431E0,2.046760559E0
1.379935573E0,1.295414329E0,9.222237587E0,2.092224360E0
1.382313282E0,1.290628672E0,9.217452049E0,2.085045815E0
1.384691771E0,1.269093275E0,9.219844818E0,2.049153566E0
1.387070261E0,1.245165110E0,9.227023125E0,2.025225163E0
1.389448021E0,1.223629713E0,9.258130074E0,1.994118571E0
1.391825730E0,1.149153113E0,9.289237022E0,2.022832394E0
1.394204219E0,1.070189953E0,9.315557480E0,2.049153566E0
1.396582709E0,9.960124493E-1,9.327521324E0,2.085045815E0
1.398960417E0,8.955138922E-1,9.325128555E0,2.142473459E0
1.401338125E0,8.141579032E-1,9.329915047E0,2.212164640E0
1.403716667E0,7.591229677E-1,9.344271660E0,2.238485575E0
1.406095157E0,7.136593461E-1,9.358628273E0,2.262413740E0
1.408472865E0,6.753742099E-1,9.339486122E0,2.271985054E0
1.410850573E0,6.299105883E-1,9.322735786E0,2.252842426E0
1.413229063E0,5.578267574E-1,9.294022560E0,2.279163599E0
1.415607552E0,4.956133962E-1,9.258130074E0,2.267199516E0
1.417985313E0,4.501497746E-1,9.186046600E0,2.295913219E0
1.420363021E0,4.286143482E-1,9.140582085E0,2.310270309E0
1.422741511E0,3.903291821E-1,9.109476089E0,2.310270309E0
1.425120000E0,3.592225015E-1,9.044869423E0,2.319841623E0
1.427497709E0,2.994019389E-1,9.023334503E0,2.224128723E0
1.429875417E0,2.850449979E-1,9.011369705E0,2.116152525E0
1.432253959E0,3.161516786E-1,9.032905579E0,2.073081732E0
1.434632448E0,3.400799036E-1,9.037691116E0,2.065903187E0
1.437010157E0,3.496512175E-1,9.044869423E0,2.097009897E0
1.439387969E0,3.209373355E-1,9.054440498E0,2.116152525E0
1.441766250E0,2.778665423E-1,9.052047729E0,2.104188442E0
1.444144636E0,2.395813614E-1,9.016156197E0,2.073081732E0
1.446522605E0,1.773679852E-1,8.977870941E0,2.068295956E0
1.448900313E0,1.319043487E-1,8.927620888E0,2.063510418E0
1.451278802E0,9.361918271E-2,8.889336586E0,2.094617128E0
1.453657292E0,6.729813665E-2,8.908478737E0,2.113759756E0
1.456035000E0,6.729813665E-2,8.884550095E0,2.111366987E0
1.458412709E0,1.127617657E-1,8.941978455E0,2.053939104E0
1.460791198E0,1.630110443E-1,8.994620323E0,2.051546335E0
1.463169688E0,2.347957194E-1,9.042476654E0,2.080260277E0
1.465547448E0,2.994019389E-1,9.114261627E0,2.099402666E0
1.467925157E0,3.759722710E-1,9.147761345E0,2.144866467E0
1.470303646E0,4.525425732E-1,9.176474571E0,2.152044773E0
1.472682136E0,5.865406394E-1,9.176474571E0,2.144866467E0
1.475059896E0,7.328019142E-1,9.200403214E0,2.111366987E0
1.477437605E0,8.691928387E-1,9.178867340E0,2.101795673E0
1.479816094E0,1.007976532E0,9.169296265E0,2.015654087E0
1.482194584E0,1.146760225E0,9.200403214E0,1.941476464E0
1.484572292E0,1.276271820E0,9.234201431E0,1.855334878E0
1.486950000E0,1.383948803E0,9.234201431E0,1.802692771E0
1.489328542E0,1.431805253E0,9.255737305E0,1.745265007E0
1.491707032E0,1.482054472E0,9.229415894E0,1.692622900E0
1.494084740E0,1.505982757E0,9.222237587E0,1.671087503E0
1.496462448E0,1.510768414E0,9.178867340E0,1.656730533E0
1.498840938E0,1.477268934E0,9.111868858E0,1.651944876E0
1.501219427E0,1.448554993E0,9.056833267E0,1.647159338E0
1.503597188E0,1.422233939E0,8.970691681E0,1.642373681E0
1.505974896E0,1.360020518E0,8.882157326E0,1.661516190E0
1.508353386E0,1.276271820E0,8.803194046E0,1.735693693E0
1.510731875E0,1.170688510E0,8.750552177E0,1.819442511E0
1.513109584E0,1.039083242E0,8.714659691E0,1.929512382E0
1.515487292E0,8.931210637E-1,8.683553696E0,1.927119493E0
1.517865782E0,6.969096065E-1,8.714659691E0,1.785943031E0
1.520244271E0,5.434698462E-1,8.740981102E0,1.623231053E0
1.522622032E0,4.166502357E-1,8.736195564E0,1.443470240E0
1.524999740E0,2.659024298E-1,8.779266357E0,1.316650629E0
1.527378230E0,1.893320978E-1,8.793622971E0,1.230509043E0
1.529756719E0,1.199402362E-1,8.831908226E0,1.230509043E0
1.532134480E0,1.055833027E-1,8.898907661E0,1.237687469E0
1.534512188E0,8.883354068E-2,8.944371223E0,1.280758262E0
1.536890677E0,9.601201117E-2,8.985049248E0,1.285543919E0
1.539269167E0,9.361918271E-2,9.018548965E0,1.254437327E0
1.541646875E0,1.342971772E-1,9.042476654E0,1.144367456E0
1.544024584E0,1.654038578E-1,9.080761909E0,1.017248750E0
1.546403073E0,1.989033818E-1,9.121439934E0,9.191430211E-1
1.548781563E0,1.510469317E-1,9.145368576E0,8.449655175E-1
1.551159323E0,1.486541033E-1,9.200403214E0,8.545367718E-1
1.553537032E0,1.845464408E-1,9.262915611E0,8.832506537E-1
1.555915521E0,2.036890239E-1,9.291629791E0,9.933205247E-1
1.558294011E0,2.180459648E-1,9.279664993E0,1.077368379E0
1.560671771E0,2.635096014E-1,9.267701149E0,1.134796143E0
1.563049480E0,3.257229924E-1,9.258130074E0,1.187438250E0
1.565427969E0,4.142574072E-1,9.250951767E0,1.173081279E0
1.567806459E0,5.291129351E-1,9.253344536E0,1.132403374E0
1.570184167E0,6.466603279E-1,9.255737305E0,1.096511006E0
1.572561875E0,7.639086246E-1,9.255737305E0,1.065404296E0
1.574940417E0,8.428717852E-1,9.248558998E0,1.038784146E0
1.577318907E0,9.074779749E-1,9.279664993E0,9.957132936E-1
1.579696615E0,9.409775138E-1,9.315557480E0,9.574281573E-1
1.582074323E0,9.720842242E-1,9.337093353E0,8.904291391E-1
1.584452813E0,9.744769931E-1,9.377771378E0,9.023932219E-1
1.586831302E0,9.960124493E-1,9.428020477E0,9.023932219E-1
1.589209063E0,1.003190875E0,9.495018959E0,9.000003934E-1
1.591586771E0,1.039083242E0,9.588339806E0,8.449655175E-1
1.593965261E0,1.065404296E0,9.715159416E0,8.306085467E-1
1.596343750E0,1.125224829E0,9.832706451E0,7.827520967E-1
1.598721459E0,1.163509965E0,9.935597420E0,7.372884750E-1
1.601099167E0,1.211665511E0,1.004806042E1,6.535396576E-1
1.603477709E0,1.254736423E0,1.015813065E1,6.176473498E-1
1.605856198E0,1.295414329E0,1.020598698E1,5.793621540E-1
1.608233907E0,1.307378531E0,1.029452133E1,6.248258352E-1
1.610611615E0,1.312164068E0,1.033789158E1,6.439684033E-1
1.612990105E0,1.297807217E0,1.034267712E1,7.037889361E-1
1.615368594E0,1.276271820E0,1.035464096E1,7.660023570E-1
1.617746355E0,1.242772222E0,1.034985542E1,7.923234105E-1
1.620124063E0,1.158724308E0,1.030887794E1,7.851449251E-1
1.622502552E0,1.125224829E0,1.027298546E1,7.157530785E-1
1.624881042E0,1.074975610E0,1.026580715E1,6.296114326E-1
1.627258750E0,1.010369420E0,1.018445110E1,5.817549825E-1
1.629636459E0,9.098708034E-1,1.011745262E1,4.977070987E-1
1.632015000E0,8.668000102E-1,1.010070229E1,4.139583111E-1
1.634393490E0,8.261220455E-1,1.006241703E1,3.469592929E-1
1.636771198E0,7.950153351E-1,1.003609657E1,3.565305769E-1
1.639148907E0,8.213363886E-1,1.003131104E1,3.302095234E-1
1.641527396E0,8.261220455E-1,1.001695347E1,3.349951804E-1
1.643905886E0,8.189435601E-1,9.997811317E0,3.661018610E-1
1.646283646E0,8.141579032E-1,9.961918831E0,3.684946895E-1
1.648661355E0,8.093722463E-1,9.964311600E0,4.331009090E-1
1.651039844E0,8.668000102E-1,1.000498962E1,4.378865361E-1
1.653418334E0,8.979067206E-1,9.995418549E0,4.809573591E-1
1.655796042E0,9.337990284E-1,1.003609657E1,5.195416212E-1
1.658173750E0,9.888339639E-1,1.005045319E1,5.673980713E-1
1.660552292E0,9.744769931E-1,1.003370380E1,5.769693851E-1
1.662930782E0,9.601200819E-1,1.002173901E1,5.506483316E-1
1.665308490E0,9.218349457E-1,1.002652550E1,5.027918816E-1
1.667686198E0,9.194421172E-1,1.005284595E1,4.187439680E-1
1.670064688E0,9.266205430E-1,1.011027431E1,3.517449200E-1
1.672443177E0,9.792626500E-1,1.014377308E1,2.991028428E-1
1.674820938E0,1.041476011E0,1.020120144E1,2.751746178E-1
1.677198646E0,1.110867858E0,1.024666500E1,2.895315289E-1
1.679577136E0,1.146760225E0,1.027059269E1,2.895315289E-1
1.681955625E0,1.161117196E0,1.027777100E1,2.321037948E-1
1.684333386E0,1.153938770E0,1.026819992E1,1.531406492E-1
1.686711094E0,1.173081279E0,1.027777100E1,8.614161611E-2
1.689089584E0,1.161117196E0,1.028973579E1,2.871387079E-2
1.691468073E0,1.209272742E0,1.033789158E1,4.785645381E-2
1.693845782E0,1.290628672E0,1.034267712E1,8.853443712E-2
1.696223490E0,1.403091431E0,1.036899757E1,2.392822653E-1
1.698601980E0,1.534696579E0,1.041685390E1,4.833501875E-1
1.700980469E0,1.666301847E0,1.045035362E1,7.229315639E-1
1.703358230E0,1.733300924E0,1.046231747E1,7.923234105E-1
1.705735938E0,1.769492388E0,1.045035362E1,7.181459069E-1
1.708114427E0,1.814955950E0,1.040967560E1,4.450650215E-1
1.710492917E0,1.836491346E0,1.035942650E1,1.627119333E-1
1.712870677E0,1.838884234E0,1.034506989E1,-4.067798331E-2
1.715248386E0,1.788634896E0,1.030169964E1,-1.103689447E-1
1.717626875E0,1.711765528E0,1.031844902E1,-1.295115203E-1
1.720005365E0,1.649552107E0,1.031605625E1,-1.558325738E-1
1.722383073E0,1.620838284E0,1.032323551E1,-2.252244353E-1
1.724760782E0,1.561017632E0,1.034028435E1,-2.539383173E-1
1.727139271E0,1.549053550E0,1.032323551E1,-2.754737139E-1
1.729517761E0,1.517946839E0,1.037139034E1,-3.137588799E-1
1.731895521E0,1.508375525E0,1.036660480E1,-2.994019389E-1
1.734273230E0,1.520339727E0,1.039771175E1,-2.611167729E-1
1.736651719E0,1.508375525E0,1.043838978E1,-2.252244353E-1
1.739030209E0,1.508375525E0,1.047428226E1,-2.060818523E-1
1.741407969E0,1.484447360E0,1.046949673E1,-1.510469317E-1
1.743785677E0,1.436590910E0,1.050299549E1,-1.677966863E-1
1.746164167E0,1.417448282E0,1.051496029E1,-1.845464408E-1
1.748542657E0,1.412662625E0,1.051496029E1,-1.342971772E-1
1.750920365E0,1.436590910E0,1.051974583E1,-6.729813665E-2
1.753298073E0,1.460519075E0,1.051017475E1,9.571290761E-2
1.755676615E0,1.455733418E0,1.052692413E1,2.225325108E-1
1.758055105E0,1.477268934E0,1.054367352E1,3.110669553E-1
1.760432813E0,1.498804331E0,1.053410244E1,3.014956415E-1
1.762810521E0,1.582553029E0,1.053888798E1,2.416750938E-1
1.765189011E0,1.659123421E0,1.053649521E1,1.531406492E-1
1.767567500E0,1.711765528E0,1.056281662E1,1.100698411E-1
1.769945261E0,1.788634896E0,1.059153080E1,6.221338734E-2
1.772322969E0,1.838884234E0,1.063699436E1,1.914258115E-2
1.774701459E0,1.920240164E0,1.067049313E1,-9.571290575E-3
1.777079948E0,1.953739643E0,1.067767239E1,-3.828516230E-2
1.779457657E0,1.994417667E0,1.070160007E1,-1.435693540E-2
1.781835365E0,2.049452543E0,1.070877838E1,2.632104978E-2
1.784213907E0,2.061416626E0,1.067288589E1,6.699903309E-2
1.786592396E0,2.102094650E0,1.067527866E1,5.503492057E-2
1.788970105E0,2.099701881E0,1.064177990E1,5.503492057E-2
1.791347813E0,2.140379906E0,1.061306572E1,5.264209956E-2
1.793726302E0,2.130808592E0,1.058435154E1,7.657032460E-2
1.796104792E0,2.145165443E0,1.054367352E1,9.092725813E-2
1.798482552E0,2.140379906E0,1.047667503E1,1.387837082E-1
1.800860261E0,2.147558212E0,1.041206837E1,2.081755698E-1
1.803238750E0,2.149951220E0,1.035224819E1,2.895315289E-1
1.805617240E0,2.157129526E0,1.027298546E1,4.139583111E-1
1.807995000E0,2.176272154E0,1.021795082E1,5.291129351E-1
1.810372709E0,2.207378864E0,1.013659477E1,5.506483316E-1
1.812751198E0,2.207378864E0,1.007198906E1,5.865406394E-1
1.815129688E0,2.204986095E0,1.000977516E1,6.320042610E-1
1.817507396E0,2.226521492E0,9.921240807E0,6.320042610E-1
1.819885105E0,2.236092806E0,9.825528145E0,6.631109715E-1
1.822263646E0,2.207378864E0,9.734301567E0,6.487540603E-1
1.824642136E0,2.214557409E0,9.636196136E0,6.535396576E-1
1.827019844E0,2.216950178E0,9.590732574E0,6.726822853E-1
1.829397552E0,2.202593327E0,9.540482521E0,7.253243923E-1
1.831776042E0,2.176272154E0,9.509376526E0,8.234301209E-1
1.834154532E0,2.188236237E0,9.483055115E0,8.688937426E-1
1.836532292E0,2.171486616E0,9.459127426E0,9.430712461E-1
1.838910000E0,2.181057930E0,9.425627708E0,9.765707254E-1
1.841288490E0,2.178664923E0,9.368199348E0,9.574281573E-1
1.843666980E0,2.166700840E0,9.346664429E0,9.717850685E-1
1.846044688E0,2.149951220E0,9.298808098E0,9.861420393E-1
1.848422396E0,2.111665964E0,9.282057762E0,9.933205247E-1
1.850800938E0,2.092523336E0,9.270093918E0,1.000499010E0
1.853179427E0,2.073380709E0,9.260522842E0,9.550353289E-1
1.855557136E0,2.094916344E0,9.289237022E0,9.167501926E-1
1.857934844E0,2.114058733E0,9.291629791E0,9.023932219E-1
1.860313334E0,2.145165443E0,9.286844254E0,9.358927608E-1
1.862691823E0,2.154736757E0,9.303593636E0,1.019641519E0
1.865069584E0,2.157129526E0,9.334700584E0,1.096511006E0
1.867447292E0,2.140379906E0,9.327521324E0,1.192223907E0
1.869825782E0,2.109273195E0,9.351449966E0,1.237687469E0
1.872204271E0,2.102094650E0,9.377771378E0,1.259222865E0
1.874582032E0,2.106880426E0,9.392127991E0,1.252044439E0
1.876959740E0,2.114058733E0,9.389735222E0,1.208973646E0
1.879338230E0,2.126022816E0,9.399306297E0,1.146760225E0
1.881716719E0,2.185843468E0,9.401699066E0,1.086939692E0
1.884094427E0,2.238485575E0,9.413662910E0,1.060618639E0
1.886472136E0,2.283949137E0,9.435198784E0,1.060618639E0
1.888850677E0,2.315355062E0,9.442377090E0,1.101296663E0
1.891229167E0,2.310569286E0,9.444769859E0,1.125224829E0
1.893606875E0,2.320140600E0,9.444769859E0,1.132403374E0
1.895984584E0,2.252842426E0,9.459127426E0,1.127617717E0
1.898363073E0,2.204986095E0,9.480662346E0,1.091725349E0
1.900741563E0,2.185843468E0,9.478269577E0,1.079761267E0
1.903119323E0,2.157129526E0,9.490233421E0,1.067797065E0
1.905497032E0,2.161915302E0,9.509376526E0,1.106082320E0
1.907875521E0,2.104487419E0,9.550054550E0,1.113260746E0
1.910254011E0,2.085345030E0,9.564411163E0,1.067797065E0
1.912631771E0,2.063809633E0,9.573982239E0,9.861420393E-1
1.915009480E0,2.047059774E0,9.602696419E0,9.669994712E-1
1.917387969E0,2.003988981E0,9.624231339E0,9.693922997E-1
1.919766459E0,1.994417667E0,9.645767212E0,1.029212832E0
1.922144167E0,1.965703845E0,9.640981674E0,1.055533886E0
1.924521875E0,1.936989903E0,9.607481956E0,1.077368379E0
1.926900417E0,1.917847395E0,9.607481956E0,1.089332461E0
1.929278907E0,1.910668850E0,9.585947037E0,1.057926655E0
1.931656615E0,1.877169371E0,9.550054550E0,1.014855862E0
1.934034323E0,1.886740685E0,9.523733139E0,1.024427176E0
1.936412813E0,1.869990945E0,9.485447884E0,1.033998489E0
1.938791302E0,1.846062660E0,9.444769859E0,1.065404296E0
1.941169063E0,1.834098577E0,9.423234940E0,1.098903775E0
1.943546771E0,1.836491346E0,9.432806015E0,1.158724308E0
1.945925261E0,1.831705689E0,9.451948166E0,1.220937729E0
1.948303750E0,1.869990945E0,9.473484039E0,1.249651670E0
1.950681459E0,1.908276081E0,9.490233421E0,1.331007600E0
1.953059167E0,1.934597135E0,9.533304214E0,1.338186026E0
1.955437709E0,1.946561217E0,9.569196701E0,1.347757339E0
1.957816198E0,1.956132531E0,9.573982239E0,1.335793257E0
1.960193907E0,1.948953986E0,9.593125343E0,1.280758262E0
1.962571615E0,1.948953986E0,9.600303650E0,1.216152072E0
1.964950105E0,1.956132531E0,9.629017830E0,1.168295622E0
1.967328594E0,1.972882271E0,9.652945518E0,1.125224829E0
1.969706355E0,1.963310957E0,9.662516594E0,1.014855862E0
1.972084063E0,1.960918188E0,9.667302132E0,9.909276962E-1
1.974462552E0,1.941775560E0,9.712766647E0,9.669994712E-1
1.976841042E0,1.879562140E0,9.741479874E0,9.550353289E-1
1.979218802E0,1.838884234E0,9.758230209E0,9.382855892E-1
1.981596511E0,1.776670814E0,9.789635658E0,9.167501926E-1
1.983975000E0,1.706979871E0,9.830313683E0,9.526425004E-1
1.986353490E0,1.647159338E0,9.849455833E0,9.598209858E-1
1.988731198E0,1.589731574E0,9.854242325E0,9.478568435E-1
1.991108907E0,1.549053550E0,9.863813400E0,9.741778970E-1
1.993487448E0,1.508375525E0,9.868598938E0,1.007677436E0
1.995865938E0,1.472483277E0,9.861420631E0,1.005284667E0
1.998243646E0,1.472483277E0,9.866206169E0,1.014855862E0
2.000621355E0,1.472483277E0,9.837491989E0,1.010070205E0
2.002999844E0,1.494018674E0,9.777671814E0,9.885348678E-1
2.005378334E0,1.503589988E0,9.792028427E0,9.191430211E-1
2.007756094E0,1.549053550E0,9.792028427E0,8.856434822E-1
2.010133802E0,1.584945917E0,9.758230209E0,8.760721684E-1
2.012512292E0,1.606481314E0,9.748658180E0,8.449655175E-1
2.014890782E0,1.613659739E0,9.727123260E0,8.497511148E-1
2.017268542E0,1.632802367E0,9.731908798E0,8.784649968E-1
2.019646250E0,1.625623941E0,9.717552185E0,9.430712461E-1
2.022024740E0,1.663909078E0,9.724730492E0,9.981061220E-1
2.024403230E0,1.654337764E0,9.741479874E0,1.007677436E0
2.026780938E0,1.651944876E0,9.693623543E0,9.502496719E-1
2.029158646E0,1.680658817E0,9.715159416E0,9.622138143E-1
2.031537188E0,1.685444474E0,9.717552185E0,1.012463093E0
2.033915677E0,1.718943954E0,9.736694336E0,1.084546804E0
2.036293386E0,1.714158297E0,9.765408516E0,1.175474167E0
2.038671094E0,1.721336842E0,9.746265411E0,1.201795220E0
2.041049584E0,1.752742529E0,9.751050949E0,1.235294700E0
2.043428073E0,1.738086581E0,9.727123260E0,1.235294700E0
2.045805834E0,1.716551185E0,9.703194618E0,1.268794179E0
2.048183542E0,1.695015788E0,9.684052467E0,1.256830096E0
2.050562032E0,1.685444474E0,9.631410599E0,1.218544960E0
2.052940521E0,1.666301847E0,9.655338287E0,1.161117196E0
2.055318282E0,1.642373681E0,9.614660263E0,1.072582722E0
2.057695990E0,1.680658817E0,9.595518112E0,1.029212832E0
2.060074480E0,1.671087503E0,9.590732574E0,9.717850685E-1
2.062452969E0,1.718943954E0,9.585947037E0,9.334999323E-1
2.064830677E0,1.702194214E0,9.605089188E0,9.550353289E-1
2.067208386E0,1.738086581E0,9.662516594E0,9.478568435E-1
2.069586875E0,1.752742529E0,9.705587387E0,9.789635539E-1
2.071965365E0,1.800599098E0,9.722337723E0,9.957132936E-1
2.074343125E0,1.795813441E0,9.746265411E0,1.014855862E0
2.076720834E0,1.798206210E0,9.763015747E0,1.012463093E0
2.079099323E0,1.822134495E0,9.743872643E0,9.789635539E-1
2.081477813E0,1.838884234E0,9.775279045E0,9.789635539E-1
2.083855573E0,1.884347796E0,9.799206734E0,9.885348678E-1
2.086233282E0,1.917847395E0,9.808777809E0,9.622138143E-1
2.088611771E0,1.965703845E0,9.823135376E0,9.646066427E-1
2.090990261E0,2.008774519E0,9.847063065E0,9.526425004E-1
2.093368021E0,2.030309916E0,9.832706451E0,9.382855892E-1
2.095745730E0,2.054238319E0,9.818349838E0,9.263214469E-1
2.098124219E0,2.082952023E0,9.806385040E0,8.808578253E-1
2.100502709E0,2.094916344E0,9.801599503E0,8.449655175E-1
2.102880417E0,2.126022816E0,9.765408516E0,8.449655175E-1
2.105258125E0,2.126022816E0,9.741479874E0,8.330013752E-1
2.107636615E0,2.118844509E0,9.705587387E0,8.521439433E-1
2.110015105E0,2.111665964E0,9.679266930E0,8.641080856E-1
2.112392865E0,2.087737799E0,9.636196136E0,8.904291391E-1
2.114770573E0,2.070987940E0,9.607481956E0,8.904291391E-1
2.117149063E0,2.059023857E0,9.583553314E0,8.808578253E-1
2.119527552E0,2.035095692E0,9.533304214E0,8.808578253E-1
2.121905313E0,2.061416626E0,9.506983757E0,8.880363107E-1
2.124283021E0,2.070987940E0,9.528518677E0,8.952147961E-1
2.126661511E0,2.097309113E0,9.528518677E0,9.502496719E-1
2.129040000E0,2.123630047E0,9.499805450E0,9.813563824E-1
2.131417709E0,2.173879385E0,9.490233421E0,1.029212832E0
2.133795417E0,2.197807550E0,9.475876808E0,1.057926655E0
2.136173959E0,2.190629244E0,9.437591553E0,1.084546804E0
2.138552448E0,2.212164640E0,9.404091835E0,1.084546804E0
2.140930157E0,2.197807550E0,9.389735222E0,1.098903775E0
2.143307865E0,2.214557409E0,9.384949684E0,1.091725349E0
2.145686355E0,2.197807550E0,9.358628273E0,1.084546804E0
2.148064844E0,2.185843468E0,9.370592117E0,1.072582722E0
2.150442605E0,2.178664923E0,9.346664429E0,1.050748229E0
2.152820313E0,2.166700840E0,9.372985840E0,1.031605721E0
2.155198802E0,2.133201361E0,9.370592117E0,1.036391258E0
2.157577292E0,2.109273195E0,9.399306297E0,9.622138143E-1
2.159955052E0,2.085345030E0,9.394520760E0,9.622138143E-1
2.162332761E0,2.061416626E0,9.394520760E0,9.263214469E-1
2.164711250E0,2.087737799E0,9.408877373E0,8.928219676E-1
2.167089740E0,2.094916344E0,9.439984322E0,9.095717072E-1
2.169467448E0,2.121237278E0,9.425627708E0,9.693922997E-1
2.171845157E0,2.166700840E0,9.456734657E0,1.010070205E0
2.174223698E0,2.183450699E0,9.490233421E0,1.017248750E0
2.176602188E0,2.195414782E0,9.535696983E0,1.014855862E0
2.178979896E0,2.197807550E0,9.535696983E0,9.813563824E-1
2.181357605E0,2.169093609E0,9.542876244E0,9.478568435E-1
2.183736094E0,2.147558212E0,9.538089752E0,8.808578253E-1
2.186114584E0,2.145165443E0,9.564411163E0,8.497511148E-1
2.188492344E0,2.135594130E0,9.588339806E0,8.018946648E-1
2.190870052E0,2.126022816E0,9.612267494E0,7.803592682E-1
2.193248542E0,2.157129526E0,9.645767212E0,7.420741320E-1
2.195627032E0,2.149951220E0,9.686445236E0,7.468597889E-1
2.198004792E0,2.212164640E0,9.719944954E0,7.420741320E-1
2.200382500E0,2.240878344E0,9.739087105E0,7.612167001E-1
2.202760990E0,2.283949137E0,9.760622978E0,7.301099896E-1
2.205139480E0,2.324926376E0,9.806385040E0,7.229315639E-1
2.207517240E0,2.360818624E0,9.839884758E0,6.918248534E-1
2.209894948E0,2.365604401E0,9.868598938E0,6.774678826E-1
2.212273438E0,2.360818624E0,9.909276962E0,6.678966284E-1
2.214651927E0,2.365604401E0,9.894919395E0,6.559324861E-1
2.217029636E0,2.394318104E0,9.892526627E0,5.961119533E-1
2.219407344E0,2.401496649E0,9.926026344E0,5.626124144E-1
2.221785886E0,2.418246269E0,9.945169449E0,5.338985324E-1
2.224164375E0,2.427817583E0,9.947562218E0,5.171487927E-1
2.226542084E0,2.442174673E0,9.959526062E0,5.291129351E-1
2.228919792E0,2.463710070E0,1.000259686E1,5.123631358E-1
2.231298282E0,2.485245466E0,9.995418549E0,5.027918816E-1
2.233676771E0,2.497209549E0,9.966704369E0,4.977070987E-1
2.236054532E0,2.482852697E0,9.964311600E0,5.051847100E-1
2.238432240E0,2.499602318E0,9.971489906E0,5.027918816E-1
2.240810730E0,2.504388094E0,9.969097137E0,5.315057039E-1
2.243189219E0,2.509173632E0,9.959526062E0,5.602195859E-1
2.245566980E0,2.521137714E0,9.914062500E0,6.655037999E-1
2.247944688E0,2.499602318E0,9.890133858E0,7.420741320E-1
2.250323177E0,2.461317301E0,9.861420631E0,7.875377536E-1
2.252701667E0,2.420639277E0,9.825528145E0,7.851449251E-1
2.255079375E0,2.396710873E0,9.748658180E0,7.612167001E-1
2.257457084E0,2.351247311E0,9.717552185E0,6.774678826E-1
2.259835625E0,2.346461773E0,9.640981674E0,6.200401783E-1
2.262214115E0,2.356033087E0,9.602696419E0,5.841478109E-1
2.264591823E0,2.346461773E0,9.564411163E0,5.721837282E-1
2.266969532E0,2.346461773E0,9.557232857E0,5.578267574E-1
2.269348021E0,2.377568483E0,9.559625626E0,6.104688644E-1
2.271726511E0,2.432603359E0,9.545269012E0,6.631109715E-1
2.274104271E0,2.430210590E0,9.516554832E0,7.348956466E-1
2.276481980E0,2.454138756E0,9.478269577E0,7.899305820E-1
2.278860469E0,2.480459690E0,9.471091270E0,8.162516356E-1
2.281238959E0,2.490031004E0,9.447162628E0,7.731808424E-1
2.283616719E0,2.497209549E0,9.418449402E0,7.277171612E-1
2.285994427E0,2.513959408E0,9.384949684E0,6.966105103E-1
2.288372917E0,2.542673111E0,9.361021042E0,6.774678826E-1
2.290751407E0,2.576172590E0,9.356235504E0,6.607181430E-1
2.293129167E0,2.588136673E0,9.372985840E0,6.559324861E-1
2.295506875E0,2.604886532E0,9.356235504E0,6.535396576E-1
2.297885365E0,2.631207705E0,9.368199348E0,6.678966284E-1
2.300263855E0,2.624029160E0,9.349057198E0,6.750751138E-1
2.302641563E0,2.633600473E0,9.327521324E0,6.726822853E-1
2.305019271E0,2.604886532E0,9.334700584E0,6.463612318E-1
2.307397761E0,2.573779821E0,9.325128555E0,6.487540603E-1
2.309776250E0,2.535494804E0,9.310771942E0,6.343970895E-1
2.312154011E0,2.535494804E0,9.337093353E0,6.559324861E-1
2.314531719E0,2.535494804E0,9.308379173E0,6.822535396E-1
2.316910209E0,2.521137714E0,9.325128555E0,6.822535396E-1
2.319288698E0,2.513959408E0,9.310771942E0,7.133602500E-1
2.321666459E0,2.492423773E0,9.289237022E0,6.822535396E-1
2.324044167E0,2.501995087E0,9.262915611E0,6.726822853E-1
2.326422657E0,2.485245466E0,9.243772507E0,6.487540603E-1
2.328801146E0,2.456531525E0,9.238986969E0,6.272186637E-1
2.331178907E0,2.461317301E0,9.234201431E0,6.415755749E-1
2.333556615E0,2.470888376E0,9.250951767E0,6.607181430E-1
2.335935105E0,2.451745987E0,9.227023125E0,6.439684033E-1
2.338313594E0,2.470888376E0,9.215059280E0,6.296114326E-1
2.340691302E0,2.473281384E0,9.253344536E0,6.152545214E-1
2.343069011E0,2.494816780E0,9.262915611E0,5.961119533E-1
2.345447552E0,2.535494804E0,9.284450531E0,5.602195859E-1
2.347826042E0,2.571387053E0,9.298808098E0,5.458626747E-1
2.350203750E0,2.614457846E0,9.339486122E0,5.243272781E-1
2.352581459E0,2.650350094E0,9.368199348E0,5.075774789E-1
2.354959948E0,2.693420887E0,9.413662910E0,5.051847100E-1
2.357338438E0,2.726920605E0,9.437591553E0,4.785645306E-1
2.359716198E0,2.767598391E0,9.475876808E0,4.402793646E-1
2.362093907E0,2.803490877E0,9.518947601E0,4.115654826E-1
2.364472396E0,2.846561670E0,9.559625626E0,3.828516304E-1
2.366850886E0,2.880360365E0,9.593125343E0,3.637090325E-1
2.369228646E0,2.909074068E0,9.612267494E0,3.326023519E-1
2.371606355E0,2.942573547E0,9.633803368E0,3.158525825E-1
2.373984844E0,2.956930637E0,9.645767212E0,3.182454109E-1
2.376363334E0,2.973680258E0,9.655338287E0,3.014956415E-1
2.378741042E0,2.976073265E0,9.660123825E0,2.967100143E-1
2.381118750E0,2.985644341E0,9.652945518E0,3.062812984E-1
2.383497292E0,2.944966555E0,9.655338287E0,3.302095234E-1
2.385875782E0,2.933002472E0,9.652945518E0,3.302095234E-1
2.388253490E0,2.877967358E0,9.636196136E0,3.876372576E-1
2.390631198E0,2.829811811E0,9.631410599E0,4.187439680E-1
2.393009688E0,2.791526794E0,9.645767212E0,4.522434771E-1
2.395388177E0,2.765205622E0,9.624231339E0,4.618147612E-1
2.397765938E0,2.736491680E0,9.597910881E0,5.027918816E-1
2.400143646E0,2.705385208E0,9.566803932E0,5.219344497E-1
2.402522136E0,2.712563515E0,9.523733139E0,5.410770178E-1
2.404900625E0,2.707777977E0,9.475876808E0,5.602195859E-1
2.407278386E0,2.717349291E0,9.459127426E0,5.937191248E-1
2.409656094E0,2.734098911E0,9.394520760E0,5.817549825E-1
2.412034584E0,2.769991398E0,9.358628273E0,6.272186637E-1
2.414413073E0,2.772384167E0,9.313164711E0,6.583253145E-1
2.416790834E0,2.772384167E0,9.260522842E0,6.918248534E-1
2.419168542E0,2.781955481E0,9.207581520E0,7.157530785E-1
2.421547032E0,2.820240498E0,9.174081802E0,7.181459069E-1
2.423925521E0,2.863610506E0,9.114261627E0,7.372884750E-1
2.426303230E0,2.866003275E0,9.083154678E0,7.348956466E-1
2.428680938E0,2.906681299E0,9.056833267E0,7.277171612E-1
2.431059480E0,2.935395241E0,9.013762474E0,7.253243923E-1
2.433437969E0,2.964108944E0,9.006584167E0,7.157530785E-1
2.435815677E0,2.952144861E0,8.994620323E0,7.444669604E-1
2.438193386E0,2.940180779E0,9.006584167E0,7.612167001E-1
2.440571875E0,2.935395241E0,9.001798630E0,7.683951855E-1
2.442950365E0,2.930609465E0,9.025727272E0,7.851449251E-1
2.445328125E0,2.880360365E0,9.018548965E0,7.851449251E-1
2.447705834E0,2.866003275E0,9.025727272E0,7.923234105E-1
2.450084323E0,2.786741018E0,9.042476654E0,7.755736113E-1
2.452462813E0,2.738884687E0,9.064012527E0,7.468597889E-1
2.454840573E0,2.707777977E0,9.075976372E0,7.109674215E-1
2.457218282E0,2.705385208E0,9.083154678E0,7.109674215E-1
2.459596771E0,2.683849812E0,9.111868858E0,6.655037999E-1
2.461975261E0,2.686242580E0,9.107083321E0,7.061817646E-1
2.464353021E0,2.681456804E0,9.157332420E0,6.583253145E-1
2.466730730E0,2.676671267E0,9.154939651E0,6.678966284E-1
2.469109219E0,2.719742060E0,9.183652878E0,6.750751138E-1
2.471487709E0,2.753241539E0,9.186046600E0,6.272186637E-1
2.473865417E0,2.784348249E0,9.202795982E0,6.056832075E-1
2.476243125E0,2.786741018E0,9.219844818E0,5.793621540E-1
2.478621667E0,2.791526794E0,9.279664993E0,5.769693851E-1
2.481000157E0,2.796312332E0,9.296415329E0,6.343970895E-1
2.483377865E0,2.798705101E0,9.298808098E0,6.702894568E-1
2.485755573E0,2.762812853E0,9.322735786E0,7.325028181E-1
2.488134063E0,2.767598391E0,9.337093353E0,7.779664397E-1
2.490512552E0,2.753241539E0,9.344271660E0,7.660023570E-1
2.492890313E0,2.765205622E0,9.329915047E0,7.157530785E-1
2.495268021E0,2.786741018E0,9.308379173E0,6.439684033E-1
2.497646511E0,2.796312332E0,9.291629791E0,5.937191248E-1
2.500025000E0,2.803490877E0,9.274879456E0,5.578267574E-1
2.502402761E0,2.839383125E0,9.260522842E0,5.123631358E-1
2.504780469E0,2.848954439E0,9.250951767E0,5.147559643E-1
2.507158959E0,2.844168901E0,9.265308380E0,5.338985324E-1
2.509537448E0,2.866003275E0,9.289237022E0,5.578267574E-1
2.511915209E0,2.866003275E0,9.262915611E0,5.650052428E-1
2.514292917E0,2.875574589E0,9.270093918E0,6.032904387E-1
2.516671407E0,2.856132984E0,9.262915611E0,6.248258352E-1
2.519049896E0,2.827419043E0,9.255737305E0,6.176473498E-1
2.521427605E0,2.825026274E0,9.279664993E0,5.673980713E-1
2.523805313E0,2.796312332E0,9.265308380E0,4.929214716E-1
2.526183855E0,2.779562712E0,9.284450531E0,4.139583111E-1
2.528562344E0,2.743670225E0,9.291629791E0,3.900300860E-1
2.530940052E0,2.719742060E0,9.294022560E0,3.565305769E-1
2.533317761E0,2.674278498E0,9.286844254E0,3.996013701E-1
2.535696250E0,2.638386011E0,9.284450531E0,4.235295951E-1
2.538074740E0,2.614457846E0,9.267701149E0,4.546363056E-1
2.540452500E0,2.616850615E0,9.272486687E0,4.737788737E-1
2.542830209E0,2.643171787E0,9.234201431E0,4.857429862E-1
2.545208698E0,2.638386011E0,9.231808662E0,5.219344497E-1
2.547587188E0,2.655135870E0,9.227023125E0,5.243272781E-1
2.549964948E0,2.683849812E0,9.205188751E0,5.315057039E-1
2.552342657E0,2.698206663E0,9.183652878E0,5.602195859E-1
2.554721146E0,2.722134829E0,9.157332420E0,6.200401783E-1
2.557099636E0,2.726920605E0,9.114261627E0,6.296114326E-1
2.559477344E0,2.750848770E0,9.102297783E0,6.439684033E-1
2.561855052E0,2.774776936E0,9.104690552E0,6.296114326E-1
2.564233594E0,2.798705101E0,9.078369141E0,6.487540603E-1
2.566612084E0,2.772384167E0,9.061619759E0,6.296114326E-1
2.568989792E0,2.755634308E0,9.018548965E0,6.200401783E-1
2.571367500E0,2.736491680E0,9.023334503E0,6.248258352E-1
2.573746042E0,2.681456804E0,9.008976936E0,6.535396576E-1
2.576124532E0,2.635993242E0,9.011369705E0,6.774678826E-1
2.578502240E0,2.542673111E0,9.011369705E0,7.013961077E-1
2.580879948E0,2.478066921E0,8.999405861E0,7.444669604E-1
2.583258438E0,2.427817583E0,8.953942299E0,7.612167001E-1
2.585636927E0,2.344068766E0,8.970691681E0,7.755736113E-1
2.588014688E0,2.315355062E0,8.863015175E0,7.875377536E-1
2.590392396E0,2.420639277E0,8.781659126E0,8.258228898E-1
2.592770886E0,2.513959408E0,8.707481384E0,8.042874932E-1
2.595149375E0,2.580958366E0,8.673981667E0,9.191430211E-1
2.597527136E0,2.659921408E0,8.618648529E0,9.861420393E-1
2.599904844E0,2.753241539E0,8.609076500E0,1.072582722E0
2.602283334E0,2.803490877E0,8.630612373E0,1.067797065E0
2.604661823E0,2.832204819E0,8.717052460E0,8.808578253E-1
2.607039584E0,2.839383125E0,8.793622971E0,6.296114326E-1
2.609417292E0,2.858525753E0,8.886942863E0,4.713860750E-1
2.611795782E0,2.901895761E0,8.958727837E0,4.809573591E-1
2.614174271E0,2.964108944E0,9.028120041E0,6.128616929E-1
2.616551980E0,3.098107100E0,9.087940216E0,8.066803217E-1
2.618929688E0,3.239283562E0,9.154939651E0,9.502496719E-1
2.621308230E0,3.351746321E0,9.178867340E0,1.096511006E0
2.623686719E0,3.423830032E0,9.215059280E0,1.261615753E0
2.626064427E0,3.459722519E0,9.260522842E0,1.254437327E0
2.628442136E0,3.445365429E0,9.277272224E0,1.132403374E0
2.630820625E0,3.416352510E0,9.286844254E0,9.622138143E-1
2.633199115E0,3.368496180E0,9.296415329E0,8.186444640E-1
2.635576875E0,3.358924866E0,9.294022560E0,6.822535396E-1
2.637954584E0,3.375674486E0,9.356235504E0,6.367899179E-1
2.640333073E0,3.399602890E0,9.411270142E0,6.367899179E-1
2.642711563E0,3.421138287E0,9.442377090E0,6.415755749E-1
2.645089323E0,3.450151205E0,9.473484039E0,6.918248534E-1
2.647467032E0,3.478864908E0,9.528518677E0,7.444669604E-1
2.649845521E0,3.548256874E0,9.550054550E0,8.210372925E-1
2.652224011E0,3.507578850E0,9.609874725E0,8.162516356E-1
2.654601771E0,3.426223040E0,9.657731056E0,7.683951855E-1
2.656979480E0,3.334996462E0,9.684052467E0,6.559324861E-1
2.659357969E0,3.241676569E0,9.743872643E0,6.296114326E-1
2.661736459E0,3.143570662E0,9.820742607E0,6.894320250E-1
2.664114167E0,3.107678413E0,9.894919395E0,5.865406394E-1
2.666491875E0,3.055036306E0,9.937990189E0,5.793621540E-1
2.668870417E0,2.988037348E0,9.940383911E0,5.147559643E-1
2.671248907E0,2.928216696E0,9.937990189E0,4.761717021E-1
2.673626615E0,2.841775894E0,9.885348320E0,4.689932466E-1
2.676004323E0,2.779562712E0,9.832706451E0,4.570291340E-1
2.678382865E0,2.698206663E0,9.794421196E0,4.163511395E-1
2.680761355E0,2.640778780E0,9.717552185E0,4.498506486E-1
2.683139063E0,2.578565598E0,9.650552750E0,5.697908998E-1
2.685516771E0,2.592922449E0,9.573982239E0,5.889334679E-1
2.687895261E0,2.588136673E0,9.545269012E0,5.219344497E-1
2.690273750E0,2.604886532E0,9.463912964E0,4.642075896E-1
2.692651511E0,2.659921408E0,9.439984322E0,4.857429862E-1
2.695029219E0,2.731706142E0,9.423234940E0,5.123631358E-1
2.697407709E0,2.825026274E0,9.418449402E0,5.195416212E-1
2.699786198E0,2.906681299E0,9.428020477E0,5.315057039E-1
2.702163959E0,3.000001431E0,9.451948166E0,5.362913609E-1
2.704541667E0,3.074178934E0,9.461520195E0,5.410770178E-1
2.706920157E0,3.129213810E0,9.463912964E0,5.362913609E-1
2.709298646E0,3.186641455E0,9.485447884E0,5.554339290E-1
2.711676407E0,3.217748165E0,9.521340370E0,5.817549825E-1
2.714054115E0,3.267997503E0,9.576375008E0,6.200401783E-1
2.716432605E0,3.339782238E0,9.629017830E0,6.750751138E-1
2.718811094E0,3.385245800E0,9.681659698E0,6.798607111E-1
2.721188802E0,3.394817114E0,9.751050949E0,6.990033388E-1
2.723566511E0,3.433401346E0,9.799206734E0,6.774678826E-1
2.725945052E0,3.433401346E0,9.780064583E0,6.822535396E-1
2.728323542E0,3.457329512E0,9.782457352E0,7.133602500E-1
2.730701250E0,3.476472139E0,9.758230209E0,7.468597889E-1
2.733078959E0,3.474079370E0,9.746265411E0,7.827520967E-1
2.735457500E0,3.471686602E0,9.698409081E0,7.947162390E-1
2.737835990E0,3.452543974E0,9.700801849E0,8.018946648E-1
2.740213698E0,3.421138287E0,9.698409081E0,7.755736113E-1
2.742591407E0,3.418745279E0,9.705587387E0,7.516453862E-1
2.744969896E0,3.406781197E0,9.741479874E0,7.109674215E-1
2.747348386E0,3.409173965E0,9.777671814E0,6.822535396E-1
2.749726146E0,3.406781197E0,9.792028427E0,6.798607111E-1
2.752103855E0,3.431008577E0,9.835099220E0,6.942176819E-1
2.754482344E0,3.447758436E0,9.844670296E0,7.277171612E-1
2.756860834E0,3.476472139E0,9.856635094E0,6.894320250E-1
2.759238594E0,3.502793312E0,9.866206169E0,7.013961077E-1
2.761616302E0,3.538685560E0,9.873384476E0,6.774678826E-1
2.763994792E0,3.569792271E0,9.870991707E0,6.678966284E-1
2.766373282E0,3.596113443E0,9.885348320E0,7.013961077E-1
2.768751042E0,3.596113443E0,9.904491425E0,7.277171612E-1
2.771128750E0,3.603291750E0,9.933204651E0,7.301099896E-1
2.773507240E0,3.600898981E0,9.997811317E0,7.325028181E-1
2.775885730E0,3.591327667E0,1.000020409E1,7.037889361E-1
2.778263438E0,3.588934898E0,1.003131104E1,6.798607111E-1
2.780641146E0,3.596113443E0,1.005523872E1,6.535396576E-1
2.783019688E0,3.584149122E0,1.005284595E1,6.080760360E-1
2.785398177E0,3.545864105E0,1.003131104E1,5.769693851E-1
2.787775886E0,3.509971619E0,9.993025780E0,5.147559643E-1
2.790153594E0,3.464508057E0,9.971489906E0,4.809573591E-1
2.792532084E0,3.390031576E0,9.916455269E0,4.498506486E-1
2.794910573E0,3.346960783E0,9.887741089E0,4.474578202E-1
2.797288334E0,3.315854073E0,9.866206169E0,4.378865361E-1
2.799666042E0,3.291925669E0,9.796813965E0,4.570291340E-1
2.802044532E0,3.284747362E0,9.736694336E0,5.075774789E-1
2.804423021E0,3.303889751E0,9.691230774E0,5.530411601E-1
2.806800782E0,3.306282759E0,9.624231339E0,6.272186637E-1
2.809178490E0,3.313461065E0,9.552447319E0,7.037889361E-1
2.811556980E0,3.344567776E0,9.473484039E0,7.731808424E-1
2.813935469E0,3.344567776E0,9.420842171E0,7.827520967E-1
2.816313230E0,3.401995659E0,9.363413811E0,8.401798606E-1
2.818690938E0,3.413959742E0,9.329915047E0,8.425726891E-1
2.821069427E0,3.433401346E0,9.298808098E0,8.617152572E-1
2.823447917E0,3.378067255E0,9.289237022E0,8.880363107E-1
2.825825625E0,3.361317635E0,9.298808098E0,9.023932219E-1
2.828203334E0,3.337389469E0,9.298808098E0,8.736793399E-1
2.830581875E0,3.313461065E0,9.325128555E0,8.760721684E-1
2.832960365E0,3.282354355E0,9.332307816E0,9.095717072E-1
2.835338073E0,3.277568817E0,9.327521324E0,8.641080856E-1
2.837715782E0,3.232105255E0,9.337093353E0,8.617152572E-1
2.840094323E0,3.145963669E0,9.286844254E0,8.617152572E-1
2.842472813E0,3.055036306E0,9.236594200E0,8.234301209E-1
2.844850521E0,2.983251572E0,9.205188751E0,8.425726891E-1
2.847228230E0,2.901895761E0,9.198010445E0,8.042874932E-1
2.849606719E0,2.860918522E0,9.178867340E0,8.042874932E-1
2.851985209E0,2.820240498E0,9.183652878E0,8.138588071E-1
2.854362969E0,2.846561670E0,9.205188751E0,7.995018363E-1
2.856740677E0,2.866003275E0,9.222237587E0,7.612167001E-1
2.859119167E0,2.856132984E0,9.236594200E0,7.636095285E-1
2.861497657E0,2.844168901E0,9.219844818E0,7.636095285E-1
2.863875417E0,2.856132984E0,9.217452049E0,7.899305820E-1
2.866253125E0,2.832204819E0,9.209974289E0,7.923234105E-1
2.868631615E0,2.822633505E0,9.183652878E0,8.066803217E-1
2.871010105E0,2.832204819E0,9.190832138E0,8.042874932E-1
2.873387865E0,2.836990356E0,9.169296265E0,7.947162390E-1
2.875765573E0,2.836990356E0,9.181260109E0,7.803592682E-1
2.878144063E0,2.880360365E0,9.162117958E0,7.396813035E-1
2.880522552E0,2.942573547E0,9.190832138E0,6.918248534E-1
2.882900261E0,3.031108141E0,9.195617676E0,6.655037999E-1
2.885277969E0,3.107678413E0,9.212666512E0,5.721837282E-1
2.887656511E0,3.191427231E0,9.234201431E0,4.618147612E-1
2.890035000E0,3.253640652E0,9.227023125E0,4.019941986E-1
2.892412709E0,3.294318676E0,9.219844818E0,3.684946895E-1
2.894790417E0,3.220141172E0,9.227023125E0,3.397808075E-1
2.897168907E0,3.224926710E0,9.217452049E0,3.086741269E-1
2.899547396E0,3.186641455E0,9.255737305E0,3.684946895E-1
2.901925157E0,3.124428272E0,9.231808662E0,4.426721931E-1
2.904302865E0,3.078964472E0,9.212666512E0,5.434698462E-1
2.906681355E0,3.057429075E0,9.202795982E0,6.056832075E-1
2.909059844E0,3.050250769E0,9.262915611E0,6.367899179E-1
2.911437605E0,3.055036306E0,9.272486687E0,6.702894568E-1
2.913815313E0,3.028715372E0,9.279664993E0,7.468597889E-1
2.916193802E0,3.028715372E0,9.291629791E0,7.779664397E-1
2.918572292E0,2.954537868E0,9.308379173E0,7.492526174E-1
2.920950052E0,2.866003275E0,9.353842735E0,8.042874932E-1
2.923327761E0,2.815454960E0,9.411270142E0,8.401798606E-1
2.925706250E0,2.805883646E0,9.413662910E0,8.497511148E-1
2.928084740E0,2.815454960E0,9.418449402E0,8.545367718E-1
2.930462500E0,2.817847729E0,9.404091835E0,8.353942037E-1
2.932840209E0,2.856132984E0,9.315557480E0,7.971090674E-1
2.935218698E0,2.933002472E0,9.193224907E0,7.540382147E-1
2.937597188E0,3.088535786E0,9.006584167E0,6.822535396E-1
2.939974896E0,3.291925669E0,8.657232285E0,5.817549825E-1
2.942352605E0,3.299104214E0,8.271688461E0,1.704586983E0
2.944731146E0,3.098107100E0,8.017750740E0,1.029212832E0
2.947109636E0,3.148356438E0,7.625327587E0,7.827520967E-1
2.949487344E0,3.258426189E0,7.567899704E0,8.784649968E-1
2.951865052E0,3.459722519E0,7.929215908E0,1.108475089E0
2.954243594E0,3.476472139E0,8.207082748E0,1.206580877E0
2.956622084E0,3.531507015E0,8.489435196E0,1.216152072E0
2.958999792E0,3.553042412E0,8.685946465E0,1.194616675E0
2.961377500E0,3.588934898E0,8.848658562E0,1.170688510E0
2.963755990E0,3.610470295E0,8.999405861E0,1.175474167E0
2.966134480E0,3.584149122E0,9.102297783E0,1.230509043E0
2.968512240E0,3.572185040E0,9.186046600E0,1.352542996E0
2.970889948E0,3.500400543E0,9.279664993E0,1.488933921E0
2.973268438E0,3.433401346E0,9.339486122E0,1.591825247E0
2.975646927E0,3.356531858E0,9.339486122E0,1.685444474E0
2.978024688E0,3.270390272E0,9.377771378E0,1.711765528E0
2.980402396E0,3.181855917E0,9.358628273E0,1.730908036E0
2.982780886E0,3.074178934E0,9.349057198E0,1.757229090E0
2.985159375E0,2.959323406E0,9.346664429E0,1.757229090E0
2.987537136E0,2.863610506E0,9.303593636E0,1.778764486E0
2.989914844E0,2.741277456E0,9.279664993E0,1.762014747E0
2.992293334E0,2.616850615E0,9.279664993E0,1.728515267E0
2.994671823E0,2.525923491E0,9.294022560E0,1.651944876E0
2.997049584E0,2.437388897E0,9.289237022E0,1.601396561E0
2.999427292E0,2.391925335E0,9.303593636E0,1.529611826E0
3.001805782E0,2.346461773E0,9.334700584E0,1.467398524E0
3.004184271E0,2.346461773E0,9.341878891E0,1.376471281E0
3.006561980E0,2.360818624E0,9.358628273E0,1.362114310E0
3.008939688E0,2.399103880E0,9.389735222E0,1.326221943E0
3.011318230E0,2.437388897E0,9.408877373E0,1.314257860E0
3.013696719E0,2.497209549E0,9.432806015E0,1.287936807E0
3.016074427E0,2.552244425E0,9.475876808E0,1.304686546E0
3.018452136E0,2.650350094E0,9.542876244E0,1.290329576E0
3.020830677E0,2.674278498E0,9.593125343E0,1.261615753E0
3.023209167E0,2.746062994E0,9.669695854E0,1.232901812E0
3.025586875E0,2.801098108E0,9.729516029E0,1.211366415E0
3.027964584E0,2.868396044E0,9.758230209E0,1.173081279E0
3.030343073E0,2.921038151E0,9.770194054E0,1.106082320E0
3.032721563E0,2.990430117E0,9.780064583E0,1.038784146E0
3.035099323E0,3.055036306E0,9.775279045E0,9.358927608E-1
3.037477032E0,3.150749207E0,9.741479874E0,8.880363107E-1
3.039855521E0,3.217748165E0,9.684052467E0,8.497511148E-1
3.042234011E0,3.270390272E0,9.638588905E0,8.042874932E-1
3.044611771E0,3.339782238E0,9.576375008E0,8.018946648E-1
3.046989480E0,3.401995659E0,9.540482521E0,8.186444640E-1
3.049367969E0,3.450151205E0,9.514162064E0,8.186444640E-1
3.051746459E0,3.512364626E0,9.499805450E0,8.234301209E-1
3.054124219E0,3.541078329E0,9.499805450E0,8.186444640E-1
3.056501927E0,3.574577808E0,9.492626190E0,8.234301209E-1
3.058880417E0,3.600898981E0,9.459127426E0,8.545367718E-1
3.061258907E0,3.653541088E0,9.483055115E0,8.377870321E-1
3.063636667E0,3.713361740E0,9.480662346E0,8.114659786E-1
3.066014375E0,3.773182154E0,9.540482521E0,7.516453862E-1
3.068392865E0,3.818645954E0,9.559625626E0,7.037889361E-1
3.070771355E0,3.864109516E0,9.566803932E0,6.248258352E-1
3.073149063E0,3.909573078E0,9.593125343E0,5.745765567E-1
3.075526771E0,3.938287020E0,9.588339806E0,5.602195859E-1
3.077905313E0,3.928715706E0,9.609874725E0,5.434698462E-1
3.080283802E0,3.935894251E0,9.631410599E0,5.506483316E-1
3.082661511E0,3.923929930E0,9.652945518E0,5.937191248E-1
3.085039219E0,3.916751623E0,9.731908798E0,6.080760360E-1
3.087417761E0,3.916751623E0,9.777671814E0,6.511468887E-1
3.089796250E0,3.902394533E0,9.875777245E0,6.559324861E-1
3.092173959E0,3.911965847E0,9.942776680E0,7.085745931E-1
3.094551667E0,3.921537161E0,1.001216793E1,7.301099896E-1
3.096930157E0,3.916751623E0,1.001934624E1,7.707880139E-1
3.099308646E0,3.900001764E0,1.004806042E1,8.042874932E-1
3.101686407E0,3.871287823E0,1.006720352E1,8.569296002E-1
3.104064115E0,3.813860178E0,1.006959629E1,9.143573642E-1
3.106442605E0,3.794717550E0,1.005045319E1,9.287142754E-1
3.108821094E0,3.713361740E0,1.002173901E1,9.957132936E-1
3.111198855E0,3.648755312E0,9.971489906E0,1.026820064E0
3.113576563E0,3.579363585E0,9.930811882E0,1.019641519E0
3.115955052E0,3.505186081E0,9.863813400E0,1.045962572E0
3.118333542E0,3.469293833E0,9.830313683E0,1.098903775E0
3.120711302E0,3.421138287E0,9.796813965E0,1.127617717E0
3.123089011E0,3.363710403E0,9.767801285E0,1.168295622E0
3.125467500E0,3.313461065E0,9.765408516E0,1.232901812E0
3.127845990E0,3.263211966E0,9.731908798E0,1.266401410E0
3.130223750E0,3.177070379E0,9.731908798E0,1.304686546E0
3.132601459E0,3.107678413E0,9.717552185E0,1.331007600E0
3.134979948E0,3.052643538E0,9.693623543E0,1.333400369E0
3.137358438E0,2.961716175E0,9.669695854E0,1.299900889E0
3.139736146E0,2.899502754E0,9.655338287E0,1.319043517E0
3.142113855E0,2.813062191E0,9.672088623E0,1.331007600E0
3.144492396E0,2.772384167E0,9.662516594E0,1.357328653E0
3.146870886E0,2.736491680E0,9.681659698E0,1.381256819E0
3.149248594E0,2.674278498E0,9.700801849E0,1.405185103E0
3.151626302E0,2.669492722E0,9.722337723E0,1.393221021E0
3.154004844E0,2.638386011E0,9.765408516E0,1.393221021E0
3.156383334E0,2.614457846E0,9.801599503E0,1.386042476E0
3.158761042E0,2.588136673E0,9.873384476E0,1.426720500E0
3.161138750E0,2.578565598E0,9.899705887E0,1.414756417E0
3.163517240E0,2.545065880E0,9.911669731E0,1.421934843E0
3.165895730E0,2.506780863E0,9.873384476E0,1.417149186E0
3.168273490E0,2.451745987E0,9.873384476E0,1.443470240E0
3.170651198E0,2.384746790E0,9.820742607E0,1.443470240E0
3.173029688E0,2.336890459E0,9.780064583E0,1.445863128E0
3.175408177E0,2.250449657E0,9.729516029E0,1.438684583E0
3.177785938E0,2.185843468E0,9.640981674E0,1.431506157E0
3.180163646E0,2.099701881E0,9.590732574E0,1.419542074E0
3.182542136E0,2.032702923E0,9.521340370E0,1.395613790E0
3.184920625E0,1.965703845E0,9.442377090E0,1.362114310E0
3.187298386E0,1.913061738E0,9.356235504E0,1.290329576E0
3.189676094E0,1.869990945E0,9.296415329E0,1.244866014E0
3.192054584E0,1.822134495E0,9.227023125E0,1.173081279E0
3.194433073E0,1.805384636E0,9.164510727E0,1.113260746E0
3.196810782E0,1.793420553E0,9.109476089E0,1.065404296E0
3.199188490E0,1.767099500E0,9.056833267E0,1.012463093E0
3.201567032E0,1.757528186E0,9.035298347E0,1.002891779E0
3.203945521E0,1.759921074E0,9.011369705E0,1.005284667E0
3.206323230E0,1.738086581E0,8.975478172E0,1.007677436E0
3.208700938E0,1.752742529E0,8.965906143E0,9.574281573E-1
3.211079480E0,1.757528186E0,8.973084450E0,9.550353289E-1
3.213457969E0,1.750349760E0,8.937192917E0,9.598209858E-1
3.215835677E0,1.755135417E0,8.915657043E0,1.033998489E0
3.218213386E0,1.733300924E0,8.886942863E0,1.060618639E0
3.220591927E0,1.730908036E0,8.867800713E0,1.106082320E0
3.222970417E0,1.699801445E0,8.867800713E0,1.163509965E0
3.225348125E0,1.706979871E0,8.843872070E0,1.199402332E0
3.227725834E0,1.687837243E0,8.865407944E0,1.187438250E0
3.230104323E0,1.697408557E0,8.831908226E0,1.206580877E0
3.232482813E0,1.680658817E0,8.807980537E0,1.201795220E0
3.234860573E0,1.661516190E0,8.788837433E0,1.197009563E0
3.237238282E0,1.683051586E0,8.750552177E0,1.199402332E0
3.239616771E0,1.711765528E0,8.743373871E0,1.194616675E0
3.241995261E0,1.738086581E0,8.760123253E0,1.199402332E0
3.244373021E0,1.783849239E0,8.807980537E0,1.194616675E0
3.246750730E0,1.826920033E0,8.836693764E0,1.204187989E0
3.249129219E0,1.824527264E0,8.848658562E0,1.173081279E0
3.251507709E0,1.831705689E0,8.851051331E0,1.161117196E0
3.253885469E0,1.874776483E0,8.839086533E0,1.194616675E0
3.256263177E0,1.934597135E0,8.882157326E0,1.194616675E0
3.258641667E0,1.922633052E0,8.853444099E0,1.161117196E0
3.261020157E0,1.925025821E0,8.841479301E0,1.127617717E0
3.263397917E0,1.917847395E0,8.776873589E0,1.127617717E0
3.265775625E0,1.927418590E0,8.685946465E0,1.074975610E0
3.268154115E0,1.905883193E0,8.599505424E0,1.086939692E0
3.270532605E0,1.910668850E0,8.556434631E0,1.067797065E0
3.272910365E0,1.901097536E0,8.503792763E0,1.098903775E0
3.275288073E0,1.877169371E0,8.436793327E0,1.127617717E0
3.277666563E0,1.843669891E0,8.355437279E0,1.079761267E0
3.280045052E0,1.822134495E0,8.321938515E0,1.101296663E0
3.282422761E0,1.838884234E0,8.317152023E0,1.151545882E0
3.284800469E0,1.834098577E0,8.329116821E0,1.182652593E0
3.287179011E0,1.838884234E0,8.357830048E0,1.199402332E0
3.289557500E0,1.819741607E0,8.341080666E0,1.213759303E0
3.291935209E0,1.779063582E0,8.348258972E0,1.189831018E0
3.294312917E0,1.711765528E0,8.336295128E0,1.187438250E0
3.296691459E0,1.683051586E0,8.369794846E0,1.208973646E0
3.299069948E0,1.651944876E0,8.408080101E0,1.242473125E0
3.301447657E0,1.608874083E0,8.463114738E0,1.235294700E0
3.303825365E0,1.549053550E0,8.518149376E0,1.201795220E0
3.306203855E0,1.532303810E0,8.558827400E0,1.173081279E0
3.308582344E0,1.470090389E0,8.613862038E0,1.161117196E0
3.310960105E0,1.438983679E0,8.654839516E0,1.151545882E0
3.313337813E0,1.417448282E0,8.681160927E0,1.098903775E0
3.315716302E0,1.398305774E0,8.709874153E0,1.038784146E0
3.318094792E0,1.360020518E0,8.719446182E0,1.012463093E0
3.320472552E0,1.336092353E0,8.731410027E0,9.598209858E-1
3.322850261E0,1.304985642E0,8.702695847E0,8.952147961E-1
3.325228750E0,1.285843015E0,8.702695847E0,8.856434822E-1
3.327607240E0,1.249950767E0,8.673981667E0,8.401798606E-1
3.329985000E0,1.271486163E0,8.649754524E0,7.899305820E-1
3.332362709E0,1.271486163E0,8.618648529E0,7.612167001E-1
3.334741198E0,1.273878932E0,8.570791245E0,7.085745931E-1
3.337119688E0,1.309771299E0,8.561220169E0,6.798607111E-1
3.339497448E0,1.336092353E0,8.537292480E0,6.080760360E-1
3.341875157E0,1.410269856E0,8.506185532E0,5.673980713E-1
3.344253646E0,1.462911963E0,8.542078018E0,5.315057039E-1
3.346632136E0,1.534696579E0,8.573184013E0,5.338985324E-1
3.349009896E0,1.623231053E0,8.652147293E0,4.977070987E-1
3.351387605E0,1.718943954E0,8.743373871E0,4.689932466E-1
3.353766094E0,1.800599098E0,8.812766075E0,4.474578202E-1
3.356144584E0,1.829312921E0,8.889336586E0,4.187439680E-1
3.358522292E0,1.896311998E0,8.946763992E0,4.163511395E-1
3.360900000E0,1.941775560E0,9.008976936E0,3.684946895E-1
3.363278542E0,1.960918188E0,9.025727272E0,3.182454109E-1
3.365657032E0,1.968096614E0,9.035298347E0,2.536391914E-1
3.368034740E0,2.001596212E0,9.078369141E0,2.201396823E-1
3.370412448E0,2.015953064E0,9.099904060E0,1.842473447E-1
3.372790990E0,2.042274237E0,9.126225471E0,1.411765367E-1
3.375169480E0,2.035095692E0,9.147761345E0,1.100698411E-1
3.377547188E0,2.061416626E0,9.162117958E0,9.332008660E-2
3.379924896E0,2.047059774E0,9.190832138E0,5.982056633E-2
3.382303386E0,2.047059774E0,9.202795982E0,1.914258115E-2
3.384681875E0,2.047059774E0,9.250951767E0,-2.632104978E-2
3.387059636E0,2.037488461E0,9.270093918E0,-2.153540403E-2
3.389437344E0,2.075773716E0,9.322735786E0,-4.067798331E-2
3.391815834E0,2.092523336E0,9.399306297E0,-1.031904742E-1
3.394194323E0,2.092523336E0,9.456734657E0,-1.127617657E-1
3.396572084E0,2.106880426E0,9.540482521E0,-1.797607988E-1
3.398949792E0,2.123630047E0,9.576375008E0,-2.682952285E-1
3.401328282E0,2.121237278E0,9.612267494E0,-3.161516786E-1
3.403706771E0,2.154736757E0,9.626625061E0,-3.951148391E-1
3.406084532E0,2.207378864E0,9.602696419E0,-4.764707983E-1
3.408462240E0,2.248056889E0,9.607481956E0,-5.195416212E-1
3.410840730E0,2.291127682E0,9.607481956E0,-5.841478109E-1
3.413219219E0,2.341675997E0,9.629017830E0,-6.152545214E-1
3.415596980E0,2.370389938E0,9.650552750E0,-6.610172391E-1
3.417974688E0,2.413460732E0,9.636196136E0,-6.897311211E-1
3.420353177E0,2.439781904E0,9.681659698E0,-7.064808607E-1
3.422731667E0,2.458924294E0,9.724730492E0,-7.064808607E-1
3.425109427E0,2.494816780E0,9.789635658E0,-7.782655358E-1
3.427487136E0,2.525923491E0,9.832706451E0,-7.878368497E-1
3.429865625E0,2.554637194E0,9.849455833E0,-8.309076428E-1
3.432244115E0,2.588136673E0,9.870991707E0,-7.854440212E-1
3.434621823E0,2.633600473E0,9.921240807E0,-7.806583643E-1
3.436999532E0,2.664707184E0,9.969097137E0,-7.280163169E-1
3.439378073E0,2.640778780E0,1.000738239E1,-7.088736892E-1
3.441756563E0,2.633600473E0,1.004327488E1,-7.351947427E-1
3.444134271E0,2.616850615E0,1.006959629E1,-7.663014531E-1
3.446511980E0,2.583351135E0,1.010788059E1,-7.591229677E-1
3.448890521E0,2.561815739E0,1.011266708E1,-7.806583643E-1
3.451269011E0,2.523530483E0,1.013898754E1,-7.686942816E-1
3.453646719E0,2.485245466E0,1.013420200E1,-7.902296782E-1
3.456024427E0,2.461317301E0,1.013420200E1,-7.734799385E-1
3.458402969E0,2.423032045E0,1.015095139E1,-7.663014531E-1
3.460781459E0,2.370389938E0,1.012702370E1,-7.710871100E-1
3.463159167E0,2.324926376E0,1.009830952E1,-7.686942816E-1
3.465536875E0,2.274377823E0,1.007438183E1,-7.686942816E-1
3.467915365E0,2.197807550E0,1.001695347E1,-8.165507317E-1
3.470293855E0,2.135594130E0,1.000738239E1,-7.854440212E-1
3.472671615E0,2.164308071E0,9.978668213E0,-7.663014531E-1
3.475049323E0,2.104487419E0,9.940383911E0,-8.333004713E-1
3.477427813E0,2.097309113E0,9.928419113E0,-8.237292171E-1
3.479806302E0,2.070987940E0,9.959526062E0,-8.237292171E-1
3.482184063E0,2.030309916E0,1.001456070E1,-8.452646136E-1
3.484561771E0,2.020738840E0,1.004327488E1,-8.620143533E-1
3.486940261E0,1.984846354E0,1.008395290E1,-9.002995491E-1
3.489318750E0,1.920240164E0,1.009352398E1,-9.337990284E-1
3.491696511E0,1.874776483E0,1.011027431E1,-9.696913958E-1
3.494074219E0,1.822134495E0,1.009591675E1,-1.041476011E0
3.496452709E0,1.752742529E0,1.010070229E1,-1.113260746E0
3.498831198E0,1.685444474E0,1.010070229E1,-1.177866936E0
3.501208959E0,1.659123421E0,1.008873844E1,-1.197308660E0
3.503586667E0,1.630409479E0,1.009352398E1,-1.266700506E0
3.505965157E0,1.618445396E0,1.009830952E1,-1.297807217E0
3.508343646E0,1.601695657E0,1.010548782E1,-1.355234981E0
3.510721407E0,1.604088426E0,1.010548782E1,-1.379163146E0
3.513099115E0,1.601695657E0,1.010309505E1,-1.391127229E0
3.515477605E0,1.637588024E0,1.011027431E1,-1.410269856E0
3.517856094E0,1.625623941E0,1.012223816E1,-1.415055513E0
3.520233855E0,1.632802367E0,1.011266708E1,-1.460519075E0
3.522611563E0,1.635195136E0,1.011266708E1,-1.438983679E0
3.524990052E0,1.651944876E0,1.010788059E1,-1.419841170E0
3.527368542E0,1.654337764E0,1.007916737E1,-1.455733418E0
3.529746250E0,1.637588024E0,1.007677460E1,-1.446162224E0
3.532123959E0,1.628016710E0,1.005523872E1,-1.458126307E0
3.534502500E0,1.618445396E0,1.002891827E1,-1.494018674E0
3.536880990E0,1.604088426E0,1.000738239E1,-1.498804331E0
3.539258698E0,1.568196177E0,1.000738239E1,-1.561017632E0
3.541636407E0,1.539482236E0,1.001695347E1,-1.580160260E0
3.544014948E0,1.510768414E0,1.000020409E1,-1.599302888E0
3.546393438E0,1.479661703E0,9.971489906E0,-1.599302888E0
3.548771146E0,1.429412484E0,9.964311600E0,-1.611266971E0
3.551148855E0,1.400698543E0,9.966704369E0,-1.584945917E0
3.553527396E0,1.391127229E0,9.973882675E0,-1.642373681E0
3.555905886E0,1.391127229E0,1.001695347E1,-1.663909078E0
3.558283594E0,1.374377489E0,1.008873844E1,-1.690230131E0
3.560661302E0,1.340878010E0,1.010548782E1,-1.723729610E0
3.563039844E0,1.316949725E0,1.016052341E1,-1.759921074E0
3.565418334E0,1.281057477E0,1.021077251E1,-1.776670814E0
3.567796042E0,1.257129192E0,1.024187946E1,-1.822134495E0
3.570173750E0,1.237986565E0,1.026102161E1,-1.860419631E0
3.572552240E0,1.223629713E0,1.030169964E1,-1.877169371E0
3.574930730E0,1.209272742E0,1.034985542E1,-1.881955028E0
3.577308490E0,1.204487085E0,1.040010452E1,-1.915454507E0
3.579686198E0,1.187737346E0,1.043599701E1,-1.963310957E0
3.582064688E0,1.158724308E0,1.048624611E1,-2.006381750E0
3.584443177E0,1.134796143E0,1.052931690E1,-2.032702923E0
3.586820938E0,1.096511006E0,1.054128075E1,-2.082952023E0
3.589198646E0,1.077368379E0,1.055803108E1,-2.130808592E0
3.591577136E0,1.065404296E0,1.055563831E1,-2.190629244E0
3.593955625E0,1.051047325E0,1.056999493E1,-2.216950178E0
3.596333386E0,1.067797065E0,1.057956600E1,-2.288734913E0
3.598711094E0,1.072582722E0,1.057717323E1,-2.363211393E0
3.601089584E0,1.074975610E0,1.058195877E1,-2.403889418E0
3.603468073E0,1.089332461E0,1.056999493E1,-2.444567442E0
3.605845834E0,1.101296663E0,1.057717323E1,-2.473281384E0
3.608223542E0,1.139581800E0,1.055803108E1,-2.494816780E0
3.610602032E0,1.144367456E0,1.056520939E1,-2.516352177E0
3.612980521E0,1.132403374E0,1.056760216E1,-2.478066921E0
3.615358282E0,1.149153113E0,1.056520939E1,-2.456531525E0
3.617735990E0,1.134796143E0,1.059392357E1,-2.423032045E0
3.620114480E0,1.158724308E0,1.060110188E1,-2.372782707E0
3.622492969E0,1.144367456E0,1.062263680E1,-2.341675997E0
3.624870730E0,1.146760225E0,1.065613651E1,-2.269592285E0
3.627248438E0,1.151545882E0,1.066331482E1,-2.221735716E0
3.629626927E0,1.168295622E0,1.070160007E1,-2.197807550E0
3.632005417E0,1.161117196E0,1.072552872E1,-2.147558212E0
3.634383177E0,1.127617717E0,1.070399284E1,-2.116451740E0
3.636760886E0,1.127617717E0,1.067288589E1,-2.085345030E0
3.639139375E0,1.110867858E0,1.062263680E1,-2.051845312E0
3.641517865E0,1.091725349E0,1.052931690E1,-2.042274237E0
3.643895573E0,1.053440213E0,1.043360424E1,-1.992024899E0
3.646273282E0,1.034297585E0,1.030887794E1,-1.953739643E0
3.648651823E0,1.031904817E0,1.018445110E1,-1.869990945E0
3.651030313E0,1.005583763E0,1.009830952E1,-1.853241086E0
3.653408021E0,9.912267923E-1,9.976275444E0,-1.884347796E0
3.655785730E0,9.912267923E-1,9.739087105E0,-2.190629244E0
3.658164271E0,9.529415965E-1,9.530911446E0,-2.434996128E0
3.660542761E0,9.385846853E-1,9.389735222E0,-2.621636391E0
3.662920469E0,9.146564603E-1,9.320343018E0,-2.647957325E0
3.665298177E0,9.433703423E-1,9.260522842E0,-2.466102839E0
3.667676719E0,1.074975610E0,9.246166229E0,-2.365604401E0
3.670055209E0,1.108475089E0,9.313164711E0,-3.318246841E0
3.672432917E0,1.122832060E0,9.262915611E0,-2.554637194E0
3.674810625E0,1.235593796E0,9.265308380E0,-2.542673111E0
3.677189167E0,1.338485122E0,9.250951767E0,-2.504388094E0
3.679567657E0,1.383948803E0,9.217452049E0,-2.262413740E0
3.681945365E0,1.441376567E0,9.202795982E0,-2.042274237E0
3.684323073E0,1.494018674E0,9.209974289E0,-1.788634896E0
3.686701615E0,1.580160260E0,9.236594200E0,-1.529910922E0
3.689080105E0,1.618445396E0,9.277272224E0,-1.247557878E0
3.691457813E0,1.683051586E0,9.337093353E0,-1.043868899E0
3.693835521E0,1.695015788E0,9.372985840E0,-8.931210637E-1
3.696214011E0,1.697408557E0,9.442377090E0,-5.697908998E-1
3.698592500E0,1.702194214E0,9.444769859E0,-3.137588799E-1
3.700970261E0,1.668694735E0,9.463912964E0,-1.079761237E-1
3.703347969E0,1.654337764E0,9.485447884E0,5.742774159E-2
3.705726459E0,1.618445396E0,9.485447884E0,2.368894368E-1
3.708104948E0,1.568196177E0,9.483055115E0,4.019941986E-1
3.710482709E0,1.503589988E0,9.483055115E0,5.721837282E-1
3.712860417E0,1.431805253E0,9.480662346E0,6.702894568E-1
3.715238907E0,1.343270779E0,9.444769859E0,7.803592682E-1
3.717617396E0,1.276271820E0,9.435198784E0,8.952147961E-1
3.719995157E0,1.158724308E0,9.387342453E0,9.454640746E-1
3.722372865E0,1.067797065E0,9.334700584E0,1.017248750E0
3.724751355E0,9.816554785E-1,9.289237022E0,1.026820064E0
3.727129844E0,8.955138922E-1,9.270093918E0,1.074975610E0
3.729507605E0,8.069794178E-1,9.227023125E0,1.079761267E0
3.731885313E0,7.040880919E-1,9.166903496E0,1.137188911E0
3.734263802E0,6.394818425E-1,9.140582085E0,1.168295622E0
3.736642292E0,5.913262963E-1,9.090332985E0,1.194616675E0
3.739020052E0,5.602195859E-1,9.061619759E0,1.204187989E0
3.741397761E0,5.171487927E-1,8.987442017E0,1.170688510E0
3.743776250E0,5.051847100E-1,8.987442017E0,1.146760225E0
3.746154740E0,3.735794425E-1,8.970691681E0,1.120439172E0
3.748532500E0,1.965105534E-1,9.001798630E0,1.113260746E0
3.750910209E0,1.677966863E-1,9.071190834E0,1.163509965E0
3.753288698E0,1.869392693E-1,9.131011009E0,1.240080357E0
3.755667188E0,2.012962103E-1,9.202795982E0,1.331007600E0
3.758044948E0,2.443670183E-1,9.258130074E0,1.426720500E0
3.760422657E0,2.682952285E-1,9.282057762E0,1.426720500E0
3.762801146E0,3.017947674E-1,9.325128555E0,1.376471281E0
3.765179636E0,3.879363835E-1,9.377771378E0,1.244866014E0
3.767557396E0,4.549354017E-1,9.384949684E0,1.079761267E0
3.769935105E0,5.578267574E-1,9.382556915E0,9.047860503E-1
3.772313594E0,6.323033571E-1,9.394520760E0,7.731808424E-1
3.774692084E0,6.921239495E-1,9.425627708E0,7.277171612E-1
3.777069844E0,7.615157962E-1,9.444769859E0,6.870391965E-1
3.779447552E0,8.333004713E-1,9.480662346E0,6.918248534E-1
3.781826042E0,9.146564603E-1,9.497411728E0,6.822535396E-1
3.784204532E0,9.912267923E-1,9.535696983E0,6.631109715E-1
3.786582240E0,1.048654556E0,9.573982239E0,6.056832075E-1
3.788959948E0,1.113260746E0,9.595518112E0,5.434698462E-1
3.791338490E0,1.158724308E0,9.609874725E0,4.570291340E-1
3.793716980E0,1.199701428E0,9.614660263E0,3.373879790E-1
3.796094740E0,1.266700506E0,9.626625061E0,2.033899277E-1
3.798472448E0,1.293021560E0,9.629017830E0,7.657032460E-2
3.800850938E0,1.336092353E0,9.621838570E0,-6.490531564E-2
3.803229427E0,1.350449324E0,9.590732574E0,-2.180459648E-1
3.805607188E0,1.386341572E0,9.626625061E0,-3.783650696E-1
3.807984896E0,1.434198022E0,9.652945518E0,-5.482555032E-1
3.810363386E0,1.477268934E0,9.664909363E0,-7.447660565E-1
3.812741875E0,1.546660781E0,9.710372925E0,-1.029511929E0
3.815119584E0,1.580160260E0,9.767801285E0,-1.120439172E0
3.817497292E0,1.630409479E0,9.837491989E0,-1.115653515E0
3.819875834E0,1.783849239E0,9.933204651E0,-1.199701428E0
3.822254323E0,1.865205288E0,1.002891827E1,-1.269093275E0
3.824632032E0,1.901097536E0,1.008156013E1,-1.211665511E0
3.827009740E0,1.884347796E0,1.008873844E1,-1.024726272E0
3.829388282E0,1.877169371E0,1.008634567E1,-7.280163169E-1
3.831766771E0,1.881955028E0,1.003609657E1,-3.496512175E-1
3.834144480E0,1.826920033E0,1.000977516E1,-4.067798331E-2
3.836522188E0,1.829312921E0,1.001695347E1,2.105683982E-1
3.838900730E0,1.788634896E0,9.983454704E0,3.876372576E-1
3.841279219E0,1.723729610E0,9.926026344E0,5.051847100E-1
3.843656927E0,1.656730533E0,9.861420631E0,6.104688644E-1
3.846034636E0,1.563410521E0,9.794421196E0,6.942176819E-1
3.848413177E0,1.458126307E0,9.722337723E0,8.138588071E-1
3.850791667E0,1.324128270E0,9.629017830E0,9.861420393E-1
3.853169375E0,1.130010486E0,9.542876244E0,1.242473125E0
3.855547084E0,9.744769931E-1,9.480662346E0,1.388435364E0
3.857925625E0,8.309076428E-1,9.428020477E0,1.541576028E0
3.860304115E0,6.777670383E-1,9.365806580E0,1.610967875E0
3.862681823E0,5.530411601E-1,9.286844254E0,1.594218135E0
3.865059532E0,4.477569461E-1,9.215059280E0,1.570289850E0
3.867438073E0,3.448655605E-1,9.152546883E0,1.498505235E0
3.869816563E0,2.706880569E-1,9.056833267E0,1.225723386E0
3.872194271E0,2.300100774E-1,8.987442017E0,1.156331539E0
3.874571980E0,1.941177398E-1,8.941978455E0,1.022034407E0
3.876950469E0,1.845464408E-1,8.891729355E0,9.502496719E-1
3.879328959E0,2.156531364E-1,8.870193481E0,9.047860503E-1
3.881706719E0,2.467598319E-1,8.879764557E0,8.808578253E-1
3.884084427E0,3.161516786E-1,8.846264839E0,8.952147961E-1
3.886462917E0,4.022932947E-1,8.853444099E0,9.287142754E-1
3.888841407E0,4.788636267E-1,8.834300995E0,1.043569803E0
3.891219167E0,5.769693851E-1,8.829515457E0,1.079761267E0
3.893596875E0,6.801598072E-1,8.834300995E0,1.156331539E0
3.895975365E0,7.998009920E-1,8.872586250E0,1.185045362E0
3.898353855E0,9.122636318E-1,8.903693199E0,1.220937729E0
3.900731615E0,1.039083242E0,8.941978455E0,1.261615753E0
3.903109323E0,1.153938770E0,8.975478172E0,1.311864972E0
3.905487813E0,1.257129192E0,9.020941734E0,1.359721422E0
3.907866302E0,1.364806175E0,9.085547447E0,1.398006678E0
3.910244063E0,1.450947881E0,9.135796547E0,1.407577872E0
3.912621771E0,1.529910922E0,9.164510727E0,1.409970760E0
3.915000261E0,1.589731574E0,9.195617676E0,1.409970760E0
3.917378750E0,1.649552107E0,9.231808662E0,1.433898926E0
3.919756511E0,1.690230131E0,9.265308380E0,1.402792215E0
3.922134219E0,1.692622900E0,9.248558998E0,1.331007600E0
3.924512709E0,1.673480392E0,9.234201431E0,1.278365493E0
3.926891198E0,1.635195136E0,9.234201431E0,1.259222865E0
3.929268959E0,1.618445396E0,9.198010445E0,1.297508121E0
3.931646667E0,1.616052628E0,9.207581520E0,1.362114310E0
3.934025157E0,1.623231053E0,9.217452049E0,1.393221021E0
3.936403646E0,1.584945917E0,9.267701149E0,1.438684583E0
3.938781407E0,1.546660781E0,9.291629791E0,1.455434322E0
3.941159115E0,1.537089467E0,9.339486122E0,1.479362607E0
3.943537605E0,1.510768414E0,9.368199348E0,1.486541033E0
3.945916094E0,1.508375525E0,9.408877373E0,1.505683661E0
3.948293855E0,1.479661703E0,9.466305733E0,1.517647743E0
3.950671563E0,1.486840129E0,9.475876808E0,1.548754454E0
3.953050052E0,1.489233017E0,9.502198219E0,1.500898004E0
3.955428542E0,1.489233017E0,9.559625626E0,1.508076429E0
3.957806302E0,1.477268934E0,9.614660263E0,1.472184181E0
3.960184011E0,1.424626827E0,9.643374443E0,1.455434322E0
3.962562500E0,1.410269856E0,9.719944954E0,1.412363529E0
3.964940990E0,1.398305774E0,9.712766647E0,1.366899967E0
3.967318750E0,1.331306696E0,9.765408516E0,1.371685624E0
3.969696459E0,1.273878932E0,9.789635658E0,1.369292736E0
3.972074948E0,1.214058399E0,9.770194054E0,1.335793257E0
3.974453438E0,1.125224829E0,9.760622978E0,1.333400369E0
3.976831198E0,1.084546804E0,9.729516029E0,1.345364571E0
3.979208907E0,1.027119160E0,9.719944954E0,1.369292736E0
3.981587396E0,1.024726272E0,9.719944954E0,1.400399446E0
3.983965886E0,1.010369420E0,9.660123825E0,1.465005636E0
3.986343646E0,1.017547846E0,9.638588905E0,1.543968797E0
3.988721355E0,1.072582722E0,9.631410599E0,1.628016710E0
3.991099844E0,1.106082320E0,9.612267494E0,1.704586983E0
3.993478334E0,1.163509965E0,9.585947037E0,1.766800404E0
3.995856094E0,1.190130115E0,9.585947037E0,1.809871197E0
3.998233802E0,1.228415370E0,9.569196701E0,1.898405671E0
4.000612292E0,1.290628672E0,9.547661781E0,1.982154489E0
4.002990782E0,1.355234981E0,9.557232857E0,2.030010939E0
4.005368542E0,1.412662625E0,9.585947037E0,2.018046856E0
4.007746250E0,1.436590910E0,9.581160545E0,1.989332914E0
4.010124740E0,1.398305774E0,9.576375008E0,1.982154489E0
4.012503230E0,1.264307618E0,9.569196701E0,1.989332914E0
4.014880990E0,1.096511006E0,9.554840088E0,1.872084618E0
4.017258698E0,9.840483069E-1,9.545269012E0,1.776371717E0
4.019637188E0,8.883354068E-1,9.578767776E0,1.654337764E0
4.022015677E0,8.476574421E-1,9.619445801E0,1.558325768E0
4.024393438E0,8.500502706E-1,9.669695854E0,1.488933921E0
4.026771146E0,8.404789567E-1,9.719944954E0,1.395613790E0
4.029149636E0,8.452646136E-1,9.808777809E0,1.283151150E0
4.031528125E0,1.067797065E0,9.933204651E0,1.060618639E0
4.033905886E0,1.264307618E0,1.004566765E1,7.540382147E-1
4.036283594E0,1.553839207E0,1.017009449E1,5.793621540E-1
4.038662084E0,1.812563181E0,1.033041382E1,5.889334679E-1
4.041040573E0,1.980060697E0,1.050299549E1,6.798607111E-1
4.043418334E0,1.972882271E0,1.060588741E1,9.669994712E-1
4.045796042E0,1.829312921E0,1.069442177E1,1.352542996E0
4.048174532E0,1.601695657E0,1.073988533E1,1.723729610E0
4.050553021E0,1.405484200E0,1.075902748E1,1.970190287E0
4.052930782E0,1.302592874E0,1.071117115E1,1.986940145E0
4.055308490E0,1.240379453E0,1.065852928E1,1.888834357E0
4.057686980E0,1.290628672E0,1.057238770E1,1.759621978E0
4.060065573E0,1.412662625E0,1.046471119E1,1.678265929E0
4.062443855E0,1.596910000E0,1.044078255E1,1.448255897E0
4.064821511E0,1.769492388E0,1.034746265E1,1.398006678E0
4.067199427E0,1.858026743E0,1.025623608E1,1.503290772E0
4.069577917E0,1.944168448E0,1.021077251E1,1.680658817E0
4.071955677E0,1.989632010E0,1.021077251E1,1.730908036E0
4.074333386E0,2.039881229E0,1.019880867E1,1.752443433E0
4.076711875E0,1.970489502E0,1.016291618E1,1.857727647E0
4.079090365E0,1.936989903E0,1.011984539E1,1.879263043E0
4.081468125E0,1.860419631E0,1.013420200E1,1.800299883E0
4.083845834E0,1.779063582E0,1.014855862E1,1.697408557E0
4.086224323E0,1.704586983E0,1.017727280E1,1.555932879E0
4.088602813E0,1.642373681E0,1.020837975E1,1.426720500E0
4.090980573E0,1.592124343E0,1.023230743E1,1.350150228E0
4.093358282E0,1.565803289E0,1.021077251E1,1.287936807E0
4.095736771E0,1.556231976E0,1.016052341E1,1.345364571E0
4.098115261E0,1.558624864E0,1.009113121E1,1.445863128E0
4.100493021E0,1.525125384E0,9.921240807E0,1.539183140E0
4.102870730E0,1.534696579E0,9.942776680E0,1.340578914E0
4.105249219E0,1.534696579E0,9.887741089E0,1.290329576E0
4.107627709E0,1.496411443E0,9.837491989E0,1.333400369E0
4.110005469E0,1.410269856E0,9.772586823E0,1.405185103E0
4.112383177E0,1.379163146E0,9.770194054E0,1.472184181E0
4.114761667E0,1.400698543E0,9.755837440E0,1.520040631E0
4.117140157E0,1.391127229E0,9.739087105E0,1.599003673E0
4.119517917E0,1.386341572E0,9.715159416E0,1.606182218E0
4.121895625E0,1.403091431E0,9.693623543E0,1.589432478E0
4.124274115E0,1.369591832E0,9.662516594E0,1.639980793E0
4.126652605E0,1.319342613E0,9.650552750E0,1.678265929E0
4.129030365E0,1.304985642E0,9.636196136E0,1.706979871E0
4.131408073E0,1.290628672E0,9.664909363E0,1.697408557E0
4.133786563E0,1.252343535E0,9.640981674E0,1.661516190E0
4.136165052E0,1.216451168E0,9.640981674E0,1.661516190E0
4.138542813E0,1.257129192E0,9.626625061E0,1.733300924E0
4.140920521E0,1.266700506E0,9.559625626E0,1.812264085E0
4.143299011E0,1.264307618E0,9.466305733E0,1.974975944E0
4.145677500E0,1.269093275E0,9.320343018E0,1.963011861E0
4.148055261E0,1.276271820E0,9.195617676E0,2.001296997E0
4.150432969E0,1.288235903E0,9.042476654E0,2.015654087E0
4.152811459E0,1.269093275E0,8.932407379E0,2.022832394E0
4.155189948E0,1.269093275E0,8.776873589E0,2.049153566E0
4.157567709E0,1.281057477E0,8.642576218E0,2.207378864E0
4.159945417E0,1.312164068E0,8.465507507E0,2.298306227E0
4.162323907E0,1.281057477E0,8.314759254E0,2.343769789E0
4.164702396E0,1.281057477E0,8.168797493E0,2.298306227E0
4.167080157E0,1.328913927E0,8.041678429E0,2.281556368E0
4.169457865E0,1.340878010E0,7.965108395E0,2.346162558E0
4.171836355E0,1.405484200E0,7.948358536E0,2.415554523E0
4.174214844E0,1.565803289E0,8.041678429E0,2.353341103E0
4.176592605E0,1.915454507E0,7.938787460E0,1.647159338E0
4.178970313E0,2.027917147E0,8.003393173E0,1.479362607E0
4.181348802E0,2.068595171E0,8.221439362E0,1.831406593E0
4.183727292E0,2.099701881E0,8.479864120E0,2.171187401E0
4.186105052E0,2.164308071E0,8.654839516E0,1.989332914E0
4.188482761E0,2.099701881E0,8.743373871E0,1.596610904E0
4.190861250E0,2.063809633E0,8.867800713E0,1.534397483E0
4.193239740E0,2.020738840E0,8.977870941E0,1.417149186E0
4.195617500E0,1.941775560E0,9.078369141E0,1.541576028E0
4.197995209E0,1.872383714E0,9.126225471E0,1.635195136E0
4.200373750E0,1.829312921E0,9.121439934E0,1.793121457E0
4.202752240E0,1.762313843E0,9.351449966E0,1.884048700E0
4.205129948E0,1.596910000E0,9.361021042E0,1.958226204E0
4.207507657E0,1.379163146E0,9.217452049E0,1.797907114E0
4.209886146E0,1.206879973E0,9.095118523E0,1.769193292E0
4.212264636E0,1.041476011E0,8.985049248E0,1.812264085E0
4.214642396E0,9.242277741E-1,8.903693199E0,1.874477386E0
4.217020105E0,8.261220455E-1,8.853444099E0,1.893620014E0
4.219398646E0,7.902296782E-1,8.829515457E0,1.850549221E0
4.221777136E0,7.567301393E-1,8.851051331E0,1.809871197E0
4.224154844E0,7.375875711E-1,8.879764557E0,1.781157374E0
4.226532552E0,8.333004713E-1,8.937192917E0,1.699801445E0
4.228911094E0,8.763712645E-1,9.030512810E0,1.683051586E0
4.231289584E0,9.290133715E-1,9.107083321E0,1.644766450E0
4.233667292E0,9.864411354E-1,9.358628273E0,1.994118571E0
4.236045000E0,1.048654556E0,9.432806015E0,2.544766903E0
4.238423542E0,9.146564603E-1,9.305986404E0,1.714158297E0
4.240802032E0,7.040880919E-1,9.215059280E0,1.474576950E0
4.243179740E0,6.634100676E-1,9.150154114E0,1.529611826E0
4.245557448E0,6.969096065E-1,9.128618240E0,1.599003673E0
4.247935990E0,7.471588850E-1,9.078369141E0,1.610967875E0
4.250314480E0,8.524430394E-1,9.020941734E0,1.659123421E0
4.252692188E0,9.457631707E-1,8.930013657E0,1.699801445E0
4.255069896E0,1.012762189E0,8.874979019E0,1.661516190E0
4.257448438E0,1.146760225E0,8.798408508E0,1.630409479E0
4.259826927E0,1.211665511E0,8.736195564E0,1.699801445E0
4.262204636E0,1.211665511E0,8.633005142E0,1.730908036E0
4.264582344E0,1.240379453E0,8.609076500E0,1.738086581E0
4.266960886E0,1.209272742E0,8.537292480E0,1.747657895E0
4.269339375E0,1.197308660E0,8.515756607E0,1.735693693E0
4.271717084E0,1.175474167E0,8.496614456E0,1.685444474E0
4.274094792E0,1.180558920E0,8.522934914E0,1.723729610E0
4.276473334E0,1.185344458E0,8.556434631E0,1.759621978E0
4.278851823E0,1.158724308E0,8.554041862E0,1.826620936E0
4.281229532E0,1.153938770E0,8.544470787E0,1.874477386E0
4.283607240E0,1.158724308E0,8.556434631E0,1.905584097E0
4.285985782E0,1.161117196E0,8.649754524E0,1.946262121E0
4.288364271E0,1.170688510E0,8.712266922E0,1.994118571E0
4.290742032E0,1.226022482E0,8.772088051E0,1.994118571E0
4.293119740E0,1.271486163E0,8.855836868E0,2.020439625E0
4.295498230E0,1.316949725E0,8.946763992E0,2.027618170E0
4.297876719E0,1.281057477E0,9.006584167E0,2.070688963E0
4.300254480E0,1.269093275E0,9.052047729E0,2.022832394E0
4.302632188E0,1.288235903E0,9.111868858E0,1.998904228E0
4.305010677E0,1.281057477E0,9.142974854E0,2.006082773E0
4.307389167E0,1.293021560E0,9.154939651E0,1.982154489E0
4.309766927E0,1.321735382E0,9.152546883E0,2.013261080E0
4.312144636E0,1.343270779E0,9.109476089E0,2.065903187E0
4.314523125E0,1.352842093E0,9.047262192E0,2.118545294E0
4.316901615E0,1.369591832E0,8.980263710E0,2.171187401E0
4.319279375E0,1.331306696E0,8.896514893E0,2.195414782E0
4.321657084E0,1.288235903E0,8.817551613E0,2.161616087E0
4.324035573E0,1.278664589E0,8.733802795E0,2.147259235E0
4.326414063E0,1.245165110E0,8.673981667E0,2.180758715E0
4.328791823E0,1.245165110E0,8.585148811E0,2.164009094E0
4.331169532E0,1.221236825E0,8.503792763E0,2.140080690E0
4.333548021E0,1.228415370E0,8.424829483E0,2.116152525E0
4.335926511E0,1.247557878E0,8.369794846E0,2.111366987E0
4.338304271E0,1.245165110E0,8.336295128E0,2.073081732E0
4.340681980E0,1.237986565E0,8.317152023E0,2.094617128E0
4.343060469E0,1.206879973E0,8.262117386E0,2.111366987E0
4.345438959E0,1.197308660E0,8.211868286E0,2.087438583E0
4.347816719E0,1.177866936E0,8.180761337E0,2.001296997E0
4.350194427E0,1.182951689E0,8.156833649E0,1.860120535E0
4.352572917E0,1.261914849E0,8.180761337E0,1.797907114E0
4.354951407E0,1.245165110E0,8.257331848E0,1.764407635E0
4.357329167E0,1.223629713E0,8.283653259E0,1.800299883E0
4.359706980E0,1.180558920E0,8.309973717E0,1.840977907E0
4.362085261E0,1.103689432E0,8.338687897E0,1.903191328E0
4.364463646E0,1.079761267E0,8.331509590E0,1.958226204E0
4.366841615E0,1.039083242E0,8.386544228E0,1.886441588E0
4.369219323E0,1.034297585E0,8.424829483E0,1.857727647E0
4.371597813E0,1.024726272E0,8.496614456E0,1.795514345E0
4.373976302E0,1.058225870E0,8.546863556E0,1.764407635E0
4.376354063E0,1.106082320E0,8.570791245E0,1.757229090E0
4.378731771E0,1.127617717E0,8.642576218E0,1.745265007E0
4.381110261E0,1.161117196E0,8.690732002E0,1.752443433E0
4.383488750E0,1.168295622E0,8.721838951E0,1.738086581E0
4.385866511E0,1.182951689E0,8.757730484E0,1.716551185E0
4.388244219E0,1.177866936E0,8.788837433E0,1.697408557E0
4.390622709E0,1.192523003E0,8.800801277E0,1.687837243E0
4.393001198E0,1.216451168E0,8.803194046E0,1.654337764E0
4.395378959E0,1.249950767E0,8.810373306E0,1.632802367E0
4.397756667E0,1.288235903E0,8.781659126E0,1.647159338E0
4.400135157E0,1.307378531E0,8.815158844E0,1.642373681E0
4.402513646E0,1.321735382E0,8.829515457E0,1.639980793E0
4.404891407E0,1.324128270E0,8.791230202E0,1.635195136E0
4.407269115E0,1.314556956E0,8.767302513E0,1.628016710E0
4.409647605E0,1.302592874E0,8.762516975E0,1.589432478E0
4.412026094E0,1.285843015E0,8.731410027E0,1.572682738E0
4.414403855E0,1.259521961E0,8.695517540E0,1.551147223E0
4.416781563E0,1.245165110E0,8.700303078E0,1.555932879E0
4.419160052E0,1.218844056E0,8.662017822E0,1.553540111E0
4.421538542E0,1.214058399E0,8.644968987E0,1.570289850E0
4.423916302E0,1.192523003E0,8.618648529E0,1.610967875E0
4.426294011E0,1.108475089E0,8.563612938E0,1.644766450E0
4.428672552E0,1.046261668E0,8.487042427E0,1.697408557E0
4.431051042E0,9.696913958E-1,8.453543663E0,1.769193292E0
4.433428750E0,8.811569214E-1,8.367402077E0,1.848156333E0
4.435806459E0,8.021938205E-1,8.345866203E0,1.876870275E0
4.438185000E0,7.471588850E-1,8.333902359E0,1.876870275E0
4.440563490E0,7.040880919E-1,8.319544792E0,1.862513304E0
4.442941198E0,6.299105883E-1,8.326724052E0,1.874477386E0
4.445318907E0,5.937191248E-1,8.355437279E0,1.867298961E0
4.447697448E0,5.602195859E-1,8.376973152E0,1.860120535E0
4.450075938E0,5.362913609E-1,8.420043945E0,1.867298961E0
4.452453646E0,5.171487927E-1,8.465507507E0,1.922333837E0
4.454831355E0,5.075774789E-1,8.489435196E0,1.984547257E0
4.457209896E0,5.195416212E-1,8.539685249E0,2.022832394E0
4.459588386E0,5.075774789E-1,8.592327118E0,2.065903187E0
4.461966094E0,5.027918816E-1,8.621041298E0,2.070688963E0
4.464343802E0,5.315057039E-1,8.690732002E0,2.092224360E0
4.466722344E0,5.578267574E-1,8.731410027E0,2.065903187E0
4.469100834E0,6.152545214E-1,8.805587769E0,2.041975021E0
4.471478594E0,6.801598072E-1,8.858229637E0,2.030010939E0
4.473856302E0,7.878368497E-1,8.884550095E0,2.020439625E0
4.476234792E0,8.739784956E-1,8.894122124E0,2.001296997E0
4.478613282E0,9.529415965E-1,8.891729355E0,1.984547257E0
4.480991042E0,1.043868899E0,8.870193481E0,1.967797518E0
4.483368750E0,1.151545882E0,8.834300995E0,1.931905150E0
4.485747240E0,1.216451168E0,8.784051895E0,1.934298038E0
4.488125730E0,1.333699465E0,8.733802795E0,1.912762642E0
4.490503490E0,1.412662625E0,8.707481384E0,1.903191328E0
4.492881198E0,1.467697620E0,8.681160927E0,1.886441588E0
4.495259688E0,1.486840129E0,8.633005142E0,1.843370795E0
4.497638177E0,1.520339727E0,8.599505424E0,1.838585138E0
4.500015938E0,1.498804331E0,8.544470787E0,1.898405671E0
4.502393646E0,1.446162224E0,8.424829483E0,2.080260277E0
4.504772136E0,1.369591832E0,8.219046593E0,2.571087837E0
4.507150625E0,1.570588946E0,8.250153542E0,2.343769789E0
4.509528386E0,1.651944876E0,8.276473999E0,1.692622900E0
4.511906094E0,1.558624864E0,8.199904442E0,1.378864050E0
4.514284584E0,1.427019596E0,8.084749222E0,1.508076429E0
4.516663073E0,1.400698543E0,8.101798058E0,1.695015788E0
4.519040834E0,1.357627749E0,8.171190262E0,1.884048700E0
4.521418542E0,1.352842093E0,8.242975235E0,2.037189484E0
4.523797032E0,1.369591832E0,8.314759254E0,2.085045815E0
4.526175521E0,1.340878010E0,8.386544228E0,1.998904228E0
4.528553282E0,1.293021560E0,8.448758125E0,1.929512382E0
4.530930990E0,1.211665511E0,8.496614456E0,1.876870275E0
4.533309480E0,1.214058399E0,8.585148811E0,1.843370795E0
4.535687969E0,1.192523003E0,8.726624489E0,1.783550143E0
4.538065730E0,1.146760225E0,8.841479301E0,1.809871197E0
4.540443438E0,1.096511006E0,8.930013657E0,1.907976985E0
4.542821927E0,1.067797065E0,8.997013092E0,1.979761600E0
4.545200417E0,1.065404296E0,9.114261627E0,1.998904228E0
4.547578177E0,1.027119160E0,9.181260109E0,2.018046856E0
4.549955886E0,1.022333503E0,9.260522842E0,2.037189484E0
4.552334427E0,9.816554785E-1,9.284450531E0,2.106581211E0
4.554712917E0,9.672985673E-1,9.353842735E0,2.147259235E0
4.557090625E0,9.696913958E-1,9.358628273E0,2.140080690E0
4.559468334E0,9.864411354E-1,9.339486122E0,2.166401863E0
4.561846875E0,1.034297585E0,9.337093353E0,2.180758715E0
4.564225365E0,1.077368379E0,9.370592117E0,2.219342947E0
4.566603073E0,1.096511006E0,9.337093353E0,2.329412937E0
4.568980782E0,1.072582722E0,9.327521324E0,2.348555326E0
4.571359323E0,1.079761267E0,9.329915047E0,2.341377020E0
4.573737813E0,1.098903775E0,9.303593636E0,2.348555326E0
4.576115521E0,1.146760225E0,9.313164711E0,2.307877541E0
4.578493230E0,1.242772222E0,9.349057198E0,2.279163599E0
4.580871771E0,1.300199986E0,9.325128555E0,2.372483730E0
4.583250261E0,1.288235903E0,9.289237022E0,2.386840582E0
4.585627969E0,1.300199986E0,9.212666512E0,2.317448616E0
4.588005677E0,1.257129192E0,9.202795982E0,2.303091764E0
4.590384219E0,1.288235903E0,9.198010445E0,2.300698996E0
4.592762709E0,1.369591832E0,9.231808662E0,2.350948334E0
4.595140417E0,1.450947881E0,9.260522842E0,2.415554523E0
4.597518125E0,1.525125384E0,9.298808098E0,2.451446772E0
4.599896667E0,1.608874083E0,9.301200867E0,2.492124796E0
4.602275157E0,1.673480392E0,9.296415329E0,2.492124796E0
4.604652917E0,1.733300924E0,9.317950249E0,2.472982168E0
4.607030625E0,1.755135417E0,9.289237022E0,2.494517565E0
4.609409115E0,1.795813441E0,9.282057762E0,2.504088879E0
4.611787605E0,1.922633052E0,9.325128555E0,2.549552441E0
4.614165365E0,1.891526341E0,9.411270142E0,2.528017044E0
4.616543073E0,1.896311998E0,9.497411728E0,2.427518606E0
4.618921563E0,1.915454507E0,9.624231339E0,2.156830549E0
4.621300052E0,1.934597135E0,9.763015747E0,1.948654890E0
4.623677813E0,1.963310957E0,9.897313118E0,1.824228168E0
4.626055521E0,1.987239242E0,1.003848934E1,1.819442511E0
4.628434011E0,1.999203324E0,1.012702370E1,1.860120535E0
4.630812500E0,2.059023857E0,1.024905777E1,1.862513304E0
4.633190261E0,2.078166485E0,1.037139034E1,1.838585138E0
4.635567969E0,2.063809633E0,1.050778198E1,1.809871197E0
4.637946459E0,2.035095692E0,1.063699436E1,1.845763564E0
4.640324948E0,2.003988981E0,1.077577782E1,1.915155411E0
4.642702709E0,2.037488461E0,1.096510983E1,1.922333837E0
4.645080417E0,1.982453585E0,1.112064362E1,1.941476464E0
4.647458907E0,1.939382792E0,1.129053402E1,1.946262121E0
4.649837396E0,1.869990945E0,1.142213917E1,1.979761600E0
4.652215157E0,1.812563181E0,1.147747326E1,2.070688963E0
4.654592865E0,1.800599098E0,1.152772236E1,2.142473459E0
4.656971355E0,1.795813441E0,1.153490067E1,2.099402666E0
4.659349844E0,1.743171334E0,1.152532959E1,2.118545294E0
4.661727605E0,1.695015788E0,1.149661541E1,2.178365946E0
4.664105313E0,1.663909078E0,1.142931747E1,2.202593327E0
4.666483855E0,1.647159338E0,1.140060329E1,2.212164640E0
4.668862344E0,1.637588024E0,1.134317589E1,2.228914261E0
4.671240052E0,1.604088426E0,1.124985600E1,2.303091764E0
4.673617761E0,1.644766450E0,1.118046379E1,2.305484533E0
4.675996302E0,1.695015788E0,1.115414238E1,2.231307030E0
4.678374792E0,1.721336842E0,1.110389328E1,2.228914261E0
4.680752500E0,1.747956991E0,1.106321526E1,2.391626120E0
4.683130209E0,1.723729610E0,1.105364418E1,2.470589399E0
4.685508750E0,1.735693693E0,1.101057339E1,2.432304144E0
4.687887240E0,1.687837243E0,1.101535892E1,2.327019930E0
4.690264948E0,1.709372640E0,1.103928757E1,2.164009094E0
4.692642657E0,1.735693693E0,1.109910774E1,2.099402666E0
4.695021198E0,1.730908036E0,1.117567825E1,2.030010939E0
4.697399688E0,1.711765528E0,1.119242764E1,1.905584097E0
4.699777396E0,1.687837243E0,1.120678520E1,1.886441588E0
4.702155105E0,1.654337764E0,1.119960594E1,1.907976985E0
4.704533646E0,1.649552107E0,1.121874905E1,1.955833435E0
4.706912136E0,1.635195136E0,1.121874905E1,2.022832394E0
4.709289896E0,1.525125384E0,1.115414238E1,2.355733871E0
4.711667605E0,1.541875124E0,1.115174961E1,2.291127682E0
4.714046094E0,1.678265929E0,1.130249786E1,1.869691849E0
4.716424584E0,1.671087503E0,1.146311569E1,1.817049742E0
4.718802344E0,1.584945917E0,1.155165005E1,1.927119493E0
4.721180052E0,1.472483277E0,1.159232807E1,2.013261080E0
4.723558542E0,1.369591832E0,1.166172028E1,2.015654087E0
4.725937032E0,1.278664589E0,1.168564892E1,2.022832394E0
4.728314792E0,1.237986565E0,1.173111248E1,2.046760559E0
4.730692500E0,1.161117196E0,1.172632694E1,2.089831591E0
4.733070990E0,1.120439172E0,1.170957661E1,2.106581211E0
4.735449480E0,1.074975610E0,1.169043446E1,2.128116608E0
4.737827240E0,1.031904817E0,1.164018440E1,2.173580170E0
4.740204948E0,1.048654556E0,1.154925728E1,2.219342947E0
4.742583438E0,9.409775138E-1,1.146550846E1,2.394019127E0
4.744961927E0,9.026923180E-1,1.129531956E1,2.408375978E0
4.747339688E0,9.050851464E-1,1.122592735E1,2.384447813E0
4.749717396E0,8.739784956E-1,1.113978577E1,2.298306227E0
4.752095886E0,9.194421172E-1,1.110628605E1,2.200200319E0
4.754474375E0,9.361918569E-1,1.110150051E1,2.140080690E0
4.756852136E0,9.816554785E-1,1.111585712E1,2.104188442E0
4.759229844E0,1.017547846E0,1.109671497E1,2.159223318E0
4.761608334E0,1.036690354E0,1.111825085E1,2.243271112E0
4.763986823E0,1.024726272E0,1.109432220E1,2.298306227E0
4.766364584E0,1.046261668E0,1.109671497E1,2.298306227E0
4.768742292E0,1.055832982E0,1.109432220E1,2.231307030E0
4.771120782E0,1.065404296E0,1.114935684E1,2.166401863E0
4.773499271E0,1.034297585E0,1.114935684E1,2.140080690E0
4.775877032E0,1.039083242E0,1.115653515E1,2.128116608E0
4.778254740E0,1.029511929E0,1.117328548E1,2.173580170E0
4.780633282E0,1.036690354E0,1.114457130E1,2.175973177E0
4.783011771E0,1.039083242E0,1.109671497E1,2.193022013E0
4.785389480E0,1.058225870E0,1.109671497E1,2.245664120E0
4.787767188E0,1.058225870E0,1.109671497E1,2.269592285E0
4.790145730E0,9.912267923E-1,1.105364418E1,2.511267424E0
4.792524219E0,1.041476011E0,1.105603695E1,2.590230465E0
4.794901927E0,1.110867858E0,1.111825085E1,2.226521492E0
4.797279636E0,1.051047325E0,1.113500023E1,1.953440547E0
4.799658177E0,9.936196208E-1,1.117089272E1,1.948654890E0
4.802036667E0,9.744769931E-1,1.124507046E1,2.034796476E0
4.804414427E0,9.720842242E-1,1.132881927E1,2.041975021E0
4.806792136E0,9.840483069E-1,1.144367409E1,2.051546335E0
4.809170625E0,9.696913958E-1,1.150618649E1,2.108973980E0
4.811549115E0,9.696913958E-1,1.158993530E1,2.111366987E0
4.813926875E0,9.864411354E-1,1.169761276E1,2.008475542E0
4.816304584E0,9.888339639E-1,1.172632694E1,2.008475542E0
4.818683073E0,9.529415965E-1,1.177896881E1,2.053939104E0
4.821061563E0,9.768698215E-1,1.179093266E1,2.041975021E0
4.823439323E0,9.960124493E-1,1.178853989E1,1.974975944E0
4.825817032E0,9.672985673E-1,1.180528927E1,2.051546335E0
4.828195521E0,9.672985673E-1,1.183639622E1,2.092224360E0
4.830574011E0,9.098708034E-1,1.185314560E1,2.097009897E0
4.832951771E0,8.907282352E-1,1.181964684E1,2.128116608E0
4.835329480E0,8.596215248E-1,1.180768204E1,2.077867270E0
4.837707969E0,8.476574421E-1,1.179811096E1,2.058724880E0
4.840086459E0,8.333004713E-1,1.173111248E1,2.056331873E0
4.842464219E0,8.500502706E-1,1.167129135E1,2.120938063E0
4.844841927E0,8.763712645E-1,1.160907841E1,2.204986095E0
4.847220417E0,8.859425783E-1,1.150857925E1,2.188236237E0
4.849598907E0,8.739784956E-1,1.145833015E1,2.118545294E0
4.851976667E0,8.476574421E-1,1.140060329E1,2.097009897E0
4.854354375E0,7.974081635E-1,1.133360481E1,2.152044773E0
4.856732865E0,7.567301393E-1,1.126899815E1,2.173580170E0
4.859111355E0,7.447660565E-1,1.125942707E1,2.202593327E0
4.861489115E0,7.423732281E-1,1.126899815E1,2.216950178E0
4.863866823E0,7.639086246E-1,1.124746323E1,2.202593327E0
4.866245365E0,7.423732281E-1,1.123310566E1,2.226521492E0
4.868623855E0,7.399803996E-1,1.115892887E1,2.295913219E0
4.871001563E0,7.806583643E-1,1.110150051E1,2.336591244E0
4.873379271E0,7.926225066E-1,1.098903847E1,2.358126640E0
4.875757813E0,8.333004713E-1,1.089571762E1,2.341377020E0
4.878136302E0,8.883354068E-1,1.077577782E1,2.293520451E0
4.880514011E0,9.194421172E-1,1.073509979E1,2.281556368E0
4.882891719E0,9.481559992E-1,1.065852928E1,2.319841623E0
4.885270261E0,9.672985673E-1,1.057717323E1,2.334198475E0
4.887648750E0,9.912267923E-1,1.051256752E1,2.360519648E0
4.890026459E0,1.015154958E0,1.050299549E1,2.413161755E0
4.892404167E0,1.012762189E0,1.045753193E1,2.389233351E0
4.894782709E0,1.027119160E0,1.042164040E1,2.367697954E0
4.897161198E0,1.010369420E0,1.037617588E1,2.329412937E0
4.899538959E0,1.039083242E0,1.035703373E1,2.291127682E0
4.901916667E0,1.039083242E0,1.032084274E1,2.228914261E0
4.904295157E0,1.046261668E0,1.028495026E1,2.260020971E0
4.906673646E0,1.036690354E0,1.023709393E1,2.293520451E0
4.909051407E0,1.031904817E0,1.017727280E1,2.291127682E0
4.911429115E0,1.015154958E0,1.013180923E1,2.305484533E0
4.913807605E0,1.005583763E0,1.007438183E1,2.348555326E0
4.916186094E0,1.027119160E0,1.000020409E1,2.389233351E0
4.918563855E0,1.017547846E0,9.933204651E0,2.432304144E0
4.920941563E0,1.041476011E0,9.906884193E0,2.494517565E0
4.923320052E0,1.051047325E0,9.863813400E0,2.520838737E0
4.925698542E0,1.067797065E0,9.815957069E0,2.544766903E0
4.928076302E0,1.094118118E0,9.780064583E0,2.571087837E0
4.930454011E0,1.103689432E0,9.763015747E0,2.580659151E0
4.932832500E0,1.110867858E0,9.727123260E0,2.544766903E0
4.935210990E0,1.127617717E0,9.729516029E0,2.554338217E0
4.937588750E0,1.130010486E0,9.715159416E0,2.573480844E0
4.939966459E0,1.139581800E0,9.731908798E0,2.580659151E0
4.942344948E0,1.130010486E0,9.724730492E0,2.609373093E0
4.944723438E0,1.137188911E0,9.715159416E0,2.640479803E0
4.947101198E0,1.173081279E0,9.739087105E0,2.635694027E0
4.949478907E0,1.132403374E0,9.765408516E0,2.606980324E0
4.951857396E0,1.149153113E0,9.758230209E0,2.647658348E0
4.954235886E0,1.158724308E0,9.739087105E0,2.659622431E0
4.956613646E0,1.170688510E0,9.707980156E0,2.614158630E0
4.958991355E0,1.199701428E0,9.660123825E0,2.602194548E0
4.961369896E0,1.199701428E0,9.614660263E0,2.614158630E0
4.963748386E0,1.204487085E0,9.595518112E0,2.609373093E0
4.966126094E0,1.245165110E0,9.547661781E0,2.621337175E0
4.968503802E0,1.288235903E0,9.521340370E0,2.640479803E0
4.970882344E0,1.357627749E0,9.509376526E0,2.702693224E0
4.973260834E0,1.391127229E0,9.511769295E0,2.717050076E0
4.975638594E0,1.450947881E0,9.526125908E0,2.724228621E0
4.978016302E0,1.484447360E0,9.550054550E0,2.712264538E0
4.980394792E0,1.479661703E0,9.564411163E0,2.695514679E0
4.982773282E0,1.517946839E0,9.585947037E0,2.690729141E0
4.985151042E0,1.575374603E0,9.624231339E0,2.650051117E0
4.987528750E0,1.608874083E0,9.636196136E0,2.628515720E0
4.989907240E0,1.644766450E0,9.645767212E0,2.556730986E0
4.992285730E0,1.683051586E0,9.638588905E0,2.547159672E0
4.994663490E0,1.738086581E0,9.597910881E0,2.518445730E0
4.997041198E0,1.779063582E0,9.562018394E0,2.535195589E0
4.999419688E0,1.814955950E0,9.492626190E0,2.551945448E0
5.001798177E0,1.850848317E0,9.459127426E0,2.580659151E0
5.004175938E0,1.850848317E0,9.399306297E0,2.592623234E0
5.006553646E0,1.891526341E0,9.368199348E0,2.602194548E0
5.008932136E0,1.929811478E0,9.303593636E0,2.642872572E0
5.011310625E0,1.951346874E0,9.289237022E0,2.662015200E0
5.013688386E0,1.977667928E0,9.224630356E0,2.626122952E0
5.016066094E0,2.020738840E0,9.209974289E0,2.609373093E0
5.018444584E0,2.037488461E0,9.145368576E0,2.606980324E0
5.020823073E0,2.025524378E0,9.147761345E0,2.616551638E0
5.023200834E0,2.037488461E0,9.119047165E0,2.614158630E0
5.025578542E0,2.051845312E0,9.114261627E0,2.597409010E0
5.027957032E0,2.068595171E0,9.095118523E0,2.571087837E0
5.030335521E0,2.066202402E0,9.066405296E0,2.518445730E0
5.032713282E0,2.085345030E0,9.037691116E0,2.480160713E0
5.035090990E0,2.099701881E0,9.032905579E0,2.446661234E0
