Time (s),Acceleration x (m/s^2),Acceleration y (m/s^2),Acceleration z (m/s^2)
20.71,-1.33,9.73,0.64
20.71,-1.36,9.73,0.64
20.71,-1.34,9.73,0.64
20.72,-1.33,9.73,0.63
20.72,-1.33,9.72,0.62
20.72,-1.31,9.71,0.63
20.72,-1.32,9.72,0.60
20.72,-1.33,9.72,0.60
20.73,-1.32,9.72,0.61
20.73,-1.31,9.72,0.62
20.73,-1.32,9.71,0.62
20.73,-1.33,9.71,0.65
20.74,-1.32,9.70,0.65
20.74,-1.33,9.70,0.66
20.74,-1.33,9.70,0.66
20.74,-1.33,9.72,0.68
20.74,-1.31,9.73,0.69
20.75,-1.32,9.72,0.69
20.75,-1.33,9.72,0.71
20.75,-1.33,9.72,0.73
20.75,-1.30,9.74,0.73
20.76,-1.32,9.71,0.73
20.76,-1.31,9.71,0.74
20.76,-1.32,9.73,0.73
20.76,-1.31,9.73,0.73
20.77,-1.29,9.71,0.73
20.77,-1.31,9.71,0.71
20.77,-1.29,9.71,0.70
20.77,-1.30,9.72,0.70
20.77,-1.30,9.72,0.70
20.78,-1.28,9.70,0.69
20.78,-1.27,9.72,0.69
20.78,-1.27,9.73,0.69
20.78,-1.26,9.71,0.65
20.79,-1.27,9.72,0.67
20.79,-1.24,9.71,0.67
20.79,-1.25,9.72,0.68
20.79,-1.23,9.70,0.66
20.80,-1.20,9.69,0.67
20.80,-1.20,9.70,0.66
20.80,-1.20,9.68,0.66
20.80,-1.19,9.70,0.65
20.80,-1.19,9.69,0.68
20.81,-1.17,9.70,0.68
20.81,-1.17,9.70,0.68
20.81,-1.17,9.70,0.70
20.81,-1.17,9.70,0.70
20.82,-1.16,9.71,0.71
20.82,-1.17,9.73,0.72
20.82,-1.18,9.72,0.71
20.82,-1.20,9.74,0.70
20.83,-1.21,9.73,0.70
20.83,-1.21,9.75,0.69
20.83,-1.20,9.75,0.66
20.83,-1.21,9.76,0.66
20.83,-1.21,9.75,0.66
20.84,-1.21,9.75,0.65
20.84,-1.23,9.76,0.66
20.84,-1.23,9.75,0.68
20.84,-1.22,9.75,0.68
20.85,-1.20,9.73,0.68
20.85,-1.20,9.73,0.68
20.85,-1.21,9.72,0.68
20.85,-1.19,9.72,0.67
20.86,-1.19,9.73,0.69
20.86,-1.19,9.70,0.69
20.86,-1.18,9.71,0.69
20.86,-1.19,9.70,0.68
20.86,-1.19,9.71,0.69
20.87,-1.19,9.72,0.70
20.87,-1.19,9.71,0.69
20.87,-1.17,9.72,0.68
20.87,-1.19,9.72,0.68
20.88,-1.17,9.72,0.68
20.88,-1.17,9.72,0.70
20.88,-1.16,9.72,0.70
20.88,-1.16,9.71,0.72
20.89,-1.15,9.70,0.70
20.89,-1.15,9.68,0.71
20.89,-1.14,9.68,0.73
20.89,-1.13,9.69,0.72
20.89,-1.16,9.69,0.73
20.90,-1.16,9.69,0.71
20.90,-1.14,9.72,0.71
20.90,-1.15,9.73,0.71
20.90,-1.17,9.73,0.70
20.91,-1.15,9.74,0.67
20.91,-1.16,9.76,0.68
20.91,-1.17,9.78,0.68
20.91,-1.19,9.78,0.67
20.92,-1.19,9.79,0.69
20.92,-1.18,9.79,0.68
20.92,-1.21,9.79,0.69
20.92,-1.21,9.79,0.71
20.92,-1.20,9.79,0.66
20.93,-1.21,9.79,0.66
20.93,-1.21,9.78,0.65
20.93,-1.22,9.78,0.65
20.93,-1.21,9.77,0.62
20.94,-1.22,9.77,0.62
20.94,-1.23,9.77,0.61
20.94,-1.24,9.76,0.63
20.94,-1.23,9.76,0.62
20.94,-1.24,9.75,0.62
20.95,-1.23,9.75,0.62
20.95,-1.23,9.75,0.66
20.95,-1.22,9.73,0.65
20.95,-1.26,9.74,0.66
20.96,-1.25,9.74,0.65
20.96,-1.25,9.72,0.66
20.96,-1.24,9.74,0.66
20.96,-1.23,9.73,0.67
20.97,-1.23,9.71,0.65
20.97,-1.24,9.71,0.64
20.97,-1.24,9.72,0.65
20.97,-1.22,9.73,0.64
20.97,-1.22,9.74,0.65
20.98,-1.22,9.73,0.66
20.98,-1.21,9.75,0.67
20.98,-1.21,9.74,0.66
20.98,-1.19,9.73,0.67
20.99,-1.19,9.72,0.67
20.99,-1.22,9.73,0.69
20.99,-1.23,9.73,0.71
20.99,-1.24,9.75,0.72
21.00,-1.22,9.74,0.72
21.00,-1.22,9.76,0.74
21.00,-1.22,9.77,0.73
21.00,-1.23,9.77,0.73
21.00,-1.23,9.77,0.75
21.01,-1.27,9.77,0.73
21.01,-1.24,9.77,0.74
21.01,-1.24,9.77,0.74
21.01,-1.27,9.78,0.76
21.02,-1.26,9.77,0.75
21.02,-1.25,9.76,0.78
21.02,-1.24,9.75,0.78
21.02,-1.24,9.74,0.77
21.03,-1.26,9.75,0.77
21.03,-1.27,9.72,0.77
21.03,-1.26,9.71,0.78
21.03,-1.26,9.70,0.78
21.03,-1.27,9.71,0.78
21.04,-1.26,9.70,0.76
21.04,-1.27,9.68,0.76
21.04,-1.27,9.68,0.75
21.04,-1.30,9.67,0.73
21.05,-1.27,9.67,0.72
21.05,-1.27,9.65,0.71
21.05,-1.28,9.64,0.71
21.05,-1.28,9.65,0.69
21.06,-1.30,9.66,0.69
21.06,-1.30,9.67,0.70
21.06,-1.29,9.68,0.70
21.06,-1.28,9.70,0.71
21.06,-1.27,9.70,0.72
21.07,-1.27,9.69,0.72
21.07,-1.28,9.71,0.73
21.07,-1.28,9.71,0.74
21.07,-1.29,9.72,0.76
21.08,-1.28,9.73,0.76
21.08,-1.29,9.72,0.74
21.08,-1.30,9.74,0.75
21.08,-1.30,9.75,0.74
21.09,-1.30,9.73,0.74
21.09,-1.32,9.73,0.75
21.09,-1.35,9.73,0.75
21.09,-1.34,9.72,0.75
21.09,-1.35,9.73,0.76
21.10,-1.33,9.72,0.76
21.10,-1.35,9.73,0.76
21.10,-1.36,9.72,0.74
21.10,-1.35,9.70,0.76
21.11,-1.36,9.69,0.76
21.11,-1.33,9.67,0.75
21.11,-1.34,9.68,0.76
21.11,-1.32,9.69,0.75
21.12,-1.31,9.69,0.75
21.12,-1.31,9.68,0.74
21.12,-1.29,9.68,0.74
21.12,-1.28,9.69,0.73
21.12,-1.26,9.71,0.71
21.13,-1.24,9.71,0.69
21.13,-1.22,9.72,0.69
21.13,-1.20,9.75,0.69
21.13,-1.21,9.77,0.71
21.14,-1.20,9.76,0.73
21.14,-1.19,9.76,0.71
21.14,-1.19,9.74,0.73
21.14,-1.18,9.74,0.77
21.14,-1.19,9.76,0.77
21.15,-1.18,9.73,0.79
21.15,-1.20,9.73,0.80
21.15,-1.19,9.74,0.80
21.15,-1.21,9.73,0.81
21.16,-1.21,9.74,0.83
21.16,-1.21,9.74,0.82
21.16,-1.22,9.72,0.82
21.16,-1.23,9.73,0.81
21.17,-1.27,9.72,0.79
21.17,-1.26,9.70,0.80
21.17,-1.27,9.73,0.78
21.17,-1.28,9.70,0.78
21.17,-1.28,9.70,0.77
21.18,-1.26,9.70,0.76
21.18,-1.27,9.67,0.78
21.18,-1.28,9.67,0.77
21.18,-1.28,9.66,0.76
21.19,-1.26,9.65,0.78
21.19,-1.26,9.65,0.75
21.19,-1.26,9.68,0.76
21.19,-1.26,9.68,0.75
21.20,-1.25,9.69,0.74
21.20,-1.25,9.67,0.73
21.20,-1.26,9.70,0.73
21.20,-1.24,9.69,0.75
21.20,-1.23,9.70,0.74
21.21,-1.22,9.69,0.75
21.21,-1.21,9.71,0.76
21.21,-1.20,9.73,0.74
21.21,-1.23,9.73,0.76
21.22,-1.22,9.75,0.76
21.22,-1.22,9.74,0.79
21.22,-1.22,9.76,0.79
21.22,-1.21,9.78,0.82
21.23,-1.23,9.76,0.81
21.23,-1.23,9.77,0.81
21.23,-1.25,9.78,0.81
21.23,-1.23,9.77,0.80
21.23,-1.23,9.77,0.79
21.24,-1.24,9.76,0.79
21.24,-1.26,9.75,0.82
21.24,-1.27,9.74,0.80
21.24,-1.25,9.75,0.81
21.25,-1.25,9.74,0.79
21.25,-1.26,9.73,0.79
21.25,-1.27,9.74,0.77
21.25,-1.28,9.73,0.77
21.26,-1.29,9.74,0.77
21.26,-1.29,9.75,0.74
21.26,-1.28,9.74,0.76
21.26,-1.27,9.73,0.75
21.26,-1.27,9.73,0.75
21.27,-1.25,9.73,0.75
21.27,-1.25,9.71,0.76
21.27,-1.26,9.72,0.75
21.27,-1.24,9.71,0.77
21.28,-1.21,9.70,0.75
21.28,-1.19,9.69,0.76
21.28,-1.18,9.70,0.76
21.28,-1.18,9.68,0.75
21.29,-1.20,9.70,0.76
21.29,-1.19,9.72,0.75
21.29,-1.19,9.70,0.76
21.29,-1.18,9.74,0.75
21.29,-1.18,9.74,0.78
21.30,-1.17,9.75,0.77
21.30,-1.17,9.77,0.77
21.30,-1.19,9.75,0.79
21.30,-1.18,9.75,0.78
21.31,-1.19,9.76,0.79
21.31,-1.17,9.77,0.79
21.31,-1.19,9.77,0.81
21.31,-1.19,9.79,0.82
21.32,-1.20,9.77,0.81
21.32,-1.20,9.76,0.82
21.32,-1.20,9.77,0.84
21.32,-1.19,9.76,0.84
21.32,-1.19,9.76,0.86
21.33,-1.19,9.75,0.86
21.33,-1.19,9.76,0.87
21.33,-1.18,9.74,0.85
21.33,-1.17,9.75,0.85
21.34,-1.16,9.72,0.88
21.34,-1.16,9.71,0.87
21.34,-1.13,9.71,0.88
21.34,-1.13,9.71,0.88
21.34,-1.13,9.71,0.88
21.35,-1.12,9.70,0.88
21.35,-1.14,9.70,0.91
21.35,-1.13,9.70,0.90
21.35,-1.14,9.72,0.91
21.36,-1.15,9.70,0.92
21.36,-1.18,9.69,0.93
21.36,-1.18,9.70,0.93
21.36,-1.19,9.69,0.95
21.37,-1.19,9.67,0.93
21.37,-1.23,9.66,0.95
21.37,-1.23,9.66,0.95
21.37,-1.25,9.68,0.95
21.37,-1.25,9.70,0.93
21.38,-1.28,9.70,0.94
21.38,-1.28,9.69,0.95
21.38,-1.28,9.69,0.95
21.38,-1.33,9.70,0.96
21.39,-1.33,9.71,0.96
21.39,-1.33,9.72,0.93
21.39,-1.34,9.72,0.94
21.39,-1.35,9.73,0.91
21.40,-1.34,9.74,0.93
21.40,-1.37,9.75,0.93
21.40,-1.36,9.74,0.90
21.40,-1.36,9.73,0.91
21.40,-1.34,9.75,0.87
21.41,-1.34,9.71,0.87
21.41,-1.33,9.72,0.85
21.41,-1.32,9.70,0.85
21.41,-1.32,9.69,0.84
21.42,-1.33,9.70,0.84
21.42,-1.33,9.68,0.84
21.42,-1.33,9.67,0.83
21.42,-1.31,9.66,0.84
21.43,-1.31,9.66,0.85
21.43,-1.32,9.68,0.86
21.43,-1.32,9.67,0.86
21.43,-1.32,9.66,0.87
21.43,-1.32,9.68,0.88
21.44,-1.32,9.68,0.91
21.44,-1.33,9.68,0.91
21.44,-1.33,9.68,0.92
21.44,-1.34,9.69,0.91
21.45,-1.34,9.71,0.93
21.45,-1.36,9.71,0.92
21.45,-1.35,9.72,0.91
21.45,-1.38,9.73,0.90
21.46,-1.40,9.73,0.91
21.46,-1.41,9.73,0.90
21.46,-1.42,9.74,0.91
21.46,-1.42,9.75,0.90
21.46,-1.42,9.74,0.90
21.47,-1.41,9.75,0.88
21.47,-1.40,9.71,0.88
21.47,-1.41,9.72,0.90
21.47,-1.40,9.71,0.91
21.48,-1.39,9.69,0.91
21.48,-1.38,9.69,0.89
21.48,-1.36,9.69,0.90
21.48,-1.35,9.68,0.89
21.49,-1.33,9.68,0.87
21.49,-1.32,9.67,0.88
21.49,-1.30,9.67,0.88
21.49,-1.29,9.67,0.90
21.49,-1.29,9.68,0.89
21.50,-1.26,9.71,0.89
21.50,-1.24,9.70,0.87
21.50,-1.23,9.73,0.89
21.50,-1.20,9.74,0.89
21.51,-1.20,9.75,0.91
21.51,-1.22,9.77,0.91
21.51,-1.20,9.76,0.93
21.51,-1.19,9.78,0.91
21.52,-1.20,9.78,0.92
21.52,-1.19,9.77,0.91
21.52,-1.18,9.79,0.91
21.52,-1.18,9.78,0.87
21.52,-1.18,9.77,0.87
21.53,-1.19,9.75,0.87
21.53,-1.17,9.74,0.84
21.53,-1.18,9.73,0.84
21.53,-1.19,9.72,0.85
21.54,-1.20,9.72,0.84
21.54,-1.20,9.72,0.84
21.54,-1.19,9.72,0.86
21.54,-1.22,9.71,0.86
21.54,-1.24,9.71,0.84
21.55,-1.23,9.71,0.86
21.55,-1.24,9.70,0.86
21.55,-1.24,9.71,0.84
21.55,-1.23,9.71,0.85
21.56,-1.23,9.71,0.87
21.56,-1.23,9.71,0.88
21.56,-1.21,9.70,0.88
21.56,-1.23,9.72,0.88
21.57,-1.21,9.73,0.90
21.57,-1.20,9.71,0.89
21.57,-1.20,9.70,0.89
21.57,-1.19,9.71,0.90
21.57,-1.16,9.73,0.89
21.58,-1.18,9.72,0.91
21.58,-1.17,9.74,0.89
21.58,-1.17,9.73,0.91
21.58,-1.16,9.73,0.90
21.59,-1.17,9.74,0.90
21.59,-1.17,9.75,0.91
21.59,-1.19,9.74,0.89
21.59,-1.17,9.75,0.89
21.60,-1.16,9.75,0.86
21.60,-1.17,9.74,0.86
21.60,-1.20,9.74,0.85
21.60,-1.19,9.75,0.84
21.60,-1.19,9.74,0.83
21.61,-1.19,9.72,0.82
21.61,-1.20,9.72,0.84
21.61,-1.20,9.72,0.84
21.61,-1.19,9.72,0.83
21.62,-1.19,9.71,0.81
21.62,-1.20,9.71,0.83
21.62,-1.21,9.69,0.84
21.62,-1.20,9.69,0.84
21.63,-1.20,9.70,0.86
21.63,-1.21,9.70,0.85
21.63,-1.21,9.70,0.84
21.63,-1.22,9.69,0.85
21.63,-1.21,9.70,0.84
21.64,-1.20,9.70,0.83
21.64,-1.20,9.70,0.81
21.64,-1.19,9.71,0.84
21.64,-1.19,9.71,0.81
21.65,-1.17,9.73,0.83
21.65,-1.16,9.73,0.84
21.65,-1.18,9.73,0.84
21.65,-1.18,9.74,0.84
21.66,-1.19,9.75,0.86
21.66,-1.19,9.77,0.85
21.66,-1.19,9.76,0.85
21.66,-1.21,9.77,0.86
21.66,-1.22,9.79,0.87
21.67,-1.21,9.77,0.89
21.67,-1.22,9.77,0.89
21.67,-1.21,9.77,0.88
21.67,-1.23,9.76,0.88
21.68,-1.23,9.74,0.87
21.68,-1.23,9.76,0.85
21.68,-1.21,9.74,0.86
21.68,-1.22,9.72,0.87
21.69,-1.21,9.72,0.88
21.69,-1.22,9.71,0.89
21.69,-1.23,9.70,0.89
21.69,-1.22,9.70,0.91
21.69,-1.24,9.71,0.93
21.70,-1.23,9.68,0.95
21.70,-1.22,9.67,0.94
21.70,-1.23,9.67,0.92
21.70,-1.23,9.67,0.92
21.71,-1.22,9.68,0.91
21.71,-1.25,9.70,0.88
21.71,-1.23,9.69,0.86
21.71,-1.26,9.66,0.85
21.72,-1.24,9.72,0.85
21.72,-1.24,9.70,0.86
21.72,-1.24,9.70,0.84
21.72,-1.25,9.71,0.82
21.72,-1.25,9.70,0.82
21.73,-1.23,9.70,0.82
21.73,-1.23,9.70,0.82
21.73,-1.23,9.70,0.82
21.73,-1.25,9.69,0.84
21.74,-1.24,9.71,0.83
21.74,-1.25,9.71,0.82
21.74,-1.26,9.74,0.81
21.74,-1.25,9.72,0.80
21.74,-1.27,9.74,0.80
21.75,-1.25,9.73,0.79
21.75,-1.25,9.72,0.76
21.75,-1.26,9.71,0.74
21.75,-1.26,9.71,0.74
21.76,-1.23,9.73,0.72
21.76,-1.20,9.72,0.74
21.76,-1.19,9.73,0.73
21.76,-1.19,9.74,0.73
21.77,-1.17,9.74,0.72
21.77,-1.17,9.74,0.75
21.77,-1.13,9.75,0.74
21.77,-1.14,9.75,0.76
21.77,-1.12,9.77,0.80
21.78,-1.13,9.76,0.84
21.78,-1.12,9.76,0.85
21.78,-1.13,9.75,0.85
21.78,-1.14,9.74,0.89
21.79,-1.15,9.73,0.89
21.79,-1.17,9.72,0.90
21.79,-1.18,9.71,0.93
21.79,-1.19,9.69,0.92
21.80,-1.21,9.69,0.95
21.80,-1.23,9.67,0.96
21.80,-1.24,9.68,0.98
21.80,-1.26,9.67,1.00
21.80,-1.27,9.68,1.02
21.81,-1.29,9.68,1.01
21.81,-1.29,9.68,1.06
21.81,-1.32,9.67,1.04
21.81,-1.33,9.67,1.04
21.82,-1.35,9.68,1.03
21.82,-1.36,9.69,1.00
21.82,-1.35,9.69,0.98
21.82,-1.34,9.68,0.97
21.83,-1.35,9.67,0.97
21.83,-1.33,9.67,0.95
21.83,-1.34,9.66,0.93
21.83,-1.33,9.68,0.91
21.83,-1.33,9.69,0.90
21.84,-1.33,9.68,0.91
21.84,-1.32,9.67,0.87
21.84,-1.30,9.67,0.85
21.84,-1.32,9.67,0.82
21.85,-1.32,9.66,0.85
21.85,-1.30,9.67,0.83
21.85,-1.30,9.67,0.81
21.85,-1.30,9.65,0.78
21.86,-1.30,9.66,0.79
21.86,-1.28,9.65,0.78
21.86,-1.27,9.62,0.78
21.86,-1.26,9.64,0.78
21.86,-1.27,9.64,0.78
21.87,-1.26,9.64,0.77
21.87,-1.25,9.63,0.78
21.87,-1.24,9.65,0.79
21.87,-1.24,9.62,0.79
21.88,-1.22,9.64,0.79
21.88,-1.23,9.65,0.81
21.88,-1.22,9.65,0.81
21.88,-1.22,9.63,0.84
21.89,-1.22,9.62,0.85
21.89,-1.22,9.62,0.87
21.89,-1.19,9.62,0.86
21.89,-1.17,9.62,0.89
21.89,-1.18,9.63,0.90
21.90,-1.18,9.62,0.89
21.90,-1.17,9.61,0.87
21.90,-1.17,9.64,0.87
21.90,-1.18,9.64,0.88
21.91,-1.20,9.63,0.86
21.91,-1.20,9.64,0.85
21.91,-1.20,9.67,0.85
21.91,-1.19,9.68,0.85
21.92,-1.19,9.69,0.85
21.92,-1.20,9.69,0.85
21.92,-1.20,9.70,0.87
21.92,-1.20,9.72,0.87
21.92,-1.21,9.73,0.88
21.93,-1.21,9.72,0.88
21.93,-1.20,9.72,0.91
21.93,-1.18,9.72,0.89
21.93,-1.19,9.71,0.87
21.94,-1.18,9.72,0.87
21.94,-1.19,9.73,0.88
21.94,-1.18,9.74,0.86
21.94,-1.17,9.75,0.84
21.95,-1.17,9.77,0.84
21.95,-1.17,9.78,0.81
21.95,-1.16,9.79,0.80
21.95,-1.15,9.82,0.81
21.95,-1.16,9.81,0.83
21.96,-1.16,9.82,0.82
21.96,-1.14,9.82,0.82
21.96,-1.15,9.82,0.82
21.96,-1.17,9.81,0.81
21.97,-1.14,9.81,0.79
21.97,-1.12,9.80,0.80
21.97,-1.13,9.80,0.77
21.97,-1.12,9.78,0.75
21.97,-1.14,9.77,0.72
21.98,-1.12,9.74,0.71
21.98,-1.12,9.73,0.68
21.98,-1.11,9.71,0.68
21.98,-1.08,9.72,0.68
21.99,-1.09,9.71,0.67
21.99,-1.08,9.72,0.70
21.99,-1.08,9.71,0.71
21.99,-1.07,9.70,0.73
22.00,-1.07,9.72,0.74
22.00,-1.05,9.71,0.75
22.00,-1.03,9.70,0.75
22.00,-1.05,9.73,0.77
22.00,-1.03,9.71,0.81
22.01,-1.03,9.71,0.84
22.01,-1.02,9.72,0.85
22.01,-1.00,9.69,0.89
22.01,-1.02,9.68,0.91
22.02,-1.03,9.68,0.92
22.02,-1.04,9.67,0.95
22.02,-1.03,9.67,0.94
22.02,-1.03,9.67,0.95
22.03,-1.04,9.67,0.95
22.03,-1.02,9.67,0.97
22.03,-1.03,9.68,0.94
22.03,-1.03,9.67,0.94
22.03,-1.03,9.66,0.90
22.04,-1.02,9.69,0.89
22.04,-1.02,9.68,0.88
22.04,-1.02,9.71,0.87
22.04,-1.01,9.72,0.85
22.05,-1.00,9.75,0.85
22.05,-1.01,9.74,0.84
22.05,-1.02,9.78,0.83
22.05,-1.00,9.81,0.80
22.06,-1.00,9.81,0.79
22.06,-0.98,9.86,0.82
22.06,-0.98,9.86,0.79
22.06,-1.00,9.87,0.78
22.06,-0.99,9.89,0.75
22.07,-1.00,9.90,0.75
22.07,-1.00,9.89,0.75
22.07,-1.01,9.90,0.73
22.07,-1.03,9.91,0.71
22.08,-1.01,9.91,0.70
22.08,-1.01,9.90,0.71
22.08,-0.99,9.90,0.71
22.08,-1.01,9.89,0.71
22.09,-0.99,9.88,0.71
22.09,-1.01,9.85,0.71
22.09,-0.99,9.86,0.71
22.09,-0.99,9.83,0.72
22.09,-0.98,9.80,0.72
22.10,-0.96,9.79,0.74
22.10,-0.99,9.76,0.74
22.10,-0.98,9.72,0.74
22.10,-0.96,9.70,0.76
22.11,-0.97,9.71,0.77
22.11,-0.98,9.72,0.77
22.11,-0.99,9.70,0.77
22.11,-0.99,9.67,0.77
22.12,-1.00,9.65,0.76
22.12,-1.03,9.65,0.77
22.12,-1.05,9.63,0.76
22.12,-1.05,9.64,0.76
22.12,-1.05,9.64,0.76
22.13,-1.07,9.62,0.78
22.13,-1.08,9.64,0.79
22.13,-1.08,9.65,0.78
22.13,-1.09,9.66,0.77
22.14,-1.10,9.68,0.76
22.14,-1.09,9.70,0.76
22.14,-1.09,9.71,0.77
22.14,-1.08,9.73,0.76
22.15,-1.09,9.74,0.75
22.15,-1.10,9.75,0.73
22.15,-1.06,9.77,0.73
22.15,-1.06,9.77,0.73
22.15,-1.04,9.81,0.73
22.16,-1.01,9.81,0.73
22.16,-1.00,9.84,0.73
22.16,-0.99,9.83,0.73
22.16,-0.97,9.85,0.76
22.17,-0.95,9.84,0.77
22.17,-0.94,9.85,0.78
22.17,-0.92,9.88,0.80
22.17,-0.91,9.87,0.80
22.17,-0.88,9.86,0.80
22.18,-0.88,9.86,0.82
22.18,-0.87,9.86,0.84
22.18,-0.87,9.86,0.84
22.18,-0.91,9.88,0.85
22.19,-0.90,9.88,0.87
22.19,-0.91,9.88,0.88
22.19,-0.91,9.84,0.90
22.19,-0.93,9.85,0.93
22.20,-0.94,9.84,0.94
22.20,-0.97,9.83,0.95
22.20,-1.00,9.82,0.96
22.20,-1.04,9.82,0.96
22.20,-1.06,9.80,0.97
22.21,-1.07,9.79,0.99
22.21,-1.08,9.75,0.99
22.21,-1.10,9.73,1.02
22.21,-1.11,9.72,1.03
22.22,-1.13,9.70,1.02
22.22,-1.13,9.70,1.02
22.22,-1.15,9.69,1.02
22.22,-1.16,9.69,1.01
22.23,-1.15,9.69,0.98
22.23,-1.16,9.72,0.99
22.23,-1.15,9.72,0.97
22.23,-1.14,9.72,0.97
22.23,-1.13,9.74,0.96
22.24,-1.11,9.78,0.97
22.24,-1.11,9.80,0.97
22.24,-1.10,9.82,0.96
22.24,-1.09,9.83,0.97
22.25,-1.06,9.86,0.97
22.25,-1.08,9.86,0.99
22.25,-1.05,9.86,0.99
22.25,-1.01,9.85,1.02
22.26,-0.98,9.79,1.03
22.26,-0.96,9.78,1.05
22.26,-0.98,9.74,1.04
22.26,-0.99,9.72,1.04
22.26,-0.99,9.69,1.01
22.27,-0.99,9.67,0.99
22.27,-1.00,9.67,0.99
22.27,-1.02,9.65,1.00
22.27,-1.01,9.64,1.03
22.28,-1.03,9.64,1.05
22.28,-1.07,9.62,1.07
22.28,-1.08,9.62,1.07
22.28,-1.10,9.62,1.11
22.29,-1.12,9.62,1.11
22.29,-1.15,9.59,1.12
22.29,-1.18,9.60,1.16
22.29,-1.18,9.58,1.19
22.29,-1.19,9.58,1.21
22.30,-1.21,9.58,1.19
22.30,-1.23,9.56,1.17
22.30,-1.23,9.55,1.15
22.30,-1.25,9.54,1.11
22.31,-1.25,9.55,1.10
22.31,-1.23,9.54,1.05
22.31,-1.23,9.55,1.04
22.31,-1.22,9.58,1.02
22.32,-1.22,9.59,1.01
22.32,-1.19,9.60,0.99
22.32,-1.16,9.63,1.01
22.32,-1.14,9.63,1.03
22.32,-1.11,9.63,1.05
22.33,-1.09,9.67,1.03
22.33,-1.07,9.68,1.03
22.33,-1.01,9.67,1.03
22.33,-0.99,9.69,1.00
22.34,-0.97,9.68,1.00
22.34,-0.93,9.69,1.00
22.34,-0.91,9.70,0.98
22.34,-0.90,9.70,0.98
22.35,-0.88,9.70,0.95
22.35,-0.87,9.69,0.97
22.35,-0.84,9.69,0.98
22.35,-0.80,9.69,1.01
22.35,-0.78,9.66,1.02
22.36,-0.78,9.67,1.02
22.36,-0.77,9.68,1.03
22.36,-0.77,9.66,1.03
22.36,-0.78,9.65,1.01
22.37,-0.77,9.66,1.02
22.37,-0.77,9.68,1.02
22.37,-0.75,9.67,1.01
22.37,-0.77,9.68,0.99
22.37,-0.79,9.69,0.97
22.38,-0.80,9.68,0.95
22.38,-0.79,9.70,0.95
22.38,-0.78,9.70,0.94
22.38,-0.81,9.71,0.92
22.39,-0.83,9.71,0.88
22.39,-0.84,9.74,0.86
22.39,-0.85,9.75,0.85
22.39,-0.86,9.79,0.80
22.40,-0.86,9.78,0.75
22.40,-0.89,9.79,0.71
22.40,-0.89,9.76,0.67
22.40,-0.90,9.76,0.64
22.40,-0.93,9.76,0.61
22.41,-0.94,9.75,0.58
22.41,-0.96,9.75,0.56
22.41,-0.93,9.73,0.57
22.41,-0.94,9.70,0.59
22.42,-0.94,9.71,0.61
22.42,-0.92,9.68,0.63
22.42,-0.90,9.68,0.68
22.42,-0.89,9.66,0.69
22.43,-0.88,9.65,0.71
22.43,-0.86,9.66,0.73
22.43,-0.83,9.65,0.75
22.43,-0.82,9.68,0.75
22.43,-0.81,9.69,0.78
22.44,-0.80,9.69,0.75
22.44,-0.79,9.71,0.78
22.44,-0.77,9.73,0.79
22.44,-0.75,9.76,0.84
22.45,-0.73,9.75,0.83
22.45,-0.73,9.78,0.81
22.45,-0.71,9.77,0.82
22.45,-0.72,9.77,0.83
22.46,-0.73,9.77,0.88
22.46,-0.75,9.78,0.91
22.46,-0.76,9.80,0.91
22.46,-0.76,9.83,0.93
22.46,-0.78,9.81,0.97
22.47,-0.81,9.83,0.98
22.47,-0.83,9.85,0.95
22.47,-0.86,9.87,0.94
22.47,-0.88,9.87,0.92
22.48,-0.89,9.87,0.89
22.48,-0.92,9.87,0.84
22.48,-0.93,9.88,0.78
22.48,-0.95,9.89,0.74
22.49,-0.96,9.91,0.69
22.49,-0.96,9.92,0.63
22.49,-0.97,9.93,0.57
22.49,-0.98,9.94,0.52
22.49,-0.99,9.95,0.49
22.50,-0.98,9.95,0.46
22.50,-0.95,9.94,0.46
22.50,-0.92,9.93,0.47
22.50,-0.91,9.94,0.47
22.51,-0.86,9.94,0.45
22.51,-0.82,9.97,0.40
22.51,-0.79,9.97,0.36
22.51,-0.74,9.97,0.34
22.52,-0.66,9.96,0.34
22.52,-0.58,9.93,0.35
22.52,-0.48,9.93,0.38
22.52,-0.40,9.92,0.41
22.52,-0.32,9.92,0.48
22.53,-0.26,9.92,0.57
22.53,-0.18,9.90,0.65
22.53,-0.15,9.93,0.78
22.53,-0.09,9.93,0.87
22.54,-0.04,9.91,0.95
22.54,0.02,9.91,1.08
22.54,0.04,9.92,1.15
22.54,0.00,9.95,1.20
22.55,-0.01,9.97,1.19
22.55,-0.03,9.98,1.23
22.55,-0.09,10.01,1.18
22.55,-0.13,10.02,1.14
22.55,-0.20,10.02,1.11
22.56,-0.25,10.01,1.07
22.56,-0.32,10.01,1.00
22.56,-0.39,10.00,0.93
22.56,-0.48,10.02,0.91
22.57,-0.59,10.05,0.86
22.57,-0.72,10.11,0.79
22.57,-0.86,10.17,0.71
22.57,-0.91,10.20,0.66
22.57,-0.92,10.17,0.59
22.58,-0.90,10.13,0.53
22.58,-0.90,10.07,0.49
22.58,-0.88,10.00,0.40
22.58,-0.86,9.96,0.36
22.59,-0.86,9.92,0.33
22.59,-0.87,9.89,0.34
22.59,-0.90,9.89,0.41
22.59,-0.90,9.91,0.45
22.60,-0.91,9.95,0.52
22.60,-0.89,9.97,0.59
22.60,-0.86,10.00,0.61
22.60,-0.82,10.00,0.60
22.60,-0.75,10.01,0.61
22.61,-0.71,10.00,0.64
22.61,-0.65,10.01,0.67
22.61,-0.63,10.05,0.68
22.61,-0.65,10.11,0.69
22.62,-0.61,10.17,0.71
22.62,-0.59,10.21,0.72
22.62,-0.54,10.25,0.73
22.62,-0.54,10.29,0.74
22.63,-0.59,10.32,0.69
22.63,-0.66,10.36,0.60
22.63,-0.69,10.37,0.49
22.63,-0.69,10.38,0.42
22.63,-0.70,10.38,0.34
22.64,-0.69,10.35,0.27
22.64,-0.68,10.31,0.22
22.64,-0.69,10.29,0.20
22.64,-0.71,10.27,0.18
22.65,-0.74,10.23,0.16
22.65,-0.74,10.19,0.15
22.65,-0.74,10.16,0.18
22.65,-0.77,10.13,0.17
22.66,-0.76,10.07,0.19
22.66,-0.76,10.01,0.18
22.66,-0.78,9.98,0.11
22.66,-0.84,9.95,0.03
22.66,-0.85,9.90,-0.01
22.67,-0.76,9.83,-0.01
22.67,-0.71,9.79,0.03
22.67,-0.68,9.74,0.09
22.67,-0.67,9.68,0.15
22.68,-0.66,9.66,0.20
22.68,-0.64,9.63,0.30
22.68,-0.61,9.62,0.45
22.68,-0.59,9.63,0.62
22.69,-0.55,9.62,0.77
22.69,-0.57,9.64,0.88
22.69,-0.66,9.66,0.95
22.69,-0.58,9.65,1.05
22.69,-0.49,9.67,1.15
22.70,-0.42,9.66,1.27
22.70,-0.42,9.71,1.35
22.70,-0.44,9.75,1.37
22.70,-0.41,9.78,1.37
22.71,-0.39,9.82,1.35
22.71,-0.41,9.88,1.28
22.71,-0.40,9.91,1.16
22.71,-0.26,9.89,1.04
22.72,-0.14,9.90,0.96
22.72,-0.09,9.95,0.88
22.72,-0.11,10.00,0.75
22.72,-0.07,10.00,0.58
22.72,-0.01,9.99,0.45
22.73,0.09,9.97,0.38
22.73,0.14,9.93,0.29
22.73,0.12,9.95,0.18
22.73,0.16,9.92,0.06
22.74,0.33,9.87,0.01
22.74,0.43,9.86,0.00
22.74,0.43,9.86,-0.01
22.74,0.44,9.84,-0.08
22.75,0.39,9.91,-0.19
22.75,0.32,9.95,-0.29
22.75,0.27,10.01,-0.41
22.75,0.25,10.05,-0.47
22.75,0.27,10.05,-0.53
22.76,0.32,10.04,-0.56
22.76,0.21,10.11,-0.56
22.76,0.01,10.17,-0.61
22.76,0.28,9.96,-0.51
22.77,0.30,9.94,-0.36
22.77,0.21,9.93,-0.25
22.77,0.12,9.98,-0.22
22.77,0.02,9.94,-0.20
22.78,-0.04,9.91,-0.21
22.78,-0.10,9.85,-0.25
22.78,-0.16,9.78,-0.23
22.78,-0.22,9.66,-0.26
22.78,-0.34,9.57,-0.36
22.79,-0.55,9.49,-0.51
22.79,-0.40,9.37,-0.52
22.79,-0.15,9.22,-0.38
22.79,-0.10,9.16,-0.28
22.80,-0.14,9.20,-0.18
22.80,-0.25,9.27,-0.16
22.80,-0.29,9.29,-0.06
22.80,-0.27,9.33,0.00
22.81,-0.14,9.29,0.02
22.81,-0.01,9.35,0.12
22.81,0.05,9.38,0.29
22.81,0.03,9.34,0.30
22.82,-0.06,9.37,0.25
22.82,-0.23,9.37,0.15
22.82,-0.47,9.38,-0.08
22.82,-0.27,9.27,-0.12
22.82,-0.01,9.24,-0.10
22.83,0.14,9.16,-0.07
22.83,0.15,9.20,-0.13
22.83,0.16,9.22,-0.19
22.83,0.13,9.29,-0.22
22.84,0.07,9.41,-0.29
22.84,0.10,9.51,-0.34
22.84,0.08,9.59,-0.40
22.84,0.15,9.59,-0.49
22.85,0.23,9.59,-0.54
22.85,0.30,9.56,-0.64
22.85,0.44,9.48,-0.74
22.85,0.52,9.44,-0.79
22.86,0.52,9.45,-0.82
22.86,0.52,9.44,-0.83
22.86,0.57,9.41,-0.85
22.86,0.71,9.32,-0.76
22.86,0.89,9.20,-0.67
22.87,0.92,9.21,-0.52
22.87,0.96,9.24,-0.34
22.87,0.91,9.23,-0.22
22.87,0.91,9.22,-0.04
22.88,0.90,9.22,0.11
22.88,0.67,9.28,0.11
22.88,0.37,9.31,-0.05
22.88,0.90,9.25,0.21
22.89,1.09,9.25,0.39
22.89,1.01,9.27,0.34
22.89,0.94,9.24,0.26
22.89,0.83,9.24,0.15
22.89,0.69,9.27,0.01
22.90,0.57,9.32,-0.07
22.90,0.49,9.38,-0.16
22.90,0.42,9.44,-0.28
22.90,0.37,9.49,-0.39
22.91,0.35,9.52,-0.49
22.91,0.33,9.53,-0.58
22.91,0.30,9.50,-0.60
22.91,0.28,9.50,-0.64
22.92,0.22,9.57,-0.65
22.92,0.20,9.60,-0.63
22.92,0.15,9.68,-0.57
22.92,0.09,9.71,-0.52
22.92,0.06,9.78,-0.48
22.93,0.03,9.80,-0.45
22.93,-0.01,9.83,-0.44
22.93,0.01,9.86,-0.44
22.93,-0.03,9.89,-0.44
22.94,-0.08,9.92,-0.47
22.94,-0.12,9.95,-0.48
22.94,-0.12,9.95,-0.51
22.94,-0.18,9.95,-0.53
22.95,-0.24,9.94,-0.54
22.95,-0.23,9.88,-0.60
22.95,-0.23,9.82,-0.69
22.95,-0.19,9.75,-0.71
22.95,-0.17,9.72,-0.75
22.96,-0.12,9.62,-0.77
22.96,-0.06,9.52,-0.75
22.96,0.04,9.45,-0.76
22.96,0.10,9.36,-0.78
22.97,0.17,9.32,-0.77
22.97,0.23,9.28,-0.81
22.97,0.29,9.27,-0.81
22.97,0.36,9.25,-0.86
22.97,0.43,9.26,-0.88
22.98,0.50,9.26,-0.89
22.98,0.52,9.30,-0.85
22.98,0.55,9.33,-0.84
22.98,0.60,9.39,-0.74
22.99,0.61,9.45,-0.66
22.99,0.62,9.48,-0.56
22.99,0.59,9.52,-0.47
22.99,0.59,9.52,-0.39
23.00,0.57,9.54,-0.34
23.00,0.54,9.55,-0.29
23.00,0.50,9.53,-0.25
23.00,0.50,9.53,-0.20
23.00,0.43,9.54,-0.16
23.01,0.39,9.55,-0.15
23.01,0.35,9.54,-0.11
23.01,0.33,9.55,-0.08
23.01,0.30,9.55,-0.04
23.02,0.27,9.58,0.01
23.02,0.28,9.56,0.05
23.02,0.26,9.57,0.12
23.02,0.26,9.58,0.19
23.03,0.24,9.60,0.29
23.03,0.23,9.61,0.41
23.03,0.21,9.64,0.53
23.03,0.19,9.67,0.67
23.03,0.17,9.72,0.80
23.04,0.15,9.79,0.95
23.04,0.12,9.87,1.07
23.04,0.10,9.95,1.19
23.04,0.05,10.03,1.28
23.05,0.00,10.13,1.36
23.05,-0.05,10.24,1.44
23.05,-0.10,10.33,1.48
23.05,-0.16,10.41,1.47
23.06,-0.21,10.45,1.42
23.06,-0.23,10.49,1.30
23.06,-0.25,10.52,1.20
23.06,-0.25,10.51,1.06
23.06,-0.26,10.48,0.89
23.07,-0.25,10.43,0.71
23.07,-0.24,10.36,0.59
23.07,-0.23,10.26,0.47
23.07,-0.21,10.14,0.35
23.08,-0.23,10.08,0.27
23.08,-0.23,9.99,0.21
23.08,-0.21,9.94,0.18
23.08,-0.21,9.93,0.16
23.09,-0.21,9.91,0.23
23.09,-0.23,9.93,0.27
23.09,-0.21,9.95,0.36
23.09,-0.18,10.00,0.46
23.09,-0.10,10.05,0.64
23.10,-0.03,10.15,0.79
23.10,0.10,10.27,1.00
23.10,0.25,10.43,1.26
23.10,0.32,10.66,1.51
23.11,0.39,10.95,1.74
23.11,0.45,11.26,1.93
23.11,0.55,11.50,2.06
23.11,0.70,11.67,2.14
23.12,0.83,11.77,2.23
23.12,0.91,11.81,2.29
23.12,0.94,11.85,2.35
23.12,0.89,11.89,2.40
23.12,0.85,11.90,2.45
23.13,0.75,11.90,2.44
23.13,0.61,11.91,2.40
23.13,0.45,11.91,2.30
23.13,0.27,11.89,2.17
23.14,0.06,11.87,1.98
23.14,-0.16,11.84,1.74
23.14,-0.34,11.79,1.48
23.14,-0.45,11.74,1.26
23.15,-0.54,11.70,1.08
23.15,-0.65,11.65,0.94
23.15,-0.75,11.65,0.82
23.15,-0.83,11.67,0.70
23.15,-0.85,11.69,0.54
23.16,-0.81,11.72,0.33
23.16,-0.77,11.72,0.11
23.16,-0.71,11.73,-0.12
23.16,-0.64,11.76,-0.34
23.17,-0.60,11.82,-0.55
23.17,-0.55,11.86,-0.70
23.17,-0.48,11.90,-0.78
23.17,-0.43,11.93,-0.80
23.17,-0.36,11.98,-0.78
23.18,-0.27,12.00,-0.72
23.18,-0.14,12.05,-0.61
23.18,0.00,12.07,-0.51
23.18,0.11,12.09,-0.37
23.19,0.24,12.13,-0.25
23.19,0.40,12.14,-0.15
23.19,0.50,12.18,-0.04
23.19,0.62,12.21,0.01
23.20,0.73,12.27,0.08
23.20,0.84,12.27,0.09
23.20,0.93,12.27,0.07
23.20,0.98,12.28,0.01
23.20,1.06,12.27,-0.09
23.21,1.07,12.27,-0.20
23.21,1.10,12.27,-0.33
23.21,1.12,12.23,-0.52
23.21,1.13,12.23,-0.64
23.22,1.13,12.22,-0.80
23.22,1.05,12.22,-0.99
23.22,1.02,12.17,-1.15
23.22,0.96,12.18,-1.27
23.23,0.91,12.17,-1.38
23.23,0.87,12.16,-1.44
23.23,0.81,12.12,-1.47
23.23,0.78,12.12,-1.46
23.23,0.75,12.12,-1.41
23.24,0.69,12.11,-1.32
23.24,0.58,12.13,-1.24
23.24,0.51,12.13,-1.13
23.24,0.43,12.15,-1.01
23.25,0.33,12.15,-0.92
23.25,0.23,12.18,-0.78
23.25,0.09,12.24,-0.65
23.25,-0.02,12.24,-0.48
23.26,-0.15,12.27,-0.29
23.26,-0.27,12.31,-0.11
23.26,-0.37,12.34,0.07
23.26,-0.46,12.35,0.27
23.26,-0.52,12.40,0.44
23.27,-0.58,12.43,0.61
23.27,-0.65,12.43,0.77
23.27,-0.72,12.45,0.87
23.27,-0.80,12.49,0.95
23.28,-0.89,12.52,0.97
23.28,-0.99,12.49,0.97
23.28,-1.07,12.50,0.97
23.28,-1.16,12.50,0.95
23.29,-1.18,12.48,0.92
23.29,-1.24,12.44,0.85
23.29,-1.32,12.41,0.76
23.29,-1.39,12.36,0.70
23.29,-1.44,12.32,0.56
23.30,-1.50,12.28,0.45
23.30,-1.62,12.26,0.33
23.30,-1.72,12.24,0.19
23.30,-1.78,12.23,0.05
23.31,-1.86,12.15,-0.13
23.31,-1.91,12.08,-0.29
23.31,-1.97,11.97,-0.47
23.31,-2.05,11.89,-0.71
23.32,-2.10,11.81,-0.96
23.32,-2.17,11.77,-1.24
23.32,-2.26,11.75,-1.56
23.32,-2.35,11.73,-1.89
23.32,-2.39,11.66,-2.22
23.33,-2.44,11.61,-2.55
23.33,-2.48,11.56,-2.87
23.33,-2.47,11.49,-3.18
23.33,-2.49,11.44,-3.50
23.34,-2.48,11.40,-3.77
23.34,-2.52,11.37,-4.11
23.34,-2.54,11.37,-4.44
23.34,-2.56,11.39,-4.72
23.35,-2.59,11.45,-5.04
23.35,-2.59,11.52,-5.30
23.35,-2.61,11.60,-5.55
23.35,-2.62,11.62,-5.72
23.35,-2.60,11.67,-5.94
23.36,-2.60,11.67,-6.14
23.36,-2.59,11.68,-6.33
23.36,-2.57,11.72,-6.46
23.36,-2.59,11.78,-6.53
23.37,-2.57,11.81,-6.58
23.37,-2.49,11.94,-6.54
23.37,-2.49,12.12,-6.44
23.37,-2.48,12.31,-6.35
23.37,-2.47,12.42,-6.27
23.38,-2.42,12.48,-6.20
23.38,-2.34,12.51,-6.10
23.38,-2.31,12.53,-5.87
23.38,-2.33,12.63,-5.67
23.39,-2.28,12.71,-5.43
23.39,-2.21,12.72,-5.21
23.39,-2.20,12.74,-4.88
23.39,-2.20,12.75,-4.53
23.40,-2.21,12.75,-4.07
23.40,-2.15,12.78,-3.45
23.40,-2.08,12.78,-2.79
23.40,-2.09,12.88,-1.91
23.40,-2.05,13.03,-1.43
23.41,-2.15,13.23,-1.00
23.41,-2.33,13.52,-0.63
23.41,-2.43,13.82,-0.24
23.41,-2.35,14.06,0.08
23.42,-2.15,14.25,0.53
23.42,-2.10,14.43,1.13
23.42,-1.94,14.59,1.31
23.42,-1.74,14.56,1.65
23.43,-1.43,14.45,2.33
23.43,-1.34,14.43,2.90
23.43,-1.18,14.40,3.50
23.43,-1.11,14.20,4.01
23.43,-1.00,13.80,3.98
23.44,-0.98,13.38,3.52
23.44,-1.17,13.02,2.83
23.44,-1.33,12.69,2.55
23.44,-1.27,12.39,1.56
23.45,-1.07,12.11,1.20
23.45,-1.16,11.77,0.91
23.45,-1.17,11.63,0.77
23.45,-1.01,11.51,0.64
23.46,-0.86,11.38,0.52
23.46,-0.75,11.23,0.44
23.46,-0.60,10.95,0.34
23.46,-0.47,10.68,0.27
23.46,-0.56,10.58,0.14
23.47,-0.80,10.62,-0.28
23.47,-0.92,10.56,-0.86
23.47,-0.91,10.50,-1.39
23.47,-0.74,10.31,-1.88
23.48,-0.43,10.09,-2.31
23.48,-0.22,9.79,-2.50
23.48,-0.06,9.46,-2.48
23.48,0.13,9.10,-2.22
23.49,0.32,8.72,-1.74
23.49,0.46,8.36,-1.12
23.49,0.40,8.17,-0.59
23.49,0.17,8.05,-0.17
23.49,-0.05,7.95,0.09
23.50,-0.37,7.87,0.17
23.50,-0.73,7.84,0.12
23.50,-1.02,7.70,-0.16
23.50,-1.30,7.58,-0.41
23.51,-1.56,7.46,-0.64
23.51,-1.74,7.36,-0.56
23.51,-1.88,7.32,-0.49
23.51,-2.00,7.32,-0.40
23.52,-2.09,7.32,-0.32
23.52,-2.20,7.35,-0.14
23.52,-2.34,7.28,-0.08
23.52,-2.36,7.17,-0.03
23.52,-2.43,7.05,-0.14
23.53,-2.55,6.94,-0.32
23.53,-2.72,6.81,-0.46
23.53,-2.79,6.66,-0.53
23.53,-2.81,6.48,-0.67
23.54,-2.86,6.24,-0.90
23.54,-2.91,6.03,-1.22
23.54,-2.94,5.75,-1.50
23.54,-3.05,5.56,-1.49
23.55,-3.23,5.38,-1.33
23.55,-3.44,5.21,-1.02
23.55,-3.56,5.01,-0.86
23.55,-3.56,4.80,-0.66
23.55,-3.56,4.57,-0.63
23.56,-3.46,4.34,-0.57
23.56,-3.33,4.11,-0.75
23.56,-3.19,3.90,-1.03
23.56,-3.17,3.73,-1.28
23.57,-3.05,3.48,-1.62
23.57,-2.92,3.21,-1.87
23.57,-2.93,3.14,-2.17
23.57,-2.87,3.05,-2.67
23.57,-2.73,2.81,-2.98
23.58,-2.81,2.81,-3.31
23.58,-2.79,2.81,-3.32
23.58,-2.68,2.84,-3.53
23.58,-2.40,2.83,-3.64
23.59,-2.29,2.81,-3.49
23.59,-2.29,2.98,-2.80
23.59,-2.29,3.15,-1.90
23.59,-2.12,3.23,-1.84
23.60,-1.80,3.11,-2.40
23.60,-1.50,3.00,-3.02
23.60,-1.41,2.97,-3.07
23.60,-1.46,2.94,-2.94
23.60,-1.54,2.99,-2.67
23.61,-1.66,3.12,-2.69
23.61,-1.60,3.16,-2.52
23.61,-1.22,2.99,-2.43
23.61,-0.96,2.86,-2.62
23.62,-1.20,3.04,-2.86
23.62,-1.37,3.17,-2.99
23.62,-1.26,3.10,-2.59
23.62,-1.21,2.99,-2.68
23.63,-1.30,2.87,-2.98
23.63,-1.65,2.80,-3.64
23.63,-1.74,2.63,-4.22
23.63,-1.68,2.51,-4.11
23.63,-1.77,2.42,-4.16
23.64,-1.92,2.29,-4.44
23.64,-2.23,2.19,-4.84
23.64,-2.41,2.02,-4.89
23.64,-2.42,1.83,-4.79
23.65,-2.54,1.64,-4.86
23.65,-2.84,1.54,-5.23
23.65,-3.02,1.36,-5.60
23.65,-3.16,1.14,-5.74
23.66,-3.20,0.98,-5.98
23.66,-3.27,0.83,-6.08
23.66,-3.48,0.74,-6.10
23.66,-3.76,0.78,-6.21
23.66,-3.87,0.81,-6.29
23.67,-4.02,0.83,-6.42
23.67,-4.11,0.82,-6.60
23.67,-4.10,0.81,-6.71
23.67,-4.02,0.83,-6.73
23.68,-4.13,0.89,-6.94
23.68,-4.28,1.02,-7.17
23.68,-4.18,1.03,-7.19
23.68,-4.15,1.14,-7.17
23.69,-4.14,1.29,-7.16
23.69,-4.27,1.47,-7.23
23.69,-4.22,1.57,-7.23
23.69,-4.23,1.75,-7.30
23.69,-4.29,1.96,-7.31
23.70,-4.17,2.09,-7.36
23.70,-4.13,2.23,-7.49
23.70,-4.09,2.40,-7.69
23.70,-4.10,2.57,-7.81
23.71,-4.07,2.78,-7.95
23.71,-4.07,3.00,-8.11
23.71,-3.99,3.14,-8.32
23.71,-3.86,3.24,-8.53
23.72,-3.78,3.36,-8.82
23.72,-3.65,3.43,-9.10
23.72,-3.56,3.56,-9.25
23.72,-3.45,3.66,-9.29
23.72,-3.37,3.74,-9.37
23.73,-3.19,3.77,-9.40
23.73,-3.07,3.76,-9.27
23.73,-2.93,3.73,-9.04
23.73,-2.81,3.68,-8.83
23.74,-2.71,3.63,-8.65
23.74,-2.67,3.58,-8.53
23.74,-2.52,3.55,-8.42
23.74,-2.27,3.40,-8.33
23.75,-2.13,3.25,-8.20
23.75,-1.97,3.12,-8.12
23.75,-1.83,2.96,-8.13
23.75,-1.76,2.85,-8.13
23.75,-1.77,2.77,-8.09
23.76,-1.64,2.67,-8.05
23.76,-1.59,2.57,-8.05
23.76,-1.56,2.42,-8.09
23.76,-1.48,2.35,-8.09
23.77,-1.45,2.24,-8.11
23.77,-1.51,2.22,-8.06
23.77,-1.52,2.17,-8.05
23.77,-1.56,2.22,-8.14
23.78,-1.57,2.21,-8.21
23.78,-1.57,2.28,-8.23
23.78,-1.68,2.40,-8.22
23.78,-1.75,2.52,-8.18
23.78,-1.87,2.69,-8.16
23.79,-1.99,2.85,-8.15
23.79,-2.14,3.05,-8.14
23.79,-2.28,3.25,-8.13
23.79,-2.41,3.47,-8.11
23.80,-2.46,3.65,-8.10
23.80,-2.54,3.84,-8.11
23.80,-2.59,4.01,-8.23
23.80,-2.64,4.16,-8.36
23.80,-2.65,4.29,-8.54
23.81,-2.69,4.37,-8.78
23.81,-2.71,4.51,-9.01
23.81,-2.68,4.60,-9.26
23.81,-2.74,4.67,-9.48
23.82,-2.76,4.76,-9.64
23.82,-2.78,4.83,-9.81
23.82,-2.80,4.89,-10.01
23.82,-2.81,4.93,-10.20
23.83,-2.85,4.93,-10.35
23.83,-2.88,4.93,-10.46
23.83,-2.93,4.93,-10.54
23.83,-2.95,4.91,-10.61
23.83,-2.96,4.93,-10.71
23.84,-2.97,4.93,-10.75
23.84,-3.02,4.95,-10.92
23.84,-3.11,4.97,-11.08
23.84,-3.18,4.98,-11.18
23.85,-3.23,4.99,-11.31
23.85,-3.26,4.98,-11.50
23.85,-3.25,5.00,-11.57
23.85,-3.28,5.06,-11.65
23.86,-3.32,5.12,-11.73
23.86,-3.37,5.19,-11.74
23.86,-3.33,5.28,-11.77
23.86,-3.32,5.36,-11.75
23.86,-3.31,5.47,-11.74
23.87,-3.32,5.57,-11.76
23.87,-3.34,5.70,-11.68
23.87,-3.36,5.86,-11.61
23.87,-3.38,6.03,-11.46
23.88,-3.37,6.23,-11.20
23.88,-3.31,6.38,-10.92
23.88,-3.26,6.60,-10.58
23.88,-3.19,6.79,-10.30
23.89,-3.07,6.96,-10.11
23.89,-2.93,7.12,-10.05
23.89,-2.88,7.31,-10.17
23.89,-2.87,7.50,-10.42
23.89,-2.82,7.69,-10.69
23.90,-2.85,7.84,-10.81
23.90,-2.93,7.98,-10.94
23.90,-2.99,8.02,-10.94
23.90,-3.00,7.99,-10.67
23.91,-3.05,7.89,-10.07
23.91,-3.04,7.73,-9.36
23.91,-2.98,7.43,-8.41
23.91,-3.01,7.15,-7.54
23.92,-3.07,6.82,-7.06
23.92,-3.20,6.52,-6.87
23.92,-3.37,6.25,-6.99
23.92,-3.59,6.04,-7.39
23.92,-3.83,5.84,-7.93
23.93,-3.99,5.56,-8.17
23.93,-4.22,5.33,-8.41
23.93,-4.45,5.12,-8.59
23.93,-4.69,4.98,-8.73
23.94,-4.79,4.88,-8.73
23.94,-4.90,4.81,-8.61
23.94,-4.98,4.87,-8.42
23.94,-5.03,4.99,-8.38
23.95,-5.13,5.20,-8.37
23.95,-5.13,5.41,-8.41
23.95,-5.16,5.78,-8.55
23.95,-5.13,6.14,-8.71
23.95,-5.01,6.51,-8.83
23.96,-4.93,6.91,-9.01
23.96,-4.88,7.30,-9.11
23.96,-4.74,7.65,-9.21
23.96,-4.68,7.98,-9.20
23.97,-4.52,8.23,-9.15
23.97,-4.34,8.41,-8.98
23.97,-4.06,8.41,-8.75
23.97,-3.85,8.39,-8.50
23.98,-3.79,8.36,-8.25
23.98,-3.75,8.33,-7.92
23.98,-3.74,8.27,-7.53
23.98,-3.68,8.19,-7.21
23.98,-3.70,8.13,-6.66
23.99,-3.76,8.09,-6.10
23.99,-3.83,8.14,-5.72
23.99,-3.90,8.22,-5.36
23.99,-3.93,8.34,-5.17
24.00,-3.96,8.53,-5.16
24.00,-3.92,8.71,-5.29
24.00,-3.77,8.87,-5.47
24.00,-3.58,8.99,-5.53
24.00,-3.34,9.04,-5.63
24.01,-3.17,9.11,-5.72
24.01,-2.95,9.14,-5.73
24.01,-2.82,9.14,-5.73
24.01,-2.75,9.11,-5.73
24.02,-2.66,9.03,-5.71
24.02,-2.53,8.91,-5.71
24.02,-2.46,8.80,-5.73
24.02,-2.42,8.66,-5.74
24.03,-2.36,8.55,-5.67
24.03,-2.29,8.41,-5.60
24.03,-2.32,8.29,-5.51
24.03,-2.38,8.20,-5.38
24.03,-2.45,8.11,-5.31
24.04,-2.55,7.95,-5.23
24.04,-2.60,7.77,-5.17
24.04,-2.73,7.62,-5.08
24.04,-2.85,7.45,-5.00
24.05,-2.93,7.31,-4.91
24.05,-3.04,7.16,-4.84
24.05,-3.14,7.02,-4.73
24.05,-3.28,6.92,-4.62
24.06,-3.42,6.83,-4.53
24.06,-3.48,6.76,-4.44
24.06,-3.59,6.71,-4.40
24.06,-3.64,6.64,-4.37
24.06,-3.68,6.64,-4.28
24.07,-3.76,6.59,-4.25
24.07,-3.73,6.56,-4.13
24.07,-3.76,6.60,-4.08
24.07,-3.78,6.65,-4.00
24.08,-3.70,6.66,-3.87
24.08,-3.69,6.70,-3.74
24.08,-3.68,6.80,-3.67
24.08,-3.61,6.85,-3.69
24.09,-3.55,6.92,-3.64
24.09,-3.52,7.04,-3.57
24.09,-3.52,7.21,-3.53
24.09,-3.51,7.33,-3.48
24.09,-3.41,7.45,-3.39
24.10,-3.41,7.61,-3.37
24.10,-3.42,7.76,-3.38
24.10,-3.36,7.86,-3.35
24.10,-3.29,7.94,-3.27
24.11,-3.26,8.04,-3.12
24.11,-3.23,8.19,-2.90
24.11,-2.94,8.28,-2.49
24.11,-2.77,8.41,-2.25
24.12,-2.47,8.48,-2.00
24.12,-2.23,8.57,-1.72
24.12,-2.32,8.76,-1.78
24.12,-2.55,8.88,-1.90
24.12,-2.82,9.08,-1.86
24.13,-2.89,9.34,-1.82
24.13,-2.76,9.53,-1.88
24.13,-2.53,9.59,-1.98
24.13,-2.22,9.60,-2.13
24.14,-2.05,9.71,-2.39
24.14,-1.81,9.72,-2.61
24.14,-1.47,9.66,-2.75
24.14,-1.22,9.62,-2.98
24.15,-0.98,9.64,-2.71
24.15,-0.88,9.57,-2.60
24.15,-0.79,9.48,-2.57
24.15,-0.67,9.39,-2.48
24.15,-0.59,9.33,-2.38
24.16,-0.59,9.22,-2.33
24.16,-0.58,9.15,-2.27
24.16,-0.67,9.15,-1.99
24.16,-0.69,9.09,-1.70
24.17,-0.64,8.85,-1.50
24.17,-0.63,8.64,-1.51
24.17,-0.44,8.30,-1.46
24.17,-0.22,7.94,-1.45
24.18,-0.24,7.65,-1.65
24.18,-0.20,7.38,-2.14
24.18,0.04,7.11,-2.31
24.18,0.30,6.84,-2.06
24.18,0.16,6.90,-1.84
24.19,0.22,6.98,-1.72
24.19,0.20,7.03,-1.32
24.19,0.18,7.08,-0.90
24.19,0.11,7.24,-0.60
24.20,0.01,7.40,-0.45
24.20,-0.02,7.50,-0.48
24.20,-0.03,7.66,-0.48
24.20,-0.05,7.83,-0.46
24.20,0.04,7.97,-0.48
24.21,0.10,8.07,-0.46
24.21,0.15,8.19,-0.48
24.21,0.09,8.36,-0.64
24.21,0.04,8.44,-0.95
24.22,0.04,8.54,-1.24
24.22,0.05,8.58,-1.44
24.22,0.10,8.62,-1.54
24.22,0.27,8.60,-1.53
24.23,0.41,8.58,-1.52
24.23,0.45,8.59,-1.58
24.23,0.49,8.59,-1.61
24.23,0.42,8.63,-1.54
24.23,0.38,8.68,-1.42
24.24,0.41,8.72,-1.24
24.24,0.50,8.71,-1.02
24.24,0.55,8.80,-0.61
24.24,0.53,8.97,-0.17
24.25,0.49,9.13,0.15
24.25,0.34,9.37,0.38
24.25,0.26,9.61,0.57
24.25,0.16,9.88,0.67
24.26,0.15,10.07,0.75
24.26,0.21,10.23,0.80
24.26,0.27,10.35,0.77
24.26,0.38,10.43,0.70
24.26,0.41,10.50,0.66
24.27,0.44,10.57,0.69
24.27,0.50,10.62,0.62
24.27,0.60,10.68,0.54
24.27,0.71,10.71,0.42
24.28,0.91,10.62,0.24
24.28,1.20,10.35,0.05
24.28,1.39,10.11,-0.12
24.28,1.52,9.94,-0.26
24.29,1.61,9.84,-0.27
24.29,1.68,9.76,-0.23
24.29,1.70,9.72,-0.29
24.29,1.76,9.63,-0.40
24.29,1.74,9.58,-0.58
24.30,1.72,9.49,-0.72
24.30,1.69,9.39,-0.81
24.30,1.69,9.35,-0.75
24.30,1.62,9.33,-0.63
24.31,1.58,9.28,-0.54
24.31,1.53,9.22,-0.52
24.31,1.46,9.15,-0.51
24.31,1.38,9.13,-0.54
24.32,1.32,9.03,-0.60
24.32,1.19,8.98,-0.63
24.32,1.00,8.95,-0.60
24.32,0.69,9.00,-0.50
24.32,0.42,9.03,-0.45
24.33,0.14,9.09,-0.42
24.33,-0.11,9.14,-0.47
24.33,-0.33,9.18,-0.45
24.33,-0.55,9.19,-0.43
24.34,-0.81,9.25,-0.57
24.34,-1.09,9.36,-0.89
24.34,-1.39,9.45,-1.28
24.34,-1.61,9.48,-1.69
24.35,-1.83,9.53,-2.08
24.35,-2.04,9.60,-2.38
24.35,-2.21,9.63,-2.63
24.35,-2.25,9.56,-2.84
24.35,-2.20,9.40,-3.01
24.36,-2.16,9.31,-3.14
24.36,-2.16,9.25,-3.37
24.36,-2.20,9.12,-3.70
24.36,-2.23,8.97,-4.01
24.37,-2.13,8.82,-4.32
24.37,-2.05,8.71,-4.49
24.37,-1.95,8.60,-4.58
24.37,-1.95,8.56,-4.66
24.38,-1.94,8.54,-4.66
24.38,-1.90,8.45,-4.53
24.38,-1.83,8.42,-4.27
24.38,-1.75,8.46,-3.92
24.38,-1.56,8.34,-3.51
24.39,-1.34,8.23,-2.96
24.39,-1.04,8.24,-2.31
24.39,-0.70,8.35,-1.59
24.39,-0.41,8.48,-0.90
24.40,-0.15,8.59,-0.23
24.40,-0.04,8.73,0.39
24.40,0.02,8.89,1.03
24.40,-0.06,9.06,1.47
24.40,-0.19,9.29,1.81
24.41,-0.21,9.58,2.17
24.41,-0.07,9.76,2.47
24.41,0.09,10.00,2.72
24.41,0.20,10.29,2.81
24.42,0.08,10.65,2.73
24.42,0.11,10.86,2.53
24.42,0.20,10.95,2.43
24.42,0.17,11.02,2.21
24.43,-0.10,11.17,1.97
24.43,-0.05,11.20,1.88
24.43,0.08,11.15,1.86
24.43,0.04,11.18,1.92
24.43,-0.01,11.06,1.88
24.44,-0.04,10.90,1.84
24.44,-0.10,10.81,1.70
24.44,0.02,10.62,1.53
24.44,0.20,10.39,1.32
24.45,0.38,10.08,1.10
24.45,0.38,9.82,0.83
24.45,0.55,9.50,0.58
24.45,0.92,9.13,0.50
24.46,1.18,8.84,0.40
24.46,1.31,8.58,0.19
24.46,1.32,8.36,-0.07
24.46,1.27,8.12,-0.35
24.46,1.28,7.89,-0.66
24.47,1.37,7.66,-0.88
24.47,1.48,7.47,-1.02
24.47,1.51,7.33,-1.12
24.47,1.60,7.24,-1.23
24.48,1.66,7.22,-1.32
24.48,1.70,7.17,-1.40
24.48,1.80,7.15,-1.41
24.48,1.70,7.30,-1.42
24.49,1.48,7.41,-1.52
24.49,1.74,7.49,-1.32
24.49,2.05,7.60,-1.06
24.49,2.11,7.77,-0.87
24.49,2.00,8.04,-0.75
24.50,1.92,8.23,-0.69
24.50,1.79,8.49,-0.63
24.50,1.70,8.68,-0.59
24.50,1.65,8.82,-0.56
24.51,1.55,8.94,-0.42
24.51,1.39,9.09,-0.26
24.51,1.29,9.17,-0.21
24.51,1.23,9.19,-0.11
24.52,1.13,9.16,0.03
24.52,1.05,9.23,0.08
24.52,0.96,9.22,0.13
24.52,0.88,9.24,0.20
24.52,0.75,9.25,0.21
24.53,0.71,9.19,0.29
24.53,0.60,9.19,0.28
24.53,0.41,9.14,0.16
24.53,0.25,9.04,-0.04
24.54,0.56,8.94,0.03
24.54,0.92,8.86,0.09
24.54,1.00,8.88,-0.01
24.54,0.97,9.00,-0.20
24.55,1.02,9.04,-0.44
24.55,1.05,9.17,-0.68
24.55,1.10,9.34,-0.83
24.55,1.21,9.44,-1.00
24.55,1.34,9.53,-1.12
24.56,1.46,9.60,-1.28
24.56,1.50,9.78,-1.31
24.56,1.46,9.96,-1.34
24.56,1.44,10.11,-1.14
24.57,1.38,10.32,-0.76
24.57,1.25,10.50,-0.31
24.57,1.13,10.63,0.19
24.57,0.97,10.70,0.68
24.58,0.75,10.71,1.08
24.58,0.54,10.73,1.33
24.58,0.36,10.68,1.50
24.58,0.17,10.59,1.53
24.58,-0.08,10.52,1.48
24.59,-0.32,10.42,1.37
24.59,-0.52,10.33,1.17
24.59,-0.64,10.17,0.90
24.59,-0.74,10.05,0.53
24.60,-0.86,9.92,0.09
24.60,-0.97,9.77,-0.50
24.60,-1.09,9.65,-1.12
24.60,-0.62,9.57,-1.45
24.60,-0.30,9.57,-1.83
24.61,-0.16,9.63,-2.28
24.61,-0.08,9.73,-2.68
24.61,0.02,9.84,-2.88
24.61,0.07,10.00,-2.92
24.62,0.20,10.10,-2.75
24.62,0.29,10.29,-2.35
24.62,0.36,10.48,-1.78
24.62,0.39,10.73,-1.07
24.63,0.39,10.90,-0.26
24.63,0.35,11.12,0.66
24.63,0.25,11.30,1.62
24.63,0.07,11.48,2.53
24.63,-0.13,11.62,3.27
24.64,-0.23,11.66,3.87
24.64,-0.43,11.71,4.27
24.64,-0.51,11.65,4.38
24.64,-0.58,11.62,4.33
24.65,-0.71,11.53,3.98
24.65,-0.82,11.44,3.37
24.65,-0.86,11.39,2.67
24.65,-0.86,11.32,1.90
24.66,-0.80,11.25,1.03
24.66,-0.66,11.20,0.14
24.66,-0.45,11.06,-0.76
24.66,-0.21,10.99,-1.56
24.66,0.08,10.92,-2.22
24.67,0.35,10.81,-2.69
24.67,0.58,10.77,-2.98
24.67,0.82,10.74,-2.92
24.67,0.99,10.71,-2.73
24.68,1.16,10.71,-2.29
24.68,1.27,10.71,-1.71
24.68,1.31,10.74,-1.04
24.68,1.41,10.80,-0.14
24.69,1.48,10.84,0.78
24.69,1.43,10.89,1.66
24.69,1.30,10.90,2.42
24.69,1.14,10.90,3.01
24.69,0.89,10.91,3.41
24.70,0.65,10.91,3.57
24.70,0.33,10.88,3.53
24.70,0.09,10.87,3.31
24.70,-0.14,10.89,2.90
24.71,-0.32,10.91,2.38
24.71,-0.40,10.96,1.75
24.71,-0.46,11.05,1.14
24.71,-0.49,11.26,0.58
24.72,-0.50,11.50,0.04
24.72,-0.40,11.76,-0.43
24.72,-0.31,12.00,-0.81
24.72,-0.21,12.20,-1.08
24.72,-0.07,12.41,-1.20
24.73,0.09,12.62,-1.12
24.73,0.24,12.86,-0.89
24.73,0.36,13.10,-0.57
24.73,0.50,13.36,-0.16
24.74,0.62,13.64,0.26
24.74,0.69,13.90,0.67
24.74,0.77,14.12,1.04
24.74,0.86,14.28,1.40
24.75,0.99,14.43,1.84
24.75,1.07,14.49,2.25
24.75,1.07,14.49,2.48
24.75,1.18,14.45,2.77
24.75,1.29,14.42,3.04
24.76,1.47,14.35,3.32
24.76,1.47,14.27,3.35
24.76,1.35,14.18,3.22
24.76,1.10,14.11,3.00
24.77,0.82,14.02,2.64
24.77,0.46,13.90,2.14
24.77,0.18,13.82,1.66
24.77,-0.05,13.75,1.12
24.78,-0.55,13.79,0.51
24.78,-0.82,13.74,-0.11
24.78,-0.84,13.73,-0.61
24.78,-0.93,13.71,-1.13
24.78,-1.09,13.71,-1.64
24.79,-1.23,13.74,-1.91
24.79,-1.23,13.87,-1.96
24.79,-1.23,14.00,-1.84
24.79,-1.16,14.16,-1.60
24.80,-0.98,14.27,-1.22
24.80,-0.82,14.41,-0.77
24.80,-0.67,14.54,-0.31
24.80,-0.56,14.60,0.15
24.80,-0.40,14.60,0.56
24.81,-0.28,14.57,0.93
24.81,-0.24,14.59,1.26
24.81,-0.12,14.47,1.57
24.81,-0.03,14.28,1.79
24.82,0.14,13.91,1.83
24.82,0.34,13.44,1.81
24.82,0.54,13.04,1.77
24.82,0.65,12.74,1.63
24.83,0.64,12.59,1.48
24.83,0.63,12.51,1.26
24.83,0.59,12.47,1.01
24.83,0.57,12.36,0.67
24.83,0.56,12.28,0.32
24.84,0.49,12.21,-0.04
24.84,0.46,12.09,-0.41
24.84,0.41,11.96,-0.71
24.84,0.38,11.84,-0.88
24.85,0.34,11.73,-0.97
24.85,0.27,11.63,-1.03
24.85,0.21,11.51,-1.06
24.85,0.13,11.39,-1.03
24.86,0.04,11.28,-0.96
24.86,-0.05,11.18,-0.85
24.86,-0.16,11.06,-0.77
24.86,-0.25,10.97,-0.66
24.86,-0.34,10.90,-0.54
24.87,-0.41,10.82,-0.41
24.87,-0.49,10.78,-0.28
24.87,-0.60,10.71,-0.21
24.87,-0.71,10.68,-0.11
24.88,-0.82,10.72,0.02
24.88,-0.90,10.73,0.14
24.88,-1.02,10.79,0.26
24.88,-1.12,10.91,0.36
24.89,-1.28,11.03,0.39
24.89,-1.45,11.19,0.44
24.89,-1.58,11.33,0.47
24.89,-1.71,11.49,0.49
24.89,-1.86,11.61,0.51
24.90,-1.95,11.77,0.51
24.90,-2.03,11.90,0.51
24.90,-2.10,12.04,0.49
24.90,-2.18,12.13,0.48
24.91,-2.22,12.21,0.47
24.91,-2.25,12.29,0.48
24.91,-2.33,12.35,0.44
24.91,-2.42,12.39,0.37
24.92,-2.47,12.43,0.30
24.92,-2.50,12.42,0.33
24.92,-2.56,12.42,0.35
24.92,-2.59,12.44,0.48
24.92,-2.65,12.46,0.53
24.93,-2.79,12.46,0.53
24.93,-2.80,12.44,0.56
24.93,-2.88,12.43,0.61
24.93,-2.87,12.39,0.63
24.94,-2.86,12.31,0.68
24.94,-2.79,12.26,0.78
24.94,-2.81,12.22,0.82
24.94,-2.92,12.18,0.83
24.95,-2.98,12.13,0.89
24.95,-2.99,12.03,0.88
24.95,-2.89,11.83,0.76
24.95,-2.85,11.80,0.65
24.95,-2.95,11.78,0.48
24.96,-3.04,11.74,0.34
24.96,-3.12,11.58,0.14
24.96,-3.07,11.52,0.23
24.96,-3.01,11.45,0.47
24.97,-2.98,11.37,0.47
24.97,-2.97,11.29,0.38
24.97,-3.02,11.23,0.37
24.97,-3.07,11.17,0.36
24.98,-3.16,11.16,0.31
24.98,-3.31,11.19,0.28
24.98,-3.53,11.29,0.16
24.98,-3.73,11.33,-0.05
24.98,-3.85,11.32,-0.25
24.99,-3.97,11.36,-0.43
24.99,-4.10,11.43,-0.65
24.99,-4.15,11.48,-0.84
24.99,-4.17,11.47,-1.12
25.00,-4.15,11.42,-1.30
25.00,-4.04,11.34,-1.38
25.00,-3.85,11.26,-1.42
25.00,-3.67,11.08,-1.40
25.01,-3.55,11.01,-1.46
25.01,-3.43,10.87,-1.58
25.01,-3.34,10.70,-1.80
25.01,-3.35,10.64,-1.94
25.01,-3.27,10.60,-1.96
25.02,-3.18,10.47,-2.00
25.02,-3.04,10.42,-1.89
25.02,-2.86,10.33,-1.72
25.02,-2.80,10.25,-1.57
25.03,-2.79,10.19,-1.50
25.03,-2.77,10.06,-1.37
25.03,-2.77,9.94,-1.24
25.03,-2.86,9.87,-1.16
25.03,-2.90,9.84,-0.98
25.04,-2.94,9.74,-0.78
25.04,-2.97,9.64,-0.57
25.04,-2.96,9.53,-0.34
25.04,-2.94,9.47,-0.08
25.05,-2.88,9.39,0.08
25.05,-2.91,9.35,0.51
25.05,-3.07,9.63,0.98
25.05,-3.04,9.72,1.27
25.06,-2.89,9.68,1.41
25.06,-2.73,9.52,1.39
25.06,-2.61,9.35,1.48
25.06,-2.59,9.19,1.52
25.06,-2.55,8.96,1.47
25.07,-2.44,8.71,1.29
25.07,-2.46,8.69,0.97
25.07,-2.69,8.83,0.41
25.07,-2.77,8.93,0.02
25.08,-2.64,8.99,-0.10
25.08,-2.47,9.01,0.11
25.08,-2.39,9.05,0.35
25.08,-2.31,9.06,0.48
25.09,-2.10,9.01,0.53
25.09,-1.80,8.83,0.42
25.09,-1.47,8.64,0.19
25.09,-1.26,8.49,0.03
25.09,-0.99,8.30,0.14
25.10,-0.77,8.11,0.38
25.10,-0.69,7.87,0.72
25.10,-0.74,7.62,1.02
25.10,-0.91,7.41,0.46
25.11,-0.96,7.20,0.24
25.11,-0.87,7.03,0.13
25.11,-0.67,6.80,-0.20
25.11,-0.47,6.59,-0.36
25.12,-0.36,6.38,-0.52
25.12,-0.37,6.20,-0.71
25.12,-0.39,6.02,-0.82
25.12,-0.39,5.87,-0.80
25.12,-0.41,5.73,-0.87
25.13,-0.58,5.71,-1.07
25.13,-0.70,5.70,-1.35
25.13,-0.73,5.70,-1.52
25.13,-0.77,5.63,-1.58
25.14,-0.83,5.46,-1.55
25.14,-0.78,5.30,-1.59
25.14,-0.78,5.24,-1.54
25.14,-0.94,5.20,-1.52
25.15,-0.96,5.16,-1.34
25.15,-1.03,5.15,-1.16
25.15,-1.01,5.15,-1.06
25.15,-1.01,5.17,-1.26
25.15,-0.92,5.12,-1.50
25.16,-0.71,5.03,-1.67
25.16,-0.57,4.94,-1.93
25.16,-0.57,4.82,-2.47
25.16,-0.66,4.83,-2.68
25.17,-0.71,4.79,-2.86
25.17,-0.91,4.86,-3.13
25.17,-1.09,4.86,-3.52
25.17,-1.14,4.90,-3.71
25.18,-1.07,4.84,-3.79
25.18,-0.86,4.72,-3.89
25.18,-0.70,4.59,-3.77
25.18,-0.85,4.63,-3.86
25.18,-0.88,4.60,-4.01
25.19,-0.89,4.54,-4.22
25.19,-1.04,4.51,-4.23
25.19,-1.23,4.52,-4.03
25.19,-1.30,4.46,-3.73
25.20,-1.26,4.45,-3.55
25.20,-1.17,4.34,-3.36
25.20,-1.18,4.33,-2.95
25.20,-1.08,4.29,-2.93
25.21,-1.19,4.38,-2.89
25.21,-1.29,4.48,-2.74
25.21,-1.34,4.48,-2.91
25.21,-1.39,4.33,-3.62
25.21,-1.65,4.39,-3.81
25.22,-1.74,4.38,-3.76
25.22,-1.79,4.31,-4.13
25.22,-2.04,4.39,-4.54
25.22,-2.10,4.34,-4.98
25.23,-2.18,4.29,-5.41
25.23,-2.16,4.19,-5.76
25.23,-2.17,4.13,-6.04
25.23,-2.09,4.00,-6.13
25.23,-2.20,4.00,-6.20
25.24,-2.22,3.88,-6.15
25.24,-2.27,3.84,-6.21
25.24,-2.49,3.88,-6.31
25.24,-2.59,3.87,-6.18
25.25,-2.64,3.82,-6.20
25.25,-2.65,3.75,-6.25
25.25,-2.67,3.65,-6.22
25.25,-2.71,3.58,-6.20
25.26,-2.72,3.50,-6.29
25.26,-2.72,3.42,-6.44
25.26,-2.77,3.29,-6.52
25.26,-2.70,3.19,-6.69
25.26,-2.56,3.00,-6.82
25.27,-2.46,2.86,-6.84
25.27,-2.46,2.79,-6.92
25.27,-2.44,2.65,-6.97
25.27,-2.49,2.61,-7.12
25.28,-2.36,2.49,-7.24
25.28,-2.40,2.44,-7.39
25.28,-2.42,2.33,-7.50
25.28,-2.41,2.26,-7.57
25.29,-2.44,2.20,-7.75
25.29,-2.38,2.10,-7.79
25.29,-2.33,1.93,-7.89
25.29,-2.23,1.80,-8.05
25.29,-2.29,1.78,-8.22
25.30,-2.20,1.66,-8.35
25.30,-2.17,1.58,-8.47
25.30,-2.13,1.53,-8.50
25.30,-2.08,1.50,-8.52
25.31,-2.02,1.48,-8.52
25.31,-1.99,1.50,-8.50
25.31,-1.99,1.53,-8.44
25.31,-1.96,1.58,-8.41
25.32,-1.99,1.68,-8.34
25.32,-2.06,1.84,-8.14
25.32,-2.05,1.95,-7.96
25.32,-2.09,2.09,-7.80
25.32,-2.18,2.23,-7.69
25.33,-2.32,2.39,-7.52
25.33,-2.43,2.53,-7.39
25.33,-2.47,2.63,-7.19
25.33,-2.55,2.71,-7.06
25.34,-2.55,2.75,-7.05
25.34,-2.54,2.83,-6.92
25.34,-2.53,2.85,-6.85
25.34,-2.53,2.92,-6.82
25.35,-2.48,2.96,-6.80
25.35,-2.38,2.97,-6.82
25.35,-2.27,2.99,-6.82
25.35,-2.15,3.01,-6.80
25.35,-2.05,3.05,-6.87
25.36,-1.90,3.07,-6.95
25.36,-1.72,3.09,-7.05
25.36,-1.60,3.14,-7.14
25.36,-1.48,3.18,-7.21
25.37,-1.37,3.21,-7.33
25.37,-1.21,3.24,-7.45
25.37,-1.14,3.30,-7.59
25.37,-1.02,3.37,-7.78
25.38,-0.91,3.41,-8.01
25.38,-0.82,3.47,-8.26
25.38,-0.73,3.55,-8.49
25.38,-0.65,3.58,-8.71
25.38,-0.57,3.60,-8.92
25.39,-0.48,3.63,-9.14
25.39,-0.43,3.68,-9.43
25.39,-0.39,3.70,-9.75
25.39,-0.36,3.75,-9.95
25.40,-0.29,3.77,-10.24
25.40,-0.25,3.83,-10.56
25.40,-0.20,3.88,-10.88
25.40,-0.24,4.01,-11.11
25.41,-0.27,4.13,-11.34
25.41,-0.35,4.29,-11.50
25.41,-0.45,4.48,-11.62
25.41,-0.57,4.72,-11.73
25.41,-0.70,4.97,-11.68
25.42,-0.86,5.27,-11.37
25.42,-1.02,5.60,-11.03
25.42,-1.25,6.02,-10.65
25.42,-1.45,6.46,-9.75
25.43,-1.66,6.92,-9.25
25.43,-1.86,7.39,-8.56
25.43,-2.21,7.85,-8.03
25.43,-2.70,8.35,-7.39
25.43,-3.32,8.80,-6.89
25.44,-4.04,9.24,-6.52
25.44,-4.77,9.61,-6.27
25.44,-5.54,10.02,-5.97
25.44,-6.18,10.38,-5.75
25.45,-6.63,10.67,-5.60
25.45,-6.93,10.88,-5.57
25.45,-7.02,10.96,-5.76
25.45,-7.02,10.93,-5.87
25.46,-6.98,10.73,-6.08
25.46,-6.96,10.46,-6.29
25.46,-6.82,10.04,-6.55
25.46,-6.62,9.64,-6.85
25.46,-6.31,9.29,-7.20
25.47,-5.94,8.92,-7.70
25.47,-5.73,8.69,-8.48
25.47,-5.51,8.45,-9.23
25.47,-5.55,8.27,-10.06
25.48,-5.65,8.14,-10.77
25.48,-5.61,8.03,-11.16
25.48,-5.34,7.90,-11.24
25.48,-4.67,7.65,-10.83
25.49,-3.85,7.34,-10.42
25.49,-3.31,7.20,-10.13
25.49,-3.01,7.14,-9.97
25.49,-2.96,7.23,-9.80
25.49,-2.99,7.40,-9.34
25.50,-2.90,7.59,-8.63
25.50,-2.85,7.66,-7.76
25.50,-2.81,7.67,-7.09
25.50,-2.87,7.55,-6.56
25.51,-3.11,7.43,-6.19
25.51,-3.44,7.31,-5.90
25.51,-3.85,7.26,-5.88
25.51,-4.22,7.19,-6.07
25.52,-4.68,7.29,-6.36
25.52,-5.08,7.51,-6.71
25.52,-5.42,7.87,-7.05
25.52,-5.60,8.25,-7.47
25.52,-5.78,8.69,-7.90
25.53,-5.87,9.14,-8.27
25.53,-5.89,9.59,-8.49
25.53,-5.78,9.99,-8.52
25.53,-5.65,10.35,-8.43
25.54,-5.47,10.71,-8.17
25.54,-5.24,10.96,-7.87
25.54,-5.08,11.19,-7.63
25.54,-4.94,11.38,-7.41
25.55,-4.82,11.56,-7.29
25.55,-4.74,11.71,-7.17
25.55,-4.59,11.78,-7.03
25.55,-4.50,11.85,-6.85
25.55,-4.41,11.92,-6.68
25.56,-4.33,11.94,-6.59
25.56,-4.25,11.98,-6.47
25.56,-4.12,11.96,-6.30
25.56,-3.98,11.91,-6.14
25.57,-3.83,11.89,-6.19
25.57,-3.68,11.79,-5.71
25.57,-3.57,11.71,-5.58
25.57,-3.46,11.57,-5.38
25.58,-3.36,11.41,-5.14
25.58,-3.27,11.28,-4.90
25.58,-3.20,11.13,-4.61
25.58,-3.11,10.91,-4.29
25.58,-3.04,10.69,-4.08
25.59,-2.96,10.48,-4.00
25.59,-2.89,10.25,-3.97
25.59,-2.82,10.00,-3.98
25.59,-2.68,9.76,-3.95
25.60,-2.63,9.54,-3.96
25.60,-2.64,9.37,-4.01
25.60,-2.51,9.16,-4.01
25.60,-2.33,8.91,-3.93
25.61,-2.08,8.64,-3.78
25.61,-1.97,8.42,-3.63
25.61,-1.93,8.24,-3.60
25.61,-1.89,8.09,-3.56
25.61,-1.81,7.94,-3.48
25.62,-1.72,7.78,-3.40
25.62,-1.58,7.62,-3.22
25.62,-1.49,7.52,-3.13
25.62,-1.39,7.44,-3.05
25.63,-1.31,7.38,-2.99
25.63,-1.16,7.31,-2.84
25.63,-1.06,7.27,-2.76
25.63,-1.11,7.32,-2.67
25.63,-1.17,7.37,-2.69
25.64,-1.11,7.46,-2.62
25.64,-1.09,7.52,-2.48
25.64,-1.06,7.63,-2.32
25.64,-1.03,7.77,-2.29
25.65,-1.08,7.95,-2.28
25.65,-1.11,8.07,-2.29
25.65,-1.07,8.23,-2.32
25.65,-1.01,8.36,-2.37
25.66,-1.00,8.45,-2.27
25.66,-1.03,8.61,-2.24
25.66,-1.03,8.76,-2.23
25.66,-1.06,8.95,-2.10
25.66,-1.01,9.03,-2.06
25.67,-0.98,9.12,-2.02
25.67,-0.91,9.15,-1.94
25.67,-0.94,9.18,-1.77
25.67,-0.76,8.95,-1.68
25.68,-0.66,8.84,-1.61
25.68,-0.84,8.91,-1.60
25.68,-0.96,9.02,-1.38
25.68,-1.06,9.10,-1.33
25.69,-1.23,9.22,-1.32
25.69,-1.44,9.38,-1.34
25.69,-1.61,9.46,-1.39
25.69,-1.84,9.62,-1.41
25.69,-2.11,9.83,-1.37
25.70,-2.24,10.01,-1.35
25.70,-2.26,10.10,-1.34
25.70,-2.17,10.10,-1.41
25.70,-1.98,10.07,-1.40
25.71,-1.66,10.04,-1.36
25.71,-1.32,9.99,-1.26
25.71,-1.04,9.96,-1.12
25.71,-0.77,9.98,-0.79
25.72,-0.55,9.97,-0.39
25.72,-0.39,9.98,0.03
25.72,-0.22,9.93,0.32
25.72,-0.16,9.91,0.46
25.72,-0.09,9.86,0.45
25.73,0.00,9.81,0.41
25.73,-0.08,9.81,0.23
25.73,-0.21,9.81,-0.15
25.73,-0.20,9.71,-0.53
25.74,-0.09,9.56,-0.90
25.74,-0.12,9.49,-1.31
25.74,-0.19,9.40,-1.76
25.74,-0.15,9.19,-2.19
25.75,-0.10,8.93,-2.59
25.75,-0.10,8.70,-2.97
25.75,-0.06,8.44,-3.21
25.75,0.15,8.11,-3.34
25.75,0.33,7.81,-3.32
25.76,0.42,7.56,-3.40
25.76,0.38,7.35,-3.69
25.76,0.35,7.07,-3.49
25.76,0.30,6.86,-3.31
25.77,0.31,6.65,-3.05
25.77,0.34,6.49,-2.77
25.77,0.35,6.37,-2.49
25.77,0.39,6.27,-2.23
25.78,0.43,6.22,-2.03
25.78,0.50,6.19,-1.89
25.78,0.50,6.13,-1.84
25.78,0.47,6.06,-1.83
25.78,0.46,6.02,-1.86
25.79,0.50,5.97,-1.89
25.79,0.55,5.92,-1.88
25.79,0.57,5.87,-1.82
25.79,0.56,5.87,-1.76
25.80,0.49,5.90,-1.71
25.80,0.48,5.95,-1.54
25.80,0.37,6.04,-1.37
25.80,0.24,6.19,-1.28
25.81,0.15,6.39,-1.23
25.81,0.13,6.66,-1.05
25.81,0.21,6.77,-0.99
25.81,0.42,6.69,-1.16
25.81,0.57,6.64,-1.38
25.82,0.56,6.84,-1.35
25.82,0.47,7.07,-1.22
25.82,0.40,7.35,-1.04
25.82,0.28,7.61,-0.90
25.83,0.20,7.82,-0.80
25.83,0.17,8.03,-0.69
25.83,0.21,8.22,-0.64
25.83,0.18,8.40,-0.66
25.83,0.01,8.63,-0.76
25.84,-0.11,8.84,-0.85
25.84,-0.16,9.03,-0.84
25.84,-0.15,9.25,-0.81
25.84,-0.17,9.43,-0.77
25.85,-0.21,9.50,-0.70
25.85,-0.15,9.56,-0.56
25.85,0.08,9.52,-0.44
25.85,0.24,9.46,-0.33
25.86,0.20,9.57,-0.26
25.86,0.04,9.61,-0.25
25.86,-0.21,9.69,-0.31
25.86,-0.50,9.79,-0.39
25.86,-0.78,9.93,-0.47
25.87,-1.01,10.09,-0.54
25.87,-1.31,10.21,-0.70
25.87,-1.60,10.33,-0.98
25.87,-1.85,10.28,-1.32
25.88,-2.07,10.21,-1.69
25.88,-2.23,10.07,-1.97
25.88,-2.24,9.86,-2.17
25.88,-2.27,9.65,-2.21
25.89,-2.32,9.49,-2.23
25.89,-2.28,9.35,-2.12
25.89,-2.16,9.17,-1.98
25.89,-1.98,8.98,-1.74
25.89,-1.90,8.86,-1.57
25.90,-1.93,8.76,-1.47
25.90,-1.86,8.63,-1.55
25.90,-1.68,8.45,-1.66
25.90,-1.50,8.35,-1.80
25.91,-1.33,8.28,-2.04
25.91,-1.18,8.18,-2.37
25.91,-1.15,8.22,-2.65
25.91,-1.22,8.32,-2.88
25.92,-1.21,8.40,-3.11
25.92,-1.18,8.63,-3.23
25.92,-1.17,8.86,-3.28
25.92,-1.02,8.99,-3.20
25.92,-0.65,9.16,-2.89
25.93,-0.41,9.42,-2.36
25.93,-0.28,9.69,-1.86
25.93,-0.27,10.02,-1.39
25.93,-0.28,10.43,-0.94
25.94,-0.19,10.57,-0.65
25.94,-0.29,10.89,-0.24
25.94,-0.19,11.06,0.24
25.94,0.15,11.08,0.68
25.95,0.45,11.17,1.02
25.95,0.63,11.19,1.33
25.95,0.74,11.22,1.51
25.95,0.86,11.13,1.59
25.95,0.82,11.03,1.52
25.96,0.72,10.96,1.48
25.96,1.02,10.75,1.65
25.96,1.32,10.55,1.84
25.96,1.39,10.42,1.94
25.97,1.40,10.23,1.95
25.97,1.33,10.05,1.95
25.97,1.26,9.88,1.91
25.97,1.23,9.70,1.79
25.98,1.27,9.55,1.73
25.98,1.09,9.44,1.54
25.98,0.89,9.31,1.23
25.98,1.14,9.12,1.18
25.98,1.34,9.00,1.15
25.99,1.35,9.02,0.97
25.99,1.26,9.00,0.66
25.99,1.23,9.00,0.35
25.99,1.13,9.08,0.04
26.00,1.04,9.17,-0.22
26.00,0.95,9.25,-0.42
26.00,0.87,9.36,-0.60
26.00,0.81,9.36,-0.75
26.01,0.78,9.43,-0.88
26.01,0.70,9.55,-0.96
26.01,0.63,9.65,-1.03
26.01,0.57,9.76,-1.13
26.01,0.54,9.79,-1.24
26.02,0.59,9.81,-1.34
26.02,0.57,9.83,-1.50
26.02,0.61,9.80,-1.58
26.02,0.61,9.82,-1.71
26.03,0.62,9.84,-1.78
26.03,0.63,9.81,-1.86
26.03,0.62,9.80,-1.91
26.03,0.65,9.75,-1.90
26.03,0.72,9.67,-1.87
26.04,0.82,9.58,-1.81
26.04,0.95,9.44,-1.71
26.04,1.02,9.32,-1.55
26.04,1.10,9.24,-1.41
26.05,1.10,9.18,-1.22
26.05,1.14,9.12,-1.02
26.05,1.14,9.10,-0.79
26.05,1.13,9.08,-0.61
26.06,1.08,9.10,-0.45
26.06,1.02,9.13,-0.27
26.06,0.94,9.15,-0.10
26.06,0.84,9.19,0.06
26.06,0.72,9.25,0.22
26.07,0.54,9.32,0.35
26.07,0.42,9.35,0.44
26.07,0.31,9.41,0.56
26.07,0.15,9.50,0.66
26.08,0.03,9.58,0.74
26.08,-0.07,9.65,0.85
26.08,-0.14,9.68,0.96
26.08,-0.27,9.76,1.03
26.09,-0.37,9.84,1.11
26.09,-0.42,9.90,1.18
26.09,-0.47,9.92,1.21
26.09,-0.55,9.96,1.23
26.09,-0.57,10.01,1.21
26.10,-0.65,10.06,1.18
26.10,-0.70,10.13,1.08
26.10,-0.77,10.19,1.02
26.10,-0.79,10.27,0.90
26.11,-0.82,10.32,0.81
26.11,-0.88,10.38,0.69
26.11,-0.88,10.45,0.59
26.11,-0.86,10.47,0.50
26.12,-0.81,10.52,0.43
26.12,-0.77,10.59,0.41
26.12,-0.74,10.67,0.40
26.12,-0.67,10.70,0.41
26.12,-0.54,10.75,0.44
26.13,-0.42,10.78,0.49
26.13,-0.31,10.83,0.58
26.13,-0.15,10.89,0.67
26.13,0.04,10.95,0.80
26.14,0.19,11.06,0.95
26.14,0.34,11.18,1.10
26.14,0.47,11.28,1.25
26.14,0.56,11.37,1.40
26.15,0.60,11.48,1.48
26.15,0.60,11.56,1.60
26.15,0.58,11.65,1.74
26.15,0.56,11.73,1.85
26.15,0.46,11.81,1.99
26.16,0.35,11.94,2.15
26.16,0.23,12.10,2.31
26.16,0.12,12.30,2.53
26.16,0.02,12.57,2.80
26.17,-0.05,12.90,3.09
26.17,-0.07,13.29,3.35
26.17,-0.04,13.75,3.48
26.17,0.01,14.15,3.48
26.18,-0.02,14.51,3.32
26.18,-0.04,14.77,3.04
26.18,-0.12,14.92,2.64
26.18,-0.30,14.97,2.18
26.18,-0.47,14.99,1.70
26.19,-0.56,14.99,1.26
26.19,-0.69,14.96,0.86
26.19,-0.74,14.96,0.57
26.19,-0.73,15.02,0.48
26.20,-0.79,15.11,0.40
26.20,-0.97,15.14,0.26
26.20,-1.03,15.12,0.17
26.20,-0.87,15.08,0.22
26.21,-0.73,15.13,0.38
26.21,-0.63,15.23,0.63
26.21,-0.65,15.31,0.91
26.21,-0.74,15.42,1.13
26.21,-0.90,15.50,1.29
26.22,-1.05,15.51,1.36
26.22,-1.17,15.49,1.30
26.22,-1.26,15.44,1.18
26.22,-1.33,15.41,1.08
26.23,-1.38,15.35,0.93
26.23,-1.41,15.31,0.80
26.23,-1.44,15.21,0.71
26.23,-1.48,15.17,0.62
26.23,-1.54,15.09,0.49
26.24,-1.62,14.97,0.40
26.24,-1.72,14.86,0.33
26.24,-1.84,14.77,0.31
26.24,-1.94,14.67,0.28
26.25,-1.99,14.53,0.32
26.25,-2.06,14.39,0.37
26.25,-2.11,14.25,0.47
26.25,-2.16,14.18,0.63
26.26,-2.23,14.13,0.84
26.26,-2.23,14.00,0.99
26.26,-2.12,13.82,1.12
26.26,-2.10,13.67,1.24
26.26,-2.10,13.53,1.34
26.27,-2.06,13.40,1.44
26.27,-2.05,13.30,1.51
26.27,-2.04,13.21,1.53
26.27,-2.00,13.12,1.52
26.28,-1.98,13.02,1.49
26.28,-1.96,12.93,1.41
26.28,-1.92,12.84,1.33
26.28,-1.90,12.76,1.12
26.29,-1.90,12.63,0.86
26.29,-1.87,12.57,0.58
26.29,-1.83,12.47,0.26
26.29,-1.79,12.41,-0.04
26.29,-1.80,12.32,-0.40
26.30,-1.78,12.26,-0.71
26.30,-1.75,12.21,-1.05
26.30,-1.75,12.15,-1.43
26.30,-1.75,12.09,-1.76
26.31,-1.72,12.05,-2.10
26.31,-1.74,12.03,-2.36
26.31,-1.75,12.04,-2.59
26.31,-1.79,12.11,-2.85
26.32,-1.82,12.12,-3.12
26.32,-1.84,12.12,-3.34
26.32,-1.84,12.12,-3.64
26.32,-1.85,12.15,-3.90
26.32,-1.85,12.16,-4.26
26.33,-1.87,12.19,-4.65
26.33,-1.90,12.14,-5.06
26.33,-1.90,12.10,-5.38
26.33,-1.85,12.04,-5.65
26.34,-1.91,11.99,-5.92
26.34,-1.99,11.95,-6.19
26.34,-2.10,11.91,-6.38
26.34,-2.12,11.86,-6.46
26.35,-2.11,11.79,-6.41
26.35,-2.06,11.73,-6.23
26.35,-2.15,11.74,-5.98
26.35,-2.24,11.84,-6.00
26.35,-2.30,11.92,-6.18
26.36,-2.42,12.01,-6.30
26.36,-2.46,12.13,-6.08
26.36,-2.63,12.32,-5.81
26.36,-2.86,12.49,-5.60
26.37,-2.92,12.56,-5.29
26.37,-2.86,12.59,-4.77
26.37,-2.77,12.64,-4.10
26.37,-2.76,12.58,-3.57
26.38,-2.80,12.45,-3.16
26.38,-2.78,12.26,-2.74
26.38,-2.79,12.19,-2.19
26.38,-2.76,12.12,-1.63
26.38,-2.73,12.08,-1.02
26.39,-2.76,12.07,-0.44
26.39,-2.75,11.98,0.13
26.39,-2.74,11.86,0.60
26.39,-2.78,11.82,1.06
26.40,-2.69,11.80,1.48
26.40,-2.63,11.82,1.86
26.40,-2.57,11.92,2.27
26.40,-2.37,11.86,2.68
26.41,-2.03,11.76,3.12
26.41,-1.82,11.71,3.51
26.41,-1.68,11.66,3.92
26.41,-1.46,11.49,4.30
26.41,-1.25,11.28,4.73
26.42,-1.02,11.03,5.22
26.42,-0.74,10.66,5.64
26.42,-0.28,10.10,6.09
26.42,0.05,9.43,6.05
26.43,0.06,8.88,5.59
26.43,-0.44,8.63,4.93
26.43,-0.92,8.52,4.23
26.43,-1.14,8.35,3.71
26.43,-1.42,8.41,3.38
26.44,-1.75,8.42,3.07
26.44,-1.85,8.26,2.64
26.44,-1.77,8.02,2.04
26.44,-1.61,7.82,1.29
26.45,-1.30,7.59,0.46
26.45,-0.98,7.41,-0.25
26.45,-0.67,7.22,-0.63
26.45,-0.27,6.97,-1.41
26.46,0.05,6.72,-1.89
26.46,0.29,6.43,-2.40
26.46,0.48,6.14,-2.93
26.46,0.58,5.87,-3.28
26.46,0.63,5.68,-3.50
26.47,0.58,5.51,-3.45
26.47,0.45,5.47,-3.02
26.47,0.26,5.51,-2.37
26.47,-0.05,5.53,-2.11
26.48,-0.45,5.59,-2.03
26.48,-0.84,5.65,-2.01
26.48,-1.08,5.68,-1.81
26.48,-1.34,5.77,-1.56
26.49,-1.59,5.85,-1.24
26.49,-1.76,5.93,-0.95
26.49,-1.86,5.98,-0.65
26.49,-1.98,6.03,-0.43
26.49,-2.13,6.09,-0.33
26.50,-2.19,6.12,-0.30
26.50,-2.11,6.10,-0.39
26.50,-1.96,6.01,-0.54
26.50,-1.82,5.88,-0.64
26.51,-1.66,5.72,-0.71
26.51,-1.58,5.56,-0.85
26.51,-1.48,5.36,-1.14
26.51,-1.65,5.24,-1.45
26.52,-1.84,5.10,-1.74
26.52,-1.90,4.97,-1.97
26.52,-1.94,4.76,-2.27
26.52,-1.89,4.55,-2.58
26.52,-1.84,4.37,-2.66
26.53,-1.84,4.20,-2.79
26.53,-1.94,4.10,-3.11
26.53,-1.94,4.00,-3.46
26.53,-1.83,3.82,-3.64
26.54,-1.68,3.61,-3.64
26.54,-1.73,3.53,-3.83
26.54,-1.75,3.45,-4.02
26.54,-1.80,3.37,-4.10
26.55,-1.91,3.29,-4.20
26.55,-1.96,3.15,-4.34
26.55,-2.08,3.08,-4.62
26.55,-2.21,3.01,-4.66
26.55,-2.35,2.96,-4.66
26.56,-2.44,2.93,-4.42
26.56,-2.44,2.90,-4.05
26.56,-2.27,2.82,-3.66
26.56,-2.34,2.82,-3.34
26.57,-2.55,2.97,-3.32
26.57,-2.58,3.06,-3.40
26.57,-2.34,2.96,-3.31
26.57,-2.14,2.90,-3.29
26.58,-2.13,2.96,-3.27
26.58,-2.11,3.02,-3.32
26.58,-1.96,2.96,-3.12
26.58,-2.01,2.99,-3.33
26.58,-2.13,3.02,-3.78
26.59,-2.12,2.99,-3.92
26.59,-1.90,2.83,-4.26
26.59,-1.76,2.70,-4.57
26.59,-1.80,2.75,-4.92
26.60,-1.97,2.83,-5.46
26.60,-2.00,2.88,-5.73
26.60,-1.94,2.80,-5.70
26.60,-1.92,2.75,-5.82
26.61,-1.97,2.75,-5.98
26.61,-1.93,2.65,-5.94
26.61,-2.01,2.60,-5.90
26.61,-2.08,2.55,-5.84
26.61,-2.02,2.44,-5.79
26.62,-1.99,2.29,-5.84
26.62,-2.09,2.24,-5.87
26.62,-2.17,2.17,-5.85
26.62,-2.29,2.18,-5.88
26.63,-2.32,2.08,-5.87
26.63,-2.35,2.00,-5.83
26.63,-2.48,2.03,-5.90
26.63,-2.50,1.93,-6.01
26.64,-2.48,1.84,-6.06
26.64,-2.42,1.76,-6.12
26.64,-2.44,1.79,-6.16
26.64,-2.52,1.88,-6.24
26.64,-2.48,1.90,-6.36
26.65,-2.48,2.00,-6.52
26.65,-2.41,2.02,-6.67
26.65,-2.28,2.05,-6.80
26.65,-2.20,2.10,-7.02
26.66,-2.24,2.22,-7.29
26.66,-2.26,2.31,-7.43
26.66,-2.26,2.41,-7.47
26.66,-2.14,2.46,-7.38
26.66,-2.12,2.55,-7.33
26.67,-2.07,2.60,-7.23
26.67,-2.06,2.68,-7.08
26.67,-2.08,2.73,-7.05
26.67,-2.06,2.76,-6.94
26.68,-2.05,2.77,-6.91
26.68,-2.08,2.81,-6.85
26.68,-2.16,2.89,-6.83
26.68,-2.27,2.97,-6.76
26.69,-2.31,3.05,-6.78
26.69,-2.34,3.11,-6.73
26.69,-2.28,3.17,-6.73
26.69,-2.31,3.22,-6.72
26.69,-2.41,3.30,-6.80
26.70,-2.38,3.34,-6.94
26.70,-2.42,3.41,-7.04
26.70,-2.46,3.42,-7.09
26.70,-2.42,3.49,-7.19
26.71,-2.40,3.61,-7.34
26.71,-2.40,3.75,-7.45
26.71,-2.33,3.89,-7.47
26.71,-2.19,4.01,-7.52
26.72,-2.11,4.25,-7.48
26.72,-1.98,4.48,-7.32
26.72,-1.86,4.77,-7.22
26.72,-1.67,4.99,-7.25
26.72,-1.41,5.22,-7.20
26.73,-1.21,5.46,-7.15
26.73,-1.01,5.69,-7.10
26.73,-0.88,5.88,-7.11
26.73,-0.88,6.07,-7.15
26.74,-0.86,6.19,-7.16
26.74,-0.85,6.28,-7.35
26.74,-0.88,6.39,-7.66
26.74,-0.91,6.47,-7.77
26.75,-0.86,6.50,-7.95
26.75,-0.82,6.59,-8.21
26.75,-0.76,6.67,-8.46
26.75,-0.68,6.81,-8.76
26.75,-0.60,6.95,-9.01
26.76,-0.55,7.10,-9.28
26.76,-0.56,7.30,-9.77
26.76,-0.60,7.59,-10.17
26.76,-0.59,7.90,-10.51
26.77,-0.62,8.24,-11.00
26.77,-0.63,8.64,-11.55
26.77,-0.68,9.05,-12.11
26.77,-0.77,9.46,-12.70
26.78,-0.84,9.86,-13.21
26.78,-0.91,10.18,-13.55
26.78,-1.04,10.43,-13.69
26.78,-1.24,10.59,-13.56
26.78,-1.41,10.53,-13.05
26.79,-1.64,10.36,-12.23
26.79,-1.85,10.07,-11.21
26.79,-2.06,9.66,-9.99
26.79,-2.23,9.23,-8.79
26.80,-2.41,8.76,-7.71
26.80,-2.58,8.27,-6.91
26.80,-2.78,7.77,-6.15
26.80,-3.14,7.30,-5.45
26.81,-3.62,6.86,-4.77
26.81,-4.17,6.41,-4.19
26.81,-4.79,5.95,-3.69
26.81,-5.46,5.50,-3.17
26.81,-6.07,4.97,-2.67
26.82,-6.69,4.47,-2.29
26.82,-7.30,3.99,-2.12
26.82,-7.82,3.59,-2.21
26.82,-8.18,3.28,-2.47
26.83,-8.28,3.06,-2.97
26.83,-8.24,3.04,-3.72
26.83,-8.12,3.26,-4.63
26.83,-7.82,3.64,-5.65
26.84,-7.40,4.13,-6.74
26.84,-6.97,4.74,-7.84
26.84,-6.48,5.41,-8.83
26.84,-6.06,6.10,-9.77
26.84,-5.70,6.78,-10.60
26.85,-5.33,7.39,-11.30
26.85,-4.90,7.88,-11.75
26.85,-4.39,8.24,-12.03
26.85,-3.80,8.52,-11.98
26.86,-3.27,8.80,-11.83
26.86,-2.83,9.01,-11.58
26.86,-2.45,9.23,-11.05
26.86,-2.21,9.38,-10.61
26.86,-2.07,9.47,-9.97
26.87,-2.12,9.48,-9.25
26.87,-2.15,9.36,-8.40
26.87,-2.33,9.24,-7.50
26.87,-2.52,9.10,-6.74
26.88,-2.82,8.97,-6.20
26.88,-3.29,8.96,-5.89
26.88,-3.79,9.07,-5.75
26.88,-4.15,9.21,-5.68
26.89,-4.49,9.33,-5.70
26.89,-4.79,9.43,-5.77
26.89,-5.07,9.55,-5.91
26.89,-5.26,9.71,-6.06
26.89,-5.41,9.99,-6.32
26.90,-5.50,10.28,-6.55
26.90,-5.61,10.62,-6.82
26.90,-5.64,10.94,-7.03
26.90,-5.59,11.20,-7.13
26.91,-5.53,11.47,-7.24
26.91,-5.40,11.70,-7.33
26.91,-5.22,11.89,-7.38
26.91,-5.06,12.03,-7.42
26.92,-4.87,12.14,-7.45
26.92,-4.66,12.18,-7.38
26.92,-4.45,12.18,-7.27
26.92,-4.25,12.12,-7.25
26.92,-4.01,12.05,-7.23
26.93,-3.87,11.96,-7.24
26.93,-3.67,11.81,-7.16
26.93,-3.54,11.65,-7.04
26.93,-3.41,11.47,-6.90
26.94,-3.30,11.26,-6.64
26.94,-3.14,11.01,-6.54
26.94,-3.02,10.77,-5.99
26.94,-2.89,10.53,-5.78
26.95,-2.84,10.29,-5.47
26.95,-2.73,10.03,-5.16
26.95,-2.66,9.79,-4.80
26.95,-2.63,9.61,-4.56
26.95,-2.60,9.41,-4.32
26.96,-2.51,9.25,-4.13
26.96,-2.45,9.11,-3.91
26.96,-2.38,8.98,-3.70
26.96,-2.27,8.87,-3.49
26.97,-2.15,8.79,-3.24
26.97,-2.05,8.71,-3.09
26.97,-1.97,8.66,-2.94
26.97,-1.85,8.66,-2.80
26.98,-1.75,8.64,-2.62
26.98,-1.59,8.58,-2.43
26.98,-1.47,8.54,-2.25
26.98,-1.39,8.50,-2.12
26.98,-1.30,8.47,-2.03
26.99,-1.21,8.46,-1.96
26.99,-1.11,8.39,-2.00
26.99,-1.04,8.37,-2.04
26.99,-1.02,8.33,-2.01
27.00,-0.93,8.28,-2.01
27.00,-0.85,8.24,-1.93
27.00,-0.82,8.23,-1.92
27.00,-0.83,8.21,-2.03
27.01,-0.89,8.17,-2.13
27.01,-0.85,8.13,-2.18
27.01,-0.85,8.10,-2.23
27.01,-0.90,8.09,-2.30
27.01,-0.86,8.04,-2.47
27.02,-0.84,7.97,-2.65
27.02,-0.84,7.97,-2.89
27.02,-0.90,7.95,-3.19
27.02,-1.00,7.95,-3.45
27.03,-0.90,7.87,-3.46
27.03,-0.57,7.67,-3.22
27.03,-0.17,7.34,-2.89
27.03,0.05,7.13,-2.52
27.04,0.20,7.00,-2.21
27.04,0.07,7.05,-2.14
27.04,-0.11,7.19,-2.04
27.04,-0.28,7.34,-1.98
27.04,-0.48,7.46,-1.81
27.05,-0.64,7.62,-1.50
27.05,-0.86,7.83,-1.24
27.05,-1.12,8.05,-1.16
27.05,-1.39,8.33,-1.07
27.06,-1.55,8.57,-1.07
27.06,-1.58,8.71,-1.15
27.06,-1.45,8.86,-1.14
27.06,-1.35,9.11,-1.11
27.06,-1.25,9.33,-1.05
27.07,-1.19,9.56,-0.96
27.07,-1.18,9.77,-1.05
27.07,-1.25,9.99,-1.23
27.07,-1.39,10.28,-1.49
27.08,-1.50,10.50,-1.85
27.08,-1.60,10.68,-2.10
27.08,-1.60,10.84,-2.28
27.08,-1.45,10.88,-2.37
27.09,-1.32,10.94,-2.37
27.09,-1.17,10.93,-2.34
27.09,-1.11,10.96,-2.28
27.09,-1.17,11.03,-2.26
27.09,-1.29,11.16,-2.34
27.10,-1.27,11.10,-2.48
27.10,-1.16,10.95,-2.68
27.10,-1.11,10.83,-2.94
27.10,-1.05,10.64,-3.27
27.11,-0.98,10.35,-3.63
27.11,-0.94,10.07,-3.99
27.11,-0.85,9.72,-4.26
27.11,-0.76,9.32,-4.33
27.12,-0.69,8.97,-4.39
27.12,-0.64,8.58,-4.41
27.12,-0.63,8.24,-4.29
27.12,-0.62,7.93,-4.21
27.12,-0.59,7.65,-4.04
27.13,-0.73,7.46,-3.82
27.13,-0.83,7.31,-3.52
27.13,-0.84,7.13,-3.30
27.13,-0.85,7.00,-3.07
27.14,-0.78,6.87,-2.80
27.14,-0.71,6.71,-2.55
27.14,-0.65,6.62,-2.34
27.14,-0.62,6.56,-2.18
27.15,-0.53,6.51,-2.10
27.15,-0.50,6.50,-2.05
27.15,-0.45,6.56,-2.03
27.15,-0.43,6.85,-1.83
27.15,-0.26,6.87,-1.77
27.16,-0.01,6.58,-2.14
27.16,0.00,6.53,-2.45
27.16,-0.06,6.65,-2.55
27.16,0.07,6.62,-2.63
27.17,0.22,6.59,-2.67
27.17,0.27,6.63,-2.65
27.17,0.13,6.79,-2.63
27.17,0.02,6.93,-2.54
27.18,0.02,7.02,-2.40
27.18,0.20,7.08,-2.26
27.18,0.40,7.05,-2.23
27.18,0.66,7.00,-2.18
27.18,0.99,6.92,-2.04
27.19,1.26,6.88,-1.72
27.19,1.41,6.91,-1.37
27.19,1.40,7.01,-1.01
27.19,1.19,7.17,-0.77
27.20,0.91,7.40,-0.52
27.20,0.69,7.62,-0.35
27.20,0.54,7.83,-0.19
27.20,0.52,7.94,-0.06
27.21,0.64,8.01,0.00
27.21,0.72,8.09,0.01
27.21,0.70,8.23,0.06
27.21,0.68,8.34,0.07
27.21,0.68,8.46,0.04
27.22,0.70,8.58,-0.02
27.22,0.67,8.75,-0.15
27.22,0.58,8.96,-0.27
27.22,0.51,9.18,-0.47
27.23,0.43,9.38,-0.79
27.23,0.30,9.51,-1.14
27.23,0.15,9.59,-1.50
27.23,-0.01,9.68,-1.80
27.24,-0.16,9.76,-1.97
27.24,-0.19,9.87,-2.04
27.24,-0.03,9.95,-2.08
27.24,0.17,10.00,-2.28
27.24,0.26,10.00,-2.66
27.25,0.20,10.06,-3.01
27.25,-0.07,10.14,-3.20
27.25,-0.29,10.14,-3.25
27.25,-0.33,10.17,-3.19
27.26,-0.35,10.15,-3.20
27.26,-0.55,10.28,-3.24
27.26,-0.80,10.31,-3.34
27.26,-1.03,10.38,-3.45
27.26,-1.00,10.36,-3.54
27.27,-0.92,10.33,-3.56
27.27,-0.85,10.30,-3.64
27.27,-0.83,10.26,-3.87
27.27,-0.82,10.21,-4.06
27.28,-0.81,10.21,-4.21
27.28,-0.79,10.32,-4.32
27.28,-0.91,10.38,-4.42
27.28,-0.85,10.44,-4.36
27.29,-0.62,10.32,-4.29
27.29,-0.48,10.45,-4.17
27.29,-0.40,10.61,-3.89
27.29,-0.29,10.60,-3.70
27.29,-0.29,10.65,-3.52
27.30,-0.35,10.72,-3.26
27.30,-0.32,10.73,-2.93
27.30,-0.06,10.61,-2.54
27.30,0.47,10.44,-2.06
27.31,0.98,10.36,-1.48
27.31,1.38,10.38,-0.86
27.31,1.71,10.34,-0.38
27.31,2.00,10.25,0.12
27.32,2.20,10.22,0.66
27.32,2.48,10.15,1.32
27.32,2.79,10.01,1.87
27.32,2.80,9.85,2.37
27.32,2.62,9.68,2.79
27.33,2.89,9.56,3.48
27.33,3.18,9.54,4.31
27.33,3.22,9.58,5.05
27.33,3.02,9.59,5.49
27.34,2.67,9.58,5.70
27.34,2.37,9.55,5.78
27.34,2.12,9.48,5.71
27.34,1.84,9.45,5.57
27.35,1.63,9.33,5.31
27.35,1.35,9.25,4.92
27.35,0.97,9.17,4.43
27.35,0.81,9.04,4.12
27.35,1.01,9.01,4.05
27.36,1.07,9.05,3.83
27.36,0.83,9.10,3.35
27.36,0.50,9.22,2.79
27.36,0.25,9.29,2.15
27.37,0.07,9.35,1.46
27.37,-0.10,9.43,0.81
27.37,-0.23,9.49,0.19
27.37,-0.36,9.58,-0.39
27.38,-0.37,9.54,-0.92
27.38,-0.50,9.62,-1.40
27.38,-0.59,9.70,-1.79
27.38,-0.65,9.76,-2.10
27.38,-0.69,9.77,-2.40
27.39,-0.79,9.83,-2.61
27.39,-0.84,9.83,-2.80
27.39,-0.94,9.91,-2.99
27.39,-0.89,9.94,-3.18
27.40,-0.95,10.02,-3.36
27.40,-1.03,10.13,-3.49
27.40,-1.04,10.22,-3.63
27.40,-1.08,10.33,-3.72
27.41,-1.06,10.42,-3.70
27.41,-0.91,10.43,-3.62
27.41,-0.82,10.40,-3.41
27.41,-0.80,10.38,-3.18
27.41,-0.95,10.33,-3.00
27.42,-1.29,10.25,-2.94
27.42,-0.86,10.11,-2.36
27.42,-0.65,10.02,-1.83
27.42,-0.73,9.87,-1.39
27.43,-0.89,9.77,-1.07
27.43,-1.04,9.64,-0.80
27.43,-1.05,9.47,-0.44
27.43,-1.07,9.29,-0.08
27.44,-1.19,9.22,0.28
27.44,-1.19,9.10,0.64
27.44,-1.12,8.90,0.95
27.44,-1.02,8.74,1.30
27.44,-0.98,8.64,1.55
27.45,-0.92,8.53,1.79
27.45,-0.81,8.43,1.96
27.45,-0.65,8.35,2.15
27.45,-0.47,8.30,2.25
27.46,-0.35,8.33,2.26
27.46,-0.16,8.28,2.17
27.46,0.05,8.35,2.03
27.46,0.28,8.35,1.84
27.46,0.57,8.37,1.55
27.47,0.67,8.51,1.31
27.47,0.84,8.61,1.12
27.47,0.93,8.76,0.94
27.47,1.00,8.95,0.79
27.48,1.20,9.09,0.72
27.48,1.12,9.32,0.65
27.48,1.11,9.54,0.62
27.48,1.07,9.73,0.54
27.49,1.04,9.89,0.53
27.49,1.02,10.02,0.49
27.49,1.00,10.12,0.40
27.49,0.95,10.19,0.31
27.49,0.84,10.23,0.30
27.50,0.78,10.29,0.31
27.50,0.65,10.36,0.37
27.50,0.49,10.37,0.40
27.50,0.38,10.39,0.48
27.51,0.23,10.40,0.48
27.51,0.06,10.46,0.45
27.51,-0.12,10.57,0.36
27.51,-0.29,10.69,0.20
27.52,-0.44,10.86,-0.02
27.52,-0.58,11.02,-0.27
27.52,-0.68,11.15,-0.57
27.52,-0.70,11.28,-0.84
27.52,-0.67,11.45,-0.94
27.53,-0.66,11.56,-1.08
27.53,-0.66,11.57,-1.19
27.53,-0.60,11.54,-1.27
27.53,-0.55,11.48,-1.23
27.54,-0.51,11.41,-1.12
27.54,-0.49,11.35,-0.94
27.54,-0.52,11.31,-0.67
27.54,-0.57,11.23,-0.43
27.55,-0.60,11.17,-0.19
27.55,-0.66,11.11,0.08
27.55,-0.75,11.10,0.32
27.55,-0.82,11.05,0.52
27.55,-0.89,11.06,0.72
27.56,-0.92,11.03,0.89
27.56,-0.95,11.08,1.03
27.56,-0.96,11.08,1.14
27.56,-0.92,11.11,1.23
27.57,-0.88,11.12,1.31
27.57,-0.79,11.13,1.40
27.57,-0.66,11.17,1.43
27.57,-0.56,11.20,1.39
27.58,-0.43,11.26,1.34
27.58,-0.32,11.33,1.23
27.58,-0.25,11.43,1.11
27.58,-0.16,11.60,1.00
27.58,-0.10,11.78,0.92
27.59,-0.09,12.00,0.82
27.59,-0.08,12.24,0.78
27.59,-0.06,12.49,0.76
27.59,0.01,12.75,0.81
27.60,0.09,12.99,0.85
27.60,0.18,13.16,0.89
27.60,0.27,13.29,1.03
27.60,0.37,13.46,1.17
27.61,0.45,13.65,1.39
27.61,0.57,13.78,1.61
27.61,0.57,13.78,1.67
27.61,0.52,13.73,1.63
27.61,0.45,13.71,1.59
27.62,0.33,13.65,1.50
27.62,0.19,13.58,1.43
27.62,0.05,13.41,1.36
27.62,0.14,13.37,1.57
27.63,0.19,13.34,1.77
27.63,0.11,13.34,1.94
27.63,0.09,13.34,2.05
27.63,0.09,13.36,2.11
27.64,0.07,13.40,2.19
27.64,0.07,13.45,2.20
27.64,0.08,13.50,2.17
27.64,0.09,13.47,2.08
27.64,0.10,13.40,1.97
27.65,0.02,13.30,1.77
27.65,-0.04,13.13,1.54
27.65,-0.15,12.94,1.32
27.65,-0.27,12.77,1.13
27.66,-0.41,12.59,0.96
27.66,-0.53,12.46,0.87
27.66,-0.63,12.31,0.82
27.66,-0.71,12.19,0.85
27.66,-0.77,12.07,0.89
27.67,-0.77,11.95,0.90
27.67,-0.71,11.82,0.90
27.67,-0.65,11.71,0.85
27.67,-0.63,11.60,0.77
27.68,-0.62,11.48,0.65
27.68,-0.61,11.39,0.49
27.68,-0.58,11.32,0.35
27.68,-0.53,11.23,0.16
27.69,-0.48,11.14,-0.04
27.69,-0.44,11.07,-0.27
27.69,-0.38,11.01,-0.46
27.69,-0.36,11.00,-0.71
27.69,-0.37,11.02,-0.91
27.70,-0.35,11.04,-1.11
27.70,-0.40,11.07,-1.26
27.70,-0.39,11.12,-1.40
27.70,-0.37,11.17,-1.50
27.71,-0.35,11.24,-1.57
27.71,-0.32,11.31,-1.62
27.71,-0.26,11.41,-1.62
27.71,-0.20,11.52,-1.56
27.72,-0.14,11.64,-1.50
27.72,-0.07,11.74,-1.38
27.72,0.03,11.87,-1.26
27.72,0.11,12.01,-1.11
27.72,0.17,12.18,-0.99
27.73,0.25,12.34,-0.86
27.73,0.30,12.44,-0.77
27.73,0.36,12.59,-0.67
27.73,0.41,12.67,-0.60
27.74,0.43,12.75,-0.56
27.74,0.47,12.80,-0.52
27.74,0.49,12.85,-0.52
27.74,0.48,12.85,-0.55
27.75,0.50,12.80,-0.67
27.75,0.55,12.74,-0.71
27.75,0.56,12.66,-0.78
27.75,0.61,12.56,-0.85
27.75,0.67,12.45,-0.90
27.76,0.64,12.37,-0.93
27.76,0.65,12.27,-0.97
27.76,0.69,12.12,-1.05
27.76,0.69,11.98,-1.13
27.77,0.72,11.87,-1.16
27.77,0.68,11.74,-1.20
27.77,0.66,11.63,-1.27
27.77,0.59,11.50,-1.32
27.78,0.55,11.34,-1.31
27.78,0.49,11.21,-1.26
27.78,0.36,11.13,-1.12
27.78,0.20,11.04,-0.92
27.78,-0.03,11.02,-0.75
27.79,-0.27,10.96,-0.57
27.79,-0.47,10.98,-0.34
27.79,-0.72,11.00,-0.11
27.79,-0.93,11.05,0.11
27.80,-1.18,11.13,0.40
27.80,-1.38,11.16,0.69
27.80,-1.69,11.22,0.94
27.80,-2.06,11.31,1.13
27.81,-2.43,11.40,1.38
27.81,-2.64,11.45,1.65
27.81,-2.70,11.41,1.89
27.81,-2.83,11.46,2.06
27.81,-3.09,11.58,2.18
27.82,-3.28,11.60,2.14
27.82,-3.48,11.67,2.05
27.82,-3.74,11.78,1.95
27.82,-3.99,11.88,1.79
27.83,-4.19,11.93,1.52
27.83,-4.46,11.97,1.20
27.83,-4.76,12.02,0.90
27.83,-4.98,12.02,0.67
27.84,-5.20,11.91,0.37
27.84,-5.38,11.91,0.09
27.84,-5.58,11.94,-0.14
27.84,-5.74,11.86,-0.38
27.84,-5.83,11.68,-0.69
27.85,-5.81,11.54,-0.90
27.85,-5.75,11.34,-1.05
27.85,-5.59,11.12,-1.24
27.85,-5.43,10.91,-1.40
27.86,-5.23,10.68,-1.65
27.86,-4.98,10.48,-1.89
27.86,-4.73,10.28,-2.09
27.86,-4.45,10.08,-2.16
27.86,-4.15,9.93,-2.22
27.87,-3.86,9.82,-2.24
27.87,-3.62,9.77,-2.30
27.87,-3.36,9.73,-2.35
27.87,-3.16,9.69,-2.41
27.88,-2.94,9.68,-2.43
27.88,-2.81,9.74,-2.43
27.88,-2.71,9.82,-2.33
27.88,-2.62,9.84,-2.23
27.89,-2.56,9.92,-2.18
27.89,-2.47,9.95,-2.13
27.89,-2.45,9.98,-2.14
27.89,-2.41,9.98,-2.15
27.89,-2.52,10.11,-1.98
27.90,-2.57,10.21,-1.91
27.90,-2.46,10.16,-1.72
27.90,-2.30,10.09,-1.46
27.90,-2.25,10.13,-1.19
27.91,-2.44,10.41,-0.93
27.91,-2.59,10.64,-0.75
27.91,-2.58,10.74,-0.57
27.91,-2.61,10.88,-0.25
27.92,-2.68,11.15,0.15
27.92,-2.58,11.26,0.28
27.92,-2.49,11.33,0.35
27.92,-2.50,11.44,0.55
27.92,-2.54,11.57,0.89
27.93,-2.58,11.69,1.17
27.93,-2.41,11.68,1.14
27.93,-2.06,11.53,0.91
27.93,-1.68,11.34,0.52
27.94,-1.20,11.19,0.06
27.94,-0.69,10.98,-0.39
27.94,-0.28,10.75,-1.10
27.94,-0.08,10.55,-1.66
27.95,0.18,10.38,-1.91
27.95,0.41,10.13,-1.97
27.95,0.52,9.88,-1.85
27.95,0.45,9.71,-1.59
27.95,0.24,9.46,-1.00
27.96,0.00,9.18,-0.37
27.96,-0.08,8.80,0.43
27.96,-0.14,8.49,1.07
27.96,-0.36,8.34,1.43
27.97,-0.55,8.28,1.47
27.97,-0.75,8.24,1.48
27.97,-0.88,8.16,1.17
27.97,-0.90,8.05,0.81
27.98,-0.95,7.96,0.65
27.98,-1.06,7.82,0.61
27.98,-1.25,7.66,0.58
27.98,-1.33,7.44,0.67
27.98,-1.35,7.23,0.96
27.99,-1.39,7.03,1.31
27.99,-1.43,6.81,1.39
27.99,-1.40,6.59,1.46
27.99,-1.51,6.37,1.50
28.00,-1.58,6.12,1.60
28.00,-1.59,5.82,1.68
28.00,-1.64,5.58,1.64
28.00,-1.62,5.25,1.43
28.01,-1.61,4.91,1.32
28.01,-1.68,4.62,1.08
28.01,-1.85,4.41,0.65
28.01,-1.86,4.23,0.37
28.01,-1.77,4.07,-0.06
28.02,-1.74,3.97,-0.46
28.02,-1.57,3.75,-0.96
28.02,-1.45,3.61,-1.40
28.02,-1.29,3.43,-1.61
28.03,-1.24,3.32,-1.75
28.03,-1.27,3.18,-1.96
28.03,-1.31,3.10,-2.16
28.03,-1.40,3.10,-2.57
28.04,-1.37,3.02,-2.97
28.04,-1.45,3.07,-3.09
28.04,-1.41,2.99,-3.57
28.04,-1.44,2.99,-4.05
28.04,-1.49,3.01,-4.21
28.05,-1.63,3.12,-4.20
28.05,-1.77,3.20,-4.45
28.05,-1.80,3.20,-4.60
28.05,-1.84,3.25,-4.75
28.06,-1.96,3.34,-4.93
28.06,-2.14,3.30,-4.86
28.06,-2.33,3.37,-5.08
28.06,-2.44,3.46,-5.01
28.07,-2.22,3.38,-4.49
28.07,-2.26,3.45,-4.10
28.07,-2.36,3.46,-3.96
28.07,-2.40,3.47,-3.56
28.07,-2.64,3.60,-3.71
28.08,-2.83,3.71,-3.67
28.08,-2.82,3.73,-3.59
28.08,-2.80,3.68,-3.79
28.08,-2.74,3.63,-3.99
28.09,-2.74,3.65,-4.42
28.09,-2.96,3.73,-4.93
28.09,-3.21,3.79,-5.65
28.09,-3.41,3.90,-6.15
28.09,-3.57,3.98,-6.31
28.10,-3.75,4.14,-6.45
28.10,-3.74,4.17,-6.48
28.10,-3.78,4.29,-6.48
28.10,-3.83,4.42,-6.54
28.11,-3.90,4.50,-6.71
28.11,-4.02,4.61,-7.05
28.11,-3.84,4.56,-7.13
28.11,-3.76,4.62,-6.89
28.12,-3.97,4.91,-6.47
28.12,-3.96,5.09,-6.07
28.12,-3.85,5.16,-6.25
28.12,-3.61,5.13,-6.87
28.12,-3.50,5.18,-7.56
28.13,-3.43,5.14,-7.77
28.13,-3.31,5.07,-7.60
28.13,-3.31,5.00,-7.47
28.13,-3.27,4.93,-7.64
28.14,-3.22,4.86,-7.72
28.14,-3.14,4.74,-7.68
28.14,-3.30,4.75,-7.71
28.14,-3.28,4.68,-7.74
28.15,-3.17,4.60,-7.68
28.15,-3.13,4.52,-7.67
28.15,-3.14,4.44,-7.68
28.15,-3.20,4.36,-7.64
28.15,-3.18,4.27,-7.56
28.16,-3.12,4.17,-7.49
28.16,-3.06,4.06,-7.51
28.16,-3.11,3.99,-7.48
28.16,-3.18,3.87,-7.55
28.17,-3.17,3.80,-7.61
28.17,-2.93,3.64,-7.46
28.17,-2.75,3.51,-7.42
28.17,-2.80,3.51,-7.44
28.18,-2.81,3.46,-7.55
28.18,-2.70,3.35,-7.51
28.18,-2.60,3.23,-7.32
28.18,-2.46,3.19,-7.22
28.18,-2.35,3.17,-7.13
28.19,-2.24,3.14,-7.12
28.19,-2.08,3.12,-7.03
28.19,-1.98,3.09,-6.92
28.19,-1.87,3.06,-6.88
28.20,-1.79,3.04,-6.80
28.20,-1.70,2.99,-6.69
28.20,-1.63,2.96,-6.72
28.20,-1.62,2.93,-6.76
28.21,-1.58,2.89,-6.74
28.21,-1.59,2.82,-6.73
28.21,-1.50,2.77,-6.72
28.21,-1.56,2.77,-6.81
28.21,-1.42,2.68,-6.83
28.22,-1.38,2.60,-6.73
28.22,-1.40,2.56,-6.71
28.22,-1.45,2.50,-6.71
28.22,-1.57,2.49,-6.78
28.23,-1.64,2.49,-6.82
28.23,-1.71,2.46,-6.86
28.23,-1.82,2.47,-6.90
28.23,-1.86,2.43,-7.01
28.24,-1.91,2.41,-7.07
28.24,-2.01,2.40,-7.21
28.24,-1.99,2.39,-7.19
28.24,-2.06,2.41,-7.30
28.24,-2.08,2.41,-7.39
28.25,-2.15,2.49,-7.45
28.25,-2.19,2.53,-7.59
28.25,-2.16,2.53,-7.76
28.25,-2.04,2.45,-7.92
28.26,-1.97,2.48,-7.96
28.26,-2.02,2.56,-8.15
28.26,-1.99,2.64,-8.22
28.26,-1.99,2.79,-8.31
28.27,-1.91,2.89,-8.33
28.27,-1.93,3.01,-8.32
28.27,-2.03,3.16,-8.30
28.27,-1.99,3.20,-8.35
28.27,-2.02,3.32,-8.31
28.28,-2.08,3.43,-8.27
28.28,-2.11,3.51,-8.28
28.28,-2.13,3.64,-8.31
28.28,-2.09,3.71,-8.29
28.29,-2.03,3.77,-8.28
28.29,-2.00,3.85,-8.33
28.29,-1.92,3.90,-8.38
28.29,-1.85,4.00,-8.40
28.29,-1.76,4.08,-8.41
28.30,-1.69,4.14,-8.43
28.30,-1.70,4.24,-8.52
28.30,-1.69,4.32,-8.58
28.30,-1.61,4.37,-8.60
28.31,-1.63,4.47,-8.62
28.31,-1.66,4.54,-8.64
28.31,-1.68,4.61,-8.72
28.31,-1.65,4.61,-8.74
28.32,-1.71,4.60,-8.79
28.32,-1.80,4.63,-8.82
28.32,-1.85,4.61,-8.92
28.32,-1.95,4.62,-8.96
28.32,-2.05,4.64,-9.06
28.33,-2.16,4.71,-9.13
28.33,-2.26,4.72,-9.18
28.33,-2.36,4.77,-9.15
28.33,-2.46,4.82,-9.12
28.34,-2.55,4.89,-9.09
28.34,-2.62,4.92,-8.98
28.34,-2.64,4.96,-8.88
28.34,-2.71,5.01,-8.80
28.35,-2.71,5.04,-8.68
28.35,-2.70,5.03,-8.59
28.35,-2.71,5.04,-8.49
28.35,-2.72,5.05,-8.43
28.35,-2.72,5.10,-8.41
28.36,-2.68,5.10,-8.37
28.36,-2.65,5.13,-8.41
28.36,-2.65,5.15,-8.46
28.36,-2.64,5.16,-8.49
28.37,-2.64,5.14,-8.49
28.37,-2.63,5.10,-8.50
28.37,-2.64,5.04,-8.55
28.37,-2.63,4.95,-8.62
28.38,-2.62,4.87,-8.72
28.38,-2.62,4.76,-8.85
28.38,-2.60,4.60,-9.02
28.38,-2.58,4.44,-9.21
28.38,-2.62,4.26,-9.51
28.39,-2.90,4.15,-9.91
28.39,-2.93,3.96,-10.14
28.39,-2.60,3.72,-9.89
28.39,-2.45,3.55,-9.78
28.40,-2.57,3.53,-10.00
28.40,-2.68,3.57,-10.22
28.40,-2.54,3.63,-10.35
28.40,-2.29,3.72,-10.12
28.41,-2.07,4.01,-9.98
28.41,-1.84,4.48,-9.99
28.41,-1.57,5.09,-10.01
28.41,-1.30,5.76,-10.20
28.41,-1.09,6.55,-10.49
28.42,-1.05,7.43,-10.93
28.42,-1.08,8.31,-11.45
28.42,-1.23,9.18,-11.97
28.42,-1.55,10.11,-12.11
28.43,-1.91,11.00,-12.32
28.43,-2.42,11.95,-12.22
28.43,-2.84,12.88,-11.86
28.43,-3.38,13.83,-11.32
28.44,-3.82,14.64,-10.81
28.44,-4.19,15.25,-10.41
28.44,-4.52,15.60,-10.18
28.44,-4.82,15.71,-10.10
28.44,-5.13,15.55,-10.27
28.45,-5.48,15.17,-10.51
28.45,-5.76,14.54,-10.74
28.45,-6.12,13.73,-10.87
28.45,-6.57,12.89,-11.09
28.46,-6.97,11.90,-11.09
28.46,-7.50,10.93,-10.44
28.46,-8.00,9.96,-9.26
28.46,-8.56,9.06,-7.94
28.47,-9.09,8.21,-6.62
28.47,-9.51,7.48,-5.61
28.47,-9.55,6.69,-4.96
28.47,-9.39,5.98,-4.86
28.47,-8.98,5.22,-5.09
28.48,-8.45,4.49,-5.78
28.48,-7.69,3.79,-6.86
28.48,-7.08,3.22,-7.87
28.48,-6.52,2.79,-8.74
28.49,-5.96,2.47,-9.26
28.49,-5.40,2.20,-9.46
28.49,-5.23,2.14,-9.44
28.49,-5.19,2.24,-9.22
28.49,-5.08,2.35,-8.82
28.50,-5.17,2.52,-8.48
28.50,-5.26,2.81,-8.08
28.50,-5.08,3.04,-7.83
28.50,-4.82,3.36,-7.59
28.51,-4.63,3.86,-7.51
28.51,-4.40,4.35,-7.69
28.51,-4.04,4.82,-7.79
28.51,-3.95,5.37,-8.19
28.52,-3.93,5.98,-8.45
28.52,-3.72,6.52,-8.46
28.52,-3.46,7.08,-8.19
28.52,-3.26,7.61,-7.96
28.52,-3.30,8.11,-7.71
28.53,-3.12,8.46,-7.21
28.53,-2.97,8.72,-6.68
28.53,-2.97,8.97,-6.12
28.53,-3.02,9.11,-5.51
28.54,-3.13,9.18,-4.87
28.54,-3.34,9.22,-4.27
28.54,-3.65,9.22,-3.81
28.54,-3.97,9.20,-3.46
28.55,-4.31,9.16,-3.14
28.55,-4.66,9.16,-3.00
28.55,-5.03,9.18,-2.98
28.55,-5.30,9.18,-3.17
28.55,-5.51,9.23,-3.51
28.56,-5.69,9.26,-3.88
28.56,-5.75,9.29,-4.22
28.56,-5.74,9.35,-4.60
28.56,-5.67,9.39,-4.87
28.57,-5.54,9.40,-5.06
28.57,-5.33,9.36,-5.22
28.57,-5.15,9.34,-5.38
28.57,-4.94,9.33,-5.50
28.58,-4.73,9.28,-5.87
28.58,-4.48,9.13,-5.72
28.58,-4.32,9.05,-5.70
28.58,-4.08,8.87,-5.55
28.58,-3.84,8.72,-5.34
28.59,-3.60,8.56,-5.15
28.59,-3.48,8.40,-4.91
28.59,-3.31,8.29,-4.65
28.59,-3.10,8.13,-4.34
28.60,-2.95,7.96,-4.11
28.60,-2.75,7.80,-3.86
28.60,-2.60,7.65,-3.61
28.60,-2.45,7.55,-3.32
28.61,-2.39,7.42,-3.06
28.61,-2.24,7.28,-2.82
28.61,-2.20,7.21,-2.61
28.61,-2.16,7.15,-2.45
28.61,-2.19,7.16,-2.41
28.62,-2.12,7.14,-2.29
28.62,-2.13,7.14,-2.11
28.62,-2.15,7.18,-1.90
28.62,-2.21,7.21,-1.77
28.63,-2.25,7.27,-1.56
28.63,-2.27,7.29,-1.57
28.63,-2.26,7.31,-1.58
28.63,-2.40,7.46,-1.70
28.64,-2.56,7.60,-1.81
28.64,-2.67,7.69,-2.01
28.64,-2.77,7.77,-2.03
28.64,-2.87,7.90,-1.98
28.64,-2.92,8.03,-1.95
28.65,-2.89,8.11,-2.06
28.65,-2.79,8.19,-1.99
28.65,-2.89,8.40,-2.01
28.65,-3.11,8.67,-2.04
28.66,-3.09,8.80,-1.95
28.66,-3.23,9.01,-2.00
28.66,-3.26,9.22,-1.89
28.66,-3.08,9.30,-1.67
28.67,-3.08,9.50,-1.48
28.67,-2.97,9.63,-1.41
28.67,-2.91,9.80,-1.23
28.67,-2.84,9.88,-1.32
28.67,-2.66,9.87,-1.51
28.68,-2.51,9.86,-1.60
28.68,-2.42,9.80,-1.78
28.68,-2.22,9.60,-2.24
28.68,-2.81,9.53,-2.82
28.69,-3.15,9.82,-1.98
28.69,-3.17,9.94,-1.60
28.69,-3.04,9.93,-1.53
28.69,-2.84,10.01,-1.77
28.69,-2.58,10.07,-2.11
28.70,-2.20,10.01,-2.39
28.70,-1.75,9.91,-2.65
28.70,-1.34,9.81,-2.75
28.70,-0.97,9.71,-2.78
28.71,-0.71,9.70,-2.71
28.71,-0.57,9.71,-2.68
28.71,-0.35,9.63,-2.56
28.71,-0.20,9.59,-2.46
28.72,-0.08,9.50,-2.44
28.72,0.16,9.39,-2.48
28.72,0.39,9.26,-2.25
28.72,0.49,9.16,-1.92
28.72,0.53,9.09,-1.74
28.73,0.60,9.01,-1.52
28.73,0.72,8.96,-1.27
28.73,1.00,8.87,-1.02
28.73,1.27,8.79,-0.79
28.74,1.46,8.74,-0.56
28.74,1.69,8.62,-0.28
28.74,2.02,8.24,-0.16
28.74,2.39,7.68,-0.25
28.75,2.46,7.42,-0.43
28.75,2.08,7.55,-0.15
28.75,1.77,7.61,-0.06
28.75,1.45,7.71,-0.08
28.75,1.24,7.77,-0.13
28.76,1.11,7.80,-0.15
28.76,1.13,7.74,-0.27
28.76,1.19,7.69,-0.42
28.76,1.17,7.74,-0.48
28.77,1.19,7.74,-0.56
28.77,1.08,7.83,-0.75
28.77,0.98,7.84,-0.95
28.77,0.86,7.83,-0.97
28.78,0.75,7.85,-1.04
28.78,0.69,7.89,-1.13
28.78,0.66,7.97,-1.10
28.78,0.73,7.92,-0.96
28.78,0.80,7.87,-0.77
28.79,0.61,7.98,-0.62
28.79,0.47,8.01,-0.58
28.79,0.43,7.96,-0.57
28.79,0.22,8.01,-0.46
28.80,0.08,8.05,-0.31
28.80,0.28,7.93,-0.02
28.80,0.59,7.95,0.53
28.80,0.77,8.06,1.14
28.81,0.86,8.15,1.68
28.81,0.87,8.18,2.16
28.81,0.74,8.37,2.56
28.81,0.61,8.55,2.93
28.81,0.44,8.82,3.26
28.82,0.18,9.15,3.46
28.82,-0.07,9.29,3.41
28.82,-0.01,9.29,3.23
28.82,0.11,9.20,2.85
28.83,0.17,9.09,2.76
28.83,0.17,9.02,2.57
28.83,0.06,8.99,2.38
28.83,0.03,8.93,2.04
28.84,0.09,8.82,1.61
28.84,0.19,8.67,1.13
28.84,0.12,8.64,0.69
28.84,-0.02,8.59,0.22
28.84,-0.02,8.40,-0.29
28.85,-0.16,8.32,-0.52
28.85,-0.32,8.27,-0.82
28.85,-0.56,8.34,-1.04
28.85,-0.83,8.44,-1.14
28.86,-1.26,8.70,-1.19
28.86,-1.69,8.97,-1.19
28.86,-2.02,9.16,-1.29
28.86,-2.36,9.41,-1.38
28.87,-2.79,9.76,-1.27
28.87,-3.21,10.07,-1.09
28.87,-3.63,10.44,-0.91
28.87,-3.92,10.74,-0.88
28.87,-4.20,11.07,-0.84
28.88,-4.41,11.43,-0.89
28.88,-4.60,11.84,-0.93
28.88,-4.69,12.19,-0.96
28.88,-4.70,12.44,-1.12
28.89,-4.82,12.70,-1.39
28.89,-5.05,12.97,-1.82
28.89,-5.34,13.23,-2.40
28.89,-5.57,13.39,-3.24
28.89,-5.71,13.41,-4.24
28.90,-5.61,13.30,-5.32
28.90,-5.29,13.07,-6.44
28.90,-4.88,12.80,-7.38
28.90,-4.41,12.43,-8.19
28.91,-4.00,12.09,-8.77
28.91,-3.63,11.69,-9.17
28.91,-3.29,11.43,-9.29
28.91,-2.86,11.12,-9.23
28.92,-2.39,10.79,-9.00
28.92,-1.92,10.52,-8.61
28.92,-1.44,10.24,-8.05
28.92,-0.97,9.98,-7.42
28.92,-0.49,9.71,-6.73
28.93,0.01,9.45,-5.99
28.93,0.50,9.18,-5.21
28.93,0.93,8.94,-4.36
28.93,1.35,8.72,-3.47
28.94,1.66,8.50,-2.49
28.94,1.98,8.36,-1.47
28.94,2.29,8.29,-0.32
28.94,2.58,8.26,0.87
28.95,2.80,8.22,2.00
28.95,3.00,8.20,3.02
28.95,3.14,8.24,3.98
28.95,3.26,8.23,4.80
28.95,3.38,8.29,5.52
28.96,3.47,8.39,6.12
28.96,3.51,8.49,6.53
28.96,3.50,8.65,6.80
28.96,3.51,8.77,6.88
28.97,3.46,8.91,6.81
28.97,3.37,8.96,6.53
28.97,3.16,9.04,6.08
28.97,2.95,9.13,5.60
28.98,2.76,9.22,5.26
28.98,2.48,9.26,4.80
28.98,2.11,9.33,4.26
28.98,1.71,9.41,3.73
28.98,1.39,9.53,3.26
28.99,1.03,9.64,2.83
28.99,0.71,9.76,2.41
28.99,0.45,9.96,1.96
28.99,0.26,10.13,1.60
29.00,0.12,10.24,1.26
29.00,0.01,10.33,0.99
29.00,-0.10,10.40,0.75
29.00,-0.18,10.39,0.52
29.01,-0.32,10.34,0.36
29.01,-0.31,10.21,0.27
29.01,-0.46,10.09,-0.02
29.01,-0.62,9.89,-0.33
29.01,-0.68,9.71,-0.56
29.02,-0.73,9.50,-0.78
29.02,-0.81,9.32,-1.06
29.02,-0.89,9.17,-1.31
29.02,-0.97,9.05,-1.51
29.03,-1.06,8.95,-1.75
29.03,-1.16,8.83,-1.95
29.03,-1.23,8.77,-2.21
29.03,-1.27,8.70,-2.46
29.04,-1.34,8.68,-2.73
29.04,-1.30,8.67,-2.90
29.04,-1.47,8.79,-3.04
29.04,-1.54,8.87,-3.17
29.04,-1.65,8.94,-3.28
29.05,-1.73,9.02,-3.34
29.05,-1.70,9.03,-3.38
29.05,-1.74,9.13,-3.35
29.05,-1.79,9.19,-3.35
29.06,-1.76,9.21,-3.30
29.06,-1.71,9.18,-3.30
29.06,-1.60,9.12,-3.21
29.06,-1.44,9.11,-3.04
29.07,-1.21,9.02,-2.78
29.07,-1.02,8.97,-2.44
29.07,-0.79,8.89,-2.01
29.07,-0.64,8.90,-1.48
29.07,-0.48,8.88,-0.87
29.08,-0.41,8.87,-0.31
29.08,-0.41,8.94,0.22
29.08,-0.39,8.96,0.65
29.08,-0.34,8.97,0.98
29.09,-0.31,8.96,1.20
29.09,-0.23,8.96,1.34
29.09,-0.19,8.95,1.46
29.09,-0.11,8.91,1.45
29.09,-0.08,8.88,1.45
29.10,-0.02,8.83,1.47
29.10,-0.05,8.79,1.37
29.10,-0.14,8.78,1.24
29.10,-0.20,8.77,1.19
29.11,0.08,8.76,1.22
29.11,0.37,8.79,1.22
29.11,0.43,8.82,1.13
29.11,0.39,8.92,0.96
29.12,0.35,9.05,0.80
29.12,0.36,9.17,0.61
29.12,0.36,9.29,0.46
29.12,0.38,9.42,0.33
29.12,0.40,9.56,0.19
29.13,0.35,9.73,0.00
29.13,0.25,9.91,-0.14
29.13,0.27,10.07,-0.24
29.13,0.20,10.20,-0.37
29.14,0.20,10.24,-0.44
29.14,0.20,10.28,-0.50
29.14,0.12,10.29,-0.57
29.14,0.03,10.25,-0.68
29.15,-0.07,10.21,-0.78
29.15,-0.17,10.14,-0.97
29.15,-0.25,10.08,-1.17
29.15,-0.33,9.98,-1.37
29.15,-0.39,9.91,-1.60
29.16,-0.42,9.84,-1.82
29.16,-0.46,9.78,-2.05
29.16,-0.40,9.75,-2.24
29.16,-0.38,9.72,-2.41
29.17,-0.35,9.68,-2.62
29.17,-0.25,9.61,-2.75
29.17,-0.14,9.56,-2.83
29.17,-0.05,9.51,-2.86
29.18,0.04,9.45,-2.79
29.18,0.14,9.40,-2.71
29.18,0.18,9.37,-2.55
29.18,0.23,9.35,-2.36
29.18,0.31,9.32,-2.11
29.19,0.31,9.29,-1.85
29.19,0.36,9.26,-1.53
29.19,0.36,9.24,-1.19
29.19,0.38,9.21,-0.88
29.20,0.37,9.16,-0.57
29.20,0.34,9.15,-0.23
29.20,0.30,9.14,0.10
29.20,0.21,9.15,0.42
29.21,0.12,9.17,0.74
29.21,0.01,9.15,1.02
29.21,-0.07,9.16,1.23
29.21,-0.14,9.20,1.41
29.21,-0.18,9.15,1.53
29.22,-0.18,9.12,1.57
29.22,-0.18,9.11,1.53
29.22,-0.16,9.13,1.40
29.22,-0.10,9.14,1.20
29.23,0.00,9.18,0.98
29.23,0.11,9.22,0.73
29.23,0.24,9.27,0.46
29.23,0.34,9.35,0.22
29.24,0.47,9.45,-0.05
29.24,0.64,9.51,-0.25
29.24,0.75,9.62,-0.43
29.24,0.85,9.72,-0.54
29.24,0.93,9.81,-0.63
29.25,0.95,9.91,-0.66
29.25,0.96,10.04,-0.63
29.25,0.94,10.12,-0.55
29.25,0.94,10.22,-0.40
29.26,0.88,10.34,-0.31
29.26,0.85,10.40,-0.15
29.26,0.79,10.49,0.02
29.26,0.71,10.57,0.10
29.27,0.65,10.63,0.15
29.27,0.60,10.71,0.22
29.27,0.56,10.78,0.25
29.27,0.50,10.87,0.30
29.27,0.48,10.93,0.38
29.28,0.54,10.97,0.43
29.28,0.61,11.01,0.49
29.28,0.69,11.01,0.56
29.28,0.76,10.97,0.60
29.29,0.94,10.92,0.71
29.29,1.07,10.93,0.89
29.29,1.09,10.89,0.96
29.29,1.09,10.88,1.07
29.29,1.08,10.83,1.14
29.30,1.06,10.78,1.14
29.30,1.12,10.78,1.20
29.30,1.04,10.81,1.22
29.30,0.91,10.83,1.22
29.31,0.75,10.88,1.18
29.31,0.53,10.94,1.11
29.31,0.31,11.00,1.01
29.31,0.12,11.07,0.88
29.32,-0.11,11.16,0.76
29.32,-0.29,11.27,0.63
29.32,-0.47,11.34,0.50
29.32,-0.62,11.46,0.43
29.32,-0.78,11.58,0.37
29.33,-0.90,11.72,0.34
29.33,-0.99,11.87,0.35
29.33,-1.05,12.06,0.33
29.33,-1.12,12.21,0.28
29.34,-1.18,12.36,0.25
29.34,-1.23,12.53,0.21
29.34,-1.21,12.72,0.15
29.34,-1.20,12.89,0.07
29.35,-1.15,13.09,0.06
29.35,-1.05,13.33,0.08
29.35,-0.90,13.59,0.15
29.35,-0.73,13.88,0.31
29.35,-0.57,14.23,0.53
29.36,-0.43,14.53,0.73
29.36,-0.29,14.83,0.90
29.36,-0.13,15.06,1.11
29.36,0.05,15.20,1.25
29.37,0.15,15.26,1.34
29.37,0.25,15.25,1.36
29.37,0.28,15.21,1.38
29.37,0.32,15.13,1.35
29.38,0.36,15.04,1.33
29.38,0.39,14.93,1.37
29.38,0.37,14.86,1.43
29.38,0.35,14.75,1.52
29.38,0.33,14.67,1.65
29.39,0.31,14.58,1.75
29.39,0.30,14.50,1.80
29.39,0.25,14.41,1.83
29.39,0.19,14.35,1.82
29.40,0.15,14.27,1.75
29.40,0.13,14.24,1.63
29.40,0.07,14.19,1.50
29.40,-0.01,14.20,1.35
29.41,-0.08,14.16,1.18
29.41,-0.14,14.17,1.02
29.41,-0.18,14.16,0.88
29.41,-0.27,14.14,0.70
29.41,-0.33,14.14,0.54
29.42,-0.40,14.14,0.40
29.42,-0.47,14.14,0.29
29.42,-0.51,14.11,0.24
29.42,-0.57,14.07,0.17
29.43,-0.62,14.05,0.13
29.43,-0.67,14.00,0.11
29.43,-0.72,13.96,0.12
29.43,-0.75,13.85,0.19
29.44,-0.81,13.70,0.21
29.44,-0.93,13.60,0.22
29.44,-1.02,13.52,0.26
29.44,-1.10,13.42,0.21
29.44,-1.15,13.23,0.19
29.45,-1.22,13.08,0.21
29.45,-1.32,12.94,0.29
29.45,-1.44,12.82,0.30
29.45,-1.53,12.69,0.33
29.46,-1.64,12.59,0.33
29.46,-1.71,12.47,0.40
29.46,-1.81,12.36,0.47
29.46,-1.93,12.31,0.53
29.47,-2.01,12.22,0.55
29.47,-2.17,12.16,0.47
29.47,-2.38,12.13,0.40
29.47,-2.55,12.16,0.37
29.47,-2.68,12.12,0.33
29.48,-2.82,12.09,0.35
29.48,-3.03,12.10,0.29
29.48,-3.17,12.10,0.21
29.48,-3.27,12.09,0.14
29.49,-3.32,12.05,0.00
29.49,-3.32,12.01,-0.15
29.49,-3.32,11.99,-0.23
29.49,-3.31,11.98,-0.34
29.50,-3.29,11.97,-0.45
29.50,-3.28,11.93,-0.54
29.50,-3.22,11.87,-0.69
29.50,-3.11,11.75,-0.83
29.50,-2.99,11.67,-0.99
29.51,-2.88,11.63,-1.10
29.51,-2.75,11.57,-1.19
29.51,-2.62,11.50,-1.42
29.51,-2.52,11.48,-1.64
29.52,-2.43,11.44,-1.89
29.52,-2.27,11.37,-2.17
29.52,-2.11,11.22,-2.47
29.52,-1.89,11.06,-2.79
29.52,-1.67,10.93,-3.09
29.53,-1.64,10.87,-3.33
29.53,-1.65,10.84,-3.62
29.53,-1.61,10.79,-3.98
29.53,-1.59,10.80,-4.26
29.54,-1.59,10.86,-4.48
29.54,-1.63,10.99,-4.72
29.54,-1.62,11.12,-4.91
29.54,-1.57,11.30,-5.06
29.55,-1.56,11.51,-5.17
29.55,-1.52,11.68,-5.28
29.55,-1.57,11.87,-5.40
29.55,-1.71,12.09,-5.48
29.55,-1.88,12.28,-5.47
29.56,-2.06,12.45,-5.29
29.56,-2.16,12.58,-4.97
29.56,-2.17,12.60,-4.65
29.56,-2.12,12.51,-4.41
29.57,-2.12,12.40,-4.15
29.57,-2.06,12.28,-3.94
29.57,-2.00,12.14,-3.58
29.57,-1.93,12.06,-3.25
29.58,-1.83,11.86,-2.91
29.58,-1.73,11.60,-2.55
29.58,-1.61,11.30,-2.11
29.58,-1.52,11.12,-1.60
29.58,-1.47,10.97,-1.05
29.59,-1.34,10.71,-0.48
29.59,-1.29,10.54,0.16
29.59,-1.49,10.62,0.65
29.59,-1.73,10.77,1.07
29.60,-1.66,10.65,1.58
29.60,-1.49,10.42,2.30
29.60,-1.45,10.23,3.00
29.60,-1.44,10.04,3.45
29.61,-1.47,9.83,3.85
29.61,-1.63,9.71,4.35
29.61,-1.81,9.58,4.72
29.61,-2.08,9.46,4.87
29.61,-2.37,9.57,5.37
29.62,-2.69,9.79,5.83
29.62,-2.77,9.78,5.67
29.62,-2.64,9.64,5.55
29.62,-2.46,9.43,5.70
29.63,-2.28,9.30,5.83
29.63,-2.10,9.18,5.73
29.63,-1.91,9.01,5.32
29.63,-1.74,8.79,4.53
29.64,-1.64,8.58,3.56
29.64,-1.52,8.38,2.48
29.64,-1.41,8.17,1.50
29.64,-1.30,7.98,1.06
29.64,-1.05,7.83,-0.07
29.65,-0.83,7.74,-0.76
29.65,-0.76,7.77,-1.57
29.65,-0.76,7.72,-2.21
29.65,-0.81,7.76,-3.31
29.66,-0.84,7.85,-3.98
29.66,-0.82,8.00,-4.65
29.66,-0.76,8.13,-5.05
29.66,-0.73,8.25,-5.46
29.67,-0.61,8.30,-5.83
29.67,-0.56,8.39,-5.83
29.67,-0.46,8.47,-5.46
29.67,-0.41,8.59,-4.84
29.67,-0.37,8.61,-4.27
29.68,-0.47,8.58,-3.71
29.68,-0.63,8.53,-3.33
29.68,-0.83,8.43,-2.94
29.68,-1.00,8.32,-2.51
29.69,-1.14,8.16,-2.20
29.69,-1.14,7.98,-1.86
29.69,-1.19,7.78,-1.51
29.69,-1.20,7.53,-1.24
29.70,-1.21,7.27,-0.81
29.70,-1.41,7.07,-0.34
29.70,-1.46,6.82,-0.04
29.70,-1.59,6.61,0.12
29.70,-1.80,6.47,0.01
29.71,-2.06,6.33,-0.17
29.71,-2.28,6.19,-0.34
29.71,-2.40,6.02,-0.58
29.71,-2.61,5.85,-0.82
29.72,-2.61,5.68,-1.23
29.72,-2.67,5.56,-1.69
29.72,-2.82,5.53,-2.06
29.72,-2.75,5.38,-2.20
29.72,-2.63,5.23,-2.37
29.73,-2.48,5.04,-2.59
29.73,-2.46,4.90,-2.92
29.73,-2.27,4.69,-3.36
29.73,-2.05,4.54,-3.58
29.74,-1.96,4.32,-3.76
29.74,-2.01,4.27,-3.69
29.74,-2.07,4.21,-3.83
29.74,-1.85,4.02,-3.80
29.75,-1.73,3.85,-3.74
29.75,-1.76,3.78,-3.78
29.75,-1.82,3.70,-3.71
29.75,-1.84,3.61,-3.73
29.75,-1.70,3.41,-3.63
29.76,-1.71,3.40,-3.35
29.76,-1.71,3.37,-3.54
29.76,-1.44,3.08,-3.54
29.76,-1.37,2.93,-3.60
29.77,-1.47,2.85,-3.71
29.77,-1.42,2.63,-3.79
29.77,-1.12,2.30,-3.80
29.77,-1.15,2.21,-3.64
29.78,-1.29,2.21,-3.64
29.78,-1.32,2.13,-3.64
29.78,-1.26,2.11,-3.34
29.78,-1.44,2.27,-2.98
29.78,-1.61,2.39,-2.78
29.79,-1.48,2.39,-2.68
29.79,-1.17,2.19,-2.77
29.79,-1.14,2.18,-3.15
29.79,-1.30,2.23,-3.54
29.80,-1.32,2.23,-3.90
29.80,-1.37,2.28,-3.97
29.80,-1.34,2.24,-3.92
29.80,-1.52,2.26,-4.12
29.81,-1.55,2.24,-4.53
29.81,-1.56,2.21,-4.48
29.81,-1.56,2.05,-4.56
29.81,-1.67,2.01,-4.70
29.81,-1.80,2.11,-5.00
29.82,-1.94,2.21,-5.26
29.82,-1.93,2.20,-5.26
29.82,-1.88,2.22,-5.30
29.82,-1.90,2.20,-5.26
29.83,-2.00,2.14,-5.65
29.83,-2.07,2.15,-5.74
29.83,-2.30,2.33,-5.72
29.83,-2.46,2.48,-5.88
29.84,-2.53,2.56,-6.17
29.84,-2.50,2.57,-6.34
29.84,-2.69,2.76,-6.53
29.84,-2.87,3.02,-6.69
29.84,-2.88,3.18,-6.86
29.85,-2.85,3.23,-7.04
29.85,-2.96,3.35,-7.28
29.85,-2.92,3.42,-7.38
29.85,-2.96,3.53,-7.48
29.86,-3.09,3.66,-7.61
29.86,-3.10,3.73,-7.72
29.86,-3.11,3.83,-7.84
29.86,-3.08,3.86,-7.82
29.87,-3.12,3.97,-7.72
29.87,-3.12,4.05,-7.70
29.87,-3.08,4.14,-7.66
29.87,-3.05,4.20,-7.61
29.87,-3.00,4.26,-7.57
29.88,-2.93,4.26,-7.50
29.88,-2.90,4.29,-7.44
29.88,-2.87,4.32,-7.36
29.88,-2.80,4.29,-7.26
29.89,-2.74,4.29,-7.17
29.89,-2.70,4.32,-7.10
29.89,-2.66,4.37,-7.01
29.89,-2.61,4.37,-6.86
29.90,-2.56,4.40,-6.72
29.90,-2.46,4.40,-6.67
29.90,-2.44,4.47,-6.53
29.90,-2.39,4.52,-6.39
29.90,-2.33,4.57,-6.31
29.91,-2.26,4.65,-6.23
29.91,-2.19,4.69,-6.18
29.91,-2.16,4.71,-6.14
29.91,-2.13,4.75,-6.12
29.92,-2.11,4.80,-6.11
29.92,-2.06,4.84,-6.09
29.92,-2.00,4.89,-6.10
29.92,-1.94,4.94,-6.14
29.92,-1.89,4.97,-6.19
29.93,-1.83,5.04,-6.31
29.93,-1.78,5.11,-6.42
29.93,-1.67,5.12,-6.59
29.93,-1.61,5.13,-6.78
29.94,-1.58,5.18,-6.96
29.94,-1.51,5.17,-7.17
29.94,-1.47,5.22,-7.39
29.94,-1.44,5.23,-7.55
29.95,-1.42,5.24,-7.74
29.95,-1.38,5.22,-7.92
29.95,-1.35,5.18,-8.06
29.95,-1.30,5.16,-8.21
29.95,-1.24,5.14,-8.30
29.96,-1.18,5.10,-8.39
29.96,-1.10,5.08,-8.51
29.96,-1.00,5.08,-8.61
29.96,-0.91,5.08,-8.71
29.97,-0.87,5.08,-8.82
29.97,-0.85,5.12,-8.84
29.97,-0.82,5.14,-8.91
29.97,-0.85,5.17,-9.00
29.98,-0.87,5.20,-9.19
29.98,-0.89,5.24,-9.30
29.98,-0.84,5.26,-9.37
29.98,-0.81,5.29,-9.54
29.98,-0.81,5.32,-9.72
29.99,-0.81,5.34,-9.91
29.99,-0.84,5.39,-10.02
29.99,-0.93,5.44,-10.13
29.99,-1.02,5.51,-10.23
30.00,-1.09,5.57,-10.29
30.00,-1.19,5.62,-10.26
30.00,-1.28,5.76,-10.17
30.00,-1.41,5.86,-10.01
30.01,-1.55,5.98,-9.75
30.01,-1.66,6.12,-9.42
30.01,-1.78,6.24,-8.94
30.01,-1.88,6.39,-8.39
30.01,-1.95,6.54,-7.77
30.02,-2.04,6.68,-7.12
30.02,-2.10,6.84,-6.52
30.02,-2.15,7.05,-6.07
30.02,-2.10,7.30,-5.80
30.03,-2.10,7.59,-5.63
30.03,-2.23,7.94,-5.70
30.03,-2.44,8.29,-5.86
30.03,-2.75,8.61,-5.98
30.04,-3.15,8.92,-6.00
30.04,-3.70,9.21,-5.88
30.04,-4.34,9.45,-5.53
30.04,-4.93,9.66,-5.01
30.04,-5.46,9.87,-4.54
30.05,-5.78,9.95,-4.32
30.05,-5.92,9.92,-4.48
30.05,-5.98,9.77,-4.88
30.05,-6.02,9.58,-5.47
30.06,-6.04,9.32,-6.11
30.06,-5.97,9.01,-6.74
30.06,-5.81,8.65,-7.36
30.06,-5.60,8.29,-7.88
30.07,-5.35,7.96,-8.34
30.07,-4.99,7.66,-8.75
30.07,-4.54,7.45,-9.27
30.07,-4.21,7.34,-9.71
30.07,-4.05,7.29,-10.05
30.08,-3.94,7.24,-10.27
30.08,-3.91,7.25,-10.29
30.08,-3.79,7.21,-10.22
30.08,-3.76,7.24,-10.10
30.09,-3.69,7.26,-10.03
30.09,-3.58,7.30,-9.92
30.09,-3.37,7.20,-9.81
30.09,-3.36,7.17,-9.51
30.10,-3.38,7.18,-9.12
30.10,-3.31,7.24,-8.75
30.10,-3.43,7.43,-8.24
30.10,-3.51,7.65,-7.71
30.10,-3.57,7.82,-7.22
30.11,-3.64,7.98,-6.78
30.11,-3.75,8.20,-6.45
30.11,-3.94,8.41,-6.38
30.11,-4.10,8.68,-6.45
30.12,-4.27,8.94,-6.44
30.12,-4.50,9.28,-6.53
30.12,-4.60,9.51,-6.65
30.12,-4.63,9.81,-6.71
30.12,-4.68,10.15,-6.75
30.13,-4.71,10.50,-6.83
30.13,-4.69,10.84,-6.88
30.13,-4.68,11.16,-7.02
30.13,-4.60,11.42,-7.10
30.14,-4.47,11.63,-7.22
30.14,-4.31,11.85,-7.32
30.14,-4.11,11.97,-7.37
30.14,-3.87,12.09,-7.19
30.15,-3.65,12.20,-6.87
30.15,-3.47,12.32,-6.61
30.15,-3.34,12.38,-6.41
30.15,-3.18,12.40,-6.16
30.15,-2.98,12.34,-5.93
30.16,-2.78,12.25,-5.78
30.16,-2.60,12.14,-5.55
30.16,-2.49,12.00,-5.47
30.16,-2.34,11.85,-5.42
30.17,-2.26,11.64,-5.32
30.17,-2.16,11.47,-5.27
30.17,-2.06,11.31,-5.17
30.17,-1.92,11.12,-5.08
30.18,-1.87,10.95,-5.01
30.18,-1.80,10.78,-4.98
30.18,-1.67,10.61,-4.90
30.18,-1.61,10.42,-4.85
30.18,-1.56,10.26,-4.75
30.19,-1.46,10.09,-4.62
30.19,-1.35,9.93,-4.48
30.19,-1.26,9.78,-4.30
30.19,-1.16,9.64,-4.10
30.20,-1.11,9.52,-3.92
30.20,-1.04,9.38,-3.76
30.20,-1.03,9.25,-3.64
30.20,-1.00,9.10,-3.53
30.21,-1.01,9.02,-3.40
30.21,-1.03,8.91,-3.31
30.21,-1.01,8.77,-3.27
30.21,-0.96,8.66,-3.28
30.21,-0.98,8.54,-3.32
30.22,-1.04,8.46,-3.29
30.22,-1.05,8.35,-3.35
30.22,-1.00,8.27,-3.43
30.22,-0.94,8.21,-3.37
30.23,-0.86,8.13,-3.33
30.23,-0.81,8.02,-3.27
30.23,-0.80,8.00,-3.21
30.23,-0.77,7.99,-3.04
30.24,-0.78,7.99,-2.97
30.24,-0.77,8.04,-2.87
30.24,-0.76,8.10,-2.74
30.24,-0.73,8.15,-2.52
30.24,-0.73,8.17,-2.39
30.25,-0.82,8.24,-2.42
30.25,-0.84,8.32,-2.31
30.25,-0.85,8.33,-2.30
30.25,-0.79,8.35,-2.33
30.26,-0.74,8.28,-2.27
30.26,-0.62,8.15,-2.19
30.26,-0.73,8.18,-2.17
30.26,-0.91,8.31,-2.16
30.27,-1.15,8.49,-2.26
30.27,-1.26,8.61,-2.30
30.27,-1.36,8.73,-2.29
30.27,-1.38,8.81,-2.25
30.27,-1.40,8.93,-2.04
30.28,-1.33,9.01,-1.85
30.28,-1.31,9.09,-1.62
30.28,-1.33,9.23,-1.32
30.28,-1.38,9.36,-1.17
30.29,-1.46,9.50,-1.24
30.29,-1.55,9.65,-1.39
30.29,-1.60,9.78,-1.38
30.29,-1.68,9.90,-1.24
30.30,-1.74,10.00,-1.08
30.30,-1.69,10.03,-1.05
30.30,-1.71,10.11,-1.15
30.30,-1.78,10.18,-1.37
30.30,-1.75,10.20,-1.46
30.31,-1.73,10.23,-1.42
30.31,-1.66,10.20,-1.44
30.31,-1.49,10.12,-1.50
30.31,-1.28,10.00,-1.51
30.32,-1.07,9.94,-1.41
30.32,-0.95,9.86,-1.36
30.32,-0.92,9.87,-1.32
30.32,-0.95,9.87,-1.42
30.32,-1.00,9.89,-1.58
30.33,-0.95,9.82,-1.73
30.33,-0.83,9.74,-1.93
30.33,-0.63,9.63,-2.07
30.33,-0.51,9.46,-2.26
30.34,-0.43,9.48,-2.35
30.34,-0.40,9.36,-2.48
30.34,-0.50,9.42,-2.63
30.34,-0.50,9.29,-2.86
30.35,-0.50,9.21,-3.07
30.35,-0.30,8.98,-3.11
30.35,-0.22,8.88,-2.98
30.35,-0.09,8.79,-2.86
30.35,0.17,8.53,-2.72
30.36,0.17,8.44,-2.61
30.36,0.29,8.23,-2.39
30.36,0.30,8.12,-2.13
30.36,0.14,8.11,-1.79
30.37,-0.06,8.14,-1.41
30.37,-0.18,8.14,-1.03
30.37,-0.22,8.12,-0.75
30.37,-0.26,8.13,-0.45
30.38,-0.22,8.08,-0.13
30.38,-0.15,8.03,0.15
30.38,-0.10,8.05,0.42
30.38,-0.10,8.16,0.62
30.38,-0.15,8.30,0.71
30.39,-0.23,8.44,0.68
30.39,-0.17,8.53,0.68
30.39,0.11,8.42,0.65
30.39,0.43,8.25,0.60
30.40,0.64,8.11,0.39
30.40,0.70,8.10,0.30
30.40,0.68,8.14,0.10
30.40,0.72,8.14,-0.06
30.41,0.83,8.12,-0.10
30.41,0.91,8.10,-0.13
30.41,0.92,8.10,-0.22
30.41,0.92,8.09,-0.37
30.41,0.89,8.06,-0.55
30.42,0.85,8.05,-0.73
30.42,0.83,8.05,-0.88
30.42,0.80,8.08,-0.98
30.42,0.82,8.14,-0.97
30.43,0.90,8.00,-1.03
30.43,1.05,7.66,-1.34
30.43,1.27,7.58,-1.19
30.43,1.17,7.66,-1.08
30.44,0.79,7.80,-1.07
30.44,0.48,7.86,-0.88
30.44,0.38,7.84,-0.60
30.44,0.41,7.81,-0.32
30.44,0.50,7.80,-0.11
30.45,0.52,7.83,0.14
30.45,0.43,7.87,0.34
30.45,0.41,7.92,0.61
30.45,0.40,7.98,0.85
30.46,0.35,8.09,1.09
30.46,0.27,8.22,1.28
30.46,0.09,8.47,1.45
30.46,-0.14,8.71,1.61
30.47,-0.28,8.88,1.71
30.47,-0.35,8.97,1.73
30.47,-0.49,9.08,1.68
30.47,-0.68,9.20,1.48
30.47,-0.84,9.24,1.21
30.48,-0.95,9.22,0.86
30.48,-1.10,9.19,0.49
30.48,-1.35,9.23,0.33
30.48,-1.62,9.27,0.24
30.49,-1.87,9.31,0.19
30.49,-2.02,9.37,0.16
30.49,-2.09,9.32,-0.07
30.49,-2.14,9.24,-0.45
30.50,-2.19,9.14,-0.69
30.50,-2.16,9.04,-0.84
30.50,-2.09,8.87,-1.00
30.50,-2.03,8.72,-1.20
30.50,-1.93,8.58,-1.29
30.51,-1.86,8.48,-1.27
30.51,-1.85,8.41,-1.23
30.51,-1.89,8.34,-1.30
30.51,-1.94,8.27,-1.47
30.52,-1.87,8.20,-1.63
30.52,-1.73,8.14,-1.83
30.52,-1.55,8.08,-2.06
30.52,-1.42,8.07,-2.20
30.52,-1.42,8.17,-2.25
30.53,-1.39,8.29,-2.17
30.53,-1.41,8.48,-1.98
30.53,-1.43,8.69,-1.71
30.53,-1.51,8.90,-1.55
30.54,-1.58,9.08,-1.47
30.54,-1.47,9.27,-1.30
30.54,-1.27,9.41,-1.14
30.54,-1.06,9.60,-1.04
30.55,-0.92,9.87,-0.94
30.55,-0.82,10.13,-0.88
30.55,-0.81,10.36,-0.83
30.55,-0.70,10.53,-0.77
30.55,-0.48,10.62,-0.65
30.56,-0.32,10.81,-0.52
30.56,-0.24,10.94,-0.39
30.56,-0.24,11.06,-0.23
30.56,-0.06,11.12,-0.02
30.57,0.13,11.16,0.17
30.57,0.38,11.25,0.44
30.57,0.50,11.33,0.60
30.57,0.50,11.46,0.68
30.58,0.54,11.41,0.59
30.58,0.60,11.36,0.55
30.58,0.91,11.27,0.60
30.58,1.23,11.16,0.68
30.58,1.44,11.08,0.64
30.59,1.58,11.00,0.54
30.59,1.68,10.88,0.38
30.59,1.56,10.88,0.14
30.59,1.42,10.81,-0.14
30.60,1.80,10.59,-0.17
30.60,2.03,10.44,-0.14
30.60,2.09,10.33,-0.17
30.60,2.09,10.21,-0.32
30.61,2.03,10.11,-0.46
30.61,1.86,10.02,-0.70
30.61,1.69,9.94,-1.00
30.61,1.74,9.81,-1.13
30.61,2.04,9.74,-1.12
30.62,2.16,9.71,-1.14
30.62,2.08,9.68,-1.23
30.62,1.99,9.64,-1.31
30.62,1.99,9.58,-1.31
30.63,1.90,9.62,-1.27
30.63,1.84,9.62,-1.22
30.63,1.79,9.58,-1.11
30.63,1.76,9.56,-0.99
30.64,1.67,9.59,-0.90
30.64,1.58,9.57,-0.77
30.64,1.41,9.61,-0.68
30.64,1.24,9.63,-0.56
30.64,1.09,9.65,-0.49
30.65,0.94,9.67,-0.40
30.65,0.85,9.65,-0.28
30.65,0.68,9.68,-0.18
30.65,0.52,9.64,-0.11
30.66,0.54,9.55,-0.05
30.66,0.54,9.50,-0.01
30.66,0.50,9.44,0.03
30.66,0.41,9.37,0.05
30.67,0.30,9.35,0.04
30.67,0.23,9.31,0.03
30.67,0.13,9.27,0.02
30.67,0.08,9.22,0.03
30.67,0.02,9.22,0.04
30.68,-0.06,9.23,0.04
30.68,-0.10,9.25,0.02
30.68,-0.16,9.29,0.01
30.68,-0.23,9.36,0.01
30.69,-0.29,9.46,-0.01
30.69,-0.34,9.52,-0.03
30.69,-0.38,9.61,-0.07
30.69,-0.47,9.71,-0.08
30.70,-0.50,9.80,-0.13
30.70,-0.58,9.85,-0.17
30.70,-0.60,9.89,-0.20
30.70,-0.66,9.94,-0.19
30.70,-0.69,9.94,-0.25
30.71,-0.72,9.90,-0.28
30.71,-0.77,9.88,-0.24
30.71,-0.85,9.83,-0.26
30.71,-0.93,9.75,-0.31
30.72,-0.97,9.64,-0.31
30.72,-0.96,9.53,-0.32
30.72,-0.91,9.39,-0.30
30.72,-0.96,9.28,-0.32
30.72,-0.97,9.15,-0.31
30.73,-0.96,9.07,-0.28
30.73,-0.97,8.98,-0.30
30.73,-0.91,8.92,-0.28
30.73,-0.83,8.90,-0.26
30.74,-0.74,8.87,-0.25
30.74,-0.66,8.92,-0.21
30.74,-0.59,9.03,-0.17
30.74,-0.48,9.11,-0.09
30.75,-0.36,9.23,-0.04
30.75,-0.27,9.38,0.00
30.75,-0.18,9.51,0.04
30.75,-0.10,9.60,0.07
30.75,-0.02,9.71,0.13
30.76,0.05,9.78,0.20
30.76,0.09,9.86,0.27
30.76,0.08,9.91,0.32
30.76,0.10,9.90,0.35
30.77,0.08,9.95,0.38
30.77,0.05,9.98,0.39
30.77,0.03,9.97,0.41
30.77,0.00,9.96,0.44
30.78,-0.03,9.95,0.48
30.78,-0.07,9.93,0.44
30.78,-0.09,9.87,0.43
30.78,-0.14,9.81,0.44
30.78,-0.17,9.75,0.46
30.79,-0.19,9.66,0.50
30.79,-0.16,9.64,0.54
30.79,-0.13,9.58,0.59
30.79,-0.11,9.54,0.67
30.80,-0.06,9.57,0.78
30.80,-0.02,9.63,0.86
30.80,0.03,9.67,1.00
30.80,0.07,9.80,1.10
30.81,0.09,9.90,1.20
30.81,0.12,10.01,1.30
30.81,0.11,10.12,1.34
30.81,0.11,10.20,1.34
30.81,0.12,10.27,1.37
30.82,0.14,10.31,1.38
30.82,0.15,10.36,1.39
30.82,0.20,10.39,1.37
30.82,0.22,10.40,1.32
30.83,0.24,10.41,1.24
30.83,0.23,10.42,1.16
30.83,0.22,10.43,1.06
30.83,0.18,10.42,0.88
30.84,0.17,10.44,0.73
30.84,0.19,10.42,0.59
30.84,0.25,10.46,0.49
30.84,0.31,10.49,0.40
30.84,0.37,10.55,0.31
30.85,0.46,10.60,0.26
30.85,0.53,10.69,0.22
30.85,0.61,10.77,0.25
30.85,0.69,10.90,0.27
30.86,0.76,10.99,0.35
30.86,0.84,11.10,0.39
30.86,0.87,11.19,0.45
30.86,0.87,11.29,0.53
30.87,0.88,11.37,0.62
30.87,0.92,11.46,0.71
30.87,0.90,11.58,0.85
30.87,0.93,11.70,1.01
30.87,0.93,11.85,1.14
30.88,0.89,11.98,1.30
30.88,0.86,12.11,1.42
30.88,0.82,12.26,1.53
30.88,0.76,12.43,1.59
30.89,0.67,12.60,1.61
30.89,0.57,12.76,1.58
30.89,0.44,12.87,1.53
30.89,0.31,12.96,1.43
30.90,0.15,13.00,1.27
30.90,-0.05,13.05,1.15
30.90,-0.20,13.06,0.99
30.90,-0.34,13.01,0.80
30.90,-0.41,12.94,0.67
30.91,-0.51,12.90,0.56
30.91,-0.62,12.89,0.49
30.91,-0.72,12.90,0.48
30.91,-0.81,12.98,0.46
30.92,-0.94,13.06,0.47
30.92,-1.06,13.21,0.51
30.92,-1.16,13.34,0.51
30.92,-1.24,13.48,0.51
30.92,-1.27,13.65,0.53
30.93,-1.32,13.80,0.55
30.93,-1.35,13.97,0.56
30.93,-1.45,14.16,0.59
30.93,-1.49,14.29,0.66
30.94,-1.51,14.43,0.71
30.94,-1.50,14.54,0.80
30.94,-1.49,14.64,0.86
30.94,-1.49,14.71,0.92
30.95,-1.49,14.79,1.03
30.95,-1.48,14.83,1.15
30.95,-1.50,14.85,1.27
30.95,-1.57,14.89,1.38
30.95,-1.59,14.87,1.46
30.96,-1.60,14.84,1.55
30.96,-1.64,14.81,1.60
30.96,-1.67,14.74,1.64
30.96,-1.71,14.66,1.69
30.97,-1.75,14.54,1.71
30.97,-1.75,14.47,1.75
30.97,-1.75,14.37,1.77
30.97,-1.73,14.25,1.77
30.98,-1.72,14.11,1.73
30.98,-1.71,14.01,1.69
30.98,-1.68,13.89,1.68
30.98,-1.65,13.79,1.69
30.98,-1.57,13.66,1.65
30.99,-1.52,13.52,1.59
30.99,-1.51,13.36,1.51
30.99,-1.50,13.17,1.44
30.99,-1.51,13.01,1.32
31.00,-1.52,12.85,1.19
31.00,-1.55,12.67,1.04
31.00,-1.56,12.50,0.93
31.00,-1.59,12.36,0.78
31.01,-1.60,12.22,0.65
31.01,-1.61,12.07,0.52
31.01,-1.63,11.95,0.37
31.01,-1.65,11.83,0.27
31.01,-1.63,11.69,0.13
31.02,-1.63,11.56,0.01
31.02,-1.66,11.47,-0.11
31.02,-1.72,11.36,-0.26
31.02,-1.76,11.28,-0.37
31.03,-1.80,11.20,-0.49
31.03,-1.84,11.14,-0.61
31.03,-1.87,11.08,-0.72
31.03,-1.89,11.03,-0.81
31.04,-1.88,10.98,-0.89
31.04,-1.91,10.95,-0.98
31.04,-1.94,10.93,-1.09
31.04,-1.96,10.91,-1.20
31.04,-1.98,10.93,-1.27
31.05,-1.98,10.93,-1.33
31.05,-1.92,10.96,-1.37
31.05,-1.92,10.99,-1.45
31.05,-1.89,11.00,-1.51
31.06,-1.86,11.04,-1.56
31.06,-1.78,11.06,-1.63
31.06,-1.75,11.09,-1.65
31.06,-1.66,11.15,-1.67
31.07,-1.58,11.19,-1.70
31.07,-1.49,11.24,-1.70
31.07,-1.43,11.28,-1.74
31.07,-1.33,11.28,-1.75
31.07,-1.28,11.33,-1.79
31.08,-1.21,11.31,-1.86
31.08,-1.13,11.27,-1.96
31.08,-1.05,11.24,-2.06
31.08,-0.97,11.23,-2.13
31.09,-0.95,11.21,-2.22
31.09,-0.92,11.18,-2.26
31.09,-0.89,11.15,-2.34
31.09,-0.95,11.14,-2.44
31.10,-0.97,11.11,-2.52
31.10,-0.94,11.06,-2.52
31.10,-0.92,10.99,-2.56
31.10,-0.91,10.93,-2.63
31.10,-0.88,10.84,-2.59
31.11,-0.88,10.74,-2.54
31.11,-0.90,10.69,-2.49
31.11,-0.99,10.70,-2.37
31.11,-1.09,10.71,-2.29
31.12,-1.30,10.71,-2.34
31.12,-1.48,10.74,-2.34
31.12,-1.63,10.74,-2.39
31.12,-1.78,10.74,-2.53
31.13,-2.05,10.76,-2.80
31.13,-2.30,10.83,-2.95
31.13,-2.49,10.91,-2.93
31.13,-2.65,11.00,-2.82
31.13,-2.68,11.08,-2.62
31.14,-2.63,11.06,-2.42
31.14,-2.56,11.00,-2.13
31.14,-2.51,10.91,-1.78
31.14,-2.56,10.78,-1.47
31.15,-2.65,10.66,-1.11
31.15,-2.68,10.55,-0.75
31.15,-2.70,10.51,-0.35
31.15,-2.68,10.41,-0.03
31.15,-2.61,10.33,0.25
31.16,-2.52,10.23,0.50
31.16,-2.49,10.13,0.68
31.16,-2.48,10.03,0.82
31.16,-2.42,9.92,0.90
31.17,-2.36,9.79,0.91
31.17,-2.33,9.73,0.89
31.17,-2.28,9.65,0.82
31.17,-2.30,9.61,0.74
31.18,-2.35,9.62,0.64
31.18,-2.39,9.65,0.63
31.18,-2.33,9.76,0.65
31.18,-2.18,9.89,0.66
31.18,-2.03,9.93,0.75
31.19,-1.84,9.89,0.77
31.19,-1.67,9.79,0.64
31.19,-1.54,9.64,0.36
31.19,-1.45,9.45,0.29
31.20,-1.31,9.29,0.17
31.20,-1.21,9.09,0.02
31.20,-1.16,8.85,-0.07
31.20,-1.26,8.72,-0.25
31.21,-1.44,8.75,-0.42
31.21,-1.66,8.90,-0.54
31.21,-1.73,9.02,-0.63
31.21,-1.62,9.06,-0.48
31.21,-1.52,9.02,-0.16
31.22,-1.40,8.94,0.04
31.22,-1.25,8.70,0.01
31.22,-1.17,8.50,-0.20
31.22,-1.11,8.41,-0.51
31.23,-1.05,8.39,-0.81
31.23,-0.99,8.37,-1.00
31.23,-0.89,8.37,-1.29
31.23,-0.86,8.35,-1.51
31.24,-0.80,8.32,-1.70
31.24,-0.65,8.26,-1.47
31.24,-0.50,8.19,-1.66
31.24,-0.32,8.13,-1.60
31.24,-0.22,8.05,-1.48
31.25,-0.13,8.07,-1.62
31.25,0.02,8.01,-1.72
31.25,0.15,7.95,-1.76
31.25,0.25,7.91,-1.80
31.26,0.31,7.91,-1.66
31.26,0.26,7.91,-1.66
31.26,0.14,7.91,-1.82
31.26,-0.01,7.93,-1.96
31.27,-0.19,7.92,-2.04
31.27,-0.36,7.92,-2.02
31.27,-0.52,7.85,-2.02
31.27,-0.61,7.81,-1.97
31.27,-0.71,7.72,-1.89
31.28,-0.86,7.66,-1.77
31.28,-0.97,7.54,-1.73
31.28,-1.19,7.46,-1.69
31.28,-1.38,7.39,-1.58
31.29,-1.57,7.27,-1.42
31.29,-1.76,7.13,-1.32
31.29,-1.92,7.01,-1.07
31.29,-2.04,6.93,-0.97
31.30,-2.15,6.87,-1.01
31.30,-2.14,6.76,-0.82
31.30,-2.14,6.54,-0.68
31.30,-2.18,6.37,-0.57
31.30,-2.39,6.21,-0.55
31.31,-2.53,6.05,-0.78
31.31,-2.58,5.89,-1.01
31.31,-2.55,5.74,-1.29
31.31,-2.63,5.62,-1.77
31.32,-2.62,5.50,-2.35
31.32,-2.53,5.41,-2.72
31.32,-2.41,5.30,-2.84
31.32,-2.33,5.20,-3.12
31.33,-2.16,5.09,-3.25
31.33,-2.03,4.96,-3.44
31.33,-1.79,4.77,-3.60
31.33,-1.59,4.63,-3.75
31.33,-1.52,4.51,-4.01
31.34,-1.53,4.46,-4.28
31.34,-1.69,4.53,-4.62
31.34,-1.66,4.57,-4.88
31.34,-1.63,4.59,-5.12
31.35,-1.56,4.52,-5.36
31.35,-1.62,4.55,-5.56
31.35,-1.73,4.58,-5.92
31.35,-1.81,4.60,-6.18
31.35,-1.91,4.61,-6.29
31.36,-1.85,4.65,-6.27
31.36,-1.82,4.69,-6.28
31.36,-1.87,4.72,-6.25
31.36,-1.84,4.72,-6.12
31.37,-1.74,4.60,-6.06
31.37,-1.77,4.63,-5.96
31.37,-1.84,4.58,-5.96
31.37,-1.96,4.53,-5.97
31.38,-2.00,4.42,-5.82
31.38,-1.95,4.29,-5.57
31.38,-2.06,4.16,-5.33
31.38,-2.37,4.14,-5.44
31.38,-2.44,4.11,-5.45
31.39,-2.53,4.08,-5.50
31.39,-2.35,3.92,-5.32
31.39,-2.21,3.83,-5.47
31.39,-2.13,3.81,-5.48
31.40,-2.25,3.86,-5.51
31.40,-2.30,3.89,-5.64
31.40,-2.21,3.87,-5.85
31.40,-2.07,3.79,-5.79
31.41,-2.12,3.81,-5.93
31.41,-2.25,3.80,-5.76
31.41,-2.34,3.85,-5.73
31.41,-2.43,3.90,-5.76
31.41,-2.52,3.91,-6.06
31.42,-2.55,3.85,-6.14
31.42,-2.64,3.90,-6.21
31.42,-2.63,3.87,-6.21
31.42,-2.58,3.81,-6.20
31.43,-2.61,3.73,-6.19
31.43,-2.77,3.76,-6.23
31.43,-2.85,3.68,-6.22
31.43,-2.92,3.66,-6.21
31.44,-3.05,3.69,-6.15
31.44,-3.13,3.71,-6.17
31.44,-3.17,3.65,-6.20
31.44,-3.25,3.60,-6.22
31.44,-3.24,3.60,-6.32
31.45,-3.25,3.60,-6.45
31.45,-3.28,3.67,-6.60
31.45,-3.27,3.69,-6.70
31.45,-3.19,3.72,-6.88
31.46,-3.02,3.70,-7.05
31.46,-2.89,3.72,-7.16
31.46,-2.77,3.78,-7.25
31.46,-2.69,3.90,-7.42
31.47,-2.59,3.98,-7.58
31.47,-2.37,3.97,-7.68
31.47,-2.28,4.04,-7.80
31.47,-2.12,4.03,-7.88
31.47,-2.00,4.03,-7.96
31.48,-1.90,4.04,-8.01
31.48,-1.77,4.07,-8.03
31.48,-1.68,4.10,-8.10
31.48,-1.59,4.07,-8.14
31.49,-1.51,4.08,-8.11
31.49,-1.51,4.05,-8.13
31.49,-1.53,4.08,-7.98
31.49,-1.54,4.07,-7.86
31.50,-1.61,4.05,-7.69
31.50,-1.68,4.04,-7.47
31.50,-1.76,4.01,-7.20
31.50,-1.88,3.98,-6.88
31.50,-1.97,3.97,-6.69
31.51,-2.05,3.95,-6.46
31.51,-2.15,3.93,-6.20
31.51,-2.25,3.90,-6.02
31.51,-2.38,3.90,-5.83
31.52,-2.43,3.93,-5.67
31.52,-2.51,3.98,-5.56
31.52,-2.53,4.06,-5.51
31.52,-2.52,4.12,-5.51
31.53,-2.49,4.20,-5.46
31.53,-2.44,4.26,-5.43
31.53,-2.35,4.32,-5.47
31.53,-2.22,4.40,-5.51
31.53,-2.10,4.50,-5.60
31.54,-1.98,4.57,-5.72
31.54,-1.86,4.64,-5.83
31.54,-1.72,4.71,-5.93
31.54,-1.57,4.77,-6.04
31.55,-1.46,4.80,-6.18
31.55,-1.37,4.85,-6.29
31.55,-1.30,4.89,-6.39
31.55,-1.21,4.91,-6.48
31.55,-1.17,4.93,-6.54
31.56,-1.15,4.95,-6.59
31.56,-1.16,4.95,-6.65
31.56,-1.19,4.97,-6.70
31.56,-1.22,4.99,-6.68
31.57,-1.24,5.04,-6.66
31.57,-1.29,5.05,-6.70
31.57,-1.38,5.09,-6.72
31.57,-1.48,5.15,-6.74
31.58,-1.59,5.24,-6.70
31.58,-1.66,5.32,-6.64
31.58,-1.77,5.42,-6.60
31.58,-1.88,5.53,-6.57
31.58,-2.01,5.62,-6.57
31.59,-2.13,5.69,-6.57
31.59,-2.22,5.77,-6.59
31.59,-2.31,5.80,-6.63
31.59,-2.38,5.83,-6.66
31.60,-2.44,5.85,-6.72
31.60,-2.52,5.84,-6.81
31.60,-2.54,5.84,-6.89
31.60,-2.57,5.84,-6.97
31.61,-2.53,5.81,-7.06
31.61,-2.52,5.82,-7.16
31.61,-2.51,5.77,-7.25
31.61,-2.46,5.76,-7.29
31.61,-2.40,5.75,-7.36
31.62,-2.35,5.72,-7.43
31.62,-2.29,5.70,-7.49
31.62,-2.24,5.69,-7.60
31.62,-2.18,5.64,-7.69
31.63,-2.09,5.63,-7.75
31.63,-2.01,5.62,-7.86
31.63,-1.95,5.61,-8.03
31.63,-1.83,5.64,-8.14
31.64,-1.70,5.71,-8.23
31.64,-1.58,5.77,-8.36
31.64,-1.41,5.90,-8.44
31.64,-1.22,6.06,-8.50
31.64,-1.07,6.25,-8.56
31.65,-0.95,6.47,-8.64
31.65,-0.81,6.75,-8.78
31.65,-0.65,7.02,-8.83
31.65,-0.51,7.30,-8.85
31.66,-0.38,7.60,-8.95
31.66,-0.24,7.94,-9.04
31.66,-0.08,8.28,-9.15
31.66,0.03,8.58,-9.23
31.67,0.16,8.89,-9.32
31.67,0.29,9.19,-9.40
31.67,0.33,9.42,-9.47
31.67,0.27,9.60,-9.56
31.67,0.19,9.73,-9.73
31.68,0.04,9.78,-9.89
31.68,-0.17,9.73,-10.02
31.68,-0.33,9.59,-10.07
31.68,-0.44,9.47,-10.14
31.69,-0.61,9.27,-10.20
31.69,-0.80,9.02,-10.41
31.69,-1.01,8.71,-10.50
31.69,-1.24,8.34,-10.34
31.70,-1.39,7.92,-10.06
31.70,-1.59,7.51,-9.78
31.70,-1.85,7.14,-9.44
31.70,-2.07,6.75,-9.00
31.70,-2.28,6.37,-8.70
31.71,-2.54,6.04,-8.29
31.71,-2.86,5.72,-7.91
31.71,-3.20,5.43,-7.57
31.71,-3.52,5.19,-7.34
31.72,-3.88,4.97,-7.12
31.72,-4.20,4.75,-6.92
31.72,-4.45,4.61,-6.78
31.72,-4.59,4.42,-6.74
31.73,-4.54,4.21,-6.73
31.73,-4.50,4.03,-6.81
31.73,-4.41,3.90,-6.88
31.73,-4.25,3.78,-7.00
31.73,-4.01,3.74,-7.23
31.74,-3.73,3.77,-7.51
31.74,-3.43,3.91,-7.79
31.74,-3.11,4.16,-8.04
31.74,-2.88,4.48,-8.16
31.75,-2.71,4.84,-8.20
31.75,-2.46,5.20,-8.10
31.75,-2.26,5.67,-7.92
31.75,-2.06,6.15,-7.70
31.75,-1.93,6.60,-7.55
31.76,-1.80,7.05,-7.40
31.76,-1.71,7.52,-7.16
31.76,-1.64,7.91,-7.07
31.76,-1.63,8.29,-7.06
31.77,-1.77,8.62,-7.20
31.77,-1.93,8.94,-7.43
31.77,-2.05,9.24,-7.62
31.77,-2.23,9.51,-7.81
31.78,-2.52,9.77,-7.92
31.78,-2.71,9.98,-7.97
31.78,-2.87,10.14,-7.94
31.78,-3.01,10.25,-7.89
31.78,-3.17,10.29,-7.83
31.79,-3.30,10.27,-7.68
31.79,-3.40,10.22,-7.46
31.79,-3.46,10.12,-7.24
31.79,-3.53,9.97,-7.13
31.80,-3.58,9.87,-7.07
31.80,-3.57,9.77,-7.09
31.80,-3.58,9.65,-7.17
31.80,-3.54,9.51,-7.27
31.81,-3.49,9.35,-7.39
31.81,-3.36,9.22,-7.48
31.81,-3.21,9.08,-7.61
31.81,-3.03,8.88,-7.78
31.81,-2.85,8.74,-7.87
31.82,-2.64,8.59,-7.98
31.82,-2.41,8.45,-8.06
31.82,-2.20,8.34,-8.12
31.82,-2.01,8.23,-8.12
31.83,-1.82,8.12,-8.10
31.83,-1.66,8.07,-8.03
31.83,-1.58,8.03,-7.95
31.83,-1.51,8.02,-7.83
31.84,-1.41,7.99,-7.64
31.84,-1.35,8.01,-7.45
31.84,-1.33,8.05,-7.35
31.84,-1.24,8.10,-6.92
31.84,-1.26,8.16,-6.65
31.85,-1.22,8.22,-6.48
31.85,-1.15,8.32,-6.35
31.85,-1.11,8.40,-6.23
31.85,-1.08,8.46,-6.03
31.86,-1.08,8.57,-5.83
31.86,-1.12,8.68,-5.69
31.86,-1.15,8.82,-5.60
31.86,-1.18,8.91,-5.56
31.87,-1.18,9.00,-5.48
31.87,-1.17,9.08,-5.43
31.87,-1.18,9.17,-5.41
31.87,-1.13,9.24,-5.40
31.87,-1.10,9.29,-5.43
31.88,-1.10,9.35,-5.42
31.88,-1.05,9.42,-5.34
31.88,-1.00,9.41,-5.18
31.88,-0.99,9.45,-5.01
31.89,-0.97,9.46,-4.89
31.89,-0.92,9.47,-4.79
31.89,-0.86,9.46,-4.70
31.89,-0.89,9.47,-4.68
31.90,-0.89,9.49,-4.60
31.90,-0.91,9.50,-4.53
31.90,-0.92,9.52,-4.45
31.90,-0.92,9.53,-4.33
31.90,-0.98,9.55,-4.24
31.91,-1.04,9.58,-4.18
31.91,-1.08,9.59,-4.11
31.91,-1.13,9.59,-4.09
31.91,-1.15,9.54,-4.07
31.92,-1.21,9.51,-4.02
31.92,-1.31,9.51,-3.99
31.92,-1.36,9.50,-3.97
31.92,-1.37,9.45,-3.99
31.93,-1.39,9.40,-3.99
31.93,-1.41,9.31,-3.96
31.93,-1.40,9.23,-3.95
31.93,-1.37,9.15,-3.94
31.93,-1.36,9.04,-3.91
31.94,-1.36,8.96,-3.86
31.94,-1.39,8.90,-3.87
31.94,-1.37,8.82,-3.87
31.94,-1.33,8.73,-3.85
31.95,-1.27,8.61,-3.77
31.95,-1.26,8.53,-3.79
31.95,-1.23,8.45,-3.75
31.95,-1.26,8.40,-3.72
31.95,-1.24,8.34,-3.73
31.96,-1.23,8.28,-3.75
31.96,-1.11,8.20,-3.72
31.96,-1.07,8.13,-3.68
31.96,-1.05,8.12,-3.59
31.97,-1.03,8.10,-3.50
31.97,-0.98,8.11,-3.37
31.97,-0.93,8.12,-3.33
31.97,-0.91,8.15,-3.36
31.98,-0.85,8.17,-3.34
31.98,-0.79,8.20,-3.29
31.98,-0.79,8.27,-3.25
31.98,-0.77,8.33,-3.15
31.98,-0.70,8.37,-2.94
31.99,-0.65,8.44,-2.74
31.99,-0.59,8.51,-2.54
31.99,-0.54,8.60,-2.43
31.99,-0.53,8.67,-2.30
32.00,-0.49,8.69,-2.19
32.00,-0.41,8.72,-2.03
32.00,-0.47,8.81,-2.00
32.00,-0.51,8.90,-1.92
32.01,-0.52,8.98,-1.78
32.01,-0.53,8.99,-1.85
32.01,-0.71,9.04,-1.97
32.01,-0.76,9.11,-1.91
32.01,-0.77,9.10,-1.92
32.02,-0.92,9.10,-1.95
32.02,-0.96,9.08,-1.95
32.02,-1.01,9.07,-1.86
32.02,-1.15,9.05,-1.86
32.03,-1.27,9.06,-2.05
32.03,-1.32,9.07,-2.14
32.03,-1.34,9.07,-2.08
32.03,-1.42,9.08,-2.15
32.04,-1.56,9.14,-2.18
32.04,-1.67,9.16,-2.23
32.04,-1.74,9.18,-2.28
32.04,-1.74,9.13,-2.27
32.04,-1.74,9.13,-2.26
32.05,-1.74,9.08,-2.35
32.05,-1.74,9.07,-2.46
32.05,-1.70,9.00,-2.44
32.05,-1.64,8.96,-2.46
32.06,-1.63,8.92,-2.46
32.06,-1.68,8.93,-2.35
32.06,-1.70,8.91,-2.34
32.06,-1.70,8.85,-2.30
32.07,-1.67,8.82,-2.33
32.07,-1.71,8.75,-2.35
32.07,-1.67,8.72,-2.21
32.07,-1.62,8.68,-2.05
32.07,-1.60,8.68,-1.87
32.08,-1.53,8.65,-1.72
32.08,-1.46,8.62,-1.56
32.08,-1.46,8.64,-1.34
32.08,-1.48,8.64,-1.20
32.09,-1.52,8.62,-1.13
32.09,-1.51,8.56,-1.09
32.09,-1.50,8.54,-1.05
32.09,-1.47,8.60,-1.05
32.10,-1.41,8.56,-1.15
32.10,-1.41,8.56,-1.18
32.10,-1.32,8.50,-1.25
32.10,-1.18,8.39,-1.23
32.10,-1.11,8.34,-1.28
32.11,-0.98,8.25,-1.19
32.11,-1.08,8.33,-1.28
32.11,-1.20,8.41,-1.62
32.11,-1.14,8.37,-1.81
32.12,-1.16,8.39,-2.09
32.12,-1.12,8.39,-2.35
32.12,-0.96,8.31,-2.42
32.12,-0.80,8.23,-2.47
32.13,-0.69,8.21,-2.46
32.13,-0.59,8.23,-2.45
32.13,-0.53,8.29,-2.54
32.13,-0.47,8.29,-2.67
32.13,-0.41,8.26,-2.71
32.14,-0.33,8.30,-2.57
32.14,-0.16,8.26,-2.40
32.14,0.00,8.21,-2.13
32.14,0.18,8.12,-1.84
32.15,0.25,8.13,-1.62
32.15,0.23,8.20,-1.44
32.15,0.16,8.34,-1.27
32.15,0.13,8.41,-1.21
32.15,0.16,8.50,-1.17
32.16,0.18,8.59,-1.12
32.16,0.20,8.69,-1.07
32.16,0.27,8.77,-0.94
32.16,0.19,8.92,-0.94
32.17,0.00,9.11,-1.14
32.17,-0.19,9.33,-1.43
32.17,-0.31,9.48,-1.70
32.17,-0.30,9.54,-1.92
32.18,-0.25,9.59,-2.05
32.18,-0.23,9.60,-2.15
32.18,-0.17,9.68,-2.19
32.18,-0.11,9.73,-2.18
32.18,-0.06,9.78,-2.18
32.19,0.01,9.83,-2.07
32.19,0.07,9.87,-1.94
32.19,0.09,9.94,-1.84
32.19,0.10,10.00,-1.72
32.20,0.11,10.04,-1.65
32.20,0.07,10.09,-1.59
32.20,0.13,10.12,-1.92
32.20,0.11,10.13,-1.40
32.21,-0.01,10.22,-1.25
32.21,-0.08,10.27,-1.22
32.21,-0.09,10.28,-1.26
32.21,-0.04,10.27,-1.23
32.21,0.02,10.24,-1.15
32.22,0.02,10.23,-1.11
32.22,0.03,10.21,-0.99
32.22,0.05,10.17,-0.89
32.22,0.06,10.15,-0.81
32.23,0.00,10.17,-0.75
32.23,-0.10,10.21,-0.78
32.23,-0.15,10.17,-0.77
32.23,-0.09,10.07,-0.80
32.24,0.02,9.89,-0.83
32.24,0.01,9.74,-0.71
32.24,-0.09,9.71,-0.64
32.24,-0.16,9.66,-0.56
32.24,-0.19,9.62,-0.47
32.25,-0.17,9.58,-0.36
32.25,-0.21,9.52,-0.28
32.25,-0.27,9.48,-0.22
32.25,-0.33,9.42,-0.17
32.26,-0.37,9.39,-0.18
32.26,-0.41,9.33,-0.21
32.26,-0.52,9.28,-0.28
32.26,-0.61,9.26,-0.38
32.27,-0.69,9.19,-0.48
32.27,-0.81,9.16,-0.57
32.27,-0.87,9.11,-0.60
32.27,-0.93,9.06,-0.59
32.27,-0.99,9.02,-0.57
32.28,-1.06,8.97,-0.54
32.28,-1.10,8.93,-0.52
32.28,-1.13,8.88,-0.52
32.28,-1.15,8.87,-0.53
32.29,-1.14,8.86,-0.53
32.29,-1.11,8.84,-0.55
32.29,-1.10,8.82,-0.56
32.29,-1.10,8.84,-0.59
32.30,-1.12,8.88,-0.62
32.30,-1.12,8.91,-0.61
32.30,-1.09,8.98,-0.59
32.30,-1.08,9.05,-0.58
32.30,-1.09,9.12,-0.54
32.31,-1.13,9.19,-0.49
32.31,-1.10,9.25,-0.46
32.31,-1.06,9.30,-0.43
32.31,-1.08,9.34,-0.46
32.32,-1.05,9.42,-0.46
32.32,-1.03,9.48,-0.46
32.32,-1.03,9.53,-0.47
32.32,-1.04,9.58,-0.47
32.33,-1.01,9.61,-0.46
32.33,-1.01,9.65,-0.44
32.33,-1.01,9.70,-0.41
