"Time (s)","Acceleration x (m/s^2)","Acceleration y (m/s^2)","Acceleration z (m/s^2)"
0.000000000E0,-4.225689411E0,6.378593922E0,4.549960136E0
1.388604000E-3,-4.172039986E0,6.363385677E0,4.602555752E0
3.388604000E-3,-4.112012863E0,6.348666668E0,4.704510689E0
5.388604000E-3,-4.058421135E0,6.342642784E0,4.840501308E0
7.388604000E-3,-4.004378796E0,6.333362579E0,4.986279488E0
9.388604000E-3,-3.940683603E0,6.319677353E0,5.141892910E0
1.138860400E-2,-3.889562607E0,6.303205013E0,5.293273449E0
1.338860400E-2,-3.830837727E0,6.279493332E0,5.438908100E0
1.556985400E-2,-3.758925200E0,6.242871761E0,5.570483685E0
1.790110400E-2,-3.683105707E0,6.194067955E0,5.706311703E0
1.872454200E-2,-3.683105707E0,6.194067955E0,5.706311703E0
2.123704200E-2,-3.577396870E0,6.099247932E0,5.879354954E0
2.338860400E-2,-3.554316998E0,6.067625523E0,5.957147598E0
2.538860400E-2,-3.526180267E0,6.009513378E0,6.097993851E0
2.738860400E-2,-3.509870768E0,5.963697910E0,6.225546837E0
2.938860400E-2,-3.508386374E0,5.940550804E0,6.344423771E0
3.138860400E-2,-3.529225588E0,5.924528599E0,6.458598614E0
3.338860400E-2,-3.572886229E0,5.917748451E0,6.565073013E0
3.538860400E-2,-3.615742683E0,5.924634457E0,6.664059162E0
3.738860400E-2,-3.671661615E0,5.946516991E0,6.764491081E0
3.938860400E-2,-3.726900578E0,5.972719193E0,6.855490208E0
4.138860400E-2,-3.775225163E0,5.997273922E0,6.954878330E0
4.338860400E-2,-3.798180580E0,6.023026466E0,7.062866211E0
4.538860400E-2,-3.817822695E0,6.034996986E0,7.166995049E0
4.738860400E-2,-3.828098536E0,6.045943260E0,7.255628586E0
4.938860400E-2,-3.832523108E0,6.050511837E0,7.334196091E0
5.138860400E-2,-3.817152262E0,6.051938534E0,7.399060249E0
5.338860400E-2,-3.793631792E0,6.043568134E0,7.451933384E0
5.556985400E-2,-3.764681101E0,6.031654835E0,7.481257915E0
5.738860400E-2,-3.728758574E0,6.023217678E0,7.497251034E0
5.938860400E-2,-3.679955006E0,6.006793499E0,7.489714146E0
6.138860400E-2,-3.636294365E0,5.993864536E0,7.461884022E0
6.338860400E-2,-3.598044634E0,5.980284691E0,7.421048164E0
6.538860400E-2,-3.558147669E0,5.967298985E0,7.366173267E0
6.738860400E-2,-3.525701523E0,5.956342697E0,7.294241905E0
6.938860400E-2,-3.493236065E0,5.951573849E0,7.209832191E0
7.138860400E-2,-3.478028059E0,5.951650620E0,7.112186909E0
7.338860400E-2,-3.468748093E0,5.962117672E0,6.997878075E0
7.538860400E-2,-3.479254007E0,5.976597786E0,6.884995937E0
7.738860400E-2,-3.492029190E0,5.991116047E0,6.759808064E0
7.938860400E-2,-3.517158985E0,6.024864674E0,6.634763718E0
8.138860400E-2,-3.556634426E0,6.057943344E0,6.516011238E0
8.338860400E-2,-3.591274023E0,6.091174603E0,6.401855946E0
8.538860400E-2,-3.621153593E0,6.123688221E0,6.294681549E0
8.738860400E-2,-3.650324345E0,6.155942917E0,6.195839882E0
8.938860400E-2,-3.676631927E0,6.184644699E0,6.099611759E0
9.138860400E-2,-3.696408033E0,6.198731899E0,6.011888027E0
9.338860400E-2,-3.698802233E0,6.208193779E0,5.938663960E0
9.557141700E-2,-3.694128752E0,6.204391479E0,5.880571365E0
9.775422900E-2,-3.689761639E0,6.189490318E0,5.840788841E0
9.974954200E-2,-3.684571028E0,6.177576542E0,5.818752766E0
1.013886040E-1,-3.673691988E0,6.164236546E0,5.795681953E0
1.033886040E-1,-3.662400961E0,6.141864777E0,5.783989429E0
1.053886040E-1,-3.630203724E0,6.117558956E0,5.786086559E0
1.073886040E-1,-3.588793516E0,6.104793072E0,5.798182011E0
1.093886040E-1,-3.553177357E0,6.090437412E0,5.813112259E0
1.113886040E-1,-3.500323057E0,6.077288628E0,5.828329563E0
1.133886040E-1,-3.439720869E0,6.072892666E0,5.838183880E0
1.153886040E-1,-3.391932726E0,6.063047886E0,5.856677055E0
1.173886040E-1,-3.350110531E0,6.055520535E0,5.883521080E0
1.193886040E-1,-3.306651115E0,6.051172256E0,5.914099693E0
1.213886040E-1,-3.256104708E0,6.044670105E0,5.961504936E0
1.233886040E-1,-3.216772795E0,6.046048641E0,6.023016453E0
1.253886040E-1,-3.166350842E0,6.052867889E0,6.080803394E0
1.273886040E-1,-3.114482880E0,6.053298473E0,6.152025700E0
1.293886040E-1,-3.075150967E0,6.046546936E0,6.219647408E0
1.313886040E-1,-3.031787157E0,6.050674438E0,6.303109169E0
1.333886040E-1,-2.987053871E0,6.052465439E0,6.378057480E0
1.355698540E-1,-2.954703331E0,6.058125019E0,6.459699631E0
1.373886040E-1,-2.929956913E0,6.058900833E0,6.536659241E0
1.393886040E-1,-2.924412012E0,6.065097332E0,6.620437145E0
1.413886040E-1,-2.920016289E0,6.073878765E0,6.710784435E0
1.433886040E-1,-2.930387974E0,6.093138218E0,6.796784401E0
1.453886040E-1,-2.956025124E0,6.106852055E0,6.890033722E0
1.473886040E-1,-2.986345291E0,6.121523380E0,6.977622986E0
1.493886040E-1,-3.025025845E0,6.136894703E0,7.063948154E0
1.513886040E-1,-3.073762417E0,6.159208298E0,7.148885250E0
1.533886040E-1,-3.110604286E0,6.175374031E0,7.226859570E0
1.553886040E-1,-3.153565884E0,6.189011097E0,7.301712036E0
1.573886040E-1,-3.203011036E0,6.195111752E0,7.371766090E0
1.593886040E-1,-3.269962311E0,6.194144726E0,7.434034824E0
1.613886040E-1,-3.347170591E0,6.201806068E0,7.484456539E0
1.633886040E-1,-3.416238546E0,6.209496021E0,7.524497032E0
1.653886040E-1,-3.479282618E0,6.203070164E0,7.557278156E0
1.673886040E-1,-3.545831680E0,6.199967384E0,7.575895786E0
1.693886040E-1,-3.612668514E0,6.203290462E0,7.591151714E0
1.713886040E-1,-3.675559282E0,6.200446129E0,7.605162621E0
1.733886040E-1,-3.734677076E0,6.201308250E0,7.623693943E0
1.755698540E-1,-3.792128086E0,6.210932732E0,7.633414268E0
1.773886040E-1,-3.841975689E0,6.220834732E0,7.629928112E0
1.793886040E-1,-3.893900871E0,6.227998734E0,7.619681358E0
1.813886040E-1,-3.942426443E0,6.237843513E0,7.608552933E0
1.833886040E-1,-3.982218266E0,6.236885548E0,7.603543758E0
1.853886040E-1,-4.010805130E0,6.237661839E0,7.591372013E0
1.873886040E-1,-4.035168648E0,6.237795353E0,7.575695038E0
1.893886040E-1,-4.046200752E0,6.240611553E0,7.558724403E0
1.913886040E-1,-4.060058594E0,6.232270241E0,7.536573410E0
1.933886040E-1,-4.066264629E0,6.222750664E0,7.509030819E0
1.953886040E-1,-4.076693535E0,6.206192493E0,7.480587482E0
1.973886040E-1,-4.079566479E0,6.188992023E0,7.456521034E0
1.993886040E-1,-4.065536499E0,6.173707485E0,7.430021763E0
2.013886040E-1,-4.052205563E0,6.155435085E0,7.391484737E0
2.033886040E-1,-4.043270111E0,6.136108875E0,7.339377403E0
2.053886040E-1,-4.034067154E0,6.121284008E0,7.280489922E0
2.073886040E-1,-4.031174660E0,6.101699829E0,7.221104145E0
2.093886040E-1,-4.024672031E0,6.084174156E0,7.158931255E0
2.113886040E-1,-4.015373230E0,6.062818050E0,7.089662075E0
2.133886040E-1,-4.013572693E0,6.045023918E0,7.018152237E0
2.155698540E-1,-4.010498524E0,6.034020424E0,6.949160576E0
2.173886040E-1,-4.007261276E0,6.025267124E0,6.881950855E0
2.193995420E-1,-3.997981787E0,6.025611877E0,6.827985287E0
2.213932920E-1,-3.981528759E0,6.036634922E0,6.788596153E0
2.233932920E-1,-3.952281237E0,6.043453693E0,6.757730007E0
2.253932920E-1,-3.918015480E0,6.047131062E0,6.734650135E0
2.273932920E-1,-3.875206947E0,6.059044361E0,6.720792294E0
2.293932920E-1,-3.825110674E0,6.071618557E0,6.707882881E0
2.313932920E-1,-3.753945589E0,6.072222233E0,6.706312180E0
2.333932920E-1,-3.664833307E0,6.073553085E0,6.720294476E0
2.353932920E-1,-3.564286470E0,6.077997208E0,6.752070427E0
2.373932920E-1,-3.461699724E0,6.082746983E0,6.795223236E0
2.393932920E-1,-3.354238272E0,6.078830242E0,6.848106384E0
2.413932920E-1,-3.248261213E0,6.075976372E0,6.901976109E0
2.433932920E-1,-3.148633718E0,6.080841541E0,6.962913036E0
2.455761040E-1,-3.053900242E0,6.089345932E0,7.027546883E0
2.476182920E-1,-2.967248917E0,6.105358124E0,7.099918842E0
2.493932920E-1,-2.895164490E0,6.118190765E0,7.167014122E0
2.513932920E-1,-2.830971241E0,6.128246784E0,7.227951050E0
2.533932920E-1,-2.770091295E0,6.131062031E0,7.282634735E0
2.555745420E-1,-2.721086979E0,6.130411148E0,7.324514389E0
2.574432920E-1,-2.686361313E0,6.129673481E0,7.360101700E0
2.593932920E-1,-2.672292948E0,6.138628006E0,7.392729759E0
2.613932920E-1,-2.673585892E0,6.146193504E0,7.408426285E0
2.633932920E-1,-2.692471504E0,6.150206089E0,7.410859108E0
2.653932920E-1,-2.734657288E0,6.153931618E0,7.400419712E0
2.673948540E-1,-2.797097921E0,6.159974575E0,7.382913589E0
2.693932920E-1,-2.866156340E0,6.161880493E0,7.366508484E0
2.713932920E-1,-2.929698467E0,6.159389973E0,7.342958927E0
2.733932920E-1,-3.008295059E0,6.167731762E0,7.303359032E0
2.753948540E-1,-3.100366592E0,6.175517559E0,7.256633759E0
2.773948540E-1,-3.197303295E0,6.175890923E0,7.223593712E0
2.793932920E-1,-3.274894476E0,6.176168919E0,7.194786549E0
2.813932920E-1,-3.347419739E0,6.178840637E0,7.164399624E0
2.833932920E-1,-3.409008026E0,6.166678429E0,7.133763313E0
2.853932920E-1,-3.453588247E0,6.152571678E0,7.107053757E0
2.873948540E-1,-3.498694897E0,6.134155273E0,7.092267036E0
2.893932920E-1,-3.526419640E0,6.108163834E0,7.095934868E0
2.913932920E-1,-3.540679455E0,6.078207493E0,7.105627060E0
2.933932920E-1,-3.542920351E0,6.041701317E0,7.117358208E0
2.955745420E-1,-3.523479462E0,6.014522076E0,7.128189564E0
2.974432920E-1,-3.524293661E0,5.988549709E0,7.140936375E0
2.993932920E-1,-3.521430254E0,5.968112946E0,7.161143780E0
3.013932920E-1,-3.506308317E0,5.947292805E0,7.188552380E0
3.033932920E-1,-3.484051943E0,5.927842140E0,7.212274075E0
3.053932920E-1,-3.465712309E0,5.924174309E0,7.239299774E0
3.073948540E-1,-3.444700718E0,5.921243668E0,7.273498535E0
3.093932920E-1,-3.430910110E0,5.920362949E0,7.293829918E0
3.113932920E-1,-3.406029463E0,5.918112278E0,7.315052032E0
3.133932920E-1,-3.387326241E0,5.920113564E0,7.328910351E0
3.153932920E-1,-3.370911360E0,5.920496941E0,7.329245090E0
3.173948540E-1,-3.358729839E0,5.929019928E0,7.328958035E0
3.193932920E-1,-3.344968081E0,5.952004433E0,7.321334839E0
3.213932920E-1,-3.321054697E0,5.975237846E0,7.311298370E0
3.233932920E-1,-3.298625708E0,5.985284328E0,7.294126987E0
3.253932920E-1,-3.274405956E0,5.990752220E0,7.269179344E0
3.273948540E-1,-3.261668921E0,5.997580528E0,7.228717327E0
3.293932920E-1,-3.239421844E0,6.011371136E0,7.173335075E0
3.313932920E-1,-3.204849720E0,6.007904530E0,7.122185230E0
3.333932920E-1,-3.165824175E0,5.999974728E0,7.067606926E0
3.355745420E-1,-3.127105236E0,5.990800381E0,7.008144379E0
3.374432920E-1,-3.089305401E0,5.982611656E0,6.947121143E0
3.393932920E-1,-3.051237822E0,5.963649750E0,6.880514145E0
3.413932920E-1,-3.015382051E0,5.950740337E0,6.805882454E0
3.433932920E-1,-2.975360632E0,5.946469307E0,6.737542152E0
3.453932920E-1,-2.946362019E0,5.946574688E0,6.670973778E0
3.473948540E-1,-2.908744335E0,5.953996658E0,6.612794399E0
3.494557920E-1,-2.863896132E0,5.965067387E0,6.564020157E0
3.513932920E-1,-2.826996803E0,5.976760864E0,6.511625290E0
3.533932920E-1,-2.796590328E0,5.995435715E0,6.479839802E0
3.553932920E-1,-2.753753424E0,6.012635231E0,6.459815025E0
3.573948540E-1,-2.710715055E0,6.031473160E0,6.441044331E0
3.593932920E-1,-2.648063660E0,6.054476738E0,6.432741165E0
3.613932920E-1,-2.588553429E0,6.068880081E0,6.432147503E0
3.633932920E-1,-2.531581163E0,6.077307701E0,6.448590755E0
3.653932920E-1,-2.470116854E0,6.085936069E0,6.474486351E0
3.673948540E-1,-2.399219990E0,6.089048862E0,6.500813007E0
3.693932920E-1,-2.329663515E0,6.093760490E0,6.539857864E0
3.713932920E-1,-2.268027306E0,6.092429161E0,6.570723534E0
3.733932920E-1,-2.235916376E0,6.081272602E0,6.604079723E0
3.755745420E-1,-2.206122875E0,6.076512814E0,6.636248112E0
3.774432920E-1,-2.177947760E0,6.073514938E0,6.677782536E0
3.793932920E-1,-2.157405615E0,6.065661907E0,6.719480515E0
3.813932920E-1,-2.148652315E0,6.066494942E0,6.748497963E0
3.833932920E-1,-2.151956320E0,6.057991028E0,6.786450863E0
3.853932920E-1,-2.165517092E0,6.041327477E0,6.822421551E0
3.873948540E-1,-2.173456192E0,6.024692535E0,6.860603809E0
3.893932920E-1,-2.204398870E0,6.005979538E0,6.893874168E0
3.913932920E-1,-2.255606174E0,6.002158165E0,6.914378166E0
3.933932920E-1,-2.296939611E0,5.998088360E0,6.940225601E0
3.953932920E-1,-2.332536697E0,5.997082710E0,6.959120750E0
3.973948540E-1,-2.358815432E0,5.992035866E0,6.971254349E0
3.993932920E-1,-2.390667915E0,5.993874550E0,6.989258766E0
4.013932920E-1,-2.414111853E0,6.002033710E0,7.012932777E0
4.033932920E-1,-2.443167925E0,6.003681183E0,7.040715218E0
4.053932920E-1,-2.458615303E0,6.004648209E0,7.077327251E0
4.073948540E-1,-2.475288630E0,6.012510777E0,7.119637489E0
4.093932920E-1,-2.489730358E0,6.010872841E0,7.173335075E0
4.113932920E-1,-2.501289606E0,6.007521629E0,7.227597237E0
4.133932920E-1,-2.503099680E0,5.993232727E0,7.280700207E0
4.155745420E-1,-2.502055645E0,5.971138954E0,7.325529099E0
4.174432920E-1,-2.486474037E0,5.945396423E0,7.362936497E0
4.193932920E-1,-2.477174997E0,5.923446655E0,7.398380280E0
4.213932920E-1,-2.452917099E0,5.892283916E0,7.426325321E0
4.233932920E-1,-2.424167395E0,5.854943752E0,7.440536976E0
4.253932920E-1,-2.406776190E0,5.814107895E0,7.443812370E0
4.273948540E-1,-2.397285461E0,5.772257328E0,7.447547436E0
4.293932920E-1,-2.397955894E0,5.725349903E0,7.447968960E0
4.313932920E-1,-2.400982141E0,5.684974670E0,7.432942867E0
4.333932920E-1,-2.403299570E0,5.632435799E0,7.419468403E0
4.353932920E-1,-2.422175646E0,5.582943439E0,7.396963120E0
4.373948540E-1,-2.463422775E0,5.545220375E0,7.366048813E0
4.393932920E-1,-2.527194738E0,5.515666008E0,7.328728199E0
4.413932920E-1,-2.590124130E0,5.491618633E0,7.285096169E0
4.433932920E-1,-2.667792082E0,5.468347073E0,7.230699539E0
4.453932920E-1,-2.753581047E0,5.450199127E0,7.169025421E0
4.473948540E-1,-2.837349415E0,5.432903290E0,7.107618809E0
4.493932920E-1,-2.927313805E0,5.427013874E0,7.053969383E0
4.513932920E-1,-3.027161598E0,5.406586647E0,6.996958733E0
4.533932920E-1,-3.134833813E0,5.394308567E0,6.943299770E0
4.555745420E-1,-3.235734940E0,5.380891800E0,6.905107498E0
4.574495420E-1,-3.339279413E0,5.370749950E0,6.876060963E0
4.593932920E-1,-3.433179855E0,5.379761696E0,6.864329815E0
4.613932920E-1,-3.520108700E0,5.384377480E0,6.869270802E0
4.633932920E-1,-3.606989145E0,5.392383575E0,6.902646542E0
4.653932920E-1,-3.699913025E0,5.414190292E0,6.948806763E0
4.673948540E-1,-3.770044088E0,5.443964481E0,7.013469219E0
4.693932920E-1,-3.844666481E0,5.467437267E0,7.089355946E0
4.713932920E-1,-3.907557487E0,5.492021084E0,7.163949490E0
4.733932920E-1,-3.965506554E0,5.511414051E0,7.240774632E0
4.753932920E-1,-4.009895325E0,5.530883789E0,7.315770626E0
4.773948540E-1,-4.021329880E0,5.535815716E0,7.398265362E0
4.793932920E-1,-4.001927376E0,5.538200378E0,7.485730171E0
4.813932920E-1,-3.962614536E0,5.529849052E0,7.576614380E0
4.833932920E-1,-3.889371157E0,5.519783974E0,7.682476044E0
4.853932920E-1,-3.820101976E0,5.481601715E0,7.798565865E0
4.873948540E-1,-3.741447687E0,5.453369141E0,7.915048599E0
4.893932920E-1,-3.635691166E0,5.437212944E0,8.007617950E0
4.913932920E-1,-3.424905539E0,5.330316544E0,8.030755997E0
4.933932920E-1,-3.209312439E0,5.175182343E0,8.004840851E0
4.955745420E-1,-3.204514503E0,5.166505337E0,8.009342194E0
4.974432920E-1,-3.332154036E0,5.246059895E0,8.073066711E0
4.993932920E-1,-3.441712856E0,5.330105782E0,8.117292404E0
5.013932920E-1,-3.500562191E0,5.386963367E0,8.097679138E0
5.033932920E-1,-3.505954027E0,5.419964790E0,8.067961693E0
5.053932920E-1,-3.515080929E0,5.438755035E0,8.108107567E0
5.073948540E-1,-3.559105158E0,5.445085049E0,8.372455597E0
5.093932920E-1,-3.600457907E0,5.433219433E0,8.814847946E0
5.113932920E-1,-3.641034842E0,5.423565865E0,9.243648529E0
5.133932920E-1,-3.665436506E0,5.401041508E0,9.677392006E0
5.153932920E-1,-3.684034586E0,5.372961998E0,1.008644676E1
5.173948540E-1,-3.699290514E0,5.312589645E0,1.041848373E1
5.193932920E-1,-3.693180561E0,5.212684631E0,1.065076923E1
5.213932920E-1,-3.674496412E0,5.085935593E0,1.077353382E1
5.233932920E-1,-3.643342972E0,4.938701630E0,1.080472565E1
5.253932920E-1,-3.606414795E0,4.785415649E0,1.074406624E1
5.273948540E-1,-3.582338572E0,4.631209373E0,1.062460518E1
5.293932920E-1,-3.562629700E0,4.465703011E0,1.046243191E1
5.313932920E-1,-3.550447941E0,4.307848454E0,1.027042580E1
5.333932920E-1,-3.563395739E0,4.178112030E0,1.008008671E1
5.355745420E-1,-3.575414658E0,4.066130161E0,9.885830879E0
5.374432920E-1,-3.574811220E0,3.971559286E0,9.705049515E0
5.393932920E-1,-3.589128733E0,3.898833036E0,9.530340195E0
5.413932920E-1,-3.603714228E0,3.846150875E0,9.363703728E0
5.433932920E-1,-3.609881639E0,3.839734316E0,9.237902641E0
5.453932920E-1,-3.658368826E0,3.937819958E0,9.238860130E0
5.473948540E-1,-3.714029312E0,4.049973965E0,9.198455811E0
5.493932920E-1,-3.749224186E0,4.118879318E0,9.034960747E0
5.513932920E-1,-3.781967402E0,4.147666931E0,8.839986801E0
5.533932920E-1,-3.810601711E0,4.159743786E0,8.655220985E0
5.552401670E-1,-3.831862211E0,4.149744987E0,8.523903847E0
5.573932920E-1,-3.840203762E0,4.141442299E0,8.464470863E0
5.593932920E-1,-3.839179039E0,4.112195015E0,8.367408752E0
5.613932920E-1,-3.814825296E0,4.043289661E0,8.318692207E0
5.633932920E-1,-3.780971289E0,3.750248671E0,8.290699005E0
5.653932920E-1,-3.746504307E0,3.388810635E0,8.301588058E0
5.673932920E-1,-3.730146885E0,3.193175554E0,8.323518753E0
5.693932920E-1,-3.754884005E0,3.144630671E0,8.400362968E0
5.713932920E-1,-3.816300154E0,3.184422255E0,8.543642044E0
5.733932920E-1,-3.902347565E0,3.266457319E0,8.729833603E0
5.755745420E-1,-3.970687628E0,3.368383408E0,8.859292984E0
5.775917290E-1,-3.973053217E0,3.485871553E0,8.898510933E0
5.792401670E-1,-3.824459553E0,3.665292978E0,8.661905289E0
5.813932920E-1,-3.738603592E0,3.725617170E0,8.549397469E0
5.833932920E-1,-3.527817965E0,3.855947971E0,8.342135429E0
5.853932920E-1,-3.285505533E0,4.007251740E0,8.139184952E0
5.873932920E-1,-3.048757315E0,4.176004887E0,7.936855316E0
5.893932920E-1,-2.829639912E0,4.404890537E0,7.885859013E0
5.913932920E-1,-2.644711971E0,4.862202168E0,8.692838669E0
5.933932920E-1,-2.512331486E0,5.303913593E0,9.402135849E0
5.955761040E-1,-2.448846817E0,5.611769676E0,9.519901276E0
5.976276670E-1,-2.424627304E0,5.806293488E0,9.303445816E0
6.001104790E-1,-2.386837244E0,5.913812637E0,8.882133484E0
6.018479790E-1,-2.305060863E0,5.990119934E0,8.064370155E0
6.036886040E-1,-2.210250378E0,6.002828598E0,7.452709675E0
6.052573540E-1,-2.107127428E0,5.987266541E0,6.827094555E0
6.073932920E-1,-2.053611994E0,5.968208313E0,6.517476559E0
6.093932920E-1,-1.944197178E0,5.900902748E0,5.930677414E0
6.113932920E-1,-1.813320398E0,5.791784763E0,5.421401501E0
6.133932920E-1,-1.676506281E0,5.641361713E0,5.031367302E0
6.155745420E-1,-1.534472704E0,5.455111980E0,4.754539967E0
6.174432920E-1,-1.393348813E0,5.257724762E0,4.580558300E0
6.193932920E-1,-1.241891623E0,5.053058624E0,4.483468056E0
6.213932920E-1,-1.094475865E0,4.858151436E0,4.466699123E0
6.233932920E-1,-9.823505282E-1,4.685816288E0,4.533804417E0
6.253932920E-1,-8.947514892E-1,4.512553215E0,4.680606842E0
6.273948540E-1,-8.131283522E-1,4.336809158E0,4.889103413E0
6.293932920E-1,-7.322809696E-1,4.149170876E0,5.135150909E0
6.313932920E-1,-6.518357396E-1,3.943288565E0,5.379101276E0
6.333932920E-1,-5.671672225E-1,3.709480286E0,5.609557152E0
6.353932920E-1,-5.529169440E-1,3.398435354E0,5.806111336E0
6.373948540E-1,-7.854322791E-1,2.838067532E0,5.915220261E0
6.393932920E-1,-9.283373356E-1,2.342994690E0,6.020162582E0
6.413932920E-1,-9.176017642E-1,1.965246916E0,6.161295891E0
6.433932920E-1,-8.186445832E-1,1.634904504E0,6.309440136E0
6.453932920E-1,-6.837744117E-1,1.324223399E0,6.480538845E0
6.473948540E-1,-5.349891186E-1,1.023233891E0,6.703917980E0
6.493932920E-1,-4.160068929E-1,7.072184682E-1,6.994871140E0
6.513932920E-1,-3.624725640E-1,3.389998078E-1,7.349978924E0
6.533932920E-1,-3.353797495E-1,1.450886205E-2,7.790942669E0
6.555745420E-1,-3.358298838E-1,-2.417090237E-1,8.328758240E0
6.574432920E-1,-3.686496019E-1,-4.242046475E-1,8.876195908E0
6.593932920E-1,-3.657669723E-1,-4.709777832E-1,9.341782570E0
6.613932920E-1,-3.609402776E-1,-4.324502945E-1,9.716494560E0
6.633932920E-1,-4.150683880E-1,-3.633440435E-1,1.003086185E1
6.653932920E-1,-5.134221911E-1,-2.390754074E-1,1.036583042E1
6.673948540E-1,-5.895194411E-1,-7.015968114E-2,1.076456070E1
6.693932920E-1,-6.334962249E-1,1.562360227E-1,1.124275970E1
6.713932920E-1,-6.408416033E-1,4.411460161E-1,1.181811523E1
6.733932920E-1,-6.192171574E-1,7.658668160E-1,1.248133659E1
6.753932920E-1,-6.062693596E-1,1.076193571E0,1.306095409E1
6.773932920E-1,-6.022949815E-1,1.351306677E0,1.343448830E1
6.793932920E-1,-5.869624615E-1,1.549182653E0,1.362748909E1
6.814011040E-1,-5.416067243E-1,1.647038341E0,1.363585091E1
6.833932920E-1,-4.298453927E-1,1.649672031E0,1.336292076E1
6.853932920E-1,-2.989112735E-1,1.499555588E0,1.312442017E1
6.873932920E-1,-9.977117181E-2,1.267748952E0,1.285299397E1
6.893932920E-1,2.111877501E-1,9.937661290E-1,1.249837494E1
6.913948540E-1,6.370587945E-1,6.963871121E-1,1.207137299E1
6.933932920E-1,1.160546184E0,3.935780227E-1,1.157736301E1
6.955745420E-1,1.724361539E0,1.217212155E-1,1.100936317E1
6.974432920E-1,2.280295134E0,-1.276396811E-1,1.038032055E1
6.993932920E-1,2.748016834E0,-3.231406212E-1,9.732391357E0
7.013932920E-1,3.101209402E0,-4.389337897E-1,9.076533318E0
7.033932920E-1,3.329874754E0,-4.901888371E-1,8.452239990E0
7.053932920E-1,3.466037750E0,-4.737167358E-1,7.857789040E0
7.073948540E-1,3.518595457E0,-3.983472884E-1,7.314851284E0
7.094229790E-1,3.526793242E0,-2.791160345E-1,6.811350822E0
7.113932920E-1,3.497957468E0,-1.570213288E-1,6.410216331E0
7.133932920E-1,3.421419621E0,-3.809653968E-2,6.169302464E0
7.153932920E-1,3.298874855E0,7.929596305E-2,6.103567123E0
7.173948540E-1,3.103795052E0,2.084296197E-1,6.240247250E0
7.193932920E-1,2.855315447E0,3.514783978E-1,6.577341080E0
7.213932920E-1,2.573881865E0,5.039699078E-1,7.098271847E0
7.233932920E-1,2.263248444E0,6.680493355E-1,7.816254616E0
7.253932920E-1,1.916022182E0,8.242949247E-1,8.693853378E0
7.273948540E-1,1.588275194E0,8.798308372E-1,9.769808769E0
7.293932920E-1,1.307416081E0,8.633012772E-1,1.094391537E1
7.313932920E-1,9.730514288E-1,9.243917465E-1,1.198894596E1
7.333932920E-1,6.012606621E-1,1.074460149E0,1.284577370E1
7.355745420E-1,1.795268208E-1,1.316217184E0,1.350787544E1
7.374495420E-1,-2.716174126E-1,1.596597314E0,1.402415180E1
7.393932920E-1,-7.148224711E-1,1.850468874E0,1.433432484E1
7.413932920E-1,-1.124537349E0,2.048526764E0,1.440147781E1
7.433932920E-1,-1.435975075E0,2.187409639E0,1.418219757E1
7.453948540E-1,-1.633563876E0,2.252599239E0,1.366363239E1
7.473948540E-1,-1.722264171E0,2.181855202E0,1.286690903E1
7.493932920E-1,-1.679379225E0,1.890183926E0,1.186627674E1
7.513932920E-1,-1.566554904E0,1.546453118E0,1.080226421E1
7.533932920E-1,-1.363066912E0,1.391701579E0,9.865001678E0
7.553932920E-1,-1.055450320E0,1.378782511E0,9.064217567E0
7.573948540E-1,-6.663829088E-1,1.444441080E0,8.384552002E0
7.593932920E-1,-1.965831220E-1,1.546797991E0,7.823590279E0
7.613932920E-1,3.388561308E-1,1.674198270E0,7.369381428E0
7.633932920E-1,9.196224213E-1,1.813014030E0,7.019234180E0
7.653932920E-1,1.578535557E0,1.950594425E0,6.796870708E0
7.673948540E-1,2.300578833E0,2.067373991E0,6.691822052E0
7.693932920E-1,3.000787020E0,2.177248716E0,6.674871445E0
7.713932920E-1,3.639004707E0,2.278868198E0,6.771625996E0
7.733932920E-1,4.197725296E0,2.394517899E0,6.977489471E0
7.755745420E-1,4.630960941E0,2.541492939E0,7.298235416E0
7.774432920E-1,4.922727585E0,2.740163803E0,7.710191250E0
7.793932920E-1,4.968514442E0,3.020486593E0,8.217139244E0
7.813932920E-1,4.684494972E0,3.441751242E0,8.827336311E0
7.833932920E-1,4.144496918E0,4.000682354E0,9.418195724E0
7.853932920E-1,3.415596962E0,4.630472183E0,9.847524643E0
7.873948540E-1,2.635259628E0,5.254726887E0,9.990840912E0
7.893932920E-1,1.940519691E0,5.796295643E0,9.815250397E0
7.913932920E-1,1.409265399E0,6.190198898E0,9.371451378E0
7.933932920E-1,1.086287618E0,6.398877621E0,8.717977524E0
7.953932920E-1,9.708008766E-1,6.456501007E0,7.960739613E0
7.973948540E-1,9.719789028E-1,6.380289078E0,7.210396767E0
7.993932920E-1,9.643940330E-1,6.184711456E0,6.360733032E0
8.013932920E-1,9.311050177E-1,5.930600643E0,5.285611629E0
8.033932920E-1,9.211451411E-1,5.675886154E0,4.195302010E0
8.053932920E-1,9.006412625E-1,5.386139870E0,3.324444771E0
8.073948540E-1,8.463790417E-1,5.055203438E0,2.856359243E0
8.093932920E-1,7.450372577E-1,4.729180813E0,2.697106361E0
8.113932920E-1,6.111343503E-1,4.426630020E0,2.684465170E0
8.133932920E-1,4.964424968E-1,4.158996582E0,2.760801792E0
8.155745420E-1,4.266659021E-1,3.962652922E0,2.878376245E0
8.174432920E-1,4.378707707E-1,3.852232218E0,3.009272099E0
8.193932920E-1,5.396051407E-1,3.819288015E0,3.130677223E0
8.213932920E-1,7.421737909E-1,3.837666035E0,3.241481066E0
8.233932920E-1,1.035702825E0,3.899599075E0,3.343598366E0
8.253932920E-1,1.402983069E0,4.008257389E0,3.440132618E0
8.273948540E-1,1.820273161E0,4.138368130E0,3.551300287E0
8.293932920E-1,2.282296658E0,4.285180569E0,3.708848476E0
8.313932920E-1,2.774247885E0,4.422406673E0,3.954924345E0
8.333932920E-1,3.283896685E0,4.533497334E0,4.303807735E0
8.353932920E-1,3.788776398E0,4.625406265E0,4.752145290E0
8.373948540E-1,4.240609646E0,4.706282139E0,5.280861855E0
8.393932920E-1,4.575022697E0,4.770322323E0,5.861973286E0
8.413932920E-1,4.805976868E0,4.810362816E0,6.492394924E0
8.433932920E-1,4.970017910E0,4.811282158E0,7.157925606E0
8.453932920E-1,5.082171917E0,4.775857925E0,7.840004921E0
8.473948540E-1,5.161170959E0,4.695393562E0,8.502212524E0
8.493932920E-1,5.225824356E0,4.579112053E0,9.108088493E0
8.513932920E-1,5.283141136E0,4.429847717E0,9.644409180E0
8.533932920E-1,5.378593445E0,4.240389824E0,1.013576698E1
8.555745420E-1,5.524639606E0,4.014309883E0,1.062634850E1
8.574432920E-1,5.727035522E0,3.757613182E0,1.112769413E1
8.593932920E-1,5.971091270E0,3.489300013E0,1.160826778E1
8.613932920E-1,6.231886864E0,3.234087706E0,1.204792976E1
8.633932920E-1,6.437577724E0,3.007634640E0,1.243273544E1
8.653932920E-1,6.564517975E0,2.815150261E0,1.275620079E1
8.673948540E-1,6.601551056E0,2.664535999E0,1.298346901E1
8.693932920E-1,6.571700573E0,2.555925369E0,1.310983467E1
8.713932920E-1,6.485384941E0,2.467483282E0,1.314203167E1
8.733932920E-1,6.318375111E0,2.397026777E0,1.307018661E1
8.753932920E-1,6.108575821E0,2.341423750E0,1.300003624E1
8.773948540E-1,5.868734360E0,2.323764324E0,1.297608471E1
8.793932920E-1,5.445477486E0,2.407350540E0,1.273909664E1
8.813932920E-1,4.873139381E0,2.584081173E0,1.231901073E1
8.833932920E-1,4.240763187E0,2.804127455E0,1.174698830E1
8.853932920E-1,3.621900320E0,3.031634092E0,1.105144310E1
8.873948540E-1,3.061082602E0,3.250617266E0,1.027817345E1
8.893932920E-1,2.629934788E0,3.419829845E0,9.463015556E0
8.913932920E-1,2.320594549E0,3.541330814E0,8.628721237E0
8.933932920E-1,2.115430355E0,3.606817007E0,7.794084072E0
8.955745420E-1,1.997645259E0,3.620846987E0,6.982823372E0
8.974432920E-1,1.970763206E0,3.598504305E0,6.239538670E0
8.993932920E-1,2.017679930E0,3.541991472E0,5.596331596E0
9.013932920E-1,2.135771513E0,3.468221426E0,5.070526600E0
9.033932920E-1,2.302024841E0,3.374713421E0,4.666270733E0
9.053932920E-1,2.511278152E0,3.284270048E0,4.403425217E0
9.073948540E-1,2.739254236E0,3.210767984E0,4.275259018E0
9.093932920E-1,2.980072498E0,3.163563967E0,4.273304939E0
9.113932920E-1,3.220450163E0,3.146325588E0,4.379014015E0
9.133932920E-1,3.463567257E0,3.143673182E0,4.571172714E0
9.153932920E-1,3.694894791E0,3.166006088E0,4.826145649E0
9.173948540E-1,3.926079035E0,3.192610502E0,5.121752739E0
9.193932920E-1,4.137841225E0,3.218372107E0,5.464180946E0
9.213932920E-1,4.309113026E0,3.251287699E0,5.832485676E0
9.233932920E-1,4.429579735E0,3.283772230E0,6.210473061E0
9.253932920E-1,4.537012100E0,3.300799847E0,6.572074413E0
9.273948540E-1,4.647270203E0,3.295331240E0,6.880083561E0
9.293932920E-1,4.776059151E0,3.285151005E0,7.142018318E0
9.313932920E-1,4.889055729E0,3.267520189E0,7.337308407E0
9.333932920E-1,5.019146919E0,3.246566057E0,7.432569504E0
9.355745420E-1,5.158221245E0,3.236721277E0,7.433958054E0
9.374432920E-1,5.302026749E0,3.238550425E0,7.356950760E0
9.393932920E-1,5.487223148E0,3.245455265E0,7.189260960E0
9.413932920E-1,5.727198601E0,3.271762609E0,6.905222893E0
9.433932920E-1,5.990684986E0,3.313306808E0,6.501646519E0
9.455761040E-1,6.245217800E0,3.379482746E0,5.999007225E0
9.476182920E-1,6.521872520E0,3.461287737E0,5.412236691E0
9.493932920E-1,6.828780174E0,3.541962862E0,4.779927731E0
9.513932920E-1,7.145906925E0,3.622503996E0,4.129902363E0
9.533932920E-1,7.428326607E0,3.727992535E0,3.490640640E0
9.553932920E-1,7.674374104E0,3.846390486E0,2.894819498E0
9.573932920E-1,7.853479385E0,3.981921434E0,2.368708134E0
9.593948540E-1,7.995820045E0,4.104887486E0,1.949521899E0
9.613932920E-1,8.101087570E0,4.211180687E0,1.650217891E0
9.633932920E-1,8.190075874E0,4.282881737E0,1.471160293E0
9.653932920E-1,8.279322624E0,4.309113026E0,1.410529494E0
9.673932920E-1,8.374870300E0,4.288130283E0,1.457197428E0
9.693948540E-1,8.464461327E0,4.213976860E0,1.584607124E0
9.713932920E-1,8.538326263E0,4.092667580E0,1.790087104E0
9.733932920E-1,8.606886864E0,3.945424080E0,2.053736687E0
9.755745420E-1,8.635128975E0,3.771940231E0,2.387153149E0
9.774432920E-1,8.611703873E0,3.583497524E0,2.783671379E0
9.793932920E-1,8.535970688E0,3.390898228E0,3.245024443E0
9.813932920E-1,8.403417587E0,3.192888260E0,3.756569624E0
9.833932920E-1,8.256127357E0,2.985080957E0,4.335324764E0
9.853932920E-1,8.071629524E0,2.763751507E0,4.935388088E0
9.873948540E-1,7.884910583E0,2.529991150E0,5.497891426E0
9.893932920E-1,7.716157913E0,2.291088104E0,6.023533821E0
9.913932920E-1,7.549827576E0,2.047109604E0,6.520148277E0
9.933932920E-1,7.411615372E0,1.787788749E0,6.984987736E0
9.953932920E-1,7.291512489E0,1.522281408E0,7.413070679E0
9.973948540E-1,7.200839520E0,1.247493982E0,7.791239738E0
9.993932920E-1,7.128917694E0,9.722470045E-1,8.152352333E0
1.001393292E0,7.081789970E0,6.928724051E-1,8.458398819E0
1.003393292E0,7.052217007E0,4.135839939E-1,8.697196007E0
1.005393292E0,7.018468380E0,1.460079998E-1,8.914081573E0
1.007394854E0,6.978820324E0,-1.053736061E-1,9.096961021E0
1.009393292E0,6.933761120E0,-3.425336480E-1,9.205399513E0
1.011393292E0,6.902493000E0,-5.585672855E-1,9.246435165E0
1.013393292E0,6.895166874E0,-7.479390502E-1,9.230384827E0
1.015574542E0,6.911916733E0,-9.132347703E-1,9.157035828E0
1.017451104E0,6.942476273E0,-1.064663172E0,9.041462898E0
1.019393292E0,6.980563164E0,-1.197483897E0,8.886289597E0
1.021393292E0,7.015356064E0,-1.303250074E0,8.677218437E0
1.023393292E0,7.051144123E0,-1.393530726E0,8.424362183E0
1.025393292E0,7.096777916E0,-1.480334997E0,8.142162323E0
1.027394854E0,7.145275116E0,-1.568738461E0,7.818782806E0
1.029393292E0,7.212312698E0,-1.652621746E0,7.441715240E0
1.031393292E0,7.280508995E0,-1.725932121E0,7.017223358E0
1.033393292E0,7.333717823E0,-1.764814019E0,6.528557301E0
1.035393292E0,7.397614002E0,-1.769544959E0,6.011409760E0
1.037394854E0,7.471958637E0,-1.753647447E0,5.484570503E0
1.039393292E0,7.588326454E0,-1.744348288E0,4.945635319E0
1.041393292E0,7.766244411E0,-1.723844409E0,4.423574924E0
1.043393292E0,7.996844292E0,-1.691704631E0,3.889102936E0
1.045393292E0,8.267686844E0,-1.648800492E0,3.379616737E0
1.047394854E0,8.555181503E0,-1.582960010E0,2.955009937E0
1.049393292E0,8.829193115E0,-1.475872040E0,2.623298168E0
1.051393292E0,9.065769196E0,-1.331434727E0,2.359006882E0
1.053393292E0,9.242882729E0,-1.136431813E0,2.157070398E0
1.055574542E0,9.332291603E0,-9.014744163E-1,2.023157835E0
1.057446417E0,9.316279411E0,-6.290621161E-1,1.971548438E0
1.059393292E0,9.234043121E0,-2.979344428E-1,1.951571345E0
1.061393292E0,9.072751045E0,5.526775494E-2,1.939667225E0
1.063393292E0,8.847944260E0,4.288493991E-1,1.925484061E0
1.065393292E0,8.556235313E0,8.425770402E-1,1.914681435E0
1.067394854E0,8.214447975E0,1.276253223E0,1.892147183E0
1.069393292E0,7.829872608E0,1.726248145E0,1.865973711E0
1.071393292E0,7.398906708E0,2.177870989E0,1.868942618E0
1.073393292E0,6.949132442E0,2.625424147E0,1.887962103E0
1.075393292E0,6.495421410E0,3.051180124E0,1.948219419E0
1.077394854E0,6.030093670E0,3.447487593E0,2.070227861E0
1.079393292E0,5.576210499E0,3.796447277E0,2.232229233E0
1.081393292E0,5.171265125E0,4.080725193E0,2.446290016E0
1.083393292E0,4.809664249E0,4.297074795E0,2.687797785E0
1.085393292E0,4.505121708E0,4.433372021E0,2.934898615E0
1.087394854E0,4.291606426E0,4.483679295E0,3.166168928E0
1.089393292E0,4.146661758E0,4.447852135E0,3.380411625E0
1.091393292E0,4.051018238E0,4.344709873E0,3.611873627E0
1.093393292E0,3.993432522E0,4.183072567E0,3.848037481E0
1.095576104E0,3.965190649E0,3.971808434E0,4.114014149E0
1.097744854E0,3.952051163E0,3.734121561E0,4.398014545E0
1.099976104E0,3.941468954E0,3.464074612E0,4.700124741E0
1.101752667E0,3.933251858E0,3.164627314E0,5.003920078E0
1.103447979E0,3.949570894E0,2.839810610E0,5.274148464E0
1.105393292E0,3.989046335E0,2.480249166E0,5.485183239E0
1.107393292E0,4.034507751E0,2.095893860E0,5.630108833E0
1.109393292E0,4.101631165E0,1.696847439E0,5.702979088E0
1.111393292E0,4.165901184E0,1.284249783E0,5.692434788E0
1.113394854E0,4.208470345E0,8.324255943E-1,5.512763977E0
1.115393292E0,4.276015759E0,4.085561633E-1,5.225182533E0
1.117393292E0,4.370729923E0,1.011310797E-2,5.047417641E0
1.119393292E0,4.496387005E0,-3.911838233E-1,4.924116135E0
1.121393292E0,4.665868282E0,-7.635300756E-1,4.838470936E0
1.123394854E0,4.846371651E0,-1.086670637E0,4.874460220E0
1.125393292E0,5.035456181E0,-1.343099236E0,5.017997742E0
1.127393292E0,5.283926964E0,-1.538877964E0,5.255071640E0
1.129393292E0,5.632033825E0,-1.657515407E0,5.630118847E0
1.131393292E0,6.066351414E0,-1.688266516E0,6.048950672E0
1.133394854E0,6.551484108E0,-1.624149799E0,6.422800064E0
1.135574542E0,7.065499783E0,-1.496021748E0,6.682801247E0
1.137446417E0,7.578146458E0,-1.318333626E0,6.771377087E0
1.139393292E0,8.092104912E0,-1.104761243E0,6.655162811E0
1.141393292E0,8.571873665E0,-8.618551493E-1,6.353952408E0
1.143393292E0,8.975087166E0,-5.876902938E-1,5.902722359E0
1.145240167E0,9.267945290E0,-2.871222496E-1,5.373191833E0
1.147393292E0,9.370895386E0,-1.304456741E-1,5.100406170E0
1.149393292E0,9.499340057E0,1.884524077E-1,4.570808411E0
1.151393292E0,9.554388046E0,5.145331025E-1,4.097513199E0
1.153393292E0,9.586383820E0,8.191329837E-1,3.682167292E0
1.155393292E0,9.601610184E0,1.105326295E0,3.311889648E0
1.157393292E0,9.639495850E0,1.378724933E0,2.984200001E0
1.159393292E0,9.705117226E0,1.636245370E0,2.717706203E0
1.161393292E0,9.777431488E0,1.874343872E0,2.526735067E0
1.163393292E0,9.858106613E0,2.105039597E0,2.414581060E0
1.165393292E0,9.914101601E0,2.328686714E0,2.373142242E0
1.167394854E0,9.934174538E0,2.540209770E0,2.362962246E0
1.169393292E0,9.884567261E0,2.731132746E0,2.393109798E0
1.171393292E0,9.777545929E0,2.897462845E0,2.461392641E0
1.173393292E0,9.604004860E0,3.042972803E0,2.559238672E0
1.175574542E0,9.374142647E0,3.157262564E0,2.683526516E0
1.177446417E0,9.125863075E0,3.238253593E0,2.825119734E0
1.179393292E0,8.860125542E0,3.291548491E0,2.975504398E0
1.181393292E0,8.583443642E0,3.306880951E0,3.131864786E0
1.183393292E0,8.306098938E0,3.291701555E0,3.281282187E0
1.185393292E0,8.055828094E0,3.247887850E0,3.419552088E0
1.187393292E0,7.847178459E0,3.184987307E0,3.543552399E0
1.189394854E0,7.723848343E0,3.097110510E0,3.651483059E0
1.191393292E0,7.691171646E0,2.990779400E0,3.725588560E0
1.193393292E0,7.733098984E0,2.861473083E0,3.763723373E0
1.195393292E0,7.830322742E0,2.720780373E0,3.766500711E0
1.197393292E0,7.984614849E0,2.572550535E0,3.750919104E0
1.199394854E0,8.183362007E0,2.409218073E0,3.721977949E0
1.201393292E0,8.375319481E0,2.244132996E0,3.698256254E0
1.203393292E0,8.536986351E0,2.075629234E0,3.670004606E0
1.205393292E0,8.677544594E0,1.898592353E0,3.629973650E0
1.207393292E0,8.746392250E0,1.727780342E0,3.590631962E0
1.209394854E0,8.721549988E0,1.577347994E0,3.544950724E0
1.211393292E0,8.610823631E0,1.440562367E0,3.498388529E0
1.213393292E0,8.406741142E0,1.314665794E0,3.459037304E0
1.215574542E0,8.147563934E0,1.219022274E0,3.414888144E0
1.217446417E0,7.876808643E0,1.158669114E0,3.350752115E0
1.219393292E0,7.621385574E0,1.141478777E0,3.250492573E0
1.221393292E0,7.427752495E0,1.160143971E0,3.059761047E0
1.223393292E0,7.314075470E0,1.221119523E0,2.759135485E0
1.225393292E0,7.252975464E0,1.331290960E0,2.363833666E0
1.227394854E0,7.245754242E0,1.500379205E0,1.882685304E0
1.229393292E0,7.283286095E0,1.740268588E0,1.328887343E0
1.231393292E0,7.345372677E0,2.046793461E0,7.216602564E-1
1.233393292E0,7.439924240E0,2.408940315E0,1.101045460E-1
1.235393292E0,7.574363708E0,2.827283859E0,-4.396137297E-1
1.237394854E0,7.726740360E0,3.297639370E0,-8.630905747E-1
1.239393292E0,7.894171238E0,3.791745186E0,-1.120275736E0
1.241393292E0,8.063307762E0,4.304774284E0,-1.198115945E0
1.243393292E0,8.230671883E0,4.819824696E0,-1.120649219E0
1.245393292E0,8.376545906E0,5.320471764E0,-9.260293841E-1
1.247394854E0,8.490567207E0,5.809932709E0,-6.595930457E-1
1.249393292E0,8.577888489E0,6.268077850E0,-3.439893126E-1
1.251393292E0,8.646755219E0,6.675254345E0,-6.272808649E-3
1.253393292E0,8.681605339E0,7.037880421E0,3.169635534E-1
1.255574542E0,8.713802338E0,7.348504066E0,5.955337286E-1
1.257446417E0,8.734076500E0,7.585013390E0,8.121610880E-1
1.259393292E0,8.732017517E0,7.762011528E0,9.735973477E-1
1.261393292E0,8.693470955E0,7.890704632E0,1.071242452E0
1.263393292E0,8.628635406E0,7.970546246E0,1.112939835E0
1.265393292E0,8.555526733E0,7.997179508E0,1.113897562E0
1.267394854E0,8.484935760E0,7.967367172E0,1.070370913E0
1.269393292E0,8.416432381E0,7.885753632E0,9.904621243E-1
1.271393292E0,8.356050491E0,7.747282028E0,9.096912742E-1
1.273393292E0,8.323193550E0,7.544282913E0,8.327033520E-1
1.275393292E0,8.321133614E0,7.272033215E0,7.553897500E-1
1.277394854E0,8.355916977E0,6.976694107E0,6.838127375E-1
1.279393292E0,8.437655449E0,6.669757366E0,6.211038232E-1
1.281394854E0,8.594552040E0,6.320797920E0,5.598601103E-1
1.283393292E0,8.832209587E0,5.940186977E0,5.015852451E-1
1.285393292E0,9.156739235E0,5.530567169E0,4.606731236E-1
1.287394854E0,9.561139107E0,5.111275673E0,4.400925934E-1
1.289393292E0,1.000773430E1,4.688641548E0,4.486159384E-1
1.291393292E0,1.048860550E1,4.274234295E0,4.693976045E-1
1.293393292E0,1.100590611E1,3.868129730E0,4.942494333E-1
1.295576104E0,1.153143215E1,3.497900009E0,5.406107306E-1
1.297618292E0,1.204420376E1,3.145234108E0,6.104448438E-1
1.299790167E0,1.254921818E1,2.817008018E0,7.002944350E-1
1.301393292E0,1.299727821E1,2.534329653E0,7.954400182E-1
1.303393292E0,1.339075089E1,2.294478416E0,8.837956190E-1
1.305393292E0,1.372117996E1,2.105594873E0,9.767289162E-1
1.307393292E0,1.398204231E1,1.981594563E0,1.090453506E0
1.309393292E0,1.419636154E1,1.898008227E0,1.242332101E0
1.311394854E0,1.436748886E1,1.860706568E0,1.432920218E0
1.313394854E0,1.448330212E1,1.862928391E0,1.664410710E0
1.315393292E0,1.455290604E1,1.904089451E0,1.911032557E0
1.317393292E0,1.458072662E1,1.981326461E0,2.174461842E0
1.319393292E0,1.453107166E1,2.072277308E0,2.460003853E0
1.321394854E0,1.442067909E1,2.174940586E0,2.745852470E0
1.323393292E0,1.425599575E1,2.303681612E0,2.983884096E0
1.325393292E0,1.406084919E1,2.446730375E0,3.169281483E0
1.327393292E0,1.382529926E1,2.596492767E0,3.294555664E0
1.329393292E0,1.356768227E1,2.754586458E0,3.356259108E0
1.331394854E0,1.329930210E1,2.890337706E0,3.345149994E0
1.333393292E0,1.303700256E1,3.001466990E0,3.296336889E0
1.335574542E0,1.278187656E1,3.088424206E0,3.215996981E0
1.337446417E0,1.253198910E1,3.131884098E0,3.140254259E0
1.339393292E0,1.229724216E1,3.145128727E0,3.112931490E0
1.341393292E0,1.205490112E1,3.149993658E0,3.123226643E0
1.343393292E0,1.182618809E1,3.148298502E0,3.137457848E0
1.345393292E0,1.160824871E1,3.127622366E0,3.142629147E0
1.347394854E0,1.138699627E1,3.107932329E0,3.150635242E0
1.349393292E0,1.112687016E1,3.134871721E0,3.133243799E0
1.351393292E0,1.082859039E1,3.220871687E0,3.104685783E0
1.353393292E0,1.045759583E1,3.413356066E0,3.111935616E0
1.355393292E0,1.001398849E1,3.739943981E0,3.172652245E0
1.357394854E0,9.563025475E0,4.114636898E0,3.269330263E0
1.359393292E0,9.131034851E0,4.514247894E0,3.343598366E0
1.361393292E0,8.711637497E0,4.929077148E0,3.326015472E0
1.363393292E0,8.325185776E0,5.350101948E0,3.155682325E0
1.365393292E0,7.949917793E0,5.797051907E0,2.834792137E0
1.367394854E0,7.609874725E0,6.239797592E0,2.418612957E0
1.369393292E0,7.332386017E0,6.641160965E0,1.972707272E0
1.371393292E0,7.095245838E0,7.025698662E0,1.539567471E0
1.373393292E0,6.850969791E0,7.437961102E0,1.178569674E0
1.375574542E0,6.593200684E0,7.915805817E0,8.962263465E-1
1.377446417E0,6.315732002E0,8.477839470E0,6.124846935E-1
1.379393292E0,5.976320267E0,9.198043823E0,2.375526875E-1
1.381393292E0,5.387222290E0,1.038169956E1,-2.834543288E-1
1.383393292E0,4.632809162E0,1.195418167E1,-1.021759152E0
1.385393292E0,4.086461544E0,1.335779667E1,-1.959577560E0
1.387394854E0,3.937906265E0,1.439588451E1,-2.489960194E0
1.389393292E0,4.166523933E0,1.462004852E1,-2.586044073E0
1.391393292E0,4.668425083E0,1.433883572E1,-2.388427019E0
1.393393292E0,5.358328819E0,1.375126934E1,-1.995385170E0
1.395393292E0,6.226054668E0,1.282389069E1,-1.503022313E0
1.397394854E0,7.176724911E0,1.165752125E1,-9.839881659E-1
1.399393292E0,8.069876671E0,1.038351822E1,-3.481360674E-1
1.401393292E0,8.878254890E0,9.009227753E0,3.256880641E-1
1.403393292E0,9.562728882E0,7.642838001E0,9.281362295E-1
1.405393292E0,1.010139561E1,6.367915630E0,1.418574095E0
1.407394854E0,1.050467491E1,5.209907055E0,1.805563211E0
1.409393292E0,1.078472996E1,4.340831757E0,2.088318586E0
1.411393292E0,1.100308990E1,4.620042801E0,2.828251123E0
1.413393292E0,1.118024254E1,5.568846226E0,3.849742174E0
1.415574542E0,1.113856316E1,6.458024025E0,4.141662598E0
1.417446417E0,1.080536747E1,6.867537498E0,4.329281807E0
1.419393292E0,1.036879921E1,7.023879051E0,5.258069515E0
1.421393292E0,9.876263618E0,7.063326359E0,6.457793713E0
1.423393292E0,9.328279495E0,6.971599102E0,7.478825092E0
1.425393292E0,8.769845963E0,6.786402702E0,8.105474472E0
1.427394854E0,8.287012100E0,6.531037807E0,8.313510895E0
1.429393292E0,7.944095135E0,6.185851097E0,8.136608124E0
1.431393292E0,7.798125267E0,5.783797264E0,7.479036331E0
1.433393292E0,7.818074226E0,5.413395405E0,6.291943073E0
1.435393292E0,7.929902554E0,5.131636143E0,4.931040764E0
1.437394854E0,7.986463070E0,4.941038609E0,3.586782217E0
1.439393292E0,7.864464283E0,4.855191708E0,2.273275375E0
1.441393292E0,7.598822594E0,4.848143578E0,1.108888865E0
1.443393292E0,7.251404762E0,4.906657696E0,1.412483156E-1
1.445393292E0,6.928178310E0,4.996727467E0,-5.747137666E-1
1.447394854E0,6.703382015E0,5.074127674E0,-9.628521800E-1
1.449393292E0,6.612210274E0,5.094669819E0,-1.002337337E0
1.451393292E0,6.676097393E0,5.084853649E0,-7.357860804E-1
1.453393292E0,6.919032097E0,5.072355747E0,-2.125476599E-1
1.455574542E0,7.296013832E0,5.083062649E0,4.587577879E-1
1.457446417E0,7.732399940E0,5.111956120E0,1.155336380E0
1.459393292E0,8.189251900E0,5.199861526E0,1.789838076E0
1.461393292E0,8.593613625E0,5.436513901E0,2.331665039E0
1.463393292E0,8.885783195E0,5.902119160E0,2.833738804E0
1.465393292E0,9.067032814E0,6.612220287E0,3.332604170E0
1.467394854E0,9.155436516E0,7.561300755E0,3.698160648E0
1.469393292E0,9.217168808E0,8.610296249E0,4.068352222E0
1.471393292E0,9.248035431E0,9.612135887E0,4.516670704E0
1.473393292E0,9.235144615E0,1.045348740E1,4.922153473E0
1.475393292E0,9.229828835E0,1.100695896E1,5.209610462E0
1.477394854E0,9.231581688E0,1.125895405E1,5.327539444E0
1.479393292E0,9.235049248E0,1.123659134E1,5.198960781E0
1.481393292E0,9.260427475E0,1.100089741E1,4.769163609E0
1.483393292E0,9.295420647E0,1.059734917E1,4.235362053E0
1.485393292E0,9.347872734E0,1.005571365E1,3.715533018E0
1.487394854E0,9.393210411E0,9.433355331E0,3.285907745E0
1.489393292E0,9.432187080E0,8.791546822E0,2.966655254E0
1.491393292E0,9.446983337E0,8.150293350E0,2.788890600E0
1.493393292E0,9.479985237E0,7.474927902E0,2.739713669E0
1.495574542E0,9.492866516E0,6.866378784E0,2.806952477E0
1.497446417E0,9.502366066E0,6.356710911E0,2.942301512E0
1.499393292E0,9.487933159E0,6.010375023E0,3.082764626E0
1.501393292E0,9.404960632E0,5.855834484E0,3.235610247E0
1.503393292E0,9.328470230E0,5.865180969E0,3.352782726E0
1.505393292E0,9.289493561E0,5.992102623E0,3.427165747E0
1.507394854E0,9.350583076E0,6.122222424E0,3.513969660E0
1.509393292E0,9.489954948E0,6.214121819E0,3.626028061E0
1.511393292E0,9.565343857E0,6.381859303E0,3.758609295E0
1.513393292E0,9.559051514E0,6.601312160E0,3.878060818E0
1.515393292E0,9.478137016E0,6.867805481E0,3.980226278E0
1.517394854E0,9.325233459E0,7.158021450E0,4.025486469E0
1.519393292E0,9.142881393E0,7.400946617E0,3.963552952E0
1.521393292E0,8.927125931E0,7.611608028E0,3.784217834E0
1.523393292E0,8.719289780E0,7.794677734E0,3.468307734E0
1.525393292E0,8.572199821E0,7.940877438E0,3.064463139E0
1.527394854E0,8.505976677E0,8.034644127E0,2.614114046E0
1.529393292E0,8.529065132E0,8.065116882E0,2.157482147E0
1.531393292E0,8.663590431E0,8.002552032E0,1.738286257E0
1.533393292E0,8.945743561E0,7.785972595E0,1.358824372E0
1.535574542E0,9.350353241E0,7.415216446E0,1.005516887E0
1.537446417E0,9.813976288E0,6.940407753E0,6.896641850E-1
1.539393292E0,1.032245731E1,6.422446251E0,4.307934940E-1
1.541393292E0,1.085531998E1,5.917078018E0,2.291729897E-1
1.543393292E0,1.140059471E1,5.452919006E0,5.776729807E-2
1.545393292E0,1.194091797E1,5.056305408E0,-1.076624617E-1
1.547394854E0,1.248363590E1,4.720944405E0,-3.118687272E-1
1.549393292E0,1.299582195E1,4.443169117E0,-5.701264739E-1
1.551393292E0,1.348988056E1,4.197237015E0,-8.970403671E-1
1.553393292E0,1.397202396E1,3.948929310E0,-1.267950058E0
1.555393292E0,1.439833641E1,3.728049755E0,-1.612437367E0
1.557394854E0,1.475831890E1,3.555485249E0,-1.823347449E0
1.559393292E0,1.512744713E1,3.392277241E0,-1.890758514E0
1.561393292E0,1.550516605E1,3.245369196E0,-1.854395390E0
1.563393292E0,1.579551601E1,3.212041855E0,-1.732798696E0
1.565393292E0,1.609909058E1,3.162127495E0,-1.566076040E0
1.567394854E0,1.638143539E1,3.041526794E0,-1.442765117E0
1.569393292E0,1.653904915E1,2.947951794E0,-1.403710961E0
1.571393292E0,1.663712502E1,2.811855793E0,-1.520490527E0
1.573393292E0,1.670471954E1,2.693974972E0,-1.848362088E0
1.575574542E0,1.670228767E1,2.638936996E0,-2.428515434E0
1.577452667E0,1.656935120E1,2.573719025E0,-3.118773460E0
1.579393292E0,1.635650635E1,2.449182034E0,-3.696312189E0
1.581393292E0,1.608753204E1,2.244382143E0,-4.087505817E0
1.583393292E0,1.548808098E1,2.186327696E0,-4.268124104E0
1.585393292E0,1.460668945E1,2.248174667E0,-4.282997131E0
1.587394854E0,1.357140827E1,2.413546801E0,-4.207770824E0
1.589393292E0,1.250060558E1,2.678192377E0,-4.088779449E0
1.591393292E0,1.145754814E1,3.048402786E0,-3.958285809E0
1.593393292E0,1.047603035E1,3.504220724E0,-3.886593819E0
1.595544854E0,9.536948204E0,4.022862434E0,-3.904617548E0
1.597863604E0,8.603841782E0,4.652805328E0,-3.943566084E0
1.599752667E0,7.703363419E0,5.325518608E0,-3.929306507E0
1.601463604E0,6.868581772E0,6.017835617E0,-3.856321573E0
1.603393292E0,6.084892750E0,6.699474335E0,-3.777916193E0
1.605393292E0,5.305340290E0,7.338419914E0,-3.735050440E0
1.607393292E0,4.468863964E0,7.976493835E0,-3.927774191E0
1.609393292E0,3.564286470E0,8.597109795E0,-4.308979034E0
1.611394854E0,2.699395180E0,9.143848419E0,-4.610054493E0
1.613393292E0,1.954664588E0,9.544120789E0,-4.771634102E0
1.615574542E0,1.352216482E0,9.789067268E0,-4.830953121E0
1.617446417E0,8.730599880E-1,9.895791054E0,-4.822515965E0
1.619393292E0,5.060767531E-1,9.886022568E0,-4.809788704E0
1.621393292E0,2.551261187E-1,9.795081139E0,-4.800460339E0
1.623393292E0,9.785581380E-2,9.658162117E0,-4.824096203E0
1.625393292E0,3.178542107E-2,9.497079849E0,-4.888175011E0
1.627394854E0,4.658158869E-2,9.339321136E0,-4.986403942E0
1.629393292E0,1.755141467E-1,9.189127922E0,-5.054207325E0
1.631393292E0,4.101554751E-1,9.074177742E0,-5.044631004E0
1.633393292E0,7.236905694E-1,9.005599022E0,-4.968763351E0
1.635393292E0,1.103985548E0,8.991568565E0,-4.844820499E0
1.637394854E0,1.591368437E0,9.003749847E0,-4.707201481E0
1.639393292E0,2.404266834E0,8.881473541E0,-4.612726688E0
1.641393292E0,3.381647110E0,8.711302757E0,-4.748726368E0
1.643393292E0,4.081299782E0,8.754542351E0,-5.057262897E0
1.645576104E0,4.619813442E0,8.851096153E0,-5.356365681E0
1.647618292E0,5.164954185E0,8.862147331E0,-5.531295300E0
1.649399542E0,5.753908157E0,8.734651566E0,-5.578547478E0
1.651393292E0,6.396397114E0,8.468310356E0,-5.520282269E0
1.653393292E0,7.068219662E0,8.061344147E0,-5.410292625E0
1.655574542E0,7.707854271E0,7.558504581E0,-5.313700676E0
1.657446417E0,8.226486206E0,7.008096695E0,-5.245121002E0
1.659393292E0,8.638251305E0,6.435930252E0,-5.198414803E0
1.661393292E0,8.976091385E0,5.831020832E0,-5.166323185E0
1.663393292E0,9.211787224E0,5.217205048E0,-5.182853222E0
1.665393292E0,9.343123436E0,4.624123096E0,-5.288849354E0
1.667394854E0,9.439216614E0,4.028847694E0,-5.448839188E0
1.669393292E0,9.516568184E0,3.412781239E0,-5.662861824E0
1.671393292E0,9.588366508E0,2.797088385E0,-5.833749771E0
1.673393292E0,9.668877602E0,2.164751053E0,-5.851457596E0
1.675393292E0,9.760988235E0,1.519331694E0,-5.772985458E0
1.677393292E0,9.812673569E0,9.273126125E-1,-5.711665154E0
1.679393292E0,9.829500198E0,4.084316790E-1,-5.664365292E0
1.681393292E0,9.859178543E0,-3.868072107E-2,-5.502086639E0
1.683393292E0,9.903806686E0,-4.017949104E-1,-5.263786793E0
1.685393292E0,9.952236176E0,-6.785550714E-1,-5.050539494E0
1.687393292E0,9.987824440E0,-8.419545293E-1,-4.933894157E0
1.689393292E0,1.002804661E1,-8.961018324E-1,-4.876337528E0
1.691394854E0,1.007679272E1,-8.542990685E-1,-4.792425632E0
1.693393292E0,1.014461517E1,-6.986472011E-1,-4.663655758E0
1.695574542E0,1.018797970E1,-4.405044019E-1,-4.496579170E0
1.697446417E0,1.020464325E1,-8.339483291E-2,-4.297008038E0
1.699393292E0,1.022198677E1,3.227000833E-1,-4.039496899E0
1.701393292E0,1.026844311E1,7.236617804E-1,-3.777332067E0
1.703393292E0,1.030127335E1,1.093154192E0,-3.521296024E0
1.705393292E0,1.031844425E1,1.442525625E0,-2.921452999E0
1.707394854E0,1.028802872E1,1.849300504E0,-2.125936270E0
1.709426104E0,1.009938431E1,2.357024431E0,-1.443847299E0
1.711393292E0,9.768994331E0,2.952845573E0,-9.041176438E-1
1.713393292E0,9.374937057E0,3.604365349E0,-4.266563058E-1
1.715393292E0,8.957484245E0,4.292459011E0,9.701305628E-2
1.717394854E0,8.540854454E0,4.992226601E0,7.145542502E-1
1.719393292E0,8.131053925E0,5.685951233E0,1.439844131E0
1.721393292E0,7.722536087E0,6.351280689E0,2.215297461E0
1.723393292E0,7.319524765E0,6.985859394E0,2.966750860E0
1.725393292E0,6.903460503E0,7.595557213E0,3.638899088E0
1.727394854E0,6.443457603E0,8.189606667E0,4.187047005E0
1.729393292E0,5.945817947E0,8.777075768E0,4.595488071E0
1.731393292E0,5.378028393E0,9.365513802E0,4.842464447E0
1.733393292E0,4.788863182E0,9.953357697E0,4.958018303E0
1.735574542E0,4.207110405E0,1.052427864E1,4.979096889E0
1.737446417E0,3.546885252E0,1.105312920E1,4.940071106E0
1.739240167E0,2.845173597E0,1.153293610E1,4.715523720E0
1.741393292E0,2.703743219E0,1.168800354E1,4.567332745E0
1.743393292E0,2.740633011E0,1.177517319E1,4.435957432E0
1.745393292E0,2.860055923E0,1.160379601E1,4.555916786E0
1.747393292E0,2.907192945E0,1.128325939E1,4.719345093E0
1.749393292E0,2.927419186E0,1.094410610E1,4.673175335E0
1.751393292E0,3.010057449E0,1.061606216E1,4.312292576E0
1.753393292E0,3.212367535E0,1.028810406E1,3.718262196E0
1.755393292E0,3.499058723E0,9.941912651E0,3.005307436E0
1.757393292E0,3.853515625E0,9.565372467E0,2.262568712E0
1.759393292E0,4.291606426E0,9.154182434E0,1.576763749E0
1.761393292E0,4.806340694E0,8.702731133E0,1.030272841E0
1.763393292E0,5.398665905E0,8.215137482E0,6.186234355E-1
1.765393292E0,6.064311981E0,7.700691223E0,3.034315407E-1
1.767393292E0,6.799762726E0,7.178506374E0,2.765781805E-2
1.769393292E0,7.576278687E0,6.676623821E0,-2.571947277E-1
1.771393292E0,8.371258736E0,6.189739227E0,-5.744168758E-1
1.773393292E0,9.180183411E0,5.721596241E0,-8.902121186E-1
1.775574542E0,9.983716011E0,5.259304523E0,-1.190751433E0
1.777446417E0,1.075116348E1,4.828194618E0,-1.458921194E0
1.779393292E0,1.144298172E1,4.442355156E0,-1.682740688E0
1.781393292E0,1.199097633E1,4.100740910E0,-1.882905483E0
1.783393292E0,1.240280724E1,3.802375555E0,-1.971012235E0
1.785393292E0,1.279303455E1,3.563414812E0,-1.801770926E0
1.787394854E0,1.316214275E1,3.389193535E0,-1.634655476E0
1.789393292E0,1.349182415E1,3.226857185E0,-1.746752024E0
1.791393292E0,1.364796448E1,3.082908154E0,-2.049503565E0
1.793393292E0,1.359943962E1,3.042513132E0,-2.274204254E0
1.795393292E0,1.345750141E1,3.038768768E0,-2.290954113E0
1.797394854E0,1.321564865E1,3.065957308E0,-2.186681986E0
1.799393292E0,1.282562447E1,3.210911751E0,-1.943526745E0
1.801393292E0,1.235971165E1,3.434482336E0,-1.577941775E0
1.803393292E0,1.184803295E1,3.727992535E0,-1.168083072E0
1.805393292E0,1.132134628E1,4.096555710E0,-7.903259993E-1
1.807394854E0,1.079730415E1,4.528153896E0,-4.818761945E-1
1.809393292E0,1.031801414E1,4.981711388E0,-2.764919698E-1
1.811393292E0,9.862722397E0,5.434828281E0,-1.670578122E-1
1.813393292E0,9.396533012E0,5.863955498E0,-1.395723820E-1
1.815574542E0,8.845292091E0,6.292900562E0,-2.065429986E-1
1.817446417E0,8.122147560E0,6.733788013E0,-4.380048215E-1
1.819393292E0,7.279072285E0,7.175709724E0,-5.016906261E-1
1.821393292E0,6.414803505E0,7.583863735E0,-1.966405809E-1
1.823393292E0,5.577292919E0,7.956123829E0,3.459334075E-1
1.825393292E0,4.803056240E0,8.256394386E0,9.625552893E-1
1.827394854E0,4.121024609E0,8.465447426E0,1.523516774E0
1.829393292E0,3.533813000E0,8.581192017E0,1.908389449E0
1.831393292E0,3.042293072E0,8.638462067E0,2.086642504E0
1.833393292E0,2.538562536E0,8.700548172E0,2.037427425E0
1.835393292E0,2.268573284E0,8.757731438E0,1.734359741E0
1.837394854E0,2.451614857E0,8.691919327E0,1.326665521E0
1.839393292E0,2.684944153E0,8.481019020E0,9.591746926E-1
1.841393292E0,2.783077717E0,8.189041138E0,6.198971272E-1
1.843393292E0,2.834524155E0,7.955702782E0,2.890280187E-1
1.845393292E0,2.956398726E0,7.819530010E0,-3.093308769E-3
1.847394854E0,3.203595161E0,7.772095680E0,-2.082955539E-1
1.849393292E0,3.569582224E0,7.776491642E0,-3.048584759E-1
1.851393292E0,3.990530968E0,7.894362926E0,-3.465559185E-1
1.853393292E0,4.471621513E0,8.105607986E0,-3.948996365E-1
1.855574542E0,5.025735855E0,8.356644630E0,-5.799906254E-1
1.857452667E0,5.553657055E0,8.655307770E0,-9.934021831E-1
1.859393292E0,6.061132431E0,8.910614967E0,-1.392956138E0
1.861393292E0,6.530098915E0,9.106297493E0,-1.597717762E0
1.863393292E0,6.978791714E0,9.236610413E0,-1.627894402E0
1.865393292E0,7.380643845E0,9.320895195E0,-1.569820523E0
1.867394854E0,7.722296238E0,9.376057625E0,-1.488839149E0
1.869393292E0,7.992640018E0,9.416260719E0,-1.419876575E0
1.871393292E0,8.181562424E0,9.412152290E0,-1.348625064E0
1.873393292E0,8.273441315E0,9.388460159E0,-1.276119113E0
1.875393292E0,8.251922607E0,9.333441734E0,-1.196238875E0
1.877394854E0,8.102428436E0,9.279983521E0,-1.127343416E0
1.879393292E0,7.818935871E0,9.235383987E0,-1.069375038E0
1.881393292E0,7.447308064E0,9.185527802E0,-1.004836798E0
1.883393292E0,6.996087551E0,9.144519806E0,-9.412756562E-1
1.885393292E0,6.485920906E0,9.103846550E0,-8.850023150E-1
1.887394854E0,5.948193073E0,9.068660736E0,-8.464269638E-1
1.889393292E0,5.409267426E0,9.033179283E0,-8.388133645E-1
1.891393292E0,4.912193298E0,8.967683792E0,-8.850309849E-1
1.893393292E0,4.446655273E0,8.870632172E0,-9.828389287E-1
1.895574542E0,3.999513865E0,8.763994217E0,-1.130072713E0
1.897446417E0,3.565828085E0,8.645750046E0,-1.295387626E0
1.899393292E0,3.152799845E0,8.513886452E0,-1.473918438E0
1.901393292E0,2.855171680E0,8.367917061E0,-1.496241927E0
1.903393292E0,3.010258436E0,8.259573936E0,-7.016255856E-1
1.905393292E0,2.940213919E0,8.359441757E0,-7.475655675E-1
1.907394854E0,2.573766947E0,8.518349648E0,-1.435390949E0
1.909393292E0,2.203623295E0,8.588068008E0,-2.145903826E0
1.911393292E0,1.971050501E0,8.587101936E0,-2.730328321E0
1.913393292E0,1.894780755E0,8.527265549E0,-3.174740314E0
1.915393292E0,1.900258780E0,8.441542625E0,-3.592154741E0
1.917394854E0,1.956876874E0,8.339415550E0,-4.003162384E0
1.919393292E0,2.064730644E0,8.217771530E0,-4.383505344E0
1.921393292E0,2.199169874E0,8.072645187E0,-4.726556301E0
1.923393292E0,2.389298439E0,7.877220631E0,-4.988577843E0
1.925393292E0,2.636887550E0,7.639179230E0,-5.132287502E0
1.927394854E0,2.951389790E0,7.358664989E0,-5.173228264E0
1.929393292E0,3.297160387E0,7.046930790E0,-5.155693054E0
1.931393292E0,3.648322821E0,6.736000538E0,-5.127163410E0
1.933393292E0,3.986489534E0,6.446617603E0,-5.048145294E0
1.935574542E0,4.289374828E0,6.200177670E0,-4.974844933E0
1.937446417E0,4.551961422E0,5.997906208E0,-4.873129368E0
1.939393292E0,4.779152393E0,5.850232124E0,-4.759969711E0
1.941393292E0,5.005375385E0,5.756120682E0,-4.602929115E0
1.943393292E0,5.220643044E0,5.704032421E0,-4.423000336E0
1.945393292E0,5.448695183E0,5.710228443E0,-4.209887505E0
1.947394854E0,5.658618927E0,5.780933857E0,-4.062654018E0
1.949393292E0,5.846477509E0,5.926836967E0,-3.997895479E0
1.951393292E0,6.006583214E0,6.137124062E0,-3.929737329E0
1.953393292E0,6.133140087E0,6.418960094E0,-3.790873528E0
1.955393292E0,6.237680435E0,6.750614166E0,-3.469246149E0
1.957394854E0,6.298129559E0,7.128323555E0,-3.027812719E0
1.959393292E0,6.300476074E0,7.544838428E0,-2.560981750E0
1.961393292E0,6.233198643E0,7.991394997E0,-2.163151503E0
1.963393292E0,6.106641293E0,8.442913055E0,-1.851120114E0
1.965393292E0,5.954800606E0,8.867069244E0,-1.506987214E0
1.967394854E0,5.813696384E0,9.249509811E0,-1.121721745E0
1.969393292E0,5.656646252E0,9.596735954E0,-7.324628830E-1
1.971393292E0,5.489272594E0,9.905511856E0,-3.980216682E-1
1.973393292E0,5.311948299E0,1.015729523E1,-1.650754213E-1
1.975574542E0,5.155405998E0,1.033786583E1,3.284844570E-3
1.977446417E0,5.058009624E0,1.043553066E1,1.890653223E-1
1.979393292E0,5.009522438E0,1.046104336E1,3.482893109E-1
1.981393292E0,4.989075661E0,1.042734146E1,4.123964608E-1
1.983393292E0,5.044563770E0,1.031158733E1,4.751245379E-1
1.985393292E0,5.212694168E0,1.010326290E1,5.815994740E-1
1.987394854E0,5.499500275E0,9.797677040E0,6.733548641E-1
1.989393292E0,5.859387398E0,9.419718742E0,6.866570711E-1
1.991393292E0,6.263892651E0,9.000100136E0,6.751936078E-1
1.993393292E0,6.689629555E0,8.541419983E0,7.303751707E-1
1.995576104E0,7.124856949E0,8.046442986E0,8.785475492E-1
1.997616729E0,7.521298409E0,7.541945934E0,1.005009294E0
1.999399542E0,7.860537529E0,7.051278114E0,1.065745354E0
2.001393292E0,8.148904800E0,6.587138176E0,1.105977535E0
2.003393292E0,8.370971680E0,6.153050423E0,1.071855307E0
2.005393292E0,8.564959526E0,5.762288094E0,9.565410018E-1
2.007393292E0,8.742638588E0,5.415751457E0,8.239501119E-1
2.009394854E0,8.907981873E0,5.085312843E0,7.146021724E-1
2.011393292E0,9.099671364E0,4.762201309E0,7.570945024E-1
2.013393292E0,9.270981789E0,4.446320057E0,8.535233140E-1
2.015574542E0,9.377330780E0,4.132823467E0,9.216910601E-1
2.017616729E0,9.424104691E0,3.848726988E0,9.737697244E-1
2.019393292E0,9.424746513E0,3.576247692E0,1.000603914E0
2.021393292E0,9.407162666E0,3.292621136E0,1.066741347E0
2.023393292E0,9.349387169E0,3.023244619E0,1.094016075E0
2.025393292E0,9.260676384E0,2.771355391E0,1.077793002E0
2.027394854E0,9.145601273E0,2.525260210E0,1.044925451E0
2.029393292E0,9.021064758E0,2.276330233E0,1.016951561E0
2.031393292E0,8.911103249E0,2.032887936E0,9.701784253E-1
2.033393292E0,8.809714317E0,1.813933372E0,8.792466521E-1
2.035393292E0,8.740503311E0,1.616325617E0,7.423557639E-1
2.037394854E0,8.714118004E0,1.439633369E0,5.570732951E-1
2.039393292E0,8.727870941E0,1.282075763E0,3.256497383E-1
2.041393292E0,8.774758339E0,1.129842877E0,5.456864461E-2
2.043393292E0,8.852272987E0,9.729940295E-1,-2.653733194E-1
2.045393292E0,8.973036766E0,7.947313190E-1,-5.883032084E-1
2.047394854E0,9.117771149E0,5.881021023E-1,-9.058030844E-1
2.049393292E0,9.277417183E0,3.580864072E-1,-1.239679337E0
2.051393292E0,9.444397926E0,1.244410276E-1,-1.583611250E0
2.053393292E0,9.599561691E0,-9.465716034E-2,-1.959721088E0
2.055574542E0,9.731520653E0,-2.828701437E-1,-2.376848698E0
2.057443292E0,9.852944374E0,-4.402841330E-1,-2.769219875E0
2.059393292E0,9.990294456E0,-5.837638378E-1,-3.050902605E0
2.061393292E0,1.025984383E1,-8.386313915E-1,-2.875694752E0
2.063393292E0,1.065677357E1,-1.234038591E0,-2.259025097E0
2.065393292E0,1.098819828E1,-1.656557798E0,-1.704882383E0
2.067394854E0,1.119875431E1,-2.037494421E0,-1.456258774E0
2.069393292E0,1.132374096E1,-2.351364851E0,-1.451068282E0
2.071393292E0,1.142532253E1,-2.607898712E0,-1.519791365E0
2.073393292E0,1.153070545E1,-2.815935612E0,-1.579167604E0
2.075393292E0,1.163327217E1,-2.926633835E0,-1.573593855E0
2.077394854E0,1.173096561E1,-2.917564631E0,-1.511239290E0
2.079393292E0,1.180174828E1,-2.785596132E0,-1.421763182E0
2.081393292E0,1.177068996E1,-2.603368759E0,-1.365298390E0
2.083393292E0,1.167512321E1,-2.367712259E0,-1.356487632E0
2.085393292E0,1.156210709E1,-2.011847734E0,-1.248126149E0
2.087394854E0,1.140251923E1,-1.578018308E0,-1.087034702E0
2.089393292E0,1.119047928E1,-1.046859860E0,-8.467620611E-1
2.091393292E0,1.089879894E1,-3.688219786E-1,-5.151938796E-1
2.093393292E0,1.055823803E1,3.543609977E-1,-1.821317077E-1
2.095576104E0,1.015749645E1,1.221933484E0,1.970428079E-1
2.097744854E0,9.760154724E0,2.130456448E0,5.771845579E-1
2.099958917E0,9.370791435E0,3.010133982E0,9.552960992E-1
2.101796417E0,9.019378662E0,3.982783318E0,1.345656276E0
2.103477667E0,8.727775574E0,4.940684319E0,1.793668866E0
2.105393292E0,8.461942673E0,5.865707874E0,2.273150921E0
2.107393292E0,8.258454323E0,6.719806194E0,2.700237989E0
2.109393292E0,8.130537033E0,7.545498848E0,3.042120695E0
2.111393292E0,8.055866241E0,8.294319153E0,3.176607609E0
2.113394854E0,8.009735107E0,9.068335533E0,3.195559978E0
2.115393292E0,8.026580811E0,9.822892189E0,3.171838284E0
2.117393292E0,8.085008621E0,1.049400616E1,3.193731070E0
2.119393292E0,8.189884186E0,1.109767056E1,3.359103203E0
2.121393292E0,8.319505692E0,1.168802357E1,3.540363550E0
2.123394854E0,8.460151672E0,1.226356030E1,3.698984146E0
2.125393292E0,8.584017754E0,1.288265324E1,3.844034433E0
2.127393292E0,8.711359978E0,1.336867714E1,3.912384033E0
2.129393292E0,8.816043854E0,1.371728230E1,3.977018118E0
2.131393292E0,8.873466492E0,1.404115009E1,3.972727537E0
2.133394854E0,8.856410980E0,1.428944778E1,3.842780113E0
2.135574542E0,8.792169571E0,1.430387974E1,3.661404848E0
2.137444854E0,8.707701683E0,1.394234657E1,3.505063534E0
2.139393292E0,8.582571030E0,1.330485630E1,3.284040213E0
2.141393292E0,8.379849434E0,1.284817696E1,2.939217806E0
2.143393292E0,8.079626083E0,1.243336678E1,2.267395258E0
2.145393292E0,7.646582127E0,1.196220684E1,1.534951448E0
2.147394854E0,7.206317425E0,1.138826942E1,9.253780842E-1
2.149393292E0,6.806083679E0,1.084694004E1,4.379856884E-1
2.151393292E0,6.394797802E0,1.039398670E1,-1.110909623E-3
2.153393292E0,5.982573509E0,9.908883095E0,-3.646560609E-1
2.155393292E0,5.586410046E0,9.312075615E0,-6.833052039E-1
2.157394854E0,5.232901573E0,8.734957695E0,-9.991291165E-1
2.159393292E0,4.903076172E0,8.264764786E0,-1.362980723E0
2.161393292E0,4.566174030E0,7.872201920E0,-1.764775634E0
2.163393292E0,4.255061626E0,7.495316505E0,-2.092714310E0
2.165393292E0,3.970773935E0,7.162858009E0,-2.317855358E0
2.167394854E0,3.711692572E0,6.894189835E0,-2.488092661E0
2.169393292E0,3.511690617E0,6.605583668E0,-2.699156046E0
2.171393292E0,3.318344593E0,6.392556667E0,-2.948516846E0
2.173393292E0,3.136835098E0,6.258931637E0,-3.245589256E0
2.175574542E0,3.082582474E0,6.037247658E0,-3.483994484E0
2.177443292E0,3.084871292E0,5.830197334E0,-3.641140223E0
2.179393292E0,3.111600399E0,5.701111317E0,-3.693602085E0
2.181393292E0,3.211907625E0,5.578499317E0,-3.672446728E0
2.183393292E0,3.390984297E0,5.447872162E0,-3.695249319E0
2.185393292E0,3.571114779E0,5.381265163E0,-3.840337992E0
2.187393292E0,3.702690363E0,5.425280094E0,-4.076654911E0
2.189394854E0,3.704021454E0,5.660190105E0,-4.297869682E0
2.191393292E0,3.813158989E0,5.901956081E0,-4.663617611E0
2.193393292E0,4.495381832E0,6.007674217E0,-4.930657387E0
2.195393292E0,5.171973705E0,6.071168900E0,-5.052139282E0
2.197393292E0,5.762335777E0,6.028638363E0,-5.027823925E0
2.199394854E0,6.170566559E0,5.909742355E0,-4.880407810E0
2.201393292E0,6.384723186E0,5.760975838E0,-4.762115002E0
2.203393292E0,6.506147385E0,5.662651062E0,-4.651598454E0
2.205393292E0,6.584897518E0,5.633977890E0,-4.387575626E0
2.207393292E0,6.670916557E0,5.655037403E0,-3.995673656E0
2.209394854E0,6.789343357E0,5.771711349E0,-3.630529165E0
2.211393292E0,6.940598965E0,6.036280155E0,-3.447066069E0
2.213393292E0,7.116228104E0,6.390057087E0,-3.388848782E0
2.215574542E0,7.288054943E0,6.804723740E0,-3.417368650E0
2.217443292E0,7.397480011E0,7.266832829E0,-3.484683752E0
2.219393292E0,7.431956768E0,7.774518490E0,-3.598676682E0
2.221393292E0,7.444272041E0,8.321852684E0,-3.607496738E0
2.223393292E0,7.480807781E0,8.866619110E0,-3.462513685E0
2.225393292E0,7.544072151E0,9.311673164E0,-3.240370035E0
2.227394854E0,7.620150566E0,9.682706833E0,-2.987954140E0
2.229393292E0,7.678156853E0,1.001493645E1,-2.705744982E0
2.231393292E0,7.672286510E0,1.040571785E1,-2.377451897E0
2.233393292E0,7.615611076E0,1.081746292E1,-2.073187351E0
2.235393292E0,7.487348557E0,1.120758438E1,-1.831832409E0
2.237394854E0,7.297066689E0,1.155740547E1,-1.636599660E0
2.239393292E0,7.063144207E0,1.187912846E1,-1.441146612E0
2.241393292E0,6.838625431E0,1.217918015E1,-1.246641755E0
2.243393292E0,6.582168102E0,1.246817875E1,-1.005124211E0
2.245393292E0,6.290352821E0,1.276436996E1,-7.593258619E-1
2.247394854E0,5.935264111E0,1.302906322E1,-6.106938124E-1
2.249393292E0,5.517141342E0,1.318436146E1,-5.897972584E-1
2.251393292E0,5.046785831E0,1.321646309E1,-6.965498924E-1
2.253393292E0,4.547096729E0,1.313974285E1,-9.041367769E-1
2.255574542E0,4.074768543E0,1.296489906E1,-1.157050610E0
2.257443292E0,3.632013559E0,1.272239590E1,-1.393521070E0
2.259393292E0,3.256669760E0,1.239761734E1,-1.406114578E0
2.261393292E0,2.940989494E0,1.199568748E1,-1.175629616E0
2.263393292E0,2.649366140E0,1.162062168E1,-1.040156126E0
2.265393292E0,2.363699436E0,1.130461597E1,-1.163342595E0
2.267394854E0,2.101323843E0,1.102643871E1,-1.450531840E0
2.269393292E0,1.861070395E0,1.079058075E1,-1.791810989E0
2.271393292E0,1.670501590E0,1.055823803E1,-2.123350382E0
2.273393292E0,1.552639723E0,1.030304527E1,-2.390045404E0
2.275393292E0,1.511009455E0,1.001565456E1,-2.618796825E0
2.277394854E0,1.543599248E0,9.688750267E0,-2.837425709E0
2.279393292E0,1.660158515E0,9.326794624E0,-3.028215170E0
2.281393292E0,1.831545115E0,8.955310822E0,-3.162242413E0
2.283393292E0,2.040549517E0,8.616645813E0,-3.255578041E0
2.285393292E0,2.258096218E0,8.318605423E0,-3.291625023E0
2.287394854E0,2.479368210E0,8.055339813E0,-3.294804573E0
2.289393292E0,2.695784807E0,7.840091228E0,-3.290341854E0
2.291393292E0,2.896332741E0,7.664634228E0,-3.280908585E0
2.293393292E0,3.087926626E0,7.524736404E0,-3.266600847E0
2.295574542E0,3.285630226E0,7.393744946E0,-3.247705698E0
2.297443292E0,3.513108015E0,7.267886639E0,-3.161227226E0
2.299393292E0,3.783499479E0,7.137249470E0,-2.982753992E0
2.301393292E0,4.144104481E0,6.993175983E0,-2.682894468E0
2.303393292E0,4.636084557E0,6.788107872E0,-2.173676491E0
2.305393292E0,5.309506416E0,6.459086895E0,-1.358680844E0
2.307394854E0,6.118353367E0,6.008325577E0,-2.621938288E-1
2.309393292E0,6.891479969E0,5.585471630E0,8.122090101E-1
2.311393292E0,7.589475632E0,5.231847763E0,1.678230047E0
2.313393292E0,8.160186768E0,4.999591351E0,2.248519182E0
2.315393292E0,8.583260536E0,4.884822845E0,2.448961973E0
2.317394854E0,8.882669449E0,4.848143578E0,2.321226358E0
2.319393292E0,9.096568108E0,4.862365246E0,1.953256845E0
2.321393292E0,9.232108116E0,4.911168575E0,1.450924516E0
2.323240167E0,9.264594078E0,5.058919430E0,8.267753124E-1
2.325393292E0,9.258454323E0,5.164053917E0,4.623490870E-1
2.327393292E0,9.173987389E0,5.460896492E0,-3.822869956E-1
2.329393292E0,9.030449867E0,5.817967892E0,-1.231682777E0
2.331393292E0,8.891681671E0,6.170576096E0,-1.971395254E0
2.333393292E0,8.675006866E0,6.572207928E0,-2.595353127E0
2.335574542E0,8.369966507E0,7.015700817E0,-3.113908291E0
2.337591729E0,8.009188652E0,7.455276012E0,-3.481533289E0
2.339240167E0,7.444138050E0,8.007598877E0,-3.800555706E0
2.341393292E0,7.240248203E0,8.184147835E0,-3.850154161E0
2.343604229E0,6.767076969E0,8.565659523E0,-3.882045031E0
2.345421417E0,5.982631207E0,9.079923630E0,-3.794675589E0
2.347591729E0,5.725062847E0,9.205216408E0,-3.766749859E0
2.349399542E0,5.219484329E0,9.401925087E0,-3.684322119E0
2.351393292E0,4.725723267E0,9.547338486E0,-3.548992157E0
2.353393292E0,4.225708485E0,9.665670395E0,-3.395064116E0
2.355393292E0,3.756100416E0,9.742839813E0,-3.282354832E0
2.357393292E0,3.394412994E0,9.684757233E0,-3.174711466E0
2.359394854E0,3.214876413E0,9.546544075E0,-3.051563263E0
2.361393292E0,3.320250273E0,9.581097603E0,-2.973684788E0
2.363393292E0,3.281579018E0,9.720535278E0,-2.853065014E0
2.365393292E0,3.005556345E0,9.962540627E0,-2.639272213E0
2.367393292E0,2.569658518E0,1.024190617E1,-2.382115841E0
2.369394854E0,2.060593843E0,1.051720142E1,-2.112700939E0
2.371393292E0,1.577156425E0,1.069514847E1,-1.847681999E0
2.373393292E0,1.222105861E0,1.072843647E1,-1.640851855E0
2.375574542E0,9.894565344E-1,1.065269470E1,-1.529013753E0
2.377443292E0,8.975766897E-1,1.042728519E1,-1.504430175E0
2.379393292E0,9.225050807E-1,1.005911446E1,-1.555484176E0
2.381393292E0,1.025867581E0,9.609205246E0,-1.649853945E0
2.383393292E0,1.162384868E0,9.172464371E0,-1.754719973E0
2.385393292E0,1.267902255E0,8.784507751E0,-1.850239038E0
2.387394854E0,1.330084324E0,8.465600967E0,-1.919785857E0
2.389393292E0,1.360950470E0,8.220472336E0,-1.992512107E0
2.391393292E0,1.365077972E0,8.051805496E0,-2.100653410E0
2.393393292E0,1.352216482E0,7.910681725E0,-2.261304379E0
2.395393292E0,1.307310820E0,7.818591118E0,-2.469034910E0
2.397394854E0,1.242983222E0,7.746391773E0,-2.719918489E0
2.399393292E0,1.148249507E0,7.681221485E0,-2.992167950E0
2.401393292E0,1.031096458E0,7.622353077E0,-3.240877628E0
2.403393292E0,9.418214560E-1,7.566098690E0,-3.438274622E0
2.405393292E0,9.273126125E-1,7.548994541E0,-3.538141489E0
2.407394854E0,9.943023920E-1,7.591324329E0,-3.484789371E0
2.409393292E0,1.156514287E0,7.676519394E0,-3.238923788E0
2.411393292E0,1.289430737E0,7.946221352E0,-3.033961296E0
2.413393292E0,1.407819390E0,8.319869995E0,-2.893191576E0
2.415574542E0,1.494326711E0,8.737016678E0,-2.826757431E0
2.417472979E0,1.550370097E0,9.138687134E0,-2.827255487E0
2.419393292E0,1.629014850E0,9.466922760E0,-2.800631762E0
2.421393292E0,1.734570384E0,9.684028625E0,-2.697374821E0
2.423393292E0,1.824343443E0,9.841557503E0,-2.538706064E0
2.425393292E0,1.884179354E0,9.964121819E0,-2.354017258E0
2.427394854E0,1.944388628E0,1.007053947E1,-2.162433386E0
2.429393292E0,2.034123182E0,1.012551975E1,-1.993077159E0
2.431393292E0,2.167413235E0,1.013487625E1,-1.880578399E0
2.433393292E0,2.309418201E0,1.010348320E1,-1.826565146E0
2.435393292E0,2.469686031E0,1.004083157E1,-1.820780754E0
2.437394854E0,2.645516396E0,9.948281288E0,-1.863052845E0
2.439393292E0,2.844512701E0,9.829874039E0,-1.927188754E0
2.441393292E0,3.060766697E0,9.701928139E0,-2.042493582E0
2.443393292E0,3.296959400E0,9.547904015E0,-2.215507984E0
2.445393292E0,3.605744362E0,9.338631630E0,-2.255022049E0
2.447394854E0,3.969146013E0,9.102765083E0,-2.239584208E0
2.449393292E0,4.375556469E0,8.862434387E0,-2.517752171E0
2.451393292E0,4.815113068E0,8.626844406E0,-2.902050257E0
2.453393292E0,5.296319008E0,8.404136658E0,-3.206027508E0
2.455574542E0,5.861867905E0,8.175834656E0,-3.361756086E0
2.457443292E0,6.415225029E0,7.990236282E0,-3.455283165E0
2.459393292E0,6.910202503E0,7.842734337E0,-3.505130291E0
2.461393292E0,7.296195984E0,7.739256859E0,-3.519112587E0
2.463393292E0,7.569393158E0,7.674920082E0,-3.526822090E0
2.465393292E0,7.759962082E0,7.600317001E0,-3.516124487E0
2.467394854E0,7.868735313E0,7.530769825E0,-3.489022255E0
2.469393292E0,7.912491798E0,7.478077888E0,-3.441846848E0
2.471393292E0,7.911965370E0,7.419918537E0,-3.411229849E0
2.473393292E0,7.859474659E0,7.369898796E0,-3.413576126E0
2.475393292E0,7.780054092E0,7.333123684E0,-3.428066015E0
2.477394854E0,7.718379498E0,7.300284863E0,-3.424043655E0
2.479393292E0,7.632350922E0,7.300342083E0,-3.330938101E0
2.481393292E0,7.407238960E0,7.390326023E0,-3.128541708E0
2.483393292E0,7.025784492E0,7.609883785E0,-2.814039230E0
2.485393292E0,6.532646656E0,7.941672325E0,-2.376024961E0
2.487394854E0,5.923025608E0,8.358867645E0,-1.880233645E0
2.489393292E0,5.243991375E0,8.795071602E0,-1.406622171E0
2.491393292E0,4.560178757E0,9.202919006E0,-1.004482508E0
2.493393292E0,3.938480854E0,9.529622078E0,-6.913400888E-1
2.495574542E0,3.414581776E0,9.773869514E0,-4.584513307E-1
2.497443292E0,2.987571001E0,9.939221382E0,-2.922362685E-1
2.499393292E0,2.660973072E0,1.002802753E1,-1.692125946E-1
2.501393292E0,2.399143219E0,1.005715084E1,-6.945100427E-2
2.503393292E0,2.164214611E0,1.006741714E1,1.142513100E-2
2.505393292E0,1.957240701E0,1.007148743E1,5.983588845E-2
2.507394854E0,1.774074674E0,1.007019424E1,9.508810937E-2
2.509393292E0,1.642652273E0,1.005703640E1,1.502026320E-1
2.511393292E0,1.549000621E0,1.003663635E1,2.318736464E-1
2.513393292E0,1.509793162E0,9.997956276E0,2.992752194E-1
2.515393292E0,1.508816242E0,9.938330650E0,3.305817842E-1
2.517394854E0,1.515625477E0,9.877796173E0,3.417196274E-1
2.519393292E0,1.537853241E0,9.797466278E0,3.071186244E-1
2.521393292E0,1.591674924E0,9.677142143E0,2.613127530E-1
2.523393292E0,1.597191215E0,9.527352333E0,1.889312416E-1
2.525393292E0,1.562025070E0,9.349395752E0,6.651092321E-2
2.527394854E0,1.543177843E0,9.163098335E0,-5.721184611E-2
2.529393292E0,1.558922291E0,8.979673386E0,-1.483926177E-1
2.531393292E0,1.607227683E0,8.806956291E0,-2.006053776E-1
2.533393292E0,1.677080870E0,8.648411751E0,-2.298242003E-1
2.535574542E0,1.797432661E0,8.478289604E0,-2.584013939E-1
2.537443292E0,1.932034492E0,8.330682755E0,-3.162069917E-1
2.539393292E0,2.089783669E0,8.193934441E0,-4.080964625E-1
2.541393292E0,2.304582119E0,8.047611237E0,-5.324704647E-1
2.543393292E0,2.586762428E0,7.862213612E0,-7.035025954E-1
2.545393292E0,2.919575691E0,7.653659821E0,-9.012445807E-1
2.547394854E0,3.259753466E0,7.431869984E0,-1.036267996E0
2.549394854E0,3.542757750E0,7.220078945E0,-1.048880577E0
2.551393292E0,3.704213142E0,7.072347164E0,-9.305782914E-1
2.553393292E0,3.776335955E0,6.949027061E0,-7.677630186E-1
2.555393292E0,3.844149351E0,6.810536385E0,-6.387251616E-1
2.557394854E0,3.937111616E0,6.656254292E0,-5.909464359E-1
2.559393292E0,4.037476540E0,6.511079788E0,-6.161525846E-1
2.561393292E0,4.268861771E0,6.318614483E0,-7.658380866E-1
2.563393292E0,4.683547020E0,6.063641548E0,-1.063111663E0
2.565393292E0,5.214398861E0,5.799991608E0,-1.474157810E0
2.567394854E0,5.831710339E0,5.549893379E0,-1.969872594E0
2.569393292E0,6.517936707E0,5.316296577E0,-2.526562691E0
2.571393292E0,7.270548820E0,5.112309933E0,-3.164253712E0
2.573393292E0,8.090562820E0,4.930714607E0,-3.891066074E0
2.575574542E0,8.866964340E0,4.812929630E0,-4.568165302E0
2.577443292E0,9.513954163E0,4.820610523E0,-5.164139748E0
2.579393292E0,1.006036854E1,4.916723251E0,-5.703917503E0
2.581393292E0,1.048358727E1,5.081999302E0,-6.191702843E0
2.583393292E0,1.091030121E1,5.215777874E0,-6.758295059E0
2.585393292E0,1.148549271E1,5.244345665E0,-7.569087029E0
2.587394854E0,1.216287041E1,5.174492359E0,-8.658984184E0
2.589393292E0,1.269285011E1,5.172079086E0,-9.729844093E0
2.591393292E0,1.289602280E1,5.287910461E0,-1.029545021E1
2.593393292E0,1.285434437E1,5.377434731E0,-1.003749943E1
2.595544854E0,1.253671932E1,5.500774384E0,-9.183027267E0
2.597851104E0,1.196912193E1,5.712584496E0,-8.049756050E0
2.599744854E0,1.125714397E1,5.955222130E0,-6.882803440E0
2.601437042E0,1.047098351E1,6.206920147E0,-5.748133183E0
2.603393292E0,9.675466537E0,6.434263706E0,-4.651981831E0
2.605393292E0,8.956229210E0,6.601867676E0,-3.563702106E0
2.607393292E0,8.353924751E0,6.675838947E0,-2.479961872E0
2.609393292E0,7.884489059E0,6.662153244E0,-1.416706681E0
2.611394854E0,7.540269852E0,6.576871872E0,-3.802662790E-1
2.613393292E0,7.347881794E0,6.403560638E0,5.865602493E-1
2.615574542E0,7.266766071E0,6.171926498E0,1.457283616E0
2.617443292E0,7.286705017E0,5.884315968E0,2.188846111E0
2.619393292E0,7.378345013E0,5.577589989E0,2.761299849E0
2.621393292E0,7.517553806E0,5.285506725E0,3.152847767E0
2.623393292E0,7.668312073E0,4.999859333E0,3.352217436E0
2.625393292E0,7.813793659E0,4.747970104E0,3.368297100E0
2.627394854E0,7.924223423E0,4.549069405E0,3.229701519E0
2.629393292E0,7.978227139E0,4.401490688E0,2.945921659E0
2.631393292E0,7.958977699E0,4.295054436E0,2.509324551E0
2.633393292E0,7.908000469E0,4.218008995E0,1.889561415E0
2.635393292E0,7.807970524E0,4.179845333E0,1.096793294E0
2.637394854E0,7.635310650E0,4.188196182E0,1.590611935E-1
2.639393292E0,7.402335644E0,4.220115662E0,-8.544331193E-1
2.641393292E0,7.133513927E0,4.264532566E0,-1.879831433E0
2.643393292E0,6.830456734E0,4.309026718E0,-2.872266293E0
2.645393292E0,6.402708530E0,4.320576191E0,-3.736822128E0
2.647394854E0,5.806111336E0,4.195934296E0,-4.379263401E0
2.649393292E0,5.177528381E0,4.085350990E0,-4.941919327E0
2.651393292E0,4.566336632E0,4.001688004E0,-5.413433552E0
2.653393292E0,3.973838568E0,3.929287195E0,-5.777926922E0
2.655574542E0,3.404554844E0,3.877409697E0,-6.029873371E0
2.657443292E0,2.853878975E0,3.865754604E0,-6.137469292E0
2.659393292E0,2.168390036E0,3.970448256E0,-5.856725216E0
2.661393292E0,1.354715943E0,4.226273537E0,-5.261315823E0
2.663393292E0,5.521316528E-1,4.558416367E0,-4.559067249E0
2.665393292E0,-1.902528405E-1,4.907155991E0,-3.734839916E0
2.667394854E0,-8.862090111E-1,5.262359142E0,-2.738085747E0
2.669393292E0,-1.612762928E0,5.672170639E0,-1.583572865E0
2.671393292E0,-2.367693186E0,6.135965347E0,-3.611222208E-1
2.673393292E0,-3.141173601E0,6.670475483E0,8.758564591E-1
2.675393292E0,-3.932045460E0,7.265990257E0,2.151371956E0
2.677393292E0,-4.767554760E0,7.860710144E0,3.418795347E0
2.679393292E0,-5.634657860E0,8.434178352E0,4.700382710E0
2.681393292E0,-6.511960506E0,8.994306564E0,6.029710770E0
2.683393292E0,-7.364133358E0,9.493124962E0,7.443314552E0
2.685393292E0,-8.178315163E0,9.985621452E0,8.828465462E0
2.687393292E0,-8.928140640E0,1.050493336E1,1.008564186E1
2.689393292E0,-9.596208572E0,1.099605083E1,1.127097225E1
2.691394854E0,-1.016830826E1,1.148271561E1,1.241343784E1
2.693393292E0,-1.063150120E1,1.200511169E1,1.346984577E1
2.695576104E0,-1.099768829E1,1.252424145E1,1.444089508E1
2.697621417E0,-1.123081779E1,1.299837017E1,1.541397572E1
2.699768292E0,-1.130285358E1,1.339762688E1,1.631293106E1
2.701468292E0,-1.120009518E1,1.373434734E1,1.700230789E1
2.703393292E0,-1.087914753E1,1.395102215E1,1.743388748E1
2.705393292E0,-1.028230190E1,1.402714825E1,1.754304314E1
2.707393292E0,-9.425168037E0,1.396647072E1,1.722017097E1
2.709422979E0,-8.335691452E0,1.376168919E1,1.643832970E1
2.711394854E0,-7.096950054E0,1.342714214E1,1.528943920E1
2.713393292E0,-5.818820000E0,1.299399281E1,1.385086823E1
2.715393292E0,-4.566671371E0,1.248614407E1,1.228458214E1
2.717393292E0,-3.443580389E0,1.195062923E1,1.066587162E1
2.719393292E0,-2.483955622E0,1.145484734E1,9.075882912E0
2.721394854E0,-1.680049658E0,1.102972317E1,7.495000362E0
2.723393292E0,-9.888340235E-1,1.068958378E1,5.990953445E0
2.725393292E0,-4.088338912E-1,1.037996578E1,4.789830685E0
2.727393292E0,-1.695094863E-3,1.011008167E1,3.996573925E0
2.729393292E0,3.041210771E-1,9.873783112E0,3.497928619E0
2.731394854E0,6.155779958E-1,9.627353668E0,3.033769608E0
2.733393292E0,1.397189140E0,9.083562851E0,1.904386401E0
2.735574542E0,2.427414179E0,8.043837547E0,7.799351215E-2
2.737443292E0,4.814960003E0,5.941546917E0,-2.434472084E0
2.739393292E0,8.092832565E0,3.167059660E0,-4.270010948E0
2.741393292E0,1.134132385E1,7.379025221E-1,-4.084095955E0
2.743394854E0,1.336351490E1,-5.839841366E-1,-2.533237696E0
2.745393292E0,1.418123913E1,-9.061862230E-1,-9.629957676E-1
2.747394854E0,1.415984440E1,-5.501587987E-1,-1.091756043E-3
2.749393292E0,1.358972836E1,2.433562279E-1,3.704404533E-1
2.751393292E0,1.268818665E1,1.286969662E0,3.937791586E-1
2.753393292E0,1.159303093E1,2.499077320E0,2.411152720E-1
2.755393292E0,1.037039852E1,3.800354719E0,1.099130064E-1
2.757394854E0,9.141541481E0,5.041403294E0,8.731174469E-2
2.759393292E0,8.001412392E0,6.161947250E0,1.601050496E-1
2.761393292E0,7.016131401E0,7.128993988E0,2.266351283E-1
2.763393292E0,6.159620285E0,7.961697102E0,2.097129226E-1
2.765393292E0,5.443006992E0,8.658898354E0,1.263180822E-1
2.767394854E0,4.693353653E0,9.271306992E0,1.279365569E-1
2.769393292E0,3.615512609E0,9.820967674E0,5.955719948E-1
2.771393292E0,2.483323574E0,1.027485085E1,1.200414419E0
2.773393292E0,1.688735843E0,1.055765343E1,1.550101876E0
2.775574542E0,1.053305030E0,1.074718857E1,1.703053117E0
2.777443292E0,5.316564441E-1,1.093262386E1,1.619782805E0
2.779393292E0,1.986995786E-1,1.109824467E1,1.390092611E0
2.781393292E0,1.073272675E-1,1.128774166E1,1.084295630E0
2.783393292E0,3.423325419E-1,1.151643562E1,8.286906481E-1
2.785393292E0,9.048933387E-1,1.173444271E1,7.112694979E-1
2.787394854E0,1.666144133E0,1.190152836E1,7.034260035E-1
2.789393292E0,2.320680618E0,1.202011776E1,7.671884298E-1
2.791393292E0,2.751665592E0,1.212065506E1,8.919167519E-1
2.793393292E0,3.007768631E0,1.221520710E1,1.053975463E0
2.795393292E0,3.160738945E0,1.234741497E1,1.220975876E0
2.797394854E0,3.271101952E0,1.251172447E1,1.393051863E0
2.799393292E0,3.357647657E0,1.270297337E1,1.578161955E0
2.801393292E0,3.435832739E0,1.291698647E1,1.754786968E0
2.803393292E0,3.518499851E0,1.313878536E1,1.928491235E0
2.805393292E0,3.576650143E0,1.336744118E1,2.109530926E0
2.807394854E0,3.566814661E0,1.364095497E1,2.297456741E0
2.809393292E0,3.478746414E0,1.393278885E1,2.496654272E0
2.811393292E0,3.303730249E0,1.420997906E1,2.736170292E0
2.813393292E0,3.041584253E0,1.447405052E1,2.948976517E0
2.815574542E0,2.692538261E0,1.467858219E1,3.143069506E0
2.817443292E0,2.199007273E0,1.484598541E1,3.330593109E0
2.819393292E0,1.602908492E0,1.499227047E1,3.475509167E0
2.821393292E0,9.730993509E-1,1.510256672E1,3.585221291E0
2.823393292E0,3.535086811E-1,1.516148376E1,3.636945486E0
2.825393292E0,-2.354649454E-1,1.517565727E1,3.650238276E0
2.827394854E0,-7.765162587E-1,1.514795113E1,3.612093687E0
2.829393292E0,-1.268256426E0,1.510992146E1,3.524925709E0
2.831393292E0,-1.671248555E0,1.501621246E1,3.395025969E0
2.833393292E0,-2.009989738E0,1.489410877E1,3.183809280E0
2.835393292E0,-2.269731998E0,1.475323296E1,2.944274426E0
2.837394854E0,-2.441559076E0,1.456480122E1,2.700621128E0
2.839393292E0,-2.528209925E0,1.434522343E1,2.452026367E0
2.841393292E0,-2.568624020E0,1.412884426E1,2.195473433E0
2.843393292E0,-2.530335903E0,1.387071228E1,1.957422733E0
2.845393292E0,-2.299985170E0,1.341299820E1,1.830328822E0
2.847394854E0,-1.815053821E0,1.273087978E1,1.794339180E0
2.849393292E0,-1.163668156E0,1.191002369E1,1.735374928E0
2.851393292E0,-4.507994354E-1,1.106044579E1,1.607419133E0
2.853393292E0,2.627780139E-1,1.027090549E1,1.435582519E0
2.855574542E0,9.258090854E-1,9.598143578E0,1.243759036E0
2.857443292E0,1.514131427E0,9.059103966E0,1.042550325E0
2.859393292E0,2.003094435E0,8.667287827E0,8.277809024E-1
2.861393292E0,2.364714622E0,8.421757698E0,6.266008615E-1
2.863393292E0,2.592671394E0,8.288860321E0,4.597250223E-1
2.865393292E0,2.680184364E0,8.215703011E0,3.254294693E-1
2.867394854E0,2.642853975E0,8.223575592E0,2.533257008E-1
2.869393292E0,2.500839472E0,8.279110909E0,2.081519067E-1
2.871393292E0,2.282191515E0,8.357707977E0,1.806185693E-1
2.873393292E0,2.035521507E0,8.444081306E0,1.586110741E-1
2.875393292E0,1.786486387E0,8.529917717E0,1.201889291E-1
2.877394854E0,1.575116634E0,8.588413239E0,8.189127594E-2
2.879393292E0,1.393971324E0,8.614902496E0,7.282203436E-2
2.881393292E0,1.227526426E0,8.618254662E0,1.025580242E-1
2.883393292E0,1.087264419E0,8.607422829E0,1.638016999E-1
2.885393292E0,8.595471382E-1,8.543957710E0,2.908571959E-1
2.887394854E0,4.145129323E-1,8.365455627E0,4.574840665E-1
2.889393292E0,8.729259670E-2,8.239884377E0,5.651656389E-1
2.891393292E0,-1.261265427E-1,8.160329819E0,6.947686076E-1
2.893393292E0,-2.083817422E-1,8.120998383E0,8.483518958E-1
2.895574542E0,-1.038508937E-1,8.036339760E0,1.178502679E0
2.897443292E0,4.378132820E-1,7.887917995E0,1.787731171E0
2.899393292E0,9.375310540E-1,7.886212826E0,2.167959213E0
2.901393292E0,2.891429365E-1,7.847340584E0,2.385898590E0
2.903393292E0,-1.214080572E0,7.016466618E0,1.865973711E0
2.905393292E0,-1.290627956E0,4.384893894E0,1.564036250E0
2.907424542E0,4.186405241E-1,7.237097025E-1,2.936814070E0
2.909393292E0,2.277709484E0,-2.548541546E0,5.296185017E0
2.911240167E0,3.223859549E0,-4.853199959E0,6.902694225E0
2.913393292E0,3.315260649E0,-5.624841690E0,7.177356720E0
2.915393292E0,2.806119442E0,-6.456865311E0,6.771243095E0
2.917393292E0,1.479654908E0,-6.411739349E0,5.399844170E0
2.919393292E0,-3.588525355E-1,-5.733442783E0,3.553196430E0
2.921393292E0,-2.219396353E0,-4.739542484E0,1.595247030E0
2.923393292E0,-3.672552347E0,-3.714153767E0,-2.481159121E-1
2.925393292E0,-4.475126743E0,-2.867736578E0,-1.848285437E0
2.927393292E0,-4.598639011E0,-2.271580219E0,-3.114837170E0
2.929393292E0,-4.138626575E0,-1.853705883E0,-4.003564835E0
2.931393292E0,-3.320585489E0,-1.496241927E0,-4.564038277E0
2.933393292E0,-2.380459070E0,-1.061656117E0,-4.945683002E0
2.935574542E0,-1.502074242E0,-4.332930744E-1,-5.261315823E0
2.937591729E0,-7.827219963E-1,3.653264344E-1,-5.571498871E0
2.939240167E0,-3.133531287E-2,1.804452419E0,-5.996920109E0
2.941393292E0,1.453567743E-1,2.312252998E0,-6.074453831E0
2.943393292E0,4.029920399E-1,3.330181360E0,-6.122739792E0
2.945393292E0,4.916445315E-1,4.403080463E0,-6.017193794E0
2.947393292E0,6.254900098E-1,5.424073696E0,-5.820965290E0
2.949393292E0,9.047592282E-1,6.382979870E0,-5.549778938E0
2.951393292E0,1.248710155E0,7.296684265E0,-5.062213898E0
2.953393292E0,1.600629091E0,8.183754921E0,-4.208393574E0
2.955393292E0,1.904376745E0,9.040802956E0,-3.085302591E0
2.957393292E0,2.158909082E0,9.810930252E0,-1.902537942E0
2.959393292E0,2.318994999E0,1.048607731E1,-6.464919448E-1
2.961393292E0,2.326819420E0,1.110317802E1,7.253186107E-1
2.963394854E0,2.269482851E0,1.170255184E1,2.468335629E0
2.965393292E0,2.257195711E0,1.230016327E1,4.942493916E0
2.967393292E0,2.312607527E0,1.289168453E1,8.005836487E0
2.969393292E0,2.493331194E0,1.347714329E1,1.111515808E1
2.971393292E0,2.859222651E0,1.401721764E1,1.391471672E1
2.973393292E0,3.405876398E0,1.446807384E1,1.598641968E1
2.975574542E0,4.001898766E0,1.478399372E1,1.675948906E1
2.977444854E0,4.513242722E0,1.499093914E1,1.622879982E1
2.979393292E0,4.775628090E0,1.513271523E1,1.484560204E1
2.981393292E0,4.770341396E0,1.521175194E1,1.299948025E1
2.983393292E0,4.629074097E0,1.525296116E1,1.101397991E1
2.985393292E0,4.472857475E0,1.522514057E1,9.120481491E0
2.987394854E0,4.448713779E0,1.507480335E1,7.436314106E0
2.989393292E0,4.618204594E0,1.484520054E1,6.029605389E0
2.991393292E0,4.845040321E0,1.454140472E1,4.965277195E0
2.993393292E0,5.045818329E0,1.415187740E1,4.150645733E0
2.995393292E0,5.353329659E0,1.369185543E1,3.500045061E0
2.997394854E0,5.609154701E0,1.322044659E1,2.905775547E0
2.999393292E0,5.695834637E0,1.276516533E1,2.405923843E0
3.001393292E0,5.462897778E0,1.236395454E1,2.049599409E0
3.003393292E0,5.158585548E0,1.204166603E1,1.853284597E0
3.005393292E0,4.957252026E0,1.177963448E1,1.726334333E0
3.007394854E0,4.835646152E0,1.156095791E1,1.616421342E0
3.009393292E0,4.763187408E0,1.143589497E1,1.561460137E0
3.011393292E0,4.649712086E0,1.142097473E1,1.583639860E0
3.013393292E0,4.462447166E0,1.149061680E1,1.687893033E0
3.015574542E0,4.249708176E0,1.159580898E1,1.876977563E0
3.017443292E0,4.005547523E0,1.172352409E1,2.107836008E0
3.019393292E0,3.748994112E0,1.186353683E1,2.346355915E0
3.021393292E0,3.514372110E0,1.198903179E1,2.578373194E0
3.023393292E0,3.314580917E0,1.207016659E1,2.815217257E0
3.025393292E0,3.186768532E0,1.212855625E1,3.035263777E0
3.027394854E0,3.158593655E0,1.217725468E1,3.234154701E0
3.029393292E0,3.214206219E0,1.221243095E1,3.425786734E0
3.031393292E0,3.301623344E0,1.222414303E1,3.620655537E0
3.033393292E0,3.420500278E0,1.221989059E1,3.805698395E0
3.035393292E0,3.568864107E0,1.221640396E1,3.972832918E0
3.037394854E0,3.711328506E0,1.222733212E1,4.105394840E0
3.039393292E0,3.861560106E0,1.225413799E1,4.189029217E0
3.041393292E0,3.993308067E0,1.230607224E1,4.226225376E0
3.043393292E0,4.127172947E0,1.234294319E1,4.203116894E0
3.045576104E0,4.249382496E0,1.236575508E1,4.129336834E0
3.047616729E0,4.374360085E0,1.238646030E1,3.989563704E0
3.049401104E0,4.488113403E0,1.240959740E1,3.785031796E0
3.051393292E0,4.554163933E0,1.244079876E1,3.520587444E0
3.053393292E0,4.550199509E0,1.250631332E1,3.274243116E0
3.055574542E0,4.455235958E0,1.266956902E1,2.995347500E0
3.057446417E0,4.388839722E0,1.284868431E1,2.581294298E0
3.059393292E0,4.390525341E0,1.302447701E1,2.191000938E0
3.061393292E0,4.463337898E0,1.319535542E1,1.913733244E0
3.063393292E0,4.528938770E0,1.334543324E1,1.713415265E0
3.065393292E0,4.559872150E0,1.348970795E1,1.553223968E0
3.067394854E0,4.517676830E0,1.360450459E1,1.458480597E0
3.069393292E0,4.352122784E0,1.367497158E1,1.460194945E0
3.071393292E0,3.899101019E0,1.370322227E1,1.657563329E0
3.073393292E0,3.331570148E0,1.360863304E1,1.987369418E0
3.075393292E0,2.670665026E0,1.340341091E1,2.350713491E0
3.077394854E0,2.376398325E0,1.297203445E1,2.623939753E0
3.079393292E0,2.265355110E0,1.240685844E1,2.794387579E0
3.081393292E0,1.994935036E0,1.186436176E1,2.850469589E0
3.083393292E0,1.143403649E0,1.152669239E1,2.800976515E0
3.085393292E0,-3.086604923E-2,1.129832458E1,2.661988258E0
3.087394854E0,-7.859876752E-1,1.097847748E1,2.396346807E0
3.089393292E0,-1.245473266E0,1.065248299E1,1.998957276E0
3.091393292E0,-1.497937083E0,1.034005928E1,1.530986667E0
3.093393292E0,-1.570241928E0,1.007694626E1,1.032370210E0
3.095574542E0,-1.496759176E0,9.874176025E0,5.280746818E-1
3.097741729E0,-1.261026025E0,9.700022697E0,1.878969558E-2
3.099972979E0,-9.042325616E-1,9.561522484E0,-4.571680427E-1
3.101752667E0,-4.264264703E-1,9.421757698E0,-8.624393344E-1
3.103446417E0,1.703618169E-1,9.250534058E0,-1.147895217E0
3.105393292E0,8.126016259E-1,9.050523758E0,-1.304131269E0
3.107393292E0,1.427288890E0,8.861706734E0,-1.347523808E0
3.109393292E0,1.949349523E0,8.707040787E0,-1.290589571E0
3.111393292E0,2.329663515E0,8.610898972E0,-1.147138715E0
3.113394854E0,2.489299297E0,8.591114044E0,-9.312965870E-1
3.115393292E0,2.411899567E0,8.644553185E0,-6.393859386E-1
3.117393292E0,2.200989485E0,8.746593475E0,-2.917574048E-1
3.119393292E0,1.784436941E0,8.893377304E0,9.201396257E-2
3.121393292E0,1.195664287E0,9.046204567E0,4.333888292E-1
3.123394854E0,7.128687501E-1,9.092278481E0,6.596696377E-1
3.125393292E0,6.442605257E-1,8.839173317E0,9.677650928E-1
3.127393292E0,7.893012762E-1,8.326008797E0,8.363713026E-1
3.129393292E0,9.748806357E-1,7.699494362E0,-2.807057798E-1
3.131393292E0,9.831932783E-1,7.530444145E0,-3.351211846E-1
3.133394854E0,1.040136933E0,7.669892311E0,4.562773705E-1
3.135574542E0,9.916017652E-1,7.871771336E0,1.290206552E0
3.137446417E0,7.466078401E-1,8.023611069E0,1.845929623E0
3.139393292E0,5.028589964E-1,8.289492607E0,1.964940429E0
3.141393292E0,3.642538488E-1,8.657222748E0,2.100854397E0
3.143393292E0,3.412790895E-1,9.034865379E0,2.347141266E0
3.145393292E0,4.233235717E-1,9.405859947E0,2.540688515E0
3.147394854E0,6.120249629E-1,9.723638535E0,2.633056879E0
3.149393292E0,8.960634470E-1,1.001595116E1,2.626372337E0
3.151393292E0,1.248413324E0,1.025688457E1,2.572684526E0
3.153393292E0,1.620118022E0,1.043022442E1,2.539079666E0
3.155393292E0,1.979315281E0,1.055491543E1,2.605092525E0
3.157394854E0,2.281645536E0,1.065923500E1,2.811884403E0
3.159393292E0,2.497784376E0,1.077028847E1,3.113956213E0
3.161393292E0,2.620070696E0,1.090987873E1,3.458232880E0
3.163393292E0,2.641723871E0,1.105903816E1,3.798477650E0
3.165393292E0,2.606241703E0,1.120691299E1,4.048528194E0
3.167394854E0,2.523067236E0,1.132225704E1,4.171168327E0
3.169393292E0,2.407149553E0,1.139670658E1,4.127019405E0
3.171393292E0,2.257061720E0,1.143810749E1,3.948938608E0
3.173393292E0,2.094188929E0,1.141716290E1,3.666327238E0
3.175574542E0,1.920992613E0,1.130170536E1,3.325440884E0
3.177446417E0,1.773327708E0,1.109325600E1,2.950930119E0
3.179393292E0,1.671555042E0,1.080224514E1,2.587787390E0
3.181393292E0,1.628919125E0,1.049073982E1,2.243932247E0
3.183393292E0,1.616210699E0,1.017943668E1,1.940816522E0
3.185393292E0,1.623661399E0,9.896087646E0,1.684713483E0
3.187393292E0,1.630422592E0,9.663131714E0,1.485295653E0
3.189393292E0,1.636159182E0,9.484889030E0,1.324778795E0
3.191393292E0,1.629972577E0,9.366289139E0,1.207932234E0
3.193393292E0,1.620855331E0,9.287596703E0,1.130111098E0
3.195393292E0,1.614984870E0,9.232711792E0,1.086881399E0
3.197393292E0,1.612916231E0,9.206932068E0,1.085195899E0
3.199393292E0,1.611240268E0,9.193370819E0,1.109760404E0
3.201393292E0,1.607830882E0,9.178584099E0,1.154771328E0
3.203393292E0,1.607035995E0,9.173336029E0,1.208746195E0
3.205393292E0,1.603320360E0,9.169007301E0,1.278551579E0
3.207393292E0,1.602918148E0,9.161240578E0,1.360653520E0
3.209393292E0,1.605446339E0,9.154517174E0,1.454965949E0
3.211393292E0,1.604067206E0,9.154977798E0,1.555656552E0
3.213393292E0,1.594183922E0,9.158195496E0,1.667657256E0
3.215574542E0,1.591301441E0,9.164515495E0,1.775549531E0
3.217446417E0,1.584817886E0,9.171199799E0,1.890681863E0
3.219393292E0,1.577941775E0,9.177559853E0,1.999579787E0
3.221393292E0,1.573517203E0,9.179303169E0,2.112126350E0
3.223393292E0,1.575068712E0,9.193868637E0,2.201171637E0
3.225393292E0,1.578267336E0,9.204441071E0,2.272020817E0
3.227394854E0,1.585344553E0,9.211251259E0,2.322768211E0
3.229393292E0,1.582950473E0,9.221383095E0,2.350857258E0
3.231393292E0,1.585718155E0,9.248150826E0,2.360156298E0
3.233393292E0,1.602831841E0,9.273978233E0,2.355348587E0
3.235393292E0,1.608769417E0,9.288018227E0,2.332201481E0
3.237394854E0,1.622110009E0,9.307813644E0,2.285926342E0
3.239393292E0,1.626860142E0,9.323960304E0,2.233598709E0
3.241393292E0,1.623738050E0,9.337109566E0,2.168658257E0
3.243393292E0,1.651644826E0,9.343544960E0,2.107022047E0
3.245393292E0,1.682951450E0,9.359279633E0,2.044322729E0
3.247394854E0,1.702986121E0,9.361271858E0,1.993527174E0
3.249393292E0,1.732578397E0,9.352202415E0,1.950613499E0
3.251393292E0,1.760446906E0,9.353600502E0,1.928893447E0
3.253394854E0,1.777704358E0,9.356914520E0,1.906531453E0
3.255574542E0,1.793161273E0,9.370148659E0,1.901618600E0
3.257452667E0,1.789024115E0,9.387282372E0,1.910046220E0
3.259393292E0,1.779140830E0,9.407239914E0,1.939035296E0
3.261393292E0,1.756520391E0,9.440892220E0,1.975034475E0
3.263393292E0,1.733583927E0,9.471424103E0,2.014270544E0
3.265393292E0,1.716949105E0,9.506216049E0,2.059339046E0
3.267394854E0,1.721632123E0,9.537800789E0,2.113294840E0
3.269393292E0,1.707621217E0,9.565716743E0,2.151793480E0
3.271393292E0,1.691618443E0,9.590348244E0,2.202100515E0
3.273393292E0,1.676027298E0,9.594102859E0,2.248931170E0
3.275393292E0,1.677243710E0,9.595663071E0,2.284039736E0
3.277394854E0,1.667092204E0,9.597894669E0,2.313431025E0
3.279393292E0,1.668222308E0,9.593192101E0,2.342936993E0
3.281393292E0,1.676755190E0,9.594198227E0,2.366802454E0
3.283393292E0,1.684407115E0,9.579324722E0,2.376800537E0
3.285393292E0,1.703005195E0,9.559663773E0,2.390600920E0
3.287394854E0,1.714775205E0,9.543066978E0,2.407896519E0
3.289393292E0,1.721718431E0,9.512096405E0,2.418440580E0
3.291393292E0,1.742260575E0,9.480071068E0,2.420020819E0
3.293393292E0,1.775032520E0,9.443363190E0,2.409151077E0
3.295574542E0,1.800956845E0,9.412478447E0,2.397927046E0
3.297446417E0,1.829773426E0,9.384140968E0,2.391912937E0
3.299393292E0,1.834140539E0,9.345047951E0,2.384529114E0
3.301393292E0,1.846331835E0,9.314019203E0,2.378849983E0
3.303393292E0,1.863665819E0,9.282980919E0,2.375881433E0
3.305393292E0,1.877264738E0,9.262218475E0,2.369589329E0
3.307394854E0,1.895096779E0,9.232597351E0,2.369100809E0
3.309393292E0,1.921308637E0,9.210771561E0,2.363766670E0
3.311393292E0,1.950297594E0,9.204393387E0,2.343549967E0
3.313393292E0,1.978309751E0,9.195746422E0,2.309849024E0
3.315393292E0,2.001744032E0,9.197555542E0,2.281137943E0
3.317394854E0,2.012862682E0,9.189750671E0,2.259743452E0
3.319393292E0,2.024785995E0,9.181150436E0,2.226665020E0
3.321393292E0,2.052031994E0,9.175499916E0,2.204820395E0
3.323393292E0,2.080302715E0,9.167016029E0,2.178675890E0
3.325393292E0,2.099226475E0,9.148178101E0,2.151094437E0
3.327394854E0,2.116560459E0,9.129138947E0,2.124786854E0
3.329393292E0,2.151716948E0,9.112599373E0,2.096631050E0
3.331393292E0,2.180753946E0,9.100111008E0,2.071779251E0
3.333393292E0,2.215709209E0,9.077146530E0,2.064816952E0
3.335574542E0,2.245023727E0,9.057590485E0,2.053822756E0
3.337446417E0,2.271656990E0,9.039577484E0,2.036967754E0
3.339393292E0,2.306985855E0,9.026618958E0,2.027036428E0
3.341401104E0,2.334500074E0,9.014073372E0,2.012479782E0
3.343393292E0,2.357340574E0,8.996366501E0,1.995883226E0
3.345393292E0,2.390936136E0,8.992343903E0,1.978290558E0
3.347394854E0,2.433552742E0,8.977863312E0,1.962709069E0
3.349393292E0,2.467502594E0,8.968727112E0,1.954156995E0
3.351393292E0,2.490936995E0,8.961764336E0,1.949521899E0
3.353393292E0,2.506202459E0,8.951412201E0,1.952634335E0
3.355393292E0,2.533888817E0,8.949295998E0,1.965850353E0
3.357394854E0,2.562925816E0,8.953873634E0,1.978290558E0
3.359393292E0,2.581265450E0,8.961708069E0,1.991899133E0
3.361393292E0,2.603014469E0,8.973860741E0,2.003726482E0
3.363393292E0,2.626649857E0,8.995121002E0,2.026519299E0
3.365393292E0,2.655801773E0,9.014437675E0,2.042876482E0
3.367394854E0,2.681984901E0,9.038005829E0,2.052913189E0
3.369393292E0,2.692289352E0,9.052294731E0,2.065104246E0
3.371393292E0,2.706912994E0,9.073325157E0,2.070620537E0
3.373393292E0,2.733996391E0,9.097381592E0,2.068475246E0
3.375574542E0,2.756568909E0,9.128746033E0,2.072708368E0
3.377443292E0,2.790729523E0,9.153722763E0,2.081777573E0
3.379393292E0,2.802623749E0,9.169446945E0,2.087475777E0
3.381393292E0,2.812784672E0,9.189826965E0,2.093049288E0
3.383393292E0,2.821336985E0,9.211470604E0,2.100969553E0
3.385393292E0,2.833853722E0,9.221966743E0,2.111168623E0
3.387394854E0,2.826585054E0,9.235795975E0,2.126089334E0
3.389393292E0,2.808245420E0,9.242413521E0,2.141824245E0
3.391393292E0,2.804960489E0,9.240871429E0,2.157932281E0
3.393393292E0,2.796571255E0,9.241494179E0,2.172422171E0
3.395576104E0,2.787913799E0,9.239081383E0,2.188779354E0
3.397618292E0,2.784715176E0,9.232004166E0,2.205749273E0
3.399396417E0,2.785203695E0,9.219275475E0,2.218907833E0
3.401393292E0,2.783795834E0,9.213998795E0,2.229059219E0
3.403393292E0,2.814230919E0,9.212917328E0,2.218831301E0
3.405393292E0,2.854750156E0,9.213778496E0,2.183655500E0
3.407393292E0,2.856828690E0,9.199269295E0,2.163007975E0
3.409394854E0,2.812622070E0,9.183947563E0,2.167231560E0
3.411393292E0,2.739330530E0,9.157103539E0,2.195099831E0
3.413393292E0,2.665943623E0,9.130441666E0,2.223619699E0
3.415574542E0,2.607898712E0,9.110138893E0,2.257272482E0
3.417443292E0,2.565415859E0,9.087471008E0,2.290523291E0
3.419393292E0,2.539702177E0,9.073019028E0,2.299611568E0
3.421393292E0,2.521170855E0,9.062110901E0,2.308307409E0
3.423393292E0,2.502103567E0,9.054516792E0,2.321982861E0
3.425393292E0,2.492325783E0,9.053117752E0,2.330899000E0
3.427394854E0,2.494336605E0,9.048387527E0,2.337966681E0
3.429393292E0,2.497583151E0,9.042421341E0,2.336233377E0
3.431393292E0,2.498033524E0,9.032835007E0,2.333369970E0
3.433393292E0,2.496415138E0,9.032221794E0,2.323400497E0
3.435393292E0,2.499316692E0,9.043436050E0,2.319540977E0
3.437394854E0,2.497688770E0,9.048310280E0,2.310634613E0
3.439393292E0,2.491933107E0,9.058490753E0,2.300454378E0
3.441393292E0,2.492316246E0,9.070280075E0,2.284260035E0
3.443393292E0,2.486062527E0,9.071878433E0,2.262243032E0
3.445393292E0,2.469666958E0,9.076351166E0,2.254964590E0
3.447394854E0,2.455790043E0,9.081666946E0,2.242715836E0
3.449393292E0,2.459821939E0,9.088045120E0,2.235562086E0
3.451393292E0,2.467195988E0,9.094777107E0,2.227766275E0
3.453393292E0,2.463346243E0,9.104516983E0,2.222537279E0
3.455574542E0,2.462120295E0,9.116277695E0,2.213582993E0
3.457443292E0,2.471323729E0,9.125596046E0,2.211658239E0
3.459393292E0,2.471448183E0,9.129942894E0,2.208775520E0
3.461393292E0,2.467224836E0,9.135364532E0,2.200606346E0
3.463393292E0,2.468163252E0,9.143561363E0,2.185235739E0
3.465393292E0,2.461335182E0,9.150609970E0,2.169022322E0
3.467394854E0,2.454152584E0,9.151624680E0,2.148547173E0
3.469393292E0,2.454832554E0,9.166095734E0,2.123426914E0
3.471393292E0,2.455589056E0,9.178918839E0,2.088442802E0
3.473393292E0,2.446270704E0,9.182931900E0,2.056753397E0
3.475393292E0,2.429875135E0,9.185948372E0,2.027831316E0
3.477394854E0,2.420758247E0,9.191532135E0,1.999905348E0
3.479393292E0,2.401853561E0,9.204680443E0,1.975379109E0
3.481393292E0,2.378658533E0,9.220128059E0,1.949703693E0
3.483393292E0,2.349257708E0,9.227780342E0,1.932187915E0
3.485393292E0,2.318784475E0,9.228651047E0,1.903428674E0
3.487394854E0,2.293971062E0,9.238103867E0,1.886947036E0
3.489393292E0,2.267615557E0,9.250629425E0,1.874008656E0
3.491393292E0,2.243941545E0,9.258541107E0,1.866634488E0
3.493393292E0,2.226866245E0,9.276286125E0,1.869670391E0
3.495574542E0,2.204044580E0,9.291322708E0,1.862899661E0
3.497443292E0,2.174385309E0,9.301674843E0,1.852949381E0
3.499240167E0,2.135627985E0,9.322341919E0,1.851637363E0
3.501393292E0,2.119720936E0,9.334178925E0,1.850804090E0
3.503394854E0,2.091344833E0,9.367563248E0,1.830022454E0
3.505393292E0,2.048220396E0,9.401991844E0,1.803408504E0
3.507393292E0,2.005919695E0,9.425599098E0,1.783172727E0
3.509393292E0,1.971395254E0,9.442233086E0,1.768098712E0
3.511393292E0,1.941592336E0,9.460668564E0,1.764430881E0
3.513393292E0,1.921231985E0,9.479804039E0,1.760063887E0
3.515393292E0,1.908504367E0,9.491822243E0,1.738726735E0
3.517393292E0,1.908849120E0,9.497721672E0,1.711595535E0
3.519393292E0,1.907642484E0,9.493986130E0,1.681419015E0
3.521393292E0,1.899732113E0,9.459797859E0,1.652832389E0
3.523393292E0,1.846312642E0,9.349387169E0,1.608147025E0
3.525393292E0,1.596386552E0,8.948137283E0,1.481531978E0
3.527393292E0,1.355922580E0,8.472743988E0,1.299745083E0
3.529393292E0,1.309676290E0,8.235182762E0,1.196440101E0
3.531393292E0,1.349027395E0,8.208453178E0,1.185886383E0
3.533393292E0,1.408202410E0,8.329744339E0,1.215469122E0
3.535574542E0,1.425210834E0,8.537972450E0,1.244247437E0
3.537449542E0,1.421217322E0,8.795483589E0,1.274500608E0
3.539393292E0,1.411276579E0,9.058979034E0,1.308555841E0
3.541393292E0,1.404649377E0,9.306271553E0,1.370000482E0
3.543393292E0,1.384940267E0,9.525868416E0,1.448367596E0
3.545393292E0,1.366667867E0,9.716657639E0,1.548684597E0
3.547394854E0,1.356813192E0,9.855683327E0,1.684263468E0
3.549393292E0,1.350214839E0,9.951231003E0,1.864996910E0
3.551393292E0,1.362798691E0,1.001335621E1,2.037925243E0
3.553393292E0,1.384672284E0,1.005553246E1,2.137983799E0
3.555393292E0,1.415701032E0,1.007647610E1,2.133635998E0
3.557394854E0,1.449392200E0,1.008452129E1,2.036823988E0
3.559393292E0,1.470470786E0,1.008522987E1,1.904367208E0
3.561393292E0,1.472596765E0,1.007144928E1,1.762898564E0
3.563393292E0,1.459792614E0,1.004980564E1,1.614764571E0
3.565393292E0,1.444316506E0,1.002444649E1,1.449650884E0
3.567394854E0,1.433552265E0,1.000130844E1,1.281252146E0
3.569393292E0,1.406602979E0,9.978084564E0,1.115219116E0
3.571393292E0,1.367711663E0,9.957244873E0,9.552673101E-1
3.573393292E0,1.335389853E0,9.932403564E0,8.173804283E-1
3.575574542E0,1.315834165E0,9.913172722E0,6.944333911E-1
3.577446417E0,1.297743559E0,9.901326180E0,6.027354598E-1
3.579393292E0,1.282267332E0,9.883513451E0,5.419802070E-1
3.581393292E0,1.273648262E0,9.876876831E0,5.234586596E-1
3.583393292E0,1.279040098E0,9.878897667E0,5.388294458E-1
3.585393292E0,1.275735974E0,9.883111000E0,5.846449137E-1
3.587394854E0,1.249169946E0,9.868277550E0,6.455246806E-1
3.589393292E0,1.207185149E0,9.841864586E0,7.025066614E-1
3.591393292E0,1.163256526E0,9.811802864E0,7.637886405E-1
3.593393292E0,1.139477134E0,9.775258064E0,8.250419497E-1
3.595544854E0,1.112920761E0,9.741632462E0,8.707903028E-1
3.597863604E0,1.088442326E0,9.724337578E0,9.192202091E-1
3.599876104E0,1.070294261E0,9.712461472E0,9.534764290E-1
3.601315167E0,1.061052680E0,9.695645332E0,9.686557055E-1
3.603393292E0,1.061617851E0,9.690330505E0,9.737601280E-1
3.605393292E0,1.054827809E0,9.682984352E0,9.755701423E-1
3.607393292E0,1.038767457E0,9.681854248E0,9.666254520E-1
3.609393292E0,1.021347284E0,9.676845551E0,9.357689023E-1
3.611393292E0,1.010927677E0,9.691680908E0,9.120088816E-1
3.613393292E0,1.005325317E0,9.706084251E0,8.778293133E-1
3.615630792E0,1.004386783E0,9.713094711E0,8.315445781E-1
3.617454229E0,1.000852942E0,9.718390465E0,7.847139835E-1
3.619393292E0,9.927318096E-1,9.720602989E0,7.498161197E-1
3.621393292E0,9.907685518E-1,9.719893456E0,7.206834555E-1
3.623393292E0,9.783857465E-1,9.720190048E0,6.823858023E-1
3.625421417E0,9.789699316E-1,9.727258682E0,6.445861459E-1
3.627393292E0,9.783570170E-1,9.728818893E0,5.994601846E-1
3.629393292E0,9.736739397E-1,9.736681938E0,5.549089313E-1
3.631393292E0,9.641546011E-1,9.746344566E0,5.263509154E-1
3.633393292E0,9.494063258E-1,9.760691643E0,5.180956125E-1
3.635394854E0,9.132059813E-1,9.780476570E0,5.187852383E-1
3.637393292E0,8.776856065E-1,9.799390793E0,5.215241909E-1
3.639393292E0,8.555727601E-1,9.818620682E0,5.277969837E-1
3.641393292E0,8.425961733E-1,9.839210510E0,5.368757844E-1
3.643393292E0,8.285853267E-1,9.855645180E0,5.475634933E-1
3.645394854E0,8.152831197E-1,9.860845566E0,5.537213683E-1
3.647393292E0,8.055530787E-1,9.869598389E0,5.634418130E-1
3.649393292E0,8.004295230E-1,9.880544662E0,5.717449188E-1
3.651393292E0,7.961582541E-1,9.887076378E0,5.790998936E-1
3.653393292E0,7.872614264E-1,9.893444061E0,5.883607268E-1
3.655574542E0,7.881616354E-1,9.898050308E0,6.012319326E-1
3.657446417E0,8.014159203E-1,9.898615837E0,6.001114249E-1
3.659393292E0,8.165568709E-1,9.898290634E0,5.987515450E-1
3.661393292E0,8.191905022E-1,9.901249886E0,5.990867019E-1
3.663393292E0,8.331534266E-1,9.909007072E0,5.885809660E-1
3.665393292E0,8.580052257E-1,9.905453682E0,5.840415359E-1
3.667394854E0,8.747551441E-1,9.898549080E0,5.741199851E-1
3.669393292E0,8.811427951E-1,9.887191772E0,5.608178377E-1
3.671393292E0,8.939278722E-1,9.879261971E0,5.473911166E-1
3.673393292E0,9.092124701E-1,9.870929718E0,5.370194912E-1
3.675424542E0,9.198043942E-1,9.860376358E0,5.318288207E-1
3.677393292E0,9.284618497E-1,9.847188950E0,5.164005756E-1
3.679393292E0,9.468014240E-1,9.840533257E0,4.918552339E-1
3.681393292E0,9.803106785E-1,9.830582619E0,4.740519524E-1
3.683393292E0,9.973573685E-1,9.826234818E0,4.614776075E-1
3.685393292E0,1.007633328E0,9.817672729E0,4.658159018E-1
3.687393292E0,1.011722565E0,9.802685738E0,4.839352071E-1
3.689393292E0,1.027102947E0,9.779117584E0,5.064502954E-1
3.691394854E0,1.049924493E0,9.757272720E0,5.261689425E-1
3.693393292E0,1.075111508E0,9.745636940E0,5.451501608E-1
3.695574542E0,1.096151710E0,9.732218742E0,5.665639043E-1
3.697446417E0,1.127659440E0,9.731204033E0,5.880255103E-1
3.699393292E0,1.158276439E0,9.730351448E0,6.095446348E-1
3.701393292E0,1.175859451E0,9.721205711E0,6.241204739E-1
3.703393292E0,1.212126851E0,9.709628105E0,6.314275861E-1
3.705393292E0,1.252493024E0,9.704321861E0,6.308625340E-1
3.707394854E0,1.280361533E0,9.703785896E0,6.253080368E-1
3.709426104E0,1.299237490E0,9.686758041E0,6.192554832E-1
3.711393292E0,1.317376018E0,9.683703423E0,6.113545895E-1
3.713393292E0,1.343597293E0,9.684621811E0,5.925074220E-1
3.715393292E0,1.378533483E0,9.679202080E0,5.691879392E-1
3.717394854E0,1.401431680E0,9.667384148E0,5.423250198E-1
3.719393292E0,1.416591644E0,9.666417122E0,5.219168067E-1
3.721393292E0,1.437737346E0,9.666905403E0,5.044678450E-1
3.723393292E0,1.461861253E0,9.670075417E0,4.762929082E-1
3.725393292E0,1.476456285E0,9.668140411E0,4.572446346E-1
3.727394854E0,1.502782941E0,9.663332939E0,4.393743277E-1
3.729393292E0,1.531139851E0,9.661915779E0,4.223946631E-1
3.731393292E0,1.550724506E0,9.661838531E0,4.147523642E-1
3.733393292E0,1.566372871E0,9.648403168E0,4.156621397E-1
3.735574542E0,1.588083625E0,9.633377075E0,4.105864167E-1
3.737446417E0,1.596032381E0,9.622134209E0,4.136222899E-1
3.739393292E0,1.587834597E0,9.624748230E0,4.306402504E-1
3.741393292E0,1.585028529E0,9.628999710E0,4.550611377E-1
3.743393292E0,1.593120933E0,9.625782013E0,4.829200804E-1
3.745607354E0,1.597756147E0,9.633291245E0,5.146192908E-1
3.747630792E0,1.604095936E0,9.641115189E0,5.385517478E-1
3.749405792E0,1.601309061E0,9.651285172E0,5.582991242E-1
3.751393292E0,1.593820095E0,9.658411026E0,5.814845562E-1
3.753393292E0,1.601021886E0,9.663505554E0,6.159227490E-1
3.755393292E0,1.601184726E0,9.666283607E0,6.443179846E-1
3.757393292E0,1.600408912E0,9.671292305E0,6.678003073E-1
3.759394854E0,1.597325206E0,9.677018166E0,6.889459491E-1
3.761393292E0,1.597832799E0,9.681451797E0,7.143244743E-1
3.763393292E0,1.590257406E0,9.682439804E0,7.445488572E-1
3.765393292E0,1.588399649E0,9.687131882E0,7.710478306E-1
3.767393292E0,1.587987781E0,9.685464859E0,7.919827700E-1
3.769394854E0,1.595275760E0,9.684239388E0,8.152639866E-1
3.771393292E0,1.614007950E0,9.686135292E0,8.337568045E-1
3.773393292E0,1.636264563E0,9.691747665E0,8.491467237E-1
3.775574542E0,1.654546618E0,9.690665245E0,8.619317412E-1
3.777446417E0,1.668624520E0,9.685542107E0,8.685206175E-1
3.779393292E0,1.675558090E0,9.678397179E0,8.696889877E-1
3.781393292E0,1.691235304E0,9.671138763E0,8.688175082E-1
3.783393292E0,1.720205188E0,9.664807320E0,8.535903692E-1
3.785393292E0,1.746464849E0,9.661388397E0,8.493861556E-1
3.787394854E0,1.787827015E0,9.646593094E0,8.511769772E-1
3.789393292E0,1.820263624E0,9.647071838E0,8.460055590E-1
3.791393292E0,1.847069144E0,9.644399643E0,8.476814628E-1
3.793393292E0,1.882321358E0,9.638864517E0,8.487732410E-1
3.795393292E0,1.915112257E0,9.637341499E0,8.550747633E-1
3.797394854E0,1.932379365E0,9.622603416E0,8.508705497E-1
3.799393292E0,1.945911407E0,9.607443810E0,8.408532143E-1
3.801393292E0,1.962460041E0,9.595405579E0,8.361222744E-1
3.803393292E0,1.974325776E0,9.578761101E0,8.234329820E-1
3.805393292E0,1.985674262E0,9.557748795E0,8.011956811E-1
3.807394854E0,2.005862236E0,9.532007217E0,7.725609541E-1
3.809393292E0,2.031911135E0,9.503840446E0,7.510131598E-1
3.811393292E0,2.049599409E0,9.478165627E0,7.225030661E-1
3.813393292E0,2.055987358E0,9.461416245E0,6.983407736E-1
3.815574542E0,2.068274260E0,9.450239182E0,6.865325570E-1
3.817452667E0,2.077774525E0,9.441342354E0,6.733739972E-1
3.819393292E0,2.081576347E0,9.433604240E0,6.626862884E-1
3.821393292E0,2.085072041E0,9.433576584E0,6.604740620E-1
3.823393292E0,2.083645105E0,9.436220169E0,6.609528661E-1
3.825393292E0,2.074604511E0,9.448190689E0,6.687292457E-1
3.827394854E0,2.067623138E0,9.459327698E0,6.839181185E-1
3.829393292E0,2.061177731E0,9.465323448E0,7.037132978E-1
3.831393292E0,2.053535700E0,9.464968681E0,7.169485092E-1
3.833393292E0,2.051390409E0,9.470896721E0,7.362170219E-1
3.835393292E0,2.042359352E0,9.484237671E0,7.476612926E-1
3.837394854E0,2.023780346E0,9.494177818E0,7.576403022E-1
3.839393292E0,2.021568060E0,9.500833511E0,7.696208954E-1
3.841393292E0,2.006733656E0,9.508303642E0,7.833445072E-1
3.843393292E0,2.000834465E0,9.516903877E0,7.853173018E-1
3.845393292E0,2.006379366E0,9.525130272E0,7.915230989E-1
3.847394854E0,2.018369436E0,9.534535408E0,7.978628874E-1
3.849393292E0,2.026892900E0,9.539132118E0,7.987726927E-1
3.851393292E0,2.030503273E0,9.541286469E0,8.018468618E-1
3.853393292E0,2.027438641E0,9.553611755E0,8.130613565E-1
3.855574542E0,2.035282135E0,9.550815582E0,8.221305609E-1
3.857446417E0,2.045395374E0,9.546984673E0,8.211537600E-1
3.859393292E0,2.045538902E0,9.546994209E0,8.237681985E-1
3.861393292E0,2.050154924E0,9.545241356E0,8.199757934E-1
3.863393292E0,2.055900812E0,9.537493706E0,8.129559755E-1
3.865393292E0,2.067623138E0,9.523914337E0,8.099679947E-1
3.867394854E0,2.093662262E0,9.514510155E0,8.016840816E-1
3.869393292E0,2.117412806E0,9.498373032E0,7.949898839E-1
3.871393292E0,2.135331154E0,9.494695663E0,7.829231024E-1
3.873393292E0,2.151602030E0,9.491515160E0,7.740454078E-1
3.875393292E0,2.181998730E0,9.493757248E0,7.664510012E-1
3.877394854E0,2.199390411E0,9.500164032E0,7.561751008E-1
3.879393292E0,2.213382006E0,9.502375603E0,7.451905012E-1
3.881393292E0,2.227115154E0,9.508543015E0,7.390230298E-1
3.883393292E0,2.247245550E0,9.521174431E0,7.280097008E-1
3.885393292E0,2.261342764E0,9.533519745E0,7.189309001E-1
3.887394854E0,2.260978699E0,9.542367935E0,7.172645330E-1
3.889393292E0,2.268515587E0,9.549158096E0,7.208175063E-1
3.891393292E0,2.267845154E0,9.547127724E0,7.228669524E-1
3.893393292E0,2.269674540E0,9.544992447E0,7.206451297E-1
3.895574542E0,2.273648977E0,9.545864105E0,7.263529301E-1
3.897446417E0,2.271053553E0,9.540165901E0,7.233840823E-1
3.899393292E0,2.254025936E0,9.530828476E0,7.347134352E-1
3.901393292E0,2.235159636E0,9.533567429E0,7.441178560E-1
3.903393292E0,2.231089592E0,9.531345367E0,7.615284920E-1
3.905393292E0,2.224194288E0,9.525341034E0,7.943195105E-1
3.907394854E0,2.212788343E0,9.518655777E0,8.247354627E-1
3.909393292E0,2.210671902E0,9.511224747E0,8.458235264E-1
3.911393292E0,2.201334476E0,9.499216080E0,8.598152995E-1
3.913393292E0,2.190397739E0,9.496006966E0,8.692293167E-1
3.915393292E0,2.173925638E0,9.491487503E0,8.842935562E-1
3.917394854E0,2.146411419E0,9.489542961E0,8.913325667E-1
3.919393292E0,2.117412806E0,9.495193481E0,8.859407902E-1
3.921393292E0,2.087916374E0,9.490452766E0,8.833646774E-1
3.923393292E0,2.058726072E0,9.496111870E0,8.830677271E-1
3.925393292E0,2.036584616E0,9.497002602E0,8.719299436E-1
3.927394854E0,2.014031172E0,9.497568130E0,8.558791876E-1
3.929393292E0,1.998133659E0,9.510343552E0,8.331822157E-1
3.931393292E0,1.972391248E0,9.521529198E0,8.054956794E-1
3.933393292E0,1.946878672E0,9.521979332E0,7.768035531E-1
3.935574542E0,1.930703402E0,9.526786804E0,7.507450581E-1
3.937446417E0,1.928606033E0,9.527189255E0,7.337653637E-1
3.939393292E0,1.918272734E0,9.527016640E0,7.181264758E-1
3.941393292E0,1.908312917E0,9.520371437E0,7.045082450E-1
3.943393292E0,1.909126878E0,9.519815445E0,7.013191581E-1
3.945393292E0,1.929468036E0,9.530953407E0,7.036175728E-1
3.947394854E0,1.947625637E0,9.547022820E0,7.053509355E-1
3.949393292E0,1.970820665E0,9.557978630E0,6.989824176E-1
3.951393292E0,1.986133933E0,9.562776566E0,6.947302818E-1
3.953393292E0,1.996735454E0,9.560086250E0,6.935236454E-1
3.955393292E0,2.010832548E0,9.562460899E0,6.790052056E-1
3.957394854E0,2.019786835E0,9.560775757E0,6.578691602E-1
3.959393292E0,2.030110836E0,9.556886673E0,6.386485100E-1
3.961393292E0,2.037456036E0,9.559636116E0,6.113641858E-1
3.963393292E0,2.044437647E0,9.558227539E0,5.833041668E-1
3.965393292E0,2.034525394E0,9.557126045E0,5.708543062E-1
3.967394854E0,2.022937536E0,9.550891876E0,5.625512004E-1
3.969393292E0,2.010372877E0,9.550241470E0,5.627235770E-1
3.971393292E0,1.998229504E0,9.550633430E0,5.632120371E-1
3.973393292E0,1.987216234E0,9.557318687E0,5.660179853E-1
3.975574542E0,1.980043054E0,9.559817314E0,5.865506530E-1
3.977446417E0,1.980119705E0,9.558715820E0,6.140552759E-1
3.979393292E0,1.985204935E0,9.561052322E0,6.417322159E-1
3.981393292E0,1.987618446E0,9.563686371E0,6.732207537E-1
3.983393292E0,1.977285028E0,9.562815666E0,7.012233734E-1
3.985393292E0,1.969805598E0,9.565151215E0,7.345698476E-1
3.987394854E0,1.969192624E0,9.566750526E0,7.665659189E-1
3.989393292E0,1.967775226E0,9.571616173E0,8.017798662E-1
3.991393292E0,1.969537377E0,9.574757576E0,8.311039805E-1
3.993393292E0,1.969565988E0,9.575638771E0,8.589629531E-1
3.995393292E0,1.965199113E0,9.570322990E0,8.763065934E-1
3.997394854E0,1.972745657E0,9.563916206E0,8.879423738E-1
3.999393292E0,1.975819707E0,9.554551125E0,8.975862265E-1
4.001393292E0,1.979478002E0,9.547702789E0,9.010051489E-1
4.003393292E0,1.956503272E0,9.538978577E0,8.980938196E-1
4.005393292E0,1.943967342E0,9.537063599E0,8.885552883E-1
4.007394854E0,1.939399123E0,9.532820702E0,8.707137108E-1
4.009393292E0,1.930655479E0,9.525829315E0,8.577179313E-1
4.011393292E0,1.919900775E0,9.512575150E0,8.517420888E-1
4.013393292E0,1.911128402E0,9.503611565E0,8.456703424E-1
4.015574542E0,1.911281586E0,9.494561195E0,8.372619152E-1
4.017446417E0,1.922304511E0,9.483413696E0,8.351646066E-1
4.019393292E0,1.927121758E0,9.462689400E0,8.410639167E-1
4.021393292E0,1.926547170E0,9.446619987E0,8.464460373E-1
4.023393292E0,1.927782416E0,9.437005043E0,8.602079749E-1
4.025393292E0,1.944551468E0,9.422524452E0,8.814780116E-1
4.027394854E0,1.967449546E0,9.413819313E0,9.021160007E-1
4.029393292E0,1.969633222E0,9.417593002E0,9.206471443E-1
4.031393292E0,1.975379109E0,9.419612885E0,9.410840273E-1
4.033393292E0,1.994456172E0,9.415571213E0,9.572114348E-1
4.035393292E0,2.007068872E0,9.420570374E0,9.626222849E-1
4.037394854E0,2.018896341E0,9.426345825E0,9.584563971E-1
4.039393292E0,2.035301208E0,9.428318024E0,9.456809759E-1
4.041393292E0,2.062844276E0,9.427475929E0,9.350028038E-1
4.043393292E0,2.074355364E0,9.425110817E0,9.289023876E-1
4.045393292E0,2.086594820E0,9.423223495E0,9.104382992E-1
4.047394854E0,2.101275921E0,9.422074318E0,9.027673006E-1
4.049393292E0,2.118389606E0,9.428308487E0,8.961305618E-1
4.051393292E0,2.143184185E0,9.433651924E0,9.053146839E-1
4.053393292E0,2.161293745E0,9.445737839E0,9.109458327E-1
4.055574542E0,2.169443607E0,9.452749252E0,9.165099859E-1
4.057446417E0,2.170037270E0,9.464346886E0,9.426642656E-1
4.059393292E0,2.173111677E0,9.471720695E0,9.700826406E-1
4.061393292E0,2.182075500E0,9.474900246E0,9.917070866E-1
4.063393292E0,2.194831848E0,9.484362602E0,1.016980290E0
4.065415167E0,2.216360331E0,9.499560356E0,1.041209579E0
4.067393292E0,2.242773294E0,9.511492729E0,1.068302393E0
4.069393292E0,2.267998457E0,9.517870903E0,1.088231683E0
4.071393292E0,2.293798447E0,9.527667999E0,1.106810689E0
4.073393292E0,2.307790279E0,9.533653259E0,1.127563596E0
4.075394854E0,2.319550514E0,9.537225723E0,1.148268700E0
4.077393292E0,2.325526476E0,9.537992477E0,1.162289143E0
4.079393292E0,2.339671373E0,9.532638550E0,1.176625609E0
4.081393292E0,2.341510057E0,9.524364471E0,1.187217474E0
4.083393292E0,2.340178967E0,9.520916939E0,1.186298251E0
4.085394854E0,2.345407963E0,9.513101578E0,1.189841628E0
4.087240167E0,2.340245962E0,9.491659164E0,1.184411645E0
4.089393292E0,2.339384079E0,9.478712082E0,1.176797986E0
4.091393292E0,2.334298849E0,9.469202042E0,1.161829472E0
4.093393292E0,2.328600645E0,9.468617439E0,1.139975190E0
4.095749542E0,2.326464891E0,9.460371971E0,1.115688324E0
4.097679229E0,2.313545942E0,9.448132515E0,1.072315097E0
4.099630792E0,2.301661015E0,9.430587769E0,1.049254179E0
4.101685479E0,2.289479256E0,9.416769028E0,1.030129313E0
4.103915167E0,2.283474684E0,9.399617195E0,1.015342593E0
4.105580792E0,2.271139622E0,9.390355110E0,1.001034856E0
4.107241729E0,2.260835171E0,9.381803513E0,9.945514202E-1
4.109393292E0,2.262396097E0,9.377398491E0,9.993110299E-1
4.111393292E0,2.270249128E0,9.367390633E0,1.015160680E0
4.113393292E0,2.270928860E0,9.359729767E0,1.028683066E0
4.115393292E0,2.261189461E0,9.348668098E0,1.042176843E0
4.117393292E0,2.262769461E0,9.346877098E0,1.046936512E0
4.119393292E0,2.255788088E0,9.352594376E0,1.048689127E0
4.121393292E0,2.243644714E0,9.367506027E0,1.041985393E0
4.123393292E0,2.238272190E0,9.372475624E0,1.035425186E0
4.125393292E0,2.233723164E0,9.377571106E0,1.023530841E0
4.127393292E0,2.216465712E0,9.393219948E0,1.022563577E0
4.129393292E0,2.218247175E0,9.411137581E0,1.022582650E0
4.131393292E0,2.207885027E0,9.420695305E0,1.022850871E0
4.133393292E0,2.200242758E0,9.430587769E0,1.014471173E0
4.135574542E0,2.191240549E0,9.446610451E0,1.008456945E0
4.137443292E0,2.177191257E0,9.458945274E0,9.973956943E-1
4.139393292E0,2.158985853E0,9.471376419E0,9.927700758E-1
4.141393292E0,2.144659042E0,9.486861229E0,9.855012894E-1
4.143393292E0,2.136882544E0,9.489714622E0,9.783857465E-1
4.145393292E0,2.127085447E0,9.498449326E0,9.776674509E-1
4.147394854E0,2.124327421E0,9.501561165E0,9.780409336E-1
4.149393292E0,2.119050503E0,9.494963646E0,9.779931307E-1
4.151393292E0,2.115152597E0,9.490164757E0,9.893798828E-1
4.153393292E0,2.105001211E0,9.482886314E0,1.005306125E0
4.155393292E0,2.085771084E0,9.475139618E0,1.017133474E0
4.157394854E0,2.072708368E0,9.467114449E0,1.027351975E0
4.159393292E0,2.061790705E0,9.465486526E0,1.040749907E0
4.161393292E0,2.045826197E0,9.456483841E0,1.040060401E0
4.163393292E0,2.035119295E0,9.452404022E0,1.028721452E0
4.165393292E0,2.030397892E0,9.454155922E0,1.014384985E0
4.167394854E0,2.024086714E0,9.450057983E0,1.001532912E0
4.169393292E0,2.017478943E0,9.446475983E0,9.921284914E-1
4.171393292E0,2.008562803E0,9.447108269E0,9.782612324E-1
4.173393292E0,2.015592098E0,9.455507278E0,9.737697244E-1
4.175574542E0,2.019451618E0,9.468397141E0,9.702741504E-1
4.177443292E0,2.015333652E0,9.482254982E0,9.696229696E-1
4.179393292E0,2.011282682E0,9.501226425E0,9.674490094E-1
4.181393292E0,2.015199661E0,9.510094643E0,9.677746296E-1
4.183393292E0,2.021692514E0,9.516903877E0,9.747369885E-1
4.185393292E0,2.018302441E0,9.514835358E0,9.903854728E-1
4.187393292E0,2.022267103E0,9.515199661E0,1.004061103E0
4.189394854E0,2.034104347E0,9.506311417E0,1.021021724E0
4.191393292E0,2.052472353E0,9.506637573E0,1.022697687E0
4.193393292E0,2.060478687E0,9.499541283E0,1.037053227E0
4.195393292E0,2.056695700E0,9.490921974E0,1.056503773E0
4.197393292E0,2.062662125E0,9.488278389E0,1.082514405E0
