"Time (s)","Gyroscope x (rad/s)","Gyroscope y (rad/s)","Gyroscope z (rad/s)"
3.359865400E-2,4.127939939E-1,-5.983436108E-1,-8.603203297E-2
3.611433100E-2,3.893640041E-1,-6.782186627E-1,-1.105270311E-1
3.862995600E-2,3.872340024E-1,-6.089936495E-1,-1.020070314E-1
4.114558100E-2,3.882989883E-1,-5.695886612E-1,-9.881203622E-2
4.381094500E-2,3.861689866E-1,-5.333786607E-1,-9.881203622E-2
4.632657000E-2,3.797789812E-1,-4.918436408E-1,-1.030720323E-1
4.884219500E-2,3.797789812E-1,-4.481786489E-1,-1.020070314E-1
5.135782000E-2,3.744539917E-1,-4.013186395E-1,-1.073320359E-1
5.387344500E-2,3.701939881E-1,-3.470036387E-1,-1.137220338E-1
5.638912300E-2,3.606089950E-1,-2.916236520E-1,-1.179820374E-1
5.890474800E-2,3.520889878E-1,-2.362436205E-1,-1.254370362E-1
6.142037300E-2,3.425039947E-1,-1.755386293E-1,-1.318270415E-1
6.393599800E-2,3.361139894E-1,-1.148336232E-1,-1.371520311E-1
6.645162300E-2,3.307889998E-1,-5.093362182E-2,-1.424770355E-1
6.896730000E-2,3.265289962E-1,1.083637495E-2,-1.446070373E-1
7.148292500E-2,3.265289962E-1,7.793137431E-2,-1.467370391E-1
7.422605000E-2,3.318539858E-1,1.460913718E-1,-1.467370391E-1
7.674167500E-2,3.382439911E-1,2.131863832E-1,-1.446070373E-1
7.925730000E-2,3.456989825E-1,2.813463509E-1,-1.435420364E-1
8.177292500E-2,3.574140072E-1,3.463113606E-1,-1.414120346E-1
8.428855000E-2,3.691290021E-1,4.134063721E-1,-1.382170320E-1
8.680422700E-2,3.797789812E-1,4.773063660E-1,-1.360870302E-1
8.931985200E-2,3.882989883E-1,5.412063599E-1,-1.339570284E-1
9.183547700E-2,4.074690044E-1,6.008463502E-1,-1.307620406E-1
9.435110200E-2,4.181189835E-1,6.604863405E-1,-1.318270415E-1
9.686672700E-2,4.277040064E-1,7.158663869E-1,-1.318270415E-1
9.938240400E-2,4.447439909E-1,7.691163421E-1,-1.339570284E-1
1.018980290E-1,4.585889876E-1,8.244963884E-1,-1.371520311E-1
1.046437580E-1,4.713689983E-1,8.788113594E-1,-1.414120346E-1
1.071593830E-1,4.884089828E-1,9.331263900E-1,-1.488670409E-1
1.096750080E-1,5.033190250E-1,9.799863696E-1,-1.627120376E-1
1.121906330E-1,5.214239955E-1,1.028976440E0,-1.765570343E-1
1.147062580E-1,5.363340378E-1,1.074771404E0,-1.904020309E-1
1.172219350E-1,5.512440205E-1,1.121631384E0,-2.085070312E-1
1.197375600E-1,5.682840347E-1,1.163166404E0,-2.276770324E-1
1.222531850E-1,5.842590332E-1,1.202571392E0,-2.447170317E-1
1.247688100E-1,5.938439965E-1,1.233456373E0,-2.670820057E-1
1.272844350E-1,6.087540388E-1,1.256886363E0,-2.883820236E-1
1.298001120E-1,6.225990057E-1,1.276056409E0,-3.043570220E-1
1.323157370E-1,6.268590093E-1,1.283511400E0,-3.203320205E-1
1.350527680E-1,6.364440322E-1,1.278186440E0,-3.352420330E-1
1.375683930E-1,6.449640393E-1,1.266471386E0,-3.480220139E-1
1.400840180E-1,6.470940113E-1,1.247301459E0,-3.597370088E-1
1.425996430E-1,6.481590271E-1,1.216416478E0,-3.703870177E-1
1.451152680E-1,6.502889991E-1,1.178076386E0,-3.799720109E-1
1.476309450E-1,6.513540149E-1,1.132281423E0,-3.927520216E-1
1.501465700E-1,6.481590271E-1,1.076901436E0,-4.087270200E-1
1.526621950E-1,6.396390200E-1,1.013001442E0,-4.278970063E-1
1.551778200E-1,6.321840286E-1,9.437763691E-1,-4.502620101E-1
1.576934450E-1,6.236640215E-1,8.692263365E-1,-4.747570157E-1
1.602091230E-1,6.108840108E-1,7.882863879E-1,-4.981870055E-1
1.627247480E-1,5.949090123E-1,7.020213604E-1,-5.258770585E-1
1.654615180E-1,5.831940174E-1,6.157563329E-1,-5.556970239E-1
1.679771430E-1,5.682840347E-1,5.273613334E-1,-5.833870769E-1
1.704927680E-1,5.512440205E-1,4.379013479E-1,-6.078820229E-1
1.730083930E-1,5.373990536E-1,3.441813588E-1,-6.323770285E-1
1.755240180E-1,5.214239955E-1,2.472663820E-1,-6.600670218E-1
1.780396950E-1,5.033190250E-1,1.439613700E-1,-6.813670397E-1
1.805553200E-1,4.830839932E-1,3.320137411E-2,-7.037320733E-1
1.830709450E-1,4.585889876E-1,-8.394862711E-2,-7.239670753E-1
1.855865700E-1,4.298340082E-1,-2.117486298E-1,-7.399420738E-1
1.881021950E-1,3.925589919E-1,-3.384836316E-1,-7.527220249E-1
1.906178730E-1,3.510240018E-1,-4.609586298E-1,-7.644370198E-1
1.931334980E-1,3.052290082E-1,-5.802386403E-1,-7.782820463E-1
1.958753200E-1,2.604990005E-1,-6.952586174E-1,-7.878670692E-1
1.983909450E-1,2.125739902E-1,-8.006936312E-1,-7.974520326E-1
2.009065700E-1,1.689089984E-1,-8.986736536E-1,-8.123620749E-1
2.034221950E-1,1.305689961E-1,-9.913286567E-1,-8.240770698E-1
2.059378200E-1,9.648900479E-2,-1.076528549E0,-8.368570209E-1
2.084534980E-1,6.347399950E-2,-1.155338526E0,-8.528320789E-1
2.109691230E-1,3.471900150E-2,-1.228823543E0,-8.656120300E-1
2.134847480E-1,1.554900035E-2,-1.284203529E0,-8.805220723E-1
2.160003730E-1,-4.685999826E-3,-1.328933597E0,-8.933020234E-1
2.185159980E-1,-2.279100008E-2,-1.358753562E0,-9.156670570E-1
2.210316750E-1,-3.557099774E-2,-1.373663545E0,-9.390970469E-1
2.235473000E-1,-4.622099921E-2,-1.381118536E0,-9.678520560E-1
2.262891230E-1,-5.048099905E-2,-1.371533632E0,-1.000867009E0
2.288047480E-1,-5.580599979E-2,-1.355558634E0,-1.034947038E0
2.313203730E-1,-6.326100230E-2,-1.327868581E0,-1.070091963E0
2.338359980E-1,-6.645599753E-2,-1.292723536E0,-1.105237007E0
2.363516230E-1,-6.645599753E-2,-1.260773540E0,-1.137187004E0
2.388673000E-1,-6.645599753E-2,-1.223498583E0,-1.167006969E0
2.413829250E-1,-6.006599963E-2,-1.175573587E0,-1.193632007E0
2.438985500E-1,-5.580599979E-2,-1.126583576E0,-1.224516988E0
2.464141750E-1,-4.622099921E-2,-1.076528549E0,-1.254336953E0
2.489298000E-1,-3.344099969E-2,-1.017953634E0,-1.284157038E0
2.514454770E-1,-2.811600082E-2,-9.668336511E-1,-1.316107035E0
2.539611020E-1,-2.066100016E-2,-9.189086556E-1,-1.351251960E0
2.567030290E-1,-1.427100040E-2,-8.752436638E-1,-1.400241971E0
2.592186540E-1,-1.320599951E-2,-8.337086439E-1,-1.459882021E0
2.617342790E-1,-1.746599935E-2,-7.761986256E-1,-1.509937048E0
2.642499040E-1,-2.385600097E-2,-7.133636475E-1,-1.554666996E0
2.667655290E-1,-2.811600082E-2,-6.526586413E-1,-1.593006968E0
2.692812060E-1,-2.918099985E-2,-5.940836668E-1,-1.632411957E0
2.717968310E-1,-2.385600097E-2,-5.344436169E-1,-1.667557001E0
2.743124560E-1,-1.959599927E-2,-4.726736248E-1,-1.701637030E0
2.768280810E-1,-1.001100056E-2,-4.066436291E-1,-1.738911986E0
2.793437060E-1,-2.555999905E-3,-3.374186456E-1,-1.772992015E0
2.818593830E-1,3.834000323E-3,-2.618036270E-1,-1.807072043E0
2.843750080E-1,6.389999762E-4,-1.766036302E-1,-1.830502033E0
2.871183930E-1,-7.880999707E-3,-8.501362056E-2,-1.854997039E0
2.896340180E-1,-2.172600105E-2,9.771374986E-3,-1.869907022E0
2.921496430E-1,-3.770099953E-2,9.390638024E-2,-1.883751988E0
2.946652680E-1,-5.580599979E-2,1.631313711E-1,-1.898661971E0
2.971808930E-1,-6.858599931E-2,2.259663790E-1,-1.914636970E0
2.996965700E-1,-7.817099988E-2,2.792163491E-1,-1.931676984E0
3.022121950E-1,-8.562599868E-2,3.239463568E-1,-1.961496949E0
3.047278200E-1,-8.349599689E-2,3.676113486E-1,-1.989187002E0
3.072434450E-1,-8.136599511E-2,4.134063721E-1,-2.016876936E0
3.097590700E-1,-8.988600224E-2,4.592013657E-1,-2.044567108E0
3.122747480E-1,-1.037309989E-1,4.954113662E-1,-2.069061995E0
3.147903730E-1,-1.207709983E-1,5.337513685E-1,-2.094621897E0
3.175339140E-1,-1.484609991E-1,5.795463324E-1,-2.122312069E0
3.200495390E-1,-1.782810092E-1,6.253413558E-1,-2.151067019E0
3.225651640E-1,-2.155560106E-1,6.743313670E-1,-2.176626921E0
3.250807890E-1,-2.560259998E-1,7.243863344E-1,-2.208576918E0
3.275964140E-1,-3.018209934E-1,7.744413614E-1,-2.243721962E0
3.301120910E-1,-3.454860151E-1,8.202363849E-1,-2.283127069E0
3.326277160E-1,-3.966059983E-1,8.607063890E-1,-2.323596954E0
3.351433410E-1,-4.519860148E-1,8.979813457E-1,-2.371521950E0
3.376589660E-1,-5.105609894E-1,9.224763513E-1,-2.422641993E0
3.401745910E-1,-5.702009797E-1,9.299313426E-1,-2.478022099E0
3.426902680E-1,-6.330359578E-1,9.107613564E-1,-2.540857077E0
3.452058930E-1,-6.926759481E-1,8.660313487E-1,-2.607951880E0
3.479458410E-1,-7.480559945E-1,7.978713512E-1,-2.677176952E0
3.504614660E-1,-8.066309690E-1,7.073463798E-1,-2.748532057E0
3.529770910E-1,-8.684009910E-1,5.859363675E-1,-2.827342033E0
3.554927160E-1,-9.248459935E-1,4.538763762E-1,-2.900826931E0
3.580083410E-1,-9.791609645E-1,3.101013601E-1,-2.972182035E0
3.605240180E-1,-1.036670923E0,1.620663702E-1,-3.053122044E0
3.630396430E-1,-1.100570917E0,2.361637540E-2,-3.126606941E0
3.655552680E-1,-1.167665958E0,-1.073786244E-1,-3.197962046E0
3.680708930E-1,-1.235826015E0,-2.287886292E-1,-3.262927055E0
3.705865180E-1,-1.310375929E0,-3.448736370E-1,-3.321501970E0
3.731021950E-1,-1.391315937E0,-4.513736367E-1,-3.374752045E0
3.756178200E-1,-1.472255945E0,-5.525486469E-1,-3.417351961E0
3.783611540E-1,-1.550001025E0,-6.483986378E-1,-3.456757069E0
3.808767790E-1,-1.620290995E0,-7.293386459E-1,-3.484447002E0
3.833924040E-1,-1.662891030E0,-7.953686118E-1,-3.484447002E0
3.859080290E-1,-1.647980928E0,-8.358386159E-1,-3.424807072E0
3.884236540E-1,-1.545740962E0,-8.251886368E-1,-3.230977058E0
3.909393310E-1,-1.316766024E0,-7.293386459E-1,-2.849706888E0
3.934549560E-1,-9.631859660E-1,-5.408336520E-1,-2.314012051E0
3.959705810E-1,-5.606159568E-1,-3.033386469E-1,-1.715481997E0
3.984862060E-1,-1.772160083E-1,-9.353362024E-2,-1.162747025E0
4.010018310E-1,1.103340015E-1,3.000637516E-2,-7.229020596E-1
4.035175080E-1,2.679539919E-1,5.237137526E-2,-4.225720167E-1
4.060331330E-1,3.009690046E-1,-2.111362480E-2,-2.670820057E-1
4.087767790E-1,2.328089923E-1,-1.893836260E-1,-2.404570282E-1
4.112924040E-1,9.329400212E-2,-4.364636242E-1,-2.990320325E-1
4.138080290E-1,-9.734100103E-2,-7.261436582E-1,-4.076620340E-1
4.163236540E-1,-3.082109988E-1,-1.033928633E0,-5.237470269E-1
4.188392790E-1,-5.052359700E-1,-1.334258556E0,-6.238570213E-1
4.213549560E-1,-6.724410057E-1,-1.602638602E0,-6.920170784E-1
4.238705810E-1,-7.895909548E-1,-1.818833590E0,-7.324870229E-1
4.263862060E-1,-8.556209803E-1,-1.973258615E0,-7.495270371E-1
4.289018310E-1,-8.790509701E-1,-2.060588598E0,-7.505920529E-1
4.314174560E-1,-8.779859543E-1,-2.090408564E0,-7.463320494E-1
4.339331330E-1,-8.620109558E-1,-2.077628613E0,-7.431370616E-1
4.364487580E-1,-8.375159502E-1,-2.033963680E0,-7.495270371E-1
4.391920390E-1,-8.215409517E-1,-1.962608576E0,-7.665670514E-1
4.417076640E-1,-8.055659533E-1,-1.864628553E0,-7.899970412E-1
4.442232890E-1,-7.863959670E-1,-1.736828566E0,-8.240770698E-1
4.467389140E-1,-7.650959492E-1,-1.578143597E0,-8.656120300E-1
4.492545390E-1,-7.469909787E-1,-1.401353598E0,-9.103420377E-1
4.517702160E-1,-7.171709538E-1,-1.225628614E0,-9.550720453E-1
4.542858410E-1,-6.788309813E-1,-1.054163575E0,-9.966070652E-1
4.568014660E-1,-6.319710016E-1,-8.901536465E-1,-1.038141966E0
4.593170910E-1,-5.840459466E-1,-7.335986495E-1,-1.082872033E0
4.618327160E-1,-5.276010036E-1,-5.962136388E-1,-1.126536965E0
4.643483930E-1,-4.711560011E-1,-4.726736248E-1,-1.170202017E0
4.668640180E-1,-4.179060161E-1,-3.501986265E-1,-1.219192028E0
4.696054770E-1,-3.721109927E-1,-2.096186280E-1,-1.262856960E0
4.721211020E-1,-3.422909975E-1,-6.264862418E-2,-1.299067020E0
4.746367270E-1,-3.231210113E-1,6.621637940E-2,-1.320366979E0
4.771523520E-1,-3.135360181E-1,2.398113757E-1,-1.333147049E0
4.796679770E-1,-3.177959919E-1,3.058413565E-1,-1.331017017E0
4.821836540E-1,-2.879759967E-1,-8.786248509E-4,-1.318236947E0
4.846992790E-1,-2.549609840E-1,-2.202686220E-1,-1.325691938E0
4.872149040E-1,-2.347260118E-1,-2.500886321E-1,-1.339537024E0
4.897305290E-1,-1.974510103E-1,-2.436986268E-1,-1.353381991E0
4.922461540E-1,-1.527210027E-1,-2.522186339E-1,-1.368291974E0
4.947618310E-1,-1.207709983E-1,-3.161186278E-1,-1.375746965E0
4.972774560E-1,-1.069260016E-1,-4.364636242E-1,-1.365097046E0
5.000483410E-1,-1.058610007E-1,-5.738486648E-1,-1.331017017E0
5.025640180E-1,-1.111859977E-1,-6.920636296E-1,-1.284157038E0
5.050796430E-1,-1.165110022E-1,-7.740686536E-1,-1.230906963E0
5.075952680E-1,-1.282259971E-1,-8.315786123E-1,-1.187242031E0
5.101108930E-1,-1.356810033E-1,-8.667236567E-1,-1.158486962E0
5.126265180E-1,-1.537860036E-1,-8.901536465E-1,-1.144641995E0
5.151421950E-1,-1.782810092E-1,-9.146486521E-1,-1.155292034E0
5.176578200E-1,-1.995810121E-1,-9.263636470E-1,-1.170202017E0
5.201734450E-1,-2.112960070E-1,-9.093236327E-1,-1.189371943E0
5.226890700E-1,-2.123610079E-1,-8.656586409E-1,-1.200021982E0
5.252046950E-1,-2.112960070E-1,-7.921736240E-1,-1.206411958E0
5.277203200E-1,-2.070360035E-1,-7.069736123E-1,-1.203217030E0
5.304333930E-1,-2.006460130E-1,-6.207086444E-1,-1.194697022E0
5.329490180E-1,-2.006460130E-1,-5.376386642E-1,-1.188307047E0
5.354646430E-1,-2.027759999E-1,-4.577636421E-1,-1.179787040E0
5.379802680E-1,-2.070360035E-1,-3.896036446E-1,-1.174461961E0
5.404958930E-1,-2.208810002E-1,-3.352886438E-1,-1.175526977E0
5.430115700E-1,-2.368559986E-1,-2.958836257E-1,-1.184046984E0
5.455271950E-1,-2.570910156E-1,-2.692586482E-1,-1.195762038E0
5.480428200E-1,-2.826510072E-1,-2.564786375E-1,-1.211737037E0
5.505584450E-1,-3.050160110E-1,-2.586086392E-1,-1.230906963E0
5.530740700E-1,-3.273810148E-1,-2.628686428E-1,-1.250077009E0
5.555897480E-1,-3.486810029E-1,-2.788436413E-1,-1.272441983E0
5.581053730E-1,-3.689160049E-1,-2.948186398E-1,-1.294806957E0
5.608478730E-1,-3.848910034E-1,-3.171836436E-1,-1.326756954E0
5.633634980E-1,-4.029960036E-1,-3.384836316E-1,-1.362967014E0
5.658791230E-1,-4.200360179E-1,-3.608486354E-1,-1.404502034E0
5.683947480E-1,-4.381410182E-1,-3.470036387E-1,-1.456686974E0
5.709103730E-1,-4.573110044E-1,-2.277236283E-1,-1.506742001E0
5.734260500E-1,-4.860660136E-1,-8.607862145E-2,-1.554666996E0
5.759416750E-1,-5.329259634E-1,-7.329862565E-2,-1.602591991E0
5.784573000E-1,-5.904359818E-1,-1.840586215E-1,-1.649451971E0
5.809729250E-1,-6.479460001E-1,-3.363536298E-1,-1.692052007E0
5.834885500E-1,-6.862859726E-1,-4.716086388E-1,-1.725067019E0
5.860042270E-1,-7.022609711E-1,-6.185786128E-1,-1.747431993E0
5.885198520E-1,-6.926759481E-1,-8.177336454E-1,-1.781512022E0
5.912620390E-1,-6.468809843E-1,-1.006238580E0,-1.839022040E0
5.937776640E-1,-5.829809904E-1,-1.135103583E0,-1.925287008E0
5.962932890E-1,-5.244059563E-1,-1.186223626E0,-2.060542107E0
5.988089660E-1,-4.903260171E-1,-1.196873546E0,-2.227746964E0
6.013245390E-1,-4.764810205E-1,-1.208588600E0,-2.371521950E0
6.038402160E-1,-4.626359940E-1,-1.230953574E0,-2.479086876E0
6.063558410E-1,-4.498560131E-1,-1.263968587E0,-2.561091900E0
6.088714660E-1,-4.402710199E-1,-1.305503607E0,-2.645226955E0
6.113870910E-1,-4.317510128E-1,-1.328933597E0,-2.700607061E0
6.139027160E-1,-4.296210110E-1,-1.337453604E0,-2.725101948E0
6.164183930E-1,-4.317510128E-1,-1.328933597E0,-2.736816883E0
6.189340180E-1,-4.445309937E-1,-1.306568623E0,-2.745337009E0
6.216749560E-1,-4.562460184E-1,-1.263968587E0,-2.748532057E0
6.241905810E-1,-4.743510187E-1,-1.207523584E0,-2.761312008E0
6.267062060E-1,-4.977810085E-1,-1.132973552E0,-2.769831896E0
6.292218310E-1,-5.244059563E-1,-1.040318608E0,-2.775156975E0
6.317374560E-1,-5.574209690E-1,-9.391436577E-1,-2.775156975E0
6.342531330E-1,-5.946959853E-1,-8.283836246E-1,-2.759181976E0
6.367687580E-1,-6.362310052E-1,-7.218836546E-1,-2.733622074E0
6.392843830E-1,-6.862859726E-1,-6.164486408E-1,-2.696346998E0
6.418000080E-1,-7.427309752E-1,-5.237936378E-1,-2.643096924E0
6.443156330E-1,-7.970460057E-1,-4.407236278E-1,-2.587717056E0
6.468313100E-1,-8.534909487E-1,-3.693686426E-1,-2.524882078E0
6.493469350E-1,-9.078059793E-1,-3.150536418E-1,-2.457787037E0
6.520932370E-1,-9.525359869E-1,-2.660636306E-1,-2.383236885E0
6.546088620E-1,-9.876809716E-1,-2.266586274E-1,-2.305491924E0
6.571244870E-1,-1.015370965E0,-1.957736164E-1,-2.222421885E0
6.596401120E-1,-1.033475995E0,-1.680836231E-1,-2.137222052E0
6.621557370E-1,-1.036670923E0,-1.435886174E-1,-2.044567108E0
6.646714140E-1,-1.034541011E0,-1.308086216E-1,-1.951912045E0
6.671870390E-1,-1.022825956E0,-1.286786199E-1,-1.857126951E0
6.697026640E-1,-1.004721045E0,-1.371986270E-1,-1.763406992E0
6.722182890E-1,-9.802259803E-1,-1.584986299E-1,-1.663296938E0
6.747339140E-1,-9.557309747E-1,-1.904486269E-1,-1.563187003E0
6.772495910E-1,-9.173910022E-1,-2.298536301E-1,-1.469467044E0
6.797652160E-1,-8.662709594E-1,-2.692586482E-1,-1.382136941E0
6.825068310E-1,-8.066309690E-1,-3.054686487E-1,-1.303326964E0
6.850224560E-1,-7.363409996E-1,-3.374186456E-1,-1.240491986E0
6.875380810E-1,-6.564659476E-1,-3.555236459E-1,-1.188307047E0
6.900537060E-1,-5.712659955E-1,-3.683036268E-1,-1.147837043E0
6.925693310E-1,-4.850009978E-1,-3.757586479E-1,-1.114822030E0
6.950850080E-1,-3.976710141E-1,-3.746936321E-1,-1.080742002E0
6.976006330E-1,-3.146010041E-1,-3.672386408E-1,-1.047726989E0
7.001162580E-1,-2.411160022E-1,-3.619136512E-1,-1.018972039E0
7.026318830E-1,-1.782810092E-1,-3.533936441E-1,-9.848920703E-1
7.051475080E-1,-1.111859977E-1,-3.384836316E-1,-9.465520382E-1
7.076631850E-1,-5.474099889E-2,-3.225086331E-1,-9.146020412E-1
7.101788100E-1,1.703999937E-3,-2.990786433E-1,-8.869120479E-1
7.129220910E-1,5.708400160E-2,-2.639336288E-1,-8.677420616E-1
7.154377160E-1,1.103340015E-1,-2.192036211E-1,-8.581570387E-1
7.179533410E-1,1.582589895E-1,-1.627586186E-1,-8.602870703E-1
7.204689660E-1,1.997939944E-1,-9.459862113E-2,-8.645470738E-1
7.229845910E-1,2.317439914E-1,-1.685362495E-2,-8.698720336E-1
7.255002680E-1,2.594339848E-1,6.302137673E-2,-8.741320372E-1
7.280158930E-1,2.796689868E-1,1.428963840E-1,-8.751970530E-1
7.305315180E-1,2.913839817E-1,2.227713764E-1,-8.677420616E-1
7.330471430E-1,2.956439853E-1,2.973213494E-1,-8.592220545E-1
7.355627680E-1,2.999039888E-1,3.750663698E-1,-8.507020473E-1
7.380784450E-1,3.041639924E-1,4.485513568E-1,-8.432470560E-1
7.405940700E-1,3.052290082E-1,5.188413858E-1,-8.347270489E-1
7.433345910E-1,3.062939942E-1,5.827413797E-1,-8.283370733E-1
7.458502160E-1,3.062939942E-1,6.413163543E-1,-8.208820224E-1
7.483658410E-1,3.052290082E-1,6.871113777E-1,-8.134270310E-1
7.508814660E-1,3.094889820E-1,7.222563624E-1,-8.027770519E-1
7.533970910E-1,3.158789873E-1,7.414263487E-1,-7.910620570E-1
7.559127680E-1,3.222689927E-1,7.446213365E-1,-7.804120779E-1
7.584283930E-1,3.414390087E-1,7.350363731E-1,-7.676320672E-1
7.609440180E-1,3.638039827E-1,7.105413675E-1,-7.591120601E-1
7.634596430E-1,3.957539797E-1,6.817863584E-1,-7.473970652E-1
7.659752680E-1,4.277040064E-1,6.455763578E-1,-7.367470264E-1
7.684909450E-1,4.649789929E-1,6.029763818E-1,-7.250320315E-1
7.710065700E-1,5.065140128E-1,5.529213548E-1,-7.111870646E-1
7.737503730E-1,5.459190011E-1,4.975413680E-1,-6.909520626E-1
7.762659980E-1,5.863890052E-1,4.304463565E-1,-6.781720519E-1
7.787816230E-1,6.236640215E-1,3.548313677E-1,-6.675220728E-1
7.812972480E-1,6.566790342E-1,2.696313560E-1,-6.590020657E-1
7.838128730E-1,6.918240190E-1,1.812363714E-1,-6.483520269E-1
7.863285500E-1,7.227090001E-1,8.964637667E-2,-6.398320198E-1
7.888441750E-1,7.472040057E-1,6.576375104E-3,-6.323770285E-1
7.913598000E-1,7.716990113E-1,-6.903862208E-2,-6.281170249E-1
7.938754250E-1,7.940640450E-1,-1.371986270E-1,-6.217270494E-1
7.963910500E-1,8.121690154E-1,-1.989686191E-1,-6.110770702E-1
7.989067270E-1,8.260140419E-1,-2.554136515E-1,-6.014920473E-1
8.014223520E-1,8.398590088E-1,-3.044036329E-1,-5.940370560E-1
8.041654250E-1,8.526390195E-1,-3.438086510E-1,-5.865820646E-1
8.066810500E-1,8.622240424E-1,-3.800186515E-1,-5.801920295E-1
8.091966750E-1,8.728740215E-1,-4.077086449E-1,-5.769970417E-1
8.117123000E-1,8.771340251E-1,-4.322036505E-1,-5.738020539E-1
8.142279250E-1,8.824590445E-1,-4.439186454E-1,-5.738020539E-1
8.167436020E-1,8.856540322E-1,-4.513736367E-1,-5.716720223E-1
8.192592270E-1,8.899140358E-1,-4.577636421E-1,-5.642170310E-1
8.217748520E-1,8.931090236E-1,-4.598936439E-1,-5.610220432E-1
8.242904770E-1,9.016290307E-1,-4.652186334E-1,-5.556970239E-1
8.268061020E-1,9.112139940E-1,-4.769336283E-1,-5.471770763E-1
8.293217790E-1,9.282540083E-1,-4.897136390E-1,-5.397220254E-1
8.318374040E-1,9.548790455E-1,-5.035586357E-1,-5.301370621E-1
8.345769870E-1,9.804390073E-1,-5.110136271E-1,-5.226820707E-1
8.370926120E-1,1.011324048E0,-5.163386464E-1,-5.120320320E-1
8.396082370E-1,1.045404077E0,-5.078186393E-1,-5.056420565E-1
8.421238620E-1,1.080549002E0,-4.875836372E-1,-4.960570335E-1
8.446394870E-1,1.112498999E0,-4.556336403E-1,-4.875370264E-1
8.471551640E-1,1.142319083E0,-4.204886258E-1,-4.747570157E-1
8.496707890E-1,1.164684057E0,-3.800186515E-1,-4.609120190E-1
8.521864140E-1,1.182788968E0,-3.395486474E-1,-4.502620101E-1
8.547020390E-1,1.199828982E0,-3.022736311E-1,-4.364170134E-1
8.572176640E-1,1.213674068E0,-2.671286464E-1,-4.278970063E-1
8.597333410E-1,1.222194076E0,-2.383736223E-1,-4.236370325E-1
8.622489660E-1,1.230714083E0,-2.160086185E-1,-4.193770289E-1
8.649915700E-1,1.241364002E0,-1.957736164E-1,-4.215070307E-1
8.675071950E-1,1.254144073E0,-1.744736284E-1,-4.310920238E-1
8.700228200E-1,1.263728976E0,-1.457186192E-1,-4.428070188E-1
8.725384450E-1,1.272248983E0,-1.105736271E-1,-4.566520154E-1
8.750540700E-1,1.279703975E0,-6.690862030E-2,-4.694320261E-1
8.775697480E-1,1.279703975E0,-2.217862569E-2,-4.875370264E-1
8.800853730E-1,1.274379015E0,2.042137459E-2,-5.035120249E-1
8.826009980E-1,1.267989039E0,6.728138030E-2,-5.184220672E-1
8.851166230E-1,1.257339001E0,1.162713766E-1,-5.280070305E-1
8.876322480E-1,1.246689081E0,1.641963720E-1,-5.365270376E-1
8.901479250E-1,1.231778979E0,2.195763737E-1,-5.397220254E-1
8.926635500E-1,1.217934012E0,2.866713703E-1,-5.333320498E-1
8.954083930E-1,1.197699070E0,3.537663519E-1,-5.226820707E-1
8.979239660E-1,1.179594040E0,4.155363739E-1,-5.067070723E-1
9.004396430E-1,1.163619041E0,4.655913711E-1,-4.800820053E-1
9.029552680E-1,1.145514011E0,4.996713698E-1,-4.502620101E-1
9.054708930E-1,1.132734060E0,5.199063420E-1,-4.140520096E-1
9.079865700E-1,1.126343966E0,5.294913650E-1,-3.778420091E-1
9.105021950E-1,1.130604029E0,5.305563807E-1,-3.373720050E-1
9.130178200E-1,1.141254067E0,5.273613334E-1,-2.979670167E-1
9.155334450E-1,1.160423994E0,5.231013894E-1,-2.553670108E-1
9.180490700E-1,1.183853984E0,5.124513507E-1,-2.159620374E-1
9.205647480E-1,1.214738965E0,4.986063540E-1,-1.754920334E-1
9.230803730E-1,1.250949025E0,4.826313555E-1,-1.339570284E-1
9.258225080E-1,1.283964038E0,4.570713639E-1,-9.348703176E-2
9.283381330E-1,1.315914035E0,4.187313616E-1,-5.621203035E-2
9.308537580E-1,1.349994063E0,3.750663698E-1,-2.426202968E-2
9.333693830E-1,1.381944060E0,3.175563514E-1,3.427969059E-3
9.358850080E-1,1.414959073E0,2.568513751E-1,2.153296955E-2
9.384006850E-1,1.446909070E0,1.993413717E-1,3.324797004E-2
9.409163100E-1,1.476729035E0,1.418313831E-1,3.644296899E-2
9.434319350E-1,1.505483985E0,9.071137756E-2,3.005297109E-2
9.459475600E-1,1.529978991E0,4.598137736E-2,2.046796866E-2
9.484631850E-1,1.553408980E0,1.296637487E-2,9.817969054E-3
9.509788620E-1,1.569383979E0,-9.398625232E-3,-6.157030817E-3
9.534944870E-1,1.578969002E0,-2.324362472E-2,-2.639203146E-2
9.562368830E-1,1.586423993E0,-3.495862335E-2,-5.088702962E-2
9.587525080E-1,1.588554025E0,-4.028362408E-2,-8.070703596E-2
9.612681330E-1,1.586423993E0,-4.880362377E-2,-1.179820374E-1
9.637837580E-1,1.578969002E0,-5.412862450E-2,-1.616470367E-1
9.662993830E-1,1.572579026E0,-5.625862256E-2,-2.117020339E-1
9.688150600E-1,1.560863972E0,-5.732362345E-2,-2.649520338E-1
9.713306850E-1,1.548084021E0,-6.051862240E-2,-3.245920241E-1
9.738463100E-1,1.531044006E0,-6.903862208E-2,-3.842320144E-1
9.763619350E-1,1.511874080E0,-7.755862176E-2,-4.481320083E-1
9.788775600E-1,1.489508986E0,-1.009886265E-1,-5.184220672E-1
9.813932370E-1,1.462884068E0,-1.329386234E-1,-5.887120366E-1
9.839088620E-1,1.433063984E0,-1.808636189E-1,-6.664570570E-1
9.866550080E-1,1.381944060E0,-3.246386349E-1,-7.399420738E-1
9.891706330E-1,1.287158966E0,-6.398786306E-1,-7.921270728E-1
9.916862580E-1,1.193439007E0,-9.263636470E-1,-8.315320611E-1
9.942018830E-1,1.108239055E0,-1.094633579E0,-8.613520265E-1
9.967175080E-1,1.014518976E0,-1.217108607E0,-8.869120479E-1
9.992331850E-1,9.538140297E-1,-1.228823543E0,-9.305770397E-1
1.001748810E0,9.293190241E-1,-1.157468557E0,-9.848920703E-1
1.004264435E0,9.037590027E-1,-1.099958539E0,-1.043467045E0
1.006780060E0,8.611590266E-1,-1.093568563E0,-1.095651984E0
1.009295685E0,8.015190363E-1,-1.098893523E0,-1.128666997E0
1.011811362E0,7.397490144E-1,-1.082918525E0,-1.148901939E0
1.014326987E0,6.747840047E-1,-1.038188577E0,-1.155292034E0
1.017064331E0,6.119490266E-1,-9.583136439E-1,-1.149966955E0
1.019579956E0,5.565690398E-1,-8.486186266E-1,-1.143576980E0
1.022095581E0,5.097090006E-1,-7.229486108E-1,-1.131862044E0
1.024611206E0,4.756290019E-1,-5.844986439E-1,-1.113757014E0
1.027126831E0,4.458090067E-1,-4.460486472E-1,-1.089262009E0
1.029642508E0,4.202489853E-1,-3.171836436E-1,-1.065832019E0
1.032158133E0,4.000139832E-1,-2.021636218E-1,-1.039206982E0
1.034673758E0,3.819089830E-1,-1.063136235E-1,-1.009387016E0
1.037189383E0,3.691290021E-1,-3.069862537E-2,-9.806320667E-1
1.039705008E0,3.638039827E-1,1.296637487E-2,-9.486820698E-1
1.042220685E0,3.648689985E-1,3.746137768E-2,-9.135370255E-1
1.044736310E0,3.712590039E-1,3.959137574E-2,-8.773270249E-1
1.047480008E0,3.776489794E-1,1.935637556E-2,-8.400520682E-1
1.049995633E0,3.893640041E-1,-3.008625237E-3,-8.144920468E-1
1.052511258E0,4.095990062E-1,-3.176362440E-2,-7.921270728E-1
1.055026883E0,4.319639802E-1,-7.010362297E-2,-7.761520743E-1
1.057542508E0,4.564589858E-1,-1.308086216E-1,-7.623070478E-1
1.060058185E0,4.852139950E-1,-1.968386173E-1,-7.505920529E-1
1.062573810E0,5.160990357E-1,-2.447636276E-1,-7.442020774E-1
1.065089435E0,5.480490327E-1,-2.490236312E-1,-7.388770580E-1
1.067605060E0,5.650890470E-1,-1.840586215E-1,-7.324870229E-1
1.070120685E0,5.576339960E-1,-2.111362480E-2,-6.888220310E-1
1.072636362E0,5.086440444E-1,2.206413746E-1,-6.046870351E-1
1.075151987E0,4.308989942E-1,5.060613751E-1,-4.864720106E-1
1.077894800E0,3.307889998E-1,7.957413793E-1,-3.373720050E-1
1.080410425E0,2.253540009E-1,1.051341414E0,-1.786870360E-1
1.082926050E0,1.316339970E-1,1.263276458E0,-2.426202968E-2
1.085441675E0,5.388900265E-2,1.427286386E0,1.184479669E-1
1.087957300E0,-7.880999707E-3,1.547631383E0,2.324029654E-1
1.090472977E0,-4.622099921E-2,1.639221430E0,3.154729903E-1
1.092988602E0,-6.326100230E-2,1.691406369E0,3.687229753E-1
1.095504227E0,-5.793599784E-2,1.716966391E0,3.868279755E-1
1.098019852E0,-3.663599864E-2,1.711641431E0,3.772429824E-1
1.100535477E0,5.964000244E-3,1.639221430E0,3.484879732E-1
1.103051154E0,6.986400485E-2,1.495446444E0,2.994979918E-1
1.105566779E0,1.422839910E-1,1.320786476E0,2.238829583E-1
1.108316570E0,2.136389911E-1,1.138671398E0,1.322929710E-1
1.110832195E0,2.871240079E-1,9.491013885E-1,4.070296884E-2
1.113347820E0,3.616739810E-1,7.446213365E-1,-5.514702946E-2
1.115863445E0,4.330289960E-1,5.369463563E-1,-1.509970278E-1
1.118379070E0,4.990589917E-1,3.495063484E-1,-2.340670377E-1
1.120894748E0,5.555040240E-1,2.014713734E-1,-3.096820116E-1
1.123410373E0,5.917140245E-1,9.603637457E-2,-3.821020126E-1
1.125925998E0,6.076890230E-1,2.361637540E-2,-4.353520274E-1
1.128441623E0,5.981040001E-1,-4.773862287E-2,-4.736920297E-1
1.130957248E0,5.640240312E-1,-1.414586306E-1,-5.045770407E-1
1.133472925E0,5.118390322E-1,-2.468936294E-1,-5.301370621E-1
1.135988550E0,4.585889876E-1,-3.150536418E-1,-5.439820290E-1
1.138730112E0,4.159889817E-1,-3.022736311E-1,-5.493070483E-1
1.141245737E0,3.819089830E-1,-2.362436205E-1,-5.471770763E-1
1.143761362E0,3.510240018E-1,-1.766036302E-1,-5.386570692E-1
1.146276987E0,3.190740049E-1,-1.574336290E-1,-5.290720463E-1
1.148792612E0,2.860589921E-1,-1.702136248E-1,-5.258770585E-1
1.151308289E0,2.509140074E-1,-2.010986209E-1,-5.258770585E-1
1.153823914E0,2.178989947E-1,-2.192036211E-1,-5.269420743E-1
1.156339539E0,1.955339909E-1,-2.064236253E-1,-5.258770585E-1
1.158855164E0,1.827539951E-1,-1.616936177E-1,-5.216170549E-1
1.161370789E0,1.816889942E-1,-1.031186208E-1,-5.173570514E-1
1.163886466E0,1.902090013E-1,-3.389362246E-2,-5.141620636E-1
1.166402091E0,2.019239962E-1,3.852637485E-2,-5.077720284E-1
1.169145841E0,2.200289965E-1,1.045563743E-1,-5.003170371E-1
1.171661466E0,2.423940003E-1,1.716513783E-1,-4.949920177E-1
1.174177091E0,2.668890059E-1,2.398113757E-1,-4.875370264E-1
1.176692716E0,2.967090011E-1,3.026463687E-1,-4.811470211E-1
1.179208341E0,3.286589980E-1,3.601563573E-1,-4.758220315E-1
1.181723966E0,3.701939881E-1,4.155363739E-1,-4.747570157E-1
1.184239643E0,4.181189835E-1,4.602663517E-1,-4.800820053E-1
1.186755268E0,4.692389965E-1,4.922163486E-1,-4.843420088E-1
1.189270893E0,5.267490149E-1,5.049963593E-1,-4.886020124E-1
1.191786518E0,5.917140245E-1,4.932813644E-1,-4.907320142E-1
1.194302195E0,6.513540149E-1,4.570713639E-1,-5.013820529E-1
1.196817820E0,7.152540088E-1,4.059513509E-1,-5.088370442E-1
1.199550373E0,7.738290429E-1,3.324663639E-1,-5.216170549E-1
1.202065998E0,8.270789981E-1,2.515263557E-1,-5.375920534E-1
1.204581623E0,8.803290129E-1,1.663263738E-1,-5.567620397E-1
1.207097248E0,9.239940047E-1,8.751637489E-2,-5.791270733E-1
1.209612873E0,9.644640088E-1,1.190137491E-2,-6.057520509E-1
1.212128498E0,9.932190180E-1,-6.264862418E-2,-6.419620514E-1
1.214644123E0,1.013454080E0,-1.276136190E-1,-6.803020239E-1
1.217159800E0,1.025169015E0,-1.968386173E-1,-7.218370438E-1
1.219675425E0,1.024103999E0,-2.724536359E-1,-7.686970234E-1
1.222191050E0,1.013454080E0,-3.395486474E-1,-8.166220784E-1
1.224706675E0,1.003869057E0,-4.119686484E-1,-8.666770458E-1
1.227222300E0,1.004934072E0,-4.769336283E-1,-9.060820341E-1
1.229977248E0,1.020909071E0,-5.323136449E-1,-9.359020591E-1
1.232492873E0,1.030493975E0,-6.047336459E-1,-9.710470438E-1
1.235008498E0,1.024103999E0,-6.984536648E-1,-1.013646960E0
1.237524123E0,1.005998969E0,-8.113436103E-1,-1.055181980E0
1.240039748E0,9.868290424E-1,-9.306236506E-1,-1.090327024E0
1.242555373E0,9.676589966E-1,-1.033928633E0,-1.120146990E0
1.245070998E0,9.495540261E-1,-1.097828627E0,-1.155292034E0
1.247586675E0,9.314489961E-1,-1.107413530E0,-1.184046984E0
1.250102300E0,9.080190063E-1,-1.052033544E0,-1.187242031E0
1.252617925E0,8.824590445E-1,-9.412736297E-1,-1.165941954E0
1.255133550E0,8.547690511E-1,-7.825886607E-1,-1.122277021E0
1.257649175E0,8.132340312E-1,-6.057986617E-1,-1.063701987E0
1.260388966E0,7.599840164E-1,-4.428536296E-1,-9.944770336E-1
1.262904591E0,6.918240190E-1,-3.075986505E-1,-9.220570326E-1
1.265420216E0,6.183390021E-1,-2.000336200E-1,-8.507020473E-1
1.267935841E0,5.395290256E-1,-1.084436253E-1,-7.857370377E-1
1.270451466E0,4.649789929E-1,-1.791862585E-2,-7.292920351E-1
1.272967143E0,3.968189955E-1,7.154137641E-2,-6.877570748E-1
1.275482768E0,3.350490034E-1,1.684563756E-1,-6.536770463E-1
1.277998393E0,2.817989886E-1,2.706963718E-1,-6.334420443E-1
1.280514018E0,2.413289994E-1,3.654813468E-1,-6.174670458E-1
1.283029643E0,2.125739902E-1,4.602663517E-1,-6.025570631E-1
1.285545320E0,1.934039891E-1,5.433363914E-1,-5.929720402E-1
1.288060945E0,1.795589924E-1,6.125613451E-1,-5.812570453E-1
1.290796050E0,1.689089984E-1,6.466413736E-1,-5.759320259E-1
1.293311675E0,1.518689990E-1,6.466413736E-1,-5.695420504E-1
1.295827300E0,1.390889883E-1,6.253413558E-1,-5.674120784E-1
1.298342925E0,1.231139973E-1,5.806113482E-1,-5.674120784E-1
1.300858550E0,1.092690006E-1,5.145813823E-1,-5.674120784E-1
1.303374227E0,1.103340015E-1,4.038213491E-1,-5.567620397E-1
1.305889852E0,1.167239994E-1,2.802813649E-1,-5.386570692E-1
1.308405477E0,1.422839910E-1,1.769763827E-1,-5.343970656E-1
1.310921102E0,1.774289906E-1,7.047637552E-2,-5.407870412E-1
1.313436727E0,2.157689929E-1,-4.454362392E-2,-5.493070483E-1
1.315952404E0,2.573039830E-1,-1.521086246E-1,-5.610220432E-1
1.318468029E0,2.903189957E-1,-2.415686250E-1,-5.833870769E-1
1.321209331E0,3.116189837E-1,-2.905586362E-1,-6.217270494E-1
1.323724956E0,3.265289962E-1,-3.107936382E-1,-6.717820764E-1
1.326240581E0,3.318539858E-1,-3.203786314E-1,-7.250320315E-1
1.328756206E0,3.286589980E-1,-3.129236400E-1,-7.836070657E-1
1.331271831E0,3.126839995E-1,-3.001436293E-1,-8.485720754E-1
1.333787508E0,2.967090011E-1,-2.862986326E-1,-9.177970290E-1
1.336303133E0,2.796689868E-1,-2.639336288E-1,-9.795670509E-1
1.338818758E0,2.604990005E-1,-2.330486178E-1,-1.040271997E0
1.341334383E0,2.402639985E-1,-1.936436296E-1,-1.094586968E0
1.343850008E0,2.061839998E-1,-1.414586306E-1,-1.131862044E0
1.346365685E0,1.763639897E-1,-7.329862565E-2,-1.175526977E0
1.348881310E0,1.508039981E-1,1.083637495E-2,-1.218127012E0
1.351625945E0,1.252439916E-1,1.045563743E-1,-1.267117023E0
1.354141570E0,1.007490009E-1,1.929513812E-1,-1.311846972E0
1.356657195E0,7.838400453E-2,2.760213614E-1,-1.352316976E0
1.359172820E0,5.282400176E-2,3.622863591E-1,-1.394917011E0
1.361688445E0,2.300399914E-2,4.496163726E-1,-1.434322000E0
1.364204123E0,-7.880999707E-3,5.401413441E-1,-1.474792004E0
1.366719748E0,-4.409099743E-2,6.232113838E-1,-1.512066960E0
1.369235373E0,-8.030100167E-2,6.924363375E-1,-1.545081973E0
1.371750998E0,-1.090559959E-1,7.605963349E-1,-1.574901938E0
1.374266623E0,-1.346160024E-1,8.298213482E-1,-1.600461960E0
1.376782300E0,-1.548510045E-1,8.873313665E-1,-1.617501974E0
1.379297925E0,-1.697610021E-1,9.341913462E-1,-1.635607004E0
1.382046362E0,-1.804110110E-1,9.767913818E-1,-1.670752048E0
1.384561987E0,-1.878660023E-1,1.011936426E0,-1.701637030E0
1.387077612E0,-1.910610050E-1,1.032171369E0,-1.738911986E0
1.389593237E0,-1.899960041E-1,1.034301400E0,-1.775122046E0
1.392108862E0,-1.974510103E-1,1.011936426E0,-1.812397003E0
1.394624539E0,-2.027759999E-1,9.767913818E-1,-1.862452030E0
1.397140164E0,-2.144910097E-1,9.192813635E-1,-1.917832017E0
1.399655789E0,-2.464410067E-1,8.202363849E-1,-1.971081972E0
1.402171414E0,-3.050160110E-1,6.817863584E-1,-2.017941952E0
1.404687039E0,-3.816960156E-1,5.667663813E-1,-2.062671900E0
1.407202716E0,-4.732860029E-1,4.805013537E-1,-2.116986990E0
1.409718341E0,-5.702009797E-1,3.931713700E-1,-2.183017015E0
1.412452195E0,-6.756359935E-1,3.218163550E-1,-2.262892008E0
1.414967820E0,-7.853309512E-1,2.493963838E-1,-2.352351904E0
1.417483445E0,-9.035459757E-1,1.748463809E-1,-2.457787037E0
1.419999070E0,-1.027086020E0,1.077513769E-1,-2.578131914E0
1.422514695E0,-1.147431016E0,5.450137705E-2,-2.722971916E0
1.425030373E0,-1.266710997E0,2.361637540E-2,-2.878462076E0
1.427545998E0,-1.382795930E0,1.863748766E-4,-3.037147045E0
1.430061623E0,-1.489295959E0,-1.152862515E-2,-3.188376904E0
1.432577248E0,-1.586210966E0,-1.365862601E-2,-3.332151890E0
1.435092873E0,-1.669281006E0,-1.365862601E-2,-3.471667051E0
1.437608550E0,-1.739570975E0,-8.786248509E-4,-3.597337008E0
1.440124175E0,-1.799211025E0,1.935637556E-2,-3.711292028E0
1.442869800E0,-1.842875957E0,4.598137736E-2,-3.810337067E0
1.445385425E0,-1.867370963E0,9.603637457E-2,-3.900861979E0
1.447901050E0,-1.866305947E0,1.705863774E-1,-3.980736971E0
1.450416675E0,-1.832225919E0,2.685663700E-1,-4.045701981E0
1.452932300E0,-1.755545974E0,3.846513629E-1,-4.101081848E0
1.455447977E0,-1.638396025E0,5.113863349E-1,-4.144746780E0
1.457963602E0,-1.476516008E0,6.242763400E-1,-4.178826809E0
1.460479227E0,-1.282685995E0,6.871113777E-1,-4.189476967E0
1.462994852E0,-1.082466006E0,7.126713395E-1,-4.192671776E0
1.465510477E0,-8.779859543E-1,6.604863405E-1,-4.195867062E0
1.468026154E0,-6.532709599E-1,4.176663756E-1,-4.186282158E0
1.470541779E0,-3.998010159E-1,5.556637794E-2,-4.166047096E0
1.473283706E0,-1.804110110E-1,-6.158362329E-2,-4.158592224E0
1.475799331E0,-4.941599816E-2,1.205313802E-1,-4.175632000E0
1.478314956E0,2.300399914E-2,3.175563514E-1,-4.194801807E0
1.480830581E0,7.199399918E-2,4.379013479E-1,-4.201191902E0
1.483346206E0,1.028790027E-1,5.156463385E-1,-4.200127125E0
1.485861883E0,1.231139973E-1,5.965863466E-1,-4.193737030E0
1.488377508E0,1.465439945E-1,6.903063655E-1,-4.176696777E0
1.490893133E0,1.806239933E-1,7.829613686E-1,-4.143682003E0
1.493408758E0,2.296139896E-1,8.788113594E-1,-4.090432167E0
1.495924383E0,2.881889939E-1,9.533613324E-1,-4.030791759E0
1.498440060E0,3.520889878E-1,9.991563559E-1,-3.963696957E0
1.500955685E0,4.159889817E-1,1.032171369E0,-3.884886980E0
1.503694539E0,4.671089947E-1,1.059861422E0,-3.808207035E0
1.506210164E0,5.267490149E-1,1.097136378E0,-3.734721899E0
1.508725789E0,5.927790403E-1,1.130151391E0,-3.671886921E0
1.511241414E0,6.598740220E-1,1.156776428E0,-3.622896910E0
1.513757039E0,7.280340195E-1,1.195116401E0,-3.592011929E0
1.516272716E0,7.972590327E-1,1.248366475E0,-3.581362009E0
1.518788341E0,8.643540144E-1,1.301616430E0,-3.583492041E0
1.521303966E0,9.250590205E-1,1.350606441E0,-3.595206976E0
1.523819591E0,9.900240302E-1,1.396401405E0,-3.616507053E0
1.526335216E0,1.050729036E0,1.435806394E0,-3.644196987E0
1.528850893E0,1.112498999E0,1.477341413E0,-3.675081968E0
1.531366518E0,1.174269080E0,1.517811418E0,-3.708096981E0
1.534110268E0,1.227519035E0,1.550826430E0,-3.745372057E0
1.536625893E0,1.281834006E0,1.584906459E0,-3.783711910E0
1.539141518E0,1.328693986E0,1.620051384E0,-3.825247049E0
1.541657195E0,1.374489069E0,1.663716435E0,-3.866781950E0
1.544172768E0,1.420284033E0,1.718031406E0,-3.912576914E0
1.546688445E0,1.447973967E0,1.777671456E0,-3.958371878E0
1.549204070E0,1.474599004E0,1.840506434E0,-4.008427143E0
1.551719695E0,1.495899081E0,1.904406428E0,-4.059546947E0
1.554235320E0,1.509744048E0,1.965111375E0,-4.106407166E0
1.556750945E0,1.511874080E0,2.023686409E0,-4.152202129E0
1.559266623E0,1.507614017E0,2.075871468E0,-4.201191902E0
1.561782248E0,1.493769050E0,2.116341352E0,-4.245922089E0
1.564527977E0,1.473533988E0,2.148291349E0,-4.289587021E0
1.567043602E0,1.442649007E0,2.173851490E0,-4.327927113E0
1.569559227E0,1.409633994E0,2.191956520E0,-4.368396759E0
1.572074852E0,1.365969062E0,2.206866503E0,-4.407802105E0
1.574590477E0,1.315914035E0,2.207931519E0,-4.447206974E0
1.577106154E0,1.258404016E0,2.200476408E0,-4.485547066E0
1.579621779E0,1.194504023E0,2.191956520E0,-4.514301777E0
1.582137404E0,1.119953990E0,2.172786474E0,-4.538796902E0
1.584653029E0,1.041144013E0,2.148291349E0,-4.567552090E0
1.587168654E0,9.538140297E-1,2.114211321E0,-4.589917183E0
1.589684331E0,8.579640388E-1,2.076936483E0,-4.606956959E0
1.592199956E0,7.567890286E-1,2.035401344E0,-4.619737148E0
1.594938393E0,6.502889991E-1,1.985346437E0,-4.629322052E0
1.597454018E0,5.342040062E-1,1.927836418E0,-4.637842178E0
1.599969643E0,4.127939939E-1,1.859676480E0,-4.644231796E0
1.602485268E0,2.817989886E-1,1.787256479E0,-4.644231796E0
1.605000893E0,1.444139928E-1,1.713771462E0,-4.646361828E0
1.607516570E0,4.899000283E-3,1.646676421E0,-4.644231796E0
1.610032195E0,-1.420710087E-1,1.587036371E0,-4.641036987E0
1.612547820E0,-2.922360003E-1,1.533786416E0,-4.635712147E0
1.615063445E0,-4.392060041E-1,1.483731389E0,-4.629322052E0
1.617579070E0,-5.829809904E-1,1.440066457E0,-4.613347054E0
1.620094748E0,-7.224959731E-1,1.388946414E0,-4.588851929E0
1.622610373E0,-8.630759716E-1,1.336761475E0,-4.559031963E0
1.625354123E0,-9.951359630E-1,1.286706448E0,-4.520691872E0
1.627869748E0,-1.122936010E0,1.239846468E0,-4.471702099E0
1.630385373E0,-1.243281007E0,1.205766439E0,-4.416321754E0
1.632900998E0,-1.356171012E0,1.174881458E0,-4.354551792E0
1.635416623E0,-1.460541010E0,1.150386453E0,-4.282132149E0
1.637932300E0,-1.564911008E0,1.131216407E0,-4.209712029E0
1.640447925E0,-1.665020943E0,1.125891447E0,-4.129837036E0
1.642963550E0,-1.766196012E0,1.122696400E0,-4.041441917E0
1.645479175E0,-1.862046003E0,1.131216407E0,-3.951982021E0
1.647994800E0,-1.962155938E0,1.153581381E0,-3.861456871E0
1.650510477E0,-2.060136080E0,1.187661409E0,-3.766671896E0
1.653026102E0,-2.163441181E0,1.236651421E0,-3.675081968E0
1.655780477E0,-2.260356188E0,1.312266469E0,-3.593076944E0
1.658296102E0,-2.351946115E0,1.393206477E0,-3.523851871E0
1.660811727E0,-2.449926138E0,1.477341413E0,-3.455692053E0
1.663327352E0,-2.542581081E0,1.564671397E0,-3.387531996E0
1.665842977E0,-2.633105993E0,1.649871469E0,-3.322566986E0
1.668358654E0,-2.723631144E0,1.747851372E0,-3.267186880E0
1.670874279E0,-2.797116041E0,1.853286386E0,-3.221391916E0
1.673389904E0,-2.861016035E0,1.943811417E0,-3.179857016E0
1.675905529E0,-2.913201094E0,2.043921471E0,-3.144711971E0
1.678421154E0,-2.947281122E0,2.139771461E0,-3.111696959E0
1.680936831E0,-2.968581200E0,2.233491421E0,-3.078681946E0
1.683452456E0,-2.976036072E0,2.329341412E0,-3.043536901E0
1.686187925E0,-2.971776009E0,2.418801308E0,-3.008392096E0
1.688703550E0,-2.953670979E0,2.505066395E0,-2.965791941E0
1.691219175E0,-2.927046061E0,2.583876371E0,-2.919996977E0
1.693734800E0,-2.891901016E0,2.656296492E0,-2.868876934E0
1.696250425E0,-2.849301100E0,2.724456310E0,-2.814562082E0
1.698766102E0,-2.796051025E0,2.784096479E0,-2.763442039E0
1.701281727E0,-2.737476110E0,2.833086491E0,-2.710191965E0
1.703797352E0,-2.671446085E0,2.879946470E0,-2.653747082E0
1.706312977E0,-2.599026203E0,2.912961483E0,-2.602627039E0
1.708828602E0,-2.517021179E0,2.928936481E0,-2.550441980E0
1.711344279E0,-2.429691076E0,2.931066513E0,-2.497191906E0
1.713859904E0,-2.341296196E0,2.930001497E0,-2.439682007E0
1.716601362E0,-2.249706030E0,2.924676418E0,-2.385366917E0
1.719116987E0,-2.155986071E0,2.918286324E0,-2.325726986E0
1.721632612E0,-2.067591190E0,2.901246309E0,-2.263957024E0
1.724148237E0,-1.973870993E0,2.881011486E0,-2.200057030E0
1.726663862E0,-1.886541009E0,2.850126505E0,-2.129766941E0
1.729179539E0,-1.803470969E0,2.806461334E0,-2.053086996E0
1.731695164E0,-1.722530961E0,2.767056465E0,-1.972146988E0
1.734210789E0,-1.649045944E0,2.739366531E0,-1.889076948E0
1.736726414E0,-1.586210966E0,2.714871407E0,-1.800681949E0
1.739242039E0,-1.532961011E0,2.699961424E0,-1.704831958E0
1.741757716E0,-1.488230944E0,2.692506313E0,-1.607916951E0
1.744273341E0,-1.455215931E0,2.678661346E0,-1.502481937E0
1.747012768E0,-1.438175917E0,2.668011427E0,-1.397047043E0
1.749528393E0,-1.427525997E0,2.672271490E0,-1.296936989E0
1.752044018E0,-1.427525997E0,2.688246489E0,-1.203217030E0
1.754559643E0,-1.438175917E0,2.713806391E0,-1.116951942E0
1.757075268E0,-1.465865970E0,2.743626356E0,-1.040271997E0
1.759590945E0,-1.501011014E0,2.762796402E0,-9.816970229E-1
1.762106570E0,-1.562780976E0,2.736171484E0,-9.369670749E-1
1.764622195E0,-1.676735997E0,2.579616308E0,-9.295120239E-1
1.767137820E0,-1.857785940E0,2.329341412E0,-9.476170540E-1
1.769653445E0,-2.049486160E0,2.153616428E0,-9.710470438E-1
1.772169123E0,-2.222016096E0,2.074806452E0,-9.870220423E-1
1.774684748E0,-2.388156176E0,2.030076504E0,-1.009387016E0
1.777427456E0,-2.558556080E0,1.995996475E0,-1.048792005E0
1.779943081E0,-2.731086016E0,1.967241406E0,-1.118016958E0
1.782458706E0,-2.906810999E0,1.920381427E0,-1.222386956E0
1.784974331E0,-3.075081110E0,1.845831394E0,-1.344861984E0
1.787489956E0,-3.228441000E0,1.754241467E0,-1.468402028E0
1.790005633E0,-3.362631083E0,1.634961367E0,-1.595137000E0
1.792521258E0,-3.476586103E0,1.465626478E0,-1.713351965E0
1.795036883E0,-3.571371078E0,1.250496387E0,-1.819851995E0
1.797552508E0,-3.646986008E0,9.991563559E-1,-1.916767001E0
1.800068133E0,-3.703431129E0,7.339713573E-1,-1.999837041E0
1.802583810E0,-3.735381126E0,4.613313675E-1,-2.065866947E0
1.805099435E0,-3.752421141E0,1.780413836E-1,-2.113791943E0
1.807841727E0,-3.756681204E0,-9.033862501E-2,-2.146806955E0
1.810357352E0,-3.744966030E0,-3.257036507E-1,-2.165977001E0
1.812872977E0,-3.720471144E0,-5.259236097E-1,-2.171302080E0
1.815388602E0,-3.697041035E0,-6.973886490E-1,-2.170237064E0
1.817904227E0,-3.659766197E0,-8.390336633E-1,-2.152132034E0
1.820419904E0,-3.613970995E0,-9.444686174E-1,-2.122312069E0
1.822935529E0,-3.558591127E0,-1.009433627E0,-2.077581882E0
1.825451154E0,-3.486171007E0,-1.052033544E0,-2.023267031E0
1.827966779E0,-3.404165983E0,-1.077593565E0,-1.959367037E0
1.830482404E0,-3.316836119E0,-1.079723597E0,-1.885882020E0
1.832998081E0,-3.213531017E0,-1.059488535E0,-1.801746964E0
1.835513706E0,-3.107031107E0,-1.014758587E0,-1.715481997E0
1.838255112E0,-2.990946054E0,-9.540536404E-1,-1.628152013E0
1.840770737E0,-2.868471146E0,-8.858936429E-1,-1.537626982E0
1.843286362E0,-2.743866205E0,-8.102786541E-1,-1.448166966E0
1.845801987E0,-2.616065979E0,-7.399886250E-1,-1.362967014E0
1.848317612E0,-2.484006166E0,-6.611786485E-1,-1.285221934E0
1.850833289E0,-2.351946115E0,-5.770436525E-1,-1.220257044E0
1.853348914E0,-2.219886065E0,-4.907786250E-1,-1.170202017E0
1.855864539E0,-2.096346140E0,-4.204886258E-1,-1.128666997E0
1.858380164E0,-1.980260968E0,-3.693686426E-1,-1.102041960E0
1.860895789E0,-1.870566010E0,-3.331586421E-1,-1.088196993E0
1.863411466E0,-1.767261028E0,-3.086636364E-1,-1.081807017E0
1.865927091E0,-1.675670981E0,-3.022736311E-1,-1.085001945E0
1.868669695E0,-1.592600942E0,-2.916236520E-1,-1.104171991E0
1.871185320E0,-1.515920997E0,-2.628686428E-1,-1.141446948E0
1.873700945E0,-1.443500996E0,-2.021636218E-1,-1.197891951E0
1.876216570E0,-1.363626003E0,-1.063136235E-1,-1.266052008E0
1.878732195E0,-1.291206002E0,1.863748766E-4,-1.356577039E0
1.881247873E0,-1.216655970E0,1.013613790E-1,-1.453492045E0
1.883763498E0,-1.141040921E0,2.014713734E-1,-1.550406933E0
1.886279123E0,-1.061165929E0,2.983863652E-1,-1.643061996E0
1.888794748E0,-9.802259803E-1,3.953013718E-1,-1.742107034E0
1.891310373E0,-8.886359930E-1,4.836963713E-1,-1.834761977E0
1.893826050E0,-7.906559706E-1,5.657013655E-1,-1.926352024E0
1.896341675E0,-6.948059797E-1,6.402513385E-1,-2.020071983E0
1.899082195E0,-5.946959853E-1,7.041513324E-1,-2.115921974E0
1.901597820E0,-4.871309996E-1,7.307763696E-1,-2.243721962E0
1.904113445E0,-3.891510069E-1,7.435563803E-1,-2.378977060E0
1.906629070E0,-3.082109988E-1,7.435563803E-1,-2.483346939E0
1.909144695E0,-2.336610109E-1,7.094763517E-1,-2.558962107E0
1.911660320E0,-1.729560047E-1,6.487713456E-1,-2.615406990E0
1.914175998E0,-1.282259971E-1,5.774163604E-1,-2.664397001E0
1.916691623E0,-8.988600224E-2,5.209713578E-1,-2.703802109E0
1.919207248E0,-6.113099679E-2,4.964763522E-1,-2.740011930E0
1.921722873E0,-4.196099937E-2,4.847613573E-1,-2.769831896E0
1.924238498E0,-3.344099969E-2,4.687863588E-1,-2.806041956E0
1.926754123E0,-3.237599880E-2,4.070163667E-1,-2.892307043E0
1.929501623E0,-2.918099985E-2,3.207513690E-1,-3.020107031E0
1.932017248E0,-4.515599832E-2,2.685663700E-1,-3.155361891E0
1.934532873E0,-7.923600078E-2,2.525913715E-1,-3.285291910E0
1.937048498E0,-1.282259971E-1,2.579163611E-1,-3.409897089E0
1.939564123E0,-1.836059988E-1,2.696313560E-1,-3.522787094E0
1.942079800E0,-2.379209995E-1,2.834763527E-1,-3.630352020E0
1.944595425E0,-2.858459949E-1,2.962563634E-1,-3.719811916E0
1.947111050E0,-3.305760026E-1,3.015813529E-1,-3.789036989E0
1.949626675E0,-3.657210171E-1,2.983863652E-1,-3.838027000E0
1.952142300E0,-3.955410123E-1,2.664363682E-1,-3.862521887E0
1.954657977E0,-4.232310057E-1,1.982763708E-1,-3.869976997E0
1.957173602E0,-4.413360059E-1,8.325637877E-2,-3.857197046E0
1.959912716E0,-4.519860148E-1,-5.093362182E-2,-3.825247049E0
1.962428341E0,-4.626359940E-1,-1.829936206E-1,-3.780517101E0
1.964943966E0,-4.668959975E-1,-3.065336347E-1,-3.719811916E0
1.967459591E0,-4.658310115E-1,-4.130336344E-1,-3.654846907E0
1.969975216E0,-4.658310115E-1,-4.854536355E-1,-3.583492041E0
1.972490893E0,-4.637010098E-1,-5.205986500E-1,-3.501487017E0
1.975006518E0,-4.573110044E-1,-5.355086327E-1,-3.397116899E0
1.977522143E0,-4.466609955E-1,-5.227286220E-1,-3.270381927E0
1.980037768E0,-4.306859970E-1,-4.705436528E-1,-3.125541925E0
1.982553393E0,-4.061909914E-1,-3.981236517E-1,-2.957272053E0
1.985069070E0,-3.678510189E-1,-3.193136454E-1,-2.759181976E0
1.987584695E0,-3.209910095E-1,-2.351786196E-1,-2.529141903E0
1.990326779E0,-2.645460069E-1,-1.499786228E-1,-2.284192085E0
1.992842404E0,-1.921260059E-1,-5.838862434E-2,-2.031786919E0
1.995358029E0,-1.122509986E-1,4.172137752E-2,-1.779381990E0
1.997873654E0,-8.945999667E-3,1.737813801E-1,-1.540822029E0
2.000389279E0,1.007490009E-1,3.590913713E-1,-1.320366979E0
2.002904956E0,2.296139896E-1,5.923263431E-1,-1.125471950E0
2.005420581E0,3.733890057E-1,8.489913344E-1,-9.508120418E-1
2.007936206E0,5.278140306E-1,1.122696400E0,-7.942570448E-1
2.010451831E0,6.982139945E-1,1.408116460E0,-6.590020657E-1
2.012967456E0,8.792639971E-1,1.705251455E0,-5.482420325E-1
2.015483081E0,1.077354074E0,1.994931459E0,-4.523920119E-1
2.017998758E0,1.281834006E0,2.254791498E0,-3.842320144E-1
2.020744018E0,1.490574002E0,2.476311445E0,-3.320470154E-1
2.023259643E0,1.704639077E0,2.668011427E0,-3.000970185E-1
2.025775268E0,1.911249042E0,2.833086491E0,-3.011620045E-1
2.028290893E0,2.112533808E0,2.966211319E0,-3.150070310E-1
2.030806518E0,2.304233789E0,3.091881514E0,-3.416320086E-1
2.033322195E0,2.481023788E0,3.199446440E0,-3.703870177E-1
2.035837820E0,2.645033836E0,3.283581495E0,-4.002070129E-1
2.038353445E0,2.787743807E0,3.345351458E0,-4.278970063E-1
2.040869070E0,2.910218954E0,3.381561518E0,-4.566520154E-1
2.043384695E0,3.014588833E0,3.382626534E0,-4.875370264E-1
2.045900373E0,3.096593857E0,3.343221426E0,-5.184220672E-1
2.048415998E0,3.155169010E0,3.269736528E0,-5.503720641E-1
2.051159175E0,3.189248800E0,3.154716492E0,-5.833870769E-1
2.053674800E0,3.197768927E0,3.001356363E0,-6.164020300E-1
2.056190425E0,3.177533865E0,2.824566364E0,-6.408970356E-1
2.058706050E0,3.130673885E0,2.624346495E0,-6.579370499E-1
2.061221675E0,3.057188988E0,2.417736530E0,-6.696520448E-1
2.063737352E0,2.961338997E0,2.202606440E0,-6.781720519E-1
2.066252977E0,2.840993881E0,1.983216405E0,-6.888220310E-1
2.068768602E0,2.703608990E0,1.759566426E0,-6.888220310E-1
2.071284227E0,2.549183846E0,1.530591369E0,-6.930820346E-1
2.073799852E0,2.380913973E0,1.310136437E0,-6.952120662E-1
2.076315529E0,2.206254005E0,1.100331426E0,-6.941470504E-1
2.078831154E0,2.030529022E0,9.011763334E-1,-6.920170784E-1
2.081572925E0,1.856934071E0,7.062813640E-1,-6.856270432E-1
2.084088550E0,1.684404016E0,5.209713578E-1,-6.728470325E-1
2.086604175E0,1.517199039E0,3.452463746E-1,-6.526120305E-1
2.089119800E0,1.363839030E0,1.865613759E-1,-6.227920651E-1
2.091635425E0,1.217934012E0,5.130637810E-2,-5.855170488E-1
2.094151102E0,1.075224042E0,-6.051862240E-2,-5.365270376E-1
2.096666727E0,9.442290068E-1,-1.435886174E-1,-4.832770228E-1
2.099182352E0,8.164290190E-1,-1.947086304E-1,-4.225720167E-1
2.101697977E0,6.939540505E-1,-2.128136307E-1,-3.586720228E-1
2.104213602E0,5.810640454E-1,-2.032286227E-1,-2.926420271E-1
2.106729279E0,4.671089947E-1,-1.638236195E-1,-2.191570401E-1
2.109244904E0,3.595439792E-1,-1.084436253E-1,-1.435420364E-1
2.111986414E0,2.530439794E-1,-4.241362214E-2,-6.579703093E-2
2.114502039E0,1.518689990E-1,2.894137427E-2,1.088296901E-2
2.117017664E0,5.388900265E-2,1.120113730E-1,8.756296337E-2
2.119533289E0,-4.409099743E-2,2.067963779E-1,1.567879617E-1
2.122048914E0,-1.356810033E-1,3.090363741E-1,2.174929678E-1
2.124564591E0,-2.283360064E-1,4.070163667E-1,2.739379704E-1
2.127080216E0,-3.220559955E-1,4.996713698E-1,3.325129747E-1
2.129595841E0,-4.072560072E-1,5.880663395E-1,3.783079684E-1
2.132111466E0,-4.924560189E-1,6.636813879E-1,4.145179689E-1
2.134627091E0,-5.670059919E-1,7.382313609E-1,4.400779903E-1
2.137142768E0,-6.383609772E-1,8.063913584E-1,4.528579712E-1
2.139658393E0,-6.980009675E-1,8.628363609E-1,4.539229870E-1
2.142401779E0,-7.459259629E-1,9.096963406E-1,4.411429763E-1
2.144917404E0,-7.800059915E-1,9.288663864E-1,4.187779725E-1
2.147433029E0,-8.045009971E-1,9.160863757E-1,3.932179809E-1
2.149948654E0,-8.194109797E-1,8.713563681E-1,3.665929735E-1
2.152464279E0,-8.247359991E-1,8.053263426E-1,3.431629837E-1
2.154979956E0,-8.172809482E-1,7.275813818E-1,3.250579834E-1
2.157495581E0,-7.970460057E-1,6.434463859E-1,3.112129867E-1
2.160011206E0,-7.661609650E-1,5.539863706E-1,3.026929796E-1
2.162526831E0,-7.246260047E-1,4.602663517E-1,2.994979918E-1
2.165042456E0,-6.724410057E-1,3.686763644E-1,3.058879673E-1
2.167558133E0,-6.106709838E-1,2.717613578E-1,3.165379763E-1
2.170073758E0,-5.382509828E-1,1.716513783E-1,3.314479887E-1
2.172815633E0,-4.626359940E-1,6.834637374E-2,3.495529890E-1
2.175331258E0,-3.848910034E-1,-2.430862561E-2,3.719179928E-1
2.177846883E0,-2.986260056E-1,-9.566362202E-2,3.964129686E-1
2.180362508E0,-2.166210115E-1,-1.531736255E-1,4.219729900E-1
2.182878133E0,-1.495260000E-1,-2.064236253E-1,4.485979676E-1
2.185393810E0,-1.058610007E-1,-2.500886321E-1,4.784179926E-1
2.187909435E0,-9.521099925E-2,-2.745836377E-1,5.124979615E-1
2.190425060E0,-1.101209968E-1,-2.639336288E-1,5.401879549E-1
2.192940685E0,-1.580460072E-1,-2.234636247E-1,5.657479763E-1
2.195456310E0,-2.347260118E-1,-1.627586186E-1,5.827879310E-1
2.197971935E0,-3.359009922E-1,-9.246862680E-2,6.008929610E-1
2.200487612E0,-4.296210110E-1,-1.046362519E-2,5.987629294E-1
2.203228914E0,-5.031059980E-1,9.177637845E-2,5.604229569E-1
2.205744539E0,-5.648759604E-1,2.217063755E-1,5.124979615E-1
2.208260164E0,-6.298409700E-1,3.612213731E-1,4.656379819E-1
2.210775789E0,-7.054559588E-1,5.124513507E-1,4.347529709E-1
2.213291414E0,-7.863959670E-1,6.636813879E-1,4.091929793E-1
2.215807091E0,-8.715959787E-1,8.053263426E-1,3.878929913E-1
2.218322716E0,-9.557309747E-1,9.405813813E-1,3.751129806E-1
2.220838341E0,-1.037735939E0,1.055601478E0,3.719179928E-1
2.223353966E0,-1.120805979E0,1.140801430E0,3.708529770E-1
2.225869591E0,-1.198550940E0,1.195116401E0,3.751129806E-1
2.228385268E0,-1.272035956E0,1.219611406E0,3.846979737E-1
2.230900893E0,-1.344455957E0,1.203636408E0,3.878929913E-1
2.233645581E0,-1.412616014E0,1.152516365E0,3.921529949E-1
2.236161206E0,-1.460541010E0,1.071576476E0,3.932179809E-1
2.238676831E0,-1.489295959E0,9.586863518E-1,3.889579773E-1
2.241192456E0,-1.507400990E0,8.042613864E-1,3.772429824E-1
2.243708081E0,-1.503140926E0,6.253413558E-1,3.623329699E-1
2.246223758E0,-1.469061017E0,4.176663756E-1,3.357079923E-1
2.248739383E0,-1.414745927E0,1.705863774E-1,3.037579954E-1
2.251255008E0,-1.338065982E0,-1.158986241E-1,2.622229755E-1
2.253770633E0,-1.250735998E0,-4.396586418E-1,2.164279670E-1
2.256286258E0,-1.166600943E0,-7.900436521E-1,1.727629602E-1
2.258801935E0,-1.086725950E0,-1.126583576E0,1.195129678E-1
2.261317560E0,-1.001525998E0,-1.418393612E0,6.732796878E-2
2.264059175E0,-9.120659828E-1,-1.658018589E0,1.620796882E-2
2.266574800E0,-8.321909904E-1,-1.862498522E0,-3.810703009E-2
2.269090425E0,-7.608360052E-1,-2.047808647E0,-8.603203297E-2
2.271606050E0,-7.097159624E-1,-2.220338583E0,-1.254370362E-1
2.274121675E0,-6.820259690E-1,-2.404583693E0,-1.541920304E-1
2.276637352E0,-6.724410057E-1,-2.557943583E0,-1.840120405E-1
2.279152977E0,-6.617909670E-1,-2.645273685E0,-2.170270383E-1
2.281668602E0,-6.522060037E-1,-2.685743570E0,-2.457820326E-1
2.284184227E0,-6.404909492E-1,-2.683613539E0,-2.787970304E-1
2.286699852E0,-6.298409700E-1,-2.656988621E0,-3.064870238E-1
2.289215529E0,-6.245159507E-1,-2.614388466E0,-3.288520277E-1
2.291731154E0,-6.202559471E-1,-2.553683519E0,-3.512170315E-1
2.294481258E0,-6.191909909E-1,-2.462093592E0,-3.746470213E-1
2.296996883E0,-6.191909909E-1,-2.347073555E0,-3.980770111E-1
2.299512508E0,-6.234509945E-1,-2.204363585E0,-4.257670045E-1
2.302028133E0,-6.319710016E-1,-2.033963680E0,-4.577170312E-1
2.304543758E0,-6.479460001E-1,-1.855043530E0,-4.886020124E-1
2.307059435E0,-6.713759899E-1,-1.671863556E0,-5.216170549E-1
2.309575060E0,-6.980009675E-1,-1.484423637E0,-5.493070483E-1
2.312090685E0,-7.331459522E-1,-1.301243544E0,-5.823220611E-1
2.314606310E0,-7.736159563E-1,-1.124453545E0,-6.164020300E-1
2.317121935E0,-8.194109797E-1,-9.615086317E-1,-6.536770463E-1
2.319637612E0,-8.630759716E-1,-8.113436103E-1,-6.941470504E-1
2.322153237E0,-9.046109915E-1,-6.856736541E-1,-7.346170545E-1
2.324895268E0,-9.461459517E-1,-5.855636597E-1,-7.686970234E-1
2.327410893E0,-9.834209681E-1,-5.195336342E-1,-7.931920290E-1
2.329926518E0,-1.015370965E0,-4.929086268E-1,-8.123620749E-1
2.332442143E0,-1.048385978E0,-5.056886673E-1,-8.219470382E-1
2.334957768E0,-1.078205943E0,-5.557436347E-1,-8.230120540E-1
2.337473393E0,-1.104830980E0,-6.430736184E-1,-8.134270310E-1
2.339989070E0,-1.129325986E0,-7.708736658E-1,-7.931920290E-1
2.342504695E0,-1.154886007E0,-9.295586348E-1,-7.612420321E-1
2.345020320E0,-1.172990918E0,-1.110608578E0,-7.175770402E-1
2.347535945E0,-1.195356011E0,-1.296983600E0,-6.611320376E-1
2.350051623E0,-1.215590954E0,-1.486553550E0,-5.844520330E-1
2.352567248E0,-1.235826015E0,-1.677188635E0,-4.800820053E-1
2.355307300E0,-1.254995942E0,-1.847588539E0,-3.490870297E-1
2.357822925E0,-1.274165988E0,-1.997753620E0,-1.967920363E-1
2.360338550E0,-1.282685995E0,-2.125553608E0,-2.532703057E-2
2.362854175E0,-1.286945939E0,-2.228858471E0,1.631779671E-1
2.365369800E0,-1.279490948E0,-2.310863495E0,3.612679839E-1
2.367885477E0,-1.257125974E0,-2.366243601E0,5.433829427E-1
2.370401102E0,-1.235826015E0,-2.393933535E0,6.967429519E-1
2.372916727E0,-1.235826015E0,-2.426948547E0,8.298679590E-1
2.375432352E0,-1.251801014E0,-2.426948547E0,9.480829239E-1
2.377947977E0,-1.273100972E0,-2.381153584E0,1.057778001E0
2.380463654E0,-1.302920938E0,-2.317253590E0,1.164278030E0
2.382979227E0,-1.337000966E0,-2.228858471E0,1.268648028E0
2.385723758E0,-1.382795930E0,-2.113838673E0,1.365563035E0
2.388239383E0,-1.428591013E0,-1.960478544E0,1.455023050E0
2.390755008E0,-1.465865970E0,-1.761323571E0,1.535963058E0
2.393270633E0,-1.505270958E0,-1.534478545E0,1.592408061E0
2.395786258E0,-1.537220955E0,-1.267163634E0,1.617967963E0
2.398301883E0,-1.567040920E0,-9.647036195E-1,1.614773035E0
2.400817560E0,-1.589406013E0,-6.654386520E-1,1.589213014E0
2.403333185E0,-1.605381012E0,-3.501986265E-1,1.540223002E0
2.405848810E0,-1.622421026E0,-1.472362503E-2,1.469933033E0
2.408364435E0,-1.628811002E0,3.175563514E-1,1.394317985E0
2.410880112E0,-1.632005930E0,6.487713456E-1,1.306988001E0
2.413395737E0,-1.634135962E0,9.586863518E-1,1.224982977E0
2.416132612E0,-1.632005930E0,1.179141402E0,1.154693007E0
2.418648237E0,-1.638396025E0,1.318656445E0,1.099313021E0
2.421163862E0,-1.657565951E0,1.441131473E0,1.058843017E0
2.423679487E0,-1.683125973E0,1.541241407E0,1.040737987E0
2.426195112E0,-1.701231003E0,1.599816442E0,1.033282995E0
2.428710789E0,-1.705490947E0,1.598751426E0,1.041803002E0
2.431226414E0,-1.694841027E0,1.515681386E0,1.054582953E0
2.433742039E0,-1.682060957E0,1.393206477E0,1.073752999E0
2.436257664E0,-1.677801013E0,1.232391477E0,1.086533070E0
2.438773289E0,-1.679930925E0,1.058796406E0,1.096117973E0
2.441288966E0,-1.673540950E0,8.628363609E-1,1.090793014E0
2.443804591E0,-1.653306007E0,6.445113420E-1,1.073752999E0
2.446544227E0,-1.623485923E0,4.251213670E-1,1.050323009E0
2.449059852E0,-1.592600942E0,1.727163792E-1,1.009853005E0
2.451575477E0,-1.557456017E0,-1.063136235E-1,9.736429453E-1
2.454091102E0,-1.519115925E0,-3.778886497E-1,9.342379570E-1
2.456606727E0,-1.469061017E0,-6.132536530E-1,8.852479458E-1
2.459122404E0,-1.423265934E0,-8.092136383E-1,8.234779239E-1
2.461638029E0,-1.378535986E0,-9.647036195E-1,7.542529702E-1
2.464153654E0,-1.332741022E0,-1.076528549E0,6.807679534E-1
2.466669279E0,-1.295465946E0,-1.146818638E0,6.019579768E-1
2.469184904E0,-1.265645981E0,-1.178768635E0,5.188879371E-1
2.471700581E0,-1.243281007E0,-1.168118596E0,4.400779903E-1
2.474216206E0,-1.229435921E0,-1.118063569E0,3.687229753E-1
2.476959331E0,-1.212396026E0,-1.039253592E0,3.026929796E-1
2.479474956E0,-1.192160964E0,-9.434036613E-1,2.526379824E-1
2.481990581E0,-1.161275983E0,-8.400986195E-1,2.089729607E-1
2.484506206E0,-1.118675947E0,-7.240136266E-1,1.599829644E-1
2.487021831E0,-1.069685936E0,-6.057986617E-1,9.714796394E-2
2.489537508E0,-1.015370965E0,-4.822586477E-1,3.218296915E-2
2.492053133E0,-9.514709711E-1,-3.683036268E-1,-3.597703204E-2
2.494568758E0,-8.854410052E-1,-2.405036241E-1,-1.094620377E-1
2.497084383E0,-8.183459640E-1,-1.254836172E-1,-1.850770414E-1
2.499600008E0,-7.629659772E-1,-3.282862157E-2,-2.606920302E-1
2.502115685E0,-7.107809782E-1,3.959137574E-2,-3.352420330E-1
2.504631310E0,-6.575309634E-1,6.621637940E-2,-4.023370147E-1
2.507371987E0,-6.159960032E-1,6.195637584E-2,-4.534570277E-1
2.509887612E0,-5.893709660E-1,-1.259362511E-2,-5.013820529E-1
2.512403237E0,-5.595510006E-1,-1.244186163E-1,-5.556970239E-1
2.514918862E0,-5.339909792E-1,-2.394386232E-1,-5.908420682E-1
2.517434487E0,-5.201459527E-1,-3.714986444E-1,-6.100120544E-1
2.519950164E0,-5.041710138E-1,-4.961036444E-1,-6.185320616E-1
2.522465789E0,-4.881960154E-1,-6.121886373E-1,-6.132070422E-1
2.524981414E0,-4.732860029E-1,-7.240136266E-1,-5.908420682E-1
2.527497039E0,-4.519860148E-1,-8.379686475E-1,-5.631520748E-1
2.530012664E0,-4.242959917E-1,-9.402086139E-1,-5.258770585E-1
2.532528341E0,-3.870210052E-1,-1.023278594E0,-4.832770228E-1
2.535043966E0,-3.433560133E-1,-1.087178588E0,-4.438720047E-1
2.537791623E0,-2.847810090E-1,-1.134038568E0,-4.076620340E-1
2.540307248E0,-2.102310061E-1,-1.159598589E0,-3.767770231E-1
2.542822873E0,-1.218359992E-1,-1.164923549E0,-3.544120193E-1
2.545338498E0,-3.450600058E-2,-1.162793636E0,-3.533470333E-1
2.547854123E0,6.240899861E-2,-1.167053580E0,-3.821020126E-1
2.550369800E0,1.667789966E-1,-1.184093595E0,-4.300270081E-1
2.552885425E0,2.647590041E-1,-1.212848544E0,-4.822120070E-1
2.555401050E0,3.563489914E-1,-1.238408566E0,-5.258770585E-1
2.557916675E0,4.447439909E-1,-1.252253532E0,-5.514370203E-1
2.560432300E0,5.299440026E-1,-1.259708524E0,-5.684770346E-1
2.562947977E0,6.076890230E-1,-1.252253532E0,-5.823220611E-1
2.565463602E0,6.758490205E-1,-1.214978576E0,-5.982970595E-1
2.568204279E0,7.386839986E-1,-1.140428543E0,-6.206620336E-1
2.570719904E0,7.908689976E-1,-1.029668570E0,-6.504820585E-1
2.573235529E0,8.398590088E-1,-8.709836602E-1,-6.739120483E-1
2.575751154E0,8.888490200E-1,-6.856736541E-1,-6.941470504E-1
2.578266779E0,9.229290485E-1,-4.907786250E-1,-7.143820524E-1
2.580782456E0,9.495540261E-1,-2.767136395E-1,-7.271620631E-1
2.583298081E0,9.697890282E-1,-5.199862272E-2,-7.282270789E-1
2.585813706E0,9.783090353E-1,1.588713825E-1,-7.111870646E-1
2.588329331E0,9.772440195E-1,3.601563573E-1,-6.803020239E-1
2.590844956E0,9.900240302E-1,5.806113482E-1,-6.377020478E-1
2.593360633E0,1.005998969E0,7.904163599E-1,-5.919070244E-1
2.595876258E0,1.031558990E0,9.991563559E-1,-5.493070483E-1
2.598619383E0,1.051794052E0,1.208961368E0,-4.971220195E-1
2.601135008E0,1.060314059E0,1.411311388E0,-4.428070188E-1
2.603650633E0,1.075224042E0,1.615791440E0,-3.874270320E-1
2.606166258E0,1.085874081E0,1.813881397E0,-3.299170136E-1
2.608681883E0,1.091199040E0,2.001321316E0,-2.702770233E-1
2.611197508E0,1.101849079E0,2.177046537E0,-2.180920392E-1
2.613713185E0,1.127408981E0,2.357031345E0,-1.584520340E-1
2.616228810E0,1.158294082E0,2.519976377E0,-1.020070314E-1
2.618744435E0,1.195569038E0,2.653101444E0,-4.556202888E-2
2.621260060E0,1.239233971E0,2.761731386E0,5.557969213E-3
2.623775685E0,1.288223982E0,2.859711409E0,5.135297030E-2
2.626291310E0,1.335084081E0,2.935326338E0,9.395296872E-2
2.629030998E0,1.367034078E0,2.997096539E0,1.333579719E-1
2.631546623E0,1.381944060E0,3.060996532E0,1.663729697E-1
2.634062248E0,1.389399052E0,3.135546446E0,1.972579658E-1
2.636577873E0,1.384073973E0,3.204771519E0,2.260129601E-1
2.639093498E0,1.364904046E0,3.262281418E0,2.568979859E-1
2.641609175E0,1.341474056E0,3.321921349E0,2.803279757E-1
2.644124800E0,1.320173979E0,3.390081406E0,3.058879673E-1
2.646640425E0,1.295678973E0,3.461436510E0,3.335779905E-1
2.649156050E0,1.272248983E0,3.524271488E0,3.570079803E-1
2.651671675E0,1.243494034E0,3.580716372E0,3.900229931E-1
2.654187352E0,1.209414005E0,3.619056463E0,4.315579832E-1
2.656702977E0,1.181724072E0,3.639291525E0,4.805479944E-1
2.659445216E0,1.159358978E0,3.641421318E0,5.337979794E-1
2.661960841E0,1.142319083E0,3.616926432E0,5.923729539E-1
2.664476466E0,1.128473997E0,3.576456308E0,6.594679356E-1
2.666992091E0,1.121019006E0,3.521076441E0,7.318879366E-1
2.669507716E0,1.114629030E0,3.471021414E0,8.053729534E-1
2.672023393E0,1.086938977E0,3.452916384E0,8.756629229E-1
2.674539018E0,1.064574003E0,3.366651535E0,9.470179677E-1
2.677054643E0,1.044339061E0,3.214356422E0,1.019438028E0
2.679570268E0,1.025169015E0,3.041826487E0,1.093988061E0
2.682085893E0,1.002804041E0,2.870361328E0,1.149368048E0
2.684601570E0,9.729840159E-1,2.738301516E0,1.175992966E0
2.687117195E0,9.176040292E-1,2.614761353E0,1.188773036E0
2.689860529E0,8.590289950E-1,2.440101385E0,1.187708020E0
2.692376154E0,7.770240307E-1,2.242011309E0,1.180253029E0
2.694891779E0,6.864989996E-1,2.020491362E0,1.161082983E0
2.697407404E0,5.895840526E-1,1.797906399E0,1.127002954E0
2.699923029E0,4.969290197E-1,1.574256420E0,1.079077959E0
2.702438706E0,4.010789990E-1,1.342086434E0,1.017307997E0
2.704954331E0,3.116189837E-1,1.115241408E0,9.438229799E-1
2.707469956E0,2.274839878E-1,8.937213421E-1,8.532979488E-1
2.709985581E0,1.625189930E-1,6.839163899E-1,7.457329631E-1
2.712501206E0,1.103340015E-1,4.932813644E-1,6.264529228E-1
2.715016883E0,8.051399887E-2,3.111663759E-1,5.061079264E-1
2.717532508E0,6.773400307E-2,1.279863715E-1,3.804379702E-1
2.720276727E0,6.666900218E-2,-5.519362167E-2,2.611579895E-1
2.722792352E0,6.986400485E-2,-2.181386203E-1,1.397479624E-1
2.725307977E0,5.921400338E-2,-3.320936263E-1,2.366296947E-2
2.727823602E0,5.388900265E-2,-4.513736367E-1,-7.964203507E-2
2.730339227E0,4.323900118E-2,-5.685236454E-1,-1.691020280E-1
2.732854904E0,3.045899980E-2,-6.867386103E-1,-2.372620404E-1
2.735370529E0,1.767900027E-2,-8.017586470E-1,-2.851870060E-1
2.737886154E0,-1.490999945E-3,-9.071936607E-1,-3.224620223E-1
2.740401779E0,-1.959599927E-2,-1.016888618E0,-3.501520157E-1
2.742917404E0,-3.983099759E-2,-1.129778624E0,-3.650620282E-1
2.745433081E0,-4.835099727E-2,-1.254383564E0,-3.746470213E-1
2.747948706E0,-5.580599979E-2,-1.360883594E0,-3.821020126E-1
2.750691414E0,-5.687099695E-2,-1.443953633E0,-3.948820233E-1
2.753207039E0,-6.539100409E-2,-1.435433626E0,-4.161820114E-1
2.755722664E0,-7.071600109E-2,-1.433303595E0,-4.417420328E-1
2.758238289E0,-6.858599931E-2,-1.498268604E0,-4.651720226E-1
2.760753914E0,-6.326100230E-2,-1.568558574E0,-4.843420088E-1
2.763269591E0,-5.687099695E-2,-1.620743632E0,-5.056420565E-1
2.765785216E0,-4.302600026E-2,-1.655888557E0,-5.354620218E-1
2.768300841E0,-2.598600090E-2,-1.663343549E0,-5.780620575E-1
2.770816466E0,-1.533599943E-2,-1.664408565E0,-6.270520687E-1
2.773332091E0,-4.685999826E-3,-1.672928572E0,-6.824320555E-1
2.775847768E0,1.128900051E-2,-1.694228530E0,-7.378120422E-1
2.778363393E0,3.365400061E-2,-1.740023613E0,-7.846720219E-1
2.781104487E0,5.388900265E-2,-1.803923607E0,-8.325970769E-1
2.783620112E0,7.625400275E-2,-1.883798599E0,-8.762620687E-1
2.786135737E0,1.060739979E-1,-1.986038566E0,-9.114070535E-1
2.788651362E0,1.401539892E-1,-2.112773657E0,-9.497470260E-1
2.791166987E0,1.752989888E-1,-2.270393610E0,-9.806320667E-1
2.793682664E0,2.115089893E-1,-2.454638481E0,-1.001932025E0
2.796198289E0,2.466540039E-1,-2.664443493E0,-1.006191969E0
2.798713914E0,2.754089832E-1,-2.898743629E0,-9.880870581E-1
2.801229539E0,2.956439853E-1,-3.138368607E0,-9.380320311E-1
2.803745164E0,3.094889820E-1,-3.389708519E0,-8.602870703E-1
2.806260841E0,3.180089891E-1,-3.649568558E0,-7.473970652E-1
2.808776466E0,3.275939822E-1,-3.901973486E0,-5.972320437E-1
2.811526883E0,3.329190016E-1,-4.137338638E0,-4.215070307E-1
2.814042508E0,3.222689927E-1,-4.337558746E0,-2.383270413E-1
2.816558133E0,2.988390028E-1,-4.510088921E0,-4.982202873E-2
2.819073758E0,2.498489916E-1,-4.640018940E0,1.482679695E-1
2.821589383E0,1.806239933E-1,-4.715633869E0,3.527479768E-1
2.824105060E0,9.009899944E-2,-4.740128994E0,5.540329218E-1
2.826620685E0,-7.880999707E-3,-4.718828678E0,7.563829422E-1
2.829136310E0,-1.079909950E-1,-4.643213749E0,9.683179259E-1
2.831651935E0,-2.017109990E-1,-4.516479015E0,1.184512973E0
2.834167560E0,-2.815859914E-1,-4.352468967E0,1.379408002E0
2.836683237E0,-3.529410064E-1,-4.138403893E0,1.556198001E0
2.839198862E0,-4.147109985E-1,-3.867893696E0,1.703168035E0
2.841970998E0,-4.615710080E-1,-3.523898602E0,1.814993024E0
2.844486675E0,-4.796760082E-1,-3.117068529E0,1.901257992E0
2.847002300E0,-4.594410062E-1,-2.668703556E0,1.964092970E0
2.849517925E0,-3.998010159E-1,-2.185193539E0,2.005628109E0
2.852033550E0,-3.060809970E-1,-1.688903570E0,2.027992964E0
2.854549175E0,-1.836059988E-1,-1.186223626E0,2.042902946E0
2.857064852E0,-3.557099774E-2,-6.878036261E-1,2.050358057E0
2.859580477E0,1.348289996E-1,-2.042936236E-1,2.045032978E0
2.862096102E0,3.148140013E-1,2.685663700E-1,2.026927948E0
2.864611727E0,5.001240373E-1,7.211913466E-1,2.004563093E0
2.867127352E0,6.737190485E-1,1.136541367E0,1.975808024E0
2.869642977E0,8.324040174E-1,1.506096363E0,1.950248003E0
2.872349591E0,9.836339951E-1,1.827726364E0,1.934273005E0
2.874865216E0,1.113564014E0,2.088651419E0,1.923622966E0
2.877380841E0,1.212609053E0,2.308041334E0,1.906582952E0
2.879896466E0,1.283964038E0,2.491221428E0,1.881023049E0
2.882412091E0,1.327628970E0,2.654166460E0,1.853332996E0
2.884927768E0,1.344668984E0,2.737236500E0,1.826707959E0
2.887443393E0,1.347864032E0,2.760666370E0,1.795822978E0
2.889959018E0,1.343603969E0,2.775576353E0,1.752158046E0
2.892474643E0,1.328693986E0,2.711676359E0,1.701038003E0
2.894990268E0,1.298874021E0,2.594526529E0,1.654178023E0
2.897505945E0,1.261599064E0,2.482701540E0,1.592408061E0
2.900021570E0,1.206219077E0,2.284611464E0,1.531702995E0
2.902764643E0,1.139124036E0,2.048181534E0,1.492298007E0
2.905280268E0,1.066704035E0,1.855416417E0,1.424138069E0
2.907795893E0,9.857640266E-1,1.626441479E0,1.347458005E0
2.910311518E0,8.952389956E-1,1.380426407E0,1.299533010E0
2.912827143E0,8.036490083E-1,1.158906460E0,1.247347951E0
2.915342820E0,7.109940052E-1,9.182163477E-1,1.175992966E0
2.917858445E0,6.204690337E-1,7.179963589E-1,1.102508068E0
2.920374070E0,5.203590393E-1,6.146913767E-1,1.004528046E0
2.922889695E0,4.308989942E-1,5.305563807E-1,8.905729651E-1
2.925405320E0,3.595439792E-1,4.581363499E-1,7.776829600E-1
2.927920998E0,3.030990064E-1,3.771963716E-1,6.765079498E-1
2.930436623E0,2.509140074E-1,2.568513751E-1,6.126079559E-1
2.933178602E0,1.965989918E-1,1.407663822E-1,5.966329575E-1
2.935694227E0,1.358940005E-1,3.852637485E-2,6.072829366E-1
2.938209852E0,6.453900039E-2,-4.773862287E-2,6.360379457E-1
2.940725477E0,-2.598600090E-2,-1.148336232E-1,6.733129621E-1
2.943241102E0,-1.250310093E-1,-1.553036273E-1,7.063279748E-1
2.945756779E0,-2.240760028E-1,-1.744736284E-1,7.265629768E-1
2.948272404E0,-3.188610077E-1,-1.829936206E-1,7.308229804E-1
2.950788029E0,-4.019310176E-1,-2.010986209E-1,7.276279330E-1
2.953303654E0,-4.754160047E-1,-2.287886292E-1,7.159129381E-1
2.955819279E0,-5.393159986E-1,-2.703236341E-1,6.924829483E-1
2.958334956E0,-5.989559889E-1,-3.235736489E-1,6.605329514E-1
2.960850581E0,-6.511409879E-1,-3.970586360E-1,6.126079559E-1
2.963596831E0,-7.043910027E-1,-5.024936199E-1,5.508379340E-1
2.966112456E0,-7.661609650E-1,-6.388136148E-1,4.762879908E-1
2.968628081E0,-8.471009731E-1,-7.921736240E-1,3.889579773E-1
2.971143706E0,-9.525359869E-1,-9.572486281E-1,3.090829849E-1
2.973659331E0,-1.075011015E0,-1.131908536E0,2.217529714E-1
2.976175008E0,-1.206005931E0,-1.319348574E0,1.322929710E-1
2.978690633E0,-1.339130998E0,-1.516373634E0,4.389796779E-2
2.981206258E0,-1.476516008E0,-1.734698534E0,-4.556202888E-2
2.983721883E0,-1.616030931E0,-1.970063567E0,-1.392820328E-1
2.986237508E0,-1.759805918E0,-2.215013504E0,-2.330020368E-1
2.988753185E0,-1.896126032E0,-2.465288639E0,-3.213970065E-1
2.991268810E0,-2.030316114E0,-2.681483507E0,-4.172470272E-1
2.994006362E0,-2.166635990E0,-2.816738605E0,-5.258770585E-1
2.996521987E0,-2.299761057E0,-2.928563595E0,-5.833870769E-1
2.999037612E0,-2.425431013E0,-3.029738665E0,-5.982970595E-1
3.001553237E0,-2.538321018E0,-3.102158546E0,-5.865820646E-1
3.004068862E0,-2.628846169E0,-3.149018526E0,-5.503720641E-1
3.006584539E0,-2.697005987E0,-3.161798477E0,-4.907320142E-1
3.009100164E0,-2.740671158E0,-3.133043528E0,-4.172470272E-1
3.011615789E0,-2.756646156E0,-3.103223562E0,-3.160720170E-1
3.014131414E0,-2.743866205E0,-3.077663660E0,-1.797520369E-1
3.016647039E0,-2.699136019E0,-3.035063505E0,-3.171703219E-2
3.019162716E0,-2.634171009E0,-2.977553606E0,1.248379648E-1
3.021678341E0,-2.546841145E0,-2.893418550E0,2.920429707E-1
3.024457612E0,-2.437146187E0,-2.768813610E0,4.635079801E-1
3.026973289E0,-2.313606024E0,-2.609063625E0,6.413629651E-1
3.029488914E0,-2.177286148E0,-2.416298628E0,8.298679590E-1
3.032004539E0,-2.021795988E0,-2.206493616E0,1.018373013E0
3.034520164E0,-1.840745926E0,-2.004143476E0,1.224982977E0
3.037035789E0,-1.640525937E0,-1.831613541E0,1.450762987E0
3.039551466E0,-1.439240932E0,-1.665473580E0,1.678673029E0
3.042067091E0,-1.249670982E0,-1.468448520E0,1.890607953E0
3.044582716E0,-1.080335975E0,-1.247993588E0,2.097218037E0
3.047098341E0,-9.184559584E-1,-9.881336093E-1,2.291048050E0
3.049613966E0,-7.757459879E-1,-6.824786663E-1,2.471033096E0
3.052129591E0,-6.404909492E-1,-3.480686247E-1,2.637172937E0
3.054836727E0,-5.201459527E-1,-5.138625391E-3,2.790533066E0
3.057352352E0,-4.136460125E-1,3.164913654E-1,2.921528101E0
3.059867977E0,-3.188610077E-1,5.816763639E-1,3.029093027E0
3.062383602E0,-2.315310091E-1,7.680513859E-1,3.104707956E0
3.064899227E0,-1.569810063E-1,8.915913701E-1,3.148373127E0
3.067414904E0,-9.308099747E-2,9.395163655E-1,3.174998045E0
3.069930529E0,-4.622099921E-2,9.214113355E-1,3.190973043E0
3.072446154E0,-1.640100032E-2,8.426013589E-1,3.193103075E0
3.074961779E0,-6.815999746E-3,7.446213365E-1,3.168607950E0
3.077477404E0,-1.001100056E-2,6.349263787E-1,3.138787985E0
3.079993081E0,-3.237599880E-2,5.167113543E-1,3.104707956E0
3.082508706E0,-6.645599753E-2,4.038213491E-1,3.066368103E0
3.085250008E0,-1.133159995E-1,2.941263616E-1,3.009922981E0
3.087765633E0,-1.697610021E-1,1.876263767E-1,2.949218035E0
3.090281258E0,-2.389860004E-1,8.006137609E-2,2.897032976E0
3.092796883E0,-3.103410006E-1,-2.217862569E-2,2.839523077E0
3.095312508E0,-3.816960156E-1,-1.127036214E-1,2.782012939E0
3.097828133E0,-4.487909973E-1,-1.893836260E-1,2.717047930E0
3.100343810E0,-5.169509649E-1,-2.330486178E-1,2.640367985E0
3.102859435E0,-5.787209868E-1,-2.500886321E-1,2.555167913E0
3.105375060E0,-6.298409700E-1,-2.511536479E-1,2.459317923E0
3.107890685E0,-6.660509706E-1,-2.309186161E-1,2.352818012E0
3.110406362E0,-6.926759481E-1,-1.861886233E-1,2.233537912E0
3.112921987E0,-7.011959553E-1,-1.286786199E-1,2.102543116E0
3.115666154E0,-6.969359517E-1,-6.051862240E-2,1.970483065E0
3.118181779E0,-6.830909848E-1,7.641375065E-3,1.845878005E0
3.120697404E0,-6.607259512E-1,7.473637909E-2,1.722337961E0
3.123213029E0,-6.330359578E-1,1.439613700E-1,1.606253028E0
3.125728654E0,-6.032159925E-1,2.057313770E-1,1.499752998E0
3.128244331E0,-5.808509588E-1,2.664363682E-1,1.397513032E0
3.130759956E0,-5.595510006E-1,3.377913535E-1,1.306988001E0
3.133275581E0,-5.510309935E-1,4.091463685E-1,1.229243040E0
3.135791206E0,-5.446409583E-1,4.655913711E-1,1.163213015E0
3.138306831E0,-5.435760021E-1,5.124513507E-1,1.107833028E0
3.140822508E0,-5.403809547E-1,5.369463563E-1,1.055647969E0
3.143338133E0,-5.446409583E-1,5.188413858E-1,1.003463030E0
3.146079070E0,-5.489009619E-1,4.709163606E-1,9.566029310E-1
3.148594695E0,-5.542259812E-1,4.112763703E-1,9.086779356E-1
3.151110320E0,-5.574209690E-1,3.463113606E-1,8.607529402E-1
3.153625945E0,-5.520959496E-1,2.792163491E-1,8.064379692E-1
3.156141570E0,-5.542259812E-1,2.227713764E-1,7.425379753E-1
3.158657248E0,-5.520959496E-1,1.727163792E-1,6.722479463E-1
3.161172873E0,-5.489009619E-1,1.482213736E-1,5.976979733E-1
3.163688498E0,-5.467709899E-1,1.365063787E-1,5.114329457E-1
3.166204123E0,-5.435760021E-1,1.471563727E-1,4.241029918E-1
3.168719748E0,-5.339909792E-1,1.737813801E-1,3.452929854E-1
3.171235425E0,-5.180159807E-1,1.961463839E-1,2.792629898E-1
3.173751050E0,-4.945860207E-1,2.163813710E-1,2.377279699E-1
3.176496050E0,-4.562460184E-1,2.419413775E-1,2.174929678E-1
3.179011675E0,-4.029960036E-1,2.643063664E-1,2.185579687E-1
3.181527300E0,-3.380309939E-1,2.866713703E-1,2.249479592E-1
3.184042925E0,-2.645460069E-1,3.186213672E-1,2.366629690E-1
3.186558550E0,-1.868010014E-1,3.558963537E-1,2.419879586E-1
3.189074227E0,-1.122509986E-1,3.878463507E-1,2.451829612E-1
3.191589852E0,-3.131099790E-2,4.347063601E-1,2.579629719E-1
3.194105477E0,5.708400160E-2,4.719813764E-1,2.771329880E-1
3.196621102E0,1.518689990E-1,4.868913591E-1,2.941729724E-1
3.199136727E0,2.455889881E-1,4.954113662E-1,3.069529831E-1
3.201652404E0,3.425039947E-1,5.156463385E-1,3.176029921E-1
3.204168029E0,4.372889996E-1,5.380113721E-1,3.197329938E-1
3.206911623E0,5.299440026E-1,5.603763461E-1,3.218629658E-1
3.209427248E0,6.194040179E-1,5.944563746E-1,3.197329938E-1
3.211942873E0,6.971490383E-1,6.285363436E-1,3.144079745E-1
3.214458498E0,7.780890465E-1,6.519663334E-1,3.197329938E-1
3.216974123E0,8.622240424E-1,6.764613390E-1,3.207979798E-1
3.219489800E0,9.474239945E-1,7.030863762E-1,3.229279816E-1
3.222005425E0,1.051794052E0,6.966963410E-1,3.346429765E-1
3.224521050E0,1.157229066E0,6.796563864E-1,3.463579714E-1
3.227036675E0,1.243494034E0,7.052163482E-1,3.495529890E-1
3.229552300E0,1.321238995E0,7.105413675E-1,3.548779786E-1
3.232067977E0,1.407504082E0,7.020213604E-1,3.612679839E-1
3.234583602E0,1.498028994E0,7.052163482E-1,3.452929854E-1
3.237326050E0,1.608788967E0,6.775263548E-1,3.165379763E-1
3.239841675E0,1.751499057E0,6.008463502E-1,2.920429707E-1
3.242357300E0,1.933614016E0,4.730463624E-1,2.824579775E-1
3.244872925E0,2.143418789E0,3.250113726E-1,2.750029862E-1
3.247388550E0,2.341508865E0,2.653713524E-1,2.515729666E-1
3.249904227E0,2.479959011E0,3.324663639E-1,2.068429589E-1
3.252419852E0,2.545988798E0,4.762413502E-1,1.472029686E-1
3.254935477E0,2.541728973E0,6.594213843E-1,7.265296578E-2
3.257451102E0,2.486348867E0,8.244963884E-1,8.752969094E-3
3.259966727E0,2.391563892E0,9.554913640E-1,-3.491203114E-2
3.262482404E0,2.260568857E0,1.059861422E0,-5.514702946E-2
3.264998029E0,2.104013920E0,1.128021479E0,-5.088702962E-2
3.267738185E0,1.932549000E0,1.152516365E0,-3.065203130E-2
3.270253810E0,1.754693985E0,1.137606382E0,1.297969138E-3
3.272769435E0,1.571514010E0,1.093941450E0,3.005297109E-2
3.275285060E0,1.396854043E0,1.040691376E0,5.454796925E-2
3.277800685E0,1.229649067E0,9.799863696E-1,8.436796814E-2
3.280316362E0,1.063508987E0,9.128913879E-1,1.195129678E-1
3.282831987E0,9.037590027E-1,8.362113833E-1,1.546579599E-1
3.285347612E0,7.578540444E-1,7.488813400E-1,1.919329613E-1
3.287863237E0,6.225990057E-1,6.615513563E-1,2.324029654E-1
3.290378862E0,5.001240373E-1,5.710263848E-1,2.707429826E-1
3.292894539E0,3.914940059E-1,4.900863469E-1,3.016279936E-1
3.295410164E0,2.977739871E-1,4.357713759E-1,3.229279816E-1
3.298184070E0,2.104439884E-1,4.155363739E-1,3.239929676E-1
3.300699748E0,1.209839955E-1,4.229913652E-1,3.048229814E-1
3.303215373E0,2.619899996E-2,4.506813586E-1,2.771329880E-1
3.305730998E0,-7.497599721E-2,4.975413680E-1,2.419879586E-1
3.308246623E0,-1.921260059E-1,5.465313792E-1,2.025829703E-1
3.310762300E0,-3.199259937E-1,5.901963711E-1,1.663729697E-1
3.313277925E0,-4.562460184E-1,6.168213487E-1,1.365529597E-1
3.315793550E0,-6.064109802E-1,6.136263609E-1,1.109929681E-1
3.318309175E0,-7.693559527E-1,5.774163604E-1,9.501796216E-2
3.320824800E0,-9.365609884E-1,4.954113662E-1,8.756296337E-2
3.323340477E0,-1.111220956E0,3.782613575E-1,8.649796247E-2
3.325856102E0,-1.299726009E0,2.387463748E-1,8.969296515E-2
3.328567873E0,-1.495685935E0,6.941137463E-2,9.501796216E-2
3.331083498E0,-1.696970940E0,-1.254836172E-1,9.182296693E-2
3.333599123E0,-1.898255944E0,-3.246386349E-1,8.862796426E-2
3.336114748E0,-2.098476171E0,-5.216636658E-1,8.010796458E-2
3.338630373E0,-2.293371201E0,-7.091036439E-1,5.880796909E-2
3.341146050E0,-2.475486040E0,-8.571386337E-1,4.070296884E-2
3.343661675E0,-2.636301041E0,-9.753536582E-1,1.620796882E-2
3.346177300E0,-2.764101028E0,-1.083983541E0,-1.041703112E-2
3.348692925E0,-2.858886003E0,-1.180898547E0,-3.810703009E-2
3.351208550E0,-2.919591188E0,-1.251188636E0,-6.686203182E-2
3.353724227E0,-2.945151091E0,-1.291658521E0,-1.052020341E-1
3.356239852E0,-2.931306124E0,-1.289528608E0,-1.467370391E-1
3.358979175E0,-2.886576176E0,-1.244798541E0,-1.872070283E-1
3.361494800E0,-2.813091040E0,-1.153208613E0,-2.308720350E-1
3.364010425E0,-2.711916208E0,-1.027538538E0,-2.724070251E-1
3.366526050E0,-2.575596094E0,-8.763086200E-1,-3.000970185E-1
3.369041675E0,-2.410521030E0,-7.037786245E-1,-3.032920063E-1
3.371557352E0,-2.210301161E0,-5.152736306E-1,-2.692120075E-1
3.374072977E0,-1.978130937E0,-3.203786314E-1,-1.978570372E-1
3.376588602E0,-1.723595977E0,-1.180286258E-1,-8.816203475E-2
3.379104227E0,-1.461606026E0,8.858137578E-2,4.709297046E-2
3.381619852E0,-1.203876019E0,3.101013601E-1,1.898029596E-1
3.384135529E0,-9.642509818E-1,5.603763461E-1,3.314479887E-1
3.386651154E0,-7.565760016E-1,8.191713691E-1,4.571179748E-1
3.389397456E0,-5.829809904E-1,1.083291411E0,5.700079799E-1
3.391913081E0,-4.519860148E-1,1.336761475E0,6.775729656E-1
3.394428706E0,-3.444209993E-1,1.560411453E0,7.702279687E-1
3.396944331E0,-2.496360093E-1,1.746786475E0,8.639479280E-1
3.399460008E0,-1.708260030E-1,1.872456431E0,9.736429453E-1
3.401975633E0,-1.016009971E-1,1.928901434E0,1.073752999E0
3.404491258E0,-3.876599669E-2,1.950201392E0,1.161082983E0
3.407006883E0,1.767900027E-2,1.956591368E0,1.230308056E0
3.409522508E0,6.879900396E-2,1.944876432E0,1.277168036E0
3.412038133E0,1.135290042E-1,1.920381427E0,1.310183048E0
3.414553810E0,1.508039981E-1,1.869261384E0,1.321897984E0
3.417069435E0,1.848839968E-1,1.775541425E0,1.321897984E0
3.419812820E0,2.189639956E-1,1.676496387E0,1.306988001E0
3.422328445E0,2.551739812E-1,1.591296434E0,1.277168036E0
3.424844070E0,2.892539799E-1,1.511421442E0,1.238828063E0
3.427359695E0,3.190740049E-1,1.433676362E0,1.196228027E0
3.429875320E0,3.456989825E-1,1.356996417E0,1.153627992E0
3.432390998E0,3.765839934E-1,1.279251456E0,1.112092972E0
3.434906623E0,4.021439850E-1,1.213221431E0,1.078013062E0
3.437422248E0,4.213140011E-1,1.169556379E0,1.046063066E0
3.439937873E0,4.394190013E-1,1.126956463E0,1.017307997E0
3.442453498E0,4.532639980E-1,1.091811419E0,9.949429631E-1
3.444969175E0,4.617840052E-1,1.073706388E0,9.683179259E-1
3.447484800E0,4.649789929E-1,1.071576476E0,9.470179677E-1
3.450235529E0,4.617840052E-1,1.088616371E0,9.310429692E-1
3.452751154E0,4.500689805E-1,1.122696400E0,9.022879601E-1
3.455266779E0,4.383539855E-1,1.166361451E0,8.692729473E-1
3.457782404E0,4.266389906E-1,1.210026383E0,8.351929784E-1
3.460298029E0,4.127939939E-1,1.231326461E0,7.979179621E-1
3.462813654E0,3.968189955E-1,1.223871469E0,7.691629529E-1
3.465329331E0,3.808439970E-1,1.208961368E0,7.553179264E-1
3.467844956E0,3.499589860E-1,1.212156415E0,7.425379753E-1
3.470360581E0,3.148140013E-1,1.233456373E0,7.201729417E-1
3.472876206E0,2.786040008E-1,1.263276458E0,7.063279748E-1
3.475391883E0,2.498489916E-1,1.304811478E0,7.127179503E-1
3.477907508E0,2.242890000E-1,1.344216466E0,7.191079259E-1
3.480645685E0,1.976639926E-1,1.371906400E0,7.148479223E-1
3.483161310E0,1.731689870E-1,1.377231479E0,7.010029554E-1
3.485676935E0,1.412189901E-1,1.355931401E0,6.860929728E-1
3.488192560E0,1.060739979E-1,1.309071422E0,6.733129621E-1
3.490708185E0,6.560400128E-2,1.223871469E0,6.647929549E-1
3.493223862E0,2.300399914E-2,1.105656385E0,6.637279391E-1
3.495739487E0,-2.066100016E-2,9.821163416E-1,6.562729478E-1
3.498255112E0,-5.687099695E-2,8.798763752E-1,6.520129442E-1
3.500770737E0,-9.095099568E-2,8.031963706E-1,6.413629651E-1
3.503286362E0,-1.122509986E-1,7.510113716E-1,6.349729300E-1
3.505802039E0,-1.207709983E-1,7.222563624E-1,6.307129264E-1
3.508317664E0,-1.122509986E-1,7.201263905E-1,6.253879666E-1
3.511063758E0,-9.308099747E-2,7.435563803E-1,6.200629473E-1
3.513579383E0,-5.900099874E-2,7.904163599E-1,6.158029437E-1
3.516095008E0,-1.533599943E-2,8.500563502E-1,6.168679595E-1
3.518610633E0,3.791400045E-2,9.203463793E-1,6.211279631E-1
3.521126258E0,9.329400212E-2,9.927663803E-1,6.264529228E-1
3.523641935E0,1.561289877E-1,1.050276399E0,6.371029615E-1
3.526157560E0,2.157689929E-1,1.083291411E0,6.466879249E-1
3.528673185E0,2.754089832E-1,1.101396441E0,6.466879249E-1
3.531188810E0,3.339839876E-1,1.096071362E0,6.413629651E-1
3.533704435E0,3.914940059E-1,1.057731390E0,6.253879666E-1
3.536220112E0,4.426139891E-1,9.640113711E-1,6.136729717E-1
3.538735737E0,4.873439968E-1,8.575113416E-1,6.158029437E-1
3.541506050E0,5.363340378E-1,8.372763395E-1,6.008929610E-1
3.544021727E0,5.938439965E-1,9.128913879E-1,5.487079620E-1
3.546537352E0,6.566790342E-1,9.778563380E-1,4.858729839E-1
3.549052977E0,7.152540088E-1,9.672063589E-1,4.230379760E-1
3.551568602E0,7.599840164E-1,9.065013528E-1,3.602029681E-1
3.554084227E0,7.908689976E-1,8.287563324E-1,2.984329760E-1
3.556599904E0,8.111039996E-1,7.510113716E-1,2.430529594E-1
3.559115529E0,8.217540383E-1,6.690063477E-1,1.993879676E-1
3.561631154E0,8.281440139E-1,5.901963711E-1,1.631779671E-1
3.564146779E0,8.366640210E-1,5.231013894E-1,1.418779641E-1
3.566662404E0,8.505090475E-1,4.890213609E-1,1.269679666E-1
3.569178029E0,8.632889986E-1,4.900863469E-1,1.173829660E-1
3.571885685E0,8.856540322E-1,5.262963772E-1,1.077979654E-1
3.574401310E0,9.165390134E-1,6.029763818E-1,1.056679636E-1
3.576916935E0,9.548790455E-1,6.977613568E-1,1.014079675E-1
3.579432560E0,9.953490496E-1,7.797663808E-1,1.035379693E-1
3.581948185E0,1.040078998E0,8.308863640E-1,1.205779687E-1
3.584463862E0,1.078418970E0,8.521863818E-1,1.482679695E-1
3.586979487E0,1.114629030E0,8.670963645E-1,1.802179664E-1
3.589495112E0,1.147644043E0,8.766813874E-1,2.121679634E-1
3.592010737E0,1.178529024E0,8.798763752E-1,2.451829612E-1
3.594526362E0,1.207283974E0,8.873313665E-1,2.792629898E-1
3.597042039E0,1.242429018E0,9.065013528E-1,3.186679780E-1
3.599557664E0,1.276509047E0,9.363213778E-1,3.474229872E-1
3.602304695E0,1.319109082E0,9.757263660E-1,3.602029681E-1
3.604820320E0,1.363839030E0,1.033236384E0,3.676579893E-1
3.607335945E0,1.401113987E0,1.099266410E0,3.708529770E-1
3.609851570E0,1.431998968E0,1.116306424E0,3.665929735E-1
3.612367195E0,1.460754037E0,1.122696400E0,3.474229872E-1
3.614882873E0,1.478859067E0,1.187661409E0,3.314479887E-1
3.617398498E0,1.489508986E0,1.250496387E0,3.346429765E-1
3.619914123E0,1.501224041E0,1.279251456E0,3.357079923E-1
3.622429748E0,1.506549001E0,1.300551414E0,3.314479887E-1
3.624945425E0,1.503354073E0,1.343151450E0,3.122779727E-1
3.627461050E0,1.485249043E0,1.391076446E0,2.771329880E-1
3.629976675E0,1.452234030E0,1.428351402E0,2.249479592E-1
3.632714123E0,1.412829041E0,1.432611465E0,1.578529626E-1
3.635229748E0,1.360643983E0,1.401726365E0,7.797796279E-2
3.637745373E0,1.296743989E0,1.346346378E0,-1.787203178E-2
3.640260998E0,1.228584051E0,1.251561403E0,-1.254370362E-1
3.642776623E0,1.145514011E0,1.122696400E0,-2.276770324E-1
3.645292300E0,1.057119012E0,9.757263660E-1,-3.384370208E-1
3.647807925E0,9.570090175E-1,8.095863461E-1,-4.555870295E-1
3.650323550E0,8.483790159E-1,6.349263787E-1,-5.748670697E-1
3.652839175E0,7.333590388E-1,4.560063481E-1,-6.771070361E-1
3.655354800E0,6.108840108E-1,2.792163491E-1,-7.750870585E-1
3.657870477E0,4.873439968E-1,1.152063757E-1,-8.613520265E-1
3.660386102E0,3.659339845E-1,-3.708862513E-2,-9.316420555E-1
3.663164591E0,2.487840056E-1,-1.691486239E-1,-9.838270545E-1
3.665680268E0,1.380239874E-1,-2.681936324E-1,-1.027492046E0
3.668195893E0,4.110900313E-2,-3.331586421E-1,-1.055181980E0
3.670711518E0,-4.409099743E-2,-3.704336286E-1,-1.070091963E0
3.673227143E0,-1.133159995E-1,-3.736286461E-1,-1.075417042E0
3.675742768E0,-1.697610021E-1,-3.470036387E-1,-1.069026947E0
3.678258445E0,-2.017109990E-1,-2.926886380E-1,-1.060506940E0
3.680774070E0,-2.144910097E-1,-2.245286256E-1,-1.046661973E0
3.683289695E0,-2.081010044E-1,-1.403936297E-1,-1.022166967E0
3.685805320E0,-1.814760119E-1,-4.667362198E-2,-9.923470616E-1
3.688320945E0,-1.388760060E-1,3.959137574E-2,-9.572020769E-1
3.690836570E0,-8.349599689E-2,1.311813742E-1,-9.050170779E-1
3.693543602E0,-2.811600082E-2,2.355513722E-1,-8.528320789E-1
3.696059227E0,3.471900150E-2,3.367263675E-1,-7.974520326E-1
3.698574852E0,1.028790027E-1,4.219263494E-1,-7.356820703E-1
3.701090477E0,1.699739993E-1,5.135163665E-1,-6.813670397E-1
3.703606102E0,2.317439914E-1,6.083013415E-1,-6.355720758E-1
3.706121779E0,2.924489975E-1,7.116063833E-1,-5.929720402E-1
3.708637404E0,3.552840054E-1,8.255613446E-1,-5.663470626E-1
3.711153029E0,4.138589799E-1,9.405813813E-1,-5.525020361E-1
3.713668654E0,4.671089947E-1,1.051341414E0,-5.471770763E-1
3.716184279E0,5.150340199E-1,1.156776428E0,-5.482420325E-1
3.718699956E0,5.533740520E-1,1.245171428E0,-5.546320677E-1
3.721215581E0,5.789340138E-1,1.299486399E0,-5.674120784E-1
3.723957873E0,5.917140245E-1,1.325046420E0,-5.865820646E-1
3.726473498E0,5.938439965E-1,1.333566427E0,-6.110770702E-1
3.728989123E0,5.810640454E-1,1.326111436E0,-6.419620514E-1
3.731504748E0,5.608290434E-1,1.303746462E0,-6.792370677E-1
3.734020373E0,5.320740342E-1,1.268601418E0,-7.175770402E-1
3.736536050E0,4.979939759E-1,1.217481375E0,-7.644370198E-1
3.739051675E0,4.575240016E-1,1.153581381E0,-8.144920468E-1
3.741567300E0,4.085339904E-1,1.086486459E0,-8.709370494E-1
3.744082925E0,3.584789932E-1,9.789213538E-1,-9.103420377E-1
3.746598550E0,3.116189837E-1,8.915913701E-1,-9.550720453E-1
3.749114227E0,2.636939883E-1,8.138463497E-1,-9.923470616E-1
3.751629852E0,2.136389911E-1,7.254513502E-1,-1.021101952E0
3.754371570E0,1.657139957E-1,6.540963650E-1,-1.053051949E0
3.756887195E0,1.188540012E-1,5.720913410E-1,-1.083937049E0
3.759402820E0,7.199399918E-2,4.975413680E-1,-1.112691998E0
3.761918445E0,2.619899996E-2,4.091463685E-1,-1.132926941E0
3.764434070E0,-2.811600082E-2,3.409863710E-1,-1.174461961E0
3.766949748E0,-7.710599899E-2,2.472663820E-1,-1.195762038E0
3.769465373E0,-1.229010001E-1,1.663263738E-1,-1.220257044E0
3.771980998E0,-1.708260030E-1,1.695213765E-1,-1.273506999E0
3.774496623E0,-2.134260088E-1,1.727163792E-1,-1.319301963E0
3.777012248E0,-2.517659962E-1,1.716513783E-1,-1.368291974E0
3.779527925E0,-2.901059985E-1,1.876263767E-1,-1.415151954E0
3.782043550E0,-3.241859972E-1,1.759113818E-1,-1.456686974E0
3.784794175E0,-3.508110046E-1,1.002963781E-1,-1.465206981E0
3.787309800E0,-3.635910153E-1,-3.008625237E-3,-1.430061936E0
3.789825425E0,-3.710460067E-1,-7.010362297E-2,-1.394917011E0
3.792341050E0,-3.785009980E-1,-4.241362214E-2,-1.391721964E0
3.794856675E0,-3.859560192E-1,2.787637524E-2,-1.420477033E0
3.797372352E0,-3.923459947E-1,7.899637520E-2,-1.463076949E0
3.799887977E0,-3.998010159E-1,1.077513769E-1,-1.519521952E0
3.802403602E0,-4.061909914E-1,1.407663822E-1,-1.584486961E0
3.804919227E0,-4.115160108E-1,1.961463839E-1,-1.659036994E0
3.807434852E0,-4.061909914E-1,2.291613817E-1,-1.725067019E0
3.809950529E0,-3.859560192E-1,1.961463839E-1,-1.801746964E0
3.812466154E0,-3.593310118E-1,8.964637667E-2,-1.882686973E0
3.815201206E0,-3.337710202E-1,-1.898362488E-2,-1.989187002E0
3.817716831E0,-3.146010041E-1,-9.566362202E-2,-2.097816944E0
3.820232456E0,-2.986260056E-1,-1.403936297E-1,-2.205382109E0
3.822748081E0,-2.890410125E-1,-1.531736255E-1,-2.309751987E0
3.825263706E0,-2.837159932E-1,-1.510436237E-1,-2.418381929E0
3.827779383E0,-2.773260176E-1,-1.936436296E-1,-2.493997097E0
3.830295008E0,-2.847810090E-1,-1.979036182E-1,-2.554702044E0
3.832810633E0,-3.071460128E-1,-2.149436176E-1,-2.586652040E0
3.835326258E0,-3.284460008E-1,-2.500886321E-1,-2.590912104E0
3.837841883E0,-3.582659960E-1,-2.426336259E-1,-2.574937105E0
3.840357560E0,-3.976710141E-1,-2.319836169E-1,-2.551506996E0
3.842873185E0,-4.274910092E-1,-2.618036270E-1,-2.516361952E0
3.845616518E0,-4.487909973E-1,-2.980136275E-1,-2.480151892E0
3.848132143E0,-4.637010098E-1,-3.012086451E-1,-2.454591990E0
3.850647768E0,-4.700910151E-1,-3.097286522E-1,-2.432226896E0
3.853163393E0,-4.583760202E-1,-3.651086390E-1,-2.390691996E0
3.855679018E0,-4.381410182E-1,-4.045136273E-1,-2.326792002E0
3.858194695E0,-4.072560072E-1,-4.428536296E-1,-2.250112057E0
3.860710320E0,-3.550710082E-1,-5.131436586E-1,-2.140417099E0
3.863225945E0,-2.986260056E-1,-5.429636240E-1,-2.017941952E0
3.865741570E0,-2.389860004E-1,-5.110136271E-1,-1.914636970E0
3.868257195E0,-1.697610021E-1,-4.716086388E-1,-1.817721963E0
3.870772873E0,-8.669099957E-2,-4.460486472E-1,-1.719741940E0
3.873288498E0,-2.555999905E-3,-4.172936380E-1,-1.629217029E0
3.876031623E0,8.583900332E-2,-3.789536357E-1,-1.536561966E0
3.878547248E0,1.689089984E-1,-3.235736489E-1,-1.438581944E0
3.881062873E0,2.317439914E-1,-2.607386410E-1,-1.359771967E0
3.883578498E0,2.924489975E-1,-2.192036211E-1,-1.306522012E0
3.886094123E0,3.435689807E-1,-1.766036302E-1,-1.266052008E0
3.888609800E0,3.797789812E-1,-1.382636279E-1,-1.243687034E0
3.891125425E0,4.138589799E-1,-1.361336261E-1,-1.238361955E0
3.893641050E0,4.564589858E-1,-1.659536213E-1,-1.241557002E0
3.896156675E0,4.979939759E-1,-1.542386264E-1,-1.266052008E0
3.898672352E0,5.299440026E-1,2.259663790E-1,-1.335276961E0
3.901187977E0,4.947989881E-1,1.052406430E0,-1.455621958E0
3.903703602E0,4.862789810E-1,1.321851373E0,-1.556797028E0
3.906443914E0,5.086440444E-1,1.108851433E0,-1.614307046E0
3.908959539E0,5.235540271E-1,9.235413671E-1,-1.670752048E0
3.911475164E0,5.768040419E-1,7.552713752E-1,-1.765537024E0
3.913990789E0,6.833040118E-1,5.231013894E-1,-1.873101950E0
3.916506414E0,8.153640032E-1,2.675013542E-1,-1.971081972E0
3.919022091E0,9.325140119E-1,6.728138030E-2,-2.027527094E0
3.921537716E0,1.016649008E0,-4.454362392E-2,-2.025397062E0
3.924053341E0,1.065639019E0,-8.181862533E-2,-1.967887044E0
3.926568966E0,1.083744049E0,-7.436362654E-2,-1.878427029E0
3.929084591E0,1.091199040E0,-6.690862030E-2,-1.774057031E0
3.931600268E0,1.091199040E0,-7.010362297E-2,-1.657971978E0
3.934115893E0,1.078418970E0,-7.542861998E-2,-1.549342036E0
3.936877612E0,1.053923965E0,-9.459862113E-2,-1.475857019E0
3.939393289E0,1.018779039E0,-1.148336232E-1,-1.419412017E0
3.941908914E0,9.793740511E-1,-1.510436237E-1,-1.373616934E0
3.944424539E0,9.314489961E-1,-1.989686191E-1,-1.337406993E0
3.946940164E0,8.728740215E-1,-2.383736223E-1,-1.305456996E0
3.949455789E0,8.079090118E-1,-2.649986446E-1,-1.268182039E0
3.951971466E0,7.408140302E-1,-2.990786433E-1,-1.234102011E0
3.954487091E0,6.683940291E-1,-3.225086331E-1,-1.188307047E0
3.957002716E0,5.853240490E-1,-3.427436352E-1,-1.122277021E0
3.959518341E0,4.873439968E-1,-4.140986502E-1,-1.051986933E0
3.962033966E0,3.840389848E-1,-5.844986439E-1,-9.753070474E-1
3.964549591E0,2.732789814E-1,-8.486186266E-1,-8.869120479E-1
3.967275008E0,1.454789937E-1,-1.096763611E0,-7.825420499E-1
3.969790633E0,-3.620999865E-3,-1.237343550E0,-6.749770641E-1
3.972306258E0,-1.740210056E-1,-1.306568623E0,-5.769970417E-1
3.974821883E0,-3.454860151E-1,-1.398158550E0,-4.960570335E-1
3.977337508E0,-4.988459945E-1,-1.533413529E0,-4.523920119E-1
3.979853185E0,-6.159960032E-1,-1.692098618E0,-4.715620279E-1
3.982368810E0,-7.107809782E-1,-1.868888617E0,-5.354620218E-1
3.984884435E0,-7.938509583E-1,-2.081888676E0,-6.174670458E-1
3.987400060E0,-8.705309629E-1,-2.332163572E0,-6.973420382E-1
3.989915685E0,-9.450809956E-1,-2.594153643E0,-7.644370198E-1
3.992431362E0,-1.002591014E0,-2.836973667E0,-8.102320433E-1
3.994946987E0,-1.041996002E0,-3.030803680E0,-8.283370733E-1
3.997690633E0,-1.062230945E0,-3.159668684E0,-8.251420259E-1
4.000206258E0,-1.068620920E0,-3.223568678E0,-8.123620749E-1
4.002721883E0,-1.052645922E0,-3.207593679E0,-7.857370377E-1
4.005237508E0,-1.017500997E0,-3.096833467E0,-7.442020774E-1
4.007753133E0,-9.610559940E-1,-2.882768631E0,-6.771070361E-1
4.010268810E0,-8.875709772E-1,-2.612258673E0,-5.865820646E-1
4.012784435E0,-7.991759777E-1,-2.328968525E0,-4.822120070E-1
4.015300060E0,-6.958709955E-1,-2.032898664E0,-3.608020246E-1
4.017815685E0,-5.915009975E-1,-1.726178527E0,-2.319370359E-1
4.020331310E0,-4.754160047E-1,-1.441823602E0,-1.062670350E-1
4.022846987E0,-3.572010100E-1,-1.193678617E0,1.407796890E-2
4.025362612E0,-2.496360093E-1,-9.966536164E-1,1.237729639E-1
4.028107300E0,-1.473960131E-1,-8.390336633E-1,2.132329643E-1
4.030622925E0,-6.113099679E-2,-6.601136327E-1,2.558329701E-1
4.033138550E0,2.769000363E-3,-4.705436528E-1,2.781979740E-1
4.035654175E0,4.749900103E-2,-3.065336347E-1,3.016279936E-1
4.038169800E0,7.838400453E-2,-1.883186251E-1,3.239929676E-1
4.040685425E0,9.861899912E-2,-9.779362381E-2,3.538129926E-1
4.043201102E0,1.060739979E-1,-9.398625232E-3,3.783079684E-1
4.045716727E0,1.103340015E-1,6.728138030E-2,3.921529949E-1
4.048232352E0,1.145940050E-1,1.215963736E-1,4.038679898E-1
4.050747977E0,1.135290042E-1,1.684563756E-1,4.017379880E-1
4.053263654E0,1.050090045E-1,2.057313770E-1,3.825679719E-1
4.055779279E0,1.028790027E-1,2.504613698E-1,3.484879732E-1
4.058524383E0,9.542400390E-2,3.005163670E-1,3.048229814E-1
4.061040008E0,8.690400422E-2,3.484413624E-1,2.568979859E-1
4.063555633E0,7.412400097E-2,4.006263614E-1,2.079079598E-1
4.066071258E0,6.134400517E-2,4.485513568E-1,1.546579599E-1
4.068586883E0,5.495399982E-2,4.868913591E-1,1.088629663E-1
4.071102560E0,5.388900265E-2,5.103213787E-1,5.987296626E-2
4.073618185E0,6.240899861E-2,5.273613334E-1,6.622969173E-3
4.076133810E0,7.199399918E-2,5.092563629E-1,-4.769203067E-2
4.078649435E0,9.116400033E-2,4.762413502E-1,-1.041370332E-1
4.081165060E0,1.188540012E-1,4.538763762E-1,-1.520620286E-1
4.083680737E0,1.486739963E-1,4.091463685E-1,-1.946620345E-1
4.086196362E0,1.838189960E-1,3.686763644E-1,-2.404570282E-1
4.088935581E0,2.221589983E-1,3.399213552E-1,-3.000970185E-1
4.091451206E0,2.509140074E-1,4.091463685E-1,-3.639970124E-1
4.093966831E0,2.679539919E-1,5.081913471E-1,-4.193770289E-1
4.096482456E0,2.764739990E-1,5.870013833E-1,-4.673020244E-1
4.098998081E0,2.796689868E-1,6.498363614E-1,-4.875370264E-1
4.101513758E0,2.881889939E-1,6.423813701E-1,-4.843420088E-1
4.104029383E0,2.935139835E-1,5.720913410E-1,-4.683670104E-1
4.106545008E0,2.967090011E-1,4.954113662E-1,-4.364170134E-1
4.109060633E0,2.977739871E-1,4.272513688E-1,-3.991420269E-1
4.111576258E0,2.988390028E-1,3.846513629E-1,-3.597370088E-1
4.114091935E0,2.924489975E-1,3.697413504E-1,-3.192670047E-1
4.116607560E0,2.807340026E-1,3.718713522E-1,-2.841220200E-1
4.119351258E0,2.690190077E-1,3.814563751E-1,-2.670820057E-1
4.121866883E0,2.541089952E-1,3.995613754E-1,-2.681470215E-1
4.124382508E0,2.423940003E-1,4.166013598E-1,-2.617570162E-1
4.126898133E0,2.349389941E-1,4.112763703E-1,-2.489770353E-1
4.129413758E0,2.317439914E-1,3.867813647E-1,-2.585620284E-1
4.131929435E0,2.360039949E-1,3.537663519E-1,-2.873170078E-1
4.134445060E0,2.402639985E-1,3.154263496E-1,-3.160720170E-1
4.136960685E0,2.434590012E-1,2.856063545E-1,-3.331120312E-1
4.139476310E0,2.477189898E-1,2.323563695E-1,-3.341770172E-1
4.141991935E0,2.498489916E-1,1.610013694E-1,-3.363070190E-1
4.144507612E0,2.530439794E-1,8.751637489E-2,-3.426970243E-1
4.147023237E0,2.498489916E-1,2.574637532E-2,-3.437620103E-1
4.149761987E0,2.434590012E-1,-4.347862303E-2,-3.458920121E-1
4.152277612E0,2.381339967E-1,-1.350686252E-1,-3.426970243E-1
4.154793237E0,2.391989976E-1,-2.160086185E-1,-3.458920121E-1
4.157308862E0,2.328089923E-1,-2.756486237E-1,-3.426970243E-1
4.159824487E0,2.253540009E-1,-3.214436471E-1,-3.426970243E-1
4.162340164E0,2.104439884E-1,-3.597836494E-1,-3.533470333E-1
4.164855789E0,1.891440004E-1,-4.013186395E-1,-3.735820055E-1
4.167371414E0,1.689089984E-1,-4.662836492E-1,-4.087270200E-1
4.169887039E0,1.508039981E-1,-5.450936556E-1,-4.566520154E-1
4.172402664E0,1.263089925E-1,-6.132536530E-1,-5.216170549E-1
4.174918341E0,9.968400002E-2,-6.601136327E-1,-5.812570453E-1
4.177433966E0,7.412400097E-2,-7.112336159E-1,-6.345070601E-1
4.180178602E0,5.495399982E-2,-7.698086500E-1,-7.005370259E-1
4.182694227E0,3.897900134E-2,-8.273186088E-1,-7.740220428E-1
4.185209852E0,3.258899972E-2,-9.061286449E-1,-8.538970351E-1
4.187725477E0,2.513399906E-2,-1.016888618E0,-9.625270367E-1
4.190241102E0,3.365400061E-2,-1.130843520E0,-1.097782016E0
4.192756779E0,5.814900249E-2,-1.233083606E0,-1.261791945E0
4.195272404E0,9.329400212E-2,-1.308698535E0,-1.462011933E0
4.197787977E0,1.412189901E-1,-1.341713548E0,-1.679271936E0
4.200303654E0,2.072490007E-1,-1.342778563E0,-1.909312010E0
4.202819279E0,2.796689868E-1,-1.343843579E0,-2.158521891E0
4.205334956E0,3.595439792E-1,-1.361948609E0,-2.416251898E0
4.207850581E0,4.447439909E-1,-1.393898606E0,-2.655876875E0
4.210590945E0,5.331390500E-1,-1.389638543E0,-2.868876934E0
4.213106570E0,6.172740459E-1,-1.366208553E0,-3.082942009E0
4.215622195E0,6.907590032E-1,-1.352363586E0,-3.273576975E0
4.218137820E0,7.567890286E-1,-1.304438591E0,-3.420547009E0
4.220653445E0,8.100390434E-1,-1.294853568E0,-3.571777105E0
4.223169123E0,8.526390195E-1,-1.303373575E0,-3.716617107E0
4.225684748E0,8.845890164E-1,-1.252253532E0,-3.823117018E0
4.228200373E0,8.984340429E-1,-1.170248628E0,-3.898731947E0
4.230715998E0,9.112139940E-1,-1.109543562E0,-3.944526911E0
4.233231623E0,9.154739976E-1,-1.058423519E0,-3.936007023E0
4.235747300E0,9.197340012E-1,-1.031798601E0,-3.872107029E0
4.238262925E0,9.197340012E-1,-1.038188577E0,-3.767736912E0
4.241005008E0,9.144090414E-1,-1.074398637E0,-3.644196987E0
4.243520633E0,9.133440256E-1,-1.172378540E0,-3.503617048E0
4.246036258E0,9.122790098E-1,-1.370468616E0,-3.341737032E0
4.248551883E0,9.165390134E-1,-1.549388528E0,-3.180922031E0
4.251067508E0,9.218640327E-1,-1.667603612E0,-3.036082029E0
4.253583185E0,9.186690450E-1,-1.733633637E0,-2.910412073E0
4.256098810E0,9.101490378E-1,-1.773038626E0,-2.800716877E0
4.258614435E0,8.909790516E-1,-1.799663544E0,-2.700607061E0
4.261130060E0,8.760690093E-1,-1.913618565E0,-2.609016895E0
4.263645685E0,8.643540144E-1,-2.003078461E0,-2.524882078E0
4.266161362E0,8.324040174E-1,-1.999883652E0,-2.457787037E0
4.268676987E0,7.823490500E-1,-1.941308618E0,-2.404536963E0
4.271424227E0,7.259040475E-1,-1.879538536E0,-2.349157095E0
4.273939852E0,6.662639976E-1,-1.866758585E0,-2.306556940E0
4.276455477E0,6.098189950E-1,-1.873148561E0,-2.262892008E0
4.278971102E0,5.704140067E-1,-1.861433625E0,-2.222421885E0
4.281486727E0,5.427240133E-1,-1.840133548E0,-2.200057030E0
4.284002404E0,5.150340199E-1,-1.809248567E0,-2.186212063E0
4.286518029E0,4.830839932E-1,-1.748543620E0,-2.158521891E0
4.289033654E0,4.553939998E-1,-1.688903570E0,-2.113791943E0
4.291549279E0,4.330289960E-1,-1.649498582E0,-2.062671900E0
4.294064904E0,4.127939939E-1,-1.605833530E0,-2.000901937E0
4.296580581E0,3.904289901E-1,-1.544063568E0,-1.917832017E0
4.299096206E0,3.638039827E-1,-1.454603553E0,-1.827306986E0
4.301840320E0,3.371790051E-1,-1.337453604E0,-1.730391979E0
4.304355945E0,3.137489855E-1,-1.206458569E0,-1.618566990E0
4.306871570E0,2.977739871E-1,-1.058423519E0,-1.492897034E0
4.309387195E0,2.839289904E-1,-8.944136500E-1,-1.355512023E0
4.311902820E0,2.743439972E-1,-7.133636475E-1,-1.203217030E0
4.314418498E0,2.636939883E-1,-5.248586535E-1,-1.054116964E0
4.316934123E0,2.583689988E-1,-3.374186456E-1,-9.167320728E-1
4.319449748E0,2.573039830E-1,-1.361336261E-1,-7.910620570E-1
4.321965373E0,2.668890059E-1,7.047637552E-2,-6.856270432E-1
4.324480998E0,2.817989886E-1,2.802813649E-1,-5.972320437E-1
4.326996675E0,3.041639924E-1,4.794363678E-1,-5.173570514E-1
4.329512300E0,3.414390087E-1,6.562263370E-1,-4.470670223E-1
4.332251258E0,3.829739988E-1,8.074563742E-1,-3.810370266E-1
4.334766883E0,4.191839993E-1,9.331263900E-1,-3.128770292E-1
4.337282508E0,4.468739927E-1,1.028976440E0,-2.457820326E-1
4.339798133E0,4.607189894E-1,1.088616371E0,-1.776220351E-1
4.342313758E0,4.639140069E-1,1.117371440E0,-1.126570329E-1
4.344829435E0,4.639140069E-1,1.123761415E0,-4.769203067E-2
4.347345060E0,4.479390085E-1,1.098201394E0,1.514296979E-2
4.349860685E0,4.277040064E-1,1.049211383E0,7.478296757E-2
4.352376310E0,3.957539797E-1,9.725313783E-1,1.259029657E-1
4.354891935E0,3.563489914E-1,8.681613803E-1,1.695679724E-1
4.357407612E0,3.084239960E-1,7.424913645E-1,2.100379616E-1
4.359923237E0,2.573039830E-1,5.933913589E-1,2.483779639E-1
4.362664956E0,2.008589953E-1,4.272513688E-1,2.792629898E-1
4.365180581E0,1.369590014E-1,2.355513722E-1,3.026929796E-1
4.367696206E0,5.921400338E-2,-1.046362519E-2,3.016279936E-1
4.370211831E0,-1.746599935E-2,-2.319836169E-1,2.824579775E-1
4.372727456E0,-8.988600224E-2,-3.938636482E-1,2.611579895E-1
4.375243133E0,-1.644360125E-1,-5.046236515E-1,2.249479592E-1
4.377758758E0,-2.230110019E-1,-6.132536530E-1,1.621129662E-1
4.380274383E0,-2.751960158E-1,-6.984536648E-1,9.075796604E-2
4.382790008E0,-3.284460008E-1,-7.836536169E-1,1.514296979E-2
4.385305633E0,-3.593310118E-1,-8.773736358E-1,-7.644703239E-2
4.387821310E0,-3.848910034E-1,-9.444686174E-1,-1.712320298E-1
4.390336935E0,-3.976710141E-1,-9.934586287E-1,-2.734720111E-1
4.393081466E0,-3.944759965E-1,-1.044578552E0,-3.714520335E-1
4.395597091E0,-3.827610016E-1,-1.094633579E0,-4.683670104E-1
4.398112716E0,-3.657210171E-1,-1.132973552E0,-5.578270555E-1
4.400628341E0,-3.518760204E-1,-1.172378540E0,-6.408970356E-1
4.403143966E0,-3.295110166E-1,-1.186223626E0,-7.101220489E-1
4.405659643E0,-3.060809970E-1,-1.192613602E0,-7.772170305E-1
4.408175268E0,-2.805210054E-1,-1.196873546E0,-8.272720575E-1
4.410690893E0,-2.656109929E-1,-1.145753622E0,-8.592220545E-1
4.413206518E0,-2.528310120E-1,-1.041383624E0,-8.847820759E-1
4.415722143E0,-2.411160022E-1,-8.550086617E-1,-9.028870463E-1
4.418237820E0,-2.304660082E-1,-6.430736184E-1,-9.071470499E-1
4.420753445E0,-2.304660082E-1,-4.353986382E-1,-9.007570744E-1
4.423495789E0,-2.368559986E-1,-2.554136515E-1,-8.730670214E-1
4.426011414E0,-2.485710084E-1,-7.329862565E-2,-8.325970769E-1
4.428527039E0,-2.560259998E-1,1.056213751E-1,-7.836070657E-1
4.431042664E0,-2.656109929E-1,2.749563754E-1,-7.356820703E-1
4.433558289E0,-2.762610018E-1,4.240563512E-1,-6.760420203E-1
4.436073966E0,-2.943660021E-1,5.678313375E-1,-6.132070422E-1
4.438589591E0,-3.220559955E-1,6.903063655E-1,-5.514370203E-1
4.441105216E0,-3.497460186E-1,8.149113655E-1,-4.864720106E-1
4.443620841E0,-3.848910034E-1,9.437763691E-1,-4.172470272E-1
4.446136466E0,-4.296210110E-1,1.028976440E0,-3.522820175E-1
4.448652143E0,-4.850009978E-1,1.099266410E0,-2.926420271E-1
4.451167768E0,-5.510309935E-1,1.181271434E0,-2.330020368E-1
4.453912508E0,-6.191909909E-1,1.259016395E0,-1.744270325E-1
4.456428133E0,-6.905459762E-1,1.290966392E0,-1.243720353E-1
4.458943758E0,-7.757459879E-1,1.268601418E0,-8.603203297E-2
4.461459383E0,-8.673359752E-1,1.233456373E0,-6.260203570E-2
4.463975008E0,-9.610559940E-1,1.187661409E0,-4.023703188E-2
4.466490685E0,-1.059036016E0,1.090746403E0,-2.426202968E-2
4.469006310E0,-1.151690960E0,9.704013467E-1,-1.787203178E-2
4.471521935E0,-1.237955928E0,8.117163777E-1,-8.287031204E-3
4.474037560E0,-1.327415943E0,6.626163721E-1,2.329691779E-4
4.476553185E0,-1.421136022E0,5.348163843E-1,5.557969213E-3
4.479068862E0,-1.514855981E0,4.134063721E-1,-2.962030703E-3
4.481584487E0,-1.600055933E0,3.015813529E-1,-1.680703089E-2
4.484324800E0,-1.678866029E0,2.046663761E-1,-3.491203114E-2
4.486840425E0,-1.755545974E0,1.109463796E-1,-6.899203360E-2
4.489356050E0,-1.822641015E0,2.255137451E-2,-1.137220338E-1
4.491871675E0,-1.882280946E0,-4.347862303E-2,-1.552570313E-1
4.494387300E0,-1.936595917E0,-8.075362444E-2,-1.999870390E-1
4.496902977E0,-1.978130937E0,-1.244186163E-1,-2.457820326E-1
4.499418602E0,-2.004755974E0,-1.840586215E-1,-2.915770113E-1
4.501934227E0,-2.023926020E0,-2.394386232E-1,-3.299170136E-1
4.504449852E0,-2.036706209E0,-2.820386291E-1,-3.608020246E-1
4.506965477E0,-2.043096066E0,-3.054686487E-1,-3.842320144E-1
4.509481154E0,-2.040966034E0,-3.086636364E-1,-4.044670165E-1
4.511996779E0,-2.022861004E0,-2.852336466E-1,-4.247020185E-1
4.514737508E0,-1.986650944E0,-2.458286285E-1,-4.545220137E-1
4.517253133E0,-1.939790964E0,-2.032286227E-1,-4.896670282E-1
4.519768758E0,-1.887606025E0,-1.510436237E-1,-5.386570692E-1
4.522284383E0,-1.836485982E0,-1.148336232E-1,-5.982970595E-1
4.524800008E0,-1.775781035E0,-1.457186192E-1,-6.685870290E-1
4.527315685E0,-1.714010954E0,-2.074886262E-1,-7.410070300E-1
4.529831310E0,-1.659695983E0,-2.713886499E-1,-8.091670275E-1
4.532346935E0,-1.610705972E0,-3.320936263E-1,-8.751970530E-1
4.534862560E0,-1.571300983E0,-4.098386467E-1,-9.433570504E-1
4.537378185E0,-1.536155939E0,-4.865186512E-1,-9.998020530E-1
4.539893862E0,-1.512725949E0,-5.631986260E-1,-1.042402029E0
4.542409487E0,-1.489295959E0,-6.622436643E-1,-1.080742002E0
4.545155945E0,-1.471190929E0,-7.463786602E-1,-1.112691998E0
4.547671570E0,-1.457345963E0,-8.102786541E-1,-1.142511964E0
4.550187195E0,-1.442435980E0,-8.667236567E-1,-1.165941954E0
4.552702820E0,-1.427525997E0,-9.167786241E-1,-1.174461961E0
4.555218445E0,-1.417940974E0,-9.423386455E-1,-1.173396945E0
4.557734123E0,-1.411550999E0,-9.604436159E-1,-1.171267033E0
4.560249748E0,-1.406225920E0,-9.668336511E-1,-1.160616994E0
4.562765373E0,-1.399835944E0,-9.497936368E-1,-1.138252020E0
4.565280998E0,-1.390250921E0,-8.976086378E-1,-1.113757014E0
4.567796623E0,-1.377470970E0,-8.347736597E-1,-1.077546954E0
4.570312248E0,-1.360430956E0,-7.506386638E-1,-1.041337013E0
4.572827873E0,-1.341261029E0,-6.420086622E-1,-1.010452032E0
4.575580529E0,-1.322090983E0,-5.387036204E-1,-9.753070474E-1
4.578096154E0,-1.295465946E0,-4.641536474E-1,-9.273820519E-1
4.580611779E0,-1.276296020E0,-3.810836375E-1,-8.826520443E-1
4.583127404E0,-1.252866030E0,-2.777786255E-1,-8.507020473E-1
4.585643029E0,-1.221980929E0,-1.446536183E-1,-8.123620749E-1
4.588158706E0,-1.186836004E0,-8.786248509E-4,-7.644370198E-1
4.590674331E0,-1.149560928E0,1.258563697E-1,-7.154470682E-1
4.593189956E0,-1.109090924E0,2.291613817E-1,-6.685870290E-1
4.595705581E0,-1.073945999E0,3.228813708E-1,-6.238570213E-1
4.598221206E0,-1.032410979E0,4.027563632E-1,-5.791270733E-1
4.600736883E0,-1.001525998E0,4.666563570E-1,-5.407870412E-1
4.603252508E0,-9.727709889E-1,5.018013716E-1,-5.099020600E-1
4.605991414E0,-9.429509640E-1,4.826313555E-1,-4.768870175E-1
4.608507039E0,-9.195209742E-1,4.038213491E-1,-4.417420328E-1
4.611022664E0,-9.014160037E-1,3.271413743E-1,-4.012720287E-1
4.613538289E0,-8.928959966E-1,2.611113489E-1,-3.576070070E-1
4.616053914E0,-8.822459579E-1,2.025363743E-1,-3.171370327E-1
4.618569591E0,-8.758559823E-1,1.524813771E-1,-2.894470096E-1
4.621085216E0,-8.715959787E-1,1.098813787E-1,-2.702770233E-1
4.623600841E0,-8.705309629E-1,6.408637762E-2,-2.606920302E-1
4.626116466E0,-8.705309629E-1,-6.203625351E-3,-2.511070371E-1
4.628632091E0,-8.747909665E-1,-9.140362591E-2,-2.500420213E-1
4.631147768E0,-8.801159859E-1,-1.829936206E-1,-2.532370389E-1
4.633663393E0,-8.918309808E-1,-2.724536359E-1,-2.617570162E-1
4.636434227E0,-9.056759477E-1,-3.480686247E-1,-2.681470215E-1
4.638949904E0,-9.195209742E-1,-4.077086449E-1,-2.819920182E-1
4.641465529E0,-9.280409813E-1,-4.673486352E-1,-2.905120254E-1
4.643981154E0,-9.386909604E-1,-5.323136449E-1,-2.873170078E-1
4.646496779E0,-9.514709711E-1,-5.908886194E-1,-2.724070251E-1
4.649012404E0,-9.631859660E-1,-6.334886551E-1,-2.425870299E-1
4.651528081E0,-9.685109854E-1,-6.579836607E-1,-2.159620374E-1
4.654043706E0,-9.695760012E-1,-6.558536291E-1,-1.861420274E-1
4.656559331E0,-9.717059731E-1,-6.334886551E-1,-1.435420364E-1
4.659074956E0,-9.653159976E-1,-5.887586474E-1,-9.561703354E-2
4.661590581E0,-9.621209502E-1,-5.291186571E-1,-4.662702978E-2
4.664106206E0,-9.482759833E-1,-4.545686245E-1,6.622969173E-3
4.666843185E0,-9.269759655E-1,-3.768236339E-1,6.413296610E-2
4.669358810E0,-9.099359512E-1,-2.852336466E-1,1.173829660E-1
4.671874435E0,-8.907659650E-1,-1.915136278E-1,1.706329584E-1
4.674390112E0,-8.705309629E-1,-1.031186208E-1,2.238829583E-1
4.676905737E0,-8.428409696E-1,-2.430862561E-2,2.781979740E-1
4.679421362E0,-7.895909548E-1,2.316374797E-3,3.271879852E-1
4.681936987E0,-5.829809904E-1,-2.373086214E-1,3.484879732E-1
4.684452612E0,-2.986260056E-1,-5.663936138E-1,3.548779786E-1
4.686968289E0,-5.048099905E-2,-7.921736240E-1,3.623329699E-1
4.689483914E0,1.295039952E-1,-8.837636113E-1,3.751129806E-1
4.691999539E0,2.551739812E-1,-8.603336215E-1,3.846979737E-1
4.694515164E0,3.403739929E-1,-7.634186149E-1,3.868279755E-1
4.697226466E0,3.925589919E-1,-6.345536113E-1,3.740479946E-1
4.699742091E0,4.245089889E-1,-5.291186571E-1,3.516829908E-1
4.702257716E0,4.479390085E-1,-4.673486352E-1,3.250579834E-1
4.704773341E0,4.543289840E-1,-4.449836314E-1,2.963029742E-1
4.707288966E0,4.287689924E-1,-4.077086449E-1,2.686129808E-1
4.709804643E0,3.723239899E-1,-3.331586421E-1,2.387929708E-1
4.712320268E0,3.137489855E-1,-2.138786167E-1,2.100379616E-1
4.714835893E0,2.626290023E-1,-5.945362151E-2,1.898029596E-1
4.717351518E0,2.168339938E-1,1.173363775E-1,1.727629602E-1
4.719867143E0,1.859489977E-1,3.058413565E-1,1.578529626E-1
4.722382820E0,1.689089984E-1,4.655913711E-1,1.514629722E-1
4.724898445E0,1.603889912E-1,6.029763818E-1,1.503979713E-1
4.727643185E0,1.646489948E-1,7.116063833E-1,1.610479653E-1
4.730158810E0,1.721040010E-1,7.946763635E-1,1.727629602E-1
4.732674435E0,1.816889942E-1,8.575113416E-1,1.887379587E-1
4.735190060E0,1.976639926E-1,9.128913879E-1,2.089729607E-1
4.737705685E0,2.115089893E-1,9.554913640E-1,2.270779610E-1
4.740221362E0,2.147039920E-1,9.661413431E-1,2.483779639E-1
4.742736987E0,2.125739902E-1,9.597513676E-1,2.707429826E-1
4.745252612E0,2.168339938E-1,9.363213778E-1,2.994979918E-1
4.747768237E0,2.125739902E-1,9.352563620E-1,3.548779786E-1
4.750283862E0,1.231139973E-1,1.106721401E0,5.966329575E-1
4.752799539E0,-1.569810063E-1,1.618986368E0,1.271842957E0
4.755315164E0,-2.751960158E-1,1.695666432E0,1.950248003E0
4.758056310E0,-9.201599658E-2,1.170621395E0,2.195198059E0
4.760571935E0,1.018140018E-1,6.892413497E-1,2.238862991E0
4.763087560E0,2.093789876E-1,3.793263733E-1,2.227148056E0
4.765603185E0,2.583689988E-1,1.844313741E-1,2.195198059E0
4.768118810E0,2.594339848E-1,7.580137998E-2,2.155792952E0
4.770634487E0,2.328089923E-1,1.616137475E-2,2.113193035E0
4.773150112E0,1.912739873E-1,-2.111362480E-2,2.070593119E0
4.775665737E0,1.454789937E-1,-5.306362361E-2,2.025862932E0
4.778181362E0,1.082039997E-1,-8.288362622E-2,1.992848039E0
4.780696987E0,7.838400453E-2,-1.073786244E-1,1.961963058E0
4.783212664E0,5.175900087E-2,-1.190936267E-1,1.934273005E0
4.785728289E0,3.152400255E-2,-1.446536183E-1,1.907647967E0
4.788473810E0,1.022399962E-2,-1.787336171E-1,1.876762986E0
4.790989435E0,-1.427100040E-2,-2.117486298E-1,1.846943021E0
4.793505060E0,-3.557099774E-2,-2.575436234E-1,1.817123055E0
4.796020685E0,-5.687099695E-2,-3.161186278E-1,1.786237955E0
4.798536362E0,-7.178100199E-2,-3.768236339E-1,1.755352974E0
4.801051987E0,-8.988600224E-2,-4.311386347E-1,1.724467993E0
4.803567612E0,-1.037309989E-1,-4.705436528E-1,1.690387964E0
4.806083237E0,-1.207709983E-1,-4.897136390E-1,1.649917960E0
4.808598862E0,-1.399410069E-1,-4.822586477E-1,1.610512972E0
4.811114487E0,-1.623060107E-1,-4.566986263E-1,1.570042968E0
4.813630164E0,-1.825410128E-1,-4.226186275E-1,1.532768011E0
4.816145789E0,-2.017109990E-1,-3.896036446E-1,1.499752998E0
4.818885841E0,-2.240760028E-1,-3.587186337E-1,1.472063065E0
4.821401466E0,-2.475060076E-1,-3.182486296E-1,1.434787989E0
4.823917091E0,-2.709360123E-1,-2.745836377E-1,1.392187953E0
4.826432716E0,-2.879759967E-1,-2.277236283E-1,1.355978012E0
4.828948341E0,-2.975610197E-1,-1.893836260E-1,1.310183048E0
4.831464018E0,-3.028860092E-1,-1.638236195E-1,1.263323069E0
4.833979643E0,-3.103410006E-1,-1.467836201E-1,1.217527986E0
4.836495268E0,-3.199259937E-1,-1.393286288E-1,1.172798038E0
4.839010893E0,-3.241859972E-1,-1.286786199E-1,1.123808026E0
4.841526518E0,-3.273810148E-1,-1.361336261E-1,1.072687984E0
4.844042195E0,-3.007560074E-1,-2.330486178E-1,1.020503044E0
4.846557820E0,-2.666760087E-1,-3.278336525E-1,9.704479575E-1
4.849299852E0,-2.507010102E-1,-3.363536298E-1,9.257179499E-1
4.851815477E0,-2.496360093E-1,-3.022736311E-1,8.831179738E-1
4.854331102E0,-2.389860004E-1,-2.681936324E-1,8.415829539E-1
4.856846727E0,-2.325960100E-1,-2.277236283E-1,7.947229743E-1
4.859362352E0,-2.315310091E-1,-1.904486269E-1,7.489279509E-1
4.861878029E0,-2.272710055E-1,-1.648886204E-1,7.063279748E-1
4.864393654E0,-2.208810002E-1,-1.457186192E-1,6.658579707E-1
4.866909279E0,-2.155560106E-1,-1.318736225E-1,6.296479702E-1
4.869424904E0,-2.006460130E-1,-1.276136190E-1,6.030229330E-1
4.871940529E0,-1.857360005E-1,-1.158986241E-1,5.763979554E-1
4.874456206E0,-1.697610021E-1,-1.127036214E-1,5.508379340E-1
4.876971831E0,-1.527210027E-1,-1.127036214E-1,5.295379758E-1
4.879715789E0,-1.399410069E-1,-1.116386205E-1,5.082379580E-1
4.882231414E0,-1.271609962E-1,-1.095086262E-1,4.943929911E-1
4.884747039E0,-1.165110022E-1,-1.137686223E-1,4.826779664E-1
4.887262664E0,-1.101209968E-1,-1.233536303E-1,4.741579890E-1
4.889778289E0,-1.047959998E-1,-1.308086216E-1,4.709629714E-1
4.892293966E0,-1.047959998E-1,-1.297436208E-1,4.656379819E-1
4.894809591E0,-1.016009971E-1,-1.286786199E-1,4.581829906E-1
4.897325216E0,-1.026659980E-1,-1.318736225E-1,4.560529888E-1
4.899840841E0,-1.047959998E-1,-1.265486181E-1,4.507279694E-1
4.902356466E0,-1.143810004E-1,-1.127036214E-1,4.454029799E-1
4.904872143E0,-1.292909980E-1,-8.607862145E-2,4.358179867E-1
4.907387768E0,-1.484609991E-1,-5.412862450E-2,4.336879849E-1
4.910129331E0,-1.676310003E-1,-4.347862303E-2,4.315579832E-1
4.912644956E0,-1.793460101E-1,-5.732362345E-2,4.198429883E-1
4.915160581E0,-1.868010014E-1,-8.607862145E-2,4.038679898E-1
4.917676206E0,-1.963860095E-1,-1.318736225E-1,3.932179809E-1
4.920191831E0,-2.006460130E-1,-1.893836260E-1,3.846979737E-1
4.922707508E0,-1.942560077E-1,-2.405036241E-1,3.772429824E-1
4.925223133E0,-1.878660023E-1,-2.916236520E-1,3.633979857E-1
4.927738758E0,-1.782810092E-1,-3.363536298E-1,3.495529890E-1
4.930254383E0,-1.644360125E-1,-3.640436530E-1,3.357079923E-1
4.932770008E0,-1.484609991E-1,-3.853436410E-1,3.165379763E-1
4.935285685E0,-1.303559989E-1,-3.981236517E-1,2.941729724E-1
4.937801310E0,-1.165110022E-1,-3.970586360E-1,2.792629898E-1
4.940545164E0,-1.026659980E-1,-3.821486235E-1,2.632879913E-1
4.943060789E0,-8.775600046E-2,-3.544586301E-1,2.494429797E-1
4.945576414E0,-8.030100167E-2,-3.246386349E-1,2.355979681E-1
4.948092039E0,-7.604099810E-2,-2.873636484E-1,2.174929678E-1
4.950607664E0,-7.071600109E-2,-2.500886321E-1,2.015179694E-1
4.953123341E0,-6.858599931E-2,-2.192036211E-1,1.908679605E-1
4.955638966E0,-7.178100199E-2,-1.947086304E-1,1.898029596E-1
4.958154591E0,-9.095099568E-2,-1.435886174E-1,2.100379616E-1
4.960670216E0,-1.601760089E-1,-2.111362480E-2,2.568979859E-1
4.963185841E0,-2.304660082E-1,8.006137609E-2,2.994979918E-1
4.965701518E0,-2.837159932E-1,1.386363804E-1,3.335779905E-1
4.968217143E0,-3.476160169E-1,1.961463839E-1,3.751129806E-1
4.970962248E0,-4.115160108E-1,2.483313829E-1,4.336879849E-1
4.973477873E0,-4.690259993E-1,2.685663700E-1,5.029129386E-1
4.975993498E0,-5.180159807E-1,2.589813471E-1,5.710729361E-1
4.978509123E0,-5.584859848E-1,2.270313799E-1,6.445579529E-1
4.981024748E0,-5.851109624E-1,1.705863774E-1,7.191079259E-1
4.983540425E0,-5.957610011E-1,9.284137934E-2,7.872679234E-1
4.986056050E0,-5.978909731E-1,5.511375144E-3,8.447779417E-1
4.988571675E0,-5.904359818E-1,-8.288362622E-2,8.990929723E-1
4.991087300E0,-5.819159746E-1,-1.489136219E-1,9.608629346E-1
4.993602925E0,-5.712659955E-1,-1.819286197E-1,1.029023051E0
4.996118602E0,-5.531609654E-1,-1.872536242E-1,1.101443052E0
4.998634227E0,-5.382509828E-1,-1.595636308E-1,1.173863053E0
5.001373914E0,-5.350559950E-1,-1.031186208E-1,1.248412967E0
5.003889539E0,-5.276010036E-1,-3.815362230E-2,1.313377976E0
5.006405164E0,-5.307959914E-1,4.811137542E-2,1.359173059E0
5.008920789E0,-5.307959914E-1,1.226613745E-1,1.362367988E0
5.011436414E0,-5.169509649E-1,1.705863774E-1,1.306988001E0
5.013952091E0,-4.892610013E-1,1.897563785E-1,1.201552987E0
5.016467716E0,-4.498560131E-1,1.823013723E-1,1.052453041E0
5.018983341E0,-4.008660018E-1,1.514163762E-1,8.650129437E-1
5.021498966E0,-3.454860151E-1,1.152063757E-1,6.626629233E-1
5.024014591E0,-2.922360003E-1,7.793137431E-2,4.603129923E-1
5.026530268E0,-2.421810031E-1,4.385137558E-2,2.760679722E-1
5.029045893E0,-1.995810121E-1,3.639637679E-2,1.365529597E-1
5.031789852E0,-1.708260030E-1,4.278637841E-2,4.070296884E-2
5.034305477E0,-1.431360096E-1,5.663137510E-2,-9.352031164E-3
5.036821102E0,-1.250310093E-1,6.834637374E-2,-2.532703057E-2
5.039336727E0,-1.154460013E-1,6.941137463E-2,-2.000202984E-2
5.041852352E0,-1.133159995E-1,5.982637778E-2,-1.361203101E-2
5.044368029E0,-1.122509986E-1,4.811137542E-2,-9.352031164E-3
5.046883654E0,-1.101209968E-1,4.385137558E-2,-8.320307825E-4
5.049399279E0,-1.079909950E-1,5.024137720E-2,7.687969133E-3
5.051914904E0,-1.037309989E-1,6.302137673E-2,1.514296979E-2
5.054430529E0,-9.947099537E-2,6.728138030E-2,2.259796858E-2
5.056946206E0,-9.840600193E-2,7.793137431E-2,2.579296939E-2
5.059461831E0,-9.840600193E-2,9.071137756E-2,2.792296931E-2
5.062203602E0,-9.947099537E-2,1.034913734E-1,2.792296931E-2
5.064719227E0,-1.069260016E-1,1.077513769E-1,2.046796866E-2
5.067234852E0,-1.069260016E-1,1.130763739E-1,1.833796874E-2
5.069750477E0,-1.090559959E-1,1.141413748E-1,6.622969173E-3
5.072266102E0,-1.005359963E-1,1.045563743E-1,3.427969059E-3
5.074781779E0,-8.669099957E-2,9.284137934E-2,2.362969099E-3
5.077297404E0,-6.326100230E-2,7.899637520E-2,2.329691779E-4
5.079813029E0,-3.237599880E-2,7.686637342E-2,5.557969213E-3
5.082328654E0,2.769000363E-3,7.473637909E-2,1.301296987E-2
5.084844279E0,4.217400029E-2,7.473637909E-2,1.727296971E-2
5.087359956E0,8.051399887E-2,7.793137431E-2,2.046796866E-2
5.089875581E0,1.167239994E-1,8.432137966E-2,8.752969094E-3
5.092617248E0,1.550639868E-1,8.432137966E-2,-7.222030777E-3
5.095132873E0,1.944689900E-1,7.686637342E-2,-1.361203101E-2
5.097648498E0,2.274839878E-1,7.154137641E-2,-2.962030703E-3
5.100164123E0,2.530439794E-1,6.834637374E-2,1.194796991E-2
5.102679748E0,2.775389850E-1,6.515137106E-2,2.153296955E-2
5.105195425E0,2.988390028E-1,5.450137705E-2,2.153296955E-2
5.107711050E0,3.275939822E-1,3.746137768E-2,1.727296971E-2
