"Time (s)","Acceleration x (m/s^2)","Acceleration y (m/s^2)","Acceleration z (m/s^2)"
4.868319000E-3,-3.064578056E0,2.090138197E0,8.504204750E0
6.912997000E-3,-2.923320293E0,1.853112102E0,8.283937454E0
8.896640000E-3,-2.849100113E0,1.752555609E0,8.207323074E0
1.091080000E-2,-2.798821688E0,1.699883223E0,8.219294548E0
1.289444200E-2,-2.772485495E0,1.721431017E0,8.319850922E0
1.490860300E-2,-2.758120298E0,1.738190413E0,8.350975990E0
1.689224500E-2,-2.724601507E0,1.774103403E0,8.432378769E0
1.887588800E-2,-2.683900118E0,1.776497602E0,8.475474358E0
2.089004800E-2,-2.683900118E0,1.790862918E0,8.554482460E0
2.287369000E-2,-2.664746523E0,1.819593310E0,8.626308441E0
2.488785100E-2,-2.655169725E0,1.831564307E0,8.647856712E0
2.687149300E-2,-2.652775526E0,1.843535304E0,8.707711220E0
2.888565300E-2,-2.650381327E0,1.855506301E0,8.781931877E0
3.086929600E-2,-2.655169725E0,1.869871497E0,8.827422142E0
3.288345600E-2,-2.650381327E0,1.884236693E0,8.951920509E0
3.486709900E-2,-2.619256735E0,1.900996208E0,9.112331390E0
3.685074100E-2,-2.602497339E0,1.905784607E0,9.208099365E0
3.883438400E-2,-2.542642117E0,1.912967205E0,9.394847870E0
4.081802600E-2,-2.468421936E0,1.927332401E0,9.512163162E0
4.283218600E-2,-2.437297344E0,1.941697598E0,9.581595421E0
4.484634700E-2,-2.351106167E0,1.951274395E0,9.727641106E0
4.682998900E-2,-2.284068346E0,1.970427990E0,9.828198433E0
4.881363200E-2,-2.243366957E0,1.965639591E0,9.849745750E0
5.082779200E-2,-2.185906172E0,1.984793186E0,9.926360130E0
5.281143500E-2,-2.118868589E0,1.968033791E0,9.993397713E0
5.482559500E-2,-2.087743998E0,1.970427990E0,1.001255131E1
5.680923700E-2,-2.006340981E0,1.963245392E0,1.001494598E1
5.879288000E-2,-1.968033791E0,1.956062794E0,1.001255131E1
6.080704000E-2,-1.900996208E0,1.951274395E0,9.981427193E0
6.279068300E-2,-1.843535304E0,1.960851192E0,9.923966408E0
6.480484300E-2,-1.824381709E0,1.953668594E0,9.868899345E0
6.678848500E-2,-1.776497602E0,1.934514999E0,9.777919769E0
6.877212800E-2,-1.735796213E0,1.953668594E0,9.694122314E0
7.075577000E-2,-1.726219416E0,1.956062794E0,9.653421402E0
7.276993100E-2,-1.680729628E0,1.972822189E0,9.572018623E0
7.475357300E-2,-1.642422318E0,1.982398987E0,9.459490776E0
7.676773300E-2,-1.616086125E0,1.982398987E0,9.402029991E0
7.875137600E-2,-1.568202138E0,1.996764183E0,9.313444138E0
8.073501900E-2,-1.546654344E0,2.032677174E0,9.265560150E0
8.274917900E-2,-1.539471745E0,2.047042370E0,9.244012833E0
8.473282100E-2,-1.501164436E0,2.061407566E0,9.141061783E0
8.674698100E-2,-1.479616642E0,2.063801765E0,9.090784073E0
8.873062400E-2,-1.460463047E0,2.056619167E0,9.062053680E0
9.071426700E-2,-1.434126854E0,2.059013367E0,9.033323288E0
9.269790900E-2,-1.405396342E0,2.061407566E0,9.016563416E0
9.471206900E-2,-1.369483352E0,2.066195965E0,9.002198219E0
9.672622900E-2,-1.335964561E0,2.044648170E0,8.990227699E0
9.870987200E-2,-1.338358760E0,2.032677174E0,8.992621422E0
1.006935150E-1,-1.347935557E0,2.068590164E0,9.026140213E0
1.026771570E-1,-1.357512355E0,2.061407566E0,9.071630478E0
1.046913170E-1,-1.381454349E0,2.042253971E0,9.095572472E0
1.066749600E-1,-1.412579060E0,2.018311977E0,9.153033257E0
1.086891200E-1,-1.417367458E0,2.003946781E0,9.203310966E0
1.106727630E-1,-1.417367458E0,1.991975784E0,9.236829758E0
1.126869230E-1,-1.393425345E0,1.999158382E0,9.287108421E0
1.146705650E-1,-1.405396342E0,1.982398987E0,9.332598686E0
1.166542080E-1,-1.419761658E0,1.980004787E0,9.368511200E0
1.186378510E-1,-1.426944256E0,1.965639591E0,9.428366661E0
1.206214930E-1,-1.424550056E0,1.960851192E0,9.519346237E0
1.226356530E-1,-1.426944256E0,1.953668594E0,9.548076630E0
1.246192960E-1,-1.412579060E0,1.958456993E0,9.624691010E0
1.266334560E-1,-1.412579060E0,1.965639591E0,9.662998199E0
1.286170990E-1,-1.410184860E0,1.946485996E0,9.761159897E0
1.306312590E-1,-1.407790542E0,1.960851192E0,9.840168953E0
1.326149010E-1,-1.383848548E0,1.970427990E0,9.876082420E0
1.345985440E-1,-1.345541358E0,1.968033791E0,9.950302124E0
1.366127040E-1,-1.266532660E0,1.963245392E0,9.995792389E0
1.385963470E-1,-1.221042871E0,1.960851192E0,1.001015759E1
1.406105070E-1,-1.125274777E0,1.953668594E0,1.005804157E1
1.425941490E-1,-1.019929886E0,1.946485996E0,1.011550236E1
1.446083100E-1,-9.696516991E-1,1.932120800E0,1.012268448E1
1.465919520E-1,-8.643068075E-1,1.900996208E0,1.015141487E1
1.486061120E-1,-7.805097699E-1,1.879448295E0,1.015859795E1
1.505897550E-1,-7.613561153E-1,1.874659896E0,1.017296314E1
1.526039150E-1,-7.158663273E-1,1.855506301E0,1.017775154E1
1.545875580E-1,-6.775590777E-1,1.826775908E0,1.015141487E1
1.565712000E-1,-6.703764796E-1,1.817199111E0,1.012986755E1
1.585548430E-1,-6.631938815E-1,1.831564307E0,1.008437729E1
1.605384850E-1,-6.727706790E-1,1.826775908E0,1.006522369E1
1.625526450E-1,-6.847416759E-1,1.836352706E0,1.000776291E1
1.645362880E-1,-7.038952708E-1,1.845929503E0,9.928754807E0
1.665504480E-1,-7.182605267E-1,1.857900500E0,9.895236015E0
1.685646080E-1,-7.493851185E-1,1.855506301E0,9.821015358E0
1.705482510E-1,-7.469909191E-1,1.881842494E0,9.765948296E0
1.725318940E-1,-7.398083210E-1,1.898601890E0,9.742006302E0
1.745155360E-1,-7.565677166E-1,1.934514999E0,9.718064308E0
1.765296960E-1,-7.637503147E-1,1.958456993E0,9.725247383E0
1.785133390E-1,-7.757213712E-1,1.989581585E0,9.708487511E0
1.805274990E-1,-7.781155705E-1,2.056619167E0,9.677363396E0
1.825111420E-1,-7.709329724E-1,2.116474390E0,9.679757118E0
1.844947840E-1,-7.685387731E-1,2.135627985E0,9.670180321E0
1.865089440E-1,-7.445967197E-1,2.161964178E0,9.698910713E0
1.884925870E-1,-7.015010715E-1,2.183511972E0,9.742006302E0
1.905067470E-1,-6.943184733E-1,2.188300371E0,9.770736694E0
1.924903900E-1,-6.488286853E-1,2.188300371E0,9.832986832E0
1.945045500E-1,-5.961562395E-1,2.195482969E0,9.928754807E0
1.964881920E-1,-5.770025849E-1,2.195482969E0,9.983820915E0
1.984718350E-1,-5.195417404E-1,2.169146776E0,1.006043530E1
2.004859950E-1,-5.075707436E-1,2.145204782E0,1.010353088E1
2.024696380E-1,-4.572925270E-1,2.097320795E0,1.017775154E1
2.044837980E-1,-3.639186621E-1,2.049436569E0,1.025436592E1
2.064674400E-1,-3.160346150E-1,2.013523579E0,1.029027843E1
2.084816010E-1,-2.633621991E-1,1.917755604E0,1.037407589E1
2.104652430E-1,-1.723825186E-1,1.843535304E0,1.039562416E1
2.124488860E-1,-1.221042871E-1,1.790862918E0,1.041238308E1
2.144630460E-1,9.576806799E-3,1.707065821E0,1.042914295E1
2.164466880E-1,1.508347094E-1,1.625662923E0,1.043393135E1
2.184608490E-1,2.298433632E-1,1.589749932E0,1.042914295E1
2.204444910E-1,3.615244627E-1,1.532289028E0,1.040041256E1
2.224586510E-1,5.171475410E-1,1.462857246E0,1.037168217E1
2.244422940E-1,5.841852427E-1,1.434126854E0,1.035971069E1
2.264259360E-1,7.110779285E-1,1.398213744E0,1.029746151E1
2.284095790E-1,8.475474119E-1,1.379060149E0,1.024718285E1
2.303932220E-1,9.121908545E-1,1.345541358E0,1.021845245E1
2.323768640E-1,1.007958889E0,1.321599364E0,1.018732834E1
2.343605070E-1,1.039083481E0,1.316810966E0,1.017535686E1
2.363746670E-1,1.074996591E0,1.300051570E0,1.013465595E1
2.383583100E-1,1.108515382E0,1.292868972E0,1.011550236E1
2.403724700E-1,1.125274777E0,1.300051570E0,1.010592556E1
2.423561120E-1,1.130063176E0,1.300051570E0,1.008437729E1
2.443397550E-1,1.072602391E0,1.292868972E0,1.004367638E1
2.463539150E-1,1.034295082E0,1.295263171E0,1.000776291E1
2.483375580E-1,9.911994934E-1,1.295263171E0,9.959878922E0
2.503517180E-1,8.762778044E-1,1.295263171E0,9.897629738E0
2.523353600E-1,8.283938169E-1,1.280897856E0,9.861717224E0
2.543190030E-1,7.158663273E-1,1.280897856E0,9.761159897E0
2.563331630E-1,6.033388376E-1,1.295263171E0,9.655815125E0
2.583473230E-1,5.339069963E-1,1.297657371E0,9.605537415E0
2.603309660E-1,3.854664862E-1,1.307234168E0,9.495404243E0
2.623146080E-1,2.609679997E-1,1.323993564E0,9.385271072E0
2.642982510E-1,1.915361285E-1,1.345541358E0,9.334992409E0
2.663124110E-1,4.788403213E-2,1.393425345E0,9.248801231E0
2.682960540E-1,-9.576806799E-3,1.412579060E0,9.205705643E0
2.703102140E-1,-1.364694983E-1,1.453280449E0,9.117119789E0
2.723243740E-1,-2.513911724E-1,1.477222443E0,9.054870605E0
2.743080170E-1,-3.088520169E-1,1.493981838E0,9.028534889E0
2.762916590E-1,-3.902548850E-1,1.544260144E0,9.023746490E0
2.782753020E-1,-4.572925270E-1,1.596932530E0,9.016563416E0
2.802894620E-1,-4.908113480E-1,1.618480325E0,9.018958092E0
2.823036220E-1,-5.410895944E-1,1.663970232E0,9.059659004E0
2.842872650E-1,-5.267243981E-1,1.685518026E0,9.112331390E0
2.862403900E-1,-4.979939461E-1,1.690306425E0,9.124302864E0
2.882545500E-1,-4.381389022E-1,1.707065821E0,9.160215378E0
2.902381920E-1,-3.734954596E-1,1.735796213E0,9.239224434E0
2.922218350E-1,-3.303998411E-1,1.742978811E0,9.279925346E0
2.942359950E-1,-2.346317619E-1,1.745373011E0,9.339780807E0
2.962196380E-1,-1.484405100E-1,1.742978811E0,9.392453194E0
2.982337980E-1,-1.221042871E-1,1.747767210E0,9.425971985E0
3.002174400E-1,-6.943184882E-2,1.742978811E0,9.488221169E0
3.022316010E-1,-4.548983276E-2,1.733402014E0,9.507374763E0
3.042152430E-1,-2.633621916E-2,1.709460020E0,9.509769440E0
3.062294030E-1,7.182605099E-3,1.697489023E0,9.521739960E0
3.082435630E-1,9.576806799E-3,1.692700624E0,9.536105156E0
3.102272060E-1,-7.182605099E-3,1.685518026E0,9.536105156E0
3.122108490E-1,-4.309562966E-2,1.709460020E0,9.531316757E0
3.141944910E-1,-1.005564705E-1,1.764526606E0,9.540893555E0
3.162086510E-1,-2.346317619E-1,1.862688899E0,9.560047150E0
3.181922940E-1,-3.064578176E-1,1.886630893E0,9.574412346E0
3.202064540E-1,-3.399766386E-1,1.893813491E0,9.595960617E0
3.221900970E-1,-3.639186621E-1,1.881842494E0,9.622296333E0
3.241737390E-1,-3.950432837E-1,1.862688899E0,9.624691010E0
3.261878990E-1,-4.118026793E-1,1.841141105E0,9.612719536E0
3.281715420E-1,-4.357447028E-1,1.800439715E0,9.591172218E0
3.301857020E-1,-4.692635238E-1,1.769315004E0,9.545681953E0
3.321693450E-1,-4.884171486E-1,1.750161409E0,9.514557838E0
3.341835050E-1,-4.955997467E-1,1.685518026E0,9.442731857E0
3.361671470E-1,-5.147533417E-1,1.651999116E0,9.404424667E0
3.381507900E-1,-5.171475410E-1,1.594538331E0,9.356540680E0
3.401344330E-1,-5.051765442E-1,1.529894829E0,9.284713745E0
3.421180750E-1,-4.979939461E-1,1.510741234E0,9.255983353E0
3.441322350E-1,-5.171475410E-1,1.460463047E0,9.186552048E0
3.461158780E-1,-5.291185975E-1,1.407790542E0,9.124302864E0
3.481300380E-1,-5.434837937E-1,1.391031146E0,9.088389397E0
3.501136810E-1,-5.889736414E-1,1.347935557E0,9.004592896E0
3.521278410E-1,-6.153098345E-1,1.331176162E0,8.951920509E0
3.541420010E-1,-6.272808313E-1,1.309628367E0,8.920795441E0
3.561256440E-1,-6.320692301E-1,1.280897856E0,8.872911453E0
3.581398040E-1,-6.560112834E-1,1.285686255E0,8.834604263E0
3.601234460E-1,-6.631938815E-1,1.290474772E0,8.829815865E0
3.621376060E-1,-6.607996821E-1,1.295263171E0,8.839392662E0
3.641212490E-1,-6.129156351E-1,1.319205165E0,8.836998940E0
3.661048920E-1,-5.913678408E-1,1.328781962E0,8.856152534E0
3.680885340E-1,-5.602431893E-1,1.362300754E0,8.882488251E0
3.700721770E-1,-5.171475410E-1,1.393425345E0,8.906430244E0
3.720558190E-1,-5.051765442E-1,1.441309452E0,8.980650902E0
3.740394620E-1,-4.908113480E-1,1.503558636E0,9.069235802E0
3.760536220E-1,-4.955997467E-1,1.549048543E0,9.100360870E0
3.780372650E-1,-5.051765442E-1,1.620874524E0,9.160215378E0
3.800514250E-1,-5.602431893E-1,1.661576033E0,9.224859238E0
3.820350670E-1,-5.674257874E-1,1.697489023E0,9.239224434E0
3.840492280E-1,-5.889736414E-1,1.754949808E0,9.263166428E0
3.860633880E-1,-5.817909837E-1,1.793257117E0,9.291896820E0
3.880470300E-1,-5.674257874E-1,1.812410712E0,9.299078941E0
3.900306730E-1,-5.171475410E-1,1.843535304E0,9.308655739E0
3.920143150E-1,-4.740519226E-1,1.877054095E0,9.349357605E0
3.940284760E-1,-4.429273009E-1,1.889025092E0,9.375694275E0
3.960426360E-1,-4.261679053E-1,1.929726601E0,9.437943459E0
3.980262780E-1,-4.716577232E-1,2.020706177E0,9.476250648E0
4.000099210E-1,-4.836287498E-1,2.059013367E0,9.478644371E0
4.019935630E-1,-5.075707436E-1,2.104503393E0,9.493009567E0
4.040077240E-1,-5.267243981E-1,2.130839586E0,9.485827446E0
4.059913660E-1,-5.219359994E-1,2.157175779E0,9.490615845E0
4.080055260E-1,-5.171475410E-1,2.169146776E0,9.519346237E0
4.099891690E-1,-5.195417404E-1,2.166752577E0,9.531316757E0
4.119728110E-1,-4.860229492E-1,2.142810583E0,9.569623947E0
4.139869720E-1,-4.620809257E-1,2.118868589E0,9.586383820E0
4.159706140E-1,-4.572925270E-1,2.099714994E0,9.595960617E0
4.179847740E-1,-4.525041282E-1,2.051830769E0,9.643844604E0
4.199684170E-1,-4.812345505E-1,2.013523579E0,9.684545517E0
4.219520600E-1,-5.123591423E-1,1.996764183E0,9.689333916E0
4.239662200E-1,-5.578489900E-1,1.951274395E0,9.720458984E0
4.259498620E-1,-6.177040339E-1,1.924938202E0,9.734824181E0
4.279640220E-1,-6.512228847E-1,1.910573006E0,9.739612579E0
4.299476650E-1,-7.326257229E-1,1.841141105E0,9.744400978E0
4.319618250E-1,-8.116343617E-1,1.793257117E0,9.744400978E0
4.339454680E-1,-8.571242094E-1,1.764526606E0,9.749189377E0
4.359291100E-1,-9.433154464E-1,1.695094824E0,9.710882187E0
4.379127530E-1,-1.031900883E0,1.671152830E0,9.718064308E0
4.398963950E-1,-1.077390790E0,1.604115129E0,9.730035782E0
4.419105560E-1,-1.194706678E0,1.558625340E0,9.744400978E0
4.438941980E-1,-1.252167463E0,1.525106430E0,9.744400978E0
4.459083580E-1,-1.338358760E0,1.460463047E0,9.749189377E0
4.479225190E-1,-1.403002143E0,1.403002143E0,9.775525093E0
4.499061610E-1,-1.422155857E0,1.371877551E0,9.780313492E0
4.518898040E-1,-1.479616642E0,1.307234168E0,9.813833237E0
4.538734460E-1,-1.529894829E0,1.266532660E0,9.849745750E0
4.558876060E-1,-1.556231141E0,1.242590666E0,9.866505623E0
4.578712490E-1,-1.601720929E0,1.201889277E0,9.921571732E0
4.598854090E-1,-1.604115129E0,1.170764685E0,9.964667320E0
4.618690520E-1,-1.596932530E0,1.154005170E0,1.000297451E1
4.638832120E-1,-1.616086125E0,1.165976286E0,1.016578007E1
4.658668540E-1,-1.623268723E0,1.156399369E0,1.025197124E1
4.678810150E-1,-1.625662923E0,1.151610970E0,1.026154804E1
4.698646570E-1,-1.601720929E0,1.156399369E0,1.029746151E1
4.718483000E-1,-1.544260144E0,1.146822572E0,1.032140350E1
4.738319420E-1,-1.522712231E0,1.156399369E0,1.033337498E1
4.758155850E-1,-1.465251446E0,1.180341482E0,1.035013390E1
4.778297450E-1,-1.443703651E0,1.187524080E0,1.036928749E1
4.798133880E-1,-1.388636947E0,1.187524080E0,1.039562416E1
4.818275480E-1,-1.335964561E0,1.201889277E0,1.041717148E1
4.838111900E-1,-1.297657371E0,1.213860273E0,1.042435455E1
4.857948330E-1,-1.240196466E0,1.228225470E0,1.043871975E1
4.877479580E-1,-1.187524080E0,1.223437071E0,1.045547867E1
4.897621180E-1,-1.151610970E0,1.216254473E0,1.046505547E1
4.917457610E-1,-1.086967587E0,1.216254473E0,1.047463226E1
4.937294030E-1,-1.070208192E0,1.194706678E0,1.047223854E1
4.957130460E-1,-1.072602391E0,1.182735682E0,1.047702694E1
4.976966880E-1,-1.086967587E0,1.142034173E0,1.046984386E1
4.997108490E-1,-1.151610970E0,1.101332784E0,1.046266174E1
5.016944910E-1,-1.189918280E0,1.094150186E0,1.045547867E1
5.037086510E-1,-1.268926859E0,1.086967587E0,1.042914295E1
5.056617760E-1,-1.328781962E0,1.098938584E0,1.043153667E1
5.076759360E-1,-1.448492050E0,1.125274777E0,1.043393135E1
5.096595790E-1,-1.561019540E0,1.146822572E0,1.041956615E1
5.116432220E-1,-1.604115129E0,1.168370485E0,1.043632507E1
5.136268640E-1,-1.687912226E0,1.206677675E0,1.044590187E1
5.156105070E-1,-1.781286120E0,1.261744261E0,1.046026707E1
5.176246670E-1,-1.817199111E0,1.285686255E0,1.047463226E1
5.196388270E-1,-1.884236693E0,1.302445769E0,1.050096893E1
5.216224700E-1,-1.900996208E0,1.328781962E0,1.052491093E1
5.236061120E-1,-1.910573006E0,1.333570361E0,1.053927612E1
5.255897550E-1,-1.934514999E0,1.338358760E0,1.054885292E1
5.275733970E-1,-1.936909199E0,1.340752959E0,1.058237171E1
5.295570400E-1,-1.920149803E0,1.335964561E0,1.060631371E1
5.315712000E-1,-1.912967205E0,1.307234168E0,1.063504410E1
5.335548430E-1,-1.908178806E0,1.302445769E0,1.063983250E1
5.355690030E-1,-1.910573006E0,1.288080573E0,1.063504410E1
5.375831630E-1,-1.889025092E0,1.256955862E0,1.060152531E1
5.395668060E-1,-1.891419291E0,1.237802267E0,1.058476543E1
5.415504480E-1,-1.903390408E0,1.197100878E0,1.051772785E1
5.435646080E-1,-1.924938202E0,1.216254473E0,1.039083576E1
5.455177330E-1,-1.924938202E0,1.216254473E0,1.033098030E1
5.475318940E-1,-1.924938202E0,1.204283476E0,1.020408726E1
5.495155360E-1,-1.936909199E0,1.218648672E0,1.009156036E1
5.514991790E-1,-1.936909199E0,1.230619669E0,1.004846478E1
5.534828210E-1,-1.946485996E0,1.252167463E0,9.940725327E0
5.554664640E-1,-1.939303398E0,1.297657371E0,9.842563629E0
5.574806240E-1,-1.932120800E0,1.314416766E0,9.797073364E0
5.594642670E-1,-1.915361404E0,1.376665950E0,9.730035782E0
5.614784270E-1,-1.891419291E0,1.446097851E0,9.689333916E0
5.634620690E-1,-1.865083098E0,1.489193439E0,9.662998199E0
5.654457120E-1,-1.800439715E0,1.541865945E0,9.651026726E0
5.674598720E-1,-1.769315004E0,1.572990537E0,9.651026726E0
5.694435150E-1,-1.719036818E0,1.616086125E0,9.667786598E0
5.714271570E-1,-1.678335428E0,1.651999116E0,9.698910713E0
5.734108000E-1,-1.654393315E0,1.675941229E0,9.730035782E0
5.754249600E-1,-1.623268723E0,1.697489023E0,9.801861763E0
5.774086030E-1,-1.580173135E0,1.719036818E0,9.890447617E0
5.793922450E-1,-1.553836942E0,1.733402014E0,9.933543205E0
5.813758880E-1,-1.489193439E0,1.728613615E0,1.002212811E1
5.833595300E-1,-1.446097851E0,1.752555609E0,1.012268448E1
5.853736900E-1,-1.426944256E0,1.752555609E0,1.017535686E1
5.873573330E-1,-1.407790542E0,1.733402014E0,1.029267311E1
5.893714930E-1,-1.391031146E0,1.707065821E0,1.041717148E1
5.913856530E-1,-1.386242747E0,1.707065821E0,1.047702694E1
5.933692960E-1,-1.355118155E0,1.719036818E0,1.057279491E1
5.953529380E-1,-1.316810966E0,1.714248419E0,1.066137981E1
5.973365810E-1,-1.300051570E0,1.709460020E0,1.072362900E1
5.993507410E-1,-1.283292055E0,1.685518026E0,1.083615685E1
6.013343840E-1,-1.288080573E0,1.668758631E0,1.088643551E1
6.033485440E-1,-1.302445769E0,1.663970232E0,1.096304989E1
6.053321860E-1,-1.292868972E0,1.644816518E0,1.101332760E1
6.073463470E-1,-1.295263171E0,1.623268723E0,1.103487587E1
6.093299890E-1,-1.300051570E0,1.613691926E0,1.106121159E1
6.113136320E-1,-1.300051570E0,1.592144132E0,1.108515358E1
6.132972740E-1,-1.300051570E0,1.577778935E0,1.110191345E1
6.152809170E-1,-1.340752959E0,1.517923832E0,1.110909557E1
6.172950770E-1,-1.388636947E0,1.482010841E0,1.110191345E1
6.192787200E-1,-1.403002143E0,1.477222443E0,1.108754826E1
6.212928800E-1,-1.450886250E0,1.450886250E0,1.105642319E1
6.232765220E-1,-1.508347034E0,1.419761658E0,1.098220348E1
6.252906830E-1,-1.525106430E0,1.412579060E0,1.094868469E1
6.272743250E-1,-1.556231141E0,1.388636947E0,1.089122391E1
6.292884850E-1,-1.601720929E0,1.371877551E0,1.083376312E1
6.312721280E-1,-1.623268723E0,1.374271750E0,1.080982113E1
6.332557700E-1,-1.608903527E0,1.400607944E0,1.074757099E1
6.352699310E-1,-1.592144132E0,1.412579060E0,1.071644688E1
6.372535730E-1,-1.541865945E0,1.443703651E0,1.066856289E1
6.392677330E-1,-1.510741234E0,1.489193439E0,1.062307262E1
6.412513760E-1,-1.479616642E0,1.498770237E0,1.060391903E1
6.432350190E-1,-1.448492050E0,1.515529633E0,1.057518864E1
6.452491790E-1,-1.398213744E0,1.556231141E0,1.049618053E1
6.472328210E-1,-1.381454349E0,1.565807939E0,1.044590187E1
6.492469810E-1,-1.326387763E0,1.611297727E0,1.034055710E1
6.512306240E-1,-1.271321058E0,1.649604917E0,1.024478912E1
6.532447840E-1,-1.233013868E0,1.671152830E0,1.020887566E1
6.552284270E-1,-1.163581967E0,1.699883223E0,1.014423275E1
6.572120690E-1,-1.108515382E0,1.740584612E0,1.010592556E1
6.592262290E-1,-1.094150186E0,1.764526606E0,1.007240677E1
6.612098720E-1,-1.031900883E0,1.781286120E0,1.001494598E1
6.632240320E-1,-9.792284966E-1,1.824381709E0,9.964667320E0
6.652076750E-1,-9.648633003E-1,1.850717902E0,9.945513725E0
6.672218350E-1,-9.097966552E-1,1.879448295E0,9.892841339E0
6.692054780E-1,-8.834604025E-1,1.889025092E0,9.878476143E0
6.711891200E-1,-8.762778044E-1,1.932120800E0,9.816226959E0
6.731727630E-1,-8.403648138E-1,1.941697598E0,9.744400978E0
6.751564050E-1,-8.212111592E-1,1.956062794E0,9.713275909E0
6.771705650E-1,-8.020575643E-1,1.963245392E0,9.643844604E0
6.791542080E-1,-8.116343617E-1,1.977610588E0,9.572018623E0
6.811683680E-1,-8.307880163E-1,1.989581585E0,9.545681953E0
6.831520110E-1,-8.283938169E-1,1.996764183E0,9.495404243E0
6.851356530E-1,-8.451532125E-1,2.025494576E0,9.454702377E0
6.871192960E-1,-8.690952063E-1,2.032677174E0,9.449913979E0
6.891029380E-1,-9.121908545E-1,2.051830769E0,9.459490776E0
6.911170990E-1,-9.481038451E-1,2.063801765E0,9.504981041E0
6.931007410E-1,-9.672574997E-1,2.073378563E0,9.524134636E0
6.951149010E-1,-1.000776291E0,2.087743998E0,9.569623947E0
6.971290610E-1,-1.029506683E0,2.099714994E0,9.605537415E0
6.991127040E-1,-1.043871999E0,2.090138197E0,9.651026726E0
7.011268640E-1,-1.065419793E0,2.082955360E0,9.732429504E0
7.031105070E-1,-1.058237195E0,2.080561161E0,9.806650162E0
7.050941490E-1,-1.053448796E0,2.080561161E0,9.854534149E0
7.070777920E-1,-1.043871999E0,2.054224968E0,9.947908401E0
7.090614350E-1,-1.031900883E0,2.039859772E0,9.998186111E0
7.110450770E-1,-1.007958889E0,2.018311977E0,1.006761837E1
7.130592370E-1,-1.007958889E0,1.987187386E0,1.012029076E1
7.150428800E-1,-1.005564690E0,1.968033791E0,1.014423275E1
7.170570400E-1,-9.840168953E-1,1.939303398E0,1.019451046E1
7.190406830E-1,-9.983820915E-1,1.905784607E0,1.022563553E1
7.210243250E-1,-1.007958889E0,1.881842494E0,1.023760605E1
7.230079680E-1,-1.024718285E0,1.841141105E0,1.025436592E1
7.249916100E-1,-1.074996591E0,1.807622313E0,1.026394272E1
7.269752530E-1,-1.094150186E0,1.805228114E0,1.024718285E1
7.289588950E-1,-1.137245774E0,1.771709204E0,1.023042393E1
7.309730560E-1,-1.168370485E0,1.762132406E0,1.021366405E1
7.329566980E-1,-1.185129881E0,1.759738207E0,1.019690514E1
7.349403410E-1,-1.216254473E0,1.728613615E0,1.013226128E1
7.369239830E-1,-1.213860273E0,1.719036818E0,1.010113716E1
7.389076260E-1,-1.201889277E0,1.704671621E0,1.005085850E1
7.409217860E-1,-1.177947283E0,1.692700624E0,9.986215591E0
7.429054290E-1,-1.146822572E0,1.704671621E0,9.952696800E0
7.449195890E-1,-1.065419793E0,1.750161409E0,9.868899345E0
7.469032310E-1,-1.065419793E0,1.731007814E0,9.849745750E0
7.489173920E-1,-1.089361787E0,1.719036818E0,9.859322548E0
7.509010340E-1,-1.156399369E0,1.699883223E0,9.828198433E0
7.528846770E-1,-1.199495077E0,1.702277422E0,9.739612579E0
7.548988370E-1,-1.213860273E0,1.692700624E0,9.682151794E0
7.569129970E-1,-1.256955862E0,1.668758631E0,9.567230225E0
7.588966400E-1,-1.300051570E0,1.663970232E0,9.469067574E0
7.608802820E-1,-1.323993564E0,1.656787634E0,9.428366661E0
7.628639250E-1,-1.371877551E0,1.637633920E0,9.342175484E0
7.648780850E-1,-1.407790542E0,1.623268723E0,9.282320023E0
7.668617280E-1,-1.412579060E0,1.616086125E0,9.260771751E0
7.688758880E-1,-1.443703651E0,1.620874524E0,9.246406555E0
7.708900480E-1,-1.455674648E0,1.623268723E0,9.232041359E0
7.728736900E-1,-1.450886250E0,1.632845521E0,9.215282440E0
7.748573330E-1,-1.422155857E0,1.644816518E0,9.203310966E0
7.768409760E-1,-1.398213744E0,1.651999116E0,9.200917244E0
7.788551360E-1,-1.345541358E0,1.654393315E0,9.200917244E0
7.808387780E-1,-1.285686255E0,1.666364431E0,9.217676163E0
7.828529380E-1,-1.247379065E0,1.671152830E0,9.222464561E0
7.848365810E-1,-1.173158884E0,1.685518026E0,9.234436035E0
7.868507410E-1,-1.101332784E0,1.687912226E0,9.251194954E0
7.888343840E-1,-1.060631394E0,1.695094824E0,9.267954826E0
7.908180260E-1,-1.007958889E0,1.716642618E0,9.272743225E0
7.928016690E-1,-9.457096457E-1,1.738190413E0,9.303867340E0
7.947853110E-1,-9.145850539E-1,1.750161409E0,9.325415611E0
7.967994720E-1,-8.451532125E-1,1.757344007E0,9.363722801E0
7.987831140E-1,-7.733271718E-1,1.759738207E0,9.414001465E0
8.007972740E-1,-7.230489254E-1,1.781286120E0,9.440337181E0
8.027503990E-1,-6.440402865E-1,1.819593310E0,9.478644371E0
8.047645600E-1,-6.081272364E-1,1.841141105E0,9.500192642E0
8.067482020E-1,-5.458779931E-1,1.869871497E0,9.528923035E0
8.087623620E-1,-4.620809257E-1,1.886630893E0,9.569623947E0
8.107460050E-1,-4.309563041E-1,1.896207690E0,9.591172218E0
8.127296470E-1,-3.878606856E-1,1.903390408E0,9.605537415E0
8.147438080E-1,-3.567360640E-1,1.927332401E0,9.595960617E0
8.167274500E-1,-3.471592367E-1,1.929726601E0,9.603142738E0
8.187416100E-1,-3.280056417E-1,1.934514999E0,9.600749016E0
8.207252530E-1,-3.447650373E-1,1.948880196E0,9.622296333E0
8.227088950E-1,-3.423708379E-1,1.946485996E0,9.622296333E0
8.246925380E-1,-3.232172430E-1,1.939303398E0,9.631873131E0
8.266761810E-1,-3.160346150E-1,1.936909199E0,9.636661530E0
8.286598230E-1,-2.968810201E-1,1.929726601E0,9.634267807E0
8.306434660E-1,-2.681505978E-1,1.929726601E0,9.624691010E0
8.326576260E-1,-2.777273953E-1,1.915361404E0,9.607931137E0
8.346412690E-1,-2.920926213E-1,1.900996208E0,9.564835548E0
8.366554290E-1,-2.920926213E-1,1.877054095E0,9.540893555E0
8.386390710E-1,-3.184288144E-1,1.869871497E0,9.512163162E0
8.406227140E-1,-3.591302633E-1,1.843535304E0,9.442731857E0
8.426368740E-1,-4.333505034E-1,1.790862918E0,9.375694275E0
8.446205170E-1,-4.764461517E-1,1.776497602E0,9.342175484E0
8.466346770E-1,-5.650315881E-1,1.742978811E0,9.258378029E0
8.486183190E-1,-6.584054828E-1,1.723825216E0,9.224859238E0
8.506324790E-1,-7.110779285E-1,1.702277422E0,9.208099365E0
8.526161220E-1,-7.900865674E-1,1.663970232E0,9.193734169E0
8.545997650E-1,-8.786720037E-1,1.618480325E0,9.205705643E0
8.566139250E-1,-9.193734527E-1,1.601720929E0,9.212887764E0
8.585975670E-1,-1.007958889E0,1.553836942E0,9.253589630E0
8.605812100E-1,-1.079784989E0,1.508347034E0,9.279925346E0
8.625648530E-1,-1.110909581E0,1.498770237E0,9.303867340E0
8.645790130E-1,-1.194706678E0,1.455674648E0,9.363722801E0
8.665626550E-1,-1.216254473E0,1.431732655E0,9.392453194E0
8.685768150E-1,-1.288080573E0,1.417367458E0,9.445125580E0
8.705299400E-1,-1.304839969E0,1.403002143E0,9.536105156E0
8.725441010E-1,-1.323993564E0,1.393425345E0,9.588777542E0
8.745277430E-1,-1.376665950E0,1.355118155E0,9.710882187E0
8.765113860E-1,-1.448492050E0,1.331176162E0,9.821015358E0
8.784950280E-1,-1.493981838E0,1.312022567E0,9.883264542E0
8.804786710E-1,-1.546654344E0,1.295263171E0,9.947908401E0
8.824928310E-1,-1.568202138E0,1.261744261E0,9.993397713E0
8.844764740E-1,-1.577778935E0,1.256955862E0,1.001015759E1
8.864906340E-1,-1.575384736E0,1.256955862E0,1.001255131E1
8.885047940E-1,-1.556231141E0,1.259350061E0,1.002931118E1
8.904884360E-1,-1.539471745E0,1.266532660E0,1.003170490E1
8.925025970E-1,-1.520318031E0,1.290474772E0,1.003170490E1
8.944862390E-1,-1.508347034E0,1.312022567E0,1.003409958E1
8.965003990E-1,-1.517923832E0,1.321599364E0,1.004846478E1
8.984840420E-1,-1.527500629E0,1.350329757E0,1.007001209E1
9.004676850E-1,-1.508347034E0,1.374271750E0,9.895236015E0
9.024818450E-1,-1.441309452E0,1.441309452E0,9.320627213E0
9.044654870E-1,-1.379060149E0,1.556231141E0,8.757989883E0
9.064796470E-1,-1.347935557E0,1.587355733E0,8.530540466E0
9.084632900E-1,-1.381454349E0,1.589749932E0,8.700529099E0
9.104774500E-1,-1.460463047E0,1.551442742E0,9.500192642E0
9.124610930E-1,-1.549048543E0,1.517923832E0,1.001733971E1
9.144447350E-1,-1.800439715E0,1.448492050E0,1.107557678E1
9.164588950E-1,-2.130839586E0,1.383848548E0,1.229662037E1
9.184425380E-1,-2.298433542E0,1.350329757E0,1.291911221E1
9.204566980E-1,-2.552218914E0,1.264138460E0,1.408508873E1
9.224403410E-1,-2.604891539E0,1.201889277E0,1.480095482E1
9.244239830E-1,-2.585737944E0,1.177947283E0,1.491348267E1
9.264076260E-1,-2.442085743E0,1.173158884E0,1.477461910E1
9.283912690E-1,-2.145204782E0,1.137245774E0,1.448013210E1
9.303749110E-1,-1.987187386E0,1.106121182E0,1.437957573E1
9.323585540E-1,-1.766920805E0,1.060631394E0,1.412100124E1
9.343727140E-1,-1.697489023E0,1.060631394E0,1.394861889E1
9.363563560E-1,-1.704671621E0,1.137245774E0,1.330936718E1
9.383705170E-1,-1.857900500E0,1.271321058E0,1.226788998E1
9.403541590E-1,-1.898601890E0,1.347935557E0,1.169806957E1
9.423683190E-1,-1.905784607E0,1.474828243E0,1.057279491E1
9.443519620E-1,-1.886630893E0,1.589749932E0,9.706093788E0
9.463661220E-1,-1.884236693E0,1.630451322E0,9.409213066E0
9.483497650E-1,-1.819593310E0,1.697489023E0,9.066842079E0
9.503639250E-1,-1.628057122E0,1.707065821E0,9.004592896E0
9.523475670E-1,-1.522712231E0,1.692700624E0,9.050082207E0
9.543312100E-1,-1.398213744E0,1.685518026E0,9.155426979E0
9.563453700E-1,-1.340752959E0,1.687912226E0,9.253589630E0
9.583290130E-1,-1.302445769E0,1.702277422E0,9.296685219E0
9.603431730E-1,-1.288080573E0,1.735796213E0,9.327810287E0
9.623573330E-1,-1.343147159E0,1.776497602E0,9.323021889E0
9.643409760E-1,-1.386242747E0,1.793257117E0,9.334992409E0
9.663551360E-1,-1.489193439E0,1.831564307E0,9.346963882E0
9.683387780E-1,-1.565807939E0,1.850717902E0,9.378087997E0
9.703529380E-1,-1.601720929E0,1.900996208E0,9.416395187E0
9.723365810E-1,-1.649604917E0,1.922544003E0,9.481039047E0
9.743507410E-1,-1.661576033E0,1.941697598E0,9.538499832E0
9.763343840E-1,-1.635239720E0,1.972822189E0,9.636661530E0
9.783180260E-1,-1.618480325E0,1.999158382E0,9.744400978E0
9.803321860E-1,-1.604115129E0,2.008735180E0,9.777919769E0
9.823158290E-1,-1.654393315E0,1.953668594E0,9.828198433E0
9.843299890E-1,-1.726219416E0,1.838746905E0,9.809044838E0
9.863441490E-1,-1.690306425E0,1.850717902E0,9.804255486E0
9.883277920E-1,-1.592144132E0,1.920149803E0,9.849745750E0
9.903114350E-1,-1.618480325E0,1.989581585E0,9.852140427E0
9.922950770E-1,-1.630451322E0,2.008735180E0,9.852140427E0
9.943092370E-1,-1.692700624E0,2.044648170E0,9.971850395E0
9.962928800E-1,-1.742978811E0,2.068590164E0,9.964667320E0
9.983070400E-1,-1.731007814E0,2.063801765E0,9.923966408E0
1.000290683E0,-1.659181833E0,2.102109194E0,9.852140427E0
1.002274325E0,-1.608903527E0,2.133233786E0,9.844957352E0
1.004227450E0,-1.596932530E0,2.147598982E0,9.854534149E0
1.006241610E0,-1.558625340E0,2.169146776E0,9.890447617E0
1.008225253E0,-1.553836942E0,2.176329374E0,9.928754807E0
1.010208895E0,-1.525106430E0,2.195482969E0,9.988609314E0
1.012223056E0,-1.443703651E0,2.207453966E0,1.005085850E1
1.014206698E0,-1.405396342E0,2.214636564E0,1.009156036E1
1.016220858E0,-1.383848548E0,2.229001760E0,1.019690514E1
1.018204501E0,-1.362300754E0,2.229001760E0,1.027830791E1
1.020218661E0,-1.352723956E0,2.221819162E0,1.030943298E1
1.022202304E0,-1.333570361E0,2.202665567E0,1.031661510E1
1.024185946E0,-1.374271750E0,2.161964178E0,1.034534550E1
1.026169589E0,-1.414973259E0,2.154781580E0,1.033816338E1
1.028153231E0,-1.429338455E0,2.140416384E0,1.033098030E1
1.030136874E0,-1.446097851E0,2.126051188E0,1.027351952E1
1.032120517E0,-1.472434044E0,2.111685991E0,1.026394272E1
1.034134677E0,-1.527500629E0,2.085349798E0,1.027591324E1
1.036118319E0,-1.628057122E0,2.066195965E0,1.029267311E1
1.038132479E0,-1.671152830E0,2.032677174E0,1.032140350E1
1.040116122E0,-1.752555609E0,1.968033791E0,1.030703831E1
1.042099765E0,-1.757344007E0,1.951274395E0,1.027830791E1
1.044113925E0,-1.817199111E0,1.855506301E0,1.025675964E1
1.046097567E0,-1.977610588E0,1.716642618E0,1.025436592E1
1.048111728E0,-1.989581585E0,1.699883223E0,1.028309631E1
1.050095370E0,-1.953668594E0,1.680729628E0,1.023521233E1
1.052079013E0,-1.953668594E0,1.620874524E0,1.013465595E1
1.054093173E0,-1.934514999E0,1.592144132E0,1.010592556E1
1.056076815E0,-1.896207690E0,1.532289028E0,1.011071396E1
1.058090976E0,-1.826775908E0,1.541865945E0,1.016338634E1
1.060105136E0,-1.807622313E0,1.568202138E0,1.022802925E1
1.062088778E0,-1.757344007E0,1.620874524E0,1.033576870E1
1.064041903E0,-1.731007814E0,1.704671621E0,1.046505547E1
1.066056063E0,-1.740584612E0,1.745373011E0,1.052251625E1
1.068039706E0,-1.752555609E0,1.826775908E0,1.053209305E1
1.070023349E0,-1.752555609E0,1.881842494E0,1.051533413E1
1.072037509E0,-1.762132406E0,1.989581585E0,1.044590187E1
1.074021151E0,-1.759738207E0,2.073378563E0,1.036689377E1
1.076035311E0,-1.738190413E0,2.114080191E0,1.033337498E1
1.078049472E0,-1.716642618E0,2.173935175E0,1.026873112E1
1.080033114E0,-1.613691926E0,2.219424963E0,1.024239445E1
1.082016757E0,-1.561019540E0,2.238578558E0,1.025436592E1
1.084000399E0,-1.441309452E0,2.243366957E0,1.024478912E1
1.085984042E0,-1.340752959E0,2.236184359E0,1.028549004E1
1.087967685E0,-1.278503656E0,2.236184359E0,1.029985619E1
1.089981845E0,-1.146822572E0,2.238578558E0,1.031182671E1
1.091965487E0,-9.959878922E-1,2.245761156E0,1.029267311E1
1.093979647E0,-9.385270476E-1,2.240972757E0,1.029267311E1
1.095963290E0,-8.427590132E-1,2.236184359E0,1.031182671E1
1.097946933E0,-7.972691655E-1,2.255337954E0,1.032140350E1
1.099961093E0,-7.900865674E-1,2.262520552E0,1.032379818E1
1.101944735E0,-7.900865674E-1,2.305616140E0,1.033098030E1
1.103928378E0,-7.781155705E-1,2.327163935E0,1.033816338E1
1.105912020E0,-7.781155705E-1,2.363077164E0,1.032858658E1
1.107895663E0,-8.834604025E-1,2.413355350E0,1.036449909E1
1.109879306E0,-9.145850539E-1,2.442085743E0,1.038844109E1
1.111893466E0,-9.768342972E-1,2.473210335E0,1.046505547E1
1.113877108E0,-9.888052940E-1,2.454056740E0,1.049378586E1
1.115891269E0,-9.840168953E-1,2.446874142E0,1.050575733E1
1.117874911E0,-9.193734527E-1,2.430114746E0,1.048420906E1
1.119858554E0,-8.714894056E-1,2.442085743E0,1.046266174E1
1.121872714E0,-8.882488012E-1,2.504334927E0,1.046745014E1
1.123856356E0,-8.810662031E-1,2.595314741E0,1.045308495E1
1.125870517E0,-8.355764151E-1,2.645592928E0,1.041956615E1
1.127884677E0,-8.307880163E-1,2.659958124E0,1.042435455E1
1.129868319E0,-7.685387731E-1,2.693476915E0,1.039562416E1
1.131851962E0,-7.661445141E-1,2.762908697E0,1.036689377E1
1.133835604E0,-7.613561153E-1,2.796427488E0,1.034055710E1
1.135849765E0,-6.823474765E-1,2.882618904E0,1.022802925E1
1.137833407E0,-6.105214357E-1,2.930502892E0,1.020169353E1
1.139847567E0,-6.105214357E-1,2.992752075E0,1.019451046E1
1.141831210E0,-5.674257874E-1,3.057395458E0,1.017056847E1
1.143814853E0,-5.434837937E-1,3.098097086E0,1.015141487E1
1.145798495E0,-4.908113480E-1,3.179499865E0,1.017535686E1
1.147782138E0,-5.099649429E-1,3.287238836E0,1.020408726E1
1.149765780E0,-5.147533417E-1,3.323152065E0,1.024000072E1
1.151749423E0,-5.123591423E-1,3.392583847E0,1.031182671E1
1.153763583E0,-4.453215301E-1,3.459621429E0,1.040520096E1
1.155747226E0,-4.333505034E-1,3.483563423E0,1.049378586E1
1.157730868E0,-4.596867263E-1,3.490746021E0,1.062067890E1
1.159714511E0,-5.051765442E-1,3.488351822E0,1.067574501E1
1.161698153E0,-5.482721925E-1,3.481169224E0,1.070687008E1
1.163712313E0,-6.584054828E-1,3.421314240E0,1.074038887E1
1.165695956E0,-7.326257229E-1,3.385401249E0,1.074278259E1
1.167710116E0,-7.541735172E-1,3.315969467E0,1.076433086E1
1.169724276E0,-8.355764151E-1,3.229778051E0,1.079545593E1
1.171707919E0,-8.762778044E-1,3.184288263E0,1.081700325E1
1.173691561E0,-9.265560508E-1,3.064578056E0,1.078827286E1
1.175675204E0,-9.672574997E-1,2.975992680E0,1.075475407E1
1.177689364E0,-9.720458984E-1,2.920926094E0,1.071644688E1
1.179673007E0,-1.015141487E0,2.829946518E0,1.070208168E1
1.181687167E0,-1.082179189E0,2.755726099E0,1.069011021E1
1.183670810E0,-1.089361787E0,2.722207308E0,1.068771648E1
1.185684970E0,-1.101332784E0,2.683900118E0,1.063504410E1
1.187699130E0,-1.125274777E0,2.664746523E0,1.055603504E1
1.189682772E0,-1.142034173E0,2.659958124E0,1.049618053E1
1.191666415E0,-1.110909581E0,2.659958124E0,1.038604736E1
1.193650058E0,-1.110909581E0,2.652775526E0,1.031661510E1
1.195664218E0,-1.091755986E0,2.674323320E0,1.027830791E1
1.197678378E0,-1.027112484E0,2.710236311E0,1.020648193E1
1.199662020E0,-9.145850539E-1,2.712630510E0,1.021127033E1
1.201645663E0,-8.547300100E-1,2.712630510E0,1.018732834E1
1.203629306E0,-7.326257229E-1,2.724601507E0,1.015141487E1
1.205612948E0,-6.775590777E-1,2.736572504E0,1.012986755E1
1.207596591E0,-6.033388376E-1,2.760514498E0,1.010831928E1
1.209610751E0,-5.602431893E-1,2.777273893E0,1.008677197E1
1.211594394E0,-5.793967843E-1,2.796427488E0,1.008677197E1
1.213578036E0,-5.434837937E-1,2.839523315E0,1.002212811E1
1.215561679E0,-5.051765442E-1,2.865859509E0,1.002931118E1
1.217545321E0,-5.195417404E-1,2.875436306E0,1.001973438E1
1.219559481E0,-4.955997467E-1,2.925714493E0,9.967061996E0
1.221543124E0,-4.884171486E-1,2.975992680E0,9.935936928E0
1.223557284E0,-4.860229492E-1,3.009511471E0,9.900024414E0
1.225571444E0,-4.668693244E-1,3.050212860E0,9.897629738E0
1.227555087E0,-4.525041282E-1,3.086126089E0,9.830592155E0
1.229538729E0,-4.620809257E-1,3.100491285E0,9.813833237E0
1.231522372E0,-4.548983276E-1,3.112462282E0,9.749189377E0
1.233536532E0,-4.644751251E-1,3.114856482E0,9.651026726E0
1.235520175E0,-4.501099288E-1,3.100491285E0,9.619902611E0
1.237534335E0,-4.429273009E-1,3.105279684E0,9.548076630E0
1.239517978E0,-4.333505034E-1,3.105279684E0,9.509769440E0
1.241501620E0,-3.830722570E-1,3.100491285E0,9.428366661E0
1.243515780E0,-2.968810201E-1,3.066972494E0,9.356540680E0
1.245499423E0,-2.729389966E-1,3.064578056E0,9.325415611E0
1.247513583E0,-2.298433632E-1,3.040636063E0,9.311050415E0
1.249497226E0,-1.651999205E-1,3.007117271E0,9.303867340E0
1.251511386E0,-1.364694983E-1,2.990357876E0,9.289502144E0
1.253495028E0,-8.379705995E-2,2.944868088E0,9.303867340E0
1.255478671E0,-9.576806799E-3,2.904166698E0,9.320627213E0
1.257492831E0,4.788403399E-3,2.873042107E0,9.330204010E0
1.259476474E0,1.005564705E-1,2.839523315E0,9.366117477E0
1.261490634E0,1.891419291E-1,2.789244890E0,9.416395187E0
1.263474276E0,2.298433632E-1,2.762908697E0,9.433155060E0
1.265488436E0,2.968810201E-1,2.693476915E0,9.500192642E0
1.267472079E0,3.543418646E-1,2.609679937E0,9.540893555E0
1.269486239E0,3.639186621E-1,2.578555346E0,9.540893555E0
1.271469882E0,3.950432837E-1,2.523488522E0,9.555258751E0
1.273453524E0,3.782838583E-1,2.497152328E0,9.543288231E0
1.275437167E0,3.495534360E-1,2.446874142E0,9.524134636E0
1.277420810E0,3.184288144E-1,2.422932148E0,9.459490776E0
1.279434970E0,3.160346150E-1,2.425326347E0,9.409213066E0
1.281418612E0,3.256114423E-1,2.439691544E0,9.294290543E0
1.283432772E0,2.825157940E-1,2.489969730E0,9.210494041E0
1.285416415E0,2.585737705E-1,2.516305923E0,9.165003777E0
1.287430575E0,2.394201756E-1,2.561795712E0,9.088389397E0
1.289414218E0,2.801215947E-1,2.628833532E0,9.011775017E0
1.291397860E0,3.016694188E-1,2.664746523E0,8.966285706E0
1.293381503E0,3.639186621E-1,2.722207308E0,8.875306129E0
1.295365145E0,3.998316824E-1,2.791639090E0,8.841787338E0
1.297379306E0,4.213795066E-1,2.808398485E0,8.829815865E0
1.299362948E0,4.932055473E-1,2.880224705E0,8.748413086E0
1.301377108E0,6.129156351E-1,2.983175278E0,8.719682693E0
1.303360751E0,6.799532771E-1,3.040636063E0,8.734047890E0
1.305344394E0,7.972691655E-1,3.136404276E0,8.762778282E0
1.307328036E0,8.379706144E-1,3.179499865E0,8.762778282E0
1.309311679E0,9.552865028E-1,3.229778051E0,8.796297073E0
1.311325839E0,1.072602391E0,3.292027235E0,8.789113998E0
1.313309481E0,1.122880578E0,3.318363667E0,8.805873871E0
1.315323642E0,1.216254473E0,3.375824451E0,8.820239067E0
1.317307284E0,1.300051570E0,3.406949043E0,8.825027466E0
1.319290927E0,1.333570361E0,3.428496838E0,8.839392662E0
1.321305087E0,1.414973259E0,3.462015629E0,8.889671326E0
1.323288729E0,1.496376038E0,3.478775024E0,8.947132111E0
1.325302890E0,1.513135433E0,3.490746021E0,8.954314232E0
1.327317050E0,1.539471745E0,3.500322819E0,8.944737434E0
1.329300692E0,1.558625340E0,3.502717018E0,8.894459724E0
1.331284335E0,1.551442742E0,3.497928619E0,8.877699852E0
1.333267978E0,1.532289028E0,3.495534420E0,8.887276649E0
1.335282138E0,1.515529633E0,3.488351822E0,8.829815865E0
1.337265780E0,1.520318031E0,3.459621429E0,8.803479195E0
1.339279940E0,1.510741234E0,3.426102638E0,8.777143478E0
1.341263583E0,1.527500629E0,3.404554844E0,8.734047890E0
1.343277743E0,1.549048543E0,3.378218651E0,8.631096840E0
1.345261386E0,1.563413739E0,3.339911461E0,8.497021675E0
1.347275546E0,1.582567334E0,3.327940464E0,8.439560890E0
1.349259188E0,1.618480325E0,3.323152065E0,8.355764389E0
1.351242831E0,1.719036818E0,3.289633036E0,8.267178535E0
1.353226474E0,1.754949808E0,3.282450438E0,8.226476669E0
1.355210116E0,1.853112102E0,3.256114244E0,8.212111473E0
1.357224276E0,1.963245392E0,3.239354849E0,8.192957878E0
1.359207919E0,2.015917778E0,3.229778051E0,8.176198959E0
1.361222079E0,2.082955360E0,3.203441858E0,8.104372978E0
1.363175204E0,2.102109194E0,3.174711466E0,8.054094315E0
1.365189364E0,2.111685991E0,3.169923067E0,8.018181801E0
1.367173007E0,2.082955360E0,3.150769472E0,7.958326340E0
1.369156649E0,2.023100376E0,3.134010077E0,7.869740963E0
1.371170810E0,2.006340981E0,3.110068083E0,7.831433773E0
1.373154452E0,2.008735180E0,3.102885485E0,7.773972988E0
1.375138095E0,2.027888775E0,3.090914488E0,7.730877399E0
1.377121737E0,2.085349798E0,3.062183857E0,7.654263020E0
1.379105380E0,2.185906172E0,3.026270866E0,7.603984833E0
1.381119540E0,2.262520552E0,3.009511471E0,7.580042362E0
1.383103183E0,2.413355350E0,2.997540474E0,7.527369976E0
1.385117343E0,2.557007313E0,2.968810081E0,7.493851185E0
1.387100985E0,2.633621931E0,2.956839085E0,7.469909191E0
1.389115145E0,2.782062292E0,2.995146275E0,7.422025204E0
1.391098788E0,2.889801502E0,3.033453465E0,7.460332394E0
1.393082431E0,2.923320293E0,3.043030262E0,7.486668587E0
1.395066073E0,3.050212860E0,3.055001259E0,7.496245384E0
1.397049716E0,3.090914488E0,3.069366693E0,7.469909191E0
1.399063876E0,3.086126089E0,3.090914488E0,7.474697590E0
1.401047519E0,3.095702887E0,3.124433279E0,7.527369976E0
1.403061679E0,3.110068083E0,3.124433279E0,7.505822182E0
1.405075839E0,3.131615877E0,3.129221678E0,7.498639584E0
1.407059481E0,3.153163671E0,3.119644880E0,7.438784599E0
1.409043124E0,3.148375273E0,3.119644880E0,7.398083210E0
1.411026767E0,3.119644880E0,3.148375273E0,7.340622425E0
1.413040927E0,3.117250681E0,3.167528868E0,7.302315235E0
1.415024569E0,3.131615877E0,3.174711466E0,7.271190643E0
1.417038729E0,3.148375273E0,3.189076662E0,7.242460251E0
1.419022372E0,3.162740469E0,3.198653460E0,7.220912457E0
1.421036532E0,3.157952070E0,3.184288263E0,7.220912457E0
1.422989657E0,3.198653460E0,3.172317266E0,7.235277653E0
1.425003817E0,3.241749048E0,3.129221678E0,7.261613846E0
1.426987460E0,3.239354849E0,3.112462282E0,7.271190643E0
1.428971103E0,3.318363667E0,3.093308687E0,7.189787865E0
1.430954745E0,3.421314240E0,3.083731890E0,7.089231014E0
1.432938388E0,3.450044632E0,3.040636063E0,7.053318024E0
1.434952548E0,3.495534420E0,3.023876667E0,7.046135426E0
1.436966708E0,3.505111217E0,3.019088268E0,7.062894821E0
1.438950351E0,3.557783842E0,3.014299870E0,7.046135426E0
1.440933993E0,3.579331636E0,3.028665066E0,7.053318024E0
1.442917636E0,3.586514235E0,3.026270866E0,7.058106422E0
1.444901278E0,3.588908434E0,3.016694069E0,7.036558628E0
1.446884921E0,3.632004023E0,3.007117271E0,7.012616634E0
1.448899081E0,3.665522814E0,2.997540474E0,6.981492043E0
1.450882724E0,3.727771997E0,2.975992680E0,6.914454460E0
1.452896884E0,3.806780815E0,2.966415882E0,6.859387875E0
1.454880526E0,3.818751812E0,2.968810081E0,6.811503887E0
1.456864169E0,3.792415380E0,2.992752075E0,6.742072105E0
1.458878329E0,3.708618402E0,3.038241863E0,6.734889507E0
1.460861972E0,3.665522814E0,3.059789658E0,6.763619900E0
1.462876132E0,3.622427225E0,3.059789658E0,6.801927090E0
1.464859774E0,3.646369219E0,3.086126089E0,6.830657482E0
1.466873935E0,3.713406801E0,3.107673883E0,6.804321289E0
1.468857577E0,3.854664803E0,3.124433279E0,6.766014099E0
1.470841220E0,3.928884983E0,3.134010077E0,6.754043102E0
1.472824862E0,3.960009575E0,3.143586874E0,6.789956093E0
1.474808505E0,3.950432777E0,3.165134668E0,6.847416878E0
1.476822665E0,3.950432777E0,3.162740469E0,6.876147270E0
1.478806308E0,3.955221176E0,3.145981073E0,6.847416878E0
1.480820468E0,4.007893562E0,3.145981073E0,6.811503887E0
1.482834628E0,4.031835556E0,3.141192675E0,6.766014099E0
1.484818270E0,4.091690540E0,3.141192675E0,6.634333134E0
1.486801913E0,4.101267338E0,3.157952070E0,6.485892296E0
1.488785556E0,4.122815132E0,3.160346270E0,6.375759125E0
1.490799716E0,4.177882195E0,3.162740469E0,6.095637321E0
1.492783358E0,4.197035789E0,3.174711466E0,5.925649166E0
1.494797519E0,4.213795185E0,3.169923067E0,5.887341976E0
1.496781161E0,4.237737179E0,3.157952070E0,5.837063789E0
1.498795321E0,4.252102375E0,3.136404276E0,5.779603004E0
1.500778964E0,4.278438568E0,3.112462282E0,5.746084213E0
1.502762606E0,4.333505154E0,3.062183857E0,5.767632008E0
1.504746249E0,4.359841347E0,3.040636063E0,5.772420406E0
1.506729892E0,4.376600742E0,2.978386879E0,5.846640587E0
1.508744052E0,4.446032524E0,2.932897091E0,5.872976780E0
1.510727694E0,4.460397720E0,2.904166698E0,5.870582581E0
1.512741854E0,4.556165695E0,2.865859509E0,5.832275391E0
1.514694979E0,4.661510944E0,2.829946518E0,5.758055210E0
1.516709140E0,4.723760128E0,2.803610086E0,5.714959621E0
1.518692782E0,4.812345505E0,2.762908697E0,5.662287235E0
1.520676425E0,4.900930882E0,2.700659513E0,5.623979568E0
1.522690585E0,4.939238071E0,2.683900118E0,5.585672379E0
1.524674228E0,5.042188644E0,2.624045134E0,5.547365189E0
1.526688388E0,5.125985622E0,2.566584110E0,5.525817394E0
1.528702548E0,5.171475887E0,2.540247917E0,5.523423195E0
1.530686190E0,5.252878666E0,2.444479942E0,5.513846397E0
1.532669833E0,5.272032261E0,2.401384354E0,5.461174011E0
1.534653476E0,5.274426460E0,2.343923569E0,5.415684223E0
1.536667636E0,5.286397457E0,2.293645144E0,5.346252441E0
1.538651278E0,5.293580055E0,2.264914751E0,5.339069843E0
1.540665438E0,5.298368454E0,2.214636564E0,5.346252441E0
1.542679599E0,5.353435040E0,2.173935175E0,5.353435040E0
1.544663241E0,5.396530628E0,2.154781580E0,5.351040840E0
1.546646884E0,5.518634796E0,2.090138197E0,5.401319027E0
1.548630526E0,5.767632008E0,2.006340981E0,5.367800236E0
1.550644686E0,5.899312973E0,1.960851192E0,5.363011837E0
1.552628329E0,6.129156113E0,1.889025092E0,5.372588634E0
1.554611972E0,6.370970726E0,1.810016513E0,5.365406036E0
1.556595614E0,6.485892296E0,1.783680320E0,5.363011837E0
1.558579257E0,6.684611320E0,1.733402014E0,5.413290024E0
1.560593417E0,6.902483463E0,1.690306425E0,5.427655220E0
1.562577060E0,6.976703644E0,1.666364431E0,5.434837818E0
1.564591220E0,7.165845871E0,1.616086125E0,5.372588634E0
1.566605380E0,7.295132637E0,1.537077546E0,5.386953831E0
1.568589022E0,7.321468830E0,1.491587639E0,5.425261021E0
1.570572665E0,7.347805023E0,1.419761658E0,5.525817394E0
1.572556308E0,7.376535416E0,1.381454349E0,5.559336185E0
1.574570468E0,7.429207802E0,1.321599364E0,5.650316238E0
1.576554110E0,7.438784599E0,1.252167463E0,5.832275391E0
1.578568270E0,7.424419403E0,1.216254473E0,5.944802761E0
1.580551913E0,7.343016624E0,1.199495077E0,6.208165169E0
1.582566073E0,7.206547260E0,1.185129881E0,6.411672115E0
1.584580233E0,7.127538681E0,1.187524080E0,6.485892296E0
1.586563876E0,6.995857239E0,1.230619669E0,6.591237068E0
1.588547519E0,6.888118267E0,1.280897856E0,6.574477673E0
1.590531161E0,6.842628479E0,1.300051570E0,6.548141479E0
1.592545321E0,6.698976517E0,1.345541358E0,6.476315498E0
1.594528964E0,6.555324078E0,1.359906554E0,6.368576527E0
1.596543124E0,6.485892296E0,1.391031146E0,6.330269337E0
1.598526767E0,6.325480938E0,1.424550056E0,6.251260757E0
1.600510409E0,6.062118530E0,1.470039845E0,6.210559368E0
1.602494052E0,5.930437565E0,1.498770237E0,6.198588371E0
1.604477694E0,5.707777023E0,1.561019540E0,6.186617374E0
1.606461337E0,5.590460777E0,1.587355733E0,6.184223175E0
1.608444979E0,5.442020416E0,1.584961534E0,6.081272125E0
1.610459140E0,5.307945251E0,1.537077546E0,5.920860767E0
1.612442782E0,5.267243862E0,1.486799240E0,5.829881191E0
1.614456942E0,5.190629482E0,1.391031146E0,5.712565422E0
1.616471103E0,5.135562420E0,1.259350061E0,5.604825974E0
1.618454745E0,5.097255230E0,1.187524080E0,5.561730385E0
1.620438388E0,4.991910458E0,1.060631394E0,5.549759388E0
1.622422030E0,4.910507679E0,9.576807022E-1,5.571307182E0
1.624436190E0,4.879383087E0,9.121908545E-1,5.573701382E0
1.626419833E0,4.821922302E0,8.020575643E-1,5.578489780E0
1.628433993E0,4.860229492E0,6.799532771E-1,5.530605793E0
1.630448153E0,4.869806290E0,6.177040339E-1,5.540182590E0
1.632431796E0,4.989516258E0,4.788403511E-1,5.511452198E0
1.634415438E0,5.240907669E0,3.088520169E-1,5.492298603E0
1.636399081E0,5.358223438E0,2.274491638E-1,5.511452198E0
1.638413241E0,5.607220173E0,8.858546615E-2,5.561730385E0
1.640396884E0,5.908889771E0,7.182605099E-3,5.566518784E0
1.642411044E0,6.054935932E0,-1.532289088E-1,5.535394192E0
1.644394686E0,6.303933144E0,-3.064578176E-1,5.518634796E0
1.646378329E0,6.442796707E0,-4.118026793E-1,5.437232018E0
1.648361972E0,6.754043102E0,-5.913678408E-1,5.252878666E0
1.650345614E0,7.062894821E0,-6.991068721E-1,5.341464043E0
1.652359774E0,7.235277653E0,-7.302315235E-1,5.463568211E0
1.654343417E0,7.517793179E0,-7.685387731E-1,5.698200226E0
1.656357577E0,7.769184589E0,-7.876923680E-1,5.892130375E0
1.658341220E0,7.915230751E0,-8.044517636E-1,5.985504150E0
1.660355380E0,8.185775757E0,-8.379706144E-1,6.174646378E0
1.662339022E0,8.458714485E0,-9.026140571E-1,6.301538944E0
1.664353183E0,8.592789650E0,-9.313444495E-1,6.344634533E0
1.666367343E0,8.822632790E0,-1.012747288E0,6.461950302E0
1.668350985E0,8.980650902E0,-1.079784989E0,6.615179062E0
1.670334628E0,9.066842079E0,-1.115697980E0,6.718130112E0
1.672318270E0,9.208099365E0,-1.180341482E0,6.940790653E0
1.674332431E0,9.332598686E0,-1.206677675E0,7.019799232E0
1.676316073E0,9.346963882E0,-1.280897856E0,7.216124058E0
1.678330233E0,9.270348549E0,-1.335964561E0,7.369352818E0
1.680313876E0,9.232041359E0,-1.352723956E0,7.453149796E0
1.682297519E0,9.095572472E0,-1.371877551E0,7.603984833E0
1.684281161E0,8.894459724E0,-1.386242747E0,7.694964409E0
1.686264804E0,8.784325600E0,-1.405396342E0,7.709329605E0
1.688248446E0,8.537723541E0,-1.422155857E0,7.589619160E0
1.690232089E0,8.329427719E0,-1.410184860E0,7.453149796E0
1.692246249E0,8.195352554E0,-1.403002143E0,7.405265808E0
1.694229892E0,7.917624950E0,-1.381454349E0,7.335834026E0
1.696213534E0,7.582436562E0,-1.355118155E0,7.240066051E0
1.698197177E0,7.402871609E0,-1.323993564E0,7.180211067E0
1.700180819E0,7.072471619E0,-1.266532660E0,7.091625214E0
1.702194979E0,6.734889507E0,-1.242590666E0,7.072471619E0
1.704178622E0,6.562506676E0,-1.194706678E0,7.105990410E0
1.706192782E0,6.251260757E0,-1.137245774E0,7.187393665E0
1.708206942E0,6.093243122E0,-1.113303781E0,7.218518257E0
1.710190585E0,5.793968201E0,-1.072602391E0,7.232883453E0
1.712174228E0,5.564124584E0,-1.024718285E0,7.220912457E0
1.714157870E0,5.463568211E0,-1.027112484E0,7.244854450E0
1.716172030E0,5.377377033E0,-1.103726983E0,7.043741226E0
1.718155673E0,5.336675644E0,-1.252167463E0,6.773196697E0
1.720169833E0,5.339069843E0,-1.319205165E0,6.694188118E0
1.722183993E0,5.298368454E0,-1.398213744E0,6.684611320E0
1.724167636E0,5.279214859E0,-1.434126854E0,6.828263283E0
1.726151278E0,5.284003258E0,-1.472434044E0,6.909666061E0
1.728134921E0,5.300762653E0,-1.525106430E0,7.120356083E0
1.730149081E0,5.286397457E0,-1.601720929E0,7.295132637E0
1.732132724E0,5.281609058E0,-1.663970232E0,7.331045628E0
1.734146884E0,5.300762653E0,-1.795651317E0,7.333439827E0
1.736130526E0,5.408501625E0,-1.944091797E0,7.412448406E0
1.738144686E0,5.465962410E0,-2.020706177E0,7.462726593E0
1.740128329E0,5.628767967E0,-2.185906172E0,7.534552574E0
1.742111972E0,5.741295815E0,-2.269703150E0,7.548917770E0
1.744095614E0,6.009446144E0,-2.410961151E0,7.548917770E0
1.746079257E0,6.318298340E0,-2.454056740E0,7.651868820E0
1.748062899E0,6.457161903E0,-2.466027737E0,7.762001991E0
1.750046542E0,6.794744492E0,-2.521094322E0,7.795520782E0
1.752060702E0,7.065289021E0,-2.576161146E0,7.711723804E0
1.754044345E0,7.218518257E0,-2.612074137E0,7.534552574E0
1.756058505E0,7.596801758E0,-2.676717520E0,7.225700855E0
1.758042147E0,7.886500359E0,-2.755726099E0,6.981492043E0
1.760025790E0,8.010998726E0,-2.794033289E0,6.921637058E0
1.762039950E0,8.231265068E0,-2.839523315E0,7.005434036E0
1.764023593E0,8.379706383E0,-2.899378300E0,7.184999466E0
1.766037753E0,8.465897560E0,-2.916137695E0,7.283161640E0
1.768021395E0,8.614337921E0,-2.971204281E0,7.508216381E0
1.770035556E0,8.695740700E0,-3.007117271E0,7.766790390E0
1.772019198E0,8.693346024E0,-3.071760893E0,7.886500359E0
1.774002841E0,8.643068314E0,-3.143586874E0,8.082824707E0
1.775986483E0,8.621520042E0,-3.160346270E0,8.183381081E0
1.777970126E0,8.628703117E0,-3.222595453E0,8.358158112E0
1.779984286E0,8.358158112E0,-3.268085241E0,8.556877136E0
1.781967929E0,8.183381081E0,-3.289633036E0,8.688557625E0
1.783982089E0,7.776367188E0,-3.335123062E0,8.966285706E0
1.785996249E0,7.316680431E0,-3.368641853E0,9.179368973E0
1.787979892E0,7.065289021E0,-3.387795448E0,9.325415611E0
1.789963534E0,6.543353081E0,-3.438073635E0,9.641449928E0
1.791947177E0,6.117185116E0,-3.481169224E0,9.868899345E0
1.793961337E0,5.932831764E0,-3.497928619E0,9.955090523E0
1.795944979E0,5.621585369E0,-3.507505417E0,1.002691650E1
1.797959140E0,5.398924828E0,-3.531447411E0,1.000058079E1
1.799973300E0,5.295974255E0,-3.524264812E0,9.979032516E0
1.801956942E0,5.030217648E0,-3.517082214E0,9.991003990E0
1.803971103E0,4.848258495E0,-3.521870613E0,9.856928825E0
1.805954745E0,4.783615112E0,-3.519476414E0,9.777919769E0
1.807938388E0,4.678270340E0,-3.505111217E0,9.564835548E0
1.809922030E0,4.570530891E0,-3.490746021E0,9.497797966E0
1.811936190E0,4.338293552E0,-3.473986626E0,9.531316757E0
1.813919833E0,4.173093796E0,-3.493140221E0,9.435548782E0
1.815933993E0,4.103661537E0,-3.500322819E0,9.418789864E0
1.817917636E0,3.974374771E0,-3.497928619E0,9.423578262E0
1.819931796E0,3.861847401E0,-3.493140221E0,9.493009567E0
1.821915438E0,3.842693806E0,-3.483563423E0,9.538499832E0
1.823929599E0,3.780444384E0,-3.469198227E0,1.007001209E1
1.825913241E0,3.751713991E0,-3.476380825E0,1.076911926E1
1.827896884E0,3.751713991E0,-3.478775024E0,1.114022064E1
1.829880526E0,3.756502390E0,-3.459621429E0,1.183214474E1
1.831864169E0,3.797203779E0,-3.452438831E0,1.245224285E1
1.833878329E0,3.876212597E0,-3.483563423E0,1.257434750E1
1.835861972E0,4.122815132E0,-3.572149038E0,1.234210968E1
1.837876132E0,4.417302132E0,-3.684676409E0,1.185129833E1
1.839859774E0,4.611232281E0,-3.775655985E0,1.146343803E1
1.841843417E0,4.936843872E0,-3.993528366E0,1.066377449E1
1.843827060E0,5.051765442E0,-4.115632534E0,1.021366405E1
1.845810702E0,5.276820660E0,-4.323928356E0,9.414001465E0
1.847794345E0,5.528211594E0,-4.431667328E0,8.834604263E0
1.849777987E0,5.621585369E0,-4.477157116E0,8.722076416E0
1.851792147E0,5.748478413E0,-4.575319290E0,8.564059258E0
1.853775790E0,5.805939198E0,-4.649539471E0,8.753201485E0
1.855759433E0,5.834669590E0,-4.661510944E0,8.913613319E0
1.857743075E0,5.829881191E0,-4.630385876E0,9.162610054E0
1.859726718E0,5.892130375E0,-4.565742493E0,9.255983353E0
1.861740878E0,5.942408562E0,-4.527435303E0,9.270348549E0
1.863724520E0,6.016628742E0,-4.443638325E0,9.246406555E0
1.865738681E0,6.014234543E0,-4.400542736E0,9.174580574E0
1.867722323E0,5.987898350E0,-4.369418144E0,9.174580574E0
1.869736483E0,5.911283970E0,-4.326322556E0,9.167398453E0
1.871720126E0,5.841852188E0,-4.297592163E0,9.196128845E0
1.873703769E0,5.686229229E0,-4.288015366E0,9.270348549E0
1.875717929E0,5.578489780E0,-4.302380562E0,9.452308655E0
1.877701571E0,5.501875401E0,-4.309563160E0,9.540893555E0
1.879715731E0,5.384559631E0,-4.335899353E0,9.607931137E0
1.881668856E0,5.346252441E0,-4.388571739E0,9.600749016E0
1.883683017E0,5.343858242E0,-4.407725334E0,9.615114212E0
1.885666659E0,5.324704647E0,-4.443638325E0,9.658209801E0
1.887650302E0,5.147533417E0,-4.489128113E0,9.718064308E0
1.889664462E0,5.020640850E0,-4.510675907E0,9.720458984E0
1.891648104E0,4.850652695E0,-4.539406300E0,9.701305389E0
1.893662265E0,4.778826714E0,-4.563348293E0,9.730035782E0
1.895645907E0,4.769249916E0,-4.580107689E0,9.730035782E0
1.897660067E0,4.709394932E0,-4.587290287E0,9.677363396E0
1.899643710E0,4.608838081E0,-4.611232281E0,9.636661530E0
1.901627353E0,4.546588898E0,-4.620809078E0,9.595960617E0
1.903610995E0,4.405331135E0,-4.596867085E0,9.509769440E0
1.905594638E0,4.338293552E0,-4.577713490E0,9.478644371E0
1.907578280E0,4.223371983E0,-4.525041103E0,9.358934402E0
1.909561923E0,4.079719543E0,-4.462791920E0,9.200917244E0
1.911576083E0,3.969586372E0,-4.414907932E0,9.153033257E0
1.913559726E0,3.727771997E0,-4.304774761E0,9.069235802E0
1.915573886E0,3.524264812E0,-4.194641590E0,8.983044624E0
1.917557528E0,3.428496838E0,-4.132391930E0,8.939949036E0
1.919541171E0,3.246537447E0,-4.005499363E0,8.808267593E0
1.921524813E0,3.062183857E0,-3.897760391E0,8.698134422E0
1.923508456E0,2.930502892E0,-3.842693806E0,8.626308441E0
1.925492099E0,2.612074137E0,-3.813963413E0,8.329427719E0
1.927475741E0,2.566584110E0,-3.835511208E0,8.283937454E0
1.929489901E0,2.564189911E0,-3.830722809E0,8.221688271E0
1.931473544E0,2.456450939E0,-3.797203779E0,8.130708694E0
1.933487704E0,2.427720547E0,-3.768473387E0,8.128314972E0
1.935471347E0,2.437297344E0,-3.696647406E0,8.231265068E0
1.937454989E0,2.420537949E0,-3.655946016E0,8.437167168E0
1.939438632E0,2.387019157E0,-3.651157618E0,8.532935143E0
1.941422274E0,2.300827742E0,-3.653551817E0,8.712499619E0
1.943405917E0,2.293645144E0,-3.667917013E0,8.779537201E0
1.945389560E0,2.303221941E0,-3.675099611E0,8.789113998E0
1.947403720E0,2.327163935E0,-3.696647406E0,8.789113998E0
1.949387362E0,2.389413357E0,-3.734954596E0,8.808267593E0
1.951401522E0,2.420537949E0,-3.749319792E0,8.839392662E0
1.953415683E0,2.501940727E0,-3.758896589E0,8.985439301E0
1.955399325E0,2.566584110E0,-3.770867586E0,9.042900085E0
1.957413485E0,2.607285738E0,-3.799597979E0,9.021351814E0
1.959397128E0,2.679111719E0,-3.888183594E0,9.009381294E0
1.961380770E0,2.712630510E0,-3.995922565E0,8.987833023E0
1.963364413E0,2.741360903E0,-4.053383350E0,8.983044624E0
1.965348056E0,2.770091295E0,-4.144362926E0,9.018958092E0
1.967331698E0,2.796427488E0,-4.180276394E0,9.040505409E0
1.969315341E0,2.839523315E0,-4.252102375E0,9.102754593E0
1.971329501E0,2.904166698E0,-4.307168961E0,9.224859238E0
1.973343661E0,2.930502892E0,-4.323928356E0,9.308655739E0
1.975327304E0,3.064578056E0,-4.374206543E0,9.392453194E0
1.977310946E0,3.186682463E0,-4.417302132E0,9.473855972E0
1.979325106E0,3.265691042E0,-4.443638325E0,9.567230225E0
1.981278231E0,3.406949043E0,-4.474762917E0,9.708487511E0
1.983292392E0,3.505111217E0,-4.501099110E0,9.842563629E0
1.985276034E0,3.550601006E0,-4.508281708E0,9.916783333E0
1.987259677E0,3.670311213E0,-4.539406300E0,1.006043530E1
1.989243319E0,3.823540211E0,-4.572925091E0,1.028788471E1
1.991226962E0,3.883395195E0,-4.575319290E0,1.041956615E1
1.993241122E0,3.960009575E0,-4.575319290E0,1.063264942E1
1.995224765E0,3.976768970E0,-4.568136692E0,1.075475407E1
1.997238925E0,3.988739967E0,-4.570530891E0,1.102529907E1
1.999222567E0,4.048594952E0,-4.577713490E0,1.127908421E1
2.001206210E0,4.089296341E0,-4.580107689E0,1.137964058E1
2.003189853E0,4.127603531E0,-4.558559895E0,1.147780323E1
2.005173495E0,4.139574528E0,-4.560954094E0,1.160709000E1
2.007157138E0,4.177882195E0,-4.548983097E0,1.165736771E1
2.009140780E0,4.177882195E0,-4.537012100E0,1.175313568E1
2.011154940E0,4.173093796E0,-4.537012100E0,1.176271248E1
2.013138583E0,4.141968727E0,-4.537012100E0,1.179144382E1
2.015122226E0,4.141968727E0,-4.546588898E0,1.179144382E1
2.017105868E0,4.173093796E0,-4.575319290E0,1.182735634E1
2.019089511E0,4.151545525E0,-4.596867085E0,1.182735634E1
2.021103671E0,4.127603531E0,-4.618414879E0,1.183932781E1
2.023087313E0,4.122815132E0,-4.644751072E0,1.180102062E1
2.025101474E0,4.151545525E0,-4.673481941E0,1.172919369E1
2.027115634E0,4.170699596E0,-4.699818134E0,1.168849277E1
2.029099276E0,4.173093796E0,-4.709394932E0,1.164060879E1
2.031082919E0,4.168305397E0,-4.714183331E0,1.152568722E1
2.033066561E0,4.129997730E0,-4.709394932E0,1.148259163E1
2.035080722E0,4.122815132E0,-4.697423935E0,1.142034245E1
2.037064364E0,4.098873138E0,-4.666299343E0,1.132217979E1
2.039078524E0,4.062960148E0,-4.616020679E0,1.126232433E1
2.041031649E0,4.048594952E0,-4.587290287E0,1.120486355E1
2.043045810E0,3.974374771E0,-4.515464306E0,1.111627865E1
2.045029452E0,3.890577793E0,-4.446032524E0,1.099656868E1
2.047013095E0,3.818751812E0,-4.407725334E0,1.097502041E1
2.048996737E0,3.734954596E0,-4.326322556E0,1.088643551E1
2.050980380E0,3.541024208E0,-4.292803764E0,1.083855152E1
2.052994540E0,3.402160645E0,-4.240131378E0,1.080742645E1
2.054978183E0,3.275267839E0,-4.197035789E0,1.068771648E1
2.056961825E0,3.232172251E0,-4.165910721E0,1.061349583E1
2.058945468E0,3.086126089E0,-4.129997730E0,1.047463226E1
2.060959628E0,2.930502892E0,-4.094084740E0,1.031422138E1
2.062943270E0,2.839523315E0,-4.067748547E0,1.024957752E1
2.064957431E0,2.717418909E0,-4.048594952E0,1.009156036E1
2.066941073E0,2.698265314E0,-4.024652958E0,9.950302124E0
2.068955233E0,2.693476915E0,-4.005499363E0,9.873687744E0
2.070938876E0,2.715024710E0,-3.986345768E0,9.682151794E0
2.072922519E0,2.774879694E0,-4.005499363E0,9.454702377E0
2.074906161E0,2.820369720E0,-4.017470360E0,9.354146004E0
2.076889804E0,2.947262287E0,-4.072536945E0,9.181763649E0
2.078903964E0,3.016694069E0,-4.129997730E0,9.040505409E0
2.080887606E0,3.062183857E0,-4.168305397E0,8.971074104E0
2.082901767E0,3.124433279E0,-4.237737179E0,8.918401718E0
2.084885409E0,3.155557871E0,-4.319139957E0,8.820239067E0
2.086899569E0,3.181894064E0,-4.367023945E0,8.798690796E0
2.088883212E0,3.229778051E0,-4.443638325E0,8.793902397E0
2.090866854E0,3.239354849E0,-4.493916512E0,8.760383606E0
2.092881015E0,3.284844637E0,-4.568136692E0,8.746018410E0
2.094864657E0,3.366247654E0,-4.651933670E0,8.681375504E0
2.096878817E0,3.402160645E0,-4.690241337E0,8.650250435E0
2.098862460E0,3.517082214E0,-4.766855717E0,8.614337921E0
2.100846103E0,3.603273630E0,-4.831499100E0,8.621520042E0
2.102829745E0,3.624821424E0,-4.850652695E0,8.621520042E0
2.104813388E0,3.655946016E0,-4.865017891E0,8.655038834E0
2.106827548E0,3.627215624E0,-4.876988888E0,8.734047890E0
2.108811190E0,3.586514235E0,-4.886565685E0,8.762778282E0
2.110825351E0,3.567360640E0,-4.862623692E0,8.805873871E0
2.112839511E0,3.543418407E0,-4.824316502E0,8.813055992E0
2.114823153E0,3.495534420E0,-4.795586109E0,8.813055992E0
2.116806796E0,3.423708439E0,-4.764461517E0,8.832210541E0
2.118790438E0,3.349488258E0,-4.757278919E0,8.755595207E0
2.120804599E0,3.306392431E0,-4.740519524E0,8.729259491E0
2.122788241E0,3.239354849E0,-4.735731125E0,8.633491516E0
2.124802401E0,3.191470861E0,-4.738125324E0,8.571242332E0
2.126786044E0,3.038241863E0,-4.714183331E0,8.485051155E0
2.128800204E0,2.887407303E0,-4.668693542E0,8.429984093E0
2.130783847E0,2.832340717E0,-4.644751072E0,8.408436775E0
2.132767489E0,2.729389906E0,-4.587290287E0,8.346187592E0
2.134720614E0,2.636016130E0,-4.544194698E0,8.291120529E0
2.136734774E0,2.624045134E0,-4.508281708E0,8.295908928E0
2.138718417E0,2.602497339E0,-4.443638325E0,8.283937454E0
2.140702060E0,2.585737944E0,-4.393360138E0,8.286332130E0
2.142685702E0,2.578555346E0,-4.362235546E0,8.286332130E0
2.144669345E0,2.571372509E0,-4.290409565E0,8.291120529E0
2.146683505E0,2.609679937E0,-4.244919777E0,8.305485725E0
2.148667147E0,2.616862535E0,-4.220977783E0,8.317456245E0
2.150681308E0,2.628833532E0,-4.144362926E0,8.346187592E0
2.152664950E0,2.633621931E0,-4.120420933E0,8.365341187E0
2.154648593E0,2.650381327E0,-4.070142746E0,8.401253700E0
2.156632235E0,2.712630510E0,-4.029441357E0,8.410830498E0
2.158615878E0,2.748543501E0,-4.019864559E0,8.398859978E0
2.160630038E0,2.817975283E0,-4.017470360E0,8.360552788E0
2.162613681E0,2.894589901E0,-4.036623955E0,8.262390137E0
2.164627841E0,2.940079689E0,-4.055777550E0,8.209717751E0
2.166611483E0,2.997540474E0,-4.079719543E0,8.113949776E0
2.168595126E0,3.047818661E0,-4.113238335E0,8.027758598E0
2.170609286E0,3.064578056E0,-4.108449936E0,7.984662533E0
2.172592929E0,3.098097086E0,-4.106055737E0,7.893682957E0
2.174607089E0,3.098097086E0,-4.118026733E0,7.805097580E0
2.176590731E0,3.114856482E0,-4.118026733E0,7.764396191E0
2.178574374E0,3.157952070E0,-4.115632534E0,7.694964409E0
2.180558017E0,3.160346270E0,-4.115632534E0,7.697358608E0
2.182541659E0,3.145981073E0,-4.091690540E0,7.723694801E0
2.184525302E0,3.155557871E0,-4.098873138E0,7.785943985E0
2.186508944E0,3.179499865E0,-4.108449936E0,7.809885979E0
2.188523104E0,3.248931646E0,-4.156333923E0,7.836222172E0
2.190506747E0,3.306392431E0,-4.197035789E0,7.838616371E0
2.192520907E0,3.327940464E0,-4.218583584E0,7.848193169E0
2.194504550E0,3.366247654E0,-4.276044369E0,7.838616371E0
2.196488192E0,3.347094059E0,-4.333505154E0,7.821856976E0
2.198471835E0,3.354276657E0,-4.371812344E0,7.800309181E0
2.200455478E0,3.354276657E0,-4.465186119E0,7.757213593E0
2.202439120E0,3.344699860E0,-4.560954094E0,7.716512203E0
2.204422763E0,3.335123062E0,-4.618414879E0,7.702147007E0
2.206436923E0,3.301604033E0,-4.723760128E0,7.702147007E0
2.208420565E0,3.227383852E0,-4.809951305E0,7.697358608E0
2.210434726E0,3.186682463E0,-4.853046894E0,7.704541206E0
2.212418368E0,3.069366693E0,-4.908113480E0,7.759607792E0
2.214402011E0,2.997540474E0,-4.924872875E0,7.785943985E0
2.216385653E0,2.894589901E0,-4.960785866E0,7.843404770E0
2.218399813E0,2.815581083E0,-5.006275654E0,7.874529362E0
2.220352938E0,2.779668093E0,-5.020640850E0,7.876923561E0
2.222367099E0,2.736572504E0,-5.046977043E0,7.903259754E0
2.224350741E0,2.707842112E0,-5.075707436E0,7.936778545E0
2.226334384E0,2.710236311E0,-5.097255230E0,7.958326340E0
2.228318026E0,2.693476915E0,-5.137956619E0,7.970297337E0
2.230301669E0,2.700659513E0,-5.176264286E0,7.979874134E0
2.232315829E0,2.722207308E0,-5.197812080E0,7.984662533E0
2.234329989E0,2.777273893E0,-5.255272865E0,7.960720539E0
2.236313632E0,2.820369720E0,-5.293580055E0,7.958326340E0
2.238297274E0,2.839523315E0,-5.305551052E0,7.943961143E0
2.240280917E0,2.863465309E0,-5.341464043E0,7.908048153E0
2.242264560E0,2.877830505E0,-5.365406036E0,7.910442352E0
2.244248202E0,2.887407303E0,-5.398924828E0,7.912836552E0
2.246262362E0,2.873042107E0,-5.391742229E0,7.924807549E0
2.248246005E0,2.858676910E0,-5.382165432E0,7.934384346E0
2.250260165E0,2.825158119E0,-5.360617638E0,7.941566944E0
2.252243808E0,2.803610086E0,-5.327098846E0,7.943961143E0
2.254227450E0,2.789244890E0,-5.317522049E0,7.948749542E0
2.256211093E0,2.784456491E0,-5.305551052E0,7.975085735E0
2.258194735E0,2.750937700E0,-5.284003258E0,7.996633530E0
2.260208895E0,2.731784105E0,-5.274426460E0,8.025363922E0
2.262192538E0,2.691082716E0,-5.281609058E0,8.121131897E0
2.264206698E0,2.626439333E0,-5.288791656E0,8.207323074E0
2.266190341E0,2.592920542E0,-5.300762653E0,8.274360657E0
2.268204501E0,2.494758129E0,-5.329493046E0,8.391676903E0
2.270188144E0,2.394201756E0,-5.343858242E0,8.473079681E0
2.272171786E0,2.351106167E0,-5.386953831E0,8.516175270E0
2.274185946E0,2.238578558E0,-5.430049419E0,8.573636055E0
2.276169589E0,2.173935175E0,-5.444414616E0,8.602366447E0
2.278183749E0,2.037465572E0,-5.468356609E0,8.664615631E0
2.280197909E0,1.898601890E0,-5.487510204E0,8.746018410E0
2.282181552E0,1.810016513E0,-5.499481201E0,8.796297073E0
2.284165194E0,1.663970232E0,-5.528211594E0,8.865729332E0
2.286148837E0,1.527500629E0,-5.561730385E0,8.935160637E0
2.288162997E0,1.448492050E0,-5.576095581E0,8.963891029E0
2.290146640E0,1.271321058E0,-5.595249176E0,9.021351814E0
2.292160800E0,1.098938584E0,-5.607220173E0,9.095572472E0
2.294113925E0,1.015141487E0,-5.614402771E0,9.126696587E0
2.296128085E0,8.619126081E-1,-5.633556366E0,9.193734169E0
2.298111728E0,6.943184733E-1,-5.633556366E0,9.244012833E0
2.300095370E0,6.081272364E-1,-5.628767967E0,9.260771751E0
2.302079013E0,4.453215301E-1,-5.621585369E0,9.323021889E0
2.304062655E0,2.849099934E-1,-5.628767967E0,9.370905876E0
2.306076815E0,2.106897533E-1,-5.667075634E0,9.409213066E0
2.308060458E0,7.182604820E-2,-5.683835030E0,9.536105156E0
2.310074618E0,-7.182605099E-3,-5.691017628E0,9.600749016E0
2.312058261E0,-1.651999205E-1,-5.705382824E0,9.806650162E0
2.314041903E0,-3.064578176E-1,-5.695806026E0,1.002452278E1
2.316025546E0,-3.591302633E-1,-5.686229229E0,1.011310768E1
2.318009188E0,-4.357447028E-1,-5.693411827E0,1.029985619E1
2.320023349E0,-4.716577232E-1,-5.698200226E0,1.050096893E1
2.322006991E0,-4.668693244E-1,-5.719748020E0,1.061828423E1
2.324021151E0,-4.357447028E-1,-5.734113216E0,1.086249352E1
2.326004794E0,-3.495534360E-1,-5.741295815E0,1.110909557E1
2.327988436E0,-3.064578176E-1,-5.750872612E0,1.122162342E1
2.330002597E0,-2.226607651E-1,-5.738901615E0,1.145864964E1
2.331986239E0,-1.747767180E-1,-5.710171223E0,1.171961689E1
2.334000399E0,-1.651999205E-1,-5.698200226E0,1.182735634E1
2.336014560E0,-1.747767180E-1,-5.650316238E0,1.201171017E1
2.337998202E0,-1.963245422E-1,-5.566518784E0,1.214099693E1
2.339981845E0,-2.154781520E-1,-5.523423195E0,1.219366932E1
2.341965487E0,-2.681505978E-1,-5.439626217E0,1.231816769E1
2.343979647E0,-2.968810201E-1,-5.386953831E0,1.235886955E1
2.345963290E0,-3.758896589E-1,-5.288791656E0,1.238999367E1
2.347977450E0,-4.525041282E-1,-5.216965675E0,1.242830086E1
2.349961093E0,-4.884171486E-1,-5.185841084E0,1.242830086E1
2.351944735E0,-5.386953950E-1,-5.147533417E0,1.239478207E1
2.353958895E0,-5.698199868E-1,-5.123591423E0,1.229662037E1
2.355912020E0,-5.961562395E-1,-5.106832027E0,1.224394703E1
2.357926181E0,-6.631938815E-1,-5.092466831E0,1.214099693E1
2.359879306E0,-7.398083210E-1,-5.102043629E0,1.201649857E1
2.361893466E0,-8.140285611E-1,-5.094861031E0,1.196621990E1
2.363877108E0,-1.005564690E0,-5.070919037E0,1.187045193E1
2.365860751E0,-1.247379065E0,-5.018246651E0,1.179862595E1
2.367874911E0,-1.391031146E0,-4.984727859E0,1.176510715E1
2.369858554E0,-1.675941229E0,-4.893748283E0,1.171722317E1
2.371872714E0,-1.956062794E0,-4.845864296E0,1.170764637E1
2.373856356E0,-2.094926596E0,-4.766855717E0,1.168130970E1
2.375870517E0,-2.305616140E0,-4.683058739E0,1.167891598E1
2.377854159E0,-2.406172752E0,-4.644751072E0,1.167412758E1
2.379868319E0,-2.626439333E0,-4.587290287E0,1.168609810E1
2.381851962E0,-2.837129116E0,-4.491522312E0,1.167412758E1
2.383866122E0,-2.930502892E0,-4.450820923E0,1.167652130E1
2.385849765E0,-3.136404276E0,-4.388571739E0,1.171722317E1
2.387833407E0,-3.323152065E0,-4.386177540E0,1.177468395E1
2.389847567E0,-3.404554844E0,-4.417302132E0,1.180102062E1
2.391831210E0,-3.517082214E0,-4.493916512E0,1.188242340E1
2.393845370E0,-3.557783842E0,-4.608838081E0,1.199734497E1
2.395859530E0,-3.557783842E0,-4.680664539E0,1.206198788E1
2.397843173E0,-3.466804028E0,-4.881777287E0,1.225831223E1
2.399826815E0,-3.308786631E0,-5.082890034E0,1.248097324E1
2.401810458E0,-3.222595453E0,-5.166687489E0,1.261265469E1
2.403824618E0,-3.031059265E0,-5.310339451E0,1.289995861E1
2.405808261E0,-2.827552319E0,-5.425261021E0,1.318726254E1
2.407822421E0,-2.707842112E0,-5.487510204E0,1.332612705E1
2.409806063E0,-2.494758129E0,-5.583278179E0,1.359667110E1
2.411789706E0,-2.384624958E0,-5.635950565E0,1.373074722E1
2.413773349E0,-2.166752577E0,-5.717353821E0,1.398932076E1
2.415756991E0,-1.924938202E0,-5.779603004E0,1.425986576E1
2.417771151E0,-1.810016513E0,-5.815515995E0,1.438675785E1
2.419754794E0,-1.563413739E0,-5.884947777E0,1.462617779E1
2.421768954E0,-1.355118155E0,-5.935225964E0,1.483686829E1
2.423783114E0,-1.268926859E0,-5.940014362E0,1.494460678E1
2.425766757E0,-1.122880578E0,-5.956773758E0,1.513135433E1
2.427750399E0,-1.010353088E0,-5.942408562E0,1.528697777E1
2.429734042E0,-9.624691010E-1,-5.920860767E0,1.535401535E1
2.431748202E0,-8.571242094E-1,-5.875370979E0,1.542823601E1
2.433762362E0,-7.733271718E-1,-5.822698593E0,1.543302441E1
2.435746005E0,-7.206547260E-1,-5.820304394E0,1.544978333E1
2.437729647E0,-5.770025849E-1,-5.839457989E0,1.547372532E1
2.439713290E0,-4.309563041E-1,-5.865794182E0,1.547133160E1
2.441696933E0,-3.758896589E-1,-5.906495571E0,1.543781281E1
2.443680575E0,-2.849099934E-1,-5.954379559E0,1.535401535E1
2.445664218E0,-2.466027737E-1,-5.983109951E0,1.529176617E1
2.447647860E0,-2.106897533E-1,-6.014234543E0,1.516247940E1
2.449662020E0,-2.059013397E-1,-6.069301128E0,1.501643276E1
2.451645663E0,-2.059013397E-1,-6.083666325E0,1.493981838E1
2.453659823E0,-1.963245422E-1,-6.076483727E0,1.474828243E1
2.455643466E0,-1.987187415E-1,-6.040570736E0,1.454956341E1
2.457657626E0,-2.059013397E-1,-6.023811340E0,1.443224812E1
2.459641269E0,-2.322375625E-1,-6.007051945E0,1.418803883E1
2.461655429E0,-1.771709323E-1,-5.944802761E0,1.396059036E1
2.463669589E0,-9.337386489E-2,-5.923254967E0,1.385524559E1
2.465653231E0,-9.576806426E-2,-5.892130375E0,1.367568016E1
2.467636874E0,-1.891419291E-1,-5.868188381E0,1.349850941E1
2.469620517E0,-2.489969730E-1,-5.851428986E0,1.341710663E1
2.471634677E0,-3.639186621E-1,-5.834669590E0,1.323514652E1
2.473618319E0,-4.261679053E-1,-5.846640587E0,1.304839897E1
2.475632479E0,-4.309563041E-1,-5.908889771E0,1.295981407E1
2.477616122E0,-3.519476354E-1,-6.014234543E0,1.279940224E1
2.479599765E0,-2.633621991E-1,-6.078877926E0,1.273236465E1
2.481583407E0,-2.154781483E-2,-6.227318764E0,1.270363426E1
2.483567050E0,2.250549644E-1,-6.409277916E0,1.277306652E1
2.485581210E0,3.327940404E-1,-6.483498096E0,1.282334423E1
2.487564853E0,5.698199868E-1,-6.634333134E0,1.299093819E1
2.489548495E0,8.403648138E-1,-6.756437302E0,1.315374374E1
2.491532138E0,9.696516991E-1,-6.816292286E0,1.323993587E1
2.493515780E0,1.237802267E0,-6.928819656E0,1.342428875E1
2.495529940E0,1.501164436E0,-7.041347027E0,1.357991219E1
2.497513583E0,1.642422318E0,-7.077260017E0,1.367328548E1
2.499527743E0,1.903390408E0,-7.127538681E0,1.386482239E1
2.501541903E0,2.171540976E0,-7.168240070E0,1.403481007E1
2.503525546E0,2.286462545E0,-7.180211067E0,1.412339592E1
2.505509188E0,2.480392933E0,-7.237671852E0,1.427662468E1
2.507492831E0,2.616862535E0,-7.242460251E0,1.434845066E1
2.509506991E0,2.681505919E0,-7.242460251E0,1.450886250E1
2.511490634E0,2.777273893E0,-7.232883453E0,1.463575459E1
2.513504794E0,2.806004286E0,-7.230489254E0,1.468363857E1
2.515488436E0,2.822763920E0,-7.240066051E0,1.476983070E1
2.517472079E0,2.827552319E0,-7.240066051E0,1.483686829E1
2.519425204E0,2.827552319E0,-7.247248650E0,1.485602188E1
2.521439364E0,2.841917515E0,-7.273584843E0,1.489193439E1
2.523423007E0,2.880224705E0,-7.290344238E0,1.488954067E1
2.525406649E0,2.916137695E0,-7.304709435E0,1.487278080E1
2.527420810E0,2.990357876E0,-7.319074631E0,1.483447361E1
2.529404452E0,3.047818661E0,-7.328651428E0,1.477701283E1
2.531418612E0,3.071760893E0,-7.345410824E0,1.474588871E1
2.533402255E0,3.090914488E0,-7.378929615E0,1.470039845E1
2.535416415E0,3.071760893E0,-7.405265808E0,1.464293766E1
2.537400058E0,3.047818661E0,-7.429207802E0,1.461181259E1
2.539414218E0,2.971204281E0,-7.472303391E0,1.455435181E1
2.541428378E0,2.901772499E0,-7.493851185E0,1.451843929E1
2.543412020E0,2.880224705E0,-7.556100368E0,1.443943024E1
2.545395663E0,2.825158119E0,-7.618350029E0,1.434845066E1
2.547379306E0,2.810792685E0,-7.659051418E0,1.426465416E1
2.549393466E0,2.782062292E0,-7.706935406E0,1.412578964E1
2.551377108E0,2.760514498E0,-7.754819393E0,1.401565647E1
2.553391269E0,2.748543501E0,-7.783549786E0,1.396298409E1
2.555374911E0,2.712630510E0,-7.824251175E0,1.384327412E1
2.557358554E0,2.679111719E0,-7.831433773E0,1.373792934E1
2.559342196E0,2.647987127E0,-7.814674377E0,1.366610336E1
2.561325839E0,2.568978310E0,-7.783549786E0,1.350329781E1
2.563309481E0,2.566584110E0,-7.795520782E0,1.343865395E1
2.565293124E0,2.624045134E0,-7.764396191E0,1.338598156E1
2.567307284E0,2.765302896E0,-7.718906403E0,1.329500198E1
2.569321444E0,2.829946518E0,-7.750030994E0,1.312980175E1
2.571305087E0,2.827552319E0,-7.762001991E0,1.303642845E1
2.573288729E0,2.815581083E0,-7.778761387E0,1.285207462E1
2.575272372E0,2.841917515E0,-7.793126583E0,1.277306652E1
2.577286532E0,2.937685490E0,-7.848193169E0,1.266053867E1
2.579270175E0,3.117250681E0,-7.898471355E0,1.256955910E1
2.581284335E0,3.208230257E0,-7.920019150E0,1.251449203E1
2.583267978E0,3.394978046E0,-7.982268333E0,1.243548393E1
2.585282138E0,3.574543238E0,-8.025363922E0,1.236365795E1
2.587265780E0,3.687070608E0,-8.056488991E0,1.234929276E1
2.589249423E0,3.936067581E0,-8.135497093E0,1.235886955E1
2.591233065E0,4.144362926E0,-8.161833763E0,1.235408115E1
2.593216708E0,4.235342979E0,-8.171410561E0,1.235647488E1
2.595230868E0,4.398148537E0,-8.188169479E0,1.234929276E1
2.597214511E0,4.522646904E0,-8.171410561E0,1.235168648E1
2.599228671E0,4.565742493E0,-8.157045364E0,1.236126328E1
2.601242831E0,4.663905144E0,-8.106766701E0,1.230859089E1
2.603226474E0,4.728548527E0,-8.070854187E0,1.222000504E1
2.605210116E0,4.778826714E0,-8.066065788E0,1.219127464E1
2.607193759E0,4.896142483E0,-8.058882713E0,1.210508347E1
2.609207919E0,4.963180065E0,-8.056488991E0,1.206198788E1
2.611191561E0,5.073313236E0,-8.075642586E0,1.190875912E1
2.613205722E0,5.181052685E0,-8.058882713E0,1.176271248E1
2.615189364E0,5.238513470E0,-8.056488991E0,1.167891598E1
2.617203524E0,5.353435040E0,-8.049305916E0,1.149695683E1
2.619187167E0,5.480327606E0,-8.049305916E0,1.135091019E1
2.621201327E0,5.556941986E0,-8.056488991E0,1.127908421E1
2.623184970E0,5.695806026E0,-8.063671112E0,1.113782597E1
2.625168612E0,5.779603004E0,-8.090007782E0,1.098220348E1
2.627152255E0,5.815515995E0,-8.101978302E0,1.089361763E1
2.629135897E0,5.913678169E0,-8.123526573E0,1.072602367E1
2.631150058E0,5.995080948E0,-8.142680168E0,1.049857426E1
2.633133700E0,6.045359135E0,-8.154650688E0,1.039801788E1
2.635147860E0,6.145915985E0,-8.173804283E0,1.017775154E1
2.637131503E0,6.229712963E0,-8.188169479E0,9.959878922E0
2.639115145E0,6.256049156E0,-8.202534676E0,9.856928825E0
2.641098788E0,6.282385349E0,-8.195352554E0,9.648633003E0
2.643082431E0,6.287173748E0,-8.190564156E0,9.524134636E0
2.645066073E0,6.299144745E0,-8.169015884E0,9.289502144E0
2.647049716E0,6.301538944E0,-8.116343498E0,9.016563416E0
2.649063876E0,6.301538944E0,-8.085219383E0,8.872911453E0
2.651078036E0,6.318298340E0,-8.051700592E0,8.631096840E0
2.653061679E0,6.308721542E0,-8.020575523E0,8.346187592E0
2.655045321E0,6.301538944E0,-8.003816605E0,8.219294548E0
2.657028964E0,6.258443356E0,-7.958326340E0,7.934384346E0
2.659043124E0,6.191405773E0,-7.898471355E0,7.654263020E0
2.661026767E0,6.136339188E0,-7.862558365E0,7.505822182E0
2.663040927E0,6.028599739E0,-7.778761387E0,7.161057472E0
2.665055087E0,5.906495571E0,-7.706935406E0,6.856993675E0
2.667038729E0,5.834669590E0,-7.668628216E0,6.720524311E0
2.669022372E0,5.734113216E0,-7.587224960E0,6.452373505E0
2.671006015E0,5.662287235E0,-7.556100368E0,6.196194172E0
2.673020175E0,5.621585369E0,-7.505822182E0,6.086060524E0
2.675034335E0,5.516240597E0,-7.479485989E0,5.839457989E0
2.677017978E0,5.465962410E0,-7.460332394E0,5.729324818E0
2.679001620E0,5.365406036E0,-7.450755596E0,5.561730385E0
2.680985263E0,5.293580055E0,-7.443572998E0,5.346252441E0
2.682968905E0,5.248090267E0,-7.445967197E0,5.260061264E0
2.684952548E0,5.157110691E0,-7.450755596E0,5.030217648E0
2.686966708E0,5.121197224E0,-7.481880188E0,4.812345505E0
2.688950351E0,5.097255230E0,-7.508216381E0,4.738125324E0
2.690964511E0,5.073313236E0,-7.563282967E0,4.608838081E0
2.692948153E0,5.037400246E0,-7.587224960E0,4.527435303E0
2.694962313E0,5.020640850E0,-7.608773232E0,4.493916512E0
2.696945956E0,5.039794445E0,-7.692570210E0,4.510675907E0
2.698929599E0,5.042188644E0,-7.805097580E0,4.592078686E0
2.700913241E0,5.037400246E0,-7.876923561E0,4.644751072E0
2.702896884E0,4.999093056E0,-8.010998726E0,4.762067318E0
2.704911044E0,4.917690277E0,-8.082824707E0,4.819528103E0
2.706894686E0,4.867412090E0,-8.195352554E0,4.934449673E0
2.708908847E0,4.714183331E0,-8.315062523E0,5.020640850E0
2.710861972E0,4.625597477E0,-8.365341187E0,5.078101635E0
2.712876132E0,4.429273129E0,-8.449137688E0,5.193023682E0
2.714859774E0,4.201824188E0,-8.540117264E0,5.267243862E0
2.716843417E0,4.089296341E0,-8.585607529E0,5.319916248E0
2.718857577E0,3.842693806E0,-8.698134422E0,5.413290024E0
2.720841220E0,3.545812607E0,-8.786720276E0,5.513846397E0
2.722855380E0,3.380612850E0,-8.820239067E0,5.537788391E0
2.724839022E0,3.028665066E0,-8.846575737E0,5.604825974E0
2.726853183E0,2.659958124E0,-8.875306129E0,5.635950565E0
2.728836825E0,2.468421936E0,-8.868123055E0,5.655104637E0
2.730820468E0,2.106897593E0,-8.863334656E0,5.655104637E0
2.732804110E0,1.721431017E0,-8.844181061E0,5.623979568E0
2.734787753E0,1.525106430E0,-8.829815865E0,5.614402771E0
2.736801913E0,1.142034173E0,-8.793902397E0,5.576095581E0
2.738785556E0,9.337386489E-1,-8.789113998E0,5.540182590E0
2.740799716E0,5.386953950E-1,-8.772355080E0,5.439626217E0
2.742813876E0,1.436520964E-1,-8.738836288E0,5.367800236E0
2.744797519E0,-4.548983276E-2,-8.736441612E0,5.319916248E0
2.746781161E0,-4.070142806E-1,-8.712499619E0,5.240907669E0
2.748764804E0,-7.374141216E-1,-8.688557625E0,5.166687489E0
2.750778964E0,-8.858546019E-1,-8.667010307E0,5.128379822E0
2.752762606E0,-1.161187768E0,-8.614337921E0,5.063736439E0
2.754746249E0,-1.426944256E0,-8.566453934E0,4.989516258E0
2.756729892E0,-1.532289028E0,-8.547300339E0,4.955997467E0
2.758713534E0,-1.733402014E0,-8.516175270E0,4.922478676E0
2.760727694E0,-1.884236693E0,-8.494627953E0,4.886565685E0
2.762711337E0,-1.953668594E0,-8.482656479E0,4.876988888E0
2.764725497E0,-2.075772762E0,-8.437167168E0,4.862623692E0
2.766709140E0,-2.240972757E0,-8.401253700E0,4.872200489E0
2.768692782E0,-2.319981337E0,-8.336610794E0,4.872200489E0
2.770676425E0,-2.439691544E0,-8.283937454E0,4.841075897E0
2.772660067E0,-2.489969730E0,-8.279149055E0,4.819528103E0
2.774643710E0,-2.564189911E0,-8.267178535E0,4.769249916E0
2.776627353E0,-2.624045134E0,-8.259995461E0,4.752490520E0
2.778580478E0,-2.650381327E0,-8.243236542E0,4.762067318E0
2.780594638E0,-2.655169725E0,-8.221688271E0,4.769249916E0
2.782578280E0,-2.585737944E0,-8.233659744E0,4.812345505E0
2.784561923E0,-2.525882721E0,-8.255207062E0,4.819528103E0
2.786576083E0,-2.401384354E0,-8.291120529E0,4.881777287E0
2.788559726E0,-2.293645144E0,-8.329427719E0,4.987122059E0
2.790573886E0,-2.267308950E0,-8.365341187E0,5.054159641E0
2.792557528E0,-2.257732153E0,-8.408436775E0,5.224148273E0
2.794541171E0,-2.339135170E0,-8.432378769E0,5.425261021E0
2.796524813E0,-2.389413357E0,-8.458714485E0,5.528211594E0
2.798508456E0,-2.528276920E0,-8.439560890E0,5.702988625E0
2.800492099E0,-2.604891539E0,-8.425195694E0,5.772420406E0
2.802475741E0,-2.774879694E0,-8.372523308E0,5.901707172E0
2.804489901E0,-2.968810081E0,-8.295908928E0,6.002263546E0
2.806473544E0,-3.062183857E0,-8.252813339E0,6.040570736E0
2.808457186E0,-3.217807055E0,-8.149862289E0,6.088454723E0
2.810440829E0,-3.371036053E0,-8.049305916E0,6.155492783E0
2.812424472E0,-3.457227230E0,-7.982268333E0,6.167463779E0
2.814438632E0,-3.612850428E0,-7.874529362E0,6.165069580E0
2.816422274E0,-3.787626982E0,-7.771578789E0,6.162675381E0
2.818436435E0,-3.871424198E0,-7.723694801E0,6.141127586E0
2.820450595E0,-4.012681961E0,-7.635109425E0,6.105214119E0
2.822434237E0,-4.084507942E0,-7.568071365E0,6.040570736E0
2.824417880E0,-4.122815132E0,-7.534552574E0,5.992686749E0
2.826401522E0,-4.163516521E0,-7.484274387E0,5.887341976E0
2.828415683E0,-4.165910721E0,-7.460332394E0,5.832275391E0
2.830399325E0,-4.173093796E0,-7.386112213E0,5.750872612E0
2.832413485E0,-4.189853191E0,-7.302315235E0,5.698200226E0
2.834397128E0,-4.192247391E0,-7.249642849E0,5.667075634E0
2.836380770E0,-4.187458992E0,-7.113173485E0,5.631162167E0
2.838364413E0,-4.185064793E0,-6.974309444E0,5.576095581E0
2.840348056E0,-4.175487995E0,-6.924031258E0,5.535394192E0
2.842331698E0,-4.141968727E0,-6.833051682E0,5.446808815E0
2.844315341E0,-4.067748547E0,-6.780379295E0,5.355829239E0
2.846329501E0,-4.024652958E0,-6.749254704E0,5.331887245E0
2.848313144E0,-3.940855980E0,-6.687005520E0,5.317522049E0
2.850327304E0,-3.861847401E0,-6.598419666E0,5.346252441E0
2.852310946E0,-3.818751812E0,-6.562506676E0,5.351040840E0
2.854325106E0,-3.663128614E0,-6.514622688E0,5.281609058E0
2.856339267E0,-3.521870613E0,-6.493074894E0,5.181052685E0
2.858322909E0,-3.473986626E0,-6.478709698E0,5.154716492E0
2.860306552E0,-3.414131641E0,-6.459556103E0,5.109226227E0
2.862290194E0,-3.392583847E0,-6.457161903E0,5.090072632E0
2.864273837E0,-3.327940464E0,-6.483498096E0,4.936843872E0
2.866257479E0,-3.203441858E0,-6.574477673E0,4.620809078E0
2.868271640E0,-3.153163671E0,-6.607996464E0,4.469974518E0
2.870255282E0,-3.100491285E0,-6.651092529E0,4.228160381E0
2.872269442E0,-3.064578056E0,-6.639121532E0,4.050989151E0
2.874253085E0,-3.057395458E0,-6.619967937E0,3.948038578E0
2.876236728E0,-3.057395458E0,-6.576871872E0,3.761290789E0
2.878250888E0,-3.088520288E0,-6.528987885E0,3.620033026E0
2.880234530E0,-3.119644880E0,-6.495469093E0,3.555389643E0
2.882248690E0,-3.181894064E0,-6.449979305E0,3.457227230E0
2.884232333E0,-3.236960649E0,-6.414066315E0,3.421314240E0
2.886246493E0,-3.260902643E0,-6.411672115E0,3.409343243E0
2.888230136E0,-3.311181068E0,-6.411672115E0,3.399766445E0
2.890213778E0,-3.339911461E0,-6.428431511E0,3.414131641E0
2.892227938E0,-3.342305660E0,-6.488286495E0,3.440467834E0
2.894211581E0,-3.315969467E0,-6.572083473E0,3.512293816E0
2.896225741E0,-3.292027235E0,-6.607996464E0,3.567360640E0
2.898209384E0,-3.224989653E0,-6.710947514E0,3.679888010E0
2.900223544E0,-3.141192675E0,-6.777985096E0,3.801992416E0
2.902207186E0,-3.088520288E0,-6.804321289E0,3.864241600E0
2.904190829E0,-3.011905670E0,-6.842628479E0,4.017470360E0
2.906204989E0,-2.956839085E0,-6.859387875E0,4.161122322E0
2.908188632E0,-2.935291290E0,-6.861782074E0,4.197035789E0
2.910202792E0,-2.947262287E0,-6.845022678E0,4.180276394E0
2.912155917E0,-2.916137695E0,-6.868964672E0,4.122815132E0
2.914170077E0,-2.932897091E0,-6.880935669E0,4.101267338E0
2.916153720E0,-2.973598480E0,-6.888118267E0,4.024652958E0
2.918137362E0,-3.019088268E0,-6.892906666E0,3.933673382E0
2.920121005E0,-3.004723072E0,-6.900089264E0,3.892971992E0
2.922104647E0,-3.016694069E0,-6.902483463E0,3.778050184E0
2.924088290E0,-3.026270866E0,-6.909666061E0,3.744531393E0
2.926071933E0,-3.045424461E0,-6.928819656E0,3.780444384E0
2.928086093E0,-2.896984100E0,-7.084442616E0,4.165910721E0
2.930069735E0,-2.580949545E0,-7.366958618E0,4.790797710E0
2.932083895E0,-2.130839586E0,-7.821856976E0,5.973533154E0
2.934067538E0,-1.927332401E0,-8.018181801E0,6.548141479E0
2.936051181E0,-1.891419291E0,-8.058882713E0,6.698976517E0
2.938034823E0,-1.886630893E0,-8.058882713E0,6.761225700E0
2.940018466E0,-1.934514999E0,-8.022970200E0,6.655880928E0
2.942002108E0,-2.006340981E0,-7.994239330E0,6.524199486E0
2.943985751E0,-2.121262789E0,-7.951143742E0,6.265625954E0
2.945999911E0,-2.176329374E0,-7.931990147E0,5.990292549E0
2.948014071E0,-2.214636564E0,-7.922413349E0,5.851428986E0
2.949997714E0,-2.233790159E0,-7.970297337E0,5.643133640E0
2.951981356E0,-2.240972757E0,-8.013393402E0,5.487510204E0
2.953964999E0,-2.238578558E0,-8.101978302E0,5.425261021E0
2.955979159E0,-2.267308950E0,-8.214506149E0,5.358223438E0
2.957962802E0,-2.298433542E0,-8.274360657E0,5.353435040E0
2.959976962E0,-2.403778553E0,-8.389283180E0,5.386953831E0
2.961960604E0,-2.571372509E0,-8.485051155E0,5.410895824E0
2.963974765E0,-2.681505919E0,-8.537723541E0,5.403713226E0
2.965958407E0,-2.841917515E0,-8.647856712E0,5.413290024E0
2.967942050E0,-3.026270866E0,-8.767566681E0,5.379771233E0
2.969956210E0,-3.155557871E0,-8.822632790E0,5.367800236E0
2.971939853E0,-3.392583847E0,-8.894459724E0,5.384559631E0
2.973954013E0,-3.670311213E0,-8.949525833E0,5.351040840E0
2.975937655E0,-3.809175014E0,-8.959102631E0,5.286397457E0
2.977921298E0,-4.050989151E0,-8.971074104E0,5.161899090E0
2.979904940E0,-4.249708176E0,-8.995016098E0,5.054159641E0
2.981888583E0,-4.369418144E0,-8.987833023E0,4.967968464E0
2.983902743E0,-4.613626480E0,-8.959102631E0,4.793191910E0
2.985886386E0,-4.850652695E0,-8.911218643E0,4.620809078E0
2.987900546E0,-4.944026470E0,-8.889671326E0,4.572925091E0
2.989884188E0,-5.147533417E0,-8.827422142E0,4.458003521E0
2.991867831E0,-5.243301868E0,-8.786720276E0,4.426878929E0
2.993851474E0,-5.365406036E0,-8.714894295E0,4.393360138E0
2.995835116E0,-5.465962410E0,-8.621520042E0,4.321534157E0
2.997849276E0,-5.494692802E0,-8.568847656E0,4.304774761E0
2.999832919E0,-5.540182590E0,-8.494627953E0,4.302380562E0
3.001847079E0,-5.521028996E0,-8.434772491E0,4.242525578E0
3.003800204E0,-5.499481201E0,-8.408436775E0,4.240131378E0
3.005814364E0,-5.425261021E0,-8.370129585E0,4.182670593E0
3.007798007E0,-5.310339451E0,-8.358158112E0,4.146757126E0
3.009781649E0,-5.281609058E0,-8.350975990E0,4.101267338E0
3.011795810E0,-5.209783077E0,-8.334216118E0,4.017470360E0
3.013779452E0,-5.267243862E0,-8.279149055E0,3.945644379E0
3.015793612E0,-5.298368454E0,-8.243236542E0,3.919308186E0
3.017777255E0,-5.295974255E0,-8.178592682E0,3.859453201E0
3.019791415E0,-5.317522049E0,-8.128314972E0,3.706224203E0
3.021805575E0,-5.293580055E0,-8.042123795E0,3.663128614E0
3.023789218E0,-5.188235283E0,-7.953537941E0,3.588908434E0
3.025772860E0,-5.164293289E0,-7.896077156E0,3.572149038E0
3.027756503E0,-5.123591423E0,-7.773972988E0,3.629609823E0
3.029770663E0,-5.082890034E0,-7.642292023E0,3.701435804E0
3.031754306E0,-5.061342239E0,-7.577648163E0,3.742137194E0
3.033768466E0,-5.023035049E0,-7.426813602E0,3.849876404E0
3.035752108E0,-4.996698856E0,-7.275979042E0,3.900154591E0
3.037735751E0,-5.018246651E0,-7.192182064E0,3.933673382E0
3.039719394E0,-5.118803024E0,-7.043741226E0,4.012681961E0
3.041703036E0,-5.149928093E0,-6.924031258E0,4.115632534E0
3.043686679E0,-5.137956619E0,-6.890512466E0,4.149151325E0
3.045670321E0,-5.111620426E0,-6.828263283E0,4.194641590E0
3.047684481E0,-5.020640850E0,-6.756437302E0,4.288015366E0
3.049668124E0,-4.946420670E0,-6.732495308E0,4.328716755E0
3.051682284E0,-4.841075897E0,-6.665457726E0,4.357447147E0
3.053665927E0,-4.778826714E0,-6.639121532E0,4.331110954E0
3.055649569E0,-4.632780075E0,-6.536170483E0,4.209006786E0
3.057633212E0,-4.453215122E0,-6.404489517E0,4.022258759E0
3.059616854E0,-4.388571739E0,-6.330269337E0,3.931279182E0
3.061631015E0,-4.232948780E0,-6.181828976E0,3.840299606E0
3.063614657E0,-4.012681961E0,-6.074089527E0,3.842693806E0
3.065628817E0,-3.902548790E0,-6.021417141E0,3.813963413E0
3.067612460E0,-3.749319792E0,-5.887341976E0,3.754108191E0
3.069596103E0,-3.653551817E0,-5.714959621E0,3.715801001E0
3.071610263E0,-3.612850428E0,-5.657498837E0,3.739742994E0
3.073593905E0,-3.416525841E0,-5.609614372E0,3.924096584E0
3.075608065E0,-3.119644880E0,-5.674258232E0,4.161122322E0
3.077591708E0,-2.961627483E0,-5.679046631E0,4.228160381E0
3.079605868E0,-2.576161146E0,-5.731719017E0,4.460397720E0
3.081589511E0,-2.147598982E0,-5.820304394E0,4.994304657E0
3.083573153E0,-1.963245392E0,-5.846640587E0,5.248090267E0
3.085556796E0,-1.790862918E0,-5.839457989E0,5.506663799E0
3.087540438E0,-1.771709204E0,-5.779603004E0,5.477933407E0
3.089554599E0,-1.843535304E0,-5.556941986E0,5.228936672E0
3.091538241E0,-1.922544003E0,-5.286397457E0,4.924872875E0
3.093552401E0,-1.881842494E0,-5.214571476E0,4.958391666E0
3.095566561E0,-1.644816518E0,-5.214571476E0,5.477933407E0
3.097550204E0,-1.522712231E0,-5.099649429E0,5.669469833E0
3.099533847E0,-1.407790542E0,-5.106832027E0,5.865794182E0
3.101517489E0,-1.079784989E0,-5.233725071E0,6.490680695E0
3.103501132E0,-7.924807668E-1,-5.310339451E0,6.926425457E0
3.105484774E0,-6.153098345E-1,-5.391742229E0,7.199364662E0
3.107498935E0,-3.495534360E-1,-5.468356609E0,7.776367188E0
3.109513095E0,-1.221042871E-1,-5.626373768E0,8.504204750E0
3.111496737E0,-3.591302410E-2,-5.770026207E0,8.801085472E0
3.113480380E0,2.394201607E-2,-6.021417141E0,9.174580574E0
3.115464022E0,-9.576806426E-2,-6.162675381E0,9.193734169E0
3.117478183E0,-1.651999205E-1,-6.212953568E0,9.143456459E0
3.119461825E0,-3.758896589E-1,-6.287173748E0,9.004592896E0
3.121475985E0,-4.812345505E-1,-6.337451935E0,8.968679428E0
3.123459628E0,-7.398083210E-1,-6.438008308E0,8.870517731E0
3.125443270E0,-1.084573388E0,-6.576871872E0,8.659827232E0
3.127457431E0,-1.242590666E0,-6.672640324E0,8.528146744E0
3.129441073E0,-1.505952835E0,-6.924031258E0,8.300697327E0
3.131424716E0,-1.766920805E0,-7.192182064E0,7.867346764E0
3.133438876E0,-1.944091797E0,-7.323863029E0,7.556100368E0
3.135453036E0,-2.267308950E0,-7.572859764E0,6.926425457E0
3.137436679E0,-2.418143749E0,-7.831433773E0,6.576871872E0
3.139450839E0,-2.477998734E0,-7.960720539E0,6.409277916E0
3.141434481E0,-2.602497339E0,-8.202534676E0,6.026205540E0
3.143448642E0,-2.753331900E0,-8.408436775E0,5.432443619E0
3.145432284E0,-2.849100113E0,-8.504204750E0,5.130774021E0
3.147446444E0,-2.990357876E0,-8.698134422E0,4.558559895E0
3.149460604E0,-3.107673883E0,-8.882488251E0,3.955221176E0
3.151474765E0,-3.165134668E0,-8.968679428E0,3.648763418E0
3.153458407E0,-3.366247654E0,-9.124302864E0,2.935291290E0
3.155442050E0,-3.620033026E0,-9.179368973E0,2.293645144E0
3.157425692E0,-3.749319792E0,-9.258378029E0,1.982398987E0
3.159409335E0,-3.897760391E0,-9.330204010E0,1.400607944E0
3.161392978E0,-3.950432777E0,-9.378087997E0,1.134851575E0
3.163407138E0,-3.955221176E0,-9.476250648E0,7.254431248E-1
3.165421298E0,-3.936067581E0,-9.619902611E0,2.920926213E-1
3.167404940E0,-3.948038578E0,-9.703699112E0,1.460463107E-1
3.169388583E0,-3.938461781E0,-9.868899345E0,-1.340752989E-1
3.171372226E0,-4.015076160E0,-1.008198357E1,-4.812345505E-1
3.173355868E0,-4.122815132E0,-1.019451046E1,-5.722141862E-1
3.175339511E0,-4.355052948E0,-1.041956615E1,-6.847416759E-1
3.177323153E0,-4.620809078E0,-1.060870743E1,-9.169792533E-1
3.179306796E0,-4.771644115E0,-1.067813969E1,-9.959878922E-1
3.181320956E0,-4.953603268E0,-1.084573364E1,-1.031900883E0
3.183304599E0,-5.121197224E0,-1.103008747E1,-1.077390790E0
3.185318759E0,-5.200206280E0,-1.110191345E1,-1.084573388E0
3.187302401E0,-5.327098846E0,-1.117613316E1,-1.122880578E0
3.189286044E0,-5.420472622E0,-1.115697956E1,-1.209071875E0
3.191300204E0,-5.590460777E0,-1.104684639E1,-1.350329757E0
3.193314364E0,-5.731719017E0,-1.087925243E1,-1.249773264E0
3.195298007E0,-5.746084213E0,-1.077869606E1,-1.168370485E0
3.197251132E0,-5.681440830E0,-1.057040024E1,-1.063025594E0
3.199265292E0,-5.652710438E0,-1.034774017E1,-9.074024558E-1
3.201248935E0,-5.633556366E0,-1.024478912E1,-7.733271718E-1
3.203232577E0,-5.470750809E0,-1.003409958E1,-5.482721925E-1
3.205246737E0,-5.298368454E0,-9.792284966E0,-3.782838583E-1
3.207230380E0,-5.214571476E0,-9.667786598E0,-3.639186621E-1
3.209244540E0,-5.075707436E0,-9.370905876E0,-3.687070608E-1
3.211228183E0,-4.948814869E0,-9.040505409E0,-3.830722570E-1
3.213211825E0,-4.879383087E0,-8.863334656E0,-3.447650373E-1
3.215225985E0,-4.680664539E0,-8.499416351E0,-1.460463107E-1
3.217209628E0,-4.608838081E0,-8.176198959E0,-1.125274822E-1
3.219223788E0,-4.673481941E0,-8.037335396E0,-8.858546615E-2
3.221207431E0,-4.532223701E0,-7.874529362E0,2.992752194E-1
3.223221591E0,-4.041412354E0,-7.805097580E0,9.385270476E-1
3.225205233E0,-3.823540211E0,-7.666234016E0,1.103726983E0
3.227188876E0,-3.660734415E0,-7.436390400E0,9.911994934E-1
3.229203036E0,-3.751713991E0,-7.299921036E0,7.852981687E-1
3.231217196E0,-3.751713991E0,-7.110779285E0,7.445967197E-1
3.233200839E0,-3.663128614E0,-6.943184853E0,8.451532125E-1
3.235184481E0,-3.529053211E0,-6.876147270E0,9.265560508E-1
3.237168124E0,-3.399766445E0,-6.749254704E0,1.029506683E0
3.239151767E0,-3.234566450E0,-6.641515732E0,1.070208192E0
3.241135409E0,-3.114856482E0,-6.619967937E0,1.154005170E0
3.243149569E0,-2.822763920E0,-6.655880928E0,1.309628367E0
3.245163729E0,-2.698265314E0,-6.679822922E0,1.323993564E0
3.247147372E0,-2.628833532E0,-6.698976517E0,1.331176162E0
3.249161532E0,-2.389413357E0,-6.725312710E0,1.419761658E0
3.251145175E0,-2.245761156E0,-6.758831501E0,1.359906554E0
3.253128817E0,-2.212242365E0,-6.782773495E0,1.266532660E0
3.255112460E0,-2.133233786E0,-6.885724068E0,1.187524080E0
3.257126620E0,-2.092532396E0,-6.943184853E0,1.118092179E0
3.259110263E0,-2.161964178E0,-7.031770229E0,8.595184088E-1
3.261124423E0,-2.308010340E0,-7.062894821E0,7.206547260E-1
3.263138583E0,-2.322375536E0,-7.105990410E0,7.134721279E-1
3.265122226E0,-2.324769735E0,-7.189787865E0,5.650315881E-1
3.267136386E0,-2.365471363E0,-7.295132637E0,3.758896589E-1
3.269120028E0,-2.427720547E0,-7.328651428E0,2.920926213E-1
3.271134188E0,-2.540247917E0,-7.422025204E0,1.029506698E-1
3.273117831E0,-2.691082716E0,-7.517793179E0,-1.675941236E-2
3.275101474E0,-2.786850691E0,-7.584830761E0,-1.077390760E-1
3.277085116E0,-3.126827478E0,-7.654263020E0,-9.097966552E-2
3.279068759E0,-3.478775024E0,-7.833827972E0,-1.316810995E-1
3.281052401E0,-3.679888010E0,-7.948749542E0,-2.609679997E-1
3.283066561E0,-3.986345768E0,-8.171410561E0,-5.315127969E-1
3.285050204E0,-4.225766182E0,-8.492233276E0,-8.068459630E-1
3.287033847E0,-4.345476151E0,-8.647856712E0,-9.792284966E-1
3.289017489E0,-4.491522312E0,-9.071630478E0,-1.309628367E0
3.291031649E0,-4.484339714E0,-9.301473618E0,-1.482010841E0
3.293015292E0,-4.510675907E0,-9.751583099E0,-1.754949808E0
3.295029452E0,-4.604049683E0,-1.003888798E1,-2.049436569E0
3.297013095E0,-4.697423935E0,-1.013944435E1,-2.209848166E0
3.299027255E0,-4.869806290E0,-1.032379818E1,-2.444479942E0
3.301010897E0,-5.039794445E0,-1.046745014E1,-2.822763920E0
3.302994540E0,-5.109226227E0,-1.051533413E1,-3.011905670E0
3.305008700E0,-5.360617638E0,-1.053209305E1,-3.246537447E0
3.306992343E0,-5.568912983E0,-1.057518864E1,-3.349488258E0
3.309006503E0,-5.597643375E0,-1.060631371E1,-3.390189648E0
3.310990145E0,-5.602431774E0,-1.058476543E1,-3.447650433E0
3.312973788E0,-5.518634796E0,-1.052491093E1,-3.615244627E0
3.314957431E0,-5.430049419E0,-1.044829655E1,-3.612850428E0
3.316941073E0,-5.216965675E0,-1.025436592E1,-3.426102638E0
3.318924716E0,-5.116408825E0,-1.016817474E1,-3.287238836E0
3.320908358E0,-5.025429249E0,-1.006282997E1,-3.270479441E0
3.322922519E0,-4.841075897E0,-9.926360130E0,-3.098097086E0
3.324906161E0,-4.762067318E0,-9.823410034E0,-2.913743496E0
3.326920321E0,-4.553771496E0,-9.674968719E0,-2.557007313E0
3.328903964E0,-4.213795185E0,-9.552865028E0,-2.154781580E0
3.330887606E0,-3.983951569E0,-9.540893555E0,-1.932120800E0
3.332901767E0,-3.643975019E0,-9.476250648E0,-1.575384736E0
3.334885409E0,-3.337517262E0,-9.375694275E0,-1.125274777E0
3.336899569E0,-3.234566450E0,-9.349357605E0,-9.337386489E-1
3.338883212E0,-3.009511471E0,-9.320627213E0,-5.913678408E-1
3.340897372E0,-2.712630510E0,-9.306262016E0,-2.753331959E-1
3.342911532E0,-2.535459518E0,-9.294290543E0,-1.675941199E-1
3.344895175E0,-2.233790159E0,-9.289502144E0,9.816227108E-2
3.346878817E0,-1.991975784E0,-9.296685219E0,1.771709323E-1
3.348862460E0,-1.963245392E0,-9.323021889E0,1.484405100E-1
3.350876620E0,-2.054224968E0,-9.354146004E0,1.556231081E-1
3.352860263E0,-2.173935175E0,-9.390059471E0,-2.394201607E-2
3.354874423E0,-2.269703150E0,-9.397241592E0,-1.604115069E-1
3.356858065E0,-2.573766708E0,-9.466673851E0,-4.309563041E-1
3.358872226E0,-2.913743496E0,-9.519346237E0,-7.206547260E-1
3.360855868E0,-3.086126089E0,-9.598354340E0,-9.121908545E-1
3.362839511E0,-3.481169224E0,-9.624691010E0,-1.273715258E0
3.364823153E0,-3.689464808E0,-9.612719536E0,-1.417367458E0
3.366806796E0,-4.048594952E0,-9.569623947E0,-1.656787634E0
3.368820956E0,-4.479551315E0,-9.502586365E0,-1.862688899E0
3.370804599E0,-4.726154327E0,-9.423578262E0,-1.934514999E0
3.372818759E0,-5.114014626E0,-9.291896820E0,-2.025494576E0
3.374802401E0,-5.358223438E0,-9.277531624E0,-2.078166962E0
3.376786044E0,-5.422866821E0,-9.313444138E0,-2.085349798E0
3.378769686E0,-5.475539207E0,-9.495404243E0,-2.075772762E0
3.380753329E0,-5.480327606E0,-9.744400978E0,-2.197877169E0
3.382767489E0,-5.556941986E0,-9.856928825E0,-2.200271368E0
3.384751132E0,-5.657498837E0,-9.993397713E0,-2.190694571E0
3.386765292E0,-5.655104637E0,-1.001733971E1,-2.037465572E0
3.388748935E0,-5.621585369E0,-1.006043530E1,-1.948880196E0
3.390732577E0,-5.564124584E0,-1.007480049E1,-1.963245392E0
3.392716220E0,-5.528211594E0,-1.005804157E1,-1.889025092E0
3.394699862E0,-5.511452198E0,-1.002931118E1,-1.709460020E0
3.396714022E0,-5.540182590E0,-9.969455719E0,-1.592144132E0
3.398697665E0,-5.530605793E0,-9.907206535E0,-1.541865945E0
3.400711825E0,-5.465962410E0,-9.828198433E0,-1.316810966E0
3.402725985E0,-5.355829239E0,-9.758766174E0,-1.110909581E0
3.404709628E0,-5.279214859E0,-9.780313492E0,-1.051054597E0
3.406693270E0,-5.140350819E0,-9.837775230E0,-1.103726983E0
3.408676913E0,-5.049371243E0,-9.868899345E0,-1.134851575E0
3.410691073E0,-5.020640850E0,-9.895236015E0,-1.142034173E0
3.412674716E0,-4.888959885E0,-9.868899345E0,-1.113303781E0
3.414688876E0,-4.721365929E0,-9.861717224E0,-9.050082564E-1
3.416672519E0,-4.596867085E0,-9.859322548E0,-7.924807668E-1
3.418686679E0,-4.498704910E0,-9.777919769E0,-5.386953950E-1
3.420700839E0,-4.381389141E0,-9.684545517E0,-4.453215301E-1
3.422684481E0,-4.285621166E0,-9.658209801E0,-4.357447028E-1
3.424668124E0,-4.015076160E0,-9.607931137E0,-3.208230138E-1
3.426651767E0,-3.950432777E0,-9.600749016E0,-2.322375625E-1
3.428665927E0,-4.024652958E0,-9.521739960E0,-2.178723514E-1
3.430649569E0,-4.225766182E0,-9.368511200E0,-9.097966552E-2
3.432663729E0,-4.340687752E0,-9.294290543E0,1.197100803E-2
3.434647372E0,-4.637568474E0,-9.193734169E0,3.256114423E-1
3.436631015E0,-4.855441093E0,-9.198522568E0,6.009446383E-1
3.438614657E0,-4.855441093E0,-9.239224434E0,7.254431248E-1
3.440598300E0,-4.654327869E0,-9.385271072E0,9.552865028E-1
3.442581942E0,-4.367023945E0,-9.552865028E0,1.209071875E0
3.444565585E0,-4.185064793E0,-9.634267807E0,1.295263171E0
3.446579745E0,-3.888183594E0,-9.749189377E0,1.431732655E0
3.448593905E0,-3.739742994E0,-9.782708168E0,1.462857246E0
3.450577548E0,-3.691859007E0,-9.809044838E0,1.403002143E0
3.452561190E0,-3.658340216E0,-9.856928825E0,1.225831270E0
3.454544833E0,-3.725377798E0,-9.856928825E0,9.576807022E-1
3.456558993E0,-3.792415380E0,-9.837775230E0,7.661445141E-1
3.458542636E0,-3.890577793E0,-9.765948296E0,3.399766386E-1
3.460556796E0,-3.926490784E0,-9.718064308E0,1.412578970E-1
3.462540438E0,-3.902548790E0,-9.655815125E0,-3.447650373E-1
3.464554599E0,-3.828328609E0,-9.672574997E0,-8.379706144E-1
3.466538241E0,-3.773261786E0,-9.686940193E0,-1.051054597E0
3.468521884E0,-3.672705412E0,-9.679757118E0,-1.486799240E0
3.470505526E0,-3.713406801E0,-9.569623947E0,-1.807622313E0
3.472489169E0,-3.694253206E0,-9.509769440E0,-1.939303398E0
3.474503329E0,-3.610456228E0,-9.366117477E0,-2.183511972E0
3.476486972E0,-3.476380825E0,-9.227252960E0,-2.281674147E0
3.478501132E0,-3.385401249E0,-9.215282440E0,-2.205059767E0
3.480515292E0,-3.155557871E0,-9.275136948E0,-1.898601890E0
3.482498935E0,-2.930502892E0,-9.433155060E0,-1.436521053E0
3.484482577E0,-2.820369720E0,-9.516951561E0,-1.225831270E0
3.486466220E0,-2.655169725E0,-9.672574997E0,-8.331822157E-1
3.488480380E0,-2.530671120E0,-9.801861763E0,-4.453215301E-1
3.490464022E0,-2.511517525E0,-9.830592155E0,-2.633621991E-1
3.492478183E0,-2.542642117E0,-9.904812813E0,2.633621916E-2
3.494461825E0,-2.631227732E0,-9.955090523E0,1.723825186E-1
3.496475985E0,-2.669534922E0,-1.006282997E1,4.333505034E-1
3.498459628E0,-2.686294317E0,-1.028309631E1,7.110779285E-1
3.500473788E0,-2.741360903E0,-1.040998936E1,8.355764151E-1
3.502457431E0,-2.894589901E0,-1.058476543E1,9.624691010E-1
3.504441073E0,-3.011905670E0,-1.063504410E1,9.840168953E-1
3.506455233E0,-3.112462282E0,-1.061828423E1,9.026140571E-1
3.508438876E0,-3.320757866E0,-1.053927612E1,7.565677166E-1
3.510453036E0,-3.378218651E0,-1.045308495E1,5.650315881E-1
3.512436679E0,-3.366247654E0,-1.040280628E1,4.070142806E-1
3.514420321E0,-3.296815634E0,-1.030224991E1,8.619125932E-2
3.516373446E0,-3.215412855E0,-1.020408726E1,-2.202665508E-1
3.518387606E0,-3.167528868E0,-1.014902115E1,-3.687070608E-1
3.520371249E0,-2.980781078E0,-1.005325317E1,-6.847416759E-1
3.522354892E0,-2.801215887E0,-9.988609314E0,-1.005564690E0
3.524369052E0,-2.698265314E0,-9.890447617E0,-1.142034173E0
3.526352694E0,-2.437297344E0,-9.804255486E0,-1.297657371E0
3.528366854E0,-2.296039343E0,-9.770736694E0,-1.352723956E0
3.530350497E0,-2.056619167E0,-9.679757118E0,-1.501164436E0
3.532334140E0,-1.912967205E0,-9.619902611E0,-1.525106430E0
3.534317782E0,-1.867477298E0,-9.576807022E0,-1.534683347E0
3.536301425E0,-1.745373011E0,-9.500192642E0,-1.671152830E0
3.538285067E0,-1.678335428E0,-9.459490776E0,-1.795651317E0
3.540268710E0,-1.608903527E0,-9.457097054E0,-1.843535304E0
3.542282870E0,-1.398213744E0,-9.516951561E0,-2.123656988E0
3.544266513E0,-1.350329757E0,-9.536105156E0,-2.262520552E0
3.546280673E0,-1.419761658E0,-9.483432770E0,-2.276885748E0
3.548264315E0,-1.527500629E0,-9.375694275E0,-2.375048161E0
3.550247958E0,-1.522712231E0,-9.301473618E0,-2.389413357E0
3.552262118E0,-1.532289028E0,-9.272743225E0,-2.322375536E0
3.554245761E0,-1.577778935E0,-9.311050415E0,-2.104503393E0
3.556259921E0,-1.766920805E0,-9.356540680E0,-1.817199111E0
3.558243563E0,-1.936909199E0,-9.378087997E0,-1.709460020E0
3.560257724E0,-2.327163935E0,-9.366117477E0,-1.513135433E0
3.562241366E0,-2.468421936E0,-9.390059471E0,-1.529894829E0
3.564225009E0,-2.537853718E0,-9.521739960E0,-1.613691926E0
3.566208651E0,-2.707842112E0,-9.646238327E0,-1.458068848E0
3.568192294E0,-2.856282711E0,-9.698910713E0,-1.345541358E0
3.570206454E0,-3.081337690E0,-9.739612579E0,-1.074996591E0
3.572190097E0,-3.213018656E0,-9.713275909E0,-8.212111592E-1
3.574204257E0,-3.251325846E0,-9.691728592E0,-6.895300746E-1
3.576157382E0,-3.323152065E0,-9.655815125E0,-4.213795066E-1
3.578171542E0,-3.584120035E0,-9.624691010E0,-1.412578970E-1
3.580155185E0,-4.003105164E0,-9.682151794E0,-2.873042040E-2
3.582138827E0,-5.032611847E0,-9.926360130E0,2.322375625E-1
3.584122470E0,-5.497087002E0,-1.011071396E1,2.489969730E-1
3.586106112E0,-5.456385612E0,-1.047223854E1,2.609679997E-1
3.588120272E0,-5.097255230E0,-1.071405220E1,3.663128614E-1
3.590134433E0,-4.876988888E0,-1.078587818E1,4.620809257E-1
3.592118075E0,-4.539406300E0,-1.085052204E1,5.171475410E-1
3.594101718E0,-4.290409565E0,-1.081460953E1,5.147533417E-1
3.596085360E0,-4.163516521E0,-1.076672459E1,4.932055473E-1
3.598069003E0,-3.730166197E0,-1.060631371E1,3.758896589E-1
3.600052645E0,-3.292027235E0,-1.040759468E1,3.830722719E-2
3.602066806E0,-3.105279684E0,-1.028788471E1,-1.197100878E-1
3.604019931E0,-2.767697096E0,-1.005804157E1,-4.453215301E-1
3.606034091E0,-2.501940727E0,-9.818621635E0,-7.517793179E-1
3.608017733E0,-2.336740971E0,-9.703699112E0,-8.930372596E-1
3.610001376E0,-2.075772762E0,-9.497797966E0,-1.197100878E0
3.612015536E0,-1.886630893E0,-9.327810287E0,-1.414973259E0
3.613999179E0,-1.814804912E0,-9.251194954E0,-1.446097851E0
3.616013339E0,-1.738190413E0,-9.126696587E0,-1.455674648E0
3.617996981E0,-1.802833915E0,-9.076418877E0,-1.434126854E0
3.620011142E0,-1.829170108E0,-8.997409821E0,-1.357512355E0
3.621994784E0,-1.881842494E0,-8.978256226E0,-1.209071875E0
3.623978427E0,-1.915361404E0,-8.954314232E0,-1.182735682E0
3.625962069E0,-2.092532396E0,-8.896853447E0,-1.139639974E0
3.627945712E0,-2.221819162E0,-8.836998940E0,-1.091755986E0
3.629959872E0,-2.269703150E0,-8.810662270E0,-1.072602391E0
3.631943515E0,-2.341529369E0,-8.777143478E0,-1.034295082E0
3.633957675E0,-2.360682964E0,-8.729259491E0,-1.031900883E0
3.635941317E0,-2.341529369E0,-8.707711220E0,-1.058237195E0
3.637955478E0,-2.303221941E0,-8.650250435E0,-1.127668977E0
3.639939120E0,-2.260126352E0,-8.611943245E0,-9.792284966E-1
3.641922763E0,-2.240972757E0,-8.590395927E0,-9.504981041E-1
3.643906405E0,-2.276885748E0,-8.540117264E0,-9.600749016E-1
3.645890048E0,-2.363077164E0,-8.559270859E0,-1.031900883E0
3.647904208E0,-2.365471363E0,-8.595184326E0,-1.072602391E0
3.649887851E0,-2.360682964E0,-8.678980827E0,-1.204283476E0
3.651902011E0,-2.341529369E0,-8.705317497E0,-1.249773264E0
3.653855136E0,-2.379836559E0,-8.757989883E0,-1.189918280E0
3.655869296E0,-2.384624958E0,-8.710105896E0,-1.185129881E0
3.657883456E0,-2.305616140E0,-8.662221909E0,-1.240196466E0
3.659867099E0,-1.831564307E0,-8.427590370E0,-1.711854219E0
3.661850741E0,-1.786074519E0,-8.449137688E0,-1.805228114E0
3.663834384E0,-1.817199111E0,-8.535328865E0,-1.896207690E0
3.665848544E0,-1.771709204E0,-8.813055992E0,-2.099714994E0
3.667832186E0,-1.654393315E0,-9.141061783E0,-2.049436569E0
3.669846347E0,-1.721431017E0,-9.188945770E0,-1.893813491E0
3.671829989E0,-2.231395960E0,-9.198522568E0,-1.517923832E0
3.673813632E0,-2.667140722E0,-9.454702377E0,-1.393425345E0
3.675797274E0,-2.827552319E0,-9.528923035E0,-1.312022567E0
3.677780917E0,-3.059789658E0,-9.888052940E0,-1.072602391E0
3.679764560E0,-3.023876667E0,-1.024000072E1,-1.211466074E0
3.681748202E0,-2.952050686E0,-1.087207031E1,-1.295263171E0
3.683762362E0,-3.201047659E0,-1.088882923E1,-5.937620401E-1
3.685746005E0,-3.239354849E0,-1.104445267E1,-4.213795066E-1
3.687760165E0,-2.964021683E0,-1.148019695E1,-5.027823448E-1
3.689713290E0,-2.779668093E0,-1.171004009E1,-5.650315881E-1
3.691727450E0,-2.817975283E0,-1.170525169E1,-5.027823448E-1
3.693711093E0,-2.899378300E0,-1.151850414E1,-3.256114423E-1
3.695694735E0,-2.851494312E0,-1.126471901E1,-2.992752194E-1
3.697678378E0,-2.746149302E0,-1.114500904E1,-3.447650373E-1
3.699662020E0,-2.523488522E0,-1.062067890E1,-3.567360640E-1
3.701645663E0,-2.602497339E0,-9.864110947E0,1.771709323E-1
3.703629306E0,-2.365471363E0,-9.940725327E0,-1.364694983E-1
3.705643466E0,-1.680729628E0,-9.957485199E0,-8.092401624E-1
3.707627108E0,-1.170764685E0,-9.952696800E0,-1.400607944E0
3.709641269E0,-9.792284966E-1,-1.007480049E1,-1.671152830E0
3.711655429E0,-6.919242740E-1,-1.007958889E1,-1.944091797E0
3.713639071E0,-6.200982332E-1,-1.006282997E1,-1.999158382E0
3.715622714E0,-4.692635238E-1,-1.004607010E1,-2.219424963E0
3.717606356E0,-4.022258818E-1,-9.931148529E0,-2.377442360E0
3.719589999E0,-4.381389022E-1,-9.904812813E0,-2.451662540E0
3.721573642E0,-5.602431893E-1,-9.840168953E0,-2.566584110E0
3.723557284E0,-8.236053586E-1,-9.753977776E0,-2.609679937E0
3.725540927E0,-9.145850539E-1,-9.708487511E0,-2.626439333E0
3.727555087E0,-9.864110947E-1,-9.672574997E0,-2.829946518E0
3.729538729E0,-1.343147159E0,-9.691728592E0,-2.801215887E0
3.731552890E0,-1.496376038E0,-9.756371498E0,-2.729389906E0
3.733567050E0,-1.630451322E0,-9.849745750E0,-2.528276920E0
3.735550692E0,-1.642422318E0,-9.940725327E0,-2.422932148E0
3.737564853E0,-1.596932530E0,-1.000297451E1,-2.418143749E0
3.739548495E0,-1.470039845E0,-1.009395409E1,-2.394201756E0
3.741532138E0,-1.438915253E0,-1.010592556E1,-2.343923569E0
3.743515780E0,-1.455674648E0,-1.011789608E1,-2.264914751E0
3.745529940E0,-1.570596337E0,-1.012029076E1,-2.252943754E0
3.747513583E0,-1.644816518E0,-1.011789608E1,-2.202665567E0
3.749527743E0,-1.711854219E0,-1.009634876E1,-2.061407566E0
3.751511386E0,-1.762132406E0,-1.007958889E1,-1.980004787E0
3.753495028E0,-1.805228114E0,-1.009156036E1,-1.936909199E0
3.755448153E0,-1.790862918E0,-1.009395409E1,-1.867477298E0
3.757462313E0,-1.810016513E0,-1.009634876E1,-1.814804912E0
3.759445956E0,-1.848323703E0,-1.008677197E1,-1.793257117E0
3.761429599E0,-1.920149803E0,-1.006043530E1,-1.675941229E0
3.763443759E0,-2.082955360E0,-1.008198357E1,-1.656787634E0
3.765457919E0,-2.123656988E0,-1.009395409E1,-1.632845521E0
3.767441561E0,-2.085349798E0,-1.010113716E1,-1.470039845E0
3.769425204E0,-1.996764183E0,-1.009874249E1,-1.240196466E0
3.771408847E0,-2.003946781E0,-1.009874249E1,-1.149216771E0
3.773423007E0,-1.994369984E0,-1.013944435E1,-1.024718285E0
3.775406649E0,-2.027888775E0,-1.013465595E1,-9.289502501E-1
3.777420810E0,-2.188300371E0,-1.014423275E1,-8.595184088E-1
3.779404452E0,-2.274491549E0,-1.016338634E1,-7.876923680E-1
3.781418612E0,-2.351106167E0,-1.019929886E1,-7.924807668E-1
3.783402255E0,-2.561795712E0,-1.028309631E1,-8.236053586E-1
3.785385897E0,-2.676717520E0,-1.032858658E1,-1.012747288E0
3.787369540E0,-2.703053713E0,-1.034774017E1,-1.108515382E0
3.789353183E0,-2.671929121E0,-1.035971069E1,-1.189918280E0
3.791367343E0,-2.477998734E0,-1.034055710E1,-1.218648672E0
3.793350985E0,-2.420537949E0,-1.030224991E1,-1.185129881E0
3.795365145E0,-2.310404539E0,-1.018732834E1,-1.230619669E0
3.797348788E0,-2.293645144E0,-1.005564690E1,-1.419761658E0
3.799362948E0,-2.329558372E0,-9.979032516E0,-1.532289028E0
3.801346591E0,-2.286462545E0,-9.777919769E0,-1.589749932E0
3.803330233E0,-2.025494576E0,-9.641449928E0,-1.704671621E0
3.805313876E0,-1.759738207E0,-9.591172218E0,-1.733402014E0
3.807297519E0,-1.177947283E0,-9.485827446E0,-1.685518026E0
3.809311679E0,-1.027112484E0,-9.421183586E0,-1.671152830E0
3.811295321E0,-1.156399369E0,-9.270348549E0,-1.845929503E0
3.813309481E0,-1.699883223E0,-8.643068314E0,-1.910573006E0
3.815293124E0,-1.838746905E0,-8.473079681E0,-1.917755604E0
3.817307284E0,-1.719036818E0,-8.631096840E0,-2.118868589E0
3.819290927E0,-1.903390408E0,-8.628703117E0,-2.310404539E0
3.821305087E0,-2.185906172E0,-8.315062523E0,-2.221819162E0
3.823288729E0,-2.413355350E0,-7.982268333E0,-2.272097349E0
3.825272372E0,-2.236184359E0,-7.891288757E0,-2.372653961E0
3.827256015E0,-2.346317768E0,-7.697358608E0,-2.329558372E0
3.829239657E0,-2.444479942E0,-7.568071365E0,-2.403778553E0
3.831253817E0,-2.614468336E0,-7.398083210E0,-2.501940727E0
3.833237460E0,-2.578555346E0,-7.331045628E0,-2.499546528E0
3.835251620E0,-2.365471363E0,-7.151480675E0,-2.358288765E0
3.837265780E0,-2.061407566E0,-6.885724068E0,-2.097320795E0
3.839249423E0,-2.037465572E0,-6.710947514E0,-1.929726601E0
3.841233065E0,-1.843535304E0,-6.698976517E0,-1.769315004E0
3.843216708E0,-1.747767210E0,-6.782773495E0,-1.833958507E0
3.845230868E0,-1.640028119E0,-7.015010834E0,-2.149993181E0
3.847214511E0,-1.776497602E0,-7.194576263E0,-2.444479942E0
3.849228671E0,-1.771709204E0,-7.323863029E0,-2.480392933E0
3.851212313E0,-1.151610970E0,-7.615955830E0,-2.243366957E0
3.853195956E0,-6.560112834E-1,-7.826645374E0,-1.869871497E0
3.855149081E0,-7.876923680E-1,-7.948749542E0,-1.790862918E0
3.857163241E0,-1.244984865E0,-8.315062523E0,-1.891419291E0
3.859146884E0,-1.733402014E0,-8.628703117E0,-1.944091797E0
3.861130526E0,-1.991975784E0,-8.784325600E0,-1.932120800E0
3.863144686E0,-2.391807556E0,-8.927978516E0,-1.680729628E0
3.865128329E0,-2.676717520E0,-9.215282440E0,-1.455674648E0
3.867142489E0,-2.700659513E0,-9.435548782E0,-1.407790542E0
3.869126132E0,-2.789244890E0,-9.624691010E0,-1.307234168E0
3.871109774E0,-2.454056740E0,-9.806650162E0,-1.326387763E0
3.873123935E0,-2.281674147E0,-1.023281765E1,-1.414973259E0
3.875107577E0,-2.240972757E0,-1.013944435E1,-1.266532660E0
3.877121737E0,-1.936909199E0,-1.018253994E1,-1.213860273E0
3.879105380E0,-1.134851575E0,-1.040041256E1,-1.206677675E0
3.881119540E0,-8.164227605E-1,-1.035971069E1,-1.165976286E0
3.883103183E0,-9.552865028E-1,-1.023760605E1,-1.144428372E0
3.885086825E0,-1.493981838E0,-9.873687744E0,-1.213860273E0
3.887070468E0,-1.963245392E0,-9.516951561E0,-1.484405041E0
3.889054110E0,-2.102109194E0,-9.392453194E0,-1.635239720E0
3.891037753E0,-2.138022184E0,-9.196128845E0,-2.205059767E0
3.893021395E0,-2.109291792E0,-9.014169693E0,-2.616862535E0
3.894974520E0,-2.104503393E0,-8.906430244E0,-2.712630510E0
3.896988681E0,-1.886630893E0,-8.690952301E0,-2.719813108E0
3.898972323E0,-1.558625340E0,-8.592789650E0,-2.700659513E0
3.900955966E0,-1.467645645E0,-8.396465302E0,-2.638410330E0
3.902939608E0,-1.276109457E0,-8.195352554E0,-2.640804529E0
3.904923251E0,-1.197100878E0,-8.101978302E0,-2.669534922E0
3.906937411E0,-1.053448796E0,-8.010998726E0,-2.863465309E0
3.908921054E0,-9.074024558E-1,-8.008605003E0,-3.205836058E0
3.910935214E0,-8.643068075E-1,-8.034940720E0,-3.394978046E0
3.912918856E0,-7.661445141E-1,-8.149862289E0,-3.813963413E0
3.914902499E0,-6.200982332E-1,-8.252813339E0,-4.299986362E0
3.916886142E0,-5.506663918E-1,-8.310274124E0,-4.505887508E0
3.918869784E0,-4.429273009E-1,-8.386888504E0,-4.879383087E0
3.920853427E0,-4.189853072E-1,-8.403648376E0,-5.149928093E0
3.922837069E0,-3.351882398E-1,-8.418013573E0,-5.262455463E0
3.924851229E0,-2.513911724E-1,-8.408436775E0,-5.348646641E0
3.926834872E0,-2.657563984E-1,-8.410830498E0,-5.315127850E0
3.928818515E0,-2.082955539E-1,-8.463502884E0,-5.298368454E0
3.930832675E0,-3.351882473E-2,-8.576030731E0,-5.231330872E0
3.932816317E0,6.943184882E-2,-8.650250435E0,-5.193023682E0
3.934830478E0,1.149216816E-1,-8.796297073E0,-5.085284233E0
3.936814120E0,0.000000000E0,-8.973467827E0,-4.788403511E0
3.938828280E0,-1.005564705E-1,-9.018958092E0,-4.632780075E0
3.940811923E0,-2.274491638E-1,-9.097966194E0,-4.307168961E0
3.942795565E0,-2.992752194E-1,-9.244012833E0,-3.988739967E0
3.944779208E0,-3.351882398E-1,-9.332598686E0,-3.818751812E0
3.946762851E0,-4.429273009E-1,-9.457097054E0,-3.414131641E0
3.948777011E0,-4.453215301E-1,-9.572018623E0,-2.870647907E0
3.950730136E0,-4.525041282E-1,-9.617507935E0,-2.602497339E0
3.952744296E0,-4.836287498E-1,-9.610325813E0,-2.195482969E0
3.954697421E0,-6.392518282E-1,-9.557653427E0,-1.836352706E0
3.956711581E0,-7.254431248E-1,-9.504981041E0,-1.685518026E0
3.958695224E0,-8.954314590E-1,-9.404424667E0,-1.446097851E0
3.960678866E0,-9.768342972E-1,-9.356540680E0,-1.359906554E0
3.962662509E0,-1.034295082E0,-9.296685219E0,-1.213860273E0
3.964646151E0,-1.012747288E0,-9.251194954E0,-1.163581967E0
3.966660311E0,-9.864110947E-1,-9.234436035E0,-1.192312479E0
3.968643954E0,-9.983820915E-1,-9.172186852E0,-1.292868972E0
3.970658114E0,-1.036689281E0,-9.131484985E0,-1.388636947E0
3.972641757E0,-1.029506683E0,-9.131484985E0,-1.477222443E0
3.974655917E0,-8.714894056E-1,-9.174580574E0,-1.707065821E0
3.976639560E0,-8.259995580E-1,-9.196128845E0,-1.994369984E0
3.978653720E0,-8.212111592E-1,-9.210494041E0,-2.152387381E0
3.980637362E0,-8.236053586E-1,-9.255983353E0,-2.458845139E0
3.982621005E0,-8.283938169E-1,-9.296685219E0,-2.719813108E0
3.984635165E0,-7.996633649E-1,-9.323021889E0,-2.786850691E0
3.986618808E0,-7.206547260E-1,-9.423578262E0,-2.954444885E0
3.988632968E0,-5.913678408E-1,-9.514557838E0,-3.110068083E0
3.990616610E0,-5.530605912E-1,-9.567230225E0,-3.196259260E0
3.992600253E0,-4.668693244E-1,-9.679757118E0,-3.387795448E0
3.994583895E0,-4.620809257E-1,-9.722852707E0,-3.471592426E0
3.996567538E0,-4.381389022E-1,-9.852140427E0,-3.569754839E0
3.998551181E0,-3.303998411E-1,-1.003170490E1,-3.651157618E0
4.000534823E0,-3.160346150E-1,-1.011071396E1,-3.677493811E0
4.002548983E0,-2.466027737E-1,-1.027351952E1,-3.658340216E0
4.004532626E0,-1.819593310E-1,-1.048420906E1,-3.615244627E0
4.006546786E0,-1.963245422E-1,-1.058476543E1,-3.593696833E0
4.008530429E0,-2.968810201E-1,-1.079784966E1,-3.435679436E0
4.010514071E0,-4.165911078E-1,-1.098699188E1,-3.265691042E0
4.012497714E0,-5.458779931E-1,-1.105163479E1,-3.165134668E0
4.014481356E0,-7.254431248E-1,-1.115937424E1,-2.964021683E0
4.016464999E0,-9.121908545E-1,-1.117852783E1,-2.707842112E0
4.018448642E0,-1.039083481E0,-1.118810463E1,-2.590526342E0
4.020462802E0,-1.323993564E0,-1.110670185E1,-2.322375536E0
4.022446444E0,-1.403002143E0,-1.108754826E1,-2.185906172E0
4.024460604E0,-1.338358760E0,-1.112585545E1,-1.970427990E0
4.026444247E0,-1.326387763E0,-1.110909557E1,-1.814804912E0
4.028427890E0,-1.295263171E0,-1.108036518E1,-1.745373011E0
4.030411532E0,-1.151610970E0,-1.104684639E1,-1.695094824E0
4.032395175E0,-1.070208192E0,-1.093431950E1,-1.675941229E0
4.034409335E0,-9.696516991E-1,-1.091755962E1,-1.711854219E0
4.036392978E0,-8.810662031E-1,-1.084333992E1,-1.826775908E0
4.038407138E0,-8.331822157E-1,-1.077390766E1,-2.015917778E0
4.040390780E0,-7.637503147E-1,-1.072362900E1,-2.133233786E0
4.042404940E0,-6.655880809E-1,-1.064222622E1,-2.413355350E0
4.044388583E0,-6.512228847E-1,-1.048420906E1,-2.688688517E0
4.046372226E0,-8.068459630E-1,-1.030224991E1,-2.786850691E0
4.048355868E0,-1.086967587E0,-9.969455719E0,-2.942473888E0
4.050370028E0,-1.383848548E0,-9.804255486E0,-3.105279684E0
4.052353671E0,-1.544260144E0,-9.466673851E0,-3.217807055E0
4.054337313E0,-1.831564307E0,-9.088389397E0,-3.433285236E0
4.056320956E0,-1.968033791E0,-8.920795441E0,-3.507505417E0
4.058304599E0,-2.217030764E0,-8.592789650E0,-3.567360640E0
4.060318759E0,-2.348711967E0,-8.293514252E0,-3.608062029E0
4.062332919E0,-2.358288765E0,-8.171410561E0,-3.622427225E0
4.064316561E0,-2.138022184E0,-8.094796181E0,-3.586514235E0
4.066300204E0,-1.824381709E0,-8.137891769E0,-3.512293816E0
4.068283847E0,-1.707065821E0,-8.169015884E0,-3.440467834E0
4.070298007E0,-1.517923832E0,-8.267178535E0,-3.270479441E0
4.072312167E0,-1.539471745E0,-8.250418663E0,-3.078943491E0
4.074295810E0,-1.553836942E0,-8.252813339E0,-2.983175278E0
4.076309970E0,-1.221042871E0,-8.396465302E0,-2.791639090E0
4.078293612E0,-8.786720037E-1,-8.504204750E0,-2.616862535E0
4.080277255E0,-6.464344859E-1,-8.626308441E0,-2.525882721E0
4.082260897E0,-4.764461517E-1,-8.650250435E0,-2.477998734E0
4.084275058E0,-4.525041282E-1,-8.638279915E0,-2.418143749E0
4.086258700E0,-4.692635238E-1,-8.578424454E0,-2.468421936E0
4.088242343E0,-7.972691655E-1,-8.264783859E0,-2.600103140E0
4.090225985E0,-9.816226959E-1,-8.092401505E0,-2.657563925E0
4.092209628E0,-1.470039845E0,-7.630321026E0,-2.829946518E0
4.094223788E0,-1.781286120E0,-7.264008045E0,-3.110068083E0
4.096207431E0,-1.867477298E0,-7.110779285E0,-3.270479441E0
4.098221591E0,-2.118868589E0,-6.763619900E0,-3.354276657E0
4.100235751E0,-2.195482969E0,-6.543353081E0,-3.134010077E0
4.102219394E0,-2.099714994E0,-6.528987885E0,-2.987963676E0
4.104203036E0,-1.893813491E0,-6.598419666E0,-2.789244890E0
4.106186679E0,-1.795651317E0,-6.648698330E0,-2.686294317E0
4.108200839E0,-1.778891921E0,-6.682217121E0,-2.609679937E0
4.110214999E0,-1.704671621E0,-6.754043102E0,-2.449268341E0
4.112198642E0,-1.831564307E0,-6.816292286E0,-2.188300371E0
4.114182284E0,-1.869871497E0,-6.852205276E0,-2.023100376E0
4.116165927E0,-1.946485996E0,-6.957550049E0,-1.659181833E0
4.118180087E0,-1.886630893E0,-7.003039837E0,-1.369483352E0
4.120163729E0,-1.824381709E0,-7.055712223E0,-1.259350061E0
4.122177890E0,-1.659181833E0,-7.041347027E0,-1.268926859E0
4.124161532E0,-1.599326730E0,-6.995857239E0,-1.422155857E0
