"Time (s)","Gyroscope x (rad/s)","Gyroscope y (rad/s)","Gyroscope z (rad/s)"
5.304281400E-2,-5.914706588E-1,-1.012903452E0,6.244928762E-2
5.554364800E-2,-5.936011076E-1,-1.028881907E0,6.351451576E-2
5.804453300E-2,-6.106448174E-1,-1.066165090E0,6.884068251E-2
6.054536600E-2,-6.276885867E-1,-1.104513526E0,7.736254483E-2
6.304625200E-2,-6.447322965E-1,-1.132209539E0,8.375394344E-2
6.554708500E-2,-6.617760062E-1,-1.158840418E0,9.334104508E-2
6.804791800E-2,-6.809502244E-1,-1.183340788E0,9.547150880E-2
7.054880400E-2,-7.075810432E-1,-1.214232445E0,1.018629074E-1
7.304963700E-2,-7.384728193E-1,-1.240863323E0,1.093195379E-1
7.555047100E-2,-7.682993412E-1,-1.267494202E0,1.178414002E-1
7.805135600E-2,-8.002563119E-1,-1.293059707E0,1.338198930E-1
8.055218900E-2,-8.364742398E-1,-1.322886229E0,1.487331539E-1
8.311771000E-2,-8.663007617E-1,-1.358038902E0,1.615159512E-1
8.561859600E-2,-8.908011317E-1,-1.394256830E0,1.806901544E-1
8.811942900E-2,-9.153015018E-1,-1.432738423E0,2.030600458E-1
9.062026200E-2,-9.355409145E-1,-1.464695454E0,2.222342342E-1
9.312109600E-2,-9.515193701E-1,-1.498782873E0,2.446041405E-1
9.562198100E-2,-9.621717334E-1,-1.531805038E0,2.669740319E-1
9.812281400E-2,-9.653674364E-1,-1.570153475E0,2.957353294E-1
1.006236480E-1,-9.728240371E-1,-1.597849488E0,3.255618513E-1
1.031245330E-1,-9.770849943E-1,-1.620219469E0,3.585840762E-1
1.056253660E-1,-9.760197401E-1,-1.636197925E0,3.905410469E-1
1.081262520E-1,-9.781502485E-1,-1.651111245E0,4.310199022E-1
1.106270850E-1,-9.802806973E-1,-1.653241634E0,4.746944606E-1
1.132176060E-1,-9.866721034E-1,-1.643654585E0,5.162385702E-1
1.157184910E-1,-9.888025522E-1,-1.643654585E0,5.588479042E-1
1.182193250E-1,-9.941287041E-1,-1.654306889E0,6.003919840E-1
1.207201580E-1,-9.962592125E-1,-1.677742004E0,6.408708096E-1
1.232209910E-1,-9.994548559E-1,-1.704372883E0,6.760234833E-1
1.257218770E-1,-1.000520110E0,-1.743786454E0,7.090457082E-1
1.282227100E-1,-1.001585364E0,-1.795982838E0,7.388722301E-1
1.307235430E-1,-9.973244071E-1,-1.852440238E0,7.655031085E-1
1.332244290E-1,-9.930635095E-1,-1.902506232E0,7.836120725E-1
1.357252620E-1,-9.888025522E-1,-1.955767870E0,7.963948250E-1
1.382260960E-1,-9.877372980E-1,-2.007964134E0,8.070471883E-1
1.407269810E-1,-9.834764004E-1,-2.052704096E0,8.091776371E-1
1.433247930E-1,-9.749545455E-1,-2.094248056E0,8.113080859E-1
1.458256270E-1,-9.738892913E-1,-2.117683172E0,8.027862310E-1
1.483264600E-1,-9.749545455E-1,-2.132596493E0,7.963948250E-1
1.508272930E-1,-9.728240371E-1,-2.148575068E0,7.889382243E-1
1.533281790E-1,-9.738892913E-1,-2.152835846E0,7.772206664E-1
1.558290120E-1,-9.749545455E-1,-2.149640322E0,7.665683031E-1
1.583298460E-1,-9.813459516E-1,-2.144314051E0,7.580464482E-1
1.608307310E-1,-9.813459516E-1,-2.115552902E0,7.441984415E-1
1.633315640E-1,-9.813459516E-1,-1.971746325E0,7.260894775E-1
1.658323980E-1,-1.010107160E0,-1.617023706E0,7.111762166E-1
1.683332830E-1,-1.043129444E0,-1.297320724E0,6.994586587E-1
1.708341160E-1,-1.084673524E0,-1.056578040E0,6.877411008E-1
1.734463040E-1,-1.130478501E0,-8.754884005E-1,6.920019984E-1
1.759471370E-1,-1.181609750E0,-7.710955739E-1,6.973281503E-1
1.784479710E-1,-1.244458437E0,-7.316819429E-1,7.111762166E-1
1.809488560E-1,-1.306241989E0,-7.497909069E-1,7.335460782E-1
1.834496890E-1,-1.371221185E0,-8.169005513E-1,7.612421513E-1
1.859505230E-1,-1.435135245E0,-9.117063284E-1,7.910686731E-1
1.884513560E-1,-1.486266375E0,-1.034208059E0,8.240908980E-1
1.909522410E-1,-1.512897253E0,-1.178014517E0,8.485912681E-1
1.934530750E-1,-1.522484303E0,-1.290929317E0,8.698959351E-1
1.959539080E-1,-1.524614811E0,-1.325016737E0,8.858743906E-1
1.984547410E-1,-1.512897253E0,-1.274950743E0,8.912006021E-1
2.009556270E-1,-1.494788289E0,-1.171623230E0,9.007876515E-1
2.035485430E-1,-1.470287919E0,-1.059773684E0,9.082443118E-1
2.060493770E-1,-1.447917938E0,-9.649679661E-1,9.231575727E-1
2.085502100E-1,-1.417026281E0,-8.456618786E-1,9.338098764E-1
2.110510960E-1,-1.347786069E0,-6.038539410E-1,9.210271239E-1
2.135519290E-1,-1.246588945E0,-2.565880120E-1,8.975919485E-1
2.160527620E-1,-1.158174634E0,1.611164957E-2,9.007876515E-1
2.185535960E-1,-1.078282118E0,2.227668613E-1,9.220923185E-1
2.210544810E-1,-9.983896613E-1,3.793561161E-1,9.572450519E-1
2.235553140E-1,-9.206276536E-1,4.880098701E-1,9.977238774E-1
2.260561480E-1,-8.375394940E-1,5.572500229E-1,1.042463660E0
2.285570330E-1,-7.512555718E-1,5.881417990E-1,1.073355436E0
2.310578660E-1,-6.607108116E-1,5.955983996E-1,1.103181958E0
2.336523980E-1,-5.637745857E-1,5.860112906E-1,1.125551820E0
2.361532310E-1,-4.583165050E-1,5.636414289E-1,1.128747582E0
2.386540640E-1,-3.516600430E-1,5.380758047E-1,1.124486566E0
2.411548980E-1,-2.387453467E-1,5.071840882E-1,1.099986196E0
2.436557830E-1,-1.237001866E-1,4.613790512E-1,1.054181218E0
2.461566160E-1,-1.504641678E-2,4.038564563E-1,9.902672768E-1
2.486574500E-1,8.402025700E-2,3.410077095E-1,9.274185300E-1
2.511583350E-1,1.692388952E-1,2.824199200E-1,8.720263839E-1
2.536591680E-1,2.406095117E-1,2.291582525E-1,8.166342378E-1
2.561600020E-1,2.949363887E-1,1.897446364E-1,7.623074055E-1
2.586608870E-1,3.375457227E-1,1.545919478E-1,7.047848105E-1
2.611617210E-1,3.652417660E-1,1.268958896E-1,6.387403607E-1
2.637571370E-1,3.865464330E-1,1.066564545E-1,5.695002079E-1
2.662579710E-1,3.961335421E-1,9.280842543E-2,5.045210123E-1
2.687588040E-1,3.950682878E-1,9.493889660E-2,4.384765327E-1
2.712596370E-1,3.780245781E-1,1.055912226E-1,3.820191920E-1
2.737605230E-1,3.567199111E-1,1.258306503E-1,3.308880031E-1
2.762613560E-1,3.279586136E-1,1.556571722E-1,2.840177417E-1
2.787622410E-1,2.928059399E-1,1.929403245E-1,2.467346042E-1
2.812630750E-1,2.491313666E-1,2.376801223E-1,2.147776037E-1
2.837639080E-1,2.075872868E-1,2.941374779E-1,1.860163212E-1
2.862647410E-1,1.564560980E-1,3.548557460E-1,1.689725816E-1
2.887656270E-1,1.010639817E-1,4.283568263E-1,1.657768935E-1
2.912664600E-1,3.501953557E-2,5.274235010E-1,1.732335240E-1
2.938614080E-1,-4.167724028E-2,6.701647043E-1,2.030600458E-1
2.963622410E-1,-1.247654185E-1,8.256887197E-1,2.488650680E-1
2.988630750E-1,-2.110492885E-1,9.780170918E-1,2.850829959E-1
3.013639080E-1,-2.973331809E-1,1.121823549E0,3.213009238E-1
3.038647930E-1,-3.794892728E-1,1.253912449E0,3.564535975E-1
3.063656270E-1,-4.551208019E-1,1.367892385E0,3.745625615E-1
3.088664600E-1,-5.254262090E-1,1.470154762E0,3.873453438E-1
3.113672930E-1,-5.957315564E-1,1.562829971E0,3.990629315E-1
3.138681790E-1,-6.521888971E-1,1.657635689E0,4.033238590E-1
3.163690120E-1,-7.065157890E-1,1.753506660E0,4.075847864E-1
3.188698980E-1,-7.576469779E-1,1.854703903E0,4.033238590E-1
3.213707310E-1,-7.991910577E-1,1.953770518E0,3.958672285E-1
3.239682310E-1,-8.354089856E-1,2.064554691E0,3.820191920E-1
3.264690640E-1,-8.726921678E-1,2.164686680E0,3.671059310E-1
3.289698980E-1,-9.035838842E-1,2.228600740E0,3.404751122E-1
3.314707310E-1,-9.280842543E-1,2.246709585E0,3.106485903E-1
3.339716160E-1,-9.472584724E-1,2.236057281E0,2.808220685E-1
3.364724500E-1,-9.557803273E-1,2.184926033E0,2.403431982E-1
3.389732830E-1,-9.589760303E-1,2.110359669E0,1.892120093E-1
3.414741680E-1,-9.568455815E-1,2.030467272E0,1.295589656E-1
3.439750020E-1,-9.493889213E-1,1.944183469E0,5.818835273E-2
3.464758350E-1,-9.312799573E-1,1.854703903E0,-1.531272475E-2
3.489767210E-1,-9.057143927E-1,1.765224218E0,-9.094426781E-2
3.514775540E-1,-8.684312105E-1,1.677875161E0,-1.697715074E-1
3.540673980E-1,-8.311480880E-1,1.597982645E0,-2.454030514E-1
3.565682310E-1,-7.853430510E-1,1.525546789E0,-3.178389072E-1
3.590690640E-1,-7.256900072E-1,1.457371950E0,-3.838833570E-1
3.615698980E-1,-6.585803032E-1,1.387066603E0,-4.446016252E-1
3.640707830E-1,-5.872097015E-1,1.321022153E0,-4.978632927E-1
3.665716160E-1,-5.147738457E-1,1.254977703E0,-5.415378213E-1
3.690724500E-1,-4.380770922E-1,1.184672236E0,-5.788210034E-1
3.715733350E-1,-3.623123765E-1,1.113301635E0,-6.054518223E-1
3.740741680E-1,-2.845503688E-1,1.040865779E0,-6.235607862E-1
3.765750020E-1,-2.014621943E-1,9.609733224E-1,-6.288869381E-1
3.790758870E-1,-1.183740199E-1,8.864070177E-1,-6.342130899E-1
3.815767210E-1,-3.635107726E-2,8.107754588E-1,-6.320826411E-1
3.841731790E-1,4.247616604E-2,7.404701114E-1,-6.224955320E-1
3.866740120E-1,1.191729456E-1,6.776213646E-1,-6.043865681E-1
3.891748460E-1,1.980001926E-1,6.254249215E-1,-5.841471553E-1
3.916756790E-1,2.693707943E-1,5.817503929E-1,-5.607120395E-1
3.941765640E-1,3.332847953E-1,5.231625438E-1,-5.383421183E-1
3.966773980E-1,3.993292153E-1,3.985303044E-1,-5.266245604E-1
3.991782310E-1,4.717650712E-1,2.248973250E-1,-5.308855176E-1
4.016790640E-1,5.399399996E-1,9.174319357E-2,-5.394073725E-1
4.041799500E-1,6.070496440E-1,3.635107726E-2,-5.415378213E-1
4.066807830E-1,6.688331962E-1,3.422060981E-2,-5.340812206E-1
4.091816680E-1,7.167686820E-1,8.109086752E-2,-5.159722567E-1
4.116825020E-1,7.444647551E-1,1.982664913E-1,-4.978632927E-1
4.142721370E-1,7.519213557E-1,3.633776009E-1,-4.616453648E-1
4.167729710E-1,7.604432106E-1,5.572500229E-1,-4.094489515E-1
4.192738040E-1,7.742912769E-1,7.308830023E-1,-3.561872840E-1
4.217746890E-1,7.987915874E-1,8.459281921E-1,-3.029256463E-1
4.242755230E-1,8.339443207E-1,8.949288726E-1,-2.475335300E-1
4.267763560E-1,8.733579516E-1,8.938636780E-1,-1.900109351E-1
4.292771890E-1,9.095758200E-1,8.800156116E-1,-1.250317246E-1
4.317780750E-1,9.457937479E-1,8.672328591E-1,-5.579157919E-2
4.342789080E-1,9.724246264E-1,8.757547140E-1,1.451379992E-2
4.367797410E-1,9.947944880E-1,8.927984238E-1,8.268871158E-2
4.392806270E-1,1.016099095E0,9.098421335E-1,1.327546686E-1
4.417814080E-1,1.036338568E0,9.226249456E-1,1.647116542E-1
4.443814600E-1,1.055512786E0,9.279510975E-1,1.892120093E-1
4.468822930E-1,1.072556496E0,9.204944968E-1,2.137123793E-1
4.493831270E-1,1.078947902E0,8.885374665E-1,2.350170314E-1
4.518839600E-1,1.072556496E0,8.342106342E-1,2.520607710E-1
4.543848460E-1,1.054447532E0,7.607095242E-1,2.637783289E-1
4.568856790E-1,1.026751518E0,6.840127707E-1,2.723001838E-1
4.593865120E-1,9.926640391E-1,6.073159575E-1,2.744306624E-1
4.618873460E-1,9.447285533E-1,5.423367620E-1,2.754958868E-1
4.643882310E-1,8.957278132E-1,4.944012761E-1,2.723001838E-1
4.668890640E-1,8.414009213E-1,4.645747542E-1,2.669740319E-1
4.693899500E-1,7.849435806E-1,4.507267177E-1,2.573869228E-1
4.718907830E-1,7.252905369E-1,4.560528994E-1,2.435389012E-1
4.744812000E-1,6.656374931E-1,4.656399786E-1,2.286256403E-1
4.769820330E-1,6.134410501E-1,4.890751243E-1,2.137123793E-1
4.794828660E-1,5.580489635E-1,5.189016461E-1,1.966686398E-1
4.819837000E-1,5.069177747E-1,5.487281680E-1,1.753639877E-1
4.844845850E-1,4.632432163E-1,5.774894357E-1,1.508636326E-1
4.869854180E-1,4.206338823E-1,6.041202545E-1,1.252980381E-1
4.894862520E-1,3.822855055E-1,6.360772848E-1,1.093195379E-1
4.919871370E-1,3.524589837E-1,6.712299585E-1,9.547150880E-2
4.944879710E-1,3.279586136E-1,7.021217346E-1,8.694964647E-2
4.969888040E-1,3.087844253E-1,7.223611474E-1,7.416684926E-2
4.994896890E-1,2.981320918E-1,7.319482565E-1,6.244928762E-2
5.019905230E-1,2.906754613E-1,7.330134511E-1,5.286218971E-2
5.045845850E-1,2.842840552E-1,7.308830023E-1,4.540555924E-2
5.070854180E-1,2.778926790E-1,7.223611474E-1,4.220985994E-2
5.095862520E-1,2.715012729E-1,7.053174376E-1,3.688369319E-2
5.120870850E-1,2.629793882E-1,6.797518134E-1,3.155753016E-2
5.145879710E-1,2.555227578E-1,6.541862488E-1,3.155753016E-2
5.170888040E-1,2.491313666E-1,6.350120306E-1,3.581846133E-2
5.195896370E-1,2.342181057E-1,6.200987697E-1,3.901416063E-2
5.220904710E-1,2.235657871E-1,6.094464660E-1,4.860125855E-2
5.245913560E-1,2.182396203E-1,6.041202545E-1,6.244928762E-2
5.270921890E-1,2.118482143E-1,6.062507629E-1,7.842778414E-2
5.295930750E-1,2.107829899E-1,6.115769148E-1,9.547150880E-2
5.320939080E-1,2.171743810E-1,5.817503929E-1,1.284937263E-1
5.346879710E-1,2.693707943E-1,4.400743842E-1,1.945381761E-1
5.371888040E-1,3.929378390E-1,1.162435561E-1,3.042571843E-1
5.396896370E-1,5.718969703E-1,-3.460675776E-1,4.384765327E-1
5.421904710E-1,7.455299497E-1,-7.444647551E-1,5.588479042E-1
5.446913560E-1,8.701622486E-1,-9.521851540E-1,6.430012584E-1
5.471921890E-1,9.330109954E-1,-9.862726331E-1,7.026543617E-1
5.496930230E-1,9.575113058E-1,-8.989235163E-1,7.580464482E-1
5.521939080E-1,9.628375173E-1,-7.647041678E-1,7.995905280E-1
5.546947410E-1,9.575113058E-1,-6.539199352E-1,8.315475583E-1
5.571955750E-1,9.447285533E-1,-5.942668915E-1,8.517869711E-1
5.596964600E-1,9.308804870E-1,-5.900059342E-1,8.603088260E-1
5.621972410E-1,9.074453712E-1,-6.134410501E-1,8.528521657E-1
5.647905750E-1,8.659012914E-1,-6.485937834E-1,8.336780071E-1
5.672914080E-1,8.105092049E-1,-6.890726089E-1,8.059819341E-1
5.697922410E-1,7.444647551E-1,-7.284862399E-1,7.740249634E-1
5.722930750E-1,6.784203053E-1,-7.636389136E-1,7.367417812E-1
5.747939600E-1,6.123758554E-1,-7.977263927E-1,6.909367442E-1
5.772947930E-1,5.452661514E-1,-8.275529146E-1,6.461969614E-1
5.797956270E-1,4.802869260E-1,-8.509880304E-1,5.950657725E-1
5.822964600E-1,4.227643609E-1,-8.690969944E-1,5.503259897E-1
5.847973460E-1,3.663070202E-1,-8.754884005E-1,5.098471642E-1
5.872981790E-1,3.162410557E-1,-8.680317402E-1,4.661726058E-1
5.897990640E-1,2.683055699E-1,-8.477923274E-1,4.310199022E-1
5.922998980E-1,2.256962508E-1,-8.179658055E-1,3.969324529E-1
5.949006790E-1,1.830869317E-1,-7.753564715E-1,3.734973371E-1
5.974015120E-1,1.468690038E-1,-7.242252827E-1,3.511274457E-1
5.999023460E-1,1.138467789E-1,-6.677679420E-1,3.308880031E-1
6.024032310E-1,8.615072072E-2,-6.166367531E-1,3.170399666E-1
6.049040640E-1,5.951989442E-2,-5.644403696E-1,3.053224087E-1
6.074048980E-1,3.715000302E-2,-5.111786723E-1,2.893439233E-1
6.099057310E-1,1.264964230E-2,-4.653736651E-1,2.744306624E-1
6.124066160E-1,-5.459319334E-3,-4.195686579E-1,2.627131045E-1
6.149074500E-1,-1.398118306E-2,-3.822855055E-1,2.477998286E-1
6.174082830E-1,-2.250304818E-2,-3.492632806E-1,2.360822707E-1
6.199091680E-1,-2.569874749E-2,-3.236976862E-1,2.243647128E-1
6.224100020E-1,-2.676397935E-2,-3.087844253E-1,2.147776037E-1
6.249998980E-1,-1.930734888E-2,-2.949363887E-1,2.051905096E-1
6.275007310E-1,-5.459319334E-3,-2.853493094E-1,2.009295821E-1
6.300015640E-1,1.584534161E-2,-2.800231278E-1,1.934729517E-1
6.325023980E-1,4.354140162E-2,-2.672403455E-1,1.913424879E-1
6.350032830E-1,7.762885839E-2,-2.587184608E-1,1.924077123E-1
6.375041160E-1,1.149120107E-1,-2.459356785E-1,1.945381761E-1
6.400049500E-1,1.532603949E-1,-2.342181057E-1,1.998643428E-1
6.425057830E-1,1.905435622E-1,-2.182396203E-1,2.041252851E-1
6.450066680E-1,2.278267145E-1,-2.033263594E-1,2.158428431E-1
6.475075020E-1,2.683055699E-1,-1.862826198E-1,2.286256403E-1
6.500083870E-1,3.087844253E-1,-1.628475040E-1,2.382127345E-1
6.525092210E-1,3.471328020E-1,-1.330209672E-1,2.477998286E-1
6.551030230E-1,3.897421360E-1,-9.680305421E-2,2.573869228E-1
6.576038560E-1,4.355471432E-1,-4.886756465E-2,2.648435533E-1
6.601046890E-1,4.802869260E-1,6.524552125E-3,2.723001838E-1
6.626055750E-1,5.282224417E-1,5.765573680E-2,2.744306624E-1
6.651064080E-1,5.718969703E-1,1.045259908E-1,2.808220685E-1
6.676072410E-1,6.134410501E-1,1.492657810E-1,2.861482203E-1
6.701080750E-1,6.507242322E-1,1.897446364E-1,2.904091477E-1
6.726089600E-1,6.890726089E-1,2.270277888E-1,3.010614812E-1
6.751097930E-1,7.263557911E-1,2.653761804E-1,3.149095178E-1
6.776106270E-1,7.647041678E-1,3.069202602E-1,3.298227787E-1
6.801115120E-1,8.062482476E-1,3.495295942E-1,3.436708152E-1
6.826123460E-1,8.477923274E-1,3.953346014E-1,3.553883731E-1
6.852075020E-1,8.840102553E-1,4.411396384E-1,3.660407066E-1
6.877083350E-1,9.159672260E-1,4.805532396E-1,3.713668585E-1
6.902091680E-1,9.436632991E-1,5.189016461E-1,3.724320829E-1
6.927100020E-1,9.713593721E-1,5.561847687E-1,3.671059310E-1
6.952108870E-1,9.905335307E-1,5.806851387E-1,3.585840762E-1
6.977117210E-1,1.002251148E0,6.105116606E-1,3.447360396E-1
7.002125540E-1,1.010772943E0,6.392729878E-1,3.319532275E-1
7.027134390E-1,1.016099095E0,6.637732983E-1,3.149095178E-1
7.052142730E-1,1.015033960E0,6.904041767E-1,2.946700752E-1
7.077151060E-1,1.009707808E0,7.149044871E-1,2.744306624E-1
7.102159910E-1,9.958597422E-1,7.266221046E-1,2.488650680E-1
7.127168250E-1,9.713593721E-1,7.340787053E-1,2.147776037E-1
7.153155750E-1,9.362066984E-1,7.319482565E-1,1.732335240E-1
7.178164080E-1,8.978582621E-1,7.181001902E-1,1.221023351E-1
7.203172410E-1,8.477923274E-1,6.925346255E-1,7.097115368E-2
7.228180750E-1,7.902697325E-1,6.573819518E-1,1.983996481E-2
7.253189600E-1,7.306166887E-1,6.126421690E-1,-3.342168778E-2
7.278197930E-1,6.720288992E-1,5.572500229E-1,-8.455286920E-2
7.303206270E-1,6.102453470E-1,4.944012761E-1,-1.346188188E-1
7.328215120E-1,5.463314056E-1,4.262263775E-1,-1.836195439E-1
7.353223460E-1,4.856131077E-1,3.580514491E-1,-2.304897904E-1
7.378231790E-1,4.312862158E-1,2.877460718E-1,-2.773600519E-1
7.403240640E-1,3.748288751E-1,2.227668613E-1,-3.167736828E-1
7.428248980E-1,3.268933892E-1,1.684399694E-1,-3.497959077E-1
7.454208350E-1,2.757622004E-1,1.226349548E-1,-3.838833570E-1
7.479216680E-1,2.320876420E-1,8.641702682E-2,-4.062532485E-1
7.504225020E-1,1.884130985E-1,5.978620425E-2,-4.211665094E-1
7.529233350E-1,1.479342431E-1,4.167724028E-2,-4.286231399E-1
7.554242210E-1,1.053249165E-1,2.143781446E-2,-4.264926612E-1
7.579250540E-1,6.697652489E-2,-5.193010904E-3,-4.201012850E-1
7.604258870E-1,2.756290510E-2,-3.288906813E-2,-4.051880240E-1
7.629267730E-1,-8.655018173E-3,-5.951989442E-2,-3.860138059E-1
7.654276060E-1,-4.380770773E-2,-8.828118443E-2,-3.679048419E-1
7.679284390E-1,-7.896039635E-2,-1.170424819E-1,-3.476654291E-1
7.704293250E-1,-1.205044836E-1,-1.362166703E-1,-3.220998347E-1
7.729301580E-1,-1.620485783E-1,-1.489994675E-1,-2.954690158E-1
7.755233870E-1,-1.982664913E-1,-1.553908736E-1,-2.699034214E-1
7.780242210E-1,-2.302234918E-1,-1.543256342E-1,-2.454030514E-1
7.805250540E-1,-2.621804774E-1,-1.468690038E-1,-2.230331600E-1
7.830258870E-1,-2.930722237E-1,-1.319557428E-1,-2.070546746E-1
7.855267730E-1,-3.154421151E-1,-1.031944528E-1,-1.932066381E-1
7.880276060E-1,-3.410077095E-1,-4.673709720E-2,-1.846847683E-1
7.905284390E-1,-3.729647100E-1,5.339480564E-2,-1.900109351E-1
7.930293250E-1,-4.039896131E-1,1.364829838E-1,-1.974675655E-1
7.955301580E-1,-4.263595045E-1,1.705704331E-1,-2.027937323E-1
7.980309910E-1,-4.412727654E-1,1.748313755E-1,-2.091851383E-1
8.005318770E-1,-4.540555775E-1,1.545919478E-1,-2.187722325E-1
8.030326580E-1,-4.615122080E-1,1.194392517E-1,-2.230331600E-1
8.056252620E-1,-4.519250989E-1,7.150376588E-2,-2.251636237E-1
8.081260960E-1,-4.434032440E-1,2.995967865E-2,-2.272941023E-1
8.106269290E-1,-4.178376496E-1,2.263620263E-3,-2.251636237E-1
8.131277620E-1,-3.826849759E-1,-1.264964230E-2,-2.219679356E-1
8.156286480E-1,-3.420729637E-1,-1.158440951E-2,-2.198374718E-1
8.181294810E-1,-2.941374779E-1,5.459319334E-3,-2.209026963E-1
8.206303140E-1,-2.387453467E-1,3.315537795E-2,-2.177069932E-1
8.231312000E-1,-1.737661362E-1,6.830807030E-2,-2.198374718E-1
8.256320330E-1,-1.066564545E-1,1.077216864E-1,-2.294245660E-1
8.281328660E-1,-3.528584540E-2,1.482005417E-1,-2.347507328E-1
8.306337520E-1,4.354140162E-2,1.854836941E-1,-2.411421239E-1
8.331345850E-1,1.202381775E-1,2.142449915E-1,-2.539249361E-1
8.357268250E-1,1.969349533E-1,2.344844192E-1,-2.645772398E-1
8.382276580E-1,2.746969759E-1,2.430062890E-1,-2.688381970E-1
8.407284910E-1,3.332847953E-1,2.302234918E-1,-2.656424940E-1
8.432293250E-1,3.801550269E-1,2.035926580E-1,-2.443378270E-1
8.457302100E-1,3.833507299E-1,1.588528752E-1,-1.825543046E-1
8.482310430E-1,3.343500197E-1,1.066564545E-1,-8.029194176E-2
8.507318770E-1,2.672403455E-1,2.676397935E-2,3.688369319E-2
8.532327620E-1,1.862826198E-1,-9.254211932E-2,1.657768935E-1
8.557335960E-1,7.656362653E-2,-2.693707943E-1,3.042571843E-1
8.582344290E-1,-4.593817517E-2,-4.738955498E-1,4.406070113E-1
8.607353140E-1,-1.567224115E-1,-7.029206157E-1,5.961310267E-1
8.632361480E-1,-2.408758104E-1,-9.500547051E-1,7.729597092E-1
8.658317730E-1,-3.047898114E-1,-1.195058346E0,9.210271239E-1
8.683326060E-1,-3.505948186E-1,-1.425281763E0,1.047789812E0
8.708334390E-1,-3.837502003E-1,-1.623415112E0,1.160704494E0
8.733342730E-1,-4.071853161E-1,-1.771482468E0,1.272554040E0
8.758351580E-1,-4.412727654E-1,-1.875875354E0,1.376946807E0
8.783359910E-1,-4.764254689E-1,-1.948311210E0,1.477078795E0
8.808368770E-1,-5.243609548E-1,-1.996246696E0,1.577210665E0
8.833377100E-1,-5.850792527E-1,-2.035660267E0,1.683733940E0
8.858385430E-1,-6.628412604E-1,-2.055899620E0,1.788259983E0
8.883393770E-1,-7.555165291E-1,-2.068682432E0,1.893718004E0
8.908402620E-1,-8.460613489E-1,-2.072943449E0,1.994915128E0
8.933410960E-1,-9.366061091E-1,-2.071878195E0,2.086525202E0
8.959507830E-1,-1.020759583E0,-2.074008703E0,2.158961058E0
8.984516160E-1,-1.101717234E0,-2.074008703E0,2.226070642E0
9.009524500E-1,-1.173087835E0,-2.075073957E0,2.276136637E0
9.034533350E-1,-1.243393302E0,-2.085726261E0,2.308093548E0
9.059541680E-1,-1.312633395E0,-2.092117548E0,2.324072123E0
9.084550020E-1,-1.371221185E0,-2.092117548E0,2.327267885E0
9.109558350E-1,-1.428743839E0,-2.085726261E0,2.312354565E0
9.134567210E-1,-1.483070731E0,-2.089987278E0,2.285723686E0
9.159575540E-1,-1.543788910E0,-2.107030869E0,2.251636267E0
9.184583870E-1,-1.609833360E0,-2.138988018E0,2.206896544E0
9.209592210E-1,-1.673747420E0,-2.174140692E0,2.150439262E0
9.234601060E-1,-1.731269956E0,-2.187988520E0,2.081198931E0
9.260421370E-1,-1.765357375E0,-2.184792995E0,1.990654230E0
9.285429710E-1,-1.771748781E0,-2.168814421E0,1.880935192E0
9.310438040E-1,-1.766422629E0,-2.156031609E0,1.763759613E0
9.335446370E-1,-1.747248411E0,-2.142183542E0,1.647516012E0
9.360455230E-1,-1.718487144E0,-2.131531239E0,1.530340433E0
9.385463560E-1,-1.692921638E0,-2.142183542E0,1.414229989E0
9.410472410E-1,-1.654573202E0,-2.152835846E0,1.303445816E0
9.435480230E-1,-1.597050667E0,-2.163488388E0,1.199052930E0
9.460489080E-1,-1.537397504E0,-2.194380045E0,1.112769008E0
9.485497410E-1,-1.480940223E0,-2.249772072E0,1.039268017E0
9.510506270E-1,-1.426613331E0,-2.309425116E0,9.838758707E-1
9.535514600E-1,-1.362699389E0,-2.358425856E0,9.402012825E-1
9.561457830E-1,-1.290263534E0,-2.396774292E0,9.061138630E-1
9.586466160E-1,-1.211436272E0,-2.426600933E0,8.837439418E-1
9.611474500E-1,-1.135804653E0,-2.456427336E0,8.667002320E-1
9.636482830E-1,-1.058042645E0,-2.478797197E0,8.560478687E-1
9.661491680E-1,-9.802806973E-1,-2.504362822E0,8.624392748E-1
9.686500020E-1,-8.908011317E-1,-2.545907021E0,8.880048990E-1
9.711508350E-1,-7.917344570E-1,-2.613016605E0,9.338098764E-1
9.736517210E-1,-6.884068251E-1,-2.695039511E0,1.006245732E0
9.761525540E-1,-5.776225924E-1,-2.745105505E0,1.092529655E0
9.786533870E-1,-4.721645415E-1,-2.758953571E0,1.190531015E0
9.811542730E-1,-3.644428551E-1,-2.741909742E0,1.297054410E0
9.836551060E-1,-2.515281439E-1,-2.730192184E0,1.404642940E0
9.862505230E-1,-1.354177445E-1,-2.734453201E0,1.504774809E0
9.887513560E-1,-2.569874749E-2,-2.757888317E0,1.591058731E0
9.912521890E-1,8.295502514E-2,-2.795171499E0,1.665624976E0
9.937530230E-1,1.937392503E-1,-2.845237494E0,1.720085025E0
9.962539080E-1,2.906754613E-1,-2.892107725E0,1.759498596E0
9.987547410E-1,3.780245781E-1,-2.936847448E0,1.780803323E0
1.001255575E0,4.504604042E-1,-2.991174221E0,1.793586135E0
1.003756408E0,5.069177747E-1,-3.058284044E0,1.791455626E0
1.006257293E0,5.473966002E-1,-3.128589392E0,1.782933831E0
1.008758127E0,5.697665215E-1,-3.198894739E0,1.768020511E0
1.011259012E0,5.793536305E-1,-3.264939308E0,1.749911547E0
1.013759846E0,5.782883763E-1,-3.326722622E0,1.721150279E0
1.016351304E0,5.740274191E-1,-3.386375666E0,1.692389011E0
1.018852137E0,5.687012672E-1,-3.432180882E0,1.666690230E0
1.021352971E0,5.655055642E-1,-3.472659588E0,1.641124606E0
1.023853804E0,5.655055642E-1,-3.502486229E0,1.618754745E0
1.026354689E0,5.804188251E-1,-3.514203787E0,1.601711035E0
1.028855523E0,6.081148982E-1,-3.521660328E0,1.589993477E0
1.031356356E0,6.422023773E-1,-3.522725582E0,1.585732460E0
1.033857241E0,6.912030578E-1,-3.517399549E0,1.581471562E0
1.036358075E0,7.551170588E-1,-3.519529819E0,1.577210665E0
1.038858908E0,8.243572116E-1,-3.523790836E0,1.570819259E0
1.041359793E0,8.978582621E-1,-3.530182123E0,1.560166955E0
1.043860627E0,9.766855240E-1,-3.541899920E0,1.553775549E0
1.046455106E0,1.055512786E0,-3.555747747E0,1.549514532E0
1.048962241E0,1.129013896E0,-3.563204527E0,1.542057991E0
1.051469377E0,1.193993092E0,-3.550421715E0,1.537796974E0
1.053976460E0,1.248319983E0,-3.517399549E0,1.539927483E0
1.056483596E0,1.293059707E0,-3.454550743E0,1.548449397E0
1.058990731E0,1.315429688E0,-3.352288246E0,1.567623496E0
1.061497814E0,1.317560077E0,-3.211677551E0,1.601711035E0
1.064004950E0,1.311168671E0,-3.049762249E0,1.635798454E0
1.066512085E0,1.300516367E0,-2.880390167E0,1.665624976E0
1.069019221E0,1.295190215E0,-2.722735643E0,1.695584655E0
1.071526304E0,1.288798809E0,-2.595972776E0,1.723280668E0
1.074033439E0,1.287733555E0,-2.507558584E0,1.737128735E0
1.076562658E0,1.287733555E0,-2.456427336E0,1.739259243E0
1.079069793E0,1.286668301E0,-2.420209408E0,1.736063480E0
1.081576877E0,1.273885489E0,-2.390383005E0,1.725411177E0
1.084084012E0,1.252580881E0,-2.357360601E0,1.706236959E0
1.086591148E0,1.224884868E0,-2.314751387E0,1.683733940E0
1.089098283E0,1.182275534E0,-2.272141933E0,1.663494468E0
1.091605366E0,1.136470437E0,-2.227402210E0,1.641124606E0
1.094112502E0,1.085339308E0,-2.194380045E0,1.616624236E0
1.096619637E0,1.024621010E0,-2.172010183E0,1.589993477E0
1.099126773E0,9.702941179E-1,-2.148575068E0,1.568688750E0
1.101633856E0,9.180977345E-1,-2.136857510E0,1.547384143E0
1.104140991E0,8.690969944E-1,-2.134727001E0,1.519688010E0
1.106662241E0,8.232919574E-1,-2.136857510E0,1.493057251E0
1.109169377E0,7.806826234E-1,-2.141118288E0,1.463230729E0
1.111676512E0,7.433995008E-1,-2.151770592E0,1.431273699E0
1.114183596E0,7.157034278E-1,-2.157096863E0,1.404642940E0
1.116690731E0,6.975944638E-1,-2.164553404E0,1.375881553E0
1.119197866E0,6.890726089E-1,-2.178401470E0,1.347120285E0
1.121705002E0,6.933335662E-1,-2.195445299E0,1.318359017E0
1.124212085E0,6.997249722E-1,-2.221010923E0,1.291728139E0
1.126719221E0,7.167686820E-1,-2.257228851E0,1.268293023E0
1.129226356E0,7.444647551E-1,-2.305164337E0,1.241662264E0
1.131733491E0,7.732260227E-1,-2.354165077E0,1.210770488E0
1.134240575E0,8.137048483E-1,-2.403165817E0,1.180943966E0
1.136756096E0,8.637708426E-1,-2.445775032E0,1.152182698E0
1.139263231E0,9.180977345E-1,-2.480927706E0,1.118095160E0
1.141770314E0,9.745550752E-1,-2.494775772E0,1.087203503E0
1.144277450E0,1.044860482E0,-2.492645264E0,1.056311727E0
1.146784585E0,1.113035321E0,-2.476666689E0,1.026485205E0
1.149291721E0,1.180145025E0,-2.453231573E0,9.955934286E-1
1.151798856E0,1.246189475E0,-2.429796457E0,9.604407549E-1
1.154305939E0,1.306907773E0,-2.404230833E0,9.242228270E-1
1.156813075E0,1.353778005E0,-2.387187243E0,8.943963051E-1
1.159320210E0,1.393191695E0,-2.370143414E0,8.656349778E-1
1.161827293E0,1.418757200E0,-2.356295347E0,8.336780071E-1
1.164334429E0,1.437931418E0,-2.341382265E0,8.017209768E-1
1.166876721E0,1.445388079E0,-2.327534199E0,7.665683031E-1
1.169383856E0,1.440061927E0,-2.316881895E0,7.346113324E-1
1.171890991E0,1.426213861E0,-2.300903320E0,6.983934045E-1
1.174398075E0,1.409170151E0,-2.281729221E0,6.611102223E-1
1.176905210E0,1.381474137E0,-2.257228851E0,6.227618456E-1
1.179412346E0,1.347386599E0,-2.223141432E0,5.812177658E-1
1.181919481E0,1.315429688E0,-2.172010183E0,5.471302867E-1
1.184426564E0,1.286668301E0,-2.112357140E0,5.204994678E-1
1.186933700E0,1.262167931E0,-2.048443079E0,4.970643520E-1
1.189440835E0,1.233406663E0,-1.984529138E0,4.789553881E-1
1.191947971E0,1.207841039E0,-1.913158536E0,4.714987576E-1
1.194455054E0,1.181210279E0,-1.841787934E0,4.725640118E-1
1.196974741E0,1.149253249E0,-1.768286824E0,4.842815697E-1
1.199481877E0,1.117296338E0,-1.699046731E0,5.109124184E-1
1.201988960E0,1.082143545E0,-1.633002281E0,5.428693891E-1
1.204496096E0,1.056578040E0,-1.575479627E0,5.801525116E-1
1.207003231E0,1.033142924E0,-1.528609395E0,6.270228028E-1
1.209510366E0,1.020360112E0,-1.495587111E0,6.770887375E-1
1.212017502E0,1.020360112E0,-1.483869553E0,7.260894775E-1
1.214524585E0,1.028881907E0,-1.495587111E0,7.708292603E-1
1.217031721E0,1.048056126E0,-1.520087481E0,8.145037889E-1
1.219538856E0,1.065099835E0,-1.546718359E0,8.517869711E-1
1.222045991E0,1.085339308E0,-1.573349118E0,8.880048990E-1
1.224553075E0,1.110904932E0,-1.594653845E0,9.199618697E-1
1.227083387E0,1.126883388E0,-1.607436657E0,9.423317909E-1
1.229590523E0,1.140731454E0,-1.614893317E0,9.604407549E-1
1.232097658E0,1.152449012E0,-1.613828063E0,9.764192104E-1
1.234604741E0,1.169492722E0,-1.604240894E0,9.892020226E-1
1.237111877E0,1.181210279E0,-1.602110505E0,9.902672768E-1
1.239619012E0,1.192927837E0,-1.601045251E0,9.838758707E-1
1.242126148E0,1.202514887E0,-1.596784353E0,9.710930586E-1
1.244633231E0,1.213167310E0,-1.586131930E0,9.519188404E-1
1.247140366E0,1.218493462E0,-1.566957831E0,9.242228270E-1
1.249647502E0,1.223819613E0,-1.540326953E0,8.922657967E-1
1.252154585E0,1.228080511E0,-1.503043771E0,8.571131229E-1
1.254661721E0,1.229145765E0,-1.458304048E0,8.230256438E-1
1.257184637E0,1.228080511E0,-1.415694714E0,7.921339273E-1
1.259691773E0,1.225950003E0,-1.370821714E0,7.601768970E-1
1.262198908E0,1.227015257E0,-1.323951483E0,7.314156294E-1
1.264705991E0,1.220623851E0,-1.281342149E0,7.069152594E-1
1.267213127E0,1.216362953E0,-1.244058967E0,6.824148893E-1
1.269720262E0,1.215297699E0,-1.202514887E0,6.632407308E-1
1.272227398E0,1.208906293E0,-1.169492722E0,6.472622156E-1
1.274734481E0,1.205710649E0,-1.141796589E0,6.387403607E-1
1.277241616E0,1.197188735E0,-1.117296338E0,6.344794035E-1
1.279748752E0,1.185471177E0,-1.102383018E0,6.355446577E-1
1.282255887E0,1.174818873E0,-1.093861103E0,6.408708096E-1
1.284762971E0,1.159905553E0,-1.094926357E0,6.557840705E-1
1.287290054E0,1.156709909E0,-1.104513526E0,6.770887375E-1
1.289797189E0,1.149253249E0,-1.121557236E0,7.015891075E-1
1.292304325E0,1.147122860E0,-1.151383758E0,7.260894775E-1
1.294811408E0,1.152449012E0,-1.186536431E0,7.569811940E-1
1.297318543E0,1.151383758E0,-1.221689105E0,7.931991220E-1
1.299825679E0,1.156709909E0,-1.258972287E0,8.272866011E-1
1.302332814E0,1.163101315E0,-1.289864063E0,8.603088260E-1
1.304839898E0,1.169492722E0,-1.325016737E0,8.965267539E-1
1.307347033E0,1.172688365E0,-1.345256209E0,9.295489788E-1
1.309854168E0,1.180145025E0,-1.356973767E0,9.668321013E-1
1.312361252E0,1.182275534E0,-1.356973767E0,1.005180478E0
1.314868387E0,1.183340788E0,-1.338864803E0,1.037137508E0
1.317393231E0,1.181210279E0,-1.311168671E0,1.073355436E0
1.319900366E0,1.179079771E0,-1.280276895E0,1.104247212E0
1.322407502E0,1.186536431E0,-1.247254729E0,1.130877972E0
1.324914585E0,1.188666940E0,-1.221689105E0,1.150052190E0
1.327421721E0,1.189732075E0,-1.205710649E0,1.159639359E0
1.329928856E0,1.193993092E0,-1.188666940E0,1.166030645E0
1.332435991E0,1.191862583E0,-1.169492722E0,1.162835002E0
1.334943075E0,1.185471177E0,-1.148187995E0,1.158574104E0
1.337450210E0,1.178014517E0,-1.125818133E0,1.155378342E0
1.339957346E0,1.164166570E0,-1.097056866E0,1.141530395E0
1.342464429E0,1.150318503E0,-1.067230344E0,1.124486566E0
1.344971564E0,1.127948642E0,-1.035273314E0,1.104247212E0
1.347496512E0,1.109839678E0,-1.000120640E0,1.084007740E0
1.350003648E0,1.085339308E0,-9.724246264E-1,1.061637878E0
1.352510731E0,1.065099835E0,-9.415328503E-1,1.039268017E0
1.355017866E0,1.041664720E0,-9.074453712E-1,1.021159053E0
1.357525002E0,1.019294858E0,-8.744231462E-1,1.011571884E0
1.360032137E0,9.958597422E-1,-8.403357267E-1,1.010506630E0
1.362539273E0,9.692289233E-1,-8.094439507E-1,1.016898036E0
1.365046356E0,9.447285533E-1,-7.806826234E-1,1.022224188E0
1.367553491E0,9.170324802E-1,-7.593780160E-1,1.025419950E0
1.370060627E0,8.872059584E-1,-7.380733490E-1,1.026485205E0
1.372567710E0,8.584446907E-1,-7.135729790E-1,1.029680848E0
1.375074846E0,8.254224658E-1,-6.965292692E-1,1.031811357E0
1.377599689E0,7.838783264E-1,-6.773550510E-1,1.035007000E0
1.380106825E0,7.380733490E-1,-6.613765359E-1,1.038202763E0
1.382613960E0,6.922683120E-1,-6.485937834E-1,1.033941746E0
1.385121043E0,6.358109713E-1,-6.443328261E-1,1.030746102E0
1.387628179E0,5.804188251E-1,-6.422023773E-1,1.027550459E0
1.390135314E0,5.228962898E-1,-6.464632750E-1,1.017963290E0
1.392642450E0,4.643084407E-1,-6.549851298E-1,1.005180478E0
1.395149533E0,4.067858756E-1,-6.613765359E-1,9.860063195E-1
1.397656668E0,3.471328020E-1,-6.688331962E-1,9.657669067E-1
1.400163804E0,2.928059399E-1,-6.752246022E-1,9.444622397E-1
1.402670887E0,2.406095117E-1,-6.762897968E-1,9.157009125E-1
1.405178023E0,1.969349533E-1,-6.688331962E-1,8.880048990E-1
1.407701668E0,1.511299312E-1,-6.592460871E-1,8.624392748E-1
1.410208804E0,1.117163152E-1,-6.475285292E-1,8.315475583E-1
1.412715939E0,7.017222792E-2,-6.336805224E-1,7.995905280E-1
1.415223023E0,4.141093418E-2,-6.198324561E-1,7.623074055E-1
1.417730158E0,1.051917579E-2,-6.017234921E-1,7.314156294E-1
1.420237293E0,-9.720250964E-3,-5.910711884E-1,6.930672526E-1
1.422744429E0,-2.889444493E-2,-5.729622245E-1,6.547188759E-1
1.425251512E0,-4.380770773E-2,-5.559184551E-1,6.163704395E-1
1.427758648E0,-5.446003750E-2,-5.367442966E-1,5.780220628E-1
1.430265783E0,-5.765573680E-2,-5.079829693E-1,5.396736860E-1
1.432772918E0,-5.446003750E-2,-4.781564772E-1,5.119776130E-1
1.435280002E0,-4.593817517E-2,-4.472647011E-1,4.842815697E-1
1.437805314E0,-3.209014609E-2,-4.142425060E-1,4.597811997E-1
1.440312450E0,-1.930734888E-2,-3.812202811E-1,4.438027143E-1
1.442819585E0,-6.524552125E-3,-3.545894325E-1,4.288894534E-1
1.445326668E0,1.264964230E-2,-3.322195411E-1,4.193023443E-1
1.447833804E0,2.969337068E-2,-3.130453527E-1,4.150414169E-1
1.450340939E0,4.567186534E-2,-3.023930192E-1,4.097152650E-1
1.452848075E0,6.271559745E-2,-3.023930192E-1,4.118457139E-1
1.455355158E0,7.443315536E-2,-3.066539466E-1,4.129109383E-1
1.457862293E0,9.041165560E-2,-3.151758313E-1,4.171718955E-1
1.460369429E0,9.893351793E-2,-3.268933892E-1,4.203675687E-1
1.462876512E0,1.063901484E-1,-3.450023532E-1,4.256937504E-1
1.465383648E0,1.202381775E-1,-3.631113172E-1,4.299546778E-1
1.467912866E0,1.276948154E-1,-3.790898025E-1,4.352808297E-1
1.470420002E0,1.298252791E-1,-3.993292153E-1,4.395417869E-1
1.472927137E0,1.330209672E-1,-4.163729548E-1,4.395417869E-1
1.475434221E0,1.436733007E-1,-4.270252883E-1,4.395417869E-1
1.477941356E0,1.489994675E-1,-4.430037737E-1,4.363460839E-1
1.480448491E0,1.532603949E-1,-4.589822888E-1,4.299546778E-1
1.482955627E0,1.596518010E-1,-4.706998467E-1,4.182371199E-1
1.485462710E0,1.596518010E-1,-4.813521802E-1,4.022586346E-1
1.487969846E0,1.575213373E-1,-4.877435565E-1,3.809539676E-1
1.490476981E0,1.479342431E-1,-4.909392595E-1,3.596493006E-1
1.492984064E0,1.383471340E-1,-4.962654412E-1,3.362141848E-1
1.495491200E0,1.276948154E-1,-4.930697381E-1,3.063876629E-1
1.498012398E0,1.149120107E-1,-4.813521802E-1,2.691044807E-1
1.500519533E0,9.999874979E-2,-4.685693681E-1,2.296908647E-1
1.503026616E0,8.402025700E-2,-4.547213614E-1,1.913424879E-1
1.505533752E0,6.165036187E-2,-4.387428463E-1,1.497983932E-1
1.508040887E0,4.354140162E-2,-4.174381793E-1,1.018629074E-1
1.510548023E0,2.543243766E-2,-4.025249183E-1,5.605788901E-2
1.513055158E0,-3.328853287E-3,-3.854812086E-1,1.131810062E-2
1.515562241E0,-2.569874749E-2,-3.652417660E-1,-3.235645220E-2
1.518069377E0,-4.806863889E-2,-3.460675776E-1,-8.029194176E-2
1.520576512E0,-7.363422960E-2,-3.300890923E-1,-1.197055578E-1
1.523083648E0,-1.002650559E-1,-3.151758313E-1,-1.569887102E-1
1.525590731E0,-1.237001866E-1,-3.023930192E-1,-1.900109351E-1
1.528120939E0,-1.492657810E-1,-2.896102369E-1,-2.198374718E-1
1.530628075E0,-1.716356725E-1,-2.853493094E-1,-2.400768995E-1
1.533135210E0,-1.886793971E-1,-2.789579034E-1,-2.549901605E-1
1.535642293E0,-2.110492885E-1,-2.768274248E-1,-2.656424940E-1
1.538149429E0,-2.291582525E-1,-2.800231278E-1,-2.645772398E-1
1.540656564E0,-2.440715134E-1,-2.821536064E-1,-2.592510879E-1
1.543163700E0,-2.557890713E-1,-2.853493094E-1,-2.528596818E-1
1.545670783E0,-2.653761804E-1,-2.917406857E-1,-2.368811965E-1
1.548177918E0,-2.696371078E-1,-2.960016131E-1,-2.134460658E-1
1.550685054E0,-2.707023323E-1,-3.013277948E-1,-1.868152469E-1
1.553192137E0,-2.696371078E-1,-3.098496497E-1,-1.537930220E-1
1.555699273E0,-2.621804774E-1,-3.194367588E-1,-1.175750941E-1
1.558207398E0,-2.525933683E-1,-3.343500197E-1,-8.029194176E-2
1.560714533E0,-2.451367527E-1,-3.503285050E-1,-3.768261895E-2
1.563221616E0,-2.334191799E-1,-3.663070202E-1,1.731003635E-3
1.565728752E0,-2.195711583E-1,-3.790898025E-1,4.327509180E-2
1.568235887E0,-2.035926580E-1,-3.897421360E-1,8.801487833E-2
1.570743023E0,-1.897446364E-1,-4.035901725E-1,1.316894293E-1
1.573250106E0,-1.758965999E-1,-4.131772518E-1,1.679073572E-1
1.575757241E0,-1.599181145E-1,-4.206338823E-1,1.998643428E-1
1.578264377E0,-1.439396143E-1,-4.280905128E-1,2.286256403E-1
1.580771512E0,-1.279611140E-1,-4.302209914E-1,2.552564740E-1
1.583278596E0,-1.205044836E-1,-4.280905128E-1,2.776263654E-1
1.585785731E0,-1.119826213E-1,-4.280905128E-1,2.925396264E-1
1.588324637E0,-1.077216864E-1,-4.238295853E-1,3.053224087E-1
1.590831773E0,-1.077216864E-1,-4.131772518E-1,3.127790391E-1
1.593338908E0,-1.066564545E-1,-4.003944695E-1,3.181052208E-1
1.595845991E0,-1.087869257E-1,-3.822855055E-1,3.191704452E-1
1.598353127E0,-1.119826213E-1,-3.663070202E-1,3.170399666E-1
1.600860262E0,-1.226349548E-1,-3.481980562E-1,3.127790391E-1
1.603367398E0,-1.311568171E-1,-3.396761715E-1,3.074528873E-1
1.605874481E0,-1.407439113E-1,-3.236976862E-1,3.010614812E-1
1.608381616E0,-1.524614692E-1,-3.109148741E-1,2.946700752E-1
1.610888752E0,-1.652442664E-1,-3.066539466E-1,2.872134447E-1
1.613395835E0,-1.790923029E-1,-2.949363887E-1,2.808220685E-1
1.615902971E0,-1.918751001E-1,-2.864145339E-1,2.818872929E-1
1.618431616E0,-2.046578974E-1,-2.810883522E-1,2.797568142E-1
1.620938752E0,-2.163754553E-1,-2.789579034E-1,2.786915898E-1
1.623445887E0,-2.206363827E-1,-2.885449827E-1,2.733654380E-1
1.625952971E0,-2.270277888E-1,-2.938711643E-1,2.754958868E-1
1.628460106E0,-2.291582525E-1,-2.896102369E-1,2.744306624E-1
1.630967241E0,-2.217016220E-1,-2.906754613E-1,2.861482203E-1
1.633474377E0,-2.163754553E-1,-2.938711643E-1,2.968005538E-1
1.635981460E0,-2.078536004E-1,-2.970668674E-1,3.149095178E-1
1.638488596E0,-1.908098608E-1,-3.066539466E-1,3.362141848E-1
1.640995731E0,-1.748313755E-1,-3.173062801E-1,3.564535975E-1
1.643502814E0,-1.545919478E-1,-3.290238380E-1,3.809539676E-1
1.646009950E0,-1.290263534E-1,-3.439370990E-1,4.054543078E-1
1.648537398E0,-1.023955271E-1,-3.577851355E-1,4.352808297E-1
1.651044533E0,-6.937330216E-2,-3.758940995E-1,4.619116783E-1
1.653551668E0,-2.676397935E-2,-3.929378390E-1,4.885424972E-1
1.656058752E0,1.264964230E-2,-4.057206213E-1,5.141080618E-1
1.658565887E0,5.525896326E-2,-4.185034335E-1,5.428693891E-1
1.661073023E0,1.042596847E-1,-4.259600639E-1,5.758916140E-1
1.663580158E0,1.543256342E-1,-4.302209914E-1,6.046528816E-1
1.666087241E0,2.075872868E-1,-4.291557670E-1,6.334142089E-1
1.668594377E0,2.651098669E-1,-4.227643609E-1,6.643059254E-1
1.671101512E0,3.226324618E-1,-4.195686579E-1,6.973281503E-1
1.673608596E0,3.758940995E-1,-4.131772518E-1,7.292851806E-1
1.676115731E0,4.312862158E-1,-4.067858756E-1,7.569811940E-1
1.678640783E0,4.834826291E-1,-4.014596939E-1,7.868077159E-1
1.681147918E0,5.271571875E-1,-3.940030634E-1,8.134385943E-1
1.683655002E0,5.655055642E-1,-3.865464330E-1,8.336780071E-1
1.686162137E0,6.038539410E-1,-3.790898025E-1,8.549826741E-1
1.688669273E0,6.347457170E-1,-3.705679476E-1,8.741568327E-1
1.691176408E0,6.592460871E-1,-3.609808385E-1,8.912006021E-1
1.693683491E0,6.752246022E-1,-3.513937294E-1,9.018529058E-1
1.696190627E0,6.858769059E-1,-3.375457227E-1,9.103747606E-1
1.698697762E0,6.912030578E-1,-3.268933892E-1,9.167661667E-1
1.701204846E0,6.858769059E-1,-3.215672076E-1,9.231575727E-1
1.703711981E0,6.730940938E-1,-3.151758313E-1,9.242228270E-1
1.706219116E0,6.581808329E-1,-3.141105771E-1,9.274185300E-1
1.708741043E0,6.422023773E-1,-3.173062801E-1,9.252880216E-1
1.711248179E0,6.177020073E-1,-3.236976862E-1,9.242228270E-1
1.713755314E0,5.963973403E-1,-3.332847953E-1,9.242228270E-1
1.716262398E0,5.665708184E-1,-3.428718746E-1,9.210271239E-1
1.718769533E0,5.420704484E-1,-3.524589837E-1,9.210271239E-1
1.721276616E0,5.207657814E-1,-3.620460629E-1,9.263532758E-1
1.723783804E0,4.962654412E-1,-3.684374690E-1,9.284837246E-1
1.726290887E0,4.749607742E-1,-3.769593239E-1,9.348751307E-1
1.728798023E0,4.579170346E-1,-3.833507299E-1,9.433969855E-1
1.731305158E0,4.440690279E-1,-3.886769116E-1,9.519188404E-1
1.733812241E0,4.366123974E-1,-3.918725848E-1,9.657669067E-1
1.736319377E0,4.259600639E-1,-3.961335421E-1,9.796149135E-1
1.738849116E0,4.185034335E-1,-4.014596939E-1,9.945281744E-1
1.741356200E0,4.174381793E-1,-4.078511000E-1,1.011571884E0
1.743863387E0,4.185034335E-1,-4.131772518E-1,1.021159053E0
1.746370471E0,4.206338823E-1,-4.206338823E-1,1.035007000E0
1.748877606E0,4.248948097E-1,-4.270252883E-1,1.048855066E0
1.751384741E0,4.376776218E-1,-4.323514402E-1,1.056311727E0
1.753891877E0,4.536561072E-1,-4.334166944E-1,1.068029284E0
1.756398960E0,4.664389193E-1,-4.334166944E-1,1.077616334E0
1.758906096E0,4.856131077E-1,-4.334166944E-1,1.086138248E0
1.761413231E0,4.983958900E-1,-4.248948097E-1,1.095725298E0
1.763920314E0,5.101134777E-1,-4.195686579E-1,1.106377602E0
1.766427450E0,5.228962898E-1,-4.121120274E-1,1.117030025E0
1.768951721E0,5.356790423E-1,-4.046553969E-1,1.129812717E0
1.771458856E0,5.463314056E-1,-3.929378390E-1,1.142595530E0
1.773965991E0,5.516575575E-1,-3.854812086E-1,1.155378342E0
1.776473075E0,5.580489635E-1,-3.748288751E-1,1.168161154E0
1.778980210E0,5.612446666E-1,-3.726983964E-1,1.180943966E0
1.781487293E0,5.569837093E-1,-3.726983964E-1,1.193726778E0
1.783994481E0,5.495271087E-1,-3.801550269E-1,1.202248573E0
1.786501564E0,5.410051942E-1,-3.897421360E-1,1.215031385E0
1.789008700E0,5.303528905E-1,-4.057206213E-1,1.225683689E0
1.791515835E0,5.197005868E-1,-4.291557670E-1,1.237401366E0
1.794022918E0,5.079829693E-1,-4.536561072E-1,1.250184059E0
1.796530054E0,4.941349626E-1,-4.834826291E-1,1.261901617E0
1.799055366E0,4.834826291E-1,-5.122439265E-1,1.273619175E0
1.801562450E0,4.749607742E-1,-5.399399996E-1,1.285336852E0
1.804069637E0,4.685693681E-1,-5.729622245E-1,1.299184799E0
1.806576721E0,4.664389193E-1,-6.070496440E-1,1.310902357E0
1.809083856E0,4.696346223E-1,-6.358109713E-1,1.319424272E0
1.811590991E0,4.749607742E-1,-6.592460871E-1,1.333272338E0
1.814098127E0,4.888088107E-1,-6.869421601E-1,1.342859387E0
1.816605210E0,5.005263686E-1,-7.103772759E-1,1.352446437E0
1.819112346E0,5.165048838E-1,-7.316819429E-1,1.364163995E0
1.821619429E0,5.410051942E-1,-7.519213557E-1,1.374816418E0
1.824126616E0,5.697665215E-1,-7.689650655E-1,1.386533976E0
1.826633700E0,6.006582975E-1,-7.806826234E-1,1.399316788E0
1.829160627E0,6.400718689E-1,-7.902697325E-1,1.411034346E0
1.831667762E0,6.784203053E-1,-7.913349867E-1,1.424882293E0
1.834174898E0,7.231600881E-1,-7.881392837E-1,1.442991257E0
1.836681981E0,7.700303197E-1,-7.817478776E-1,1.452578425E0
1.839189116E0,8.137048483E-1,-7.764217257E-1,1.465361238E0
1.841696252E0,8.595098853E-1,-7.647041678E-1,1.480274439E0
1.844203387E0,9.031844735E-1,-7.529866099E-1,1.494122505E0
1.846710471E0,9.479242563E-1,-7.348776460E-1,1.505840063E0
1.849217606E0,9.905335307E-1,-7.178338766E-1,1.518622875E0
1.851724741E0,1.026751518E0,-6.965292692E-1,1.536731839E0
1.854231825E0,1.057643294E0,-6.730940938E-1,1.555905938E0
1.856738960E0,1.087469816E0,-6.485937834E-1,1.576145411E0
1.859259533E0,1.107709169E0,-6.262238622E-1,1.596384883E0
1.861766668E0,1.115165830E0,-6.081148982E-1,1.619819999E0
1.864273804E0,1.118361473E0,-5.963973403E-1,1.649646521E0
1.866780887E0,1.119426727E0,-5.878754854E-1,1.681603432E0
1.869288023E0,1.111970067E0,-5.846797824E-1,1.715824127E0
1.871795158E0,1.101317763E0,-5.825493336E-1,1.752042055E0
1.874302293E0,1.086404562E0,-5.868102312E-1,1.783998966E0
1.876809377E0,1.070425987E0,-5.942668915E-1,1.813825488E0
1.879316512E0,1.046990871E0,-6.027887464E-1,1.844717264E0
1.881823596E0,1.024621010E0,-6.123758554E-1,1.874543786E0
1.884330731E0,1.007577300E0,-6.166367531E-1,1.901174664E0
1.886837866E0,9.873378873E-1,-6.208977103E-1,1.931001186E0
1.889364012E0,9.660332203E-1,-6.219629049E-1,1.958697200E0
1.891871148E0,9.425980449E-1,-6.230281591E-1,1.987458467E0
1.894378283E0,9.191629291E-1,-6.251586080E-1,2.016219854E0
1.896885366E0,8.946625590E-1,-6.379414201E-1,2.044981003E0
1.899392502E0,8.733579516E-1,-6.560503840E-1,2.074807644E0
1.901899637E0,8.520532846E-1,-6.709636450E-1,2.103569031E0
1.904406773E0,8.307486176E-1,-6.912030578E-1,2.125938892E0
1.906913856E0,8.094439507E-1,-7.082468271E-1,2.148308754E0
1.909420991E0,7.913349867E-1,-7.231600881E-1,2.169613361E0
1.911928127E0,7.721607685E-1,-7.338123918E-1,2.185591936E0
1.914435210E0,7.508561015E-1,-7.508561015E-1,2.202635527E0
1.916942346E0,7.274209857E-1,-7.604432106E-1,2.212222576E0
1.919470575E0,7.103772759E-1,-7.678998709E-1,2.221809864E0
1.921977658E0,6.933335662E-1,-7.785521746E-1,2.232462168E0
1.924484846E0,6.741593480E-1,-7.892045379E-1,2.240983963E0
1.926991929E0,6.635070443E-1,-8.019872904E-1,2.254832029E0
1.929499064E0,6.581808329E-1,-8.083786964E-1,2.269745350E0
1.932006200E0,6.549851298E-1,-8.105092049E-1,2.282528162E0
1.934513335E0,6.517894268E-1,-8.200962543E-1,2.295310974E0
1.937020418E0,6.485937834E-1,-8.328790665E-1,2.308093548E0
1.939527554E0,6.390066743E-1,-8.509880304E-1,2.323006868E0
1.942034689E0,6.283543110E-1,-8.733579516E-1,2.337920189E0
1.944541773E0,6.240934134E-1,-8.872059584E-1,2.365616322E0
1.947048960E0,6.155715585E-1,-9.042496681E-1,2.399703741E0
1.949560262E0,6.049191952E-1,-9.191629291E-1,2.439117432E0
1.952067398E0,5.921363831E-1,-9.425980449E-1,2.487052917E0
1.954574533E0,5.825493336E-1,-9.585765600E-1,2.542444944E0
1.957081616E0,5.655055642E-1,-9.670984149E-1,2.597836971E0
1.959588752E0,5.495271087E-1,-9.788159728E-1,2.647902966E0
1.962095835E0,5.303528905E-1,-9.820116758E-1,2.697968960E0
1.964603023E0,5.133091807E-1,-9.766855240E-1,2.737382650E0
1.967110106E0,4.909392595E-1,-9.617722631E-1,2.768274307E0
1.969617241E0,4.675041437E-1,-9.500547051E-1,2.794905186E0
1.972124377E0,4.440690279E-1,-9.351414442E-1,2.814079285E0
1.974631460E0,4.131772518E-1,-9.351414442E-1,2.828992605E0
1.977138596E0,3.780245781E-1,-9.351414442E-1,2.841775417E0
1.979674481E0,3.396761715E-1,-9.351414442E-1,2.850297213E0
1.982181616E0,2.938711643E-1,-9.415328503E-1,2.858819246E0
1.984688752E0,2.352833450E-1,-9.532504082E-1,2.862014771E0
1.987195835E0,1.692388952E-1,-9.660332203E-1,2.864145279E0
1.989702971E0,9.786828607E-2,-9.756202698E-1,2.863080025E0
1.992210106E0,2.649767138E-2,-9.788159728E-1,2.860949516E0
1.994717241E0,-4.806863889E-2,-9.862726331E-1,2.854558229E0
1.997224325E0,-1.226349548E-1,-1.001185894E0,2.840710163E0
1.999731460E0,-1.897446364E-1,-1.011838198E0,2.824731588E0
2.002238596E0,-2.536586225E-1,-1.025686264E0,2.803426981E0
2.004745679E0,-3.090507388E-1,-1.042729974E0,2.770404816E0
2.007252814E0,-3.559209704E-1,-1.048056126E0,2.734186888E0
2.009778387E0,-3.901416063E-1,-1.058708429E0,2.691577435E0
2.012285523E0,-4.125114977E-1,-1.065099835E0,2.646837711E0
2.014792658E0,-4.242290556E-1,-1.059773684E0,2.596771717E0
2.017299741E0,-4.114462435E-1,-1.051251888E0,2.541379690E0
2.019806877E0,-3.837502003E-1,-1.042729974E0,2.483857155E0
2.022314012E0,-3.452686667E-1,-1.035273314E0,2.423138857E0
2.024821148E0,-2.973331809E-1,-1.032077670E0,2.362420559E0
2.027328231E0,-2.440715134E-1,-1.024621010E0,2.300637007E0
2.029835366E0,-1.886793971E-1,-1.020360112E0,2.236722946E0
2.032342502E0,-1.322220564E-1,-1.026751518E0,2.176004648E0
2.034849585E0,-7.363422960E-2,-1.034208059E0,2.121677876E0
2.037356721E0,-5.459319334E-3,-1.042729974E0,2.062024832E0
2.039882554E0,6.271559745E-2,-1.060838938E0,2.003437042E0
2.042389689E0,1.330209672E-1,-1.071491241E0,1.944849253E0
2.044896825E0,2.086525112E-1,-1.077882648E0,1.884130955E0
2.047403908E0,2.853493094E-1,-1.078947902E0,1.830869317E0
2.049911043E0,3.641765416E-1,-1.075752258E0,1.781868577E0
2.052418179E0,4.408733249E-1,-1.058708429E0,1.740324497E0
2.054925314E0,5.143743753E-1,-1.036338568E0,1.704106569E0
2.057432398E0,5.761579275E-1,-1.009707808E0,1.666690230E0
2.059939533E0,6.400718689E-1,-9.734898210E-1,1.634733200E0
2.062446668E0,6.997249722E-1,-9.425980449E-1,1.599580526E0
2.064953752E0,7.540518045E-1,-9.159672260E-1,1.564427853E0
2.067460887E0,8.073135018E-1,-8.925321102E-1,1.538862228E0
2.069986356E0,8.563141823E-1,-8.595098853E-1,1.517557621E0
2.072494689E0,9.031844735E-1,-8.211615086E-1,1.495187759E0
2.075003023E0,9.362066984E-1,-7.806826234E-1,1.472817779E0
2.077511356E0,9.660332203E-1,-7.380733490E-1,1.449382663E0
2.080019741E0,9.937292337E-1,-6.901378632E-1,1.420621395E0
2.082528127E0,1.010772943E0,-6.411371231E-1,1.390794873E0
2.085036408E0,1.019294858E0,-5.921363831E-1,1.360968351E0
2.087544793E0,1.026751518E0,-5.442008972E-1,1.333272338E0
2.090053127E0,1.033142924E0,-5.005263686E-1,1.299184799E0
2.092561460E0,1.031012416E0,-4.536561072E-1,1.270423532E0
2.095069793E0,1.020360112E0,-3.929378390E-1,1.243792653E0
2.097578179E0,1.005446792E0,-3.236976862E-1,1.220357537E0
2.100090783E0,9.852073789E-1,-2.491313666E-1,1.194792032E0
2.102599116E0,9.596418142E-1,-1.798912287E-1,1.174552560E0
2.105107450E0,9.287500381E-1,-9.999874979E-2,1.163900256E0
2.107615783E0,8.967930675E-1,-1.478010789E-2,1.160704494E0
2.110124168E0,8.595098853E-1,6.298190355E-2,1.166030645E0
2.112632502E0,8.254224658E-1,1.290263534E-1,1.179878712E0
2.115140835E0,7.796174288E-1,1.918751001E-1,1.207574844E0
2.117649221E0,7.252905369E-1,2.536586225E-1,1.251249313E0
2.120157554E0,6.613765359E-1,3.143768907E-1,1.305576205E0
2.122665887E0,5.857450366E-1,3.761604130E-1,1.373751163E0
2.125174221E0,4.983958900E-1,4.315525293E-1,1.452578425E0
2.127682606E0,3.993292153E-1,4.571181238E-1,1.544188380E0
2.130195210E0,2.853493094E-1,4.443353117E-1,1.651776910E0
2.132703543E0,1.660431921E-1,4.038564563E-1,1.778672814E0
2.135211877E0,4.354140162E-2,3.346163332E-1,1.925675035E0
2.137720210E0,-7.576470077E-2,2.430062890E-1,2.070546627E0
2.140228596E0,-1.993317306E-1,1.279611140E-1,2.211157560E0
2.142736981E0,-3.314206302E-1,1.331541280E-4,2.330463648E0
2.145245262E0,-4.636426866E-1,-1.703041345E-1,2.459356785E0
2.147753648E0,-6.159709692E-1,-3.769593239E-1,2.588249922E0
2.150261981E0,-7.746906877E-1,-5.378095508E-1,2.688381910E0
2.152770314E0,-9.121057987E-1,-4.504604042E-1,2.817275047E0
2.155278648E0,-1.022889972E0,-9.786828607E-2,3.048430681E0
2.157787033E0,-1.107043386E0,1.439396143E-1,3.252955437E0
2.160298856E0,-1.172022581E0,3.037245572E-1,3.404218435E0
2.162807189E0,-1.212501526E0,4.379439354E-1,3.512872219E0
2.165315523E0,-1.183740139E0,5.220973492E-1,3.567198992E0
2.167823856E0,-1.050586104E0,5.615109801E-1,3.586373329E0
2.170332241E0,-8.503222466E-1,5.828156471E-1,3.618330240E0
2.172840575E0,-6.447322965E-1,6.307511330E-1,3.684374809E0
2.175348908E0,-4.774906933E-1,7.181001902E-1,3.775984764E0
2.177857293E0,-3.367467821E-1,8.054493070E-1,3.879312277E0
2.180365627E0,-2.078536004E-1,8.704285622E-1,3.985835552E0
2.182873960E0,-8.748225868E-2,9.204944968E-1,4.101945877E0
2.185382293E0,2.862813696E-2,9.609733224E-1,4.225512981E0
2.187890679E0,1.362166703E-1,1.001452208E0,4.363993168E0
2.190406408E0,2.331528813E-1,1.033409238E0,4.505669594E0
2.192914741E0,3.066539466E-1,1.057909489E0,4.646280289E0
2.195423075E0,3.577851355E-1,1.072822809E0,4.768782139E0
2.197931408E0,3.801550269E-1,1.068561912E0,4.872109413E0
2.200439793E0,3.812202811E-1,1.050452948E0,4.960524082E0
2.202948127E0,3.663070202E-1,1.028082967E0,5.042546749E0
2.205456460E0,3.354152441E-1,9.993217587E-1,5.117113113E0
2.207964846E0,2.864145339E-1,9.684299827E-1,5.186353207E0
2.210473179E0,2.235657871E-1,9.172987938E-1,5.243875980E0
2.212981512E0,1.532603949E-1,8.342106342E-1,5.277963161E0
2.215489846E0,6.591129303E-2,7.117088437E-1,5.282224178E0
2.217998231E0,-2.143781446E-2,5.721632838E-1,5.265180588E0
2.220511096E0,-1.194392517E-1,4.390091598E-1,5.233223438E0
2.223019429E0,-2.291582525E-1,3.175725937E-1,5.194875240E0
2.225527814E0,-3.484643400E-1,1.993317306E-1,5.150135517E0
2.228036148E0,-4.785559475E-1,9.919982404E-2,5.097939014E0
2.230544481E0,-6.053186655E-1,1.291595027E-2,5.048938274E0
2.233052866E0,-7.342118621E-1,-6.697652489E-2,4.991415501E0
2.235561200E0,-8.588441014E-1,-1.489994675E-1,4.942414761E0
2.238069533E0,-9.856068492E-1,-2.246310115E-1,4.894479275E0
2.240577866E0,-1.109173894E0,-2.938711643E-1,4.849739552E0
2.243086200E0,-1.230610490E0,-3.609808385E-1,4.808195591E0
2.245594585E0,-1.349916577E0,-4.078511000E-1,4.768782139E0
2.248102918E0,-1.469222665E0,-4.536561072E-1,4.732563972E0
2.250606512E0,-1.581072092E0,-4.888088107E-1,4.699541569E0
2.253114793E0,-1.692921638E0,-5.314181447E-1,4.666519642E0
2.255623179E0,-1.803705812E0,-5.772231221E-1,4.640954018E0
2.258131512E0,-1.914490104E0,-6.251586080E-1,4.623910427E0
2.260639898E0,-2.009295702E0,-6.954640150E-1,4.615388393E0
2.263148231E0,-2.101971149E0,-7.881392837E-1,4.614323139E0
2.265656564E0,-2.186124563E0,-8.861407042E-1,4.624975681E0
2.268164950E0,-2.272408247E0,-9.798812270E-1,4.643084526E0
2.270673283E0,-2.346974611E0,-1.084274054E0,4.672911167E0
2.273181616E0,-2.411953926E0,-1.203580141E0,4.716585636E0
2.275689950E0,-2.475867748E0,-1.339929938E0,4.767716885E0
2.278198283E0,-2.521672964E0,-1.499848127E0,4.828434944E0
2.280708804E0,-2.546173334E0,-1.682002902E0,4.899805546E0
2.283217085E0,-2.565347433E0,-1.882266760E0,4.980763435E0
2.285725471E0,-2.570673704E0,-2.085726261E0,5.075569153E0
2.288233804E0,-2.567477942E0,-2.301968575E0,5.171440125E0
2.290742189E0,-2.562151670E0,-2.521406651E0,5.269441605E0
2.293250523E0,-2.545108080E0,-2.744040251E0,5.372768879E0
2.295758856E0,-2.502498627E0,-2.990109205E0,5.476096630E0
2.298267241E0,-2.458824158E0,-3.227656126E0,5.581554890E0
2.300775523E0,-2.375735998E0,-3.425789356E0,5.676360607E0
2.303283908E0,-2.222342491E0,-3.502486229E0,5.748796463E0
2.305792241E0,-2.026339531E0,-3.509942770E0,5.795666695E0
2.308300575E0,-1.813292861E0,-3.508877516E0,5.834014893E0
2.310809116E0,-1.632203341E0,-3.577052593E0,5.888341904E0
2.313317450E0,-1.480940223E0,-3.633509874E0,5.949059963E0
2.315825783E0,-1.312633395E0,-3.631379366E0,5.979951859E0
2.318334116E0,-1.153913617E0,-3.577052593E0,5.976756096E0
2.320842450E0,-9.706935883E-1,-3.418332815E0,5.949059963E0
2.323350835E0,-7.661688328E-1,-3.189307690E0,5.894733429E0
2.325859168E0,-5.637745857E-1,-2.937912703E0,5.831884384E0
2.328367554E0,-5.520570278E-1,-2.867607355E0,5.774362087E0
2.330875835E0,-5.659050345E-1,-2.790910482E0,5.746665955E0
2.333384221E0,-4.572512805E-1,-2.381860971E0,5.687012672E0
2.335892554E0,-5.840139985E-1,-2.066552162E0,5.595402718E0
2.338400887E0,-9.600412846E-1,-1.326081991E0,5.422834873E0
2.340925158E0,-1.435135245E0,1.717688330E-2,5.095808506E0
2.343433491E0,-2.070014000E0,2.012358427E0,4.460929394E0
2.345941825E0,-2.797568321E0,4.075847626E0,3.658809185E0
2.348450158E0,-3.363206863E0,5.928287983E0,3.020734549E0
2.350958543E0,-3.745625734E0,7.559159756E0,2.621272087E0
2.353466877E0,-4.030042648E0,8.649025917E0,2.193048477E0
2.355975210E0,-4.158936024E0,9.401081085E0,1.859630585E0
2.358483596E0,-3.937367678E0,1.014887428E1,1.651776910E0
2.360991929E0,-3.468665123E0,1.054833698E1,1.502644300E0
2.363500314E0,-2.819938183E0,1.047483540E1,1.417425752E0
2.366008596E0,-2.105166674E0,1.013609123E1,1.362033606E0
2.368516981E0,-1.394656301E0,9.540626526E0,1.353511691E0
2.371030106E0,-6.905373335E-1,8.759810448E0,1.380142570E0
2.373538439E0,-9.813459218E-2,7.732792854E0,1.429143310E0
2.376046773E0,4.472647011E-1,6.362903118E0,1.537796974E0
2.378555158E0,7.977263927E-1,5.225234509E0,1.684799194E0
2.381063491E0,1.028881907E0,4.346416950E0,1.855369568E0
2.383571825E0,1.222754359E0,3.426055670E0,2.002371788E0
2.386080210E0,1.318625331E0,2.609954119E0,2.148308754E0
2.388588543E0,1.213167310E0,2.037923813E0,2.266549587E0
2.391096877E0,1.085339308E0,1.465893745E0,2.333659172E0
2.393605210E0,1.012903452E0,1.007843614E0,2.376268625E0
2.396113543E0,8.829450011E-1,6.648385525E-1,2.406095028E0
2.398621929E0,7.561823130E-1,4.081174135E-1,2.397573233E0
2.401133491E0,6.422023773E-1,2.440715134E-1,2.360290051E0
2.403641825E0,5.207657814E-1,1.716356725E-1,2.310224056E0
2.406150158E0,3.971987665E-1,1.663095057E-1,2.259093046E0
2.408658491E0,2.853493094E-1,2.131797522E-1,2.179200411E0
2.411166877E0,1.756303012E-1,3.527252972E-1,2.080133677E0
2.413675210E0,7.017222792E-2,5.018579364E-1,1.991719484E0
2.416183543E0,-4.394086078E-3,5.987941027E-1,1.909696460E0
2.418691929E0,-4.274247587E-2,6.541862488E-1,1.825543046E0
2.421200262E0,-6.830807030E-2,6.925346255E-1,1.736063480E0
2.423708648E0,-9.493889660E-2,7.319482565E-1,1.637928963E0
2.426216929E0,-1.013302878E-1,7.617747784E-1,1.520753264E0
2.428725314E0,-8.961272985E-2,7.884055972E-1,1.384403467E0
2.431233231E0,-8.322133124E-2,8.363410830E-1,1.258705974E0
2.433741564E0,-8.641702682E-2,9.066464305E-1,1.135138988E0
2.436249898E0,-7.896039635E-2,9.513862729E-1,1.008376241E0
2.438758231E0,-6.298190355E-2,9.790822864E-1,8.762873411E-1
2.441266616E0,-5.446003750E-2,9.929303527E-1,7.644378543E-1
2.443775002E0,-5.339480564E-2,9.673647285E-1,6.760234833E-1
2.446283283E0,-5.232957378E-2,9.236901999E-1,5.918700695E-1
2.448791668E0,-5.232957378E-2,8.746894598E-1,5.183690190E-1
2.451300002E0,-6.085143611E-2,8.139711618E-1,4.587159753E-1
2.453808335E0,-7.150376588E-2,7.404701114E-1,4.118457139E-1
2.456316668E0,-7.896039635E-2,6.669690013E-1,3.788234890E-1
2.458825054E0,-9.387365729E-2,6.009245515E-1,3.511274457E-1
2.461323752E0,-1.045259908E-1,5.135754943E-1,3.319532275E-1
2.463832085E0,-1.119826213E-1,4.187697470E-1,3.191704452E-1
2.466340418E0,-1.194392517E-1,3.197030723E-1,3.021267056E-1
2.468848752E0,-1.205044836E-1,2.163754553E-1,2.882786989E-1
2.471357137E0,-1.205044836E-1,1.194392517E-1,2.680392563E-1
2.473865523E0,-1.226349548E-1,3.315537795E-2,2.435389012E-1
2.476373856E0,-1.183740199E-1,-5.099803209E-2,2.190385461E-1
2.478882189E0,-1.194392517E-1,-1.202381775E-1,1.881467849E-1
2.481390523E0,-1.162435561E-1,-1.596518010E-1,1.647116542E-1
2.483898856E0,-1.109173894E-1,-1.756303012E-1,1.455374658E-1
2.486407189E0,-1.013302878E-1,-1.852173954E-1,1.189066395E-1
2.488915575E0,-8.961272985E-2,-1.830869317E-1,8.481918275E-2
2.491444898E0,-7.576470077E-2,-1.713693589E-1,4.860125855E-2
2.493953231E0,-6.191666797E-2,-1.511299312E-1,1.238333434E-2
2.496461564E0,-4.700340703E-2,-1.287600398E-1,-1.637795754E-2
2.498969950E0,-2.995967865E-2,-1.042596847E-1,-2.383458801E-2
2.501478283E0,-1.930734888E-2,-7.975932211E-2,-2.063889056E-2
2.503986616E0,-9.720250964E-3,-6.058513001E-2,-4.660394508E-3
2.506494950E0,5.193010904E-3,-3.928046674E-2,1.770949923E-2
2.509003335E0,1.797580719E-2,-1.584534161E-2,4.220985994E-2
2.511511668E0,3.501953557E-2,1.504641678E-2,6.564498693E-2
2.514020002E0,4.567186534E-2,4.380770773E-2,9.227581322E-2
2.516528335E0,6.271559745E-2,7.256899774E-2,1.103847697E-1
2.519036721E0,8.082455397E-2,1.034607589E-1,1.210371032E-1
2.521547189E0,9.467258304E-2,1.375482082E-1,1.338198930E-1
2.524055523E0,1.021292135E-1,1.641790420E-1,1.380808353E-1
2.526563856E0,1.138467789E-1,1.886793971E-1,1.402112991E-1
2.529072241E0,1.191729456E-1,2.078536004E-1,1.380808353E-1
2.531580575E0,1.181077138E-1,2.195711583E-1,1.306242049E-1
2.534088908E0,1.149120107E-1,2.248973250E-1,1.210371032E-1
2.536597241E0,1.095858440E-1,2.270277888E-1,1.114500016E-1
2.539105627E0,9.999874979E-2,2.217016220E-1,9.653674066E-2
2.541613960E0,8.721595258E-2,2.089188248E-1,7.736254483E-2
2.544122293E0,7.230269164E-2,1.950708032E-1,6.244928762E-2
2.546630627E0,5.312849581E-2,1.801575422E-1,4.327509180E-2
2.549139012E0,3.715000302E-2,1.567224115E-1,2.942706272E-2
2.551649898E0,1.691057347E-2,1.332872808E-1,1.238333434E-2
2.554158231E0,-1.198387123E-3,1.023955271E-1,-5.725627299E-3
2.556666564E0,-1.930734888E-2,6.830807030E-2,-2.276935615E-2
2.559174898E0,-4.274247587E-2,3.102491237E-2,-3.874785081E-2
2.561683283E0,-6.191666797E-2,-9.453942999E-3,-5.579157919E-2
2.564191616E0,-7.363422960E-2,-5.312849581E-2,-7.390054315E-2
2.566699950E0,-8.535179496E-2,-9.360735118E-2,-8.774857223E-2
2.569208335E0,-9.174319357E-2,-1.330209672E-1,-9.840089828E-2
2.571716668E0,-9.706936032E-2,-1.681736708E-1,-1.069227681E-1
2.574225002E0,-9.706936032E-2,-1.948044896E-1,-1.133141592E-1
2.576733387E0,-9.493889660E-2,-2.161091566E-1,-1.165098622E-1
2.579241721E0,-8.961272985E-2,-2.246310115E-1,-1.154446304E-1
2.581739741E0,-8.641702682E-2,-2.225005478E-1,-1.122489274E-1
2.584248075E0,-7.896039635E-2,-2.161091566E-1,-1.047922969E-1
2.586756408E0,-7.043853402E-2,-2.011958808E-1,-9.840089828E-2
2.589264741E0,-6.617759913E-2,-1.820216924E-1,-9.413997084E-2
2.591773127E0,-5.978620425E-2,-1.564560980E-1,-8.774857223E-2
2.594281460E0,-5.339480564E-2,-1.340862066E-1,-8.135717362E-2
2.596789793E0,-4.913387448E-2,-1.117163152E-1,-7.390054315E-2
2.599298179E0,-4.380770773E-2,-9.893351793E-2,-6.963960826E-2
2.601806512E0,-3.848154470E-2,-8.188978583E-2,-6.431344151E-2
2.604314846E0,-3.102491237E-2,-7.230269164E-2,-6.005251035E-2
2.606823179E0,-2.889444493E-2,-6.271559745E-2,-5.579157919E-2
2.609331564E0,-2.250304818E-2,-5.312849581E-2,-4.833494872E-2
2.611858179E0,-1.930734888E-2,-4.886756465E-2,-4.513924941E-2
2.614366512E0,-1.398118306E-2,-4.780233279E-2,-4.300878197E-2
2.616874846E0,-3.328853287E-3,-4.673709720E-2,-3.768261895E-2
2.619383179E0,-4.394086078E-3,-4.567186534E-2,-3.555215150E-2
2.621891564E0,-3.328853287E-3,-5.099803209E-2,-3.555215150E-2
2.624399950E0,-2.263620263E-3,-5.525896326E-2,-3.555215150E-2
2.626908231E0,9.320789250E-4,-5.738943070E-2,-3.448691964E-2
2.629416616E0,-4.394086078E-3,-6.271559745E-2,-3.342168778E-2
2.631924950E0,-1.331541280E-4,-6.804175675E-2,-2.809552103E-2
2.634433283E0,-1.198387123E-3,-7.443315536E-2,-2.276935615E-2
2.636941668E0,-1.331541280E-4,-8.295502514E-2,-2.170412242E-2
2.639450002E0,9.320789250E-4,-8.934641629E-2,-1.957365684E-2
2.641925627E0,9.320789250E-4,-9.041165560E-2,-1.637795754E-2
2.644433960E0,4.127778113E-3,-9.147688746E-2,-1.211702544E-2
2.646942346E0,4.127778113E-3,-9.041165560E-2,-9.986559860E-3
2.649450679E0,7.323476952E-3,-8.615072072E-2,-6.790860556E-3
2.651959012E0,1.158440951E-2,-7.549838722E-2,1.731003635E-3
2.654467398E0,1.264964230E-2,-6.591129303E-2,5.991935730E-3
2.656975731E0,1.904104091E-2,-4.886756465E-2,1.238333434E-2
2.659484064E0,2.330197208E-2,-3.182383627E-2,1.770949923E-2
2.661992398E0,2.543243766E-2,-1.478010789E-2,2.090519853E-2
2.664500783E0,2.649767138E-2,5.459319334E-3,2.410089783E-2
2.667009116E0,3.182383627E-2,2.463351376E-2,2.836182900E-2
2.669517450E0,3.288906813E-2,4.274247587E-2,2.942706272E-2
2.672068075E0,3.288906813E-2,6.191666797E-2,3.049229458E-2
2.674576408E0,2.862813696E-2,7.576470077E-2,2.836182900E-2
2.677084741E0,2.223674022E-2,8.322133124E-2,2.729659714E-2
2.679593075E0,1.904104091E-2,8.641702682E-2,2.410089783E-2
2.682101460E0,1.478010789E-2,8.748225868E-2,1.983996481E-2
2.684609793E0,1.264964230E-2,8.641702682E-2,1.557903271E-2
2.687118127E0,9.453942999E-3,8.109086752E-2,1.238333434E-2
2.689626512E0,1.051917579E-2,7.469946891E-2,9.187635034E-3
2.692134846E0,1.371487509E-2,7.043853402E-2,4.926702939E-3
2.694643179E0,1.371487509E-2,6.617759913E-2,1.731003635E-3
2.697151512E0,1.584534161E-2,6.191666797E-2,-2.529928461E-3
2.699659898E0,1.584534161E-2,6.085143611E-2,-4.660394508E-3
2.702144846E0,1.158440951E-2,5.446003750E-2,-3.595161485E-3
2.704653179E0,8.388710208E-3,5.019910634E-2,-7.856093347E-3
2.707161512E0,7.323476952E-3,4.806863889E-2,-6.790860556E-3
2.709669846E0,6.258244161E-3,5.126433820E-2,-4.660394508E-3
2.712178231E0,5.193010904E-3,5.019910634E-2,-4.660394508E-3
2.714686564E0,6.258244161E-3,5.019910634E-2,-3.595161485E-3
2.717194898E0,1.371487509E-2,5.019910634E-2,-1.464695437E-3
2.719703283E0,1.478010789E-2,5.446003750E-2,-2.529928461E-3
2.722211616E0,1.797580719E-2,5.659050494E-2,-1.464695437E-3
2.724720002E0,2.649767138E-2,5.872096866E-2,6.657706108E-4
2.727228283E0,3.288906813E-2,6.191666797E-2,4.926702939E-3
2.729736668E0,3.928046674E-2,6.830807030E-2,1.025286783E-2
2.732271460E0,4.567186534E-2,7.469946891E-2,1.238333434E-2
2.734779793E0,4.886756465E-2,8.002562821E-2,1.770949923E-2
2.737288127E0,5.312849581E-2,8.535179496E-2,2.303566411E-2
2.739796460E0,5.738943070E-2,9.174319357E-2,2.410089783E-2
2.742304846E0,6.271559745E-2,9.706936032E-2,2.623136342E-2
2.744813179E0,6.378082931E-2,9.919982404E-2,2.942706272E-2
2.747321512E0,6.058513001E-2,1.045259908E-1,3.368799388E-2
2.749829898E0,6.484606117E-2,1.109173894E-1,3.475322574E-2
2.752338231E0,6.271559745E-2,1.109173894E-1,3.688369319E-2
2.754846564E0,5.738943070E-2,1.141130850E-1,3.475322574E-2
2.757354898E0,5.419373140E-2,1.141130850E-1,3.581846133E-2
2.759863283E0,5.206326395E-2,1.087869257E-1,3.155753016E-2
2.762358491E0,5.099803209E-2,1.045259908E-1,2.942706272E-2
2.764866825E0,4.886756465E-2,9.813459218E-2,2.942706272E-2
2.767375158E0,4.780233279E-2,8.961272985E-2,2.623136342E-2
2.769883491E0,4.886756465E-2,8.002562821E-2,2.516612969E-2
2.772391877E0,4.886756465E-2,7.043853402E-2,2.516612969E-2
2.774900210E0,4.567186534E-2,5.978620425E-2,1.983996481E-2
2.777408543E0,4.247616604E-2,4.487293959E-2,1.344856713E-2
2.779916929E0,3.928046674E-2,3.102491237E-2,9.187635034E-3
2.782425262E0,3.501953557E-2,2.037258074E-2,7.057168987E-3
2.784933596E0,3.182383627E-2,1.291595027E-2,5.991935730E-3
2.787441929E0,3.075860441E-2,8.655018173E-3,4.926702939E-3
2.789950314E0,2.862813696E-2,4.394086078E-3,5.991935730E-3
2.792481825E0,2.649767138E-2,2.263620263E-3,3.861469682E-3
2.794990158E0,2.649767138E-2,2.263620263E-3,6.657706108E-4
2.797498491E0,2.223674022E-2,2.263620263E-3,6.657706108E-4
2.800006825E0,2.223674022E-2,2.263620263E-3,-3.994623839E-4
2.802515210E0,1.797580719E-2,4.394086078E-3,-8.921326138E-3
2.805023543E0,1.371487509E-2,5.459319334E-3,-1.318225823E-2
2.807531877E0,7.323476952E-3,9.720250964E-3,-1.424749196E-2
2.810040262E0,-1.331541280E-4,7.589785382E-3,-1.850842312E-2
2.812548596E0,-4.394086078E-3,5.459319334E-3,-2.170412242E-2
2.815056929E0,-1.185071748E-2,1.331541280E-4,-2.489982173E-2
2.817565262E0,-1.930734888E-2,-4.127778113E-3,-2.809552103E-2
2.820073648E0,-2.356828004E-2,-8.388710208E-3,-2.596505545E-2
2.822559116E0,-2.889444493E-2,-1.371487509E-2,-2.703028731E-2
2.825067450E0,-2.889444493E-2,-1.158440951E-2,-2.276935615E-2
2.827575783E0,-2.782921307E-2,-8.388710208E-3,-1.531272475E-2
2.830084116E0,-2.569874749E-2,-5.193010904E-3,-1.424749196E-2
2.832592502E0,-2.250304818E-2,-9.320789250E-4,-1.318225823E-2
2.835100835E0,-1.930734888E-2,2.263620263E-3,-1.318225823E-2
2.837609168E0,-1.611164957E-2,9.720250964E-3,-1.211702544E-2
2.840117554E0,-1.185071748E-2,1.185071748E-2,-1.105179265E-2
2.842625887E0,-9.720250964E-3,2.037258074E-2,-7.856093347E-3
2.845134221E0,-9.720250964E-3,2.569874749E-2,-6.790860556E-3
2.847642554E0,-5.459319334E-3,3.315537795E-2,-2.529928461E-3
2.850150939E0,3.062544856E-3,4.061200842E-2,6.657706108E-4
2.852692241E0,5.193010904E-3,4.487293959E-2,4.926702939E-3
2.855200575E0,4.127778113E-3,5.126433820E-2,8.122402243E-3
2.857708908E0,3.062544856E-3,5.019910634E-2,3.861469682E-3
2.860217241E0,3.062544856E-3,4.593817517E-2,-3.994623839E-4
2.862725627E0,-1.331541280E-4,4.380770773E-2,1.731003635E-3
2.865233960E0,9.320789250E-4,4.700340703E-2,8.122402243E-3
2.867742293E0,1.997311832E-3,4.913387448E-2,9.187635034E-3
2.870250679E0,4.127778113E-3,5.126433820E-2,1.131810062E-2
2.872759012E0,4.127778113E-3,4.700340703E-2,1.557903271E-2
2.875267346E0,3.062544856E-3,4.487293959E-2,1.557903271E-2
2.877775679E0,1.997311832E-3,4.700340703E-2,1.451379992E-2
2.880284064E0,3.062544856E-3,3.954677656E-2,1.025286783E-2
2.882780575E0,3.062544856E-3,3.635107726E-2,8.122402243E-3
2.885288908E0,-1.198387123E-3,2.569874749E-2,4.926702939E-3
2.887797241E0,-3.328853287E-3,1.398118306E-2,6.657706108E-4
2.890305575E0,-6.524552125E-3,3.328853287E-3,-2.529928461E-3
2.892813960E0,-8.655018173E-3,-1.371487509E-2,-5.725627299E-3
2.895322293E0,-1.291595027E-2,-3.395430371E-2,-7.856093347E-3
2.897830627E0,-1.824211515E-2,-4.567186534E-2,-1.424749196E-2
2.900339012E0,-1.611164957E-2,-6.165036187E-2,-1.744319126E-2
2.902847346E0,-2.569874749E-2,-8.082455397E-2,-2.170412242E-2
2.905355679E0,-2.676397935E-2,-9.999874979E-2,-2.596505545E-2
2.907864012E0,-3.209014609E-2,-1.170424819E-1,-3.022598661E-2
2.910372398E0,-3.741630912E-2,-1.340862066E-1,-3.555215150E-2
2.912901043E0,-3.741630912E-2,-1.468690038E-1,-3.874785081E-2
2.915409377E0,-4.061200842E-2,-1.628475040E-1,-4.300878197E-2
2.917917710E0,-4.487293959E-2,-1.798912287E-1,-4.833494872E-2
2.920426043E0,-4.806863889E-2,-1.948044896E-1,-5.153064802E-2
2.922934429E0,-5.019910634E-2,-2.043915838E-1,-5.366111174E-2
2.925442762E0,-5.019910634E-2,-2.182396203E-1,-5.472634733E-2
2.927951148E0,-4.913387448E-2,-2.225005478E-1,-5.153064802E-2
2.930459481E0,-5.126433820E-2,-2.150439173E-1,-3.874785081E-2
2.932967814E0,-4.913387448E-2,-1.969349533E-1,-2.596505545E-2
2.935476148E0,-3.741630912E-2,-1.745650619E-1,-1.211702544E-2
2.937984481E0,-2.569874749E-2,-1.468690038E-1,1.731003635E-3
2.940492866E0,-1.185071748E-2,-1.117163152E-1,1.557903271E-2
2.942983127E0,-1.198387123E-3,-7.762885839E-2,2.303566411E-2
2.945491460E0,-2.263620263E-3,-5.951989442E-2,1.770949923E-2
2.947999793E0,-4.394086078E-3,-4.673709720E-2,3.861469682E-3
2.950508179E0,-5.459319334E-3,-3.821523488E-2,-3.595161485E-3
2.953016512E0,-9.720250964E-3,-2.862813696E-2,-2.529928461E-3
2.955524846E0,-1.504641678E-2,-2.543243766E-2,-7.856093347E-3
2.958033179E0,-1.398118306E-2,-1.691057347E-2,-5.725627299E-3
2.960541564E0,-1.398118306E-2,-7.323476952E-3,5.991935730E-3
2.963049898E0,-6.524552125E-3,1.198387123E-3,1.344856713E-2
2.965558231E0,-2.263620263E-3,8.655018173E-3,1.664426550E-2
2.968066564E0,9.453942999E-3,1.611164957E-2,2.090519853E-2
2.970574950E0,2.223674022E-2,2.037258074E-2,2.197043039E-2
2.973107554E0,2.756290510E-2,2.569874749E-2,1.877473295E-2
2.975615887E0,3.608476743E-2,2.569874749E-2,1.557903271E-2
2.978124273E0,3.928046674E-2,2.782921307E-2,1.238333434E-2
2.980632554E0,3.928046674E-2,2.889444493E-2,1.025286783E-2
2.983140939E0,4.034570232E-2,3.102491237E-2,1.238333434E-2
2.985649273E0,4.247616604E-2,3.635107726E-2,1.344856713E-2
2.988157606E0,4.567186534E-2,4.700340703E-2,1.664426550E-2
2.990665991E0,4.034570232E-2,6.298190355E-2,2.303566411E-2
2.993174325E0,4.141093418E-2,8.109086752E-2,2.729659714E-2
2.995682658E0,4.247616604E-2,1.002650559E-1,3.262276202E-2
2.998190991E0,4.993279651E-2,1.119826213E-1,3.475322574E-2
3.000699377E0,5.525896326E-2,1.194392517E-1,3.049229458E-2
3.003205106E0,6.165036187E-2,1.247654185E-1,2.942706272E-2
3.005713439E0,6.804175675E-2,1.343525201E-1,3.049229458E-2
3.008221773E0,7.656362653E-2,1.460700780E-1,3.368799388E-2
3.010730106E0,8.082455397E-2,1.524614692E-1,3.155753016E-2
3.013238491E0,8.188978583E-2,1.492657810E-1,2.410089783E-2
3.015746825E0,7.549838722E-2,1.471353173E-1,1.877473295E-2
3.018255158E0,6.910699606E-2,1.375482082E-1,1.557903271E-2
3.020763543E0,6.591129303E-2,1.279611140E-1,1.877473295E-2
3.023271877E0,6.271559745E-2,1.151783243E-1,2.410089783E-2
3.025780210E0,6.591129303E-2,9.600412846E-2,2.729659714E-2
3.028288596E0,6.591129303E-2,7.256899774E-2,2.836182900E-2
3.030796929E0,6.697652489E-2,4.274247587E-2,2.623136342E-2
3.033310314E0,6.378082931E-2,1.291595027E-2,1.983996481E-2
3.035818648E0,5.951989442E-2,-2.010627277E-2,9.187635034E-3
3.038326981E0,5.099803209E-2,-5.419373140E-2,-1.464695437E-3
3.040835314E0,4.034570232E-2,-8.934641629E-2,-1.211702544E-2
3.043343700E0,2.969337068E-2,-1.095858440E-1,-1.637795754E-2
3.045852033E0,1.264964230E-2,-1.149120107E-1,-1.744319126E-2
3.048360366E0,-3.328853287E-3,-1.170424819E-1,-1.957365684E-2
3.050868752E0,-2.250304818E-2,-1.244991124E-1,-2.703028731E-2
3.053377085E0,-5.126433820E-2,-1.404775977E-1,-3.874785081E-2
3.055885418E0,-7.469946891E-2,-1.607170254E-1,-4.726971686E-2
3.058393752E0,-1.034607589E-1,-1.884130985E-1,-5.685681105E-2
3.060902137E0,-1.279611140E-1,-2.075872868E-1,-6.005251035E-2
3.063410262E0,-1.407439113E-1,-2.203700840E-1,-5.898727849E-2
3.065918596E0,-1.450048387E-1,-2.299571782E-1,-5.259587988E-2
3.068426929E0,-1.375482082E-1,-2.331528813E-1,-4.726971686E-2
3.070935262E0,-1.311568171E-1,-2.256962508E-1,-3.981308267E-2
3.073443648E0,-1.151783243E-1,-2.075872868E-1,-3.448691964E-2
3.075951981E0,-9.387365729E-2,-1.894783229E-1,-2.489982173E-2
3.078460314E0,-7.469946891E-2,-1.681736708E-1,-1.531272475E-2
3.080968700E0,-5.339480564E-2,-1.372819096E-1,-5.725627299E-3
3.083477033E0,-3.209014609E-2,-1.095858440E-1,-4.660394508E-3
3.085985366E0,-1.611164957E-2,-8.721595258E-2,-2.529928461E-3
3.088493752E0,-3.328853287E-3,-6.058513001E-2,3.861469682E-3
3.091002085E0,7.323476952E-3,-2.862813696E-2,1.344856713E-2
3.093520418E0,1.371487509E-2,1.331541280E-4,1.877473295E-2
3.096029064E0,2.010627277E-2,3.102491237E-2,2.197043039E-2
3.098537658E0,2.117150649E-2,5.126433820E-2,2.303566411E-2
3.101046252E0,1.797580719E-2,6.511236727E-2,2.303566411E-2
3.103554846E0,1.371487509E-2,7.363422960E-2,2.197043039E-2
3.106063439E0,9.453942999E-3,8.322133124E-2,2.090519853E-2
3.108572033E0,4.127778113E-3,8.109086752E-2,1.451379992E-2
3.111080627E0,-2.263620263E-3,7.469946891E-2,1.131810062E-2
3.113589221E0,-4.394086078E-3,6.724283099E-2,3.861469682E-3
3.116097814E0,-5.459319334E-3,5.446003750E-2,-3.994623839E-4
3.118606460E0,-7.589785382E-3,3.741630912E-2,-3.595161485E-3
3.121115054E0,-9.720250964E-3,1.504641678E-2,-8.921326138E-3
3.123627710E0,-9.720250964E-3,-7.323476952E-3,-9.986559860E-3
3.126136356E0,-4.394086078E-3,-2.862813696E-2,-1.424749196E-2
3.128644898E0,-2.263620263E-3,-5.525896326E-2,-1.637795754E-2
3.131153543E0,9.320789250E-4,-7.549838722E-2,-1.531272475E-2
3.133662137E0,9.320789250E-4,-9.573781490E-2,-1.318225823E-2
3.136170731E0,-4.394086078E-3,-1.074553803E-1,-9.986559860E-3
3.138679325E0,-2.263620263E-3,-1.117163152E-1,-1.464695437E-3
3.141187918E0,4.127778113E-3,-1.053249165E-1,1.025286783E-2
3.143696512E0,9.453942999E-3,-9.573781490E-2,1.983996481E-2
3.146205106E0,1.797580719E-2,-8.188978583E-2,2.942706272E-2
3.148713752E0,2.223674022E-2,-7.230269164E-2,2.942706272E-2
3.151222346E0,2.330197208E-2,-6.484606117E-2,3.368799388E-2
3.153728700E0,2.223674022E-2,-6.591129303E-2,3.581846133E-2
3.156237346E0,2.117150649E-2,-7.869409025E-2,2.836182900E-2
3.158745939E0,1.904104091E-2,-9.147688746E-2,2.836182900E-2
3.161254533E0,1.691057347E-2,-1.031944528E-1,2.729659714E-2
3.163763127E0,1.371487509E-2,-1.149120107E-1,2.729659714E-2
3.166271721E0,1.264964230E-2,-1.181077138E-1,3.049229458E-2
3.168780314E0,1.264964230E-2,-1.138467789E-1,3.049229458E-2
3.171288908E0,1.478010789E-2,-1.031944528E-1,3.049229458E-2
3.173797502E0,1.797580719E-2,-9.360735118E-2,3.581846133E-2
3.176306096E0,2.436720580E-2,-8.615072072E-2,4.007939249E-2
3.178814689E0,3.075860441E-2,-7.123745978E-2,3.901416063E-2
3.181323335E0,3.395430371E-2,-5.099803209E-2,3.794892505E-2
3.183835991E0,4.034570232E-2,-3.075860441E-2,4.007939249E-2
3.186344637E0,4.993279651E-2,-1.691057347E-2,3.901416063E-2
3.188853231E0,5.312849581E-2,-7.323476952E-3,3.155753016E-2
3.191361825E0,4.993279651E-2,3.328853287E-3,2.729659714E-2
3.193870418E0,5.099803209E-2,9.720250964E-3,2.410089783E-2
3.196379012E0,4.780233279E-2,7.589785382E-3,1.451379992E-2
3.198887606E0,4.354140162E-2,5.459319334E-3,1.131810062E-2
3.201396252E0,3.288906813E-2,-9.320789250E-4,3.861469682E-3
3.203904793E0,2.010627277E-2,-6.258244161E-3,-6.790860556E-3
3.206413387E0,9.453942999E-3,-2.223674022E-2,-1.531272475E-2
3.208922033E0,3.062544856E-3,-3.288906813E-2,-1.957365684E-2
3.211430627E0,-3.328853287E-3,-5.099803209E-2,-2.489982173E-2
3.213938804E0,-1.078548469E-2,-6.804175675E-2,-3.342168778E-2
3.216447450E0,-1.824211515E-2,-7.975932211E-2,-4.513924941E-2
3.218956043E0,-2.676397935E-2,-9.041165560E-2,-5.153064802E-2
3.221464637E0,-3.741630912E-2,-9.786828607E-2,-5.579157919E-2
3.223973231E0,-4.593817517E-2,-1.021292135E-1,-6.005251035E-2
3.226481825E0,-5.339480564E-2,-1.063901484E-1,-6.324820966E-2
3.228990418E0,-5.552527308E-2,-1.159772426E-1,-6.963960826E-2
3.231499012E0,-5.552527308E-2,-1.330209672E-1,-7.709623873E-2
3.234007606E0,-5.019910634E-2,-1.521951705E-1,-7.922670245E-2
3.236516200E0,-4.806863889E-2,-1.734998226E-1,-7.816147059E-2
3.239024846E0,-4.167724028E-2,-1.948044896E-1,-7.390054315E-2
3.241533439E0,-2.995967865E-2,-2.097177505E-1,-6.750914454E-2
3.244045106E0,-2.143781446E-2,-2.171743810E-1,-6.750914454E-2
3.246553752E0,-1.291595027E-2,-2.320876420E-1,-6.857437640E-2
3.249062346E0,-7.589785382E-3,-2.501966059E-1,-6.857437640E-2
3.251570939E0,-2.263620263E-3,-2.640446424E-1,-6.537867337E-2
3.254079533E0,-1.198387123E-3,-2.842840552E-1,-6.857437640E-2
3.256588127E0,4.127778113E-3,-3.034582436E-1,-7.496577501E-2
3.259096721E0,9.320789250E-4,-3.236976862E-1,-8.135717362E-2
3.261605366E0,-3.328853287E-3,-3.439370990E-1,-8.668334037E-2
3.264113908E0,-5.459319334E-3,-3.609808385E-1,-9.200949967E-2
3.266622502E0,-5.459319334E-3,-3.812202811E-1,-1.015966013E-1
3.269131148E0,-8.655018173E-3,-4.046553969E-1,-1.133141592E-1
3.271639741E0,-8.655018173E-3,-4.280905128E-1,-1.207707971E-1
3.274146929E0,-3.328853287E-3,-4.504604042E-1,-1.229012609E-1
3.276655523E0,9.320789250E-4,-4.728302956E-1,-1.271621883E-1
3.279164168E0,-1.331541280E-4,-4.877435565E-1,-1.282274276E-1
3.281672762E0,-2.263620263E-3,-4.983958900E-1,-1.260969639E-1
3.284181356E0,-3.328853287E-3,-5.047873259E-1,-1.229012609E-1
3.286689950E0,-5.459319334E-3,-5.058525205E-1,-1.154446304E-1
3.289198543E0,-1.078548469E-2,-5.015916228E-1,-1.079879999E-1
3.291707137E0,-1.611164957E-2,-4.920045137E-1,-9.413997084E-2
3.294215731E0,-2.463351376E-2,-4.760259986E-1,-8.242240548E-2
3.296724325E0,-3.315537795E-2,-4.600475132E-1,-6.963960826E-2
3.299232971E0,-3.848154470E-2,-4.483299553E-1,-5.579157919E-2
3.301741512E0,-4.487293959E-2,-4.419385493E-1,-4.194355011E-2
3.304250731E0,-4.700340703E-2,-4.334166944E-1,-3.235645220E-2
3.306759377E0,-5.552527308E-2,-4.259600639E-1,-2.170412242E-2
3.309267971E0,-6.085143611E-2,-4.142425060E-1,-1.211702544E-2
3.311776564E0,-5.978620425E-2,-4.046553969E-1,-8.921326138E-3
3.314285158E0,-5.872096866E-2,-3.993292153E-1,-5.725627299E-3
3.316793752E0,-5.126433820E-2,-3.929378390E-1,-1.464695437E-3
3.319302346E0,-4.167724028E-2,-3.940030634E-1,-1.464695437E-3
3.321810939E0,-3.422060981E-2,-3.918725848E-1,3.861469682E-3
3.324319533E0,-2.889444493E-2,-3.865464330E-1,3.861469682E-3
3.326828127E0,-2.356828004E-2,-3.790898025E-1,-1.464695437E-3
3.329336773E0,-2.143781446E-2,-3.620460629E-1,-1.464695437E-3
3.331845366E0,-1.930734888E-2,-3.375457227E-1,-6.790860556E-3
3.334350731E0,-1.504641678E-2,-3.151758313E-1,-1.105179265E-2
3.336859377E0,-1.291595027E-2,-2.842840552E-1,-1.850842312E-2
3.339367971E0,-9.720250964E-3,-2.512618303E-1,-2.383458801E-2
3.341876564E0,-4.394086078E-3,-2.193048447E-1,-2.916075476E-2
3.344385106E0,3.062544856E-3,-1.809564531E-1,-3.342168778E-2
3.346893752E0,1.264964230E-2,-1.468690038E-1,-3.342168778E-2
3.349402346E0,2.436720580E-2,-1.106510833E-1,-3.874785081E-2
3.351910939E0,2.969337068E-2,-7.336792350E-2,-4.194355011E-2
3.354419533E0,4.460663348E-2,-3.608476743E-2,-4.087831825E-2
3.356928127E0,6.271559745E-2,6.524552125E-3,-3.874785081E-2
3.359436721E0,7.656362653E-2,4.487293959E-2,-3.981308267E-2
3.361945366E0,8.508548886E-2,7.576470077E-2,-4.300878197E-2
3.364438127E0,8.828118443E-2,1.023955271E-1,-4.513924941E-2
3.366946721E0,9.041165560E-2,1.194392517E-1,-4.513924941E-2
3.369455314E0,8.934641629E-2,1.247654185E-1,-3.981308267E-2
3.371963908E0,8.934641629E-2,1.268958896E-1,-4.194355011E-2
3.374472502E0,9.041165560E-2,1.215697154E-1,-4.407401755E-2
3.376981148E0,9.041165560E-2,1.045259908E-1,-3.981308267E-2
3.379489741E0,9.467258304E-2,8.322133124E-2,-3.555215150E-2
3.381998283E0,9.680305421E-2,6.511236727E-2,-3.129122034E-2
3.384506929E0,9.680305421E-2,4.061200842E-2,-2.916075476E-2
3.387015471E0,1.010639817E-1,1.291595027E-2,-2.063889056E-2
3.389524116E0,1.010639817E-1,-1.584534161E-2,-1.531272475E-2
3.392032710E0,9.999874979E-2,-3.928046674E-2,-1.318225823E-2
3.394565210E0,1.021292135E-1,-6.591129303E-2,-1.531272475E-2
3.397073804E0,1.021292135E-1,-9.573781490E-2,-1.744319126E-2
3.399582398E0,1.010639817E-1,-1.181077138E-1,-2.170412242E-2
3.402090991E0,9.147688746E-2,-1.404775977E-1,-2.383458801E-2
3.404599585E0,8.934641629E-2,-1.532603949E-1,-2.276935615E-2
3.407108231E0,8.721595258E-2,-1.681736708E-1,-2.596505545E-2
3.409616825E0,7.762885839E-2,-1.820216924E-1,-3.022598661E-2
3.412125418E0,6.804175675E-2,-1.916087866E-1,-3.235645220E-2
3.414634012E0,6.058513001E-2,-2.033263594E-1,-3.342168778E-2
3.417142606E0,4.993279651E-2,-2.065220475E-1,-3.555215150E-2
3.419651252E0,3.928046674E-2,-2.075872868E-1,-4.620448127E-2
3.422159793E0,3.288906813E-2,-2.107829899E-1,-5.046541616E-2
3.424647398E0,2.436720580E-2,-2.150439173E-1,-5.579157919E-2
3.427155991E0,1.797580719E-2,-2.150439173E-1,-6.005251035E-2
3.429664585E0,1.478010789E-2,-2.214353085E-1,-7.283531129E-2
3.432173179E0,1.691057347E-2,-2.288919389E-1,-8.455286920E-2
3.434681773E0,1.584534161E-2,-2.288919389E-1,-9.413997084E-2
3.437190366E0,1.158440951E-2,-2.182396203E-1,-1.037270650E-1
3.439699012E0,1.584534161E-2,-2.011958808E-1,-1.101184636E-1
3.442207606E0,2.010627277E-2,-1.756303012E-1,-1.186403260E-1
3.444716148E0,1.904104091E-2,-1.298252791E-1,-1.250317246E-1
3.447224793E0,1.904104091E-2,-7.762885839E-2,-1.303578913E-1
3.449733387E0,1.797580719E-2,-1.584534161E-2,-1.378145218E-1
3.452241981E0,2.010627277E-2,4.487293959E-2,-1.474016160E-1
3.454770366E0,2.330197208E-2,9.600412846E-2,-1.537930220E-1
3.457279012E0,2.649767138E-2,1.332872808E-1,-1.537930220E-1
3.459787606E0,3.288906813E-2,1.556571722E-1,-1.505973190E-1
3.462296200E0,3.821523488E-2,1.588528752E-1,-1.484668553E-1
3.464804793E0,4.247616604E-2,1.460700780E-1,-1.420754492E-1
3.467313387E0,4.886756465E-2,1.183740199E-1,-1.410102248E-1
3.469821981E0,5.206326395E-2,8.215609938E-2,-1.346188188E-1
3.472330575E0,5.206326395E-2,5.019910634E-2,-1.218360290E-1
3.474839168E0,5.312849581E-2,2.037258074E-2,-1.111836955E-1
3.477347762E0,4.780233279E-2,-1.264964230E-2,-9.840089828E-2
3.479856408E0,4.886756465E-2,-4.247616604E-2,-8.561810106E-2
3.482364950E0,4.354140162E-2,-7.230269164E-2,-8.135717362E-2
3.484875366E0,4.141093418E-2,-9.467258304E-2,-7.603100687E-2
3.487384012E0,3.928046674E-2,-1.170424819E-1,-7.496577501E-2
3.489892606E0,3.608476743E-2,-1.351514459E-1,-6.857437640E-2
3.492401200E0,3.395430371E-2,-1.479342431E-1,-7.070484012E-2
3.494909793E0,3.075860441E-2,-1.585865617E-1,-6.644391268E-2
3.497418387E0,3.075860441E-2,-1.671084315E-1,-5.579157919E-2
3.499926981E0,2.969337068E-2,-1.713693589E-1,-4.726971686E-2
3.502435575E0,2.649767138E-2,-1.734998226E-1,-3.981308267E-2
3.504944168E0,2.330197208E-2,-1.777607650E-1,-3.129122034E-2
3.507452762E0,2.010627277E-2,-1.713693589E-1,-2.489982173E-2
3.509961408E0,1.797580719E-2,-1.681736708E-1,-2.170412242E-2
3.512470002E0,1.584534161E-2,-1.564560980E-1,-1.637795754E-2
3.514971668E0,1.158440951E-2,-1.426080763E-1,-9.986559860E-3
3.517480262E0,1.264964230E-2,-1.298252791E-1,-5.725627299E-3
3.519988908E0,1.264964230E-2,-1.159772426E-1,-5.725627299E-3
3.522497450E0,1.584534161E-2,-1.042596847E-1,-2.529928461E-3
3.525006096E0,1.904104091E-2,-9.893351793E-2,-6.790860556E-3
3.527514689E0,2.117150649E-2,-9.680305421E-2,-3.595161485E-3
3.530023283E0,2.223674022E-2,-9.680305421E-2,-7.856093347E-3
3.532531877E0,2.436720580E-2,-9.999874979E-2,-8.921326138E-3
3.535040471E0,2.223674022E-2,-1.053249165E-1,-9.986559860E-3
3.537549064E0,2.436720580E-2,-1.181077138E-1,-1.424749196E-2
3.540057710E0,2.330197208E-2,-1.276948154E-1,-1.744319126E-2
3.542566304E0,1.797580719E-2,-1.383471340E-1,-2.063889056E-2
3.545075523E0,1.051917579E-2,-1.479342431E-1,-1.957365684E-2
3.547584116E0,9.320789250E-4,-1.543256342E-1,-1.531272475E-2
3.550092762E0,-4.394086078E-3,-1.575213373E-1,-9.986559860E-3
3.552601356E0,-8.655018173E-3,-1.564560980E-1,-3.595161485E-3
3.555109950E0,-1.611164957E-2,-1.553908736E-1,6.657706108E-4
3.557618543E0,-1.824211515E-2,-1.479342431E-1,6.657706108E-4
3.560127137E0,-2.250304818E-2,-1.362166703E-1,6.657706108E-4
3.562635731E0,-2.463351376E-2,-1.223686412E-1,2.796236658E-3
3.565144325E0,-2.569874749E-2,-1.010639817E-1,2.796236658E-3
3.567652918E0,-2.676397935E-2,-7.123745978E-2,5.991935730E-3
3.570161564E0,-2.676397935E-2,-4.354140162E-2,1.238333434E-2
3.572670158E0,-2.250304818E-2,-1.797580719E-2,1.344856713E-2
3.575186200E0,-2.463351376E-2,7.589785382E-3,1.451379992E-2
3.577694846E0,-2.782921307E-2,3.102491237E-2,1.877473295E-2
3.580203439E0,-2.995967865E-2,5.339480564E-2,1.983996481E-2
3.582712033E0,-2.782921307E-2,7.256899774E-2,1.770949923E-2
3.585220627E0,-3.422060981E-2,8.748225868E-2,2.090519853E-2
3.587729221E0,-2.995967865E-2,1.023955271E-1,2.197043039E-2
3.590237814E0,-3.102491237E-2,1.173087880E-1,2.516612969E-2
3.592746408E0,-3.315537795E-2,1.258306503E-1,2.516612969E-2
3.595255002E0,-3.635107726E-2,1.386134475E-1,2.303566411E-2
3.597763596E0,-2.995967865E-2,1.577876359E-1,2.623136342E-2
3.600272241E0,-3.102491237E-2,1.758965999E-1,3.262276202E-2
3.602780835E0,-2.143781446E-2,1.822880059E-1,3.688369319E-2
3.605289533E0,-1.504641678E-2,1.865489334E-1,3.688369319E-2
3.607798179E0,-1.291595027E-2,1.897446364E-1,3.688369319E-2
3.610306773E0,-8.655018173E-3,1.822880059E-1,3.368799388E-2
3.612815366E0,-8.655018173E-3,1.737661362E-1,3.262276202E-2
3.615323960E0,-7.589785382E-3,1.727008969E-1,3.794892505E-2
3.617832554E0,-8.655018173E-3,1.695052087E-1,4.007939249E-2
3.620341148E0,-2.263620263E-3,1.641790420E-1,4.327509180E-2
3.622849741E0,-1.331541280E-4,1.556571722E-1,4.540555924E-2
3.625358335E0,5.193010904E-3,1.439396143E-1,4.540555924E-2
3.627866929E0,1.691057347E-2,1.247654185E-1,4.220985994E-2
3.630375523E0,1.691057347E-2,9.919982404E-2,3.262276202E-2
3.632884168E0,2.010627277E-2,6.404713541E-2,2.303566411E-2
3.635388439E0,1.478010789E-2,2.782921307E-2,1.131810062E-2
3.637897085E0,1.264964230E-2,-1.051917579E-2,2.796236658E-3
3.640405679E0,8.388710208E-3,-4.247616604E-2,-4.660394508E-3
3.642914221E0,3.062544856E-3,-7.762885839E-2,-1.211702544E-2
3.645422866E0,-7.589785382E-3,-1.063901484E-1,-1.744319126E-2
3.647931460E0,-2.037258074E-2,-1.298252791E-1,-2.170412242E-2
3.650440054E0,-3.422060981E-2,-1.575213373E-1,-2.809552103E-2
3.652948648E0,-4.487293959E-2,-1.809564531E-1,-3.342168778E-2
3.655457241E0,-5.552527308E-2,-1.969349533E-1,-3.022598661E-2
3.657965835E0,-6.404713541E-2,-2.086525112E-1,-3.022598661E-2
3.660474481E0,-6.937330216E-2,-2.161091566E-1,-3.129122034E-2
3.662983075E0,-7.469946891E-2,-2.203700840E-1,-3.022598661E-2
3.665499012E0,-7.256899774E-2,-2.299571782E-1,-3.129122034E-2
3.668007658E0,-7.469946891E-2,-2.427399755E-1,-4.194355011E-2
3.670516252E0,-8.322133124E-2,-2.640446424E-1,-4.940018058E-2
3.673024846E0,-9.067796171E-2,-2.778926790E-1,-4.940018058E-2
3.675533439E0,-1.023955271E-1,-2.906754613E-1,-4.194355011E-2
3.678042033E0,-1.226349548E-1,-3.098496497E-1,-3.981308267E-2
3.680550679E0,-1.439396143E-1,-3.364804685E-1,-3.022598661E-2
3.683059273E0,-1.545919478E-1,-3.631113172E-1,-2.063889056E-2
3.685567814E0,-1.641790420E-1,-3.833507299E-1,-1.105179265E-2
3.688076408E0,-1.663095057E-1,-4.003944695E-1,-4.660394508E-3
3.690585054E0,-1.609833390E-1,-4.057206213E-1,-3.595161485E-3
3.693093596E0,-1.460700780E-1,-3.940030634E-1,-3.595161485E-3
3.695598023E0,-1.258306503E-1,-3.641765416E-1,-7.856093347E-3
3.698106668E0,-1.013302878E-1,-3.247629106E-1,-9.986559860E-3
3.700615262E0,-8.002562821E-2,-2.800231278E-1,-1.318225823E-2
3.703123804E0,-5.232957378E-2,-2.288919389E-1,-1.637795754E-2
3.705632450E0,-3.102491237E-2,-1.852173954E-1,-2.170412242E-2
3.708141043E0,-1.717688330E-2,-1.468690038E-1,-2.170412242E-2
3.710649637E0,-8.655018173E-3,-1.095858440E-1,-2.063889056E-2
3.713158231E0,-1.198387123E-3,-8.188978583E-2,-2.489982173E-2
3.715666825E0,1.997311832E-3,-6.697652489E-2,-2.489982173E-2
3.718175418E0,-1.198387123E-3,-5.738943070E-2,-1.957365684E-2
3.720684064E0,-5.459319334E-3,-5.419373140E-2,-2.063889056E-2
3.723192658E0,-6.524552125E-3,-5.632419512E-2,-1.850842312E-2
3.725701877E0,-1.185071748E-2,-5.951989442E-2,-2.170412242E-2
3.728210523E0,-1.611164957E-2,-6.697652489E-2,-2.596505545E-2
3.730719064E0,-2.356828004E-2,-7.123745978E-2,-2.916075476E-2
3.733227710E0,-2.676397935E-2,-7.336792350E-2,-3.342168778E-2
3.735736304E0,-2.569874749E-2,-7.230269164E-2,-3.981308267E-2
3.738244898E0,-2.569874749E-2,-7.017222792E-2,-4.300878197E-2
3.740753491E0,-2.782921307E-2,-6.804175675E-2,-4.620448127E-2
3.743262137E0,-2.463351376E-2,-6.378082931E-2,-4.620448127E-2
3.745770679E0,-2.356828004E-2,-6.378082931E-2,-5.046541616E-2
3.748279273E0,-2.143781446E-2,-6.271559745E-2,-4.833494872E-2
3.750787918E0,-1.611164957E-2,-6.165036187E-2,-4.726971686E-2
3.753296512E0,-1.504641678E-2,-6.378082931E-2,-4.726971686E-2
3.755804221E0,-1.291595027E-2,-6.591129303E-2,-4.620448127E-2
3.758312866E0,-4.394086078E-3,-6.591129303E-2,-4.620448127E-2
3.760821408E0,4.127778113E-3,-6.484606117E-2,-4.620448127E-2
3.763330054E0,9.453942999E-3,-6.165036187E-2,-4.513924941E-2
3.765838648E0,1.584534161E-2,-6.484606117E-2,-4.407401755E-2
3.768347241E0,2.117150649E-2,-6.378082931E-2,-4.194355011E-2
3.770855835E0,2.543243766E-2,-6.165036187E-2,-4.194355011E-2
3.773364429E0,2.223674022E-2,-6.378082931E-2,-3.661738336E-2
3.775873023E0,2.330197208E-2,-6.697652489E-2,-3.555215150E-2
3.778381616E0,2.010627277E-2,-5.951989442E-2,-3.129122034E-2
3.780890262E0,2.010627277E-2,-5.312849581E-2,-2.383458801E-2
3.783398856E0,1.478010789E-2,-5.419373140E-2,-2.063889056E-2
3.785907554E0,7.323476952E-3,-5.099803209E-2,-1.744319126E-2
3.788416200E0,1.997311832E-3,-4.886756465E-2,-1.211702544E-2
3.790924793E0,-5.459319334E-3,-5.099803209E-2,-9.986559860E-3
3.793433387E0,-7.589785382E-3,-5.206326395E-2,-7.856093347E-3
3.795941981E0,-1.185071748E-2,-5.419373140E-2,-3.595161485E-3
3.798450575E0,-1.504641678E-2,-5.845466256E-2,-2.529928461E-3
3.800959168E0,-1.717688330E-2,-6.591129303E-2,-3.595161485E-3
3.803467762E0,-1.824211515E-2,-7.336792350E-2,-4.660394508E-3
3.805976356E0,-2.463351376E-2,-8.402025700E-2,-3.595161485E-3
3.808484950E0,-2.250304818E-2,-9.467258304E-2,-6.790860556E-3
3.810993596E0,-2.037258074E-2,-1.138467789E-1,-7.856093347E-3
3.813502189E0,-2.250304818E-2,-1.330209672E-1,-1.424749196E-2
3.816016825E0,-1.930734888E-2,-1.532603949E-1,-1.744319126E-2
3.818525471E0,-1.824211515E-2,-1.756303012E-1,-1.957365684E-2
3.821034012E0,-1.504641678E-2,-1.926740259E-1,-2.596505545E-2
3.823542658E0,-9.720250964E-3,-2.118482143E-1,-3.235645220E-2
3.826051252E0,-4.394086078E-3,-2.288919389E-1,-3.768261895E-2
3.828559846E0,-1.198387123E-3,-2.438052148E-1,-3.555215150E-2
3.831068439E0,-5.459319334E-3,-2.576532364E-1,-3.768261895E-2
3.833577033E0,-1.078548469E-2,-2.683055699E-1,-3.981308267E-2
3.836085627E0,-9.720250964E-3,-2.757622004E-1,-4.087831825E-2
3.838594221E0,-1.398118306E-2,-2.789579034E-1,-3.874785081E-2
3.841102866E0,-2.356828004E-2,-2.768274248E-1,-3.874785081E-2
3.843611408E0,-2.889444493E-2,-2.693707943E-1,-3.448691964E-2
3.846101304E0,-3.102491237E-2,-2.555227578E-1,-3.448691964E-2
3.848609898E0,-3.848154470E-2,-2.395442724E-1,-3.342168778E-2
3.851118543E0,-4.380770773E-2,-2.214353085E-1,-3.129122034E-2
3.853627137E0,-4.380770773E-2,-2.022611201E-1,-3.022598661E-2
3.856135731E0,-4.806863889E-2,-1.809564531E-1,-2.703028731E-2
3.858644325E0,-4.700340703E-2,-1.607170254E-1,-2.170412242E-2
3.861152918E0,-4.380770773E-2,-1.383471340E-1,-2.063889056E-2
3.863661512E0,-4.274247587E-2,-1.202381775E-1,-2.170412242E-2
3.866170106E0,-4.061200842E-2,-1.021292135E-1,-1.850842312E-2
3.868678700E0,-4.061200842E-2,-7.869409025E-2,-1.424749196E-2
3.871187293E0,-4.061200842E-2,-6.378082931E-2,-1.318225823E-2
3.873695939E0,-3.954677656E-2,-4.886756465E-2,-1.744319126E-2
3.876222710E0,-4.061200842E-2,-3.501953557E-2,-1.637795754E-2
3.878731356E0,-4.274247587E-2,-2.223674022E-2,-1.850842312E-2
3.881239950E0,-4.913387448E-2,-1.478010789E-2,-1.850842312E-2
3.883748543E0,-5.232957378E-2,-1.158440951E-2,-2.170412242E-2
3.886257137E0,-5.446003750E-2,-9.453942999E-3,-2.170412242E-2
3.888765731E0,-5.978620425E-2,-6.258244161E-3,-2.596505545E-2
3.891274325E0,-6.191666797E-2,-8.388710208E-3,-2.703028731E-2
3.893782918E0,-6.404713541E-2,-9.453942999E-3,-2.703028731E-2
3.896291512E0,-6.191666797E-2,-9.453942999E-3,-2.596505545E-2
3.898800106E0,-6.191666797E-2,-6.258244161E-3,-2.703028731E-2
3.901308700E0,-6.298190355E-2,-1.997311832E-3,-2.383458801E-2
3.903817293E0,-5.872096866E-2,-1.997311832E-3,-2.596505545E-2
3.906328439E0,-5.552527308E-2,-9.320789250E-4,-2.276935615E-2
3.908837085E0,-4.806863889E-2,2.263620263E-3,-1.957365684E-2
3.911345679E0,-4.274247587E-2,5.459319334E-3,-1.957365684E-2
3.913854273E0,-3.848154470E-2,4.394086078E-3,-1.424749196E-2
3.916362866E0,-3.528584540E-2,1.504641678E-2,-4.660394508E-3
3.918871460E0,-3.209014609E-2,3.315537795E-2,7.057168987E-3
3.921380054E0,-2.143781446E-2,4.913387448E-2,1.770949923E-2
3.923888648E0,-1.824211515E-2,6.191666797E-2,2.410089783E-2
3.926397241E0,-1.611164957E-2,6.830807030E-2,2.303566411E-2
3.928905835E0,-9.720250964E-3,7.256899774E-2,2.303566411E-2
3.931414481E0,-4.394086078E-3,7.896039635E-2,2.090519853E-2
3.933923075E0,-3.328853287E-3,8.535179496E-2,1.983996481E-2
3.936433023E0,3.062544856E-3,8.109086752E-2,1.983996481E-2
3.938941668E0,8.388710208E-3,7.682993263E-2,2.090519853E-2
3.941450262E0,1.478010789E-2,7.469946891E-2,2.197043039E-2
3.943958856E0,1.904104091E-2,7.043853402E-2,2.729659714E-2
3.946467450E0,2.436720580E-2,7.043853402E-2,2.836182900E-2
3.948976043E0,2.969337068E-2,6.724283099E-2,3.155753016E-2
3.951484637E0,3.501953557E-2,6.617759913E-2,3.581846133E-2
3.953993231E0,3.501953557E-2,6.617759913E-2,3.368799388E-2
3.956501825E0,3.501953557E-2,6.617759913E-2,3.688369319E-2
3.959010418E0,3.821523488E-2,6.830807030E-2,3.262276202E-2
3.961519012E0,4.034570232E-2,6.298190355E-2,2.836182900E-2
3.964027658E0,4.247616604E-2,5.978620425E-2,2.197043039E-2
3.966538023E0,3.928046674E-2,5.765573680E-2,1.664426550E-2
3.969046668E0,3.608476743E-2,5.339480564E-2,1.451379992E-2
3.971555262E0,3.395430371E-2,4.913387448E-2,1.238333434E-2
3.974063856E0,2.543243766E-2,4.167724028E-2,1.025286783E-2
3.976572450E0,2.010627277E-2,3.954677656E-2,1.131810062E-2
3.979081043E0,2.117150649E-2,3.315537795E-2,1.557903271E-2
3.981589637E0,2.223674022E-2,2.782921307E-2,1.770949923E-2
3.984098231E0,2.010627277E-2,2.782921307E-2,1.238333434E-2
3.986606825E0,2.223674022E-2,2.143781446E-2,1.344856713E-2
3.989115418E0,2.330197208E-2,2.037258074E-2,1.664426550E-2
3.991624064E0,2.862813696E-2,2.250304818E-2,1.770949923E-2
3.994132658E0,3.075860441E-2,2.889444493E-2,1.983996481E-2
3.996635314E0,3.608476743E-2,3.528584540E-2,1.877473295E-2
3.999143960E0,3.395430371E-2,4.380770773E-2,1.983996481E-2
4.001652554E0,4.034570232E-2,4.913387448E-2,2.090519853E-2
4.004161096E0,4.567186534E-2,5.765573680E-2,2.623136342E-2
4.006669741E0,4.886756465E-2,6.830807030E-2,2.623136342E-2
4.009178335E0,5.099803209E-2,8.322133124E-2,3.049229458E-2
4.011686929E0,5.525896326E-2,9.174319357E-2,3.688369319E-2
4.014195523E0,5.738943070E-2,1.066564545E-1,4.114462435E-2
4.016704116E0,6.484606117E-2,1.215697154E-1,4.434032366E-2
4.019212710E0,7.017222792E-2,1.311568171E-1,4.753602296E-2
4.021721304E0,7.549838722E-2,1.418091506E-1,5.073172227E-2
4.024229950E0,7.656362653E-2,1.460700780E-1,5.392742157E-2
4.026744168E0,7.336792350E-2,1.428743750E-1,5.392742157E-2
4.029252762E0,7.443315536E-2,1.343525201E-1,5.073172227E-2
4.031761408E0,7.017222792E-2,1.237001866E-1,4.753602296E-2
4.034270002E0,6.271559745E-2,1.130478531E-1,4.114462435E-2
4.036778596E0,5.206326395E-2,9.919982404E-2,3.368799388E-2
4.039287189E0,4.354140162E-2,9.067796171E-2,2.623136342E-2
4.041795783E0,3.395430371E-2,8.109086752E-2,1.983996481E-2
4.044304377E0,2.223674022E-2,7.576470077E-2,1.344856713E-2
4.046813023E0,1.371487509E-2,7.576470077E-2,1.131810062E-2
4.049321564E0,4.127778113E-3,8.215609938E-2,7.057168987E-3
4.051830210E0,-1.198387123E-3,8.854749799E-2,5.991935730E-3
4.054338804E0,-4.394086078E-3,9.813459218E-2,5.991935730E-3
4.056842085E0,-1.185071748E-2,1.119826213E-1,-3.994623839E-4
4.059350731E0,-1.717688330E-2,1.258306503E-1,-6.790860556E-3
4.061859325E0,-1.291595027E-2,1.375482082E-1,-1.424749196E-2
4.064367918E0,-3.328853287E-3,1.450048387E-1,-2.916075476E-2
4.066876512E0,1.051917579E-2,1.631138027E-1,-4.833494872E-2
4.069385106E0,2.223674022E-2,2.003969699E-1,-6.857437640E-2
4.071893700E0,4.141093418E-2,2.440715134E-1,-9.627043456E-2
4.074402293E0,5.845466256E-2,3.005288541E-1,-1.260969639E-1
4.076910887E0,7.017222792E-2,3.665733039E-1,-1.537930220E-1
4.079419481E0,7.336792350E-2,4.390091598E-1,-1.889457107E-1
4.081928127E0,7.975932211E-2,5.029231310E-1,-2.187722325E-1
4.084436721E0,8.295502514E-2,5.551195741E-1,-2.326202542E-1
4.086951877E0,8.721595258E-2,5.892069936E-1,-2.230331600E-1
4.089460523E0,8.615072072E-2,5.977289081E-1,-2.017285079E-1
4.091969116E0,8.615072072E-2,5.679023266E-1,-1.836195439E-1
4.094477710E0,8.828118443E-2,5.167711973E-1,-1.601844132E-1
4.096986304E0,7.975932211E-2,4.507267177E-1,-1.324883550E-1
4.099494898E0,6.058513001E-2,3.772256374E-1,-1.047922969E-1
4.102003491E0,3.928046674E-2,2.994636297E-1,-7.709623873E-2
4.104512085E0,9.453942999E-3,2.227668613E-1,-4.940018058E-2
4.107020679E0,-2.569874749E-2,1.492657810E-1,-2.703028731E-2
4.109529273E0,-6.298190355E-2,7.043853402E-2,-3.994623839E-4
4.112037918E0,-9.493889660E-2,-1.997311832E-3,1.664426550E-2
4.114546512E0,-1.183740199E-1,-6.804175675E-2,2.942706272E-2
4.117057085E0,-1.354177445E-1,-1.266295761E-1,4.007939249E-2
4.119565731E0,-1.471353173E-1,-1.724345982E-1,4.434032366E-2
4.122074377E0,-1.535267085E-1,-2.065220475E-1,3.794892505E-2
4.124583023E0,-1.492657810E-1,-2.267614752E-1,2.836182900E-2
4.127091668E0,-1.364829838E-1,-2.416747361E-1,2.623136342E-2
4.129600314E0,-1.226349548E-1,-2.427399755E-1,3.368799388E-2
4.132109012E0,-1.023955271E-1,-2.384790480E-1,4.114462435E-2
4.134617658E0,-8.215609938E-2,-2.384790480E-1,4.540555924E-2
4.137126304E0,-5.872096866E-2,-2.246310115E-1,5.073172227E-2
4.139634950E0,-3.848154470E-2,-2.097177505E-1,5.392742157E-2
4.142143596E0,-2.250304818E-2,-1.905435622E-1,5.499265343E-2
4.144652241E0,-1.185071748E-2,-1.649779677E-1,5.605788901E-2
4.147158335E0,-4.394086078E-3,-1.383471340E-1,5.605788901E-2
4.149666981E0,-1.331541280E-4,-1.095858440E-1,5.712312087E-2
4.152175627E0,9.320789250E-4,-8.615072072E-2,5.392742157E-2
4.154684273E0,-1.331541280E-4,-6.484606117E-2,5.286218971E-2
4.157192918E0,-1.198387123E-3,-4.780233279E-2,4.860125855E-2
4.159701564E0,-5.459319334E-3,-2.649767138E-2,4.434032366E-2
4.162210262E0,-8.655018173E-3,-1.478010789E-2,4.966649041E-2
4.164718908E0,-1.078548469E-2,-1.997311832E-3,5.286218971E-2
4.167227554E0,-1.185071748E-2,1.398118306E-2,5.286218971E-2
4.169736200E0,-1.398118306E-2,2.782921307E-2,5.392742157E-2
4.172244846E0,-1.611164957E-2,3.741630912E-2,5.605788901E-2
4.174753491E0,-1.398118306E-2,5.126433820E-2,5.179695413E-2
4.177262971E0,-8.655018173E-3,6.298190355E-2,4.966649041E-2
4.179771616E0,-7.589785382E-3,6.830807030E-2,4.860125855E-2
4.182280262E0,-4.394086078E-3,7.363422960E-2,4.220985994E-2
4.184788908E0,-2.263620263E-3,7.576470077E-2,3.901416063E-2
4.187297554E0,-1.331541280E-4,7.789516449E-2,3.688369319E-2
4.189806200E0,1.997311832E-3,7.896039635E-2,3.368799388E-2
4.192314898E0,-1.198387123E-3,8.215609938E-2,3.262276202E-2
4.194823543E0,-1.198387123E-3,8.109086752E-2,3.049229458E-2
4.197332189E0,-1.198387123E-3,8.215609938E-2,2.942706272E-2
4.199840835E0,-3.328853287E-3,8.215609938E-2,2.516612969E-2
4.202349481E0,-6.524552125E-3,8.428656310E-2,2.516612969E-2
4.204858127E0,-5.459319334E-3,8.961272985E-2,2.623136342E-2
4.207368908E0,-7.589785382E-3,8.961272985E-2,1.983996481E-2
4.209877554E0,-7.589785382E-3,9.280842543E-2,1.983996481E-2
4.212386200E0,-1.078548469E-2,9.706936032E-2,1.877473295E-2
4.214894846E0,-1.078548469E-2,1.034607589E-1,1.770949923E-2
4.217403491E0,-9.720250964E-3,1.109173894E-1,1.983996481E-2
4.219912137E0,-9.720250964E-3,1.173087880E-1,1.983996481E-2
4.222420783E0,-8.655018173E-3,1.322220564E-1,1.877473295E-2
4.224929481E0,-8.655018173E-3,1.396786869E-1,2.090519853E-2
4.227438127E0,-3.328853287E-3,1.471353173E-1,2.197043039E-2
4.229946773E0,1.997311832E-3,1.609833390E-1,2.090519853E-2
4.232455418E0,4.127778113E-3,1.716356725E-1,2.516612969E-2
4.234964064E0,8.388710208E-3,1.812227666E-1,2.729659714E-2
4.237470471E0,9.453942999E-3,1.897446364E-1,2.836182900E-2
4.239979116E0,1.371487509E-2,1.982664913E-1,2.836182900E-2
4.242487762E0,1.051917579E-2,2.046578974E-1,3.049229458E-2
4.244996408E0,1.478010789E-2,2.067883611E-1,3.155753016E-2
4.247505054E0,1.371487509E-2,2.067883611E-1,2.942706272E-2
4.250013700E0,8.388710208E-3,2.046578974E-1,2.729659714E-2
4.252522398E0,5.193010904E-3,2.014621943E-1,2.729659714E-2
4.255031043E0,9.320789250E-4,1.940055639E-1,2.942706272E-2
4.257539689E0,1.997311832E-3,1.844184697E-1,2.942706272E-2
4.260048335E0,-3.328853287E-3,1.801575422E-1,2.623136342E-2
4.262556981E0,-5.459319334E-3,1.684399694E-1,2.836182900E-2
4.265065627E0,-1.078548469E-2,1.599181145E-1,2.729659714E-2
4.267575314E0,-1.291595027E-2,1.492657810E-1,2.623136342E-2
4.270083960E0,-1.078548469E-2,1.386134475E-1,2.729659714E-2
4.272592606E0,-1.185071748E-2,1.300915778E-1,2.623136342E-2
4.275101252E0,-1.291595027E-2,1.237001866E-1,2.410089783E-2
4.277609898E0,-1.504641678E-2,1.162435561E-1,2.303566411E-2
4.280118543E0,-1.717688330E-2,1.098521575E-1,2.410089783E-2
4.282627189E0,-1.398118306E-2,1.023955271E-1,2.197043039E-2
4.285135887E0,-1.078548469E-2,9.813459218E-2,2.303566411E-2
4.287644533E0,-1.078548469E-2,9.493889660E-2,2.197043039E-2
4.290153179E0,-1.185071748E-2,9.067796171E-2,1.664426550E-2
4.292661825E0,-1.185071748E-2,8.854749799E-2,1.451379992E-2
4.295170471E0,-9.720250964E-3,9.067796171E-2,1.025286783E-2
4.297677814E0,-8.655018173E-3,9.174319357E-2,9.187635034E-3
4.300186460E0,-1.078548469E-2,8.854749799E-2,8.122402243E-3
4.302695106E0,-8.655018173E-3,8.748225868E-2,3.861469682E-3
4.305203752E0,-9.720250964E-3,8.109086752E-2,1.731003635E-3
4.307712398E0,-1.185071748E-2,8.322133124E-2,6.657706108E-4
4.310221043E0,-1.078548469E-2,7.896039635E-2,-1.464695437E-3
4.312729741E0,-5.459319334E-3,7.789516449E-2,-3.595161485E-3
4.315238387E0,-5.459319334E-3,7.789516449E-2,-6.790860556E-3
4.317747033E0,-8.655018173E-3,7.256899774E-2,-9.986559860E-3
4.320255679E0,-1.078548469E-2,7.576470077E-2,-9.986559860E-3
4.322764325E0,-8.655018173E-3,7.363422960E-2,-1.105179265E-2
4.325272971E0,-8.655018173E-3,6.937330216E-2,-8.921326138E-3
4.327782241E0,-9.720250964E-3,6.937330216E-2,-1.424749196E-2
4.330290835E0,-8.655018173E-3,7.150376588E-2,-1.318225823E-2
4.332799533E0,-7.589785382E-3,7.256899774E-2,-1.211702544E-2
4.335308179E0,-7.589785382E-3,7.363422960E-2,-9.986559860E-3
4.337816825E0,-1.078548469E-2,7.363422960E-2,-1.211702544E-2
4.340325471E0,-1.185071748E-2,7.363422960E-2,-1.105179265E-2
4.342834168E0,-1.291595027E-2,7.789516449E-2,-8.921326138E-3
4.345342814E0,-1.611164957E-2,8.322133124E-2,-7.856093347E-3
4.347851460E0,-1.504641678E-2,8.535179496E-2,-4.660394508E-3
4.350360106E0,-1.611164957E-2,9.067796171E-2,-2.529928461E-3
4.352868752E0,-1.824211515E-2,9.280842543E-2,-3.595161485E-3
4.355377398E0,-2.037258074E-2,9.600412846E-2,6.657706108E-4
4.357882502E0,-2.250304818E-2,1.045259908E-1,3.861469682E-3
4.360391148E0,-2.356828004E-2,1.119826213E-1,5.991935730E-3
4.362899793E0,-2.250304818E-2,1.119826213E-1,5.991935730E-3
4.365408439E0,-2.143781446E-2,1.183740199E-1,1.344856713E-2
4.367917085E0,-2.356828004E-2,1.247654185E-1,1.664426550E-2
4.370425731E0,-2.356828004E-2,1.311568171E-1,1.664426550E-2
4.372934429E0,-2.143781446E-2,1.375482082E-1,1.770949923E-2
4.375443075E0,-1.930734888E-2,1.386134475E-1,1.983996481E-2
4.377951721E0,-1.504641678E-2,1.428743750E-1,1.983996481E-2
4.380460366E0,-1.824211515E-2,1.482005417E-1,2.410089783E-2
4.382969012E0,-1.717688330E-2,1.492657810E-1,2.623136342E-2
4.385477658E0,-1.291595027E-2,1.513962448E-1,2.623136342E-2
4.387989377E0,-1.291595027E-2,1.513962448E-1,2.623136342E-2
4.390498023E0,-1.398118306E-2,1.503310055E-1,2.623136342E-2
4.393006668E0,-1.291595027E-2,1.535267085E-1,2.516612969E-2
4.395515314E0,-1.398118306E-2,1.535267085E-1,2.303566411E-2
4.398023960E0,-1.611164957E-2,1.524614692E-1,2.197043039E-2
4.400532606E0,-1.185071748E-2,1.535267085E-1,2.090519853E-2
4.403041252E0,-1.611164957E-2,1.535267085E-1,2.197043039E-2
4.405549950E0,-1.504641678E-2,1.503310055E-1,2.090519853E-2
4.408058596E0,-1.611164957E-2,1.513962448E-1,1.664426550E-2
4.410567241E0,-1.824211515E-2,1.513962448E-1,1.557903271E-2
4.413075887E0,-2.037258074E-2,1.513962448E-1,1.770949923E-2
4.415584533E0,-1.930734888E-2,1.524614692E-1,1.557903271E-2
4.418094064E0,-2.037258074E-2,1.524614692E-1,1.131810062E-2
4.420602710E0,-2.037258074E-2,1.524614692E-1,9.187635034E-3
4.423111356E0,-2.676397935E-2,1.471353173E-1,1.131810062E-2
4.425620002E0,-2.676397935E-2,1.482005417E-1,7.057168987E-3
4.428128648E0,-2.250304818E-2,1.471353173E-1,2.796236658E-3
4.430637293E0,-1.930734888E-2,1.450048387E-1,2.796236658E-3
4.433145939E0,-2.143781446E-2,1.450048387E-1,2.796236658E-3
4.435654637E0,-1.824211515E-2,1.407439113E-1,1.731003635E-3
4.438163283E0,-1.504641678E-2,1.386134475E-1,1.731003635E-3
4.440671929E0,-1.398118306E-2,1.375482082E-1,-1.464695437E-3
4.443180575E0,-1.185071748E-2,1.354177445E-1,-3.994623839E-4
4.445689221E0,-3.328853287E-3,1.322220564E-1,6.657706108E-4
4.448185939E0,-2.263620263E-3,1.311568171E-1,6.657706108E-4
4.450694585E0,-1.198387123E-3,1.279611140E-1,-1.464695437E-3
4.453203231E0,9.320789250E-4,1.247654185E-1,-2.529928461E-3
4.455711877E0,6.258244161E-3,1.247654185E-1,-1.464695437E-3
4.458220575E0,6.258244161E-3,1.237001866E-1,-1.464695437E-3
4.460729168E0,8.388710208E-3,1.183740199E-1,-2.529928461E-3
4.463237866E0,8.388710208E-3,1.162435561E-1,-1.464695437E-3
4.465746512E0,1.158440951E-2,1.130478531E-1,-1.464695437E-3
4.468255158E0,1.478010789E-2,1.034607589E-1,1.731003635E-3
4.470763856E0,1.158440951E-2,9.919982404E-2,1.731003635E-3
4.473272450E0,1.371487509E-2,9.387365729E-2,-3.994623839E-4
4.475781096E0,1.691057347E-2,8.748225868E-2,-3.595161485E-3
4.478298439E0,1.478010789E-2,8.322133124E-2,-5.725627299E-3
4.480807033E0,1.158440951E-2,7.896039635E-2,-5.725627299E-3
4.483315731E0,8.388710208E-3,7.469946891E-2,-6.790860556E-3
4.485824377E0,8.388710208E-3,6.724283099E-2,-9.986559860E-3
4.488333023E0,5.193010904E-3,5.978620425E-2,-1.211702544E-2
4.490841668E0,3.062544856E-3,5.552527308E-2,-1.211702544E-2
4.493350366E0,-1.331541280E-4,4.913387448E-2,-1.105179265E-2
4.495858960E0,-1.198387123E-3,4.167724028E-2,-1.211702544E-2
4.498367658E0,-3.328853287E-3,3.848154470E-2,-1.424749196E-2
4.500876304E0,-3.328853287E-3,3.422060981E-2,-1.424749196E-2
4.503384950E0,-5.459319334E-3,2.995967865E-2,-1.744319126E-2
4.505893596E0,-4.394086078E-3,2.569874749E-2,-1.637795754E-2
4.508405627E0,-2.263620263E-3,2.463351376E-2,-1.850842312E-2
4.510914221E0,-4.394086078E-3,2.356828004E-2,-1.957365684E-2
4.513422918E0,-4.394086078E-3,2.356828004E-2,-1.637795754E-2
4.515931564E0,-2.263620263E-3,2.569874749E-2,-1.850842312E-2
4.518440210E0,-1.198387123E-3,2.356828004E-2,-1.531272475E-2
4.520948908E0,-1.198387123E-3,2.889444493E-2,-1.531272475E-2
4.523457502E0,-1.198387123E-3,3.209014609E-2,-1.531272475E-2
4.525966148E0,-2.263620263E-3,3.954677656E-2,-1.424749196E-2
4.528474846E0,-3.328853287E-3,4.593817517E-2,-1.211702544E-2
4.530983491E0,1.997311832E-3,5.232957378E-2,-9.986559860E-3
4.533492137E0,1.997311832E-3,5.446003750E-2,-9.986559860E-3
4.536000783E0,6.258244161E-3,6.191666797E-2,-1.105179265E-2
4.538509481E0,4.127778113E-3,6.724283099E-2,-7.856093347E-3
4.541018127E0,1.997311832E-3,7.469946891E-2,-8.921326138E-3
4.543526773E0,1.997311832E-3,8.109086752E-2,-5.725627299E-3
4.546035418E0,3.062544856E-3,8.215609938E-2,-3.595161485E-3
4.548544064E0,5.193010904E-3,8.535179496E-2,-2.529928461E-3
4.551052710E0,1.997311832E-3,8.854749799E-2,-3.994623839E-4
4.553561408E0,1.997311832E-3,9.174319357E-2,-3.994623839E-4
4.556070054E0,1.997311832E-3,9.174319357E-2,6.657706108E-4
4.558578700E0,5.193010904E-3,8.961272985E-2,1.731003635E-3
4.561087346E0,4.127778113E-3,9.067796171E-2,-3.994623839E-4
4.563595991E0,3.062544856E-3,8.854749799E-2,-3.994623839E-4
4.566104637E0,1.997311832E-3,8.961272985E-2,1.731003635E-3
4.568614377E0,1.997311832E-3,8.854749799E-2,2.796236658E-3
4.571123023E0,4.127778113E-3,8.535179496E-2,1.731003635E-3
4.573631668E0,9.320789250E-4,8.109086752E-2,-3.994623839E-4
4.576140314E0,9.320789250E-4,7.789516449E-2,2.796236658E-3
4.578648960E0,1.997311832E-3,7.469946891E-2,-2.529928461E-3
4.581157658E0,-1.331541280E-4,6.937330216E-2,-6.790860556E-3
4.583666252E0,9.320789250E-4,6.724283099E-2,-6.790860556E-3
4.586174950E0,-1.331541280E-4,6.191666797E-2,-6.790860556E-3
4.588683596E0,-2.263620263E-3,5.552527308E-2,-7.856093347E-3
4.591192241E0,-2.263620263E-3,5.446003750E-2,-7.856093347E-3
4.593700887E0,-4.394086078E-3,5.019910634E-2,-1.105179265E-2
4.596209533E0,-3.328853287E-3,4.380770773E-2,-1.424749196E-2
4.598717137E0,-1.198387123E-3,3.635107726E-2,-1.318225823E-2
4.601225731E0,9.320789250E-4,3.528584540E-2,-1.424749196E-2
4.603734429E0,-1.198387123E-3,2.995967865E-2,-1.637795754E-2
4.606243075E0,1.997311832E-3,2.782921307E-2,-1.744319126E-2
4.608751721E0,-1.198387123E-3,2.569874749E-2,-1.637795754E-2
4.611260366E0,-1.198387123E-3,2.463351376E-2,-2.063889056E-2
4.613769064E0,9.320789250E-4,2.037258074E-2,-2.063889056E-2
4.616277710E0,5.193010904E-3,1.717688330E-2,-2.170412242E-2
4.618786356E0,8.388710208E-3,1.717688330E-2,-2.276935615E-2
4.621295002E0,5.193010904E-3,1.930734888E-2,-1.850842312E-2
4.623803648E0,1.051917579E-2,2.143781446E-2,-1.850842312E-2
4.626312293E0,1.584534161E-2,1.824211515E-2,-1.850842312E-2
4.628817658E0,1.691057347E-2,1.717688330E-2,-2.276935615E-2
4.631326304E0,1.584534161E-2,1.824211515E-2,-2.276935615E-2
4.633834950E0,1.371487509E-2,1.930734888E-2,-2.170412242E-2
4.636343596E0,1.584534161E-2,1.930734888E-2,-2.170412242E-2
4.638852241E0,1.797580719E-2,2.250304818E-2,-1.957365684E-2
4.641360887E0,1.584534161E-2,2.463351376E-2,-2.063889056E-2
4.643869585E0,1.904104091E-2,2.676397935E-2,-2.170412242E-2
4.646378231E0,1.797580719E-2,2.889444493E-2,-2.170412242E-2
4.648886877E0,2.010627277E-2,2.995967865E-2,-2.063889056E-2
4.651395523E0,2.117150649E-2,2.889444493E-2,-1.957365684E-2
4.653904168E0,2.223674022E-2,2.995967865E-2,-1.850842312E-2
4.656412814E0,1.584534161E-2,3.315537795E-2,-2.063889056E-2
4.658926877E0,1.691057347E-2,3.209014609E-2,-1.957365684E-2
4.661435471E0,1.691057347E-2,3.315537795E-2,-2.063889056E-2
4.663944168E0,1.797580719E-2,3.528584540E-2,-2.063889056E-2
4.666452814E0,2.010627277E-2,3.315537795E-2,-1.850842312E-2
4.668961460E0,2.223674022E-2,3.422060981E-2,-1.744319126E-2
4.671470106E0,1.691057347E-2,3.635107726E-2,-1.637795754E-2
4.673978804E0,1.584534161E-2,3.635107726E-2,-1.957365684E-2
4.676487450E0,1.691057347E-2,3.954677656E-2,-2.170412242E-2
4.678996096E0,1.584534161E-2,3.741630912E-2,-2.063889056E-2
4.681504741E0,1.584534161E-2,3.635107726E-2,-1.957365684E-2
4.684013387E0,1.264964230E-2,3.848154470E-2,-2.170412242E-2
4.686522033E0,1.371487509E-2,3.954677656E-2,-1.957365684E-2
4.689028387E0,1.371487509E-2,3.954677656E-2,-2.170412242E-2
4.691537033E0,1.371487509E-2,4.167724028E-2,-2.703028731E-2
4.694045679E0,1.158440951E-2,3.848154470E-2,-2.596505545E-2
4.696554325E0,8.388710208E-3,4.061200842E-2,-2.489982173E-2
4.699062971E0,1.051917579E-2,4.167724028E-2,-2.596505545E-2
4.701571616E0,8.388710208E-3,3.848154470E-2,-2.809552103E-2
4.704080314E0,1.051917579E-2,3.635107726E-2,-2.916075476E-2
4.706588960E0,1.158440951E-2,3.954677656E-2,-2.596505545E-2
4.709097606E0,1.264964230E-2,3.848154470E-2,-2.703028731E-2
4.711606252E0,8.388710208E-3,3.848154470E-2,-3.022598661E-2
4.714114898E0,1.158440951E-2,4.061200842E-2,-3.235645220E-2
4.716623543E0,1.051917579E-2,3.954677656E-2,-3.022598661E-2
4.719130471E0,8.388710208E-3,3.954677656E-2,-3.129122034E-2
4.721639064E0,9.453942999E-3,3.954677656E-2,-3.342168778E-2
4.724147762E0,8.388710208E-3,4.274247587E-2,-3.235645220E-2
4.726656408E0,5.193010904E-3,4.167724028E-2,-2.916075476E-2
4.729165054E0,3.062544856E-3,3.954677656E-2,-3.129122034E-2
4.731673700E0,3.062544856E-3,3.635107726E-2,-3.129122034E-2
4.734182346E0,6.258244161E-3,3.635107726E-2,-3.342168778E-2
4.736691043E0,6.258244161E-3,3.528584540E-2,-3.129122034E-2
4.739199689E0,9.320789250E-4,3.315537795E-2,-3.342168778E-2
4.741708335E0,9.320789250E-4,3.315537795E-2,-3.235645220E-2
4.744216981E0,-1.198387123E-3,3.209014609E-2,-3.129122034E-2
4.746725627E0,-1.198387123E-3,2.782921307E-2,-3.022598661E-2
4.749235054E0,-2.263620263E-3,2.676397935E-2,-2.916075476E-2
4.751743700E0,-1.198387123E-3,2.356828004E-2,-3.342168778E-2
4.754252346E0,-2.263620263E-3,2.356828004E-2,-3.555215150E-2
4.756760991E0,-3.328853287E-3,2.037258074E-2,-3.235645220E-2
4.759269637E0,-1.198387123E-3,1.611164957E-2,-3.022598661E-2
4.761778283E0,-5.459319334E-3,1.078548469E-2,-3.022598661E-2
4.764286981E0,-5.459319334E-3,8.655018173E-3,-3.129122034E-2
4.766795627E0,-5.459319334E-3,7.589785382E-3,-3.235645220E-2
4.769304273E0,-5.459319334E-3,2.263620263E-3,-3.129122034E-2
4.771812918E0,-3.328853287E-3,1.331541280E-4,-3.129122034E-2
4.774321564E0,-3.328853287E-3,1.331541280E-4,-2.596505545E-2
4.776830210E0,-5.459319334E-3,-9.320789250E-4,-3.022598661E-2
4.779339898E0,-5.459319334E-3,-1.997311832E-3,-3.129122034E-2
4.781848491E0,-8.655018173E-3,-6.258244161E-3,-3.129122034E-2
4.784357189E0,-5.459319334E-3,-5.193010904E-3,-3.022598661E-2
4.786865835E0,-9.720250964E-3,-5.193010904E-3,-3.022598661E-2
4.789374481E0,-1.078548469E-2,-6.258244161E-3,-2.703028731E-2
4.791883127E0,-8.655018173E-3,-5.193010904E-3,-2.703028731E-2
4.794391825E0,-6.524552125E-3,-6.258244161E-3,-2.703028731E-2
4.796900418E0,-1.185071748E-2,-6.258244161E-3,-2.596505545E-2
4.799409116E0,-1.185071748E-2,-5.193010904E-3,-2.703028731E-2
4.801917762E0,-9.720250964E-3,-5.193010904E-3,-2.383458801E-2
4.804426408E0,-8.655018173E-3,-1.997311832E-3,-2.276935615E-2
4.806935054E0,-9.720250964E-3,-9.320789250E-4,-2.383458801E-2
4.809440887E0,-1.291595027E-2,2.263620263E-3,-2.383458801E-2
4.811949533E0,-1.291595027E-2,1.198387123E-3,-2.809552103E-2
4.814458179E0,-9.720250964E-3,1.198387123E-3,-2.383458801E-2
4.816966825E0,-1.291595027E-2,3.328853287E-3,-2.383458801E-2
4.819475471E0,-1.185071748E-2,1.198387123E-3,-2.489982173E-2
4.821984116E0,-1.717688330E-2,-1.997311832E-3,-2.703028731E-2
4.824492814E0,-1.824211515E-2,-3.062544856E-3,-2.596505545E-2
4.827001460E0,-1.930734888E-2,-4.127778113E-3,-2.703028731E-2
4.829510106E0,-1.717688330E-2,-9.320789250E-4,-2.916075476E-2
4.832018752E0,-2.463351376E-2,-3.062544856E-3,-3.129122034E-2
4.834527398E0,-2.569874749E-2,-6.258244161E-3,-2.916075476E-2
4.837036043E0,-2.250304818E-2,-6.258244161E-3,-2.916075476E-2
4.839547606E0,-2.250304818E-2,-6.258244161E-3,-2.809552103E-2
4.842056200E0,-2.250304818E-2,-8.388710208E-3,-2.809552103E-2
4.844564898E0,-2.356828004E-2,-8.388710208E-3,-2.809552103E-2
4.847073543E0,-2.250304818E-2,-1.158440951E-2,-2.916075476E-2
4.849582189E0,-2.463351376E-2,-1.264964230E-2,-3.022598661E-2
4.852090835E0,-2.676397935E-2,-1.371487509E-2,-2.809552103E-2
4.854599533E0,-2.463351376E-2,-1.584534161E-2,-3.022598661E-2
4.857108179E0,-2.250304818E-2,-1.797580719E-2,-2.916075476E-2
4.859616825E0,-2.356828004E-2,-1.478010789E-2,-3.022598661E-2
4.862125471E0,-2.463351376E-2,-1.584534161E-2,-3.129122034E-2
4.864634116E0,-2.250304818E-2,-1.691057347E-2,-3.129122034E-2
4.867142762E0,-2.250304818E-2,-1.797580719E-2,-2.703028731E-2
4.869652762E0,-2.356828004E-2,-2.010627277E-2,-2.809552103E-2
4.872161408E0,-2.569874749E-2,-2.436720580E-2,-3.022598661E-2
4.874670054E0,-2.569874749E-2,-2.223674022E-2,-3.022598661E-2
4.877178700E0,-2.356828004E-2,-2.117150649E-2,-2.916075476E-2
4.879687346E0,-2.569874749E-2,-2.436720580E-2,-2.809552103E-2
4.882196043E0,-2.676397935E-2,-2.543243766E-2,-3.022598661E-2
4.884704689E0,-2.463351376E-2,-2.649767138E-2,-3.129122034E-2
4.887213335E0,-2.250304818E-2,-3.075860441E-2,-3.129122034E-2
4.889721981E0,-2.569874749E-2,-3.501953557E-2,-2.809552103E-2
4.892230627E0,-2.463351376E-2,-3.928046674E-2,-2.703028731E-2
4.894739273E0,-2.250304818E-2,-3.928046674E-2,-2.596505545E-2
4.897247918E0,-2.463351376E-2,-4.354140162E-2,-2.383458801E-2
4.899755783E0,-2.250304818E-2,-4.460663348E-2,-2.703028731E-2
4.902264429E0,-2.037258074E-2,-4.673709720E-2,-2.809552103E-2
4.904773075E0,-1.717688330E-2,-4.567186534E-2,-3.022598661E-2
4.907281721E0,-2.037258074E-2,-4.780233279E-2,-3.235645220E-2
4.909790366E0,-1.824211515E-2,-4.780233279E-2,-2.916075476E-2
4.912299012E0,-1.717688330E-2,-4.460663348E-2,-3.022598661E-2
4.914807710E0,-1.611164957E-2,-4.354140162E-2,-3.235645220E-2
4.917316356E0,-1.611164957E-2,-4.673709720E-2,-3.022598661E-2
4.919825002E0,-1.611164957E-2,-4.780233279E-2,-3.022598661E-2
4.922333648E0,-1.611164957E-2,-4.993279651E-2,-3.448691964E-2
4.924842293E0,-1.611164957E-2,-4.993279651E-2,-3.235645220E-2
4.927350939E0,-1.930734888E-2,-5.099803209E-2,-2.916075476E-2
4.929855679E0,-1.824211515E-2,-5.632419512E-2,-3.022598661E-2
4.932364325E0,-1.291595027E-2,-5.845466256E-2,-2.596505545E-2
4.934872971E0,-1.611164957E-2,-5.951989442E-2,-2.489982173E-2
4.937381616E0,-1.398118306E-2,-6.165036187E-2,-2.489982173E-2
4.939890262E0,-1.185071748E-2,-6.697652489E-2,-2.383458801E-2
4.942398908E0,-1.185071748E-2,-7.017222792E-2,-2.489982173E-2
4.944907606E0,-1.398118306E-2,-7.336792350E-2,-2.383458801E-2
4.947416200E0,-1.291595027E-2,-7.123745978E-2,-2.276935615E-2
4.949924898E0,-1.504641678E-2,-7.656362653E-2,-2.063889056E-2
4.952433543E0,-1.185071748E-2,-8.295502514E-2,-1.957365684E-2
4.954942189E0,-7.589785382E-3,-8.295502514E-2,-2.170412242E-2
4.957450835E0,-9.720250964E-3,-8.615072072E-2,-1.850842312E-2
4.959959325E0,-1.078548469E-2,-9.147688746E-2,-1.957365684E-2
4.962467918E0,-1.291595027E-2,-8.934641629E-2,-1.957365684E-2
4.964976616E0,-1.185071748E-2,-8.934641629E-2,-1.957365684E-2
4.967485262E0,-9.720250964E-3,-9.254211932E-2,-2.063889056E-2
4.969993908E0,-7.589785382E-3,-9.360735118E-2,-1.957365684E-2
4.972502554E0,-7.589785382E-3,-9.147688746E-2,-1.850842312E-2
4.975011252E0,-6.524552125E-3,-8.615072072E-2,-2.170412242E-2
4.977519898E0,-5.459319334E-3,-8.402025700E-2,-2.276935615E-2
4.980028543E0,-4.394086078E-3,-7.975932211E-2,-2.170412242E-2
4.982537189E0,9.320789250E-4,-7.443315536E-2,-2.170412242E-2
4.985045835E0,-1.198387123E-3,-7.230269164E-2,-2.170412242E-2
4.987554481E0,-2.263620263E-3,-6.910699606E-2,-2.170412242E-2
4.990066356E0,-2.263620263E-3,-6.271559745E-2,-2.170412242E-2
4.992575002E0,-1.331541280E-4,-5.951989442E-2,-2.170412242E-2
4.995083648E0,-1.331541280E-4,-5.099803209E-2,-2.276935615E-2
4.997592293E0,9.320789250E-4,-4.886756465E-2,-2.063889056E-2
5.000100939E0,4.127778113E-3,-4.354140162E-2,-1.957365684E-2
5.002609585E0,3.062544856E-3,-4.354140162E-2,-1.957365684E-2
5.005118283E0,4.127778113E-3,-3.928046674E-2,-1.531272475E-2
5.007626929E0,5.193010904E-3,-3.608476743E-2,-1.850842312E-2
5.010135575E0,6.258244161E-3,-3.182383627E-2,-1.850842312E-2
5.012644221E0,5.193010904E-3,-2.969337068E-2,-2.063889056E-2
5.015152866E0,5.193010904E-3,-2.756290510E-2,-1.744319126E-2
5.017661512E0,4.127778113E-3,-2.862813696E-2,-1.850842312E-2
5.020171929E0,3.062544856E-3,-2.756290510E-2,-1.850842312E-2
5.022680523E0,4.127778113E-3,-2.330197208E-2,-1.531272475E-2
5.025189221E0,5.193010904E-3,-2.436720580E-2,-1.318225823E-2
5.027697866E0,3.062544856E-3,-2.330197208E-2,-1.424749196E-2
5.030206512E0,9.320789250E-4,-2.543243766E-2,-1.637795754E-2
5.032715158E0,1.997311832E-3,-2.543243766E-2,-1.318225823E-2
5.035223856E0,-1.198387123E-3,-2.543243766E-2,-1.637795754E-2
5.037732502E0,-2.263620263E-3,-3.075860441E-2,-1.637795754E-2
5.040241148E0,-1.331541280E-4,-3.395430371E-2,-1.744319126E-2
5.042749793E0,1.997311832E-3,-3.395430371E-2,-1.850842312E-2
5.045258439E0,-2.263620263E-3,-3.395430371E-2,-2.063889056E-2
5.047767085E0,-4.394086078E-3,-3.501953557E-2,-2.063889056E-2
5.050273648E0,-1.198387123E-3,-3.395430371E-2,-2.170412242E-2
5.052782293E0,-2.263620263E-3,-3.182383627E-2,-2.170412242E-2
