"Time (s)","Gyroscope x (rad/s)","Gyroscope y (rad/s)","Gyroscope z (rad/s)"
9.546792100E-2,2.887499928E-1,-1.545500010E-1,-2.523125112E-1
9.745775800E-2,2.813250124E-1,-1.619749963E-1,-2.597374916E-1
9.944768100E-2,2.813250124E-1,-1.758625060E-1,-2.628999949E-1
1.014375280E-1,2.813250124E-1,-1.801249981E-1,-2.639999986E-1
1.034276030E-1,2.844874859E-1,-1.832875013E-1,-2.682625055E-1
1.054174550E-1,2.887499928E-1,-1.843875051E-1,-2.660624981E-1
1.074073010E-1,2.941125035E-1,-1.875499934E-1,-2.682625055E-1
1.093971470E-1,2.983750105E-1,-1.896124929E-1,-2.714250088E-1
1.113870680E-1,3.057999909E-1,-1.949750036E-1,-2.703250051E-1
1.133771450E-1,3.133625090E-1,-1.938749999E-1,-2.660624981E-1
1.153669930E-1,3.154250085E-1,-1.992374957E-1,-2.671625018E-1
1.173568540E-1,3.207874894E-1,-2.035000026E-1,-2.703250051E-1
1.193467750E-1,3.282124996E-1,-2.120250016E-1,-2.671625018E-1
1.213366240E-1,3.207874894E-1,-2.194499969E-1,-2.756874859E-1
1.233264700E-1,3.282124996E-1,-2.237125039E-1,-2.788499892E-1
1.253165450E-1,3.271124959E-1,-2.184875011E-1,-2.842124999E-1
1.273063930E-1,3.261500001E-1,-2.173874974E-1,-2.873750031E-1
1.292963280E-1,3.282124996E-1,-2.099625021E-1,-2.906749845E-1
1.312861760E-1,3.293125033E-1,-2.066625059E-1,-2.958999872E-1
1.332762510E-1,3.293125033E-1,-1.981374919E-1,-3.066250086E-1
1.352660990E-1,3.313750029E-1,-1.918125004E-1,-3.119874895E-1
1.372560200E-1,3.335750103E-1,-1.875499934E-1,-3.162499964E-1
1.392457920E-1,3.346749842E-1,-1.853500009E-1,-3.236750066E-1
1.412357130E-1,3.367374837E-1,-1.918125004E-1,-3.310999870E-1
1.432257900E-1,3.398999870E-1,-1.907124966E-1,-3.321999907E-1
1.452156380E-1,3.484250009E-1,-1.875499934E-1,-3.375625014E-1
1.472054840E-1,3.548874855E-1,-1.821874976E-1,-3.427875042E-1
1.491954050E-1,3.645125031E-1,-1.843875051E-1,-3.385249972E-1
1.511852530E-1,3.847250044E-1,-2.472250015E-1,-3.375625014E-1
1.531753130E-1,3.953124881E-1,-2.589125037E-1,-3.375625014E-1
1.551651610E-1,3.984749913E-1,-2.461249977E-1,-3.364624977E-1
1.571550070E-1,4.038375020E-1,-2.162874937E-1,-3.321999907E-1
1.591449280E-1,4.102999866E-1,-1.896124929E-1,-3.342624903E-1
1.611347770E-1,4.166249931E-1,-1.725624949E-1,-3.342624903E-1
1.631248510E-1,4.230875075E-1,-1.597750038E-1,-3.353624940E-1
1.651147100E-1,4.347749949E-1,-1.619749963E-1,-3.299999833E-1
1.671046310E-1,4.444000125E-1,-1.810874939E-1,-3.279374838E-1
1.690944790E-1,4.549874961E-1,-1.981374919E-1,-3.257375062E-1
1.710845540E-1,4.709374905E-1,-2.173874974E-1,-3.279374838E-1
1.730744020E-1,4.763000011E-1,-2.429624945E-1,-3.257375062E-1
1.750642480E-1,4.911499918E-1,-2.620750070E-1,-3.247750103E-1
1.770540990E-1,5.029749870E-1,-2.833875120E-1,-3.290374875E-1
1.790440200E-1,5.146625042E-1,-2.993375063E-1,-3.290374875E-1
1.810338690E-1,5.317124724E-1,-3.132250011E-1,-3.257375062E-1
1.830239430E-1,5.455999970E-1,-3.174875081E-1,-3.299999833E-1
1.850137920E-1,5.658124685E-1,-3.185875118E-1,-3.290374875E-1
1.870037130E-1,5.838249922E-1,-3.143250048E-1,-3.290374875E-1
1.889935560E-1,5.945500135E-1,-3.036000133E-1,-3.385249972E-1
1.909834020E-1,6.062374711E-1,-2.855874896E-1,-3.438875079E-1
1.929734770E-1,6.115999818E-1,-2.609750032E-1,-3.503499925E-1
1.949633250E-1,6.201249957E-1,-2.387000024E-1,-3.631374836E-1
1.969532460E-1,6.190249920E-1,-2.227499932E-1,-3.790875077E-1
1.989430940E-1,6.201249957E-1,-2.023999989E-1,-3.896749914E-1
2.009331880E-1,6.126999855E-1,-1.853500009E-1,-4.078249931E-1
2.029230360E-1,6.062374711E-1,-1.736624986E-1,-4.226749837E-1
2.049128830E-1,5.966125131E-1,-1.683000028E-1,-4.387624860E-1
2.069027290E-1,5.880874991E-1,-1.640374959E-1,-4.536125064E-1
2.088926500E-1,5.795624852E-1,-1.673374921E-1,-4.706625044E-1
2.108824980E-1,5.711749792E-1,-1.651374996E-1,-4.834499955E-1
2.128726060E-1,5.626500249E-1,-1.588124931E-1,-5.005000234E-1
2.148624540E-1,5.508249998E-1,-1.545500010E-1,-5.090249777E-1
2.168523750E-1,5.455999970E-1,-1.480875015E-1,-5.196124911E-1
2.188422230E-1,5.413374901E-1,-1.343374997E-1,-5.229125023E-1
2.208320690E-1,5.348749757E-1,-1.267749965E-1,-5.292375088E-1
2.228221440E-1,5.263500214E-1,-1.204499975E-1,-5.314375162E-1
2.248120070E-1,5.231875181E-1,-1.193500012E-1,-5.324000120E-1
2.268019280E-1,5.209875107E-1,-1.139874980E-1,-5.303375125E-1
2.287917760E-1,5.200250149E-1,-1.108250022E-1,-5.229125023E-1
2.307818510E-1,5.146625042E-1,-1.108250022E-1,-5.164499879E-1
2.327716990E-1,5.157625079E-1,-1.087625027E-1,-5.025625229E-1
2.347615450E-1,5.115000010E-1,-1.054624990E-1,-4.982999861E-1
2.367514950E-1,5.115000010E-1,-1.108250022E-1,-4.888125062E-1
2.387413430E-1,5.103999972E-1,-1.193500012E-1,-4.749250114E-1
2.407311890E-1,5.157625079E-1,-1.321374923E-1,-4.632374942E-1
2.427212640E-1,5.146625042E-1,-1.480875015E-1,-4.450874925E-1
2.447111130E-1,5.103999972E-1,-1.597750038E-1,-4.302375019E-1
2.467010530E-1,5.115000010E-1,-1.768250018E-1,-4.174500108E-1
2.486909010E-1,5.115000010E-1,-1.960749924E-1,-3.961375058E-1
2.506809760E-1,5.092999935E-1,-2.120250016E-1,-3.918749988E-1
2.526708240E-1,5.146625042E-1,-2.301750034E-1,-3.779875040E-1
2.546607450E-1,5.124624968E-1,-2.450249940E-1,-3.715249896E-1
2.566505930E-1,5.146625042E-1,-2.620750070E-1,-3.609375060E-1
2.586404530E-1,5.178250074E-1,-2.822875082E-1,-3.598375022E-1
2.606302990E-1,5.189250112E-1,-2.993375063E-1,-3.577750027E-1
2.626203740E-1,5.285499692E-1,-3.196874857E-1,-3.555749953E-1
2.646102230E-1,5.359749794E-1,-3.334375024E-1,-3.609375060E-1
2.666001440E-1,5.413374901E-1,-3.569499850E-1,-3.631374836E-1
2.685899920E-1,5.498625040E-1,-3.740000129E-1,-3.705624938E-1
2.705800810E-1,5.615500212E-1,-3.814249933E-1,-3.757874966E-1
2.725699290E-1,5.700749755E-1,-3.931125104E-1,-3.854124844E-1
2.745597750E-1,5.774999857E-1,-3.942124844E-1,-4.078249931E-1
2.765496960E-1,5.860249996E-1,-3.825249970E-1,-4.217124879E-1
2.785395440E-1,5.945500135E-1,-3.814249933E-1,-4.461874962E-1
2.805296190E-1,6.051374674E-1,-3.664374948E-1,-4.684624970E-1
2.825194820E-1,6.073374748E-1,-3.493874967E-1,-4.951374829E-1
2.845094030E-1,6.126999855E-1,-3.441624939E-1,-5.229125023E-1
2.864992520E-1,6.084374785E-1,-3.441624939E-1,-5.570124984E-1
2.884890980E-1,6.126999855E-1,-3.356375098E-1,-5.878124833E-1
2.904789440E-1,6.115999818E-1,-3.398999870E-1,-6.219124794E-1
2.924690190E-1,6.084374785E-1,-3.451249897E-1,-6.571124792E-1
2.944588670E-1,6.008750200E-1,-3.473249972E-1,-6.975374818E-1
2.964487880E-1,6.008750200E-1,-3.419624865E-1,-7.327374816E-1
2.984386360E-1,5.988125205E-1,-3.377000093E-1,-7.688999772E-1
3.004287110E-1,5.966125131E-1,-3.324750066E-1,-8.061624765E-1
3.024186360E-1,6.019750237E-1,-3.196874857E-1,-8.359999657E-1
3.044084820E-1,6.051374674E-1,-3.111625016E-1,-8.669375181E-1
3.063983190E-1,6.084374785E-1,-3.057999909E-1,-8.936125040E-1
3.083881650E-1,6.126999855E-1,-2.919124961E-1,-9.180874825E-1
3.103782400E-1,6.179249883E-1,-2.780250013E-1,-9.436625242E-1
3.123680880E-1,6.232874990E-1,-2.685374916E-1,-9.607124925E-1
3.143580090E-1,6.275500059E-1,-2.663374841E-1,-9.798250198E-1
3.163478570E-1,6.329125166E-1,-2.694999874E-1,-9.968749881E-1
3.183379220E-1,6.382749677E-1,-2.727999985E-1,-1.012825012E0
3.203277700E-1,6.531249881E-1,-2.770625055E-1,-1.021350026E0
3.223176160E-1,6.690750122E-1,-2.855874896E-1,-1.029875040E0
3.243075370E-1,6.989125013E-1,-2.844874859E-1,-1.033174992E0
3.262973860E-1,7.319124937E-1,-2.908124924E-1,-1.030974984E0
3.282872420E-1,7.628499866E-1,-3.100624979E-1,-1.027812481E0
3.302773170E-1,7.969499826E-1,-3.217499852E-1,-1.027812481E0
3.322672420E-1,8.236249685E-1,-3.345375061E-1,-1.024649978E0
3.342570880E-1,8.566250205E-1,-3.504875004E-1,-1.018187523E0
3.362469340E-1,8.927875161E-1,-3.621749878E-1,-1.021350026E0
3.382370090E-1,9.237250090E-1,-3.493874967E-1,-1.016124964E0
3.402268680E-1,9.396749735E-1,-3.334375024E-1,-1.012825012E0
3.422167140E-1,9.641500115E-1,-3.217499852E-1,-1.012825012E0
3.442066350E-1,9.802374840E-1,-2.876499891E-1,-1.011862516E0
3.461964830E-1,9.919250011E-1,-2.620750070E-1,-1.017087460E0
3.481865580E-1,9.982500076E-1,-2.418625057E-1,-1.006500006E0
3.501764070E-1,1.005674958E0,-2.237125039E-1,-1.006500006E0
3.521663320E-1,1.004712462E0,-2.023999989E-1,-9.915124774E-1
3.541561800E-1,9.961875081E-1,-1.875499934E-1,-9.851874709E-1
3.561460260E-1,9.961875081E-1,-1.886499971E-1,-9.670374990E-1
3.581358720E-1,9.833999872E-1,-1.960749924E-1,-9.510874748E-1
3.601259470E-1,9.598875046E-1,-2.131250054E-1,-9.425625205E-1
3.621158720E-1,9.492999911E-1,-2.237125039E-1,-9.149249792E-1
3.641057280E-1,9.279875159E-1,-2.237125039E-1,-8.945749998E-1
3.660955740E-1,9.109374881E-1,-2.248124927E-1,-8.711999655E-1
3.680856490E-1,9.013124704E-1,-2.333374918E-1,-8.467249870E-1
3.700754980E-1,8.831624985E-1,-2.375999987E-1,-8.189499974E-1
3.720654190E-1,8.694124818E-1,-2.472250015E-1,-7.913125157E-1
3.740552670E-1,8.449375033E-1,-2.770625055E-1,-7.646374702E-1
3.760451130E-1,8.310499787E-1,-2.983750105E-1,-7.305374742E-1
3.780351880E-1,8.129000068E-1,-3.154250085E-1,-7.049624920E-1
3.800250360E-1,7.980499864E-1,-3.377000093E-1,-6.762250066E-1
3.820149570E-1,7.819625139E-1,-3.590124846E-1,-6.454250216E-1
3.840048050E-1,7.682124972E-1,-3.899500072E-1,-6.187499762E-1
3.859946510E-1,7.480000257E-1,-4.133250117E-1,-5.900124907E-1
3.879847310E-1,7.352125049E-1,-4.175874889E-1,-5.633375049E-1
3.899745790E-1,7.191249728E-1,-4.240500033E-1,-5.431249738E-1
3.919644260E-1,7.074375153E-1,-4.240500033E-1,-5.260750055E-1
3.939543470E-1,6.883249879E-1,-4.101625085E-1,-5.143874884E-1
3.959441950E-1,6.744375229E-1,-4.070000052E-1,-5.005000234E-1
3.979342700E-1,6.488624811E-1,-3.984749913E-1,-4.973374903E-1
3.999241130E-1,6.201249957E-1,-3.877499998E-1,-4.897750020E-1
4.019140340E-1,5.871250033E-1,-3.888500035E-1,-4.897750020E-1
4.039038820E-1,5.541250110E-1,-3.729000092E-1,-4.866124988E-1
4.058939570E-1,5.124624968E-1,-3.771624863E-1,-4.877125025E-1
4.078838050E-1,4.720374942E-1,-3.814249933E-1,-4.897750020E-1
4.098736510E-1,4.347749949E-1,-3.760625124E-1,-4.877125025E-1
4.118635730E-1,3.975124955E-1,-3.707000017E-1,-4.888125062E-1
4.138534210E-1,3.697375059E-1,-3.729000092E-1,-4.812499881E-1
4.158432670E-1,3.398999870E-1,-3.740000129E-1,-4.706625044E-1
4.178333420E-1,3.228499889E-1,-3.686375022E-1,-4.525125027E-1
4.198231900E-1,3.143250048E-1,-3.526875079E-1,-4.302375019E-1
4.218131110E-1,3.218874931E-1,-3.579125106E-1,-4.013625085E-1
4.238031780E-1,3.239499927E-1,-3.621749878E-1,-3.620375097E-1
4.257927950E-1,3.356375098E-1,-3.771624863E-1,-3.268375099E-1
4.277828700E-1,3.526875079E-1,-3.973749876E-1,-2.767874897E-1
4.297727180E-1,3.708375096E-1,-4.218499959E-1,-2.235749960E-1
4.317626400E-1,3.889875114E-1,-4.538874924E-1,-1.607374996E-1
4.337524880E-1,4.070000052E-1,-4.889499843E-1,-8.827500045E-2
4.357425540E-1,4.251500070E-1,-5.156250000E-1,-1.044999994E-2
4.377324020E-1,4.401375055E-1,-5.391374826E-1,6.407500058E-2
4.397222480E-1,4.507249892E-1,-5.603125095E-1,1.396999955E-1
4.417121690E-1,4.624125063E-1,-5.816249847E-1,2.186249942E-1
4.437020170E-1,4.666749835E-1,-5.997750163E-1,2.931500077E-1
4.456918630E-1,4.740999937E-1,-6.253499985E-1,3.656125069E-1
4.476819230E-1,4.740999937E-1,-6.455624700E-1,4.369750023E-1
4.496717710E-1,4.731374979E-1,-6.648125052E-1,4.998124838E-1
4.516616920E-1,4.709374905E-1,-6.807624698E-1,5.552250147E-1
4.536517690E-1,4.688749909E-1,-6.998749971E-1,6.030749679E-1
4.556416180E-1,4.614500105E-1,-6.998749971E-1,6.478999853E-1
4.576314640E-1,4.581499994E-1,-6.946499944E-1,6.851624846E-1
4.596212960E-1,4.486624897E-1,-6.828249693E-1,7.075750232E-1
4.616112170E-1,4.358749986E-1,-6.594499946E-1,7.213249803E-1
4.636010650E-1,4.240500033E-1,-6.381375194E-1,7.246249914E-1
4.655911400E-1,4.112625122E-1,-6.072000265E-1,7.246249914E-1
4.675809880E-1,4.049375057E-1,-5.741999745E-1,7.033125162E-1
4.695709090E-1,3.921499848E-1,-5.454624891E-1,6.755374670E-1
4.715607520E-1,3.814249933E-1,-5.113624930E-1,6.340125203E-1
4.735508270E-1,3.740000129E-1,-4.709374905E-1,5.956500173E-1
4.755406760E-1,3.623124957E-1,-4.368374944E-1,5.370749831E-1
4.775305220E-1,3.548874855E-1,-4.016374946E-1,4.816625118E-1
4.795203680E-1,3.506250083E-1,-3.643749952E-1,4.188250005E-1
4.815102890E-1,3.398999870E-1,-3.206500113E-1,3.591499925E-1
4.835003760E-1,3.304125071E-1,-2.770625055E-1,2.952125072E-1
4.854902240E-1,3.176249862E-1,-2.439250052E-1,2.292124927E-1
4.874800700E-1,3.048374951E-1,-1.949750036E-1,1.674750000E-1
4.894699910E-1,2.941125035E-1,-1.619749963E-1,1.077999994E-1
4.914598390E-1,2.792625129E-1,-1.278750002E-1,4.496249929E-2
4.934496860E-1,2.653749883E-1,-9.803749621E-2,-8.387500420E-3
4.954397700E-1,2.600125074E-1,-5.115000159E-2,-6.270000339E-2
4.974296180E-1,2.675749958E-1,1.374999993E-2,-1.266375035E-1
4.994195390E-1,2.920500040E-1,7.658749819E-2,-1.926375031E-1
5.014093870E-1,3.293125033E-1,1.427250057E-1,-2.725250125E-1
5.033994620E-1,3.729000092E-1,1.927749962E-1,-3.726249933E-1
5.053893100E-1,4.208875000E-1,2.331999987E-1,-4.717625082E-1
5.073792220E-1,4.560874999E-1,2.374625057E-1,-5.718625188E-1
5.093689930E-1,4.805625081E-1,2.226125002E-1,-6.549124718E-1
5.113589140E-1,4.911499918E-1,1.810874939E-1,-7.167875171E-1
5.133489910E-1,4.816625118E-1,1.416250020E-1,-7.561125159E-1
5.153388390E-1,4.731374979E-1,1.021625027E-1,-7.870500088E-1
5.173286860E-1,4.549874961E-1,6.916250288E-2,-8.083624840E-1
5.193185870E-1,4.401375055E-1,5.321250111E-2,-8.126249909E-1
5.213084350E-1,4.283125103E-1,3.616249934E-2,-8.243125081E-1
5.232985100E-1,4.177249968E-1,3.409999982E-2,-8.285750151E-1
5.252883580E-1,4.092000127E-1,2.983750030E-2,-8.328375220E-1
5.272782040E-1,4.070000052E-1,1.484999992E-2,-8.392999768E-1
5.292681250E-1,4.017750025E-1,3.162499983E-3,-8.573125005E-1
5.312579730E-1,4.017750025E-1,-2.034999989E-2,-8.669375181E-1
5.332480480E-1,4.038375020E-1,-4.372499883E-2,-8.765624762E-1
5.352378960E-1,4.123624861E-1,-6.187500060E-2,-8.893499970E-1
5.372277430E-1,4.316124916E-1,-7.246249914E-2,-9.021375179E-1
5.392176640E-1,4.529249966E-1,-9.487500042E-2,-9.201499820E-1
5.412075120E-1,4.848249853E-1,-1.172875017E-1,-9.351375103E-1
5.431975730E-1,5.157625079E-1,-1.534499973E-1,-9.521874785E-1
5.451874210E-1,5.498625040E-1,-1.821874976E-1,-9.670374990E-1
5.471772670E-1,5.817624927E-1,-2.109249979E-1,-9.820249677E-1
5.491671880E-1,6.136624813E-1,-2.407625020E-1,-1.002237439E0
5.511570360E-1,6.403374672E-1,-2.674374878E-1,-1.022449970E0
5.531471110E-1,6.659125090E-1,-2.941125035E-1,-1.039499998E0
5.551369440E-1,6.872249842E-1,-3.068999946E-1,-1.061912537E0
5.571268660E-1,7.085375190E-1,-3.228499889E-1,-1.091750026E0
5.591167140E-1,7.276499867E-1,-3.377000093E-1,-1.117324948E0
5.611065600E-1,7.500625253E-1,-3.558500111E-1,-1.140699983E0
5.630966350E-1,7.660124898E-1,-3.718000054E-1,-1.159950018E0
5.650864830E-1,7.745375037E-1,-3.515875041E-1,-1.193912506E0
5.670763200E-1,7.756375074E-1,-3.686375022E-1,-1.208899975E0
5.690662410E-1,7.756375074E-1,-4.186874926E-1,-1.202437520E0
5.710560890E-1,7.830625176E-1,-4.655750096E-1,-1.174800038E0
5.730461640E-1,7.937874794E-1,-5.220875144E-1,-1.138637543E0
5.750360120E-1,8.129000068E-1,-5.784624815E-1,-1.096974969E0
5.770259330E-1,8.384749889E-1,-6.285125017E-1,-1.036337495E0
5.790157720E-1,8.662499785E-1,-6.776000261E-1,-9.735000134E-1
5.810056180E-1,9.098374844E-1,-7.180249691E-1,-8.999375105E-1
5.829956930E-1,9.641500115E-1,-7.458000183E-1,-8.274750113E-1
5.849855410E-1,1.031250000E0,-7.458000183E-1,-7.594124675E-1
5.869754620E-1,1.098350048E0,-7.458000183E-1,-6.986374855E-1
5.889653100E-1,1.166550040E0,-7.606499791E-1,-6.421250105E-1
5.909551420E-1,1.273112535E0,-8.575875163E-1,-5.985375047E-1
5.929452170E-1,1.353000045E0,-8.607500196E-1,-5.559124947E-1
5.949351420E-1,1.416937470E0,-8.447999954E-1,-5.196124911E-1
5.969249120E-1,1.461624980E0,-8.214250207E-1,-5.101249814E-1
5.989148330E-1,1.498887539E0,-7.925499678E-1,-5.218124986E-1
6.009046810E-1,1.538349986E0,-7.702749968E-1,-5.281375051E-1
6.028947460E-1,1.561862469E0,-7.191249728E-1,-5.377625227E-1
6.048846710E-1,1.575612545E0,-6.978124976E-1,-5.570124984E-1
6.068745170E-1,1.600087523E0,-6.892874837E-1,-5.835499763E-1
6.088643630E-1,1.606549978E0,-6.583499908E-1,-6.122875214E-1
6.108544380E-1,1.615074992E0,-6.242499948E-1,-6.528499722E-1
6.128442860E-1,1.602287531E0,-6.370375156E-1,-6.932749748E-1
6.148341370E-1,1.578912497E0,-5.784624815E-1,-7.412624955E-1
6.168240580E-1,1.542612433E0,-4.666749835E-1,-7.870500088E-1
6.188139070E-1,1.487200022E0,-3.729000092E-1,-8.307750225E-1
6.208037530E-1,1.443612456E0,-3.004375100E-1,-8.828874826E-1
6.227938280E-1,1.404150009E0,-2.387000024E-1,-9.329375029E-1
6.247837530E-1,1.365787506E0,-1.960749924E-1,-9.990749955E-1
6.267736080E-1,1.328524947E0,-1.853500009E-1,-1.052287459E0
6.287636830E-1,1.293324947E0,-2.099625021E-1,-1.107699990E0
6.307533000E-1,1.258262515E0,-1.960749924E-1,-1.163112521E0
6.327433750E-1,1.244374990E0,-1.758625060E-1,-1.210962534E0
6.347333000E-1,1.230487466E0,-1.534499973E-1,-1.263212442E0
6.367231460E-1,1.223062515E0,-1.555124968E-1,-1.320687532E0
6.387129930E-1,1.216599941E0,-1.545500010E-1,-1.383525014E0
6.407030670E-1,1.223062515E0,-1.512500048E-1,-1.448562503E0
6.426929160E-1,1.233649969E0,-1.534499973E-1,-1.508237481E0
6.446828370E-1,1.242174983E0,-1.694000065E-1,-1.578500032E0
6.466726850E-1,1.254962444E0,-1.907124966E-1,-1.645599961E0
6.486625260E-1,1.267750025E0,-2.014375031E-1,-1.706375003E0
6.506667550E-1,1.274212480E0,-2.066625059E-1,-1.764950037E0
6.526424490E-1,1.273112535E0,-2.088624984E-1,-1.823524952E0
6.546323700E-1,1.271049976E0,-2.099625021E-1,-1.865049958E0
6.566222160E-1,1.274212480E0,-2.194499969E-1,-1.901350021E0
6.586122930E-1,1.272012472E0,-2.461249977E-1,-1.920462489E0
6.606021490E-1,1.268849969E0,-2.930124998E-1,-1.915099978E0
6.625920730E-1,1.265687466E0,-3.228499889E-1,-1.893787503E0
6.645819210E-1,1.260324955E0,-3.473249972E-1,-1.862987518E0
6.665717670E-1,1.248637438E0,-3.707000017E-1,-1.826687455E0
6.685616130E-1,1.246437550E0,-3.856875002E-1,-1.781999946E0
6.705516880E-1,1.247537494E0,-4.047999978E-1,-1.735112548E0
6.725415310E-1,1.253999949E0,-4.261125028E-1,-1.686162472E0
6.745314520E-1,1.258262515E0,-4.538874924E-1,-1.635012507E0
6.765213000E-1,1.272012472E0,-4.729999900E-1,-1.581662536E0
6.785113750E-1,1.281637549E0,-4.868874848E-1,-1.526387453E0
6.805012230E-1,1.301849961E0,-4.868874848E-1,-1.466712475E0
6.824910700E-1,1.314637542E0,-4.826250076E-1,-1.409099936E0
6.844809860E-1,1.334849954E0,-4.857875109E-1,-1.347362518E0
6.864708340E-1,1.364687443E0,-4.954124987E-1,-1.294149995E0
6.884609090E-1,1.389162540E0,-4.889499843E-1,-1.236537457E0
6.904507570E-1,1.406212449E0,-4.581499994E-1,-1.173699975E0
6.924406780E-1,1.432887435E0,-4.047999978E-1,-1.111962438E0
6.944305260E-1,1.454200029E0,-3.398999870E-1,-1.052287459E0
6.964203670E-1,1.480875015E0,-2.770625055E-1,-9.957749844E-1
6.984104420E-1,1.508512497E0,-2.014375031E-1,-9.372000098E-1
7.004002900E-1,1.539450049E0,-1.236125007E-1,-8.850874901E-1
7.023901370E-1,1.568187475E0,-4.688749835E-2,-8.424624801E-1
7.043800580E-1,1.600087523E0,2.337500080E-2,-7.987374663E-1
7.063699060E-1,1.632125020E0,8.195000142E-2,-7.636749744E-1
7.083600010E-1,1.669387460E0,1.362625062E-1,-7.262749672E-1
7.103498490E-1,1.691799998E0,1.692624986E-1,-7.071624994E-1
7.123396950E-1,1.713112473E0,2.001999915E-1,-6.869499683E-1
7.143296160E-1,1.729062438E0,2.118874937E-1,-6.741625071E-1
7.163194640E-1,1.739650011E0,2.161500007E-1,-6.656374931E-1
7.183095390E-1,1.739650011E0,2.066625059E-1,-6.730625033E-1
7.202993920E-1,1.740749955E0,1.959374994E-1,-6.719624996E-1
7.222893130E-1,1.736487508E0,1.757249981E-1,-6.826875210E-1
7.242791620E-1,1.724799991E0,1.523499936E-1,-6.964374781E-1
7.262690080E-1,1.720537543E0,1.234750003E-1,-7.125250101E-1
7.282590830E-1,1.709812522E0,9.363749623E-2,-7.380999923E-1
7.302489310E-1,1.700325012E0,5.967500061E-2,-7.625749707E-1
7.322388370E-1,1.693862438E0,2.021249942E-2,-7.944750190E-1
7.342286850E-1,1.689599991E0,-1.498750038E-2,-8.296750188E-1
7.362185310E-1,1.684375048E0,-4.578749835E-2,-8.691374660E-1
7.382086060E-1,1.670487523E0,-5.761250108E-2,-9.138249755E-1
7.401984540E-1,1.659762502E0,-6.283749640E-2,-9.564499855E-1
7.421883000E-1,1.654537439E0,-5.967500061E-2,-1.000037551E0
7.441782170E-1,1.652337432E0,-6.077500060E-2,-1.052287459E0
7.461682940E-1,1.651237488E0,-5.651250109E-2,-1.110862494E0
7.481581420E-1,1.652337432E0,-5.761250108E-2,-1.162012458E0
7.501480630E-1,1.667325020E0,-5.761250108E-2,-1.219487548E0
7.521378340E-1,1.668287516E0,-4.578749835E-2,-1.280262470E0
7.541277550E-1,1.669387460E0,-1.388750039E-2,-1.326050043E0
7.561176030E-1,1.659762502E0,2.227500081E-2,-1.384624958E0
7.581076780E-1,1.655499935E0,5.967500061E-2,-1.433712482E0
7.600975260E-1,1.655499935E0,1.054624990E-1,-1.482662439E0
7.620874470E-1,1.653437495E0,1.362625062E-1,-1.529549956E0
7.640772960E-1,1.656599998E0,1.746249944E-1,-1.576437473E0
7.660673700E-1,1.663062453E0,2.001999915E-1,-1.617962480E0
7.680572190E-1,1.661962509E0,2.331999987E-1,-1.650962472E0
7.700470650E-1,1.666224957E0,2.694999874E-1,-1.683962464E0
7.720369110E-1,1.666224957E0,3.141874969E-1,-1.707474947E0
7.740268320E-1,1.654537439E0,3.536500037E-1,-1.725487471E0
7.760169090E-1,1.653437495E0,3.898124993E-1,-1.730849981E0
7.780067570E-1,1.634187460E0,4.175874889E-1,-1.726587534E0
7.799967020E-1,1.613975048E0,4.228124917E-1,-1.712700009E0
7.819865500E-1,1.595824957E0,4.153875113E-1,-1.690425038E0
7.839766250E-1,1.566125035E0,3.877499998E-1,-1.654124975E0
7.859662430E-1,1.540549994E0,3.482874930E-1,-1.606274962E0
7.879563180E-1,1.511675000E0,3.025000095E-1,-1.551962495E0
7.899461660E-1,1.476612449E0,2.364999950E-1,-1.488987446E0
7.919360770E-1,1.443612456E0,1.768250018E-1,-1.420925021E0
7.939259250E-1,1.411574960E0,1.149500012E-1,-1.349562526E0
7.959160000E-1,1.381737471E0,5.541250110E-2,-1.279162526E0
7.979058480E-1,1.350937486E0,-1.099999994E-3,-1.200374961E0
7.998957690E-1,1.317800045E0,-5.857500061E-2,-1.131075025E0
8.018856170E-1,1.289062500E0,-1.087625027E-1,-1.053387523E0
8.038754490E-1,1.259225011E0,-1.555124968E-1,-9.862874746E-1
8.058655240E-1,1.229387522E0,-1.938749999E-1,-9.201499820E-1
8.078553730E-1,1.198587537E0,-2.355374992E-1,-8.595125079E-1
8.098452940E-1,1.173012495E0,-2.642749846E-1,-8.040999770E-1
8.118351420E-1,1.146337509E0,-3.004375100E-1,-7.561125159E-1
8.138252170E-1,1.118700027E0,-3.334375024E-1,-7.167875171E-1
8.158150600E-1,1.095187545E0,-3.664374948E-1,-6.847500205E-1
8.178049060E-1,1.068650007E0,-3.888500035E-1,-6.571124792E-1
8.197948270E-1,1.040874958E0,-4.101625085E-1,-6.411625147E-1
8.217846750E-1,1.019562483E0,-4.251500070E-1,-6.304374933E-1
8.237745210E-1,9.971500039E-1,-4.314749837E-1,-6.272749901E-1
8.257645960E-1,9.802374840E-1,-4.453625083E-1,-6.369000077E-1
8.277544500E-1,9.567250013E-1,-4.453625083E-1,-6.506500244E-1
8.297443710E-1,9.481999874E-1,-4.346374869E-1,-6.667374969E-1
8.317342190E-1,9.311500192E-1,-4.133250117E-1,-6.869499683E-1
8.337242940E-1,9.205625057E-1,-3.931125104E-1,-7.177500129E-1
8.357141420E-1,9.140999913E-1,-3.675374985E-1,-7.497875094E-1
8.377040630E-1,9.109374881E-1,-3.526875079E-1,-7.913125157E-1
8.396939300E-1,9.066749811E-1,-3.388000131E-1,-8.359999657E-1
8.416837760E-1,9.044749737E-1,-3.100624979E-1,-8.711999655E-1
8.436738510E-1,9.035124779E-1,-2.813250124E-1,-9.106624722E-1
8.456636990E-1,9.066749811E-1,-2.557500005E-1,-9.521874785E-1
8.476535460E-1,9.098374844E-1,-2.312749922E-1,-9.968749881E-1
8.496434670E-1,9.172624946E-1,-2.077624947E-1,-1.030974984E0
8.516333150E-1,9.194625020E-1,-1.790249944E-1,-1.074699998E0
8.536231610E-1,9.205625057E-1,-1.534499973E-1,-1.114024997E0
8.556132360E-1,9.365124702E-1,-1.172875017E-1,-1.148125052E0
8.576030840E-1,9.535624981E-1,-8.208750188E-2,-1.184424996E0
8.595930050E-1,9.769374728E-1,-4.688749835E-2,-1.221687436E0
8.615828530E-1,1.000450015E0,-2.667500079E-2,-1.255787492E0
8.635729180E-1,1.033450007E0,-1.814999990E-2,-1.284525037E0
8.655627660E-1,1.061087489E0,-2.199999988E-3,-1.305837512E0
8.675526870E-1,1.088862538E0,3.189999983E-2,-1.319725037E0
8.695425360E-1,1.109074950E0,7.342500240E-2,-1.330312490E0
8.715323820E-1,1.127225041E0,1.192125008E-1,-1.326050043E0
8.735224570E-1,1.143175006E0,1.703625023E-1,-1.322887540E0
8.755123010E-1,1.175074935E0,2.118874937E-1,-1.317525029E0
8.775021470E-1,1.207112551E0,2.450249940E-1,-1.310099959E0
8.794920680E-1,1.250699997E0,2.789874971E-1,-1.294149995E0
8.814819160E-1,1.290162444E0,3.110249937E-1,-1.278062463E0
8.834719910E-1,1.332787514E0,3.429250121E-1,-1.249325037E0
8.854618390E-1,1.382837534E0,3.493874967E-1,-1.216325045E0
8.874517690E-1,1.414737463E0,3.759250045E-1,-1.171637535E0
8.894416180E-1,1.443612456E0,4.153875113E-1,-1.110862494E0
8.914314640E-1,1.466987491E0,4.707999825E-1,-1.041700006E0
8.934215390E-1,1.482937455E0,5.358374715E-1,-9.670374990E-1
8.954113870E-1,1.503149986E0,5.805249810E-1,-8.882499933E-1
8.974013080E-1,1.527762532E0,6.081625223E-1,-8.094624877E-1
8.993911180E-1,1.554299951E0,6.327750087E-1,-7.295749784E-1
9.013809640E-1,1.569287539E0,6.550499797E-1,-6.517499685E-1
9.033710390E-1,1.570387483E0,6.785625219E-1,-5.761250257E-1
9.053609640E-1,1.558562517E0,7.605124712E-1,-4.973374903E-1
9.073507330E-1,1.529824972E0,8.329749703E-1,-4.269374907E-1
9.093406550E-1,1.490362525E0,8.755999804E-1,-3.460874856E-1
9.113304980E-1,1.444574952E0,8.883875012E-1,-2.756874859E-1
9.133205730E-1,1.391362548E0,8.766999841E-1,-2.043250054E-1
9.153104210E-1,1.333887458E0,8.617125154E-1,-1.403875053E-1
9.173003420E-1,1.259225011E0,8.403999805E-1,-8.827500045E-2
9.192901900E-1,1.178375006E0,8.084999919E-1,-4.028749838E-2
9.212802650E-1,1.094087481E0,7.584499717E-1,-4.124999978E-3
9.232701270E-1,1.009937525E0,7.178875208E-1,3.217500076E-2
9.252599730E-1,9.257875085E-1,6.689375043E-1,5.128749833E-2
9.272498940E-1,8.331124783E-1,6.007375121E-1,5.775000155E-2
9.292397420E-1,7.596874833E-1,5.251125097E-1,6.201250106E-2
9.312295890E-1,6.786999702E-1,4.483875036E-1,5.238749832E-2
9.332196640E-1,6.062374711E-1,3.684999943E-1,3.753750026E-2
9.352095890E-1,5.348749757E-1,2.971374989E-1,1.292499993E-2
9.371994350E-1,4.699749947E-1,2.331999987E-1,-2.007500082E-2
9.391892810E-1,4.060375094E-1,1.757249981E-1,-6.159999967E-2
9.411793560E-1,3.548874855E-1,1.299374998E-1,-1.095874980E-1
9.431692040E-1,3.005749881E-1,1.000999957E-1,-1.627999991E-1
9.451590500E-1,2.536875010E-1,7.878749818E-2,-2.202749997E-1
9.471489900E-1,2.088624984E-1,7.136250287E-2,-2.788499892E-1
9.491388380E-1,1.695374995E-1,7.768750191E-2,-3.353624940E-1
9.511289130E-1,1.332374960E-1,7.878749818E-2,-3.971000016E-1
9.531187620E-1,1.067000031E-1,9.583749622E-2,-4.558124840E-1
9.551086830E-1,7.686249912E-2,8.621250093E-2,-5.143874884E-1
9.570985310E-1,3.739999980E-2,3.616249934E-2,-5.750250220E-1
9.590883530E-1,-3.024999984E-3,-5.362499971E-3,-6.293374896E-1
9.610781990E-1,-4.138749838E-2,-2.557500079E-2,-6.719624996E-1
9.630682740E-1,-7.012499869E-2,-3.836249933E-2,-6.975374818E-1
9.650581990E-1,-9.253749996E-2,-5.431250110E-2,-7.199500203E-1
9.670480450E-1,-1.095874980E-1,-7.246249914E-2,-7.338374853E-1
9.690378720E-1,-1.277374923E-1,-6.077500060E-2,-7.401624918E-1
9.710279470E-1,-1.468500048E-1,-4.688749835E-2,-7.423624992E-1
9.730177960E-1,-1.585374922E-1,-2.777500078E-2,-7.369999886E-1
9.750077170E-1,-1.692624986E-1,-5.362499971E-3,-7.305374742E-1
9.769975650E-1,-1.746249944E-1,1.911249943E-2,-7.177500129E-1
9.789874110E-1,-1.703625023E-1,4.358749837E-2,-6.975374818E-1
9.809774960E-1,-1.627999991E-1,6.379999965E-2,-6.719624996E-1
9.829673440E-1,-1.490499973E-1,6.806249917E-2,-6.389625072E-1
9.849572650E-1,-1.405249983E-1,7.658749819E-2,-5.985375047E-1
9.869471130E-1,-1.245749965E-1,7.562500238E-2,-5.527499914E-1
9.889371880E-1,-1.032624990E-1,8.304999769E-2,-5.005000234E-1
9.909270360E-1,-8.195000142E-2,8.731249720E-2,-4.430249929E-1
9.929168720E-1,-5.637500063E-2,9.157499671E-2,-3.843125105E-1
9.949067940E-1,-2.227500081E-2,9.363749623E-2,-3.268375099E-1
9.968966420E-1,1.072499994E-2,8.841250092E-2,-2.693625093E-1
9.988864880E-1,4.812499881E-2,8.415000141E-2,-2.160124928E-1
1.000876563E0,8.428750187E-2,9.363749623E-2,-1.648624986E-1
1.002866411E0,1.247124970E-1,1.011999995E-1,-1.095874980E-1
1.004856323E0,1.621125042E-1,1.043625027E-1,-6.476250291E-2
1.006846171E0,1.993750036E-1,1.117874980E-1,-2.213750035E-2
1.008836246E0,2.387000024E-1,1.097249985E-1,2.144999988E-2
1.010826094E0,2.781625092E-1,1.086250022E-1,4.922499880E-2
1.012816015E0,3.185875118E-1,9.899999946E-2,7.796250284E-2
1.014805864E0,3.559874892E-1,7.452499866E-2,1.024374962E-1
1.016795700E0,3.804624975E-1,4.042499885E-2,1.163249984E-1
1.018785775E0,4.049375057E-1,7.424999960E-3,1.280124933E-1
1.020775623E0,4.155249894E-1,-2.461249940E-2,1.280124933E-1
1.022765469E0,4.230875075E-1,-6.187500060E-2,1.269125044E-1
1.024755390E0,4.219875038E-1,-1.002374962E-1,1.205874979E-1
1.026745238E0,4.145624936E-1,-1.321374923E-1,1.131625026E-1
1.028735308E0,3.984749913E-1,-1.608749926E-1,9.817499667E-2
1.030725156E0,3.750999868E-1,-1.875499934E-1,7.686249912E-2
1.032715002E0,3.452624977E-1,-2.056999952E-1,5.555000156E-2
1.034704923E0,3.015374839E-1,-2.248124927E-1,2.571249940E-2
1.036694772E0,2.398000062E-1,-2.398000062E-1,1.374999993E-4
1.038684847E0,1.673374921E-1,-2.578125000E-1,-3.492499888E-2
1.040674700E0,9.171249717E-2,-2.716999948E-1,-7.328750193E-2
1.042664621E0,1.718750037E-2,-2.727999985E-1,-1.233374998E-1
1.044654469E0,-7.342500240E-2,-2.694999874E-1,-1.691250056E-1
1.046644544E0,-1.627999991E-1,-2.609750032E-1,-2.235749960E-1
1.048634392E0,-2.554749846E-1,-2.472250015E-1,-2.736249864E-1
1.050624238E0,-3.471874893E-1,-2.461249977E-1,-3.236750066E-1
1.052614094E0,-4.366999865E-1,-2.567124963E-1,-3.715249896E-1
1.054604015E0,-5.240125060E-1,-2.727999985E-1,-4.152500033E-1
1.056593864E0,-5.953750014E-1,-2.961750031E-1,-4.547125101E-1
1.058583939E0,-6.602749825E-1,-3.078624904E-1,-4.877125025E-1
1.060573787E0,-7.028999925E-1,-2.941125035E-1,-5.101249814E-1
1.062563708E0,-7.605124712E-1,-2.972750068E-1,-5.271750093E-1
1.064553565E0,-7.807250023E-1,-2.344374955E-1,-5.238749981E-1
1.066543411E0,-8.190875053E-1,-2.227499932E-1,-5.303375125E-1
1.068533486E0,-8.574500084E-1,-2.791250050E-1,-5.494499803E-1
1.070523334E0,-8.830249906E-1,-3.388000131E-1,-5.548124909E-1
1.072513255E0,-8.797249794E-1,-3.664374948E-1,-5.314375162E-1
1.074503103E0,-8.680375218E-1,-3.601124883E-1,-5.005000234E-1
1.076493178E0,-8.456249833E-1,-3.398999870E-1,-4.663999975E-1
1.078483027E0,-8.211500049E-1,-3.100624979E-1,-4.323000014E-1
1.080472948E0,-7.807250023E-1,-2.822875082E-1,-4.003999829E-1
1.082462796E0,-7.369999886E-1,-2.439250052E-1,-3.715249896E-1
1.084452642E0,-6.763625145E-1,-2.035000026E-1,-3.438875079E-1
1.086442488E0,-6.144874692E-1,-1.523499936E-1,-3.236750066E-1
1.088432587E0,-5.484874845E-1,-1.087625027E-1,-3.001624942E-1
1.090422435E0,-4.834499955E-1,-7.039999962E-2,-2.778874934E-1
1.092412356E0,-4.206124842E-1,-5.335000157E-2,-2.608374953E-1
1.094402433E0,-3.557125032E-1,-2.777500078E-2,-2.363625020E-1
1.096392281E0,-2.928749919E-1,-0.000000000E0,-2.128500044E-1
1.098382127E0,-2.320999950E-1,5.224999972E-3,-1.852124929E-1
1.100372040E0,-1.746249944E-1,2.062499989E-3,-1.574375033E-1
1.102361888E0,-1.212750003E-1,-8.524999954E-3,-1.329624951E-1
1.104351734E0,-7.122500241E-2,-1.924999990E-2,-1.095874980E-1
1.106341809E0,-2.859999985E-2,-1.388750039E-2,-8.497499675E-2
1.108331657E0,-3.024999984E-3,-7.562499959E-3,-6.586249918E-2
1.110321578E0,2.461249940E-2,3.162499983E-3,-4.564999789E-2
1.112311435E0,4.276249930E-2,7.424999960E-3,-2.543750033E-2
1.114301510E0,4.812499881E-2,7.424999960E-3,-1.044999994E-2
1.116291358E0,6.517499685E-2,3.162499983E-3,9.762499481E-3
1.118281204E0,5.981250107E-2,-1.099999994E-3,2.254999988E-2
1.120271051E0,5.018749833E-2,3.162499983E-3,3.753750026E-2
1.122260972E0,3.849999979E-2,4.262499977E-3,5.348749831E-2
1.124251064E0,3.423750028E-2,1.374999993E-2,7.053750008E-2
1.126240912E0,2.351249941E-2,1.911249943E-2,7.906249911E-2
1.128230758E0,1.498750038E-2,3.616249934E-2,9.707500041E-2
1.130220679E0,2.199999988E-3,5.211250111E-2,1.077999994E-1
1.132210527E0,-1.264999993E-2,6.489999592E-2,1.216875017E-1
1.134200602E0,-2.337500080E-2,7.562500238E-2,1.302125007E-1
1.136190435E0,-3.286249936E-2,7.768750191E-2,1.471250057E-1
1.138180281E0,-4.564999789E-2,7.452499866E-2,1.621125042E-1
1.140170203E0,-4.784999788E-2,8.195000142E-2,1.791625023E-1
1.142160051E0,-5.637500063E-2,8.415000141E-2,1.973125041E-1
1.144150126E0,-6.159999967E-2,8.195000142E-2,2.175250053E-1
1.146139974E0,-6.063750014E-2,7.452499866E-2,2.419999987E-1
1.148129839E0,-6.379999965E-2,5.967500061E-2,2.601499856E-1
1.150119760E0,-6.489999592E-2,5.004999787E-2,2.877874970E-1
1.152109608E0,-6.916250288E-2,3.836249933E-2,3.102000058E-1
1.154099683E0,-7.548750192E-2,2.873750031E-2,3.368749917E-1
1.156089531E0,-7.342500240E-2,1.278750040E-2,3.602499962E-1
1.158079377E0,-7.232499868E-2,-6.462499965E-3,3.847250044E-1
1.160069298E0,-6.696250290E-2,-2.777500078E-2,3.997125030E-1
1.162059147E0,-7.122500241E-2,-5.115000159E-2,4.210250080E-1
1.164049222E0,-7.122500241E-2,-6.187500060E-2,4.390375018E-1
1.166039070E0,-6.806249917E-2,-6.503749639E-2,4.540250003E-1
1.168028991E0,-6.806249917E-2,-6.077500060E-2,4.677749872E-1
1.170018839E0,-6.916250288E-2,-6.393750012E-2,4.742375016E-1
1.172008695E0,-6.696250290E-2,-6.710000336E-2,4.848249853E-1
1.173998541E0,-7.232499868E-2,-7.672499865E-2,4.881249964E-1
1.175988616E0,-6.159999967E-2,-7.136250287E-2,4.923875034E-1
1.177978464E0,-5.527500063E-2,-6.393750012E-2,5.018749833E-1
1.179968385E0,-4.138749838E-2,-5.761250108E-2,5.051749945E-1
1.181958234E0,-3.286249936E-2,-3.726249933E-2,5.083374977E-1
1.183948318E0,-2.543750033E-2,-4.056249931E-2,5.115000010E-1
1.185938166E0,-2.433750033E-2,-2.777500078E-2,5.103999972E-1
1.187928012E0,-1.911249943E-2,-2.241249941E-2,5.200250149E-1
1.189917933E0,-1.058750041E-2,-1.072499994E-2,5.211250186E-1
1.191907781E0,-7.287499961E-3,-2.199999988E-3,5.242875218E-1
1.193897856E0,1.374999993E-4,-7.562499959E-3,5.317124724E-1
1.195887718E0,1.374999993E-4,-5.362499971E-3,5.339124799E-1
1.197877639E0,4.399999976E-3,-0.000000000E0,5.435374975E-1
1.199867487E0,5.499999970E-3,-2.199999988E-3,5.572875142E-1
1.201857334E0,5.499999970E-3,-6.462499965E-3,5.743374825E-1
1.203847409E0,6.462499965E-3,-2.241249941E-2,5.828624964E-1
1.205837257E0,1.608750038E-2,-2.351249941E-2,5.935875177E-1
1.207827098E0,1.924999990E-2,-2.777500078E-2,6.073374748E-1
1.209817019E0,2.887500077E-2,-2.461249940E-2,6.265875101E-1
1.211806867E0,3.313750029E-2,-1.704999991E-2,6.436374784E-1
1.213796942E0,2.681249939E-2,-1.704999991E-2,6.573874950E-1
1.215786790E0,3.107500076E-2,-2.199999988E-3,6.777374744E-1
1.217776711E0,3.423750028E-2,6.324999966E-3,6.979500055E-1
1.219766549E0,4.056249931E-2,1.374999993E-2,7.203624845E-1
1.221756396E0,3.849999979E-2,1.484999992E-2,7.500625253E-1
1.223746470E0,4.276249930E-2,-7.562499959E-3,7.735750079E-1
1.225736319E0,5.128749833E-2,-2.777500078E-2,8.012124896E-1
1.227726240E0,5.981250107E-2,-4.578749835E-2,8.258249760E-1
1.229716088E0,6.517499685E-2,-6.613750011E-2,8.534625173E-1
1.231705921E0,7.686249912E-2,-8.524999768E-2,8.736749887E-1
1.233695996E0,7.892499864E-2,-1.087625027E-1,8.949875236E-1
1.235685921E0,8.744999766E-2,-1.395625025E-1,9.109374881E-1
1.237675690E0,9.171249717E-2,-1.715999991E-1,9.322500229E-1
1.239665611E0,9.913749993E-2,-2.120250016E-1,9.429749846E-1
1.241655460E0,1.109625027E-1,-2.407625020E-1,9.557625055E-1
1.243645519E0,1.237500012E-1,-2.578125000E-1,9.620875120E-1
1.245635368E0,1.375000030E-1,-2.748624980E-1,9.642875195E-1
1.247625289E0,1.471250057E-1,-2.813250124E-1,9.642875195E-1
1.249615137E0,1.673374921E-1,-2.833875120E-1,9.642875195E-1
1.251605212E0,1.801249981E-1,-2.876499891E-1,9.589250088E-1
1.253595060E0,1.960749924E-1,-3.004375100E-1,9.546625018E-1
1.255584897E0,2.173874974E-1,-3.100624979E-1,9.557625055E-1
1.257574818E0,2.429624945E-1,-3.026374876E-1,9.492999911E-1
1.259564666E0,2.642749846E-1,-3.026374876E-1,9.387124777E-1
1.261554512E0,2.770625055E-1,-2.950749993E-1,9.237250090E-1
1.263544587E0,2.802250087E-1,-2.887499928E-1,9.066749811E-1
1.265534513E0,2.824249864E-1,-2.652375102E-1,8.918250203E-1
1.267524368E0,2.909500003E-1,-2.450249940E-1,8.768374920E-1
1.269514443E0,2.994749844E-1,-2.194499969E-1,8.619874716E-1
1.271504060E0,3.048374951E-1,-2.014375031E-1,8.503000140E-1
1.273494135E0,3.079999983E-1,-1.938749999E-1,8.332499862E-1
1.275484060E0,3.133625090E-1,-1.938749999E-1,8.193625212E-1
1.277473906E0,3.143250048E-1,-1.992374957E-1,7.969499826E-1
1.279463747E0,3.176249862E-1,-2.046000063E-1,7.789375186E-1
1.281453822E0,3.207874894E-1,-2.227499932E-1,7.596874833E-1
1.283443670E0,3.335750103E-1,-2.344374955E-1,7.416750193E-1
1.285433591E0,3.398999870E-1,-2.472250015E-1,7.118374705E-1
1.287423440E0,3.409999907E-1,-2.503874898E-1,6.914874911E-1
1.289413296E0,3.452624977E-1,-2.131250054E-1,6.670125127E-1
1.291403142E0,3.484250009E-1,-1.640374959E-1,6.371750236E-1
1.293393217E0,3.389374912E-1,-1.182499975E-1,5.988125205E-1
1.295383142E0,3.398999870E-1,-6.613750011E-2,5.615500212E-1
1.297372988E0,3.304125071E-1,-2.667500079E-2,5.274500251E-1
1.299363063E0,3.313750029E-1,1.801249944E-2,4.955500066E-1
1.301352901E0,3.367374837E-1,5.747500062E-2,4.625499845E-1
1.303342747E0,3.335750103E-1,9.267500043E-2,4.380750060E-1
1.305332668E0,3.324750066E-1,1.352999955E-1,4.167625010E-1
1.307322517E0,3.293125033E-1,1.566125005E-1,3.986124992E-1
1.309312363E0,3.239499927E-1,1.692624986E-1,3.836250007E-1
1.311302438E0,3.176249862E-1,1.703625023E-1,3.687750101E-1
1.313292296E0,3.091000021E-1,1.618375033E-1,3.570874929E-1
1.315282217E0,2.994749844E-1,1.512500048E-1,3.463625014E-1
1.317272065E0,2.877874970E-1,1.490499973E-1,3.431999981E-1
1.319261911E0,2.844874859E-1,1.405249983E-1,3.443000019E-1
1.321251757E0,2.781625092E-1,1.310375035E-1,3.411374986E-1
1.323241832E0,2.696374953E-1,1.234750003E-1,3.400374949E-1
1.325231771E0,2.611125112E-1,1.171500012E-1,3.463625014E-1
1.327221618E0,2.611125112E-1,1.171500012E-1,3.548874855E-1
1.329211693E0,2.590500116E-1,1.182499975E-1,3.656125069E-1
1.331201541E0,2.600125074E-1,1.139874980E-1,3.772999942E-1
1.333191387E0,2.579500079E-1,1.171500012E-1,3.815625012E-1
1.335181308E0,2.568500042E-1,1.149500012E-1,3.900874853E-1
1.337171147E0,2.600125074E-1,1.234750003E-1,3.997125030E-1
1.339160993E0,2.547875047E-1,1.288374960E-1,4.060375094E-1
1.341151068E0,2.536875010E-1,1.288374960E-1,4.156624973E-1
1.343140916E0,2.505249977E-1,1.352999955E-1,4.295499921E-1
1.345130837E0,2.472250015E-1,1.416250020E-1,4.369750023E-1
1.347120686E0,2.440624982E-1,1.447875053E-1,4.444000125E-1
1.349110537E0,2.387000024E-1,1.501500010E-1,4.560874999E-1
1.351100612E0,2.344374955E-1,1.512500048E-1,4.625499845E-1
1.353090460E0,2.227499932E-1,1.512500048E-1,4.677749872E-1
1.355080381E0,2.216500044E-1,1.575749964E-1,4.720374942E-1
1.357070229E0,2.164250016E-1,1.586750001E-1,4.742375016E-1
1.359060304E0,2.131250054E-1,1.512500048E-1,4.785000086E-1
1.361050142E0,2.067999989E-1,1.618375033E-1,4.848249853E-1
1.363039988E0,2.153249979E-1,2.012999952E-1,4.901874959E-1
1.365029909E0,2.483250052E-1,3.238124847E-1,5.103999972E-1
1.367019758E0,2.429624945E-1,3.929750025E-1,5.126000047E-1
1.369009604E0,2.366375029E-1,4.218499959E-1,5.222250223E-1
1.370999679E0,2.046000063E-1,3.972375095E-1,5.264874697E-1
1.372989536E0,1.780624986E-1,3.557125032E-1,5.307499766E-1
1.374979457E0,1.630750000E-1,3.408625126E-1,5.435374975E-1
1.376969305E0,1.428624988E-1,3.525500000E-1,5.669124722E-1
1.378959380E0,1.215500012E-1,3.716624975E-1,6.115999818E-1
1.380949228E0,9.707500041E-2,3.557125032E-1,6.712750196E-1
1.382939074E0,5.871250108E-2,2.811875045E-1,6.808999777E-1
1.384928930E0,1.498750038E-2,1.523499936E-1,6.638500094E-1
1.386918851E0,-2.763750032E-2,-3.093750030E-2,6.319500208E-1
1.388908928E0,-6.696250290E-2,-2.173874974E-1,5.817624927E-1
1.390898777E0,-8.084999770E-2,-3.430624902E-1,5.211250186E-1
1.392888623E0,-8.621250093E-2,-4.059000015E-1,4.785000086E-1
1.394878544E0,-9.790000319E-2,-4.070000052E-1,4.284499884E-1
1.396868402E0,-1.138499975E-1,-3.632749915E-1,3.954499960E-1
1.398858248E0,-1.490499973E-1,-2.557500005E-1,2.888875008E-1
1.400848323E0,-1.916749924E-1,-1.363999993E-1,2.292124927E-1
1.402838171E0,-2.161500007E-1,-2.983750030E-2,2.079000026E-1
1.404828092E0,-2.096875012E-1,9.473749995E-2,2.164250016E-1
1.406817940E0,-1.852124929E-1,1.991000026E-1,2.249500006E-1
1.408807777E0,-1.500124931E-1,2.939749956E-1,2.440624982E-1
1.410797852E0,-1.138499975E-1,3.707000017E-1,2.675749958E-1
1.412787700E0,-8.827500045E-2,4.005374908E-1,2.686749995E-1
1.414777546E0,-7.232499868E-2,3.823874891E-1,2.494249940E-1
1.416767467E0,-7.122500241E-2,3.664374948E-1,2.314125001E-1
1.418757315E0,-8.291249722E-2,3.355000019E-1,1.982749999E-1
1.420747376E0,-1.032624990E-1,3.206500113E-1,1.727000028E-1
1.422737224E0,-1.383250058E-1,2.960374951E-1,1.407999992E-1
1.424727070E0,-1.798499972E-1,2.822875082E-1,1.174250022E-1
1.426716991E0,-2.172500044E-1,2.715624869E-1,9.075000137E-2
1.428706840E0,-2.554749846E-1,2.492875010E-1,6.833750010E-2
1.430696915E0,-2.928749919E-1,2.311374992E-1,4.812499881E-2
1.432686782E0,-3.162499964E-1,2.066625059E-1,4.069999978E-2
1.434676703E0,-3.418250084E-1,1.788875014E-1,3.959999979E-2
1.436666551E0,-3.588750064E-1,1.447875053E-1,3.959999979E-2
1.438656397E0,-3.822500110E-1,8.621250093E-2,4.922499880E-2
1.440646472E0,-4.068624973E-1,3.506249934E-2,5.238749832E-2
1.442636320E0,-4.206124842E-1,-1.278750040E-2,5.871250108E-2
1.444626250E0,-4.291374981E-1,-4.688749835E-2,6.943749636E-2
1.446616098E0,-4.441249967E-1,-7.782500237E-2,7.479999959E-2
1.448605945E0,-4.589749873E-1,-1.054624990E-1,8.002500236E-2
1.450776635E0,-4.771249890E-1,-1.310375035E-1,7.259999961E-2
1.452585868E0,-4.888125062E-1,-1.460250020E-1,7.150000334E-2
1.454575712E0,-5.047624707E-1,-1.523499936E-1,6.201250106E-2
1.456565592E0,-5.197499990E-1,-1.469874978E-1,5.555000156E-2
1.458555438E0,-5.303375125E-1,-1.310375035E-1,4.592499882E-2
1.460545515E0,-5.462874770E-1,-1.236125007E-1,3.423750028E-2
1.462535361E0,-5.601750016E-1,-1.204499975E-1,1.938750036E-2
1.464525284E0,-5.655375123E-1,-1.033999994E-1,5.499999970E-3
1.466515130E0,-5.783249736E-1,-8.635000139E-2,-1.044999994E-2
1.468504977E0,-5.974375010E-1,-5.541250110E-2,-4.028749838E-2
1.470495053E0,-6.272749901E-1,1.168750040E-2,-1.073874980E-1
1.472484902E0,-6.571124792E-1,7.562500238E-2,-1.383250058E-1
1.474474823E0,-6.678375006E-1,1.106875017E-1,-1.414874941E-1
1.476464671E0,-6.571124792E-1,1.299374998E-1,-1.212750003E-1
1.478454517E0,-6.348375082E-1,1.182499975E-1,-1.020250022E-1
1.480444572E0,-6.135249734E-1,9.267500043E-2,-8.291249722E-2
1.482434420E0,-5.879499912E-1,4.895000160E-2,-7.328750193E-2
1.484424266E0,-5.729625225E-1,1.168750040E-2,-6.586249918E-2
1.486414187E0,-5.410624743E-1,1.278750040E-2,-5.843750015E-2
1.488404036E0,-5.282750130E-1,1.594999991E-2,-4.991250113E-2
1.490394110E0,-5.229125023E-1,2.227500081E-2,-4.455000162E-2
1.492383959E0,-5.229125023E-1,2.653750032E-2,-3.602499887E-2
1.494373805E0,-5.197499990E-1,3.506249934E-2,-2.859999985E-2
1.496363726E0,-5.123249888E-1,4.468749836E-2,-3.176249936E-2
1.498353574E0,-5.005000234E-1,6.063750014E-2,-2.639999986E-2
1.500343649E0,-4.941749871E-1,6.489999592E-2,-2.323750034E-2
1.502333497E0,-4.877125025E-1,6.063750014E-2,-2.213750035E-2
1.504323403E0,-4.802874923E-1,6.489999592E-2,-1.361249946E-2
1.506313251E0,-4.749250114E-1,6.806249917E-2,-1.691249944E-2
1.508303097E0,-4.611749947E-1,7.136250287E-2,-9.349999949E-3
1.510293172E0,-4.441249967E-1,7.658749819E-2,-3.024999984E-3
1.512283021E0,-4.239124954E-1,7.988750190E-2,-1.924999990E-3
1.514272843E0,-4.014999866E-1,8.415000141E-2,7.699999958E-3
1.516262764E0,-3.822500110E-1,9.157499671E-2,2.048750035E-2
1.518252612E0,-3.557125032E-1,1.021625027E-1,2.901249938E-2
1.520242687E0,-3.343999982E-1,1.054624990E-1,3.959999979E-2
1.522232535E0,-3.066250086E-1,1.267749965E-1,5.238749832E-2
1.524222456E0,-2.843500078E-1,1.352999955E-1,5.981250107E-2
1.526212314E0,-2.608374953E-1,1.523499936E-1,7.576250285E-2
1.528202160E0,-2.459875047E-1,1.618375033E-1,8.648750186E-2
1.530192235E0,-2.331999987E-1,1.692624986E-1,9.611249715E-2
1.532182084E0,-2.246749997E-1,1.757249981E-1,1.067000031E-1
1.534172005E0,-2.215124965E-1,1.671999991E-1,1.183874980E-1
1.536161853E0,-2.054249942E-1,1.649999917E-1,1.259499937E-1
1.538151933E0,-1.948374957E-1,1.608749926E-1,1.291124970E-1
1.540141781E0,-1.777874976E-1,1.523499936E-1,1.322750002E-1
1.542131627E0,-1.627999991E-1,1.331000030E-1,1.387374997E-1
1.544121473E0,-1.618375033E-1,1.032624990E-1,1.461624950E-1
1.546111394E0,-1.585374922E-1,7.562500238E-2,1.439625025E-1
1.548101242E0,-1.351625025E-1,7.988750190E-2,1.482249945E-1
1.550091317E0,-1.212750003E-1,8.084999770E-2,1.482249945E-1
1.552081165E0,-1.032624990E-1,8.621250093E-2,1.578499973E-1
1.554071012E0,-7.975000143E-2,1.128875017E-1,1.632124931E-1
1.556060933E0,-4.881250113E-2,1.469874978E-1,1.737999916E-1
1.558050781E0,-3.286249936E-2,1.788875014E-1,1.727000028E-1
1.560040856E0,-2.337500080E-2,2.066625059E-1,1.695374995E-1
1.562030713E0,-3.396249935E-2,2.311374992E-1,1.567499936E-1
1.564020559E0,-4.028749838E-2,2.567124963E-1,1.396999955E-1
1.566010480E0,-4.991250113E-2,2.630375028E-1,1.419000030E-1
1.568000328E0,-4.881250113E-2,2.567124963E-1,1.493249983E-1
1.569990403E0,-4.455000162E-2,2.289374918E-1,1.674750000E-1
1.571980251E0,-4.358749837E-2,1.810874939E-1,1.834249943E-1
1.573970103E0,-4.028749838E-2,1.245749965E-1,2.015749961E-1
1.575960024E0,-3.822499886E-2,6.916250288E-2,2.153249979E-1
1.577949872E0,-4.248749837E-2,3.162499983E-3,2.292124927E-1
1.579939718E0,-5.211250111E-2,-5.004999787E-2,2.505249977E-1
1.581929793E0,-6.379999965E-2,-8.951249719E-2,2.771999836E-1
1.583919641E0,-7.864999771E-2,-1.343374997E-1,3.005749881E-1
1.585909562E0,-9.996250272E-2,-1.694000065E-1,3.155624866E-1
1.587899410E0,-1.266375035E-1,-2.035000026E-1,3.113000095E-1
1.589889485E0,-1.414874941E-1,-2.142249942E-1,2.909500003E-1
1.591879333E0,-1.692624986E-1,-2.023999989E-1,2.611125112E-1
1.593869180E0,-2.022625059E-1,-1.704999954E-1,1.982749999E-1
1.595859026E0,-2.278375030E-1,-1.225124970E-1,1.589500010E-1
1.597848947E0,-2.469500005E-1,-9.693749994E-2,1.333750039E-1
1.599839024E0,-2.608374953E-1,-7.782500237E-2,1.280124933E-1
1.601828872E0,-2.662000060E-1,-7.562500238E-2,1.322750002E-1
1.603818718E0,-2.715624869E-1,-8.524999768E-2,1.439625025E-1
1.605808639E0,-2.758249938E-1,-1.054624990E-1,1.674750000E-1
1.607798487E0,-2.843500078E-1,-1.289750040E-1,1.930499971E-1
1.609788347E0,-2.917749882E-1,-1.534499973E-1,2.047374994E-1
1.611778422E0,-3.077250123E-1,-1.725624949E-1,2.186249942E-1
1.613768271E0,-3.269749880E-1,-1.949750036E-1,2.206874937E-1
1.615758192E0,-3.492499888E-1,-1.875499934E-1,2.249500006E-1
1.617748040E0,-3.790875077E-1,-1.886499971E-1,2.089999914E-1
1.619738120E0,-4.035624862E-1,-1.768250018E-1,1.993750036E-1
1.621727968E0,-4.302375019E-1,-1.534499973E-1,1.876875013E-1
1.623717814E0,-4.504500031E-1,-1.204499975E-1,1.769624949E-1
1.625707735E0,-4.643374979E-1,-8.208750188E-2,1.652749926E-1
1.627697583E0,-4.739624858E-1,-4.056249931E-2,1.524875015E-1
1.629687658E0,-4.813874960E-1,-2.199999988E-3,1.396999955E-1
1.631677506E0,-4.877125025E-1,3.836249933E-2,1.216875017E-1
1.633667353E0,-5.005000234E-1,6.173750013E-2,1.067000031E-1
1.635657274E0,-5.229125023E-1,7.342500240E-2,8.112499863E-2
1.637647122E0,-5.420249701E-1,7.452499866E-2,6.407500058E-2
1.639636968E0,-5.590749979E-1,7.562500238E-2,5.128749833E-2
1.641627043E0,-5.666375160E-1,7.232499868E-2,3.643750027E-2
1.643616915E0,-5.676000118E-1,5.211250111E-2,2.364999987E-2
1.645606836E0,-5.718625188E-1,4.152499884E-2,1.292499993E-2
1.647596684E0,-5.803874731E-1,2.983750030E-2,1.374999993E-4
1.649586759E0,-5.783249736E-1,1.168750040E-2,-1.924999990E-3
1.651576607E0,-5.803874731E-1,3.162499983E-3,-6.187499966E-3
1.653566454E0,-5.857499838E-1,-1.182499994E-2,-9.349999949E-3
1.655556370E0,-5.836874843E-1,-1.498750038E-2,-1.361249946E-2
1.657546218E0,-5.846499801E-1,-2.034999989E-2,-1.264999993E-2
1.659536293E0,-5.900124907E-1,-2.241249941E-2,-1.787500083E-2
1.661526141E0,-5.931749940E-1,-2.667500079E-2,-1.471249945E-2
1.663515987E0,-5.953750014E-1,-2.983750030E-2,-1.581249945E-2
1.665505833E0,-5.953750014E-1,-3.313750029E-2,-1.361249946E-2
1.667495749E0,-5.931749940E-1,-3.946249932E-2,5.499999970E-3
1.669485597E0,-5.879499912E-1,-4.578749835E-2,1.938750036E-2
1.671475672E0,-5.911124945E-1,-5.967500061E-2,3.643750027E-2
1.673465520E0,-5.922124982E-1,-7.672499865E-2,4.812499881E-2
1.675455442E0,-5.889124870E-1,-8.841250092E-2,6.091250107E-2
1.677445290E0,-5.803874731E-1,-9.487500042E-2,6.407500058E-2
1.679435136E0,-5.687000155E-1,-1.011999995E-1,6.407500058E-2
1.681425211E0,-5.581125021E-1,-9.267500043E-2,7.576250285E-2
1.683415059E0,-5.505499840E-1,-1.044999957E-1,8.112499863E-2
1.685404980E0,-5.420249701E-1,-1.193500012E-1,8.332499862E-2
1.687394828E0,-5.314375162E-1,-1.363999993E-1,8.222500235E-2
1.689384903E0,-5.218124986E-1,-1.352999955E-1,9.281250089E-2
1.691374751E0,-5.154874921E-1,-1.480875015E-1,9.391249716E-2
1.693364597E0,-5.069624782E-1,-1.555124968E-1,9.501250088E-2
1.695354444E0,-4.910124838E-1,-1.651374996E-1,1.003749967E-1
1.697344365E0,-4.813874960E-1,-1.588124931E-1,1.055999994E-1
1.699334213E0,-4.643374979E-1,-1.545500010E-1,1.035374999E-1
1.701324288E0,-4.483875036E-1,-1.534499973E-1,1.055999994E-1
1.703314146E0,-4.302375019E-1,-1.619749963E-1,9.501250088E-2
1.705303992E0,-4.111250043E-1,-1.577125043E-1,7.906249911E-2
1.707293913E0,-3.822500110E-1,-1.469874978E-1,6.723749638E-2
1.709283761E0,-3.577750027E-1,-1.438249946E-1,5.238749832E-2
1.711273836E0,-3.301374912E-1,-1.300749928E-1,3.107500076E-2
1.713263684E0,-3.045625091E-1,-1.215500012E-1,1.718750037E-2
1.715253616E0,-2.693625093E-1,-9.693749994E-2,8.662499487E-3
1.717243464E0,-2.363625020E-1,-7.892499864E-2,6.599999964E-3
1.719233310E0,-2.129874974E-1,-7.892499864E-2,9.762499481E-3
1.721223385E0,-1.937374920E-1,-1.002374962E-1,-1.361249946E-2
1.723213233E0,-1.660999954E-1,-1.097249985E-1,-2.433750033E-2
1.725203079E0,-1.479499936E-1,-1.130250022E-1,-2.543750033E-2
1.727193004E0,-1.277374923E-1,-1.172875017E-1,-2.859999985E-2
1.729182852E0,-1.053249985E-1,-1.087625027E-1,-2.749999985E-2
1.731172698E0,-7.438749820E-2,-1.002374962E-1,-1.691249944E-2
1.733162773E0,-5.843750015E-2,-9.803749621E-2,1.374999993E-4
1.735152622E0,-4.455000162E-2,-1.065625027E-1,4.399999976E-3
1.737142543E0,-1.581249945E-2,-9.693749994E-2,2.997500077E-2
1.739132391E0,4.399999976E-3,-8.635000139E-2,5.555000156E-2
1.741122466E0,2.461249940E-2,-8.841250092E-2,7.906249911E-2
1.743112314E0,3.423750028E-2,-1.033999994E-1,9.075000137E-2
1.745102160E0,4.702499881E-2,-1.161874980E-1,9.707500041E-2
1.747092081E0,6.091250107E-2,-1.321374923E-1,1.077999994E-1
1.749081929E0,6.929999590E-2,-1.375000030E-1,1.109625027E-1
1.751071995E0,7.782500237E-2,-1.545500010E-1,1.098624989E-1
1.753061843E0,8.744999766E-2,-1.619749963E-1,1.088999957E-1
1.755051690E0,8.428750187E-2,-1.747625023E-1,1.003749967E-1
1.757041611E0,8.635000139E-2,-1.853500009E-1,8.964999765E-2
1.759031459E0,8.112499863E-2,-1.981374919E-1,8.428750187E-2
1.761021305E0,7.686249912E-2,-2.023999989E-1,7.686249912E-2
1.763011356E0,7.576250285E-2,-2.120250016E-1,6.943749636E-2
1.765001204E0,6.613750011E-2,-2.194499969E-1,6.517499685E-2
1.766991125E0,6.517499685E-2,-2.227499932E-1,6.833750010E-2
1.768980973E0,5.018749833E-2,-2.333374918E-1,6.201250106E-2
1.770970819E0,4.386249930E-2,-2.355374992E-1,6.407500058E-2
1.772960894E0,3.107500076E-2,-2.333374918E-1,6.723749638E-2
1.774950756E0,1.924999990E-2,-2.344374955E-1,6.627500057E-2
1.776940678E0,9.762499481E-3,-2.259124964E-1,6.627500057E-2
1.778930526E0,-2.062499989E-3,-2.216500044E-1,6.723749638E-2
1.780920601E0,-1.691249944E-2,-2.205500007E-1,6.627500057E-2
1.782910449E0,-3.286249936E-2,-2.151875049E-1,6.091250107E-2
1.784900295E0,-4.138749838E-2,-2.077624947E-1,5.664999783E-2
1.786890131E0,-5.307500064E-2,-1.949750036E-1,5.981250107E-2
1.788880052E0,-7.232499868E-2,-1.918125004E-1,5.128749833E-2
1.790869900E0,-7.975000143E-2,-1.768250018E-1,4.702499881E-2
1.792859975E0,-9.569999576E-2,-1.673374921E-1,4.386249930E-2
1.794849823E0,-1.021625027E-1,-1.545500010E-1,3.423750028E-2
1.796839745E0,-1.181124970E-1,-1.480875015E-1,2.571249940E-2
1.798829603E0,-1.203124970E-1,-1.310375035E-1,2.474999987E-2
1.800819449E0,-1.329624951E-1,-1.161874980E-1,1.718750037E-2
1.802809524E0,-1.340624988E-1,-9.487500042E-2,9.762499481E-3
1.804799372E0,-1.372250021E-1,-8.635000139E-2,1.237499993E-3
1.806789293E0,-1.372250021E-1,-6.710000336E-2,-7.287499961E-3
1.808779141E0,-1.362625062E-1,-5.967500061E-2,-9.349999949E-3
1.810768968E0,-1.329624951E-1,-5.004999787E-2,-1.581249945E-2
1.812758815E0,-1.266375035E-1,-3.629999980E-2,-1.787500083E-2
1.814748889E0,-1.138499975E-1,-2.887500077E-2,-2.117500082E-2
1.816738815E0,-1.064250022E-1,-3.093750030E-2,-2.117500082E-2
1.818728661E0,-8.717499673E-2,-2.887500077E-2,-2.117500082E-2
1.820718507E0,-7.012499869E-2,-2.887500077E-2,-2.213750035E-2
1.822708582E0,-5.307500064E-2,-2.667500079E-2,-2.007500082E-2
1.824698430E0,-3.079999983E-2,-2.351249941E-2,-1.691249944E-2
1.826688276E0,-1.484999992E-2,-2.887500077E-2,-1.264999993E-2
1.828678197E0,-2.062499989E-3,-3.203750029E-2,-7.287499961E-3
1.830668045E0,9.762499481E-3,-3.093750030E-2,5.499999970E-3
1.832658120E0,2.461249940E-2,-3.519999981E-2,2.474999987E-2
1.834647963E0,3.423750028E-2,-3.946249932E-2,3.849999979E-2
1.836637810E0,4.386249930E-2,-2.557500079E-2,6.091250107E-2
1.838627731E0,5.018749833E-2,-2.983750030E-2,8.112499863E-2
1.840617579E0,5.981250107E-2,-2.777500078E-2,9.391249716E-2
1.842607425E0,6.723749638E-2,-2.557500079E-2,1.174250022E-1
1.844597500E0,7.356250286E-2,-2.034999989E-2,1.333750039E-1
1.846587362E0,7.150000334E-2,-1.072499994E-2,1.482249945E-1
1.848577283E0,7.356250286E-2,-1.182499994E-2,1.599124968E-1
1.850567131E0,7.039999962E-2,-4.262499977E-3,1.748999953E-1
1.852556977E0,6.407500058E-2,-3.299999982E-3,1.759999990E-1
1.854547052E0,5.238749832E-2,-1.099999994E-3,1.834249943E-1
1.856536901E0,4.592499882E-2,9.487500414E-3,1.919499934E-1
1.858526852E0,3.739999980E-2,1.058750041E-2,1.940124929E-1
1.860516700E0,3.203750029E-2,1.801249944E-2,1.951124966E-1
1.862506775E0,2.254999988E-2,1.801249944E-2,1.887875050E-1
1.864496623E0,2.351249941E-2,2.983750030E-2,1.897500008E-1
1.866486469E0,1.402499992E-2,2.337500080E-2,1.759999990E-1
1.868476390E0,8.662499487E-3,2.653750032E-2,1.695374995E-1
1.870466243E0,5.499999970E-3,1.801249944E-2,1.610125005E-1
1.872456089E0,6.462499965E-3,2.337500080E-2,1.524875015E-1
1.874446164E0,8.662499487E-3,3.409999982E-2,1.504250020E-1
1.876436013E0,1.292499993E-2,3.836249933E-2,1.461624950E-1
1.878425859E0,1.828750037E-2,3.932499886E-2,1.387374997E-1
1.880415780E0,2.461249940E-2,4.152499884E-2,1.248499975E-1
1.882405618E0,2.997500077E-2,4.042499885E-2,1.098624989E-1
1.884395693E0,4.276249930E-2,4.358749837E-2,9.391249716E-2
1.886385541E0,5.664999783E-2,4.578749835E-2,7.796250284E-2
1.888375462E0,6.613750011E-2,4.578749835E-2,7.053750008E-2
1.890365310E0,8.208750188E-2,5.541250110E-2,5.871250108E-2
1.892355156E0,9.171249717E-2,5.115000159E-2,4.702499881E-2
1.894345241E0,1.033999994E-1,5.637500063E-2,3.533750027E-2
1.896335089E0,1.161874980E-1,4.895000160E-2,2.571249940E-2
1.898325011E0,1.247124970E-1,4.042499885E-2,1.622499898E-2
1.900314859E0,1.332374960E-1,3.299999982E-2,1.292499993E-2
1.902304705E0,1.450625062E-1,2.763750032E-2,1.086249948E-2
1.904294551E0,1.407999992E-1,1.278750040E-2,-1.924999990E-3
1.906284606E0,1.493249983E-1,4.262499977E-3,-5.087499972E-3
1.908274454E0,1.460250020E-1,-5.362499971E-3,-8.387500420E-3
1.910264375E0,1.428624988E-1,-1.182499994E-2,-1.787500083E-2
1.912254223E0,1.354375035E-1,-1.924999990E-2,-2.007500082E-2
1.914244070E0,1.289750040E-1,-2.557500079E-2,-2.859999985E-2
1.916234144E0,1.247124970E-1,-3.409999982E-2,-3.492499888E-2
1.918224003E0,1.183874980E-1,-3.409999982E-2,-3.822499886E-2
1.920213924E0,1.130250022E-1,-2.777500078E-2,-3.918749839E-2
1.922203772E0,1.076624990E-1,-1.924999990E-2,-3.712499887E-2
1.924193847E0,9.597499669E-2,-4.262499977E-3,-3.712499887E-2
1.926183695E0,8.318749815E-2,4.262499977E-3,-2.969999984E-2
1.928173616E0,7.356250286E-2,1.058750041E-2,-2.213750035E-2
1.930163464E0,5.761250108E-2,1.594999991E-2,-2.117500082E-2
1.932153310E0,4.482499883E-2,1.278750040E-2,-1.581249945E-2
1.934143156E0,3.533750027E-2,1.374999993E-2,-1.044999994E-2
1.936133231E0,1.608750038E-2,1.168750040E-2,-1.154999994E-2
1.938123080E0,7.562499959E-3,1.278750040E-2,-8.249999955E-4
1.940112907E0,-7.287499961E-3,1.704999991E-2,1.237499993E-3
1.942102828E0,-1.484999992E-2,1.704999991E-2,7.699999958E-3
1.944092676E0,-2.433750033E-2,2.021249942E-2,9.762499481E-3
1.946082751E0,-3.286249936E-2,1.374999993E-2,1.402499992E-2
1.948072599E0,-3.602499887E-2,2.131249942E-2,1.512499992E-2
1.950062520E0,-3.506249934E-2,1.278750040E-2,2.364999987E-2
1.952052368E0,-3.712499887E-2,9.624999948E-4,2.474999987E-2
1.954042214E0,-3.396249935E-2,-4.262499977E-3,3.327500075E-2
1.956032289E0,-3.079999983E-2,-4.262499977E-3,3.849999979E-2
1.958022138E0,-2.859999985E-2,-8.524999954E-3,4.166249931E-2
1.960012059E0,-2.337500080E-2,9.624999948E-4,4.386249930E-2
1.962001907E0,-1.691249944E-2,3.162499983E-3,4.069999978E-2
1.963991728E0,-1.264999993E-2,1.278750040E-2,3.533750027E-2
1.965981574E0,-1.058750041E-2,2.131249942E-2,2.571249940E-2
1.967971649E0,-4.124999978E-3,3.079999983E-2,2.048750035E-2
1.969961574E0,-2.062499989E-3,4.468749836E-2,1.196249947E-2
1.971951420E0,-4.124999978E-3,5.637500063E-2,-1.924999990E-3
1.973941266E0,6.462499965E-3,6.806249917E-2,-1.361249946E-2
1.975931361E0,6.462499965E-3,7.878749818E-2,-3.396249935E-2
1.977921210E0,1.402499992E-2,9.790000319E-2,-4.564999789E-2
1.979911056E0,1.402499992E-2,1.139874980E-1,-6.696250290E-2
1.981900977E0,1.828750037E-2,1.256749928E-1,-8.497499675E-2
1.983890825E0,1.924999990E-2,1.373624951E-1,-1.181124970E-1
1.985880900E0,2.461249940E-2,1.490499973E-1,-1.403875053E-1
1.987870728E0,2.997500077E-2,1.608749926E-1,-1.755875051E-1
1.989860649E0,3.203750029E-2,1.671999991E-1,-2.117500007E-1
1.991850497E0,3.203750029E-2,1.746249944E-1,-2.480500042E-1
1.993840343E0,3.739999980E-2,1.810874939E-1,-2.853125036E-1
1.995830190E0,-1.264999993E-2,1.117874980E-1,-2.938374877E-1
1.997820264E0,-7.122500241E-2,1.484999992E-2,-2.373249978E-1
1.999810176E0,-1.203124970E-1,-7.782500237E-2,-1.744875014E-1
2.001800022E0,-1.916749924E-1,-1.801249981E-1,-1.073874980E-1
2.003789868E0,-2.597374916E-1,-2.503874898E-1,-2.749999985E-2
2.005779714E0,-3.312374949E-1,-3.078624904E-1,5.238749832E-2
2.007769789E0,-3.918749988E-1,-3.621749878E-1,1.311749965E-1
2.009759637E0,-4.654375017E-1,-4.155249894E-1,2.015749961E-1
2.011749553E0,-5.357000232E-1,-4.772624969E-1,2.814624906E-1
2.013739401E0,-6.059625149E-1,-5.475249887E-1,3.485625088E-1
2.015729476E0,-6.656374931E-1,-5.912500024E-1,4.156624973E-1
2.017719324E0,-7.147250175E-1,-6.327750087E-1,4.742375016E-1
2.019709171E0,-7.455250025E-1,-6.466624737E-1,5.253875256E-1
2.021699092E0,-7.614749670E-1,-6.403374672E-1,5.561875105E-1
2.023688955E0,-7.614749670E-1,-6.040375233E-1,5.796999931E-1
2.025678801E0,-7.466250062E-1,-5.497249961E-1,5.807999969E-1
2.027668876E0,-7.104625106E-1,-4.633750021E-1,5.711749792E-1
2.029658724E0,-6.624749899E-1,-3.697375059E-1,5.381749868E-1
2.031648570E0,-6.050000191E-1,-2.748624980E-1,4.976125062E-1
2.033638491E0,-5.336375237E-1,-1.832875013E-1,4.529249966E-1
2.035628353E0,-4.569124877E-1,-9.693749994E-2,3.964124918E-1
2.037618428E0,-3.748250008E-1,-2.131249942E-2,3.431999981E-1
2.039608277E0,-2.949374914E-1,4.042499885E-2,2.888875008E-1
2.041598198E0,-2.150499970E-1,8.415000141E-2,2.303124964E-1
2.043588046E0,-1.329624951E-1,1.256749928E-1,1.780624986E-1
2.045577892E0,-6.063750014E-2,1.533125043E-1,1.344749928E-1
2.047567952E0,3.299999982E-3,1.660999954E-1,9.075000137E-2
2.049557800E0,6.723749638E-2,1.703625023E-1,5.871250108E-2
2.051547721E0,1.130250022E-1,1.586750001E-1,2.571249940E-2
2.053537492E0,1.493249983E-1,1.384624988E-1,8.662499487E-3
2.055527413E0,1.747625023E-1,1.139874980E-1,-1.924999990E-3
2.057517262E0,1.908500046E-1,8.621250093E-2,-3.024999984E-3
2.059507318E0,1.929125041E-1,5.747500062E-2,-1.924999990E-3
2.061497166E0,1.897500008E-1,2.873750031E-2,6.599999964E-3
2.063487087E0,1.790249944E-1,9.624999948E-4,1.292499993E-2
2.065476935E0,1.630750000E-1,-2.034999989E-2,2.474999987E-2
2.067466781E0,1.471250057E-1,-3.203750029E-2,4.702499881E-2
2.069456856E0,1.258125007E-1,-4.262499884E-2,5.555000156E-2
2.071446699E0,1.098624989E-1,-4.688749835E-2,7.576250285E-2
2.073436620E0,8.538749814E-2,-5.541250110E-2,8.002500236E-2
2.075426468E0,6.613750011E-2,-5.224999785E-2,9.391249716E-2
2.077416543E0,5.238749832E-2,-4.482499883E-2,1.013374999E-1
2.079406392E0,3.629999980E-2,-3.313750029E-2,1.046374962E-1
2.081396238E0,2.681249939E-2,-2.461249940E-2,1.109625027E-1
2.083386075E0,8.662499487E-3,-2.034999989E-2,1.120624989E-1
2.085375996E0,4.399999976E-3,-1.072499994E-2,1.109625027E-1
2.087365844E0,-9.624999948E-4,-6.462499965E-3,1.067000031E-1
2.089355919E0,1.374999993E-4,2.062499989E-3,1.003749967E-1
2.091345767E0,-4.124999978E-3,5.224999972E-3,9.391249716E-2
2.093335613E0,-2.062499989E-3,1.278750040E-2,9.391249716E-2
2.095325548E0,-3.024999984E-3,7.424999960E-3,8.002500236E-2
2.097315397E0,2.199999988E-3,1.168750040E-2,7.906249911E-2
2.099305471E0,6.462499965E-3,1.058750041E-2,7.576250285E-2
2.101295320E0,1.608750038E-2,8.524999954E-3,6.833750010E-2
2.103285241E0,1.718750037E-2,1.168750040E-2,6.627500057E-2
2.105275089E0,2.254999988E-2,1.911249943E-2,6.407500058E-2
2.107264921E0,2.571249940E-2,2.337500080E-2,6.297499686E-2
2.109254996E0,3.107500076E-2,2.653750032E-2,5.444999784E-2
2.111244844E0,3.107500076E-2,3.409999982E-2,5.555000156E-2
2.113234690E0,3.423750028E-2,3.409999982E-2,5.128749833E-2
2.115224536E0,3.849999979E-2,3.932499886E-2,5.664999783E-2
2.117214458E0,3.313750029E-2,3.726249933E-2,4.812499881E-2
2.119204301E0,2.887500077E-2,4.358749837E-2,5.128749833E-2
2.121194376E0,2.461249940E-2,3.726249933E-2,4.702499881E-2
2.123184224E0,1.828750037E-2,3.836249933E-2,5.018749833E-2
2.125174145E0,1.292499993E-2,3.299999982E-2,5.238749832E-2
2.127163993E0,5.499999970E-3,2.653750032E-2,5.238749832E-2
2.129153839E0,-4.124999978E-3,2.983750030E-2,5.018749833E-2
2.131143933E0,-8.387500420E-3,2.763750032E-2,5.775000155E-2
2.133133781E0,-1.484999992E-2,2.983750030E-2,5.981250107E-2
2.135123702E0,-2.433750033E-2,3.299999982E-2,5.555000156E-2
2.137113551E0,-3.176249936E-2,2.653750032E-2,5.981250107E-2
2.139103397E0,-3.932499886E-2,3.299999982E-2,5.871250108E-2
2.141093472E0,-4.564999789E-2,3.409999982E-2,5.128749833E-2
2.143083330E0,-5.211250111E-2,3.932499886E-2,5.871250108E-2
2.145073251E0,-6.159999967E-2,4.042499885E-2,5.555000156E-2
2.147063099E0,-6.270000339E-2,4.262499884E-2,5.555000156E-2
2.149052945E0,-6.586249918E-2,5.004999787E-2,5.871250108E-2
2.151043020E0,-6.586249918E-2,4.784999788E-2,6.201250106E-2
2.153032868E0,-6.806249917E-2,4.688749835E-2,6.091250107E-2
2.155022738E0,-6.379999965E-2,4.895000160E-2,6.297499686E-2
2.157012659E0,-6.270000339E-2,5.431250110E-2,6.517499685E-2
2.159002508E0,-5.527500063E-2,5.967500061E-2,6.201250106E-2
2.160992583E0,-4.991250113E-2,5.431250110E-2,6.201250106E-2
2.162982431E0,-4.675000161E-2,5.321250111E-2,5.664999783E-2
2.164972277E0,-3.712499887E-2,5.431250110E-2,5.444999784E-2
2.166962198E0,-2.859999985E-2,5.004999787E-2,5.444999784E-2
2.168952046E0,-2.227500081E-2,5.004999787E-2,4.702499881E-2
2.170942121E0,-1.058750041E-2,3.932499886E-2,5.018749833E-2
2.172931969E0,-3.024999984E-3,3.836249933E-2,5.128749833E-2
2.174921815E0,2.199999988E-3,3.616249934E-2,5.128749833E-2
2.176911662E0,1.072499994E-2,2.873750031E-2,5.018749833E-2
2.178901582E0,2.034999989E-2,1.911249943E-2,4.922499880E-2
2.180891659E0,2.461249940E-2,2.763750032E-2,5.128749833E-2
2.182881507E0,2.777500078E-2,2.337500080E-2,5.348749831E-2
2.184871353E0,3.203750029E-2,1.594999991E-2,5.871250108E-2
2.186861274E0,3.959999979E-2,1.484999992E-2,5.981250107E-2
2.188851122E0,3.739999980E-2,1.278750040E-2,6.407500058E-2
2.190840988E0,3.629999980E-2,1.168750040E-2,6.943749636E-2
2.192831063E0,3.959999979E-2,1.484999992E-2,7.150000334E-2
2.194820911E0,4.166249931E-2,1.374999993E-2,7.150000334E-2
2.196810832E0,3.739999980E-2,1.484999992E-2,7.906249911E-2
2.198800681E0,3.629999980E-2,1.278750040E-2,7.576250285E-2
2.200790527E0,3.313750029E-2,9.487500414E-3,8.002500236E-2
2.202780368E0,3.107500076E-2,1.168750040E-2,8.428750187E-2
2.204770443E0,3.107500076E-2,1.168750040E-2,8.428750187E-2
2.206760291E0,3.107500076E-2,8.524999954E-3,8.855000138E-2
2.208750212E0,2.571249940E-2,7.424999960E-3,8.855000138E-2
2.210740289E0,2.034999989E-2,1.278750040E-2,9.391249716E-2
2.212729906E0,1.924999990E-2,1.374999993E-2,9.391249716E-2
2.214719981E0,1.292499993E-2,1.801249944E-2,9.707500041E-2
2.216709829E0,1.072499994E-2,2.131249942E-2,1.024374962E-1
2.218699751E0,9.762499481E-3,2.337500080E-2,1.024374962E-1
2.220689599E0,8.662499487E-3,2.337500080E-2,1.046374962E-1
2.222679674E0,7.562499959E-3,3.409999982E-2,1.067000031E-1
2.224669522E0,4.399999976E-3,3.932499886E-2,1.088999957E-1
2.226659353E0,4.399999976E-3,4.042499885E-2,1.088999957E-1
2.228649274E0,3.299999982E-3,4.358749837E-2,1.120624989E-1
2.230639122E0,2.199999988E-3,4.895000160E-2,1.163249984E-1
2.232629197E0,1.374999993E-4,5.004999787E-2,1.163249984E-1
2.234619045E0,3.299999982E-3,5.967500061E-2,1.226499975E-1
2.236608891E0,9.762499481E-3,6.283749640E-2,1.311749965E-1
2.238598793E0,4.399999976E-3,5.857500061E-2,1.269125044E-1
2.240588641E0,3.299999982E-3,6.489999592E-2,1.365374923E-1
2.242578487E0,8.662499487E-3,6.063750014E-2,1.419000030E-1
2.244568562E0,7.562499959E-3,5.747500062E-2,1.407999992E-1
2.246558410E0,4.399999976E-3,6.283749640E-2,1.461624950E-1
2.248548276E0,3.299999982E-3,6.806249917E-2,1.535875052E-1
2.250544889E0,1.374999993E-4,6.599999964E-2,1.535875052E-1
2.252528045E0,1.374999993E-4,7.232499868E-2,1.556500047E-1
2.254518120E0,-4.124999978E-3,7.342500240E-2,1.556500047E-1
2.256507966E0,-7.287499961E-3,7.452499866E-2,1.546874940E-1
2.258497889E0,-1.484999992E-2,7.768750191E-2,1.556500047E-1
2.260487764E0,-1.911249943E-2,7.768750191E-2,1.471250057E-1
2.262477610E0,-2.337500080E-2,7.232499868E-2,1.450625062E-1
2.264467456E0,-3.506249934E-2,7.658749819E-2,1.354375035E-1
2.266457533E0,-3.396249935E-2,7.232499868E-2,1.259499937E-1
2.268447381E0,-4.455000162E-2,6.806249917E-2,1.098624989E-1
2.270437302E0,-4.675000161E-2,7.232499868E-2,1.055999994E-1
2.272427160E0,-5.307500064E-2,7.988750190E-2,9.281250089E-2
2.274417006E0,-4.991250113E-2,7.768750191E-2,8.428750187E-2
2.276407081E0,-5.637500063E-2,7.658749819E-2,7.150000334E-2
2.278396930E0,-5.527500063E-2,8.084999770E-2,5.981250107E-2
2.280386851E0,-5.843750015E-2,7.342500240E-2,5.238749832E-2
2.282376699E0,-5.843750015E-2,7.658749819E-2,4.276249930E-2
2.284366540E0,-6.159999967E-2,7.768750191E-2,2.681249939E-2
2.286356615E0,-5.733750015E-2,7.878749818E-2,1.622499898E-2
2.288346463E0,-5.733750015E-2,9.157499671E-2,8.662499487E-3
2.290336384E0,-5.527500063E-2,9.899999946E-2,1.374999993E-4
2.292326232E0,-3.822499886E-2,9.473749995E-2,-1.044999994E-2
2.294316078E0,-9.624999948E-4,8.731249720E-2,-2.213750035E-2
2.296305925E0,5.018749833E-2,8.621250093E-2,-1.787500083E-2
2.298296000E0,8.964999765E-2,8.415000141E-2,-1.581249945E-2
2.300285925E0,1.044999957E-1,9.157499671E-2,-6.187499966E-3
2.302275771E0,1.161874980E-1,9.363749623E-2,-4.124999978E-3
2.304265617E0,1.141249985E-1,9.899999946E-2,-1.924999990E-3
2.306255463E0,1.076624990E-1,1.097249985E-1,8.662499487E-3
2.308245533E0,9.707500041E-2,1.054624990E-1,8.662499487E-3
2.310235381E0,9.817499667E-2,9.693749994E-2,1.938750036E-2
2.312225302E0,9.913749993E-2,7.878749818E-2,2.048750035E-2
2.314215150E0,1.055999994E-1,6.173750013E-2,2.571249940E-2
2.316205225E0,1.044999957E-1,4.784999788E-2,2.571249940E-2
2.318195073E0,1.109625027E-1,3.726249933E-2,2.791249938E-2
2.320184920E0,1.130250022E-1,2.983750030E-2,2.144999988E-2
2.322174841E0,1.226499975E-1,2.557500079E-2,2.571249940E-2
2.324164689E0,1.258125007E-1,2.021249942E-2,2.144999988E-2
2.326154764E0,1.258125007E-1,1.058750041E-2,1.718750037E-2
2.328144612E0,1.226499975E-1,1.058750041E-2,1.938750036E-2
2.330134458E0,1.119249985E-1,3.162499983E-3,4.399999976E-3
2.332124375E0,1.024374962E-1,2.062499989E-3,9.762499481E-3
2.334114223E0,8.635000139E-2,9.624999948E-4,8.662499487E-3
2.336104070E0,6.929999590E-2,4.262499977E-3,9.762499481E-3
2.338094144E0,4.386249930E-2,1.168750040E-2,8.662499487E-3
2.340083993E0,2.144999988E-2,8.524999954E-3,7.699999958E-3
2.342073839E0,1.374999993E-4,7.424999960E-3,1.196249947E-2
2.344063721E0,-2.653750032E-2,5.224999972E-3,1.196249947E-2
2.346053569E0,-4.455000162E-2,-3.299999982E-3,2.144999988E-2
2.348043644E0,-6.489999592E-2,-4.262499977E-3,2.474999987E-2
2.350033492E0,-8.195000142E-2,-1.388750039E-2,2.474999987E-2
2.352023413E0,-9.473749995E-2,-1.704999991E-2,2.681249939E-2
2.354013184E0,-1.075249985E-1,-2.557500079E-2,3.217500076E-2
2.356003105E0,-1.170125008E-1,-2.983750030E-2,3.327500075E-2
2.357992954E0,-1.160499975E-1,-3.629999980E-2,4.166249931E-2
2.359983029E0,-1.160499975E-1,-4.262499884E-2,5.444999784E-2
2.361972954E0,-1.053249985E-1,-4.908749834E-2,6.723749638E-2
2.363962800E0,-9.996250272E-2,-4.908749834E-2,8.222500235E-2
2.365952646E0,-8.621250093E-2,-4.152499884E-2,9.817499667E-2
2.367942492E0,-7.975000143E-2,-3.409999982E-2,1.174250022E-1
2.369932567E0,-7.122500241E-2,-2.241249941E-2,1.354375035E-1
2.371922415E0,-6.586249918E-2,-2.199999988E-3,1.556500047E-1
2.373912336E0,-5.953750014E-2,1.801249944E-2,1.759999990E-1
2.375902184E0,-4.564999789E-2,3.299999982E-2,1.908500046E-1
2.377892031E0,-3.506249934E-2,4.262499884E-2,2.025374919E-1
2.379882101E0,-2.007500082E-2,5.967500061E-2,2.228875011E-1
2.381871949E0,-9.487500414E-3,7.136250287E-2,2.366375029E-1
2.383861795E0,2.199999988E-3,7.232499868E-2,2.516250014E-1
2.385851716E0,1.498750038E-2,8.304999769E-2,2.675749958E-1
2.387841564E0,2.997500077E-2,7.878749818E-2,2.857249975E-1
2.389831639E0,4.812499881E-2,8.731249720E-2,2.952125072E-1
2.391821502E0,6.297499686E-2,8.415000141E-2,3.079999983E-1
2.393811348E0,7.576250285E-2,8.084999770E-2,3.155624866E-1
2.395801269E0,8.002500236E-2,8.304999769E-2,3.229874969E-1
2.397791118E0,8.964999765E-2,8.841250092E-2,3.326124847E-1
2.399781193E0,9.597499669E-2,9.047500044E-2,3.378374875E-1
2.401771041E0,9.817499667E-2,8.511249721E-2,3.346749842E-1
2.403760868E0,9.487500042E-2,7.988750190E-2,3.357749879E-1
2.405750789E0,9.061250091E-2,7.342500240E-2,3.326124847E-1
2.407740637E0,8.964999765E-2,7.136250287E-2,3.378374875E-1
2.409730712E0,7.892499864E-2,6.379999965E-2,3.474625051E-1
2.411720560E0,7.259999961E-2,6.599999964E-2,3.570874929E-1
2.413710406E0,5.871250108E-2,5.747500062E-2,3.623124957E-1
2.415700336E0,5.018749833E-2,5.541250110E-2,3.793624938E-1
2.417690185E0,3.959999979E-2,5.115000159E-2,3.964124918E-1
2.419680259E0,3.423750028E-2,4.152499884E-2,4.006749988E-1
2.421670108E0,2.777500078E-2,3.932499886E-2,4.039750099E-1
2.423659954E0,2.461249940E-2,3.409999982E-2,4.124999940E-1
2.425649800E0,2.681249939E-2,3.836249933E-2,4.252874851E-1
2.427639741E0,2.997500077E-2,5.004999787E-2,4.347749949E-1
2.429629589E0,2.997500077E-2,4.152499884E-2,4.347749949E-1
2.431619664E0,3.629999980E-2,3.726249933E-2,4.390375018E-1
2.433609512E0,4.592499882E-2,3.932499886E-2,4.369750023E-1
2.435599358E0,5.128749833E-2,4.042499885E-2,4.433000088E-1
2.437589280E0,5.761250108E-2,4.784999788E-2,4.464625120E-1
2.439579123E0,6.297499686E-2,5.431250110E-2,4.540250003E-1
2.441569198E0,6.833750010E-2,6.916250288E-2,4.646124840E-1
2.443559046E0,7.686249912E-2,7.658749819E-2,4.742375016E-1
2.445548892E0,8.208750188E-2,8.415000141E-2,4.933499992E-1
2.447538738E0,7.892499864E-2,9.047500044E-2,5.072374940E-1
2.449528659E0,7.892499864E-2,1.064250022E-1,5.307499766E-1
2.451518703E0,6.929999590E-2,1.203124970E-1,5.647125244E-1
2.453508551E0,6.613750011E-2,1.458874941E-1,6.030749679E-1
2.455498397E0,6.187500060E-2,1.810874939E-1,6.542249918E-1
2.457488244E0,4.908749834E-2,2.237125039E-1,7.224249840E-1
2.459478165E0,3.423750028E-2,2.641375065E-1,7.863624692E-1
2.461468013E0,2.571249940E-2,3.003000021E-1,8.289874792E-1
2.463458078E0,2.144999988E-2,3.195500076E-1,8.577250242E-1
2.465447926E0,2.144999988E-2,3.386625051E-1,8.630874753E-1
2.467437772E0,2.681249939E-2,3.525500000E-1,8.597875237E-1
2.469427693E0,2.887500077E-2,3.557125032E-1,8.512625098E-1
2.471417541E0,3.849999979E-2,3.547500074E-1,8.364124894E-1
2.473407616E0,3.959999979E-2,3.514499962E-1,8.173000216E-1
2.475397464E0,5.018749833E-2,3.471874893E-1,8.002499938E-1
2.477387311E0,5.761250108E-2,3.343999982E-1,7.756375074E-1
2.479377157E0,5.981250107E-2,3.206500113E-1,7.511624694E-1
2.481367078E0,6.517499685E-2,2.960374951E-1,7.298499942E-1
2.483356926E0,7.150000334E-2,2.704625130E-1,7.064750195E-1
2.485347001E0,7.150000334E-2,2.417249978E-1,6.862624884E-1
2.487336863E0,7.782500237E-2,2.183499932E-1,6.712750196E-1
2.489326709E0,7.782500237E-2,1.863124967E-1,6.542249918E-1
2.491316630E0,8.208750188E-2,1.597750038E-1,6.478999853E-1
2.493306478E0,8.112499863E-2,1.299374998E-1,6.467999816E-1
2.495296553E0,8.208750188E-2,1.043625027E-1,6.414374709E-1
2.497286402E0,7.892499864E-2,7.768750191E-2,6.404749751E-1
2.499276328E0,8.428750187E-2,5.857500061E-2,6.499624848E-1
2.501266176E0,8.428750187E-2,3.506249934E-2,6.573874950E-1
2.503256022E0,7.686249912E-2,3.162499983E-3,6.564249992E-1
2.505245868E0,7.576250285E-2,-1.814999990E-2,6.627500057E-1
2.507235943E0,7.782500237E-2,-4.152499884E-2,6.734749675E-1
2.509225781E0,7.576250285E-2,-6.393750012E-2,6.786999702E-1
2.511215702E0,7.039999962E-2,-8.951249719E-2,6.905249953E-1
2.513205550E0,6.723749638E-2,-1.119249985E-1,6.947875023E-1
2.515195397E0,6.091250107E-2,-1.332374960E-1,6.990500093E-1
2.517185471E0,5.335000157E-2,-1.395625025E-1,7.064750195E-1
2.519175320E0,3.533750027E-2,-1.608749926E-1,7.033125162E-1
2.521165251E0,1.828750037E-2,-1.736624986E-1,6.990500093E-1
2.523155099E0,5.499999970E-3,-1.949750036E-1,6.979500055E-1
2.525144945E0,-1.154999994E-2,-2.035000026E-1,6.905249953E-1
2.527135020E0,-2.763750032E-2,-2.046000063E-1,6.840624809E-1
2.529124868E0,-4.881250113E-2,-2.088624984E-1,6.701750159E-1
2.531114789E0,-6.270000339E-2,-2.131250054E-1,6.681125164E-1
2.533104675E0,-8.511249721E-2,-2.248124927E-1,6.531249881E-1
2.535094522E0,-9.899999946E-2,-2.290749997E-1,6.425374746E-1
2.537084596E0,-1.192125008E-1,-2.290749997E-1,6.319500208E-1
2.539074445E0,-1.405249983E-1,-2.407625020E-1,6.223250031E-1
2.541064366E0,-1.607374996E-1,-2.355374992E-1,6.180624962E-1
2.543054214E0,-1.883749962E-1,-2.205500007E-1,6.254875064E-1
2.545044060E0,-2.044624984E-1,-2.066625059E-1,6.319500208E-1
2.547033906E0,-2.310000062E-1,-1.929125041E-1,6.382749677E-1
2.549023981E0,-2.512125075E-1,-1.886499971E-1,6.329125166E-1
2.551013829E0,-2.693625093E-1,-1.896124929E-1,6.254875064E-1
2.553003750E0,-2.843500078E-1,-1.810874939E-1,6.021124721E-1
2.554993599E0,-3.003000021E-1,-1.875499934E-1,5.774999857E-1
2.556983440E0,-3.194124997E-1,-1.801249981E-1,5.476624966E-1
2.558973515E0,-3.429250121E-1,-1.725624949E-1,5.179625154E-1
2.560963363E0,-3.609375060E-1,-1.694000065E-1,4.966500103E-1
2.562953284E0,-3.727625012E-1,-1.630750000E-1,4.796000123E-1
2.564943132E0,-3.727625012E-1,-1.512500048E-1,4.625499845E-1
2.566932978E0,-3.833499849E-1,-1.469874978E-1,4.497624934E-1
2.568922824E0,-3.759250045E-1,-1.363999993E-1,4.475624859E-1
2.570912899E0,-3.801875114E-1,-1.343374997E-1,4.433000088E-1
2.572902824E0,-3.727625012E-1,-1.310375035E-1,4.475624859E-1
2.574892670E0,-3.535124958E-1,-1.289750040E-1,4.592500031E-1
2.576882517E0,-3.471874893E-1,-1.310375035E-1,4.677749872E-1
2.578872363E0,-3.312374949E-1,-1.343374997E-1,4.742375016E-1
2.580862424E0,-3.130874932E-1,-1.300749928E-1,4.827624857E-1
2.582852272E0,-2.917749882E-1,-1.343374997E-1,4.901874959E-1
2.584842193E0,-2.715624869E-1,-1.375000030E-1,5.009124875E-1
2.586832041E0,-2.502500117E-1,-1.332374960E-1,5.103999972E-1
2.588822116E0,-2.352624983E-1,-1.384624988E-1,5.189250112E-1
2.590811964E0,-2.215124965E-1,-1.512500048E-1,5.296499729E-1
2.592801839E0,-2.001999915E-1,-1.523499936E-1,5.444999933E-1
2.594791760E0,-1.809500009E-1,-1.577125043E-1,5.572875142E-1
2.596781609E0,-1.660999954E-1,-1.502874941E-1,5.743374825E-1
2.598771455E0,-1.457500011E-1,-1.491875052E-1,5.935875177E-1
2.600761530E0,-1.329624951E-1,-1.438249946E-1,6.115999818E-1
2.602751378E0,-1.234750003E-1,-1.460250020E-1,6.223250031E-1
2.604741209E0,-1.127500013E-1,-1.406625062E-1,6.382749677E-1
2.606731130E0,-1.138499975E-1,-1.438249946E-1,6.521624923E-1
2.608720978E0,-1.127500013E-1,-1.375000030E-1,6.701750159E-1
2.610711053E0,-1.117874980E-1,-1.310375035E-1,6.829624772E-1
2.612700901E0,-1.181124970E-1,-1.310375035E-1,6.936874986E-1
2.614690747E0,-1.192125008E-1,-1.258125007E-1,7.096375227E-1
2.616680649E0,-1.308999956E-1,-1.193500012E-1,7.138999701E-1
2.618670497E0,-1.372250021E-1,-1.065625027E-1,7.181624770E-1
2.620660572E0,-1.436875015E-1,-1.011999995E-1,7.298499942E-1
2.622650420E0,-1.585374922E-1,-9.171249717E-2,7.320500016E-1
2.624640266E0,-1.735250056E-1,-7.782500237E-2,7.416750193E-1
2.626630187E0,-1.883749962E-1,-6.819999963E-2,7.448375225E-1
2.628620045E0,-2.033624947E-1,-5.004999787E-2,7.490999699E-1
2.630610120E0,-2.204124928E-1,-3.946249932E-2,7.543249726E-1
2.632599968E0,-2.384250015E-1,-2.557500079E-2,7.607874870E-1
2.634589814E0,-2.576749921E-1,-1.924999990E-2,7.671124935E-1
2.636579661E0,-2.673000097E-1,-1.072499994E-2,7.682124972E-1
2.638569582E0,-2.864125073E-1,-4.262499977E-3,7.704125047E-1
2.640559430E0,-3.003000021E-1,-1.099999994E-3,7.735750079E-1
2.642549505E0,-3.151499927E-1,-0.000000000E0,7.671124935E-1
2.644539353E0,-3.269749880E-1,-7.562499959E-3,7.661499977E-1
2.646529199E0,-3.429250121E-1,-1.388750039E-2,7.607874870E-1
2.648519120E0,-3.481499851E-1,-2.667500079E-2,7.522624731E-1
2.650508968E0,-3.588750064E-1,-4.482499883E-2,7.383750081E-1
2.652499057E0,-3.609375060E-1,-6.613750011E-2,7.298499942E-1
2.654488905E0,-3.631374836E-1,-8.524999768E-2,7.107374668E-1
2.656478752E0,-3.588750064E-1,-1.087625027E-1,6.957499981E-1
2.658468598E0,-3.535124958E-1,-1.332374960E-1,6.797999740E-1
2.660458519E0,-3.418250084E-1,-1.534499973E-1,6.616500020E-1
2.662448596E0,-3.258749843E-1,-1.768250018E-1,6.478999853E-1
2.664438449E0,-3.099249899E-1,-2.003374994E-1,6.351125240E-1
2.666428295E0,-2.895750105E-1,-2.184875011E-1,6.254875064E-1
2.668418141E0,-2.693625093E-1,-2.439250052E-1,6.191624999E-1
2.670408062E0,-2.565749884E-1,-2.705999911E-1,6.158624887E-1
2.672397910E0,-2.417249978E-1,-2.950749993E-1,6.084374785E-1
2.674387985E0,-2.246749997E-1,-3.217499852E-1,6.084374785E-1
2.676377795E0,-2.150499970E-1,-3.419624865E-1,6.106374860E-1
2.678367716E0,-2.033624947E-1,-3.643749952E-1,6.095374823E-1
2.680357564E0,-1.937374920E-1,-3.834874928E-1,6.126999855E-1
2.682347410E0,-1.926375031E-1,-4.038375020E-1,6.084374785E-1
2.684337485E0,-2.224749923E-1,-4.016374946E-1,6.084374785E-1
2.686327338E0,-2.704625130E-1,-3.356375098E-1,5.913875103E-1
2.688317184E0,-3.599750102E-1,-2.802250087E-1,5.680124760E-1
2.690307030E0,-4.430249929E-1,-2.216500044E-1,5.392749906E-1
2.692296951E0,-5.090249777E-1,-1.758625060E-1,5.040749907E-1
2.694286800E0,-5.655375123E-1,-1.491875052E-1,4.763000011E-1
2.696276875E0,-6.305750012E-1,-1.352999955E-1,4.433000088E-1
2.698266733E0,-6.826875210E-1,-1.161874980E-1,4.241875112E-1
2.700256579E0,-7.306749821E-1,-1.161874980E-1,4.017750025E-1
2.702246500E0,-7.699999809E-1,-1.108250022E-1,3.858250082E-1
2.704236348E0,-8.168874979E-1,-1.065625027E-1,3.730374873E-1
2.706226423E0,-8.669375181E-1,-9.803749621E-2,3.591499925E-1
2.708216271E0,-9.095624685E-1,-8.635000139E-2,3.548874855E-1
2.710206182E0,-9.532874823E-1,-6.929999590E-2,3.443000019E-1
2.712196030E0,-1.011862516E0,-3.836249933E-2,3.315125108E-1
2.714185877E0,-1.070437551E0,-2.199999988E-3,3.229874969E-1
2.716175952E0,-1.119524956E0,3.932499886E-2,3.079999983E-1
2.718165800E0,-1.178099990E0,8.415000141E-2,2.888875008E-1
2.720155646E0,-1.272837520E0,1.288374960E-1,2.644124925E-1
2.722145548E0,-1.331412435E0,1.683000028E-1,2.388374954E-1
2.724135396E0,-1.396450043E0,1.885125041E-1,2.143625021E-1
2.726125242E0,-1.469874978E0,2.151875049E-1,1.823250055E-1
2.728115317E0,-1.575337529E0,2.662000060E-1,1.524875015E-1
2.730105165E0,-1.685062528E0,3.195500076E-1,1.183874980E-1
2.732095086E0,-1.778837442E0,3.940750062E-1,9.281250089E-2
2.734084944E0,-1.834249973E0,3.983374834E-1,6.297499686E-2
2.736074790E0,-1.842774987E0,3.855499923E-1,2.254999988E-2
2.738064865E0,-1.852399945E0,3.355000019E-1,6.599999964E-3
2.740054713E0,-1.854462504E0,2.960374951E-1,-1.897500083E-2
2.742044634E0,-1.852399945E0,2.364999950E-1,-5.101250112E-2
2.744034482E0,-1.866150022E0,1.820500046E-1,-6.792499870E-2
2.746024343E0,-1.913037539E0,1.288374960E-1,-9.776250273E-2
2.748014418E0,-1.980137467E0,1.299374998E-1,-1.233374998E-1
2.750004266E0,-2.064287424E0,1.395625025E-1,-1.489125043E-1
2.751994187E0,-2.129324913E0,1.000999957E-1,-1.681624949E-1
2.753984036E0,-2.178274870E0,4.262499884E-2,-1.872749925E-1
2.755973882E0,-2.226262569E0,-2.351249941E-2,-1.979999989E-1
2.757963728E0,-2.237950087E0,-1.097249985E-1,-2.096875012E-1
2.759953803E0,-2.215674877E0,-1.992374957E-1,-2.117500007E-1
2.761943651E0,-2.194362402E0,-2.748624980E-1,-2.224749923E-1
2.763933572E0,-2.129324913E0,-3.547500074E-1,-2.128500044E-1
2.765923420E0,-2.036649942E0,-4.294124842E-1,-2.000624985E-1
2.767913266E0,-1.953599930E0,-4.687374830E-1,-1.937374920E-1
2.769903350E0,-1.870412469E0,-4.922499955E-1,-1.766874939E-1
2.771893198E0,-1.786262512E0,-5.007749796E-1,-1.627999991E-1
2.773883119E0,-1.713937521E0,-5.124624968E-1,-1.489125043E-1
2.775872968E0,-1.629787445E0,-5.156250000E-1,-1.297999918E-1
2.777862814E0,-1.555124998E0,-5.050374866E-1,-1.127500013E-1
2.779852660E0,-1.491187453E0,-4.655750096E-1,-9.033749998E-2
2.781842731E0,-1.430549979E0,-4.229499996E-1,-7.644999772E-2
2.783832579E0,-1.376237512E0,-3.953124881E-1,-5.953750014E-2
2.785822425E0,-1.311200023E0,-3.493874967E-1,-4.455000162E-2
2.787812346E0,-1.243000031E0,-2.972750068E-1,-2.323750034E-2
2.789802194E0,-1.185524940E0,-2.387000024E-1,-7.287499961E-3
2.791792269E0,-1.120487452E0,-1.960749924E-1,4.399999976E-3
2.793782113E0,-1.058750033E0,-1.491875052E-1,2.681249939E-2
2.795771959E0,-9.916499853E-1,-1.247124970E-1,3.959999979E-2
2.797761880E0,-9.191874862E-1,-1.172875017E-1,5.664999783E-2
2.799751728E0,-8.498874903E-1,-1.139874980E-1,8.428750187E-2
2.801741803E0,-7.753624916E-1,-1.534499973E-1,1.013374999E-1
2.803731651E0,-6.954749823E-1,-2.109249979E-1,1.259499937E-1
2.805721497E0,-6.283749938E-1,-2.993375063E-1,1.471250057E-1
2.807711418E0,-5.612750053E-1,-3.973749876E-1,1.706375033E-1
2.809701266E0,-4.930749834E-1,-5.178250074E-1,1.897500008E-1
2.811691341E0,-4.217124879E-1,-6.179249883E-1,2.164250016E-1
2.813681190E0,-3.471874893E-1,-7.041375041E-1,2.440624982E-1
2.815671036E0,-2.587749958E-1,-7.372750044E-1,2.664749920E-1
2.817660872E0,-1.746249944E-1,-7.297124863E-1,2.824249864E-1
2.819650793E0,-7.975000143E-2,-6.881874800E-1,2.994749844E-1
2.821640641E0,8.662499487E-3,-6.285125017E-1,3.091000021E-1
2.823630716E0,9.061250091E-2,-5.571500063E-1,3.207874894E-1
2.825620564E0,1.545500010E-1,-4.709374905E-1,3.293125033E-1
2.827610410E0,2.056999952E-1,-3.729000092E-1,3.400374949E-1
2.829600341E0,2.451625019E-1,-2.748624980E-1,3.485625088E-1
2.831590190E0,2.750000060E-1,-1.673374921E-1,3.645125031E-1
2.833580264E0,2.844874859E-1,-6.503749639E-2,3.943499923E-1
2.835570113E0,2.770625055E-1,1.374999993E-2,4.412375093E-1
2.837559959E0,2.675749958E-1,6.173750013E-2,5.146625042E-1
2.839549805E0,2.355374992E-1,6.283749640E-2,6.063749790E-1
2.841539677E0,1.971749961E-1,4.468749836E-2,7.405750155E-1
2.843529525E0,1.460250020E-1,3.726249933E-2,9.142374992E-1
2.845519371E0,8.635000139E-2,5.431250110E-2,1.132587552E0
2.847509446E0,8.662499487E-3,1.064250022E-1,1.374312520E0
2.849499294E0,-7.438749820E-2,2.140875012E-1,1.640650034E0
2.851489216E0,-1.553750038E-1,3.184500039E-1,1.913450003E0
2.853479055E0,-2.172500044E-1,4.111250043E-1,2.175387383E0
2.855469130E0,-2.778874934E-1,5.091624856E-1,2.405562401E0
2.857458978E0,-3.205125034E-1,5.964750051E-1,2.594074965E0
2.859448824E0,-3.471874893E-1,6.635749936E-1,2.709162474E0
2.861438745E0,-3.503499925E-1,6.870874763E-1,2.736799955E0
2.863428593E0,-3.321999907E-1,6.710000038E-1,2.686749935E0
2.865418663E0,-3.045625091E-1,6.370375156E-1,2.563275099E0
2.867408511E0,-2.619374990E-1,5.825874805E-1,2.373524904E0
2.869398357E0,-2.118874937E-1,5.091624856E-1,2.136062384E0
2.871388278E0,-1.660999954E-1,4.346374869E-1,1.866562486E0
2.873378127E0,-1.192125008E-1,3.462249935E-1,1.577812433E0
2.875367973E0,-8.291249722E-2,2.556124926E-1,1.276412487E0
2.877357829E0,-4.455000162E-2,1.703625023E-1,9.770749807E-1
2.879347904E0,-1.691249944E-2,8.621250093E-2,6.851624846E-1
2.881337829E0,1.072499994E-2,-1.099999994E-3,4.252874851E-1
2.883327675E0,3.203750029E-2,-8.318749815E-2,1.876875013E-1
2.885317521E0,3.739999980E-2,-1.502874941E-1,-1.897500083E-2
2.887307367E0,3.423750028E-2,-2.023999989E-1,-1.755875051E-1
2.889297446E0,1.924999990E-2,-2.429624945E-1,-2.842124999E-1
2.891287295E0,1.374999993E-4,-2.887499928E-1,-3.396250010E-1
2.893277216E0,-3.176249936E-2,-3.334375024E-1,-3.470500112E-1
2.895267064E0,-6.916250288E-2,-3.803249896E-1,-3.257375062E-1
2.897256910E0,-9.473749995E-2,-4.070000052E-1,-2.660624981E-1
2.899246771E0,-1.149500012E-1,-4.186874926E-1,-2.043250054E-1
2.901236846E0,-1.138499975E-1,-3.995749950E-1,-1.308999956E-1
2.903226771E0,-1.138499975E-1,-3.729000092E-1,-6.792499870E-2
2.905216617E0,-9.569999576E-2,-3.163875043E-1,-2.749999985E-2
2.907206463E0,-6.063750014E-2,-2.535499930E-1,-3.024999984E-3
2.909196310E0,-2.433750033E-2,-1.896124929E-1,4.399999976E-3
2.911186404E0,1.828750037E-2,-1.289750040E-1,1.374999993E-4
2.913176252E0,6.407500058E-2,-8.524999768E-2,-4.124999978E-3
2.915166173E0,1.067000031E-1,-5.004999787E-2,-1.264999993E-2
2.917156021E0,1.460250020E-1,-3.629999980E-2,-2.213750035E-2
2.919145867E0,1.737999916E-1,-3.836249933E-2,-2.749999985E-2
2.921135942E0,1.960749924E-1,-4.688749835E-2,-2.969999984E-2
2.923125771E0,1.960749924E-1,-6.077500060E-2,-2.749999985E-2
2.925115692E0,1.982749999E-1,-7.039999962E-2,-2.213750035E-2
2.927105540E0,1.843875051E-1,-8.318749815E-2,-1.154999994E-2
2.929095387E0,1.673374921E-1,-9.171249717E-2,-7.287499961E-3
2.931085233E0,1.482249945E-1,-9.803749621E-2,1.374999993E-4
2.933075308E0,1.215500012E-1,-1.097249985E-1,3.437499981E-3
2.935065165E0,9.913749993E-2,-1.204499975E-1,1.237499993E-3
2.937055011E0,7.576250285E-2,-1.289750040E-1,-4.124999978E-3
2.939044932E0,6.407500058E-2,-1.332374960E-1,-4.124999978E-3
2.941034780E0,4.702499881E-2,-1.384624988E-1,-6.187499966E-3
2.943024855E0,3.959999979E-2,-1.406625062E-1,-7.287499961E-3
2.945014703E0,2.777500078E-2,-1.469874978E-1,-1.154999994E-2
2.947004540E0,2.144999988E-2,-1.438249946E-1,-1.264999993E-2
2.948994462E0,2.144999988E-2,-1.460250020E-1,-6.187499966E-3
2.950984310E0,1.608750038E-2,-1.469874978E-1,-6.187499966E-3
2.952974385E0,2.144999988E-2,-1.438249946E-1,1.237499993E-3
2.954964233E0,1.608750038E-2,-1.449249983E-1,-8.249999955E-4
2.956954079E0,2.144999988E-2,-1.321374923E-1,4.399999976E-3
2.958943925E0,2.144999988E-2,-1.215500012E-1,8.662499487E-3
2.960933846E0,2.351249941E-2,-1.054624990E-1,1.086249948E-2
2.962923923E0,2.777500078E-2,-9.171249717E-2,1.402499992E-2
2.964913771E0,2.997500077E-2,-7.988750190E-2,1.718750037E-2
2.966903617E0,3.107500076E-2,-7.356250286E-2,1.086249948E-2
2.968893464E0,3.107500076E-2,-7.562500238E-2,1.292499993E-2
2.970883385E0,3.203750029E-2,-7.562500238E-2,1.086249948E-2
2.972873233E0,2.681249939E-2,-8.318749815E-2,1.086249948E-2
2.974863308E0,2.997500077E-2,-8.951249719E-2,1.086249948E-2
2.976853156E0,2.571249940E-2,-9.693749994E-2,9.762499481E-3
2.978843002E0,2.144999988E-2,-1.011999995E-1,6.599999964E-3
2.980832923E0,2.254999988E-2,-1.097249985E-1,8.662499487E-3
2.982822795E0,2.034999989E-2,-1.076624990E-1,2.337499987E-3
2.984812641E0,2.254999988E-2,-1.150875017E-1,1.237499993E-3
2.986802716E0,2.254999988E-2,-1.108250022E-1,-3.024999984E-3
2.988792565E0,2.777500078E-2,-1.119249985E-1,-1.924999990E-3
2.990782411E0,2.681249939E-2,-1.193500012E-1,-7.287499961E-3
2.992772332E0,3.423750028E-2,-1.204499975E-1,-9.349999949E-3
2.994762200E0,3.423750028E-2,-1.236125007E-1,-9.349999949E-3
2.996752046E0,3.423750028E-2,-1.258125007E-1,-1.581249945E-2
2.998742121E0,3.203750029E-2,-1.332374960E-1,-1.691249944E-2
3.000731969E0,3.107500076E-2,-1.406625062E-1,-1.581249945E-2
3.002721890E0,2.681249939E-2,-1.384624988E-1,-1.787500083E-2
3.004711738E0,2.351249941E-2,-1.438249946E-1,-2.213750035E-2
3.006701590E0,2.254999988E-2,-1.469874978E-1,-1.787500083E-2
3.008691665E0,2.144999988E-2,-1.427250057E-1,-1.897500083E-2
3.010681513E0,2.254999988E-2,-1.395625025E-1,-1.691249944E-2
3.012671434E0,1.402499992E-2,-1.417624950E-1,-1.787500083E-2
3.014661282E0,1.718750037E-2,-1.332374960E-1,-1.471249945E-2
3.016651128E0,1.402499992E-2,-1.310375035E-1,-1.361249946E-2
3.018641212E0,1.498750038E-2,-1.289750040E-1,-1.264999993E-2
3.020631060E0,1.498750038E-2,-1.247124970E-1,-1.044999994E-2
3.022620981E0,1.608750038E-2,-1.225124970E-1,-7.287499961E-3
3.024610752E0,1.402499992E-2,-1.278750002E-1,-9.349999949E-3
3.026600674E0,1.292499993E-2,-1.236125007E-1,-1.044999994E-2
3.028590522E0,9.762499481E-3,-1.278750002E-1,-1.044999994E-2
3.030580630E0,1.292499993E-2,-1.300749928E-1,-6.187499966E-3
3.032570555E0,1.182499994E-2,-1.289750040E-1,-6.187499966E-3
3.034560324E0,6.462499965E-3,-1.321374923E-1,-7.287499961E-3
3.036550245E0,9.762499481E-3,-1.363999993E-1,-6.187499966E-3
3.038540093E0,1.402499992E-2,-1.395625025E-1,-4.124999978E-3
3.040530168E0,1.292499993E-2,-1.480875015E-1,-7.287499961E-3
3.042520040E0,1.182499994E-2,-1.588124931E-1,-6.187499966E-3
3.044509886E0,1.402499992E-2,-1.630750000E-1,-6.187499966E-3
3.046499808E0,1.608750038E-2,-1.619749963E-1,-1.154999994E-2
3.048495403E0,1.828750037E-2,-1.725624949E-1,-1.044999994E-2
3.050489654E0,2.144999988E-2,-1.801249981E-1,-8.387500420E-3
3.052469579E0,2.034999989E-2,-1.853500009E-1,-9.349999949E-3
3.054459457E0,2.681249939E-2,-1.886499971E-1,-1.154999994E-2
3.056449380E0,3.107500076E-2,-1.971749961E-1,-1.154999994E-2
3.058439226E0,2.777500078E-2,-2.056999952E-1,-8.387500420E-3
3.060429072E0,3.107500076E-2,-2.109249979E-1,-5.087499972E-3
3.062419149E0,2.887500077E-2,-2.259124964E-1,-1.154999994E-2
3.064408997E0,2.997500077E-2,-2.290749997E-1,-8.387500420E-3
3.066398819E0,3.423750028E-2,-2.312749922E-1,-5.087499972E-3
3.068388740E0,2.887500077E-2,-2.333374918E-1,-1.924999990E-3
3.070378588E0,2.887500077E-2,-2.312749922E-1,-1.924999990E-3
3.072368434E0,2.997500077E-2,-2.344374955E-1,3.437499981E-3
3.074358509E0,3.107500076E-2,-2.290749997E-1,1.374999993E-4
3.076348357E0,3.533750027E-2,-2.237125039E-1,3.437499981E-3
3.078338278E0,3.423750028E-2,-2.259124964E-1,1.374999993E-4
3.080328126E0,3.107500076E-2,-2.184875011E-1,1.237499993E-3
3.082318201E0,3.629999980E-2,-2.162874937E-1,4.399999976E-3
3.084307819E0,3.423750028E-2,-2.248124927E-1,1.374999993E-4
3.086297894E0,3.849999979E-2,-2.205500007E-1,4.399999976E-3
3.088287742E0,3.629999980E-2,-2.237125039E-1,-5.087499972E-3
3.090277654E0,3.739999980E-2,-2.237125039E-1,-1.924999990E-3
3.092267502E0,4.166249931E-2,-2.312749922E-1,-8.387500420E-3
3.094257348E0,3.849999979E-2,-2.301750034E-1,-9.349999949E-3
3.096247423E0,4.166249931E-2,-2.290749997E-1,-1.154999994E-2
3.098237271E0,3.739999980E-2,-2.312749922E-1,-1.264999993E-2
3.100227192E0,4.276249930E-2,-2.333374918E-1,-1.787500083E-2
3.102217025E0,4.056249931E-2,-2.301750034E-1,-2.117500082E-2
3.104206872E0,4.276249930E-2,-2.312749922E-1,-2.213750035E-2
3.106196947E0,4.482499883E-2,-2.227499932E-1,-2.543750033E-2
3.108186795E0,4.592499882E-2,-2.184875011E-1,-2.323750034E-2
3.110176641E0,4.386249930E-2,-2.099625021E-1,-2.117500082E-2
3.112166487E0,4.056249931E-2,-2.046000063E-1,-2.433750033E-2
3.114156418E0,4.702499881E-2,-1.949750036E-1,-2.323750034E-2
3.116146266E0,4.702499881E-2,-1.896124929E-1,-2.213750035E-2
3.118136341E0,4.908749834E-2,-1.801249981E-1,-2.323750034E-2
3.120126189E0,4.386249930E-2,-1.790249944E-1,-2.007500082E-2
3.122116110E0,4.386249930E-2,-1.768250018E-1,-2.007500082E-2
3.124105959E0,3.739999980E-2,-1.715999991E-1,-1.581249945E-2
3.126095786E0,3.533750027E-2,-1.694000065E-1,-1.264999993E-2
3.128085861E0,3.107500076E-2,-1.608749926E-1,-7.287499961E-3
3.130075709E0,3.533750027E-2,-1.619749963E-1,-3.024999984E-3
3.132065555E0,3.533750027E-2,-1.555124968E-1,-4.124999978E-3
3.134055476E0,2.997500077E-2,-1.555124968E-1,-1.924999990E-3
3.136045324E0,3.423750028E-2,-1.480875015E-1,7.699999958E-3
3.138035399E0,3.313750029E-2,-1.460250020E-1,7.699999958E-3
3.140025017E0,3.107500076E-2,-1.469874978E-1,1.196249947E-2
3.142015091E0,3.313750029E-2,-1.375000030E-1,1.718750037E-2
3.144005017E0,2.997500077E-2,-1.375000030E-1,1.718750037E-2
3.145994863E0,3.629999980E-2,-1.332374960E-1,1.622499898E-2
3.147984709E0,3.533750027E-2,-1.278750002E-1,1.828750037E-2
3.149974559E0,3.533750027E-2,-1.161874980E-1,1.938750036E-2
3.151964634E0,3.849999979E-2,-1.087625027E-1,2.144999988E-2
3.153954482E0,3.849999979E-2,-9.803749621E-2,2.364999987E-2
3.155944403E0,3.423750028E-2,-9.487500042E-2,2.048750035E-2
3.157934251E0,3.959999979E-2,-8.951249719E-2,2.364999987E-2
3.159924097E0,3.739999980E-2,-8.841250092E-2,2.048750035E-2
3.161914158E0,3.423750028E-2,-8.415000141E-2,2.144999988E-2
3.163904007E0,4.166249931E-2,-7.892499864E-2,2.364999987E-2
3.165893928E0,3.849999979E-2,-7.988750190E-2,1.718750037E-2
3.167883776E0,4.386249930E-2,-7.782500237E-2,1.938750036E-2
3.169873622E0,4.056249931E-2,-8.318749815E-2,1.512499992E-2
3.171863468E0,4.386249930E-2,-7.892499864E-2,1.292499993E-2
3.173853515E0,4.702499881E-2,-7.988750190E-2,1.512499992E-2
3.175843363E0,5.555000156E-2,-7.892499864E-2,1.622499898E-2
3.177833209E0,5.238749832E-2,-8.318749815E-2,1.086249948E-2
3.179823130E0,5.444999784E-2,-8.635000139E-2,1.086249948E-2
3.181812979E0,5.664999783E-2,-9.377499670E-2,7.699999958E-3
3.183803054E0,6.187500060E-2,-9.171249717E-2,7.699999958E-3
3.185792891E0,5.664999783E-2,-9.693749994E-2,4.399999976E-3
3.187782737E0,6.187500060E-2,-9.597499669E-2,3.437499981E-3
3.189772658E0,6.297499686E-2,-9.693749994E-2,4.399999976E-3
3.191762506E0,6.517499685E-2,-9.377499670E-2,1.374999993E-4
3.193752581E0,6.297499686E-2,-1.002374962E-1,1.374999993E-4
3.195742429E0,6.407500058E-2,-1.044999957E-1,2.337499987E-3
3.197732271E0,6.187500060E-2,-1.023000032E-1,1.237499993E-3
3.199722118E0,6.297499686E-2,-9.913749993E-2,1.237499993E-3
3.201712039E0,6.297499686E-2,-8.951249719E-2,3.437499981E-3
3.203702116E0,5.981250107E-2,-8.841250092E-2,1.374999993E-4
3.205691964E0,5.444999784E-2,-8.524999768E-2,1.237499993E-3
3.207681810E0,5.444999784E-2,-7.562500238E-2,3.437499981E-3
3.209671641E0,5.664999783E-2,-7.246249914E-2,1.374999993E-4
3.211661562E0,4.812499881E-2,-6.283749640E-2,-4.124999978E-3
3.213651639E0,5.128749833E-2,-5.967500061E-2,-4.124999978E-3
3.215641256E0,4.812499881E-2,-5.224999785E-2,-1.924999990E-3
3.217631331E0,4.702499881E-2,-4.578749835E-2,-4.124999978E-3
3.219621194E0,4.812499881E-2,-4.262499884E-2,-8.387500420E-3
3.221611116E0,5.018749833E-2,-4.482499883E-2,-5.087499972E-3
3.223600964E0,4.592499882E-2,-3.946249932E-2,-1.044999994E-2
3.225590810E0,4.482499883E-2,-3.836249933E-2,-1.361249946E-2
3.227580885E0,4.908749834E-2,-3.726249933E-2,-1.044999994E-2
3.229570733E0,4.386249930E-2,-4.482499883E-2,-1.787500083E-2
3.231560639E0,4.482499883E-2,-4.482499883E-2,-1.154999994E-2
3.233550487E0,4.702499881E-2,-4.578749835E-2,-1.154999994E-2
3.235540333E0,4.702499881E-2,-5.004999787E-2,-1.264999993E-2
3.237530408E0,4.702499881E-2,-5.431250110E-2,-1.264999993E-2
3.239520256E0,4.908749834E-2,-5.431250110E-2,-1.361249946E-2
3.241510103E0,5.335000157E-2,-5.761250108E-2,-1.361249946E-2
3.243500019E0,5.335000157E-2,-6.283749640E-2,-1.361249946E-2
3.245489867E0,5.335000157E-2,-6.503749639E-2,-1.154999994E-2
3.247479713E0,5.664999783E-2,-6.819999963E-2,-1.154999994E-2
3.249469788E0,5.238749832E-2,-6.710000336E-2,-1.154999994E-2
3.251459636E0,5.981250107E-2,-7.039999962E-2,-1.471249945E-2
3.253449482E0,5.335000157E-2,-6.929999590E-2,-1.361249946E-2
3.255439432E0,5.444999784E-2,-6.613750011E-2,-1.264999993E-2
3.257429280E0,5.018749833E-2,-6.929999590E-2,-1.264999993E-2
3.259419127E0,5.128749833E-2,-6.710000336E-2,-1.581249945E-2
3.261409202E0,5.128749833E-2,-6.613750011E-2,-1.581249945E-2
3.263399050E0,4.592499882E-2,-6.187500060E-2,-1.471249945E-2
3.265388896E0,4.386249930E-2,-6.393750012E-2,-1.471249945E-2
3.267378822E0,4.482499883E-2,-5.541250110E-2,-1.471249945E-2
3.269368670E0,4.592499882E-2,-5.004999787E-2,-1.581249945E-2
3.271358745E0,4.702499881E-2,-4.372499883E-2,-1.154999994E-2
3.273348593E0,4.702499881E-2,-3.946249932E-2,-1.264999993E-2
3.275338439E0,5.018749833E-2,-2.667500079E-2,-1.044999994E-2
3.277328360E0,5.128749833E-2,-1.704999991E-2,-1.361249946E-2
3.279318209E0,5.238749832E-2,-7.562499959E-3,-1.154999994E-2
3.281308055E0,5.444999784E-2,-1.099999994E-3,-8.387500420E-3
3.283298130E0,5.128749833E-2,3.162499983E-3,-1.044999994E-2
3.285287978E0,5.238749832E-2,1.278750040E-2,-1.361249946E-2
3.287277899E0,5.664999783E-2,1.911249943E-2,-1.044999994E-2
3.289267747E0,5.238749832E-2,2.557500079E-2,-9.349999949E-3
3.291257593E0,5.335000157E-2,2.653750032E-2,-1.154999994E-2
3.293247668E0,5.871250108E-2,3.616249934E-2,-8.387500420E-3
3.295237516E0,5.555000156E-2,3.506249934E-2,-1.044999994E-2
3.297227437E0,5.871250108E-2,4.042499885E-2,-7.287499961E-3
3.299217286E0,5.664999783E-2,3.616249934E-2,-1.154999994E-2
3.301207132E0,5.871250108E-2,3.409999982E-2,-8.387500420E-3
3.303197216E0,5.871250108E-2,3.079999983E-2,-7.287499961E-3
3.305187064E0,5.664999783E-2,2.337500080E-2,-6.187499966E-3
3.307176910E0,5.871250108E-2,2.021249942E-2,-6.187499966E-3
3.309166756E0,5.871250108E-2,1.594999991E-2,-4.124999978E-3
3.311156677E0,5.871250108E-2,6.324999966E-3,-4.124999978E-3
3.313146525E0,5.761250108E-2,-3.299999982E-3,-7.287499961E-3
3.315136610E0,5.981250107E-2,-1.182499994E-2,-6.187499966E-3
3.317126458E0,5.555000156E-2,-2.667500079E-2,-8.249999955E-4
3.319116305E0,5.761250108E-2,-2.777500078E-2,-3.024999984E-3
3.321106151E0,5.761250108E-2,-3.093750030E-2,1.374999993E-4
3.323096072E0,5.761250108E-2,-3.629999980E-2,-8.249999955E-4
3.325086149E0,5.444999784E-2,-4.372499883E-2,-3.024999984E-3
3.327075997E0,5.664999783E-2,-4.372499883E-2,-3.024999984E-3
3.329065843E0,5.128749833E-2,-4.262499884E-2,-8.249999955E-4
3.331055689E0,4.812499881E-2,-4.688749835E-2,-5.087499972E-3
3.333045610E0,4.592499882E-2,-5.115000159E-2,-5.087499972E-3
3.335035459E0,4.702499881E-2,-4.578749835E-2,-5.087499972E-3
3.337025305E0,4.592499882E-2,-4.578749835E-2,-7.287499961E-3
3.339015389E0,4.482499883E-2,-4.578749835E-2,-3.024999984E-3
3.341005237E0,4.702499881E-2,-3.836249933E-2,-5.087499972E-3
3.342995158E0,4.592499882E-2,-3.946249932E-2,-7.287499961E-3
3.344985006E0,4.056249931E-2,-4.056249931E-2,-8.387500420E-3
3.346974852E0,4.482499883E-2,-2.777500078E-2,-7.287499961E-3
3.348964927E0,4.386249930E-2,-2.131249942E-2,-6.187499966E-3
3.350954785E0,4.386249930E-2,-1.498750038E-2,-4.124999978E-3
3.352944631E0,4.482499883E-2,-4.262499977E-3,-5.087499972E-3
3.354934552E0,4.482499883E-2,-0.000000000E0,-5.087499972E-3
3.356924401E0,4.812499881E-2,7.424999960E-3,2.337499987E-3
3.358914476E0,5.018749833E-2,1.801249944E-2,-8.249999955E-4
3.360904324E0,5.018749833E-2,2.557500079E-2,3.437499981E-3
3.362894250E0,4.812499881E-2,3.616249934E-2,1.237499993E-3
3.364884021E0,5.128749833E-2,3.616249934E-2,3.437499981E-3
3.366873942E0,5.018749833E-2,4.152499884E-2,1.237499993E-3
3.368863790E0,4.812499881E-2,4.262499884E-2,1.374999993E-4
3.370853865E0,5.128749833E-2,4.784999788E-2,1.237499993E-3
3.372843713E0,4.908749834E-2,4.784999788E-2,5.499999970E-3
3.374833585E0,5.018749833E-2,4.688749835E-2,1.237499993E-3
3.376823506E0,4.908749834E-2,4.578749835E-2,1.374999993E-4
3.378813354E0,5.128749833E-2,5.115000159E-2,1.374999993E-4
3.380803200E0,5.238749832E-2,4.468749836E-2,-1.924999990E-3
3.382793275E0,5.444999784E-2,4.358749837E-2,-8.249999955E-4
3.384783123E0,5.018749833E-2,4.262499884E-2,-3.024999984E-3
3.386773044E0,5.761250108E-2,4.358749837E-2,-1.924999990E-3
3.388762892E0,5.761250108E-2,3.726249933E-2,-4.124999978E-3
3.390752738E0,5.444999784E-2,3.616249934E-2,-4.124999978E-3
3.392742585E0,5.444999784E-2,3.189999983E-2,-5.087499972E-3
3.394732660E0,5.761250108E-2,2.557500079E-2,-5.087499972E-3
3.396722508E0,5.664999783E-2,2.021249942E-2,-6.187499966E-3
3.398712443E0,5.444999784E-2,1.374999993E-2,-4.124999978E-3
3.400702291E0,4.702499881E-2,1.058750041E-2,-7.287499961E-3
3.402692137E0,4.386249930E-2,-1.099999994E-3,-3.024999984E-3
3.404682212E0,3.959999979E-2,-7.562499959E-3,-4.124999978E-3
3.406672060E0,3.107500076E-2,-1.814999990E-2,-5.087499972E-3
3.408661962E0,3.849999979E-2,-2.034999989E-2,-3.024999984E-3
3.410651733E0,2.997500077E-2,-3.519999981E-2,-7.287499961E-3
3.412641655E0,3.107500076E-2,-4.372499883E-2,-3.024999984E-3
3.414631731E0,2.777500078E-2,-5.004999787E-2,-4.124999978E-3
3.416621580E0,2.777500078E-2,-5.431250110E-2,-4.124999978E-3
3.418611426E0,2.777500078E-2,-6.393750012E-2,-8.249999955E-4
3.420601248E0,2.887500077E-2,-7.466249913E-2,1.237499993E-3
3.422591169E0,2.681249939E-2,-8.098749816E-2,5.499999970E-3
3.424581017E0,2.887500077E-2,-8.744999766E-2,4.399999976E-3
3.426571092E0,2.777500078E-2,-9.597499669E-2,6.599999964E-3
3.428560940E0,2.777500078E-2,-9.803749621E-2,5.499999970E-3
3.430550786E0,2.997500077E-2,-1.044999957E-1,1.402499992E-2
3.432540688E0,3.533750027E-2,-1.044999957E-1,1.622499898E-2
3.434530536E0,3.203750029E-2,-1.044999957E-1,2.254999988E-2
3.436520382E0,2.997500077E-2,-1.023000032E-1,2.144999988E-2
3.438510457E0,3.313750029E-2,-9.693749994E-2,2.791249938E-2
3.440500305E0,3.313750029E-2,-8.841250092E-2,2.681249939E-2
3.442490226E0,3.107500076E-2,-8.524999768E-2,2.997500077E-2
3.444480055E0,2.887500077E-2,-7.892499864E-2,3.107500076E-2
3.446469901E0,2.461249940E-2,-7.562500238E-2,3.107500076E-2
3.448459976E0,2.144999988E-2,-7.562500238E-2,3.533750027E-2
3.450449824E0,1.924999990E-2,-6.929999590E-2,3.423750028E-2
3.452439671E0,1.718750037E-2,-6.929999590E-2,3.423750028E-2
3.454429592E0,1.072499994E-2,-7.782500237E-2,2.997500077E-2
3.456419426E0,1.182499994E-2,-7.672499865E-2,3.327500075E-2
3.458409272E0,4.399999976E-3,-8.415000141E-2,3.533750027E-2
3.460399347E0,1.374999993E-4,-8.415000141E-2,3.217500076E-2
3.462389195E0,-4.124999978E-3,-8.524999768E-2,3.423750028E-2
3.464379041E0,-7.287499961E-3,-8.841250092E-2,3.327500075E-2
3.466368962E0,-8.387500420E-3,-9.487500042E-2,3.107500076E-2
3.468358805E0,-1.484999992E-2,-1.011999995E-1,2.901249938E-2
3.470348880E0,-1.154999994E-2,-1.033999994E-1,2.681249939E-2
3.472338729E0,-1.911249943E-2,-1.204499975E-1,2.571249940E-2
3.474328575E0,-2.007500082E-2,-1.225124970E-1,2.681249939E-2
3.476318496E0,-2.859999985E-2,-1.310375035E-1,2.144999988E-2
3.478308344E0,-2.117500082E-2,-1.343374997E-1,2.048750035E-2
3.480298175E0,-2.763750032E-2,-1.491875052E-1,1.196249947E-2
3.482288021E0,-2.227500081E-2,-1.545500010E-1,1.512499992E-2
3.484278096E0,-2.227500081E-2,-1.758625060E-1,1.402499992E-2
3.486267944E0,-2.543750033E-2,-1.929125041E-1,1.622499898E-2
3.488257865E0,-1.581249945E-2,-2.066625059E-1,1.938750036E-2
3.490247714E0,-1.264999993E-2,-2.205500007E-1,1.622499898E-2
3.492237536E0,-3.024999984E-3,-2.301750034E-1,2.144999988E-2
3.494227611E0,2.199999988E-3,-2.387000024E-1,2.254999988E-2
3.496217459E0,8.662499487E-3,-2.514874935E-1,2.571249940E-2
3.498207380E0,1.182499994E-2,-2.631750107E-1,2.474999987E-2
3.500197228E0,1.828750037E-2,-2.727999985E-1,2.791249938E-2
3.502187074E0,1.718750037E-2,-2.855874896E-1,2.997500077E-2
3.504177154E0,1.828750037E-2,-2.930124998E-1,3.327500075E-2
3.506167002E0,2.144999988E-2,-3.057999909E-1,3.533750027E-2
3.508156923E0,2.034999989E-2,-3.143250048E-1,3.753750026E-2
3.510146695E0,2.034999989E-2,-3.206500113E-1,3.959999979E-2
3.512136616E0,1.718750037E-2,-3.313750029E-1,3.849999979E-2
3.514126693E0,1.608750038E-2,-3.419624865E-1,4.386249930E-2
3.516116546E0,1.608750038E-2,-3.484250009E-1,4.922499880E-2
3.518106392E0,2.034999989E-2,-3.569499850E-1,5.128749833E-2
3.520096238E0,1.924999990E-2,-3.632749915E-1,4.922499880E-2
3.522086159E0,1.718750037E-2,-3.686375022E-1,5.555000156E-2
3.524076007E0,2.461249940E-2,-3.740000129E-1,5.444999784E-2
3.526066082E0,2.887500077E-2,-3.760625124E-1,5.444999784E-2
3.528055916E0,2.777500078E-2,-3.760625124E-1,5.444999784E-2
3.530045763E0,3.203750029E-2,-3.771624863E-1,5.444999784E-2
3.532035684E0,3.313750029E-2,-3.718000054E-1,5.555000156E-2
3.534025532E0,3.423750028E-2,-3.686375022E-1,5.444999784E-2
3.536015607E0,3.423750028E-2,-3.654749990E-1,5.555000156E-2
3.538005455E0,3.107500076E-2,-3.601124883E-1,5.348749831E-2
3.539995301E0,2.777500078E-2,-3.569499850E-1,5.128749833E-2
3.541985147E0,3.203750029E-2,-3.441624939E-1,5.018749833E-2
3.543975068E0,2.997500077E-2,-3.377000093E-1,4.702499881E-2
3.545964916E0,3.107500076E-2,-3.282124996E-1,4.276249930E-2
3.547954763E0,2.997500077E-2,-3.228499889E-1,4.496249929E-2
3.549944838E0,2.997500077E-2,-3.174875081E-1,4.069999978E-2
3.551934695E0,2.777500078E-2,-3.089624941E-1,4.166249931E-2
3.553924616E0,2.997500077E-2,-3.111625016E-1,4.276249930E-2
3.555914464E0,2.997500077E-2,-3.057999909E-1,4.592499882E-2
3.557904310E0,3.107500076E-2,-3.078624904E-1,4.922499880E-2
3.559894385E0,2.681249939E-2,-3.036000133E-1,4.922499880E-2
3.561884233E0,2.351249941E-2,-2.972750068E-1,4.812499881E-2
3.563874074E0,2.254999988E-2,-2.908124924E-1,4.702499881E-2
3.565863995E0,2.254999988E-2,-2.813250124E-1,4.922499880E-2
3.567853844E0,2.034999989E-2,-2.737624943E-1,5.018749833E-2
3.569843690E0,2.254999988E-2,-2.589125037E-1,4.276249930E-2
3.571833536E0,1.924999990E-2,-2.557500005E-1,4.166249931E-2
3.573823611E0,1.924999990E-2,-2.481874973E-1,3.959999979E-2
3.575813445E0,1.718750037E-2,-2.439250052E-1,3.533750027E-2
3.577803366E0,1.924999990E-2,-2.333374918E-1,3.423750028E-2
3.579793214E0,1.828750037E-2,-2.248124927E-1,2.997500077E-2
3.581783060E0,1.718750037E-2,-2.162874937E-1,3.107500076E-2
3.583773135E0,1.608750038E-2,-2.023999989E-1,2.791249938E-2
3.585762984E0,1.072499994E-2,-1.918125004E-1,2.364999987E-2
3.587752890E0,8.662499487E-3,-1.886499971E-1,2.048750035E-2
3.589742738E0,1.182499994E-2,-1.725624949E-1,1.622499898E-2
3.591732584E0,1.292499993E-2,-1.694000065E-1,1.086249948E-2
3.593722659E0,4.399999976E-3,-1.673374921E-1,7.699999958E-3
3.595712507E0,7.562499959E-3,-1.577125043E-1,3.437499981E-3
3.597702428E0,1.237499993E-3,-1.480875015E-1,-8.249999955E-4
3.599692209E0,3.299999982E-3,-1.427250057E-1,-1.924999990E-3
3.601682130E0,-2.062499989E-3,-1.363999993E-1,-9.349999949E-3
3.603671979E0,1.374999993E-4,-1.363999993E-1,-1.154999994E-2
3.605662053E0,1.072499994E-2,-1.343374997E-1,-1.044999994E-2
3.607651902E0,5.499999970E-3,-1.352999955E-1,-1.787500083E-2
3.609641748E0,8.662499487E-3,-1.363999993E-1,-1.691249944E-2
3.611631703E0,1.072499994E-2,-1.300749928E-1,-2.117500082E-2
3.613621551E0,7.562499959E-3,-1.215500012E-1,-2.007500082E-2
3.615611626E0,1.608750038E-2,-1.278750002E-1,-2.117500082E-2
3.617601474E0,1.608750038E-2,-1.310375035E-1,-2.213750035E-2
3.619591320E0,1.828750037E-2,-1.310375035E-1,-2.543750033E-2
3.621581241E0,1.828750037E-2,-1.438249946E-1,-2.323750034E-2
3.623571119E0,1.608750038E-2,-1.566125005E-1,-2.323750034E-2
3.625561193E0,1.292499993E-2,-1.608749926E-1,-1.691249944E-2
3.627551042E0,1.718750037E-2,-1.630750000E-1,-1.787500083E-2
3.629540888E0,1.072499994E-2,-1.619749963E-1,-1.361249946E-2
3.631530734E0,7.562499959E-3,-1.640374959E-1,-1.691249944E-2
3.633520655E0,1.072499994E-2,-1.608749926E-1,-1.264999993E-2
3.635510522E0,4.399999976E-3,-1.597750038E-1,-1.264999993E-2
3.637500368E0,5.499999970E-3,-1.608749926E-1,-1.154999994E-2
3.639490443E0,6.462499965E-3,-1.630750000E-1,-4.124999978E-3
3.641480291E0,6.462499965E-3,-1.640374959E-1,-8.387500420E-3
3.643470138E0,2.199999988E-3,-1.683000028E-1,-7.287499961E-3
3.645460059E0,2.199999988E-3,-1.715999991E-1,-7.287499961E-3
3.647449921E0,3.299999982E-3,-1.662375033E-1,-7.287499961E-3
3.649439996E0,3.299999982E-3,-1.673374921E-1,-8.387500420E-3
3.651429844E0,3.299999982E-3,-1.588124931E-1,-7.287499961E-3
3.653419690E0,3.299999982E-3,-1.545500010E-1,-7.287499961E-3
3.655409611E0,1.237499993E-3,-1.427250057E-1,-9.349999949E-3
3.657399459E0,1.374999993E-4,-1.321374923E-1,-1.154999994E-2
3.659389553E0,-5.224999972E-3,-1.267749965E-1,-1.471249945E-2
3.661379401E0,1.237499993E-3,-1.130250022E-1,-1.264999993E-2
3.663369248E0,-9.624999948E-4,-1.054624990E-1,-1.581249945E-2
3.665359094E0,5.499999970E-3,-9.267500043E-2,-9.349999949E-3
3.667349015E0,-2.062499989E-3,-8.744999766E-2,-1.581249945E-2
3.669338863E0,-2.062499989E-3,-8.524999768E-2,-1.264999993E-2
3.671328733E0,1.374999993E-4,-8.208750188E-2,-1.581249945E-2
3.673318808E0,-2.062499989E-3,-7.988750190E-2,-1.581249945E-2
3.675308656E0,1.237499993E-3,-7.039999962E-2,-1.471249945E-2
3.677298577E0,1.237499993E-3,-7.356250286E-2,-1.897500083E-2
3.679288425E0,1.237499993E-3,-7.039999962E-2,-1.264999993E-2
3.681278272E0,7.562499959E-3,-6.393750012E-2,-1.581249945E-2
3.683268362E0,4.399999976E-3,-6.283749640E-2,-1.264999993E-2
3.685258210E0,7.562499959E-3,-6.819999963E-2,-1.581249945E-2
3.687248056E0,8.662499487E-3,-6.929999590E-2,-1.154999994E-2
3.689237977E0,1.072499994E-2,-7.246249914E-2,-1.361249946E-2
3.691227825E0,8.662499487E-3,-7.988750190E-2,-1.471249945E-2
3.693217671E0,1.402499992E-2,-7.562500238E-2,-1.044999994E-2
3.695207736E0,1.718750037E-2,-7.782500237E-2,-1.581249945E-2
3.697197584E0,1.402499992E-2,-8.415000141E-2,-2.213750035E-2
3.699187430E0,1.828750037E-2,-8.635000139E-2,-1.897500083E-2
3.701177352E0,2.034999989E-2,-8.951249719E-2,-2.007500082E-2
3.703167200E0,2.034999989E-2,-9.171249717E-2,-2.433750033E-2
3.705157046E0,2.351249941E-2,-9.377499670E-2,-2.117500082E-2
3.707147131E0,2.034999989E-2,-9.597499669E-2,-2.323750034E-2
3.709136979E0,2.571249940E-2,-9.597499669E-2,-2.323750034E-2
3.711126900E0,2.461249940E-2,-9.597499669E-2,-3.066249937E-2
3.713116748E0,2.777500078E-2,-9.487500042E-2,-3.176249936E-2
3.715106594E0,2.887500077E-2,-8.951249719E-2,-3.066249937E-2
3.717096669E0,3.533750027E-2,-8.841250092E-2,-3.602499887E-2
3.719086526E0,2.997500077E-2,-8.415000141E-2,-4.455000162E-2
3.721076373E0,2.887500077E-2,-8.415000141E-2,-4.028749838E-2
3.723066219E0,2.887500077E-2,-8.098749816E-2,-4.248749837E-2
3.725056140E0,3.203750029E-2,-7.136250287E-2,-4.344999790E-2
3.727045988E0,3.313750029E-2,-6.283749640E-2,-4.455000162E-2
3.729036063E0,3.107500076E-2,-5.967500061E-2,-4.564999789E-2
3.731025882E0,3.107500076E-2,-4.578749835E-2,-4.675000161E-2
3.733015728E0,2.461249940E-2,-5.431250110E-2,-5.101250112E-2
3.735005649E0,2.034999989E-2,-5.967500061E-2,-4.881250113E-2
3.736995497E0,1.182499994E-2,-5.431250110E-2,-4.564999789E-2
3.738985572E0,5.499999970E-3,-7.466249913E-2,-4.344999790E-2
3.740975421E0,-9.487500414E-3,-9.913749993E-2,-3.602499887E-2
3.742965277E0,-1.801249944E-2,-1.225124970E-1,-3.176249936E-2
3.744955198E0,-2.433750033E-2,-1.267749965E-1,-3.396249935E-2
3.746945046E0,-2.337500080E-2,-1.097249985E-1,-2.859999985E-2
3.748934892E0,-2.763750032E-2,-9.171249717E-2,-3.176249936E-2
3.750924738E0,-3.712499887E-2,-6.819999963E-2,-2.969999984E-2
3.752914813E0,-3.176249936E-2,-4.798749834E-2,-2.007500082E-2
3.754904666E0,-2.337500080E-2,-2.461249940E-2,-1.471249945E-2
3.756894587E0,-1.374999993E-2,-0.000000000E0,-8.387500420E-3
3.758884436E0,-6.324999966E-3,1.704999991E-2,-5.087499972E-3
3.760874282E0,3.299999982E-3,2.131249942E-2,6.599999964E-3
3.762864357E0,8.662499487E-3,2.021249942E-2,1.196249947E-2
3.764854205E0,1.718750037E-2,3.409999982E-2,1.402499992E-2
3.766844051E0,2.034999989E-2,3.616249934E-2,1.196249947E-2
3.768833972E0,2.254999988E-2,4.468749836E-2,1.292499993E-2
3.770823820E0,1.828750037E-2,4.468749836E-2,1.374999993E-4
3.772813895E0,1.292499993E-2,4.895000160E-2,-1.924999990E-3
3.774803743E0,1.072499994E-2,4.895000160E-2,-1.044999994E-2
3.776793589E0,5.499999970E-3,5.431250110E-2,-2.007500082E-2
3.778783516E0,3.299999982E-3,6.063750014E-2,-2.323750034E-2
3.780773364E0,6.462499965E-3,7.452499866E-2,-2.749999985E-2
3.782763210E0,1.182499994E-2,8.511249721E-2,-3.396249935E-2
3.784753056E0,2.144999988E-2,9.899999946E-2,-3.918749839E-2
3.786743131E0,2.571249940E-2,1.128875017E-1,-4.564999789E-2
3.788732979E0,3.423750028E-2,1.310375035E-1,-4.771250114E-2
3.790722904E0,4.482499883E-2,1.575749964E-1,-4.675000161E-2
3.792712752E0,4.702499881E-2,1.725624949E-1,-5.307500064E-2
3.794702599E0,5.238749832E-2,1.788875014E-1,-5.733750015E-2
3.796692673E0,5.238749832E-2,1.853500009E-1,-6.049999967E-2
3.798682522E0,5.555000156E-2,1.927749962E-1,-6.270000339E-2
3.800672368E0,5.555000156E-2,1.927749962E-1,-6.366249919E-2
3.802662275E0,4.702499881E-2,1.970375031E-1,-6.696250290E-2
3.804652123E0,4.482499883E-2,1.959374994E-1,-6.476250291E-2
3.806642198E0,3.629999980E-2,2.012999952E-1,-6.902500242E-2
3.808632046E0,3.533750027E-2,1.991000026E-1,-7.012499869E-2
3.810621892E0,3.107500076E-2,1.959374994E-1,-6.586249918E-2
3.812611738E0,2.681249939E-2,1.863124967E-1,-6.366249919E-2
3.814601655E0,2.461249940E-2,1.905750036E-1,-6.159999967E-2
3.816591503E0,2.997500077E-2,1.831499934E-1,-5.843750015E-2
3.818581349E0,3.533750027E-2,1.777874976E-1,-5.527500063E-2
3.820571424E0,3.313750029E-2,1.703625023E-1,-5.733750015E-2
3.822561272E0,3.533750027E-2,1.735250056E-1,-5.623750016E-2
3.824551193E0,3.959999979E-2,1.703625023E-1,-5.527500063E-2
3.826541027E0,3.739999980E-2,1.757249981E-1,-5.843750015E-2
3.828530873E0,3.959999979E-2,1.746249944E-1,-6.049999967E-2
3.830520948E0,3.849999979E-2,1.746249944E-1,-6.586249918E-2
3.832510796E0,3.629999980E-2,1.746249944E-1,-6.586249918E-2
3.834500717E0,3.423750028E-2,1.788875014E-1,-7.012499869E-2
3.836490566E0,2.571249940E-2,1.777874976E-1,-7.328750193E-2
3.838480402E0,2.777500078E-2,1.820500046E-1,-7.328750193E-2
3.840470248E0,2.254999988E-2,1.810874939E-1,-7.755000144E-2
3.842460323E0,2.144999988E-2,1.831499934E-1,-7.644999772E-2
3.844450171E0,1.498750038E-2,1.788875014E-1,-7.864999771E-2
3.846440017E0,1.402499992E-2,1.810874939E-1,-7.438749820E-2
3.848429928E0,1.182499994E-2,1.777874976E-1,-7.122500241E-2
3.850468082E0,6.462499965E-3,1.746249944E-1,-7.328750193E-2
3.852409623E0,-3.024999984E-3,1.714625061E-1,-7.438749820E-2
3.854399698E0,-5.224999972E-3,1.725624949E-1,-7.012499869E-2
3.856389544E0,-8.387500420E-3,1.683000028E-1,-6.696250290E-2
3.858379467E0,-1.484999992E-2,1.671999991E-1,-6.586249918E-2
3.860369294E0,-1.911249943E-2,1.640374959E-1,-5.953750014E-2
3.862359140E0,-1.911249943E-2,1.608749926E-1,-5.307500064E-2
3.864349217E0,-2.653750032E-2,1.597750038E-1,-5.623750016E-2
3.866339065E0,-2.763750032E-2,1.544124931E-1,-5.307500064E-2
3.868328986E0,-3.506249934E-2,1.555124968E-1,-4.675000161E-2
3.870318757E0,-3.932499886E-2,1.469874978E-1,-4.771250114E-2
3.872308684E0,-4.358749837E-2,1.373624951E-1,-4.028749838E-2
3.874298532E0,-4.991250113E-2,1.288374960E-1,-4.138749838E-2
3.876288607E0,-5.101250112E-2,1.214125007E-1,-3.602499887E-2
3.878278455E0,-6.063750014E-2,1.117874980E-1,-3.492499888E-2
3.880268301E0,-6.586249918E-2,1.021625027E-1,-3.066249937E-2
3.882258222E0,-6.806249917E-2,9.473749995E-2,-2.639999986E-2
3.884248089E0,-7.012499869E-2,9.267500043E-2,-2.543750033E-2
3.886238164E0,-7.122500241E-2,9.047500044E-2,-2.213750035E-2
3.888228012E0,-7.548750192E-2,8.841250092E-2,-2.433750033E-2
3.890217858E0,-7.232499868E-2,9.157499671E-2,-2.117500082E-2
3.892207780E0,-7.012499869E-2,8.841250092E-2,-2.639999986E-2
3.894197628E0,-6.696250290E-2,8.937499672E-2,-2.639999986E-2
3.896187460E0,-6.159999967E-2,9.790000319E-2,-2.543750033E-2
3.898177535E0,-5.953750014E-2,8.937499672E-2,-2.969999984E-2
3.900167383E0,-5.417500064E-2,8.731249720E-2,-2.859999985E-2
3.902157229E0,-5.211250111E-2,7.452499866E-2,-3.066249937E-2
3.904147075E0,-5.307500064E-2,5.747500062E-2,-3.176249936E-2
3.906136996E0,-4.358749837E-2,3.726249933E-2,-3.396249935E-2
3.908127063E0,-4.564999789E-2,2.873750031E-2,-2.969999984E-2
3.910116911E0,-4.675000161E-2,1.058750041E-2,-3.712499887E-2
3.912106758E0,-4.991250113E-2,-1.278750040E-2,-3.396249935E-2
3.914096604E0,-4.455000162E-2,-2.034999989E-2,-3.286249936E-2
3.916086525E0,-4.455000162E-2,-2.557500079E-2,-3.176249936E-2
3.918076373E0,-4.784999788E-2,-3.836249933E-2,-3.066249937E-2
3.920066482E0,-4.991250113E-2,-4.798749834E-2,-2.433750033E-2
3.922056330E0,-5.307500064E-2,-6.187500060E-2,-2.749999985E-2
3.924046176E0,-5.953750014E-2,-7.782500237E-2,-2.859999985E-2
3.926036097E0,-6.063750014E-2,-8.524999768E-2,-2.433750033E-2
3.928025945E0,-6.159999967E-2,-9.487500042E-2,-2.323750034E-2
3.930015792E0,-6.489999592E-2,-1.023000032E-1,-2.323750034E-2
3.932005618E0,-6.586249918E-2,-1.054624990E-1,-1.787500083E-2
3.933995693E0,-6.586249918E-2,-1.139874980E-1,-1.361249946E-2
3.935985541E0,-7.122500241E-2,-1.215500012E-1,-1.787500083E-2
3.937975462E0,-7.122500241E-2,-1.215500012E-1,-1.264999993E-2
3.939965310E0,-6.586249918E-2,-1.172875017E-1,-1.471249945E-2
3.941955156E0,-6.270000339E-2,-1.119249985E-1,-1.787500083E-2
3.943945231E0,-5.843750015E-2,-9.913749993E-2,-1.581249945E-2
3.945935079E0,-5.637500063E-2,-9.061250091E-2,-1.897500083E-2
3.947925000E0,-4.675000161E-2,-7.672499865E-2,-1.691249944E-2
3.949914849E0,-3.602499887E-2,-5.541250110E-2,-2.433750033E-2
3.951904695E0,-3.602499887E-2,-3.409999982E-2,-2.969999984E-2
3.953894770E0,-2.763750032E-2,-1.498750038E-2,-3.396249935E-2
3.955884633E0,-2.653750032E-2,-2.199999988E-3,-3.396249935E-2
3.957874479E0,-2.337500080E-2,2.062499989E-3,-3.492499888E-2
3.959864400E0,-2.543750033E-2,6.324999966E-3,-3.286249936E-2
3.961854248E0,-2.653750032E-2,2.062499989E-3,-3.286249936E-2
3.963844094E0,-2.653750032E-2,-0.000000000E0,-3.396249935E-2
3.965833941E0,-2.543750033E-2,-1.099999994E-3,-3.066249937E-2
3.967824034E0,-2.763750032E-2,5.224999972E-3,-2.969999984E-2
3.969813883E0,-2.433750033E-2,-0.000000000E0,-2.969999984E-2
3.971803804E0,-2.543750033E-2,-0.000000000E0,-2.543750033E-2
3.973793652E0,-2.227500081E-2,-5.362499971E-3,-2.543750033E-2
3.975783498E0,-1.691249944E-2,-1.072499994E-2,-2.749999985E-2
3.977773573E0,-1.264999993E-2,-1.182499994E-2,-3.066249937E-2
3.979763421E0,-7.287499961E-3,-1.182499994E-2,-2.749999985E-2
3.981753267E0,-3.024999984E-3,-9.624999948E-3,-2.639999986E-2
3.983743188E0,2.199999988E-3,-6.462499965E-3,-2.749999985E-2
3.985733037E0,1.072499994E-2,2.062499989E-3,-2.639999986E-2
3.987723111E0,1.182499994E-2,1.594999991E-2,-2.543750033E-2
3.989712960E0,1.608750038E-2,2.653750032E-2,-2.323750034E-2
3.991702816E0,1.608750038E-2,3.409999982E-2,-1.897500083E-2
3.993692662E0,1.402499992E-2,4.358749837E-2,-1.581249945E-2
3.995682583E0,1.072499994E-2,5.321250111E-2,-1.154999994E-2
3.997672431E0,6.462499965E-3,5.431250110E-2,-1.264999993E-2
3.999662277E0,4.399999976E-3,5.967500061E-2,-8.387500420E-3
4.001652352E0,5.499999970E-3,6.379999965E-2,-1.361249946E-2
4.003642185E0,5.499999970E-3,6.710000336E-2,-7.287499961E-3
4.005632107E0,-2.062499989E-3,7.562500238E-2,-1.044999994E-2
4.007621955E0,-2.062499989E-3,8.731249720E-2,-5.087499972E-3
4.009611801E0,-3.024999984E-3,8.841250092E-2,-7.287499961E-3
4.011601876E0,-2.062499989E-3,1.032624990E-1,2.337499987E-3
4.013591724E0,-2.062499989E-3,1.000999957E-1,-8.249999955E-4
4.015581659E0,-4.124999978E-3,9.693749994E-2,3.437499981E-3
4.017571507E0,-5.224999972E-3,9.583749622E-2,2.337499987E-3
4.019561353E0,-4.124999978E-3,9.157499671E-2,4.399999976E-3
4.021551199E0,-3.024999984E-3,8.937499672E-2,6.599999964E-3
4.023541046E0,-4.124999978E-3,8.304999769E-2,9.762499481E-3
4.025531121E0,-4.124999978E-3,8.084999770E-2,1.086249948E-2
4.027521046E0,-6.324999966E-3,7.768750191E-2,6.599999964E-3
4.029510892E0,1.237499993E-3,7.562500238E-2,1.086249948E-2
4.031500738E0,-2.062499989E-3,7.768750191E-2,8.662499487E-3
4.033490584E0,-5.224999972E-3,7.232499868E-2,4.399999976E-3
4.035480659E0,-8.387500420E-3,8.195000142E-2,2.337499987E-3
