"Time (s)","Gyroscope x (rad/s)","Gyroscope y (rad/s)","Gyroscope z (rad/s)"
2.302948000E-2,-9.124755859E-3,6.185913086E-2,2.008056641E-2
2.803436200E-2,-6.988525391E-3,5.867004395E-2,1.689147949E-2
3.300872800E-2,-1.338195801E-2,3.948974609E-2,1.689147949E-2
3.798309300E-2,-1.977539062E-2,2.458190918E-2,2.221679688E-2
4.292694100E-2,-2.828979492E-2,3.204345703E-2,2.328491211E-2
4.790130600E-2,-3.361511230E-2,4.162597656E-2,2.008056641E-2
5.284515300E-2,-3.361511230E-2,3.416442871E-2,2.008056641E-2
5.781951900E-2,-3.468322754E-2,7.537841797E-3,2.114868164E-2
6.276336600E-2,-3.042602539E-2,-2.761840820E-2,2.221679688E-2
6.773773200E-2,-3.042602539E-2,-7.128906250E-2,1.902770996E-2
7.268157900E-2,-2.828979492E-2,-8.193969727E-2,1.582336426E-2
7.765594500E-2,-3.468322754E-2,-5.317687988E-2,8.361816406E-3
8.259979200E-2,-4.000854492E-2,-3.720092773E-2,-1.220703125E-3
8.757415700E-2,-3.894042969E-2,-5.212402344E-2,-8.682250977E-3
9.251800500E-2,-3.788757324E-2,-5.212402344E-2,-1.719665527E-2
9.749237000E-2,-3.681945801E-2,-3.613281250E-2,-2.465820312E-2
1.024362180E-1,-3.575134277E-2,-1.908874512E-2,-3.105163574E-2
1.074105830E-1,-3.894042969E-2,-9.918212891E-4,-4.382324219E-2
1.123544310E-1,-3.894042969E-2,1.712036133E-2,-6.300354004E-2
1.173287960E-1,-3.788757324E-2,3.416442871E-2,-7.685852051E-2
1.223031610E-1,-4.107666016E-2,6.080627441E-2,-9.495544434E-2
1.272470090E-1,-4.321289062E-2,9.489440918E-2,-1.098785400E-1
1.321908570E-1,-3.788757324E-2,1.236572266E-1,-1.247863770E-1
1.371347040E-1,-3.468322754E-2,1.438903809E-1,-1.439666748E-1
1.420785520E-1,-3.042602539E-2,1.396331787E-1,-1.631317139E-1
1.470529170E-1,-2.296447754E-2,1.204528809E-1,-1.748504639E-1
1.520272820E-1,-1.763916016E-2,1.119384766E-1,-1.865692139E-1
1.570016480E-1,-1.445007324E-2,1.140594482E-1,-2.025604248E-1
1.619454950E-1,-6.988525391E-3,1.492156982E-1,-2.174682617E-1
1.669198610E-1,1.541137695E-3,2.014160156E-1,-2.323760986E-1
1.718637080E-1,1.005554199E-2,2.536163330E-1,-2.515563965E-1
1.768380730E-1,1.751708984E-2,2.813110352E-1,-2.728576660E-1
1.817819210E-1,2.923583984E-2,2.877044678E-1,-2.920379639E-1
1.867257690E-1,3.881835938E-2,3.058166504E-1,-3.069458008E-1
1.916696160E-1,4.734802246E-2,3.292541504E-1,-3.154754639E-1
1.966439820E-1,5.693054199E-2,4.102020264E-1,-3.144073486E-1
2.015878290E-1,5.586242676E-2,5.763854980E-1,-3.080139160E-1
2.065621950E-1,5.799865723E-2,6.157989502E-1,-2.941589355E-1
2.115060420E-1,6.439208984E-2,5.881042480E-1,-2.749938965E-1
2.164804070E-1,8.248901367E-2,5.508270264E-1,-2.526245117E-1
2.214242550E-1,1.112518311E-1,5.465545654E-1,-2.302551270E-1
2.263986200E-1,1.389465332E-1,5.699920654E-1,-2.014923096E-1
2.313729860E-1,1.623840332E-1,5.646667480E-1,-1.833801270E-1
2.363168330E-1,1.783752441E-1,5.444335938E-1,-1.705932617E-1
2.412911980E-1,1.837005615E-1,5.263214111E-1,-1.514282227E-1
2.462350460E-1,1.858215332E-1,4.709320068E-1,-1.343841553E-1
2.512094110E-1,1.900787354E-1,4.091491699E-1,-1.205291748E-1
2.561532590E-1,2.039337158E-1,3.622741699E-1,-1.045532227E-1
2.611276240E-1,2.273712158E-1,3.729248047E-1,-7.153320312E-2
2.660714720E-1,2.603912354E-1,4.208679199E-1,-1.826477051E-2
2.710153200E-1,3.051300049E-1,4.336395264E-1,4.991149902E-2
2.759896850E-1,3.520050049E-1,3.793182373E-1,1.330108643E-1
2.809640500E-1,4.031372070E-1,2.568054199E-1,2.192840576E-1
2.859078980E-1,4.617309570E-1,1.140594482E-1,3.034515381E-1
2.908822630E-1,5.224456787E-1,2.212524414E-3,3.748168945E-1
2.958261110E-1,5.789031982E-1,-5.744934082E-2,4.227600098E-1
3.008004760E-1,6.300354004E-1,-1.075134277E-1,4.408721924E-1
3.057443230E-1,6.886291504E-1,-2.023162842E-1,4.195556641E-1
3.107186890E-1,7.663879395E-1,-3.376007080E-1,3.630981445E-1
3.156625360E-1,8.729248047E-1,-4.729003906E-1,2.768096924E-1
3.206369020E-1,9.954223633E-1,-5.677032471E-1,1.681518555E-1
3.255807490E-1,1.124328613E0,-5.890045166E-1,4.672241211E-2
3.305551140E-1,1.246826172E0,-5.655670166E-1,-6.726074219E-2
3.354989620E-1,1.351226807E0,-5.474700928E-1,-1.695251465E-1
3.404733270E-1,1.434310913E0,-5.474700928E-1,-2.409057617E-1
3.454171750E-1,1.493972778E0,-5.336151123E-1,-2.739257812E-1
3.503915400E-1,1.532318115E0,-5.059204102E-1,-2.803192139E-1
3.553353880E-1,1.550430298E0,-4.622497559E-1,-2.632751465E-1
3.603097530E-1,1.562149048E0,-4.057922363E-1,-2.313232422E-1
3.652536010E-1,1.575988770E0,-3.535919189E-1,-1.950988770E-1
3.702279660E-1,1.602630615E0,-2.971343994E-1,-1.620788574E-1
3.751718140E-1,1.640975952E0,-2.193603516E-1,-1.418304443E-1
3.801461790E-1,1.693176270E0,-1.394653320E-1,-1.386413574E-1
3.850595090E-1,1.748565674E0,-6.809997559E-2,-1.588745117E-1
3.900033570E-1,1.793304443E0,2.990722656E-2,-1.972198486E-1
3.949777220E-1,1.822067261E0,1.332397461E-1,-2.409057617E-1
3.999215700E-1,1.844436646E0,1.726531982E-1,-2.920379639E-1
4.048959350E-1,1.872131348E0,1.311035156E-1,-3.602142334E-1
4.098397820E-1,1.905166626E0,6.719970703E-2,-4.571533203E-1
4.148141480E-1,1.925399780E0,7.537841797E-3,-5.881805420E-1
4.197579950E-1,1.908355713E0,-7.981872559E-2,-7.042999268E-1
4.247323610E-1,1.854034424E0,-1.927337646E-1,-7.618103027E-1
4.296762080E-1,1.769866943E0,-2.491912842E-1,-7.745971680E-1
4.346505730E-1,1.664413452E0,-2.182922363E-1,-7.628784180E-1
4.396249390E-1,1.540847778E0,-1.533203125E-1,-7.394409180E-1
4.445687860E-1,1.400222778E0,-1.320190430E-1,-7.128143311E-1
4.495431520E-1,1.250030518E0,-1.586456299E-1,-6.925811768E-1
4.544869990E-1,1.091293335E0,-1.788787842E-1,-6.808624268E-1
4.594613640E-1,9.272460938E-1,-1.458587646E-1,-6.734008789E-1
4.644052120E-1,7.578735352E-1,-7.022094727E-2,-6.627502441E-1
4.693795770E-1,5.501403809E-1,4.908752441E-2,-6.393127441E-1
4.743234250E-1,2.998046875E-1,1.385650635E-1,-6.084136963E-1
4.792977900E-1,8.036804199E-2,7.785034180E-2,-5.860443115E-1
4.842416380E-1,-5.918884277E-2,-2.044677734E-3,-5.817871094E-1
4.891854860E-1,-1.614532471E-1,3.204345703E-2,-5.679321289E-1
4.941598510E-1,-2.402801514E-1,1.066131592E-1,-5.327911377E-1
4.991036980E-1,-2.882232666E-1,1.598663330E-1,-4.859161377E-1
5.040780640E-1,-3.041992188E-1,1.683959961E-1,-4.305267334E-1
5.090219110E-1,-2.786254883E-1,1.087341309E-1,-3.719329834E-1
5.139962770E-1,-2.061920166E-1,3.843688965E-2,-3.133392334E-1
5.189706420E-1,-9.860229492E-2,1.286315918E-2,-2.590179443E-1
5.239144890E-1,3.988647461E-2,2.139282227E-2,-2.057495117E-1
5.288888550E-1,1.911468506E-1,5.015563965E-2,-1.514282227E-1
5.338327020E-1,3.392181396E-1,6.080627441E-2,-9.602355957E-2
5.388070680E-1,4.691925049E-1,5.334472656E-2,-4.382324219E-2
5.437509150E-1,5.746459961E-1,4.162597656E-2,3.036499023E-3
5.487252800E-1,6.545410156E-1,3.311157227E-2,3.712463379E-2
5.536691280E-1,7.088775635E-1,1.712036133E-2,5.630493164E-2
5.586434930E-1,7.418975830E-1,1.144409180E-3,5.844116211E-2
5.635873410E-1,7.600097656E-1,-6.317138672E-3,4.672241211E-2
5.685617060E-1,7.610626221E-1,-2.015686035E-2,2.328491211E-2
5.735055540E-1,7.546691895E-1,-3.187561035E-2,-1.525878906E-4
5.784799190E-1,7.493438721E-1,-2.336120605E-2,-2.677917480E-2
5.834237670E-1,7.450866699E-1,-2.044677734E-3,-5.448913574E-2
5.883676140E-1,7.418975830E-1,2.565002441E-2,-8.004760742E-2
5.933419800E-1,7.440185547E-1,4.908752441E-2,-1.034851074E-1
5.983163450E-1,7.472229004E-1,6.080627441E-2,-1.258544922E-1
6.032601930E-1,7.525482178E-1,6.506347656E-2,-1.471557617E-1
6.082345580E-1,7.525482178E-1,6.080627441E-2,-1.641998291E-1
6.131784050E-1,7.461547852E-1,4.376220703E-2,-1.929626465E-1
6.181222530E-1,7.291107178E-1,2.671813965E-2,-2.185363770E-1
6.230966180E-1,7.046051025E-1,2.032470703E-2,-2.472991943E-1
6.280404660E-1,6.769104004E-1,2.565002441E-2,-2.749938965E-1
6.330148310E-1,6.417541504E-1,2.990722656E-2,-3.005523682E-1
6.379891960E-1,6.108703613E-1,2.671813965E-2,-3.271942139E-1
6.429330440E-1,5.799713135E-1,2.244567871E-2,-3.463592529E-1
6.479074090E-1,5.522766113E-1,1.179504395E-2,-3.697967529E-1
6.528512570E-1,5.416259766E-1,-9.153747559E-2,-4.209289551E-1
6.578256220E-1,5.480194092E-1,-2.023162842E-1,-5.008239746E-1
6.627694700E-1,5.544128418E-1,-2.087097168E-1,-5.753936768E-1
6.677438350E-1,5.512084961E-1,-1.895294189E-1,-6.052246094E-1
6.726876830E-1,5.320434570E-1,-1.874084473E-1,-5.871124268E-1
6.776620480E-1,5.075378418E-1,-1.799468994E-1,-5.413055420E-1
6.826058960E-1,4.798431396E-1,-1.692962646E-1,-4.923095703E-1
6.875802610E-1,4.521484375E-1,-1.437225342E-1,-4.550170898E-1
6.925241090E-1,4.276428223E-1,-1.021881104E-1,-4.315795898E-1
6.974984740E-1,3.988800049E-1,-6.809997559E-2,-4.283905029E-1
7.024423210E-1,3.647918701E-1,-6.596374512E-2,-4.390411377E-1
7.074166870E-1,3.328247070E-1,-8.726501465E-2,-4.582214355E-1
7.123910520E-1,3.008728027E-1,-1.160278320E-1,-4.912414551E-1
7.173349000E-1,2.689208984E-1,-1.330718994E-1,-5.274658203E-1
7.222787470E-1,2.412261963E-1,-1.394653320E-1,-5.583496094E-1
7.272531120E-1,2.241821289E-1,-1.373443604E-1,-5.807189941E-1
7.321969600E-1,2.252349854E-1,-1.362762451E-1,-5.988311768E-1
7.371408080E-1,2.401580811E-1,-1.277465820E-1,-6.073608398E-1
7.421151730E-1,2.657165527E-1,-1.234893799E-1,-6.084136963E-1
7.470895380E-1,3.008728027E-1,-1.170959473E-1,-6.073608398E-1
7.520333860E-1,3.381652832E-1,-1.117706299E-1,-6.052246094E-1
7.569772340E-1,3.733062744E-1,-1.117706299E-1,-6.030883789E-1
7.619515990E-1,4.020690918E-1,-1.117706299E-1,-5.998992920E-1
7.668954460E-1,4.223175049E-1,-1.160278320E-1,-5.903167725E-1
7.718392940E-1,4.319000244E-1,-1.213531494E-1,-5.732727051E-1
7.768136590E-1,4.351043701E-1,-1.234893799E-1,-5.551605225E-1
7.817575070E-1,4.308319092E-1,-1.213531494E-1,-5.221405029E-1
7.867318720E-1,4.180603027E-1,-1.192321777E-1,-4.837799072E-1
7.916757200E-1,3.978118896E-1,-1.203002930E-1,-4.411773682E-1
7.966195680E-1,3.722534180E-1,-1.224212646E-1,-3.910980225E-1
8.015939330E-1,3.477478027E-1,-1.213531494E-1,-3.378448486E-1
8.065682980E-1,3.243103027E-1,-1.139068604E-1,-2.813873291E-1
8.115121460E-1,3.051300049E-1,-1.032562256E-1,-2.302551270E-1
8.164865110E-1,2.902221680E-1,-1.021881104E-1,-1.823120117E-1
8.214608760E-1,2.806396484E-1,-1.064453125E-1,-1.354370117E-1
8.264047240E-1,2.742462158E-1,-1.139068604E-1,-9.069824219E-2
8.313485710E-1,2.742462158E-1,-1.128387451E-1,-5.342102051E-2
8.363229370E-1,2.785034180E-1,-1.139068604E-1,-1.612854004E-2
8.412667840E-1,2.859649658E-1,-1.117706299E-1,2.221679688E-2
8.462411500E-1,2.966156006E-1,-1.096343994E-1,5.737304688E-2
8.512155150E-1,3.051300049E-1,-1.075134277E-1,8.613586426E-2
8.561593620E-1,3.200531006E-1,-1.053771973E-1,1.074371338E-1
8.611032100E-1,3.360290527E-1,-1.064453125E-1,1.234130859E-1
8.660775750E-1,3.498687744E-1,-1.149749756E-1,1.330108643E-1
8.710214230E-1,3.690490723E-1,-1.170959473E-1,1.415252686E-1
8.759957880E-1,3.892974854E-1,-1.203002930E-1,1.511077881E-1
8.809396360E-1,4.052734375E-1,-1.107025146E-1,1.607055664E-1
8.859140010E-1,4.169921875E-1,-1.075134277E-1,1.713562012E-1
8.908883660E-1,4.201812744E-1,-1.170959473E-1,1.798706055E-1
8.958322140E-1,4.223175049E-1,-1.224212646E-1,1.862640381E-1
9.007760620E-1,4.180603027E-1,-1.192321777E-1,1.841430664E-1
9.057504270E-1,4.148559570E-1,-1.192321777E-1,1.809387207E-1
9.107247920E-1,4.095306396E-1,-1.266784668E-1,1.724243164E-1
9.156686400E-1,4.020690918E-1,-1.490631104E-1,1.575012207E-1
9.206430050E-1,3.946228027E-1,-1.863403320E-1,1.425933838E-1
9.255868530E-1,3.860931396E-1,-2.246856689E-1,1.298065186E-1
9.305612180E-1,3.754425049E-1,-2.587738037E-1,1.202239990E-1
9.355050660E-1,3.615875244E-1,-2.811431885E-1,1.202239990E-1
9.404794310E-1,3.424224854E-1,-2.960662842E-1,1.223449707E-1
9.454232780E-1,3.232421875E-1,-3.077850342E-1,1.266174316E-1
9.503976440E-1,3.030090332E-1,-3.131103516E-1,1.383361816E-1
9.553414910E-1,2.795715332E-1,-3.226928711E-1,1.489868164E-1
9.603158570E-1,2.561340332E-1,-3.290863037E-1,1.543121338E-1
9.652597040E-1,2.358856201E-1,-3.333435059E-1,1.585693359E-1
9.702340700E-1,2.103271484E-1,-3.418731689E-1,1.607055664E-1
9.751779170E-1,1.837005615E-1,-3.514556885E-1,1.543121338E-1
9.801217650E-1,1.549377441E-1,-3.589172363E-1,1.436614990E-1
9.850961300E-1,1.315002441E-1,-3.759613037E-1,1.319427490E-1
9.900704950E-1,1.080627441E-1,-3.898010254E-1,1.223449707E-1
9.950143430E-1,8.781433105E-2,-3.972625732E-1,1.085052490E-1
9.999887080E-1,6.864929199E-2,-4.004516602E-1,9.359741211E-2
1.004932556E0,4.946899414E-2,-4.025878906E-1,7.121276855E-2
1.009876403E0,3.030395508E-2,-4.079132080E-1,4.458618164E-2
1.014820251E0,1.112365723E-2,-4.100494385E-1,1.689147949E-2
1.019794616E0,-1.231384277E-2,-4.121704102E-1,-1.933288574E-2
1.024738464E0,-3.468322754E-2,-4.143066406E-1,-5.767822266E-2
1.029743347E0,-5.386352539E-2,-4.100494385E-1,-9.602355957E-2
1.034717712E0,-7.409667969E-2,-4.089813232E-1,-1.386413574E-1
1.039692077E0,-9.220886230E-2,-4.079132080E-1,-1.801757812E-1
1.044605407E0,-1.039276123E-1,-4.068450928E-1,-2.153320312E-1
1.049579773E0,-1.124420166E-1,-4.057922363E-1,-2.430267334E-1
1.054523620E0,-1.167144775E-1,-4.036560059E-1,-2.675323486E-1
1.059497986E0,-1.177825928E-1,-3.993988037E-1,-2.824554443E-1
1.064441833E0,-1.124420166E-1,-3.930053711E-1,-2.931060791E-1
1.069416198E0,-1.103210449E-1,-3.887329102E-1,-3.037567139E-1
1.074360046E0,-1.060638428E-1,-3.823547363E-1,-3.133392334E-1
1.079334411E0,-9.753417969E-2,-3.748931885E-1,-3.197326660E-1
1.084278259E0,-8.901977539E-2,-3.599853516E-1,-3.197326660E-1
1.089252624E0,-7.730102539E-2,-3.365478516E-1,-3.122711182E-1
1.094196472E0,-6.130981445E-2,-3.109741211E-1,-2.920379639E-1
1.099170837E0,-4.533386230E-2,-2.928619385E-1,-2.632751465E-1
1.104114685E0,-2.828979492E-2,-2.843475342E-1,-2.302551270E-1
1.109058532E0,-1.231384277E-2,-2.747497559E-1,-1.918945312E-1
1.114002380E0,1.541137695E-3,-2.651672363E-1,-1.492919922E-1
1.118976745E0,1.219177246E-2,-2.598419189E-1,-1.119995117E-1
1.123920593E0,2.284240723E-2,-2.566528320E-1,-7.579040527E-2
1.128864441E0,3.668212891E-2,-2.534484863E-1,-4.277038574E-2
1.133838806E0,5.586242676E-2,-2.587738037E-1,-1.187133789E-2
1.138813171E0,7.716369629E-2,-2.715606689E-1,9.429931641E-3
1.143757019E0,1.069946289E-1,-2.864685059E-1,2.754211426E-2
1.148731384E0,1.378936768E-1,-2.981872559E-1,4.032897949E-2
1.153675232E0,1.762390137E-1,-3.045806885E-1,4.032897949E-2
1.158649597E0,2.177886963E-1,-3.077850342E-1,3.926086426E-2
1.163593445E0,2.614593506E-1,-3.173675537E-1,2.647399902E-2
1.168537292E0,3.072662354E-1,-3.280181885E-1,-1.525878906E-4
1.173511657E0,3.562622070E-1,-3.461303711E-1,-3.530883789E-2
1.178486023E0,4.042053223E-1,-3.663635254E-1,-7.897949219E-2
1.183429870E0,4.510803223E-1,-3.802185059E-1,-1.322479248E-1
1.188404236E0,4.926147461E-1,-3.951263428E-1,-1.887054443E-1
1.193348083E0,5.277709961E-1,-4.185638428E-1,-2.451629639E-1
1.198291931E0,5.576019287E-1,-4.430694580E-1,-3.090820312E-1
1.203266296E0,5.842285156E-1,-4.643707275E-1,-3.761901855E-1
1.208240661E0,6.034088135E-1,-4.856719971E-1,-4.401092529E-1
1.213184509E0,6.140594482E-1,-5.059204102E-1,-5.029602051E-1
1.218158874E0,6.247100830E-1,-5.272216797E-1,-5.658111572E-1
1.223133239E0,6.343078613E-1,-5.431976318E-1,-6.222686768E-1
1.228077087E0,6.417541504E-1,-5.549163818E-1,-6.723327637E-1
1.233020935E0,6.470794678E-1,-5.666351318E-1,-7.106781006E-1
1.237964782E0,6.524047852E-1,-5.783538818E-1,-7.458343506E-1
1.242939148E0,6.577301025E-1,-5.975341797E-1,-7.756652832E-1
1.247913513E0,6.598663330E-1,-6.220397949E-1,-7.969665527E-1
1.252857361E0,6.641235352E-1,-6.486663818E-1,-8.140106201E-1
1.257831726E0,6.694488525E-1,-6.731719971E-1,-8.246612549E-1
1.262775573E0,6.822357178E-1,-7.029876709E-1,-8.278656006E-1
1.267749939E0,6.982116699E-1,-7.285614014E-1,-8.214721680E-1
1.272693786E0,7.195281982E-1,-7.477416992E-1,-8.086853027E-1
1.277668152E0,7.440185547E-1,-7.637176514E-1,-7.927093506E-1
1.282611999E0,7.727813721E-1,-7.711639404E-1,-7.809906006E-1
1.287586364E0,7.983551025E-1,-7.807617188E-1,-7.703399658E-1
1.292530212E0,8.196563721E-1,-7.946014404E-1,-7.650146484E-1
1.297504577E0,8.345642090E-1,-8.052520752E-1,-7.586212158E-1
1.302448425E0,8.420257568E-1,-8.148498535E-1,-7.543640137E-1
1.307422790E0,8.388366699E-1,-8.201751709E-1,-7.511596680E-1
1.312366638E0,8.281860352E-1,-8.233642578E-1,-7.447662354E-1
1.317310486E0,8.121948242E-1,-8.372192383E-1,-7.415771484E-1
1.322284851E0,7.898254395E-1,-8.553314209E-1,-7.426452637E-1
1.327259216E0,7.610626221E-1,-8.681030273E-1,-7.469024658E-1
1.332203064E0,7.259216309E-1,-8.755645752E-1,-7.575531006E-1
1.337177429E0,6.939544678E-1,-8.851470947E-1,-7.745971680E-1
1.342121277E0,6.556091309E-1,-8.872833252E-1,-7.958984375E-1
1.347065124E0,6.172637939E-1,-8.862152100E-1,-8.225402832E-1
1.352039489E0,5.810394287E-1,-8.830261230E-1,-8.534240723E-1
1.357013855E0,5.522766113E-1,-8.777008057E-1,-8.853912354E-1
1.361957702E0,5.213775635E-1,-8.670501709E-1,-9.173431396E-1
1.366901550E0,4.947509766E-1,-8.425445557E-1,-9.471740723E-1
1.371875915E0,4.627990723E-1,-8.052520752E-1,-9.770050049E-1
1.376850280E0,4.297637939E-1,-7.615814209E-1,-9.961700439E-1
1.381794128E0,3.956756592E-1,-7.179107666E-1,-9.993743896E-1
1.386737976E0,3.552093506E-1,-6.742248535E-1,-9.855194092E-1
1.391712341E0,3.061981201E-1,-6.273651123E-1,-9.546356201E-1
1.396656189E0,2.550659180E-1,-5.804901123E-1,-9.035034180E-1
1.401630554E0,1.986083984E-1,-5.378723145E-1,-8.374481201E-1
1.406574402E0,1.389465332E-1,-4.963378906E-1,-7.564849854E-1
1.411548767E0,7.397460938E-2,-4.558563232E-1,-6.712646484E-1
1.416492614E0,6.866455078E-3,-4.111175537E-1,-5.775299072E-1
1.421466980E0,-5.918884277E-2,-3.621063232E-1,-4.859161377E-1
1.426410827E0,-1.231079102E-1,-3.120422363E-1,-3.985595703E-1
1.431385193E0,-1.763610840E-1,-2.736968994E-1,-3.208007812E-1
1.436329040E0,-2.232360840E-1,-2.491912842E-1,-2.590179443E-1
1.441303405E0,-2.605133057E-1,-2.300109863E-1,-2.142791748E-1
1.446277771E0,-2.882232666E-1,-2.097778320E-1,-1.855163574E-1
1.451252136E0,-3.031311035E-1,-1.959228516E-1,-1.695251465E-1
1.456195984E0,-3.084564209E-1,-1.948699951E-1,-1.727294922E-1
1.461139831E0,-3.031311035E-1,-1.980590820E-1,-1.929626465E-1
1.466114196E0,-2.935485840E-1,-1.959228516E-1,-2.249298096E-1
1.471058044E0,-2.786254883E-1,-1.842041016E-1,-2.632751465E-1
1.476001892E0,-2.573242188E-1,-1.724853516E-1,-3.048248291E-1
1.480976257E0,-2.328186035E-1,-1.597137451E-1,-3.453063965E-1
1.485920105E0,-2.093811035E-1,-1.501159668E-1,-3.879089355E-1
1.490863952E0,-1.848907471E-1,-1.426696777E-1,-4.283905029E-1
1.495838318E0,-1.678466797E-1,-1.352081299E-1,-4.699401855E-1
1.500812683E0,-1.539916992E-1,-1.277465820E-1,-4.976348877E-1
1.505756530E0,-1.475982666E-1,-1.160278320E-1,-5.125427246E-1
1.510730896E0,-1.465301514E-1,-9.793090820E-2,-5.200042725E-1
1.515674743E0,-1.497344971E-1,-8.300781250E-2,-5.189361572E-1
1.520649109E0,-1.614532471E-1,-6.277465820E-2,-5.072174072E-1
1.525592956E0,-1.774291992E-1,-4.891967773E-2,-4.891052246E-1
1.530567321E0,-1.976776123E-1,-3.613281250E-2,-4.678039551E-1
1.535511169E0,-2.189788818E-1,-3.187561035E-2,-4.454345703E-1
1.540485534E0,-2.392120361E-1,-2.868652344E-2,-4.188079834E-1
1.545429382E0,-2.509307861E-1,-2.441406250E-2,-3.932342529E-1
1.550403747E0,-2.583923340E-1,-2.336120605E-2,-3.666076660E-1
1.555378112E0,-2.562561035E-1,-2.548217773E-2,-3.367767334E-1
1.560321960E0,-2.434692383E-1,-3.187561035E-2,-3.101501465E-1
1.565265808E0,-2.210998535E-1,-3.613281250E-2,-2.856445312E-1
1.570240173E0,-1.997985840E-1,-3.507995605E-2,-2.622070312E-1
1.575184021E0,-1.752929688E-1,-3.401184082E-2,-2.409057617E-1
1.580127868E0,-1.486663818E-1,-3.401184082E-2,-2.238616943E-1
1.585102234E0,-1.262969971E-1,-3.507995605E-2,-2.164001465E-1
1.590076599E0,-1.081848145E-1,-3.613281250E-2,-2.185363770E-1
1.595050964E0,-9.646606445E-2,-4.252624512E-2,-2.238616943E-1
1.599994812E0,-8.581542969E-2,-4.678344727E-2,-2.323760986E-1
1.604938659E0,-7.835388184E-2,-4.573059082E-2,-2.451629639E-1
1.609882507E0,-7.623291016E-2,-4.359436035E-2,-2.536926270E-1
1.614856872E0,-6.983947754E-2,-4.145812988E-2,-2.643432617E-1
1.619800720E0,-6.025695801E-2,-3.720092773E-2,-2.760620117E-1
1.624775085E0,-4.747009277E-2,-3.294372559E-2,-2.941589355E-1
1.629749450E0,-3.254699707E-2,-2.655029297E-2,-3.122711182E-1
1.634693298E0,-1.550292969E-2,-2.441406250E-2,-3.303833008E-1
1.639637146E0,1.541137695E-3,-2.441406250E-2,-3.453063965E-1
1.644611511E0,2.709960938E-2,-1.908874512E-2,-3.570098877E-1
1.649585876E0,4.840087891E-2,-8.438110352E-3,-3.644714355E-1
1.654529724E0,6.864929199E-2,7.629394531E-5,-3.666076660E-1
1.659504089E0,8.569335938E-2,1.818847656E-2,-3.634033203E-1
1.664447937E0,9.741210938E-2,3.948974609E-2,-3.527526855E-1
1.669422302E0,9.741210938E-2,5.227661133E-2,-3.282623291E-1
1.674366150E0,8.462524414E-2,6.825256348E-2,-2.909698486E-1
1.679340515E0,5.372619629E-2,8.743286133E-2,-2.440948486E-1
1.684284362E0,6.866455078E-3,1.012878418E-1,-1.780548096E-1
1.689258728E0,-5.279541016E-2,1.172637939E-1,-9.709167480E-2
1.694202575E0,-1.241607666E-1,1.300506592E-1,-5.477905273E-3
1.699176941E0,-2.083282471E-1,1.364288330E-1,9.997558594E-2
1.704120788E0,-2.946166992E-1,1.417541504E-1,2.075805664E-1
1.709095153E0,-3.766326904E-1,1.470947266E-1,3.183593750E-1
1.714039001E0,-4.480133057E-1,1.534729004E-1,4.291534424E-1
1.718982849E0,-5.012664795E-1,1.620025635E-1,5.314178467E-1
1.723957214E0,-5.353546143E-1,1.598663330E-1,6.208953857E-1
1.728901062E0,-5.556030273E-1,1.524200439E-1,6.890716553E-1
1.733875427E0,-5.651855469E-1,1.396331787E-1,7.412719727E-1
1.738849792E0,-5.619964600E-1,1.183319092E-1,7.764282227E-1
1.743793640E0,-5.481414795E-1,9.062194824E-2,7.892150879E-1
1.748768005E0,-5.215148926E-1,5.227661133E-2,7.806854248E-1
1.753711853E0,-4.916839600E-1,1.606750488E-2,7.497863770E-1
1.758686218E0,-4.565277100E-1,-3.080749512E-2,6.933288574E-1
1.763630066E0,-4.149780273E-1,-9.579467773E-2,6.155700684E-1
1.768604431E0,-3.681182861E-1,-1.682281494E-1,5.133056641E-1
1.773548278E0,-3.212432861E-1,-2.406616211E-1,3.907928467E-1
1.778522644E0,-2.701110840E-1,-3.195037842E-1,2.501831055E-1
1.783466491E0,-2.189788818E-1,-3.908691406E-1,9.571838379E-2
1.788410339E0,-1.742401123E-1,-4.590454102E-1,-6.832885742E-2
1.793384704E0,-1.294860840E-1,-5.261535645E-1,-2.419738770E-1
1.798328552E0,-8.155822754E-2,-5.868835449E-1,-4.166717529E-1
1.803302917E0,-3.575134277E-2,-6.401367188E-1,-5.860443115E-1
1.808277282E0,1.005554199E-2,-6.902160645E-1,-7.490386963E-1
1.813221130E0,5.693054199E-2,-7.328186035E-1,-9.002990723E-1
1.818164978E0,1.027374268E-1,-7.594451904E-1,-1.031326294E0
1.823139343E0,1.389465332E-1,-7.775573730E-1,-1.139984131E0
1.828083191E0,1.709136963E-1,-7.882080078E-1,-1.226272583E0
1.833057556E0,1.911468506E-1,-7.935485840E-1,-1.292312622E0
1.838001403E0,2.028656006E-1,-8.009948730E-1,-1.333862305E0
1.842975769E0,2.017974854E-1,-8.031311035E-1,-1.355163574E0
1.847950134E0,1.943511963E-1,-7.978057861E-1,-1.356231689E0
1.852893982E0,1.868896484E-1,-7.914123535E-1,-1.332794189E0
1.857868347E0,1.773071289E-1,-7.764892578E-1,-1.290191650E0
1.862812195E0,1.698455811E-1,-7.679748535E-1,-1.228408813E0
1.867786560E0,1.687774658E-1,-7.573242188E-1,-1.150634766E0
1.872730407E0,1.709136963E-1,-7.424011230E-1,-1.064346313E0
1.877704773E0,1.730346680E-1,-7.264251709E-1,-9.663543701E-1
1.882648620E0,1.783752441E-1,-7.083129883E-1,-8.587493896E-1
1.887622986E0,1.858215332E-1,-6.816864014E-1,-7.383880615E-1
1.892566833E0,1.922149658E-1,-6.667785645E-1,-6.169433594E-1
1.897541198E0,1.975402832E-1,-6.550598145E-1,-4.954986572E-1
1.902485046E0,1.975402832E-1,-6.316223145E-1,-3.751220703E-1
1.907459411E0,1.890258789E-1,-6.081848145E-1,-2.654113770E-1
1.912403259E0,1.762390137E-1,-5.879516602E-1,-1.610107422E-1
1.917377624E0,1.613311768E-1,-5.772857666E-1,-6.619262695E-2
1.922321472E0,1.368255615E-1,-5.655670166E-1,1.902770996E-2
1.927295837E0,1.101989746E-1,-5.495910645E-1,9.785461426E-2
1.932270202E0,8.569335938E-2,-5.410766602E-1,1.617736816E-1
1.937214050E0,6.651306152E-2,-5.346832275E-1,2.150268555E-1
1.942157898E0,5.799865723E-2,-5.304260254E-1,2.555084229E-1
1.947101745E0,4.840087891E-2,-5.400085449E-1,2.810821533E-1
1.952045593E0,4.414367676E-2,-5.474700928E-1,2.938537598E-1
1.957019958E0,3.775024414E-2,-5.591888428E-1,2.906646729E-1
1.961994323E0,2.603149414E-2,-5.730285645E-1,2.778778076E-1
1.966938171E0,1.112365723E-2,-5.890045166E-1,2.533721924E-1
1.971882019E0,-1.663208008E-3,-6.135101318E-1,2.203521729E-1
1.976856384E0,-1.017761230E-2,-6.358795166E-1,1.830749512E-1
1.981830749E0,-1.231384277E-2,-6.508026123E-1,1.436614990E-1
1.986774597E0,-9.124755859E-3,-6.678466797E-1,9.892272949E-2
1.991718445E0,-5.920410156E-3,-6.923370361E-1,5.523681641E-2
1.996723327E0,-2.731323242E-3,-7.232360840E-1,8.361816406E-3
2.001667175E0,-2.731323242E-3,-7.594451904E-1,-3.317260742E-2
2.006611023E0,-3.799438477E-3,-7.946014404E-1,-6.407165527E-2
2.011585388E0,-1.124572754E-2,-8.233642578E-1,-8.430480957E-2
2.016529236E0,-1.657104492E-2,-8.414764404E-1,-9.495544434E-2
2.021503601E0,-2.189636230E-2,-8.457336426E-1,-9.283447266E-2
2.026447448E0,-3.042602539E-2,-8.318939209E-1,-8.430480957E-2
2.031391296E0,-3.361511230E-2,-8.073883057E-1,-6.407165527E-2
2.036365661E0,-3.894042969E-2,-7.711639404E-1,-3.956604004E-2
2.041309509E0,-4.000854492E-2,-7.200317383E-1,-1.187133789E-2
2.046283874E0,-3.788757324E-2,-6.508026123E-1,2.008056641E-2
2.051227722E0,-2.828979492E-2,-5.740966797E-1,6.056213379E-2
2.056202087E0,-1.657104492E-2,-4.973907471E-1,1.085052490E-1
2.061176452E0,-5.920410156E-3,-4.196319580E-1,1.628265381E-1
2.066120300E0,1.541137695E-3,-3.344116211E-1,2.160949707E-1
2.071064148E0,5.798339844E-3,-2.545166016E-1,2.714843750E-1
2.076038513E0,5.798339844E-3,-1.905975342E-1,3.247528076E-1
2.081012878E0,7.919311523E-3,-1.394653320E-1,3.758850098E-1
2.085956726E0,1.219177246E-2,-1.160278320E-1,4.238281250E-1
2.090900573E0,1.644897461E-2,-1.085815430E-1,4.632415771E-1
2.095844421E0,2.284240723E-2,-1.021881104E-1,4.994506836E-1
2.100849304E0,2.391052246E-2,-1.011199951E-1,5.356750488E-1
2.105793152E0,2.177429199E-2,-1.107025146E-1,5.633697510E-1
2.110767517E0,2.709960938E-2,-1.320190430E-1,5.761566162E-1
2.115711364E0,3.456115723E-2,-1.597137451E-1,5.782775879E-1
2.120685730E0,4.734802246E-2,-1.948699951E-1,5.633697510E-1
2.125629577E0,6.118774414E-2,-2.353363037E-1,5.335388184E-1
2.130603943E0,7.716369629E-2,-2.662353516E-1,4.930572510E-1
2.135547790E0,9.527587891E-2,-2.886047363E-1,4.365997314E-1
2.140522155E0,1.123199463E-1,-3.120422363E-1,3.737487793E-1
2.145466003E0,1.293640137E-1,-3.354797363E-1,2.959899902E-1
2.150440368E0,1.432189941E-1,-3.482666016E-1,2.129058838E-1
2.155384216E0,1.591949463E-1,-3.557128906E-1,1.212921143E-1
2.160358581E0,1.741027832E-1,-3.695678711E-1,2.647399902E-2
2.165302429E0,1.890258789E-1,-3.898010254E-1,-6.513977051E-2
2.170276794E0,2.017974854E-1,-4.132385254E-1,-1.567535400E-1
2.175220642E0,2.113952637E-1,-4.345397949E-1,-2.451629639E-1
2.180195007E0,2.220458984E-1,-4.515838623E-1,-3.229217529E-1
2.185138855E0,2.316284180E-1,-4.675750732E-1,-3.868408203E-1
2.190082702E0,2.358856201E-1,-4.846191406E-1,-4.432983398E-1
2.195057068E0,2.348327637E-1,-5.101776123E-1,-4.880371094E-1
2.200000915E0,2.337646484E-1,-5.368194580E-1,-5.242614746E-1
2.204975280E0,2.220458984E-1,-5.645141602E-1,-5.487670898E-1
2.209919128E0,2.081909180E-1,-5.890045166E-1,-5.636749268E-1
2.214893493E0,1.954193115E-1,-6.092529297E-1,-5.722045898E-1
2.219867859E0,1.858215332E-1,-6.230926514E-1,-5.828552246E-1
2.224811706E0,1.773071289E-1,-6.305541992E-1,-5.913696289E-1
2.229786071E0,1.709136963E-1,-6.369476318E-1,-6.009674072E-1
2.234729919E0,1.602630615E-1,-6.486663818E-1,-6.137390137E-1
2.239673767E0,1.559906006E-1,-6.603851318E-1,-6.297302246E-1
2.244648132E0,1.474761963E-1,-6.731719971E-1,-6.478271484E-1
2.249622497E0,1.378936768E-1,-6.795501709E-1,-6.680755615E-1
2.254566345E0,1.304321289E-1,-6.838226318E-1,-6.861877441E-1
2.259540710E0,1.251068115E-1,-6.923370361E-1,-7.117462158E-1
2.264484558E0,1.197814941E-1,-7.072601318E-1,-7.447662354E-1
2.269458923E0,1.197814941E-1,-7.232360840E-1,-7.799224854E-1
2.274433288E0,1.251068115E-1,-7.274932861E-1,-8.118896484E-1
2.279377136E0,1.315002441E-1,-7.296295166E-1,-8.480987549E-1
2.284320984E0,1.368255615E-1,-7.264251709E-1,-8.821868896E-1
2.289264831E0,1.453399658E-1,-7.210998535E-1,-9.152221680E-1
2.294239196E0,1.549377441E-1,-7.168426514E-1,-9.461059570E-1
2.299213562E0,1.623840332E-1,-7.136535645E-1,-9.695434570E-1
2.304157409E0,1.698455811E-1,-7.093811035E-1,-9.919128418E-1
2.309131775E0,1.709136963E-1,-6.976623535E-1,-1.007888794E0
2.314075622E0,1.687774658E-1,-6.902160645E-1,-1.020675659E0
2.319049987E0,1.602630615E-1,-6.880798340E-1,-1.026000977E0
2.323993835E0,1.517333984E-1,-6.870117188E-1,-1.023880005E0
2.328937683E0,1.453399658E-1,-6.827545166E-1,-1.017486572E0
2.333881530E0,1.485443115E-1,-6.699676514E-1,-1.005767822E0
2.338886413E0,1.645202637E-1,-6.518554688E-1,-9.897766113E-1
2.343830261E0,1.847534180E-1,-6.262969971E-1,-9.674072266E-1
2.348804626E0,2.071380615E-1,-5.932769775E-1,-9.439849854E-1
2.353748474E0,2.252349854E-1,-5.506591797E-1,-9.141540527E-1
2.358722839E0,2.358856201E-1,-4.963378906E-1,-8.800659180E-1
2.363666687E0,2.348327637E-1,-4.388122559E-1,-8.395843506E-1
2.368610534E0,2.241821289E-1,-3.908691406E-1,-7.927093506E-1
2.373554382E0,2.071380615E-1,-3.461303711E-1,-7.426452637E-1
2.378528747E0,1.826324463E-1,-2.992553711E-1,-6.883087158E-1
2.383472595E0,1.453399658E-1,-2.502593994E-1,-6.286621094E-1
2.388446960E0,9.634399414E-2,-2.055206299E-1,-5.604858398E-1
2.393390808E0,3.242492676E-2,-1.597137451E-1,-4.827117920E-1
2.398365173E0,-4.107666016E-2,-1.224212646E-1,-3.879089355E-1
2.403339538E0,-1.273651123E-1,-9.793090820E-2,-2.909698486E-1
2.408283386E0,-2.189788818E-1,-8.726501465E-2,-1.876373291E-1
2.413257751E0,-3.041992188E-1,-8.300781250E-2,-8.323669434E-2
2.418201599E0,-3.798370361E-1,-7.661437988E-2,2.008056641E-2
2.423175964E0,-4.394836426E-1,-6.703186035E-2,1.223449707E-1
2.428150329E0,-4.788970947E-1,-5.424499512E-2,2.171630859E-1
2.433094177E0,-4.970092773E-1,-4.252624512E-2,3.055725098E-1
2.438038025E0,-4.948730469E-1,-2.655029297E-2,3.780212402E-1
2.443012390E0,-4.693145752E-1,-8.438110352E-3,4.323425293E-1
2.447956237E0,-4.341583252E-1,-3.112792969E-3,4.749603271E-1
2.452900085E0,-3.915405273E-1,-3.112792969E-3,5.026550293E-1
2.457874450E0,-3.414764404E-1,-7.369995117E-3,5.186309814E-1
2.462818298E0,-2.978057861E-1,-1.057434082E-2,5.260925293E-1
2.467792663E0,-2.594604492E-1,-2.015686035E-2,5.218200684E-1
2.472736511E0,-2.274932861E-1,-4.998779297E-2,5.015869141E-1
2.477710876E0,-2.019348145E-1,-9.579467773E-2,4.706878662E-1
2.482654724E0,-1.774291992E-1,-1.490631104E-1,4.344787598E-1
2.487629089E0,-1.497344971E-1,-2.108459473E-1,3.833465576E-1
2.492572937E0,-1.135101318E-1,-2.790222168E-1,3.247528076E-1
2.497547302E0,-7.197570801E-2,-3.471984863E-1,2.523193359E-1
2.502491150E0,-2.403259277E-2,-4.143066406E-1,1.660308838E-1
2.507465515E0,3.135681152E-2,-4.856719971E-1,6.269836426E-2
2.512409362E0,8.995056152E-2,-5.538635254E-1,-6.086730957E-2
2.517383728E0,1.538696289E-1,-6.135101318E-1,-1.982879639E-1
2.522327575E0,2.103271484E-1,-6.678466797E-1,-3.484954834E-1
2.527301941E0,2.625274658E-1,-7.168426514E-1,-5.082855225E-1
2.532245788E0,3.019409180E-1,-7.615814209E-1,-6.680755615E-1
2.537220153E0,3.328247070E-1,-7.978057861E-1,-8.214721680E-1
2.542194519E0,3.477478027E-1,-8.340148926E-1,-9.610290527E-1
2.547138366E0,3.541412354E-1,-8.659820557E-1,-1.082458496E0
2.552082214E0,3.562622070E-1,-8.968658447E-1,-1.184722900E0
2.557026062E0,3.594665527E-1,-9.288330078E-1,-1.271011353E0
2.562000427E0,3.711853027E-1,-9.597167969E-1,-1.332794189E0
2.566944275E0,3.935546875E-1,-9.895477295E-1,-1.379669189E0
2.571918640E0,4.233856201E-1,-1.017242432E0,-1.408432007E0
2.576862487E0,4.670562744E-1,-1.042816162E0,-1.418014526E0
2.581836853E0,5.128631592E-1,-1.072647095E0,-1.409500122E0
2.586780700E0,5.597381592E-1,-1.091812134E0,-1.391387939E0
2.591755066E0,6.012725830E-1,-1.102462769E0,-1.359436035E0
2.596729431E0,6.321716309E-1,-1.116317749E0,-1.315750122E0
2.601673278E0,6.524047852E-1,-1.133361816E0,-1.266754150E0
2.606617126E0,6.587982178E-1,-1.141876221E0,-1.212417603E0
2.611591491E0,6.556091309E-1,-1.145080566E0,-1.154907227E0
2.616535339E0,6.406860352E-1,-1.148269653E0,-1.096313477E0
2.621509704E0,6.257781982E-1,-1.142944336E0,-1.044113159E0
2.626453552E0,6.087341309E-1,-1.141876221E0,-9.972381592E-1
2.631427917E0,5.906219482E-1,-1.149337769E0,-9.567565918E-1
2.636371765E0,5.735778809E-1,-1.151473999E0,-9.333190918E-1
2.641346130E0,5.533447266E-1,-1.154663086E0,-9.194793701E-1
2.646289978E0,5.299072266E-1,-1.158920288E0,-9.141540527E-1
2.651264343E0,5.022125244E-1,-1.163192749E0,-9.162750244E-1
2.656238708E0,4.723815918E-1,-1.168518066E0,-9.237365723E-1
2.661182556E0,4.500122070E-1,-1.180236816E0,-9.333190918E-1
2.666156921E0,4.297637939E-1,-1.195144653E0,-9.503631592E-1
2.671100769E0,4.244384766E-1,-1.206863403E0,-9.674072266E-1
2.676075134E0,4.265747070E-1,-1.216445923E0,-9.887237549E-1
2.681018982E0,4.404296875E-1,-1.228164673E0,-1.006835938E0
2.685962829E0,4.553375244E-1,-1.235626221E0,-1.028137207E0
2.690937195E0,4.670562744E-1,-1.251602173E0,-1.049438477E0
2.695881042E0,4.734497070E-1,-1.273971558E0,-1.072875977E0
2.700855407E0,4.745178223E-1,-1.297409058E0,-1.095245361E0
2.705799255E0,4.638519287E-1,-1.325103760E0,-1.118682861E0
2.710773620E0,4.489440918E-1,-1.349609375E0,-1.136795044E0
2.715717468E0,4.265747070E-1,-1.377304077E0,-1.150634766E0
2.720691833E0,3.956756592E-1,-1.401809692E0,-1.162353516E0
2.725635681E0,3.583984375E-1,-1.424179077E0,-1.170883179E0
2.730610046E0,3.136596680E-1,-1.444412231E0,-1.180465698E0
2.735553894E0,2.646484375E-1,-1.465728760E0,-1.183654785E0
2.740528259E0,2.092590332E-1,-1.493423462E0,-1.188995361E0
2.745472107E0,1.517333984E-1,-1.506210327E0,-1.203903198E0
2.750446472E0,8.569335938E-2,-1.509399414E0,-1.226272583E0
2.755390320E0,2.593994141E-3,-1.514724731E0,-1.261428833E0
2.760364685E0,-9.114074707E-2,-1.534957886E0,-1.300842285E0
2.765308532E0,-1.944732666E-1,-1.567993164E0,-1.342391968E0
2.770282898E0,-2.946166992E-1,-1.598876953E0,-1.380737305E0
2.775226745E0,-3.702392578E-1,-1.619125366E0,-1.421218872E0
2.780201111E0,-4.096527100E-1,-1.644683838E0,-1.472351074E0
2.785175476E0,-4.053955078E-1,-1.675582886E0,-1.538391113E0
2.790119323E0,-3.659820557E-1,-1.708602905E0,-1.612960815E0
2.795063171E0,-3.073883057E-1,-1.735229492E0,-1.698181152E0
2.800037536E0,-2.445373535E-1,-1.757598877E0,-1.783401489E0
2.804981384E0,-1.848907471E-1,-1.769317627E0,-1.868621826E0
2.809955749E0,-1.369476318E-1,-1.772521973E0,-1.952789307E0
2.814899597E0,-1.039276123E-1,-1.773590088E0,-2.031616211E0
2.819843445E0,-8.688354492E-2,-1.763992310E0,-2.099792480E0
2.824817810E0,-8.581542969E-2,-1.740554810E0,-2.158386230E0
2.829792175E0,-1.017913818E-1,-1.709671021E0,-2.207382202E0
2.834736023E0,-1.358795166E-1,-1.673446655E0,-2.235076904E0
2.839710388E0,-1.763610840E-1,-1.627639771E0,-2.238281250E0
2.844654236E0,-2.264251709E-1,-1.577575684E0,-2.224426270E0
2.849628601E0,-2.796936035E-1,-1.537094116E0,-2.186080933E0
2.854572448E0,-3.308258057E-1,-1.500869751E0,-2.131744385E0
2.859546814E0,-3.819580078E-1,-1.458267212E0,-2.063568115E0
2.864490661E0,-4.266967773E-1,-1.418853760E0,-1.981552124E0
2.869465027E0,-4.618530273E-1,-1.384765625E0,-1.892059326E0
2.874408874E0,-4.906158447E-1,-1.350677490E0,-1.795120239E0
2.879383239E0,-5.087280273E-1,-1.314453125E0,-1.701385498E0
2.884327087E0,-5.161895752E-1,-1.278228760E0,-1.616165161E0
2.889270935E0,-5.151214600E-1,-1.247344971E0,-1.537322998E0
2.894245300E0,-5.065917969E-1,-1.221771240E0,-1.467025757E0
2.899219665E0,-4.948730469E-1,-1.189819336E0,-1.411636353E0
2.904163513E0,-4.884796143E-1,-1.152542114E0,-1.362625122E0
2.909137878E0,-4.852905273E-1,-1.107788086E0,-1.317886353E0
2.914081726E0,-4.852905273E-1,-1.064117432E0,-1.281661987E0
2.919025573E0,-4.948730469E-1,-1.022567749E0,-1.252899170E0
2.923999939E0,-5.065917969E-1,-9.788970947E-1,-1.227340698E0
2.928974304E0,-5.193786621E-1,-9.352264404E-1,-1.203903198E0
2.933918152E0,-5.300292969E-1,-8.915405273E-1,-1.183654785E0
2.938892517E0,-5.374908447E-1,-8.521270752E-1,-1.159164429E0
2.943836364E0,-5.374908447E-1,-8.180389404E-1,-1.134658813E0
2.948810730E0,-5.332336426E-1,-7.828826904E-1,-1.108032227E0
2.953754577E0,-5.225830078E-1,-7.573242188E-1,-1.079269409E0
2.958728943E0,-4.959411621E-1,-7.317504883E-1,-1.067550659E0
2.963672790E0,-4.405517578E-1,-7.296295166E-1,-1.056900024E0
2.968647155E0,-3.627929688E-1,-7.456054688E-1,-9.961700439E-1
2.973591003E0,-3.404083252E-1,-6.721038818E-1,-9.322662354E-1
2.978565368E0,-3.531951904E-1,-5.730285645E-1,-8.971099854E-1
2.983509216E0,-3.606567383E-1,-5.879516602E-1,-8.651428223E-1
2.988483581E0,-3.297576904E-1,-6.369476318E-1,-8.470458984E-1
2.993427429E0,-2.786254883E-1,-6.284179688E-1,-8.502349854E-1
2.998401794E0,-2.232360840E-1,-5.890045166E-1,-8.566284180E-1
3.003345642E0,-1.721038818E-1,-5.591888428E-1,-8.555603027E-1
3.008320007E0,-1.358795166E-1,-5.506591797E-1,-8.470458984E-1
3.013263855E0,-1.049957275E-1,-5.474700928E-1,-8.449096680E-1
3.018207702E0,-8.049011230E-2,-5.400085449E-1,-8.480987549E-1
3.023182068E0,-5.598449707E-2,-5.261535645E-1,-8.608856201E-1
3.028125915E0,-3.468322754E-2,-5.176391602E-1,-8.800659180E-1
3.033100280E0,-1.657104492E-2,-5.176391602E-1,-8.960418701E-1
3.038044128E0,-1.663208008E-3,-5.240325928E-1,-9.162750244E-1
3.043018493E0,1.644897461E-2,-5.325469971E-1,-9.343872070E-1
3.047962341E0,3.668212891E-2,-5.400085449E-1,-9.514312744E-1
3.052936706E0,5.586242676E-2,-5.506591797E-1,-9.716796875E-1
3.057880554E0,8.569335938E-2,-5.581207275E-1,-9.876556396E-1
3.062854919E0,1.208496094E-1,-5.666351318E-1,-1.003631592E0
3.067829284E0,1.634521484E-1,-5.794219971E-1,-1.017486572E0
3.072803650E0,2.071380615E-1,-5.900726318E-1,-1.028137207E0
3.077778015E0,2.486724854E-1,-5.932769775E-1,-1.040924072E0
3.082721862E0,2.902221680E-1,-5.922088623E-1,-1.055831909E0
3.087696228E0,3.221740723E-1,-5.900726318E-1,-1.068618774E0
3.092609558E0,3.488159180E-1,-5.868835449E-1,-1.082458496E0
3.097583923E0,3.658599854E-1,-5.858154297E-1,-1.094177246E0
3.102527771E0,3.754425049E-1,-5.868835449E-1,-1.109100342E0
3.107502136E0,3.786315918E-1,-5.900726318E-1,-1.119750977E0
3.112445984E0,3.871612549E-1,-5.953979492E-1,-1.131469727E0
3.117389831E0,3.999481201E-1,-6.028594971E-1,-1.145309448E0
3.122364196E0,4.191131592E-1,-6.081848145E-1,-1.160232544E0
3.127338562E0,4.404296875E-1,-6.060485840E-1,-1.173004150E0
3.132312927E0,4.595947266E-1,-5.996704102E-1,-1.188995361E0
3.137287292E0,4.777069092E-1,-5.847473145E-1,-1.206039429E0
3.142200622E0,4.936828613E-1,-5.613098145E-1,-1.217758179E0
3.147144470E0,5.011444092E-1,-5.346832275E-1,-1.227340698E0
3.152088318E0,4.990081787E-1,-5.048522949E-1,-1.235855103E0
3.157093200E0,4.851684570E-1,-4.803466797E-1,-1.243316650E0
3.162037048E0,4.574737549E-1,-4.590454102E-1,-1.245452881E0
3.166980896E0,4.159240723E-1,-4.366760254E-1,-1.240127563E0
3.171924743E0,3.594665527E-1,-4.217681885E-1,-1.224136353E0
3.176929626E0,2.966156006E-1,-4.132385254E-1,-1.192184448E0
3.181873474E0,2.295074463E-1,-3.972625732E-1,-1.159164429E0
3.186817321E0,1.549377441E-1,-3.898010254E-1,-1.121871948E0
3.191791687E0,8.888244629E-2,-3.993988037E-1,-1.081390381E0
3.196735534E0,3.881835938E-2,-4.089813232E-1,-1.038787842E0
3.201709900E0,1.005554199E-2,-4.153747559E-1,-1.005767822E0
3.206653747E0,6.866455078E-3,-4.196319580E-1,-9.770050049E-1
3.211628112E0,2.923583984E-2,-4.281616211E-1,-9.567565918E-1
3.216571960E0,7.290649414E-2,-4.281616211E-1,-9.482421875E-1
3.221515808E0,1.325683594E-1,-4.207000732E-1,-9.471740723E-1
3.226490173E0,1.975402832E-1,-4.100494385E-1,-9.471740723E-1
3.231434021E0,2.572021484E-1,-3.961944580E-1,-9.514312744E-1
3.236438903E0,3.094024658E-1,-3.770294189E-1,-9.524993896E-1
3.241382751E0,3.520050049E-1,-3.567810059E-1,-9.482421875E-1
3.246326599E0,3.796997070E-1,-3.333435059E-1,-9.407806396E-1
3.251270446E0,3.956756592E-1,-3.120422363E-1,-9.216003418E-1
3.256244812E0,3.999481201E-1,-2.928619385E-1,-8.896484375E-1
3.261219177E0,3.914184570E-1,-2.758178711E-1,-8.480987549E-1
3.266163025E0,3.765106201E-1,-2.630462646E-1,-8.001708984E-1
3.271106872E0,3.520050049E-1,-2.566528320E-1,-7.490386963E-1
3.276081237E0,3.211212158E-1,-2.577056885E-1,-7.000274658E-1
3.281025085E0,2.934112549E-1,-2.630462646E-1,-6.499633789E-1
3.285999450E0,2.678527832E-1,-2.811431885E-1,-6.094818115E-1
3.290973816E0,2.508087158E-1,-3.024597168E-1,-5.807189941E-1
3.295917663E0,2.444152832E-1,-3.258972168E-1,-5.540924072E-1
3.300892028E0,2.518768311E-1,-3.503875732E-1,-5.476989746E-1
3.305835876E0,2.689208984E-1,-3.706359863E-1,-5.530242920E-1
3.310810241E0,2.987365723E-1,-3.940734863E-1,-5.753936768E-1
3.315754089E0,3.392181396E-1,-4.260253906E-1,-6.105499268E-1
3.320728454E0,3.882293701E-1,-4.590454102E-1,-6.531677246E-1
3.325672302E0,4.425506592E-1,-4.920654297E-1,-7.010955811E-1
3.330646667E0,4.990081787E-1,-5.218963623E-1,-7.501068115E-1
3.335590515E0,5.480194092E-1,-5.527954102E-1,-8.044281006E-1
3.340564880E0,5.906219482E-1,-5.911407471E-1,-8.587493896E-1
3.345508728E0,6.151275635E-1,-6.305541992E-1,-9.109497070E-1
3.350483093E0,6.236419678E-1,-6.731719971E-1,-9.642181396E-1
3.355426941E0,6.204528809E-1,-7.093811035E-1,-1.014282227E0
3.360401306E0,6.012725830E-1,-7.370758057E-1,-1.060089111E0
3.365345153E0,5.458831787E-1,-7.083129883E-1,-1.155960083E0
3.370319519E0,4.713134766E-1,-7.221679688E-1,-1.284866333E0
3.375263366E0,4.191131592E-1,-8.063201904E-1,-1.364761353E0
3.380237732E0,3.733062744E-1,-8.606567383E-1,-1.395645142E0
3.385181579E0,3.253784180E-1,-8.702392578E-1,-1.397781372E0
3.390125427E0,2.721099854E-1,-8.436126709E-1,-1.381805420E0
3.395099792E0,2.199096680E-1,-8.073883057E-1,-1.375411987E0
3.400043640E0,1.677093506E-1,-7.914123535E-1,-1.390319824E0
3.405018005E0,1.293640137E-1,-8.041992188E-1,-1.422286987E0
3.409961853E0,1.091308594E-1,-8.361511230E-1,-1.462768555E0
3.414936218E0,1.006011963E-1,-8.734283447E-1,-1.489395142E0
3.419880066E0,1.016693115E-1,-9.075317383E-1,-1.493652344E0
3.424854431E0,1.059265137E-1,-9.203033447E-1,-1.479812622E0
3.429828796E0,1.069946289E-1,-9.117889404E-1,-1.456375122E0
3.434772644E0,1.112518311E-1,-8.968658447E-1,-1.429733276E0
3.439747009E0,1.101989746E-1,-8.777008057E-1,-1.402038574E0
3.444690857E0,1.123199463E-1,-8.670501709E-1,-1.374343872E0
3.449634704E0,1.144561768E-1,-8.638458252E-1,-1.347717285E0
3.454609070E0,1.176452637E-1,-8.617248535E-1,-1.321075439E0
3.459583435E0,1.208496094E-1,-8.595886230E-1,-1.291259766E0
3.464527282E0,1.229705811E-1,-8.617248535E-1,-1.263549805E0
3.469501648E0,1.240386963E-1,-8.734283447E-1,-1.233734131E0
3.474445495E0,1.165771484E-1,-8.872833252E-1,-1.200698853E0
3.479419861E0,1.016693115E-1,-8.968658447E-1,-1.165557861E0
3.484363708E0,7.823181152E-2,-9.021911621E-1,-1.125076294E0
3.489307556E0,4.734802246E-2,-9.000701904E-1,-1.069671631E0
3.494281921E0,7.919311523E-3,-8.926086426E-1,-1.010025024E0
3.499256286E0,-3.149414062E-2,-8.926086426E-1,-9.588928223E-1
3.504200134E0,-6.451416016E-2,-8.968658447E-1,-9.173431396E-1
3.509143982E0,-9.434509277E-2,-9.011383057E-1,-8.821868896E-1
3.514087829E0,-1.167144775E-1,-8.979339600E-1,-8.502349854E-1
3.519062195E0,-1.252288818E-1,-8.936767578E-1,-8.161468506E-1
3.524036560E0,-1.252288818E-1,-9.000701904E-1,-7.778015137E-1
3.528980407E0,-1.156463623E-1,-9.181823730E-1,-7.405090332E-1
3.533924255E0,-9.007263184E-2,-9.479980469E-1,-7.117462158E-1
3.538898620E0,-5.065917969E-2,-9.852905273E-1,-6.968383789E-1
3.543872986E0,-5.920410156E-3,-1.017242432E0,-6.872558594E-1
3.548847351E0,5.586242676E-2,-1.033218384E0,-6.872558594E-1
3.553791198E0,1.240386963E-1,-1.028961182E0,-6.936340332E-1
3.558765564E0,1.964721680E-1,-1.005523682E0,-6.957702637E-1
3.563709411E0,2.774353027E-1,-9.788970947E-1,-7.010955811E-1
3.568683777E0,3.583984375E-1,-9.735717773E-1,-7.053527832E-1
3.573627624E0,4.319000244E-1,-9.831542969E-1,-7.000274658E-1
3.578601989E0,5.032806396E-1,-9.991302490E-1,-6.957702637E-1
3.583545837E0,5.597381592E-1,-1.016174316E0,-6.915130615E-1
3.588489685E0,5.980834961E-1,-1.025772095E0,-6.840515137E-1
3.593433532E0,6.183166504E-1,-1.027893066E0,-6.744689941E-1
3.598438415E0,6.225891113E-1,-1.035354614E0,-6.627502441E-1
3.603382263E0,6.119384766E-1,-1.041748047E0,-6.563568115E-1
3.608326111E0,5.885009766E-1,-1.044937134E0,-6.595458984E-1
3.613300476E0,5.607910156E-1,-1.043884277E0,-6.797943115E-1
3.618244323E0,5.373687744E-1,-1.020446777E0,-7.138824463E-1
3.623218689E0,5.224456787E-1,-9.799652100E-1,-7.639465332E-1
3.628162536E0,5.256500244E-1,-9.416198730E-1,-8.331909180E-1
3.633136902E0,5.437469482E-1,-9.075317383E-1,-9.141540527E-1
3.638080749E0,5.746459961E-1,-8.872833252E-1,-1.005767822E0
3.643055114E0,6.204528809E-1,-8.563842773E-1,-1.105895996E0
3.647998962E0,6.651916504E-1,-8.095245361E-1,-1.199645996E0
3.652942810E0,7.024841309E-1,-7.466735840E-1,-1.276336670E0
3.657917175E0,7.269744873E-1,-6.742248535E-1,-1.337066650E0
3.662891540E0,7.173919678E-1,-5.794219971E-1,-1.370086670E0
3.667835388E0,6.236419678E-1,-4.515838623E-1,-1.360488892E0
3.672779236E0,4.968872070E-1,-4.068450928E-1,-1.318954468E0
3.677753601E0,4.361572266E-1,-4.696960449E-1,-1.262496948E0
3.682697448E0,4.382934570E-1,-4.729003906E-1,-1.209228516E0
3.687641296E0,4.276428223E-1,-3.876800537E-1,-1.160232544E0
3.692615661E0,3.967437744E-1,-2.971343994E-1,-1.092056274E0
3.697590027E0,3.786315918E-1,-2.470550537E-1,-1.001495361E0
3.702533874E0,3.839569092E-1,-2.140350342E-1,-8.853912354E-1
3.707508239E0,4.180603027E-1,-1.714324951E-1,-7.575531006E-1
3.712452087E0,4.659881592E-1,-1.192321777E-1,-6.371765137E-1
3.717426452E0,5.192565918E-1,-5.957031250E-2,-5.359802246E-1
3.722370300E0,5.682525635E-1,-1.376342773E-2,-4.454345703E-1
3.727314148E0,6.098022461E-1,2.032470703E-2,-3.580780029E-1
3.732288513E0,6.385650635E-1,4.908752441E-2,-2.728576660E-1
3.737262878E0,6.545410156E-1,7.464599609E-2,-1.918945312E-1
3.742206726E0,6.673278809E-1,9.915161133E-2,-1.205291748E-1
3.747181091E0,6.790466309E-1,1.204528809E-1,-5.448913574E-2
3.752124939E0,6.960906982E-1,1.332397461E-1,9.155273438E-4
3.757099304E0,7.205810547E-1,1.407012939E-1,4.139709473E-2
3.762073669E0,7.536163330E-1,1.470947266E-1,6.909179688E-2
3.767017517E0,7.983551025E-1,1.598663330E-1,7.334899902E-2
3.771961364E0,8.473510742E-1,1.758422852E-1,6.483459473E-2
3.776905212E0,9.038085938E-1,1.939544678E-1,3.607177734E-2
3.781879577E0,9.645385742E-1,2.035522461E-1,-6.546020508E-3
3.786823425E0,1.018859863E0,2.056732178E-1,-6.086730957E-2
3.791797790E0,1.064666748E0,2.056732178E-1,-1.258544922E-1
3.796772155E0,1.103012085E0,2.067413330E-1,-1.940307617E-1
3.801746521E0,1.123260498E0,2.056732178E-1,-2.611389160E-1
3.806690368E0,1.136047363E0,2.109985352E-1,-3.261260986E-1
3.811634216E0,1.140304565E0,2.216491699E-1,-3.889770508E-1
3.816608581E0,1.136047363E0,2.312469482E-1,-4.454345703E-1
3.821582946E0,1.125381470E0,2.461547852E-1,-4.987030029E-1
3.826557312E0,1.107284546E0,2.631988525E-1,-5.434417725E-1
3.831501159E0,1.089172363E0,2.749176025E-1,-5.871124268E-1
3.836445007E0,1.069992065E0,2.908935547E-1,-6.275939941E-1
3.841388855E0,1.050827026E0,3.068847656E-1,-6.606140137E-1
3.846332702E0,1.030578613E0,3.249816895E-1,-6.904449463E-1
3.851307068E0,1.009277344E0,3.441619873E-1,-7.128143311E-1
3.856250915E0,9.943542480E-1,3.675994873E-1,-7.245330811E-1
3.861225280E0,9.794464111E-1,3.910369873E-1,-7.277221680E-1
3.866199646E0,9.645385742E-1,4.027557373E-1,-7.277221680E-1
3.871143493E0,9.485473633E-1,3.942260742E-1,-7.170715332E-1
3.876117859E0,9.347076416E-1,3.782501221E-1,-6.989593506E-1
3.881061706E0,9.272460938E-1,3.899688721E-1,-6.723327637E-1
3.886036071E0,9.197998047E-1,4.112701416E-1,-6.371765137E-1
3.891010437E0,9.155273438E-1,4.336395264E-1,-5.988311768E-1
3.895954284E0,9.070129395E-1,4.560089111E-1,-5.615539551E-1
3.900898132E0,9.048767090E-1,4.773254395E-1,-5.242614746E-1
3.905841980E0,8.995513916E-1,4.869079590E-1,-4.859161377E-1
3.910846862E0,8.889007568E-1,4.826507568E-1,-4.454345703E-1
3.915790710E0,8.750457764E-1,4.709320068E-1,-4.006958008E-1
3.920734558E0,8.558807373E-1,4.656066895E-1,-3.591461182E-1
3.925678405E0,8.367004395E-1,4.730529785E-1,-3.218688965E-1
3.930652771E0,8.153991699E-1,4.762573242E-1,-2.909698486E-1
3.935596618E0,7.940979004E-1,4.687957764E-1,-2.643432617E-1
3.940570984E0,7.727813721E-1,4.602813721E-1,-2.451629639E-1
3.945545349E0,7.514801025E-1,4.464263916E-1,-2.323760986E-1
3.950519714E0,7.397613525E-1,4.304504395E-1,-2.302551270E-1
3.955463562E0,7.408294678E-1,4.293823242E-1,-2.334442139E-1
3.960437927E0,7.525482178E-1,4.347076416E-1,-2.419738770E-1
3.965381775E0,7.759857178E-1,4.421691895E-1,-2.590179443E-1
3.970356140E0,8.015441895E-1,4.453582764E-1,-2.835083008E-1
3.975299987E0,8.303070068E-1,4.368438721E-1,-3.133392334E-1
3.980274353E0,8.537445068E-1,4.144744873E-1,-3.442382812E-1
3.985218200E0,8.697204590E-1,3.857116699E-1,-3.761901855E-1
3.990162048E0,8.761138916E-1,3.526763916E-1,-4.102783203E-1
3.995105896E0,8.825073242E-1,3.143310547E-1,-4.454345703E-1
4.000080261E0,8.835754395E-1,2.770538330E-1,-4.795227051E-1
4.005024109E0,8.846435547E-1,2.418975830E-1,-5.072174072E-1
4.009998474E0,8.825073242E-1,2.056732178E-1,-5.391845703E-1
4.014942321E0,8.846435547E-1,1.758422852E-1,-5.690002441E-1
4.019916687E0,8.846435547E-1,1.385650635E-1,-5.956420898E-1
4.024860534E0,8.825073242E-1,9.808349609E-2,-6.190795898E-1
4.029834900E0,8.920898438E-1,7.357788086E-2,-6.382446289E-1
4.034778747E0,9.144592285E-1,5.867004395E-2,-6.616821289E-1
4.039722595E0,9.453582764E-1,4.908752441E-2,-6.872558594E-1
4.044696960E0,9.911651611E-1,4.269409180E-2,-7.192077637E-1
4.049640808E0,1.042297363E0,3.311157227E-2,-7.596893311E-1
4.054615173E0,1.088104248E0,8.605957031E-3,-8.076171875E-1
4.059589538E0,1.122192383E0,-1.803588867E-2,-8.608856201E-1
4.064563903E0,1.144561768E0,-4.145812988E-2,-9.152221680E-1
4.069538269E0,1.155212402E0,-5.744934082E-2,-9.695434570E-1
4.074482116E0,1.153091431E0,-6.170654297E-2,-1.015350342E0
4.079456482E0,1.143493652E0,-6.170654297E-2,-1.051574707E0
4.084400329E0,1.128585815E0,-5.850219727E-2,-1.071807861E0
4.089374695E0,1.107284546E0,-5.957031250E-2,-1.082458496E0
4.094318542E0,1.083847046E0,-6.382751465E-2,-1.085662842E0
4.099292907E0,1.069992065E0,-6.916809082E-2,-1.079269409E0
4.104236755E0,1.065734863E0,-6.916809082E-2,-1.059020996E0
4.109211120E0,1.077453613E0,-7.235717773E-2,-1.034530640E0
4.114154968E0,1.101959229E0,-7.554626465E-2,-1.006835938E0
4.119098816E0,1.133911133E0,-7.875061035E-2,-9.759368896E-1
4.124042663E0,1.170135498E0,-9.046936035E-2,-9.386444092E-1
4.129017028E0,1.201019287E0,-1.128387451E-1,-8.960418701E-1
4.133960876E0,1.224456787E0,-1.352081299E-1,-8.502349854E-1
4.138935241E0,1.240432739E0,-1.607666016E-1,-7.980346680E-1
4.143879089E0,1.252151489E0,-1.820831299E-1,-7.415771484E-1
4.148853454E0,1.267074585E0,-1.959228516E-1,-6.851196289E-1
4.153797302E0,1.280914307E0,-2.097778320E-1,-6.286621094E-1
4.158771667E0,1.296890259E0,-2.140350342E-1,-5.785980225E-1
4.163715515E0,1.309677124E0,-2.129669189E-1,-5.327911377E-1
4.168689880E0,1.315002441E0,-2.108459473E-1,-4.848480225E-1
4.173664245E0,1.309677124E0,-2.055206299E-1,-4.347839355E-1
4.178638611E0,1.291564941E0,-1.991271973E-1,-3.879089355E-1
4.183582458E0,1.257476807E0,-1.959228516E-1,-3.367767334E-1
4.188526306E0,1.208480835E0,-1.969909668E-1,-2.835083008E-1
4.193470153E0,1.150955200E0,-1.991271973E-1,-2.323760986E-1
4.198444519E0,1.091293335E0,-1.969909668E-1,-1.823120117E-1
4.203388366E0,1.035903931E0,-1.884765625E-1,-1.418304443E-1
4.208362732E0,9.911651611E-1,-1.788787842E-1,-1.066741943E-1
4.213306579E0,9.655914307E-1,-1.714324951E-1,-8.430480957E-2
4.218280945E0,9.602661133E-1,-1.607666016E-1,-7.258605957E-2
4.223224792E0,9.677276611E-1,-1.533203125E-1,-6.832885742E-2
4.228199157E0,9.879760742E-1,-1.458587646E-1,-7.153320312E-2
4.233143005E0,1.015670776E0,-1.362762451E-1,-8.004760742E-2
4.238086853E0,1.046554565E0,-1.149749756E-1,-9.283447266E-2
4.243061218E0,1.079574585E0,-9.259033203E-2,-1.109466553E-1
4.248005066E0,1.113677979E0,-7.235717773E-2,-1.322479248E-1
4.252979431E0,1.145629883E0,-6.277465820E-2,-1.546173096E-1
4.257923278E0,1.172256470E0,-7.235717773E-2,-1.780548096E-1
4.262897644E0,1.181854248E0,-9.793090820E-2,-1.972198486E-1
4.267841491E0,1.178649902E0,-1.192321777E-1,-2.121429443E-1
4.272815857E0,1.164810181E0,-1.373443604E-1,-2.185363770E-1
4.277759704E0,1.145629883E0,-1.469268799E-1,-2.185363770E-1
4.282734070E0,1.129653931E0,-1.479949951E-1,-2.142791748E-1
4.287677917E0,1.120056152E0,-1.362762451E-1,-2.100067139E-1
4.292652282E0,1.110473633E0,-1.128387451E-1,-2.089385986E-1
4.297626648E0,1.101959229E0,-8.300781250E-2,-2.132110596E-1
4.302570495E0,1.092361450E0,-5.212402344E-2,-2.206573486E-1
4.307544861E0,1.082778931E0,-1.269531250E-2,-2.398376465E-1
4.312488708E0,1.077453613E0,3.523254395E-2,-2.771148682E-1
4.317432556E0,1.083847046E0,8.743286133E-2,-3.250579834E-1
4.322406921E0,1.099822998E0,1.449584961E-1,-3.793945312E-1
4.327381286E0,1.124328613E0,2.056732178E-1,-4.390411377E-1
4.332325134E0,1.155212402E0,2.589416504E-1,-4.976348877E-1
4.337299499E0,1.180786133E0,3.036804199E-1,-5.572814941E-1
4.342243347E0,1.194625854E0,3.356323242E-1,-6.084136963E-1
4.347217712E0,1.192504883E0,3.569488525E-1,-6.414489746E-1
4.352161560E0,1.177581787E0,3.665313721E-1,-6.574249268E-1
4.357135925E0,1.154144287E0,3.601379395E-1,-6.531677246E-1
4.362079773E0,1.132843018E0,3.548126221E-1,-6.318511963E-1
4.367023620E0,1.121124268E0,3.686676025E-1,-5.881805420E-1
4.371997986E0,1.127517700E0,4.165954590E-1,-5.370483398E-1
4.376972351E0,1.154144287E0,4.890441895E-1,-4.901733398E-1
4.381916198E0,1.191436768E0,5.518951416E-1,-4.539489746E-1
4.386860046E0,1.230850220E0,5.966339111E-1,-4.358520508E-1
4.391834411E0,1.263870239E0,6.317901611E-1,-4.369049072E-1
4.396778259E0,1.284118652E0,6.690673828E-1,-4.507598877E-1
4.401752624E0,1.296890259E0,7.127380371E-1,-4.795227051E-1
4.406696472E0,1.303283691E0,7.500305176E-1,-5.231933594E-1
4.411670837E0,1.300094604E0,7.638702393E-1,-5.743255615E-1
4.416614685E0,1.286239624E0,7.521514893E-1,-6.244049072E-1
4.421589050E0,1.259613037E0,7.201995850E-1,-6.638183594E-1
4.426532898E0,1.214874268E0,6.530914307E-1,-6.851196289E-1
4.431507263E0,1.153091431E0,5.476226807E-1,-6.797943115E-1
4.436481628E0,1.080642700E0,4.283142090E-1,-6.425018311E-1
4.441425476E0,1.016738892E0,3.217926025E-1,-5.775299072E-1
4.446399841E0,9.751892090E-1,2.525482178E-1,-4.933776855E-1
4.451343689E0,9.677276611E-1,2.142028809E-1,-4.060211182E-1
4.456287536E0,9.815826416E-1,1.992797852E-1,-3.250579834E-1
4.461231384E0,1.005020142E0,1.875610352E-1,-2.515563965E-1
4.466205749E0,1.022064209E0,1.641387939E-1,-1.876373291E-1
4.471149597E0,1.022064209E0,1.385650635E-1,-1.397094727E-1
4.476123962E0,1.001815796E0,1.172637939E-1,-1.162719727E-1
4.481067810E0,9.751892090E-1,9.489440918E-2,-1.109466553E-1
4.486042175E0,9.442901611E-1,6.719970703E-2,-1.269226074E-1
4.490986023E0,9.091339111E-1,3.097534180E-2,-1.578063965E-1
4.495960388E0,8.654632568E-1,-1.696777344E-2,-1.950988770E-1
4.500904236E0,8.260498047E-1,-6.063842773E-2,-2.259826660E-1
4.505878601E0,7.972869873E-1,-7.981872559E-2,-2.504882812E-1
4.510852966E0,7.781066895E-1,-8.300781250E-2,-2.717895508E-1
4.515796814E0,7.663879395E-1,-8.193969727E-2,-2.856445312E-1
4.520771179E0,7.589416504E-1,-8.940124512E-2,-2.962951660E-1
4.525715027E0,7.450866699E-1,-1.032562256E-1,-3.058776855E-1
4.530689392E0,7.163238525E-1,-1.117706299E-1,-3.154754639E-1
4.535633239E0,6.726531982E-1,-1.224212646E-1,-3.229217529E-1
4.540607605E0,6.204528809E-1,-1.341400146E-1,-3.293151855E-1
4.545551452E0,5.639953613E-1,-1.501159668E-1,-3.389129639E-1
4.550525818E0,5.128631592E-1,-1.639709473E-1,-3.474273682E-1
4.555469665E0,4.777069092E-1,-1.714324951E-1,-3.516845703E-1
4.560444030E0,4.617309570E-1,-1.735534668E-1,-3.431701660E-1
4.565387878E0,4.627990723E-1,-1.746215820E-1,-3.367767334E-1
4.570362243E0,4.691925049E-1,-1.735534668E-1,-3.293151855E-1
4.575306091E0,4.787750244E-1,-1.778106689E-1,-3.165435791E-1
4.580280456E0,4.872894287E-1,-1.852722168E-1,-2.952270508E-1
4.585254821E0,4.808959961E-1,-1.980590820E-1,-2.696685791E-1
4.590198669E0,4.627990723E-1,-2.151031494E-1,-2.355804443E-1
4.595142517E0,4.351043701E-1,-2.332153320E-1,-1.961669922E-1
4.600086364E0,3.999481201E-1,-2.353363037E-1,-1.460876465E-1
4.605060730E0,3.669128418E-1,-2.364044189E-1,-1.024169922E-1
4.610035095E0,3.338928223E-1,-2.417297363E-1,-6.086730957E-2
4.614978943E0,2.998046875E-1,-2.555847168E-1,-2.359008789E-2
4.619922790E0,2.699737549E-1,-2.673034668E-1,5.172729492E-3
4.624897155E0,2.518768311E-1,-2.704925537E-1,1.902770996E-2
4.629871521E0,2.433471680E-1,-2.651672363E-1,2.008056641E-2
4.634815368E0,2.433471680E-1,-2.704925537E-1,9.429931641E-3
4.639789734E0,2.444152832E-1,-2.875366211E-1,-6.546020508E-3
4.644733581E0,2.465515137E-1,-3.077850342E-1,-1.826477051E-2
4.649707946E0,2.497406006E-1,-3.290863037E-1,-2.040100098E-2
4.654651794E0,2.550659180E-1,-3.461303711E-1,-2.784729004E-2
4.659626159E0,2.838287354E-1,-3.461303711E-1,-6.513977051E-2
4.664570007E0,3.520050049E-1,-3.557128906E-1,-1.482238770E-1
4.669544372E0,4.340362549E-1,-3.525238037E-1,-2.377014160E-1
4.674488220E0,4.958190918E-1,-3.642425537E-1,-3.144073486E-1
4.679462585E0,5.299072266E-1,-4.057922363E-1,-3.804473877E-1
4.684406433E0,5.384216309E-1,-4.473266602E-1,-4.188079834E-1
4.689380798E0,5.288391113E-1,-4.792938232E-1,-4.230651855E-1
4.694324646E0,5.086059570E-1,-4.942016602E-1,-4.081420898E-1
4.699299011E0,4.798431396E-1,-4.973907471E-1,-3.857727051E-1
4.704242859E0,4.382934570E-1,-5.016632080E-1,-3.761901855E-1
4.709217224E0,3.765106201E-1,-5.101776123E-1,-3.847198486E-1
4.714161071E0,3.008728027E-1,-5.165710449E-1,-4.081420898E-1
4.719104919E0,2.188415527E-1,-5.197753906E-1,-4.369049072E-1
4.724079284E0,1.453399658E-1,-5.069885254E-1,-4.667358398E-1
4.729053650E0,8.569335938E-2,-4.792938232E-1,-4.901733398E-1
4.733964535E0,3.988647461E-2,-4.515838623E-1,-5.029602051E-1
4.738938900E0,1.538085938E-2,-4.207000732E-1,-5.114746094E-1
4.743882748E0,2.593994141E-3,-3.823547363E-1,-5.018920898E-1
4.748857113E0,-6.988525391E-3,-3.312225342E-1,-4.763336182E-1
4.753800961E0,-6.988525391E-3,-2.758178711E-1,-4.432983398E-1
4.758775326E0,-9.124755859E-3,-2.385406494E-1,-4.081420898E-1
4.763719174E0,-1.231384277E-2,-2.193603516E-1,-3.761901855E-1
4.768693539E0,-5.920410156E-3,-2.119140625E-1,-3.538208008E-1
4.773637387E0,-2.731323242E-3,-1.714324951E-1,-3.271942139E-1
4.778611752E0,-6.988525391E-3,-1.373443604E-1,-2.909698486E-1
4.783555600E0,-1.550292969E-2,-1.224212646E-1,-2.536926270E-1
4.788499447E0,-2.828979492E-2,-1.096343994E-1,-2.142791748E-1
4.793473813E0,-2.935791016E-2,-9.472656250E-2,-1.801757812E-1
4.798448178E0,-2.722167969E-2,-7.554626465E-2,-1.471557617E-1
4.803392025E0,-1.657104492E-2,-5.850219727E-2,-1.162719727E-1
4.808366391E0,-3.799438477E-3,-3.826904297E-2,-8.430480957E-2
4.813310238E0,1.219177246E-2,-1.164245605E-2,-4.702758789E-2
4.818284604E0,2.496337891E-2,-2.044677734E-3,-1.612854004E-2
4.823228451E0,3.562927246E-2,5.401611328E-3,5.172729492E-3
4.828202816E0,3.988647461E-2,3.097534180E-2,2.114868164E-2
4.833146664E0,4.627990723E-2,5.653381348E-2,3.393554688E-2
4.838090512E0,5.799865723E-2,5.973815918E-2,4.672241211E-2
4.843064877E0,7.929992676E-2,4.695129395E-2,5.737304688E-2
4.848008725E0,1.101989746E-1,2.990722656E-2,6.909179688E-2
4.852983090E0,1.219024658E-1,-7.369995117E-3,5.311584473E-2
4.857957455E0,8.355712891E-2,-7.554626465E-2,-2.040100098E-2
4.862901303E0,5.586242676E-2,-9.046936035E-2,-6.300354004E-2
4.867845150E0,6.332397461E-2,-6.916809082E-2,-7.365417480E-2
4.872788998E0,1.038055420E-1,-6.170654297E-2,-7.153320312E-2
4.877793881E0,1.645202637E-1,-5.850219727E-2,-7.046508789E-2
4.882737729E0,2.263031006E-1,-4.252624512E-2,-7.365417480E-2
4.887681576E0,2.827606201E-1,-3.720092773E-2,-8.004760742E-2
4.892625424E0,3.147277832E-1,-5.317687988E-2,-9.069824219E-2
4.897599789E0,3.317718506E-1,-7.661437988E-2,-1.002807617E-1
4.902574154E0,3.392181396E-1,-9.686279297E-2,-1.173400879E-1
4.907518002E0,3.392181396E-1,-1.192321777E-1,-1.460876465E-1
4.912492367E0,3.370971680E-1,-1.320190430E-1,-1.737976074E-1
4.917466733E0,3.253784180E-1,-1.394653320E-1,-2.068176270E-1
4.922410580E0,3.115234375E-1,-1.639709473E-1,-2.398376465E-1
4.927384945E0,2.902221680E-1,-1.980590820E-1,-2.717895508E-1
4.932328793E0,2.667846680E-1,-2.289581299E-1,-3.048248291E-1
4.937303158E0,2.380218506E-1,-2.502593994E-1,-3.293151855E-1
4.942247006E0,2.199096680E-1,-2.630462646E-1,-3.431701660E-1
4.947221371E0,1.964721680E-1,-2.715606689E-1,-3.474273682E-1
4.952195736E0,1.655883789E-1,-2.811431885E-1,-3.527526855E-1
4.957139584E0,1.336212158E-1,-3.013916016E-1,-3.580780029E-1
4.962083432E0,9.101867676E-2,-3.333435059E-1,-3.761901855E-1
4.967027279E0,4.840087891E-2,-3.557128906E-1,-4.017639160E-1
4.971971127E0,2.816772461E-2,-3.578491211E-1,-4.209289551E-1
4.976945492E0,8.987426758E-3,-3.567810059E-1,-4.241333008E-1
4.981889340E0,-9.124755859E-3,-3.525238037E-1,-4.219970703E-1
4.986863705E0,-1.977539062E-2,-3.439941406E-1,-4.273223877E-1
4.991807553E0,-3.361511230E-2,-3.333435059E-1,-4.294586182E-1
4.996781918E0,-4.533386230E-2,-3.195037842E-1,-4.230651855E-1
5.001756283E0,-5.598449707E-2,-3.109741211E-1,-4.166717529E-1
5.006730649E0,-6.237792969E-2,-2.864685059E-1,-4.092102051E-1
5.011674496E0,-6.237792969E-2,-2.481231689E-1,-4.081420898E-1
5.016648861E0,-6.451416016E-2,-2.129669189E-1,-4.124145508E-1
5.021592709E0,-7.302856445E-2,-1.916656494E-1,-3.953704834E-1
5.026536557E0,-7.942199707E-2,-1.820831299E-1,-3.644714355E-1
5.031480404E0,-8.367919922E-2,-1.788787842E-1,-3.303833008E-1
5.036454770E0,-8.688354492E-2,-1.586456299E-1,-2.867126465E-1
5.041398617E0,-8.688354492E-2,-1.213531494E-1,-2.366485596E-1
5.046372983E0,-9.114074707E-2,-8.621215820E-2,-1.972198486E-1
5.051316830E0,-1.092529297E-1,-5.957031250E-2,-1.599426270E-1
5.056291195E0,-1.369476318E-1,-3.294372559E-2,-1.173400879E-1
5.061235043E0,-1.667785645E-1,-5.249023438E-3,-6.619262695E-2
5.066209408E0,-1.976776123E-1,2.990722656E-2,-9.735107422E-3
5.071183774E0,-2.168426514E-1,8.424377441E-2,4.032897949E-2
5.076127621E0,-2.306976318E-1,1.161956787E-1,7.653808594E-2
5.081071469E0,-2.509307861E-1,1.343078613E-1,9.039306641E-2
5.086045834E0,-2.796936035E-1,1.705169678E-1,1.063690186E-1
5.090989682E0,-3.116607666E-1,1.992797852E-1,1.298065186E-1
5.095964047E0,-3.287048340E-1,2.227172852E-1,1.393890381E-1
5.100907895E0,-3.393554688E-1,2.386932373E-1,1.393890381E-1
5.105882260E0,-3.457489014E-1,2.461547852E-1,1.330108643E-1
5.110856625E0,-3.489379883E-1,2.429656982E-1,1.255493164E-1
5.115800473E0,-3.425445557E-1,2.472229004E-1,1.138305664E-1
5.120774838E0,-3.201751709E-1,2.621307373E-1,1.010437012E-1
5.125718686E0,-2.882232666E-1,2.717285156E-1,8.293151855E-2
5.130693051E0,-2.551879883E-1,2.653350830E-1,7.015991211E-2
5.135636899E0,-2.200469971E-1,2.216491699E-1,4.672241211E-2
5.140611264E0,-1.912841797E-1,1.875610352E-1,9.429931641E-3
5.145555111E0,-1.859588623E-1,1.726531982E-1,-1.506042480E-2
5.150529477E0,-1.784973145E-1,1.705169678E-1,-3.956604004E-2
5.155473324E0,-1.678466797E-1,1.577453613E-1,-7.472229004E-2
5.160447690E0,-1.454772949E-1,1.438903809E-1,-1.024169922E-1
5.165391537E0,-1.241607666E-1,1.268463135E-1,-1.215972900E-1
5.170365902E0,-9.753417969E-2,1.044769287E-1,-1.311798096E-1
5.175309750E0,-8.367919922E-2,8.424377441E-2,-1.546173096E-1
5.180284115E0,-6.877136230E-2,7.890319824E-2,-1.663360596E-1
5.185227963E0,-6.025695801E-2,6.719970703E-2,-1.833801270E-1
5.190171811E0,-6.237792969E-2,3.311157227E-2,-2.057495117E-1
5.195115658E0,-7.090759277E-2,-2.044677734E-3,-2.142791748E-1
5.200090024E0,-8.155822754E-2,-2.122497559E-2,-2.121429443E-1
5.205064389E0,-8.367919922E-2,-3.613281250E-2,-2.110748291E-1
5.210038754E0,-9.007263184E-2,-4.252624512E-2,-2.025604248E-1
5.214982602E0,-1.007385254E-1,-6.170654297E-2,-1.855163574E-1
5.219956967E0,-1.135101318E-1,-1.256256104E-1,-1.769866943E-1
5.224900815E0,-1.316223145E-1,-1.724853516E-1,-1.578063965E-1
5.229875180E0,-1.582489014E-1,-1.842041016E-1,-1.013488770E-1
5.234819027E0,-1.795654297E-1,-1.969909668E-1,-5.554199219E-2
5.239793393E0,-1.806182861E-1,-1.874084473E-1,-4.809570312E-2
5.244737240E0,-1.721038818E-1,-1.724853516E-1,-3.317260742E-2
5.249711606E0,-1.603851318E-1,-1.756896973E-1,-2.040100098E-2
5.254655453E0,-1.603851318E-1,-1.767578125E-1,4.104614258E-3
5.259629818E0,-1.539916992E-1,-1.586456299E-1,4.351806641E-2
5.264573666E0,-1.390838623E-1,-1.629028320E-1,7.441711426E-2
5.269517514E0,-1.188354492E-1,-1.405334473E-1,1.106414795E-1
5.274461361E0,-9.434509277E-2,-9.365844727E-2,1.585693359E-1
5.279435727E0,-6.663513184E-2,-2.973937988E-2,1.958618164E-1
5.284379574E0,-3.788757324E-2,4.908752441E-2,2.310028076E-1
5.289353940E0,-4.000854492E-2,7.785034180E-2,2.778778076E-1
5.294297787E0,-5.172729492E-2,7.252502441E-2,3.375396729E-1
5.299272152E0,-6.237792969E-2,6.932067871E-2,3.993225098E-1
5.304216000E0,-6.983947754E-2,6.292724609E-2,4.344787598E-1
5.309190365E0,-7.730102539E-2,6.506347656E-2,4.579162598E-1
5.314134213E0,-8.049011230E-2,7.038879395E-2,4.749603271E-1
5.319108578E0,-8.262634277E-2,6.506347656E-2,4.760131836E-1
5.324052426E0,-8.049011230E-2,5.653381348E-2,4.685668945E-1
5.328996274E0,-8.795166016E-2,3.948974609E-2,4.781494141E-1
5.333970639E0,-1.188354492E-1,7.629394531E-5,5.239562988E-1
5.338914486E0,-1.081848145E-1,4.348754883E-3,5.303497314E-1
5.343888852E0,-4.426574707E-2,4.055786133E-2,4.888000488E-1
5.348832699E0,-3.799438477E-3,6.292724609E-2,4.792175293E-1
5.353807065E0,-2.731323242E-3,3.736877441E-2,5.101013184E-1
5.358781430E0,-1.124572754E-2,2.139282227E-2,5.410003662E-1
5.363725277E0,-8.056640625E-3,3.630065918E-2,5.686950684E-1
5.368699643E0,3.662109375E-3,3.204345703E-2,5.899963379E-1
5.373643490E0,-1.231384277E-2,-5.249023438E-3,6.347503662E-1
5.378617856E0,-7.409667969E-2,-8.833312988E-2,7.402038574E-1
5.383561703E0,-7.623291016E-2,-9.898376465E-2,7.806854248E-1
5.388536068E0,-2.935791016E-2,-5.850219727E-2,7.615051270E-1
5.393479916E0,2.391052246E-2,8.605957031E-3,7.540588379E-1
5.398454281E0,4.414367676E-2,2.244567871E-2,7.849426270E-1
5.403428647E0,4.730224609E-3,1.072692871E-2,8.275604248E-1
5.408403012E0,-3.468322754E-2,-4.180908203E-3,8.733673096E-1
5.413346859E0,-9.434509277E-2,-5.212402344E-2,9.607086182E-1
5.418321225E0,-2.072601318E-1,-1.767578125E-1,1.091735840E0
5.423265072E0,-2.200469971E-1,-1.799468994E-1,1.117309570E0
5.428239438E0,-2.168426514E-1,-9.259033203E-2,1.151397705E0
5.433183285E0,-2.722320557E-1,-6.916809082E-2,1.255798340E0
5.438127133E0,-3.606567383E-1,-1.085815430E-1,1.386825562E0
5.443070981E0,-4.192504883E-1,-1.107025146E-1,1.521041870E0
5.448045346E0,-4.309692383E-1,-9.365844727E-2,1.630767822E0
5.452989193E0,-4.224395752E-1,-1.021881104E-1,1.692550659E0
5.457933041E0,-4.299011230E-1,-9.686279297E-2,1.767120361E0
5.462907406E0,-4.469451904E-1,-1.160278320E-1,1.855529785E0
5.467851254E0,-4.980773926E-1,-1.383972168E-1,1.966323853E0
5.472825619E0,-5.800933838E-1,-1.543884277E-1,2.079238892E0
5.477799984E0,-6.291046143E-1,-1.746215820E-1,2.133575439E0
5.482743832E0,-6.291046143E-1,-1.458587646E-1,2.139968872E0
5.487687680E0,-6.003417969E-1,-9.579467773E-2,2.108001709E0
5.492662045E0,-5.651855469E-1,-6.489562988E-2,2.059005737E0
5.497605893E0,-5.374908447E-1,-4.466247559E-2,1.956741333E0
5.502580258E0,-5.034027100E-1,-6.063842773E-2,1.750076294E0
5.507554623E0,-4.213714600E-1,-1.288146973E-1,1.555130005E0
5.512498471E0,-3.255004883E-1,-1.895294189E-1,1.403869629E0
5.517442318E0,-2.765045166E-1,-2.683715820E-1,1.274963379E0
5.522416684E0,-3.020629883E-1,-3.706359863E-1,1.194015503E0
5.527391049E0,-4.107208252E-1,-5.027313232E-1,1.185485840E0
5.532334897E0,-5.151214600E-1,-5.762329102E-1,1.178024292E0
5.537278744E0,-5.673217773E-1,-5.836791992E-1,1.116241455E0
5.542253109E0,-6.141815186E-1,-5.804901123E-1,1.036346436E0
5.547227475E0,-6.823577881E-1,-6.390838623E-1,9.947967529E-1
5.552171322E0,-7.771759033E-1,-7.594451904E-1,9.788208008E-1
5.557145688E0,-8.623962402E-1,-8.851470947E-1,9.458007812E-1
5.562089535E0,-9.327087402E-1,-9.831542969E-1,9.276885986E-1
5.567033383E0,-9.859619141E-1,-1.050262451E0,9.468688965E-1
5.572007748E0,-1.061599731E0,-1.126968384E0,9.692382812E-1
5.576951596E0,-1.137237549E0,-1.147201538E0,9.521942139E-1
5.581925961E0,-1.160675049E0,-1.072647095E0,9.745635986E-1
5.586900326E0,-1.172393799E0,-1.036422729E0,9.564514160E-1
5.591844174E0,-1.171325684E0,-9.437408447E-1,9.106445312E-1
5.596788022E0,-1.177719116E0,-9.032592773E-1,8.286285400E-1
5.601762387E0,-1.187301636E0,-8.755645752E-1,8.115844727E-1
5.606736752E0,-1.201156616E0,-8.777008057E-1,9.149017334E-1
5.611680600E0,-1.245895386E0,-8.958129883E-1,1.051269531E0
5.616624447E0,-1.298095703E0,-9.224395752E-1,1.169509888E0
5.621598813E0,-1.341766357E0,-8.958129883E-1,1.220642090E0
5.626573178E0,-1.355606079E0,-8.031311035E-1,1.288818359E0
5.631517025E0,-1.322586060E0,-7.029876709E-1,1.407058716E0
5.636491391E0,-1.265060425E0,-6.678466797E-1,1.410263062E0
5.641435238E0,-1.192626953E0,-5.645141602E-1,1.335693359E0
5.646409604E0,-1.114868164E0,-4.164428711E-1,1.326095581E0
5.651353451E0,-1.056274414E0,-3.791503906E-1,1.376174927E0
5.656327816E0,-1.027511597E0,-3.738250732E-1,1.439025879E0
5.661302182E0,-1.015792847E0,-3.067169189E-1,1.531692505E0
5.666246029E0,-1.006210327E0,-2.715606689E-1,1.637161255E0
5.671220395E0,-1.016860962E0,-2.523803711E-1,1.710662842E0
5.676164242E0,-1.036026001E0,-2.055206299E-1,1.770309448E0
5.681108090E0,-1.055206299E0,-1.671600342E-1,1.820388794E0
5.686051938E0,-1.069061279E0,-1.128387451E-1,1.887496948E0
5.691026303E0,-1.081832886E0,-4.678344727E-2,1.982299805E0
5.695970150E0,-1.111663818E0,-2.441406250E-2,2.065399170E0
5.700944516E0,-1.158538818E0,3.097534180E-2,2.166595459E0
5.705888363E0,-1.216064453E0,1.044769287E-1,2.322128296E0
5.710862729E0,-1.263992310E0,6.080627441E-2,2.419067383E0
5.715806576E0,-1.295959473E0,9.062194824E-2,2.475524902E0
5.720780941E0,-1.324722290E0,1.161956787E-1,2.522399902E0
5.725724789E0,-1.360931396E0,1.183319092E-1,2.525588989E0
5.730699154E0,-1.372650146E0,1.438903809E-1,2.501083374E0
5.735673520E0,-1.355606079E0,1.343078613E-1,2.439300537E0
5.740647885E0,-1.284240723E0,7.145690918E-2,2.291229248E0
5.745591733E0,-1.166000366E0,5.867004395E-2,2.117599487E0
5.750566098E0,-1.028579712E0,1.179504395E-2,1.951416016E0
5.755509945E0,-8.900909424E-1,-1.000518799E-1,1.741546631E0
5.760484311E0,-7.665252686E-1,-1.810150146E-1,1.499740601E0
5.765428158E0,-6.685180664E-1,-1.905975342E-1,1.288818359E0
5.770402524E0,-5.896911621E-1,-2.119140625E-1,1.089614868E0
5.775346371E0,-5.342864990E-1,-2.491912842E-1,8.978576660E-1
5.780320736E0,-4.906158447E-1,-2.726287842E-1,7.380676270E-1
5.785264584E0,-4.554595947E-1,-2.928619385E-1,6.251525879E-1
5.790208432E0,-4.277648926E-1,-2.896728516E-1,5.527191162E-1
5.795152279E0,-4.043273926E-1,-2.832794189E-1,5.005187988E-1
5.800096127E0,-3.830261230E-1,-2.768859863E-1,4.664306641E-1
5.805070492E0,-3.691711426E-1,-2.491912842E-1,4.323425293E-1
5.810014340E0,-3.627929688E-1,-2.119140625E-1,3.897399902E-1
5.814988705E0,-3.777008057E-1,-1.682281494E-1,3.545837402E-1
5.819932553E0,-4.149780273E-1,-1.032562256E-1,3.386077881E-1
5.824906918E0,-4.639892578E-1,-3.507995605E-2,3.396606445E-1
5.829881283E0,-5.108642578E-1,2.883911133E-2,3.417968750E-1
5.834855649E0,-5.492095947E-1,8.956909180E-2,3.396606445E-1
5.839830014E0,-5.747680664E-1,1.470947266E-1,3.396606445E-1
5.844773861E0,-5.822296143E-1,1.950225830E-1,3.386077881E-1
5.849748227E0,-5.737152100E-1,2.312469482E-1,3.417968750E-1
5.854692074E0,-5.545349121E-1,2.717285156E-1,3.481903076E-1
5.859666440E0,-5.257720947E-1,3.026123047E-1,3.567047119E-1
5.864610287E0,-4.906158447E-1,3.249816895E-1,3.630981445E-1
5.869584652E0,-4.458770752E-1,3.335113525E-1,3.641662598E-1
5.874528500E0,-3.968811035E-1,3.196563721E-1,3.641662598E-1
5.879502865E0,-3.468017578E-1,2.823791504E-1,3.663024902E-1
5.884446713E0,-2.956695557E-1,2.482910156E-1,3.694915771E-1
5.889421078E0,-2.530670166E-1,2.344360352E-1,3.577728271E-1
5.894364926E0,-2.147216797E-1,2.344360352E-1,3.364715576E-1
5.899308774E0,-1.859588623E-1,2.301788330E-1,3.077087402E-1
5.904252621E0,-1.603851318E-1,2.131347656E-1,2.725524902E-1
5.909226986E0,-1.358795166E-1,1.843719482E-1,2.331390381E-1
5.914170834E0,-1.231079102E-1,1.566772461E-1,1.862640381E-1
5.919114682E0,-1.220397949E-1,1.385650635E-1,1.361999512E-1
5.924089047E0,-1.113891602E-1,9.701538086E-2,9.571838379E-2
5.929032895E0,-1.007385254E-1,3.843688965E-2,6.163024902E-2
5.934007260E0,-8.474731445E-2,-9.506225586E-3,4.139709473E-2
5.938951108E0,-7.090759277E-2,-4.573059082E-2,2.540588379E-2
5.943925473E0,-5.386352539E-2,-8.833312988E-2,1.156616211E-2
5.948869320E0,-4.214477539E-2,-1.447906494E-1,-1.220703125E-3
5.953843686E0,-4.107666016E-2,-1.831512451E-1,-1.080322266E-2
5.958818051E0,-6.770324707E-2,-2.108459473E-1,-2.677917480E-2
5.963761899E0,-1.231079102E-1,-3.045806885E-1,-6.193542480E-2
5.968705746E0,-1.987304688E-1,-4.995269775E-1,-9.815979004E-2
5.973680111E0,-2.935485840E-1,-6.646423340E-1,-1.205291748E-1
5.978623959E0,-3.638458252E-1,-7.392120361E-1,-1.333160400E-1
5.983598324E0,-3.244323730E-1,-7.786254883E-1,-1.365051270E-1
5.988542172E0,1.751708984E-2,-7.583923340E-1,-1.109466553E-1
5.993516537E0,2.912902832E-1,-4.292144775E-1,-7.897949219E-2
5.998460385E0,2.390899658E-1,-2.129669189E-1,-7.153320312E-2
6.003434750E0,1.133880615E-1,-2.747497559E-1,-5.767822266E-2
6.008409115E0,9.848022461E-2,-3.684997559E-1,-2.677917480E-2
6.013352963E0,1.602630615E-1,-3.993988037E-1,3.926086426E-2
6.018296811E0,1.868896484E-1,-3.876800537E-1,1.063690186E-1
6.023271176E0,1.666564941E-1,-3.919372559E-1,1.191558838E-1
6.028245541E0,1.378936768E-1,-4.068450928E-1,1.116943359E-1
6.033189389E0,1.165771484E-1,-4.143066406E-1,1.223449707E-1
6.038163754E0,1.016693115E-1,-3.748931885E-1,9.892272949E-2
6.043107602E0,1.038055420E-1,-3.269500732E-1,7.974243164E-2
6.048081967E0,1.016693115E-1,-2.928619385E-1,8.293151855E-2
6.053025815E0,9.101867676E-2,-2.491912842E-1,6.483459473E-2
6.058000180E0,8.143615723E-2,-2.065734863E-1,4.139709473E-2
6.062944027E0,6.332397461E-2,-1.629028320E-1,2.861022949E-2
6.067887875E0,4.840087891E-2,-1.170959473E-1,2.647399902E-2
6.072831723E0,2.603149414E-2,-4.678344727E-2,9.429931641E-3
6.077836606E0,8.987426758E-3,-9.918212891E-4,-1.719665527E-2
6.082780453E0,-1.663208008E-3,3.204345703E-2,-2.572631836E-2
6.087754818E0,-5.920410156E-3,6.613159180E-2,-2.359008789E-2
6.092698666E0,-1.445007324E-2,9.489440918E-2,-1.933288574E-2
6.097673031E0,-2.296447754E-2,1.119384766E-1,-9.735107422E-3
6.102616879E0,-2.616882324E-2,1.193847656E-1,5.172729492E-3
6.107560727E0,-4.426574707E-2,1.811828613E-1,5.172729492E-3
6.112504574E0,-5.812072754E-2,2.173919678E-1,-1.220703125E-3
6.117509457E0,-5.705261230E-2,2.227172852E-1,-2.288818359E-3
6.122453305E0,-5.172729492E-2,2.024841309E-1,3.036499023E-3
6.127427670E0,-6.237792969E-2,9.169006348E-2,5.172729492E-3
6.132371518E0,-8.367919922E-2,1.499938965E-2,4.104614258E-3
6.137345883E0,-7.730102539E-2,2.565002441E-2,2.114868164E-2
6.142289731E0,-5.598449707E-2,6.506347656E-2,5.523681641E-2
6.147264096E0,-3.894042969E-2,1.066131592E-1,1.010437012E-1
6.152207943E0,-3.254699707E-2,1.066131592E-1,1.500549316E-1
6.157182309E0,-2.189636230E-2,1.023406982E-1,1.947937012E-1
6.162126156E0,-1.231384277E-2,1.215209961E-1,2.139587402E-1
6.167070004E0,-1.124572754E-2,1.321716309E-1,1.937255859E-1
6.172013852E0,-5.950927734E-4,1.236572266E-1,1.361999512E-1
6.177018734E0,8.987426758E-3,1.087341309E-1,6.588745117E-2
6.181962582E0,3.662109375E-3,8.317565918E-2,-7.614135742E-3
6.186906430E0,-5.950927734E-4,5.973815918E-2,-7.153320312E-2
6.191880795E0,1.538085938E-2,3.843688965E-2,-1.247863770E-1
6.196855160E0,3.135681152E-2,3.311157227E-2,-1.865692139E-1
6.201799008E0,1.541137695E-3,-9.918212891E-4,-2.185363770E-1
6.206773373E0,-3.468322754E-2,-5.212402344E-2,-2.270507812E-1
6.211717221E0,-4.959106445E-2,-4.573059082E-2,-2.302551270E-1
6.216661068E0,-2.616882324E-2,-5.249023438E-3,-2.291870117E-1
6.221635434E0,6.864929199E-2,-5.638122559E-2,-1.759185791E-1
6.226609799E0,1.900787354E-1,-1.607666016E-1,-1.933288574E-2
6.231553647E0,1.666564941E-1,-2.012481689E-1,1.074371338E-1
6.236528012E0,1.123199463E-1,-2.374725342E-1,1.745452881E-1
6.241471859E0,8.676147461E-2,-2.353363037E-1,1.958618164E-1
6.246446225E0,5.693054199E-2,-2.523803711E-1,1.873321533E-1
6.251390072E0,4.734802246E-2,-3.248291016E-1,1.745452881E-1
6.256364438E0,6.011962891E-2,-4.281616211E-1,1.745452881E-1
6.261308285E0,6.651306152E-2,-5.112457275E-1,2.033081055E-1
6.266252133E0,8.569335938E-2,-5.517272949E-1,2.619018555E-1
6.271195981E0,1.165771484E-1,-6.113739014E-1,3.460540771E-1
6.276170346E0,1.506652832E-1,-6.944732666E-1,4.238281250E-1
6.281114193E0,1.773071289E-1,-8.031311035E-1,4.920043945E-1
6.286088559E0,1.773071289E-1,-9.405517578E-1,5.633697510E-1
6.291032406E0,2.007446289E-1,-1.064117432E0,5.995941162E-1
6.296006772E0,1.996765137E-1,-1.124832153E0,6.059875488E-1
6.300950619E0,2.017974854E-1,-1.128036499E0,6.059875488E-1
6.305924984E0,2.092590332E-1,-1.129104614E0,5.825500488E-1
6.310868832E0,2.156524658E-1,-1.028961182E0,5.303497314E-1
6.315843197E0,2.188415527E-1,-9.384155273E-1,4.515228271E-1
6.320817563E0,2.348327637E-1,-9.064636230E-1,3.673553467E-1
6.325761410E0,2.699737549E-1,-8.872833252E-1,2.928009033E-1
6.330735775E0,2.657165527E-1,-8.393402100E-1,2.533721924E-1
6.335679623E0,2.518768311E-1,-7.775573730E-1,2.416687012E-1
6.340653988E0,2.241821289E-1,-7.083129883E-1,2.523193359E-1
6.345597836E0,2.113952637E-1,-6.156463623E-1,2.576446533E-1
6.350572201E0,2.380218506E-1,-5.304260254E-1,2.512512207E-1
6.355516049E0,2.135162354E-1,-4.143066406E-1,2.768096924E-1
6.360490414E0,2.103271484E-1,-3.429412842E-1,2.928009033E-1
6.365434262E0,1.410827637E-1,-2.545166016E-1,3.034515381E-1
6.370408627E0,1.602630615E-1,-2.470550537E-1,2.725524902E-1
6.375352475E0,1.325683594E-1,-2.140350342E-1,2.469940186E-1
6.380296322E0,1.006011963E-1,-2.055206299E-1,2.320709229E-1
6.385270688E0,6.332397461E-2,-2.001953125E-1,2.352752686E-1
6.390245053E0,6.332397461E-2,-1.852722168E-1,2.320709229E-1
6.395188900E0,3.988647461E-2,-1.490631104E-1,2.342071533E-1
6.400163266E0,5.372619629E-2,-1.330718994E-1,2.214202881E-1
6.405107113E0,6.866455078E-3,-1.085815430E-1,2.214202881E-1
6.410050961E0,3.135681152E-2,-1.330718994E-1,1.937255859E-1
6.415025326E0,5.160522461E-2,-1.383972168E-1,1.884002686E-1
6.419969174E0,1.431274414E-2,-1.373443604E-1,2.192840576E-1
6.424943539E0,2.709960938E-2,-1.522521973E-1,2.352752686E-1
6.429917904E0,4.521179199E-2,-1.533203125E-1,2.299499512E-1
6.434861752E0,3.456115723E-2,-1.511840820E-1,2.288818359E-1
6.439836117E0,3.030395508E-2,-1.639709473E-1,2.256774902E-1
6.444779965E0,3.349304199E-2,-1.842041016E-1,2.129058838E-1
6.449754330E0,3.775024414E-2,-2.097778320E-1,2.107696533E-1
6.454698178E0,2.816772461E-2,-2.342834473E-1,2.235565186E-1
6.459672543E0,2.923583984E-2,-2.523803711E-1,2.384643555E-1
6.464616391E0,3.668212891E-2,-2.523803711E-1,2.491149902E-1
6.469590756E0,5.267333984E-2,-2.619781494E-1,2.469940186E-1
6.474534604E0,7.290649414E-2,-2.907409668E-1,2.480468750E-1
6.479508969E0,8.995056152E-2,-2.949981689E-1,2.533721924E-1
6.484452816E0,9.741210938E-2,-2.779541016E-1,2.491149902E-1
6.489396664E0,1.112518311E-1,-2.843475342E-1,2.310028076E-1
6.494371029E0,1.197814941E-1,-3.013916016E-1,2.043762207E-1
6.499345395E0,1.325683594E-1,-3.269500732E-1,1.766815186E-1
6.504289242E0,1.421508789E-1,-3.280181885E-1,1.511077881E-1
6.509263608E0,1.506652832E-1,-3.365478516E-1,1.244812012E-1
6.514207455E0,1.581268311E-1,-3.748931885E-1,9.785461426E-2
6.519151303E0,1.677093506E-1,-4.526519775E-1,8.399963379E-2
6.524125668E0,1.719818115E-1,-5.218963623E-1,6.376647949E-2
6.529100033E0,1.709136963E-1,-5.218963623E-1,3.074645996E-2
6.534043881E0,1.794281006E-1,-4.856719971E-1,-4.409790039E-3
6.539018246E0,1.879577637E-1,-4.590454102E-1,-2.677917480E-2
6.543962094E0,1.986083984E-1,-4.622497559E-1,-4.809570312E-2
6.548936459E0,2.124633789E-1,-4.973907471E-1,-3.530883789E-2
6.553880307E0,1.986083984E-1,-5.229644775E-1,-4.409790039E-3
6.558854672E0,1.890258789E-1,-5.133819580E-1,1.902770996E-2
6.563798520E0,1.826324463E-1,-4.814147949E-1,1.475524902E-2
6.568742367E0,1.730346680E-1,-4.366760254E-1,-9.735107422E-3
6.573686215E0,1.655883789E-1,-4.036560059E-1,-2.572631836E-2
6.578691098E0,1.485443115E-1,-4.025878906E-1,-3.744506836E-2
6.583634945E0,1.315002441E-1,-3.961944580E-1,-4.809570312E-2
6.588578793E0,1.048583984E-1,-3.557128906E-1,-6.193542480E-2
6.593522641E0,7.504272461E-2,-3.035125732E-1,-8.430480957E-2
6.598497006E0,4.627990723E-2,-2.587738037E-1,-1.034851074E-1
6.603440854E0,2.603149414E-2,-2.321472168E-1,-1.152038574E-1
6.608415219E0,1.431274414E-2,-2.140350342E-1,-1.269226074E-1
6.613359066E0,1.112365723E-2,-1.884765625E-1,-1.290435791E-1
6.618333432E0,3.662109375E-3,-1.554412842E-1,-1.322479248E-1
6.623277279E0,-5.920410156E-3,-1.170959473E-1,-1.269226074E-1
6.628251645E0,-1.550292969E-2,-7.449340820E-2,-1.088104248E-1
6.633195492E0,-2.722167969E-2,-2.973937988E-2,-7.791137695E-2
6.638169858E0,-1.870727539E-2,-2.441406250E-2,-5.554199219E-2
6.643113705E0,2.593994141E-3,-4.252624512E-2,-5.448913574E-2
6.648118588E0,5.798339844E-3,-5.850219727E-2,-4.489135742E-2
6.653062436E0,-1.663208008E-3,-6.703186035E-2,-2.998352051E-2
6.658006283E0,-6.988525391E-3,-7.449340820E-2,-1.612854004E-2
6.662950131E0,-6.988525391E-3,-7.768249512E-2,-9.735107422E-3
6.667924496E0,-1.338195801E-2,-7.235717773E-2,-4.409790039E-3
6.672868344E0,-2.189636230E-2,-6.809997559E-2,-3.341674805E-3
6.677842709E0,-3.254699707E-2,-6.489562988E-2,-4.409790039E-3
6.682786557E0,-4.214477539E-2,-6.596374512E-2,-7.614135742E-3
6.687760922E0,-5.065917969E-2,-7.022094727E-2,-6.546020508E-3
6.692704770E0,-5.386352539E-2,-7.661437988E-2,-6.546020508E-3
6.697679135E0,-5.705261230E-2,-8.407592773E-2,-1.612854004E-2
6.702622983E0,-5.493164062E-2,-8.726501465E-2,-2.359008789E-2
6.707597348E0,-4.959106445E-2,-9.153747559E-2,-2.891540527E-2
6.712541195E0,-4.533386230E-2,-9.579467773E-2,-3.210449219E-2
6.717515561E0,-4.321289062E-2,-9.898376465E-2,-4.063415527E-2
6.722459408E0,-4.321289062E-2,-1.032562256E-1,-4.595947266E-2
6.727433774E0,-4.000854492E-2,-1.064453125E-1,-5.235290527E-2
6.732377621E0,-3.149414062E-2,-1.096343994E-1,-5.874633789E-2
6.737351986E0,-1.870727539E-2,-1.160278320E-1,-6.407165527E-2
6.742295834E0,-3.799438477E-3,-1.298828125E-1,-6.726074219E-2
6.747270199E0,1.219177246E-2,-1.479949951E-1,-8.004760742E-2
6.752214047E0,2.070617676E-2,-1.714324951E-1,-8.963012695E-2
6.757188412E0,2.177429199E-2,-1.884765625E-1,-1.013488770E-1
6.762162777E0,2.496337891E-2,-2.012481689E-1,-1.269226074E-1
6.767106625E0,2.391052246E-2,-2.012481689E-1,-2.036132812E-1
6.772050473E0,-1.663208008E-3,-1.533203125E-1,-4.124145508E-1
6.777024838E0,-1.231384277E-2,-2.321472168E-1,-5.807189941E-1
6.781999203E0,-3.575134277E-2,-3.258972168E-1,-5.945739746E-1
6.786973568E0,-9.967041016E-2,-3.834075928E-1,-5.583496094E-1
6.791917416E0,-1.593170166E-1,-4.654388428E-1,-5.178680420E-1
6.796891781E0,-1.880798340E-1,-5.389404297E-1,-4.667358398E-1
6.801835629E0,-1.902160645E-1,-6.113739014E-1,-4.134826660E-1
6.806809994E0,-1.678466797E-1,-6.891479492E-1,-3.474273682E-1
6.811753842E0,-1.305541992E-1,-7.701110840E-1,-2.845764160E-1
6.816697690E0,-9.114074707E-2,-8.468017578E-1,-2.387695312E-1
6.821641537E0,-5.493164062E-2,-8.872833252E-1,-1.929626465E-1
6.826615902E0,-2.616882324E-2,-9.075317383E-1,-1.503601074E-1
6.831559750E0,4.730224609E-4,-9.309539795E-1,-1.194610596E-1
6.836534115E0,4.307556152E-2,-9.107208252E-1,-8.537292480E-2
6.841477963E0,9.313964844E-2,-8.691711426E-1,-5.981445312E-2
6.846452328E0,1.197814941E-1,-8.052520752E-1,-3.849792480E-2
6.851396176E0,1.251068115E-1,-7.456054688E-1,-2.252197266E-2
6.856370541E0,1.325683594E-1,-7.189788818E-1,9.155273438E-4
6.861314389E0,1.410827637E-1,-7.136535645E-1,1.795959473E-2
6.866258236E0,1.496124268E-1,-6.870117188E-1,2.114868164E-2
6.871232602E0,1.528015137E-1,-6.582489014E-1,2.435302734E-2
6.876206967E0,1.570587158E-1,-6.113739014E-1,2.647399902E-2
6.881181332E0,1.634521484E-1,-5.602416992E-1,3.286743164E-2
6.886125180E0,1.549377441E-1,-5.048522949E-1,4.565429688E-2
6.891069027E0,1.165771484E-1,-4.185638428E-1,4.672241211E-2
6.896043393E0,7.183837891E-2,-3.418731689E-1,3.819274902E-2
6.900987240E0,3.562927246E-2,-2.864685059E-1,3.286743164E-2
6.905961606E0,1.431274414E-2,-2.545166016E-1,2.754211426E-2
6.910905453E0,-6.988525391E-3,-1.938018799E-1,1.689147949E-2
6.915879818E0,-3.788757324E-2,-1.000518799E-1,1.983642578E-3
6.920823666E0,-6.770324707E-2,-9.918212891E-4,9.155273438E-4
6.925767514E0,-9.327697754E-2,8.743286133E-2,1.370239258E-2
6.930772397E0,-1.092529297E-1,1.747894287E-1,3.712463379E-2
6.935716244E0,-8.581542969E-2,2.216491699E-1,2.008056641E-2
6.940690609E0,-7.409667969E-2,2.376403809E-1,1.370239258E-2
6.945634457E0,-1.007385254E-1,2.525482178E-1,2.754211426E-2
6.950608822E0,-1.252288818E-1,2.664031982E-1,3.393554688E-2
6.955552670E0,-1.337585449E-1,2.706604004E-1,4.139709473E-2
6.960527035E0,-1.390838623E-1,2.695922852E-1,3.819274902E-2
6.965470883E0,-1.444091797E-1,2.674560547E-1,3.712463379E-2
6.970445248E0,-1.433410645E-1,2.653350830E-1,3.393554688E-2
6.975389096E0,-1.358795166E-1,2.546844482E-1,2.754211426E-2
6.980363461E0,-1.294860840E-1,2.323150635E-1,1.689147949E-2
6.985307309E0,-1.167144775E-1,2.046051025E-1,4.104614258E-3
6.990281674E0,-1.007385254E-1,1.715850830E-1,-6.546020508E-3
6.995225522E0,-9.753417969E-2,1.364288330E-1,-1.933288574E-2
7.000199887E0,-1.017913818E-1,1.066131592E-1,-3.210449219E-2
7.005143734E0,-9.753417969E-2,6.613159180E-2,-4.170227051E-2
7.010087582E0,-8.581542969E-2,2.777099609E-2,-5.448913574E-2
7.015061947E0,-7.730102539E-2,1.144409180E-3,-6.619262695E-2
7.020005795E0,-6.237792969E-2,-2.229309082E-2,-7.365417480E-2
7.024980160E0,-3.681945801E-2,-6.063842773E-2,-7.897949219E-2
7.029954525E0,-1.550292969E-2,-8.407592773E-2,-9.709167480E-2
7.034898373E0,-8.056640625E-3,-7.554626465E-2,-2.057495117E-1
7.039842221E0,3.775024414E-2,-2.172393799E-1,-4.028167725E-1
7.044816586E0,8.355712891E-2,-4.292144775E-1,-4.805908203E-1
7.049760434E0,8.888244629E-2,-5.613098145E-1,-4.848480225E-1
7.054704281E0,9.313964844E-2,-6.731719971E-1,-4.944305420E-1
7.059678647E0,1.027374268E-1,-7.424011230E-1,-4.987030029E-1
7.064622494E0,1.304321289E-1,-7.733001709E-1,-4.869842529E-1
7.069596859E0,1.719818115E-1,-7.882080078E-1,-4.667358398E-1
7.074540707E0,2.177886963E-1,-8.127136230E-1,-4.454345703E-1
7.079484555E0,2.646484375E-1,-8.318939209E-1,-4.283905029E-1
7.084458920E0,3.370971680E-1,-8.201751709E-1,-4.102783203E-1
7.089433285E0,3.978118896E-1,-8.191070557E-1,-3.644714355E-1
7.094377133E0,4.436187744E-1,-8.872833252E-1,-3.144073486E-1
7.099351498E0,4.745178223E-1,-9.543914795E-1,-2.845764160E-1
7.104295346E0,4.564056396E-1,-9.171142578E-1,-2.973632812E-1
7.109269711E0,3.935546875E-1,-8.393402100E-1,-3.580780029E-1
7.114213559E0,3.477478027E-1,-8.244323730E-1,-3.943023682E-1
7.119187924E0,3.328247070E-1,-8.425445557E-1,-3.815155029E-1
7.124131772E0,3.200531006E-1,-8.627777100E-1,-3.431701660E-1
7.129075619E0,3.030090332E-1,-8.681030273E-1,-3.037567139E-1
7.134049984E0,2.774353027E-1,-8.638458252E-1,-2.717895508E-1
7.139024350E0,2.529296875E-1,-8.734283447E-1,-2.398376465E-1
7.143968197E0,2.284393311E-1,-8.883514404E-1,-1.940307617E-1
7.148942563E0,1.996765137E-1,-8.681030273E-1,-1.471557617E-1
7.153886410E0,1.677093506E-1,-7.999267578E-1,-1.119995117E-1
7.158830258E0,1.304321289E-1,-6.966094971E-1,-7.153320312E-2
7.163804623E0,9.313964844E-2,-5.900726318E-1,-2.677917480E-2
7.168748471E0,5.905151367E-2,-4.824829102E-1,2.114868164E-2
7.173722836E0,1.858520508E-2,-3.557128906E-1,7.334899902E-2
7.178697201E0,-3.681945801E-2,-1.938018799E-1,1.042480469E-1
7.183641049E0,-8.262634277E-2,-4.891967773E-2,6.588745117E-2
7.188584897E0,-6.130981445E-2,-1.376342773E-2,-3.341674805E-3
7.193589779E0,-3.468322754E-2,-2.044677734E-3,2.647399902E-2
7.198564145E0,-6.451416016E-2,2.883911133E-2,8.187866211E-2
7.203507992E0,-1.092529297E-1,5.973815918E-2,1.031799316E-1
7.208482358E0,-1.422729492E-1,7.038879395E-2,1.127624512E-1
7.213426205E0,-1.731719971E-1,6.932067871E-2,1.276855469E-1
7.218400570E0,-2.019348145E-1,6.185913086E-2,1.457824707E-1
7.223344418E0,-2.157745361E-1,4.908752441E-2,1.553802490E-1
7.228318783E0,-2.051239014E-1,3.630065918E-2,1.607055664E-1
7.233262631E0,-1.774291992E-1,2.883911133E-2,1.607055664E-1
7.238206479E0,-1.412048340E-1,2.458190918E-2,1.575012207E-1
7.243150326E0,-1.060638428E-1,2.244567871E-2,1.468505859E-1
7.248124691E0,-7.516479492E-2,2.244567871E-2,1.308746338E-1
7.253068539E0,-4.533386230E-2,2.777099609E-2,1.127624512E-1
7.258042904E0,-1.338195801E-2,2.458190918E-2,8.932495117E-2
7.262986752E0,1.538085938E-2,2.351379395E-2,6.802368164E-2
7.267930600E0,3.242492676E-2,2.671813965E-2,4.779052734E-2
7.272904965E0,3.988647461E-2,2.565002441E-2,3.393554688E-2
7.277848813E0,4.627990723E-2,1.925659180E-2,2.647399902E-2
7.282823178E0,5.053710938E-2,1.393127441E-2,1.795959473E-2
7.287767025E0,5.479431152E-2,1.179504395E-2,1.156616211E-2
7.292741391E0,5.586242676E-2,1.072692871E-2,8.361816406E-3
7.297715756E0,5.053710938E-2,1.179504395E-2,3.036499023E-3
7.302659604E0,4.627990723E-2,1.286315918E-2,9.155273438E-4
7.307633969E0,4.200744629E-2,1.393127441E-2,-4.409790039E-3
7.312577816E0,3.881835938E-2,1.179504395E-2,-1.080322266E-2
7.317521664E0,3.775024414E-2,7.537841797E-3,-1.612854004E-2
7.322496029E0,3.775024414E-2,7.537841797E-3,-1.719665527E-2
7.327439877E0,3.242492676E-2,7.537841797E-3,-2.359008789E-2
7.332414242E0,2.709960938E-2,1.072692871E-2,-2.040100098E-2
7.337388608E0,1.751708984E-2,1.818847656E-2,-1.612854004E-2
7.342332455E0,7.919311523E-3,1.925659180E-2,-1.293945312E-2
7.347306820E0,5.798339844E-3,1.712036133E-2,-1.293945312E-2
7.352250668E0,1.005554199E-2,1.286315918E-2,-1.826477051E-2
7.357225033E0,1.431274414E-2,7.537841797E-3,-2.252197266E-2
7.362168881E0,2.177429199E-2,7.629394531E-5,-2.145385742E-2
7.367112729E0,2.709960938E-2,-3.112792969E-3,-1.933288574E-2
7.372087094E0,2.284240723E-2,7.629394531E-5,-1.826477051E-2
7.377030941E0,1.644897461E-2,7.629394531E-5,-1.826477051E-2
7.382005307E0,1.644897461E-2,-2.044677734E-3,-1.933288574E-2
7.386949154E0,1.751708984E-2,1.144409180E-3,-2.252197266E-2
7.391923520E0,2.391052246E-2,7.629394531E-5,-2.465820312E-2
7.396867367E0,2.709960938E-2,-3.112792969E-3,-3.105163574E-2
7.401841733E0,3.135681152E-2,-1.057434082E-2,-3.105163574E-2
7.406785580E0,3.030395508E-2,-1.164245605E-2,-2.891540527E-2
7.411759945E0,2.709960938E-2,-8.438110352E-3,-2.677917480E-2
7.416703793E0,2.070617676E-2,-7.369995117E-3,-2.677917480E-2
7.421678158E0,1.431274414E-2,-1.057434082E-2,-2.252197266E-2
7.426652524E0,1.325988770E-2,-2.015686035E-2,-1.719665527E-2
7.431596371E0,1.431274414E-2,-2.441406250E-2,-1.293945312E-2
7.436570736E0,8.987426758E-3,-2.548217773E-2,-1.080322266E-2
7.441514584E0,1.112365723E-2,-2.336120605E-2,-5.477905273E-3
7.446458432E0,1.538085938E-2,-1.696777344E-2,9.155273438E-4
7.451432797E0,1.858520508E-2,-1.696777344E-2,4.104614258E-3
7.456407162E0,1.431274414E-2,-1.589965820E-2,6.240844727E-3
7.461351010E0,5.798339844E-3,-1.908874512E-2,8.361816406E-3
7.466294858E0,-3.799438477E-3,-2.336120605E-2,1.263427734E-2
7.471238705E0,-1.338195801E-2,-2.655029297E-2,2.008056641E-2
7.476213070E0,-1.870727539E-2,-3.720092773E-2,2.221679688E-2
7.481187436E0,-2.189636230E-2,-4.573059082E-2,1.902770996E-2
7.486131283E0,-2.403259277E-2,-5.638122559E-2,2.114868164E-2
7.491105649E0,-2.403259277E-2,-6.809997559E-2,2.540588379E-2
7.496080014E0,-2.510070801E-2,-8.193969727E-2,2.435302734E-2
7.501023861E0,-2.084350586E-2,-9.472656250E-2,2.647399902E-2
7.505998227E0,-1.977539062E-2,-1.021881104E-1,2.540588379E-2
7.510942074E0,-2.616882324E-2,-1.064453125E-1,3.500366211E-2
7.515885922E0,-3.681945801E-2,-1.043090820E-1,3.712463379E-2
7.520829770E0,-4.533386230E-2,-1.075134277E-1,3.819274902E-2
7.525804135E0,-5.705261230E-2,-1.117706299E-1,4.779052734E-2
7.530747983E0,-7.516479492E-2,-1.117706299E-1,5.416870117E-2
7.535722348E0,-9.007263184E-2,-1.139068604E-1,5.737304688E-2
7.540696713E0,-1.071166992E-1,-1.149749756E-1,6.376647949E-2
7.545640561E0,-1.252288818E-1,-1.149749756E-1,7.015991211E-2
7.550614926E0,-1.369476318E-1,-1.224212646E-1,7.867431641E-2
7.555558774E0,-1.348266602E-1,-1.501159668E-1,8.187866211E-2
7.560533139E0,-1.284332275E-1,-1.618347168E-1,8.293151855E-2
7.565476986E0,-1.220397949E-1,-1.426696777E-1,7.334899902E-2
7.570451352E0,-1.081848145E-1,-1.256256104E-1,8.399963379E-2
7.575395199E0,-1.646423340E-1,-1.589965820E-2,1.830749512E-1
7.580369565E0,-1.934051514E-1,8.605957031E-3,1.521759033E-1
7.585343930E0,-1.145782471E-1,-8.087158203E-2,3.607177734E-2
7.590318295E0,-4.107666016E-2,-1.501159668E-1,-4.595947266E-2
7.595262143E0,-1.199035645E-1,-3.376007080E-1,-1.088104248E-1
7.600236508E0,-2.243041992E-1,-4.675750732E-1,-6.832885742E-2
7.605180356E0,-1.103210449E-1,-4.494628906E-1,3.819274902E-2
7.610124203E0,-9.967041016E-2,-3.035125732E-1,2.754211426E-2
7.615068051E0,-5.598449707E-2,-1.735534668E-1,2.967834473E-2
7.620042416E0,-1.338195801E-2,-5.957031250E-2,2.967834473E-2
7.624986264E0,1.431274414E-2,-1.803588867E-2,1.582336426E-2
7.629930111E0,2.177429199E-2,-2.044677734E-3,-8.682250977E-3
7.634904477E0,1.219177246E-2,-7.369995117E-3,-1.612854004E-2
7.639848324E0,4.730224609E-4,-2.441406250E-2,-9.735107422E-3
7.644822690E0,-2.731323242E-3,-4.466247559E-2,-2.288818359E-3
7.649797055E0,-1.663208008E-3,-5.957031250E-2,-1.525878906E-4
7.654740902E0,-2.731323242E-3,-6.277465820E-2,1.983642578E-3
7.659715268E0,-3.799438477E-3,-5.744934082E-2,1.983642578E-3
7.664659115E0,-4.852294922E-3,-4.573059082E-2,1.983642578E-3
7.669633481E0,-6.988525391E-3,-3.933715820E-2,4.104614258E-3
7.674577328E0,-8.056640625E-3,-3.401184082E-2,1.983642578E-3
7.679551693E0,-6.988525391E-3,-3.080749512E-2,1.983642578E-3
7.684495541E0,-6.988525391E-3,-2.548217773E-2,9.155273438E-4
7.689469906E0,-1.017761230E-2,-1.908874512E-2,-1.220703125E-3
7.694413754E0,-1.550292969E-2,-1.269531250E-2,-1.220703125E-3
7.699388119E0,-2.403259277E-2,-9.918212891E-4,-2.288818359E-3
7.704331967E0,-2.722167969E-2,1.072692871E-2,-2.288818359E-3
7.709306332E0,-3.042602539E-2,2.244567871E-2,-3.341674805E-3
7.714250180E0,-3.468322754E-2,2.990722656E-2,-4.409790039E-3
7.719194027E0,-4.000854492E-2,3.416442871E-2,-5.477905273E-3
7.724168393E0,-4.640197754E-2,4.269409180E-2,-4.409790039E-3
7.729112240E0,-5.279541016E-2,5.015563965E-2,-2.288818359E-3
7.734086606E0,-5.065917969E-2,5.973815918E-2,-2.288818359E-3
7.739030453E0,-4.533386230E-2,6.932067871E-2,-2.288818359E-3
7.744004818E0,-4.000854492E-2,7.785034180E-2,-4.409790039E-3
7.748948666E0,-3.361511230E-2,8.529663086E-2,-5.477905273E-3
7.753923031E0,-3.149414062E-2,8.850097656E-2,-4.409790039E-3
7.758866879E0,-3.149414062E-2,8.424377441E-2,-2.288818359E-3
7.763841244E0,-3.468322754E-2,8.103942871E-2,-1.525878906E-4
7.768785092E0,-4.107666016E-2,7.890319824E-2,1.983642578E-3
7.773728940E0,-4.747009277E-2,7.678222656E-2,5.172729492E-3
7.778733822E0,-5.172729492E-2,7.997131348E-2,1.983642578E-3
7.783677670E0,-5.172729492E-2,8.743286133E-2,4.104614258E-3
7.788621518E0,-5.065917969E-2,1.002197266E-1,5.172729492E-3
7.793595883E0,-4.640197754E-2,1.130065918E-1,4.104614258E-3
7.798570248E0,-4.214477539E-2,1.247100830E-1,9.155273438E-4
7.803514096E0,-4.000854492E-2,1.374969482E-1,9.155273438E-4
7.808488461E0,-3.361511230E-2,1.513519287E-1,1.983642578E-3
7.813432309E0,-3.149414062E-2,1.577453613E-1,3.036499023E-3
7.818406674E0,-3.042602539E-2,1.609344482E-1,4.104614258E-3
7.823350522E0,-3.254699707E-2,1.630706787E-1,7.308959961E-3
7.828324887E0,-3.894042969E-2,1.747894287E-1,1.156616211E-2
7.833268734E0,-4.640197754E-2,1.907653809E-1,1.475524902E-2
7.838243100E0,-5.386352539E-2,2.067413330E-1,1.370239258E-2
7.843186947E0,-6.237792969E-2,2.184600830E-1,1.156616211E-2
7.848161313E0,-6.770324707E-2,2.355041504E-1,1.263427734E-2
7.853105160E0,-7.090759277E-2,2.557373047E-1,1.263427734E-2
7.858079525E0,-7.197570801E-2,2.770538330E-1,1.156616211E-2
7.863023373E0,-7.623291016E-2,2.983551025E-1,1.475524902E-2
7.867967221E0,-7.942199707E-2,3.249816895E-1,2.008056641E-2
7.872911068E0,-8.262634277E-2,3.548126221E-1,2.861022949E-2
7.877915951E0,-8.795166016E-2,3.846435547E-1,3.393554688E-2
7.882859799E0,-9.114074707E-2,4.112701416E-1,3.926086426E-2
7.887803647E0,-9.434509277E-2,4.357757568E-1,4.244995117E-2
7.892778012E0,-9.967041016E-2,4.528198242E-1,4.244995117E-2
7.897721859E0,-1.092529297E-1,4.645385742E-1,3.819274902E-2
7.902696225E0,-1.199035645E-1,4.751892090E-1,3.926086426E-2
7.907670590E0,-1.262969971E-1,4.783782959E-1,3.607177734E-2
7.912614438E0,-1.294860840E-1,4.826507568E-1,3.393554688E-2
7.917558285E0,-1.326904297E-1,4.847717285E-1,3.074645996E-2
7.922532650E0,-1.326904297E-1,4.847717285E-1,2.540588379E-2
7.927507016E0,-1.262969971E-1,4.837036133E-1,2.221679688E-2
7.932450863E0,-1.188354492E-1,4.783782959E-1,1.795959473E-2
7.937425229E0,-1.092529297E-1,4.730529785E-1,1.475524902E-2
7.942369076E0,-1.017913818E-1,4.634704590E-1,1.156616211E-2
7.947343441E0,-9.114074707E-2,4.464263916E-1,7.308959961E-3
7.952317807E0,-8.474731445E-2,4.261932373E-1,3.036499023E-3
7.957261654E0,-7.409667969E-2,4.038085938E-1,-1.220703125E-3
7.962205502E0,-6.663513184E-2,3.739929199E-1,-4.409790039E-3
7.967149350E0,-5.918884277E-2,3.388366699E-1,-8.682250977E-3
7.972093197E0,-5.812072754E-2,2.983551025E-1,-1.080322266E-2
7.977098080E0,-5.705261230E-2,2.514801025E-1,-1.293945312E-2
7.982041928E0,-5.493164062E-2,2.046051025E-1,-1.719665527E-2
7.986985775E0,-5.705261230E-2,1.577453613E-1,-1.933288574E-2
7.991929623E0,-6.237792969E-2,1.140594482E-1,-1.826477051E-2
7.996903988E0,-6.983947754E-2,7.464599609E-2,-1.612854004E-2
8.001847836E0,-7.197570801E-2,4.588317871E-2,-1.506042480E-2
8.006822201E0,-7.302856445E-2,1.818847656E-2,-1.826477051E-2
8.011766049E0,-6.770324707E-2,-3.112792969E-3,-1.933288574E-2
8.016740414E0,-6.025695801E-2,-2.122497559E-2,-1.826477051E-2
8.021684262E0,-5.386352539E-2,-4.040527344E-2,-2.040100098E-2
8.026658627E0,-4.533386230E-2,-5.531311035E-2,-2.145385742E-2
8.031602475E0,-3.468322754E-2,-6.809997559E-2,-2.359008789E-2
8.036576840E0,-2.722167969E-2,-8.193969727E-2,-2.465820312E-2
8.041551205E0,-2.296447754E-2,-9.898376465E-2,-2.677917480E-2
8.046525570E0,-1.763916016E-2,-1.170959473E-1,-2.891540527E-2
8.051469418E0,-1.338195801E-2,-1.330718994E-1,-3.210449219E-2
8.056443783E0,-9.124755859E-3,-1.533203125E-1,-3.210449219E-2
8.061387631E0,-6.988525391E-3,-1.714324951E-1,-3.424072266E-2
8.066331479E0,-5.920410156E-3,-1.831512451E-1,-2.998352051E-2
8.071275326E0,-1.663208008E-3,-1.905975342E-1,-2.784729004E-2
8.076249691E0,7.919311523E-3,-1.916656494E-1,-3.210449219E-2
8.081193539E0,1.751708984E-2,-1.842041016E-1,-3.424072266E-2
8.086167904E0,2.709960938E-2,-1.746215820E-1,-3.530883789E-2
8.091111752E0,3.135681152E-2,-1.682281494E-1,-3.744506836E-2
8.096086117E0,3.668212891E-2,-1.639709473E-1,-3.744506836E-2
8.101029965E0,4.307556152E-2,-1.639709473E-1,-3.744506836E-2
8.106004330E0,4.946899414E-2,-1.671600342E-1,-3.849792480E-2
8.110948178E0,5.160522461E-2,-1.692962646E-1,-3.424072266E-2
8.115922543E0,5.160522461E-2,-1.735534668E-1,-3.210449219E-2
8.120866391E0,4.946899414E-2,-1.714324951E-1,-2.998352051E-2
8.125840756E0,4.521179199E-2,-1.703643799E-1,-2.465820312E-2
8.130784604E0,4.200744629E-2,-1.671600342E-1,-2.465820312E-2
8.135758969E0,3.562927246E-2,-1.607666016E-1,-2.252197266E-2
8.140702816E0,3.135681152E-2,-1.607666016E-1,-2.252197266E-2
8.145677182E0,2.603149414E-2,-1.607666016E-1,-2.040100098E-2
8.150621029E0,1.858520508E-2,-1.586456299E-1,-1.826477051E-2
8.155595395E0,1.005554199E-2,-1.575775146E-1,-1.400756836E-2
8.160539242E0,4.730224609E-3,-1.575775146E-1,-1.187133789E-2
8.165513608E0,-5.950927734E-4,-1.586456299E-1,-9.735107422E-3
8.170487973E0,-5.920410156E-3,-1.607666016E-1,-6.546020508E-3
8.175431820E0,-9.124755859E-3,-1.650390625E-1,-1.220703125E-3
8.180375668E0,-1.017761230E-2,-1.639709473E-1,-1.525878906E-4
8.185350033E0,-8.056640625E-3,-1.618347168E-1,-1.220703125E-3
8.190293881E0,-8.056640625E-3,-1.469268799E-1,-1.220703125E-3
8.195268246E0,-9.124755859E-3,-1.362762451E-1,-2.288818359E-3
8.200242611E0,-8.056640625E-3,-1.266784668E-1,-5.477905273E-3
8.205186459E0,-8.056640625E-3,-1.213531494E-1,-8.682250977E-3
8.210160824E0,-8.056640625E-3,-1.075134277E-1,-9.735107422E-3
8.215104672E0,-5.920410156E-3,-9.898376465E-2,-1.187133789E-2
8.220079037E0,-1.231384277E-2,-1.011199951E-1,-1.719665527E-2
8.225022885E0,-1.870727539E-2,-1.021881104E-1,-2.040100098E-2
8.229966733E0,-2.616882324E-2,-9.686279297E-2,-2.145385742E-2
8.234910580E0,-2.935791016E-2,-9.153747559E-2,-2.465820312E-2
8.239884945E0,-2.722167969E-2,-8.726501465E-2,-2.998352051E-2
8.244828793E0,-2.403259277E-2,-7.875061035E-2,-3.744506836E-2
8.249833676E0,-1.657104492E-2,-7.768249512E-2,-4.277038574E-2
8.254777524E0,-1.445007324E-2,-7.449340820E-2,-4.595947266E-2
8.259751889E0,-1.338195801E-2,-7.342529297E-2,-4.914855957E-2
8.264695736E0,-1.338195801E-2,-7.768249512E-2,-5.021667480E-2
8.269670102E0,-1.338195801E-2,-8.833312988E-2,-4.595947266E-2
8.274613949E0,-1.445007324E-2,-1.043090820E-1,-4.170227051E-2
8.279588315E0,-1.977539062E-2,-1.181640625E-1,-4.277038574E-2
8.284532162E0,-2.935791016E-2,-1.288146973E-1,-3.849792480E-2
8.289506527E0,-3.894042969E-2,-1.352081299E-1,-3.317260742E-2
8.294450375E0,-4.321289062E-2,-1.352081299E-1,-2.891540527E-2
8.299424740E0,-4.640197754E-2,-1.373443604E-1,-2.677917480E-2
8.304368588E0,-5.493164062E-2,-1.405334473E-1,-2.572631836E-2
8.309342953E0,-5.705261230E-2,-1.426696777E-1,-1.719665527E-2
8.314286801E0,-5.812072754E-2,-1.383972168E-1,-1.612854004E-2
8.319230649E0,-5.918884277E-2,-1.330718994E-1,-2.040100098E-2
8.324205014E0,-5.918884277E-2,-1.298828125E-1,-1.719665527E-2
8.329179379E0,-6.025695801E-2,-1.288146973E-1,-1.400756836E-2
8.334123227E0,-5.812072754E-2,-1.203002930E-1,-1.826477051E-2
8.339067074E0,-5.598449707E-2,-1.149749756E-1,-1.933288574E-2
8.344041440E0,-5.705261230E-2,-1.117706299E-1,-2.145385742E-2
8.349015805E0,-5.705261230E-2,-1.107025146E-1,-2.572631836E-2
8.353959652E0,-5.598449707E-2,-1.075134277E-1,-2.572631836E-2
8.358903500E0,-5.493164062E-2,-1.053771973E-1,-2.572631836E-2
8.363877865E0,-5.172729492E-2,-1.011199951E-1,-2.677917480E-2
8.368821713E0,-4.959106445E-2,-9.898376465E-2,-2.572631836E-2
8.373765561E0,-4.640197754E-2,-9.686279297E-2,-2.465820312E-2
8.378739926E0,-4.214477539E-2,-9.153747559E-2,-2.784729004E-2
8.383683774E0,-3.361511230E-2,-8.621215820E-2,-2.784729004E-2
8.388658139E0,-2.403259277E-2,-8.300781250E-2,-2.465820312E-2
8.393601986E0,-2.296447754E-2,-8.407592773E-2,-2.359008789E-2
8.398576352E0,-1.977539062E-2,-8.514404297E-2,-2.252197266E-2
8.403520199E0,-2.189636230E-2,-7.768249512E-2,-2.252197266E-2
8.408494565E0,-2.296447754E-2,-6.809997559E-2,-2.359008789E-2
8.413438412E0,-2.616882324E-2,-5.212402344E-2,-2.465820312E-2
8.418412777E0,-2.828979492E-2,-4.145812988E-2,-2.359008789E-2
8.423356625E0,-3.149414062E-2,-3.507995605E-2,-2.677917480E-2
8.428330990E0,-3.361511230E-2,-2.122497559E-2,-2.891540527E-2
8.433274838E0,-3.254699707E-2,-3.112792969E-3,-2.891540527E-2
8.438249203E0,-3.149414062E-2,5.401611328E-3,-2.998352051E-2
8.443193051E0,-3.254699707E-2,2.032470703E-2,-3.530883789E-2
8.448167416E0,-3.149414062E-2,3.948974609E-2,-3.210449219E-2
8.453111264E0,-3.149414062E-2,4.588317871E-2,-1.933288574E-2
8.458085629E0,-3.361511230E-2,5.334472656E-2,-1.933288574E-2
8.463029477E0,-3.468322754E-2,5.653381348E-2,-2.040100098E-2
8.467973324E0,-3.788757324E-2,5.867004395E-2,-1.826477051E-2
8.472947690E0,-4.747009277E-2,6.292724609E-2,-1.506042480E-2
8.477922055E0,-5.493164062E-2,7.038879395E-2,-1.080322266E-2
8.482865902E0,-6.237792969E-2,7.785034180E-2,-1.612854004E-2
8.487840268E0,-7.302856445E-2,8.529663086E-2,-1.826477051E-2
8.492784115E0,-8.049011230E-2,8.636474609E-2,-2.040100098E-2
8.497758481E0,-8.901977539E-2,8.956909180E-2,-2.252197266E-2
8.502702328E0,-9.539794922E-2,8.850097656E-2,-2.252197266E-2
8.507676693E0,-9.860229492E-2,8.317565918E-2,-2.359008789E-2
8.512620541E0,-9.967041016E-2,8.210754395E-2,-2.252197266E-2
8.517564389E0,-9.967041016E-2,8.210754395E-2,-2.145385742E-2
8.522538754E0,-9.753417969E-2,7.357788086E-2,-2.677917480E-2
8.527513119E0,-9.327697754E-2,6.932067871E-2,-2.891540527E-2
8.532456967E0,-8.901977539E-2,5.867004395E-2,-3.424072266E-2
8.537400815E0,-8.581542969E-2,4.055786133E-2,-3.956604004E-2
8.542375180E0,-8.795166016E-2,2.139282227E-2,-4.170227051E-2
8.547319027E0,-9.007263184E-2,2.212524414E-3,-4.702758789E-2
8.552293393E0,-9.327697754E-2,-2.336120605E-2,-5.021667480E-2
8.557267758E0,-9.327697754E-2,-5.424499512E-2,-5.235290527E-2
8.562211606E0,-9.114074707E-2,-7.449340820E-2,-5.661010742E-2
8.567185971E0,-8.688354492E-2,-8.833312988E-2,-5.874633789E-2
8.572129818E0,-8.049011230E-2,-9.793090820E-2,-6.193542480E-2
8.577073666E0,-7.090759277E-2,-1.117706299E-1,-6.513977051E-2
8.582048031E0,-6.451416016E-2,-1.309509277E-1,-6.407165527E-2
8.587022397E0,-6.130981445E-2,-1.479949951E-1,-6.619262695E-2
8.591966244E0,-6.451416016E-2,-1.692962646E-1,-6.619262695E-2
8.596940609E0,-6.451416016E-2,-1.916656494E-1,-6.300354004E-2
8.601914975E0,-5.918884277E-2,-2.119140625E-1,-5.661010742E-2
8.606889340E0,-5.918884277E-2,-2.214965820E-1,-5.767822266E-2
8.611833188E0,-6.025695801E-2,-2.172393799E-1,-5.554199219E-2
8.616807553E0,-6.451416016E-2,-2.065734863E-1,-5.448913574E-2
8.621751400E0,-6.344604492E-2,-1.959228516E-1,-5.128479004E-2
8.626725766E0,-5.812072754E-2,-1.905975342E-1,-5.128479004E-2
8.631669613E0,-5.598449707E-2,-1.905975342E-1,-4.809570312E-2
8.636643979E0,-5.386352539E-2,-1.874084473E-1,-4.489135742E-2
8.641587826E0,-5.386352539E-2,-1.799468994E-1,-4.595947266E-2
8.646562191E0,-4.959106445E-2,-1.682281494E-1,-4.170227051E-2
8.651506039E0,-4.533386230E-2,-1.586456299E-1,-3.744506836E-2
8.656480404E0,-4.321289062E-2,-1.469268799E-1,-3.210449219E-2
8.661424252E0,-4.000854492E-2,-1.416015625E-1,-2.891540527E-2
8.666368100E0,-3.788757324E-2,-1.373443604E-1,-2.572631836E-2
8.671311947E0,-3.575134277E-2,-1.298828125E-1,-2.252197266E-2
8.676286313E0,-3.149414062E-2,-1.224212646E-1,-1.933288574E-2
8.681260678E0,-2.403259277E-2,-1.128387451E-1,-1.400756836E-2
8.686204525E0,-2.296447754E-2,-1.043090820E-1,-1.187133789E-2
8.691178891E0,-1.445007324E-2,-8.407592773E-2,-8.682250977E-3
8.696122738E0,-1.338195801E-2,-6.596374512E-2,-5.477905273E-3
8.701066586E0,-1.231384277E-2,-5.424499512E-2,-7.614135742E-3
8.706040951E0,-1.231384277E-2,-4.466247559E-2,-6.546020508E-3
8.710984799E0,-1.550292969E-2,-3.720092773E-2,-7.614135742E-3
8.715959164E0,-1.338195801E-2,-2.973937988E-2,-7.614135742E-3
8.720903012E0,-1.338195801E-2,-2.229309082E-2,-1.080322266E-2
8.725877377E0,-1.124572754E-2,-1.908874512E-2,-1.400756836E-2
8.730851742E0,-1.231384277E-2,-1.589965820E-2,-1.826477051E-2
8.735795590E0,-1.763916016E-2,-1.269531250E-2,-2.145385742E-2
8.740739438E0,-2.296447754E-2,-1.803588867E-2,-2.252197266E-2
8.745713803E0,-2.828979492E-2,-1.696777344E-2,-1.933288574E-2
8.750657650E0,-3.149414062E-2,-1.376342773E-2,-1.933288574E-2
8.755601498E0,-3.468322754E-2,-1.164245605E-2,-1.826477051E-2
8.760575863E0,-4.107666016E-2,-7.369995117E-3,-1.400756836E-2
8.765519711E0,-4.853820801E-2,1.144409180E-3,-1.080322266E-2
8.770494076E0,-5.598449707E-2,1.179504395E-2,-8.682250977E-3
8.775468441E0,-5.705261230E-2,2.244567871E-2,-4.409790039E-3
8.780442807E0,-5.918884277E-2,3.736877441E-2,9.155273438E-4
8.785386654E0,-6.237792969E-2,5.867004395E-2,1.983642578E-3
8.790330502E0,-6.237792969E-2,7.252502441E-2,8.361816406E-3
8.795274350E0,-6.237792969E-2,9.169006348E-2,1.795959473E-2
8.800248715E0,-6.130981445E-2,1.066131592E-1,1.795959473E-2
8.805192563E0,-6.344604492E-2,1.215209961E-1,1.582336426E-2
8.810166928E0,-6.770324707E-2,1.374969482E-1,1.689147949E-2
8.815141293E0,-6.558227539E-2,1.545410156E-1,1.902770996E-2
8.820115658E0,-6.558227539E-2,1.747894287E-1,1.582336426E-2
8.825059506E0,-6.558227539E-2,1.907653809E-1,1.263427734E-2
8.830033871E0,-6.877136230E-2,2.046051025E-1,8.361816406E-3
8.834977719E0,-6.983947754E-2,2.099456787E-1,7.308959961E-3
8.839952084E0,-7.197570801E-2,2.120666504E-1,5.172729492E-3
8.844895932E0,-7.409667969E-2,2.163238525E-1,-1.525878906E-4
8.849870297E0,-7.516479492E-2,2.131347656E-1,-3.341674805E-3
8.854814145E0,-8.155822754E-2,2.173919678E-1,-4.409790039E-3
8.859788510E0,-8.901977539E-2,2.216491699E-1,-1.525878906E-4
8.864732358E0,-9.327697754E-2,2.173919678E-1,-3.341674805E-3
8.869706723E0,-9.646606445E-2,2.035522461E-1,-4.409790039E-3
8.874650570E0,-9.646606445E-2,1.854400635E-1,-6.546020508E-3
8.879624936E0,-9.646606445E-2,1.960906982E-1,-9.735107422E-3
8.884568783E0,-9.007263184E-2,1.950225830E-1,-2.040100098E-2
8.889543149E0,-7.835388184E-2,1.321716309E-1,-2.891540527E-2
8.894486996E0,-7.942199707E-2,5.441284180E-2,-2.891540527E-2
8.899461361E0,-8.901977539E-2,1.179504395E-2,-4.809570312E-2
8.904405209E0,-1.113891602E-1,5.120849609E-2,-4.809570312E-2
8.909379574E0,-1.017913818E-1,9.594726562E-2,1.582336426E-2
8.914323422E0,-1.049957275E-1,6.080627441E-2,2.114868164E-2
8.919267270E0,-1.390838623E-1,7.629394531E-5,-4.409790039E-3
8.924211117E0,-1.348266602E-1,-1.483154297E-2,-3.341674805E-3
8.929185483E0,-1.039276123E-1,-2.548217773E-2,-6.546020508E-3
8.934129330E0,-9.220886230E-2,-2.973937988E-2,-2.145385742E-2
8.939103695E0,-8.688354492E-2,-2.973937988E-2,-2.572631836E-2
8.944047543E0,-8.155822754E-2,-2.655029297E-2,-2.891540527E-2
8.948991391E0,-8.262634277E-2,-2.229309082E-2,-3.424072266E-2
8.953965756E0,-7.302856445E-2,-2.868652344E-2,-3.317260742E-2
8.958940121E0,-7.197570801E-2,-6.317138672E-3,-2.998352051E-2
8.963883969E0,-8.474731445E-2,2.671813965E-2,-2.465820312E-2
8.968827816E0,-9.860229492E-2,3.736877441E-2,-1.293945312E-2
8.973802182E0,-1.156463623E-1,4.055786133E-2,-3.341674805E-3
8.978776547E0,-1.231079102E-1,3.204345703E-2,7.308959961E-3
8.983720395E0,-1.156463623E-1,1.393127441E-2,1.475524902E-2
8.988664242E0,-9.646606445E-2,3.280639648E-3,2.114868164E-2
8.993638608E0,-7.730102539E-2,7.629394531E-5,2.221679688E-2
8.998612973E0,-6.237792969E-2,6.469726562E-3,1.689147949E-2
9.003556820E0,-5.172729492E-2,2.032470703E-2,1.156616211E-2
9.008531186E0,-4.533386230E-2,4.162597656E-2,6.240844727E-3
9.013475033E0,-3.681945801E-2,5.334472656E-2,-2.288818359E-3
9.018418881E0,-2.722167969E-2,4.801940918E-2,-7.614135742E-3
9.023393246E0,-2.189636230E-2,4.588317871E-2,-1.187133789E-2
9.028367611E0,-1.550292969E-2,4.162597656E-2,-1.612854004E-2
9.033311459E0,-1.124572754E-2,2.990722656E-2,-1.719665527E-2
9.038285824E0,-8.056640625E-3,2.565002441E-2,-1.506042480E-2
9.043229672E0,1.541137695E-3,4.348754883E-3,-1.080322266E-2
9.048204037E0,8.987426758E-3,-2.761840820E-2,-3.341674805E-3
9.053147885E0,1.644897461E-2,-7.022094727E-2,6.240844727E-3
9.058091733E0,3.030395508E-2,-1.426696777E-1,1.475524902E-2
9.063066098E0,2.177429199E-2,-1.554412842E-1,4.104614258E-3
9.068009945E0,8.987426758E-3,-1.394653320E-1,1.983642578E-3
9.072984311E0,4.730224609E-3,-1.469268799E-1,1.049804688E-2
9.077928158E0,6.866455078E-3,-1.767578125E-1,1.475524902E-2
9.082902524E0,8.987426758E-3,-2.076416016E-1,1.263427734E-2
9.087846371E0,-3.799438477E-3,-1.905975342E-1,1.370239258E-2
9.092820736E0,-1.870727539E-2,-1.629028320E-1,1.156616211E-2
9.097795102E0,-2.189636230E-2,-1.618347168E-1,8.361816406E-3
9.102738949E0,-2.510070801E-2,-1.650390625E-1,8.361816406E-3
9.107713315E0,-2.722167969E-2,-1.543884277E-1,5.172729492E-3
9.112657162E0,-3.149414062E-2,-1.447906494E-1,1.983642578E-3
9.117601010E0,-3.468322754E-2,-1.373443604E-1,-2.288818359E-3
9.122575375E0,-3.575134277E-2,-1.309509277E-1,-2.288818359E-3
9.127519223E0,-3.468322754E-2,-1.277465820E-1,-1.220703125E-3
9.132493588E0,-3.361511230E-2,-1.224212646E-1,1.983642578E-3
9.137467953E0,-3.468322754E-2,-1.043090820E-1,4.104614258E-3
9.142411801E0,-3.681945801E-2,-7.342529297E-2,4.104614258E-3
9.147386166E0,-3.894042969E-2,-4.573059082E-2,7.308959961E-3
9.152330014E0,-4.426574707E-2,-1.696777344E-2,1.049804688E-2
9.157273861E0,-5.065917969E-2,4.348754883E-3,1.156616211E-2
9.162248227E0,-5.705261230E-2,2.565002441E-2,1.689147949E-2
9.167192074E0,-6.237792969E-2,5.760192871E-2,2.114868164E-2
9.172166440E0,-6.558227539E-2,8.956909180E-2,2.008056641E-2
9.177110287E0,-6.877136230E-2,1.193847656E-1,2.114868164E-2
9.182084652E0,-6.983947754E-2,1.502838135E-1,2.221679688E-2
9.187028500E0,-7.197570801E-2,1.865081787E-1,2.008056641E-2
9.192002865E0,-7.302856445E-2,2.227172852E-1,1.902770996E-2
9.196946713E0,-7.090759277E-2,2.557373047E-1,2.328491211E-2
9.201921078E0,-6.770324707E-2,2.813110352E-1,2.754211426E-2
9.206895443E0,-6.237792969E-2,3.026123047E-1,3.500366211E-2
9.211839291E0,-5.386352539E-2,3.175354004E-1,4.565429688E-2
9.216783139E0,-4.426574707E-2,3.271179199E-1,5.097961426E-2
9.221757504E0,-3.575134277E-2,3.367004395E-1,6.056213379E-2
9.226701352E0,-3.149414062E-2,3.441619873E-1,6.909179688E-2
9.231675717E0,-2.189636230E-2,3.430938721E-1,7.441711426E-2
9.236650082E0,-1.231384277E-2,3.399047852E-1,7.760620117E-2
9.241593930E0,-2.731323242E-3,3.335113525E-1,8.081054688E-2
9.246537777E0,5.798339844E-3,3.249816895E-1,7.974243164E-2
9.251512143E0,1.644897461E-2,3.079376221E-1,8.187866211E-2
9.256486508E0,2.923583984E-2,2.770538330E-1,8.187866211E-2
9.261430356E0,4.200744629E-2,2.333679199E-1,7.760620117E-2
9.266374203E0,5.479431152E-2,1.822357178E-1,6.802368164E-2
9.271318051E0,6.544494629E-2,1.300506592E-1,5.630493164E-2
9.276322934E0,7.609558105E-2,7.785034180E-2,4.779052734E-2
9.281266781E0,8.143615723E-2,2.671813965E-2,3.500366211E-2
9.286210629E0,8.355712891E-2,-2.868652344E-2,2.435302734E-2
9.291184994E0,7.929992676E-2,-8.407592773E-2,1.049804688E-2
9.296159359E0,6.864929199E-2,-1.352081299E-1,-2.288818359E-3
9.301103207E0,5.267333984E-2,-1.799468994E-1,-1.506042480E-2
9.306047055E0,3.775024414E-2,-2.353363037E-1,-2.784729004E-2
9.311021420E0,2.603149414E-2,-2.800903320E-1,-3.210449219E-2
9.315995785E0,1.644897461E-2,-2.981872559E-1,-3.744506836E-2
9.320970150E0,8.987426758E-3,-3.301544189E-1,-3.956604004E-2
9.325913998E0,1.541137695E-3,-3.706359863E-1,-3.744506836E-2
9.330857846E0,-5.950927734E-4,-4.143066406E-1,-3.849792480E-2
9.335801693E0,-8.056640625E-3,-4.388122559E-1,-3.744506836E-2
9.340776059E0,-1.977539062E-2,-4.377441406E-1,-3.849792480E-2
9.345719906E0,-3.254699707E-2,-4.334869385E-1,-3.956604004E-2
9.350663754E0,-4.321289062E-2,-4.281616211E-1,-3.849792480E-2
9.355638119E0,-5.065917969E-2,-4.196319580E-1,-3.637695312E-2
9.360612484E0,-5.918884277E-2,-3.983306885E-1,-3.849792480E-2
9.365556332E0,-6.770324707E-2,-3.599853516E-1,-3.849792480E-2
9.370530697E0,-7.409667969E-2,-3.045806885E-1,-3.424072266E-2
9.375474545E0,-7.835388184E-2,-2.396087646E-1,-2.891540527E-2
9.380448910E0,-7.730102539E-2,-1.714324951E-1,-2.465820312E-2
9.385392758E0,-7.835388184E-2,-1.053771973E-1,-1.506042480E-2
9.390336606E0,-7.730102539E-2,-3.507995605E-2,-9.735107422E-3
9.395310971E0,-7.409667969E-2,2.139282227E-2,-3.341674805E-3
9.400285336E0,-6.663513184E-2,7.997131348E-2,8.361816406E-3
9.405229184E0,-6.770324707E-2,1.577453613E-1,2.861022949E-2
9.410203549E0,-7.197570801E-2,2.142028809E-1,3.179931641E-2
9.415147397E0,-6.558227539E-2,2.323150635E-1,2.647399902E-2
9.420091244E0,-6.237792969E-2,2.653350830E-1,2.754211426E-2
9.425065609E0,-6.237792969E-2,3.079376221E-1,2.540588379E-2
9.430009457E0,-5.705261230E-2,3.377685547E-1,2.221679688E-2
9.434983822E0,-5.493164062E-2,3.548126221E-1,1.795959473E-2
9.439927670E0,-5.493164062E-2,3.675994873E-1,1.156616211E-2
9.444902035E0,-5.172729492E-2,3.761138916E-1,5.172729492E-3
9.449845883E0,-4.853820801E-2,3.803863525E-1,1.983642578E-3
9.454820248E0,-4.747009277E-2,3.665313721E-1,3.036499023E-3
9.459794613E0,-4.321289062E-2,3.430938721E-1,-4.409790039E-3
9.464738461E0,-4.321289062E-2,3.388366699E-1,-6.546020508E-3
9.469712826E0,-4.426574707E-2,3.260498047E-1,-7.614135742E-3
9.474656674E0,-4.214477539E-2,3.058166504E-1,-1.220703125E-3
9.479631039E0,-4.321289062E-2,2.983551025E-1,8.361816406E-3
9.484574887E0,-4.214477539E-2,2.631988525E-1,1.049804688E-2
9.489518734E0,-4.321289062E-2,2.163238525E-1,-1.525878906E-4
9.494493100E0,-2.296447754E-2,1.289825439E-1,-1.220703125E-3
9.499467465E0,-6.988525391E-3,5.015563965E-2,-7.614135742E-3
9.504411313E0,-3.788757324E-2,1.438903809E-1,-1.506042480E-2
9.509385678E0,-6.770324707E-2,2.461547852E-1,-1.220703125E-3
9.514329525E0,-7.516479492E-2,2.738494873E-1,1.475524902E-2
9.519303891E0,-7.516479492E-2,2.866363525E-1,2.328491211E-2
9.524247738E0,-7.090759277E-2,2.887725830E-1,2.435302734E-2
9.529222104E0,-6.558227539E-2,2.951660156E-1,2.647399902E-2
9.534165951E0,-6.025695801E-2,2.759857178E-1,2.114868164E-2
9.539109799E0,-2.403259277E-2,1.673278809E-1,4.351806641E-2
9.544084164E0,1.963806152E-2,7.571411133E-2,7.548522949E-2
9.549028012E0,-4.000854492E-2,2.173919678E-1,2.221679688E-2
9.554002377E0,-8.581542969E-2,2.834472656E-1,5.172729492E-3
9.558946225E0,-7.730102539E-2,2.408294678E-1,3.607177734E-2
9.563920590E0,-8.262634277E-2,2.568054199E-1,3.179931641E-2
9.568864438E0,-8.155822754E-2,2.386932373E-1,2.435302734E-2
9.573808285E0,-5.812072754E-2,1.737213135E-1,2.008056641E-2
9.578813168E0,-3.788757324E-2,1.225891113E-1,1.582336426E-2
9.583757016E0,-2.189636230E-2,9.701538086E-2,1.156616211E-2
9.588700863E0,-1.445007324E-2,8.636474609E-2,1.156616211E-2
9.593675229E0,-1.338195801E-2,9.382629395E-2,7.308959961E-3
9.598649594E0,-9.124755859E-3,9.808349609E-2,3.036499023E-3
9.603593441E0,-2.731323242E-3,9.062194824E-2,9.155273438E-4
9.608567807E0,3.662109375E-3,6.932067871E-2,1.983642578E-3
9.613511654E0,1.112365723E-2,4.162597656E-2,1.983642578E-3
9.618486020E0,1.963806152E-2,2.212524414E-3,-3.341674805E-3
9.623429867E0,3.030395508E-2,-3.401184082E-2,-6.546020508E-3
9.628404233E0,3.242492676E-2,-7.022094727E-2,-5.477905273E-3
9.633348080E0,3.775024414E-2,-1.096343994E-1,-5.477905273E-3
9.638322445E0,3.881835938E-2,-1.479949951E-1,-5.477905273E-3
9.643266293E0,4.095458984E-2,-1.820831299E-1,-5.477905273E-3
9.648240658E0,4.414367676E-2,-2.204284668E-1,-5.477905273E-3
9.653184506E0,4.414367676E-2,-2.470550537E-1,-1.220703125E-3
9.658158871E0,4.840087891E-2,-2.768859863E-1,-2.288818359E-3
9.663102719E0,5.586242676E-2,-3.067169189E-1,-4.409790039E-3
9.668077084E0,6.332397461E-2,-3.344116211E-1,9.155273438E-4
9.673020932E0,6.651306152E-2,-3.439941406E-1,-3.341674805E-3
9.677995297E0,7.077026367E-2,-3.514556885E-1,-9.735107422E-3
9.682939145E0,7.290649414E-2,-3.727569580E-1,-1.293945312E-2
9.687882992E0,6.864929199E-2,-3.834075928E-1,-1.612854004E-2
9.692857358E0,6.225585938E-2,-3.940734863E-1,-2.572631836E-2
9.697831723E0,5.799865723E-2,-4.079132080E-1,-2.891540527E-2
9.702775570E0,5.479431152E-2,-4.249572754E-1,-2.998352051E-2
9.707749936E0,4.946899414E-2,-4.132385254E-1,-2.998352051E-2
9.712693783E0,4.627990723E-2,-4.079132080E-1,-3.637695312E-2
9.717637631E0,4.734802246E-2,-4.164428711E-1,-3.424072266E-2
9.722611996E0,4.946899414E-2,-4.047241211E-1,-3.210449219E-2
9.727586361E0,4.840087891E-2,-3.940734863E-1,-2.998352051E-2
9.732530209E0,5.479431152E-2,-3.930053711E-1,-2.677917480E-2
9.737504574E0,6.332397461E-2,-3.930053711E-1,-2.359008789E-2
9.742448422E0,6.758117676E-2,-3.993988037E-1,-2.252197266E-2
9.747422787E0,7.290649414E-2,-4.047241211E-1,-1.506042480E-2
9.752366635E0,6.971740723E-2,-3.983306885E-1,-1.826477051E-2
9.757310483E0,7.504272461E-2,-4.100494385E-1,-2.252197266E-2
9.762284848E0,7.823181152E-2,-4.153747559E-1,-2.040100098E-2
9.767228695E0,8.355712891E-2,-4.143066406E-1,-1.826477051E-2
9.772172543E0,8.888244629E-2,-4.068450928E-1,-1.612854004E-2
9.777146908E0,9.101867676E-2,-4.004516602E-1,-2.359008789E-2
9.782121274E0,9.741210938E-2,-3.919372559E-1,-2.359008789E-2
9.787065121E0,1.038055420E-1,-3.642425537E-1,-1.826477051E-2
9.792008969E0,1.038055420E-1,-3.290863037E-1,-2.465820312E-2
9.796983334E0,1.123199463E-1,-3.173675537E-1,-1.506042480E-2
9.801957699E0,1.187133789E-1,-3.088531494E-1,-9.735107422E-3
9.806932065E0,1.197814941E-1,-2.886047363E-1,-1.293945312E-2
9.811875912E0,1.251068115E-1,-2.609100342E-1,4.104614258E-3
