Time (s),Acceleration x (m/s^2),Acceleration y (m/s^2),Acceleration z (m/s^2)
24.61,-2.24,9.05,0.67
24.61,-2.24,9.06,0.67
24.61,-2.24,9.07,0.67
24.61,-2.24,9.06,0.65
24.62,-2.26,9.04,0.65
24.62,-2.27,9.07,0.59
24.62,-2.26,9.11,0.63
24.62,-2.32,9.11,0.64
24.63,-2.34,9.09,0.63
24.63,-2.32,9.15,0.61
24.63,-2.31,9.15,0.60
24.63,-2.33,9.14,0.60
24.64,-2.31,9.11,0.56
24.64,-2.30,9.12,0.59
24.64,-2.30,9.13,0.54
24.64,-2.36,9.11,0.60
24.65,-2.33,9.11,0.59
24.65,-2.34,9.11,0.57
24.65,-2.30,9.09,0.61
24.65,-2.28,9.11,0.61
24.66,-2.35,9.10,0.60
24.66,-2.31,9.03,0.52
24.66,-2.31,9.09,0.55
24.66,-2.31,9.07,0.55
24.67,-2.26,9.08,0.56
24.67,-2.28,9.08,0.55
24.67,-2.32,9.03,0.56
24.67,-2.27,9.08,0.58
24.68,-2.29,9.07,0.61
24.68,-2.30,9.02,0.63
24.68,-2.35,9.06,0.63
24.68,-2.30,9.08,0.61
24.69,-2.29,9.02,0.58
24.69,-2.29,9.02,0.60
24.69,-2.30,9.02,0.61
24.69,-2.33,9.05,0.66
24.70,-2.33,8.99,0.67
24.70,-2.34,9.03,0.67
24.70,-2.36,9.02,0.71
24.70,-2.33,9.03,0.70
24.71,-2.27,9.00,0.75
24.71,-2.29,9.00,0.81
24.71,-2.30,9.00,0.84
24.71,-2.30,8.99,0.84
24.72,-2.30,8.95,0.84
24.72,-2.28,8.97,0.89
24.72,-2.27,8.99,0.94
24.72,-2.25,8.95,0.95
24.73,-2.16,8.98,1.03
24.73,-2.15,8.95,1.02
24.73,-2.16,8.92,1.03
24.73,-2.08,8.96,1.04
24.74,-2.08,8.92,0.97
24.74,-2.09,8.93,0.99
24.74,-2.05,8.92,1.07
24.74,-1.98,8.98,1.07
24.75,-1.97,8.94,1.03
24.75,-1.95,8.97,1.07
24.75,-1.99,9.06,1.16
24.75,-1.94,9.03,1.14
24.76,-1.88,9.05,1.13
24.76,-1.91,9.11,1.09
24.76,-1.92,9.10,1.16
24.76,-1.89,9.12,1.17
24.77,-1.95,9.11,1.14
24.77,-1.96,9.12,1.08
24.77,-1.98,9.16,1.02
24.77,-2.00,9.12,1.10
24.78,-1.96,9.18,1.16
24.78,-1.90,9.20,1.29
24.78,-1.95,9.17,1.46
24.78,-2.01,9.17,1.56
24.79,-2.00,9.15,1.53
24.79,-2.05,9.17,1.51
24.79,-2.08,9.18,1.52
24.79,-1.95,9.21,1.53
24.80,-1.92,9.17,1.56
24.80,-1.91,9.14,1.61
24.80,-1.87,9.13,1.63
24.80,-1.88,9.11,1.54
24.81,-1.91,9.15,1.44
24.81,-1.92,9.14,1.49
24.81,-1.89,9.12,1.55
24.81,-1.87,9.08,1.58
24.82,-1.85,9.08,1.71
24.82,-1.85,9.12,1.77
24.82,-1.78,9.11,1.82
24.82,-1.75,9.16,1.96
24.83,-1.75,9.13,2.01
24.83,-1.70,9.13,2.04
24.83,-1.66,9.17,2.09
24.83,-1.66,9.18,2.11
24.84,-1.71,9.18,2.12
24.84,-1.70,9.15,2.13
24.84,-1.70,9.19,2.14
24.84,-1.73,9.19,2.09
24.85,-1.70,9.20,2.10
24.85,-1.68,9.20,2.23
24.85,-1.63,9.22,2.25
24.85,-1.56,9.22,2.27
24.86,-1.59,9.26,2.25
24.86,-1.57,9.24,2.24
24.86,-1.61,9.23,2.31
24.86,-1.61,9.23,2.39
24.87,-1.61,9.24,2.35
24.87,-1.59,9.25,2.35
24.87,-1.61,9.25,2.31
24.87,-1.60,9.20,2.27
24.88,-1.57,9.17,2.22
24.88,-1.55,9.13,2.19
24.88,-1.50,9.11,2.11
24.88,-1.51,9.15,2.07
24.89,-1.52,9.07,2.07
24.89,-1.49,9.04,2.02
24.89,-1.51,9.02,2.01
24.89,-1.52,9.00,2.02
24.90,-1.52,8.98,1.98
24.90,-1.53,8.92,1.95
24.90,-1.53,8.89,1.92
24.90,-1.54,8.90,1.93
24.91,-1.52,8.89,1.88
24.91,-1.55,8.86,1.89
24.91,-1.57,8.79,1.84
24.91,-1.56,8.82,1.83
24.92,-1.56,8.76,1.81
24.92,-1.57,8.73,1.77
24.92,-1.55,8.69,1.75
24.92,-1.56,8.66,1.78
24.93,-1.57,8.66,1.80
24.93,-1.56,8.60,1.74
24.93,-1.51,8.58,1.79
24.93,-1.50,8.51,1.78
24.94,-1.53,8.49,1.72
24.94,-1.52,8.45,1.80
24.94,-1.50,8.45,1.74
24.94,-1.51,8.42,1.74
24.95,-1.47,8.39,1.79
24.95,-1.47,8.39,1.80
24.95,-1.48,8.39,1.85
24.95,-1.48,8.34,1.85
24.96,-1.44,8.29,1.87
24.96,-1.41,8.31,1.87
24.96,-1.42,8.33,1.93
24.96,-1.39,8.29,1.95
24.97,-1.33,8.25,2.01
24.97,-1.36,8.24,1.99
24.97,-1.30,8.21,2.02
24.97,-1.31,8.21,2.03
24.98,-1.23,8.17,2.06
24.98,-1.18,8.13,2.11
24.98,-1.16,8.10,2.11
24.98,-1.07,8.05,2.10
24.99,-1.02,8.06,2.19
24.99,-0.95,8.05,2.18
24.99,-0.94,8.02,2.19
24.99,-0.86,8.00,2.24
25.00,-0.81,7.96,2.22
25.00,-0.84,7.96,2.24
25.00,-0.79,7.89,2.21
25.00,-0.78,7.88,2.23
25.01,-0.81,7.78,2.29
25.01,-0.75,7.76,2.28
25.01,-0.79,7.66,2.25
25.01,-0.82,7.62,2.20
25.02,-0.81,7.53,2.15
25.02,-0.81,7.45,2.12
25.02,-0.89,7.36,2.06
25.02,-0.84,7.27,2.01
25.03,-0.85,7.15,1.87
25.03,-0.79,7.04,1.79
25.03,-0.78,6.96,1.71
25.03,-0.80,6.86,1.64
25.04,-0.78,6.71,1.57
25.04,-0.78,6.62,1.49
25.04,-0.75,6.50,1.45
25.04,-0.70,6.40,1.39
25.05,-0.71,6.29,1.45
25.05,-0.80,6.14,1.39
25.05,-0.82,6.05,1.47
25.05,-0.80,5.95,1.60
25.06,-0.79,5.82,1.67
25.06,-0.71,5.72,1.69
25.06,-0.69,5.62,1.77
25.06,-0.68,5.58,1.92
25.07,-0.58,5.53,1.95
25.07,-0.56,5.43,1.98
25.07,-0.47,5.39,2.03
25.07,-0.50,5.33,2.04
25.08,-0.41,5.29,1.98
25.08,-0.39,5.26,2.04
25.08,-0.30,5.26,2.13
25.08,-0.19,5.26,2.07
25.09,-0.11,5.30,2.06
25.09,-0.06,5.31,2.01
25.09,-0.03,5.36,1.96
25.09,0.09,5.37,1.97
25.10,0.15,5.41,2.00
25.10,0.19,5.50,1.94
25.10,0.22,5.54,1.95
25.10,0.19,5.60,2.01
25.11,0.19,5.72,2.02
25.11,0.18,5.85,2.09
25.11,0.14,6.00,2.00
25.11,0.07,6.21,1.92
25.12,-0.01,6.42,1.91
25.12,-0.16,6.64,1.95
25.12,-0.29,6.92,2.02
25.12,-0.44,7.15,2.01
25.13,-0.63,7.44,2.11
25.13,-0.83,7.79,2.08
25.13,-0.87,8.13,2.05
25.13,-0.49,8.03,2.06
25.14,-0.31,7.97,2.13
25.14,-0.42,8.03,2.10
25.14,-0.67,8.25,2.07
25.14,-0.97,8.37,2.07
25.15,-1.17,8.53,2.04
25.15,-1.30,8.57,2.09
25.15,-1.49,8.60,2.13
25.15,-1.70,8.61,2.03
25.16,-1.85,8.62,2.01
25.16,-2.01,8.64,1.96
25.16,-2.22,8.59,1.92
25.16,-2.38,8.63,1.91
25.17,-2.52,8.60,1.85
25.17,-2.66,8.52,1.79
25.17,-2.69,8.47,1.82
25.17,-2.71,8.39,1.86
25.18,-2.74,8.30,1.84
25.18,-2.75,8.22,1.87
25.18,-2.79,8.05,1.93
25.18,-2.69,7.89,2.00
25.19,-2.66,7.68,2.12
25.19,-2.61,7.51,2.18
25.19,-2.60,7.37,2.22
25.19,-2.59,7.14,2.41
25.20,-2.53,6.98,2.56
25.20,-2.46,6.80,2.76
25.20,-2.36,6.65,2.91
25.20,-2.27,6.49,3.10
25.21,-2.18,6.37,3.31
25.21,-1.99,6.31,3.54
25.21,-1.82,6.18,3.68
25.21,-1.70,6.09,3.87
25.22,-1.56,6.07,3.92
25.22,-1.42,6.08,4.06
25.22,-1.24,6.10,4.11
25.22,-1.09,6.12,4.13
25.23,-0.98,6.11,4.08
25.23,-0.89,6.19,4.02
25.23,-0.80,6.28,3.88
25.23,-0.74,6.31,3.75
25.24,-0.68,6.37,3.62
25.24,-0.61,6.44,3.52
25.24,-0.59,6.53,3.41
25.24,-0.62,6.51,3.31
25.25,-0.71,6.45,3.18
25.25,-0.79,6.40,3.15
25.25,-0.95,6.35,3.17
25.25,-1.09,6.22,3.17
25.26,-1.21,6.15,3.21
25.26,-1.31,6.14,3.33
25.26,-1.44,6.10,3.46
25.26,-1.63,6.03,3.27
25.27,-1.71,5.89,2.83
25.27,-1.72,5.84,2.64
25.27,-1.68,5.92,2.48
25.27,-1.70,6.11,2.42
25.28,-1.81,6.36,2.30
25.28,-1.89,6.68,2.15
25.28,-2.04,7.08,2.13
25.28,-2.21,7.50,2.09
25.29,-2.28,7.93,1.99
25.29,-2.38,8.33,1.90
25.29,-2.56,8.77,1.72
25.29,-2.68,9.16,1.54
25.30,-2.66,9.66,1.37
25.30,-2.64,10.08,1.31
25.30,-2.65,10.54,1.05
25.30,-2.64,11.00,0.94
25.31,-2.68,11.50,0.69
25.31,-2.70,11.97,0.60
25.31,-2.70,12.43,0.52
25.31,-2.80,12.93,0.42
25.32,-2.86,13.49,0.43
25.32,-2.89,13.98,0.44
25.32,-2.79,14.55,0.33
25.32,-2.73,15.27,0.42
25.33,-2.76,15.95,0.54
25.33,-2.71,16.55,0.55
25.33,-2.63,17.13,0.52
25.34,-2.57,17.56,0.39
25.34,-2.61,17.95,0.11
25.34,-2.62,18.21,-0.07
25.34,-2.67,18.35,-0.29
25.35,-2.75,18.46,-0.37
25.35,-2.78,18.38,-0.29
25.35,-2.66,18.15,-0.14
25.35,-2.39,17.79,0.23
25.35,-2.09,17.40,0.67
25.36,-1.76,16.93,1.29
25.36,-1.42,16.56,1.89
25.36,-1.19,16.26,2.38
25.36,-1.03,16.19,2.96
25.37,-0.73,16.16,3.61
25.37,-0.48,16.33,4.46
25.37,-1.14,16.69,4.53
25.37,-1.74,17.27,4.43
25.38,-2.24,17.85,4.42
25.38,-2.79,18.43,3.89
25.38,-3.05,18.72,2.28
25.38,-2.97,18.99,1.15
25.39,-2.66,19.46,1.14
25.39,-1.89,19.89,2.04
25.39,-1.06,20.20,2.92
25.39,-0.19,20.33,3.21
25.40,0.50,20.43,3.41
25.40,0.86,20.38,3.59
25.40,1.17,20.00,3.89
25.40,1.44,19.46,4.34
25.41,1.50,18.72,5.11
25.41,1.26,17.60,5.59
25.41,0.86,16.56,5.89
25.41,0.38,15.73,6.11
25.42,-0.20,15.08,6.16
25.42,-0.69,14.50,6.07
25.42,-1.16,14.00,6.04
25.42,-1.59,13.49,5.97
25.43,-1.89,12.99,5.97
25.43,-2.11,12.51,5.84
25.43,-2.30,12.02,5.66
25.43,-2.26,11.57,5.46
25.44,-2.23,11.14,5.15
25.44,-2.23,10.70,4.82
25.44,-2.13,10.32,4.44
25.44,-1.95,9.99,4.01
25.45,-1.82,9.61,3.54
25.45,-1.67,9.35,3.08
25.45,-1.51,9.12,2.67
25.45,-1.44,8.92,2.33
25.46,-1.35,8.79,2.02
25.46,-1.24,8.70,1.77
25.46,-1.16,8.59,1.58
25.46,-1.11,8.58,1.55
25.47,-1.11,8.56,1.46
25.47,-1.12,8.59,1.44
25.47,-1.11,8.65,1.51
25.47,-1.08,8.53,1.47
25.48,-1.03,8.54,1.51
25.48,-0.96,8.57,1.58
25.48,-0.92,8.56,1.61
25.49,-0.82,8.58,1.68
25.49,-0.79,8.55,1.70
25.49,-0.66,8.51,1.73
25.49,-0.59,8.46,1.85
25.50,-0.59,8.37,1.81
25.50,-0.57,8.34,1.82
25.50,-0.53,8.31,1.80
25.50,-0.48,8.25,1.85
25.51,-0.43,8.20,1.82
25.51,-0.42,8.11,1.83
25.51,-0.39,8.03,1.86
25.51,-0.33,7.95,1.92
25.52,-0.22,7.88,1.95
25.52,-0.14,7.75,2.06
25.52,-0.15,7.60,2.09
25.52,-0.02,7.51,2.07
25.53,0.04,7.36,2.15
25.53,0.05,7.21,2.16
25.53,0.18,7.06,2.20
25.53,0.21,6.97,2.31
25.54,0.19,6.74,2.34
25.54,0.18,6.58,2.32
25.54,0.22,6.45,2.38
25.54,0.22,6.29,2.42
25.55,0.22,6.10,2.37
25.55,0.24,5.91,2.40
25.55,0.25,5.73,2.48
25.55,0.27,5.50,2.44
25.56,0.33,5.32,2.54
25.56,0.37,5.21,2.58
25.56,0.42,5.00,2.64
25.56,0.42,4.88,2.73
25.57,0.42,4.78,2.82
25.57,0.44,4.66,2.88
25.57,0.51,4.55,2.89
25.57,0.55,4.50,2.85
25.58,0.49,4.42,2.90
25.58,0.41,4.36,2.88
25.58,0.37,4.38,2.85
25.58,0.35,4.38,2.88
25.59,0.35,4.35,2.88
25.59,0.34,4.35,2.94
25.59,0.36,4.39,3.00
25.59,0.32,4.46,2.96
25.60,0.23,4.48,3.00
25.60,0.27,4.56,2.96
25.60,0.44,4.57,2.91
25.60,0.60,4.52,3.06
25.61,0.70,4.55,3.11
25.61,0.68,4.54,3.07
25.61,0.69,4.55,3.11
25.61,0.63,4.61,3.09
25.62,0.56,4.60,3.03
25.62,0.56,4.59,2.91
25.62,0.57,4.62,2.85
25.62,0.55,4.57,2.75
25.63,0.56,4.55,2.65
25.63,0.53,4.55,2.44
25.63,0.53,4.50,2.17
25.63,0.46,4.53,1.88
25.64,0.48,4.50,1.70
25.64,0.48,4.45,1.47
25.64,0.50,4.43,1.20
25.64,0.59,4.44,1.00
25.65,0.61,4.53,0.85
25.65,0.65,4.54,0.66
25.65,0.66,4.44,0.43
25.65,0.74,4.50,0.09
25.66,0.78,4.51,-0.19
25.66,0.83,4.53,-0.35
25.66,0.85,4.57,-0.53
25.66,0.89,4.59,-0.62
25.67,0.84,4.60,-0.63
25.67,0.79,4.61,-0.57
25.67,0.77,4.63,-0.51
25.67,0.76,4.61,-0.46
25.68,0.80,4.61,-0.33
25.68,0.82,4.61,-0.12
25.68,0.86,4.61,0.11
25.68,0.88,4.73,0.26
25.69,0.88,4.85,0.48
25.69,0.84,5.00,0.71
25.69,0.81,5.16,0.74
25.69,0.85,5.30,0.66
25.70,0.84,5.44,0.89
25.70,0.81,5.61,1.16
25.70,0.85,5.78,1.43
25.70,0.88,5.97,1.62
25.71,0.93,6.17,1.75
25.71,0.92,6.33,1.86
25.71,0.97,6.52,1.90
25.71,0.96,6.69,1.92
25.72,0.92,6.80,1.91
25.72,0.91,6.92,1.93
25.72,0.87,7.07,1.93
25.72,0.84,7.07,2.05
25.73,0.85,7.09,2.18
25.73,0.91,7.10,2.11
25.73,0.94,7.11,1.62
25.73,0.85,7.01,1.40
25.74,0.77,6.99,1.44
25.74,0.73,6.89,1.56
25.74,0.70,6.75,1.72
25.74,0.62,6.69,1.83
25.75,0.55,6.59,2.00
25.75,0.44,6.56,2.13
25.75,0.32,6.55,2.24
25.75,0.12,6.56,2.42
25.76,-0.04,6.56,2.52
25.76,-0.15,6.65,2.68
25.76,-0.24,6.74,2.78
25.76,-0.34,6.81,2.92
25.77,-0.41,6.97,2.99
25.77,-0.43,7.11,3.08
25.77,-0.44,7.29,3.16
25.77,-0.40,7.44,3.13
25.78,-0.41,7.61,3.12
25.78,-0.34,7.75,3.12
25.78,-0.28,8.00,3.04
25.78,-0.20,8.19,3.03
25.79,-0.14,8.41,3.02
25.79,-0.12,8.62,2.98
25.79,-0.10,8.83,2.99
25.79,-0.09,9.03,2.99
25.80,-0.07,9.21,3.05
25.80,-0.10,9.36,3.04
25.80,-0.17,9.57,3.04
25.80,-0.25,9.72,3.06
25.81,-0.31,9.89,2.96
25.81,-0.37,10.07,2.96
25.81,-0.43,10.20,2.97
25.81,-0.51,10.31,2.93
25.82,-0.55,10.47,2.91
25.82,-0.55,10.59,2.85
25.82,-0.67,10.78,2.69
25.82,-0.74,10.98,2.38
25.83,-0.79,11.16,2.11
25.83,-0.92,11.42,1.76
25.83,-1.00,11.67,1.34
25.83,-1.06,11.98,0.97
25.84,-1.20,12.32,0.63
25.84,-1.31,12.65,0.25
25.84,-1.47,13.09,-0.14
25.84,-1.60,13.62,-0.48
25.85,-1.77,14.16,-0.79
25.85,-1.89,14.76,-1.16
25.85,-2.07,15.33,-1.54
25.85,-2.12,15.92,-2.04
25.86,-2.23,16.51,-2.57
25.86,-2.41,17.12,-3.23
25.86,-2.68,17.78,-3.86
25.86,-2.91,18.24,-4.45
25.87,-2.93,18.54,-4.90
25.87,-3.07,18.80,-5.20
25.87,-3.34,19.03,-5.29
25.87,-3.61,19.09,-5.07
25.88,-3.81,18.92,-4.48
25.88,-4.12,18.61,-3.46
25.88,-4.61,18.15,-2.26
25.88,-4.84,17.58,-1.36
25.89,-5.10,16.83,-0.71
25.89,-5.37,16.03,-0.06
25.89,-5.61,15.24,0.62
25.89,-5.89,14.36,1.34
25.90,-6.07,13.47,2.14
25.90,-6.41,12.73,3.00
25.90,-6.83,12.12,3.67
25.90,-7.35,11.68,4.05
25.91,-7.84,11.34,4.50
25.91,-7.93,11.08,4.92
25.91,-7.89,10.82,4.99
25.91,-7.59,10.61,4.85
25.92,-6.90,10.56,4.72
25.92,-5.93,10.65,4.62
25.92,-5.03,10.72,4.45
25.92,-4.27,10.97,4.44
25.93,-3.41,11.28,4.45
25.93,-2.72,11.70,4.47
25.93,-2.31,12.28,4.62
25.93,-2.02,12.93,4.90
25.94,-1.73,13.53,5.44
25.94,-1.55,14.02,6.02
25.94,-1.35,14.43,6.58
25.94,-0.94,14.77,7.18
25.95,-0.54,15.00,7.67
25.95,-0.19,15.13,7.93
25.95,0.14,15.08,8.12
25.95,0.48,15.03,8.19
25.96,0.72,14.95,8.03
25.96,0.87,14.75,7.74
25.96,1.08,14.37,7.54
25.96,1.10,14.04,7.26
25.97,0.84,13.65,6.71
25.97,0.18,13.27,6.09
25.97,-0.56,12.88,5.46
25.97,-1.32,12.47,4.87
25.98,-1.99,12.10,4.25
25.98,-2.53,11.80,3.61
25.98,-2.99,11.56,2.96
25.98,-3.38,11.38,2.43
25.99,-3.63,11.20,1.97
25.99,-3.81,11.08,1.60
25.99,-3.98,11.06,1.26
25.99,-4.02,11.03,1.00
26.00,-4.07,11.09,0.78
26.00,-4.06,11.19,0.53
26.00,-3.94,11.22,0.38
26.00,-3.74,11.32,0.24
26.01,-3.45,11.39,0.16
26.01,-3.13,11.44,0.09
26.01,-2.82,11.45,0.02
26.01,-2.56,11.47,-0.11
26.02,-2.38,11.47,0.01
26.02,-2.26,11.39,-0.01
26.02,-2.08,11.32,0.01
26.02,-1.89,11.18,0.09
26.03,-1.81,11.01,0.14
26.03,-1.75,10.87,0.16
26.03,-1.66,10.68,0.21
26.03,-1.53,10.42,0.26
26.04,-1.46,10.14,0.35
26.04,-1.37,9.87,0.51
26.04,-1.34,9.55,0.59
26.04,-1.32,9.24,0.55
26.05,-1.41,8.93,0.61
26.05,-1.42,8.61,0.76
26.05,-1.47,8.38,1.01
26.05,-1.55,8.13,1.20
26.06,-1.68,7.87,1.38
26.06,-1.77,7.61,1.50
26.06,-1.97,7.37,1.75
26.06,-2.15,7.15,1.97
26.07,-2.28,6.95,2.10
26.07,-2.45,6.77,2.29
26.07,-2.62,6.64,2.44
26.07,-2.81,6.50,2.57
26.08,-2.97,6.39,2.61
26.08,-3.10,6.27,2.57
26.08,-3.18,6.19,2.49
26.08,-3.27,6.11,2.33
26.09,-3.29,6.00,2.15
26.09,-3.20,5.96,2.05
26.09,-3.12,5.96,1.91
26.09,-2.95,5.93,1.84
26.10,-2.73,5.85,1.62
26.10,-2.47,5.82,1.52
26.10,-2.21,5.81,1.35
26.10,-1.93,5.85,1.28
26.11,-1.71,5.84,1.22
26.11,-1.54,5.83,1.15
26.11,-1.31,5.82,1.16
26.11,-1.06,5.76,1.07
26.12,-0.79,5.69,1.03
26.12,-0.53,5.60,1.00
26.12,-0.25,5.50,0.95
26.12,0.04,5.37,0.87
26.13,0.28,5.20,0.85
26.13,0.50,5.06,0.82
26.13,0.70,4.95,0.84
26.13,0.89,4.77,0.79
26.14,1.06,4.59,0.86
26.14,1.18,4.47,0.92
26.14,1.28,4.34,0.93
26.14,1.41,4.22,1.00
26.15,1.47,4.05,1.13
26.15,1.52,3.97,1.26
26.15,1.61,3.86,1.43
26.15,1.64,3.75,1.57
26.16,1.68,3.68,1.74
26.16,1.76,3.62,1.94
26.16,1.80,3.55,2.08
26.16,1.81,3.49,2.23
26.17,1.88,3.53,2.33
26.17,1.91,3.54,2.40
26.17,1.87,3.60,2.54
26.17,1.87,3.75,2.68
26.18,1.89,3.84,2.71
26.18,1.88,4.02,2.87
26.18,1.86,4.22,2.99
26.18,1.89,4.47,3.12
26.19,1.87,4.67,3.26
26.19,1.88,4.93,3.36
26.19,1.87,5.23,3.47
26.19,1.86,5.58,3.55
26.20,1.77,5.89,3.64
26.20,1.61,6.20,3.69
26.20,1.45,6.50,3.74
26.20,1.32,6.79,3.83
26.21,1.23,7.02,3.78
26.21,1.05,7.23,3.75
26.21,0.97,7.40,3.65
26.21,0.89,7.57,3.60
26.22,0.80,7.62,3.51
26.22,0.66,7.71,3.29
26.22,0.46,7.78,3.10
26.22,0.16,7.81,2.84
26.23,-0.13,7.77,2.51
26.23,-0.47,7.75,2.28
26.23,-0.90,7.63,2.04
26.23,-1.31,7.48,1.79
26.24,-1.76,7.31,1.61
26.24,-2.21,7.14,1.46
26.24,-2.60,6.91,1.41
26.24,-2.98,6.68,1.46
26.25,-3.31,6.50,1.55
26.25,-3.60,6.29,1.71
26.25,-3.76,6.05,1.87
26.25,-3.85,5.84,2.05
26.26,-3.92,5.63,2.22
26.26,-3.99,5.43,2.38
26.26,-3.97,5.17,2.52
26.26,-3.95,5.05,2.65
26.27,-3.98,4.91,2.73
26.27,-3.96,4.88,2.81
26.27,-3.95,4.87,2.87
26.27,-3.74,4.83,2.96
26.28,-3.31,4.57,3.12
26.28,-2.89,4.42,3.35
26.28,-2.63,4.42,3.56
26.28,-2.37,4.52,3.58
26.29,-2.24,4.76,3.62
26.29,-2.16,5.11,3.72
26.29,-2.05,5.48,3.77
26.29,-2.01,5.88,3.72
26.30,-1.89,6.33,3.82
26.30,-1.74,6.68,3.85
26.30,-1.59,7.01,3.90
26.30,-1.39,7.32,3.96
26.31,-1.18,7.64,3.82
26.31,-1.07,7.88,3.70
26.31,-0.90,8.09,3.51
26.31,-0.87,8.30,3.24
26.32,-0.86,8.45,2.89
26.32,-0.89,8.51,2.51
26.32,-0.93,8.56,2.12
26.32,-0.96,8.54,1.80
26.33,-1.01,8.49,1.49
26.33,-1.12,8.40,1.24
26.33,-1.36,8.24,1.12
26.33,-1.63,8.02,0.97
26.34,-1.83,7.91,0.85
26.34,-2.03,7.76,0.87
26.34,-2.17,7.55,0.88
26.34,-2.40,7.39,0.84
26.35,-2.64,7.24,0.80
26.35,-2.86,7.21,0.91
26.35,-3.11,7.11,0.95
26.35,-3.41,7.10,1.02
26.36,-3.67,7.01,1.03
26.36,-3.96,6.87,1.05
26.36,-4.25,6.80,0.98
26.36,-4.45,6.62,0.88
26.37,-4.64,6.48,0.73
26.37,-4.84,6.33,0.53
26.37,-4.91,6.10,0.30
26.37,-5.01,5.91,0.06
26.38,-5.14,5.78,-0.27
26.38,-5.37,5.67,-0.55
26.38,-5.60,5.53,-0.69
26.38,-5.71,5.43,-0.81
26.39,-5.86,5.36,-0.75
26.39,-5.95,5.44,-0.64
26.39,-6.18,5.66,-0.59
26.39,-6.24,5.81,-0.56
26.40,-6.05,5.92,0.04
26.40,-5.59,6.26,0.58
26.40,-4.63,6.93,1.20
26.40,-3.78,7.67,2.01
26.41,-3.52,8.38,2.07
26.41,-3.33,9.36,2.31
26.41,-3.11,10.36,2.11
26.41,-2.88,11.50,2.06
26.42,-2.51,12.66,2.57
26.42,-1.95,13.87,2.89
26.42,-1.22,15.29,3.34
26.42,-0.25,16.79,3.99
26.43,0.79,18.11,4.18
26.43,1.75,19.55,4.40
26.43,2.82,20.81,4.55
26.43,3.63,22.00,4.68
26.44,3.92,23.21,4.94
26.44,4.14,24.22,5.04
26.44,4.23,25.10,4.66
26.44,4.33,25.83,3.86
26.45,4.36,26.35,2.98
26.45,4.24,26.30,2.45
26.45,3.93,25.83,2.25
26.45,3.47,25.10,2.02
26.46,2.83,24.40,2.73
26.46,2.07,23.54,3.80
26.46,1.38,22.62,4.26
26.46,0.77,21.69,4.71
26.47,0.14,20.77,4.98
26.47,-0.50,19.98,5.20
26.47,-1.06,19.24,5.36
26.47,-1.47,18.59,5.49
26.48,-1.79,17.99,5.54
26.48,-2.15,17.43,5.53
26.48,-2.44,16.92,5.57
26.48,-2.76,16.44,5.62
26.49,-3.08,15.98,5.72
26.49,-3.32,15.65,5.91
26.49,-3.56,15.25,6.14
26.49,-3.68,14.85,6.38
26.50,-3.74,14.49,6.60
26.50,-3.73,14.10,6.76
26.50,-3.63,13.74,6.97
26.50,-3.48,13.43,7.04
26.51,-3.31,13.10,7.06
26.51,-3.16,12.80,7.19
26.51,-3.05,12.54,7.29
26.51,-2.86,12.33,7.37
26.52,-2.61,12.15,7.50
26.52,-2.40,12.00,7.65
26.52,-2.13,11.87,7.81
26.52,-1.91,11.67,7.95
26.53,-1.74,11.55,7.95
26.53,-1.63,11.52,7.80
26.53,-1.54,11.44,7.63
26.53,-1.43,11.45,7.28
26.54,-1.25,11.41,6.89
26.54,-1.11,11.36,6.35
26.54,-0.94,11.30,5.79
26.54,-0.73,11.18,5.14
26.55,-0.59,11.07,4.58
26.55,-0.47,10.96,4.03
26.55,-0.38,10.83,3.46
26.55,-0.37,10.80,2.95
26.56,-0.38,10.70,2.52
26.56,-0.36,10.53,2.13
26.56,-0.34,10.36,1.83
26.56,-0.29,10.18,1.69
26.57,-0.30,10.01,1.51
26.57,-0.25,9.84,1.46
26.57,-0.26,9.60,1.47
26.57,-0.24,9.43,1.56
26.58,-0.16,9.21,1.79
26.58,-0.12,9.02,1.94
26.58,0.01,8.87,2.15
26.58,0.13,8.68,2.38
26.59,0.30,8.52,2.61
26.59,0.46,8.30,2.70
26.59,0.57,8.09,2.84
26.59,0.68,7.94,2.93
26.60,0.81,7.73,2.99
26.60,0.94,7.45,3.06
26.60,1.00,7.23,3.15
26.60,1.06,7.02,3.21
26.61,1.11,6.77,3.29
26.61,1.21,6.51,3.39
26.61,1.22,6.27,3.42
26.61,1.21,6.10,3.41
26.62,1.21,5.85,3.45
26.62,1.16,5.67,3.49
26.62,1.19,5.46,3.49
26.62,1.18,5.18,3.47
26.63,1.14,4.89,3.37
26.63,1.09,4.59,3.37
26.63,1.05,4.27,3.35
26.63,0.97,3.99,3.35
26.64,0.92,3.72,3.36
26.64,0.78,3.48,3.31
26.64,0.58,3.30,3.36
26.64,0.30,3.18,3.33
26.65,0.11,3.00,3.33
26.65,0.10,2.82,3.37
26.65,0.11,2.67,3.36
26.65,0.07,2.51,3.29
26.66,0.07,2.38,3.18
26.66,-0.03,2.33,3.13
26.66,-0.16,2.32,3.05
26.66,-0.18,2.25,3.04
26.67,-0.25,2.22,2.98
26.67,-0.31,2.18,2.91
26.67,-0.30,2.09,2.90
26.67,-0.26,2.08,2.88
26.68,-0.20,2.01,2.81
26.68,-0.14,1.90,2.74
26.68,-0.03,1.86,2.63
26.68,0.10,1.77,2.50
26.69,0.18,1.71,2.33
26.69,0.25,1.68,2.13
26.69,0.33,1.66,1.85
26.69,0.37,1.69,1.67
26.70,0.41,1.70,1.47
26.70,0.43,1.78,1.40
26.70,0.53,1.86,1.31
26.70,0.61,2.00,1.18
26.71,0.63,2.11,1.02
26.71,0.69,2.18,0.81
26.71,0.87,2.34,0.67
26.71,0.98,2.47,0.56
26.72,1.06,2.64,0.52
26.72,1.16,2.81,0.38
26.72,1.28,2.95,0.24
26.72,1.38,3.09,0.14
26.73,1.40,3.29,0.11
26.73,1.51,3.47,0.04
26.73,1.54,3.67,0.01
26.73,1.65,3.84,0.02
26.74,1.77,4.05,0.03
26.74,1.80,4.30,0.05
26.74,1.79,4.50,0.09
26.74,1.77,4.73,0.12
26.75,1.73,4.97,0.13
26.75,1.69,5.19,0.17
26.75,1.63,5.39,0.22
26.75,1.50,5.64,0.32
26.76,1.26,5.85,0.36
26.76,1.04,6.09,0.35
26.76,1.05,6.22,0.34
26.76,1.08,6.22,0.34
26.77,0.99,6.32,0.33
26.77,0.89,6.42,0.35
26.77,0.67,6.62,0.46
26.77,0.47,6.86,0.53
26.78,0.23,7.08,0.74
26.78,0.03,7.25,0.93
26.78,-0.29,7.44,1.16
26.78,-0.53,7.67,1.37
26.79,-0.71,7.90,1.43
26.79,-0.98,8.24,1.26
26.79,-1.12,8.61,0.90
26.79,-1.29,8.92,0.82
26.80,-1.36,9.10,1.09
26.80,-1.41,9.29,1.40
26.80,-1.41,9.41,1.54
26.80,-1.36,9.48,1.72
26.81,-1.26,9.45,1.99
26.81,-1.25,9.42,2.21
26.81,-1.24,9.35,2.45
26.81,-1.20,9.29,2.67
26.82,-1.12,9.10,2.91
26.82,-1.06,8.91,3.19
26.82,-1.05,8.84,3.39
26.82,-1.06,8.76,3.50
26.83,-1.04,8.66,3.44
26.83,-1.08,8.67,3.43
26.83,-0.96,8.69,3.44
26.83,-0.87,8.65,3.24
26.84,-0.79,8.61,2.84
26.84,-0.57,8.52,2.61
26.84,-0.50,8.43,2.50
26.84,-0.29,8.29,2.41
26.85,-0.11,8.23,2.12
26.85,0.04,8.10,1.61
26.85,0.19,8.02,1.35
26.85,0.38,7.93,1.33
26.86,0.54,7.96,1.37
26.86,0.77,7.94,1.45
26.86,0.93,7.95,1.59
26.86,1.03,8.08,1.64
26.87,1.03,8.25,1.69
26.87,1.09,8.48,1.69
26.87,1.04,8.74,1.73
26.87,1.00,9.05,1.66
26.88,0.98,9.45,1.56
26.88,0.99,9.87,1.56
26.88,0.94,10.53,1.33
26.88,0.83,11.19,1.07
26.89,0.80,11.88,0.79
26.89,0.80,12.61,0.27
26.89,0.78,13.36,-0.42
26.89,0.69,14.28,-1.35
26.90,0.57,15.24,-2.48
26.90,0.42,16.30,-3.79
26.90,0.30,17.42,-5.09
26.90,0.08,18.49,-6.59
26.91,-0.14,19.50,-8.00
26.91,-0.47,20.42,-8.96
26.91,-0.81,21.00,-9.17
26.91,-1.18,21.40,-8.67
26.92,-1.54,21.31,-7.58
26.92,-1.89,20.74,-6.11
26.92,-2.33,19.71,-4.37
26.92,-2.62,18.15,-2.57
26.93,-2.71,16.53,-0.73
26.93,-2.79,14.92,0.97
26.93,-3.05,13.47,2.34
26.93,-3.39,12.16,3.37
26.94,-3.91,11.05,4.19
26.94,-4.38,10.09,4.83
26.94,-4.78,9.23,5.01
26.94,-5.63,8.39,4.96
26.95,-6.41,7.43,4.47
26.95,-6.65,6.83,3.62
26.95,-6.85,6.40,2.96
26.95,-7.01,6.06,2.63
26.96,-7.00,5.83,2.43
26.96,-7.18,5.78,2.73
26.96,-7.36,5.94,3.32
26.96,-7.46,6.35,4.18
26.97,-7.36,7.04,5.01
26.97,-7.29,8.04,5.80
26.97,-7.20,9.24,6.53
26.97,-7.26,10.73,7.50
26.98,-7.37,12.19,8.39
26.98,-7.39,13.46,9.07
26.98,-7.21,14.71,9.89
26.98,-6.96,15.93,10.69
26.99,-6.88,17.05,11.36
26.99,-6.75,18.14,11.80
26.99,-6.37,18.98,12.16
26.99,-5.88,19.56,12.42
27.00,-5.22,19.90,12.53
27.00,-4.33,19.85,12.44
27.00,-3.24,19.50,12.03
27.00,-1.95,18.59,11.44
27.01,-0.75,17.33,10.44
27.01,-0.25,16.02,9.32
27.01,-0.53,14.74,8.46
27.01,-1.23,13.76,7.65
27.02,-2.09,13.18,6.85
27.02,-2.84,12.77,6.02
27.02,-3.39,12.52,4.98
27.02,-3.84,12.41,3.91
27.03,-4.20,12.47,2.83
27.03,-4.33,12.51,1.77
27.03,-4.21,12.61,0.77
27.03,-3.96,12.74,-0.04
27.04,-3.53,12.87,-0.75
27.04,-3.07,12.92,-1.11
27.04,-2.62,12.98,-1.59
27.04,-2.21,12.95,-2.10
27.05,-1.93,12.97,-2.43
27.05,-1.68,12.93,-2.58
27.05,-1.62,12.94,-2.36
27.05,-1.79,12.92,-1.97
27.06,-1.95,12.86,-1.51
27.06,-2.22,12.82,-1.04
27.06,-2.43,12.71,-0.51
27.06,-2.60,12.62,-0.06
27.07,-2.71,12.44,0.27
27.07,-2.85,12.26,0.55
27.07,-2.97,12.04,0.71
27.07,-3.06,11.85,0.91
27.08,-3.00,11.60,1.15
27.08,-2.88,11.25,1.35
27.08,-2.92,10.94,1.52
27.08,-2.90,10.63,1.62
27.09,-2.76,10.25,1.82
27.09,-2.67,9.92,2.03
27.09,-2.69,9.62,2.21
27.09,-2.71,9.42,2.46
27.10,-2.78,9.19,2.72
27.10,-2.87,8.96,3.06
27.10,-2.81,8.70,3.37
27.10,-2.68,8.47,3.60
27.11,-2.52,8.22,3.85
27.11,-2.37,7.94,3.93
27.11,-2.17,7.68,3.88
27.11,-1.91,7.40,3.76
27.12,-1.73,7.22,3.62
27.12,-1.46,7.02,3.44
27.12,-1.15,6.80,3.29
27.12,-0.89,6.60,3.09
27.13,-0.60,6.35,2.94
27.13,-0.34,6.09,2.70
27.13,-0.09,5.86,2.53
27.13,0.16,5.62,2.37
27.14,0.38,5.33,2.16
27.14,0.56,5.07,1.95
27.14,0.67,4.80,1.85
27.14,0.87,4.59,1.80
27.15,1.04,4.41,1.74
27.15,1.02,4.24,1.70
27.15,1.09,4.13,1.68
27.15,1.20,4.02,1.62
27.16,1.23,3.95,1.56
27.16,1.20,3.97,1.52
27.16,1.25,3.95,1.47
27.16,1.22,3.94,1.39
27.17,1.12,4.02,1.32
27.17,1.05,3.99,1.22
27.17,0.99,4.04,1.16
27.17,0.89,4.05,1.07
27.18,0.77,4.06,1.02
27.18,0.66,4.03,0.91
27.18,0.55,4.02,0.84
27.18,0.41,3.99,0.77
27.19,0.22,3.97,0.75
27.19,-0.04,3.91,0.68
27.19,-0.28,3.91,0.74
27.19,-0.45,3.95,0.82
27.20,-0.60,3.93,0.85
27.20,-0.77,4.02,0.94
27.20,-0.80,4.08,1.05
27.20,-0.94,4.16,1.19
27.21,-1.01,4.22,1.30
27.21,-1.09,4.29,1.38
27.21,-1.14,4.31,1.48
27.21,-1.15,4.30,1.58
27.22,-1.09,4.29,1.80
27.22,-0.99,4.24,2.00
27.22,-0.91,4.20,2.11
27.22,-0.79,4.13,2.32
27.23,-0.72,4.14,2.54
27.23,-0.58,4.09,2.72
27.23,-0.50,4.07,2.92
27.23,-0.35,4.01,3.11
27.24,-0.23,3.95,3.30
27.24,-0.07,3.91,3.38
27.24,0.13,3.90,3.37
27.24,0.27,3.89,3.39
27.25,0.38,3.85,3.36
27.25,0.47,3.82,3.31
27.25,0.45,3.77,3.25
27.25,0.42,3.75,3.24
27.26,0.35,3.71,3.17
27.26,0.21,3.66,3.08
27.26,0.04,3.55,3.02
27.26,-0.08,3.52,2.90
27.27,-0.34,3.47,2.84
27.27,-0.49,3.38,2.79
27.27,-0.71,3.35,2.79
27.27,-0.91,3.30,2.74
27.28,-1.05,3.28,2.75
27.28,-1.20,3.30,2.79
27.28,-1.23,3.27,2.86
27.28,-1.19,3.31,2.96
27.29,-1.12,3.34,3.18
27.29,-1.07,3.40,3.27
27.29,-0.97,3.48,3.37
27.29,-0.87,3.53,3.50
27.30,-0.64,3.62,3.46
27.30,-0.47,3.71,3.56
27.30,-0.24,3.85,3.56
27.30,-0.07,4.05,3.49
27.31,0.12,4.30,3.52
27.31,0.24,4.61,3.51
27.31,0.40,5.01,3.45
27.31,0.47,5.46,3.46
27.32,0.51,5.86,3.35
27.32,0.49,6.30,3.27
27.32,0.41,6.70,3.16
27.32,0.39,7.11,3.07
27.33,0.36,7.48,3.03
27.33,0.30,7.88,2.92
27.33,0.32,8.18,2.81
27.33,0.28,8.42,2.66
27.34,0.24,8.57,2.45
27.34,0.21,8.67,2.21
27.34,0.14,8.72,1.96
27.34,0.00,8.65,1.68
27.35,-0.10,8.53,1.33
27.35,-0.20,8.31,0.99
27.35,-0.36,8.09,0.68
27.35,-0.52,7.79,0.30
27.36,-0.76,7.36,0.10
27.36,-0.90,7.01,-0.03
27.36,-1.12,6.54,-0.25
27.36,-1.42,6.02,-0.46
27.37,-1.72,5.52,-0.54
27.37,-1.99,5.06,-0.64
27.37,-2.46,4.62,-0.79
27.37,-2.85,4.19,-0.93
27.38,-3.10,3.76,-1.08
27.38,-3.42,3.33,-1.32
27.38,-3.86,3.02,-1.61
27.38,-4.25,2.73,-2.04
27.39,-4.59,2.38,-2.51
27.39,-4.86,2.14,-3.03
27.39,-5.10,1.90,-3.57
27.39,-5.35,1.77,-4.09
27.40,-5.68,1.75,-4.62
27.40,-6.08,1.86,-5.06
27.40,-6.66,2.09,-5.40
27.40,-7.14,2.45,-5.58
27.41,-7.50,2.99,-5.54
27.41,-7.56,3.72,-5.30
27.41,-7.10,4.55,-4.80
27.41,-6.47,5.65,-4.21
27.42,-6.02,6.86,-3.71
27.42,-5.94,8.40,-3.22
27.42,-6.15,10.16,-2.60
27.42,-6.35,12.09,-2.05
27.43,-6.57,14.13,-1.57
27.43,-6.61,16.18,-1.02
27.43,-6.26,18.48,-0.41
27.43,-5.72,21.03,0.39
27.44,-4.98,23.67,1.11
27.44,-3.72,26.54,1.54
27.44,-2.48,29.49,1.40
27.44,-1.20,32.42,1.02
27.45,0.08,35.08,0.71
27.45,1.05,37.35,0.32
27.45,1.65,39.11,-0.35
27.45,2.12,40.36,-0.96
27.46,2.19,40.79,-1.29
27.46,1.82,40.26,-1.34
27.46,1.51,38.44,-0.65
27.46,1.83,35.31,0.19
27.47,2.45,31.64,0.82
27.47,2.65,28.30,1.56
27.47,2.31,25.46,2.11
27.47,1.63,23.07,2.53
27.48,0.56,20.98,2.69
27.48,-0.63,19.15,2.67
27.48,-1.92,17.59,2.64
27.48,-3.20,16.24,2.64
27.49,-4.33,15.02,2.73
27.49,-5.24,13.89,2.56
27.49,-5.86,12.83,2.58
27.49,-6.36,11.77,2.77
27.50,-6.71,11.01,3.14
27.50,-6.87,10.45,3.66
27.50,-6.72,9.98,4.11
27.50,-6.36,9.78,4.57
27.51,-5.73,9.69,4.98
27.51,-5.00,9.61,5.48
27.51,-4.14,9.44,6.15
27.51,-3.14,9.39,6.78
27.52,-2.29,9.27,7.17
27.52,-1.65,9.34,6.88
27.52,-1.05,9.42,6.57
27.52,-0.41,9.41,6.95
27.53,0.02,9.43,7.41
27.53,0.58,9.48,7.96
27.53,1.08,9.54,8.50
27.53,1.31,9.67,8.79
27.54,1.17,10.05,8.91
27.54,0.65,10.70,8.82
27.54,-0.08,11.42,8.51
27.54,-0.71,12.06,8.15
27.55,-0.90,12.64,7.68
27.55,-0.60,13.15,7.13
27.55,-0.15,13.48,6.69
27.55,0.28,13.75,6.06
27.56,0.65,13.99,5.39
27.56,1.04,14.19,4.43
27.56,1.36,14.23,3.39
27.56,1.59,14.23,2.17
27.57,1.52,14.34,1.35
27.57,0.96,14.10,1.59
27.57,0.86,13.97,0.82
27.57,0.97,13.96,0.20
27.58,0.99,13.82,-0.07
27.58,1.09,13.53,-0.47
27.58,1.14,13.20,-0.95
27.58,1.07,13.14,-0.93
27.59,0.81,13.05,-0.89
27.59,0.32,12.98,-0.84
27.59,-0.15,12.79,-0.74
27.59,-0.55,12.47,-0.75
27.60,-0.73,12.20,-0.38
27.60,-0.85,11.85,0.00
27.60,-0.91,11.58,0.38
27.60,-0.88,11.23,0.65
27.61,-0.90,10.87,1.04
27.61,-1.25,10.52,1.35
27.61,-1.42,10.26,1.69
27.61,-1.27,9.91,2.20
27.62,-1.08,9.47,2.67
27.62,-0.99,9.15,3.02
27.62,-0.98,8.83,3.28
27.62,-0.89,8.45,3.59
27.63,-0.87,8.11,3.84
27.63,-0.82,7.75,4.10
27.63,-0.79,7.43,4.30
27.63,-0.81,7.14,4.53
27.64,-0.85,6.90,4.77
27.64,-0.82,6.68,4.91
27.64,-0.81,6.46,5.04
27.64,-0.76,6.19,5.16
27.65,-0.75,6.00,5.10
27.65,-0.68,5.80,5.03
27.65,-0.62,5.59,4.99
27.65,-0.50,5.39,4.92
27.66,-0.35,5.13,4.87
27.66,-0.17,4.85,4.79
27.66,-0.01,4.73,4.66
27.66,0.01,4.71,4.51
27.67,-0.02,4.72,4.36
27.67,0.09,4.72,4.16
27.67,0.11,4.74,3.89
27.67,0.19,4.77,3.60
27.68,0.33,4.83,3.41
27.68,0.46,4.83,3.15
27.68,0.57,4.82,3.00
27.68,0.77,4.80,2.81
27.69,0.93,4.78,2.56
27.69,1.07,4.74,2.34
27.69,1.18,4.63,2.13
27.69,1.31,4.47,1.99
27.70,1.32,4.29,1.78
27.70,1.30,4.11,1.55
27.70,1.27,3.90,1.39
27.70,1.28,3.69,1.24
27.71,1.30,3.50,1.18
27.71,1.35,3.29,1.16
27.71,1.42,3.08,1.20
27.71,1.51,2.88,1.22
27.72,1.58,2.73,1.21
27.72,1.64,2.52,1.31
27.72,1.68,2.33,1.39
27.72,1.71,2.20,1.50
27.73,1.74,2.10,1.61
27.73,1.73,1.85,1.72
27.73,1.76,1.71,1.85
27.73,1.71,1.63,2.00
27.74,1.73,1.49,2.19
27.74,1.69,1.41,2.38
27.74,1.57,1.35,2.52
27.74,1.55,1.23,2.72
27.75,1.44,1.22,2.84
27.75,1.40,1.22,3.00
27.75,1.33,1.21,3.10
27.75,1.22,1.27,3.21
27.76,1.08,1.38,3.33
27.76,1.01,1.49,3.44
27.76,0.94,1.61,3.54
27.76,0.86,1.79,3.63
27.77,0.83,1.97,3.70
27.77,0.82,2.14,3.71
27.77,0.69,2.33,3.77
27.77,0.66,2.51,3.90
27.78,0.70,2.65,3.93
27.78,0.66,2.82,4.03
27.78,0.70,2.90,4.01
27.78,0.63,3.03,4.06
27.79,0.60,3.15,4.12
27.79,0.61,3.30,4.07
27.79,0.63,3.46,4.11
27.79,0.67,3.57,4.06
27.80,0.66,3.67,4.13
27.80,0.71,3.83,4.13
27.80,0.71,4.01,4.09
27.80,0.74,4.22,4.07
27.81,0.79,4.38,4.03
27.81,0.86,4.58,4.03
27.81,0.96,4.78,4.01
27.81,1.02,5.03,3.99
27.82,1.07,5.21,3.92
27.82,1.18,5.45,3.89
27.82,1.30,5.67,3.88
27.82,1.38,5.92,3.82
27.83,1.42,6.13,3.80
27.83,1.60,6.38,3.83
27.83,1.71,6.59,3.78
27.83,1.79,6.76,3.78
27.84,1.81,6.91,3.74
27.84,1.86,7.10,3.75
27.84,1.94,7.26,3.72
27.84,2.07,7.47,3.73
27.85,2.12,7.61,3.65
27.85,2.10,7.73,3.56
27.85,2.14,7.91,3.49
27.85,2.20,8.08,3.27
27.86,2.28,8.29,3.15
27.86,2.39,8.47,3.05
27.86,2.40,8.65,2.94
27.86,2.47,8.78,2.81
27.87,2.50,8.93,2.68
27.87,2.50,9.04,2.58
27.87,2.51,9.22,2.43
27.87,2.48,9.38,2.27
27.88,2.49,9.45,2.16
27.88,2.55,9.51,2.06
27.88,2.55,9.56,2.01
27.88,2.55,9.60,2.00
27.89,2.50,9.51,2.05
27.89,2.44,9.40,2.04
27.89,2.31,9.28,2.07
27.89,2.16,9.11,2.05
27.90,1.92,8.92,2.03
27.90,1.68,8.68,1.95
27.90,1.40,8.41,1.97
27.90,1.19,8.21,1.98
27.91,1.06,7.94,2.01
27.91,0.95,7.64,2.01
27.91,0.79,7.39,2.06
27.91,0.68,7.11,2.14
27.92,0.51,6.95,2.22
27.92,0.34,6.74,2.24
27.92,0.21,6.54,2.33
27.92,0.00,6.38,2.36
27.93,-0.16,6.24,2.40
27.93,-0.35,6.20,2.53
27.93,-0.50,6.15,2.56
27.93,-0.63,6.13,2.61
27.94,-0.82,6.11,2.64
27.94,-0.99,6.14,2.65
27.94,-1.13,6.12,2.84
27.94,-1.18,6.13,2.89
27.95,-1.38,6.18,2.96
27.95,-1.53,6.24,2.97
27.95,-1.59,6.28,2.97
27.95,-1.67,6.35,2.93
27.96,-1.71,6.38,2.92
27.96,-1.74,6.47,2.85
27.96,-1.70,6.55,2.75
27.96,-1.69,6.62,2.65
27.97,-1.68,6.74,2.54
27.97,-1.59,6.81,2.42
27.97,-1.53,6.77,2.40
27.97,-1.53,6.81,2.30
27.98,-1.50,6.84,2.22
27.98,-1.55,6.98,1.77
27.98,-1.72,7.18,0.99
27.98,-1.86,7.34,-0.13
27.99,-2.03,7.51,-1.19
27.99,-2.22,7.68,-2.00
27.99,-2.53,7.91,-2.66
27.99,-2.93,8.29,-3.31
28.00,-3.40,8.66,-3.91
28.00,-3.90,9.23,-4.25
28.00,-4.31,9.91,-4.36
28.00,-4.59,10.66,-4.16
28.01,-4.82,11.47,-3.89
28.01,-5.14,12.42,-3.77
28.01,-5.51,13.50,-3.83
28.01,-5.95,14.84,-4.05
28.02,-6.31,16.16,-4.14
28.02,-6.69,17.48,-3.60
28.02,-7.08,18.83,-2.36
28.02,-7.44,20.14,-0.81
28.03,-7.82,21.60,0.65
28.03,-8.48,23.31,1.99
28.03,-9.36,25.04,2.96
28.03,-10.41,26.78,3.55
28.04,-11.50,28.35,3.93
28.04,-12.64,29.57,4.42
28.04,-13.85,30.46,5.09
28.04,-15.16,30.45,5.27
28.05,-16.18,29.31,5.03
28.05,-16.92,27.01,5.00
28.05,-16.53,23.95,5.37
28.05,-15.45,20.51,5.10
28.06,-14.23,17.44,4.65
28.06,-12.83,14.82,4.50
28.06,-11.50,12.71,4.28
28.06,-10.24,11.14,3.93
28.07,-8.77,9.99,4.03
28.07,-7.25,9.50,4.25
28.07,-5.94,9.30,4.89
28.07,-3.69,9.29,6.02
28.08,-1.13,9.37,7.45
28.08,1.13,9.59,9.06
28.08,3.11,9.85,10.33
28.08,4.72,10.20,10.83
28.09,5.92,10.51,10.65
28.09,6.85,10.67,9.94
28.09,7.57,10.90,8.99
28.09,8.06,11.28,7.86
28.10,8.08,11.72,6.77
28.10,7.71,12.21,5.59
28.10,6.75,12.83,4.31
28.10,5.49,13.47,3.27
28.11,4.25,13.95,2.63
28.11,3.17,14.37,2.30
28.11,2.18,14.75,2.33
28.11,1.35,15.04,2.68
28.12,0.69,15.27,3.13
28.12,0.04,15.55,3.55
28.12,-0.57,15.83,3.98
28.12,-1.03,15.99,4.45
28.13,-1.31,16.13,4.89
28.13,-1.64,16.30,5.29
28.13,-2.26,16.23,5.22
28.13,-3.08,15.97,4.83
28.14,-3.86,15.65,4.19
28.14,-4.65,15.30,3.56
28.14,-5.21,14.93,2.96
28.14,-5.43,14.60,2.48
28.15,-5.43,14.25,2.15
28.15,-5.23,13.98,1.97
28.15,-4.82,13.76,1.79
28.15,-4.28,13.55,1.68
28.16,-3.78,13.47,1.68
28.16,-3.43,13.36,1.70
28.16,-3.07,13.42,1.70
28.16,-2.83,13.44,1.68
28.17,-2.55,13.42,1.73
28.17,-2.10,13.33,1.80
28.17,-1.70,13.23,2.07
28.17,-1.55,13.17,2.50
28.18,-1.39,12.95,2.84
28.18,-0.96,12.65,2.95
28.18,-0.66,12.22,3.16
28.18,-0.40,11.73,3.56
28.19,-0.05,11.24,4.08
28.19,0.24,10.57,4.54
28.19,0.54,9.75,4.72
28.19,0.60,9.22,4.83
28.20,0.65,8.75,4.90
28.20,0.63,8.28,4.80
28.20,0.50,7.75,4.81
28.20,0.30,7.21,4.77
28.21,0.08,6.72,4.86
28.21,-0.23,6.33,5.14
28.21,-0.61,5.99,5.23
28.21,-1.03,5.66,5.17
28.22,-1.61,5.45,5.07
28.22,-2.00,5.20,4.74
28.22,-2.37,4.96,4.38
28.22,-2.80,4.77,3.99
28.23,-3.05,4.62,3.64
28.23,-3.24,4.51,3.32
28.23,-3.33,4.36,3.00
28.23,-3.40,4.28,2.81
28.24,-3.50,4.21,2.43
28.24,-3.55,4.22,2.03
28.24,-3.59,4.22,1.67
28.24,-3.64,4.26,1.31
28.25,-3.64,4.33,1.05
28.25,-3.63,4.50,0.78
28.25,-3.71,4.64,0.55
28.25,-3.70,4.82,0.37
28.26,-3.62,4.96,0.17
28.26,-3.49,5.12,0.07
28.26,-3.37,5.26,0.00
28.26,-3.15,5.40,0.03
28.27,-2.94,5.54,0.09
28.27,-2.64,5.64,0.21
28.27,-2.31,5.70,0.30
28.27,-1.91,5.71,0.42
28.28,-1.49,5.70,0.64
28.28,-1.09,5.70,0.85
28.28,-0.68,5.70,1.14
28.28,-0.35,5.64,1.44
28.29,-0.01,5.57,1.72
28.29,0.30,5.50,1.95
28.29,0.57,5.39,2.28
28.29,0.80,5.36,2.55
28.30,1.01,5.34,2.67
28.30,1.25,5.24,2.81
28.30,1.42,5.14,2.96
28.30,1.64,5.01,3.05
28.31,1.85,4.83,3.11
28.31,1.97,4.73,3.10
28.31,2.07,4.57,3.08
28.31,2.12,4.41,3.04
28.32,2.09,4.29,2.91
28.32,2.06,4.22,2.72
28.32,1.93,4.13,2.61
28.32,1.81,4.03,2.49
28.33,1.71,4.00,2.33
28.33,1.52,3.91,2.17
28.33,1.41,3.88,2.08
28.33,1.31,3.90,2.01
28.34,1.20,3.94,1.98
28.34,1.09,4.01,1.96
28.34,0.98,4.09,2.01
28.34,0.92,4.17,1.98
28.35,0.86,4.28,2.01
28.35,0.84,4.38,2.12
28.35,0.87,4.54,2.19
28.35,0.83,4.61,2.21
28.36,0.86,4.65,2.28
28.36,0.88,4.73,2.31
28.36,0.95,4.83,2.43
28.36,0.99,4.83,2.47
28.37,1.06,4.86,2.51
28.37,1.14,4.89,2.63
28.37,1.18,4.84,2.73
28.37,1.30,4.80,2.77
28.38,1.34,4.75,2.93
28.38,1.34,4.73,2.99
28.38,1.31,4.66,3.07
28.38,1.30,4.62,3.13
28.39,1.23,4.59,3.21
28.39,1.09,4.56,3.32
28.39,0.99,4.56,3.39
28.39,0.85,4.62,3.51
28.40,0.68,4.62,3.60
28.40,0.53,4.68,3.65
28.40,0.40,4.73,3.65
28.40,0.26,4.81,3.71
28.41,0.16,4.85,3.70
28.41,0.01,4.93,3.66
28.41,-0.09,5.08,3.59
28.41,-0.20,5.22,3.53
28.42,-0.32,5.31,3.46
28.42,-0.40,5.43,3.43
28.42,-0.40,5.52,3.33
28.42,-0.40,5.67,3.33
28.43,-0.46,5.87,3.25
28.43,-0.42,6.05,3.21
28.43,-0.38,6.22,3.27
28.43,-0.31,6.38,3.28
28.44,-0.22,6.57,3.33
28.44,-0.17,6.72,3.36
28.44,-0.03,6.84,3.36
28.44,0.09,7.00,3.38
28.45,0.18,7.03,3.44
28.45,0.29,7.09,3.43
28.45,0.35,7.17,3.40
28.45,0.31,7.23,3.37
28.46,0.26,7.27,3.32
28.46,0.17,7.25,3.23
28.46,0.14,7.19,3.14
28.46,-0.02,7.16,3.12
28.47,-0.22,7.20,3.06
28.47,-0.38,7.20,3.11
28.47,-0.60,7.16,3.12
28.47,-0.98,7.21,3.16
28.48,-1.23,7.25,3.05
28.48,-1.38,7.27,2.94
28.48,-1.49,7.25,2.71
28.48,-1.48,7.26,2.60
28.49,-1.62,7.21,2.60
28.49,-1.77,7.12,2.62
28.49,-1.93,7.07,2.58
28.49,-1.89,7.05,2.61
28.50,-1.83,7.03,2.56
28.50,-1.76,7.01,2.56
28.50,-1.74,7.00,2.61
28.50,-1.63,7.03,2.63
28.51,-1.59,7.03,2.65
28.51,-1.47,7.06,2.82
28.51,-1.43,7.16,2.90
28.51,-1.50,7.22,3.01
28.52,-1.61,7.27,3.11
28.52,-1.75,7.32,3.14
28.52,-1.91,7.29,3.18
28.52,-2.20,7.29,3.15
28.53,-2.55,7.14,3.17
28.53,-2.82,7.13,3.30
28.53,-3.07,7.19,3.50
28.53,-3.31,7.29,3.57
28.54,-3.61,7.40,3.48
28.54,-3.75,7.52,3.42
28.54,-3.85,7.71,3.28
28.54,-3.91,7.95,3.02
28.55,-3.98,8.27,2.75
28.55,-4.11,8.72,2.44
28.55,-4.29,9.20,2.13
28.55,-4.48,9.70,1.76
28.56,-4.53,10.32,1.32
28.56,-4.70,11.00,1.08
28.56,-4.90,11.54,0.89
28.56,-5.14,12.11,0.75
28.57,-5.18,12.81,0.72
28.57,-5.10,13.59,0.68
28.57,-5.10,14.27,0.77
28.57,-5.10,15.00,0.86
28.58,-5.09,15.73,1.11
28.58,-5.11,16.46,1.31
28.58,-5.05,17.31,1.32
28.58,-4.89,18.05,1.18
28.59,-4.75,18.68,1.16
28.59,-4.62,19.17,1.19
28.59,-4.57,19.56,1.30
28.59,-4.60,19.89,1.42
28.60,-4.59,20.03,1.60
28.60,-4.57,19.99,1.84
28.60,-4.42,19.88,2.25
28.60,-4.11,19.59,2.69
28.61,-3.68,19.21,2.98
28.61,-3.28,18.85,3.04
28.61,-2.87,18.56,2.90
28.61,-2.60,18.49,3.32
28.62,-2.34,18.43,3.87
28.62,-2.12,18.55,3.82
28.62,-1.78,18.77,3.62
28.62,-1.37,19.02,3.36
28.63,-1.04,19.43,3.21
28.63,-0.82,19.87,3.14
28.63,-0.54,20.37,3.09
28.63,-0.28,20.94,3.07
28.64,-0.03,21.41,3.14
28.64,0.25,21.74,3.28
28.64,0.56,21.91,3.35
28.64,0.88,21.76,3.33
28.65,1.20,21.38,3.26
28.65,1.54,20.73,3.12
28.65,1.60,19.93,3.08
28.65,1.33,19.02,3.27
28.66,0.67,18.13,3.54
28.66,0.07,17.31,3.74
28.66,-0.31,16.53,3.83
28.66,-0.58,15.84,3.85
28.67,-0.89,15.24,3.80
28.67,-1.18,14.63,3.75
28.67,-1.40,14.04,3.74
28.67,-1.63,13.48,3.78
28.68,-1.84,12.94,3.84
28.68,-2.04,12.42,3.90
28.68,-2.23,11.95,4.03
28.68,-2.40,11.55,4.09
28.69,-2.52,11.11,4.13
28.69,-2.68,10.76,4.09
28.69,-2.80,10.37,4.13
28.69,-2.84,10.05,4.10
28.70,-2.89,9.72,4.06
28.70,-2.95,9.36,3.96
28.70,-2.91,9.16,3.91
28.70,-2.72,8.96,3.79
28.71,-2.43,8.80,3.70
28.71,-2.06,8.62,3.59
28.71,-1.54,8.56,3.46
28.71,-1.12,8.58,3.27
28.72,-0.71,8.56,3.00
28.72,-0.31,8.49,2.85
28.72,0.00,8.49,2.64
28.72,0.35,8.43,2.43
28.73,0.58,8.40,2.28
28.73,0.72,8.36,2.19
28.73,0.83,8.29,2.03
28.73,0.89,8.27,1.87
28.74,0.92,8.24,1.80
28.74,0.93,8.19,1.74
28.74,0.89,8.17,1.70
28.74,0.80,8.16,1.71
28.75,0.70,8.09,1.64
28.75,0.67,8.04,1.62
28.75,0.59,7.98,1.61
28.75,0.59,7.83,1.65
28.76,0.52,7.67,1.64
28.76,0.47,7.54,1.66
28.76,0.37,7.42,1.72
28.76,0.35,7.21,1.72
28.77,0.30,7.04,1.76
28.77,0.25,6.90,1.76
28.77,0.21,6.70,1.78
28.77,0.21,6.57,1.82
28.78,0.17,6.42,1.88
28.78,0.14,6.18,1.93
28.78,0.13,5.97,1.98
28.78,0.10,5.81,1.99
28.79,0.06,5.69,1.99
28.79,0.01,5.48,2.03
28.79,-0.06,5.30,2.02
28.79,-0.08,5.10,2.00
28.80,-0.09,4.95,2.10
28.80,-0.13,4.78,2.16
28.80,-0.15,4.58,2.20
28.80,-0.12,4.43,2.20
28.81,-0.14,4.27,2.16
28.81,-0.18,4.11,2.17
28.81,-0.23,3.96,2.16
28.81,-0.26,3.87,2.18
28.82,-0.27,3.77,2.17
28.82,-0.27,3.72,2.27
28.82,-0.23,3.61,2.25
28.82,-0.24,3.54,2.25
28.83,-0.19,3.46,2.30
28.83,-0.18,3.40,2.32
28.83,-0.12,3.32,2.31
28.83,-0.05,3.25,2.26
28.84,-0.01,3.19,2.20
28.84,0.06,3.12,2.15
28.84,0.03,3.03,2.10
28.84,0.03,2.97,2.05
28.85,0.03,2.86,1.98
28.85,0.08,2.82,1.82
28.85,0.03,2.75,1.73
28.85,-0.10,2.71,1.59
28.86,-0.07,2.69,1.57
28.86,-0.10,2.61,1.54
28.86,-0.10,2.52,1.36
28.86,-0.15,2.42,1.40
28.87,-0.19,2.33,1.43
28.87,-0.24,2.23,1.57
28.87,-0.30,2.16,1.60
28.87,-0.40,2.06,1.58
28.88,-0.49,2.00,1.65
28.88,-0.51,1.90,1.64
28.88,-0.59,1.82,1.68
28.88,-0.60,1.75,1.76
28.89,-0.56,1.72,1.79
28.89,-0.50,1.65,1.83
28.89,-0.38,1.54,1.75
28.89,-0.40,1.50,1.73
28.90,-0.28,1.50,1.70
28.90,-0.19,1.44,1.58
28.90,-0.11,1.43,1.29
28.90,0.06,1.49,1.10
28.91,0.13,1.64,0.89
28.91,0.17,1.76,0.67
28.91,0.30,1.96,0.52
28.91,0.41,2.21,0.33
28.92,0.50,2.41,0.01
28.92,0.60,2.67,-0.29
28.92,0.71,2.93,-0.55
28.92,0.81,3.27,-0.76
28.93,0.91,3.60,-0.97
28.93,0.95,3.92,-0.93
28.93,1.06,4.35,-1.02
28.93,0.93,4.66,-0.84
28.94,0.69,4.74,-0.91
28.94,0.97,4.89,-1.02
28.94,1.29,5.01,-0.78
28.94,1.70,5.16,-0.67
28.95,2.20,5.24,-0.66
28.95,2.47,5.39,-0.60
28.95,2.68,5.60,-0.50
28.95,2.78,5.72,-0.38
28.96,2.68,5.91,-0.06
28.96,2.55,6.08,0.26
28.96,2.36,6.17,0.48
28.96,2.08,6.34,0.69
28.97,1.66,6.52,0.75
28.97,1.22,6.80,0.90
28.97,0.80,7.03,1.00
28.97,0.36,7.25,1.04
28.98,0.03,7.52,0.99
28.98,-0.30,7.82,1.08
28.98,-0.54,8.04,1.26
28.98,-0.76,8.29,1.37
28.99,-0.90,8.45,1.61
28.99,-0.93,8.68,1.96
28.99,-0.95,8.82,2.21
28.99,-1.03,8.96,2.43
29.00,-1.10,9.05,2.53
29.00,-1.09,9.13,2.72
29.00,-1.06,9.17,2.95
29.00,-1.07,9.22,3.17
29.01,-0.99,9.27,3.33
29.01,-0.97,9.29,3.52
29.01,-1.00,9.34,3.75
29.01,-0.99,9.38,3.99
29.02,-1.07,9.35,4.13
29.02,-1.08,9.43,4.27
29.02,-1.01,9.40,4.38
29.02,-0.83,9.46,4.32
29.03,-0.64,9.56,4.13
29.03,-0.51,9.78,3.93
29.03,-0.48,10.12,3.67
29.03,-0.39,10.54,3.31
29.04,-0.36,11.02,3.03
29.04,-0.31,11.62,2.75
29.04,-0.29,12.32,2.49
29.04,-0.26,13.05,2.27
29.05,-0.19,13.86,2.05
29.05,-0.18,14.72,1.70
29.05,-0.14,15.60,1.53
29.05,0.25,16.49,1.69
29.06,0.54,17.33,1.42
29.06,0.71,18.26,1.01
29.06,0.83,19.16,0.58
29.06,0.81,19.96,0.09
29.07,0.71,20.66,-0.58
29.07,0.39,21.39,-1.29
29.07,0.00,21.82,-2.06
29.07,-0.49,22.08,-2.75
29.08,-1.17,22.06,-3.11
29.08,-1.88,21.56,-3.44
29.08,-2.83,20.70,-3.52
29.08,-3.62,19.67,-3.21
29.09,-4.16,18.61,-2.48
29.09,-4.53,17.53,-1.30
29.09,-4.83,16.53,-0.03
29.09,-5.05,15.57,1.09
29.10,-5.24,14.83,2.12
29.10,-5.51,14.20,2.94
29.10,-5.90,13.82,3.51
29.10,-6.36,13.80,3.96
29.11,-6.99,14.07,4.44
29.11,-7.75,14.62,4.99
29.11,-8.13,15.47,5.39
29.11,-7.88,16.53,5.64
29.12,-7.36,17.49,5.84
29.12,-6.72,18.24,6.06
29.12,-5.98,18.64,6.37
29.12,-5.05,18.85,6.70
29.13,-4.02,18.79,7.05
29.13,-2.85,18.43,7.12
29.13,-1.60,17.82,6.97
29.13,-0.29,17.14,6.86
29.14,0.89,16.45,6.60
29.14,2.00,15.65,6.54
29.14,3.01,14.84,6.49
29.14,3.78,14.10,6.51
29.15,4.37,13.36,6.74
29.15,4.78,12.62,6.89
29.15,5.00,11.97,6.84
29.15,4.95,11.43,6.78
29.16,4.64,10.95,6.57
29.16,4.17,10.48,6.24
29.16,3.42,10.19,5.79
29.16,2.44,10.00,5.10
29.17,1.36,9.93,4.39
29.17,0.27,9.84,3.73
29.17,-0.79,9.82,3.15
29.17,-1.83,9.81,2.58
29.18,-2.76,9.74,2.08
29.18,-3.64,9.67,1.64
29.18,-4.30,9.62,1.36
29.18,-4.78,9.63,1.27
29.19,-5.15,9.69,1.29
29.19,-5.34,9.82,1.41
29.19,-5.48,9.87,1.54
29.19,-5.65,10.00,1.55
29.20,-5.73,10.13,1.45
29.20,-5.79,10.27,1.41
29.20,-5.84,10.34,1.32
29.20,-5.92,10.39,1.06
29.21,-5.91,10.48,1.03
29.21,-5.84,10.59,1.10
29.21,-5.79,10.75,1.05
29.21,-5.71,10.88,0.99
29.22,-5.62,11.00,0.93
29.22,-5.49,11.17,0.81
29.22,-5.29,11.25,0.76
29.22,-5.08,11.36,0.65
29.23,-4.87,11.48,0.57
29.23,-4.63,11.47,0.56
29.23,-4.29,11.39,0.68
29.23,-3.92,11.22,0.96
29.24,-3.57,11.05,1.31
29.24,-3.31,10.89,1.72
29.24,-3.07,10.70,2.16
29.24,-2.91,10.50,2.63
29.25,-2.78,10.28,3.12
29.25,-2.62,10.06,3.62
29.25,-2.45,9.80,3.99
29.25,-2.25,9.56,4.23
29.26,-2.05,9.22,4.31
29.26,-1.86,8.84,4.29
29.26,-1.71,8.52,4.17
29.26,-1.50,8.18,4.08
29.27,-1.33,7.97,3.84
29.27,-1.18,7.66,3.63
29.27,-1.00,7.40,3.40
29.27,-0.81,7.15,3.27
29.28,-0.68,6.93,3.16
29.28,-0.54,6.68,3.03
29.28,-0.42,6.49,2.93
29.28,-0.36,6.26,2.89
29.29,-0.32,6.05,2.86
29.29,-0.32,5.92,2.94
29.29,-0.29,5.74,2.86
29.29,-0.28,5.58,2.87
29.30,-0.30,5.48,2.85
29.30,-0.32,5.36,2.88
29.30,-0.36,5.24,2.78
29.30,-0.38,5.16,2.64
29.31,-0.46,5.05,2.63
29.31,-0.52,5.02,2.51
29.31,-0.56,4.93,2.35
29.31,-0.60,4.91,2.27
29.32,-0.69,4.89,2.18
29.32,-0.76,4.86,2.00
29.32,-0.82,4.83,1.90
29.32,-0.79,4.79,1.85
29.33,-0.85,4.77,1.75
29.33,-0.81,4.81,1.67
29.33,-0.82,4.84,1.57
29.33,-0.83,4.78,1.48
29.34,-0.77,4.83,1.47
29.34,-0.69,4.90,1.45
29.34,-0.62,4.87,1.39
29.34,-0.56,4.90,1.37
29.35,-0.42,4.92,1.38
29.35,-0.31,4.92,1.38
29.35,-0.21,4.91,1.34
29.35,-0.08,4.92,1.32
29.36,0.06,4.86,1.29
29.36,0.19,4.82,1.32
29.36,0.32,4.81,1.33
29.36,0.50,4.74,1.40
29.37,0.66,4.69,1.48
29.37,0.76,4.59,1.52
29.37,0.85,4.61,1.65
29.37,1.01,4.62,1.70
29.38,1.10,4.58,1.81
29.38,1.22,4.57,1.93
29.38,1.28,4.63,2.02
29.38,1.33,4.69,2.15
29.39,1.36,4.74,2.27
29.39,1.37,4.84,2.39
29.39,1.33,4.90,2.48
29.39,1.28,5.06,2.56
29.40,1.19,5.16,2.59
29.40,1.17,5.26,2.62
29.40,1.19,5.30,2.69
29.40,1.17,5.35,2.75
29.41,1.13,5.38,2.76
29.41,1.15,5.42,2.86
29.41,1.11,5.46,2.89
29.41,1.08,5.46,2.96
29.42,0.99,5.47,2.97
29.42,0.87,5.47,2.92
29.42,0.79,5.43,2.90
29.42,0.65,5.41,2.89
29.43,0.54,5.33,2.85
29.43,0.40,5.25,2.86
29.43,0.27,5.13,2.81
29.43,0.08,5.03,2.72
29.44,-0.10,4.89,2.66
29.44,-0.27,4.77,2.72
29.44,-0.42,4.64,2.72
29.44,-0.61,4.46,2.77
29.45,-0.81,4.30,2.80
29.45,-0.99,4.23,2.85
29.45,-1.25,4.13,2.88
29.45,-1.42,4.05,2.88
29.46,-1.58,4.03,2.91
29.46,-1.79,4.00,2.99
29.46,-2.02,4.06,3.00
29.46,-2.20,4.20,3.00
29.47,-2.34,4.32,3.09
29.47,-2.47,4.52,3.13
29.47,-2.56,4.79,3.20
29.47,-2.56,5.12,3.23
29.48,-2.48,5.48,3.25
29.48,-2.46,5.87,3.29
29.48,-2.46,6.30,3.27
29.48,-2.46,6.70,3.22
29.49,-2.51,7.12,3.26
29.49,-2.51,7.50,3.19
29.49,-2.46,7.81,3.14
29.49,-2.44,8.10,3.10
29.50,-2.39,8.33,3.09
29.50,-2.32,8.53,3.01
29.50,-2.20,8.61,2.99
29.50,-2.02,8.70,2.94
29.51,-1.86,8.63,2.88
29.51,-1.72,8.50,2.81
29.51,-1.51,8.33,2.71
29.51,-1.35,8.09,2.66
29.52,-1.23,7.90,2.58
29.52,-1.24,7.65,2.56
29.52,-1.33,7.48,2.44
29.52,-1.49,7.30,2.32
29.53,-1.73,7.13,2.25
29.53,-1.86,6.93,2.32
29.53,-2.00,6.76,2.30
29.53,-2.19,6.53,2.22
29.54,-2.33,6.34,2.20
29.54,-2.52,6.15,2.19
29.54,-2.74,5.91,2.11
29.54,-2.94,5.68,2.01
29.55,-3.12,5.48,1.79
29.55,-3.29,5.36,1.69
29.55,-3.32,5.18,1.54
29.55,-3.27,5.09,1.29
29.56,-3.21,5.01,0.92
29.56,-3.21,4.95,0.59
29.56,-3.03,4.97,0.19
29.56,-2.93,5.10,-0.29
29.57,-2.85,5.25,-0.65
29.57,-2.81,5.50,-0.89
29.57,-2.87,5.84,-1.02
29.57,-2.94,6.24,-0.95
29.58,-3.09,6.75,-0.73
29.58,-3.27,7.35,-0.32
29.58,-3.41,7.95,0.12
29.58,-3.55,8.58,0.60
29.59,-3.68,9.23,1.02
29.59,-3.92,9.86,1.45
29.59,-4.01,10.54,1.75
29.59,-4.15,11.27,2.11
29.60,-4.32,12.00,2.40
29.60,-4.53,12.76,2.66
29.60,-4.59,13.53,2.76
29.60,-4.45,14.36,2.84
29.61,-4.34,15.39,3.05
29.61,-4.32,16.45,3.16
29.61,-4.36,17.58,3.10
29.61,-4.27,18.60,2.83
29.62,-4.25,19.59,2.32
29.62,-4.31,20.50,1.97
29.62,-4.32,21.29,1.64
29.62,-4.39,21.98,1.30
29.63,-4.22,22.59,1.33
29.63,-4.09,23.04,1.68
29.63,-4.07,23.34,2.04
29.63,-3.93,23.52,2.62
29.64,-3.69,23.65,3.12
29.64,-3.51,23.75,3.55
29.64,-3.28,23.87,3.72
29.64,-2.97,24.06,3.84
29.65,-2.86,24.24,3.68
29.65,-2.82,24.38,3.36
29.65,-2.76,24.45,2.68
29.65,-2.45,24.37,2.13
29.66,-1.91,24.26,1.70
29.66,-1.17,23.90,1.46
29.66,-0.44,23.35,1.44
29.66,0.25,22.67,1.54
29.67,0.76,21.90,1.53
29.67,1.17,21.05,1.40
29.67,1.29,20.23,1.29
29.67,1.24,19.42,1.41
29.68,1.11,18.62,1.77
29.68,0.93,17.78,2.20
29.68,0.78,17.10,2.71
29.68,0.83,16.24,3.63
29.69,0.59,15.38,4.04
29.69,0.33,14.69,4.03
29.69,0.14,14.04,4.13
29.69,0.16,13.43,4.32
29.70,0.33,12.90,4.55
29.70,0.54,12.41,4.90
29.70,0.72,11.94,5.21
29.70,0.95,11.58,5.46
29.71,1.12,11.19,5.69
29.71,1.22,10.84,5.90
29.71,1.28,10.48,5.94
29.71,1.29,10.21,6.04
29.72,1.25,9.91,6.01
29.72,1.12,9.73,6.00
29.72,1.03,9.58,5.98
29.72,1.00,9.38,5.90
29.73,1.03,9.20,5.85
29.73,1.03,9.07,5.70
29.73,1.00,8.91,5.54
29.73,0.98,8.81,5.28
29.74,1.03,8.65,5.05
29.74,1.20,8.47,4.86
29.74,1.23,8.40,4.66
29.74,1.09,8.48,4.32
29.75,0.99,8.51,3.98
29.75,0.90,8.61,3.72
29.75,0.75,8.78,3.52
29.75,0.60,8.93,3.20
29.76,0.43,9.05,2.89
29.76,0.36,9.14,2.60
29.76,0.25,9.17,2.23
29.76,0.13,9.23,1.89
29.77,0.12,9.17,1.56
29.77,0.19,9.03,1.29
29.77,0.24,8.96,0.96
29.77,0.25,8.79,0.70
29.78,0.22,8.61,0.61
29.78,0.15,8.42,0.57
29.78,0.14,8.17,0.54
29.78,0.16,7.91,0.53
29.79,0.14,7.67,0.54
29.79,0.17,7.45,0.57
29.79,0.20,7.13,0.71
29.79,0.19,6.88,0.79
29.80,0.15,6.59,0.88
29.80,0.03,6.30,0.96
29.80,-0.08,6.05,1.03
29.80,-0.20,5.81,1.13
29.81,-0.23,5.55,1.18
29.81,-0.29,5.27,1.31
29.81,-0.37,5.07,1.37
29.81,-0.44,4.85,1.50
29.82,-0.44,4.59,1.60
29.82,-0.46,4.34,1.72
29.82,-0.48,4.17,1.84
29.82,-0.47,3.93,1.95
29.83,-0.48,3.75,2.11
29.83,-0.47,3.54,2.16
29.83,-0.44,3.36,2.22
29.83,-0.43,3.27,2.27
29.84,-0.41,3.12,2.31
29.84,-0.38,3.00,2.44
29.84,-0.36,2.91,2.44
29.84,-0.37,2.90,2.46
29.85,-0.35,2.91,2.41
29.85,-0.37,2.94,2.39
29.85,-0.39,2.98,2.39
29.85,-0.35,2.98,2.33
29.86,-0.38,3.06,2.24
29.86,-0.37,3.13,2.12
29.86,-0.33,3.16,1.95
29.86,-0.21,3.21,1.88
29.87,-0.15,3.27,1.87
29.87,-0.13,3.38,1.90
29.87,-0.12,3.48,1.97
29.87,-0.09,3.48,2.03
29.88,-0.04,3.50,2.11
29.88,-0.02,3.62,2.18
29.88,0.00,3.63,2.18
29.88,0.01,3.61,2.30
29.89,0.00,3.66,2.42
29.89,-0.02,3.69,2.42
29.89,0.03,3.65,2.52
29.89,-0.02,3.63,2.59
29.90,-0.06,3.63,2.70
29.90,-0.11,3.65,2.78
29.90,-0.09,3.63,2.93
29.90,-0.11,3.68,3.04
29.91,-0.18,3.69,3.04
29.91,-0.24,3.69,3.02
29.91,-0.30,3.72,3.04
29.91,-0.35,3.76,2.99
29.92,-0.42,3.84,2.90
29.92,-0.47,3.91,2.80
29.92,-0.57,3.94,2.68
29.92,-0.59,4.05,2.53
29.93,-0.60,4.17,2.44
29.93,-0.60,4.23,2.29
29.93,-0.54,4.36,2.05
29.93,-0.42,4.43,1.87
29.94,-0.32,4.56,1.74
29.94,-0.19,4.67,1.56
29.94,-0.04,4.73,1.47
29.94,0.07,4.77,1.36
29.95,0.18,4.88,1.23
29.95,0.31,5.02,1.18
29.95,0.42,5.06,1.07
29.95,0.55,5.06,0.99
29.96,0.60,5.19,0.94
29.96,0.72,5.27,0.91
29.96,0.85,5.31,0.81
29.96,0.98,5.42,0.68
29.97,1.06,5.59,0.61
29.97,1.18,5.66,0.60
29.97,1.35,5.81,0.52
29.97,1.47,5.99,0.52
29.98,1.55,6.19,0.44
29.98,1.65,6.41,0.44
29.98,1.66,6.62,0.48
29.98,1.69,6.85,0.50
29.99,1.71,6.90,0.56
29.99,1.81,6.97,0.66
29.99,1.88,6.92,0.80
29.99,1.99,6.78,0.95
30.00,2.02,6.59,1.19
30.00,1.98,6.45,1.57
30.00,1.89,6.36,1.88
30.00,1.75,6.27,2.21
30.01,1.62,6.21,2.56
30.01,1.56,6.23,3.00
30.01,1.49,6.31,3.38
30.01,1.49,6.39,3.72
30.02,1.52,6.54,4.02
30.02,1.62,6.69,4.32
30.02,1.65,6.80,4.65
30.02,1.71,6.97,4.87
30.03,1.78,7.14,5.03
30.03,1.75,7.26,5.12
30.03,1.77,7.39,5.14
30.03,1.82,7.54,5.16
30.04,1.79,7.68,5.21
30.04,1.79,7.77,5.29
30.04,1.81,7.86,5.37
30.04,1.93,7.93,5.52
30.05,2.04,7.95,5.74
30.05,2.16,8.02,6.09
30.05,2.30,8.07,6.28
30.05,2.39,8.26,6.21
30.06,2.34,8.78,5.52
30.06,2.25,9.47,4.34
30.06,2.06,10.10,2.91
30.06,1.99,10.63,1.59
30.07,1.93,11.20,0.46
30.07,1.64,11.88,-0.42
30.07,1.23,12.68,-1.08
30.07,0.74,13.62,-1.57
30.08,0.30,14.53,-2.00
30.08,-0.07,15.42,-2.24
30.08,-0.34,16.30,-2.63
30.08,-0.69,17.33,-3.26
30.09,-1.17,18.55,-4.17
30.09,-1.77,19.78,-5.03
30.09,-2.23,20.97,-5.73
30.09,-2.62,22.17,-6.11
30.10,-3.05,23.24,-5.49
30.10,-3.53,23.95,-3.95
30.10,-4.22,24.61,-2.42
30.10,-5.16,25.12,-0.99
30.11,-6.42,25.35,0.34
30.11,-7.87,25.23,1.25
30.11,-9.38,24.85,1.91
30.11,-10.78,24.13,2.34
30.12,-11.88,23.33,2.87
30.12,-12.76,22.57,3.15
30.12,-13.47,21.70,2.93
30.12,-13.90,20.72,2.52
30.13,-14.16,19.77,2.06
30.13,-14.26,18.94,1.63
30.13,-14.40,18.17,1.34
30.13,-14.23,17.32,0.84
30.14,-13.85,16.44,0.26
30.14,-13.21,15.45,-0.47
30.14,-12.49,14.51,-1.02
30.14,-11.61,13.57,-1.78
30.15,-10.53,12.72,-2.42
30.15,-9.17,11.91,-1.80
30.15,-7.35,11.25,-0.69
30.15,-5.77,10.72,0.15
30.16,-4.70,10.11,1.77
30.16,-3.64,9.80,3.84
30.16,-2.66,9.67,5.58
30.16,-1.69,9.66,6.94
30.17,-0.80,9.75,7.92
30.17,-0.17,9.83,8.77
30.17,0.45,9.84,9.42
30.17,1.20,9.89,9.56
30.18,1.85,9.97,9.45
30.18,2.06,10.04,9.21
30.18,1.61,10.22,8.14
30.18,0.56,10.62,6.54
30.19,-0.95,11.15,4.79
30.19,-2.51,11.55,3.30
30.19,-3.71,11.79,2.21
30.19,-4.47,12.03,1.47
30.20,-4.83,12.31,0.92
30.20,-4.95,12.58,0.72
30.20,-5.04,12.81,0.79
30.20,-5.17,12.94,0.90
30.21,-5.19,13.16,1.07
30.21,-5.11,13.28,1.31
30.21,-5.17,13.39,1.23
30.21,-5.30,13.44,1.08
30.22,-5.67,13.50,0.84
30.22,-6.02,13.71,0.62
30.22,-6.18,13.71,0.42
30.22,-6.14,13.60,0.43
30.23,-6.15,13.50,0.51
30.23,-6.29,13.51,0.65
30.23,-6.38,13.47,0.71
30.23,-6.38,13.28,0.76
30.24,-6.35,13.16,0.84
30.24,-6.40,13.17,0.95
30.24,-6.52,13.20,0.99
30.24,-6.59,13.23,1.06
30.25,-6.59,13.29,1.01
30.25,-6.55,13.32,0.87
30.25,-6.47,13.36,0.75
30.25,-6.20,13.33,0.66
30.26,-5.84,13.24,0.61
30.26,-5.51,13.19,0.45
30.26,-5.15,13.03,0.45
30.26,-4.83,12.83,0.84
30.27,-4.39,12.64,1.40
30.27,-3.87,12.35,1.89
30.27,-3.32,11.99,2.33
30.27,-2.82,11.65,2.86
30.28,-2.35,11.29,3.30
30.28,-1.80,10.86,3.76
30.28,-1.15,10.47,4.14
30.28,-0.58,10.00,4.36
30.29,-0.16,9.48,4.51
30.29,0.28,9.04,4.67
30.29,0.65,8.63,4.91
30.29,1.00,8.18,5.00
30.30,1.28,7.65,5.13
30.30,1.45,7.18,5.23
30.30,1.58,6.67,5.28
30.30,1.66,6.19,5.32
30.31,1.63,5.82,5.31
30.31,1.56,5.43,5.27
30.31,1.42,5.14,5.16
30.31,1.25,4.97,5.14
30.32,1.02,4.80,4.98
30.32,0.77,4.67,4.56
30.32,0.52,4.57,4.18
30.32,0.25,4.55,3.82
30.33,-0.02,4.55,3.38
30.33,-0.29,4.57,2.93
30.33,-0.50,4.66,2.42
30.34,-0.75,4.80,1.87
30.34,-0.95,4.91,1.45
30.34,-1.05,5.09,1.09
30.34,-1.17,5.27,0.78
30.35,-1.23,5.46,0.54
30.35,-1.17,5.67,0.36
30.35,-1.06,5.85,0.22
30.35,-1.01,6.15,0.15
30.35,-1.01,6.48,0.08
30.36,-0.93,6.74,0.05
30.36,-0.79,6.97,-0.03
30.36,-0.58,7.17,0.04
30.36,-0.38,7.38,-0.03
30.37,-0.20,7.50,0.01
30.37,0.05,7.62,0.19
30.37,0.28,7.69,0.34
30.37,0.44,7.74,0.48
30.38,0.51,7.71,0.58
30.38,0.56,7.67,0.57
30.38,0.55,7.55,0.62
30.38,0.68,7.31,0.87
30.39,0.79,7.03,1.19
30.39,0.87,6.76,1.51
30.39,0.96,6.37,1.83
30.39,0.95,6.05,2.09
30.40,0.99,5.67,2.27
30.40,1.03,5.30,2.44
30.40,1.00,4.98,2.52
30.40,1.00,4.63,2.56
30.41,1.03,4.31,2.60
30.41,1.04,3.99,2.61
30.41,1.05,3.71,2.62
30.41,1.08,3.37,2.61
30.42,1.08,3.10,2.61
30.42,1.04,2.83,2.51
30.42,1.03,2.55,2.44
30.42,1.02,2.28,2.41
30.43,1.03,2.04,2.39
30.43,1.02,1.85,2.34
30.43,0.97,1.61,2.24
30.43,0.96,1.43,2.18
30.44,0.99,1.22,2.14
30.44,1.00,1.07,2.15
30.44,1.02,0.95,1.98
30.44,1.04,0.82,1.94
30.45,1.04,0.69,1.92
30.45,1.06,0.59,1.83
30.45,1.04,0.54,1.73
30.45,1.03,0.55,1.60
30.46,1.06,0.48,1.49
30.46,1.09,0.45,1.43
30.46,1.07,0.46,1.35
30.46,1.08,0.55,1.23
30.47,1.11,0.64,1.07
30.47,1.04,0.73,0.99
30.47,1.02,0.86,0.95
30.47,0.97,1.06,0.91
30.48,0.89,1.33,0.90
30.48,0.80,1.59,0.90
30.48,0.66,1.90,0.90
30.48,0.54,2.24,0.89
30.49,0.41,2.61,0.97
30.49,0.25,2.94,1.03
30.49,0.06,3.34,1.11
30.49,-0.16,3.70,1.25
30.50,-0.30,4.03,1.37
30.50,-0.49,4.34,1.55
30.50,-0.65,4.64,1.65
30.50,-0.79,4.88,1.81
30.51,-0.95,5.16,1.92
30.51,-1.13,5.35,2.02
30.51,-1.23,5.57,2.14
30.51,-1.31,5.75,2.28
30.52,-1.36,5.91,2.42
30.52,-1.35,6.01,2.52
30.52,-1.36,6.09,2.66
30.52,-1.36,6.16,2.79
30.53,-1.28,6.22,2.87
30.53,-1.22,6.32,2.93
30.53,-1.16,6.41,2.98
30.53,-1.15,6.50,3.03
30.54,-1.17,6.64,3.14
30.54,-1.14,6.82,3.16
30.54,-1.17,6.96,3.13
30.54,-1.20,7.21,3.12
30.55,-1.23,7.48,3.17
30.55,-1.26,7.74,3.20
30.55,-1.33,8.04,3.20
30.55,-1.37,8.37,3.18
30.56,-1.45,8.72,3.09
30.56,-1.53,9.06,3.08
30.56,-1.52,9.40,3.08
30.56,-1.49,9.69,3.00
30.57,-1.47,9.92,2.94
30.57,-1.40,10.07,2.97
30.57,-1.34,10.15,3.00
30.57,-1.19,10.17,3.05
30.58,-1.04,10.07,3.08
30.58,-0.86,9.94,3.15
30.58,-0.64,9.76,3.23
30.58,-0.36,9.53,3.27
30.59,-0.13,9.29,3.30
30.59,0.04,9.01,3.28
30.59,0.30,8.59,3.25
30.59,0.48,8.17,3.19
30.60,0.62,7.76,3.13
30.60,0.69,7.33,2.98
30.60,0.83,6.98,2.94
30.60,0.93,6.70,2.79
30.61,1.01,6.27,2.65
30.61,1.14,5.88,2.60
30.61,1.26,5.60,2.46
30.61,1.34,5.30,2.38
30.62,1.48,5.10,2.31
30.62,1.55,4.86,2.13
30.62,1.64,4.63,2.05
30.62,1.75,4.51,1.90
30.63,1.79,4.35,1.73
30.63,1.88,4.21,1.62
30.63,1.85,4.09,1.49
30.63,1.81,3.92,1.49
30.64,1.71,3.71,1.35
30.64,1.49,3.48,1.19
30.64,1.02,3.15,1.15
30.64,0.60,2.83,1.11
30.65,0.18,2.42,1.00
30.65,-0.38,1.98,0.87
30.65,-0.72,1.64,0.77
30.65,-1.15,1.38,0.66
30.66,-1.47,1.23,0.50
30.66,-1.89,1.24,0.28
30.66,-2.36,1.45,-0.04
30.66,-2.94,1.90,-0.42
30.67,-3.68,2.67,-0.89
30.67,-4.41,3.64,-1.26
30.67,-5.12,4.76,-1.56
30.67,-5.88,6.01,-1.83
30.68,-6.66,7.42,-2.13
30.68,-7.43,8.93,-2.54
30.68,-8.32,10.68,-2.94
30.68,-9.15,12.63,-3.45
30.69,-9.88,14.86,-4.09
30.69,-10.63,17.27,-4.71
30.69,-11.35,19.61,-4.82
30.69,-12.08,22.03,-4.59
30.70,-12.65,24.50,-4.38
30.70,-12.77,26.85,-4.52
30.70,-12.41,29.24,-4.90
30.70,-11.62,32.06,-5.28
30.71,-10.47,34.92,-5.63
30.71,-9.14,37.74,-5.73
30.71,-7.55,40.62,-6.14
30.71,-6.12,42.63,-7.13
30.72,-4.84,43.34,-7.84
30.72,-3.44,42.48,-7.85
30.72,-2.44,39.49,-6.94
30.72,-2.68,35.07,-5.02
30.73,-3.63,31.03,-2.79
30.73,-4.22,27.73,-0.80
30.73,-4.40,24.85,0.73
30.73,-4.35,22.22,2.01
30.74,-4.24,19.91,3.13
30.74,-4.16,17.78,4.06
30.74,-4.18,15.94,4.55
30.74,-4.18,14.33,4.81
30.75,-4.48,13.08,4.90
30.75,-4.88,12.17,4.92
30.75,-5.23,11.53,4.79
30.75,-5.42,11.18,4.67
30.76,-5.29,11.03,4.91
30.76,-5.16,11.07,5.35
30.76,-4.91,11.24,5.84
30.76,-4.54,11.48,6.45
30.77,-4.08,11.94,6.79
30.77,-3.64,12.41,7.24
30.77,-3.36,12.90,7.76
30.77,-3.12,13.55,8.47
30.78,-2.88,14.13,9.30
30.78,-2.51,14.58,9.85
30.78,-2.19,14.80,10.08
30.78,-1.84,14.95,10.34
30.79,-1.54,15.00,10.25
30.79,-1.05,15.15,10.10
30.79,-0.36,15.36,10.06
30.79,0.32,15.56,9.83
30.80,1.04,15.84,9.27
30.80,1.67,16.14,8.61
30.80,2.20,16.45,7.99
30.80,2.53,16.83,7.44
30.81,2.72,17.08,6.68
30.81,2.88,17.18,5.21
30.81,3.56,17.21,2.99
30.81,4.26,17.22,1.08
30.82,4.57,17.02,-0.04
30.82,4.67,16.67,-1.11
30.82,4.56,16.56,-2.64
30.82,4.27,16.53,-2.48
30.83,3.91,16.11,-2.43
30.83,3.76,15.87,-2.68
30.83,3.74,15.80,-2.17
30.83,3.68,15.69,-1.60
30.84,3.22,15.41,-1.28
30.84,2.57,15.05,-0.82
30.84,2.00,14.63,-0.42
30.84,1.27,14.16,-0.03
30.85,0.60,13.66,0.23
30.85,0.09,13.21,0.56
30.85,-0.23,12.72,1.05
30.85,-0.62,12.21,1.50
30.86,-1.02,11.68,1.87
30.86,-1.27,11.10,2.16
30.86,-1.25,10.68,2.49
30.86,-1.18,10.23,2.89
30.87,-1.05,9.77,3.18
30.87,-0.86,9.37,3.53
30.87,-0.63,9.04,3.87
30.87,-0.46,8.60,4.11
30.88,-0.36,8.22,4.41
30.88,-0.34,7.88,4.82
30.88,-0.34,7.54,5.12
30.88,-0.51,7.24,5.28
30.89,-0.69,7.05,5.38
30.89,-0.82,6.71,5.38
30.89,-0.73,6.26,5.21
30.89,-0.61,5.93,5.05
30.90,-0.54,5.58,4.85
30.90,-0.50,5.24,4.69
30.90,-0.38,4.98,4.43
30.90,-0.36,4.69,4.06
30.91,-0.36,4.43,3.86
30.91,-0.42,4.29,3.65
30.91,-0.42,4.27,3.45
30.91,-0.32,4.12,3.29
30.92,-0.24,4.08,3.14
30.92,-0.26,4.06,2.95
30.92,-0.20,4.00,2.80
30.92,-0.11,3.92,2.67
30.93,0.03,3.87,2.58
30.93,0.18,3.80,2.48
30.93,0.35,3.81,2.35
30.93,0.50,3.72,2.18
30.94,0.62,3.61,2.11
30.94,0.67,3.60,2.04
30.94,0.65,3.59,1.92
30.94,0.62,3.50,1.81
30.95,0.57,3.44,1.70
30.95,0.58,3.42,1.62
30.95,0.58,3.37,1.48
30.95,0.58,3.28,1.46
30.96,0.55,3.18,1.35
30.96,0.53,3.11,1.36
30.96,0.48,3.00,1.40
30.96,0.45,2.87,1.36
30.97,0.41,2.73,1.29
30.97,0.24,2.57,1.26
30.97,0.17,2.40,1.24
30.97,0.08,2.33,1.20
30.98,-0.02,2.26,1.21
30.98,-0.04,2.16,1.27
30.98,-0.16,2.15,1.23
30.98,-0.13,2.09,1.24
30.99,-0.12,2.03,1.25
30.99,-0.07,2.06,1.34
30.99,-0.07,2.05,1.28
30.99,-0.06,2.02,1.37
31.00,0.00,2.06,1.42
31.00,0.08,2.06,1.47
31.00,0.16,2.11,1.55
31.00,0.20,2.09,1.63
31.01,0.22,2.15,1.76
31.01,0.19,2.12,1.85
31.01,0.16,2.08,1.85
31.01,0.21,2.05,1.97
31.02,0.21,1.99,2.15
31.02,0.14,1.95,2.24
31.02,0.06,1.89,2.35
31.02,0.01,1.90,2.48
31.03,-0.05,1.90,2.61
31.03,-0.07,1.82,2.78
31.03,-0.18,1.78,2.89
31.03,-0.22,1.74,2.97
31.04,-0.24,1.66,3.04
31.04,-0.24,1.56,3.07
31.04,-0.22,1.51,3.18
31.04,-0.27,1.47,3.18
31.05,-0.33,1.47,3.25
31.05,-0.35,1.38,3.42
31.05,-0.45,1.42,3.57
31.05,-0.53,1.47,3.66
31.06,-0.58,1.47,3.76
31.06,-0.55,1.45,3.86
31.06,-0.50,1.43,3.99
31.06,-0.51,1.53,4.08
31.07,-0.53,1.53,4.11
31.07,-0.46,1.61,4.05
31.07,-0.36,1.69,4.06
31.07,-0.22,1.71,4.03
31.08,-0.07,1.78,3.94
31.08,0.00,1.92,3.77
31.08,0.12,2.06,3.53
31.08,0.24,2.19,3.30
31.09,0.38,2.37,3.03
31.09,0.53,2.55,2.88
31.09,0.59,2.81,2.65
31.09,0.70,3.10,2.39
31.10,0.82,3.58,2.22
31.10,0.91,4.12,1.98
31.10,0.99,4.66,1.83
31.10,1.04,5.29,1.63
31.11,1.10,5.95,1.32
31.11,1.14,6.67,0.99
31.11,1.20,7.35,0.70
31.11,1.26,8.06,0.46
31.12,1.13,8.91,0.31
31.12,1.38,9.51,0.12
31.12,1.74,9.99,0.07
31.12,1.86,10.38,0.03
31.13,1.99,10.70,-0.15
31.13,2.08,10.98,-0.41
31.13,2.09,11.19,-0.49
31.13,2.13,11.30,-0.61
31.14,2.15,11.29,-0.66
31.14,2.17,11.25,-0.68
31.14,2.02,11.24,-0.50
31.14,1.78,11.24,-0.41
31.15,1.41,11.27,-0.49
31.15,0.92,11.32,-0.54
31.15,0.36,11.44,-0.54
31.15,-0.20,11.54,-0.55
31.16,-0.61,11.64,-0.39
31.16,-0.91,11.73,-0.09
31.16,-1.02,11.71,0.22
31.16,-0.99,11.58,0.76
31.17,-0.85,11.40,1.37
31.17,-0.69,11.19,2.09
31.17,-0.54,11.00,2.80
31.17,-0.41,10.66,3.34
31.18,-0.29,10.35,3.82
31.18,-0.20,10.06,4.20
31.18,-0.16,9.75,4.49
31.18,-0.16,9.47,4.64
31.19,-0.24,9.29,4.74
31.19,-0.16,9.16,4.75
31.19,-0.05,9.01,4.68
31.19,0.17,8.83,4.53
31.20,0.26,8.77,4.45
31.20,0.35,8.61,4.46
31.20,0.56,8.44,4.49
31.20,0.65,8.32,4.53
31.21,0.72,8.17,4.76
31.21,0.81,8.08,4.78
31.21,0.94,7.98,4.09
31.21,0.96,7.96,3.46
31.22,0.90,8.25,3.09
31.22,0.93,8.82,2.38
31.22,0.80,9.70,1.40
31.22,0.58,10.52,0.81
31.23,0.28,11.37,0.28
31.23,0.00,12.16,-0.22
31.23,-0.35,12.96,-0.26
31.23,-0.54,13.75,-0.31
31.24,-0.71,14.41,-0.58
31.24,-0.85,15.20,-0.44
31.24,-0.93,15.93,-0.30
31.24,-1.02,16.65,-0.21
31.25,-1.24,17.42,-0.24
31.25,-1.54,18.21,-0.47
31.25,-1.97,19.00,-0.79
31.25,-2.27,19.74,-1.14
31.26,-2.86,20.52,-1.33
31.26,-3.78,21.39,-1.70
31.26,-4.89,22.14,-2.03
31.26,-6.12,22.76,-1.93
31.27,-7.24,23.23,-1.66
31.27,-8.37,23.64,-1.28
31.27,-9.46,23.96,-0.63
31.27,-10.43,24.11,0.05
31.28,-11.33,24.30,0.84
31.28,-11.97,24.35,1.87
31.28,-12.61,24.15,2.87
31.28,-13.19,23.67,3.48
31.29,-13.78,22.92,3.84
31.29,-14.16,21.65,3.69
31.29,-14.02,19.80,3.33
31.29,-13.53,17.75,2.75
31.30,-12.71,15.74,2.34
31.30,-11.72,14.15,2.18
31.30,-10.66,12.96,2.23
31.30,-9.42,12.25,2.51
31.31,-8.11,11.72,2.87
31.31,-6.75,11.31,3.36
31.31,-5.41,10.98,3.97
31.31,-3.97,10.71,4.43
31.32,-2.35,10.54,4.80
31.32,-0.91,10.31,5.20
31.32,0.21,9.96,5.44
31.32,1.22,9.67,5.22
31.33,2.17,9.50,5.07
31.33,3.07,9.42,5.10
31.33,3.74,9.24,5.24
31.33,4.17,9.05,5.30
31.34,4.44,8.77,5.24
31.34,4.52,8.54,5.17
31.34,4.36,8.36,4.93
31.34,4.05,8.38,4.70
31.35,3.55,8.59,4.25
31.35,2.67,9.07,3.78
31.35,1.42,9.77,3.35
31.35,0.38,10.31,3.21
31.36,-0.42,10.70,3.27
31.36,-1.09,10.94,3.32
31.36,-1.51,11.11,3.32
31.36,-1.82,11.17,3.06
31.37,-2.15,11.19,2.66
31.37,-2.55,11.25,2.08
31.37,-2.94,11.42,1.44
31.37,-3.31,11.59,0.85
31.38,-3.80,11.79,0.32
31.38,-4.34,12.00,-0.17
31.38,-4.80,12.16,-0.57
31.38,-5.31,12.30,-0.81
31.39,-5.68,12.40,-0.98
31.39,-6.02,12.38,-0.92
31.39,-6.23,12.32,-0.75
31.39,-6.36,12.09,-0.51
31.40,-6.51,11.79,-0.17
31.40,-6.50,11.39,0.26
31.40,-6.40,11.02,0.70
31.40,-6.40,10.76,1.13
31.41,-6.37,10.50,1.62
31.41,-6.26,10.28,2.02
31.41,-6.10,10.07,2.57
31.41,-5.83,9.91,3.15
31.42,-5.37,9.84,3.35
31.42,-4.86,9.80,3.48
31.42,-4.34,9.65,3.57
31.42,-3.77,9.66,3.68
31.43,-3.18,9.60,3.64
31.43,-2.64,9.48,3.60
31.43,-2.14,9.40,3.62
31.43,-1.59,9.25,3.59
31.44,-1.07,9.13,3.60
31.44,-0.63,8.99,3.50
31.44,-0.41,8.85,3.38
31.44,-0.32,8.71,3.31
31.45,-0.27,8.53,3.18
31.45,-0.24,8.40,3.11
31.45,-0.24,8.24,3.04
31.45,-0.22,8.04,2.88
31.46,-0.21,7.84,2.75
31.46,-0.22,7.66,2.67
31.46,-0.25,7.33,2.66
31.46,-0.33,7.03,2.62
31.47,-0.40,6.70,2.56
31.47,-0.45,6.42,2.55
31.47,-0.62,6.15,2.52
31.47,-0.85,5.87,2.51
31.48,-1.05,5.65,2.46
31.48,-1.29,5.46,2.42
31.48,-1.56,5.28,2.39
31.48,-1.79,5.17,2.33
31.49,-1.96,5.06,2.23
31.49,-2.17,5.01,2.11
31.49,-2.34,4.93,2.01
31.49,-2.40,4.88,1.94
31.50,-2.43,4.91,1.87
31.50,-2.43,4.96,1.81
31.50,-2.41,4.98,1.72
31.50,-2.36,5.02,1.57
31.51,-2.21,5.12,1.40
31.51,-2.00,5.27,1.28
31.51,-1.80,5.47,1.19
31.51,-1.61,5.64,1.13
31.52,-1.43,5.84,1.04
31.52,-1.26,6.12,1.10
31.52,-1.17,6.46,1.13
31.52,-1.02,6.71,1.28
31.53,-0.96,6.95,1.44
31.53,-0.91,7.25,1.58
31.53,-0.83,7.49,1.76
31.53,-0.83,7.71,1.82
31.54,-0.73,8.01,1.94
31.54,-0.67,8.24,2.12
31.54,-0.62,8.48,2.17
31.54,-0.52,8.72,2.27
31.55,-0.39,8.99,2.39
31.55,-0.28,9.22,2.39
31.55,-0.19,9.43,2.43
31.55,-0.09,9.62,2.46
31.56,0.06,9.85,2.36
31.56,0.11,10.03,2.35
31.56,0.19,10.16,2.35
31.56,0.27,10.29,2.32
31.57,0.28,10.40,2.32
31.57,0.33,10.50,2.39
31.57,0.39,10.56,2.43
31.57,0.48,10.60,2.46
31.58,0.51,10.62,2.56
31.58,0.55,10.63,2.60
31.58,0.56,10.58,2.69
31.58,0.57,10.54,2.71
31.59,0.60,10.53,2.82
31.59,0.57,10.50,2.87
31.59,0.52,10.37,2.87
31.59,0.47,10.28,2.74
31.60,0.37,10.20,2.64
31.60,0.20,10.05,2.44
31.60,0.03,9.93,2.21
31.60,-0.10,9.87,2.06
31.61,-0.24,9.81,2.09
31.61,-0.32,9.76,2.12
31.61,-0.42,9.71,2.10
31.61,-0.52,9.75,2.06
31.62,-0.60,9.79,1.98
31.62,-0.72,9.80,1.98
31.62,-0.84,9.81,1.90
31.62,-0.99,9.83,1.74
31.63,-1.13,9.93,1.58
31.63,-1.26,9.97,1.46
31.63,-1.36,10.08,1.37
31.63,-1.41,10.14,1.30
31.64,-1.52,10.20,1.28
31.64,-1.57,10.31,1.18
31.64,-1.65,10.36,1.11
31.64,-1.72,10.39,0.92
31.65,-1.76,10.46,0.78
31.65,-1.92,10.50,0.61
31.65,-2.00,10.47,0.36
31.65,-2.05,10.45,0.23
31.66,-2.08,10.43,0.13
31.66,-2.19,10.38,0.08
31.66,-2.19,10.23,0.05
31.66,-2.17,10.10,-0.01
31.67,-2.15,10.01,0.00
31.67,-2.14,9.86,0.07
31.67,-2.13,9.67,0.06
31.67,-2.11,9.48,0.03
31.68,-2.15,9.32,-0.04
31.68,-2.21,9.20,-0.06
31.68,-2.24,9.03,-0.07
31.68,-2.32,8.86,-0.12
31.69,-2.37,8.80,-0.09
31.69,-2.33,8.70,0.06
31.69,-2.27,8.56,0.19
31.69,-2.27,8.44,0.27
31.70,-2.27,8.33,0.33
31.70,-2.27,8.21,0.37
31.70,-2.34,8.20,0.50
31.70,-2.42,8.17,0.57
31.71,-2.49,8.12,0.60
31.71,-2.51,8.14,0.65
31.71,-2.58,8.14,0.67
31.71,-2.66,8.08,0.70
31.72,-2.66,8.06,0.73
31.72,-2.63,8.06,0.76
31.72,-2.71,8.02,0.77
31.72,-2.75,7.97,0.78
31.73,-2.68,7.92,0.85
31.73,-2.67,7.89,0.89
31.73,-2.75,7.82,0.84
31.73,-2.82,7.69,0.82
31.74,-2.76,7.63,0.80
31.74,-2.74,7.59,0.78
31.74,-2.78,7.53,0.80
31.74,-2.86,7.58,0.78
31.75,-2.82,7.58,0.75
31.75,-2.75,7.59,0.71
31.75,-2.76,7.66,0.70
31.75,-2.77,7.73,0.66
31.76,-2.79,7.81,0.64
31.76,-2.80,7.92,0.63
31.76,-2.86,8.08,0.62
31.76,-2.94,8.24,0.52
31.77,-2.98,8.39,0.52
31.77,-2.99,8.54,0.55
31.77,-3.04,8.66,0.40
31.77,-3.03,8.78,0.35
31.78,-3.02,8.92,0.33
31.78,-3.05,8.97,0.34
31.78,-3.14,9.08,0.36
31.78,-3.11,9.14,0.28
31.79,-3.10,9.16,0.24
31.79,-3.06,9.19,0.26
31.79,-3.03,9.18,0.24
31.79,-3.02,9.19,0.19
31.80,-2.96,9.18,0.18
31.80,-2.88,9.13,0.23
31.80,-2.82,9.15,0.34
31.80,-2.75,9.06,0.38
31.81,-2.67,9.03,0.41
31.81,-2.54,9.05,0.36
31.81,-2.45,9.08,0.36
31.81,-2.40,9.06,0.33
31.82,-2.27,9.12,0.34
31.82,-2.22,9.14,0.30
31.82,-2.22,9.24,0.35
31.82,-2.19,9.28,0.34
31.83,-2.10,9.31,0.38
31.83,-2.01,9.38,0.32
31.83,-2.03,9.46,0.25
31.83,-1.99,9.49,0.17
31.84,-1.95,9.53,0.23
31.84,-1.90,9.60,0.25
31.84,-1.85,9.58,0.19
31.84,-1.79,9.59,0.20
31.85,-1.84,9.62,0.15
31.85,-1.89,9.65,0.14
31.85,-1.90,9.70,0.13
31.85,-1.89,9.78,0.18
31.86,-1.92,9.78,0.16
31.86,-1.92,9.78,0.16
31.86,-1.91,9.77,0.15
31.86,-1.96,9.82,0.14
31.87,-2.07,9.85,0.15
31.87,-2.03,9.75,0.26
31.87,-2.05,9.73,0.30
31.87,-2.03,9.70,0.28
31.88,-2.00,9.60,0.26
31.88,-1.93,9.52,0.24
31.88,-1.94,9.45,0.27
31.88,-1.92,9.32,0.25
31.89,-1.92,9.27,0.23
31.89,-1.89,9.23,0.29
31.89,-1.83,9.12,0.32
31.89,-1.85,9.09,0.34
31.90,-1.83,9.00,0.31
31.90,-1.85,8.92,0.32
31.90,-1.81,8.85,0.28
31.90,-1.83,8.78,0.25
31.91,-1.87,8.69,0.18
31.91,-1.97,8.61,0.15
31.91,-1.99,8.52,0.14
31.91,-2.03,8.52,0.16
31.92,-2.12,8.54,0.16
31.92,-2.19,8.58,0.16
31.92,-2.29,8.60,0.20
31.92,-2.32,8.65,0.22
31.93,-2.34,8.73,0.24
31.93,-2.26,8.74,0.22
31.93,-2.26,8.77,0.28
31.93,-2.20,8.82,0.31
31.94,-2.16,8.85,0.30
31.94,-2.10,8.82,0.30
31.94,-2.09,8.85,0.25
31.94,-2.00,8.88,0.25
31.95,-2.00,8.82,0.25
31.95,-1.99,8.84,0.25
31.95,-2.00,8.85,0.20
31.95,-1.98,8.88,0.23
31.96,-1.97,8.89,0.25
31.96,-2.00,8.82,0.23
31.96,-2.00,8.81,0.24
31.96,-1.97,8.80,0.28
31.97,-2.01,8.77,0.36
31.97,-2.04,8.76,0.41
31.97,-2.09,8.77,0.45
31.97,-2.13,8.79,0.55
31.98,-2.20,8.82,0.65
31.98,-2.29,8.75,0.75
31.98,-2.29,8.79,0.82
31.98,-2.28,8.88,0.85
31.99,-2.28,8.88,0.93
31.99,-2.28,8.84,0.96
31.99,-2.25,8.82,0.98
31.99,-2.29,8.84,1.01
32.00,-2.31,8.82,1.06
32.00,-2.31,8.84,1.08
32.00,-2.29,8.88,1.11
32.00,-2.29,8.86,1.19
32.01,-2.26,8.87,1.19
32.01,-2.26,8.87,1.22
32.01,-2.20,8.90,1.27
32.01,-2.13,8.95,1.27
32.02,-2.08,8.95,1.32
32.02,-2.03,8.94,1.34
32.02,-2.02,8.98,1.36
32.02,-1.94,9.04,1.37
32.03,-1.86,9.03,1.35
32.03,-1.88,9.04,1.35
32.03,-1.80,9.09,1.28
32.03,-1.74,9.09,1.20
32.04,-1.68,9.06,1.17
32.04,-1.67,9.10,1.08
32.04,-1.62,9.13,1.03
32.04,-1.59,9.15,1.02
32.05,-1.62,9.18,0.96
32.05,-1.62,9.27,0.95
32.05,-1.58,9.35,1.00
32.05,-1.58,9.35,0.91
32.06,-1.58,9.39,0.93
32.06,-1.61,9.45,0.89
32.06,-1.63,9.50,0.88
32.06,-1.66,9.58,0.84
32.07,-1.66,9.56,0.83
32.07,-1.63,9.59,0.88
32.07,-1.61,9.59,0.78
32.07,-1.62,9.59,0.81
32.08,-1.60,9.60,0.85
32.08,-1.56,9.61,0.90
32.08,-1.55,9.62,0.90
32.08,-1.54,9.63,0.92
32.09,-1.52,9.65,0.94
32.09,-1.47,9.59,0.96
32.09,-1.44,9.57,0.99
32.09,-1.42,9.60,0.99
32.10,-1.31,9.58,0.96
32.10,-1.28,9.51,1.00
32.10,-1.21,9.49,0.99
32.10,-1.16,9.43,0.97
32.11,-1.11,9.43,0.90
32.11,-1.08,9.40,0.95
32.11,-1.10,9.35,0.93
32.11,-1.14,9.36,0.84
32.12,-1.13,9.37,0.89
32.12,-1.12,9.42,0.87
32.12,-1.13,9.39,0.79
32.12,-1.19,9.36,0.79
32.13,-1.21,9.38,0.75
32.13,-1.26,9.36,0.79
32.13,-1.29,9.36,0.80
32.13,-1.26,9.35,0.87
32.14,-1.29,9.30,0.87
32.14,-1.31,9.25,0.92
32.14,-1.30,9.23,0.88
32.15,-1.27,9.19,0.89
32.15,-1.35,9.17,0.88
32.15,-1.37,9.14,0.89
32.15,-1.41,9.15,0.87
32.16,-1.43,9.11,0.89
32.16,-1.43,9.11,0.92
32.16,-1.44,9.11,0.91
32.16,-1.46,9.08,0.90
32.17,-1.51,9.11,0.91
32.17,-1.63,9.15,0.88
32.17,-1.68,9.12,0.86
32.17,-1.72,9.08,0.90
32.18,-1.71,9.03,0.83
32.18,-1.72,9.00,0.81
32.18,-1.80,8.99,0.84
32.18,-1.86,8.99,0.78
32.19,-1.92,8.94,0.77
32.19,-1.98,8.96,0.75
32.19,-2.06,9.02,0.75
32.19,-2.12,9.06,0.73
32.20,-2.14,9.08,0.74
32.20,-2.17,9.17,0.72
32.20,-2.13,9.13,0.72
32.20,-2.15,9.17,0.72
32.21,-2.10,9.16,0.75
32.21,-2.08,9.17,0.75
32.21,-2.10,9.15,0.82
32.21,-2.08,9.14,0.84
32.22,-2.05,9.15,0.86
32.22,-1.94,9.15,0.87
32.22,-1.92,9.16,0.91
32.22,-1.93,9.10,0.90
32.23,-1.89,9.10,0.93
32.23,-1.86,9.08,0.92
32.23,-1.83,9.09,0.99
32.23,-1.80,9.12,0.96
32.24,-1.84,9.11,0.96
32.24,-1.83,9.09,0.90
32.24,-1.84,9.11,0.90
32.24,-1.84,9.13,0.93
32.25,-1.84,9.14,0.86
32.25,-1.79,9.22,0.83
32.25,-1.79,9.26,0.86
32.25,-1.78,9.27,0.85
32.26,-1.76,9.24,0.86
32.26,-1.75,9.30,0.85
32.26,-1.80,9.30,0.76
32.26,-1.74,9.31,0.75
32.27,-1.75,9.32,0.78
32.27,-1.72,9.33,0.77
32.27,-1.79,9.35,0.74
32.27,-1.81,9.33,0.66
32.28,-1.80,9.31,0.68
32.28,-1.79,9.33,0.69
32.28,-1.79,9.31,0.74
32.28,-1.77,9.31,0.70
32.29,-1.75,9.31,0.75
32.29,-1.79,9.26,0.67
32.29,-1.72,9.19,0.65
32.29,-1.70,9.21,0.70
32.30,-1.72,9.17,0.69
32.30,-1.76,9.12,0.71
32.30,-1.80,9.10,0.69
32.30,-1.80,9.11,0.74
32.31,-1.78,9.08,0.73
32.31,-1.75,9.03,0.72
32.31,-1.74,9.04,0.70
32.31,-1.76,9.00,0.64
32.32,-1.81,8.99,0.66
32.32,-1.80,8.94,0.66
32.32,-1.75,8.92,0.68
32.32,-1.76,8.93,0.69
32.33,-1.78,8.92,0.70
32.33,-1.73,8.94,0.70
32.33,-1.65,8.96,0.69
32.33,-1.73,8.94,0.67
32.34,-1.75,8.96,0.69
32.34,-1.80,8.96,0.67
32.34,-1.82,8.93,0.68
32.34,-1.84,8.98,0.70
32.35,-1.85,8.98,0.71
32.35,-1.86,9.01,0.67
32.35,-1.93,9.05,0.71
32.35,-1.98,9.09,0.76
32.36,-1.98,9.13,0.76
32.36,-2.01,9.13,0.79
32.36,-2.09,9.19,0.76
32.36,-2.13,9.24,0.79
32.37,-2.17,9.23,0.76
32.37,-2.22,9.25,0.82
32.37,-2.26,9.24,0.78
32.37,-2.30,9.22,0.79
32.38,-2.37,9.18,0.75
32.38,-2.37,9.21,0.69
32.38,-2.43,9.19,0.74
32.38,-2.43,9.16,0.72
32.39,-2.45,9.12,0.74
32.39,-2.45,9.09,0.71
32.39,-2.46,9.09,0.67
32.39,-2.54,9.11,0.65
32.40,-2.57,9.09,0.66
32.40,-2.54,9.11,0.66
32.40,-2.54,9.06,0.64
32.40,-2.52,9.01,0.65
32.41,-2.48,8.99,0.69
32.41,-2.45,8.96,0.69
32.41,-2.40,9.03,0.70
32.41,-2.37,8.99,0.71
32.42,-2.29,8.98,0.72
32.42,-2.27,9.01,0.75
32.42,-2.21,8.99,0.74
32.42,-2.14,8.99,0.69
32.43,-2.14,8.97,0.67
32.43,-2.09,8.96,0.70
32.43,-2.05,8.96,0.76
32.43,-2.01,8.98,0.72
32.44,-1.97,9.01,0.71
32.44,-1.92,9.03,0.69
32.44,-1.94,9.00,0.74
32.44,-1.94,9.07,0.74
32.45,-1.88,9.09,0.70
32.45,-1.90,9.12,0.69
32.45,-1.89,9.13,0.73
32.45,-1.95,9.14,0.76
32.46,-1.91,9.16,0.73
32.46,-1.88,9.17,0.80
32.46,-1.93,9.16,0.76
32.46,-1.91,9.13,0.77
32.47,-1.91,9.17,0.78
32.47,-1.88,9.19,0.81
32.47,-1.83,9.25,0.87
32.47,-1.80,9.24,0.93
32.48,-1.78,9.23,0.89
32.48,-1.80,9.21,0.87
32.48,-1.76,9.21,0.89
32.48,-1.79,9.23,0.93
32.49,-1.77,9.25,0.95
32.49,-1.79,9.24,0.95
32.49,-1.77,9.21,0.94
32.49,-1.77,9.18,0.97
32.50,-1.78,9.22,0.97
32.50,-1.79,9.20,0.93
32.50,-1.80,9.19,0.98
32.50,-1.80,9.19,0.96
32.51,-1.85,9.21,1.00
32.51,-1.84,9.21,0.97
32.51,-1.77,9.24,1.04
32.51,-1.74,9.27,1.08
32.52,-1.74,9.26,1.04
32.52,-1.70,9.23,0.98
32.52,-1.76,9.27,0.94
32.52,-1.74,9.27,1.02
32.53,-1.75,9.25,1.03
32.53,-1.75,9.24,1.00
32.53,-1.80,9.24,0.94
32.53,-1.80,9.22,0.92
32.54,-1.79,9.29,0.95
32.54,-1.86,9.37,1.01
32.54,-1.80,9.37,1.06
32.54,-1.71,9.38,1.08
32.55,-1.72,9.33,1.02
32.55,-1.74,9.34,1.02
32.55,-1.74,9.32,1.05
32.55,-1.79,9.33,1.03
32.56,-1.77,9.29,1.05
32.56,-1.77,9.25,1.03
32.56,-1.78,9.28,1.04
32.56,-1.80,9.19,1.02
32.57,-1.80,9.18,1.01
32.57,-1.78,9.17,1.00
32.57,-1.79,9.16,0.95
32.57,-1.82,9.12,0.92
32.58,-1.83,9.12,0.93
32.58,-1.83,9.10,0.93
32.58,-1.87,9.09,0.93
32.58,-1.83,9.12,0.92
32.59,-1.83,9.04,0.87
32.59,-1.86,9.00,0.86
32.59,-1.84,9.02,0.84
32.59,-1.87,9.03,0.81
32.60,-1.91,9.00,0.77
32.60,-1.87,9.00,0.79
32.60,-1.87,9.08,0.78
32.60,-1.94,9.10,0.80
32.61,-1.91,9.10,0.78
32.61,-1.91,9.15,0.82
32.61,-1.86,9.18,0.81
32.61,-1.87,9.19,0.79
32.62,-1.85,9.19,0.83
32.62,-1.84,9.23,0.83
32.62,-1.79,9.17,0.84
32.62,-1.76,9.20,0.73
32.63,-1.74,9.18,0.78
32.63,-1.74,9.17,0.80
32.63,-1.73,9.19,0.84
32.63,-1.70,9.17,0.85
32.64,-1.64,9.17,0.87
32.64,-1.65,9.13,0.87
32.64,-1.63,9.10,0.82
32.64,-1.68,9.11,0.88
32.65,-1.64,9.11,0.87
32.65,-1.62,9.10,0.86
32.65,-1.61,9.05,0.92
32.65,-1.58,9.00,0.92
32.66,-1.61,9.00,0.86
32.66,-1.60,8.95,0.90
32.66,-1.61,9.00,0.87
32.66,-1.67,9.01,0.90
32.67,-1.72,8.98,0.88
32.67,-1.73,8.97,0.82
32.67,-1.85,8.96,0.79
32.67,-1.87,9.00,0.79
32.68,-1.97,9.02,0.78
32.68,-2.04,9.04,0.74
32.68,-2.11,9.07,0.77
32.68,-2.14,9.10,0.78
32.69,-2.15,9.14,0.78
32.69,-2.21,9.20,0.84
32.69,-2.26,9.20,0.84
32.69,-2.26,9.21,0.88
32.70,-2.25,9.20,0.98
32.70,-2.23,9.23,0.99
32.70,-2.25,9.25,1.04
32.70,-2.26,9.25,1.04
32.71,-2.32,9.21,1.08
32.71,-2.16,9.26,1.21
32.71,-2.03,9.21,1.19
32.71,-2.04,9.24,1.12
32.72,-2.07,9.28,1.23
32.72,-2.01,9.27,1.24
32.72,-1.99,9.24,1.20
32.72,-1.98,9.22,1.19
32.73,-1.95,9.23,1.24
32.73,-1.92,9.20,1.22
32.73,-1.88,9.19,1.17
32.73,-1.90,9.16,1.15
32.74,-1.92,9.16,1.17
32.74,-1.95,9.12,1.13
32.74,-1.90,9.07,1.13
32.74,-1.90,9.09,1.14
32.75,-1.91,9.07,1.15
32.75,-1.89,9.03,1.17
32.75,-1.93,9.04,1.10
32.75,-1.93,9.04,1.09
32.76,-1.90,9.01,1.14
32.76,-1.94,9.01,1.13
32.76,-1.91,8.99,1.11
32.76,-2.00,9.00,1.05
32.77,-2.01,8.98,1.04
32.77,-1.96,8.99,1.00
32.77,-1.96,8.98,1.01
32.77,-1.94,8.97,1.04
32.78,-1.95,8.96,0.96
32.78,-1.97,8.99,0.97
32.78,-1.97,9.00,0.90
32.78,-1.97,9.01,0.82
32.79,-1.95,8.98,0.76
32.79,-1.94,8.99,0.69
32.79,-1.88,9.03,0.69
32.79,-1.92,9.00,0.72
32.80,-1.92,9.05,0.71
32.80,-1.82,9.10,0.74
32.80,-1.78,9.12,0.84
32.80,-1.74,9.21,0.90
32.81,-1.62,9.28,0.83
32.81,-1.59,9.26,0.90
32.81,-1.53,9.32,0.86
32.81,-1.56,9.32,0.90
32.82,-1.54,9.33,0.86
32.82,-1.50,9.34,0.85
32.82,-1.51,9.34,0.83
32.82,-1.47,9.37,0.85
32.83,-1.45,9.39,0.81
32.83,-1.45,9.37,0.80
32.83,-1.47,9.34,0.79
32.83,-1.41,9.34,0.80
32.84,-1.40,9.35,0.77
32.84,-1.46,9.34,0.71
32.84,-1.42,9.36,0.77
32.84,-1.43,9.30,0.79
32.85,-1.43,9.29,0.80
32.85,-1.44,9.32,0.79
32.85,-1.47,9.28,0.77
32.85,-1.51,9.27,0.82
32.86,-1.47,9.25,0.78
32.86,-1.47,9.22,0.78
32.86,-1.47,9.20,0.78
32.86,-1.46,9.20,0.81
32.87,-1.47,9.16,0.77
32.87,-1.47,9.17,0.75
32.87,-1.48,9.16,0.73
32.87,-1.51,9.13,0.70
32.88,-1.54,9.15,0.73
32.88,-1.56,9.18,0.71
32.88,-1.61,9.16,0.69
32.88,-1.60,9.18,0.68
32.89,-1.60,9.20,0.67
32.89,-1.59,9.17,0.67
32.89,-1.60,9.15,0.66
32.89,-1.59,9.15,0.66
32.90,-1.59,9.17,0.64
32.90,-1.60,9.17,0.64
32.90,-1.54,9.14,0.59
32.90,-1.54,9.13,0.63
32.91,-1.51,9.12,0.65
32.91,-1.50,9.16,0.63
32.91,-1.55,9.11,0.65
32.91,-1.54,9.14,0.64
32.92,-1.51,9.12,0.57
32.92,-1.54,9.09,0.57
32.92,-1.54,9.10,0.52
32.92,-1.57,9.12,0.52
32.93,-1.59,9.12,0.56
32.93,-1.57,9.13,0.55
32.93,-1.56,9.13,0.52
32.93,-1.62,9.15,0.59
32.94,-1.62,9.17,0.55
32.94,-1.63,9.21,0.60
32.94,-1.64,9.19,0.64
32.94,-1.63,9.18,0.65
32.95,-1.70,9.22,0.66
32.95,-1.73,9.23,0.67
32.95,-1.75,9.20,0.67
32.95,-1.75,9.21,0.70
32.96,-1.75,9.24,0.73
32.96,-1.81,9.24,0.72
32.96,-1.83,9.22,0.72
32.96,-1.83,9.19,0.71
32.97,-1.87,9.20,0.70
32.97,-1.95,9.21,0.71
32.97,-2.06,9.14,0.68
32.97,-1.94,9.18,0.69
32.98,-1.91,9.16,0.71
32.98,-1.94,9.12,0.67
32.98,-1.93,9.14,0.67
32.98,-1.92,9.14,0.66
32.99,-1.96,9.12,0.63
32.99,-1.93,9.11,0.61
32.99,-1.95,9.13,0.58
32.99,-2.00,9.13,0.55
33.00,-1.98,9.16,0.56
33.00,-2.02,9.14,0.53
33.00,-2.03,9.16,0.59
33.00,-2.02,9.14,0.59
33.01,-1.99,9.18,0.59
33.01,-1.97,9.19,0.62
33.01,-1.97,9.24,0.65
33.01,-1.93,9.22,0.67
33.02,-1.92,9.23,0.70
33.02,-1.87,9.30,0.73
33.02,-1.80,9.30,0.75
33.02,-1.85,9.31,0.77
33.03,-1.81,9.32,0.80
33.03,-1.72,9.34,0.82
33.03,-1.70,9.37,0.85
33.03,-1.63,9.35,0.84
33.04,-1.62,9.33,0.90
33.04,-1.66,9.36,0.92
33.04,-1.67,9.35,0.96
33.04,-1.62,9.34,0.93
33.05,-1.60,9.37,0.93
33.05,-1.63,9.32,0.89
33.05,-1.62,9.35,0.89
33.05,-1.67,9.32,0.89
33.06,-1.60,9.30,0.88
33.06,-1.58,9.26,0.85
33.06,-1.60,9.29,0.81
33.06,-1.62,9.28,0.83
33.07,-1.62,9.25,0.79
33.07,-1.62,9.28,0.71
33.07,-1.63,9.21,0.72
33.07,-1.67,9.21,0.68
33.08,-1.69,9.23,0.67
33.08,-1.70,9.26,0.67
33.08,-1.71,9.28,0.64
33.08,-1.73,9.31,0.65
33.09,-1.70,9.34,0.68
33.09,-1.68,9.38,0.69
33.09,-1.70,9.40,0.72
33.09,-1.71,9.43,0.72
33.10,-1.70,9.48,0.70
33.10,-1.64,9.47,0.74
33.10,-1.63,9.50,0.73
33.10,-1.64,9.56,0.77
33.11,-1.64,9.59,0.75
33.11,-1.60,9.58,0.83
33.11,-1.57,9.58,0.84
33.11,-1.56,9.61,0.82
33.12,-1.54,9.67,0.84
33.12,-1.54,9.65,0.84
33.12,-1.52,9.65,0.86
33.12,-1.50,9.63,0.83
33.13,-1.53,9.66,0.85
33.13,-1.50,9.65,0.86
33.13,-1.50,9.61,0.90
33.13,-1.51,9.60,0.91
33.14,-1.53,9.56,0.85
33.14,-1.54,9.57,0.88
33.14,-1.56,9.49,0.82
33.14,-1.57,9.48,0.77
33.15,-1.65,9.45,0.76
33.15,-1.65,9.40,0.74
33.15,-1.66,9.36,0.69
33.15,-1.65,9.34,0.72
33.16,-1.67,9.33,0.76
33.16,-1.68,9.33,0.74
33.16,-1.74,9.27,0.72
33.16,-1.71,9.21,0.72
33.17,-1.73,9.23,0.77
33.17,-1.74,9.22,0.72
33.17,-1.72,9.20,0.69
33.17,-1.71,9.15,0.72
33.18,-1.71,9.18,0.73
33.18,-1.77,9.17,0.70
33.18,-1.73,9.12,0.75
33.18,-1.73,9.11,0.74
33.19,-1.71,9.10,0.79
33.19,-1.71,9.06,0.79
33.19,-1.68,9.07,0.80
33.19,-1.73,9.10,0.79
33.20,-1.72,9.11,0.78
33.20,-1.72,9.09,0.78
33.20,-1.70,9.11,0.81
33.20,-1.74,9.05,0.80
33.21,-1.77,9.05,0.83
33.21,-1.71,9.05,0.86
33.21,-1.70,9.10,0.80
33.21,-1.71,9.12,0.85
33.22,-1.70,9.10,0.79
33.22,-1.74,9.06,0.80
33.22,-1.77,9.06,0.82
33.22,-1.76,9.08,0.83
33.23,-1.79,9.06,0.85
33.23,-1.82,9.10,0.79
33.23,-1.80,9.08,0.79
33.23,-1.80,9.08,0.80
33.24,-1.81,9.06,0.79
33.24,-1.81,9.06,0.83
33.24,-1.84,9.08,0.77
33.24,-1.84,9.09,0.74
33.25,-1.86,9.07,0.75
33.25,-1.90,9.08,0.76
33.25,-1.91,9.15,0.76
33.25,-1.88,9.12,0.73
33.26,-1.89,9.15,0.72
33.26,-1.93,9.16,0.73
33.26,-1.90,9.16,0.78
33.26,-1.88,9.20,0.81
33.27,-1.85,9.17,0.81
33.27,-1.89,9.20,0.81
33.27,-1.86,9.17,0.76
33.27,-1.84,9.16,0.81
33.28,-1.87,9.21,0.76
33.28,-1.81,9.17,0.74
33.28,-1.79,9.14,0.77
33.28,-1.83,9.13,0.74
33.29,-1.80,9.12,0.76
33.29,-1.78,9.13,0.79
33.29,-1.79,9.16,0.72
33.29,-1.82,9.14,0.75
33.30,-1.74,9.13,0.75
33.30,-1.79,9.17,0.81
33.30,-1.80,9.18,0.72
33.30,-1.80,9.19,0.79
33.31,-1.79,9.14,0.79
33.31,-1.75,9.17,0.74
33.31,-1.81,9.17,0.79
33.31,-1.78,9.18,0.76
33.32,-1.78,9.21,0.77
33.32,-1.74,9.17,0.75
33.32,-1.72,9.17,0.74
33.32,-1.76,9.19,0.74
33.33,-1.75,9.21,0.77
33.33,-1.77,9.21,0.74
33.33,-1.76,9.22,0.73
33.33,-1.78,9.21,0.71
33.34,-1.79,9.21,0.75
33.34,-1.77,9.23,0.80
33.34,-1.79,9.21,0.71
33.34,-1.78,9.23,0.77
33.35,-1.76,9.22,0.76
33.35,-1.74,9.20,0.73
33.35,-1.76,9.22,0.70
33.35,-1.74,9.21,0.70
33.36,-1.76,9.20,0.71
33.36,-1.78,9.20,0.67
33.36,-1.75,9.20,0.65
33.36,-1.75,9.22,0.71
33.37,-1.77,9.25,0.76
33.37,-1.79,9.21,0.81
33.37,-1.81,9.19,0.76
33.37,-1.76,9.16,0.68
33.38,-1.79,9.16,0.69
33.38,-1.81,9.15,0.68
33.38,-1.77,9.15,0.68
33.38,-1.83,9.16,0.63
33.39,-1.83,9.20,0.64
33.39,-1.86,9.21,0.64
33.39,-1.86,9.18,0.60
33.39,-1.91,9.22,0.58
33.40,-1.91,9.22,0.56
33.40,-1.94,9.22,0.54
33.40,-1.93,9.24,0.56
33.40,-1.98,9.26,0.59
33.41,-1.98,9.25,0.63
33.41,-1.97,9.27,0.58
33.41,-1.94,9.30,0.59
33.41,-1.97,9.32,0.53
33.42,-2.00,9.36,0.57
33.42,-1.94,9.33,0.57
33.42,-1.95,9.32,0.56
33.42,-1.92,9.32,0.61
33.43,-1.92,9.36,0.62
33.43,-1.89,9.33,0.62
33.43,-1.93,9.31,0.59
33.43,-1.93,9.32,0.60
33.44,-1.91,9.38,0.58
33.44,-1.91,9.36,0.63
33.44,-1.85,9.40,0.65
33.44,-1.83,9.42,0.69
33.45,-1.86,9.40,0.76
33.45,-1.87,9.36,0.78
33.45,-1.91,9.31,0.73
33.45,-1.92,9.29,0.70
33.46,-1.89,9.26,0.74
33.46,-1.87,9.25,0.74
33.46,-1.88,9.17,0.70
33.46,-1.89,9.20,0.69
33.47,-1.87,9.18,0.71
33.47,-1.91,9.13,0.69
33.47,-1.91,9.15,0.67
33.47,-1.87,9.16,0.76
33.48,-1.88,9.16,0.69
33.48,-1.89,9.12,0.66
33.48,-1.86,9.13,0.62
33.48,-1.85,9.13,0.66
33.49,-1.84,9.18,0.67
33.49,-1.87,9.17,0.65
33.49,-1.86,9.18,0.61
33.49,-1.87,9.23,0.65
33.50,-1.88,9.25,0.65
33.50,-1.90,9.24,0.69
33.50,-1.94,9.26,0.67
33.50,-1.92,9.28,0.65
33.51,-1.94,9.29,0.67
33.51,-1.98,9.34,0.71
33.51,-1.96,9.31,0.66
33.51,-1.96,9.32,0.64
33.52,-2.02,9.29,0.64
33.52,-2.09,9.34,0.64
33.52,-2.08,9.34,0.62
33.52,-2.11,9.29,0.57
33.53,-2.10,9.26,0.54
33.53,-2.10,9.29,0.60
33.53,-2.10,9.26,0.57
33.53,-2.12,9.26,0.58
33.54,-2.12,9.27,0.53
33.54,-2.10,9.25,0.57
33.54,-2.12,9.21,0.56
33.54,-2.14,9.18,0.57
33.55,-2.16,9.21,0.58
33.55,-2.07,9.19,0.57
33.55,-2.10,9.17,0.61
33.55,-2.11,9.16,0.62
33.56,-2.13,9.16,0.62
33.56,-2.06,9.16,0.60
33.56,-2.01,9.14,0.64
33.56,-2.04,9.09,0.62
33.57,-2.02,9.08,0.60
33.57,-1.95,9.08,0.65
33.57,-1.97,9.02,0.64
33.57,-1.98,9.06,0.62
33.58,-1.98,9.01,0.61
33.58,-1.97,9.01,0.65
33.58,-2.00,8.99,0.65
33.58,-1.96,9.01,0.61
33.59,-1.92,9.01,0.62
33.59,-1.93,9.02,0.59
33.59,-1.89,8.99,0.57
33.59,-1.90,8.97,0.53
33.60,-1.87,9.00,0.58
33.60,-1.90,8.99,0.59
33.60,-1.86,8.98,0.53
33.60,-1.88,8.98,0.51
33.61,-1.89,8.99,0.52
33.61,-1.88,8.95,0.51
33.61,-1.97,8.96,0.43
33.61,-1.93,8.98,0.39
33.62,-1.91,8.93,0.42
33.62,-1.95,8.95,0.38
33.62,-1.98,8.99,0.40
33.62,-1.98,9.03,0.41
33.63,-2.01,9.03,0.41
33.63,-2.03,9.01,0.39
33.63,-2.03,9.02,0.43
33.63,-2.06,9.04,0.48
33.64,-2.07,9.06,0.43
33.64,-2.08,9.07,0.40
33.64,-2.08,9.09,0.38
33.64,-2.10,9.09,0.41
33.65,-2.12,9.12,0.41
33.65,-2.11,9.12,0.40
33.65,-2.13,9.12,0.37
33.65,-2.20,9.11,0.37
33.66,-2.20,9.14,0.37
33.66,-2.17,9.15,0.38
33.66,-2.19,9.13,0.37
33.66,-2.20,9.13,0.40
33.67,-2.25,9.06,0.35
33.67,-2.24,8.99,0.29
33.67,-2.25,8.90,0.30
33.67,-2.27,8.83,0.30
33.68,-2.25,8.87,0.48
33.68,-2.23,8.88,0.63
33.68,-2.21,8.92,0.62
33.68,-2.20,8.93,0.54
33.69,-2.17,8.97,0.52
33.69,-2.16,8.96,0.54
33.69,-2.13,8.97,0.55
33.69,-2.13,9.04,0.60
33.70,-2.16,9.06,0.55
33.70,-2.12,9.07,0.55
33.70,-2.12,9.06,0.58
33.70,-2.13,9.04,0.59
33.71,-2.19,9.04,0.58
33.71,-2.17,9.11,0.60
33.71,-2.10,9.12,0.61
33.71,-2.08,9.11,0.58
33.72,-2.06,9.15,0.54
33.72,-2.00,9.14,0.54
33.72,-1.96,9.15,0.57
33.72,-2.02,9.18,0.50
33.73,-1.97,9.19,0.53
33.73,-1.98,9.12,0.47
33.73,-1.94,9.12,0.40
33.73,-1.95,9.15,0.39
33.74,-1.94,9.15,0.42
33.74,-1.91,9.12,0.39
33.74,-1.91,9.13,0.38
33.74,-1.92,9.12,0.36
33.75,-1.90,9.13,0.29
33.75,-1.86,9.19,0.31
33.75,-1.87,9.16,0.34
33.75,-1.87,9.15,0.34
33.76,-1.91,9.13,0.31
33.76,-1.85,9.16,0.33
33.76,-1.87,9.14,0.35
33.76,-1.92,9.14,0.33
33.77,-1.87,9.17,0.38
33.77,-1.85,9.15,0.40
33.77,-1.86,9.16,0.44
33.77,-1.86,9.18,0.44
33.78,-1.84,9.19,0.43
33.78,-1.85,9.18,0.43
33.78,-1.84,9.21,0.40
33.78,-1.86,9.20,0.40
33.79,-1.83,9.19,0.40
33.79,-1.83,9.18,0.42
33.79,-1.83,9.17,0.37
33.79,-1.87,9.11,0.36
33.80,-1.86,9.14,0.38
33.80,-1.79,9.19,0.39
33.80,-1.80,9.19,0.37
33.80,-1.80,9.16,0.38
33.81,-1.76,9.18,0.44
33.81,-1.73,9.21,0.43
33.81,-1.77,9.25,0.44
33.81,-1.75,9.25,0.47
33.82,-1.70,9.25,0.44
33.82,-1.70,9.24,0.44
33.82,-1.72,9.23,0.40
33.82,-1.69,9.25,0.39
33.83,-1.68,9.27,0.44
33.83,-1.69,9.22,0.50
33.83,-1.72,9.21,0.47
33.83,-1.74,9.25,0.46
33.84,-1.70,9.21,0.50
33.84,-1.69,9.18,0.47
33.84,-1.71,9.27,0.45
33.84,-1.65,9.24,0.49
33.85,-1.64,9.26,0.49
33.85,-1.67,9.19,0.53
33.85,-1.64,9.23,0.53
33.85,-1.66,9.25,0.50
33.86,-1.68,9.23,0.54
33.86,-1.69,9.22,0.54
33.86,-1.65,9.28,0.53
33.86,-1.66,9.33,0.54
33.87,-1.67,9.32,0.51
33.87,-1.62,9.30,0.50
33.87,-1.60,9.34,0.52
33.87,-1.59,9.35,0.50
33.88,-1.61,9.35,0.50
33.88,-1.59,9.37,0.47
33.88,-1.59,9.36,0.47
33.88,-1.64,9.39,0.47
33.89,-1.59,9.37,0.46
33.89,-1.64,9.39,0.50
33.89,-1.71,9.40,0.40
33.89,-1.65,9.37,0.33
33.90,-1.67,9.39,0.40
33.90,-1.67,9.43,0.44
33.90,-1.70,9.47,0.44
33.90,-1.72,9.47,0.44
33.91,-1.70,9.48,0.42
33.91,-1.63,9.43,0.46
33.91,-1.64,9.39,0.45
33.91,-1.65,9.40,0.44
33.92,-1.62,9.38,0.42
33.92,-1.61,9.31,0.42
33.92,-1.62,9.32,0.38
33.92,-1.62,9.27,0.37
33.93,-1.59,9.21,0.39
33.93,-1.57,9.22,0.36
33.93,-1.57,9.19,0.36
33.93,-1.57,9.18,0.40
33.94,-1.51,9.19,0.38
33.94,-1.53,9.21,0.36
33.94,-1.52,9.18,0.37
33.94,-1.51,9.17,0.36
33.95,-1.52,9.18,0.34
33.95,-1.49,9.17,0.35
33.95,-1.49,9.16,0.34
33.95,-1.56,9.20,0.31
33.96,-1.54,9.21,0.33
33.96,-1.54,9.21,0.34
33.96,-1.54,9.19,0.33
33.96,-1.56,9.19,0.36
33.97,-1.53,9.23,0.36
33.97,-1.61,9.26,0.33
33.97,-1.62,9.25,0.39
33.97,-1.59,9.17,0.36
33.98,-1.63,9.22,0.34
33.98,-1.68,9.23,0.32
33.98,-1.67,9.25,0.38
33.98,-1.68,9.25,0.35
33.99,-1.70,9.23,0.37
33.99,-1.71,9.26,0.32
33.99,-1.71,9.23,0.33
33.99,-1.69,9.25,0.32
34.00,-1.73,9.30,0.35
34.00,-1.77,9.31,0.34
34.00,-1.75,9.28,0.33
34.00,-1.79,9.28,0.32
34.01,-1.81,9.32,0.29
34.01,-1.82,9.29,0.30
34.01,-1.86,9.30,0.29
34.01,-1.88,9.29,0.31
34.02,-1.92,9.34,0.34
34.02,-1.89,9.30,0.29
34.02,-1.90,9.30,0.34
34.02,-1.94,9.32,0.35
34.03,-2.01,9.29,0.34
34.03,-1.93,9.29,0.38
34.03,-1.92,9.30,0.45
34.03,-1.94,9.30,0.38
34.04,-1.97,9.30,0.37
34.04,-1.97,9.30,0.41
34.04,-1.94,9.26,0.40
34.04,-1.95,9.24,0.45
34.05,-1.97,9.26,0.47
34.05,-1.93,9.22,0.48
34.05,-1.91,9.26,0.47
34.05,-1.91,9.20,0.49
34.06,-1.86,9.20,0.52
34.06,-1.87,9.17,0.57
34.06,-1.83,9.20,0.59
34.06,-1.82,9.19,0.57
34.07,-1.84,9.18,0.61
34.07,-1.77,9.22,0.62
34.07,-1.73,9.19,0.66
34.07,-1.70,9.17,0.73
34.08,-1.62,9.17,0.71
34.08,-1.60,9.20,0.69
34.08,-1.51,9.18,0.74
34.08,-1.46,9.22,0.76
34.09,-1.43,9.23,0.80
34.09,-1.36,9.25,0.74
34.09,-1.31,9.30,0.77
34.09,-1.26,9.28,0.76
34.10,-1.18,9.33,0.74
34.10,-1.11,9.34,0.78
34.10,-1.11,9.35,0.77
34.10,-1.07,9.36,0.76
34.11,-0.98,9.42,0.73
34.11,-0.95,9.42,0.76
34.11,-0.91,9.47,0.70
34.11,-0.87,9.45,0.72
34.12,-0.87,9.48,0.72
34.12,-0.86,9.52,0.74
34.12,-0.83,9.50,0.65
34.12,-0.77,9.54,0.70
34.13,-0.83,9.55,0.69
34.13,-0.73,9.54,0.65
34.13,-0.75,9.56,0.66
34.13,-0.84,9.51,0.60
34.14,-0.88,9.51,0.59
34.14,-0.91,9.50,0.59
34.14,-0.94,9.48,0.55
34.14,-1.04,9.48,0.54
34.15,-1.09,9.43,0.56
34.15,-1.12,9.40,0.51
34.15,-1.14,9.41,0.53
34.15,-1.24,9.37,0.53
34.16,-1.26,9.33,0.50
34.16,-1.31,9.29,0.55
34.16,-1.31,9.28,0.54
34.16,-1.38,9.26,0.54
34.17,-1.38,9.27,0.51
34.17,-1.40,9.24,0.58
34.17,-1.47,9.20,0.55
34.17,-1.50,9.20,0.52
34.18,-1.54,9.15,0.55
34.18,-1.56,9.14,0.61
34.18,-1.57,9.12,0.63
34.18,-1.62,9.10,0.63
34.19,-1.65,9.08,0.61
34.19,-1.63,9.06,0.62
34.19,-1.67,9.07,0.61
34.19,-1.70,9.08,0.63
34.20,-1.68,9.02,0.64
34.20,-1.70,9.02,0.64
34.20,-1.73,9.07,0.63
34.20,-1.71,9.06,0.66
34.21,-1.68,9.07,0.63
34.21,-1.68,9.10,0.65
34.21,-1.70,9.12,0.61
34.21,-1.69,9.13,0.60
34.22,-1.71,9.13,0.58
34.22,-1.72,9.14,0.62
34.22,-1.75,9.20,0.59
34.22,-1.75,9.17,0.57
34.23,-1.78,9.20,0.60
34.23,-1.74,9.24,0.56
34.23,-1.78,9.19,0.57
34.23,-1.75,9.22,0.56
34.24,-1.83,9.19,0.54
34.24,-1.85,9.20,0.52
34.24,-1.86,9.24,0.54
34.24,-1.90,9.21,0.53
34.25,-1.97,9.21,0.50
34.25,-1.94,9.21,0.44
34.25,-1.95,9.15,0.47
34.25,-1.98,9.16,0.49
34.26,-2.01,9.19,0.46
34.26,-2.04,9.14,0.47
34.26,-2.09,9.12,0.44
34.26,-2.08,9.14,0.46
34.27,-2.04,9.19,0.46
34.27,-2.05,9.11,0.47
34.27,-2.08,9.10,0.48
34.27,-2.09,9.06,0.43
34.28,-2.10,9.07,0.50
34.28,-2.11,9.07,0.46
34.28,-2.05,9.12,0.46
34.28,-2.12,9.08,0.44
34.29,-2.08,9.05,0.50
34.29,-2.06,9.06,0.52
34.29,-2.02,9.03,0.48
34.29,-1.97,9.04,0.50
34.30,-1.92,9.01,0.51
34.30,-1.87,9.01,0.55
34.30,-1.83,9.01,0.53
34.30,-1.78,9.00,0.54
34.31,-1.75,8.99,0.55
34.31,-1.74,8.99,0.52
34.31,-1.72,9.03,0.46
34.31,-1.66,9.03,0.50
34.32,-1.65,9.06,0.49
34.32,-1.63,9.07,0.53
34.32,-1.56,9.08,0.53
34.32,-1.57,9.13,0.53
34.33,-1.53,9.19,0.48
34.33,-1.47,9.24,0.48
34.33,-1.47,9.28,0.51
34.33,-1.50,9.29,0.51
34.34,-1.50,9.37,0.53
34.34,-1.50,9.45,0.52
34.34,-1.51,9.49,0.53
34.34,-1.50,9.56,0.51
34.35,-1.48,9.59,0.54
34.35,-1.49,9.61,0.53
34.35,-1.60,9.68,0.52
34.35,-1.57,9.69,0.49
34.36,-1.57,9.70,0.49
34.36,-1.58,9.76,0.48
34.36,-1.62,9.74,0.45
34.36,-1.63,9.70,0.46
34.37,-1.62,9.72,0.50
34.37,-1.73,9.74,0.51
34.37,-1.75,9.70,0.51
34.37,-1.71,9.71,0.50
34.38,-1.74,9.67,0.53
34.38,-1.74,9.64,0.55
34.38,-1.78,9.60,0.55
34.38,-1.77,9.57,0.56
34.39,-1.77,9.55,0.56
34.39,-1.77,9.50,0.58
34.39,-1.85,9.46,0.54
34.39,-1.90,9.41,0.48
34.40,-1.88,9.39,0.54
34.40,-1.91,9.36,0.54
34.40,-1.99,9.37,0.57
34.40,-2.04,9.35,0.59
34.41,-2.00,9.32,0.58
34.41,-2.01,9.26,0.59
34.41,-2.06,9.26,0.59
34.41,-2.13,9.22,0.56
34.42,-2.16,9.16,0.52
34.42,-2.17,9.10,0.57
34.42,-2.21,9.05,0.54
34.42,-2.21,9.00,0.61
34.43,-2.22,9.02,0.56
34.43,-2.26,9.00,0.54
34.43,-2.26,8.99,0.58
34.43,-2.27,8.98,0.54
34.44,-2.25,8.99,0.55
34.44,-2.25,8.97,0.57
34.44,-2.23,8.95,0.56
34.44,-2.22,8.98,0.53
34.45,-2.26,8.96,0.56
34.45,-2.31,8.99,0.61
34.45,-2.27,8.99,0.59
34.45,-2.29,8.98,0.60
34.46,-2.26,8.94,0.59
34.46,-2.27,8.94,0.58
34.46,-2.23,8.98,0.62
34.46,-2.20,9.00,0.65
34.47,-2.18,9.00,0.66
34.47,-2.23,8.97,0.63
34.47,-2.23,8.99,0.61
34.47,-2.22,8.98,0.63
34.48,-2.18,8.99,0.63
34.48,-2.16,9.00,0.60
34.48,-2.18,8.99,0.64
34.48,-2.17,9.04,0.62
34.49,-2.18,9.04,0.63
34.49,-2.18,9.05,0.61
34.49,-2.18,9.14,0.60
34.49,-2.18,9.13,0.61
34.50,-2.19,9.13,0.60
34.50,-2.24,9.15,0.61
34.50,-2.18,9.17,0.57
34.50,-2.22,9.20,0.55
34.51,-2.23,9.15,0.59
34.51,-2.22,9.17,0.63
34.51,-2.19,9.11,0.57
34.51,-2.16,9.13,0.58
34.52,-2.14,9.13,0.59
34.52,-2.15,9.11,0.60
34.52,-2.13,9.09,0.59
34.52,-2.11,9.05,0.53
34.53,-2.16,9.01,0.63
34.53,-2.13,9.01,0.62
34.53,-2.09,9.02,0.65
34.53,-2.14,8.98,0.62
34.54,-2.15,9.00,0.65
34.54,-2.13,8.97,0.60
34.54,-2.12,8.96,0.55
34.54,-2.17,8.94,0.59
34.55,-2.16,8.94,0.56
34.55,-2.21,8.92,0.57
34.55,-2.17,8.91,0.51
34.55,-2.19,8.90,0.52
34.56,-2.22,8.90,0.53
34.56,-2.22,8.93,0.54
34.56,-2.22,8.93,0.54
34.56,-2.21,8.96,0.55
34.57,-2.15,8.96,0.60
34.57,-2.15,8.93,0.59
34.57,-2.19,8.88,0.61
34.57,-2.23,8.85,0.55
34.58,-2.28,8.93,0.55
34.58,-2.35,8.91,0.56
34.58,-2.32,8.89,0.56
34.58,-2.32,8.89,0.61
34.59,-2.33,8.86,0.58
34.59,-2.39,8.87,0.58
34.59,-2.39,8.88,0.59
34.59,-2.41,8.83,0.51
34.60,-2.45,8.83,0.46
34.60,-2.42,8.87,0.46
34.60,-2.46,8.86,0.44
34.60,-2.48,8.90,0.38
34.61,-2.48,8.93,0.28
34.61,-2.53,8.94,0.31
34.61,-2.60,8.91,0.29
34.61,-2.53,8.96,0.29
34.62,-2.57,8.98,0.23
34.62,-2.64,9.00,0.19
34.62,-2.67,9.05,0.20
34.62,-2.70,9.02,0.18
34.63,-2.75,9.04,0.15
34.63,-2.82,9.06,0.16
34.63,-2.86,8.99,0.07
34.63,-2.90,9.01,0.08
34.64,-2.97,9.05,0.11
34.64,-3.03,9.07,0.06
34.64,-3.08,9.06,0.11
34.64,-3.09,9.02,0.11
34.65,-3.16,8.99,0.08
34.65,-3.25,8.95,0.05
34.65,-3.27,8.90,0.11
34.65,-3.29,8.93,0.11
34.66,-3.33,8.88,0.12
34.66,-3.36,8.86,0.14
34.66,-3.31,8.81,0.17
34.66,-3.33,8.81,0.21
34.67,-3.32,8.73,0.20
34.67,-3.26,8.75,0.24
34.67,-3.17,8.72,0.30
34.67,-3.15,8.65,0.34
34.68,-3.08,8.66,0.39
34.68,-3.04,8.62,0.46
34.68,-2.94,8.60,0.54
34.68,-2.83,8.61,0.59
34.69,-2.79,8.59,0.65
34.69,-2.63,8.62,0.66
34.69,-2.49,8.63,0.68
34.69,-2.42,8.62,0.76
34.70,-2.28,8.64,0.83
34.70,-2.20,8.68,0.85
34.70,-2.10,8.75,0.85
34.70,-1.87,8.79,0.95
34.71,-1.82,8.84,1.00
34.71,-1.73,8.98,1.02
34.71,-1.62,8.97,1.07
34.71,-1.47,9.02,1.14
34.72,-1.40,9.11,1.13
34.72,-1.22,9.19,1.18
34.72,-1.15,9.24,1.25
34.72,-1.01,9.27,1.26
34.73,-0.89,9.38,1.28
34.73,-0.74,9.45,1.29
34.73,-0.62,9.48,1.25
34.73,-0.52,9.56,1.27
34.74,-0.46,9.61,1.24
34.74,-0.37,9.68,1.28
34.74,-0.31,9.72,1.27
34.74,-0.26,9.78,1.31
34.75,-0.17,9.83,1.35
34.75,-0.08,9.89,1.30
34.75,-0.01,9.88,1.25
34.75,-0.05,9.93,1.33
34.76,0.03,9.97,1.28
34.76,0.08,10.02,1.27
34.76,0.08,10.05,1.25
34.76,0.14,10.08,1.26
34.77,0.17,10.14,1.25
34.77,0.18,10.12,1.20
34.77,0.18,10.11,1.22
34.77,0.21,10.10,1.20
34.78,0.28,10.04,1.19
34.78,0.25,10.00,1.21
34.78,0.26,9.98,1.22
34.78,0.24,9.96,1.23
34.79,0.24,9.91,1.21
34.79,0.26,9.82,1.25
34.79,0.29,9.85,1.23
34.79,0.28,9.86,1.31
34.80,0.26,9.86,1.31
34.80,0.26,9.82,1.23
34.80,0.21,9.75,1.23
34.80,0.14,9.71,1.25
34.81,0.00,9.65,1.23
34.81,-0.08,9.57,1.25
34.81,-0.11,9.52,1.23
34.81,-0.20,9.49,1.22
34.82,-0.22,9.44,1.29
34.82,-0.33,9.45,1.25
34.82,-0.33,9.47,1.31
34.82,-0.36,9.43,1.32
34.83,-0.47,9.39,1.32
34.83,-0.53,9.39,1.35
34.83,-0.55,9.39,1.38
34.83,-0.59,9.37,1.35
34.84,-0.61,9.32,1.39
34.84,-0.68,9.27,1.41
34.84,-0.69,9.24,1.38
34.84,-0.77,9.18,1.40
34.85,-0.81,9.21,1.35
34.85,-0.83,9.12,1.34
34.85,-0.89,9.02,1.35
34.85,-0.87,9.02,1.33
34.86,-0.92,8.96,1.31
34.86,-0.94,8.88,1.28
34.86,-0.97,8.82,1.21
34.86,-1.05,8.82,1.28
34.87,-1.12,8.77,1.22
34.87,-1.12,8.73,1.14
34.87,-1.12,8.71,1.19
34.87,-1.18,8.76,1.21
34.88,-1.23,8.68,1.14
34.88,-1.26,8.67,1.05
34.88,-1.25,8.64,1.11
34.88,-1.27,8.62,1.11
34.89,-1.29,8.63,1.13
34.89,-1.27,8.66,1.09
34.89,-1.29,8.65,1.09
34.89,-1.24,8.68,1.09
34.90,-1.29,8.73,1.08
34.90,-1.31,8.74,1.04
34.90,-1.31,8.84,0.99
34.90,-1.32,8.80,0.99
34.91,-1.32,8.86,0.96
34.91,-1.31,8.98,0.93
34.91,-1.40,9.02,0.90
34.91,-1.46,9.05,0.86
34.92,-1.47,9.10,0.81
34.92,-1.58,9.05,0.78
34.92,-1.73,9.11,0.74
34.92,-1.75,9.17,0.77
34.93,-1.86,9.19,0.74
34.93,-1.92,9.20,0.69
34.93,-2.01,9.23,0.69
34.93,-2.07,9.27,0.71
34.94,-2.11,9.31,0.67
34.94,-2.20,9.35,0.65
34.94,-2.24,9.32,0.72
34.94,-2.30,9.35,0.72
34.95,-2.33,9.34,0.74
34.95,-2.40,9.37,0.75
34.95,-2.46,9.37,0.80
34.95,-2.48,9.36,0.80
34.96,-2.48,9.36,0.82
34.96,-2.54,9.36,0.78
34.96,-2.63,9.32,0.78
34.96,-2.62,9.33,0.80
34.97,-2.64,9.32,0.78
34.97,-2.66,9.30,0.84
34.97,-2.64,9.30,0.80
34.97,-2.68,9.33,0.79
34.98,-2.72,9.34,0.79
34.98,-2.68,9.32,0.82
34.98,-2.68,9.31,0.83
34.98,-2.70,9.32,0.87
34.99,-2.64,9.27,1.00
34.99,-2.63,9.21,0.96
34.99,-2.61,9.21,0.96
34.99,-2.55,9.24,1.01
35.00,-2.49,9.19,1.00
35.00,-2.46,9.18,1.00
35.00,-2.43,9.21,1.02
35.00,-2.39,9.23,1.01
35.01,-2.30,9.24,1.03
35.01,-2.24,9.24,1.02
35.01,-2.21,9.28,1.08
35.01,-2.17,9.28,1.09
35.02,-2.07,9.30,1.10
35.02,-2.06,9.33,1.16
35.02,-2.01,9.32,1.18
35.02,-1.97,9.33,1.22
35.03,-1.92,9.36,1.26
35.03,-1.89,9.38,1.19
35.03,-1.88,9.36,1.20
35.03,-1.92,9.39,1.23
35.04,-1.85,9.39,1.25
35.04,-1.82,9.41,1.20
35.04,-1.85,9.43,1.23
35.04,-1.85,9.43,1.27
35.05,-1.78,9.43,1.29
35.05,-1.75,9.48,1.21
35.05,-1.78,9.45,1.21
35.05,-1.75,9.45,1.26
35.06,-1.71,9.47,1.24
35.06,-1.64,9.50,1.28
35.06,-1.61,9.51,1.23
35.06,-1.61,9.51,1.27
35.07,-1.55,9.45,1.25
35.07,-1.54,9.48,1.27
35.07,-1.54,9.48,1.26
35.07,-1.56,9.50,1.28
35.08,-1.49,9.45,1.27
35.08,-1.46,9.42,1.29
35.08,-1.44,9.43,1.25
35.08,-1.40,9.47,1.29
35.09,-1.35,9.45,1.35
35.09,-1.26,9.44,1.35
35.09,-1.17,9.43,1.32
35.09,-1.15,9.43,1.38
35.10,-1.10,9.38,1.40
35.10,-1.01,9.38,1.35
35.10,-0.96,9.37,1.33
35.10,-0.93,9.34,1.35
35.11,-0.92,9.31,1.32
35.11,-0.91,9.30,1.36
35.11,-0.87,9.28,1.31
35.11,-0.87,9.26,1.30
35.12,-0.84,9.22,1.35
35.12,-0.87,9.23,1.33
35.12,-0.90,9.23,1.29
35.12,-0.86,9.23,1.30
35.13,-0.86,9.20,1.34
35.13,-0.87,9.18,1.24
35.13,-0.93,9.19,1.27
35.13,-0.93,9.18,1.30
35.14,-0.93,9.17,1.29
35.14,-0.91,9.14,1.24
35.14,-0.84,9.13,1.19
35.14,-0.89,9.13,1.25
35.15,-0.92,9.12,1.25
35.15,-0.97,9.11,1.27
35.15,-0.98,9.08,1.23
35.15,-1.02,9.10,1.15
35.16,-1.01,9.13,1.19
35.16,-1.06,9.11,1.23
35.16,-1.07,9.12,1.25
35.16,-1.05,9.10,1.23
35.17,-1.09,9.14,1.23
35.17,-1.14,9.15,1.33
35.17,-1.14,9.17,1.34
35.17,-1.11,9.16,1.32
35.18,-1.10,9.17,1.29
35.18,-1.08,9.20,1.33
35.18,-1.06,9.15,1.35
35.18,-1.02,9.20,1.30
35.19,-1.01,9.17,1.41
35.19,-1.00,9.20,1.42
35.19,-0.97,9.23,1.34
35.19,-0.95,9.24,1.32
35.20,-0.93,9.24,1.46
35.20,-0.87,9.22,1.44
35.20,-0.89,9.24,1.48
35.20,-0.86,9.25,1.52
35.21,-0.86,9.27,1.50
35.21,-0.85,9.28,1.52
35.21,-0.84,9.30,1.53
35.21,-0.83,9.32,1.53
35.22,-0.84,9.33,1.56
35.22,-0.86,9.33,1.56
35.22,-0.85,9.34,1.56
35.22,-0.84,9.33,1.49
35.23,-0.81,9.33,1.47
35.23,-0.81,9.32,1.49
35.23,-0.80,9.33,1.47
35.23,-0.79,9.37,1.47
35.24,-0.80,9.38,1.41
35.24,-0.85,9.38,1.39
35.24,-0.88,9.38,1.37
35.24,-0.91,9.37,1.34
35.25,-0.94,9.39,1.32
35.25,-1.03,9.42,1.36
35.25,-1.01,9.39,1.37
35.25,-1.04,9.37,1.28
35.26,-1.04,9.40,1.25
35.26,-1.11,9.44,1.26
35.26,-1.12,9.44,1.23
35.26,-1.16,9.42,1.23
35.27,-1.22,9.39,1.19
35.27,-1.25,9.34,1.23
35.27,-1.26,9.37,1.20
35.27,-1.32,9.35,1.25
35.28,-1.34,9.32,1.23
35.28,-1.37,9.33,1.27
35.28,-1.41,9.24,1.23
35.28,-1.44,9.24,1.30
35.29,-1.44,9.22,1.34
35.29,-1.51,9.18,1.33
35.29,-1.51,9.16,1.34
35.29,-1.55,9.13,1.31
35.30,-1.56,9.12,1.34
35.30,-1.56,9.09,1.35
35.30,-1.56,9.10,1.36
35.30,-1.61,9.08,1.40
35.31,-1.62,9.06,1.43
35.31,-1.62,9.03,1.38
35.31,-1.62,8.99,1.43
35.31,-1.56,8.99,1.50
35.32,-1.42,8.97,1.42
35.32,-1.51,9.02,1.46
35.32,-1.64,9.02,1.44
35.32,-1.74,9.06,1.47
35.33,-1.79,9.07,1.49
35.33,-1.91,9.06,1.46
35.33,-1.96,9.09,1.49
35.33,-2.05,9.06,1.49
35.34,-1.99,9.03,1.51
35.34,-1.91,9.04,1.61
35.34,-1.83,9.06,1.60
35.34,-1.76,9.05,1.56
35.35,-1.72,9.05,1.56
35.35,-1.71,9.08,1.52
35.35,-1.72,9.06,1.49
35.35,-1.71,9.09,1.42
35.36,-1.68,9.09,1.47
35.36,-1.67,9.06,1.46
35.36,-1.69,9.11,1.44
35.36,-1.68,9.14,1.51
35.37,-1.66,9.09,1.48
35.37,-1.60,9.11,1.47
35.37,-1.51,9.11,1.48
35.37,-1.46,9.09,1.47
35.38,-1.48,9.17,1.47
35.38,-1.50,9.14,1.43
35.38,-1.55,9.13,1.42
35.38,-1.53,9.09,1.38
35.39,-1.53,9.12,1.35
35.39,-1.50,9.17,1.35