"Time (s)","Gyroscope x (rad/s)","Gyroscope y (rad/s)","Gyroscope z (rad/s)"
5.606922500E-2,-1.129413366E0,-3.320863843E-1,5.086487532E-1
5.853526700E-2,-1.108108640E0,-3.235645294E-1,5.459319353E-1
6.100130800E-2,-1.088934422E0,-3.034582436E-1,5.853455663E-1
6.346735000E-2,-1.067629814E0,-2.725664973E-1,6.215634942E-1
6.593339200E-2,-1.043129444E0,-2.363485843E-1,6.631075740E-1
6.839943300E-2,-1.025020480E0,-1.969349533E-1,7.035863996E-1
7.086547500E-2,-1.009042025E0,-1.639127284E-1,7.419347763E-1
7.333151700E-2,-9.962592125E-1,-1.468690038E-1,7.780195475E-1
7.579755800E-2,-9.834764004E-1,-1.202381775E-1,8.046503663E-1
7.826360000E-2,-9.728240371E-1,-7.123745978E-2,8.312812448E-1
8.072964200E-2,-9.664326906E-1,-1.264964230E-2,8.674991727E-1
8.319568300E-2,-9.600412846E-1,5.232957378E-2,9.047822952E-1
8.566172500E-2,-9.515193701E-1,1.205044836E-1,9.431306720E-1
8.810813100E-2,-9.429975152E-1,1.854836941E-1,9.868052602E-1
9.057448500E-2,-9.312799573E-1,2.525933683E-1,1.031545043E0
9.304089200E-2,-9.153015018E-1,3.185046613E-1,1.075219631E0
9.550724600E-2,-9.025186896E-1,3.866795897E-1,1.117828846E0
9.798052700E-2,-8.833444715E-1,4.537892640E-1,1.163633943E0
1.004470890E-1,-8.641703129E-1,5.177032351E-1,1.201982260E0
1.029136520E-1,-8.418003917E-1,5.858781338E-1,1.238200188E0
1.053802140E-1,-8.173000216E-1,6.583139896E-1,1.273352981E0
1.078467250E-1,-7.927996516E-1,7.169018388E-1,1.306375146E0
1.103132870E-1,-7.629731297E-1,7.637720704E-1,1.327679753E0
1.127798500E-1,-7.342118621E-1,7.978595495E-1,1.340462565E0
1.152464120E-1,-7.097114921E-1,8.287512660E-1,1.337266922E0
1.177163600E-1,-6.884068251E-1,8.308817744E-1,1.314897060E0
1.201830270E-1,-6.734935641E-1,8.053161502E-1,1.275483370E0
1.226496420E-1,-6.564498544E-1,7.967942953E-1,1.227547884E0
1.251163080E-1,-6.298190355E-1,8.298165202E-1,1.183873296E0
1.275829230E-1,-6.021229625E-1,8.766867518E-1,1.148720622E0
1.300495890E-1,-5.786878467E-1,9.042496681E-1,1.126350760E0
1.325162040E-1,-5.744268894E-1,7.904028893E-1,1.076284766E0
1.349828710E-1,-6.053186655E-1,5.528559685E-1,9.921314120E-1
1.374453710E-1,-6.362104416E-1,4.750939310E-1,9.367392659E-1
1.399119330E-1,-6.553846002E-1,4.644415975E-1,9.026518464E-1
1.423784440E-1,-6.702978611E-1,4.431369305E-1,8.738905191E-1
1.448450060E-1,-6.820154190E-1,4.133104086E-1,8.547163606E-1
1.473115170E-1,-6.873416305E-1,3.930709958E-1,8.408682942E-1
1.497780790E-1,-6.830806732E-1,3.930709958E-1,8.312812448E-1
1.522445890E-1,-6.724283695E-1,4.037233293E-1,8.270202875E-1
1.547111520E-1,-6.532541513E-1,4.069190025E-1,8.280855417E-1
1.571810480E-1,-6.308842301E-1,4.037233293E-1,8.334116936E-1
1.596476620E-1,-6.085143685E-1,3.877448142E-1,8.504554033E-1
1.621143290E-1,-5.861444473E-1,3.643096983E-1,8.696296215E-1
1.645809440E-1,-5.616441369E-1,3.462007344E-1,8.919994831E-1
1.670475580E-1,-5.382089615E-1,3.430050313E-1,9.164998531E-1
1.695141730E-1,-5.234288573E-1,3.472659588E-1,9.346088171E-1
1.719807870E-1,-5.095808506E-1,3.589835167E-1,9.495220780E-1
1.744474020E-1,-4.999937415E-1,3.643096983E-1,9.601744413E-1
1.769328190E-1,-4.904066622E-1,3.675054014E-1,9.601744413E-1
1.793999020E-1,-4.840152562E-1,3.653749228E-1,9.505873322E-1
1.818669850E-1,-4.808195531E-1,3.675054014E-1,9.399349689E-1
1.843340690E-1,-4.765586257E-1,3.632444739E-1,9.303479195E-1
1.868011520E-1,-4.754934013E-1,3.462007344E-1,9.324783683E-1
1.892682870E-1,-4.733629227E-1,3.195699155E-1,9.431306720E-1
1.917353710E-1,-4.722976983E-1,2.972000241E-1,9.548482299E-1
1.942024540E-1,-4.722976983E-1,2.813546658E-1,9.676310420E-1
1.966644850E-1,-4.701672196E-1,2.717675865E-1,9.729571939E-1
1.991314640E-1,-4.669715166E-1,2.664414048E-1,9.750877023E-1
2.015984440E-1,-4.669715166E-1,2.685718834E-1,9.676310420E-1
2.040654230E-1,-4.627105892E-1,2.738980353E-1,9.591091871E-1
2.065323500E-1,-4.531235099E-1,2.824199200E-1,9.463263750E-1
2.089993290E-1,-4.392754734E-1,2.866808474E-1,9.314131141E-1
2.114663080E-1,-4.222317338E-1,2.929390669E-1,9.143694043E-1
2.139332870E-1,-4.019923210E-1,3.014609516E-1,8.951951861E-1
2.164069330E-1,-3.774919510E-1,3.174394369E-1,8.781514764E-1
2.188740690E-1,-3.561872840E-1,3.334179223E-1,8.579120636E-1
2.213412040E-1,-3.306216896E-1,3.525921404E-1,8.387378454E-1
2.238083390E-1,-3.018604219E-1,3.611139953E-1,8.142374754E-1
2.262754750E-1,-2.762948275E-1,3.653749228E-1,7.865414619E-1
2.287426100E-1,-2.496639937E-1,3.696358502E-1,7.589785457E-1
2.312097460E-1,-2.240983993E-1,3.675054014E-1,7.280867696E-1
2.336768810E-1,-2.017285079E-1,3.515268862E-1,6.982602477E-1
2.361368810E-1,-1.750976741E-1,3.302222490E-1,6.673684716E-1
2.386038600E-1,-1.442059278E-1,2.908086181E-1,6.343462467E-1
2.410707870E-1,-1.197055578E-1,2.515281439E-1,6.023892760E-1
2.435377670E-1,-1.005313694E-1,2.142449915E-1,5.693670511E-1
2.460047460E-1,-8.242240548E-2,1.716356725E-1,5.363448262E-1
2.484716730E-1,-6.431344151E-2,1.258306503E-1,5.011921525E-1
2.509386520E-1,-5.046541616E-2,8.002562821E-2,4.692351520E-1
2.534055790E-1,-3.555215150E-2,4.274247587E-2,4.362129271E-1
2.558719330E-1,-2.489982173E-2,1.611164957E-2,4.063864052E-1
2.583389120E-1,-1.957365684E-2,1.198387123E-3,3.765598834E-1
2.608058390E-1,-1.744319126E-2,-1.264964230E-2,3.477985859E-1
2.632727670E-1,-1.424749196E-2,-1.584534161E-2,3.211677670E-1
2.657397460E-1,-9.986559860E-3,-1.997311832E-3,3.019935489E-1
2.682066730E-1,-1.318225823E-2,1.398118306E-2,2.849498391E-1
2.706736000E-1,-1.531272475E-2,4.061200842E-2,2.764279842E-1
2.731405270E-1,-2.276935615E-2,7.469946891E-2,2.721670270E-1
2.756075580E-1,-3.235645220E-2,1.162435561E-1,2.679060996E-1
2.780745370E-1,-4.620448127E-2,1.620485783E-1,2.700365782E-1
2.805414640E-1,-6.111774594E-2,2.014621943E-1,2.764279842E-1
2.830083920E-1,-7.283531129E-2,2.238320857E-1,2.881455421E-1
2.854753710E-1,-8.561810106E-2,2.355496585E-1,2.924064696E-1
2.879422980E-1,-9.733566642E-2,2.472672164E-1,3.009283245E-1
2.904092250E-1,-1.069227681E-1,2.589847744E-1,3.083849549E-1
2.928762040E-1,-1.175750941E-1,2.707023323E-1,3.115806580E-1
2.953428710E-1,-1.282274276E-1,2.834851444E-1,3.137111366E-1
2.978098500E-1,-1.335535944E-1,2.950695455E-1,3.147763610E-1
3.002767770E-1,-1.410102248E-1,3.067871034E-1,3.115806580E-1
3.027437040E-1,-1.484668553E-1,3.174394369E-1,3.073197305E-1
3.052106310E-1,-1.463363916E-1,3.355484009E-1,3.041240275E-1
3.076775580E-1,-1.452711523E-1,3.536573648E-1,2.977326214E-1
3.101445370E-1,-1.420754492E-1,3.653749228E-1,2.881455421E-1
3.126114640E-1,-1.378145218E-1,3.749620318E-1,2.785584331E-1
3.150746420E-1,-1.282274276E-1,3.802881837E-1,2.689713240E-1
3.175414640E-1,-1.165098622E-1,3.877448142E-1,2.615146935E-1
3.200083390E-1,-1.079879999E-1,3.941362202E-1,2.529928386E-1
3.224751620E-1,-9.413997084E-2,3.962666988E-1,2.380795777E-1
3.249420370E-1,-7.709623873E-2,3.994623721E-1,2.199706137E-1
3.274088600E-1,-5.898727849E-2,4.005276263E-1,2.061225921E-1
3.298756830E-1,-4.194355011E-2,3.952014446E-1,1.869483888E-1
3.323425580E-1,-1.318225823E-2,4.069190025E-1,1.519288570E-1
3.348468290E-1,6.884068251E-2,4.974638224E-1,1.344856713E-2
3.373145890E-1,2.082530558E-1,6.103785038E-1,-2.400768995E-1
3.397824020E-1,3.318201005E-1,5.922695398E-1,-5.019910336E-1
3.422501620E-1,4.234301150E-1,4.623111188E-1,-6.745588183E-1
3.447179230E-1,5.001268983E-1,3.174394369E-1,-7.480598688E-1
3.471857350E-1,5.693670511E-1,1.695052087E-1,-7.565817833E-1
3.496534960E-1,6.077154279E-1,3.315537795E-2,-7.278204560E-1
3.521213080E-1,6.130415797E-1,-7.017222792E-2,-6.873416305E-1
3.545873500E-1,6.002588272E-1,-1.106510833E-1,-6.713631153E-1
3.570533920E-1,5.800193548E-1,-7.230269164E-2,-6.905373335E-1
3.595194330E-1,5.555190444E-1,2.037258074E-2,-7.342118621E-1
3.619854750E-1,5.310186744E-1,1.300915778E-1,-7.789516449E-1
3.644515170E-1,4.948007464E-1,2.067883611E-1,-8.034520149E-1
3.669175580E-1,4.468652606E-1,2.344844192E-1,-7.981258631E-1
3.693836000E-1,3.765598834E-1,2.270277888E-1,-7.704297900E-1
3.718496420E-1,2.987978756E-1,1.950708032E-1,-7.299509048E-1
3.743156830E-1,2.221010923E-1,1.695052087E-1,-6.937330365E-1
3.767817250E-1,1.464695334E-1,1.684399694E-1,-6.607108116E-1
3.792477670E-1,7.722939551E-2,1.908098608E-1,-6.404713392E-1
3.817138080E-1,1.983996481E-2,2.238320857E-1,-6.287537813E-1
3.841798500E-1,-3.129122034E-2,2.557890713E-1,-6.255580783E-1
3.866458920E-1,-7.390054315E-2,2.813546658E-1,-6.181014776E-1
3.891119330E-1,-1.154446304E-1,2.972000241E-1,-6.085143685E-1
3.915779750E-1,-1.537930220E-1,2.972000241E-1,-5.978620052E-1
3.940440170E-1,-1.814890802E-1,2.888112962E-1,-5.850792527E-1
3.965100580E-1,-2.123808414E-1,2.707023323E-1,-5.733616948E-1
3.989761000E-1,-2.368811965E-1,2.504629195E-1,-5.637745857E-1
4.014421420E-1,-2.560553849E-1,2.238320857E-1,-5.584484339E-1
4.039081830E-1,-2.688381970E-1,2.003969699E-1,-5.509917736E-1
4.063742250E-1,-2.752295732E-1,1.833532304E-1,-5.499265194E-1
4.088402670E-1,-2.730991244E-1,1.524614692E-1,-5.424699187E-1
4.113063080E-1,-2.454030514E-1,1.055912226E-1,-5.169043541E-1
4.137678710E-1,-1.942718774E-1,5.339480564E-2,-4.838820994E-1
4.162352140E-1,-1.292926520E-1,-4.127778113E-3,-4.423380196E-1
4.187025060E-1,-4.194355011E-2,-7.336792350E-2,-3.956009150E-1
4.211698500E-1,6.457975507E-2,-1.255643368E-1,-3.487306535E-1
4.236371420E-1,1.773612946E-1,-1.500647068E-1,-3.093170524E-1
4.261044330E-1,2.785584331E-1,-1.394123733E-1,-2.762948275E-1
4.285717770E-1,3.669727743E-1,-9.147688746E-2,-2.592510879E-1
4.310391210E-1,4.404738545E-1,-2.862813696E-2,-2.549901605E-1
4.335051620E-1,5.065183043E-1,2.250304818E-2,-2.571206093E-1
4.359712040E-1,5.619103909E-1,5.232957378E-2,-2.667077184E-1
4.384372460E-1,6.173025370E-1,6.085143611E-2,-2.880123854E-1
4.409032870E-1,6.726946831E-1,5.978620425E-2,-3.114475012E-1
4.433693290E-1,7.183665037E-1,5.552527308E-2,-3.402087986E-1
4.458353710E-1,7.609758377E-1,4.487293959E-2,-3.700353205E-1
4.483014120E-1,7.993242145E-1,3.422060981E-2,-3.987966180E-1
4.507674540E-1,8.334116936E-1,3.209014609E-2,-4.243622124E-1
4.532218810E-1,8.611077666E-1,4.061200842E-2,-4.434032440E-1
4.556888080E-1,8.824124336E-1,4.593817517E-2,-4.604469836E-1
4.581556830E-1,8.962604403E-1,4.806863889E-2,-4.753602445E-1
4.606226100E-1,9.047822952E-1,5.126433820E-2,-4.870778024E-1
4.630894850E-1,9.047822952E-1,5.339480564E-2,-5.041215420E-1
4.655564120E-1,8.983908892E-1,4.593817517E-2,-5.200999975E-1
4.680232870E-1,8.834776282E-1,2.569874749E-2,-5.350132585E-1
4.704902140E-1,8.621729612E-1,3.328853287E-3,-5.595136285E-1
4.729595890E-1,8.376725912E-1,-1.904104091E-2,-5.808182955E-1
4.754265690E-1,8.089113235E-1,-4.780233279E-2,-5.999925137E-1
4.778935480E-1,7.769543529E-1,-7.656362653E-2,-6.181014776E-1
4.803604750E-1,7.460625768E-1,-9.786828607E-2,-6.362104416E-1
4.828274540E-1,7.162360549E-1,-1.234338731E-1,-6.532541513E-1
4.852944330E-1,6.844122410E-1,-1.543256342E-1,-6.564498544E-1
4.877614120E-1,6.545857191E-1,-1.766955256E-1,-6.628412604E-1
4.902283390E-1,6.236939430E-1,-1.990654171E-1,-6.692326665E-1
4.926924540E-1,5.959978700E-1,-2.075872868E-1,-6.702978611E-1
4.951593810E-1,5.714974999E-1,-2.107829899E-1,-6.724283695E-1
4.976262560E-1,5.491276383E-1,-2.097177505E-1,-6.798849702E-1
5.000931310E-1,5.331491232E-1,-1.958697289E-1,-6.894720793E-1
5.025600060E-1,5.193011165E-1,-1.809564531E-1,-7.033200860E-1
5.050269330E-1,5.043878555E-1,-1.532603949E-1,-7.224943042E-1
5.074938080E-1,4.969311953E-1,-1.223686412E-1,-7.437989712E-1
5.099606830E-1,4.990616739E-1,-9.041165560E-2,-7.608426809E-1
5.124296420E-1,5.043878555E-1,-6.378082931E-2,-7.757559419E-1
5.148966210E-1,5.129097104E-1,-3.928046674E-2,-7.896040082E-1
5.173635480E-1,5.256925225E-1,-1.904104091E-2,-8.013215661E-1
5.198304750E-1,5.374100804E-1,-1.997311832E-3,-8.162348270E-1
5.222974540E-1,5.459319353E-1,1.398118306E-2,-8.290175796E-1
5.247643810E-1,5.459319353E-1,2.995967865E-2,-8.396699429E-1
5.272313080E-1,5.363448262E-1,4.167724028E-2,-8.492570519E-1
5.296982870E-1,5.171706080E-1,5.232957378E-2,-8.599093556E-1
5.321615170E-1,4.809527099E-1,4.593817517E-2,-8.694964647E-1
5.346283920E-1,4.362129271E-1,3.209014609E-2,-8.758878708E-1
5.370952140E-1,3.808208108E-1,2.250304818E-2,-8.769530654E-1
5.395620890E-1,3.147763610E-1,1.185071748E-2,-8.716269135E-1
5.420289120E-1,2.487319112E-1,5.459319334E-3,-8.620398045E-1
5.444957870E-1,1.677742004E-1,1.291595027E-2,-8.492570519E-1
5.469626100E-1,7.935985923E-2,4.380770773E-2,-8.300828338E-1
5.494294850E-1,-7.856093347E-3,5.446003750E-2,-8.098434210E-1
5.518962040E-1,-9.946613014E-2,6.298190355E-2,-7.906692028E-1
5.543630790E-1,-1.953371018E-1,8.748225868E-2,-7.714950442E-1
5.568299020E-1,-2.805557549E-1,1.119826213E-1,-7.448641658E-1
5.592967250E-1,-3.540568352E-1,1.364829838E-1,-7.203638554E-1
5.617636000E-1,-4.158403277E-1,1.620485783E-1,-7.001243830E-1
5.642304230E-1,-4.701672196E-1,1.737661362E-1,-6.788197160E-1
5.666972980E-1,-5.159722567E-1,1.790923029E-1,-6.628412604E-1
5.691641210E-1,-5.552527308E-1,1.727008969E-1,-6.532541513E-1
5.716304750E-1,-5.733616948E-1,1.513962448E-1,-6.468627453E-1
5.740972980E-1,-5.893401504E-1,1.364829838E-1,-6.457974911E-1
5.765641210E-1,-6.053186655E-1,1.226349548E-1,-6.479279995E-1
5.790309960E-1,-6.106448174E-1,9.813459218E-2,-6.596455574E-1
5.814978190E-1,-6.085143685E-1,7.576470077E-2,-6.713631153E-1
5.839646420E-1,-6.021229625E-1,5.446003750E-2,-6.820154190E-1
5.864314640E-1,-5.914706588E-1,3.528584540E-2,-7.001243830E-1
5.888983390E-1,-5.733616948E-1,1.504641678E-2,-7.150376439E-1
5.913681830E-1,-5.446003675E-1,-1.264964230E-2,-7.246247530E-1
5.938351100E-1,-5.063851476E-1,-3.288906813E-2,-7.320814133E-1
5.963020370E-1,-4.680367708E-1,-4.886756465E-2,-7.395380139E-1
5.987689120E-1,-4.211665094E-1,-7.017222792E-2,-7.416685224E-1
6.012358390E-1,-3.700353205E-1,-8.402025700E-2,-7.480598688E-1
6.037027670E-1,-3.306216896E-1,-8.402025700E-2,-7.427337170E-1
6.061696940E-1,-2.954690158E-1,-7.549838722E-2,-7.342118621E-1
6.086365690E-1,-2.677729428E-1,-5.951989442E-2,-7.288857102E-1
6.111035480E-1,-2.485987544E-1,-4.247616604E-2,-7.267552018E-1
6.135704750E-1,-2.336854935E-1,-3.715000302E-2,-7.192986012E-1
6.160374020E-1,-2.209026963E-1,-3.288906813E-2,-7.065157890E-1
6.185042770E-1,-2.081198990E-1,-1.584534161E-2,-6.862763762E-1
6.209712040E-1,-1.953371018E-1,2.263620263E-3,-6.660369635E-1
6.234381310E-1,-1.729672104E-1,1.504641678E-2,-6.489931941E-1
6.259050580E-1,-1.569887102E-1,3.102491237E-2,-6.287537813E-1
6.283719330E-1,-1.314231306E-1,4.274247587E-2,-6.095796227E-1
6.308358920E-1,-1.026618332E-1,5.232957378E-2,-5.999925137E-1
6.333027140E-1,-7.603100687E-2,5.765573680E-2,-5.925358534E-1
6.357695890E-1,-4.940018058E-2,5.978620425E-2,-5.904054046E-1
6.382364120E-1,-1.637795754E-2,6.404713541E-2,-5.850792527E-1
6.407032350E-1,1.877473295E-2,7.363422960E-2,-5.808182955E-1
6.431700580E-1,5.605788901E-2,7.576470077E-2,-5.754921436E-1
6.456369330E-1,9.214265645E-2,8.428656310E-2,-5.712311864E-1
6.481037560E-1,1.315562725E-1,9.919982404E-2,-5.691007376E-1
6.505719850E-1,1.645784974E-1,1.087869257E-1,-5.691007376E-1
6.530388600E-1,1.965354979E-1,1.173087880E-1,-5.733616948E-1
6.555057350E-1,2.306229472E-1,1.300915778E-1,-5.744268894E-1
6.579726100E-1,2.551233172E-1,1.428743750E-1,-5.797531009E-1
6.604394850E-1,2.774932086E-1,1.524614692E-1,-5.914706588E-1
6.629063600E-1,2.956021726E-1,1.620485783E-1,-6.053186655E-1
6.653732350E-1,3.105154335E-1,1.716356725E-1,-6.159709692E-1
6.678401100E-1,3.232982159E-1,1.801575422E-1,-6.191666722E-1
6.703098500E-1,3.350157738E-1,1.908098608E-1,-6.223623753E-1
6.727768290E-1,3.456681073E-1,1.993317306E-1,-6.223623753E-1
6.752437560E-1,3.477985859E-1,2.035926580E-1,-6.170362234E-1
6.777106830E-1,3.477985859E-1,2.131797522E-1,-6.085143685E-1
6.801776620E-1,3.446028829E-1,2.195711583E-1,-6.010577083E-1
6.826445890E-1,3.350157738E-1,2.312887162E-1,-5.925358534E-1
6.851115690E-1,3.243634701E-1,2.387453467E-1,-5.840139985E-1
6.875784960E-1,3.105154335E-1,2.483324558E-1,-5.754921436E-1
6.900382350E-1,2.838846147E-1,2.621804774E-1,-5.701659918E-1
6.925050060E-1,2.583190203E-1,2.749632597E-1,-5.616441369E-1
6.949717770E-1,2.295577228E-1,2.961347699E-1,-5.563179255E-1
6.974384960E-1,1.880136281E-1,3.227656186E-1,-5.477960706E-1
6.999052670E-1,1.475347728E-1,3.419398069E-1,-5.414046645E-1
7.023720370E-1,1.027949899E-1,3.653749228E-1,-5.382089615E-1
7.048388080E-1,5.286218971E-2,4.005276263E-1,-5.392742157E-1
7.073055790E-1,6.657706108E-4,4.335498512E-1,-5.414046645E-1
7.097764120E-1,-5.792204663E-2,4.601806700E-1,-5.509917736E-1
7.122432870E-1,-1.133141592E-1,4.772244096E-1,-5.595136285E-1
7.147101620E-1,-1.708367467E-1,5.049204826E-1,-5.754921436E-1
7.171770370E-1,-2.336854935E-1,5.432688594E-1,-5.967968106E-1
7.196438600E-1,-2.933385372E-1,5.730953813E-1,-6.191666722E-1
7.221107350E-1,-3.540568352E-1,6.018566489E-1,-6.489931941E-1
7.245776100E-1,-4.169055820E-1,6.348788738E-1,-6.852111220E-1
7.270444850E-1,-4.776238501E-1,6.742925048E-1,-7.395380139E-1
7.295120890E-1,-5.477960706E-1,7.403369546E-1,-7.981258631E-1
7.319789640E-1,-6.266233325E-1,8.223599195E-1,-8.428656459E-1
7.344458920E-1,-7.129071951E-1,9.234238863E-1,-8.748226166E-1
7.369127670E-1,-7.959953547E-1,1.035273314E0,-9.078448415E-1
7.393796420E-1,-8.844097257E-1,1.146057606E0,-9.429975152E-1
7.418465170E-1,-9.706935883E-1,1.255776525E0,-9.856068492E-1
7.443133920E-1,-1.052716494E0,1.354843259E0,-1.033542395E0
7.467802670E-1,-1.143128157E0,1.441127181E0,-1.085605621E0
7.492661520E-1,-1.233672976E0,1.510234118E0,-1.134606361E0
7.517334960E-1,-1.330609202E0,1.566691518E0,-1.188933253E0
7.542008390E-1,-1.435002089E0,1.621018410E0,-1.236868739E0
7.566682350E-1,-1.544721007E0,1.677475691E0,-1.279478073E0
7.591355790E-1,-1.656570554E0,1.723280668E0,-1.317826390E0
7.616029230E-1,-1.783200026E0,1.769085765E0,-1.349783421E0
7.640703190E-1,-1.916354179E0,1.806368947E0,-1.379609942E0
7.665376620E-1,-2.063356400E0,1.831934452E0,-1.414762616E0
7.690037040E-1,-2.212488890E0,1.861760974E0,-1.445654392E0
7.714697460E-1,-2.362553596E0,1.895848513E0,-1.475480914E0
7.739357870E-1,-2.505294800E0,1.939522982E0,-1.505307436E0
7.763822460E-1,-2.642709970E0,1.988523722E0,-1.540460110E0
7.788490690E-1,-2.774798870E0,2.049242020E0,-1.600113153E0
7.813158390E-1,-2.900496483E0,2.126870871E0,-1.682002902E0
7.837826100E-1,-3.011147499E0,2.270677328E0,-1.777873874E0
7.862493810E-1,-3.038843393E0,2.656291723E0,-1.895049572E0
7.887168290E-1,-3.023930311E0,3.014076948E0,-2.023942709E0
7.911836000E-1,-2.995168924E0,3.321929216E0,-2.149640322E0
7.936504230E-1,-2.929257631E0,3.703149557E0,-2.261489630E0
7.961171940E-1,-2.826995373E0,4.120587826E0,-2.358292818E0
7.985840170E-1,-2.691710711E0,4.513658524E0,-2.447772264E0
8.010508390E-1,-2.537251949E0,4.829899788E0,-2.534056187E0
8.035176100E-1,-2.374271154E0,5.059989929E0,-2.623535872E0
8.059844330E-1,-2.202901840E0,5.216445923E0,-2.742841959E0
8.084708920E-1,-2.023942709E0,5.362382889E0,-2.881189108E0
8.109382350E-1,-1.842853189E0,5.575429440E0,-2.974929571E0
8.134055270E-1,-1.664027095E0,5.792603970E0,-3.029256344E0
8.158728190E-1,-1.489328980E0,5.990737438E0,-3.063343763E0
8.183401100E-1,-1.322087288E0,6.164370537E0,-3.080387592E0
8.208074020E-1,-1.161237121E0,6.316698551E0,-3.088909388E0
8.232746940E-1,-1.006911516E0,6.458241463E0,-3.092105150E0
8.257419850E-1,-8.599093556E-1,6.561569214E0,-3.091039896E0
8.282080270E-1,-7.256900072E-1,6.646787643E0,-3.089974642E0
8.306740690E-1,-6.031882167E-1,6.755441666E0,-3.081452847E0
8.331202670E-1,-5.021241903E-1,6.918422222E0,-3.071865797E0
8.355869850E-1,-4.797543287E-1,7.206967354E0,-3.095300913E0
8.380537560E-1,-4.893414080E-1,7.429600716E0,-3.118736029E0
8.405204750E-1,-4.659062922E-1,7.528667450E0,-3.114475012E0
8.429871940E-1,-4.243622124E-1,7.563820362E0,-3.093170404E0
8.454539120E-1,-3.689700961E-1,7.524406433E0,-3.060148239E0
8.479212040E-1,-3.061213493E-1,7.412557125E0,-3.017538786E0
8.503879230E-1,-2.485987544E-1,7.259163380E0,-2.972799063E0
8.528546940E-1,-1.857500076E-1,7.081269741E0,-2.918472290E0
8.553214120E-1,-1.303578913E-1,6.906704426E0,-2.849365234E0
8.577881830E-1,-7.603100687E-2,6.743723869E0,-2.779059887E0
8.602549020E-1,-2.916075476E-2,6.590330601E0,-2.707689285E0
8.627216730E-1,1.877473295E-2,6.444393635E0,-2.629927158E0
8.651883920E-1,6.457975507E-2,6.283676624E0,-2.550034761E0
8.676627140E-1,1.145125479E-1,6.106847763E0,-2.468011856E0
8.701296940E-1,1.667089611E-1,5.910844803E0,-2.381727934E0
8.725966210E-1,2.274272442E-1,5.680887699E0,-2.293313503E0
8.750635480E-1,2.902759910E-1,5.425231934E0,-2.208228111E0
8.775304750E-1,3.509942889E-1,5.152665138E0,-2.113422394E0
8.799974020E-1,4.127778113E-1,4.863986969E0,-2.017551422E0
8.824643290E-1,4.756265581E-1,4.564656734E0,-1.918484688E0
8.849312560E-1,5.342143774E-1,4.264394283E0,-1.809830904E0
8.873934440E-1,5.874760151E-1,3.956541777E0,-1.705438018E0
8.898602670E-1,6.343462467E-1,3.655214071E0,-1.591591239E0
8.923270890E-1,6.684337258E-1,3.350557327E0,-1.478676558E0
8.947938600E-1,6.949313879E-1,3.047099113E0,-1.366827130E0
8.972606830E-1,7.141056061E-1,2.745638132E0,-1.259238601E0
8.997275060E-1,7.300840616E-1,2.448571205E0,-1.161237121E0
9.021943290E-1,7.364754677E-1,2.157762527E0,-1.068561912E0
9.046611520E-1,7.396711707E-1,1.871348143E0,-9.877372980E-1
9.071271940E-1,7.407364249E-1,1.599713683E0,-9.067795873E-1
9.095932350E-1,7.322145700E-1,1.335669041E0,-8.322132826E-1
9.120592770E-1,7.194317579E-1,1.086404562E0,-7.682993412E-1
9.145253190E-1,7.066489458E-1,8.500559330E-1,-7.033200860E-1
9.169913600E-1,6.833469868E-1,6.306179762E-1,-6.372756362E-1
9.194574020E-1,6.556509137E-1,4.218322635E-1,-5.818835497E-1
9.219234440E-1,6.194329858E-1,2.323539555E-1,-5.264914036E-1
9.243894850E-1,5.821498632E-1,6.404713541E-2,-4.753602445E-1
9.268703710E-1,5.363448262E-1,-8.934641629E-2,-4.275579154E-1
9.293375060E-1,4.852136374E-1,-2.267614752E-1,-3.870790601E-1
9.318046940E-1,4.308867455E-1,-3.416734934E-1,-3.561872840E-1
9.342718290E-1,3.754946291E-1,-4.354139864E-1,-3.242303133E-1
9.367389640E-1,3.190372884E-1,-5.046541691E-1,-3.007951677E-1
9.392061520E-1,2.615146935E-1,-5.579158068E-1,-2.858819067E-1
9.416732870E-1,2.018616647E-1,-5.941337347E-1,-2.784252763E-1
9.441404750E-1,1.464695334E-1,-6.228950024E-1,-2.794905007E-1
9.466065170E-1,9.746882319E-2,-6.303516626E-1,-2.890776098E-1
9.490725580E-1,4.753602296E-2,-6.292864084E-1,-3.050560951E-1
9.515386000E-1,-3.994623839E-4,-6.260907054E-1,-3.220998347E-1
9.540046420E-1,-4.194355011E-2,-6.122426987E-1,-3.434045017E-1
9.564706830E-1,-7.603100687E-2,-5.888075829E-1,-3.679048419E-1
9.589367250E-1,-1.069227681E-1,-5.568505526E-1,-3.977313936E-1
9.614027670E-1,-1.346188188E-1,-5.302197337E-1,-4.286231399E-1
9.638688080E-1,-1.612496525E-1,-4.971975088E-1,-4.625774324E-1
9.663348500E-1,-1.857500076E-1,-4.737623930E-1,-4.966649115E-1
9.688008920E-1,-2.006632686E-1,-4.407401681E-1,-5.275566578E-1
9.712669330E-1,-2.123808414E-1,-4.087831676E-1,-5.616441369E-1
9.737329750E-1,-2.187722325E-1,-3.864132762E-1,-5.925358534E-1
9.761990170E-1,-2.219679356E-1,-3.661738634E-1,-6.159709692E-1
9.786650580E-1,-2.262288630E-1,-3.501953483E-1,-6.404713392E-1
9.811311000E-1,-2.219679356E-1,-3.448691964E-1,-6.564498544E-1
9.835971420E-1,-2.155765295E-1,-3.512606025E-1,-6.671021581E-1
9.861078710E-1,-2.038589716E-1,-3.661738634E-1,-6.777545214E-1
9.885761520E-1,-1.846847683E-1,-4.002613127E-1,-6.830806732E-1
9.910443810E-1,-1.665758193E-1,-4.545882046E-1,-6.820154190E-1
9.935126100E-1,-1.431406885E-1,-5.089150667E-1,-6.788197160E-1
9.959808920E-1,-1.165098622E-1,-5.760247707E-1,-6.681674123E-1
9.984491210E-1,-8.774857223E-2,-6.505910754E-1,-6.596455574E-1
1.000917402E0,-6.005251035E-2,-7.272878289E-1,-6.468627453E-1
1.003385631E0,-2.916075476E-2,-8.071803451E-1,-6.330147386E-1
1.005851673E0,-4.660394508E-3,-8.913337588E-1,-6.202319264E-1
1.008317714E0,1.877473295E-2,-9.678973556E-1,-6.063839197E-1
1.010783756E0,4.114462435E-2,-1.041398406E0,-5.925358534E-1
1.013249798E0,5.392742157E-2,-1.108508110E0,-5.776225924E-1
1.015715839E0,6.457975507E-2,-1.163900256E0,-5.605788827E-1
1.018181881E0,7.097115368E-2,-1.199052930E0,-5.467308760E-1
1.020647923E0,7.616416365E-2,-1.213966131E0,-5.307523608E-1
1.023113964E0,7.722939551E-2,-1.212900996E0,-5.105129480E-1
1.025580006E0,7.097115368E-2,-1.200118184E0,-4.987953603E-1
1.028046048E0,6.351451576E-2,-1.169226408E0,-4.870778024E-1
1.030512089E0,5.392742157E-2,-1.124486566E0,-4.753602445E-1
1.032978131E0,4.220985994E-2,-1.066964030E0,-4.721645415E-1
1.035444173E0,2.729659714E-2,-9.923977256E-1,-4.732297659E-1
1.037910214E0,8.122402243E-3,-9.083774686E-1,-4.785559475E-1
1.040376256E0,-1.105179265E-2,-8.167673945E-1,-4.902735054E-1
1.042842298E0,-3.235645220E-2,-7.123745680E-1,-5.051867366E-1
1.045308339E0,-5.685681105E-2,-6.047860384E-1,-5.211652517E-1
1.047774381E0,-8.348763734E-2,-4.908061028E-1,-5.477960706E-1
1.050240423E0,-1.154446304E-1,-3.704347908E-1,-5.808182955E-1
1.052706464E0,-1.495320797E-1,-2.480661422E-1,-6.191666722E-1
1.055172506E0,-1.910761744E-1,-1.223686412E-1,-6.617760062E-1
1.057638548E0,-2.315550297E-1,5.459319334E-3,-7.086462975E-1
1.060104589E0,-2.762948275E-1,1.311568171E-1,-7.597774267E-1
1.062570631E0,-3.220998347E-1,2.579195499E-1,-8.151695728E-1
1.065036673E0,-3.689700961E-1,3.856143653E-1,-8.673660159E-1
1.067502714E0,-4.179708064E-1,5.027899742E-1,-9.227581024E-1
1.069968756E0,-4.691019952E-1,6.220960617E-1,-9.770849943E-1
1.072434798E0,-5.191679597E-1,7.371412516E-1,-1.028216124E0
1.074900839E0,-5.648398399E-1,8.425993323E-1,-1.080279469E0
1.077366881E0,-6.149057746E-1,9.372718930E-1,-1.127149701E0
1.079832923E0,-6.628412604E-1,1.025686264E0,-1.174019933E0
1.082298964E0,-7.129071951E-1,1.103448272E0,-1.215564013E0
1.084765006E0,-7.587122321E-1,1.165231824E0,-1.251781940E0
1.087231048E0,-7.991910577E-1,1.225950003E0,-1.285869360E0
1.089697089E0,-8.396699429E-1,1.273885489E0,-1.315695882E0
1.092163131E0,-8.748226166E-1,1.316494823E0,-1.341261506E0
1.094609277E0,-9.046491385E-1,1.339929938E0,-1.363631368E0
1.097076204E0,-9.302147627E-1,1.352712750E0,-1.379609942E0
1.099543183E0,-9.504541755E-1,1.363365173E0,-1.390262246E0
1.102010110E0,-9.653674364E-1,1.364430308E0,-1.397718906E0
1.104477558E0,-9.738892913E-1,1.362299919E0,-1.400914550E0
1.106944537E0,-9.749545455E-1,1.363365173E0,-1.399849296E0
1.109411517E0,-9.760197401E-1,1.364430308E0,-1.392392755E0
1.111878444E0,-9.685631394E-1,1.369756460E0,-1.386001348E0
1.114345423E0,-9.579107761E-1,1.371886969E0,-1.370022774E0
1.116812402E0,-9.440627694E-1,1.380408883E0,-1.352979064E0
1.119279329E0,-9.259538054E-1,1.389995933E0,-1.337000608E0
1.121746308E0,-9.025186896E-1,1.396387339E0,-1.314630747E0
1.124212454E0,-8.769530654E-1,1.402778745E0,-1.292260766E0
1.126679433E0,-8.481917977E-1,1.404909253E0,-1.266695261E0
1.129146360E0,-8.151695728E-1,1.399582982E0,-1.236868739E0
1.131613287E0,-7.821473479E-1,1.389995933E0,-1.210237861E0
1.134080214E0,-7.480598688E-1,1.377213120E0,-1.182541847E0
1.136547194E0,-7.097114921E-1,1.356973767E0,-1.154845715E0
1.139014121E0,-6.671021581E-1,1.326081991E0,-1.119693041E0
1.141481048E0,-6.266233325E-1,1.290929317E0,-1.084540367E0
1.143946621E0,-5.872097015E-1,1.245124221E0,-1.052583337E0
1.146413548E0,-5.488613248E-1,1.188666940E0,-1.017563820E0
1.148880423E0,-5.063851476E-1,1.126883388E0,-9.824111462E-1
1.151347350E0,-4.627105892E-1,1.055512786E0,-9.525846243E-1
1.153814277E0,-4.264926612E-1,9.809464812E-1,-9.206276536E-1
1.156281152E0,-3.892095089E-1,9.138367772E-1,-8.908011317E-1
1.158748079E0,-3.561872840E-1,8.511211872E-1,-8.631050587E-1
1.161215006E0,-3.338173926E-1,7.999899983E-1,-8.300828338E-1
1.163682767E0,-3.071865737E-1,7.605763674E-1,-8.023867607E-1
1.166149694E0,-2.880123854E-1,7.286193967E-1,-7.714950442E-1
1.168616621E0,-2.773600519E-1,7.030537724E-1,-7.427337170E-1
1.171083548E0,-2.635120153E-1,6.860100627E-1,-7.171681523E-1
1.173550475E0,-2.560553849E-1,6.710968018E-1,-6.926677823E-1
1.176017402E0,-2.560553849E-1,6.679010987E-1,-6.724283695E-1
1.178484381E0,-2.613815665E-1,6.689663529E-1,-6.532541513E-1
1.180951308E0,-2.688381970E-1,6.753577590E-1,-6.372756362E-1
1.183415631E0,-2.805557549E-1,6.913362145E-1,-6.181014776E-1
1.185882506E0,-3.007951677E-1,7.147713304E-1,-6.021229625E-1
1.188349381E0,-3.220998347E-1,7.403369546E-1,-5.872097015E-1
1.190816204E0,-3.487306535E-1,7.637720704E-1,-5.776225924E-1
1.193283079E0,-3.796224296E-1,7.882724404E-1,-5.754921436E-1
1.195749954E0,-4.105141759E-1,8.085118532E-1,-5.733616948E-1
1.198216829E0,-4.446016252E-1,8.298165202E-1,-5.701659918E-1
1.200683704E0,-4.818847775E-1,8.511211872E-1,-5.712311864E-1
1.203153287E0,-5.191679597E-1,8.681648970E-1,-5.754921436E-1
1.205620214E0,-5.541874766E-1,8.830781579E-1,-5.744268894E-1
1.208087194E0,-5.893401504E-1,8.969262242E-1,-5.786878467E-1
1.210554121E0,-6.149057746E-1,9.095758200E-1,-5.829487443E-1
1.213021048E0,-6.404713392E-1,9.212934375E-1,-5.872097015E-1
1.215487975E0,-6.607108116E-1,9.351414442E-1,-5.957315564E-1
1.217954902E0,-6.777545214E-1,9.489894509E-1,-6.010577083E-1
1.220421829E0,-6.905373335E-1,9.585765600E-1,-6.095796227E-1
1.222887194E0,-6.990591884E-1,9.639027119E-1,-6.138405204E-1
1.225354121E0,-7.033200860E-1,9.713593721E-1,-6.255580783E-1
1.227820996E0,-7.011896372E-1,9.681636691E-1,-6.415365934E-1
1.230287871E0,-6.958634853E-1,9.543156624E-1,-6.564498544E-1
1.232754798E0,-6.873416305E-1,9.383371472E-1,-6.734935641E-1
1.235221673E0,-6.756240726E-1,9.191629291E-1,-6.937330365E-1
1.237688548E0,-6.607108116E-1,8.958609700E-1,-7.097114921E-1
1.240155475E0,-6.383408904E-1,8.649691939E-1,-7.235595584E-1
1.242627767E0,-6.138405204E-1,8.223599195E-1,-7.352771163E-1
1.245094798E0,-5.850792527E-1,7.797505856E-1,-7.427337170E-1
1.247561777E0,-5.499265194E-1,7.275541425E-1,-7.448641658E-1
1.250028808E0,-5.159722567E-1,6.647053957E-1,-7.448641658E-1
1.252495839E0,-4.808195531E-1,6.061176062E-1,-7.406032681E-1
1.254962871E0,-4.488625526E-1,5.379426479E-1,-7.310161591E-1
1.257429902E0,-4.169055820E-1,4.687025249E-1,-7.192986012E-1
1.259896933E0,-3.892095089E-1,3.983971477E-1,-7.001243830E-1
1.262356881E0,-3.636439145E-1,3.270265460E-1,-6.798849702E-1
1.264823756E0,-3.412740231E-1,2.675066292E-1,-6.521888971E-1
1.267290579E0,-3.252955377E-1,2.046578974E-1,-6.255580783E-1
1.269757454E0,-3.071865737E-1,1.492657810E-1,-5.925358534E-1
1.272224277E0,-2.922733128E-1,9.067796171E-2,-5.563179255E-1
1.274691152E0,-2.784252763E-1,3.635107726E-2,-5.232957006E-1
1.277157975E0,-2.635120153E-1,-9.453942999E-3,-4.870778024E-1
1.279624850E0,-2.517944574E-1,-5.099803209E-2,-4.561860561E-1
1.282092089E0,-2.400768995E-1,-8.934641629E-2,-4.211665094E-1
1.284558964E0,-2.294245660E-1,-1.202381775E-1,-3.913399875E-1
1.287025839E0,-2.219679356E-1,-1.436733007E-1,-3.615134656E-1
1.289492662E0,-2.145113051E-1,-1.681736708E-1,-3.338173926E-1
1.291959537E0,-2.091851383E-1,-1.873478591E-1,-3.114475012E-1
1.294426412E0,-2.134460658E-1,-1.969349533E-1,-2.922733128E-1
1.296893235E0,-2.177069932E-1,-1.980001926E-1,-2.752295732E-1
1.299360110E0,-2.240983993E-1,-1.948044896E-1,-2.656424940E-1
1.301829589E0,-2.390116602E-1,-1.862826198E-1,-2.603163123E-1
1.304296517E0,-2.581858635E-1,-1.703041345E-1,-2.549901605E-1
1.306763444E0,-2.794905007E-1,-1.468690038E-1,-2.571206093E-1
1.309230371E0,-3.061213493E-1,-1.202381775E-1,-2.635120153E-1
1.311697298E0,-3.338173926E-1,-9.041165560E-2,-2.688381970E-1
1.314164225E0,-3.647091687E-1,-5.845466256E-2,-2.752295732E-1
1.316631152E0,-3.966661394E-1,-2.756290510E-2,-2.869471312E-1
1.319098079E0,-4.264926612E-1,5.459319334E-3,-2.986647189E-1
1.321563131E0,-4.520582557E-1,3.635107726E-2,-3.103822768E-1
1.324030006E0,-4.744281471E-1,6.191666797E-2,-3.242303133E-1
1.326496881E0,-4.936023653E-1,8.961272985E-2,-3.391435742E-1
1.328963756E0,-5.063851476E-1,1.119826213E-1,-3.561872840E-1
1.331430631E0,-5.181027055E-1,1.247654185E-1,-3.764267266E-1
1.333897558E0,-5.255593657E-1,1.311568171E-1,-3.998618424E-1
1.336364433E0,-5.212984085E-1,1.332872808E-1,-4.169055820E-1
1.338831308E0,-5.149070024E-1,1.215697154E-1,-4.350145459E-1
1.341284537E0,-4.999937415E-1,9.813459218E-2,-4.519250989E-1
1.343751100E0,-4.765586257E-1,5.659050494E-2,-4.679036140E-1
1.346217610E0,-4.552539587E-1,1.078548469E-2,-4.806863964E-1
1.348684173E0,-4.264926612E-1,-5.738943070E-2,-4.934692085E-1
1.351150683E0,-3.924052119E-1,-1.276948154E-1,-5.009258389E-1
1.353617246E0,-3.604482114E-1,-1.980001926E-1,-5.019910336E-1
1.356083756E0,-3.274259865E-1,-2.746969759E-1,-4.966649115E-1
1.358550319E0,-2.890776098E-1,-3.576519787E-1,-4.860125780E-1
1.361017454E0,-2.571206093E-1,-4.396749437E-1,-4.679036140E-1
1.363484017E0,-2.166417688E-1,-5.153064728E-1,-4.465989470E-1
1.365950579E0,-1.814890802E-1,-5.930684805E-1,-4.222317338E-1
1.368417142E0,-1.474016160E-1,-6.601781845E-1,-3.902747631E-1
1.370883704E0,-1.133141592E-1,-7.198312283E-1,-3.583177626E-1
1.373350214E0,-8.455286920E-2,-7.709624171E-1,-3.242303133E-1
1.375816777E0,-5.685681105E-2,-7.986584306E-1,-2.912080884E-1
1.378283339E0,-3.555215150E-2,-8.167673945E-1,-2.613815665E-1
1.380754433E0,-1.744319126E-2,-8.167673945E-1,-2.304897904E-1
1.383221100E0,-2.529928461E-3,-8.029193878E-1,-2.027937323E-1
1.385687767E0,3.861469682E-3,-7.773538232E-1,-1.761629134E-1
1.388154433E0,6.657706108E-4,-7.422010899E-1,-1.548582464E-1
1.390621100E0,-7.856093347E-3,-7.027874589E-1,-1.420754492E-1
1.393087767E0,-2.063889056E-2,-6.612433791E-1,-1.356840581E-1
1.395554433E0,-4.407401755E-2,-6.186341047E-1,-1.303578913E-1
1.398021100E0,-6.857437640E-2,-5.749595165E-1,-1.324883550E-1
1.400487819E0,-1.005313694E-1,-5.355458856E-1,-1.388797611E-1
1.402954485E0,-1.495320797E-1,-4.748276174E-1,-1.505973190E-1
1.405421152E0,-2.209026963E-1,-3.874785006E-1,-1.804238409E-1
1.407887819E0,-2.975994647E-1,-3.183715343E-1,-2.123808414E-1
1.410354485E0,-3.860138059E-1,-2.374138087E-1,-2.304897904E-1
1.412821152E0,-4.712324440E-1,-1.862826198E-1,-2.528596818E-1
1.415287819E0,-5.287550688E-1,-1.926740259E-1,-2.752295732E-1
1.417754485E0,-5.595136285E-1,-2.043915838E-1,-3.039908707E-1
1.420221152E0,-5.744268894E-1,-2.203700840E-1,-3.284912407E-1
1.422687819E0,-5.808182955E-1,-2.235657871E-1,-3.540568352E-1
1.425154485E0,-5.797531009E-1,-2.054568231E-1,-3.700353205E-1
1.427621152E0,-5.733616948E-1,-1.660431921E-1,-3.870790601E-1
1.430087819E0,-5.680354834E-1,-1.181077138E-1,-4.019923210E-1
1.432554485E0,-5.595136285E-1,-7.017222792E-2,-4.190360308E-1
1.435021152E0,-5.392742157E-1,-1.904104091E-2,-4.434032440E-1
1.437487819E0,-5.181027055E-1,2.889444493E-2,-4.689688385E-1
1.439958339E0,-4.967980385E-1,7.043853402E-2,-4.913387299E-1
1.442425110E0,-4.765586257E-1,1.215697154E-1,-5.094476938E-1
1.444891881E0,-4.552539587E-1,1.705704331E-1,-5.264914036E-1
1.447358600E0,-4.382102489E-1,2.174406946E-1,-5.414046645E-1
1.449825371E0,-4.296883643E-1,2.621804774E-1,-5.563179255E-1
1.452292142E0,-4.232969582E-1,2.897433937E-1,-5.712311864E-1
1.454758912E0,-4.158403277E-1,3.067871034E-1,-5.893401504E-1
1.457225683E0,-4.147751033E-1,3.174394369E-1,-6.095796227E-1
1.459718808E0,-4.126446545E-1,3.089175820E-1,-6.298190355E-1
1.462186204E0,-4.105141759E-1,2.877460718E-1,-6.543194056E-1
1.464653652E0,-4.062532485E-1,2.643109560E-1,-6.852111220E-1
1.467121048E0,-4.041227698E-1,2.270277888E-1,-7.065157890E-1
1.469588496E0,-4.041227698E-1,1.854836941E-1,-7.278204560E-1
1.472055944E0,-3.987966180E-1,1.450048387E-1,-7.491251230E-1
1.474523339E0,-3.998618424E-1,1.077216864E-1,-7.661688328E-1
1.476990787E0,-4.137098789E-1,6.617759913E-2,-7.725602388E-1
1.479441621E0,-4.318188429E-1,1.824211515E-2,-7.800168991E-1
1.481908600E0,-4.605801404E-1,-2.969337068E-2,-7.842777967E-1
1.484375631E0,-4.925371110E-1,-7.123745978E-2,-7.917344570E-1
1.486842662E0,-5.308855176E-1,-1.074553803E-1,-7.917344570E-1
1.489309642E0,-5.733616948E-1,-1.447385401E-1,-7.885387540E-1
1.491776621E0,-6.244928837E-1,-1.703041345E-1,-7.832126021E-1
1.494243652E0,-6.788197160E-1,-1.905435622E-1,-7.746906877E-1
1.496710683E0,-7.331466079E-1,-2.011958808E-1,-7.608426809E-1
1.499176985E0,-7.917344570E-1,-2.129134536E-1,-7.512555718E-1
1.501644017E0,-8.535179496E-1,-2.054568231E-1,-7.416685224E-1
1.504110996E0,-9.131709933E-1,-1.916087866E-1,-7.342118621E-1
1.506577975E0,-9.685631394E-1,-1.713693589E-1,-7.320814133E-1
1.509045006E0,-1.027150989E0,-1.404775977E-1,-7.310161591E-1
1.511511985E0,-1.078282118E0,-1.031944528E-1,-7.395380139E-1
1.513978964E0,-1.126217604E0,-5.845466256E-2,-7.491251230E-1
1.516445944E0,-1.171889424E0,-7.323476952E-3,-7.672340870E-1
1.518917610E0,-1.212368369E0,4.913387448E-2,-7.896040082E-1
1.521384694E0,-1.247521043E0,1.045259908E-1,-8.215609789E-1
1.523851829E0,-1.270956159E0,1.577876359E-1,-8.513875008E-1
1.526318912E0,-1.273086667E0,2.003969699E-1,-8.844097257E-1
1.528786048E0,-1.177215695E0,1.354177445E-1,-9.057143927E-1
1.531253131E0,-8.226261735E-1,-1.862826198E-1,-8.833444715E-1
1.533720267E0,-4.137098789E-1,-3.512606025E-1,-8.109086156E-1
1.536187350E0,-2.560553849E-1,-1.244991124E-1,-7.214290500E-1
1.538646517E0,-2.901428342E-1,1.460700780E-1,-6.702978611E-1
1.541113444E0,-3.519263566E-1,3.664401472E-1,-6.745588183E-1
1.543580371E0,-3.924052119E-1,5.134423375E-1,-7.310161591E-1
1.546047298E0,-4.243622124E-1,5.709648728E-1,-8.236914277E-1
1.548514173E0,-4.477973282E-1,5.571168661E-1,-9.184971452E-1
1.550981100E0,-4.691019952E-1,5.347470045E-1,-9.866721034E-1
1.553447975E0,-4.893414080E-1,5.379426479E-1,-1.016498566E0
1.555914902E0,-5.063851476E-1,5.464645624E-1,-1.014368176E0
1.558383079E0,-5.202331543E-1,5.603125691E-1,-1.009042025E0
1.560850058E0,-5.266245604E-1,5.667039752E-1,-1.002650619E0
1.563316985E0,-5.244941115E-1,5.688344240E-1,-1.003715873E0
1.565783912E0,-5.255593657E-1,5.613778234E-1,-1.004781008E0
1.568250892E0,-5.350132585E-1,5.464645624E-1,-1.007976770E0
1.570717819E0,-5.446003675E-1,5.240946412E-1,-1.007976770E0
1.573184746E0,-5.595136285E-1,4.985290468E-1,-1.011172414E0
1.575651673E0,-5.818835497E-1,4.708330035E-1,-1.004781008E0
1.578119642E0,-6.095796227E-1,4.442021847E-1,-9.962592125E-1
1.580586621E0,-6.426018476E-1,4.175713360E-1,-9.877372980E-1
1.583053600E0,-6.713631153E-1,3.770924807E-1,-9.813459516E-1
1.585520579E0,-6.958634853E-1,3.206351399E-1,-9.706935883E-1
1.587987558E0,-7.097114921E-1,2.611152530E-1,-9.611064792E-1
1.590454485E0,-7.235595584E-1,1.961360276E-1,-9.557803273E-1
1.592921464E0,-7.352771163E-1,1.226349548E-1,-9.493889213E-1
1.595388444E0,-7.501903772E-1,5.552527308E-2,-9.440627694E-1
1.597854225E0,-7.682993412E-1,-7.323476952E-3,-9.419323206E-1
1.600321204E0,-7.917344570E-1,-6.378082931E-2,-9.493889213E-1
1.602788131E0,-8.194305301E-1,-1.095858440E-1,-9.611064792E-1
1.605255058E0,-8.524527550E-1,-1.447385401E-1,-9.706935883E-1
1.607721985E0,-8.865401745E-1,-1.734998226E-1,-9.877372980E-1
1.610188912E0,-9.163666964E-1,-1.884130985E-1,-1.003715873E0
1.612655892E0,-9.461932182E-1,-1.916087866E-1,-1.019694328E0
1.615122819E0,-9.728240371E-1,-1.820216924E-1,-1.044194698E0
1.617590527E0,-9.983896613E-1,-1.628475040E-1,-1.065366149E0
1.620057506E0,-1.012237668E0,-1.404775977E-1,-1.085605621E0
1.622524485E0,-1.012237668E0,-1.138467789E-1,-1.112236381E0
1.624991412E0,-1.006911516E0,-8.188978583E-2,-1.137802005E0
1.627458392E0,-1.002650619E0,-3.501953557E-2,-1.164432883E0
1.629925319E0,-9.962592125E-1,1.398118306E-2,-1.184672236E0
1.632392298E0,-9.856068492E-1,8.322133124E-2,-1.199585557E0
1.634859277E0,-9.749545455E-1,1.439396143E-1,-1.213433623E0
1.637324433E0,-9.493889213E-1,1.780270636E-1,-1.231542587E0
1.639791360E0,-9.227581024E-1,2.089188248E-1,-1.252847195E0
1.642258287E0,-8.982577324E-1,2.462019771E-1,-1.274151802E0
1.644725214E0,-8.716269135E-1,2.834851444E-1,-1.283738971E0
1.647192089E0,-8.439308405E-1,3.217003644E-1,-1.289065123E0
1.649659017E0,-8.204957247E-1,3.675054014E-1,-1.290130377E0
1.652125944E0,-8.002563119E-1,4.186365902E-1,-1.293326020E0
1.654592871E0,-7.725602388E-1,4.537892640E-1,-1.296521783E0
1.657061725E0,-7.310161591E-1,4.591154456E-1,-1.300782681E0
1.659528704E0,-6.852111220E-1,4.527240396E-1,-1.309304595E0
1.661995683E0,-6.362104416E-1,4.388760030E-1,-1.324217796E0
1.664462662E0,-5.872097015E-1,4.282236695E-1,-1.329543948E0
1.666929589E0,-5.382089615E-1,4.165061116E-1,-1.334870100E0
1.669396569E0,-4.882761836E-1,3.994623721E-1,-1.338065863E0
1.671863548E0,-4.414059222E-1,3.792229593E-1,-1.342326760E0
1.674330475E0,-4.019923210E-1,3.579182923E-1,-1.349783421E0
1.676794694E0,-3.721657991E-1,3.387441039E-1,-1.359370470E0
1.679261621E0,-3.444697261E-1,3.067871034E-1,-1.374283791E0
1.681728496E0,-3.114475012E-1,2.462019771E-1,-1.399849296E0
1.684195371E0,-2.752295732E-1,1.758965999E-1,-1.429675817E0
1.686662350E0,-2.485987544E-1,1.130478531E-1,-1.463763356E0
1.689129173E0,-2.272941023E-1,5.872096866E-2,-1.499981284E0
1.691596100E0,-2.187722325E-1,2.037258074E-2,-1.535133958E0
1.694062975E0,-2.177069932E-1,-5.193010904E-3,-1.563895226E0
1.696529746E0,-2.240983993E-1,-1.478010789E-2,-1.595852256E0
1.698996673E0,-2.422073632E-1,-2.117150649E-2,-1.635265827E0
1.701463548E0,-2.699034214E-1,-2.543243766E-2,-1.679872513E0
1.703930423E0,-3.039908707E-1,-2.543243766E-2,-1.720351338E0
1.706397350E0,-3.434045017E-1,-2.862813696E-2,-1.761895418E0
1.708864225E0,-3.902747631E-1,-3.182383627E-2,-1.801308990E0
1.711331100E0,-4.328840673E-1,-3.608476743E-2,-1.827939868E0
1.713798027E0,-4.786891043E-1,-4.141093418E-2,-1.851374984E0
1.716264433E0,-5.212984085E-1,-4.354140162E-2,-1.871614456E0
1.718731308E0,-5.563179255E-1,-5.099803209E-2,-1.883332014E0
1.721198183E0,-5.904054046E-1,-5.951989442E-2,-1.890788674E0
1.723665058E0,-6.159709692E-1,-7.656362653E-2,-1.891853809E0
1.726131933E0,-6.276885867E-1,-9.893351793E-2,-1.895049572E0
1.728598860E0,-6.319494843E-1,-1.138467789E-1,-1.891853809E0
1.731065735E0,-6.319494843E-1,-1.287600398E-1,-1.890788674E0
1.733532610E0,-6.266233325E-1,-1.415428370E-1,-1.892919064E0
1.735996412E0,-6.149057746E-1,-1.607170254E-1,-1.889723420E0
1.738463235E0,-5.999925137E-1,-1.841521561E-1,-1.888658166E0
1.740930006E0,-5.797531009E-1,-2.139786780E-1,-1.892919064E0
1.743396829E0,-5.414046645E-1,-2.672403455E-1,-1.876940608E0
1.745863600E0,-4.776238501E-1,-3.406082690E-1,-1.829005122E0
1.748330423E0,-4.062532485E-1,-4.236964285E-1,-1.759764910E0
1.750797246E0,-3.380783200E-1,-4.961322844E-1,-1.678807259E0
1.753264017E0,-2.730991244E-1,-5.621767044E-1,-1.594787002E0
1.755721777E0,-2.187722325E-1,-6.196992993E-1,-1.519155502E0
1.758188392E0,-1.719019860E-1,-6.676347852E-1,-1.456306696E0
1.760654954E0,-1.367492825E-1,-7.123745680E-1,-1.409436464E0
1.763121517E0,-1.175750941E-1,-7.400706410E-1,-1.377479434E0
1.765588079E0,-1.122489274E-1,-7.517881989E-1,-1.349783421E0
1.768054694E0,-1.218360290E-1,-7.507229447E-1,-1.329543948E0
1.770521256E0,-1.356840581E-1,-7.400706410E-1,-1.315695882E0
1.772987819E0,-1.463363916E-1,-7.379401922E-1,-1.301847935E0
1.775471985E0,-1.548582464E-1,-7.251573801E-1,-1.290130377E0
1.777938964E0,-1.601844132E-1,-7.070484161E-1,-1.284804225E0
1.780405996E0,-1.655105799E-1,-6.782871485E-1,-1.280543208E0
1.782873027E0,-1.729672104E-1,-6.271559596E-1,-1.301847935E0
1.785340058E0,-1.868152469E-1,-5.493939519E-1,-1.319956899E0
1.787807037E0,-2.134460658E-1,-4.460663199E-1,-1.332739711E0
1.790274069E0,-2.230331600E-1,-3.874785006E-1,-1.359370470E0
1.792741100E0,-1.985328048E-1,-3.501953483E-1,-1.368957639E0
1.795206621E0,-1.601844132E-1,-3.203688264E-1,-1.347652912E0
1.797673600E0,-1.133141592E-1,-2.853493094E-1,-1.302913189E0
1.800140631E0,-6.431344151E-2,-2.416747361E-1,-1.258173347E0
1.802607610E0,-2.276935615E-2,-1.852173954E-1,-1.204911709E0
1.805074589E0,9.187635034E-3,-1.255643368E-1,-1.146323919E0
1.807541569E0,3.794892505E-2,-6.591129303E-2,-1.111171246E0
1.810008548E0,4.860125855E-2,-5.193010904E-3,-1.094127417E0
1.812475527E0,4.966649041E-2,5.339480564E-2,-1.070692301E0
1.814941308E0,4.220985994E-2,1.087869257E-1,-1.061105251E0
1.817408287E0,4.327509180E-2,1.258306503E-1,-1.063235760E0
1.819875214E0,4.540555924E-2,1.130478531E-1,-1.083475113E0
1.822342194E0,3.688369319E-2,1.055912226E-1,-1.098388433E0
1.824809121E0,2.516612969E-2,8.109086752E-2,-1.105844975E0
1.827276100E0,5.991935730E-3,6.085143611E-2,-1.127149701E0
1.829743027E0,-2.383458801E-2,7.043853402E-2,-1.185737491E0
1.832210006E0,-4.833494872E-2,5.019910634E-2,-1.219824910E0
1.834669642E0,-6.750914454E-2,3.102491237E-2,-1.228346825E0
1.837136412E0,-8.881380409E-2,2.889444493E-2,-1.254977703E0
1.839603183E0,-1.175750941E-1,5.232957378E-2,-1.275217056E0
1.842069954E0,-1.484668553E-1,7.682993263E-2,-1.267760396E0
1.844536725E0,-1.644453406E-1,7.576470077E-2,-1.263499498E0
1.847003496E0,-1.655105799E-1,6.724283099E-2,-1.264564753E0
1.849470267E0,-1.633801162E-1,7.896039635E-2,-1.243260145E0
1.851937037E0,-1.580539495E-1,9.387365729E-2,-1.203846455E0
1.854398027E0,-1.516625583E-1,1.194392517E-1,-1.184672236E0
1.856864694E0,-1.484668553E-1,1.663095057E-1,-1.183607101E0
1.859331308E0,-1.495320797E-1,2.291582525E-1,-1.184672236E0
1.861797923E0,-1.463363916E-1,2.982652485E-1,-1.172954679E0
1.864264537E0,-1.569887102E-1,3.728315532E-1,-1.168693781E0
1.866731152E0,-1.644453406E-1,4.292888939E-1,-1.178280830E0
1.869197819E0,-1.601844132E-1,4.623111188E-1,-1.181476593E0
1.871664433E0,-1.527277827E-1,4.953333437E-1,-1.179346085E0
1.874132610E0,-1.474016160E-1,5.272903442E-1,-1.169759035E0
1.876599277E0,-1.431406885E-1,5.560516119E-1,-1.155910969E0
1.879065944E0,-1.378145218E-1,5.730953813E-1,-1.135671616E0
1.881532610E0,-1.410102248E-1,5.656387210E-1,-1.087736130E0
1.883999277E0,-1.495320797E-1,5.081161261E-1,-9.983896613E-1
1.886465944E0,-1.474016160E-1,4.090494812E-1,-9.131709933E-1
1.888932610E0,-1.388797611E-1,3.238308430E-1,-8.513875008E-1
1.891399277E0,-1.420754492E-1,2.866808474E-1,-7.927996516E-1
1.893870579E0,-1.122489274E-1,2.035926580E-1,-7.469946742E-1
1.896337350E0,-7.177007198E-2,1.098521575E-1,-7.075810432E-1
1.898804121E0,-3.874785081E-2,3.848154470E-2,-6.617760062E-1
1.901270892E0,-1.105179265E-2,-2.010627277E-2,-6.074491143E-1
1.903737714E0,1.131810062E-2,-5.632419512E-2,-5.541874766E-1
1.906204485E0,2.729659714E-2,-6.591129303E-2,-5.073172450E-1
1.908671256E0,3.794892505E-2,-5.738943070E-2,-4.742949903E-1
1.911138027E0,4.114462435E-2,-7.323476952E-3,-4.350145459E-1
1.913632819E0,6.457975507E-2,-9.453942999E-3,-4.062532485E-1
1.916100319E0,1.102516204E-1,-5.419373140E-2,-4.019923210E-1
1.918567767E0,1.517957002E-1,-8.934641629E-2,-3.924052119E-1
1.921035267E0,1.837527007E-1,-1.042596847E-1,-3.753614724E-1
1.923502767E0,1.997311860E-1,-8.508548886E-2,-3.487306535E-1
1.925970214E0,2.338186502E-1,-1.223686412E-1,-3.455349505E-1
1.928437714E0,2.732322812E-1,-1.798912287E-1,-3.742962480E-1
1.930905214E0,2.998631001E-1,-2.235657871E-1,-4.264926612E-1
1.933371256E0,3.264939189E-1,-2.374138087E-1,-4.828168750E-1
1.935837298E0,3.446028829E-1,-2.288919389E-1,-5.382089615E-1
1.938303339E0,3.595161438E-1,-2.075872868E-1,-6.031882167E-1
1.940769381E0,3.648423254E-1,-1.660431921E-1,-6.830806732E-1
1.943235423E0,3.595161438E-1,-9.573781490E-2,-7.523208261E-1
1.945701464E0,3.477985859E-1,-2.969337068E-2,-8.332785368E-1
1.948167506E0,3.414071798E-1,3.422060981E-2,-9.003882408E-1
1.950633548E0,3.350157738E-1,5.232957378E-2,-9.323452115E-1
1.953088287E0,3.222329915E-1,4.700340703E-2,-9.227581024E-1
1.955555319E0,3.073197305E-1,1.717688330E-2,-9.302147627E-1
1.958022402E0,2.668408751E-1,-1.997311832E-3,-9.419323206E-1
1.960489433E0,2.146444470E-1,-2.649767138E-2,-9.429975152E-1
1.962956464E0,1.454043090E-1,-5.632419512E-2,-9.184971452E-1
1.965423548E0,7.935985923E-2,-1.415428370E-1,-8.556483984E-1
1.967890579E0,2.729659714E-2,-2.629793882E-1,-8.141043186E-1
1.970357662E0,-6.790860556E-3,-3.810871243E-1,-7.714950442E-1
1.972821725E0,-3.342168778E-2,-4.929365814E-1,-7.416685224E-1
1.975288652E0,-6.644391268E-2,-5.376763940E-1,-6.926677823E-1
1.977755631E0,-9.627043456E-2,-5.579158068E-1,-6.404713392E-1
1.980222610E0,-1.047922969E-1,-5.951989293E-1,-6.202319264E-1
1.982689589E0,-1.122489274E-1,-5.834813714E-1,-6.202319264E-1
1.985156569E0,-1.367492825E-1,-5.003932118E-1,-6.085143685E-1
1.987623548E0,-1.516625583E-1,-4.418053925E-1,-6.074491143E-1
1.990090527E0,-1.591191888E-1,-4.151745737E-1,-6.319494843E-1
1.992558131E0,-1.665758193E-1,-3.960003853E-1,-6.692326665E-1
1.995025162E0,-1.846847683E-1,-3.651086092E-1,-6.926677823E-1
1.997492142E0,-2.123808414E-1,-3.288906813E-1,-6.926677823E-1
1.999959121E0,-2.294245660E-1,-3.162410557E-1,-7.001243830E-1
2.002426152E0,-2.400768995E-1,-3.235645294E-1,-7.256900072E-1
2.004893131E0,-2.454030514E-1,-3.565867543E-1,-7.491251230E-1
2.007360110E0,-2.464682907E-1,-3.896089792E-1,-7.672340870E-1
2.009827142E0,-2.581858635E-1,-3.981308341E-1,-7.736254930E-1
2.012292558E0,-2.677729428E-1,-3.885437548E-1,-7.523208261E-1
2.014759537E0,-2.730991244E-1,-3.800218701E-1,-7.352771163E-1
2.017226517E0,-2.677729428E-1,-3.800218701E-1,-7.299509048E-1
2.019693444E0,-2.549901605E-1,-3.778914213E-1,-7.235595584E-1
2.022160423E0,-2.432725877E-1,-3.778914213E-1,-7.150376439E-1
2.024627350E0,-2.347507328E-1,-3.810871243E-1,-7.097114921E-1
2.027094329E0,-2.262288630E-1,-3.800218701E-1,-7.075810432E-1
2.029561256E0,-2.209026963E-1,-3.672390878E-1,-7.043853402E-1
2.032028496E0,-2.240983993E-1,-3.480648994E-1,-7.001243830E-1
2.034495475E0,-2.347507328E-1,-3.162410557E-1,-6.905373335E-1
2.036962454E0,-2.422073632E-1,-3.066539466E-1,-6.830806732E-1
2.039429433E0,-2.454030514E-1,-3.173062801E-1,-6.724283695E-1
2.041896360E0,-2.390116602E-1,-3.331516385E-1,-6.639064550E-1
2.044363339E0,-2.230331600E-1,-3.363473415E-1,-6.468627453E-1
2.046830319E0,-2.102503628E-1,-3.416734934E-1,-6.287537813E-1
2.049297246E0,-2.049241960E-1,-3.480648994E-1,-6.191666722E-1
2.051777662E0,-1.942718774E-1,-3.395430148E-1,-6.149057746E-1
2.054245006E0,-1.910761744E-1,-3.427387178E-1,-6.127753258E-1
2.056712298E0,-2.027937323E-1,-3.246297538E-1,-6.127753258E-1
2.059179589E0,-2.262288630E-1,-2.704360485E-1,-6.063839197E-1
2.061646881E0,-2.155765295E-1,-3.077192008E-1,-6.170362234E-1
2.064114173E0,-2.038589716E-1,-3.459344208E-1,-6.447322965E-1
2.066581464E0,-1.900109351E-1,-3.608476818E-1,-6.500584483E-1
2.069048808E0,-1.740324497E-1,-3.501953483E-1,-6.383408904E-1
2.071497089E0,-1.537930220E-1,-3.374125659E-1,-6.298190355E-1
2.073963912E0,-1.378145218E-1,-3.310211599E-1,-6.308842301E-1
2.076430735E0,-1.388797611E-1,-3.203688264E-1,-6.383408904E-1
2.078897558E0,-1.410102248E-1,-3.023930192E-1,-6.404713392E-1
2.081364381E0,-1.505973190E-1,-2.778926790E-1,-6.415365934E-1
2.083831204E0,-1.665758193E-1,-2.565880120E-1,-6.489931941E-1
2.086298027E0,-1.772281379E-1,-2.416747361E-1,-6.500584483E-1
2.088764850E0,-1.761629134E-1,-2.193048447E-1,-6.415365934E-1
2.091234121E0,-1.708367467E-1,-1.980001926E-1,-6.202319264E-1
2.093700996E0,-1.623148769E-1,-1.777607650E-1,-6.021229625E-1
2.096167923E0,-1.452711523E-1,-1.713693589E-1,-5.904054046E-1
2.098634798E0,-1.271621883E-1,-1.724345982E-1,-5.786878467E-1
2.101101673E0,-1.133141592E-1,-1.745650619E-1,-5.659050345E-1
2.103568548E0,-1.101184636E-1,-1.788259894E-1,-5.648398399E-1
2.106035371E0,-1.111836955E-1,-1.777607650E-1,-5.648398399E-1
2.108502350E0,-1.186403260E-1,-1.649779677E-1,-5.659050345E-1
2.110967767E0,-1.378145218E-1,-1.372819096E-1,-5.648398399E-1
2.113434642E0,-1.537930220E-1,-9.999874979E-2,-5.563179255E-1
2.115901464E0,-1.569887102E-1,-9.147688746E-2,-5.499265194E-1
2.118368339E0,-1.505973190E-1,-1.010639817E-1,-5.467308760E-1
2.120835162E0,-1.463363916E-1,-9.360735118E-2,-5.552527308E-1
2.123302037E0,-1.399449855E-1,-7.869409025E-2,-5.499265194E-1
2.125768860E0,-1.239664927E-1,-5.738943070E-2,-5.296871066E-1
2.128235735E0,-1.111836955E-1,-3.608476743E-2,-5.115781426E-1
2.130703496E0,-1.005313694E-1,-2.862813696E-2,-5.073172450E-1
2.133170371E0,-8.455286920E-2,-2.010627277E-2,-5.009258389E-1
2.135637246E0,-6.644391268E-2,-1.051917579E-2,-4.987953603E-1
2.138104121E0,-4.407401755E-2,-8.388710208E-3,-5.019910336E-1
2.140570996E0,-2.383458801E-2,3.328853287E-3,-5.073172450E-1
2.143037871E0,-1.211702544E-2,2.037258074E-2,-5.083824396E-1
2.145504746E0,-1.464695437E-3,3.848154470E-2,-5.105129480E-1
2.147971621E0,1.451379992E-2,5.019910634E-2,-5.094476938E-1
2.150439225E0,3.155753016E-2,5.872096866E-2,-5.083824396E-1
2.152906152E0,4.647079110E-2,1.002650559E-1,-5.158390999E-1
2.155373027E0,4.434032366E-2,1.375482082E-1,-5.275566578E-1
2.157839902E0,4.434032366E-2,1.535267085E-1,-5.318176150E-1
2.160306829E0,5.179695413E-2,1.620485783E-1,-5.222305059E-1
2.162773704E0,6.457975507E-2,1.577876359E-1,-5.105129480E-1
2.165240579E0,8.575125784E-2,1.641790420E-1,-5.019910336E-1
2.167707506E0,1.081211492E-1,1.705704331E-1,-4.860125780E-1
2.170173235E0,1.272953451E-1,1.769618392E-1,-4.721645415E-1
2.172640110E0,1.411433816E-1,1.876141727E-1,-4.604469836E-1
2.175106985E0,1.496652365E-1,2.057231218E-1,-4.434032440E-1
2.177573808E0,1.571218669E-1,2.099840641E-1,-4.371449947E-1
2.180040683E0,1.667089611E-1,2.089188248E-1,-4.254274368E-1
2.182507558E0,1.762960702E-1,2.131797522E-1,-4.105141759E-1
2.184974433E0,1.784265339E-1,2.270277888E-1,-4.051880240E-1
2.187441308E0,1.794917583E-1,2.440715134E-1,-3.987966180E-1
2.189910423E0,1.837527007E-1,2.483324558E-1,-3.913399875E-1
2.192377350E0,1.816222370E-1,2.600499988E-1,-3.849485815E-1
2.194844277E0,1.794917583E-1,2.802894413E-1,-3.849485815E-1
2.197311204E0,1.720351279E-1,2.982652485E-1,-3.785571754E-1
2.199778131E0,1.624480337E-1,3.078523576E-1,-3.668396175E-1
2.202245058E0,1.571218669E-1,3.195699155E-1,-3.593829870E-1
2.204711985E0,1.528609395E-1,3.376788795E-1,-3.412740231E-1
2.207178912E0,1.454043090E-1,3.483312130E-1,-3.316869438E-1
2.209643600E0,1.422086060E-1,3.515268862E-1,-3.231650591E-1
2.212110475E0,1.347519755E-1,3.611139953E-1,-3.135779798E-1
2.214577350E0,1.219691783E-1,3.643096983E-1,-2.986647189E-1
2.217044225E0,1.145125479E-1,3.696358502E-1,-2.752295732E-1
2.219511048E0,9.959928691E-2,3.589835167E-1,-2.507292330E-1
2.221977923E0,8.788172156E-2,3.398093283E-1,-2.240983993E-1
2.224444798E0,8.468602598E-2,3.110480309E-1,-2.017285079E-1
2.226911673E0,8.681648970E-2,2.834851444E-1,-1.804238409E-1
2.229380996E0,8.681648970E-2,2.653761804E-1,-1.527277827E-1
2.231847923E0,7.935985923E-2,2.525933683E-1,-1.335535944E-1
2.234314850E0,7.416684926E-2,2.430062890E-1,-1.143793985E-1
2.236781777E0,7.416684926E-2,2.227668613E-1,-1.026618332E-1
2.239248704E0,6.990591437E-2,2.163754553E-1,-9.094426781E-2
2.241715631E0,6.351451576E-2,2.280930281E-1,-8.135717362E-2
2.244182558E0,5.073172227E-2,2.419410497E-1,-7.496577501E-2
2.246649485E0,4.220985994E-2,2.547238469E-1,-7.816147059E-2
2.249113912E0,4.434032366E-2,2.472672164E-1,-8.135717362E-2
2.251580787E0,4.327509180E-2,2.440715134E-1,-8.348763734E-2
2.254047662E0,3.688369319E-2,2.483324558E-1,-8.455286920E-2
2.256514485E0,2.303566411E-2,2.525933683E-1,-8.455286920E-2
2.258981360E0,1.131810062E-2,2.483324558E-1,-8.561810106E-2
2.261448235E0,5.991935730E-3,2.430062890E-1,-9.094426781E-2
2.263915110E0,-2.529928461E-3,2.451367527E-1,-9.627043456E-2
2.266381985E0,-9.986559860E-3,2.515281439E-1,-1.026618332E-1
2.268849589E0,-2.489982173E-2,2.770937383E-1,-1.037270650E-1
2.271316464E0,-6.218297780E-2,3.621792197E-1,-8.455286920E-2
2.273783339E0,-7.816147059E-2,3.888100684E-1,-7.177007198E-2
2.276250267E0,-7.390054315E-2,3.557878435E-1,-1.005313694E-1
2.278717142E0,-8.881380409E-2,3.302222490E-1,-1.346188188E-1
2.281184017E0,-1.058575287E-1,3.121132851E-1,-1.463363916E-1
2.283650892E0,-1.250317246E-1,3.153089881E-1,-1.505973190E-1
2.286117714E0,-1.431406885E-1,3.376788795E-1,-1.463363916E-1
2.288586673E0,-1.633801162E-1,3.483312130E-1,-1.378145218E-1
2.291053600E0,-1.985328048E-1,3.408745527E-1,-1.388797611E-1
2.293520579E0,-2.262288630E-1,3.302222490E-1,-1.388797611E-1
2.295987506E0,-2.592510879E-1,3.131785095E-1,-1.292926520E-1
2.298454433E0,-2.933385372E-1,2.993304729E-1,-1.154446304E-1
2.300921360E0,-3.252955377E-1,2.824199200E-1,-1.058575287E-1
2.303388287E0,-3.636439145E-1,2.717675865E-1,-9.946613014E-2
2.305855214E0,-4.051880240E-1,2.579195499E-1,-9.307473898E-2
2.308322506E0,-4.499278069E-1,2.653761804E-1,-8.455286920E-2
2.310789485E0,-4.925371110E-1,2.653761804E-1,-7.496577501E-2
2.313256412E0,-5.287550688E-1,2.483324558E-1,-6.431344151E-2
2.315723339E0,-5.637745857E-1,2.568543255E-1,-4.833494872E-2
2.318190319E0,-6.106448174E-1,2.929390669E-1,-2.809552103E-2
2.320657246E0,-6.426018476E-1,2.792242169E-1,-4.513924941E-2
2.323124173E0,-6.713631153E-1,2.685718834E-1,-5.898727849E-2
2.325591152E0,-6.841459274E-1,2.515281439E-1,-6.537867337E-2
2.328056152E0,-7.011896372E-1,2.728328109E-1,-6.644391268E-2
2.330523079E0,-7.171681523E-1,3.163742125E-1,-5.792204663E-2
2.332989954E0,-7.278204560E-1,3.451355100E-1,-5.898727849E-2
2.335456829E0,-7.459294200E-1,3.962666988E-1,-5.898727849E-2
2.337923756E0,-7.864083052E-1,4.772244096E-1,-4.407401755E-2
2.340390631E0,-8.109086156E-1,5.187684894E-1,-1.744319126E-2
2.342857558E0,-7.917344570E-1,4.697677493E-1,1.025286783E-2
2.345324433E0,-7.459294200E-1,3.557878435E-1,3.262276202E-2
2.347796725E0,-6.969286799E-1,2.493976802E-1,3.901416063E-2
2.350263756E0,-6.766892672E-1,2.366148829E-1,3.049229458E-2
2.352730787E0,-7.054505944E-1,2.845503688E-1,3.262276202E-2
2.355197819E0,-7.118419409E-1,2.982652485E-1,3.262276202E-2
2.357664850E0,-6.628412604E-1,2.611152530E-1,3.794892505E-2
2.360131829E0,-6.138405204E-1,2.248973250E-1,6.031882018E-2
2.362598860E0,-5.595136285E-1,1.695052087E-1,8.055824786E-2
2.365065892E0,-4.137098789E-1,1.929403245E-1,3.475322574E-2
2.367541464E0,-3.497959077E-1,2.387453467E-1,-1.957365684E-2
2.370008704E0,-3.753614724E-1,1.609833390E-1,-3.235645220E-2
2.372475944E0,-3.711005449E-1,1.482005417E-1,-8.921326138E-3
2.374943235E0,-3.796224296E-1,2.163754553E-1,3.475322574E-2
2.377410475E0,-3.604482114E-1,2.950695455E-1,3.155753016E-2
2.379877714E0,-3.178389072E-1,3.589835167E-1,8.122402243E-3
2.382344954E0,-2.656424940E-1,3.685706258E-1,-2.596505545E-2
2.384812194E0,-2.336854935E-1,3.280917704E-1,-3.661738336E-2
2.387278235E0,-1.995980442E-1,2.547238469E-1,-3.768261895E-2
2.389744277E0,-1.580539495E-1,1.908098608E-1,-4.940018058E-2
2.392210319E0,-1.623148769E-1,1.758965999E-1,-7.070484012E-2
2.394676360E0,-1.772281379E-1,2.547238469E-1,-3.874785081E-2
2.397142402E0,-1.772281379E-1,2.760285139E-1,-7.856093347E-3
2.399608444E0,-1.623148769E-1,2.003969699E-1,-4.087831825E-2
2.402074485E0,-1.218360290E-1,1.769618392E-1,-8.455286920E-2
2.404540527E0,-6.324820966E-2,2.003969699E-1,-1.015966013E-1
2.407006569E0,6.657706108E-4,2.430062890E-1,-1.015966013E-1
2.409472610E0,2.090519853E-2,3.238308430E-1,-8.348763734E-2
2.411938652E0,4.007939249E-2,3.632444739E-1,-6.431344151E-2
2.414404694E0,7.616416365E-2,3.504616618E-1,-6.537867337E-2
2.416870735E0,1.272953451E-1,3.238308430E-1,-8.242240548E-2
2.419336777E0,1.709699035E-1,3.174394369E-1,-9.520520270E-2
2.421802819E0,2.189053893E-1,3.440702558E-1,-8.987903595E-2
2.424268860E0,2.636451721E-1,3.909405172E-1,-8.029194176E-2
2.426723704E0,3.041240275E-1,4.292888939E-1,-6.857437640E-2
2.429190475E0,3.360810280E-1,4.463326335E-1,-5.685681105E-2
2.431657298E0,3.573856652E-1,4.484631121E-1,-5.046541616E-2
2.434124069E0,3.691032529E-1,4.463326335E-1,-4.513924941E-2
2.436590892E0,3.786903322E-1,4.271584451E-1,-2.489982173E-2
2.439057714E0,3.840165138E-1,4.175713360E-1,-1.464695437E-3
2.441524485E0,3.754946291E-1,4.069190025E-1,1.025286783E-2
2.443991308E0,3.659075499E-1,4.015928507E-1,2.410089783E-2
2.446457350E0,3.435376585E-1,3.962666988E-1,4.647079110E-2
2.448923392E0,3.286243975E-1,3.983971477E-1,6.777545065E-2
2.451389433E0,3.137111366E-1,3.920057416E-1,9.440627694E-2
2.453855475E0,2.913412452E-1,3.930709958E-1,1.178414002E-1
2.456321517E0,2.561885417E-1,3.845491111E-1,1.359503716E-1
2.458787558E0,2.082530558E-1,3.717663288E-1,1.561897993E-1
2.461253600E0,1.720351279E-1,3.717663288E-1,1.720351279E-1
2.463719642E0,1.390129030E-1,3.685706258E-1,1.869483888E-1
2.466166569E0,1.049254537E-1,3.632444739E-1,1.933397949E-1
2.468632819E0,7.097115368E-2,3.398093283E-1,2.050573528E-1
2.471099121E0,4.220985994E-2,3.217003644E-1,2.242315561E-1
2.473565371E0,1.131810062E-2,3.046566546E-1,2.380795777E-1
2.476031673E0,-2.063889056E-2,2.802894413E-1,2.487319112E-1
2.478497923E0,-5.472634733E-2,2.568543255E-1,2.561885417E-1
2.480964225E0,-8.774857223E-2,2.408758104E-1,2.647103965E-1
2.483430475E0,-1.229012609E-1,2.334191799E-1,2.668408751E-1
2.485912298E0,-1.548582464E-1,2.355496585E-1,2.668408751E-1
2.488378964E0,-1.868152469E-1,2.579195499E-1,2.657756507E-1
2.490845631E0,-2.240983993E-1,2.707023323E-1,2.551233172E-1
2.493312298E0,-2.507292330E-1,2.866808474E-1,2.434057444E-1
2.495778964E0,-2.741643488E-1,3.909405172E-1,2.412752807E-1
2.498245631E0,-3.178389072E-1,4.527240396E-1,2.412752807E-1
2.500712298E0,-3.817528784E-1,4.143756330E-1,2.274272442E-1
2.503178964E0,-4.360797703E-1,4.005276263E-1,2.050573528E-1
2.505682923E0,-4.691019952E-1,3.994623721E-1,1.762960702E-1
2.508150527E0,-4.925371110E-1,3.898752928E-1,1.444722265E-1
2.510618131E0,-5.031894445E-1,3.749620318E-1,1.210371032E-1
2.513085735E0,-5.117112994E-1,3.760272563E-1,1.018629074E-1
2.515553339E0,-5.191679597E-1,3.802881837E-1,8.375394344E-2
2.518020944E0,-5.255593657E-1,3.728315532E-1,6.564498693E-2
2.520488548E0,-5.244941115E-1,3.781577349E-1,4.327509180E-2
2.522956152E0,-5.244941115E-1,3.941362202E-1,2.197043039E-2
2.525407246E0,-5.308855176E-1,4.122451842E-1,3.861469682E-3
2.527874433E0,-5.477960706E-1,4.495283365E-1,-1.105179265E-2
2.530341621E0,-5.637745857E-1,4.804200828E-1,-1.957365684E-2
2.532808808E0,-5.776225924E-1,4.857462645E-1,-2.276935615E-2
2.535275996E0,-5.957315564E-1,4.857462645E-1,-2.170412242E-2
2.537743183E0,-6.127753258E-1,4.804200828E-1,-1.318225823E-2
2.540210371E0,-6.287537813E-1,4.655068219E-1,-1.464695437E-3
2.542677558E0,-6.372756362E-1,4.399412274E-1,1.557903271E-2
2.545140996E0,-6.394061446E-1,4.122451842E-1,2.836182900E-2
2.547608079E0,-6.383408904E-1,3.962666988E-1,3.901416063E-2
2.550075162E0,-6.500584483E-1,3.983971477E-1,4.860125855E-2
2.552542246E0,-6.607108116E-1,4.026580751E-1,5.818835273E-2
2.555009381E0,-6.628412604E-1,4.015928507E-1,6.990591437E-2
2.557476464E0,-6.639064550E-1,3.994623721E-1,7.842778414E-2
2.559943548E0,-6.639064550E-1,3.888100684E-1,8.055824786E-2
2.562410631E0,-6.585803032E-1,3.568530679E-1,7.629731297E-2
2.564876725E0,-6.479279995E-1,3.057218790E-1,6.457975507E-2
2.567343756E0,-6.319494843E-1,2.579195499E-1,4.540555924E-2
2.569810839E0,-6.117100716E-1,2.185059190E-1,1.983996481E-2
2.572277923E0,-5.818835497E-1,1.940055639E-1,-6.790860556E-3
2.574744954E0,-5.488613248E-1,1.780270636E-1,-2.809552103E-2
2.577212037E0,-5.234288573E-1,1.599181145E-1,-4.194355011E-2
2.579679121E0,-5.042546988E-1,1.386134475E-1,-5.472634733E-2
2.582146204E0,-4.872109592E-1,1.215697154E-1,-5.792204663E-2
2.584612558E0,-4.744281471E-1,1.130478531E-1,-5.792204663E-2
2.587079589E0,-4.584496617E-1,1.109173894E-1,-5.898727849E-2
2.589546621E0,-4.392754734E-1,1.162435561E-1,-5.898727849E-2
2.592013704E0,-4.243622124E-1,1.173087880E-1,-6.537867337E-2
2.594480735E0,-4.179708064E-1,1.162435561E-1,-7.922670245E-2
2.596947767E0,-4.190360308E-1,1.098521575E-1,-8.668334037E-2
2.599414850E0,-4.286231399E-1,1.055912226E-1,-1.005313694E-1
2.601881881E0,-4.392754734E-1,1.077216864E-1,-1.197055578E-1
2.604349537E0,-4.595148861E-1,1.055912226E-1,-1.388797611E-1
2.606816569E0,-4.904066622E-1,1.013302878E-1,-1.708367467E-1
2.609283652E0,-5.319507122E-1,1.055912226E-1,-1.985328048E-1
2.611750735E0,-5.722964406E-1,1.098521575E-1,-2.070546746E-1
2.614217767E0,-6.127753258E-1,1.183740199E-1,-2.027937323E-1
2.616684850E0,-6.575151086E-1,1.173087880E-1,-1.942718774E-1
2.619151933E0,-7.011896372E-1,1.087869257E-1,-1.868152469E-1
2.621618964E0,-7.480598688E-1,1.066564545E-1,-1.825543046E-1
2.624084017E0,-7.874734998E-1,1.023955271E-1,-1.932066381E-1
2.626550996E0,-8.162348270E-1,1.087869257E-1,-2.049241960E-1
2.629018027E0,-8.439308405E-1,1.226349548E-1,-2.155765295E-1
2.631485058E0,-8.684312105E-1,1.290263534E-1,-2.304897904E-1
2.633952037E0,-8.886706233E-1,1.343525201E-1,-2.422073632E-1
2.636419069E0,-9.046491385E-1,1.300915778E-1,-2.528596818E-1
2.638886048E0,-9.142362475E-1,1.332872808E-1,-2.581858635E-1
2.641353079E0,-9.195623994E-1,1.237001866E-1,-2.613815665E-1
2.643818860E0,-9.195623994E-1,1.226349548E-1,-2.571206093E-1
2.646285892E0,-9.099752903E-1,1.226349548E-1,-2.517944574E-1
2.648752871E0,-8.939968348E-1,1.173087880E-1,-2.432725877E-1
2.651219850E0,-8.663007617E-1,1.098521575E-1,-2.304897904E-1
2.653686829E0,-8.311480880E-1,9.706936032E-2,-2.240983993E-1
2.656153808E0,-7.938649058E-1,8.428656310E-2,-2.166417688E-1
2.658620787E0,-7.523208261E-1,7.363422960E-2,-2.091851383E-1
2.661087767E0,-7.001243830E-1,6.085143611E-2,-2.070546746E-1
2.663555162E0,-6.511237025E-1,5.019910634E-2,-2.070546746E-1
2.666022194E0,-5.946663618E-1,3.741630912E-2,-2.081198990E-1
2.668489173E0,-5.403394699E-1,2.037258074E-2,-2.006632686E-1
2.670956152E0,-4.840152562E-1,4.394086078E-3,-1.900109351E-1
2.673423183E0,-4.296883643E-1,-1.478010789E-2,-1.772281379E-1
2.675890162E0,-3.796224296E-1,-2.969337068E-2,-1.591191888E-1
2.678357142E0,-3.274259865E-1,-3.928046674E-2,-1.399449855E-1
2.680824121E0,-2.752295732E-1,-4.460663348E-2,-1.154446304E-1
2.683287923E0,-2.209026963E-1,-5.206326395E-2,-8.774857223E-2
2.685754850E0,-1.644453406E-1,-6.165036187E-2,-6.218297780E-2
2.688221777E0,-1.111836955E-1,-7.230269164E-2,-3.342168778E-2
2.690688704E0,-6.431344151E-2,-8.721595258E-2,-7.856093347E-3
2.693155579E0,-1.744319126E-2,-8.721595258E-2,1.664426550E-2
2.695622506E0,3.262276202E-2,-7.230269164E-2,3.368799388E-2
2.698089433E0,7.416684926E-2,-5.845466256E-2,4.647079110E-2
2.700556360E0,1.027949899E-1,-6.058513001E-2,5.605788901E-2
2.703025527E0,1.177082509E-1,-6.804175675E-2,6.138405204E-2
2.705492506E0,1.219691783E-1,-6.804175675E-2,6.031882018E-2
2.707959485E0,1.198387146E-1,-5.419373140E-2,5.286218971E-2
2.710426464E0,1.166430190E-1,-3.501953557E-2,4.860125855E-2
2.712893444E0,1.059906855E-1,-1.904104091E-2,4.434032366E-2
2.715360423E0,9.320788831E-2,-1.051917579E-2,3.901416063E-2
2.717827402E0,7.935985923E-2,-1.997311832E-3,3.155753016E-2
2.720294329E0,6.564498693E-2,1.398118306E-2,2.516612969E-2
2.722764329E0,5.499265343E-2,3.315537795E-2,1.770949923E-2
2.725231360E0,4.647079110E-2,4.380770773E-2,7.057168987E-3
2.727698392E0,3.688369319E-2,5.552527308E-2,2.796236658E-3
2.730165423E0,2.942706272E-2,7.150376588E-2,-3.994623839E-4
2.732632506E0,2.197043039E-2,6.830807030E-2,-4.660394508E-3
2.735099537E0,5.991935730E-3,6.404713541E-2,-1.105179265E-2
2.737566569E0,-7.856093347E-3,6.404713541E-2,-2.063889056E-2
2.740033652E0,-1.957365684E-2,6.511236727E-2,-2.809552103E-2
2.742497142E0,-3.874785081E-2,6.298190355E-2,-3.342168778E-2
2.744964121E0,-5.472634733E-2,6.191666797E-2,-3.874785081E-2
2.747431100E0,-6.857437640E-2,5.872096866E-2,-4.513924941E-2
2.749898027E0,-7.922670245E-2,5.232957378E-2,-4.726971686E-2
2.752365006E0,-8.987903595E-2,4.487293959E-2,-4.940018058E-2
2.754831933E0,-9.733566642E-2,4.167724028E-2,-5.046541616E-2
2.757298912E0,-1.079879999E-1,3.848154470E-2,-4.940018058E-2
2.759765892E0,-1.122489274E-1,3.528584540E-2,-4.620448127E-2
2.762228600E0,-1.165098622E-1,2.676397935E-2,-4.300878197E-2
2.764695475E0,-1.250317246E-1,2.037258074E-2,-4.087831825E-2
2.767162298E0,-1.260969639E-1,1.398118306E-2,-3.768261895E-2
2.769629173E0,-1.324883550E-1,6.524552125E-3,-3.448691964E-2
2.772095996E0,-1.346188188E-1,-4.127778113E-3,-3.235645220E-2
2.774562871E0,-1.346188188E-1,-1.797580719E-2,-3.129122034E-2
2.777029694E0,-1.314231306E-1,-2.969337068E-2,-2.489982173E-2
2.779496569E0,-1.292926520E-1,-3.821523488E-2,-2.489982173E-2
2.781964173E0,-1.250317246E-1,-5.312849581E-2,-2.170412242E-2
2.784431048E0,-1.218360290E-1,-6.378082931E-2,-1.957365684E-2
2.786897923E0,-1.133141592E-1,-6.591129303E-2,-2.063889056E-2
2.789364798E0,-1.015966013E-1,-7.549838722E-2,-2.809552103E-2
2.791831673E0,-9.520520270E-2,-8.508548886E-2,-3.129122034E-2
2.794298548E0,-8.668334037E-2,-9.254211932E-2,-3.661738336E-2
2.796765423E0,-7.709623873E-2,-9.786828607E-2,-4.620448127E-2
2.799232298E0,-7.177007198E-2,-9.041165560E-2,-5.366111174E-2
2.801700423E0,-6.431344151E-2,-6.804175675E-2,-6.005251035E-2
2.804167350E0,-6.218297780E-2,-6.697652489E-2,-7.496577501E-2
2.806634225E0,-5.792204663E-2,-6.697652489E-2,-8.774857223E-2
2.809101152E0,-5.153064802E-2,-6.058513001E-2,-9.520520270E-2
2.811568027E0,-4.407401755E-2,-5.632419512E-2,-1.037270650E-1
2.814034954E0,-3.874785081E-2,-4.567186534E-2,-1.058575287E-1
2.816501881E0,-3.342168778E-2,-3.608476743E-2,-1.090532318E-1
2.818968756E0,-2.489982173E-2,-2.756290510E-2,-1.090532318E-1
2.821435423E0,-1.850842312E-2,-2.862813696E-2,-1.133141592E-1
2.823902350E0,-1.424749196E-2,-2.436720580E-2,-1.101184636E-1
2.826369225E0,-1.105179265E-2,-2.223674022E-2,-1.069227681E-1
2.828836152E0,-4.660394508E-3,-1.478010789E-2,-1.069227681E-1
2.831303027E0,-4.660394508E-3,-1.051917579E-2,-1.069227681E-1
2.833769902E0,-3.595161485E-3,-8.388710208E-3,-1.037270650E-1
2.836236829E0,-3.595161485E-3,-9.320789250E-4,-1.005313694E-1
2.838703704E0,-3.595161485E-3,9.720250964E-3,-9.733566642E-2
2.841154381E0,-1.105179265E-2,1.824211515E-2,-9.413997084E-2
2.843620892E0,-2.063889056E-2,2.143781446E-2,-8.987903595E-2
2.846087350E0,-2.596505545E-2,2.037258074E-2,-8.348763734E-2
2.848553860E0,-3.235645220E-2,2.037258074E-2,-7.603100687E-2
2.851020371E0,-3.874785081E-2,2.356828004E-2,-6.324820966E-2
2.853486829E0,-4.300878197E-2,2.569874749E-2,-5.579157919E-2
2.855953339E0,-4.513924941E-2,2.676397935E-2,-5.046541616E-2
2.858419850E0,-5.153064802E-2,3.102491237E-2,-4.194355011E-2
2.860919954E0,-5.685681105E-2,3.422060981E-2,-2.596505545E-2
2.863387246E0,-6.218297780E-2,3.528584540E-2,-1.211702544E-2
2.865854589E0,-6.750914454E-2,3.635107726E-2,-2.529928461E-3
2.868321933E0,-7.390054315E-2,3.635107726E-2,5.991935730E-3
2.870789277E0,-7.709623873E-2,2.782921307E-2,1.664426550E-2
2.873256621E0,-8.668334037E-2,2.676397935E-2,2.410089783E-2
2.875723964E0,-9.200949967E-2,1.504641678E-2,3.368799388E-2
2.878191256E0,-9.413997084E-2,3.328853287E-3,4.114462435E-2
2.880657298E0,-9.733566642E-2,-6.258244161E-3,4.647079110E-2
2.883123339E0,-1.005313694E-1,-1.051917579E-2,4.860125855E-2
2.885589381E0,-1.037270650E-1,-9.453942999E-3,5.392742157E-2
2.888055423E0,-1.047922969E-1,-9.320789250E-4,6.564498693E-2
2.890521464E0,-1.079879999E-1,2.263620263E-3,7.736254483E-2
2.892987506E0,-1.143793985E-1,8.655018173E-3,9.121058136E-2
2.895453548E0,-1.229012609E-1,1.611164957E-2,1.007976755E-1
2.897919589E0,-1.335535944E-1,1.717688330E-2,1.146457046E-1
2.900385631E0,-1.431406885E-1,2.782921307E-2,1.252980381E-1
2.902851673E0,-1.516625583E-1,2.463351376E-2,1.316894293E-1
2.905317714E0,-1.591191888E-1,2.676397935E-2,1.327546686E-1
2.907783756E0,-1.601844132E-1,2.995967865E-2,1.348851323E-1
2.910249798E0,-1.612496525E-1,3.848154470E-2,1.412765235E-1
2.912715839E0,-1.644453406E-1,4.593817517E-2,1.476679295E-1
2.915181881E0,-1.644453406E-1,4.487293959E-2,1.604507267E-1
2.917647923E0,-1.644453406E-1,4.167724028E-2,1.657768935E-1
2.920098079E0,-1.633801162E-1,5.126433820E-2,1.625811905E-1
2.922564746E0,-1.569887102E-1,5.126433820E-2,1.688394397E-1
2.925031464E0,-1.505973190E-1,6.191666797E-2,1.762960702E-1
2.927498183E0,-1.324883550E-1,7.150376588E-2,1.773612946E-1
2.929964902E0,-1.197055578E-1,7.789516449E-2,1.869483888E-1
2.932431621E0,-9.946613014E-2,8.002562821E-2,1.933397949E-1
2.934898339E0,-7.816147059E-2,7.789516449E-2,1.954702586E-1
2.937365006E0,-5.579157919E-2,7.789516449E-2,1.933397949E-1
2.939832246E0,-3.022598661E-2,6.724283099E-2,1.858831644E-1
2.942298964E0,-9.986559860E-3,5.765573680E-2,1.858831644E-1
2.944765683E0,1.344856713E-2,5.126433820E-2,1.848179251E-1
2.947232402E0,3.155753016E-2,4.487293959E-2,1.816222370E-1
2.949699121E0,5.286218971E-2,2.782921307E-2,1.677742004E-1
2.952165839E0,7.829462737E-2,1.398118306E-2,1.561897993E-1
2.954632558E0,1.027949899E-1,1.185071748E-2,1.487331539E-1
2.957099277E0,1.240996495E-1,5.459319334E-3,1.444722265E-1
2.959579329E0,1.475347728E-1,-1.997311832E-3,1.370155960E-1
2.962046360E0,1.699046642E-1,-6.258244161E-3,1.284937263E-1
2.964513444E0,1.933397949E-1,-1.797580719E-2,1.167761683E-1
2.966980475E0,2.167749256E-1,-2.436720580E-2,9.973244369E-2
2.969447558E0,2.391448170E-1,-3.928046674E-2,8.162347972E-2
2.971914589E0,2.572537661E-1,-4.780233279E-2,6.138405204E-2
2.974381621E0,2.742975056E-1,-4.354140162E-2,4.007939249E-2
2.976848704E0,2.870802879E-1,-3.288906813E-2,2.942706272E-2
2.979318756E0,2.902759910E-1,-2.010627277E-2,2.197043039E-2
2.981785892E0,2.924064696E-1,-1.478010789E-2,2.197043039E-2
2.984253027E0,2.913412452E-1,-9.320789250E-4,5.991935730E-3
2.986720214E0,2.913412452E-1,-5.193010904E-3,-1.744319126E-2
2.989187298E0,2.987978756E-1,-1.264964230E-2,-4.300878197E-2
2.991654381E0,3.126458824E-1,-1.158440951E-2,-5.792204663E-2
2.994121517E0,3.243634701E-1,-3.062544856E-3,-7.070484012E-2
2.996588652E0,3.360810280E-1,7.589785382E-3,-8.561810106E-2
2.999054589E0,3.435376585E-1,9.720250964E-3,-9.733566642E-2
3.001521673E0,3.403419554E-1,1.611164957E-2,-1.037270650E-1
3.003988756E0,3.350157738E-1,1.611164957E-2,-1.058575287E-1
3.006455892E0,3.275591433E-1,2.782921307E-2,-1.154446304E-1
3.008922975E0,3.115806580E-1,4.274247587E-2,-1.175750941E-1
3.011390058E0,2.956021726E-1,5.659050494E-2,-1.143793985E-1
3.013857194E0,2.764279842E-1,6.404713541E-2,-1.079879999E-1
3.016324277E0,2.561885417E-1,9.280842543E-2,-9.520520270E-2
3.018788756E0,2.252967805E-1,1.716356725E-1,-7.496577501E-2
3.021255787E0,1.976007223E-1,2.025274336E-1,-6.005251035E-2
3.023722819E0,1.794917583E-1,1.737661362E-1,-5.685681105E-2
3.026189850E0,1.667089611E-1,1.354177445E-1,-6.324820966E-2
3.028656881E0,1.517957002E-1,1.013302878E-1,-6.537867337E-2
3.031123912E0,1.272953451E-1,6.724283099E-2,-6.111774594E-2
3.033590944E0,8.681648970E-2,2.569874749E-2,-6.005251035E-2
3.036057975E0,6.138405204E-2,2.569874749E-2,-5.472634733E-2
3.038534694E0,4.220985994E-2,3.528584540E-2,-3.874785081E-2
3.041001985E0,1.877473295E-2,3.422060981E-2,-2.489982173E-2
3.043469277E0,-2.529928461E-3,2.995967865E-2,-1.744319126E-2
3.045936517E0,-2.170412242E-2,2.037258074E-2,-1.637795754E-2
3.048403808E0,-3.235645220E-2,1.611164957E-2,-1.637795754E-2
3.050871100E0,-5.046541616E-2,6.524552125E-3,-1.424749196E-2
3.053338392E0,-6.431344151E-2,-4.127778113E-3,-9.986559860E-3
3.055805631E0,-7.709623873E-2,1.331541280E-4,-2.529928461E-3
3.058257662E0,-9.200949967E-2,-1.997311832E-3,4.926702939E-3
3.060724589E0,-1.015966013E-1,6.524552125E-3,1.877473295E-2
3.063191464E0,-1.101184636E-1,6.524552125E-3,2.729659714E-2
3.065658339E0,-1.122489274E-1,9.720250964E-3,2.942706272E-2
3.068125267E0,-1.165098622E-1,1.611164957E-2,3.901416063E-2
3.070592142E0,-1.186403260E-1,2.463351376E-2,4.753602296E-2
3.073059069E0,-1.122489274E-1,3.209014609E-2,5.179695413E-2
3.075525944E0,-1.058575287E-1,2.676397935E-2,6.351451576E-2
3.077993183E0,-9.733566642E-2,3.102491237E-2,7.310161740E-2
3.080460110E0,-1.005313694E-1,3.528584540E-2,8.801487833E-2
3.082926985E0,-1.015966013E-1,4.806863889E-2,9.973244369E-2
3.085393912E0,-1.047922969E-1,5.232957378E-2,1.071890742E-1
3.087860787E0,-1.079879999E-1,4.806863889E-2,1.125152409E-1
3.090327714E0,-1.015966013E-1,6.511236727E-2,1.135804728E-1
3.092794642E0,-9.520520270E-2,6.511236727E-2,1.146457046E-1
3.095261517E0,-9.520520270E-2,7.043853402E-2,1.199718714E-1
3.097728600E0,-9.307473898E-2,9.493889660E-2,1.231675670E-1
3.100195527E0,-9.520520270E-2,1.109173894E-1,1.295589656E-1
3.102662454E0,-9.627043456E-2,1.162435561E-1,1.348851323E-1
3.105129329E0,-9.413997084E-2,1.205044836E-1,1.316894293E-1
3.107596256E0,-9.733566642E-2,1.247654185E-1,1.284937263E-1
3.110063131E0,-1.047922969E-1,1.290263534E-1,1.423417628E-1
3.112530058E0,-1.090532318E-1,1.492657810E-1,1.709699035E-1
3.114996985E0,-1.037270650E-1,1.854836941E-1,1.933397949E-1
3.117465267E0,-1.079879999E-1,1.961360276E-1,2.125139832E-1
3.119932246E0,-1.154446304E-1,1.929403245E-1,2.189053893E-1
3.122399173E0,-1.165098622E-1,2.025274336E-1,2.263620198E-1
3.124866100E0,-1.143793985E-1,2.174406946E-1,2.316881865E-1
3.127333079E0,-1.218360290E-1,2.259625494E-1,2.348838747E-1
3.129800006E0,-1.314231306E-1,2.280930281E-1,2.423405200E-1
3.132266933E0,-1.452711523E-1,2.185059190E-1,2.540580630E-1
3.134733912E0,-1.548582464E-1,2.217016220E-1,2.572537661E-1
3.137198287E0,-1.559234858E-1,2.376801223E-1,2.604494691E-1
3.139665162E0,-1.505973190E-1,2.493976802E-1,2.636451721E-1
3.142132037E0,-1.463363916E-1,2.675066292E-1,2.625799477E-1
3.144598912E0,-1.410102248E-1,2.738980353E-1,2.604494691E-1
3.147065787E0,-1.431406885E-1,2.707023323E-1,2.444709837E-1
3.149532714E0,-1.580539495E-1,2.547238469E-1,2.157096863E-1
3.151999589E0,-1.559234858E-1,2.643109560E-1,1.837527007E-1
3.154466464E0,-1.378145218E-1,2.918738425E-1,1.444722265E-1
3.156934485E0,-1.282274276E-1,3.014609516E-1,1.071890742E-1
3.159401412E0,-1.335535944E-1,2.845503688E-1,7.310161740E-2
3.161868339E0,-1.399449855E-1,2.781589627E-1,3.794892505E-2
3.164335214E0,-1.335535944E-1,2.856155932E-1,9.187635034E-3
3.166802142E0,-1.292926520E-1,2.781589627E-1,-9.986559860E-3
3.169269069E0,-1.282274276E-1,2.675066292E-1,-2.809552103E-2
3.171735944E0,-1.282274276E-1,2.653761804E-1,-4.087831825E-2
3.174202871E0,-1.356840581E-1,2.568543255E-1,-4.620448127E-2
3.176671569E0,-1.474016160E-1,2.451367527E-1,-5.472634733E-2
3.179138548E0,-1.676410437E-1,2.334191799E-1,-6.431344151E-2
3.181605475E0,-1.857500076E-1,2.227668613E-1,-6.644391268E-2
3.184072454E0,-2.081198990E-1,2.089188248E-1,-8.987903595E-2
3.186539381E0,-2.272941023E-1,1.961360276E-1,-1.175750941E-1
3.189006360E0,-2.699034214E-1,1.545919478E-1,-1.708367467E-1
3.191473339E0,-3.157084286E-1,1.332872808E-1,-2.262288630E-1
3.193940267E0,-3.615134656E-1,1.226349548E-1,-2.539249361E-1
3.196406777E0,-4.158403277E-1,9.919982404E-2,-2.613815665E-1
3.198873756E0,-4.659062922E-1,9.067796171E-2,-2.645772398E-1
3.201340683E0,-4.999937415E-1,6.830807030E-2,-2.709686458E-1
3.203807610E0,-5.308855176E-1,4.061200842E-2,-2.869471312E-1
3.206274589E0,-5.520570278E-1,2.889444493E-2,-2.986647189E-1
3.208741517E0,-5.733616948E-1,9.720250964E-3,-3.103822768E-1
3.211208444E0,-5.946663618E-1,-6.258244161E-3,-3.295564651E-1
3.213675423E0,-6.074491143E-1,-1.584534161E-2,-3.572525382E-1
3.216140996E0,-6.244928837E-1,-1.478010789E-2,-3.902747631E-1
3.218607923E0,-6.543194056E-1,-5.738943070E-2,-4.232969582E-1
3.221074850E0,-6.777545214E-1,-1.202381775E-1,-4.583165050E-1
3.223541725E0,-6.809502244E-1,-1.703041345E-1,-4.838820994E-1
3.226008652E0,-6.766892672E-1,-2.203700840E-1,-5.051867366E-1
3.228475579E0,-6.628412604E-1,-2.565880120E-1,-5.094476938E-1
3.230942454E0,-6.383408904E-1,-2.928059399E-1,-4.998605847E-1
3.233409381E0,-6.042534113E-1,-3.098496497E-1,-4.785559475E-1
3.235878027E0,-5.584484339E-1,-3.151758313E-1,-4.412727654E-1
3.238345006E0,-5.053198934E-1,-3.203688264E-1,-3.881442845E-1
3.240811933E0,-4.499278069E-1,-3.194367588E-1,-3.295564651E-1
3.243278912E0,-4.147751033E-1,-2.523270845E-1,-2.858819067E-1
3.245745839E0,-4.627105892E-1,-9.147688746E-2,-2.720338702E-1
3.248212819E0,-5.319507122E-1,-3.062544856E-3,-2.699034214E-1
3.250679798E0,-5.595136285E-1,3.741630912E-2,-2.635120153E-1
3.253146725E0,-5.680354834E-1,4.487293959E-2,-2.699034214E-1
3.255612246E0,-5.616441369E-1,4.274247587E-2,-2.794905007E-1
3.258079173E0,-5.509917736E-1,3.635107726E-2,-2.784252763E-1
3.260546100E0,-5.509917736E-1,3.209014609E-2,-2.784252763E-1
3.263013027E0,-5.627093315E-1,5.446003750E-2,-3.050560951E-1
3.265479954E0,-6.564498544E-1,7.363422960E-2,-3.774919510E-1
3.267946829E0,-6.745588183E-1,6.937330216E-2,-3.828181326E-1
3.270413756E0,-5.744268894E-1,8.535179496E-2,-3.167736828E-1
3.272880683E0,-4.648410678E-1,4.167724028E-2,-2.400768995E-1
3.275346985E0,-3.476654291E-1,1.504641678E-2,-1.708367467E-1
3.277813912E0,-2.432725877E-1,-2.756290510E-2,-1.207707971E-1
3.280280787E0,-1.495320797E-1,-5.525896326E-2,-8.987903595E-2
3.282747767E0,-7.070484012E-2,-8.188978583E-2,-7.177007198E-2
3.285214589E0,-1.211702544E-2,-9.680305421E-2,-6.005251035E-2
3.287681517E0,3.155753016E-2,-1.031944528E-1,-4.407401755E-2
3.290148444E0,5.499265343E-2,-1.149120107E-1,-3.235645220E-2
3.292615319E0,6.990591437E-2,-1.170424819E-1,-2.063889056E-2
3.295083079E0,7.310161740E-2,-1.127815470E-1,-1.531272475E-2
3.297550006E0,6.777545065E-2,-1.074553803E-1,-8.921326138E-3
3.300016933E0,6.351451576E-2,-9.467258304E-2,-3.994623839E-4
3.302483860E0,5.392742157E-2,-8.402025700E-2,6.657706108E-4
3.304950787E0,4.647079110E-2,-7.549838722E-2,4.926702939E-3
3.307417714E0,3.475322574E-2,-6.910699606E-2,7.057168987E-3
3.309884642E0,2.303566411E-2,-6.165036187E-2,8.122402243E-3
3.312351569E0,9.187635034E-3,-5.419373140E-2,1.238333434E-2
3.314819277E0,2.796236658E-3,-5.099803209E-2,1.557903271E-2
3.317286256E0,-7.856093347E-3,-4.567186534E-2,1.451379992E-2
3.319753183E0,-1.744319126E-2,-4.354140162E-2,1.664426550E-2
3.322220110E0,-2.916075476E-2,-3.821523488E-2,1.770949923E-2
3.324687089E0,-3.448691964E-2,-3.608476743E-2,1.664426550E-2
3.327154017E0,-3.555215150E-2,-3.182383627E-2,2.197043039E-2
3.329620944E0,-4.087831825E-2,-3.182383627E-2,2.410089783E-2
3.332087923E0,-4.300878197E-2,-3.075860441E-2,2.729659714E-2
3.334567402E0,-4.513924941E-2,-2.117150649E-2,2.729659714E-2
3.337034694E0,-4.726971686E-2,-1.904104091E-2,2.836182900E-2
3.339501933E0,-4.940018058E-2,-1.478010789E-2,3.155753016E-2
3.341969173E0,-4.940018058E-2,-1.478010789E-2,3.155753016E-2
3.344436464E0,-4.940018058E-2,-1.051917579E-2,3.262276202E-2
3.346903704E0,-5.046541616E-2,-7.323476952E-3,3.368799388E-2
3.349370996E0,-4.940018058E-2,2.263620263E-3,3.368799388E-2
3.351838235E0,-4.833494872E-2,3.328853287E-3,3.688369319E-2
3.354304277E0,-4.300878197E-2,5.459319334E-3,3.901416063E-2
3.356770319E0,-3.874785081E-2,1.398118306E-2,3.794892505E-2
3.359236360E0,-3.448691964E-2,2.037258074E-2,3.901416063E-2
3.361702402E0,-2.703028731E-2,2.676397935E-2,3.794892505E-2
3.364168444E0,-2.383458801E-2,2.782921307E-2,3.688369319E-2
3.366634485E0,-2.063889056E-2,3.209014609E-2,3.794892505E-2
3.369100527E0,-1.637795754E-2,2.995967865E-2,3.262276202E-2
3.371566569E0,-9.986559860E-3,3.422060981E-2,2.942706272E-2
3.374032610E0,-2.529928461E-3,3.848154470E-2,2.729659714E-2
3.376498652E0,1.731003635E-3,4.593817517E-2,2.623136342E-2
3.378964694E0,3.861469682E-3,4.167724028E-2,2.090519853E-2
3.381430735E0,4.926702939E-3,4.700340703E-2,1.770949923E-2
3.383896777E0,7.057168987E-3,4.913387448E-2,1.557903271E-2
3.386362819E0,1.025286783E-2,4.487293959E-2,9.187635034E-3
3.388828860E0,1.025286783E-2,4.593817517E-2,5.991935730E-3
3.391294902E0,7.057168987E-3,4.806863889E-2,2.796236658E-3
3.393745110E0,4.926702939E-3,5.339480564E-2,-3.994623839E-4
3.396211777E0,4.926702939E-3,5.232957378E-2,-4.660394508E-3
3.398678444E0,5.991935730E-3,5.126433820E-2,-6.790860556E-3
3.401145058E0,5.991935730E-3,5.552527308E-2,-9.986559860E-3
3.403611725E0,7.057168987E-3,5.339480564E-2,-1.318225823E-2
3.406078392E0,3.861469682E-3,5.446003750E-2,-1.637795754E-2
3.408545058E0,3.861469682E-3,5.659050494E-2,-1.850842312E-2
3.411011673E0,3.861469682E-3,5.659050494E-2,-2.063889056E-2
3.413479850E0,7.057168987E-3,5.659050494E-2,-2.276935615E-2
3.415946517E0,8.122402243E-3,6.085143611E-2,-2.276935615E-2
3.418413183E0,9.187635034E-3,6.511236727E-2,-2.170412242E-2
3.420879902E0,7.057168987E-3,6.830807030E-2,-2.063889056E-2
3.423346569E0,8.122402243E-3,6.724283099E-2,-2.170412242E-2
3.425813287E0,8.122402243E-3,7.363422960E-2,-1.957365684E-2
3.428279954E0,5.991935730E-3,7.363422960E-2,-2.170412242E-2
3.430746621E0,4.926702939E-3,7.150376588E-2,-2.170412242E-2
3.433218652E0,8.122402243E-3,7.576470077E-2,-1.957365684E-2
3.435685475E0,9.187635034E-3,7.469946891E-2,-2.383458801E-2
3.438152298E0,1.025286783E-2,7.469946891E-2,-1.957365684E-2
3.440619121E0,8.122402243E-3,7.576470077E-2,-2.063889056E-2
3.443085944E0,8.122402243E-3,7.789516449E-2,-2.383458801E-2
3.445552767E0,7.057168987E-3,7.576470077E-2,-2.596505545E-2
3.448019589E0,8.122402243E-3,7.150376588E-2,-2.703028731E-2
3.450486412E0,8.122402243E-3,7.256899774E-2,-3.768261895E-2
3.452964798E0,1.238333434E-2,6.724283099E-2,-4.833494872E-2
3.455431881E0,9.187635034E-3,6.724283099E-2,-4.726971686E-2
3.457899017E0,8.122402243E-3,6.404713541E-2,-4.194355011E-2
3.460366100E0,7.057168987E-3,5.978620425E-2,-3.981308267E-2
3.462833235E0,5.991935730E-3,6.511236727E-2,-3.981308267E-2
3.465300319E0,9.187635034E-3,6.724283099E-2,-4.407401755E-2
3.467767454E0,8.122402243E-3,6.937330216E-2,-4.513924941E-2
3.470234589E0,5.991935730E-3,7.469946891E-2,-4.833494872E-2
3.472700944E0,9.187635034E-3,7.789516449E-2,-5.472634733E-2
3.475168027E0,1.238333434E-2,8.109086752E-2,-6.111774594E-2
3.477635110E0,8.122402243E-3,8.748225868E-2,-6.537867337E-2
3.480102194E0,9.187635034E-3,9.174319357E-2,-6.750914454E-2
3.482569277E0,8.122402243E-3,9.280842543E-2,-7.283531129E-2
3.485036412E0,8.122402243E-3,9.706936032E-2,-7.709623873E-2
3.487503496E0,1.451379992E-2,9.919982404E-2,-7.709623873E-2
3.489970579E0,1.877473295E-2,1.013302878E-1,-7.922670245E-2
3.492434433E0,2.303566411E-2,1.087869257E-1,-7.922670245E-2
3.494901412E0,2.623136342E-2,1.141130850E-1,-7.816147059E-2
3.497368444E0,2.516612969E-2,1.109173894E-1,-7.816147059E-2
3.499835423E0,2.942706272E-2,1.130478531E-1,-7.922670245E-2
3.502302454E0,3.368799388E-2,1.237001866E-1,-7.922670245E-2
3.504769485E0,3.901416063E-2,1.471353173E-1,-7.603100687E-2
3.507236464E0,4.647079110E-2,1.833532304E-1,-7.070484012E-2
3.509703496E0,5.392742157E-2,2.078536004E-1,-6.963960826E-2
3.512170839E0,6.138405204E-2,2.142449915E-1,-7.496577501E-2
3.514637819E0,5.605788901E-2,1.993317306E-1,-8.561810106E-2
3.517104850E0,5.392742157E-2,1.865489334E-1,-9.200949967E-2
3.519571881E0,5.605788901E-2,1.769618392E-1,-9.200949967E-2
3.522038912E0,5.286218971E-2,1.641790420E-1,-8.881380409E-2
3.524505892E0,4.966649041E-2,1.567224115E-1,-8.242240548E-2
3.526972923E0,4.753602296E-2,1.599181145E-1,-7.496577501E-2
3.529439954E0,4.966649041E-2,1.758965999E-1,-6.750914454E-2
3.531907767E0,5.073172227E-2,1.908098608E-1,-6.218297780E-2
3.534374798E0,5.073172227E-2,2.067883611E-1,-6.111774594E-2
3.536841829E0,5.499265343E-2,2.270277888E-1,-5.792204663E-2
3.539308860E0,6.031882018E-2,2.430062890E-1,-5.685681105E-2
3.541775892E0,6.244928762E-2,2.621804774E-1,-5.898727849E-2
3.544242923E0,6.990591437E-2,2.940043211E-1,-5.792204663E-2
3.546709954E0,7.722939551E-2,3.217003644E-1,-5.472634733E-2
3.549177037E0,8.362079412E-2,3.451355100E-1,-5.472634733E-2
3.551640996E0,9.107742459E-2,3.675054014E-1,-5.579157919E-2
3.554107975E0,9.533835202E-2,3.983971477E-1,-6.111774594E-2
3.556574954E0,1.059906855E-1,4.367455542E-1,-6.218297780E-2
3.559041881E0,1.187734827E-1,4.953333437E-1,-5.898727849E-2
3.561508860E0,1.422086060E-1,5.933347940E-1,-6.431344151E-2
3.563975839E0,1.976007223E-1,7.712287307E-1,-7.283531129E-2
3.566442767E0,2.774932086E-1,1.064034581E0,-8.774857223E-2
3.568909746E0,3.318201005E-1,1.148187995E0,-1.186403260E-1
3.571376933E0,3.392767310E-1,1.001185894E0,-1.292926520E-1
3.573843912E0,3.307548463E-1,9.031844735E-1,-1.218360290E-1
3.576310892E0,3.115806580E-1,7.946638465E-1,-1.260969639E-1
3.578777871E0,2.742975056E-1,6.402050257E-1,-1.324883550E-1
3.581244850E0,2.157096863E-1,4.569849670E-1,-1.292926520E-1
3.583711777E0,1.560566425E-1,3.217003644E-1,-1.143793985E-1
3.586178756E0,1.038602218E-1,2.248973250E-1,-8.774857223E-2
3.588645735E0,6.031882018E-2,1.450048387E-1,-6.857437640E-2
3.591111829E0,2.623136342E-2,9.067796171E-2,-5.472634733E-2
3.593578808E0,-1.464695437E-3,6.404713541E-2,-3.555215150E-2
3.596045735E0,-2.703028731E-2,4.061200842E-2,-1.850842312E-2
3.598512714E0,-5.366111174E-2,2.037258074E-2,-3.595161485E-3
3.600979642E0,-7.922670245E-2,6.524552125E-3,8.122402243E-3
3.603446569E0,-1.037270650E-1,1.198387123E-3,1.877473295E-2
3.605913548E0,-1.303578913E-1,-8.388710208E-3,2.623136342E-2
3.608380475E0,-1.484668553E-1,-2.223674022E-2,3.155753016E-2
3.610848287E0,-1.644453406E-1,-3.821523488E-2,3.049229458E-2
3.613315267E0,-1.697715074E-1,-5.951989442E-2,2.729659714E-2
3.615782246E0,-1.708367467E-1,-7.975932211E-2,2.942706272E-2
3.618249225E0,-1.708367467E-1,-9.467258304E-2,2.942706272E-2
3.620716204E0,-1.687062830E-1,-1.010639817E-1,2.729659714E-2
3.623183131E0,-1.591191888E-1,-1.021292135E-1,2.516612969E-2
3.625650110E0,-1.505973190E-1,-1.010639817E-1,2.303566411E-2
3.628117089E0,-1.431406885E-1,-9.467258304E-2,2.410089783E-2
3.630584121E0,-1.356840581E-1,-8.295502514E-2,2.303566411E-2
3.633051100E0,-1.292926520E-1,-7.443315536E-2,2.090519853E-2
3.635518079E0,-1.186403260E-1,-6.165036187E-2,1.770949923E-2
3.637985058E0,-1.111836955E-1,-4.034570232E-2,1.451379992E-2
3.640452037E0,-1.037270650E-1,-2.649767138E-2,1.025286783E-2
3.642919017E0,-9.840089828E-2,-1.691057347E-2,8.122402243E-3
3.645385996E0,-9.200949967E-2,-4.127778113E-3,5.991935730E-3
3.647852923E0,-8.881380409E-2,8.655018173E-3,2.796236658E-3
3.650318548E0,-8.455286920E-2,1.611164957E-2,1.731003635E-3
3.652785527E0,-7.816147059E-2,2.037258074E-2,-2.529928461E-3
3.655252454E0,-7.496577501E-2,3.209014609E-2,-2.529928461E-3
3.657719381E0,-6.963960826E-2,4.167724028E-2,-4.660394508E-3
3.660186308E0,-6.431344151E-2,5.232957378E-2,-5.725627299E-3
3.662653235E0,-6.005251035E-2,5.978620425E-2,-8.921326138E-3
3.665120214E0,-5.472634733E-2,6.830807030E-2,-9.986559860E-3
3.667587142E0,-4.726971686E-2,7.682993263E-2,-7.856093347E-3
3.670055006E0,-4.087831825E-2,8.428656310E-2,-8.921326138E-3
3.672521985E0,-3.342168778E-2,9.280842543E-2,-7.856093347E-3
3.674988964E0,-2.596505545E-2,1.002650559E-1,-6.790860556E-3
3.677455892E0,-1.850842312E-2,1.098521575E-1,-6.790860556E-3
3.679922871E0,-1.105179265E-2,1.162435561E-1,-4.660394508E-3
3.682389850E0,-4.660394508E-3,1.226349548E-1,-2.529928461E-3
3.684856777E0,3.861469682E-3,1.279611140E-1,-1.464695437E-3
3.687323756E0,1.238333434E-2,1.396786869E-1,-3.994623839E-4
3.689790214E0,1.557903271E-2,1.450048387E-1,-3.994623839E-4
3.692257194E0,1.877473295E-2,1.492657810E-1,1.731003635E-3
3.694724121E0,2.090519853E-2,1.556571722E-1,6.657706108E-4
3.697191100E0,2.303566411E-2,1.588528752E-1,-3.994623839E-4
3.699658027E0,2.623136342E-2,1.641790420E-1,-2.529928461E-3
3.702125006E0,3.049229458E-2,1.663095057E-1,-2.529928461E-3
3.704591933E0,2.942706272E-2,1.684399694E-1,-3.595161485E-3
3.707058860E0,3.155753016E-2,1.727008969E-1,-1.105179265E-2
3.709523704E0,3.581846133E-2,1.758965999E-1,-7.856093347E-3
3.711990631E0,3.688369319E-2,1.727008969E-1,-9.986559860E-3
3.714457506E0,3.901416063E-2,1.801575422E-1,-1.105179265E-2
3.716924381E0,4.114462435E-2,1.812227666E-1,-1.318225823E-2
3.719391308E0,4.540555924E-2,1.833532304E-1,-1.531272475E-2
3.721858183E0,4.647079110E-2,1.833532304E-1,-1.424749196E-2
3.724325110E0,5.073172227E-2,1.844184697E-1,-1.957365684E-2
3.726791985E0,5.286218971E-2,1.854836941E-1,-2.170412242E-2
3.729261933E0,5.712312087E-2,1.812227666E-1,-2.383458801E-2
3.731728912E0,5.712312087E-2,1.812227666E-1,-2.596505545E-2
3.734195892E0,6.138405204E-2,1.844184697E-1,-2.703028731E-2
3.736662871E0,6.457975507E-2,1.801575422E-1,-2.916075476E-2
3.739129850E0,6.671021879E-2,1.780270636E-1,-3.342168778E-2
3.741596829E0,6.990591437E-2,1.812227666E-1,-3.342168778E-2
3.744063808E0,7.416684926E-2,1.769618392E-1,-3.342168778E-2
3.746530787E0,7.616416365E-2,1.769618392E-1,-3.235645220E-2
3.748996933E0,7.616416365E-2,1.780270636E-1,-3.448691964E-2
3.751463912E0,8.042509109E-2,1.737661362E-1,-3.555215150E-2
3.753930839E0,8.042509109E-2,1.727008969E-1,-3.981308267E-2
3.756397819E0,8.149032295E-2,1.727008969E-1,-4.300878197E-2
3.758864746E0,8.042509109E-2,1.727008969E-1,-4.513924941E-2
3.761331725E0,8.042509109E-2,1.748313755E-1,-4.300878197E-2
3.763798652E0,8.042509109E-2,1.758965999E-1,-4.087831825E-2
3.766265631E0,8.042509109E-2,1.758965999E-1,-3.874785081E-2
3.768732506E0,8.362079412E-2,1.780270636E-1,-3.661738336E-2
3.771199485E0,8.362079412E-2,1.780270636E-1,-3.555215150E-2
3.773666412E0,8.362079412E-2,1.801575422E-1,-3.448691964E-2
3.776133392E0,8.362079412E-2,1.833532304E-1,-3.342168778E-2
3.778600319E0,7.935985923E-2,1.844184697E-1,-3.235645220E-2
3.781067298E0,7.935985923E-2,1.844184697E-1,-2.809552103E-2
3.783534225E0,8.149032295E-2,1.886793971E-1,-2.063889056E-2
3.786001204E0,8.362079412E-2,1.897446364E-1,-2.276935615E-2
3.788468756E0,8.042509109E-2,1.897446364E-1,-1.957365684E-2
3.790935735E0,7.616416365E-2,1.886793971E-1,-1.637795754E-2
3.793402714E0,7.722939551E-2,1.918751001E-1,-1.957365684E-2
3.795869694E0,7.722939551E-2,1.940055639E-1,-1.744319126E-2
3.798336673E0,7.203638554E-2,1.950708032E-1,-1.424749196E-2
3.800803600E0,6.884068251E-2,1.972012669E-1,-1.424749196E-2
3.803270579E0,6.671021879E-2,2.003969699E-1,-1.424749196E-2
3.805737558E0,6.671021879E-2,2.003969699E-1,-1.318225823E-2
3.808202194E0,6.457975507E-2,2.003969699E-1,-1.318225823E-2
3.810669121E0,5.925358832E-2,2.025274336E-1,-1.211702544E-2
3.813136048E0,5.605788901E-2,2.025274336E-1,-1.424749196E-2
3.815602923E0,5.818835273E-2,2.025274336E-1,-1.531272475E-2
3.818069850E0,5.712312087E-2,1.993317306E-1,-1.637795754E-2
3.820536777E0,4.966649041E-2,2.035926580E-1,-1.211702544E-2
3.823003652E0,4.966649041E-2,2.014621943E-1,-9.986559860E-3
3.825470579E0,4.540555924E-2,1.950708032E-1,-9.986559860E-3
3.827939121E0,4.647079110E-2,1.940055639E-1,-7.856093347E-3
3.830406100E0,4.540555924E-2,1.961360276E-1,-7.856093347E-3
3.832873027E0,4.220985994E-2,1.961360276E-1,-6.790860556E-3
3.835340006E0,4.220985994E-2,1.876141727E-1,-6.790860556E-3
3.837806933E0,4.007939249E-2,1.833532304E-1,-4.660394508E-3
3.840273912E0,3.794892505E-2,1.812227666E-1,-2.529928461E-3
3.842740839E0,3.368799388E-2,1.790923029E-1,1.731003635E-3
3.845207819E0,3.155753016E-2,1.780270636E-1,3.861469682E-3
3.847685319E0,2.729659714E-2,1.695052087E-1,1.731003635E-3
3.850152558E0,2.303566411E-2,1.673747450E-1,2.796236658E-3
3.852619746E0,2.410089783E-2,1.620485783E-1,8.122402243E-3
3.855086985E0,1.877473295E-2,1.556571722E-1,1.025286783E-2
3.857554225E0,1.451379992E-2,1.492657810E-1,9.187635034E-3
3.860021412E0,9.187635034E-3,1.428743750E-1,1.238333434E-2
3.862488652E0,2.796236658E-3,1.375482082E-1,1.451379992E-2
3.864955839E0,-1.464695437E-3,1.354177445E-1,1.025286783E-2
3.867409954E0,-4.660394508E-3,1.322220564E-1,1.025286783E-2
3.869876829E0,-1.531272475E-2,1.290263534E-1,9.187635034E-3
3.872343756E0,-1.957365684E-2,1.258306503E-1,9.187635034E-3
3.874810631E0,-2.276935615E-2,1.215697154E-1,1.344856713E-2
3.877277506E0,-2.703028731E-2,1.194392517E-1,1.025286783E-2
3.879744381E0,-3.129122034E-2,1.205044836E-1,1.025286783E-2
3.882211308E0,-3.555215150E-2,1.194392517E-1,1.344856713E-2
3.884678183E0,-3.874785081E-2,1.183740199E-1,1.451379992E-2
3.887144225E0,-4.513924941E-2,1.162435561E-1,1.451379992E-2
3.889610267E0,-4.940018058E-2,1.151783243E-1,1.664426550E-2
3.892076308E0,-4.833494872E-2,1.087869257E-1,1.664426550E-2
3.894542350E0,-5.366111174E-2,1.066564545E-1,1.557903271E-2
3.897008392E0,-5.792204663E-2,1.098521575E-1,1.770949923E-2
3.899474433E0,-5.898727849E-2,1.087869257E-1,1.877473295E-2
3.901940475E0,-5.898727849E-2,1.066564545E-1,1.770949923E-2
3.904406517E0,-6.218297780E-2,9.706936032E-2,1.770949923E-2
3.906865787E0,-6.324820966E-2,9.600412846E-2,2.090519853E-2
3.909332454E0,-6.431344151E-2,9.600412846E-2,2.197043039E-2
3.911799173E0,-6.324820966E-2,8.961272985E-2,2.197043039E-2
3.914265892E0,-6.324820966E-2,8.641702682E-2,2.090519853E-2
3.916732610E0,-6.005251035E-2,8.428656310E-2,1.983996481E-2
3.919199329E0,-5.792204663E-2,8.109086752E-2,2.090519853E-2
3.921666048E0,-5.898727849E-2,7.256899774E-2,2.303566411E-2
3.924132767E0,-5.792204663E-2,6.191666797E-2,2.303566411E-2
3.926604589E0,-5.472634733E-2,5.872096866E-2,2.303566411E-2
3.929071412E0,-5.685681105E-2,5.126433820E-2,2.303566411E-2
3.931538287E0,-5.685681105E-2,3.848154470E-2,2.623136342E-2
3.934005110E0,-5.153064802E-2,3.848154470E-2,2.623136342E-2
3.936471933E0,-5.046541616E-2,3.209014609E-2,2.729659714E-2
3.938938808E0,-4.513924941E-2,2.356828004E-2,2.942706272E-2
3.941405631E0,-3.981308267E-2,1.185071748E-2,3.475322574E-2
3.943872454E0,-3.555215150E-2,6.524552125E-3,3.368799388E-2
3.946321100E0,-3.235645220E-2,1.198387123E-3,3.794892505E-2
3.948787454E0,-3.129122034E-2,-4.127778113E-3,4.007939249E-2
3.951253860E0,-2.916075476E-2,-1.158440951E-2,4.220985994E-2
3.953720267E0,-2.809552103E-2,-1.051917579E-2,4.114462435E-2
3.956186621E0,-2.916075476E-2,-1.478010789E-2,4.114462435E-2
3.958653027E0,-2.809552103E-2,-1.584534161E-2,4.327509180E-2
3.961119381E0,-2.703028731E-2,-1.691057347E-2,4.327509180E-2
3.963585787E0,-2.489982173E-2,-2.436720580E-2,4.434032366E-2
3.966082819E0,-2.489982173E-2,-2.543243766E-2,4.434032366E-2
3.968549954E0,-2.596505545E-2,-2.756290510E-2,4.220985994E-2
3.971017142E0,-2.383458801E-2,-2.543243766E-2,3.794892505E-2
3.973484277E0,-2.170412242E-2,-2.543243766E-2,3.475322574E-2
3.975951412E0,-1.531272475E-2,-2.649767138E-2,3.262276202E-2
3.978418600E0,-1.637795754E-2,-2.756290510E-2,2.942706272E-2
3.980885735E0,-1.211702544E-2,-2.862813696E-2,2.942706272E-2
3.983352871E0,-7.856093347E-3,-3.075860441E-2,3.049229458E-2
3.985818912E0,-3.595161485E-3,-3.075860441E-2,2.729659714E-2
3.988284954E0,-1.464695437E-3,-2.862813696E-2,2.836182900E-2
3.990750996E0,2.796236658E-3,-2.649767138E-2,3.049229458E-2
3.993217037E0,7.057168987E-3,-2.330197208E-2,3.049229458E-2
3.995683079E0,1.238333434E-2,-1.904104091E-2,2.942706272E-2
3.998149121E0,1.131810062E-2,-1.478010789E-2,2.942706272E-2
4.000615162E0,1.664426550E-2,-1.051917579E-2,2.836182900E-2
4.003081204E0,1.983996481E-2,-9.453942999E-3,2.729659714E-2
4.005556256E0,2.090519853E-2,-1.997311832E-3,2.623136342E-2
4.008023600E0,2.197043039E-2,8.655018173E-3,2.836182900E-2
4.010490892E0,2.197043039E-2,9.720250964E-3,2.410089783E-2
4.012958183E0,2.303566411E-2,1.611164957E-2,1.877473295E-2
4.015425527E0,2.516612969E-2,2.143781446E-2,1.664426550E-2
4.017892819E0,2.410089783E-2,2.463351376E-2,1.664426550E-2
4.020360110E0,2.303566411E-2,2.995967865E-2,1.557903271E-2
4.022827454E0,2.303566411E-2,2.782921307E-2,1.238333434E-2
4.025293183E0,2.623136342E-2,2.889444493E-2,1.131810062E-2
4.027760475E0,3.155753016E-2,3.209014609E-2,9.187635034E-3
4.030227714E0,3.262276202E-2,2.995967865E-2,8.122402243E-3
4.032695006E0,3.262276202E-2,3.422060981E-2,2.796236658E-3
4.035162298E0,3.581846133E-2,3.315537795E-2,-3.994623839E-4
4.037629537E0,4.220985994E-2,3.102491237E-2,1.731003635E-3
4.040096829E0,4.327509180E-2,3.102491237E-2,6.657706108E-4
4.042564069E0,4.114462435E-2,3.528584540E-2,-2.529928461E-3
4.045027194E0,4.647079110E-2,3.635107726E-2,-2.529928461E-3
4.047494381E0,4.647079110E-2,3.848154470E-2,-3.595161485E-3
4.049961517E0,4.327509180E-2,4.061200842E-2,-2.529928461E-3
4.052428704E0,4.860125855E-2,4.593817517E-2,-3.595161485E-3
4.054895839E0,4.860125855E-2,4.380770773E-2,-1.464695437E-3
4.057363027E0,4.966649041E-2,4.487293959E-2,-1.464695437E-3
4.059830162E0,4.753602296E-2,5.339480564E-2,-3.994623839E-4
4.062297350E0,4.860125855E-2,5.659050494E-2,-1.464695437E-3
4.064762819E0,5.392742157E-2,5.446003750E-2,3.861469682E-3
4.067229954E0,5.712312087E-2,5.339480564E-2,1.731003635E-3
4.069697037E0,6.031882018E-2,5.872096866E-2,3.861469682E-3
4.072164173E0,6.031882018E-2,5.765573680E-2,7.057168987E-3
4.074631360E0,6.671021879E-2,5.659050494E-2,5.991935730E-3
4.077098444E0,6.884068251E-2,5.765573680E-2,5.991935730E-3
4.079565527E0,6.990591437E-2,5.552527308E-2,7.057168987E-3
4.082032662E0,7.416684926E-2,5.126433820E-2,5.991935730E-3
4.084496569E0,7.829462737E-2,5.446003750E-2,7.057168987E-3
4.086963600E0,7.935985923E-2,5.126433820E-2,7.057168987E-3
4.089430631E0,8.468602598E-2,5.232957378E-2,8.122402243E-3
4.091897662E0,8.681648970E-2,5.446003750E-2,9.187635034E-3
4.094364694E0,9.001219273E-2,5.232957378E-2,5.991935730E-3
4.096831777E0,8.894696087E-2,5.552527308E-2,3.861469682E-3
4.099298808E0,9.001219273E-2,5.978620425E-2,1.731003635E-3
4.101765839E0,9.214265645E-2,6.085143611E-2,2.796236658E-3
4.104232871E0,9.214265645E-2,6.298190355E-2,5.991935730E-3
4.106699902E0,9.853405505E-2,5.872096866E-2,5.991935730E-3
4.109166933E0,1.017297506E-1,5.552527308E-2,4.926702939E-3
4.111633964E0,1.038602218E-1,6.085143611E-2,7.057168987E-3
4.114100996E0,1.038602218E-1,5.765573680E-2,7.057168987E-3
4.116568027E0,1.059906855E-1,5.765573680E-2,3.861469682E-3
4.119035110E0,1.081211492E-1,5.872096866E-2,7.057168987E-3
4.121502142E0,1.081211492E-1,6.191666797E-2,8.122402243E-3
4.123970527E0,1.081211492E-1,5.765573680E-2,4.926702939E-3
4.126437610E0,1.145125479E-1,5.872096866E-2,4.926702939E-3
4.128904642E0,1.166430190E-1,5.765573680E-2,2.796236658E-3
4.131371725E0,1.219691783E-1,5.659050494E-2,1.731003635E-3
4.133838808E0,1.219691783E-1,5.978620425E-2,4.926702939E-3
4.136305892E0,1.240996495E-1,6.404713541E-2,4.926702939E-3
4.138772975E0,1.198387146E-1,7.043853402E-2,5.991935730E-3
4.141240006E0,1.155777797E-1,7.896039635E-2,8.122402243E-3
4.143701777E0,1.166430190E-1,7.789516449E-2,7.057168987E-3
4.146168756E0,1.145125479E-1,8.428656310E-2,5.991935730E-3
4.148635683E0,1.113168523E-1,9.174319357E-2,5.991935730E-3
4.151102610E0,1.123820841E-1,1.023955271E-1,8.122402243E-3
4.153569537E0,1.113168523E-1,1.087869257E-1,9.187635034E-3
4.156036517E0,1.091863886E-1,1.130478531E-1,1.131810062E-2
4.158503444E0,1.113168523E-1,1.162435561E-1,1.344856713E-2
4.160970371E0,1.081211492E-1,1.226349548E-1,1.451379992E-2
4.163440423E0,1.081211492E-1,1.268958896E-1,1.238333434E-2
4.165907454E0,1.113168523E-1,1.300915778E-1,1.131810062E-2
4.168374433E0,1.102516204E-1,1.418091506E-1,6.657706108E-4
4.170841464E0,1.049254537E-1,1.482005417E-1,-4.660394508E-3
4.173308496E0,1.049254537E-1,1.407439113E-1,-1.464695437E-3
4.175775475E0,1.049254537E-1,1.396786869E-1,2.796236658E-3
4.178242506E0,1.006645188E-1,1.460700780E-1,-3.994623839E-4
4.180709537E0,9.427312016E-2,1.513962448E-1,6.657706108E-4
4.183173235E0,8.788172156E-2,1.535267085E-1,5.991935730E-3
4.185640162E0,9.001219273E-2,1.631138027E-1,1.344856713E-2
4.188107142E0,9.427312016E-2,1.758965999E-1,1.664426550E-2
4.190574069E0,9.533835202E-2,1.876141727E-1,1.770949923E-2
4.193040996E0,1.006645188E-1,1.972012669E-1,2.090519853E-2
4.195507923E0,9.853405505E-2,2.057231218E-1,2.090519853E-2
4.197974850E0,1.027949899E-1,2.185059190E-1,2.197043039E-2
4.200441777E0,1.081211492E-1,2.131797522E-1,2.623136342E-2
4.202910787E0,1.145125479E-1,2.025274336E-1,3.262276202E-2
4.205377819E0,1.198387146E-1,1.929403245E-1,3.794892505E-2
4.207844798E0,1.240996495E-1,1.886793971E-1,4.647079110E-2
4.210311777E0,1.304910481E-1,1.908098608E-1,4.753602296E-2
4.212778756E0,1.347519755E-1,1.961360276E-1,5.073172227E-2
4.215245735E0,1.390129030E-1,2.025274336E-1,5.392742157E-2
4.217712714E0,1.400781423E-1,2.035926580E-1,4.966649041E-2
4.220179746E0,1.432738453E-1,2.046578974E-1,4.966649041E-2
4.222646152E0,1.411433816E-1,2.014621943E-1,4.647079110E-2
4.225113131E0,1.411433816E-1,2.025274336E-1,4.434032366E-2
4.227580110E0,1.422086060E-1,2.067883611E-1,4.966649041E-2
4.230047089E0,1.411433816E-1,2.035926580E-1,5.499265343E-2
4.232514069E0,1.432738453E-1,2.003969699E-1,6.138405204E-2
4.234981048E0,1.432738453E-1,2.003969699E-1,6.777545065E-2
4.237448027E0,1.422086060E-1,1.940055639E-1,6.671021879E-2
4.239915006E0,1.443390697E-1,1.950708032E-1,6.671021879E-2
4.242389017E0,1.464695334E-1,1.982664913E-1,6.990591437E-2
4.244856152E0,1.486000121E-1,1.993317306E-1,6.671021879E-2
4.247323287E0,1.443390697E-1,2.003969699E-1,6.351451576E-2
4.249790475E0,1.411433816E-1,2.014621943E-1,6.138405204E-2
4.252257610E0,1.400781423E-1,2.089188248E-1,5.712312087E-2
4.254724746E0,1.390129030E-1,2.238320857E-1,4.860125855E-2
4.257191933E0,1.358172148E-1,2.302234918E-1,5.179695413E-2
4.259659069E0,1.368824393E-1,2.259625494E-1,5.925358832E-2
4.262116673E0,1.379476786E-1,2.227668613E-1,6.138405204E-2
4.264583600E0,1.422086060E-1,2.185059190E-1,6.138405204E-2
4.267050527E0,1.454043090E-1,2.259625494E-1,5.392742157E-2
4.269517402E0,1.464695334E-1,2.376801223E-1,5.179695413E-2
4.271984329E0,1.443390697E-1,2.440715134E-1,5.499265343E-2
4.274451256E0,1.411433816E-1,2.430062890E-1,5.286218971E-2
4.276918183E0,1.443390697E-1,2.440715134E-1,5.073172227E-2
4.279385058E0,1.475347728E-1,2.557890713E-1,4.860125855E-2
4.281853756E0,1.475347728E-1,2.621804774E-1,4.327509180E-2
4.284320735E0,1.486000121E-1,2.749632597E-1,4.327509180E-2
4.286787714E0,1.454043090E-1,2.802894413E-1,4.327509180E-2
4.289254642E0,1.432738453E-1,2.834851444E-1,4.114462435E-2
4.291721621E0,1.464695334E-1,2.856155932E-1,4.753602296E-2
4.294188548E0,1.475347728E-1,2.834851444E-1,4.540555924E-2
4.296655527E0,1.496652365E-1,2.781589627E-1,3.794892505E-2
4.299122454E0,1.517957002E-1,2.813546658E-1,2.516612969E-2
4.301588444E0,1.507304758E-1,2.908086181E-1,1.983996481E-2
4.304055371E0,1.517957002E-1,2.877460718E-1,2.623136342E-2
4.306522350E0,1.592523307E-1,2.728328109E-1,3.262276202E-2
4.308989277E0,1.688394397E-1,2.643109560E-1,3.368799388E-2
4.311456204E0,1.826874614E-1,2.515281439E-1,3.688369319E-2
4.313923131E0,1.901440918E-1,2.462019771E-1,3.901416063E-2
4.316390058E0,1.976007223E-1,2.430062890E-1,4.114462435E-2
4.318856985E0,2.018616647E-1,2.504629195E-1,3.581846133E-2
4.321323964E0,1.997311860E-1,2.557890713E-1,3.368799388E-2
4.323790892E0,2.018616647E-1,2.589847744E-1,4.220985994E-2
4.326257871E0,2.029268891E-1,2.707023323E-1,4.220985994E-2
4.328724798E0,1.922745556E-1,2.866808474E-1,4.007939249E-2
4.331191725E0,1.880136281E-1,2.972000241E-1,4.007939249E-2
4.333658652E0,1.912093312E-1,3.067871034E-1,4.114462435E-2
4.336125579E0,1.880136281E-1,3.163742125E-1,4.007939249E-2
4.338592506E0,1.912093312E-1,3.227656186E-1,4.327509180E-2
4.341042194E0,1.965354979E-1,3.312874734E-1,4.647079110E-2
4.343508704E0,2.071878165E-1,3.248960674E-1,5.499265343E-2
4.345975214E0,2.082530558E-1,3.153089881E-1,5.499265343E-2
4.348441725E0,2.135792226E-1,3.078523576E-1,4.860125855E-2
4.350908183E0,2.157096863E-1,2.972000241E-1,5.392742157E-2
4.353374694E0,2.167749256E-1,2.866808474E-1,5.712312087E-2
4.355841204E0,2.199706137E-1,2.802894413E-1,6.351451576E-2
4.358307714E0,2.167749256E-1,2.760285139E-1,7.203638554E-2
4.360779225E0,2.125139832E-1,2.781589627E-1,7.416684926E-2
4.363245892E0,2.178401500E-1,2.770937383E-1,7.310161740E-2
4.365712506E0,2.167749256E-1,2.738980353E-1,7.310161740E-2
4.368179121E0,2.167749256E-1,2.696371078E-1,7.629731297E-2
4.370645735E0,2.189053893E-1,2.653761804E-1,7.629731297E-2
4.373112402E0,2.199706137E-1,2.632457018E-1,7.310161740E-2
4.375579017E0,2.210358530E-1,2.632457018E-1,7.310161740E-2
4.378045631E0,2.231663167E-1,2.536586225E-1,7.310161740E-2
4.380561621E0,2.231663167E-1,2.483324558E-1,7.097115368E-2
4.383029485E0,2.231663167E-1,2.398105860E-1,7.203638554E-2
4.385497402E0,2.242315561E-1,2.312887162E-1,7.310161740E-2
4.387965214E0,2.252967805E-1,2.270277888E-1,7.203638554E-2
4.390433079E0,2.274272442E-1,2.195711583E-1,7.416684926E-2
4.392900944E0,2.284924835E-1,2.163754553E-1,7.736254483E-2
4.395368808E0,2.284924835E-1,2.110492885E-1,7.842778414E-2
4.397836673E0,2.327534109E-1,2.046578974E-1,8.268871158E-2
4.400302714E0,2.327534109E-1,1.961360276E-1,8.694964647E-2
4.402768756E0,2.316881865E-1,1.950708032E-1,8.908011019E-2
4.405234798E0,2.316881865E-1,1.940055639E-1,8.908011019E-2
4.407700839E0,2.306229472E-1,1.950708032E-1,8.908011019E-2
4.410166881E0,2.327534109E-1,1.961360276E-1,9.227581322E-2
4.412632923E0,2.316881865E-1,2.003969699E-1,9.440627694E-2
4.415098964E0,2.231663167E-1,1.982664913E-1,9.121058136E-2
4.417565006E0,2.199706137E-1,2.003969699E-1,9.227581322E-2
4.420016360E0,2.157096863E-1,2.035926580E-1,9.547150880E-2
4.422483652E0,2.125139832E-1,2.014621943E-1,9.760197252E-2
4.424950996E0,2.125139832E-1,1.982664913E-1,9.653674066E-2
4.427418339E0,2.082530558E-1,1.961360276E-1,9.653674066E-2
4.429885683E0,2.039921284E-1,1.972012669E-1,1.007976755E-1
4.432353027E0,1.997311860E-1,1.950708032E-1,1.050586104E-1
4.434820371E0,1.954702586E-1,1.961360276E-1,1.029281393E-1
4.437287714E0,1.901440918E-1,1.972012669E-1,1.039933711E-1
4.439753756E0,1.880136281E-1,1.972012669E-1,9.866721183E-2
4.442219798E0,1.837527007E-1,1.950708032E-1,1.007976755E-1
4.444685839E0,1.794917583E-1,1.961360276E-1,1.007976755E-1
4.447151881E0,1.762960702E-1,1.993317306E-1,1.039933711E-1
4.449617923E0,1.731003672E-1,1.982664913E-1,1.018629074E-1
4.452083964E0,1.688394397E-1,1.982664913E-1,1.018629074E-1
4.454550006E0,1.645784974E-1,1.929403245E-1,1.018629074E-1
4.457016048E0,1.624480337E-1,1.929403245E-1,1.039933711E-1
4.459473756E0,1.624480337E-1,1.940055639E-1,1.050586104E-1
4.461940787E0,1.592523307E-1,1.929403245E-1,1.093195379E-1
4.464407767E0,1.581871063E-1,1.876141727E-1,1.114500016E-1
4.466874746E0,1.571218669E-1,1.876141727E-1,1.125152409E-1
4.469341777E0,1.581871063E-1,1.812227666E-1,1.125152409E-1
4.471808756E0,1.581871063E-1,1.705704331E-1,1.125152409E-1
4.474275735E0,1.549914032E-1,1.620485783E-1,1.125152409E-1
4.476742714E0,1.507304758E-1,1.577876359E-1,1.125152409E-1
4.479208079E0,1.496652365E-1,1.524614692E-1,1.189066395E-1
4.481675058E0,1.496652365E-1,1.460700780E-1,1.231675670E-1
4.484141985E0,1.464695334E-1,1.354177445E-1,1.263632625E-1
4.486608964E0,1.422086060E-1,1.290263534E-1,1.295589656E-1
4.489075892E0,1.379476786E-1,1.226349548E-1,1.338198930E-1
4.491542871E0,1.358172148E-1,1.141130850E-1,1.380808353E-1
4.494009798E0,1.304910481E-1,1.034607589E-1,1.423417628E-1
4.496476777E0,1.240996495E-1,9.387365729E-2,1.487331539E-1
4.498946777E0,1.209039465E-1,9.174319357E-2,1.519288570E-1
4.501413808E0,1.166430190E-1,8.428656310E-2,1.615159512E-1
4.503880787E0,1.091863886E-1,7.469946891E-2,1.647116542E-1
4.506347871E0,1.059906855E-1,7.363422960E-2,1.625811905E-1
4.508814850E0,9.533835202E-2,7.150376588E-2,1.615159512E-1
4.511281881E0,8.681648970E-2,6.830807030E-2,1.593854874E-1
4.513748912E0,8.149032295E-2,6.085143611E-2,1.604507267E-1
4.516215944E0,7.722939551E-2,4.913387448E-2,1.615159512E-1
4.518679485E0,8.042509109E-2,2.463351376E-2,1.636464298E-1
4.521146464E0,9.320788831E-2,1.331541280E-4,1.668421179E-1
4.523613392E0,9.640359133E-2,9.720250964E-3,1.647116542E-1
4.526080319E0,8.362079412E-2,2.676397935E-2,1.561897993E-1
4.528547246E0,6.777545065E-2,3.635107726E-2,1.402112991E-1
4.531014225E0,5.605788901E-2,3.954677656E-2,1.316894293E-1
4.533481152E0,4.434032366E-2,4.380770773E-2,1.284937263E-1
4.535948079E0,3.581846133E-2,4.380770773E-2,1.306242049E-1
4.538413496E0,3.368799388E-2,5.019910634E-2,1.359503716E-1
4.540880423E0,3.368799388E-2,5.765573680E-2,1.370155960E-1
4.543347298E0,3.368799388E-2,5.872096866E-2,1.338198930E-1
4.545814225E0,3.475322574E-2,6.404713541E-2,1.295589656E-1
4.548281100E0,3.262276202E-2,7.150376588E-2,1.263632625E-1
4.550748027E0,2.942706272E-2,7.256899774E-2,1.210371032E-1
4.553214902E0,3.049229458E-2,7.469946891E-2,1.178414002E-1
4.555681829E0,3.049229458E-2,7.896039635E-2,1.114500016E-1
4.558149954E0,2.729659714E-2,7.363422960E-2,1.082543060E-1
4.560616881E0,2.942706272E-2,5.446003750E-2,1.146457046E-1
4.563083860E0,4.007939249E-2,4.167724028E-2,1.242327988E-1
4.565550787E0,5.073172227E-2,4.700340703E-2,1.316894293E-1
4.568017714E0,5.712312087E-2,5.552527308E-2,1.327546686E-1
4.570484642E0,6.351451576E-2,7.043853402E-2,1.359503716E-1
4.572951569E0,6.990591437E-2,8.748225868E-2,1.434070021E-1
4.575418496E0,7.416684926E-2,8.854749799E-2,1.476679295E-1
4.577887558E0,8.149032295E-2,7.682993263E-2,1.529940963E-1
4.580354589E0,9.214265645E-2,6.724283099E-2,1.583202630E-1
4.582821569E0,1.027949899E-1,6.085143611E-2,1.636464298E-1
4.585288548E0,1.134473160E-1,5.339480564E-2,1.625811905E-1
4.587755527E0,1.219691783E-1,4.913387448E-2,1.604507267E-1
4.590222506E0,1.272953451E-1,4.913387448E-2,1.561897993E-1
4.592689485E0,1.304910481E-1,4.487293959E-2,1.476679295E-1
4.595156517E0,1.315562725E-1,4.593817517E-2,1.444722265E-1
4.597638496E0,1.326215118E-1,5.019910634E-2,1.380808353E-1
4.600105839E0,1.326215118E-1,5.765573680E-2,1.295589656E-1
4.602573183E0,1.294258088E-1,6.511236727E-2,1.178414002E-1
4.605040579E0,1.272953451E-1,8.322133124E-2,1.039933711E-1
4.607507923E0,1.187734827E-1,1.023955271E-1,9.440627694E-2
4.609975267E0,1.113168523E-1,1.226349548E-1,8.055824786E-2
4.612442662E0,1.081211492E-1,1.332872808E-1,7.203638554E-2
4.614910006E0,1.017297506E-1,1.332872808E-1,6.244928762E-2
4.617366048E0,9.959928691E-2,1.407439113E-1,5.712312087E-2
4.619833131E0,1.006645188E-1,1.418091506E-1,5.073172227E-2
4.622300214E0,1.006645188E-1,1.471353173E-1,5.073172227E-2
4.624767246E0,9.959928691E-2,1.577876359E-1,4.647079110E-2
4.627234329E0,9.853405505E-2,1.609833390E-1,4.647079110E-2
4.629701412E0,9.640359133E-2,1.577876359E-1,5.179695413E-2
4.632168496E0,9.853405505E-2,1.492657810E-1,5.392742157E-2
4.634635579E0,1.038602218E-1,1.460700780E-1,5.392742157E-2
4.637095579E0,1.038602218E-1,1.482005417E-1,5.499265343E-2
4.639562506E0,1.081211492E-1,1.524614692E-1,5.818835273E-2
4.642029381E0,1.177082509E-1,1.599181145E-1,6.244928762E-2
4.644496308E0,1.209039465E-1,1.684399694E-1,6.564498693E-2
4.646963183E0,1.230344176E-1,1.801575422E-1,6.884068251E-2
4.649430110E0,1.294258088E-1,1.961360276E-1,7.842778414E-2
4.651896985E0,1.272953451E-1,2.121145278E-1,8.588441461E-2
4.654363912E0,1.283605844E-1,2.217016220E-1,9.440627694E-2
4.656830058E0,1.262301207E-1,2.238320857E-1,1.007976755E-1
4.659296933E0,1.251648813E-1,2.185059190E-1,1.029281393E-1
4.661763808E0,1.240996495E-1,2.121145278E-1,1.039933711E-1
4.664230735E0,1.294258088E-1,1.982664913E-1,9.973244369E-2
4.666697610E0,1.294258088E-1,1.972012669E-1,9.760197252E-2
4.669164485E0,1.358172148E-1,1.972012669E-1,9.653674066E-2
4.671631360E0,1.390129030E-1,1.961360276E-1,9.866721183E-2
4.674098235E0,1.411433816E-1,1.972012669E-1,9.866721183E-2
4.676565267E0,1.400781423E-1,1.897446364E-1,9.866721183E-2
4.679032142E0,1.443390697E-1,1.801575422E-1,9.760197252E-2
4.681499069E0,1.368824393E-1,1.737661362E-1,9.760197252E-2
4.683965944E0,1.390129030E-1,1.652442664E-1,9.760197252E-2
4.686432767E0,1.422086060E-1,1.599181145E-1,9.653674066E-2
4.688899694E0,1.411433816E-1,1.503310055E-1,9.334104508E-2
4.691366569E0,1.443390697E-1,1.428743750E-1,9.653674066E-2
4.693833496E0,1.486000121E-1,1.386134475E-1,9.653674066E-2
4.696301204E0,1.507304758E-1,1.343525201E-1,9.547150880E-2
4.698768131E0,1.517957002E-1,1.311568171E-1,9.440627694E-2
4.701235058E0,1.528609395E-1,1.290263534E-1,9.334104508E-2
4.703701933E0,1.560566425E-1,1.268958896E-1,8.908011019E-2
4.706168860E0,1.560566425E-1,1.215697154E-1,8.375394344E-2
4.708635735E0,1.603175700E-1,1.194392517E-1,8.055824786E-2
4.711102662E0,1.613828093E-1,1.162435561E-1,7.416684926E-2
4.713569589E0,1.624480337E-1,1.098521575E-1,6.671021879E-2
4.716039485E0,1.624480337E-1,1.055912226E-1,6.351451576E-2
4.718506517E0,1.645784974E-1,1.002650559E-1,5.925358832E-2
4.720973496E0,1.571218669E-1,9.600412846E-2,4.966649041E-2
4.723440475E0,1.528609395E-1,9.493889660E-2,4.434032366E-2
4.725907454E0,1.560566425E-1,9.387365729E-2,4.327509180E-2
4.728374433E0,1.560566425E-1,9.174319357E-2,3.262276202E-2
4.730841412E0,1.539261788E-1,8.961272985E-2,2.303566411E-2
4.733308392E0,1.549914032E-1,9.813459218E-2,1.770949923E-2
4.735774381E0,1.613828093E-1,1.013302878E-1,9.187635034E-3
4.738241360E0,1.603175700E-1,1.098521575E-1,4.926702939E-3
4.740708339E0,1.571218669E-1,1.162435561E-1,6.657706108E-4
4.743175267E0,1.603175700E-1,1.258306503E-1,-4.660394508E-3
4.745642246E0,1.603175700E-1,1.343525201E-1,-8.921326138E-3
4.748109173E0,1.581871063E-1,1.375482082E-1,-1.637795754E-2
4.750576152E0,1.571218669E-1,1.450048387E-1,-2.276935615E-2
4.753043131E0,1.528609395E-1,1.535267085E-1,-2.703028731E-2
4.755507142E0,1.496652365E-1,1.599181145E-1,-3.022598661E-2
4.757974017E0,1.443390697E-1,1.673747450E-1,-3.555215150E-2
4.760440944E0,1.400781423E-1,1.748313755E-1,-3.874785081E-2
4.762907819E0,1.347519755E-1,1.801575422E-1,-4.194355011E-2
4.765374694E0,1.326215118E-1,1.854836941E-1,-4.407401755E-2
4.767841569E0,1.272953451E-1,1.865489334E-1,-4.407401755E-2
4.770308444E0,1.262301207E-1,1.833532304E-1,-4.194355011E-2
4.772775371E0,1.283605844E-1,1.844184697E-1,-3.874785081E-2
4.775241985E0,1.251648813E-1,1.812227666E-1,-3.342168778E-2
4.777708860E0,1.262301207E-1,1.780270636E-1,-2.383458801E-2
4.780175735E0,1.240996495E-1,1.780270636E-1,-1.424749196E-2
4.782642558E0,1.240996495E-1,1.684399694E-1,-8.921326138E-3
4.785109485E0,1.294258088E-1,1.503310055E-1,4.926702939E-3
4.787576412E0,1.368824393E-1,1.268958896E-1,1.344856713E-2
4.790043287E0,1.432738453E-1,1.045259908E-1,2.410089783E-2
4.792510162E0,1.464695334E-1,8.748225868E-2,3.794892505E-2
4.794978339E0,1.496652365E-1,6.830807030E-2,5.392742157E-2
4.797445267E0,1.475347728E-1,3.528584540E-2,6.671021879E-2
4.799912194E0,1.400781423E-1,6.524552125E-3,7.842778414E-2
4.802379069E0,1.272953451E-1,-1.371487509E-2,9.014534205E-2
4.804845996E0,1.091863886E-1,-3.288906813E-2,9.866721183E-2
4.807312923E0,9.533835202E-2,-4.460663348E-2,1.050586104E-1
4.809779850E0,8.255556226E-2,-4.567186534E-2,1.135804728E-1
4.812246725E0,7.310161740E-2,-5.206326395E-2,1.210371032E-1
4.814716256E0,7.097115368E-2,-6.484606117E-2,1.252980381E-1
4.817183235E0,6.564498693E-2,-8.402025700E-2,1.231675670E-1
4.819650214E0,6.031882018E-2,-1.074553803E-1,1.274285018E-1
4.822117194E0,5.605788901E-2,-1.213034093E-1,1.295589656E-1
4.824584173E0,4.860125855E-2,-1.351514459E-1,1.348851323E-1
4.827051152E0,4.434032366E-2,-1.489994675E-1,1.423417628E-1
4.829518131E0,3.901416063E-2,-1.660431921E-1,1.487331539E-1
4.831985110E0,3.262276202E-2,-1.798912287E-1,1.508636326E-1
4.834468808E0,2.729659714E-2,-1.862826198E-1,1.497983932E-1
4.836936204E0,1.983996481E-2,-1.948044896E-1,1.466026902E-1
4.839403600E0,1.344856713E-2,-2.086525112E-1,1.476679295E-1
4.841870996E0,5.991935730E-3,-2.299571782E-1,1.476679295E-1
4.844338392E0,-2.529928461E-3,-2.533923090E-1,1.423417628E-1
4.846805787E0,-5.725627299E-3,-2.693707943E-1,1.402112991E-1
4.849273183E0,-9.986559860E-3,-2.778926790E-1,1.423417628E-1
4.851740579E0,-1.744319126E-2,-2.768274248E-1,1.444722265E-1
4.854206621E0,-1.637795754E-2,-2.757622004E-1,1.423417628E-1
4.856672662E0,-2.276935615E-2,-2.746969759E-1,1.434070021E-1
4.859138704E0,-3.555215150E-2,-2.683055699E-1,1.412765235E-1
4.861604746E0,-4.194355011E-2,-2.555227578E-1,1.359503716E-1
4.864070787E0,-5.153064802E-2,-2.438052148E-1,1.316894293E-1
4.866536829E0,-6.218297780E-2,-2.374138087E-1,1.274285018E-1
4.869002871E0,-7.283531129E-2,-2.342181057E-1,1.242327988E-1
4.871468912E0,-7.603100687E-2,-2.288919389E-1,1.210371032E-1
4.873934954E0,-8.348763734E-2,-2.225005478E-1,1.167761683E-1
4.876400996E0,-9.094426781E-2,-2.203700840E-1,1.135804728E-1
4.878867037E0,-1.037270650E-1,-2.299571782E-1,1.061238423E-1
4.881333079E0,-1.175750941E-1,-2.352833450E-1,1.039933711E-1
4.883799121E0,-1.314231306E-1,-2.384790480E-1,9.973244369E-2
4.886265162E0,-1.516625583E-1,-2.374138087E-1,9.866721183E-2
4.888731204E0,-1.644453406E-1,-2.256962508E-1,9.760197252E-2
4.891197246E0,-1.793586165E-1,-2.107829899E-1,9.440627694E-2
4.893663287E0,-1.889457107E-1,-1.969349533E-1,9.014534205E-2
4.896109485E0,-1.964023411E-1,-1.830869317E-1,8.801487833E-2
4.898576100E0,-1.985328048E-1,-1.692388952E-1,8.481918275E-2
4.901042767E0,-2.017285079E-1,-1.596518010E-1,7.842778414E-2
4.903509381E0,-2.081198990E-1,-1.489994675E-1,7.523208112E-2
4.905976048E0,-2.113156021E-1,-1.362166703E-1,7.203638554E-2
4.908442662E0,-2.198374718E-1,-1.308905035E-1,7.097115368E-2
4.910909329E0,-2.251636237E-1,-1.287600398E-1,6.671021879E-2
4.913377089E0,-2.326202542E-1,-1.234338731E-1,6.884068251E-2
4.915843756E0,-2.390116602E-1,-1.244991124E-1,6.990591437E-2
4.918310423E0,-2.443378270E-1,-1.255643368E-1,7.203638554E-2
4.920777089E0,-2.496639937E-1,-1.170424819E-1,7.203638554E-2
4.923243756E0,-2.358159572E-1,-5.525896326E-2,6.990591437E-2
4.925710423E0,-2.187722325E-1,-3.062544856E-3,7.097115368E-2
4.928177089E0,-2.145113051E-1,9.720250964E-3,7.310161740E-2
4.930643756E0,-2.187722325E-1,6.524552125E-3,7.097115368E-2
4.933128079E0,-2.209026963E-1,2.037258074E-2,6.777545065E-2
4.935595214E0,-2.145113051E-1,5.978620425E-2,6.351451576E-2
4.938062298E0,-1.910761744E-1,1.002650559E-1,6.564498693E-2
4.940529381E0,-1.612496525E-1,1.300915778E-1,7.842778414E-2
4.942996517E0,-1.218360290E-1,1.482005417E-1,9.014534205E-2
4.945463652E0,-7.603100687E-2,1.716356725E-1,9.227581322E-2
