"Time (s)","Gyroscope x (rad/s)","Gyroscope y (rad/s)","Gyroscope z (rad/s)"
9.143315600E-2,-1.692624986E-1,-2.983750105E-1,1.802625060E-1
9.342330100E-2,-1.777874976E-1,-2.972750068E-1,1.769624949E-1
9.541322400E-2,-1.926375031E-1,-3.046999872E-1,1.706375033E-1
9.740307000E-2,-2.065249979E-1,-3.089624941E-1,1.621125042E-1
9.939314500E-2,-2.246749997E-1,-3.100624979E-1,1.524875015E-1
1.013830650E-1,-2.384250015E-1,-3.143250048E-1,1.482249945E-1
1.033731400E-1,-2.545124888E-1,-3.185875118E-1,1.407999992E-1
1.053630650E-1,-2.715624869E-1,-3.196874857E-1,1.322750002E-1
1.073531400E-1,-2.886124849E-1,-3.239499927E-1,1.237500012E-1
1.093430650E-1,-3.023625016E-1,-3.302749991E-1,1.183874980E-1
1.113331400E-1,-3.162499964E-1,-3.302749991E-1,1.088999957E-1
1.133230850E-1,-3.332999945E-1,-3.313750029E-1,1.024374962E-1
1.153131600E-1,-3.492499888E-1,-3.334375024E-1,9.707500041E-2
1.173030850E-1,-3.642374873E-1,-3.356375098E-1,8.758749813E-2
1.192931600E-1,-3.779875040E-1,-3.377000093E-1,8.002500236E-2
1.212830850E-1,-3.950375021E-1,-3.324750066E-1,7.479999959E-2
1.232731600E-1,-4.120875001E-1,-3.356375098E-1,6.723749638E-2
1.252631080E-1,-4.313375056E-1,-3.313750029E-1,6.201250106E-2
1.272531830E-1,-4.461874962E-1,-3.249124885E-1,6.091250107E-2
1.292431080E-1,-4.611749947E-1,-3.196874857E-1,5.555000156E-2
1.312331830E-1,-4.739624858E-1,-3.121249974E-1,5.238749832E-2
1.332231080E-1,-4.930749834E-1,-3.143250048E-1,5.128749833E-2
1.352131830E-1,-5.101249814E-1,-3.015374839E-1,4.922499880E-2
1.372031370E-1,-5.240125060E-1,-3.004375100E-1,4.922499880E-2
1.391932120E-1,-5.388625264E-1,-2.919124961E-1,4.496249929E-2
1.411831370E-1,-5.527499914E-1,-2.919124961E-1,4.386249930E-2
1.431732120E-1,-5.644375086E-1,-2.822875082E-1,4.166249931E-2
1.451630600E-1,-5.698000193E-1,-2.813250124E-1,4.386249930E-2
1.471532120E-1,-5.794249773E-1,-2.770625055E-1,4.922499880E-2
1.491431420E-1,-5.922124982E-1,-2.770625055E-1,4.386249930E-2
1.511332170E-1,-6.007375121E-1,-2.813250124E-1,4.276249930E-2
1.531231420E-1,-6.039000154E-1,-2.780250013E-1,4.276249930E-2
1.551129880E-1,-6.070625186E-1,-2.822875082E-1,4.069999978E-2
1.571030630E-1,-6.092625260E-1,-2.737624943E-1,3.533750027E-2
1.590929880E-1,-6.092625260E-1,-2.716999948E-1,3.423750028E-2
1.610831730E-1,-6.102250218E-1,-2.663374841E-1,2.571249940E-2
1.630730210E-1,-6.028000116E-1,-2.600125074E-1,1.938750036E-2
1.650630960E-1,-5.953750014E-1,-2.546499968E-1,1.402499992E-2
1.670530210E-1,-5.889124870E-1,-2.450249940E-1,1.237499993E-3
1.690430960E-1,-5.836874843E-1,-2.375999987E-1,-1.264999993E-2
1.710330210E-1,-5.655375123E-1,-2.248124927E-1,-2.859999985E-2
1.730230960E-1,-5.462874770E-1,-2.173874974E-1,-4.455000162E-2
1.750130210E-1,-5.293750167E-1,-2.056999952E-1,-5.953750014E-2
1.770030960E-1,-5.090249777E-1,-1.981374919E-1,-8.071249723E-2
1.789930210E-1,-4.867500067E-1,-1.875499934E-1,-1.010624990E-1
1.809830960E-1,-4.547125101E-1,-1.875499934E-1,-1.244374961E-1
1.829730210E-1,-4.248749912E-1,-1.779250056E-1,-1.511124969E-1
1.849631010E-1,-3.950375021E-1,-1.725624949E-1,-1.809500009E-1
1.869530260E-1,-3.609375060E-1,-1.704999954E-1,-2.139499933E-1
1.889431010E-1,-3.258749843E-1,-1.683000028E-1,-2.437874973E-1
1.909330260E-1,-2.917749882E-1,-1.608749926E-1,-2.788499892E-1
1.929231010E-1,-2.576749921E-1,-1.555124968E-1,-3.129499853E-1
1.949130260E-1,-2.182125002E-1,-1.460250020E-1,-3.492499888E-1
1.969031100E-1,-1.831499934E-1,-1.363999993E-1,-3.843125105E-1
1.988930350E-1,-1.457500011E-1,-1.310375035E-1,-4.206124842E-1
2.008831100E-1,-1.117874980E-1,-1.225124970E-1,-4.567750096E-1
2.028730350E-1,-8.291249722E-2,-1.108250022E-1,-4.888125062E-1
2.048631100E-1,-4.991250113E-2,-1.002374962E-1,-5.207124949E-1
2.068530350E-1,-1.801249944E-2,-8.415000141E-2,-5.473874807E-1
2.088431250E-1,6.462499965E-3,-6.929999590E-2,-5.718625188E-1
2.108330500E-1,3.107500076E-2,-5.761250108E-2,-5.942749977E-1
2.128231250E-1,4.812499881E-2,-4.688749835E-2,-6.080250144E-1
2.148130500E-1,6.613750011E-2,-3.629999980E-2,-6.208124757E-1
2.168031250E-1,8.428750187E-2,-2.131249942E-2,-6.304374933E-1
2.187929770E-1,9.913749993E-2,-9.624999948E-3,-6.347000003E-1
2.207831290E-1,1.098624989E-1,6.324999966E-3,-6.335999966E-1
2.227730540E-1,1.183874980E-1,2.557500079E-2,-6.293374896E-1
2.247631290E-1,1.247124970E-1,3.189999983E-2,-6.198499799E-1
2.267530540E-1,1.343374997E-1,4.468749836E-2,-6.080250144E-1
2.287429000E-1,1.332374960E-1,5.115000159E-2,-5.920749903E-1
2.307330850E-1,1.354375035E-1,5.747500062E-2,-5.729625225E-1
2.327231620E-1,1.343374997E-1,5.857500061E-2,-5.527499914E-1
2.347130100E-1,1.365374923E-1,5.541250110E-2,-5.303375125E-1
2.367029330E-1,1.354375035E-1,4.578749835E-2,-5.058624744E-1
2.386930080E-1,1.322750002E-1,3.079999983E-2,-4.791874886E-1
2.406829330E-1,1.258125007E-1,1.704999991E-2,-4.547125101E-1
2.426730270E-1,1.269125044E-1,7.424999960E-3,-4.237749875E-1
2.446629520E-1,1.237500012E-1,-3.299999982E-3,-4.003999829E-1
2.466530270E-1,1.215500012E-1,-2.034999989E-2,-3.790875077E-1
2.486429520E-1,1.226499975E-1,-3.093750030E-2,-3.546124995E-1
2.506330270E-1,1.226499975E-1,-4.372499883E-2,-3.342624903E-1
2.526229530E-1,1.269125044E-1,-5.541250110E-2,-3.162499964E-1
2.546130370E-1,1.280124933E-1,-7.672499865E-2,-3.001624942E-1
2.566029630E-1,1.300749928E-1,-8.744999766E-2,-2.864125073E-1
2.585930370E-1,1.365374923E-1,-9.693749994E-2,-2.745875120E-1
2.605829630E-1,1.439625025E-1,-1.002374962E-1,-2.651000023E-1
2.625730370E-1,1.545500010E-1,-1.119249985E-1,-2.543750107E-1
2.645629630E-1,1.599124968E-1,-1.150875017E-1,-2.565749884E-1
2.665530320E-1,1.599124968E-1,-1.225124970E-1,-2.523125112E-1
2.685429580E-1,1.630750000E-1,-1.278750002E-1,-2.597374916E-1
2.705330320E-1,1.641750038E-1,-1.343374997E-1,-2.682625055E-1
2.725229580E-1,1.652749926E-1,-1.375000030E-1,-2.714250088E-1
2.745128040E-1,1.630750000E-1,-1.469874978E-1,-2.821500003E-1
2.765029560E-1,1.610125005E-1,-1.523499936E-1,-2.938374877E-1
2.784930180E-1,1.513874978E-1,-1.640374959E-1,-3.140499890E-1
2.804828670E-1,1.428624988E-1,-1.790249944E-1,-3.257375062E-1
2.824727900E-1,1.322750002E-1,-1.981374919E-1,-3.438875079E-1
2.844628650E-1,1.183874980E-1,-2.109249979E-1,-3.620375097E-1
2.864527900E-1,1.044999957E-1,-2.216500044E-1,-3.790875077E-1
2.884428650E-1,8.428750187E-2,-2.344374955E-1,-3.993000090E-1
2.904327710E-1,6.187500060E-2,-2.674374878E-1,-4.056249857E-1
2.924228460E-1,3.533750027E-2,-2.855874896E-1,-4.078249931E-1
2.944127710E-1,9.762499481E-3,-3.143250048E-1,-4.152500033E-1
2.964028460E-1,-2.763750032E-2,-3.409999907E-1,-4.259749949E-1
2.983927710E-1,-6.806249917E-2,-3.697375059E-1,-4.365625083E-1
3.003828460E-1,-1.149500012E-1,-3.973749876E-1,-4.525125027E-1
3.023727700E-1,-1.585374922E-1,-4.218499959E-1,-4.695625007E-1
3.043628450E-1,-2.087250054E-1,-4.527874887E-1,-4.877125025E-1
3.063527700E-1,-2.662000060E-1,-4.804250002E-1,-5.058624744E-1
3.083428450E-1,-3.194124997E-1,-5.070999861E-1,-5.218124986E-1
3.103327700E-1,-3.716624975E-1,-5.209875107E-1,-5.292375088E-1
3.123228450E-1,-4.196499884E-1,-5.358374715E-1,-5.431249738E-1
3.143127610E-1,-4.643374979E-1,-5.400999784E-1,-5.484874845E-1
3.163028360E-1,-5.112249851E-1,-5.528874993E-1,-5.516499877E-1
3.182927610E-1,-5.527499914E-1,-5.582500100E-1,-5.548124909E-1
3.202828360E-1,-5.889124870E-1,-5.667750239E-1,-5.399624705E-1
3.222727610E-1,-6.241124868E-1,-5.773624778E-1,-5.346000195E-1
3.242628360E-1,-6.550499797E-1,-5.944125056E-1,-5.186499953E-1
3.262527460E-1,-6.901124716E-1,-6.168249846E-1,-5.047624707E-1
3.282428210E-1,-7.125250101E-1,-6.403374672E-1,-4.845499992E-1
3.302327460E-1,-7.349374890E-1,-6.690750122E-1,-4.663999975E-1
3.322228210E-1,-7.562500238E-1,-7.031750083E-1,-4.387624860E-1
3.342127460E-1,-7.785249949E-1,-7.447000146E-1,-4.217124879E-1
3.362028210E-1,-7.881500125E-1,-7.830625176E-1,-3.961375058E-1
3.381927510E-1,-7.955750227E-1,-8.223875165E-1,-3.662999868E-1
3.401825970E-1,-8.020374775E-1,-8.757374883E-1,-3.438875079E-1
3.421727490E-1,-8.051999807E-1,-9.332125187E-1,-3.140499890E-1
3.441628260E-1,-7.977749705E-1,-9.854624867E-1,-2.842124999E-1
3.461526740E-1,-7.988749743E-1,-1.038674951E0,-2.597374916E-1
3.481428260E-1,-7.977749705E-1,-1.095187545E0,-2.437874973E-1
3.501327610E-1,-7.935125232E-1,-1.149500012E0,-2.182125002E-1
3.521228360E-1,-7.903500199E-1,-1.204912543E0,-1.989624947E-1
3.541127610E-1,-7.881500125E-1,-1.261287451E0,-1.830125004E-1
3.561026070E-1,-7.838875055E-1,-1.316699982E0,-1.670625061E-1
3.580926820E-1,-7.785249949E-1,-1.372112513E0,-1.489125043E-1
3.600826210E-1,-7.710999846E-1,-1.499987483E0,-1.372250021E-1
3.620726960E-1,-7.699999809E-1,-1.624562502E0,-1.297999918E-1
3.640626210E-1,-7.562500238E-1,-1.704450011E0,-1.170125008E-1
3.660526960E-1,-7.402999997E-1,-1.745975018E0,-1.084875017E-1
3.680426210E-1,-7.306749821E-1,-1.759862542E0,-9.569999576E-2
3.700326960E-1,-7.210500240E-1,-1.763025045E0,-8.401250094E-2
3.720226160E-1,-7.093625069E-1,-1.751337528E0,-7.644999772E-2
3.740126910E-1,-6.997374892E-1,-1.737450004E0,-6.696250290E-2
3.760026160E-1,-6.880499721E-1,-1.703349948E0,-5.101250112E-2
3.779926910E-1,-6.795250177E-1,-1.675712466E0,-3.492499888E-2
3.799826160E-1,-6.678375006E-1,-1.639549971E0,-1.581249945E-2
3.819726910E-1,-6.582124829E-1,-1.606412530E0,1.374999993E-4
3.839626110E-1,-6.432250142E-1,-1.570250034E0,2.901249938E-2
3.859526860E-1,-6.348375082E-1,-1.530787468E0,6.091250107E-2
3.879426110E-1,-6.166874766E-1,-1.493525028E0,9.184999764E-2
3.899326860E-1,-6.092625260E-1,-1.458462477E0,1.226499975E-1
3.919226110E-1,-5.900124907E-1,-1.417899966E0,1.652749926E-1
3.939126860E-1,-5.814874768E-1,-1.369912505E0,1.982749999E-1
3.959026070E-1,-5.633375049E-1,-1.327425003E0,2.388374954E-1
3.978926820E-1,-5.644375086E-1,-1.292225003E0,2.771999836E-1
3.998826070E-1,-5.623750091E-1,-1.246437550E0,3.229874969E-1
4.018726820E-1,-5.783249736E-1,-1.196387529E0,3.634124994E-1
4.038626070E-1,-6.017000079E-1,-1.119662523E0,4.049375057E-1
4.058526820E-1,-6.177874804E-1,-1.018462539E0,4.433000088E-1
4.078425920E-1,-6.391000152E-1,-9.013124704E-1,4.677749872E-1
4.098326670E-1,-6.432250142E-1,-7.712374926E-1,4.901874959E-1
4.118225920E-1,-6.411625147E-1,-6.338750124E-1,5.103999972E-1
4.138126670E-1,-6.241124868E-1,-5.017374754E-1,5.285499692E-1
4.158025920E-1,-6.039000154E-1,-3.749625087E-1,5.476624966E-1
4.177926670E-1,-5.751624703E-1,-2.567124963E-1,5.615500212E-1
4.197825250E-1,-5.527499914E-1,-1.438249946E-1,5.785999894E-1
4.217726770E-1,-5.208500028E-1,-3.629999980E-2,5.999125242E-1
4.237626020E-1,-5.047624707E-1,7.452499866E-2,6.169624925E-1
4.257524480E-1,-4.899125099E-1,1.938749999E-1,6.371750236E-1
4.277426000E-1,-4.824874997E-1,3.216125071E-1,6.573874950E-1
4.297324480E-1,-4.749250114E-1,4.602124989E-1,6.755374670E-1
4.317226000E-1,-4.686000049E-1,6.092625260E-1,6.872249842E-1
4.337126770E-1,-4.589749873E-1,7.434625030E-1,6.947875023E-1
4.357025250E-1,-4.450874925E-1,8.894875050E-1,7.053750157E-1
4.376924480E-1,-4.334000051E-1,1.022587538E0,7.085375190E-1
4.396825230E-1,-4.228124917E-1,1.139737487E0,7.075750232E-1
4.416724480E-1,-4.239124954E-1,1.242037535E0,7.064750195E-1
4.436625180E-1,-4.248749912E-1,1.351762533E0,6.990500093E-1
4.456524430E-1,-4.196499884E-1,1.470012546E0,6.957499981E-1
4.476425180E-1,-4.174500108E-1,1.593624949E0,6.840624809E-1
4.496324430E-1,-4.153875113E-1,1.710775018E0,6.701750159E-1
4.516225180E-1,-4.100250006E-1,1.827924967E0,6.573874950E-1
4.536124430E-1,-4.078249931E-1,1.924862504E0,6.414374709E-1
4.556025080E-1,-4.142875075E-1,2.004750013E0,6.169624925E-1
4.575924330E-1,-4.142875075E-1,2.067587376E0,5.988125205E-1
4.595825080E-1,-4.217124879E-1,2.104850054E0,5.700749755E-1
4.615724330E-1,-4.302375019E-1,2.118737459E0,5.487625003E-1
4.635625080E-1,-4.472874999E-1,2.113374949E0,5.168625116E-1
4.655524330E-1,-4.589749873E-1,2.092062473E0,4.966500103E-1
4.675425130E-1,-4.802874923E-1,2.053837538E0,4.657124877E-1
4.695323620E-1,-5.101249814E-1,1.998425007E0,4.358749986E-1
4.715225130E-1,-5.388625264E-1,1.929124951E0,4.113999903E-1
4.735124380E-1,-5.687000155E-1,1.846074939E0,3.826625049E-1
4.755022850E-1,-5.996375084E-1,1.756562471E0,3.623124957E-1
4.774923600E-1,-6.369000077E-1,1.653300047E0,3.368749917E-1
4.794822990E-1,-6.721000075E-1,1.545637488E0,3.122625053E-1
4.814723740E-1,-7.050999999E-1,1.433850050E0,2.931500077E-1
4.834622990E-1,-7.423624992E-1,1.307075024E0,2.707374990E-1
4.854523740E-1,-7.775624990E-1,1.185524940E0,2.516250014E-1
4.874422990E-1,-8.105624914E-1,1.058887482E0,2.323749959E-1
4.894323740E-1,-8.361374736E-1,9.310125113E-1,2.132624984E-1
4.914222800E-1,-8.595125079E-1,7.946124673E-1,1.993750036E-1
4.934123550E-1,-8.787624836E-1,6.615124941E-1,1.887875050E-1
4.954022800E-1,-8.936125040E-1,5.315750241E-1,1.780624986E-1
4.973923550E-1,-9.074999690E-1,4.005374908E-1,1.695374995E-1
4.993822800E-1,-9.160249829E-1,2.715624869E-1,1.641750038E-1
5.013723550E-1,-9.171249866E-1,1.427250057E-1,1.632124931E-1
5.033622850E-1,-9.171249866E-1,2.021249942E-2,1.632124931E-1
5.053523600E-1,-9.138249755E-1,-8.951249719E-2,1.652749926E-1
5.073422850E-1,-9.074999690E-1,-1.971749961E-1,1.695374995E-1
5.093323600E-1,-8.989750147E-1,-3.121249974E-1,1.780624986E-1
5.113222850E-1,-8.967750072E-1,-4.261125028E-1,1.940124929E-1
5.133123600E-1,-8.872874975E-1,-5.380374789E-1,2.292124927E-1
5.153022940E-1,-8.850874901E-1,-6.477624774E-1,2.536875010E-1
5.172923690E-1,-8.787624836E-1,-7.425000072E-1,2.857249975E-1
5.192822940E-1,-8.797249794E-1,-8.320124745E-1,3.059374988E-1
5.212723690E-1,-8.702374697E-1,-9.204249978E-1,3.335750103E-1
5.232622940E-1,-8.659750223E-1,-1.031250000E0,3.580499887E-1
5.252523690E-1,-8.659750223E-1,-1.127087474E0,3.815625012E-1
5.272422990E-1,-8.691374660E-1,-1.205875039E0,4.113999903E-1
5.292323740E-1,-8.711999655E-1,-1.266649961E0,4.347749949E-1
5.312222990E-1,-8.754624724E-1,-1.328387499E0,4.560874999E-1
5.332123740E-1,-8.765624762E-1,-1.373212457E0,4.796000123E-1
5.352022990E-1,-8.797249794E-1,-1.404012442E0,5.051749945E-1
5.371923740E-1,-8.850874901E-1,-1.423262477E0,5.222250223E-1
5.391822850E-1,-8.925125003E-1,-1.412537456E0,5.455999970E-1
5.411723600E-1,-9.000750184E-1,-1.386962533E0,5.615500212E-1
5.431622850E-1,-9.010375142E-1,-1.333750010E0,5.860249996E-1
5.451523600E-1,-9.053000212E-1,-1.258124948E0,6.041749716E-1
5.471422080E-1,-9.138249755E-1,-1.177137494E0,6.201249957E-1
5.491323600E-1,-9.106624722E-1,-1.071674943E0,6.362124681E-1
5.511221840E-1,-9.128624797E-1,-9.502624869E-1,6.531249881E-1
5.531123360E-1,-9.085999727E-1,-8.234875202E-1,6.638500094E-1
5.551022610E-1,-9.000750184E-1,-6.765000224E-1,6.723750234E-1
5.570921070E-1,-8.904500008E-1,-5.178250074E-1,6.766374707E-1
5.590821820E-1,-8.776624799E-1,-3.356375098E-1,6.819999814E-1
5.610721070E-1,-8.626750112E-1,-1.449249983E-1,6.819999814E-1
5.630621580E-1,-8.489249945E-1,5.857500061E-2,6.840624809E-1
5.650520830E-1,-8.339374661E-1,2.535499930E-1,6.734749675E-1
5.670421580E-1,-8.126249909E-1,4.398624897E-1,6.627500057E-1
5.690320830E-1,-7.946124673E-1,6.157249808E-1,6.467999816E-1
5.710221580E-1,-7.679374814E-1,7.732999921E-1,6.169624925E-1
5.730120830E-1,-7.497875094E-1,9.139624834E-1,5.893250108E-1
5.750021630E-1,-7.242124677E-1,1.041837454E0,5.498625040E-1
5.769920880E-1,-7.028999925E-1,1.155825019E0,5.083374977E-1
5.789821630E-1,-6.848874688E-1,1.245200038E0,4.668124914E-1
5.809720880E-1,-6.624749899E-1,1.321925044E0,4.252874851E-1
5.829621630E-1,-6.391000152E-1,1.382699966E0,3.793624938E-1
5.849520880E-1,-6.230124831E-1,1.409237504E0,3.400374949E-1
5.869421670E-1,-6.028000116E-1,1.438112497E0,3.016749918E-1
5.889320920E-1,-5.814874768E-1,1.437012434E0,2.644124925E-1
5.909219380E-1,-5.655375123E-1,1.421062469E0,2.323749959E-1
5.929120130E-1,-5.505499840E-1,1.394387484E0,2.047374994E-1
5.949021670E-1,-5.431249738E-1,1.360287547E0,1.802625060E-1
5.968920150E-1,-5.314375162E-1,1.311337471E0,1.599124968E-1
5.988819380E-1,-5.208500028E-1,1.257025003E0,1.439625025E-1
6.008720130E-1,-5.112249851E-1,1.196249962E0,1.291124970E-1
6.028619380E-1,-5.090249777E-1,1.130249977E0,1.205874979E-1
6.048520130E-1,-5.069624782E-1,1.057787538E0,1.152250022E-1
6.068419380E-1,-5.026999712E-1,9.864249825E-1,1.098624989E-1
6.088320130E-1,-5.037999749E-1,9.043374658E-1,1.003749967E-1
6.108219330E-1,-5.069624782E-1,8.244500160E-1,9.927500039E-2
6.128120080E-1,-5.026999712E-1,7.434625030E-1,9.707500041E-2
6.148019330E-1,-5.069624782E-1,6.657750010E-1,9.501250088E-2
6.167920080E-1,-5.132874846E-1,5.836874843E-1,9.075000137E-2
6.187819330E-1,-5.271750093E-1,5.059999824E-1,8.222500235E-2
6.207720080E-1,-5.336375237E-1,4.303750098E-1,8.112499863E-2
6.227619240E-1,-5.442249775E-1,3.590124846E-1,7.576250285E-2
6.247519990E-1,-5.495874882E-1,2.886124849E-1,7.150000334E-2
6.267419240E-1,-5.644375086E-1,2.151875049E-1,6.627500057E-2
6.287319990E-1,-5.794249773E-1,1.533125043E-1,5.555000156E-2
6.307219240E-1,-5.911124945E-1,8.937499672E-2,5.238749832E-2
6.327119990E-1,-6.050000191E-1,2.873750031E-2,4.702499881E-2
6.347019280E-1,-6.187499762E-1,-2.241249941E-2,4.496249929E-2
6.366920030E-1,-6.358000040E-1,-7.672499865E-2,4.069999978E-2
6.386819280E-1,-6.496874690E-1,-1.225124970E-1,4.386249930E-2
6.406720030E-1,-6.656374931E-1,-1.640374959E-1,4.702499881E-2
6.426619280E-1,-6.795250177E-1,-1.918125004E-1,5.444999784E-2
6.446520030E-1,-6.923124790E-1,-2.312749922E-1,6.297499686E-2
6.466419240E-1,-7.008374929E-1,-2.450249940E-1,8.112499863E-2
6.486319990E-1,-7.167875171E-1,-2.567124963E-1,9.075000137E-2
6.506219240E-1,-7.264124751E-1,-2.546499968E-1,1.120624989E-1
6.526119990E-1,-7.360374928E-1,-2.472250015E-1,1.344749928E-1
6.546019240E-1,-7.455250025E-1,-2.237125039E-1,1.578499973E-1
6.565919990E-1,-7.486875057E-1,-1.960749924E-1,1.887875050E-1
6.585819190E-1,-7.594124675E-1,-1.694000065E-1,2.164250016E-1
6.605719940E-1,-7.657374740E-1,-1.406625062E-1,2.473624945E-1
6.625619190E-1,-7.657374740E-1,-1.150875017E-1,2.824249864E-1
6.645519940E-1,-7.732999921E-1,-8.318749815E-2,3.133625090E-1
6.665418420E-1,-7.721999884E-1,-4.908749834E-2,3.506250083E-1
6.685319940E-1,-7.764624953E-1,-6.462499965E-3,3.858250082E-1
6.705218420E-1,-7.732999921E-1,6.173750013E-2,4.210250080E-1
6.725119940E-1,-7.690374851E-1,1.384624988E-1,4.549874961E-1
6.745019190E-1,-7.583125234E-1,2.257750034E-1,4.890874922E-1
6.764917660E-1,-7.423624992E-1,3.067624867E-1,5.200250149E-1
6.784818410E-1,-7.295749784E-1,3.727625012E-1,5.435374975E-1
6.804717660E-1,-7.104625106E-1,4.292750061E-1,5.658124685E-1
6.824618550E-1,-6.954749823E-1,4.697000086E-1,5.860249996E-1
6.844517800E-1,-6.784250140E-1,4.932124913E-1,5.956500173E-1
6.864418550E-1,-6.667374969E-1,5.091624856E-1,6.052749753E-1
6.884317800E-1,-6.474875212E-1,5.262125134E-1,6.073374748E-1
6.904218550E-1,-6.391000152E-1,5.400999784E-1,6.126999855E-1
6.924117800E-1,-6.272749901E-1,5.528874993E-1,6.169624925E-1
6.944018500E-1,-6.113250256E-1,5.709000230E-1,6.243875027E-1
6.963917750E-1,-5.942749977E-1,5.911124945E-1,6.212249994E-1
6.983818500E-1,-5.729625225E-1,6.061000228E-1,6.223250031E-1
7.003717750E-1,-5.538499951E-1,6.114624739E-1,6.243875027E-1
7.023618500E-1,-5.293750167E-1,6.114624739E-1,6.169624925E-1
7.043517750E-1,-5.123249888E-1,6.092625260E-1,6.106374860E-1
7.063418500E-1,-4.834499955E-1,5.953750014E-1,6.010124683E-1
7.083317750E-1,-4.600749910E-1,5.783249736E-1,5.850625038E-1
7.103218500E-1,-4.291374981E-1,5.538499951E-1,5.680124760E-1
7.123117750E-1,-4.068624973E-1,5.176874995E-1,5.339124799E-1
7.143018500E-1,-3.812874854E-1,4.750624895E-1,5.115000010E-1
7.162916980E-1,-3.514499962E-1,4.431625009E-1,4.796000123E-1
7.182816050E-1,-3.236750066E-1,3.909125030E-1,4.433000088E-1
7.202716820E-1,-2.917749882E-1,3.536500037E-1,4.082374871E-1
7.222616070E-1,-2.662000060E-1,3.045625091E-1,3.783999979E-1
7.242516820E-1,-2.363625020E-1,2.715624869E-1,3.378374875E-1
7.262416070E-1,-2.044624984E-1,2.385624945E-1,3.070375025E-1
7.282316820E-1,-1.755875051E-1,2.098249942E-1,2.750000060E-1
7.302216210E-1,-1.447875053E-1,1.863124967E-1,2.408999950E-1
7.322116960E-1,-1.117874980E-1,1.725624949E-1,2.143625021E-1
7.342016210E-1,-8.084999770E-2,1.566125005E-1,1.908500046E-1
7.361916960E-1,-4.675000161E-2,1.458874941E-1,1.717374921E-1
7.381816210E-1,-1.801249944E-2,1.352999955E-1,1.578499973E-1
7.401716960E-1,1.402499992E-2,1.299374998E-1,1.396999955E-1
7.421616210E-1,4.482499883E-2,1.214125007E-1,1.269125044E-1
7.441516960E-1,7.576250285E-2,1.117874980E-1,1.120624989E-1
7.461416210E-1,1.044999957E-1,1.021625027E-1,1.024374962E-1
7.481316960E-1,1.322750002E-1,8.841250092E-2,9.075000137E-2
7.501216210E-1,1.588124931E-1,7.768750191E-2,7.686249912E-2
7.521117010E-1,1.875499934E-1,6.710000336E-2,7.259999961E-2
7.541016260E-1,2.079000026E-1,4.895000160E-2,5.981250107E-2
7.560917010E-1,2.292124927E-1,2.983750030E-2,4.812499881E-2
7.580816260E-1,2.514874935E-1,1.911249943E-2,4.069999978E-2
7.600717010E-1,2.707374990E-1,3.162499983E-3,3.217500076E-2
7.620616260E-1,2.909500003E-1,-2.461249940E-2,1.828750037E-2
7.640516910E-1,2.994749844E-1,-5.761250108E-2,1.086249948E-2
7.660416160E-1,3.185875118E-1,-9.171249717E-2,3.437499981E-3
7.680316910E-1,3.313750029E-1,-1.310375035E-1,-6.187499966E-3
7.700216160E-1,3.463625014E-1,-1.736624986E-1,-1.471249945E-2
7.720116910E-1,3.634124994E-1,-2.279749960E-1,-2.007500082E-2
7.740016160E-1,3.761999905E-1,-2.813250124E-1,-2.639999986E-2
7.759916770E-1,3.910500109E-1,-3.377000093E-1,-3.822499886E-2
7.779816020E-1,4.070000052E-1,-3.973749876E-1,-4.455000162E-2
7.799716770E-1,4.197874963E-1,-4.570499957E-1,-4.455000162E-2
7.819616020E-1,4.433000088E-1,-5.315750241E-1,-3.286249936E-2
7.839516770E-1,4.720374942E-1,-6.232874990E-1,-2.433750033E-2
7.859416020E-1,5.061374903E-1,-7.041375041E-1,-2.323750034E-2
7.879314380E-1,5.380374789E-1,-7.723374963E-1,-2.213750035E-2
7.899215900E-1,5.732374787E-1,-8.266500235E-1,-2.117500082E-2
7.919114380E-1,5.966125131E-1,-8.650124669E-1,-4.138749838E-2
7.939015130E-1,6.221874952E-1,-8.894875050E-1,-6.792499870E-2
7.958916670E-1,6.414374709E-1,-9.278500080E-1,-9.679999948E-2
7.978815150E-1,6.690750122E-1,-9.565874934E-1,-1.275999993E-1
7.998714290E-1,6.946499944E-1,-9.928874969E-1,-1.596374959E-1
8.018615040E-1,7.233874798E-1,-1.017362475E0,-1.787499934E-1
8.038514290E-1,7.565249801E-1,-1.058887482E0,-1.766874939E-1
8.058415040E-1,7.819625139E-1,-1.103712440E0,-1.639000028E-1
8.078314290E-1,8.129000068E-1,-1.142074943E0,-1.531749964E-1
8.098215040E-1,8.449375033E-1,-1.175074935E0,-1.403875053E-1
8.118114140E-1,8.779374957E-1,-1.198449969E0,-1.233374998E-1
8.138014890E-1,9.183624983E-1,-1.204912543E0,-1.053249985E-1
8.157914140E-1,9.481999874E-1,-1.200649977E0,-9.143749624E-2
8.177814890E-1,9.865624905E-1,-1.197350025E0,-7.975000143E-2
8.197714140E-1,1.021762490E0,-1.179337502E0,-6.270000339E-2
8.217614890E-1,1.064387441E0,-1.161187530E0,-4.675000161E-2
8.237514140E-1,1.094087481E0,-1.145237446E0,-3.602499887E-2
8.257414890E-1,1.119662523E0,-1.120762467E0,-3.176249936E-2
8.277314140E-1,1.144274950E0,-1.103712440E0,-3.066249937E-2
8.297214890E-1,1.155962467E0,-1.080199957E0,-3.712499887E-2
8.317114140E-1,1.167649984E0,-1.062049985E0,-4.455000162E-2
8.337014890E-1,1.161324978E0,-1.041837454E0,-6.159999967E-2
8.356914190E-1,1.150599957E0,-1.038674951E0,-7.755000144E-2
8.376814940E-1,1.133550048E0,-1.040874958E0,-9.569999576E-2
8.396714190E-1,1.109074950E0,-1.053524971E0,-1.148125008E-1
8.416614940E-1,1.077175021E0,-1.083362460E0,-1.403875053E-1
8.436514190E-1,1.038812518E0,-1.118562460E0,-1.627999991E-1
8.456412650E-1,9.971500039E-1,-1.153762460E0,-1.830125004E-1
8.476314070E-1,9.376124740E-1,-1.202712536E0,-2.117500007E-1
8.496214840E-1,8.768374920E-1,-1.252762437E0,-2.384250015E-1
8.516114090E-1,8.182625175E-1,-1.306112528E0,-2.608374953E-1
8.536012550E-1,7.543249726E-1,-1.360424995E0,-2.927374840E-1
8.555913300E-1,6.872249842E-1,-1.419000030E0,-3.055250049E-1
8.575812550E-1,6.158624887E-1,-1.489262462E0,-3.310999870E-1
8.595713350E-1,5.530250072E-1,-1.544674993E0,-3.481499851E-1
8.615612600E-1,4.911499918E-1,-1.618237495E0,-3.535124958E-1
8.635513350E-1,4.401375055E-1,-1.700187445E0,-3.385249972E-1
8.655412610E-1,3.921499848E-1,-1.785437465E0,-3.119874895E-1
8.675313350E-1,3.431999981E-1,-1.857900023E0,-2.842124999E-1
8.695212610E-1,3.005749881E-1,-1.901487470E0,-2.554749846E-1
8.715113260E-1,2.505249977E-1,-1.928162456E0,-2.373249978E-1
8.735012520E-1,2.036374956E-1,-1.938887477E0,-2.171124965E-1
8.754913260E-1,1.652749926E-1,-1.936687469E0,-2.011625022E-1
8.774812520E-1,1.258125007E-1,-1.926100016E0,-1.915374994E-1
8.794713260E-1,9.061250091E-2,-1.899425030E0,-1.787499934E-1
8.814612520E-1,6.613750011E-2,-1.853637457E0,-1.616999954E-1
8.834513110E-1,5.238749832E-2,-1.815274954E0,-1.468500048E-1
8.854412370E-1,4.276249930E-2,-1.759862542E0,-1.255374998E-1
8.874313110E-1,2.887500077E-2,-1.707612514E0,-1.095874980E-1
8.894212370E-1,2.461249940E-2,-1.650137544E0,-9.253749996E-2
8.914113110E-1,1.498750038E-2,-1.592662454E0,-7.864999771E-2
8.934012370E-1,5.499999970E-3,-1.542612433E0,-7.122500241E-2
8.953912870E-1,-6.324999966E-3,-1.496687531E0,-6.159999967E-2
8.973812130E-1,-1.374999993E-2,-1.454200029E0,-5.843750015E-2
8.993712880E-1,-1.154999994E-2,-1.415837526E0,-5.197500065E-2
9.013612130E-1,-1.264999993E-2,-1.379537463E0,-5.197500065E-2
9.033512880E-1,-1.484999992E-2,-1.349699974E0,-5.527500063E-2
9.053412130E-1,-1.374999993E-2,-1.323162436E0,-5.843750015E-2
9.073310730E-1,-1.264999993E-2,-1.299649954E0,-6.159999967E-2
9.093211480E-1,-1.264999993E-2,-1.281499982E0,-6.049999967E-2
9.113110730E-1,-7.287499961E-3,-1.259225011E0,-6.476250291E-2
9.133012250E-1,-6.324999966E-3,-1.252762437E0,-6.696250290E-2
9.152913020E-1,-5.224999972E-3,-1.243275046E0,-6.366249919E-2
9.172811500E-1,-5.224999972E-3,-1.241075039E0,-6.366249919E-2
9.192710490E-1,3.299999982E-3,-1.239012480E0,-5.733750015E-2
9.212611240E-1,4.399999976E-3,-1.228287458E0,-5.101250112E-2
9.232510490E-1,1.292499993E-2,-1.227187514E0,-4.675000161E-2
9.252411240E-1,1.718750037E-2,-1.216599941E0,-4.248749837E-2
9.272310490E-1,2.034999989E-2,-1.210137486E0,-2.639999986E-2
9.292211240E-1,3.107500076E-2,-1.201612473E0,-2.639999986E-2
9.312110540E-1,3.533750027E-2,-1.194187522E0,-1.787500083E-2
9.332011290E-1,3.739999980E-2,-1.185662508E0,-1.581249945E-2
9.351910540E-1,4.386249930E-2,-1.167512536E0,-9.349999949E-3
9.371811290E-1,4.908749834E-2,-1.149500012E0,-8.387500420E-3
9.391710540E-1,5.335000157E-2,-1.129287481E0,-6.187499966E-3
9.411611290E-1,6.407500058E-2,-1.114300013E0,1.374999993E-4
9.431510640E-1,8.964999765E-2,-1.156924963E0,4.702499881E-2
9.451411390E-1,1.237500012E-1,-1.202712536E0,9.927500039E-2
9.471310640E-1,1.439625025E-1,-1.231449962E0,1.428624988E-1
9.491211390E-1,1.610125005E-1,-1.224025011E0,1.834249943E-1
9.511110640E-1,1.535875052E-1,-1.184562445E0,2.153249979E-1
9.531011390E-1,1.482249945E-1,-1.131350040E0,2.388374954E-1
9.550910730E-1,1.482249945E-1,-1.078137517E0,2.536875010E-1
9.570811480E-1,1.513874978E-1,-1.032349944E0,2.622124851E-1
9.590710730E-1,1.599124968E-1,-9.886249900E-1,2.644124925E-1
9.610611480E-1,1.769624949E-1,-9.396749735E-1,2.644124925E-1
9.630510730E-1,1.929125041E-1,-8.766999841E-1,2.579500079E-1
9.650411480E-1,2.056999952E-1,-8.160625100E-1,2.440624982E-1
9.670310830E-1,2.110625058E-1,-7.660124898E-1,2.345750034E-1
9.690211580E-1,2.195875049E-1,-7.287499905E-1,2.195875049E-1
9.710110830E-1,2.164250016E-1,-7.159624696E-1,2.110625058E-1
9.730011580E-1,2.184875011E-1,-7.126625180E-1,2.036374956E-1
9.749910830E-1,2.153249979E-1,-7.095000148E-1,2.110625058E-1
9.769811580E-1,2.056999952E-1,-7.126625180E-1,2.132624984E-1
9.789710830E-1,2.003374994E-1,-7.254499793E-1,2.164250016E-1
9.809611580E-1,1.918125004E-1,-7.244874835E-1,2.110625058E-1
9.829510830E-1,1.790249944E-1,-7.117000222E-1,2.015749961E-1
9.849411580E-1,1.684374958E-1,-6.722375154E-1,1.887875050E-1
9.869310830E-1,1.599124968E-1,-6.190249920E-1,1.759999990E-1
9.889209290E-1,1.493249983E-1,-5.667750239E-1,1.546874940E-1
9.909109940E-1,1.417624950E-1,-5.156250000E-1,1.396999955E-1
9.929011480E-1,1.343374997E-1,-4.633750021E-1,1.183874980E-1
9.948909960E-1,1.300749928E-1,-4.090625048E-1,1.013374999E-1
9.968809190E-1,1.226499975E-1,-3.473249972E-1,8.855000138E-2
9.988709940E-1,1.141249985E-1,-3.046999872E-1,8.112499863E-2
1.000860919E0,1.098624989E-1,-2.694999874E-1,7.479999959E-2
1.002851009E0,1.033999994E-1,-2.387000024E-1,8.222500235E-2
1.004840934E0,1.044999957E-1,-2.184875011E-1,8.758749813E-2
1.006831009E0,9.817499667E-2,-2.066625059E-1,9.707500041E-2
1.008820934E0,9.707500041E-2,-1.960749924E-1,1.013374999E-1
1.010811009E0,9.171249717E-2,-1.896124929E-1,1.077999994E-1
1.012800934E0,9.061250091E-2,-1.843875051E-1,1.098624989E-1
1.014790980E0,8.428750187E-2,-1.832875013E-1,1.120624989E-1
1.016780905E0,8.538749814E-2,-1.821874976E-1,1.131625026E-1
1.018770980E0,9.061250091E-2,-1.758625060E-1,1.131625026E-1
1.020760905E0,9.817499667E-2,-1.736624986E-1,1.109625027E-1
1.022750980E0,1.076624990E-1,-1.683000028E-1,1.109625027E-1
1.024740905E0,1.172875017E-1,-1.566125005E-1,1.109625027E-1
1.026730990E0,1.322750002E-1,-1.555124968E-1,1.163249984E-1
1.028720838E0,1.482249945E-1,-1.555124968E-1,1.152250022E-1
1.030710759E0,1.621125042E-1,-1.555124968E-1,1.183874980E-1
1.032700836E0,1.823250055E-1,-1.555124968E-1,1.194875017E-1
1.034690761E0,1.951124966E-1,-1.523499936E-1,1.216875017E-1
1.036680913E0,2.142249942E-1,-1.352999955E-1,1.269125044E-1
1.038670771E0,2.312749922E-1,-1.215500012E-1,1.322750002E-1
1.040660846E0,2.429624945E-1,-1.023000032E-1,1.344749928E-1
1.042650771E0,2.568500042E-1,-6.929999590E-2,1.396999955E-1
1.044640846E0,2.750000060E-1,-4.262499884E-2,1.493249983E-1
1.046630771E0,2.855874896E-1,-1.388750039E-2,1.556500047E-1
1.048620846E0,3.026374876E-1,1.484999992E-2,1.641750038E-1
1.050610771E0,3.111625016E-1,3.836249933E-2,1.759999990E-1
1.052600846E0,3.185875118E-1,5.637500063E-2,1.791625023E-1
1.054590771E0,3.293125033E-1,6.710000336E-2,1.973125041E-1
1.056580846E0,3.378374875E-1,6.379999965E-2,2.036374956E-1
1.058570771E0,3.474625051E-1,5.115000159E-2,2.175250053E-1
1.060560846E0,3.537875116E-1,2.763750032E-2,2.271499932E-1
1.062550771E0,3.591499925E-1,-5.362499971E-3,2.303124964E-1
1.064540846E0,3.654749990E-1,-4.056249931E-2,2.388374954E-1
1.066530771E0,3.687750101E-1,-7.672499865E-2,2.408999950E-1
1.068520846E0,3.729000092E-1,-1.130250022E-1,2.399374992E-1
1.070510771E0,3.750999868E-1,-1.427250057E-1,2.377374917E-1
1.072500846E0,3.814249933E-1,-1.704999954E-1,2.323749959E-1
1.074490785E0,3.804624975E-1,-1.971749961E-1,2.195875049E-1
1.076480860E0,3.814249933E-1,-2.184875011E-1,2.143625021E-1
1.078470785E0,3.771624863E-1,-2.279749960E-1,2.047374994E-1
1.080460860E0,3.782624900E-1,-2.364999950E-1,1.962125003E-1
1.082450785E0,3.771624863E-1,-2.375999987E-1,1.919499934E-1
1.084440889E0,3.750999868E-1,-2.375999987E-1,1.854874939E-1
1.086430814E0,3.729000092E-1,-2.301750034E-1,1.780624986E-1
1.088420889E0,3.687750101E-1,-2.173874974E-1,1.717374921E-1
1.090410814E0,3.634124994E-1,-2.099625021E-1,1.695374995E-1
1.092400889E0,3.559874892E-1,-1.971749961E-1,1.727000028E-1
1.094390815E0,3.463625014E-1,-1.907124966E-1,1.737999916E-1
1.096380884E0,3.304125071E-1,-1.801249981E-1,1.759999990E-1
1.098370810E0,3.111625016E-1,-1.768250018E-1,1.802625060E-1
1.100360884E0,2.920500040E-1,-1.619749963E-1,1.845249981E-1
1.102350810E0,2.685374916E-1,-1.545500010E-1,1.865874976E-1
1.104340884E0,2.440624982E-1,-1.512500048E-1,1.930499971E-1
1.106330810E0,2.164250016E-1,-1.469874978E-1,1.993750036E-1
1.108320680E0,1.875499934E-1,-1.523499936E-1,2.036374956E-1
1.110310755E0,1.567499936E-1,-1.534499973E-1,2.067999989E-1
1.112300680E0,1.300749928E-1,-1.597750038E-1,2.110625058E-1
1.114290755E0,1.033999994E-1,-1.651374996E-1,2.143625021E-1
1.116280908E0,7.356250286E-2,-1.758625060E-1,2.175250053E-1
1.118270757E0,4.276249930E-2,-1.736624986E-1,2.175250053E-1
1.120260676E0,2.034999989E-2,-1.736624986E-1,2.175250053E-1
1.122250751E0,-6.324999966E-3,-1.662375033E-1,2.143625021E-1
1.124240676E0,-2.653750032E-2,-1.523499936E-1,2.186249942E-1
1.126230751E0,-4.248749837E-2,-1.384624988E-1,2.175250053E-1
1.128220676E0,-4.138749838E-2,-1.108250022E-1,2.217874974E-1
1.130210751E0,-4.991250113E-2,-9.487500042E-2,2.186249942E-1
1.132200685E0,-5.307500064E-2,-7.466249913E-2,2.089999914E-1
1.134190760E0,-5.307500064E-2,-5.335000157E-2,2.079000026E-1
1.136180685E0,-4.881250113E-2,-3.093750030E-2,2.015749961E-1
1.138170760E0,-4.455000162E-2,-8.524999954E-3,1.973125041E-1
1.140160685E0,-3.602499887E-2,2.337500080E-2,1.973125041E-1
1.142150760E0,-2.543750033E-2,5.211250111E-2,1.982749999E-1
1.144140685E0,-1.691249944E-2,7.988750190E-2,1.982749999E-1
1.146130760E0,-5.224999972E-3,1.097249985E-1,2.004749924E-1
1.148120685E0,1.182499994E-2,1.438249946E-1,2.067999989E-1
1.150110531E0,2.777500078E-2,1.788875014E-1,2.153249979E-1
1.152100606E0,4.592499882E-2,2.194499969E-1,2.260500044E-1
1.154090531E0,6.613750011E-2,2.620750070E-1,2.345750034E-1
1.156080664E0,8.112499863E-2,3.088249862E-1,2.440624982E-1
1.158070512E0,1.033999994E-1,3.525500000E-1,2.601499856E-1
1.160060587E0,1.237500012E-1,3.972375095E-1,2.761000097E-1
1.162050512E0,1.396999955E-1,4.441249967E-1,2.952125072E-1
1.164040587E0,1.556500047E-1,4.835875034E-1,3.079999983E-1
1.166030512E0,1.780624986E-1,5.230500102E-1,3.315125108E-1
1.168020601E0,1.971749961E-1,5.506874919E-1,3.528249860E-1
1.170010526E0,2.121624947E-1,5.709000230E-1,3.676750064E-1
1.172000601E0,2.301750034E-1,5.901499987E-1,3.878875077E-1
1.173990526E0,2.494249940E-1,5.986750126E-1,4.060375094E-1
1.175980601E0,2.622124851E-1,5.996375084E-1,4.199250042E-1
1.177970526E0,2.739000022E-1,5.847874880E-1,4.284499884E-1
1.179960601E0,2.835249901E-1,5.677375197E-1,4.358749986E-1
1.181950526E0,2.930124998E-1,5.475249887E-1,4.390375018E-1
1.183940601E0,3.015374839E-1,5.187875032E-1,4.347749949E-1
1.185930526E0,3.133625090E-1,4.813874960E-1,4.305124879E-1
1.187920601E0,3.185875118E-1,4.388999939E-1,4.262500107E-1
1.189910526E0,3.250499964E-1,3.951750100E-1,4.230875075E-1
1.191900601E0,3.346749842E-1,3.451249897E-1,4.102999866E-1
1.193890526E0,3.452624977E-1,2.875125110E-1,3.975124955E-1
1.195880601E0,3.569499850E-1,2.300374955E-1,3.858250082E-1
1.197870526E0,3.750999868E-1,1.714625061E-1,3.741374910E-1
1.199860601E0,3.899500072E-1,1.203124970E-1,3.645125031E-1
1.201850544E0,4.081000090E-1,6.710000336E-2,3.537875116E-1
1.203840619E0,4.208875000E-1,1.278750040E-2,3.378374875E-1
1.205830544E0,4.401375055E-1,-3.203750029E-2,3.335750103E-1
1.207820619E0,4.496249855E-1,-7.246249914E-2,3.198249936E-1
1.209810544E0,4.699749947E-1,-1.033999994E-1,3.091000021E-1
1.211800619E0,4.868874848E-1,-1.300749928E-1,3.016749918E-1
1.213790539E0,4.976125062E-1,-1.577125043E-1,2.942500114E-1
1.215780614E0,5.124624968E-1,-1.832875013E-1,2.824249864E-1
1.217770539E0,5.252500176E-1,-2.131250054E-1,2.771999836E-1
1.219760614E0,5.306124687E-1,-2.429624945E-1,2.675749958E-1
1.221750539E0,5.391374826E-1,-2.694999874E-1,2.644124925E-1
1.223740614E0,5.530250072E-1,-2.993375063E-1,2.686749995E-1
1.225730511E0,5.636125207E-1,-3.249124885E-1,2.675749958E-1
1.227720586E0,5.721374750E-1,-3.632749915E-1,2.920500040E-1
1.229710434E0,5.838249922E-1,-3.953124881E-1,3.315125108E-1
1.231700355E0,5.891875029E-1,-4.186874926E-1,3.645125031E-1
1.233690432E0,6.019750237E-1,-4.336749911E-1,3.878875077E-1
1.235680357E0,6.051374674E-1,-4.399999976E-1,4.017750025E-1
1.237670513E0,6.104999781E-1,-4.411000013E-1,4.082374871E-1
1.239660361E0,6.126999855E-1,-4.336749911E-1,4.028750062E-1
1.241650436E0,6.221874952E-1,-4.314749837E-1,3.943499923E-1
1.243640361E0,6.201249957E-1,-4.368374944E-1,3.761999905E-1
1.245630436E0,6.264500022E-1,-4.442625046E-1,3.570874929E-1
1.247620381E0,6.275500059E-1,-4.559499919E-1,3.326124847E-1
1.249610456E0,6.307125092E-1,-4.548499882E-1,3.113000095E-1
1.251600381E0,6.297500134E-1,-4.613125026E-1,2.792625129E-1
1.253590456E0,6.340125203E-1,-4.505875111E-1,2.590500116E-1
1.255580381E0,6.307125092E-1,-4.474250078E-1,2.314125001E-1
1.257570456E0,6.329125166E-1,-4.336749911E-1,2.121624947E-1
1.259560390E0,6.286500096E-1,-4.261125028E-1,1.865874976E-1
1.261550465E0,6.297500134E-1,-4.144249856E-1,1.759999990E-1
1.263540390E0,6.254875064E-1,-4.101625085E-1,1.589500010E-1
1.265530465E0,6.243875027E-1,-4.027374983E-1,1.493249983E-1
1.267520390E0,6.212249994E-1,-3.962749839E-1,1.482249945E-1
1.269510465E0,6.221874952E-1,-3.942124844E-1,1.428624988E-1
1.271500371E0,6.201249957E-1,-3.888500035E-1,1.450625062E-1
1.273490446E0,6.190249920E-1,-3.867875040E-1,1.513874978E-1
1.275480294E0,6.179249883E-1,-3.782624900E-1,1.556500047E-1
1.277470446E0,6.084374785E-1,-3.675374985E-1,1.632124931E-1
1.279460294E0,6.030749679E-1,-3.579125106E-1,1.780624986E-1
1.281450218E0,5.849249959E-1,-3.493874967E-1,1.887875050E-1
1.283440306E0,5.689749718E-1,-3.356375098E-1,1.993750036E-1
1.285430232E0,5.508249998E-1,-3.239499927E-1,2.067999989E-1
1.287420307E0,5.317124724E-1,-3.078624904E-1,2.175250053E-1
1.289410232E0,5.124624968E-1,-2.941125035E-1,2.260500044E-1
1.291400307E0,4.848249853E-1,-2.833875120E-1,2.281125039E-1
1.293390232E0,4.635125101E-1,-2.600125074E-1,2.345750034E-1
1.295380298E0,4.336749911E-1,-2.398000062E-1,2.388374954E-1
1.297370223E0,4.081000090E-1,-2.142249942E-1,2.419999987E-1
1.299360298E0,3.847250044E-1,-1.875499934E-1,2.440624982E-1
1.301350223E0,3.569499850E-1,-1.566125005E-1,2.473624945E-1
1.303340298E0,3.313750029E-1,-1.278750002E-1,2.462625057E-1
1.305330223E0,3.005749881E-1,-8.841250092E-2,2.451625019E-1
1.307320322E0,2.716999948E-1,-5.541250110E-2,2.451625019E-1
1.309310247E0,2.451625019E-1,-2.131249942E-2,2.451625019E-1
1.311300322E0,2.153249979E-1,1.484999992E-2,2.483250052E-1
1.313290247E0,1.854874939E-1,4.895000160E-2,2.505249977E-1
1.315280322E0,1.621125042E-1,8.195000142E-2,2.536875010E-1
1.317270247E0,1.332374960E-1,1.149500012E-1,2.622124851E-1
1.319260293E0,1.130250022E-1,1.384624988E-1,2.718375027E-1
1.321250218E0,9.061250091E-2,1.683000028E-1,2.846249938E-1
1.323240293E0,6.407500058E-2,1.896124929E-1,2.985124886E-1
1.325230218E0,3.959999979E-2,2.044624984E-1,3.122625053E-1
1.327220293E0,1.718750037E-2,2.204124928E-1,3.261500001E-1
1.329210218E0,-3.024999984E-3,2.311374992E-1,3.452624977E-1
1.331200298E0,-2.653750032E-2,2.407625020E-1,3.613499999E-1
1.333190223E0,-5.211250111E-2,2.459875047E-1,3.772999942E-1
1.335180298E0,-7.658749819E-2,2.385624945E-1,3.954499960E-1
1.337170223E0,-9.569999576E-2,2.374625057E-1,4.113999903E-1
1.339160298E0,-1.160499975E-1,2.183499932E-1,4.210250080E-1
1.341150223E0,-1.308999956E-1,2.023999989E-1,4.358749986E-1
1.343140307E0,-1.436875015E-1,1.757249981E-1,4.464625120E-1
1.345130232E0,-1.553750038E-1,1.416250020E-1,4.582875073E-1
1.347120307E0,-1.670625061E-1,9.899999946E-2,4.603500068E-1
1.349110232E0,-1.724250019E-1,4.358749837E-2,4.677749872E-1
1.351100078E0,-1.766874939E-1,-1.278750040E-2,4.699749947E-1
1.353090153E0,-1.724250019E-1,-7.039999962E-2,4.753375053E-1
1.355080073E0,-1.735250056E-1,-1.310375035E-1,4.785000086E-1
1.357070148E0,-1.766874939E-1,-1.875499934E-1,4.796000123E-1
1.359060073E0,-1.746249944E-1,-2.439250052E-1,4.763000011E-1
1.361050148E0,-1.766874939E-1,-2.950749993E-1,4.688749909E-1
1.363040073E0,-1.777874976E-1,-3.493874967E-1,4.635125101E-1
1.365030148E0,-1.788875014E-1,-4.005374908E-1,4.549874961E-1
1.367020073E0,-1.841125041E-1,-4.505875111E-1,4.444000125E-1
1.369010148E0,-1.852124929E-1,-4.846875072E-1,4.327124953E-1
1.371000073E0,-1.948374957E-1,-5.178250074E-1,4.210250080E-1
1.372990148E0,-1.968999952E-1,-5.465624928E-1,4.049375057E-1
1.374980073E0,-2.118874937E-1,-5.688375235E-1,3.900874853E-1
1.376970148E0,-2.139499933E-1,-5.944125056E-1,3.761999905E-1
1.378960073E0,-2.257750034E-1,-6.221874952E-1,3.580499887E-1
1.380950148E0,-2.331999987E-1,-6.466624737E-1,3.389374912E-1
1.382940073E0,-2.469500005E-1,-6.648125052E-1,3.229874969E-1
1.384930148E0,-2.545124888E-1,-6.765000224E-1,3.070375025E-1
1.386920073E0,-2.747249901E-1,-6.870874763E-1,2.866874933E-1
1.388910148E0,-2.895750105E-1,-6.946499944E-1,2.750000060E-1
1.390900069E0,-3.066250086E-1,-7.137625217E-1,2.536875010E-1
1.392890144E0,-3.236750066E-1,-7.276499867E-1,2.451625019E-1
1.394880069E0,-3.514499962E-1,-7.372750044E-1,2.292124927E-1
1.396870144E0,-3.727625012E-1,-7.478625178E-1,2.186249942E-1
1.398860069E0,-4.003999829E-1,-7.669749856E-1,2.067999989E-1
1.400850144E0,-4.324375093E-1,-7.936499715E-1,1.908500046E-1
1.402839997E0,-4.643374979E-1,-8.138625026E-1,1.812250018E-1
1.404830149E0,-4.910124838E-1,-8.351749778E-1,1.695374995E-1
1.406820074E0,-5.271750093E-1,-8.692749739E-1,1.556500047E-1
1.408809920E0,-5.590749979E-1,-9.013124704E-1,1.439625025E-1
1.410800072E0,-5.974375010E-1,-9.417374730E-1,1.322750002E-1
1.412789920E0,-6.337375045E-1,-9.864249825E-1,1.077999994E-1
1.414780110E0,-6.710000038E-1,-1.040874958E0,8.964999765E-2
1.416770187E0,-7.062000036E-1,-1.099449992E0,7.150000334E-2
1.418760035E0,-7.444249988E-1,-1.163249969E0,5.018749833E-2
1.420749958E0,-7.818250060E-1,-1.239974976E0,2.681249939E-2
1.422740033E0,-8.159250021E-1,-1.308174968E0,8.662499487E-3
1.424729958E0,-8.520874977E-1,-1.389162540E0,-7.287499961E-3
1.426720014E0,-8.850874901E-1,-1.462587476E0,-2.433750033E-2
1.428709939E0,-9.171249866E-1,-1.539312482E0,-4.138749838E-2
1.430700014E0,-9.479249716E-1,-1.604349971E0,-5.197500065E-2
1.432689939E0,-9.842249751E-1,-1.668287516E0,-6.696250290E-2
1.434680014E0,-1.016124964E0,-1.731124997E0,-7.755000144E-2
1.436669939E0,-1.050225019E0,-1.795062542E0,-8.607500046E-2
1.438659995E0,-1.076900005E0,-1.854737520E0,-9.143749624E-2
1.440649920E0,-1.113062501E0,-1.915374994E0,-9.253749996E-2
1.442639995E0,-1.140837550E0,-1.972849965E0,-8.923749626E-2
1.444629920E0,-1.169574976E0,-2.035825014E0,-7.864999771E-2
1.446619995E0,-1.202574968E0,-2.100724936E0,-7.012499869E-2
1.448609920E0,-1.227049947E0,-2.162600040E0,-5.623750016E-2
1.450599986E0,-1.255787492E0,-2.224337578E0,-4.248749837E-2
1.452589911E0,-1.285624981E0,-2.268062592E0,-2.543750033E-2
1.454579986E0,-1.316562533E0,-2.317012548E0,-1.897500083E-2
1.456569911E0,-1.345299959E0,-2.356474876E0,-7.287499961E-3
1.458559986E0,-1.369774938E0,-2.390437603E0,1.237499993E-3
1.460549911E0,-1.394250035E0,-2.434162378E0,1.374999993E-4
1.462539761E0,-1.423125029E0,-2.468262434E0,1.374999993E-4
1.464529913E0,-1.440174937E0,-2.508687496E0,1.374999993E-4
1.466519990E0,-1.459287524E0,-2.537562370E0,-3.024999984E-3
1.468509915E0,-1.473175049E0,-2.562037468E0,-6.187499966E-3
1.470499761E0,-1.491187453E0,-2.595037460E0,-1.361249946E-2
1.472489836E0,-1.503975034E0,-2.618412495E0,-2.639999986E-2
1.474479742E0,-1.513599992E0,-2.639724970E0,-4.455000162E-2
1.476469817E0,-1.523224950E0,-2.661037445E0,-6.159999967E-2
1.478459971E0,-1.526387453E0,-2.685512543E0,-7.864999771E-2
1.480449819E0,-1.525287509E0,-2.699399948E0,-9.996250272E-2
1.482439743E0,-1.524325013E0,-2.718650103E0,-1.266375035E-1
1.484429817E0,-1.522125006E0,-2.737762451E0,-1.564749926E-1
1.486419748E0,-1.509337544E0,-2.759074926E0,-1.883749962E-1
1.488409822E0,-1.500812531E0,-2.777225018E0,-2.193125039E-1
1.490399748E0,-1.496549964E0,-2.810225010E0,-2.608374953E-1
1.492389822E0,-1.490224957E0,-2.840062380E0,-3.044250011E-1
1.494379748E0,-1.475237489E0,-2.882687569E0,-3.470500112E-1
1.496369822E0,-1.465612531E0,-2.921050072E0,-3.907749951E-1
1.498359743E0,-1.453925014E0,-2.965737581E0,-4.376625121E-1
1.500349817E0,-1.444437504E0,-3.023212433E0,-4.951374829E-1
1.502339743E0,-1.430549979E0,-3.071199894E0,-5.473874807E-1
1.504329817E0,-1.415562510E0,-3.126612425E0,-6.059625149E-1
1.506319743E0,-1.403874993E0,-3.179825068E0,-6.699000001E-1
1.508309817E0,-1.393287539E0,-3.238399982E0,-7.305374742E-1
1.510299771E0,-1.378299952E0,-3.306600094E0,-7.924125195E-1
1.512289846E0,-1.358087540E0,-3.375900030E0,-8.552500010E-1
1.514279771E0,-1.341037512E0,-3.450424910E0,-9.180874825E-1
1.516269846E0,-1.328250051E0,-3.527149916E0,-9.851874709E-1
1.518259771E0,-1.312299967E0,-3.597412586E0,-1.041700006E0
1.520249846E0,-1.297312498E0,-3.676337481E0,-1.103437543E0
1.522239757E0,-1.285624981E0,-3.750862598E0,-1.160912514E0
1.524229832E0,-1.270774961E0,-3.819062471E0,-1.220587492E0
1.526219757E0,-1.254687548E0,-3.880800009E0,-1.268574953E0
1.528209832E0,-1.238737464E0,-3.940474987E0,-1.313262463E0
1.530199757E0,-1.219624996E0,-3.997950077E0,-1.363312483E0
1.532189832E0,-1.200374961E0,-4.044837475E0,-1.402775049E0
1.534179771E0,-1.188687444E0,-4.086362362E0,-1.449662447E0
1.536169846E0,-1.167374969E0,-4.114137650E0,-1.481562495E0
1.538159771E0,-1.151425004E0,-4.148237705E0,-1.518824935E0
1.540149846E0,-1.132312536E0,-4.176974773E0,-1.551962495E0
1.542139694E0,-1.118425012E0,-4.181237698E0,-1.581662536E0
1.544129846E0,-1.102475047E0,-4.188662529E0,-1.606274962E0
1.546119767E0,-1.088587523E0,-4.196087360E0,-1.633912444E0
1.548109842E0,-1.075799942E0,-4.189762592E0,-1.655225039E0
1.550099767E0,-1.066174984E0,-4.178074837E0,-1.666912436E0
1.552089613E0,-1.057649970E0,-4.159924984E0,-1.682999969E0
1.554079688E0,-1.050225019E0,-4.132150173E0,-1.690425038E0
1.556069613E0,-1.041700006E0,-4.083199978E0,-1.696750045E0
1.558059688E0,-1.034274936E0,-4.039474964E0,-1.704174995E0
1.560049613E0,-1.028912544E0,-3.988462448E0,-1.702112436E0
1.562039688E0,-1.019287467E0,-3.935112476E0,-1.699912548E0
1.564029613E0,-1.015025020E0,-3.885062456E0,-1.702112436E0
1.566019688E0,-1.011862516E0,-3.827587366E0,-1.691387534E0
1.568009621E0,-1.017225027E0,-3.783862591E0,-1.686162472E0
1.569999696E0,-1.014062524E0,-3.744400024E0,-1.681900024E0
1.571989621E0,-1.018324971E0,-3.712500095E0,-1.673375010E0
1.573979696E0,-1.037437439E0,-3.695450068E0,-1.669112444E0
1.575969544E0,-1.047062516E0,-3.670974970E0,-1.653162479E0
1.577959696E0,-1.061912537E0,-3.643199921E0,-1.642437458E0
1.579949613E0,-1.087487459E0,-3.630412579E0,-1.632812500E0
1.581939688E0,-1.106737494E0,-3.622987509E0,-1.611500025E0
1.583929613E0,-1.129012465E0,-3.626149893E0,-1.597749949E0
1.585919688E0,-1.152524948E0,-3.631512403E0,-1.575337529E0
1.587909613E0,-1.171637535E0,-3.627249956E0,-1.552924991E0
1.589899688E0,-1.199412465E0,-3.633712530E0,-1.530650020E0
1.591889536E0,-1.224987507E0,-3.626149893E0,-1.502874970E0
1.593879457E0,-1.246299982E0,-3.624087572E0,-1.474137545E0
1.595869534E0,-1.260049939E0,-3.629450083E0,-1.444299936E0
1.597859459E0,-1.282462478E0,-3.648562431E0,-1.421887517E0
1.599849534E0,-1.296350002E0,-3.653924942E0,-1.389987469E0
1.601839459E0,-1.314362526E0,-3.660249949E0,-1.354787469E0
1.603829524E0,-1.331412435E0,-3.664512396E0,-1.319725037E0
1.605819449E0,-1.342137456E0,-3.669874907E0,-1.286587477E0
1.607809524E0,-1.350662470E0,-3.675237417E0,-1.244099975E0
1.609799449E0,-1.359187484E0,-3.690087557E0,-1.202437520E0
1.611789524E0,-1.366612434E0,-3.714562416E0,-1.162012458E0
1.613779449E0,-1.376237512E0,-3.727349997E0,-1.117324948E0
1.615769534E0,-1.381462455E0,-3.734912395E0,-1.067275047E0
1.617759459E0,-1.377200007E0,-3.746599913E0,-1.019287467E0
1.619749534E0,-1.381462455E0,-3.762549877E0,-9.660750031E-1
1.621739459E0,-1.381462455E0,-3.787024975E0,-9.127249718E-1
1.623729534E0,-1.377200007E0,-3.802974939E0,-8.584125042E-1
1.625719459E0,-1.374037504E0,-3.816862583E0,-8.029999733E-1
1.627709552E0,-1.369774938E0,-3.812599897E0,-7.466250062E-1
1.629699477E0,-1.367712498E0,-3.829649925E0,-6.901124716E-1
1.631689552E0,-1.359187484E0,-3.836112499E0,-6.304374933E-1
1.633679477E0,-1.349562526E0,-3.832812548E0,-5.718625188E-1
1.635669552E0,-1.344200015E0,-3.829649925E0,-5.175499916E-1
1.637659477E0,-1.338974953E0,-3.817962408E0,-4.621374905E-1
1.639649561E0,-1.329349995E0,-3.804075003E0,-4.078249931E-1
1.641639486E0,-1.306937456E0,-3.789224863E0,-3.535124958E-1
1.643629561E0,-1.273937464E0,-3.747699976E0,-2.980999947E-1
1.645619486E0,-1.223887444E0,-3.660249949E0,-2.426874936E-1
1.647609561E0,-1.146062493E0,-3.532512426E0,-1.852124929E-1
1.649599486E0,-1.057649970E0,-3.407799959E0,-1.383250058E-1
1.651589561E0,-9.468249679E-1,-3.282124996E0,-9.679999948E-2
1.653579486E0,-8.179875016E-1,-3.140500069E0,-4.991250113E-2
1.655569561E0,-6.784250140E-1,-2.968899965E0,-7.287499961E-3
1.657559486E0,-5.399624705E-1,-2.827275038E0,2.791249938E-2
1.659549561E0,-4.014999866E-1,-2.700500011E0,5.775000155E-2
1.661539486E0,-2.545124888E-1,-2.589674950E0,8.758749813E-2
1.663529337E0,-1.192125008E-1,-2.502362490E0,1.077999994E-1
1.665519489E0,1.498750038E-2,-2.422475100E0,1.280124933E-1
1.667509566E0,1.439625025E-1,-2.344650030E0,1.482249945E-1
1.669499491E0,2.611125112E-1,-2.263799906E0,1.695374995E-1
1.671489337E0,3.804624975E-1,-2.180612564E0,1.908500046E-1
1.673479412E0,4.954124987E-1,-2.087937593E0,2.175250053E-1
1.675469337E0,6.051374674E-1,-2.003787518E0,2.399374992E-1
1.677459412E0,7.096375227E-1,-1.931324959E0,2.568500042E-1
1.679449337E0,8.065750003E-1,-1.855700016E0,2.814624906E-1
1.681439412E0,8.981499672E-1,-1.788599968E0,3.027749956E-1
1.683429337E0,9.737749696E-1,-1.727962494E0,3.261500001E-1
1.685419412E0,1.044037461E0,-1.686300039E0,3.506250083E-1
1.687409328E0,1.099449992E0,-1.639549971E0,3.719374835E-1
1.689399403E0,1.151700020E0,-1.597887516E0,3.975124955E-1
1.691389328E0,1.192124963E0,-1.560624957E0,4.188250005E-1
1.693379403E0,1.225124955E0,-1.523362517E0,4.433000088E-1
1.695369328E0,1.245474935E0,-1.495725036E0,4.560874999E-1
1.697359403E0,1.261425018E0,-1.467949986E0,4.731374979E-1
1.699349318E0,1.273112535E0,-1.434949994E0,4.870249927E-1
1.701339393E0,1.277374983E0,-1.412537456E0,4.923875034E-1
1.703329242E0,1.271049976E0,-1.377475023E0,4.944500029E-1
1.705319393E0,1.269950032E0,-1.336912513E0,5.018749833E-1
1.707309319E0,1.260324955E0,-1.301849961E0,4.933499992E-1
1.709299393E0,1.245474935E0,-1.252762437E0,4.805625081E-1
1.711289343E0,1.230487466E0,-1.211237550E0,4.625499845E-1
1.713279189E0,1.220862508E0,-1.169712543E0,4.358749986E-1
1.715269264E0,1.200649977E0,-1.131350040E0,4.006749988E-1
1.717259189E0,1.187862515E0,-1.095187545E0,3.645125031E-1
1.719249341E0,1.173012495E0,-1.056825042E0,3.229874969E-1
1.721239189E0,1.154862523E0,-1.015300035E0,2.771999836E-1
1.723229231E0,1.140012503E0,-9.821624756E-1,2.334749997E-1
1.725219156E0,1.125025034E0,-9.523249865E-1,1.887875050E-1
1.727209231E0,1.110175014E0,-9.257875085E-1,1.407999992E-1
1.729199156E0,1.098350048E0,-9.183624983E-1,9.075000137E-2
1.731189231E0,1.085562468E0,-9.076374769E-1,4.386249930E-2
1.733179156E0,1.083500028E0,-9.161624908E-1,1.237499993E-3
1.735169245E0,1.071812510E0,-9.300500154E-1,-4.455000162E-2
1.737159170E0,1.070712447E0,-9.439374804E-1,-8.717499673E-2
1.739149245E0,1.066450000E0,-9.534249902E-1,-1.275999993E-1
1.741139170E0,1.061087489E0,-9.684125185E-1,-1.670625061E-1
1.743129245E0,1.059025049E0,-9.693750143E-1,-1.989624947E-1
1.745119170E0,1.055862546E0,-9.747374654E-1,-2.245374918E-1
1.747109245E0,1.053662539E0,-9.778999686E-1,-2.534124851E-1
1.749099170E0,1.048300028E0,-9.832624793E-1,-2.745875120E-1
1.751089245E0,1.048300028E0,-9.769374728E-1,-2.831124961E-1
1.753079170E0,1.041975021E0,-9.747374654E-1,-2.949374914E-1
1.755069245E0,1.036612511E0,-9.693750143E-1,-3.034625053E-1
1.757059170E0,1.034549952E0,-9.630500078E-1,-3.077250123E-1
1.759049235E0,1.029187441E0,-9.513624907E-1,-3.023625016E-1
1.761039160E0,1.022724986E0,-9.428374767E-1,-2.991999984E-1
1.763029235E0,1.014199972E0,-9.332125187E-1,-2.958999872E-1
1.765019160E0,1.011037469E0,-9.235875010E-1,-2.831124961E-1
1.767009235E0,1.008975029E0,-9.215250015E-1,-2.693625093E-1
1.768999160E0,1.003612518E0,-9.204249978E-1,-2.586374879E-1
1.770989254E0,1.002512455E0,-9.183624983E-1,-2.426874936E-1
1.772979179E0,1.005674958E0,-9.215250015E-1,-2.267374992E-1
1.774969254E0,1.002512455E0,-9.150624871E-1,-2.065249979E-1
1.776959179E0,9.982500076E-1,-9.033749700E-1,-1.926375031E-1
1.778949254E0,9.908249974E-1,-8.757374883E-1,-1.744875014E-1
1.780939179E0,9.886249900E-1,-8.533250093E-1,-1.574375033E-1
1.782929254E0,9.802374840E-1,-8.149625063E-1,-1.414874941E-1
1.784919179E0,9.737749696E-1,-7.797625065E-1,-1.275999993E-1
1.786909025E0,9.609875083E-1,-7.404375076E-1,-1.138499975E-1
1.788899177E0,9.556249976E-1,-7.009750009E-1,-9.459999949E-2
1.790889254E0,9.513624907E-1,-6.477624774E-1,-7.975000143E-2
1.792879102E0,9.385749698E-1,-5.977125168E-1,-6.476250291E-2
1.794869016E0,9.354124665E-1,-5.475249887E-1,-4.675000161E-2
1.796859091E0,9.311500192E-1,-5.039374828E-1,-3.066249937E-2
1.798849016E0,9.215250015E-1,-4.729999900E-1,-2.007500082E-2
1.800839091E0,9.098374844E-1,-4.453625083E-1,-9.349999949E-3
1.802829016E0,9.013124704E-1,-4.261125028E-1,-8.249999955E-4
1.804819091E0,8.853625059E-1,-4.081000090E-1,9.762499481E-3
1.806809030E0,8.662499785E-1,-3.995749950E-1,1.402499992E-2
1.808799105E0,8.481000066E-1,-3.920125067E-1,2.144999988E-2
1.810789030E0,8.225250244E-1,-4.112625122E-1,2.254999988E-2
1.812779105E0,7.862250209E-1,-4.240500033E-1,1.938750036E-2
1.814769030E0,7.500625253E-1,-4.485250115E-1,1.938750036E-2
1.816759105E0,7.042750120E-1,-4.889499843E-1,1.402499992E-2
1.818749011E0,6.520249844E-1,-5.400999784E-1,1.086249948E-2
1.820739086E0,5.934500098E-1,-5.944125056E-1,4.399999976E-3
1.822729011E0,5.274500251E-1,-6.562874913E-1,1.237499993E-3
1.824719086E0,4.486624897E-1,-7.382375002E-1,-3.024999984E-3
1.826709011E0,3.750999868E-1,-8.223875165E-1,-5.087499972E-3
1.828699086E0,2.866874933E-1,-9.129999876E-1,-9.349999949E-3
1.830689001E0,2.046000063E-1,-9.939875007E-1,-5.087499972E-3
1.832679076E0,1.226499975E-1,-1.057787538E0,-6.187499966E-3
1.834669001E0,4.812499881E-2,-1.113199949E0,5.499999970E-3
1.836658847E0,-2.433750033E-2,-1.164350033E0,1.938750036E-2
1.838648999E0,-8.937499672E-2,-1.216599941E0,4.812499881E-2
1.840639076E0,-1.500124931E-1,-1.265550017E0,1.067000031E-1
1.842628924E0,-2.096875012E-1,-1.308174968E0,1.695374995E-1
1.844618847E0,-2.619374990E-1,-1.345437527E0,2.281125039E-1
1.846608999E0,-3.119874895E-1,-1.375275016E0,2.846249938E-1
1.848598847E0,-3.566749990E-1,-1.392325044E0,3.378374875E-1
1.850588922E0,-4.003999829E-1,-1.409374952E0,3.954499960E-1
1.852578847E0,-4.366999865E-1,-1.429587483E0,4.486624897E-1
1.854568932E0,-4.739624858E-1,-1.457362533E0,4.933499992E-1
1.856559086E0,-4.962374866E-1,-1.494624972E0,5.350124836E-1
1.858548934E0,-5.186499953E-1,-1.541512489E0,5.680124760E-1
1.860538857E0,-5.293750167E-1,-1.620299935E0,5.893250108E-1
1.862528932E0,-5.368000269E-1,-1.715175033E0,6.158624887E-1
1.864518857E0,-5.368000269E-1,-1.801387548E0,6.371750236E-1
1.866508909E0,-5.357000232E-1,-1.830124974E0,6.584874988E-1
1.868498834E0,-5.325375199E-1,-1.824900031E0,6.786999702E-1
1.870488909E0,-5.165874958E-1,-1.808812499E0,6.905249953E-1
1.872478834E0,-5.047624707E-1,-1.791762471E0,6.905249953E-1
1.874468909E0,-4.919750094E-1,-1.767287493E0,6.840624809E-1
1.876458834E0,-4.899125099E-1,-1.691662550E0,6.734749675E-1
1.878448909E0,-4.845499992E-1,-1.635287523E0,6.553249955E-1
1.880438834E0,-4.877125025E-1,-1.561725020E0,6.297500134E-1
1.882428909E0,-4.867500067E-1,-1.494624972E0,5.956500173E-1
1.884418834E0,-4.834499955E-1,-1.431787491E0,5.637499690E-1
1.886408909E0,-4.962374866E-1,-1.386000037E0,5.189250112E-1
1.888398834E0,-4.984374940E-1,-1.338012457E0,4.720374942E-1
1.890388922E0,-5.047624707E-1,-1.303912520E0,4.262500107E-1
1.892378847E0,-5.154874921E-1,-1.285762548E0,3.698749840E-1
1.894368922E0,-5.293750167E-1,-1.272012472E0,3.261500001E-1
1.896358847E0,-5.420249701E-1,-1.270912528E0,2.675749958E-1
1.898348922E0,-5.538499951E-1,-1.269812465E0,2.153249979E-1
1.900338847E0,-5.687000155E-1,-1.276275039E0,1.641750038E-1
1.902328899E0,-5.889124870E-1,-1.293324947E0,1.077999994E-1
1.904318748E0,-6.102250218E-1,-1.306112528E0,6.091250107E-2
1.906308899E0,-6.252124906E-1,-1.306112528E0,2.364999987E-2
1.908298824E0,-6.432250142E-1,-1.303912520E0,-1.787500083E-2
1.910288899E0,-6.678375006E-1,-1.289062500E0,-5.527500063E-2
1.912278824E0,-6.858500242E-1,-1.277237535E0,-8.607500046E-2
1.914268680E0,-7.093625069E-1,-1.254962444E0,-1.105500013E-1
1.916258755E0,-7.412624955E-1,-1.227187514E0,-1.297999918E-1
1.918248680E0,-7.679374814E-1,-1.197350025E0,-1.446499974E-1
1.920238755E0,-7.935125232E-1,-1.160087466E0,-1.522125006E-1
1.922228680E0,-8.201875091E-1,-1.117462516E0,-1.616999954E-1
1.924218755E0,-8.456249833E-1,-1.080199957E0,-1.639000028E-1
1.926208666E0,-8.711999655E-1,-1.042937517E0,-1.659625024E-1
1.928198741E0,-8.861874938E-1,-9.832624793E-1,-1.457500011E-1
1.930188666E0,-9.043374658E-1,-9.332125187E-1,-1.148125008E-1
1.932178741E0,-9.117624760E-1,-8.863250017E-1,-7.975000143E-2
1.934168666E0,-9.245499969E-1,-8.394374847E-1,-3.918749839E-2
1.936158741E0,-9.447624683E-1,-8.053374887E-1,-6.187499966E-3
1.938148661E0,-9.607124925E-1,-7.830625176E-1,3.643750027E-2
1.940138736E0,-9.788625240E-1,-7.563874722E-1,7.796250284E-2
1.942128661E0,-1.004437447E0,-7.404375076E-1,1.120624989E-1
1.944118736E0,-1.020387530E0,-7.287499905E-1,1.354375035E-1
1.946108661E0,-1.043900013E0,-7.222874761E-1,1.578499973E-1
1.948098736E0,-1.057649970E0,-7.126625180E-1,1.769624949E-1
1.950088661E0,-1.085425019E0,-6.998749971E-1,1.759999990E-1
1.952078736E0,-1.101374984E0,-6.967124939E-1,1.748999953E-1
1.954068661E0,-1.114162445E0,-7.020750046E-1,1.663749963E-1
1.956058736E0,-1.121587515E0,-6.946499944E-1,1.428624988E-1
1.958048661E0,-1.117324948E0,-6.998749971E-1,1.194875017E-1
1.960038736E0,-1.104537487E0,-7.041375041E-1,8.964999765E-2
1.962028661E0,-1.083225012E0,-7.404375076E-1,5.775000155E-2
1.964018736E0,-1.040599942E0,-8.032749891E-1,2.681249939E-2
1.966008661E0,-9.842249751E-1,-8.714749813E-1,-1.361249946E-2
1.967998736E0,-9.171249866E-1,-9.704750180E-1,-5.197500065E-2
1.969988661E0,-8.446624875E-1,-1.069612503E0,-9.143749624E-2
1.971978736E0,-7.572125196E-1,-1.179337502E0,-1.266375035E-1
1.973968666E0,-6.656374931E-1,-1.296487451E0,-1.564749926E-1
1.975958741E0,-5.666375160E-1,-1.415837526E0,-1.819124967E-1
1.977948666E0,-4.632374942E-1,-1.545774937E0,-2.011625022E-1
1.979938741E0,-3.460874856E-1,-1.679975033E0,-2.182125002E-1
1.981928666E0,-2.300374955E-1,-1.824900031E0,-2.267374992E-1
1.983918512E0,-1.127500013E-1,-1.970787525E0,-2.363625020E-1
1.985908596E0,9.762499481E-3,-2.116674900E0,-2.363625020E-1
1.987898521E0,1.385999918E-1,-2.253074884E0,-2.363625020E-1
1.989888673E0,2.579500079E-1,-2.360737562E0,-2.287999988E-1
1.991878521E0,3.804624975E-1,-2.434162378E0,-2.224749923E-1
1.993868596E0,4.933499992E-1,-2.462899923E0,-2.139499933E-1
1.995858521E0,5.977125168E-1,-2.443787575E0,-2.117500007E-1
1.997848582E0,7.031750083E-1,-2.385212421E0,-2.182125002E-1
1.999838507E0,8.023124933E-1,-2.292537451E0,-2.245374918E-1
2.001828582E0,9.013124704E-1,-2.170987606E0,-2.480500042E-1
2.003818507E0,1.000450015E0,-2.040087461E0,-2.745875120E-1
2.005808582E0,1.096287489E0,-1.914274931E0,-3.119874895E-1
2.007798521E0,1.190062523E0,-1.797124982E0,-3.492499888E-1
2.009788596E0,1.279574990E0,-1.686300039E0,-3.907749951E-1
2.011778521E0,1.357262492E0,-1.594725013E0,-4.334000051E-1
2.013768596E0,1.444574952E0,-1.514837503E0,-4.749250114E-1
2.015758521E0,1.515937448E0,-1.457362533E0,-4.993999898E-1
2.017748596E0,1.578912497E0,-1.419000030E0,-5.260750055E-1
2.019738526E0,1.635287523E0,-1.398787498E0,-5.346000195E-1
2.021728601E0,1.673650026E0,-1.406212449E0,-5.388625264E-1
2.023718449E0,1.703487515E0,-1.427525043E0,-5.324000120E-1
2.025708601E0,1.724799991E0,-1.479637504E0,-5.101249814E-1
2.027698449E0,1.737587452E0,-1.543575048E0,-4.877125025E-1
2.029688591E0,1.738687515E0,-1.606412530E0,-4.515500069E-1
2.031678516E0,1.731124997E0,-1.666087508E0,-4.195125103E-1
2.033668362E0,1.720537543E0,-1.718337536E0,-3.790875077E-1
2.035658437E0,1.697024941E0,-1.760962486E0,-3.418250084E-1
2.037648362E0,1.675850034E0,-1.790799975E0,-3.023625016E-1
2.039638437E0,1.646012545E0,-1.821599960E0,-2.639999986E-1
2.041628357E0,1.618237495E0,-1.847175002E0,-2.287999988E-1
2.043618432E0,1.585237503E0,-1.872750044E0,-1.947000027E-1
2.045608357E0,1.544812441E0,-1.905750036E0,-1.596374959E-1
2.047598432E0,1.507412434E0,-1.946312547E0,-1.287000030E-1
2.049588357E0,1.472350001E0,-1.986737490E0,-9.776250273E-2
2.051578432E0,1.429725051E0,-2.029362440E0,-7.012499869E-2
2.053568372E0,1.385037541E0,-2.078312397E0,-4.248749837E-2
2.055558447E0,1.341312528E0,-2.124237537E0,-1.691249944E-2
2.057548372E0,1.296487451E0,-2.177449942E0,7.699999958E-3
2.059538447E0,1.252900004E0,-2.241387606E0,2.681249939E-2
2.061528372E0,1.218799949E0,-2.334062576E0,3.959999979E-2
2.063518447E0,1.181537509E0,-2.385212421E0,5.348749831E-2
2.065508357E0,1.146337509E0,-2.411750078E0,5.981250107E-2
2.067498432E0,1.106874943E0,-2.413949966E0,4.812499881E-2
2.069488357E0,1.070712447E0,-2.371325016E0,3.849999979E-2
2.071478432E0,1.030287504E0,-2.311650038E0,1.938750036E-2
2.073468357E0,9.961875081E-1,-2.290337563E0,-8.249999955E-4
2.075458432E0,9.717124701E-1,-2.266962528E0,-3.066249937E-2
2.077448343E0,9.407749772E-1,-2.224337578E0,-6.049999967E-2
2.079438418E0,9.087374806E-1,-2.185975075E0,-9.569999576E-2
2.081428343E0,8.874250054E-1,-2.147612572E0,-1.308999956E-1
2.083418418E0,8.619874716E-1,-2.120937586E0,-1.659625024E-1
2.085408343E0,8.310499787E-1,-2.113512516E0,-2.054249942E-1
2.087398418E0,8.097375035E-1,-2.115712404E0,-2.415875047E-1
2.089388357E0,7.819625139E-1,-2.140187502E0,-2.799499929E-1
2.091378432E0,7.574874759E-1,-2.183774948E0,-3.162499964E-1
2.093368357E0,7.352125049E-1,-2.247712374E0,-3.427875042E-1
2.095358432E0,7.053750157E-1,-2.337224960E0,-3.715249896E-1
2.097348357E0,6.765000224E-1,-2.427837372E0,-3.876124918E-1
2.099338432E0,6.445999742E-1,-2.515150070E0,-4.013625085E-1
2.101328381E0,6.126999855E-1,-2.588574886E0,-4.003999829E-1
2.103318456E0,5.678749681E-1,-2.654712439E0,-4.003999829E-1
2.105308304E0,5.263500214E-1,-2.718650103E0,-3.876124918E-1
2.107298456E0,4.816625118E-1,-2.766499996E0,-3.641000092E-1
2.109288381E0,4.390375018E-1,-2.804862499E0,-3.385249972E-1
2.111278456E0,3.836250007E-1,-2.825074911E0,-3.077250123E-1
2.113268381E0,3.324750066E-1,-2.809124947E0,-2.671625018E-1
2.115258228E0,2.750000060E-1,-2.763337374E0,-2.330625057E-1
2.117248302E0,2.121624947E-1,-2.684550047E0,-2.022625059E-1
2.119238228E0,1.535875052E-1,-2.573724985E0,-1.691250056E-1
2.121228302E0,9.391249716E-2,-2.457674980E0,-1.436875015E-1
2.123218228E0,3.629999980E-2,-2.335162401E0,-1.212750003E-1
2.125208323E0,-2.117500082E-2,-2.231762409E0,-1.020250022E-1
2.127198248E0,-6.916250288E-2,-2.135925055E0,-8.827500045E-2
2.129188323E0,-1.117874980E-1,-2.059200048E0,-7.548750192E-2
2.131178248E0,-1.500124931E-1,-2.009150028E0,-6.159999967E-2
2.133168323E0,-1.798499972E-1,-1.973950028E0,-5.417500064E-2
2.135158248E0,-2.118874937E-1,-1.968587518E0,-4.881250113E-2
2.137148332E0,-2.310000062E-1,-1.961162448E0,-3.066249937E-2
2.139138257E0,-2.448875010E-1,-1.964462519E0,-2.007500082E-2
2.141128332E0,-2.587749958E-1,-1.962262511E0,-8.249999955E-4
2.143118257E0,-2.673000097E-1,-1.957999945E0,1.938750036E-2
2.145108332E0,-2.715624869E-1,-1.948374987E0,4.702499881E-2
2.147098257E0,-2.800875008E-1,-1.940950036E0,7.796250284E-2
2.149088327E0,-2.843500078E-1,-1.926100016E0,1.109625027E-1
2.151078175E0,-2.800875008E-1,-1.907950044E0,1.556500047E-1
2.153068327E0,-2.843500078E-1,-1.901487470E0,1.973125041E-1
2.155058175E0,-2.821500003E-1,-1.898324966E0,2.462625057E-1
2.157048098E0,-2.821500003E-1,-1.905750036E0,2.931500077E-1
2.159038173E0,-2.758249938E-1,-1.932425022E0,3.517250121E-1
2.161028108E0,-2.736249864E-1,-1.965425014E0,4.017750025E-1
2.163018183E0,-2.651000023E-1,-2.021937370E0,4.657124877E-1
2.165008108E0,-2.576749921E-1,-2.094399929E0,5.296499729E-1
2.166998183E0,-2.523125112E-1,-2.188037395E0,5.850625038E-1
2.168988108E0,-2.406249940E-1,-2.292537451E0,6.478999853E-1
2.170978183E0,-2.331999987E-1,-2.407487392E0,7.075750232E-1
2.172968098E0,-2.172500044E-1,-2.543887377E0,7.650499940E-1
2.174958173E0,-2.044624984E-1,-2.668600082E0,8.236249685E-1
2.176948098E0,-1.841125041E-1,-2.794275045E0,8.758749962E-1
2.178938173E0,-1.809500009E-1,-2.884749889E0,9.194625020E-1
2.180928098E0,-1.735250056E-1,-2.942362547E0,9.663500190E-1
2.182918173E0,-1.703625023E-1,-2.947587490E0,1.000450015E0
2.184908098E0,-1.766874939E-1,-2.919950008E0,1.028224945E0
2.186898173E0,-1.777874976E-1,-2.859174967E0,1.041012526E0
2.188888098E0,-1.926375031E-1,-2.783550024E0,1.047337532E0
2.190878173E0,-2.022625059E-1,-2.690875053E0,1.048437476E0
2.192868098E0,-2.096875012E-1,-2.585412502E0,1.035650015E0
2.194858173E0,-2.224749923E-1,-2.496999979E0,1.016399980E0
2.196848098E0,-2.331999987E-1,-2.417112589E0,9.887624979E-1
2.198838173E0,-2.341624945E-1,-2.352212429E0,9.567250013E-1
2.200828098E0,-2.331999987E-1,-2.306287527E0,9.216625094E-1
2.202818173E0,-2.352624983E-1,-2.284975052E0,8.801375031E-1
2.204808098E0,-2.331999987E-1,-2.281812429E0,8.395749927E-1
2.206798168E0,-2.300374955E-1,-2.289237499E0,8.045125008E-1
2.208788093E0,-2.235749960E-1,-2.302025080E0,7.596874833E-1
2.210778168E0,-2.172500044E-1,-2.312750101E0,7.309499979E-1
2.212768093E0,-2.065249979E-1,-2.324437380E0,7.011125088E-1
2.214758168E0,-1.968999952E-1,-2.315912485E0,6.734749675E-1
2.216748093E0,-1.746249944E-1,-2.303124905E0,6.425374746E-1
2.218738192E0,-1.468500048E-1,-2.280712605E0,6.265875101E-1
2.220728117E0,-1.223749965E-1,-2.243449926E0,6.052749753E-1
2.222718192E0,-9.143749624E-2,-2.218975067E0,5.850625038E-1
2.224708040E0,-4.881250113E-2,-2.190237522E0,5.658124685E-1
2.226698192E0,9.762499481E-3,-2.160399914E0,5.476624966E-1
2.228688040E0,6.407500058E-2,-2.139087439E0,5.211250186E-1
2.230678202E0,1.343374997E-1,-2.109250069E0,4.987125099E-1
2.232668127E0,2.164250016E-1,-2.087937593E0,4.742375016E-1
2.234657973E0,2.866874933E-1,-2.058099985E0,4.464625120E-1
2.236648048E0,3.708375096E-1,-2.029362440E0,4.177249968E-1
2.238637973E0,4.529249966E-1,-1.999524951E0,3.943499923E-1
2.240628048E0,5.317124724E-1,-1.948374987E0,3.687750101E-1
2.242617973E0,6.093999743E-1,-1.885537505E0,3.474625051E-1
2.244608048E0,6.807624698E-1,-1.816375017E0,3.272500038E-1
2.246597973E0,7.617499828E-1,-1.739650011E0,3.016749918E-1
2.248588048E0,8.416374922E-1,-1.673512459E0,2.718375027E-1
2.250577973E0,9.257875085E-1,-1.625662446E0,2.451625019E-1
2.252568048E0,1.016399980E0,-1.593624949E0,2.089999914E-1
2.254557997E0,1.112237453E0,-1.584137440E0,1.717374921E-1
2.256548072E0,1.210274935E0,-1.591562510E0,1.311749965E-1
2.258537997E0,1.312574983E0,-1.605450034E0,8.222500235E-2
2.260528072E0,1.406212449E0,-1.628824949E0,2.901249938E-2
2.262517997E0,1.502187490E0,-1.643812537E0,-2.859999985E-2
2.264508072E0,1.593762517E0,-1.662925005E0,-8.717499673E-2
2.266498002E0,1.676812530E0,-1.676812530E0,-1.403875053E-1
2.268488077E0,1.753537536E0,-1.694824934E0,-2.022625059E-1
2.270478002E0,1.830262542E0,-1.710912466E0,-2.543750107E-1
2.272468077E0,1.891999960E0,-1.728924990E0,-3.119874895E-1
2.274458002E0,1.948512435E0,-1.753537536E0,-3.651999831E-1
2.276448077E0,1.999662519E0,-1.781175017E0,-4.131875038E-1
2.278438002E0,2.043250084E0,-1.816375017E0,-4.717625082E-1
2.280428077E0,2.084912539E0,-1.847175002E0,-5.196124911E-1
2.282418002E0,2.093437433E0,-1.867387533E0,-5.761250257E-1
2.284408077E0,2.088074923E0,-1.883474946E0,-6.335999966E-1
2.286398002E0,2.067862511E0,-1.892962456E0,-6.901124716E-1
2.288388077E0,2.029500008E0,-1.887737513E0,-7.444249988E-1
2.290377992E0,1.967625022E0,-1.879212499E0,-8.040999770E-1
2.292368067E0,1.891037464E0,-1.866425037E0,-8.498874903E-1
2.294357992E0,1.789837480E0,-1.848274946E0,-8.999375105E-1
2.296348067E0,1.665125012E0,-1.804549932E0,-9.457250237E-1
2.298337992E0,1.504250050E0,-1.736487508E0,-9.820249677E-1
2.300328067E0,1.308312535E0,-1.639549971E0,-1.020387530E0
2.302317997E0,1.090924978E0,-1.521299958E0,-1.050225019E0
2.304308072E0,8.395749927E-1,-1.401950002E0,-1.079924941E0
2.306297920E0,5.604500175E-1,-1.269812465E0,-1.096974969E0
2.308287841E0,2.844874859E-1,-1.158025026E0,-1.107699990E0
2.310277995E0,3.629999980E-2,-1.047199965E0,-1.089550018E0
2.312268072E0,-5.846499801E-1,-1.444574952E0,-1.071537495E0
2.314257978E0,-1.263212442E0,-2.266962528E0,-9.457250237E-1
2.316247824E0,-1.254687548E0,-2.478849888E0,-6.219124794E-1
2.318237899E0,-1.023550034E0,-2.419312477E0,-4.408249855E-1
2.320227825E0,-7.903500199E-1,-2.181712389E0,-3.843125105E-1
2.322217899E0,-6.102250218E-1,-1.883474946E0,-4.046624899E-1
2.324207825E0,-5.016000271E-1,-1.638450027E0,-4.439874887E-1
2.326197899E0,-4.749250114E-1,-1.494624972E0,-4.845499992E-1
2.328187825E0,-5.218124986E-1,-1.444574952E0,-4.888125062E-1
2.330177899E0,-5.931749940E-1,-1.479637504E0,-4.812499881E-1
2.332167825E0,-6.528499722E-1,-1.551137447E0,-4.695625007E-1
2.334157899E0,-6.869499683E-1,-1.621399999E0,-4.727250040E-1
2.336147834E0,-7.210500240E-1,-1.706650019E0,-4.845499992E-1
2.338137908E0,-7.455250025E-1,-1.817337513E0,-5.016000271E-1
2.340127834E0,-7.636749744E-1,-1.927062511E0,-5.025625229E-1
2.342117908E0,-7.732999921E-1,-2.031562567E0,-4.897750020E-1
2.344107834E0,-7.838875055E-1,-2.140187502E0,-4.749250114E-1
2.346097908E0,-7.721999884E-1,-2.224337578E0,-4.450874925E-1
2.348087809E0,-7.625749707E-1,-2.296799898E0,-4.195125103E-1
2.350077884E0,-7.434625030E-1,-2.340387583E0,-3.928374946E-1
2.352067809E0,-7.253124714E-1,-2.380949974E0,-3.705624938E-1
2.354057884E0,-7.062000036E-1,-2.436362505E0,-3.449875116E-1
2.356047809E0,-6.923124790E-1,-2.510887384E0,-3.205125034E-1
2.358037655E0,-6.795250177E-1,-2.589674950E0,-2.949374914E-1
2.360027725E0,-6.784250140E-1,-2.657875061E0,-2.736249864E-1
2.362017879E0,-7.147250175E-1,-2.733500004E0,-2.671625018E-1
2.364007804E0,-7.540500164E-1,-2.766499996E0,-2.534124851E-1
2.365997879E0,-7.594124675E-1,-2.727174997E0,-2.437874973E-1
2.367987804E0,-7.657374740E-1,-2.637662411E0,-2.267374992E-1
2.369977879E0,-7.605124712E-1,-2.508687496E0,-2.224749923E-1
2.371967727E0,-7.232499719E-1,-2.337224960E0,-2.128500044E-1
2.373957648E0,-6.773250103E-1,-2.167824984E0,-2.182125002E-1
2.375947802E0,-6.400625110E-1,-2.027299881E0,-2.352624983E-1
2.377937879E0,-6.070625186E-1,-1.916474938E0,-2.660624981E-1
2.379927804E0,-5.825874805E-1,-1.835487485E0,-3.097875118E-1
2.381917879E0,-5.612750053E-1,-1.772650003E0,-3.641000092E-1
2.383907800E0,-5.431249738E-1,-1.721500039E0,-4.354625046E-1
2.385897646E0,-5.271750093E-1,-1.673512459E0,-5.164499879E-1
2.387887798E0,-5.112249851E-1,-1.624562502E0,-6.028000116E-1
2.389877875E0,-4.930749834E-1,-1.580837488E0,-6.879125237E-1
2.391867723E0,-4.845499992E-1,-1.530787468E0,-7.753624916E-1
2.393857875E0,-4.888125062E-1,-1.474412441E0,-8.563500047E-1
2.395847727E0,-5.271750093E-1,-1.432887435E0,-9.340375066E-1
2.397837650E0,-5.495874882E-1,-1.383800030E0,-9.979749918E-1
2.399827725E0,-5.495874882E-1,-1.331687450E0,-1.049124956E0
2.401817650E0,-5.260750055E-1,-1.270912528E0,-1.096012473E0
2.403807725E0,-5.080624819E-1,-1.212337494E0,-1.143862486E0
2.405797650E0,-4.930749834E-1,-1.158025026E0,-1.183325052E0
2.407787701E0,-4.845499992E-1,-1.122825027E0,-1.229112506E0
2.409777626E0,-4.888125062E-1,-1.105774999E0,-1.258949995E0
2.411767701E0,-5.058624744E-1,-1.125025034E0,-1.293050051E0
2.413757626E0,-5.143874884E-1,-1.153762460E0,-1.315462470E0
2.415747701E0,-5.399624705E-1,-1.173974991E0,-1.327149987E0
2.417737626E0,-5.655375123E-1,-1.210137486E0,-1.341037512E0
2.419727711E0,-5.825874805E-1,-1.243275046E0,-1.348462462E0
2.421717636E0,-6.028000116E-1,-1.279437542E0,-1.354787469E0
2.423707711E0,-6.135249734E-1,-1.298550010E0,-1.362349987E0
2.425697636E0,-6.187499762E-1,-1.308174968E0,-1.372937441E0
2.427687711E0,-6.209499836E-1,-1.314637542E0,-1.375137448E0
2.429677559E0,-6.263124943E-1,-1.329487443E0,-1.384624958E0
2.431667706E0,-6.220499873E-1,-1.324125051E0,-1.388887525E0
2.433657631E0,-6.177874804E-1,-1.324125051E0,-1.386824965E0
2.435647477E0,-6.144874692E-1,-1.300750017E0,-1.383525014E0
2.437637629E0,-6.135249734E-1,-1.278337479E0,-1.379262447E0
2.439627706E0,-6.028000116E-1,-1.232550025E0,-1.370875001E0
2.441617631E0,-5.996375084E-1,-1.179337502E0,-1.355887532E0
2.443607711E0,-5.857499838E-1,-1.121724963E0,-1.344200015E0
2.445597559E0,-5.761250257E-1,-1.069612503E0,-1.334574938E0
2.447587711E0,-5.559124947E-1,-1.011037469E0,-1.327149987E0
2.449577559E0,-5.431249738E-1,-9.630500078E-1,-1.321787477E0
2.451567482E0,-5.420249701E-1,-9.545249939E-1,-1.310099959E0
2.453557557E0,-5.282750130E-1,-9.502624869E-1,-1.287687540E0
2.455547720E0,-5.197499990E-1,-9.651125073E-1,-1.267475009E0
2.457537568E0,-5.165874958E-1,-9.854624867E-1,-1.248362541E0
2.459527720E0,-5.251125097E-1,-1.015300035E0,-1.225950003E0
2.461517645E0,-5.293750167E-1,-1.025887489E0,-1.198174953E0
2.463507720E0,-5.293750167E-1,-1.033312440E0,-1.168475032E0
2.465497568E0,-5.251125097E-1,-1.007737517E0,-1.144962549E0
2.467487489E0,-5.154874921E-1,-9.747374654E-1,-1.113062501E0
2.469477566E0,-4.910124838E-1,-9.428374767E-1,-1.078962445E0
2.471467720E0,-4.589749873E-1,-9.161624908E-1,-1.042662501E0
2.473457568E0,-4.281750023E-1,-8.980125189E-1,-1.001137495E0
2.475447491E0,-4.057624936E-1,-9.033749700E-1,-9.638749957E-1
2.477437566E0,-3.844499886E-1,-9.044749737E-1,-9.255124927E-1
2.479427486E0,-3.673999906E-1,-9.235875010E-1,-8.925125003E-1
2.481417561E0,-3.684999943E-1,-9.428374767E-1,-8.637750149E-1
2.483407486E0,-3.759250045E-1,-9.641500115E-1,-8.381999731E-1
2.485397561E0,-3.716624975E-1,-9.598875046E-1,-8.189499974E-1
2.487387486E0,-3.375625014E-1,-9.257875085E-1,-7.955750227E-1
2.489377561E0,-2.991999984E-1,-8.927875161E-1,-7.731624842E-1
2.491367477E0,-2.459875047E-1,-8.575875163E-1,-7.444249988E-1
2.493357552E0,-2.001999915E-1,-8.394374847E-1,-7.167875171E-1
2.495347477E0,-1.755875051E-1,-8.416374922E-1,-6.858500242E-1
2.497337552E0,-1.522125006E-1,-8.470000029E-1,-6.496874690E-1
2.499327477E0,-1.414874941E-1,-8.533250093E-1,-6.208124757E-1
2.501317552E0,-1.351625025E-1,-8.490625024E-1,-5.878124833E-1
2.503307491E0,-1.288374960E-1,-8.373749852E-1,-5.548124909E-1
2.505297566E0,-1.245749965E-1,-8.234875202E-1,-5.260750055E-1
2.507287491E0,-1.084875017E-1,-7.882875204E-1,-4.951374829E-1
2.509277566E0,-9.899999946E-2,-7.415375113E-1,-4.621374905E-1
2.511267491E0,-9.253749996E-2,-7.063375115E-1,-4.323000014E-1
2.513257566E0,-9.047500044E-2,-6.828249693E-1,-4.003999829E-1
2.515247486E0,-9.047500044E-2,-6.690750122E-1,-3.672625124E-1
2.517237561E0,-9.569999576E-2,-6.551874876E-1,-3.418250084E-1
2.519227486E0,-1.075249985E-1,-6.551874876E-1,-3.268375099E-1
2.521217561E0,-1.117874980E-1,-6.637125015E-1,-3.162499964E-1
2.523207409E0,-1.095874980E-1,-6.615124941E-1,-2.991999984E-1
2.525197561E0,-1.160499975E-1,-6.807624698E-1,-2.842124999E-1
2.527187486E0,-1.181124970E-1,-6.828249693E-1,-2.778874934E-1
2.529177561E0,-1.192125008E-1,-6.967124939E-1,-2.660624981E-1
2.531167486E0,-1.149500012E-1,-7.041375041E-1,-2.534124851E-1
2.533157561E0,-1.042250022E-1,-7.191249728E-1,-2.352624983E-1
2.535147486E0,-9.253749996E-2,-7.319124937E-1,-2.267374992E-1
2.537137581E0,-8.511249721E-2,-7.404375076E-1,-2.160124928E-1
2.539127506E0,-7.658749819E-2,-7.574874759E-1,-2.117500007E-1
2.541117581E0,-6.916250288E-2,-7.606499791E-1,-2.085874975E-1
2.543107506E0,-6.916250288E-2,-7.669749856E-1,-2.150499970E-1
2.545097581E0,-7.438749820E-2,-7.745375037E-1,-2.299000025E-1
2.547087429E0,-8.195000142E-2,-7.873250246E-1,-2.619374990E-1
2.549077375E0,-8.084999770E-2,-7.777000070E-1,-2.980999947E-1
2.551067528E0,-7.768750191E-2,-7.680749893E-1,-3.310999870E-1
2.553057377E0,-6.586249918E-2,-7.574874759E-1,-3.620375097E-1
2.555047528E0,-5.211250111E-2,-7.606499791E-1,-3.971000016E-1
2.557037377E0,-3.712499887E-2,-7.627124786E-1,-4.311999977E-1
2.559027451E0,-2.433750033E-2,-7.638124824E-1,-4.632374942E-1
2.561017377E0,-1.058750041E-2,-7.669749856E-1,-5.090249777E-1
2.563007451E0,1.374999993E-4,-7.712374926E-1,-5.494499803E-1
2.564997377E0,1.608750038E-2,-7.712374926E-1,-5.920749903E-1
2.566987451E0,2.681249939E-2,-7.660124898E-1,-6.315374970E-1
2.568977377E0,2.461249940E-2,-7.638124824E-1,-6.815875173E-1
2.570967451E0,2.571249940E-2,-7.584499717E-1,-7.273749709E-1
2.572957392E0,3.849999979E-2,-7.499250174E-1,-7.763249874E-1
2.574947467E0,4.056249931E-2,-7.447000146E-1,-8.126249909E-1
2.576937392E0,4.702499881E-2,-7.404375076E-1,-8.552500010E-1
2.578927467E0,5.761250108E-2,-7.404375076E-1,-8.925125003E-1
2.580917392E0,6.297499686E-2,-7.510250211E-1,-9.191874862E-1
2.582907467E0,7.576250285E-2,-7.606499791E-1,-9.149249792E-1
2.584897392E0,9.061250091E-2,-7.904874682E-1,-8.584125042E-1
2.586887467E0,9.913749993E-2,-8.095999956E-1,-7.902125120E-1
2.588877392E0,1.247124970E-1,-8.405374885E-1,-7.049624920E-1
2.590867467E0,1.482249945E-1,-8.650124669E-1,-6.208124757E-1
2.592857392E0,1.727000028E-1,-8.842625022E-1,-5.346000195E-1
2.594847467E0,1.940124929E-1,-8.916875124E-1,-4.558124840E-1
2.596837416E0,2.173874974E-1,-8.863250017E-1,-3.918749988E-1
2.598827491E0,2.408999950E-1,-8.714749813E-1,-3.460874856E-1
2.600817416E0,2.685374916E-1,-8.672124743E-1,-3.108874857E-1
2.602807491E0,2.866874933E-1,-8.629499674E-1,-2.831124961E-1
2.604797416E0,3.091000021E-1,-8.746374846E-1,-2.554749846E-1
2.606787491E0,3.282124996E-1,-8.927875161E-1,-2.299000025E-1
2.608777406E0,3.474625051E-1,-9.226250052E-1,-2.096875012E-1
2.610767481E0,3.645125031E-1,-9.470999837E-1,-1.861750036E-1
2.612757406E0,3.814249933E-1,-9.747374654E-1,-1.766874939E-1
2.614747481E0,3.984749913E-1,-9.928874969E-1,-1.670625061E-1
2.616737406E0,4.166249931E-1,-9.960500002E-1,-1.639000028E-1
2.618727481E0,4.294124842E-1,-9.939875007E-1,-1.681624949E-1
2.620717425E0,4.325749874E-1,-9.875249863E-1,-1.798499972E-1
2.622707500E0,4.325749874E-1,-9.726749659E-1,-1.926375031E-1
2.624697425E0,4.336749911E-1,-9.545249939E-1,-2.032250017E-1
2.626687271E0,4.401375055E-1,-9.448999763E-1,-2.224749923E-1
2.628677346E0,4.390375018E-1,-9.374749660E-1,-2.373249978E-1
2.630667271E0,4.422000051E-1,-9.343125224E-1,-2.523125112E-1
2.632657337E0,4.368374944E-1,-9.374749660E-1,-2.682625055E-1
2.634647491E0,4.336749911E-1,-9.417374730E-1,-2.842124999E-1
2.636637339E0,4.251500070E-1,-9.311500192E-1,-2.969999909E-1
2.638627262E0,4.251500070E-1,-9.065374732E-1,-3.077250123E-1
2.640617337E0,4.283125103E-1,-8.661124706E-1,-3.129499853E-1
2.642607262E0,4.240500033E-1,-8.223875165E-1,-3.247750103E-1
2.644597327E0,4.230875075E-1,-7.680749893E-1,-3.332999945E-1
2.646587252E0,4.305124879E-1,-7.095000148E-1,-3.353624940E-1
2.648577327E0,4.305124879E-1,-6.466624737E-1,-3.427875042E-1
2.650567252E0,4.347749949E-1,-5.977125168E-1,-3.503499925E-1
2.652557327E0,4.401375055E-1,-5.571500063E-1,-3.566749990E-1
2.654547252E0,4.379374981E-1,-5.273125172E-1,-3.726249933E-1
2.656537337E0,4.336749911E-1,-5.059999824E-1,-3.790875077E-1
2.658527262E0,4.305124879E-1,-4.911499918E-1,-3.939374983E-1
2.660517337E0,4.208875000E-1,-4.666749835E-1,-4.046624899E-1
2.662507262E0,4.134624898E-1,-4.474250078E-1,-4.109874964E-1
2.664497337E0,4.102999866E-1,-4.283125103E-1,-4.184125066E-1
2.666487262E0,4.027374983E-1,-4.059000015E-1,-4.302375019E-1
2.668477337E0,4.049375057E-1,-3.856875002E-1,-4.365625083E-1
2.670467262E0,4.038375020E-1,-3.579125106E-1,-4.430249929E-1
2.672457337E0,4.060375094E-1,-3.324750066E-1,-4.525125027E-1
2.674447262E0,4.081000090E-1,-3.143250048E-1,-4.600749910E-1
2.676437337E0,4.197874963E-1,-2.919124961E-1,-4.621374905E-1
2.678427262E0,4.251500070E-1,-2.642749846E-1,-4.706625044E-1
2.680417356E0,4.283125103E-1,-2.472250015E-1,-4.823499918E-1
2.682407281E0,4.401375055E-1,-2.131250054E-1,-4.888125062E-1
2.684397356E0,4.507249892E-1,-1.810874939E-1,-4.888125062E-1
2.686387281E0,4.549874961E-1,-1.480875015E-1,-4.951374829E-1
2.688377356E0,4.657124877E-1,-1.130250022E-1,-4.962374866E-1
2.690367281E0,4.688749909E-1,-9.061250091E-2,-4.982999861E-1
2.692357370E0,4.720374942E-1,-6.393750012E-2,-4.982999861E-1
2.694347295E0,4.731374979E-1,-4.798749834E-2,-4.951374829E-1
2.696337370E0,4.774000049E-1,-4.152499884E-2,-4.823499918E-1
2.698327295E0,4.837250113E-1,-3.629999980E-2,-4.675000012E-1
2.700317370E0,4.859249890E-1,-3.409999982E-2,-4.567750096E-1
2.702307295E0,4.965125024E-1,-2.667500079E-2,-4.408249855E-1
2.704297370E0,5.018749833E-1,-2.557500079E-2,-4.302375019E-1
2.706287295E0,5.072374940E-1,-2.131249942E-2,-4.174500108E-1
2.708277141E0,5.115000010E-1,-1.278750040E-2,-4.056249857E-1
2.710267216E0,5.157625079E-1,-8.524999954E-3,-3.961375058E-1
2.712257370E0,5.220875144E-1,-7.562499959E-3,-3.811500072E-1
2.714247295E0,5.209875107E-1,9.487500414E-3,-3.662999868E-1
2.716237127E0,4.581499994E-1,1.395625025E-1,-3.332999945E-1
2.718227202E0,3.899500072E-1,2.726624906E-1,-2.884750068E-1
2.720217127E0,3.463625014E-1,2.854500115E-1,-2.469500005E-1
2.722207202E0,3.143250048E-1,2.226125002E-1,-2.193125039E-1
2.724197127E0,3.185875118E-1,1.288374960E-1,-2.000624985E-1
2.726187202E0,3.495250046E-1,3.726249933E-2,-1.915374994E-1
2.728177121E0,3.708375096E-1,-2.887500077E-2,-1.787499934E-1
2.730167196E0,3.804624975E-1,-4.482499883E-2,-1.639000028E-1
2.732157121E0,3.740000129E-1,-4.372499883E-2,-1.308999956E-1
2.734147196E0,3.559874892E-1,-3.519999981E-2,-8.923749626E-2
2.736137121E0,3.398999870E-1,-3.726249933E-2,-3.918749839E-2
2.738127196E0,3.111625016E-1,-4.578749835E-2,5.499999970E-3
2.740117126E0,2.963125110E-1,-5.115000159E-2,5.018749833E-2
2.742107201E0,2.802250087E-1,-5.967500061E-2,8.648750186E-2
2.744097126E0,2.622124851E-1,-6.819999963E-2,1.237500012E-1
2.746087201E0,2.419999987E-1,-6.503749639E-2,1.589500010E-1
2.748077126E0,2.270125002E-1,-6.503749639E-2,1.919499934E-1
2.750067201E0,2.249500006E-1,-7.039999962E-2,2.153249979E-1
2.752057140E0,2.195875049E-1,-7.782500237E-2,2.366375029E-1
2.754047215E0,2.249500006E-1,-8.951249719E-2,2.516250014E-1
2.756037140E0,2.366375029E-1,-1.182499975E-1,2.664749920E-1
2.758027215E0,2.429624945E-1,-1.460250020E-1,2.750000060E-1
2.760017140E0,2.568500042E-1,-1.725624949E-1,2.814624906E-1
2.762007215E0,2.633124888E-1,-2.023999989E-1,2.899875045E-1
2.763997131E0,2.664749920E-1,-2.184875011E-1,2.963125110E-1
2.765987206E0,2.664749920E-1,-2.364999950E-1,3.059374988E-1
2.767977131E0,2.685374916E-1,-2.503874898E-1,3.102000058E-1
2.769967206E0,2.653749883E-1,-2.652375102E-1,3.207874894E-1
2.771957131E0,2.547875047E-1,-2.770625055E-1,3.283500075E-1
2.773947206E0,2.557500005E-1,-2.791250050E-1,3.368749917E-1
2.775937135E0,2.472250015E-1,-2.898499966E-1,3.378374875E-1
2.777927210E0,2.451625019E-1,-2.961750031E-1,3.420999944E-1
2.779917135E0,2.440624982E-1,-3.100624979E-1,3.528249860E-1
2.781907210E0,2.408999950E-1,-3.100624979E-1,3.517250121E-1
2.783897135E0,2.440624982E-1,-3.121249974E-1,3.548874855E-1
2.785887210E0,2.398000062E-1,-3.206500113E-1,3.517250121E-1
2.787877135E0,2.334749997E-1,-3.302749991E-1,3.431999981E-1
2.789867210E0,2.312749922E-1,-3.291749954E-1,3.272500038E-1
2.791857135E0,2.292124927E-1,-3.217499852E-1,3.070375025E-1
2.793847210E0,2.249500006E-1,-2.887499928E-1,2.814624906E-1
2.795837135E0,2.281125039E-1,-2.600125074E-1,2.494249940E-1
2.797827210E0,2.387000024E-1,-2.759625018E-1,2.153249979E-1
2.799817130E0,2.408999950E-1,-2.887499928E-1,1.951124966E-1
2.801807205E0,2.387000024E-1,-3.068999946E-1,1.727000028E-1
2.803797130E0,2.387000024E-1,-3.367374837E-1,1.556500047E-1
2.805787205E0,2.281125039E-1,-3.664374948E-1,1.407999992E-1
2.807777130E0,2.216500044E-1,-3.953124881E-1,1.259499937E-1
2.809767205E0,2.079000026E-1,-4.123624861E-1,1.109625027E-1
2.811757116E0,2.088624984E-1,-4.261125028E-1,1.013374999E-1
2.813747191E0,2.014375031E-1,-4.453625083E-1,9.281250089E-2
2.815737116E0,1.993750036E-1,-4.559499919E-1,7.686249912E-2
2.817727191E0,1.982749999E-1,-4.538874924E-1,7.150000334E-2
2.819717040E0,1.960749924E-1,-4.581499994E-1,5.775000155E-2
2.821707191E0,1.908500046E-1,-4.453625083E-1,4.386249930E-2
2.823697121E0,1.929125041E-1,-4.303750098E-1,2.791249938E-2
2.825687196E0,1.897500008E-1,-4.112625122E-1,1.292499993E-2
2.827677045E0,1.843875051E-1,-3.867875040E-1,-8.249999955E-4
2.829666966E0,1.823250055E-1,-3.632749915E-1,-1.897500083E-2
2.831657043E0,1.823250055E-1,-3.356375098E-1,-3.602499887E-2
2.833646968E0,1.823250055E-1,-3.121249974E-1,-4.771250114E-2
2.835637115E0,1.780624986E-1,-2.674374878E-1,-5.417500064E-2
2.837626963E0,1.790249944E-1,-2.418625057E-1,-6.366249919E-2
2.839617038E0,1.801249981E-1,-2.120250016E-1,-7.012499869E-2
2.841606963E0,1.865874976E-1,-1.907124966E-1,-7.644999772E-2
2.843597038E0,1.929125041E-1,-1.821874976E-1,-7.975000143E-2
2.845586949E0,1.908500046E-1,-1.758625060E-1,-7.755000144E-2
2.847577024E0,1.960749924E-1,-1.725624949E-1,-7.975000143E-2
2.849566949E0,1.897500008E-1,-1.790249944E-1,-8.291249722E-2
2.851557024E0,1.897500008E-1,-1.960749924E-1,-8.071249723E-2
2.853546949E0,1.854874939E-1,-2.066625059E-1,-7.438749820E-2
2.855537024E0,1.812250018E-1,-2.205500007E-1,-7.975000143E-2
2.857526949E0,1.823250055E-1,-2.270125002E-1,-8.071249723E-2
2.859517024E0,1.908500046E-1,-2.270125002E-1,-7.644999772E-2
2.861506949E0,1.982749999E-1,-2.279749960E-1,-7.548750192E-2
2.863497024E0,2.099625021E-1,-2.216500044E-1,-7.548750192E-2
2.865486949E0,2.206874937E-1,-2.099625021E-1,-7.755000144E-2
2.867477024E0,2.323749959E-1,-1.875499934E-1,-8.401250094E-2
2.869466944E0,2.429624945E-1,-1.673374921E-1,-8.923749626E-2
2.871457019E0,2.494249940E-1,-1.577125043E-1,-9.776250273E-2
2.873446944E0,2.536875010E-1,-1.395625025E-1,-9.459999949E-2
2.875437019E0,2.590500116E-1,-1.417624950E-1,-9.886249900E-2
2.877426944E0,2.536875010E-1,-1.427250057E-1,-9.776250273E-2
2.879417019E0,2.483250052E-1,-1.502874941E-1,-9.459999949E-2
2.881406929E0,2.398000062E-1,-1.640374959E-1,-9.350000322E-2
2.883397004E0,2.334749997E-1,-1.747625023E-1,-9.143749624E-2
2.885386929E0,2.195875049E-1,-1.747625023E-1,-9.253749996E-2
2.887377004E0,2.099625021E-1,-1.896124929E-1,-8.717499673E-2
2.889366929E0,2.014375031E-1,-2.003374994E-1,-8.607500046E-2
2.891357004E0,1.982749999E-1,-2.131250054E-1,-8.497499675E-2
2.893346934E0,1.971749961E-1,-2.364999950E-1,-8.071249723E-2
2.895337009E0,1.993750036E-1,-2.642749846E-1,-7.218749821E-2
2.897326934E0,1.982749999E-1,-2.898499966E-1,-6.586249918E-2
2.899317009E0,1.971749961E-1,-2.993375063E-1,-5.733750015E-2
2.901306934E0,1.897500008E-1,-3.004375100E-1,-5.197500065E-2
2.903297009E0,1.908500046E-1,-2.919124961E-1,-4.564999789E-2
2.905286939E0,1.929125041E-1,-2.791250050E-1,-4.675000161E-2
2.907277014E0,1.951124966E-1,-2.578125000E-1,-4.771250114E-2
2.909266939E0,2.046000063E-1,-2.301750034E-1,-4.344999790E-2
2.911257014E0,2.121624947E-1,-2.066625059E-1,-4.991250113E-2
2.913246939E0,2.281125039E-1,-1.810874939E-1,-5.101250112E-2
2.915237014E0,2.419999987E-1,-1.597750038E-1,-5.527500063E-2
2.917226939E0,2.547875047E-1,-1.352999955E-1,-5.623750016E-2
2.919217014E0,2.727999985E-1,-1.204499975E-1,-6.159999967E-2
2.921206939E0,2.802250087E-1,-1.108250022E-1,-6.270000339E-2
2.923197014E0,2.952125072E-1,-1.108250022E-1,-6.586249918E-2
2.925186939E0,2.994749844E-1,-1.119249985E-1,-6.159999967E-2
2.927177014E0,3.079999983E-1,-1.130250022E-1,-6.159999967E-2
2.929166929E0,3.185875118E-1,-1.065625027E-1,-5.733750015E-2
2.931157004E0,3.250499964E-1,-1.108250022E-1,-5.307500064E-2
2.933146929E0,3.293125033E-1,-1.087625027E-1,-4.771250114E-2
2.935137004E0,3.335750103E-1,-1.161874980E-1,-4.564999789E-2
2.937126929E0,3.378374875E-1,-1.150875017E-1,-3.918749839E-2
2.939117004E0,3.335750103E-1,-1.108250022E-1,-3.918749839E-2
2.941106916E0,3.335750103E-1,-1.054624990E-1,-3.286249936E-2
2.943096991E0,3.335750103E-1,-8.744999766E-2,-3.066249937E-2
2.945086916E0,3.346749842E-1,-7.892499864E-2,-2.639999986E-2
2.947076991E0,3.389374912E-1,-5.541250110E-2,-2.007500082E-2
2.949066839E0,3.441624939E-1,-2.983750030E-2,-1.044999994E-2
2.951056760E0,3.356375098E-1,-1.072499994E-2,-5.087499972E-3
2.953046837E0,3.346749842E-1,-0.000000000E0,1.196249947E-2
2.955036762E0,3.282124996E-1,2.062499989E-3,2.571249940E-2
2.957026837E0,3.261500001E-1,-4.262499977E-3,3.643750027E-2
2.959016762E0,3.239499927E-1,-4.262499977E-3,5.018749833E-2
2.961006837E0,3.250499964E-1,9.624999948E-4,6.297499686E-2
2.962996991E0,3.282124996E-1,8.524999954E-3,7.369999588E-2
2.964986819E0,3.293125033E-1,1.911249943E-2,8.332499862E-2
2.966976742E0,3.356375098E-1,2.447500080E-2,9.817499667E-2
2.968966817E0,3.324750066E-1,3.299999982E-2,1.088999957E-1
2.970956742E0,3.389374912E-1,4.152499884E-2,1.183874980E-1
2.972946817E0,3.324750066E-1,4.152499884E-2,1.269125044E-1
2.974936971E0,3.367374837E-1,4.578749835E-2,1.396999955E-1
2.976926887E0,3.313750029E-1,4.468749836E-2,1.535875052E-1
2.978916733E0,3.261500001E-1,4.468749836E-2,1.652749926E-1
2.980906885E0,3.239499927E-1,5.211250111E-2,1.802625060E-1
2.982896962E0,3.143250048E-1,6.173750013E-2,1.908500046E-1
2.984886887E0,3.037374914E-1,7.232499868E-2,2.058375031E-1
2.986876962E0,2.963125110E-1,8.731249720E-2,2.195875049E-1
2.988866824E0,2.920500040E-1,9.899999946E-2,2.271499932E-1
2.990856745E0,2.824249864E-1,1.075249985E-1,2.356749922E-1
2.992846899E0,2.770625055E-1,1.288374960E-1,2.431000024E-1
2.994836747E0,2.685374916E-1,1.342000067E-1,2.494249940E-1
2.996826822E0,2.600125074E-1,1.523499936E-1,2.568500042E-1
2.998816747E0,2.505249977E-1,1.575749964E-1,2.611125112E-1
3.000806827E0,2.440624982E-1,1.777874976E-1,2.718375027E-1
3.002796752E0,2.366375029E-1,1.959374994E-1,2.792625129E-1
3.004786827E0,2.344374955E-1,2.172500044E-1,2.888875008E-1
3.006776752E0,2.238499969E-1,2.331999987E-1,2.866874933E-1
3.008766827E0,2.153249979E-1,2.641375065E-1,2.974124849E-1
3.010756752E0,2.099625021E-1,2.843500078E-1,2.994749844E-1
3.012746832E0,2.079000026E-1,2.982375026E-1,3.016749918E-1
3.014736757E0,2.088624984E-1,3.130874932E-1,3.113000095E-1
3.016726832E0,2.014375031E-1,3.238124847E-1,3.113000095E-1
3.018716757E0,2.046000063E-1,3.386625051E-1,3.165250123E-1
3.020706832E0,2.025374919E-1,3.599750102E-1,3.198249936E-1
3.022696757E0,2.036374956E-1,3.834874928E-1,3.207874894E-1
3.024686837E0,2.046000063E-1,4.025999904E-1,3.261500001E-1
3.026676762E0,2.099625021E-1,4.218499959E-1,3.283500075E-1
3.028666837E0,2.142249942E-1,4.483875036E-1,3.315125108E-1
3.030656762E0,2.173874974E-1,4.804250002E-1,3.335750103E-1
3.032646837E0,2.270125002E-1,5.017374754E-1,3.335750103E-1
3.034636762E0,2.323749959E-1,5.358374715E-1,3.346749842E-1
3.036626841E0,2.398000062E-1,5.603125095E-1,3.335750103E-1
3.038616766E0,2.472250015E-1,5.953750014E-1,3.326124847E-1
3.040606841E0,2.547875047E-1,6.370375156E-1,3.240875006E-1
3.042596766E0,2.600125074E-1,6.774625182E-1,3.133625090E-1
3.044586841E0,2.462625057E-1,6.828249693E-1,3.037374914E-1
3.046576766E0,2.249500006E-1,6.359375119E-1,2.931500077E-1
3.048566841E0,2.079000026E-1,5.400999784E-1,2.686749995E-1
3.050556766E0,1.865874976E-1,5.176874995E-1,2.601499856E-1
3.052546841E0,1.737999916E-1,5.486249924E-1,2.451625019E-1
3.054536766E0,1.812250018E-1,6.166874766E-1,2.271499932E-1
3.056526841E0,1.960749924E-1,7.030375004E-1,2.058375031E-1
3.058516766E0,2.195875049E-1,8.053374887E-1,1.919499934E-1
3.060506841E0,2.398000062E-1,8.980125189E-1,1.791625023E-1
3.062496766E0,2.451625019E-1,9.651125073E-1,1.706375033E-1
3.064486841E0,2.707374990E-1,1.024787545E0,1.589500010E-1
3.066476766E0,2.909500003E-1,1.087625027E0,1.524875015E-1
3.068466841E0,2.994749844E-1,1.160087466E0,1.450625062E-1
3.070456766E0,2.952125072E-1,1.204774976E0,1.419000030E-1
3.072446832E0,3.037374914E-1,1.271875024E0,1.396999955E-1
3.074436757E0,2.898499966E-1,1.323024988E0,1.354375035E-1
3.076426832E0,2.855874896E-1,1.401812434E0,1.419000030E-1
3.078416757E0,3.005749881E-1,1.512637496E0,1.535875052E-1
3.080406832E0,2.866874933E-1,1.604212523E0,1.556500047E-1
3.082396757E0,3.218874931E-1,1.722462535E0,1.610125005E-1
3.084386836E0,3.602499962E-1,1.840712547E0,1.737999916E-1
3.086376761E0,3.623124957E-1,1.953599930E0,1.940124929E-1
3.088366836E0,3.687750101E-1,2.028262377E0,2.132624984E-1
3.090356761E0,3.719374835E-1,2.077212572E0,2.334749997E-1
3.092346836E0,3.856875002E-1,2.077212572E0,2.451625019E-1
3.094336761E0,4.325749874E-1,2.036787510E0,2.601499856E-1
3.096326836E0,4.774000049E-1,2.012175083E0,2.814624906E-1
3.098316761E0,4.763000011E-1,1.985637546E0,3.037374914E-1
3.100306836E0,4.529249966E-1,1.964324951E0,3.400374949E-1
3.102296761E0,4.305124879E-1,1.956900001E0,3.793624938E-1
3.104286836E0,4.070000052E-1,1.967487454E0,4.177249968E-1
3.106276761E0,3.836250007E-1,1.974912524E0,4.540250003E-1
3.108266831E0,3.825249970E-1,2.006949902E0,4.933499992E-1
3.110256756E0,3.750999868E-1,2.019737482E0,5.222250223E-1
3.112246831E0,3.463625014E-1,2.071850061E0,5.498625040E-1
3.114236756E0,3.165250123E-1,2.140049934E0,5.732374787E-1
3.116226831E0,2.716999948E-1,2.224200010E0,5.913875103E-1
3.118216756E0,2.398000062E-1,2.308350086E0,5.967500210E-1
3.120206831E0,2.206874937E-1,2.406387568E0,5.999125242E-1
3.122196756E0,1.897500008E-1,2.478849888E0,5.871250033E-1
3.124186831E0,1.663749963E-1,2.528899908E0,5.658124685E-1
3.126176757E0,1.513874978E-1,2.575787544E0,5.370749831E-1
3.128166831E0,1.311749965E-1,2.631200075E0,4.998124838E-1
3.130156757E0,1.033999994E-1,2.688674927E0,4.625499845E-1
3.132146845E0,7.686249912E-2,2.733362436E0,4.252874851E-1
3.134136771E0,4.056249931E-2,2.804724932E0,3.847250044E-1
3.136126845E0,-9.624999948E-4,2.880487442E0,3.474625051E-1
3.138116771E0,-5.733750015E-2,2.969862461E0,3.113000095E-1
3.140106617E0,-1.394249946E-1,3.045487404E0,2.644124925E-1
3.142096769E0,-2.139499933E-1,3.139262438E0,2.281125039E-1
3.144086845E0,-2.767874897E-1,3.177624941E0,1.897500008E-1
3.146076771E0,-3.343999982E-1,3.200037479E0,1.513874978E-1
3.148066845E0,-3.972375095E-1,3.242662430E0,1.194875017E-1
3.150056771E0,-4.877125025E-1,3.331074953E0,9.707500041E-2
3.152046845E0,-6.007375121E-1,3.437500000E0,8.112499863E-2
3.154036771E0,-7.156875134E-1,3.498275042E0,4.386249930E-2
3.156026865E0,-8.372374773E-1,3.553687572E0,1.292499993E-2
3.158016790E0,-9.735000134E-1,3.605937481E0,-2.213750035E-2
3.160006865E0,-1.117324948E0,3.682524920E0,-5.953750014E-2
3.161996790E0,-1.260049939E0,3.754987478E0,-1.053249985E-1
3.163986865E0,-1.387925029E0,3.843400002E0,-1.287000030E-1
3.165976800E0,-1.533812523E0,3.955324888E0,-1.744875014E-1
3.167966875E0,-1.674474955E0,4.071374893E0,-2.341624945E-1
3.169956800E0,-1.819399953E0,4.194987297E0,-3.119874895E-1
3.171946875E0,-1.961025000E0,4.312137604E0,-4.013625085E-1
3.173936800E0,-2.099487543E0,4.430387497E0,-4.888125062E-1
3.175926875E0,-2.217737436E0,4.510274887E0,-5.718625188E-1
3.177916800E0,-2.343412399E0,4.593325138E0,-6.719624996E-1
3.179906646E0,-2.463862419E0,4.659462452E0,-7.668374777E-1
3.181896721E0,-2.572487593E0,4.719137669E0,-8.520874977E-1
3.183886875E0,-2.671487570E0,4.756400108E0,-9.308750033E-1
3.185876800E0,-2.762099981E0,4.766987324E0,-9.979749918E-1
3.187866875E0,-2.833462477E0,4.773449898E0,-1.051187515E0
3.189856809E0,-2.893137455E0,4.786237240E0,-1.087487459E0
3.191846884E0,-2.945387602E0,4.780875206E0,-1.118287444E0
3.193836809E0,-2.971925020E0,4.759562492E0,-1.130112529E0
3.195826884E0,-2.977287531E0,4.736050129E0,-1.127912521E0
3.197816809E0,-2.971925020E0,4.691362381E0,-1.123649955E0
3.199806884E0,-2.953912497E0,4.628524780E0,-1.109762549E0
3.201796809E0,-2.916512489E0,4.552899837E0,-1.081025004E0
3.203786884E0,-2.866462469E0,4.479337692E0,-1.044862509E0
3.205776809E0,-2.806787491E0,4.385699749E0,-1.008562446E0
3.207766884E0,-2.741887569E0,4.290824890E0,-9.649749994E-1
3.209756809E0,-2.663100004E0,4.209837437E0,-9.234499931E-1
3.211746655E0,-2.578812599E0,4.135312557E0,-8.808249831E-1
3.213736817E0,-2.474449873E0,4.083062649E0,-8.254125118E-1
3.215726894E0,-2.377512455E0,4.045800209E0,-7.796249986E-1
3.217716819E0,-2.268887520E0,4.023387432E0,-7.156875134E-1
3.219706894E0,-2.157099962E0,4.011700153E0,-6.624749899E-1
3.221696819E0,-2.055900097E0,4.013899803E0,-6.230124831E-1
3.223686894E0,-1.959924936E0,4.042637348E0,-6.028000116E-1
3.225676819E0,-1.856662512E0,4.105474949E0,-5.889124870E-1
3.227666894E0,-1.769212484E0,4.159787655E0,-5.781875253E-1
3.229656819E0,-1.690425038E0,4.232250214E0,-5.739250183E-1
3.231646894E0,-1.614799976E0,4.319562435E0,-5.707625151E-1
3.233636819E0,-1.561587453E0,4.410174847E0,-5.665000081E-1
3.235626894E0,-1.509337544E0,4.491162300E0,-5.527499914E-1
3.237616828E0,-1.480599999E0,4.563487530E0,-5.431249738E-1
3.239606903E0,-1.459287524E0,4.608312607E0,-5.377625227E-1
3.241596828E0,-1.443337440E0,4.649837494E0,-5.451874733E-1
3.243586903E0,-1.446499944E0,4.670050144E0,-5.781875253E-1
3.245576828E0,-1.450762510E0,4.696724892E0,-6.091250181E-1
3.247566903E0,-1.461349964E0,4.662624836E0,-6.358000040E-1
3.249556823E0,-1.480599999E0,4.600887299E0,-6.687999964E-1
3.251546898E0,-1.494487524E0,4.607212543E0,-7.231125236E-1
3.253536823E0,-1.511537433E0,4.642412663E0,-7.881500125E-1
3.255526898E0,-1.530650020E0,4.696724892E0,-8.445249796E-1
3.257516823E0,-1.555124998E0,4.751037598E0,-8.797249794E-1
3.259506898E0,-1.579599977E0,4.806449890E0,-9.116249681E-1
3.261496838E0,-1.606274962E0,4.857600212E0,-9.499874711E-1
3.263486913E0,-1.632949948E0,4.916174889E0,-9.766625166E-1
3.265476838E0,-1.670212507E0,4.958799839E0,-1.009662509E0
3.267466913E0,-1.704312444E0,4.976812363E0,-1.024649978E0
3.269456838E0,-1.740474939E0,5.002387524E0,-1.041700006E0
3.271446913E0,-1.770312548E0,5.014212608E0,-1.058750033E0
3.273436823E0,-1.799049973E0,5.034424782E0,-1.072499990E0
3.275426898E0,-1.835350037E0,5.057799816E0,-1.086387515E0
3.277416823E0,-1.859825015E0,5.097262383E0,-1.096012473E0
3.279406898E0,-1.887462497E0,5.150475025E0,-1.096974969E0
3.281396823E0,-1.919499993E0,5.214412689E0,-1.098075032E0
3.283386898E0,-1.951400042E0,5.309287548E0,-1.089550018E0
3.285376833E0,-2.000487566E0,5.452974796E0,-1.075662494E0
3.287366908E0,-2.042012453E0,5.562699795E0,-1.059712529E0
3.289356833E0,-2.079274893E0,5.646850109E0,-1.046924949E0
3.291346908E0,-2.112274885E0,5.700200081E0,-1.022449970E0
3.293336833E0,-2.138949871E0,5.714087486E0,-9.829875231E-1
3.295326908E0,-2.157099962E0,5.685212612E0,-9.362375140E-1
3.297316848E0,-2.169749975E0,5.611787319E0,-8.914124966E-1
3.299306923E0,-2.178274870E0,5.527637482E0,-8.359999657E-1
3.301296848E0,-2.173049927E0,5.385874748E0,-7.902125120E-1
3.303286923E0,-2.157099962E0,5.203824997E0,-6.997374892E-1
3.305276848E0,-2.112274885E0,4.954537392E0,-5.473874807E-1
3.307266923E0,-2.028125048E0,4.650937557E0,-3.299999833E-1
3.309256848E0,-1.903550029E0,4.281199932E0,-7.218749821E-2
3.311246923E0,-1.743775010E0,3.948862553E0,2.058375031E-1
3.313236848E0,-1.607375026E0,3.787024975E0,4.433000088E-1
3.315226923E0,-1.507274985E0,3.859349966E0,6.201249957E-1
3.317216848E0,-1.427387476E0,4.062849998E0,7.149999738E-1
3.319206918E0,-1.369774938E0,4.293987274E0,7.500625253E-1
3.321196843E0,-1.325087547E0,4.482637405E0,7.543249726E-1
3.323186918E0,-1.297312498E0,4.619999886E0,7.511624694E-1
3.325176843E0,-1.282462478E0,4.698787689E0,7.448375225E-1
3.327166918E0,-1.281362534E0,4.729724884E0,7.331500053E-1
3.329156843E0,-1.280262470E0,4.743612289E0,7.118374705E-1
3.331146918E0,-1.283562541E0,4.709512711E0,6.627500057E-1
3.333136843E0,-1.288787484E0,4.622200012E0,5.967500210E-1
3.335126918E0,-1.297312498E0,4.477274895E0,5.168625116E-1
3.477605453E0,-4.248749837E-2,1.597750038E-1,4.890874922E-1
3.479595522E0,-4.881250113E-2,1.799875051E-1,4.901874959E-1
3.481585671E0,-6.379999965E-2,1.991000026E-1,4.838624895E-1
3.483575594E0,-7.658749819E-2,2.311374992E-1,4.848249853E-1
3.485565669E0,-8.511249721E-2,2.620750070E-1,4.870249927E-1
3.487555822E0,-9.679999948E-2,2.897124887E-1,4.816625118E-1
3.489545748E0,-1.084875017E-1,3.216125071E-1,4.753375053E-1
3.491535822E0,-1.170125008E-1,3.579125106E-1,4.753375053E-1
3.493525976E0,-1.277374923E-1,3.844499886E-1,4.774000049E-1
3.495515901E0,-1.405249983E-1,4.185499847E-1,4.720374942E-1
3.497505976E0,-1.490499973E-1,4.431625009E-1,4.688749909E-1
3.499495901E0,-1.639000028E-1,4.718999863E-1,4.720374942E-1
3.501486053E0,-1.735250056E-1,4.995374978E-1,4.710749984E-1
3.503476132E0,-1.755875051E-1,5.336375237E-1,4.710749984E-1
3.505466069E0,-1.863124967E-1,5.528874993E-1,4.657124877E-1
3.507456221E0,-1.916749924E-1,5.825874805E-1,4.763000011E-1
3.509446069E0,-1.968999952E-1,5.996375084E-1,4.753375053E-1
3.511436221E0,-1.991000026E-1,6.285125017E-1,4.742375016E-1
3.513426375E0,-1.991000026E-1,6.433625221E-1,4.763000011E-1
3.515416223E0,-2.054249942E-1,6.635749936E-1,4.753375053E-1
3.517406404E0,-1.991000026E-1,6.795250177E-1,4.785000086E-1
3.519396481E0,-2.011625022E-1,6.987749934E-1,4.796000123E-1
3.521386406E0,-1.959374994E-1,7.136250138E-1,4.816625118E-1
3.523376558E0,-1.894749999E-1,7.200874686E-1,4.827624857E-1
3.525366637E0,-1.841125041E-1,7.328749895E-1,4.890874922E-1
3.527356560E0,-1.766874939E-1,7.414000034E-1,4.912874997E-1
3.529346736E0,-1.627999991E-1,7.541875243E-1,4.966500103E-1
3.531336815E0,-1.479499936E-1,7.573499680E-1,5.040749907E-1
3.533326738E0,-1.372250021E-1,7.616124749E-1,5.126000047E-1
3.535316813E0,-1.203124970E-1,7.669749856E-1,5.179625154E-1
3.537306966E0,-1.084875017E-1,7.721999884E-1,5.222250223E-1
3.539296892E0,-9.253749996E-2,7.680749893E-1,5.359749794E-1
3.541286962E0,-7.342500240E-2,7.701374888E-1,5.424374938E-1
3.543277115E0,-5.733750015E-2,7.721999884E-1,5.552250147E-1
3.545267040E0,-3.932499886E-2,7.701374888E-1,5.669124722E-1
3.547257115E0,-2.433750033E-2,7.658749819E-1,5.774999857E-1
3.549247040E0,-3.024999984E-3,7.605124712E-1,5.924875140E-1
3.551237192E0,8.662499487E-3,7.499250174E-1,6.030749679E-1
3.553227256E0,2.461249940E-2,7.402999997E-1,6.191624999E-1
3.555217179E0,3.959999979E-2,7.254499793E-1,6.329125166E-1
3.557207254E0,5.018749833E-2,7.178875208E-1,6.553249955E-1
3.559197408E0,5.761250108E-2,6.998749971E-1,6.723750234E-1
3.561187333E0,7.150000334E-2,6.870874763E-1,6.979500055E-1
3.563177408E0,7.576250285E-2,6.774625182E-1,7.149999738E-1
3.565167562E0,8.635000139E-2,6.689375043E-1,7.416750193E-1
3.567157487E0,9.281250089E-2,6.572499871E-1,7.607874870E-1
3.569147562E0,1.024374962E-1,6.529874802E-1,7.841625214E-1
3.571137716E0,1.055999994E-1,6.444625258E-1,8.045125008E-1
3.573127641E0,1.098624989E-1,6.433625221E-1,8.258249760E-1
3.575117716E0,1.194875017E-1,6.465250254E-1,8.492000103E-1
3.577107856E0,1.258125007E-1,6.476249695E-1,8.747749925E-1
3.579097781E0,1.258125007E-1,6.561499834E-1,8.907250166E-1
3.581087856E0,1.343374997E-1,6.657750010E-1,9.088749886E-1
3.583077781E0,1.407999992E-1,6.806250215E-1,9.270250201E-1
3.585067933E0,1.428624988E-1,6.945124865E-1,9.429749846E-1
3.587058012E0,1.493249983E-1,7.115625143E-1,9.609875083E-1
3.589047920E0,1.567499936E-1,7.306749821E-1,9.770749807E-1
3.591038071E0,1.588124931E-1,7.425000072E-1,9.908249974E-1
3.593028150E0,1.652749926E-1,7.647749782E-1,1.010074973E0
3.595018073E0,1.652749926E-1,7.807250023E-1,1.023962498E0
3.597008148E0,1.727000028E-1,7.914500237E-1,1.037712455E0
3.598998073E0,1.727000028E-1,8.042374849E-1,1.056962490E0
3.600988230E0,1.780624986E-1,8.116624951E-1,1.066450000E0
3.602978309E0,1.769624949E-1,8.170250058E-1,1.081437469E0
3.604968232E0,1.769624949E-1,8.201875091E-1,1.097387552E0
3.606958384E0,1.832875013E-1,8.266500235E-1,1.114437461E0
3.608948463E0,1.823250055E-1,8.329749703E-1,1.126124978E0
3.610938386E0,1.832875013E-1,8.244500160E-1,1.136849999E0
3.612928538E0,1.812250018E-1,8.170250058E-1,1.148537517E0
3.614918617E0,1.790249944E-1,8.170250058E-1,1.155962467E0
3.616908540E0,1.823250055E-1,8.190875053E-1,1.164487481E0
3.618898692E0,1.780624986E-1,8.170250058E-1,1.178375006E0
3.620888771E0,1.812250018E-1,8.190875053E-1,1.188962460E0
3.622878694E0,1.843875051E-1,8.266500235E-1,1.192262530E0
3.624868850E0,1.865874976E-1,8.340749741E-1,1.198587537E0
3.626858698E0,1.843875051E-1,8.383374810E-1,1.205049992E0
3.628848850E0,1.832875013E-1,8.489249945E-1,1.211374998E0
3.630838927E0,1.843875051E-1,8.564875126E-1,1.214537501E0
3.632829081E0,1.790249944E-1,8.607500196E-1,1.215637445E0
3.634819006E0,1.832875013E-1,8.733999729E-1,1.215637445E0
3.636809091E0,1.865874976E-1,8.809624910E-1,1.212474942E0
3.638799016E0,1.843875051E-1,8.852249980E-1,1.211374998E0
3.640789168E0,1.832875013E-1,9.043374658E-1,1.209312439E0
3.642779246E0,1.843875051E-1,9.150624871E-1,1.206012487E0
3.644769170E0,1.886499971E-1,9.310125113E-1,1.203950047E0
3.646759321E0,1.908500046E-1,9.458624721E-1,1.195425034E0
3.648749405E0,1.918125004E-1,9.608500004E-1,1.190062523E0
3.650739328E0,1.897500008E-1,9.757000208E-1,1.179474950E0
3.652729480E0,1.908500046E-1,9.906874895E-1,1.176174998E0
3.654719559E0,1.951124966E-1,1.006637454E0,1.173012495E0
3.656709482E0,1.886499971E-1,1.017225027E0,1.162425041E0
3.658699634E0,1.865874976E-1,1.024787545E0,1.144274950E0
3.660689458E0,1.801249981E-1,1.017225027E0,1.125162482E0
3.662679610E0,1.832875013E-1,9.970124960E-1,1.092025042E0
3.664669687E0,1.832875013E-1,9.682750106E-1,1.057924986E0
3.666659612E0,1.843875051E-1,9.288125038E-1,1.005812526E0
3.668649764E0,1.918125004E-1,8.852249980E-1,9.407749772E-1
3.670639843E0,1.886499971E-1,8.414999843E-1,8.566250205E-1
3.672629995E0,1.908500046E-1,8.159250021E-1,7.693125010E-1
3.674619920E0,1.918125004E-1,7.935125232E-1,6.851624846E-1
3.676609995E0,1.960749924E-1,7.925499678E-1,6.041749716E-1
3.678599920E0,1.971749961E-1,7.829250097E-1,5.370749831E-1
3.680590072E0,1.940124929E-1,7.712374926E-1,4.805625081E-1
3.682580151E0,1.886499971E-1,7.434625030E-1,4.444000125E-1
3.684570059E0,1.812250018E-1,7.062000036E-1,4.082374871E-1
3.686560211E0,1.780624986E-1,7.041375041E-1,3.889875114E-1
3.688550289E0,1.769624949E-1,7.104625106E-1,3.741374910E-1
3.690540213E0,1.727000028E-1,7.126625180E-1,3.570874929E-1
3.692530287E0,1.663749963E-1,7.200874686E-1,3.452624977E-1
3.694520441E0,1.578499973E-1,7.189875245E-1,3.304125071E-1
3.696510366E0,1.513874978E-1,7.243499756E-1,3.187249899E-1
3.698500441E0,1.375000030E-1,7.169250250E-1,3.091000021E-1
3.700490595E0,1.269125044E-1,7.093625069E-1,3.059374988E-1
3.702480520E0,1.109625027E-1,6.976749897E-1,3.091000021E-1
3.704470595E0,9.597499669E-2,6.880499721E-1,3.113000095E-1
3.706460520E0,7.782500237E-2,6.743000150E-1,3.165250123E-1
3.708450663E0,5.555000156E-2,6.710000038E-1,3.283500075E-1
3.710440742E0,3.739999980E-2,6.635749936E-1,3.378374875E-1
3.712430894E0,1.828750037E-2,6.668750048E-1,3.528249860E-1
3.714420819E0,-5.224999972E-3,6.646749973E-1,3.613499999E-1
3.716410894E0,-2.433750033E-2,6.646749973E-1,3.698749840E-1
3.718400819E0,-4.138749838E-2,6.668750048E-1,3.804624975E-1
3.720390947E0,-6.063750014E-2,6.646749973E-1,3.878875077E-1
3.722381026E0,-7.975000143E-2,6.615124941E-1,3.975124955E-1
3.724370949E0,-9.253749996E-2,6.561499834E-1,4.113999903E-1
3.726361101E0,-1.021625027E-1,6.593124866E-1,4.241875112E-1
3.728351180E0,-1.084875017E-1,6.583499908E-1,4.369750023E-1
3.730341103E0,-1.181124970E-1,6.572499871E-1,4.486624897E-1
3.732331168E0,-1.127500013E-1,6.635749936E-1,4.646124840E-1
3.734321322E0,-1.106875017E-1,6.752625108E-1,4.805625081E-1
3.736311247E0,-1.053249985E-1,6.965749860E-1,4.976125062E-1
3.738301322E0,-9.473749995E-2,7.169250250E-1,5.200250149E-1
3.740291475E0,-8.621250093E-2,7.445625067E-1,5.339124799E-1
3.742281400E0,-7.548750192E-2,7.690374851E-1,5.561875105E-1
3.744271480E0,-6.063750014E-2,8.053374887E-1,5.732374787E-1
3.746261405E0,-5.637500063E-2,8.468624949E-1,5.978500247E-1
3.748251557E0,-4.784999788E-2,8.894875050E-1,6.201249957E-1
3.750241636E0,-3.602499887E-2,9.310125113E-1,6.478999853E-1
3.752231788E0,-3.602499887E-2,9.651125073E-1,6.723750234E-1
3.754221713E0,-2.543750033E-2,9.992125034E-1,7.000125051E-1
3.756211788E0,-1.911249943E-2,1.031112552E0,7.320500016E-1
3.758201713E0,-1.058750041E-2,1.057787538E0,7.607874870E-1
3.760191865E0,-9.624999948E-4,1.090787530E0,7.969499826E-1
3.762181944E0,5.499999970E-3,1.114162445E0,8.267874718E-1
3.764171867E0,1.718750037E-2,1.137675047E0,8.640499711E-1
3.766162019E0,2.681249939E-2,1.154724956E0,8.949875236E-1
3.768152102E0,3.849999979E-2,1.165312529E0,9.259250164E-1
3.770142025E0,4.812499881E-2,1.169574976E0,9.557625055E-1
3.772132177E0,6.407500058E-2,1.171774983E0,9.887624979E-1
3.774122256E0,8.208750188E-2,1.164350033E0,1.018599987E0
3.776112179E0,1.002374962E-1,1.154724956E0,1.041975021E0
3.778102331E0,1.269125044E-1,1.139737487E0,1.068650007E0
3.780092435E0,1.513874978E-1,1.126950026E0,1.089962482E0
3.782082358E0,1.747625023E-1,1.112100005E0,1.107012510E0
3.784072509E0,1.940124929E-1,1.096150041E0,1.117599964E0
3.786062588E0,2.131250054E-1,1.079100013E0,1.127225041E0
3.788052511E0,2.312749922E-1,1.055587530E0,1.134649992E0
3.790042590E0,2.568500042E-1,1.027950048E0,1.143175006E0
3.792032744E0,2.739000022E-1,9.949499965E-1,1.145375013E0
3.794022669E0,2.898499966E-1,9.671750069E-1,1.158162475E0
3.796012821E0,3.068999946E-1,9.321125150E-1,1.163387537E0
3.798002669E0,3.218874931E-1,9.011750221E-1,1.164487481E0
3.799992821E0,3.398999870E-1,8.733999729E-1,1.160225034E0
3.801982873E0,3.526875079E-1,8.500249982E-1,1.152799964E0
3.803972798E0,3.654749990E-1,8.340749741E-1,1.133687496E0
3.805962950E0,3.771624863E-1,8.201875091E-1,1.115537524E0
3.807953029E0,3.856875002E-1,8.105624914E-1,1.091062546E0
3.809942952E0,3.899500072E-1,7.957124710E-1,1.056962490E0
3.811933104E0,3.889875114E-1,7.829250097E-1,1.017500043E0
3.813923183E0,3.856875002E-1,7.638124824E-1,9.728124738E-1
3.815913106E0,3.836250007E-1,7.467625141E-1,9.290875196E-1
3.817903258E0,3.804624975E-1,7.200874686E-1,8.705124855E-1
3.819893337E0,3.602499962E-1,6.774625182E-1,7.991499901E-1
3.821883260E0,3.612124920E-1,6.487249732E-1,7.309499979E-1
3.823873412E0,3.559874892E-1,6.039000154E-1,6.712750196E-1
3.825863491E0,3.474625051E-1,5.645750165E-1,6.223250031E-1
3.827853414E0,3.313750029E-1,5.123249888E-1,5.732374787E-1
3.829843489E0,3.261500001E-1,4.761624932E-1,5.435374975E-1
3.831833642E0,3.154250085E-1,4.569124877E-1,5.222250223E-1
3.833823568E0,3.037374914E-1,4.463250041E-1,5.103999972E-1
3.835813719E0,2.920500040E-1,4.441249967E-1,5.061374903E-1
3.837803793E0,2.770625055E-1,4.463250041E-1,5.040749907E-1
3.839793716E0,2.590500116E-1,4.537499845E-1,4.998124838E-1
3.841783791E0,2.323749959E-1,4.686000049E-1,5.009124875E-1
3.843773945E0,2.184875011E-1,4.899125099E-1,5.179625154E-1
3.845763870E0,1.918125004E-1,5.123249888E-1,5.328124762E-1
3.847753945E0,1.545500010E-1,5.304750204E-1,5.424374938E-1
3.849744128E0,1.226499975E-1,5.432624817E-1,5.530250072E-1
3.851734053E0,8.855000138E-2,5.677375197E-1,5.615500212E-1
3.853724128E0,5.761250108E-2,5.890499949E-1,5.700749755E-1
3.855714282E0,2.777500078E-2,6.114624739E-1,5.839625001E-1
3.857704207E0,-6.324999966E-3,6.274124980E-1,5.935875177E-1
3.859694282E0,-4.028749838E-2,6.476249695E-1,6.106374860E-1
3.861684193E0,-7.232499868E-2,6.583499908E-1,6.297500134E-1
3.863674345E0,-1.053249985E-1,6.710000038E-1,6.521624923E-1
3.865664424E0,-1.340624988E-1,6.732000113E-1,6.701750159E-1
3.867654347E0,-1.670625061E-1,6.710000038E-1,6.862624884E-1
3.869644499E0,-1.926375031E-1,6.615124941E-1,6.990500093E-1
3.871634578E0,-2.215124965E-1,6.359375119E-1,7.107374668E-1
3.873624510E0,-2.406249940E-1,6.039000154E-1,7.255874872E-1
3.875614662E0,-2.587749958E-1,5.773624778E-1,7.405750155E-1
3.877604740E0,-2.639999986E-1,5.443624854E-1,7.576249838E-1
3.879594664E0,-2.778874934E-1,5.091624856E-1,7.735750079E-1
3.881584738E0,-2.758249938E-1,4.644750059E-1,7.980499864E-1
3.883574892E0,-2.704625130E-1,4.057624936E-1,8.247249722E-1
3.885564812E0,-2.619374990E-1,3.386625051E-1,8.523625135E-1
3.887554887E0,-2.426874936E-1,2.843500078E-1,8.833000064E-1
3.889545041E0,-2.257750034E-1,2.246749997E-1,9.151999950E-1
3.891534966E0,-1.959374994E-1,1.649999917E-1,9.450374842E-1
3.893525041E0,-1.681624949E-1,1.054624990E-1,9.759749770E-1
3.895515195E0,-1.372250021E-1,4.358749837E-2,1.007874966E0
3.897505116E0,-1.053249985E-1,-2.034999989E-2,1.029187441E0
3.899495191E0,-6.489999592E-2,-8.524999768E-2,1.061224937E0
3.901485345E0,-3.932499886E-2,-2.120250016E-1,1.065487504E0
3.903475270E0,9.762499481E-3,-2.930124998E-1,1.054762483E0
3.905465345E0,6.517499685E-2,-3.536500037E-1,1.065487504E0
3.907455270E0,1.183874980E-1,-4.027374983E-1,1.092025042E0
3.909445446E0,1.599124968E-1,-4.591124952E-1,1.120900035E0
3.911435525E0,2.067999989E-1,-4.985750020E-1,1.160225034E0
3.913425448E0,2.472250015E-1,-5.306124687E-1,1.198587537E0
3.915415600E0,2.877874970E-1,-5.422999859E-1,1.231587529E0
3.917405679E0,3.196874857E-1,-5.326749682E-1,1.250837445E0
3.919395602E0,3.506250083E-1,-5.092999935E-1,1.269950032E0
3.921385763E0,3.793624938E-1,-4.676375091E-1,1.281637549E0
3.923375841E0,4.006749988E-1,-4.208875000E-1,1.283837438E0
3.925365765E0,4.145624936E-1,-3.664374948E-1,1.282737494E0
3.927355916E0,4.283125103E-1,-3.026374876E-1,1.275312543E0
3.929345995E0,4.347749949E-1,-2.375999987E-1,1.272150040E0
3.931335918E0,4.347749949E-1,-1.683000028E-1,1.275312543E0
3.933326061E0,4.294124842E-1,-1.033999994E-1,1.288100004E0
3.935316140E0,4.208875000E-1,-4.578749835E-2,1.295524955E0
3.937306063E0,4.102999866E-1,5.224999972E-3,1.315737486E0
3.939296215E0,3.964124918E-1,6.173750013E-2,1.334987521E0
3.941286294E0,3.793624938E-1,9.790000319E-2,1.354099989E0
3.943276217E0,3.559874892E-1,1.342000067E-1,1.370049953E0
3.945266359E0,3.367374837E-1,1.671999991E-1,1.385037541E0
3.947256438E0,3.165250123E-1,1.916749924E-1,1.392462492E0
3.949246361E0,2.813250124E-1,1.660999954E-1,1.372249961E0
3.951236436E0,2.792625129E-1,1.575749964E-1,1.356299996E0
3.953226590E0,2.770625055E-1,1.683000028E-1,1.350937486E0
3.955216515E0,2.802250087E-1,1.777874976E-1,1.360562444E0
3.957206600E0,2.802250087E-1,1.916749924E-1,1.378574967E0
3.959196754E0,2.855874896E-1,2.109249979E-1,1.395624995E0
3.961186679E0,2.835249901E-1,2.502500117E-1,1.405249953E0
3.963176754E0,2.866874933E-1,2.886124849E-1,1.415974975E0
3.965166908E0,2.781625092E-1,3.206500113E-1,1.397825003E0
3.967156833E0,2.792625129E-1,3.673999906E-1,1.369087458E0
3.969146879E0,2.781625092E-1,4.207499921E-1,1.338150024E0
3.971137032E0,2.781625092E-1,4.718999863E-1,1.296625018E0
3.973126957E0,2.835249901E-1,5.230500102E-1,1.256062508E0
3.975117032E0,2.770625055E-1,5.581125021E-1,1.217837453E0
3.977107186E0,2.759625018E-1,5.986750126E-1,1.181537509E0
3.979097111E0,2.675749958E-1,6.177874804E-1,1.143175006E0
3.981087181E0,2.579500079E-1,6.380000114E-1,1.108112454E0
3.983077335E0,2.483250052E-1,6.413000226E-1,1.077175021E0
3.985067260E0,2.440624982E-1,6.507874727E-1,1.053662539E0
3.987057335E0,2.323749959E-1,6.487249732E-1,1.023962498E0
3.989047260E0,2.259124964E-1,6.455624700E-1,9.919250011E-1
3.991037412E0,2.292124927E-1,6.561499834E-1,9.642875195E-1
3.993027500E0,2.301750034E-1,6.561499834E-1,9.344499707E-1
3.995017423E0,2.323749959E-1,6.646749973E-1,9.088749886E-1
3.997007575E0,2.355374992E-1,6.635749936E-1,8.768374920E-1
3.998997654E0,2.451625019E-1,6.700375080E-1,8.481000066E-1
4.000987577E0,2.440624982E-1,6.837875247E-1,8.173000216E-1
4.002977729E0,2.525874972E-1,7.050999999E-1,7.832000256E-1
4.004967789E0,2.611125112E-1,7.243499756E-1,7.533624768E-1
4.006957712E0,2.633124888E-1,7.456625104E-1,7.203624845E-1
4.008947864E0,2.622124851E-1,7.627124786E-1,6.936874986E-1
4.010937943E0,2.685374916E-1,7.860875130E-1,6.692125201E-1
4.012927866E0,2.642749846E-1,8.010749817E-1,6.488624811E-1
4.014918017E0,2.568500042E-1,8.255500197E-1,6.329125166E-1
4.016908086E0,2.440624982E-1,8.436999917E-1,6.137999892E-1
4.018898009E0,2.312749922E-1,8.617125154E-1,6.021124721E-1
4.020888161E0,2.099625021E-1,8.819249868E-1,5.956500173E-1
4.022878240E0,1.918125004E-1,9.117624760E-1,5.924875140E-1
4.024868163E0,1.704999954E-1,9.406374693E-1,5.882250071E-1
4.026858315E0,1.385999918E-1,9.704750180E-1,5.850625038E-1
4.028848404E0,1.194875017E-1,1.001274943E0,5.924875140E-1
4.030838327E0,8.318749815E-2,1.025750041E0,5.924875140E-1
4.032828402E0,5.981250107E-2,1.060950041E0,5.999125242E-1
4.034818556E0,3.313750029E-2,1.093950033E0,6.084374785E-1
4.036808710E0,2.199999988E-3,1.125987530E0,6.212249994E-1
4.038798558E0,-2.337500080E-2,1.163249969E0,6.329125166E-1
4.040788705E0,-5.527500063E-2,1.190887451E0,6.414374709E-1
4.042778630E0,-8.401250094E-2,1.218662500E0,6.564249992E-1
4.044768705E0,-1.160499975E-1,1.243137479E0,6.649500132E-1
4.046758859E0,-1.490499973E-1,1.269812465E0,6.777374744E-1
4.048748784E0,-1.820500046E-1,1.298550010E0,6.829624772E-1
4.050738859E0,-2.193125039E-1,1.328387499E0,6.872249842E-1
4.052729032E0,-2.565749884E-1,1.365649939E0,6.883249879E-1
4.054718957E0,-2.949374914E-1,1.407174945E0,6.947875023E-1
4.056709032E0,-3.343999982E-1,1.448699951E0,6.979500055E-1
4.058699185E0,-3.759250045E-1,1.485962510E0,6.957499981E-1
4.060689111E0,-4.111250043E-1,1.526525021E0,6.947875023E-1
4.062679262E0,-4.408249855E-1,1.568050027E0,6.936874986E-1
4.064669327E0,-4.728625119E-1,1.610674977E0,6.894249916E-1
4.066659250E0,-4.973374903E-1,1.651100039E0,6.851624846E-1
4.068649325E0,-5.260750055E-1,1.674612522E0,6.712750196E-1
4.070639250E0,-5.378999710E-1,1.722462535E0,6.478999853E-1
4.072629402E0,-5.442249775E-1,1.776775002E0,6.265875101E-1
4.074619481E0,-5.484874845E-1,1.825862527E0,6.073374748E-1
4.076609605E0,-5.538499951E-1,1.855700016E0,5.711749792E-1
4.078599530E0,-5.399624705E-1,1.915237546E0,5.455999970E-1
4.080589605E0,-5.240125060E-1,1.977112532E0,5.328124762E-1
4.082579759E0,-5.005000234E-1,2.036787510E0,5.253875256E-1
4.084569684E0,-4.782249928E-1,2.100587606E0,5.253875256E-1
4.086559759E0,-4.493499994E-1,2.165625095E0,5.296499729E-1
4.088549927E0,-4.217124879E-1,2.224200010E0,5.264874697E-1
4.090539852E0,-3.898124993E-1,2.281812429E0,5.231875181E-1
4.092529927E0,-3.546124995E-1,2.338187456E0,5.146625042E-1
4.094520081E0,-3.184500039E-1,2.380812407E0,4.966500103E-1
4.096510006E0,-2.821500003E-1,2.425499916E0,4.859249890E-1
4.098500081E0,-2.502500117E-1,2.450112581E0,4.646124840E-1
4.100490233E0,-2.182125002E-1,2.473487377E0,4.347749949E-1
4.102480159E0,-1.905750036E-1,2.485174894E0,3.889875114E-1
4.104470233E0,-1.703625023E-1,2.479949951E0,3.357749879E-1
4.106460387E0,-1.511124969E-1,2.490537405E0,2.942500114E-1
4.108450312E0,-1.319999993E-1,2.497962475E0,2.579500079E-1
4.110440387E0,-1.245749965E-1,2.505387545E0,2.323749959E-1
4.112430312E0,-1.266375035E-1,2.509649992E0,2.153249979E-1
4.114420464E0,-1.340624988E-1,2.489437580E0,2.186249942E-1
4.116410618E0,-1.511124969E-1,2.478849888E0,2.292124927E-1
4.118400466E0,-1.766874939E-1,2.483112574E0,2.419999987E-1
4.120390618E0,-2.096875012E-1,2.487375021E0,2.568500042E-1
4.122380710E0,-2.545124888E-1,2.493700027E0,2.750000060E-1
4.124370635E0,-2.960374951E-1,2.489437580E0,2.994749844E-1
4.126360787E0,-3.429250121E-1,2.492737532E0,3.187249899E-1
4.128350866E0,-3.907749951E-1,2.510750055E0,3.315125108E-1
4.130340789E0,-4.472874999E-1,2.540587425E0,3.431999981E-1
4.132330941E0,-5.037999749E-1,2.577850103E0,3.528249860E-1
4.134321029E0,-5.623750091E-1,2.617312431E0,3.623124957E-1
4.136311181E0,-6.209499836E-1,2.642887592E0,3.676750064E-1
4.138301106E0,-6.858500242E-1,2.661037445E0,3.665750027E-1
4.140291181E0,-7.519875169E-1,2.681250095E0,3.548874855E-1
4.142281334E0,-8.222500086E-1,2.697200060E0,3.400374949E-1
4.144271260E0,-8.978750110E-1,2.715349913E0,3.229874969E-1
4.146261325E0,-9.649749994E-1,2.729099989E0,3.037374914E-1
4.148251479E0,-1.043900013E0,2.730200052E0,2.814624906E-1
4.150241327E0,-1.125849962E0,2.720575094E0,2.601499856E-1
4.152231479E0,-1.207937479E0,2.692937374E0,2.431000024E-1
4.154221404E0,-1.286725044E0,2.666262388E0,2.314125001E-1
4.156211556E0,-1.377200007E0,2.638624907E0,2.164250016E-1
4.158201635E0,-1.452962518E0,2.616212368E0,2.058375031E-1
4.160191558E0,-1.526387453E0,2.606587410E0,1.973125041E-1
4.162181710E0,-1.598850012E0,2.602324963E0,1.897500008E-1
4.164171789E0,-1.663749933E0,2.606587410E0,1.769624949E-1
4.166161712E0,-1.714900017E0,2.627899885E0,1.748999953E-1
4.168151864E0,-1.754362464E0,2.646049976E0,1.695374995E-1
4.170141938E0,-1.786262512E0,2.669562578E0,1.717374921E-1
4.172131861E0,-1.810874939E0,2.691837549E0,1.748999953E-1
4.174122013E0,-1.817199945E0,2.728137493E0,1.812250018E-1
4.176112092E0,-1.816100001E0,2.767462492E0,1.887875050E-1
4.178102015E0,-1.821462512E0,2.835662603E0,2.015749961E-1
4.180092167E0,-1.817199945E0,2.892174959E0,2.175250053E-1
4.182082252E0,-1.799049973E0,2.933700085E0,2.408999950E-1
4.184072175E0,-1.781037450E0,2.964637518E0,2.525874972E-1
4.186062327E0,-1.754362464E0,2.996537447E0,2.653749883E-1
4.188052406E0,-1.717100024E0,3.044524908E0,2.888875008E-1
4.190042329E0,-1.676537514E0,3.088112593E0,3.005749881E-1
4.192032404E0,-1.634050012E0,3.130737543E0,3.187249899E-1
4.194022576E0,-1.581799984E0,3.170199871E0,3.400374949E-1
4.196012501E0,-1.526387453E0,3.190412521E0,3.580499887E-1
4.198002653E0,-1.467812538E0,3.205262423E0,3.783999979E-1
4.199992732E0,-1.411299944E0,3.200037479E0,4.006749988E-1
4.201982655E0,-1.347499967E0,3.195775032E0,4.167625010E-1
4.203972807E0,-1.283562541E0,3.186150074E0,4.380750060E-1
