"Time (s)","Gyroscope x (rad/s)","Gyroscope y (rad/s)","Gyroscope z (rad/s)"
6.954855000E-2,7.816147059E-2,1.813559234E-1,-1.764292270E-1
7.203886200E-2,9.200949967E-2,1.728340536E-1,-1.615159512E-1
7.452922700E-2,1.239664927E-1,1.536598653E-1,-1.242327988E-1
7.701953900E-2,1.505973190E-1,1.376813650E-1,-7.949301600E-2
7.950985200E-2,1.719019860E-1,1.312899739E-1,-3.901416063E-2
8.200021600E-2,1.814890802E-1,1.302247345E-1,-9.187635034E-3
8.449052900E-2,1.814890802E-1,1.334204376E-1,1.850842312E-2
8.698084100E-2,1.719019860E-1,1.376813650E-1,4.194355011E-2
8.947120600E-2,1.559234858E-1,1.430075318E-1,6.005251035E-2
9.161323700E-2,1.292926520E-1,1.472684592E-1,6.750914454E-2
9.410360200E-2,1.015966013E-1,1.557903290E-1,6.963960826E-2
9.659396600E-2,6.857437640E-2,1.632469594E-1,6.644391268E-2
9.908427900E-2,3.555215150E-2,1.728340536E-1,5.366111174E-2
1.015745910E-1,-1.731003635E-3,1.877473146E-1,4.087831825E-2
1.040649560E-1,-3.581846133E-2,2.015953511E-1,2.596505545E-2
1.065552680E-1,-6.884068251E-2,2.218347788E-1,4.660394508E-3
1.090456330E-1,-9.653674066E-2,2.484655976E-1,-1.770949923E-2
1.115358930E-1,-1.178414002E-1,2.761616707E-1,-3.901416063E-2
1.140262580E-1,-1.391460598E-1,3.070534170E-1,-5.925358832E-2
1.165166220E-1,-1.551245600E-1,3.379451632E-1,-7.523208112E-2
1.190069350E-1,-1.625811905E-1,3.709673882E-1,-9.653674066E-2
1.214020390E-1,-1.721682847E-1,4.050548673E-1,-1.114500016E-1
1.238923000E-1,-1.785596907E-1,4.348813891E-1,-1.242327988E-1
1.263826640E-1,-1.860163212E-1,4.689688385E-1,-1.359503716E-1
1.288729770E-1,-1.924077123E-1,5.019910336E-1,-1.434070021E-1
1.313632890E-1,-1.987991184E-1,5.286219120E-1,-1.497983932E-1
1.338536540E-1,-2.030600458E-1,5.531222224E-1,-1.583202630E-1
1.363439660E-1,-2.041252851E-1,5.744268894E-1,-1.657768935E-1
1.388342790E-1,-2.051905096E-1,5.936011076E-1,-1.700378209E-1
1.413246430E-1,-2.094514370E-1,6.063839197E-1,-1.774944514E-1
1.438149560E-1,-2.105166763E-1,6.159709692E-1,-1.838858575E-1
1.463053200E-1,-2.062557489E-1,6.244928837E-1,-1.902772486E-1
1.487956330E-1,-2.041252851E-1,6.372756362E-1,-1.945381761E-1
1.512859970E-1,-2.030600458E-1,6.500584483E-1,-2.019948065E-1
1.535351640E-1,-2.030600458E-1,6.617760062E-1,-2.115819156E-1
1.560254250E-1,-2.041252851E-1,6.692326665E-1,-2.190385461E-1
1.585157890E-1,-2.073209733E-1,6.756240726E-1,-2.222342342E-1
1.610061020E-1,-2.073209733E-1,6.798849702E-1,-2.254299372E-1
1.634964140E-1,-2.083862126E-1,6.788197160E-1,-2.296908647E-1
1.659867790E-1,-2.115819156E-1,6.788197160E-1,-2.318213433E-1
1.684770910E-1,-2.115819156E-1,6.809502244E-1,-2.350170314E-1
1.709674040E-1,-2.083862126E-1,6.852111220E-1,-2.318213433E-1
1.734577680E-1,-2.105166763E-1,6.884068251E-1,-2.296908647E-1
1.759480810E-1,-2.105166763E-1,6.937330365E-1,-2.275604010E-1
1.784384450E-1,-2.094514370E-1,7.022548914E-1,-2.222342342E-1
1.809287580E-1,-2.083862126E-1,7.065157890E-1,-2.169080675E-1
1.834190700E-1,-2.073209733E-1,7.129071951E-1,-2.094514370E-1
1.856312580E-1,-2.062557489E-1,7.171681523E-1,-2.083862126E-1
1.881215180E-1,-2.019948065E-1,7.256900072E-1,-2.019948065E-1
1.906118310E-1,-2.041252851E-1,7.310161591E-1,-1.966686398E-1
1.931021950E-1,-2.041252851E-1,7.320814133E-1,-1.966686398E-1
1.955925080E-1,-2.030600458E-1,7.320814133E-1,-1.977338791E-1
1.980828720E-1,-2.083862126E-1,7.267552018E-1,-1.987991184E-1
2.005731850E-1,-2.126471400E-1,7.182333469E-1,-2.041252851E-1
2.030634970E-1,-2.211690098E-1,7.022548914E-1,-2.105166763E-1
2.055538620E-1,-2.275604010E-1,6.798849702E-1,-2.147776037E-1
2.080441750E-1,-2.318213433E-1,6.521888971E-1,-2.169080675E-1
2.105345390E-1,-2.392779738E-1,6.212971807E-1,-2.232994735E-1
2.130248520E-1,-2.456693649E-1,5.882749557E-1,-2.275604010E-1
2.155151640E-1,-2.499302924E-1,5.520570278E-1,-2.243647128E-1
2.177949560E-1,-2.499302924E-1,5.179695487E-1,-2.211690098E-1
2.202852160E-1,-2.499302924E-1,4.849473238E-1,-2.211690098E-1
2.227755290E-1,-2.467346042E-1,4.540555775E-1,-2.169080675E-1
2.252658930E-1,-2.360822707E-1,4.316856861E-1,-2.126471400E-1
2.277562060E-1,-2.201037705E-1,4.114462435E-1,-2.115819156E-1
2.302465700E-1,-1.977338791E-1,3.944025338E-1,-2.126471400E-1
2.327368830E-1,-1.742987484E-1,3.848154247E-1,-2.137123793E-1
2.352271950E-1,-1.487331539E-1,3.837502003E-1,-2.137123793E-1
2.377175600E-1,-1.231675670E-1,3.858806491E-1,-2.126471400E-1
2.402078720E-1,-9.760197252E-2,3.922720551E-1,-2.137123793E-1
2.426982370E-1,-7.416684926E-2,4.061200917E-1,-2.126471400E-1
2.451885500E-1,-5.286218971E-2,4.220985770E-1,-2.083862126E-1
2.476788620E-1,-3.475322574E-2,4.391423166E-1,-2.041252851E-1
2.499278720E-1,-2.197043039E-2,4.583165050E-1,-2.009295821E-1
2.524181330E-1,-1.025286783E-2,4.796211720E-1,-1.924077123E-1
2.549084970E-1,3.994623839E-4,5.009258389E-1,-1.881467849E-1
2.573988100E-1,7.856093347E-3,5.211652517E-1,-1.828206182E-1
2.598891220E-1,1.318225823E-2,5.392742157E-1,-1.828206182E-1
2.623794870E-1,2.170412242E-2,5.552527308E-1,-1.817553788E-1
2.648698000E-1,2.489982173E-2,5.691007376E-1,-1.817553788E-1
2.673601120E-1,2.809552103E-2,5.840139985E-1,-1.838858575E-1
2.698504770E-1,2.703028731E-2,5.946663618E-1,-1.913424879E-1
2.723407890E-1,2.809552103E-2,6.021229625E-1,-1.956034154E-1
2.748311540E-1,2.916075476E-2,6.085143685E-1,-2.062557489E-1
2.773214660E-1,2.703028731E-2,6.095796227E-1,-2.190385461E-1
2.798117790E-1,3.022598661E-2,6.106448174E-1,-2.286256403E-1
2.820525080E-1,3.129122034E-2,6.149057746E-1,-2.414084375E-1
2.845427680E-1,3.448691964E-2,6.138405204E-1,-2.531259954E-1
2.870331330E-1,3.661738336E-2,6.095796227E-1,-2.616478503E-1
2.895234450E-1,3.874785081E-2,5.978620052E-1,-2.701697350E-1
2.920137580E-1,4.407401755E-2,5.904054046E-1,-2.744306624E-1
2.945041220E-1,4.620448127E-2,5.829487443E-1,-2.765611112E-1
2.969944350E-1,5.153064802E-2,5.797531009E-1,-2.744306624E-1
2.994847470E-1,5.792204663E-2,5.786878467E-1,-2.659088075E-1
3.019751120E-1,6.431344151E-2,5.776225924E-1,-2.552564740E-1
3.044654250E-1,6.963960826E-2,5.840139985E-1,-2.435389012E-1
3.069557890E-1,7.496577501E-2,5.967968106E-1,-2.254299372E-1
3.094461020E-1,8.348763734E-2,6.170362234E-1,-2.094514370E-1
3.119364140E-1,9.200949967E-2,6.404713392E-1,-1.902772486E-1
3.141789660E-1,1.015966013E-1,6.734935641E-1,-1.679073572E-1
3.166692270E-1,1.058575287E-1,7.129071951E-1,-1.476679295E-1
3.191595910E-1,1.079879999E-1,7.555165291E-1,-1.284937263E-1
3.216499040E-1,1.037270650E-1,7.991910577E-1,-1.082543060E-1
3.241402160E-1,9.307473898E-2,8.492570519E-1,-8.588441461E-2
3.266305810E-1,8.348763734E-2,9.025186896E-1,-6.884068251E-2
3.291208930E-1,7.070484012E-2,9.547150731E-1,-5.499265343E-2
3.316112060E-1,5.792204663E-2,1.001585364E0,-4.327509180E-2
3.341015700E-1,4.087831825E-2,1.039933681E0,-3.581846133E-2
3.365918830E-1,2.383458801E-2,1.075086474E0,-3.581846133E-2
3.390822470E-1,7.856093347E-3,1.109173894E0,-4.007939249E-2
3.415725600E-1,-3.861469682E-3,1.140065670E0,-4.327509180E-2
3.440628720E-1,-1.025286783E-2,1.166696429E0,-5.392742157E-2
3.463075600E-1,-1.557903271E-2,1.192262053E0,-6.884068251E-2
3.487978200E-1,-2.197043039E-2,1.211436272E0,-8.162347972E-2
3.512881330E-1,-2.729659714E-2,1.221023321E0,-9.760197252E-2
3.537784970E-1,-2.623136342E-2,1.225284338E0,-1.178414002E-1
3.562688100E-1,-2.303566411E-2,1.224219084E0,-1.359503716E-1
3.587591750E-1,-1.983996481E-2,1.216762424E0,-1.497983932E-1
3.612494870E-1,-1.770949923E-2,1.201849103E0,-1.647116542E-1
3.637398000E-1,-1.131810062E-2,1.178413987E0,-1.796249151E-1
3.662301640E-1,-8.122402243E-3,1.150717974E0,-1.945381761E-1
3.687204770E-1,-3.861469682E-3,1.119826198E0,-2.041252851E-1
3.712108410E-1,3.595161485E-3,1.086804032E0,-2.137123793E-1
3.737011540E-1,1.105179265E-2,1.053781748E0,-2.190385461E-1
3.761914660E-1,1.318225823E-2,1.023955226E0,-2.232994735E-1
3.784380810E-1,1.424749196E-2,9.962592125E-1,-2.201037705E-1
3.809283410E-1,1.744319126E-2,9.738892913E-1,-2.179733068E-1
3.834187060E-1,1.744319126E-2,9.547150731E-1,-2.243647128E-1
3.859090180E-1,1.850842312E-2,9.398018122E-1,-2.307561040E-1
3.883993310E-1,1.211702544E-2,9.312799573E-1,-2.360822707E-1
3.908896950E-1,1.464695437E-3,9.291495085E-1,-2.392779738E-1
3.933800080E-1,-1.131810062E-2,9.323452115E-1,-2.414084375E-1
3.958703200E-1,-2.303566411E-2,9.419323206E-1,-2.339518070E-1
3.983606850E-1,-3.901416063E-2,9.579107761E-1,-2.222342342E-1
4.008509970E-1,-5.712312087E-2,9.856068492E-1,-2.094514370E-1
4.033413620E-1,-7.416684926E-2,1.019694328E0,-1.977338791E-1
4.058316750E-1,-9.760197252E-2,1.049520850E0,-1.881467849E-1
4.083219870E-1,-1.284937263E-1,1.085738778E0,-1.796249151E-1
4.104344350E-1,-1.615159512E-1,1.118760943E0,-1.689725816E-1
4.129246950E-1,-1.966686398E-1,1.148587465E0,-1.689725816E-1
4.154150600E-1,-2.318213433E-1,1.170957446E0,-1.764292270E-1
4.179053720E-1,-2.627131045E-1,1.186935902E0,-1.902772486E-1
4.203957370E-1,-2.914743721E-1,1.185870647E0,-2.105166763E-1
4.228860500E-1,-3.106485903E-1,1.175218344E0,-2.371474952E-1
4.253763620E-1,-3.298227787E-1,1.153913617E0,-2.680392563E-1
4.278667270E-1,-3.415403366E-1,1.114500046E0,-3.074528873E-1
4.303570390E-1,-3.479317427E-1,1.066564560E0,-3.511274457E-1
4.328473520E-1,-3.500621915E-1,1.016498566E0,-3.852148950E-1
4.353377160E-1,-3.479317427E-1,9.600412846E-1,-4.193023443E-1
4.378280290E-1,-3.415403366E-1,9.046491385E-1,-4.587159753E-1
4.403183930E-1,-3.415403366E-1,8.513875008E-1,-4.938686490E-1
4.426943310E-1,-3.330184817E-1,7.991910577E-1,-5.236951709E-1
4.451845910E-1,-3.223661482E-1,7.480598688E-1,-5.428693891E-1
4.476749560E-1,-3.181052208E-1,6.905373335E-1,-5.545869470E-1
4.501652680E-1,-3.053224087E-1,6.362104416E-1,-5.513912439E-1
4.526555810E-1,-2.978657782E-1,5.733616948E-1,-5.439345837E-1
4.551459450E-1,-2.978657782E-1,5.105129480E-1,-5.386084318E-1
4.576362580E-1,-2.957353294E-1,4.540555775E-1,-5.279561281E-1
4.601265700E-1,-2.946700752E-1,4.135767221E-1,-5.119776130E-1
4.626169350E-1,-2.904091477E-1,3.880111277E-1,-5.023905039E-1
4.651072470E-1,-2.925396264E-1,3.784240186E-1,-5.109124184E-1
4.675976120E-1,-2.968005538E-1,3.975982368E-1,-5.162385702E-1
4.700879250E-1,-3.010614812E-1,4.370118380E-1,-5.173037648E-1
4.725782370E-1,-3.063876629E-1,4.710993171E-1,-5.173037648E-1
4.748071430E-1,-3.202356696E-1,5.051867366E-1,-5.236951709E-1
4.772974040E-1,-3.362141848E-1,5.200999975E-1,-5.364779830E-1
4.797877160E-1,-3.564535975E-1,5.169043541E-1,-5.503259897E-1
4.822780810E-1,-3.756277859E-1,5.179695487E-1,-5.652392507E-1
4.847683930E-1,-3.958672285E-1,5.190348029E-1,-5.833482146E-1
4.872587580E-1,-4.171718955E-1,5.179695487E-1,-6.014571786E-1
4.897490700E-1,-4.384765327E-1,5.115781426E-1,-6.195661426E-1
4.922393830E-1,-4.576507509E-1,5.105129480E-1,-6.344794035E-1
4.947297470E-1,-4.736292362E-1,5.083824396E-1,-6.430012584E-1
4.972200600E-1,-4.778901637E-1,4.881430268E-1,-6.153052449E-1
4.997104250E-1,-4.810858667E-1,4.774906933E-1,-5.790873170E-1
5.022007370E-1,-4.757596850E-1,4.934692085E-1,-5.726959109E-1
5.046910500E-1,-4.672378302E-1,5.158390999E-1,-5.918700695E-1
5.069531850E-1,-4.608464241E-1,5.414046645E-1,-6.334142089E-1
5.094434450E-1,-4.597811997E-1,5.744268894E-1,-6.824148893E-1
5.119337580E-1,-4.651073813E-1,6.181014776E-1,-7.228937745E-1
5.144241220E-1,-4.768249393E-1,6.585803032E-1,-7.527202964E-1
5.169144350E-1,-4.928034246E-1,6.905373335E-1,-7.623074055E-1
5.194048000E-1,-5.109124184E-1,7.161028981E-1,-7.601768970E-1
5.218951120E-1,-5.268908739E-1,7.342118621E-1,-7.548507452E-1
5.243854250E-1,-5.375432372E-1,7.555165291E-1,-7.441984415E-1
5.268757890E-1,-5.460650921E-1,7.693645358E-1,-7.260894775E-1
5.293661020E-1,-5.439345837E-1,7.885387540E-1,-7.069152594E-1
5.318564140E-1,-5.407389402E-1,8.034520149E-1,-6.856105924E-1
5.343467790E-1,-5.311518312E-1,8.194305301E-1,-6.621754766E-1
5.368370910E-1,-5.130428672E-1,8.311480880E-1,-6.344794035E-1
5.390854770E-1,-4.959991276E-1,8.396699429E-1,-6.089138389E-1
5.415720390E-1,-4.800206423E-1,8.354089856E-1,-5.876091719E-1
5.440587060E-1,-4.746944606E-1,8.226261735E-1,-5.652392507E-1
5.465453200E-1,-4.651073813E-1,8.023867607E-1,-5.503259897E-1
5.490319350E-1,-4.544550478E-1,7.725602388E-1,-5.407389402E-1
5.515186020E-1,-4.448679388E-1,7.342118621E-1,-5.300865769E-1
5.540052160E-1,-4.363460839E-1,6.809502244E-1,-5.247604251E-1
5.564918830E-1,-4.161066413E-1,6.106448174E-1,-5.258256793E-1
5.589784970E-1,-3.905410469E-1,5.105129480E-1,-5.343475342E-1
5.614651640E-1,-3.553883731E-1,3.848154247E-1,-5.471302867E-1
5.639517790E-1,-3.085181117E-1,2.452699095E-1,-5.663045049E-1
5.664384450E-1,-2.509955168E-1,1.089200750E-1,-5.822830200E-1
5.689250600E-1,-1.892120093E-1,-2.956021577E-2,-5.961310267E-1
5.710797470E-1,-1.316894293E-1,-1.712362021E-1,-6.131747365E-1
5.735664140E-1,-8.588441461E-2,-3.129121959E-1,-6.216966510E-1
5.760530290E-1,-4.860125855E-2,-4.322183132E-1,-6.227618456E-1
5.785396950E-1,-2.516612969E-2,-5.280892849E-1,-6.259575486E-1
5.810263100E-1,-4.926702939E-3,-5.983946323E-1,-6.206313968E-1
5.835129770E-1,9.986559860E-3,-6.516563296E-1,-6.153052449E-1
5.859995910E-1,2.063889056E-2,-6.910699010E-1,-6.089138389E-1
5.884862580E-1,2.383458801E-2,-7.219616771E-1,-5.982614756E-1
5.909728720E-1,2.703028731E-2,-7.443315983E-1,-5.833482146E-1
5.934595390E-1,3.129122034E-2,-7.592448592E-1,-5.641740561E-1
5.959461540E-1,3.022598661E-2,-7.645710111E-1,-5.354127288E-1
5.984328200E-1,2.916075476E-2,-7.635057569E-1,-4.991948307E-1
6.008694350E-1,3.022598661E-2,-7.613753080E-1,-4.619116783E-1
6.033559970E-1,3.555215150E-2,-7.549839020E-1,-4.161066413E-1
6.058426640E-1,4.194355011E-2,-7.496577501E-1,-3.649754524E-1
6.083292790E-1,5.046541616E-2,-7.475273013E-1,-3.074528873E-1
6.108158930E-1,6.750914454E-2,-7.443315983E-1,-2.499302924E-1
6.133025600E-1,8.455286920E-2,-7.432663441E-1,-2.126471400E-1
6.157891750E-1,9.627043456E-2,-7.390053868E-1,-1.860163212E-1
6.182758410E-1,1.165098622E-1,-7.315487862E-1,-1.711030602E-1
6.207624560E-1,1.335535944E-1,-7.272878289E-1,-1.721682847E-1
6.232491220E-1,1.505973190E-1,-7.187659740E-1,-1.785596907E-1
6.257357370E-1,1.655105799E-1,-6.974613070E-1,-1.806901544E-1
6.282224040E-1,1.804238409E-1,-6.697652340E-1,-1.828206182E-1
6.307090180E-1,1.921414137E-1,-6.218297482E-1,-1.764292270E-1
6.329662580E-1,2.049241960E-1,-5.621767044E-1,-1.497983932E-1
6.354528200E-1,2.198374718E-1,-5.035889149E-1,-1.157109365E-1
6.379394870E-1,2.315550297E-1,-4.620448351E-1,-8.801487833E-2
6.404261020E-1,2.379464209E-1,-4.332835376E-1,-6.457975507E-2
6.429127680E-1,2.464682907E-1,-4.023917615E-1,-4.647079110E-2
6.453993830E-1,2.528596818E-1,-3.746957183E-1,-3.049229458E-2
6.478859970E-1,2.560553849E-1,-3.491301239E-1,-9.187635034E-3
6.503726640E-1,2.581858635E-1,-3.235645294E-1,8.921326138E-3
6.528592790E-1,2.528596818E-1,-2.948032320E-1,2.916075476E-2
6.553459450E-1,2.475335300E-1,-2.734985650E-1,4.620448127E-2
6.578325600E-1,2.347507328E-1,-2.543243766E-1,5.046541616E-2
6.603192270E-1,2.177069932E-1,-2.181064636E-1,4.300878197E-2
6.628058410E-1,2.038589716E-1,-1.605838835E-1,3.342168778E-2
6.651155810E-1,1.900109351E-1,-1.041265279E-1,2.383458801E-2
6.676021430E-1,1.740324497E-1,-5.512581021E-2,1.424749196E-2
6.700888100E-1,1.591191888E-1,-1.145125460E-2,2.529928461E-3
6.725754250E-1,1.463363916E-1,3.328853101E-2,-9.187635034E-3
6.750620390E-1,1.378145218E-1,6.524552405E-2,-2.090519853E-2
6.775487060E-1,1.367492825E-1,8.441971987E-2,-3.368799388E-2
6.800353200E-1,1.410102248E-1,9.294158220E-2,-4.327509180E-2
6.825219870E-1,1.516625583E-1,9.294158220E-2,-4.753602296E-2
6.850086020E-1,1.633801162E-1,8.335448056E-2,-4.860125855E-2
6.874952680E-1,1.772281379E-1,7.483261824E-2,-5.073172227E-2
6.899818830E-1,1.921414137E-1,6.631075591E-2,-4.753602296E-2
6.924685500E-1,2.091851383E-1,5.672365800E-2,-4.966649041E-2
6.949551640E-1,2.272941023E-1,5.352795869E-2,-4.753602296E-2
6.972491220E-1,2.464682907E-1,5.565842614E-2,-5.073172227E-2
6.997356850E-1,2.592510879E-1,5.459319428E-2,-5.073172227E-2
7.022223520E-1,2.699034214E-1,5.139749497E-2,-5.179695413E-2
7.047089660E-1,2.816209793E-1,6.311506033E-2,-6.031882018E-2
7.071955810E-1,2.912080884E-1,1.046591476E-1,-7.416684926E-2
7.096822470E-1,2.922733128E-1,1.483336985E-1,-9.653674066E-2
7.121688620E-1,2.805557549E-1,2.122476846E-1,-1.146457046E-1
7.146555290E-1,2.720338702E-1,3.049229383E-1,-1.242327988E-1
7.171421430E-1,2.613815665E-1,3.837502003E-1,-1.284937263E-1
7.196288100E-1,3.476654291E-1,5.786878467E-1,-1.444722265E-1
7.221154250E-1,4.637758136E-1,7.619079351E-1,-1.785596907E-1
7.246020910E-1,5.276898146E-1,8.354089856E-1,-2.158428431E-1
7.270887060E-1,5.564510822E-1,9.046491385E-1,-2.637783289E-1
7.293898000E-1,5.671034455E-1,9.834764004E-1,-2.882786989E-1
7.318763620E-1,5.457987785E-1,1.069760323E0,-2.861482203E-1
7.343630290E-1,4.967980385E-1,1.168826938E0,-2.754958868E-1
7.368496430E-1,4.296883643E-1,1.258306503E0,-2.595174015E-1
7.393362580E-1,3.572525382E-1,1.325416207E0,-2.392779738E-1
7.418229250E-1,2.869471312E-1,1.360568881E0,-2.339518070E-1
7.443095390E-1,2.272941023E-1,1.364829779E0,-2.435389012E-1
7.467962060E-1,1.782933772E-1,1.338199019E0,-2.680392563E-1
7.492828200E-1,1.474016160E-1,1.295589685E0,-2.989310026E-1
7.517694870E-1,1.250317246E-1,1.244458437E0,-3.330184817E-1
7.542561020E-1,1.069227681E-1,1.192262053E0,-3.692364097E-1
7.567427680E-1,9.307473898E-2,1.151783228E0,-3.990629315E-1
7.592293830E-1,8.242240548E-2,1.112369537E0,-4.299546778E-1
7.614812060E-1,7.283531129E-2,1.077216864E0,-4.576507509E-1
7.639677680E-1,6.431344151E-2,1.048455596E0,-4.832163453E-1
7.664544350E-1,5.898727849E-2,1.019694328E0,-5.098471642E-1
7.689410500E-1,5.472634733E-2,9.866721034E-1,-5.343475342E-1
7.714277160E-1,5.259587988E-2,9.472584724E-1,-5.503259897E-1
7.739143310E-1,4.620448127E-2,9.057143927E-1,-5.631088018E-1
7.764009450E-1,4.726971686E-2,8.641703129E-1,-5.748263597E-1
7.788876120E-1,4.726971686E-2,8.119738698E-1,-5.790873170E-1
7.813742270E-1,5.259587988E-2,7.587122321E-1,-5.769568086E-1
7.838608930E-1,5.792204663E-2,6.852111220E-1,-5.758916140E-1
7.863475080E-1,6.005251035E-2,5.744268894E-1,-5.780220628E-1
7.888341750E-1,5.685681105E-2,4.434032440E-1,-5.748263597E-1
7.913207890E-1,5.898727849E-2,2.995967865E-1,-5.705654621E-1
7.936442790E-1,6.111774594E-2,1.312899739E-1,-5.641740561E-1
7.961308410E-1,8.029194176E-2,-2.742975019E-2,-5.684349537E-1
7.986175080E-1,1.186403260E-1,-1.467358470E-1,-5.780220628E-1
8.011041220E-1,1.750976741E-1,-2.500634491E-1,-5.950657725E-1
8.035907370E-1,2.390116602E-1,-3.384777904E-1,-6.121095419E-1
8.060774040E-1,2.975994647E-1,-3.917394578E-1,-6.280879974E-1
8.085640180E-1,3.497959077E-1,-4.055874646E-1,-6.387403607E-1
8.110506850E-1,3.838833570E-1,-4.055874646E-1,-6.493926644E-1
8.135373000E-1,4.030575454E-1,-3.970656097E-1,-6.515231729E-1
8.160239660E-1,4.137098789E-1,-3.842828274E-1,-6.515231729E-1
8.185105810E-1,4.211665094E-1,-3.661738634E-1,-6.515231729E-1
8.209972470E-1,4.243622124E-1,-3.501953483E-1,-6.430012584E-1
8.234838620E-1,4.296883643E-1,-3.342168629E-1,-6.387403607E-1
8.256509450E-1,4.360797703E-1,-3.150426745E-1,-6.291532516E-1
8.281375080E-1,4.360797703E-1,-2.990641594E-1,-6.195661426E-1
8.306241750E-1,4.360797703E-1,-2.830856740E-1,-6.078485847E-1
8.331107890E-1,4.328840673E-1,-2.681724131E-1,-5.971962810E-1
8.355974040E-1,4.243622124E-1,-2.532591522E-1,-5.886744261E-1
8.380840700E-1,4.137098789E-1,-2.426068187E-1,-5.812177658E-1
8.405706850E-1,4.009270668E-1,-2.266283184E-1,-5.684349537E-1
8.430573520E-1,3.796224296E-1,-1.456706226E-1,-5.290213227E-1
8.455439660E-1,3.306216896E-1,-4.127778113E-2,-4.778901637E-1
8.480306330E-1,2.762948275E-1,-2.956021577E-2,-4.864120185E-1
8.505172470E-1,2.432725877E-1,-3.808208182E-2,-5.141080618E-1
8.530039140E-1,2.209026963E-1,-2.529928461E-2,-5.226299763E-1
8.554905290E-1,1.942718774E-1,1.331541222E-3,-5.268908739E-1
8.578895910E-1,1.559234858E-1,5.778888986E-2,-5.311518312E-1
8.603761540E-1,1.005313694E-1,1.025286764E-1,-5.386084318E-1
8.628628200E-1,3.661738336E-2,1.238333359E-1,-5.418041348E-1
8.653494350E-1,-1.983996481E-2,1.334204376E-1,-5.481955409E-1
8.678360500E-1,-6.671021879E-2,1.302247345E-1,-5.588479042E-1
8.703227160E-1,-1.061238423E-1,1.227681041E-1,-5.705654621E-1
8.728093310E-1,-1.434070021E-1,1.153114736E-1,-5.865439177E-1
8.752959970E-1,-1.785596907E-1,9.720251709E-2,-6.025224328E-1
8.777826120E-1,-2.147776037E-1,7.483261824E-2,-6.131747365E-1
8.802692790E-1,-2.563216984E-1,6.418029219E-2,-6.174356937E-1
8.827558930E-1,-3.010614812E-1,4.820179567E-2,-6.153052449E-1
8.852425600E-1,-3.489969671E-1,3.541899845E-2,-6.014571786E-1
8.877291750E-1,-3.905410469E-1,2.689713426E-2,-5.822830200E-1
8.898878720E-1,-4.256937504E-1,2.902759984E-2,-5.748263597E-1
8.923744350E-1,-4.267589748E-1,8.335448056E-2,-6.430012584E-1
8.948611020E-1,-4.299546778E-1,1.206376404E-1,-7.196980715E-1
8.973477160E-1,-4.491288662E-1,1.280942708E-1,-7.644378543E-1
8.998343310E-1,-4.736292362E-1,1.366161406E-1,-7.942643762E-1
9.023209970E-1,-5.034557581E-1,1.589860320E-1,-8.123733401E-1
9.048076120E-1,-5.268908739E-1,1.973344237E-1,-8.272866011E-1
9.072942790E-1,-5.513912439E-1,2.516613007E-1,-8.379389048E-1
9.097808930E-1,-5.769568086E-1,3.049229383E-1,-8.411346078E-1
9.122675600E-1,-5.993267298E-1,3.603150845E-1,-8.443303108E-1
9.147541750E-1,-6.312837005E-1,4.135767221E-1,-8.443303108E-1
9.172408410E-1,-6.653711796E-1,4.625774324E-1,-8.421998620E-1
9.197274560E-1,-6.941324472E-1,5.115781426E-1,-8.379389048E-1
9.221539140E-1,-7.239589691E-1,5.627093315E-1,-8.379389048E-1
9.246404770E-1,-7.591117024E-1,6.159709692E-1,-8.294170499E-1
9.271271430E-1,-7.953296304E-1,6.734935641E-1,-8.145037889E-1
9.296137580E-1,-8.251561522E-1,7.363423109E-1,-8.006557822E-1
9.321003720E-1,-8.571131229E-1,7.938649058E-1,-7.804163694E-1
9.345870390E-1,-8.901353478E-1,8.513875008E-1,-7.580464482E-1
9.370736540E-1,-9.242228270E-1,9.046491385E-1,-7.367417812E-1
9.395603200E-1,-9.572450519E-1,9.461932182E-1,-7.143719196E-1
9.420469350E-1,-9.849410653E-1,9.770849943E-1,-6.930672526E-1
9.445336020E-1,-1.011571884E0,9.962592125E-1,-6.738930345E-1
9.470202160E-1,-1.032876611E0,1.014368176E0,-6.579145193E-1
9.495068830E-1,-1.054181218E0,1.025020480E0,-6.440665126E-1
9.519934970E-1,-1.071224928E0,1.031411886E0,-6.344794035E-1
9.542791220E-1,-1.086138248E0,1.039933681E0,-6.280879974E-1
9.567656850E-1,-1.092529655E0,1.046325088E0,-6.291532516E-1
9.592523520E-1,-1.101051450E0,1.064434052E0,-6.312837005E-1
9.617389660E-1,-1.104247212E0,1.085738778E0,-6.376751065E-1
9.642255810E-1,-1.106377602E0,1.112369537E0,-6.398055553E-1
9.667122470E-1,-1.107442856E0,1.145391822E0,-6.398055553E-1
9.691988620E-1,-1.107442856E0,1.181609750E0,-6.419360638E-1
9.716855290E-1,-1.103181958E0,1.217827678E0,-6.366099119E-1
9.741721430E-1,-1.104247212E0,1.259371758E0,-6.323489547E-1
9.766588100E-1,-1.104247212E0,1.304111481E0,-6.163704395E-1
9.791454250E-1,-1.099986196E0,1.342459917E0,-5.982614756E-1
9.816320910E-1,-1.097855806E0,1.379743099E0,-5.726959109E-1
9.841187060E-1,-1.094660044E0,1.408504367E0,-5.449998379E-1
9.863997470E-1,-1.084007740E0,1.434069991E0,-5.130428672E-1
9.888863100E-1,-1.074420691E0,1.457505107E0,-4.768249393E-1
9.913729770E-1,-1.059507370E0,1.475614071E0,-4.374113083E-1
9.938595910E-1,-1.042463660E0,1.480940223E0,-3.990629315E-1
9.963462060E-1,-1.029680848E0,1.480940223E0,-3.585840762E-1
9.988328720E-1,-1.009441495E0,1.475614071E0,-3.095833361E-1
1.001319487E0,-9.892020226E-1,1.461766005E0,-2.595174015E-1
1.003806154E0,-9.636363983E-1,1.458570361E0,-2.073209733E-1
1.006292768E0,-9.412665367E-1,1.458570361E0,-1.604507267E-1
1.008779435E0,-9.135704637E-1,1.470287919E0,-1.135804728E-1
1.011266050E0,-8.848091960E-1,1.475614071E0,-7.629731297E-2
1.013752716E0,-8.539174199E-1,1.480940223E0,-4.434032366E-2
1.016239331E0,-8.240908980E-1,1.480940223E0,-1.983996481E-2
1.018527977E0,-7.953296304E-1,1.472418308E0,7.856093347E-3
1.021014539E0,-7.644378543E-1,1.478809714E0,3.981308267E-2
1.023501206E0,-7.282199264E-1,1.496918678E0,6.857437640E-2
1.025987820E0,-6.845453978E-1,1.521419048E0,9.840089828E-2
1.028474435E0,-6.398055553E-1,1.551245570E0,1.271621883E-1
1.030961102E0,-5.886744261E-1,1.578941703E0,1.495320797E-1
1.033447716E0,-5.258256793E-1,1.609833360E0,1.697715074E-1
1.035934383E0,-4.565854967E-1,1.620485783E0,1.910761744E-1
1.038420997E0,-3.724320829E-1,1.603441954E0,2.187722325E-1
1.040907664E0,-2.882786989E-1,1.593854904E0,2.560553849E-1
1.043394279E0,-2.137123793E-1,1.603441954E0,2.997299433E-1
1.045880945E0,-1.551245600E-1,1.639659882E0,3.370130956E-1
1.048367560E0,-1.157109365E-1,1.689725876E0,3.636439145E-1
1.050549539E0,-9.653674066E-2,1.745118022E0,3.849485815E-1
1.053032977E0,-9.227581322E-2,1.796249151E0,4.009270668E-1
1.055516466E0,-1.039933711E-1,1.840988994E0,4.137098789E-1
1.057999904E0,-1.306242049E-1,1.876141667E0,4.254274368E-1
1.060483393E0,-1.615159512E-1,1.892120123E0,4.382102489E-1
1.062966883E0,-1.934729517E-1,1.896381140E0,4.541887343E-1
1.065450372E0,-2.286256403E-1,1.888924479E0,4.722976983E-1
1.067933810E0,-2.723001838E-1,1.878272176E0,4.925371110E-1
1.070417300E0,-3.127790391E-1,1.856967449E0,5.191679597E-1
1.072900789E0,-3.607145250E-1,1.805836320E0,5.479292274E-1
1.075384279E0,-4.171718955E-1,1.754705071E0,5.745600462E-1
1.077867716E0,-4.778901637E-1,1.707834840E0,5.958647132E-1
1.080351206E0,-5.492607951E-1,1.664160252E0,6.118432283E-1
1.082785737E0,-6.163704395E-1,1.624746680E0,6.214303374E-1
1.085269175E0,-6.888062954E-1,1.582137346E0,6.182346344E-1
1.087752612E0,-7.548507452E-1,1.533136606E0,6.043865681E-1
1.090236102E0,-8.176994920E-1,1.478809714E0,5.830819011E-1
1.092719591E0,-8.762873411E-1,1.418091416E0,5.553858876E-1
1.095203081E0,-9.284837246E-1,1.353112221E0,5.181027055E-1
1.097686518E0,-9.742887616E-1,1.296654940E0,4.786891043E-1
1.100170008E0,-1.014767647E0,1.245523691E0,4.339492917E-1
1.102653497E0,-1.047789812E0,1.199718714E0,3.934704363E-1
1.105136987E0,-1.072290182E0,1.163500786E0,3.679048419E-1
1.107620425E0,-1.085072994E0,1.133674264E0,3.476654291E-1
1.110103914E0,-1.089333892E0,1.105978131E0,3.061213493E-1
1.112587404E0,-1.079746842E0,1.084673524E0,2.613815665E-1
1.114919018E0,-1.061637878E0,1.084673524E0,2.113156021E-1
1.117402456E0,-1.028615594E0,1.098521590E0,1.644453406E-1
1.119885893E0,-9.860063195E-1,1.130478501E0,1.186403260E-1
1.122369383E0,-9.327446818E-1,1.178413987E0,6.750914454E-2
1.124852872E0,-8.677654266E-1,1.230610490E0,2.489982173E-2
1.127336362E0,-7.900034189E-1,1.298785329E0,-1.557903271E-2
1.129819800E0,-7.058500051E-1,1.372286439E0,-5.499265343E-2
1.132303289E0,-6.121095419E-1,1.456439853E0,-9.014534205E-2
1.134786779E0,-5.119776130E-1,1.552310824E0,-1.242327988E-1
1.137270268E0,-4.065195620E-1,1.658834100E0,-1.583202630E-1
1.139753706E0,-2.936048508E-1,1.778140187E0,-1.902772486E-1
1.142237195E0,-1.785596907E-1,1.908098698E0,-2.211690098E-1
1.144720685E0,-6.031882018E-2,2.045513630E0,-2.541912198E-1
1.147051518E0,6.111774594E-2,2.192515850E0,-2.861482203E-1
1.149534956E0,1.836195439E-1,2.341648579E0,-3.223661482E-1
1.152018393E0,3.029256463E-1,2.492911577E0,-3.607145250E-1
1.154501883E0,4.222317338E-1,2.648435593E0,-3.926715255E-1
1.156985372E0,5.383421183E-1,2.805024862E0,-4.267589748E-1
1.159468862E0,6.544525623E-1,2.961614132E0,-4.651073813E-1
1.161952300E0,7.641715407E-1,3.119268656E0,-5.013253093E-1
1.164435789E0,8.760210276E-1,3.275857925E0,-5.439345837E-1
1.166919279E0,9.836095572E-1,3.433512449E0,-5.844134688E-1
1.169402768E0,1.081744194E0,3.585840702E0,-6.334142089E-1
1.171886206E0,1.175484657E0,3.730712414E0,-6.845453978E-1
1.174369695E0,1.259638071E0,3.871323109E0,-7.356765866E-1
1.176853185E0,1.338465333E0,3.999284267E0,-7.857425213E-1
1.179171883E0,1.407705426E0,4.114329338E0,-8.379389048E-1
1.181655320E0,1.468423724E0,4.224048615E0,-8.869396448E-1
1.184138758E0,1.521685362E0,4.318854332E0,-9.370055795E-1
1.186622247E0,1.567490339E0,4.399811745E0,-9.881367683E-1
1.189105737E0,1.603708267E0,4.469051838E0,-1.038202763E0
1.191589175E0,1.628208637E0,4.527639866E0,-1.089333892E0
1.194072664E0,1.642056704E0,4.573444843E0,-1.140465140E0
1.196556154E0,1.648448110E0,4.608597755E0,-1.187335372E0
1.199039643E0,1.638861060E0,4.636293411E0,-1.233140349E0
1.201523133E0,1.618621588E0,4.655467987E0,-1.277880192E0
1.204006570E0,1.588795066E0,4.666120052E0,-1.315163374E0
1.206490060E0,1.547250986E0,4.670381069E0,-1.350316048E0
1.208973550E0,1.498250246E0,4.662924290E0,-1.385468721E0
1.211177664E0,1.438597202E0,4.646945953E0,-1.416360497E0
1.213661154E0,1.367226601E0,4.627771854E0,-1.448317409E0
1.216144591E0,1.286268830E0,4.595814705E0,-1.482404947E0
1.218628081E0,1.195724010E0,4.562792301E0,-1.510100961E0
1.221111570E0,1.099853039E0,4.528705120E0,-1.537796974E0
1.223595060E0,9.953271151E-1,4.491421700E0,-1.560166955E0
1.226078550E0,8.909342885E-1,4.440290928E0,-1.577210665E0
1.228561987E0,7.822805047E-1,4.387029171E0,-1.586797714E0
1.231045477E0,6.757571697E-1,4.336963177E0,-1.596384883E0
1.233528966E0,5.745600462E-1,4.295419216E0,-1.603841424E0
1.236012456E0,4.744281471E-1,4.253874779E0,-1.607037187E0
1.238495893E0,3.785571754E-1,4.216591835E0,-1.613428593E0
1.240958185E0,2.933385372E-1,4.179308414E0,-1.617689490E0
1.243441622E0,2.081198990E-1,4.145221233E0,-1.625146151E0
1.245925060E0,1.346188188E-1,4.118590355E0,-1.632602811E0
1.248408550E0,7.070484012E-2,4.098351002E0,-1.640059352E0
1.250892039E0,1.531272475E-2,4.088763714E0,-1.643255115E0
1.253375529E0,-2.623136342E-2,4.086633205E0,-1.653907418E0
1.255858966E0,-6.138405204E-2,4.096220493E0,-1.666690230E0
1.258342456E0,-8.588441461E-2,4.112198830E0,-1.683733940E0
1.260825945E0,-1.018629074E-1,4.135633945E0,-1.707169056E0
1.263309435E0,-1.050586104E-1,4.167591095E0,-1.735930324E0
1.265792872E0,-9.973244369E-2,4.209135056E0,-1.768952608E0
1.268276362E0,-8.375394344E-2,4.258135796E0,-1.804105282E0
1.270759852E0,-6.671021879E-2,4.309267044E0,-1.848845124E0
1.273088081E0,-3.794892505E-2,4.367855072E0,-1.893584847E0
1.275571518E0,-9.187635034E-3,4.433899403E0,-1.936194181E0
1.278054956E0,2.170412242E-2,4.503139496E0,-1.980933905E0
1.280538445E0,5.792204663E-2,4.577705860E0,-2.027804136E0
1.283021935E0,1.015966013E-1,4.650141716E0,-2.083196402E0
1.285505425E0,1.516625583E-1,4.720447063E0,-2.145112991E0
1.287988862E0,1.964023411E-1,4.783295631E0,-2.210092306E0
1.290472352E0,2.368811965E-1,4.836557388E0,-2.268680096E0
1.292955841E0,2.699034214E-1,4.869579792E0,-2.327267885E0
1.295439331E0,3.018604219E-1,4.874905586E0,-2.376268625E0
1.297922768E0,3.103822768E-1,4.815252781E0,-2.413551807E0
1.300406258E0,2.922733128E-1,4.731099129E0,-2.443378210E0
1.302889747E0,2.560553849E-1,4.659728527E0,-2.471074343E0
1.305214487E0,2.081198990E-1,4.571314335E0,-2.498770475E0
1.307697925E0,1.410102248E-1,4.461595535E0,-2.522205591E0
1.310181362E0,5.898727849E-2,4.340158939E0,-2.541379690E0
1.312664852E0,-3.688369319E-2,4.202743530E0,-2.556293011E0
1.315148341E0,-1.380808353E-1,4.046154499E0,-2.569075823E0
1.317631831E0,-2.456693649E-1,3.871323109E0,-2.576532364E0
1.320115268E0,-3.564535975E-1,3.690233469E0,-2.583988905E0
1.322598758E0,-4.683030546E-1,3.504883051E0,-2.598902225E0
1.325082247E0,-5.758916140E-1,3.319532394E0,-2.608489275E0
1.327565737E0,-6.813496947E-1,3.136312246E0,-2.624467850E0
1.330049175E0,-7.868077159E-1,2.955222607E0,-2.642576933E0
1.332532664E0,-8.901353478E-1,2.781589746E0,-2.660685778E0
1.335016154E0,-9.881367683E-1,2.617543936E0,-2.674533844E0
1.337344070E0,-1.078681588E0,2.458824158E0,-2.684120893E0
1.339827508E0,-1.164965510E0,2.311821938E0,-2.690512419E0
1.342310945E0,-1.241662264E0,2.181863546E0,-2.693707943E0
1.344794435E0,-1.303445816E0,2.068948746E0,-2.692642689E0
1.347277925E0,-1.353511691E0,1.976273537E0,-2.686251402E0
1.349761414E0,-1.386533976E0,1.899576783E0,-2.679859877E0
1.352244852E0,-1.407838583E0,1.843119383E0,-2.672403336E0
1.354728341E0,-1.409969091E0,1.810097218E0,-2.664946795E0
1.357211831E0,-1.403577685E0,1.795183897E0,-2.660685778E0
1.359695320E0,-1.382272959E0,1.799444914E0,-2.660685778E0
1.362178758E0,-1.338598490E0,1.817553878E0,-2.662816286E0
1.364662247E0,-1.287467241E0,1.854837060E0,-2.670272827E0
1.367145737E0,-1.218227148E0,1.904902935E0,-2.684120893E0
1.369477300E0,-1.140465140E0,1.963490725E0,-2.704360247E0
1.371960737E0,-1.047789812E0,2.035926580E0,-2.732056379E0
1.374444175E0,-9.487231374E-1,2.119014740E0,-2.767209053E0
1.376927664E0,-8.464608192E-1,2.217016220E0,-2.808753252E0
1.379411154E0,-7.335460782E-1,2.308626175E0,-2.857753992E0
1.381894643E0,-6.216966510E-1,2.398105860E0,-2.908885002E0
1.384378081E0,-5.087819099E-1,2.483324528E0,-2.962146759E0
1.386861570E0,-4.033238590E-1,2.547238350E0,-3.019669294E0
1.389345060E0,-3.053224087E-1,2.597304344E0,-3.082518101E0
1.391828497E0,-2.158428431E-1,2.637783289E0,-3.144301653E0
1.394311987E0,-1.338198930E-1,2.666544676E0,-3.207150221E0
1.396795477E0,-5.925358832E-2,2.682523012E0,-3.263607740E0
1.399278966E0,3.595161485E-3,2.684653521E0,-3.310477972E0
1.401600737E0,5.366111174E-2,2.681457758E0,-3.349891663E0
1.404084175E0,9.840089828E-2,2.669740200E0,-3.387174606E0
1.406567612E0,1.346188188E-1,2.655892134E0,-3.413805485E0
1.409051102E0,1.601844132E-1,2.638848543E0,-3.435110092E0
1.411534591E0,1.814890802E-1,2.626065731E0,-3.447892904E0
1.414018081E0,1.964023411E-1,2.616478682E0,-3.454284430E0
1.416501518E0,2.102503628E-1,2.611152411E0,-3.458545208E0
1.418985008E0,2.272941023E-1,2.612217665E0,-3.466001987E0
1.421468497E0,2.517944574E-1,2.616478682E0,-3.463871479E0
1.423951935E0,2.773600519E-1,2.622869968E0,-3.461740971E0
1.426435425E0,3.103822768E-1,2.626065731E0,-3.457480192E0
1.428918914E0,3.551220596E-1,2.625000477E0,-3.450023413E0
1.431402404E0,4.019923210E-1,2.618609190E0,-3.435110092E0
1.433715425E0,4.563191831E-1,2.604761124E0,-3.418066502E0
1.436198810E0,5.117112994E-1,2.583456278E0,-3.397827148E0
1.438682300E0,5.702991486E-1,2.561086416E0,-3.370131016E0
1.441165789E0,6.342130899E-1,2.533390522E0,-3.336043596E0
1.443649279E0,6.885399818E-1,2.498237848E0,-3.300890923E0
1.446132768E0,7.386059761E-1,2.455628395E0,-3.267868519E0
1.448616206E0,7.939980626E-1,2.408758163E0,-3.229520321E0
1.451099695E0,8.398030996E-1,2.353366137E0,-3.194367647E0
1.453583185E0,8.845428824E-1,2.290517330E0,-3.160279989E0
1.456066675E0,9.282174110E-1,2.226603270E0,-3.127257824E0
1.458550112E0,9.665657878E-1,2.156297922E0,-3.097431421E0
1.461033602E0,1.001718521E0,2.091318846E0,-3.071865797E0
1.463517091E0,1.033675551E0,2.029535294E0,-3.054821968E0
1.465874331E0,1.063502073E0,1.968816996E0,-3.043104410E0
1.468357768E0,1.092396498E0,1.910229087E0,-3.033517361E0
1.470841206E0,1.116896868E0,1.854837060E0,-3.030321598E0
1.473324695E0,1.143527627E0,1.803705812E0,-3.032452106E0
1.475808185E0,1.171223760E0,1.761096478E0,-3.036713123E0
1.478291675E0,1.197854519E0,1.733400464E0,-3.042039156E0
1.480775112E0,1.225550652E0,1.719552398E0,-3.047365427E0
1.483258602E0,1.254311919E0,1.721682906E0,-3.051626205E0
1.485742091E0,1.285203695E0,1.736596107E0,-3.052691460E0
1.488225581E0,1.316095352E0,1.758966088E0,-3.050561190E0
1.490709018E0,1.351248145E0,1.781335950E0,-3.047365427E0
1.493192508E0,1.383205056E0,1.802640557E0,-3.037778378E0
1.495675997E0,1.419422984E0,1.815423369E0,-3.022865057E0
1.498007664E0,1.452445269E0,1.822880030E0,-3.000495195E0
1.500491102E0,1.480141282E0,1.827140927E0,-2.973864317E0
1.502974539E0,1.503576398E0,1.821814775E0,-2.940842152E0
1.505458029E0,1.519554853E0,1.814358115E0,-2.891841412E0
1.507941518E0,1.532337666E0,1.801575303E0,-2.837514400E0
1.510425008E0,1.533402920E0,1.771748781E0,-2.776796103E0
1.512908445E0,1.527011514E0,1.717421889E0,-2.704360247E0
1.515391935E0,1.507837296E0,1.649247050E0,-2.622337341E0
1.517875425E0,1.483337045E0,1.560832739E0,-2.530727386E0
1.520358914E0,1.446053863E0,1.451113701E0,-2.430595398E0
1.522842352E0,1.401314020E0,1.324350953E0,-2.323006868E0
1.525325841E0,1.350182891E0,1.176283598E0,-2.211157560E0
1.527809331E0,1.288399339E0,1.014368176E0,-2.092783451E0
1.530017872E0,1.215963483E0,8.449960947E-1,-1.974542618E0
1.532501310E0,1.133940578E0,6.607108116E-1,-1.857366920E0
1.534984747E0,1.044327855E0,4.700340629E-1,-1.739126086E0
1.537468237E0,9.473916292E-1,2.782921195E-1,-1.623015642E0
1.539951727E0,8.387378454E-1,8.122401685E-2,-1.513296723E0
1.542435216E0,7.332797647E-1,-1.179745570E-1,-1.409969091E0
1.544918654E0,6.288869381E-1,-3.097164929E-1,-1.314098120E0
1.547402143E0,5.234288573E-1,-4.961322844E-1,-1.218227148E0
1.549885633E0,4.179708064E-1,-6.846785545E-1,-1.128747582E0
1.552369122E0,3.242303133E-1,-8.657681346E-1,-1.037137508E0
1.554852560E0,2.304897904E-1,-1.038335919E0,-9.444622397E-1
1.557336050E0,1.431406885E-1,-1.194925189E0,-8.560478687E-1
1.559819539E0,6.537867337E-2,-1.332473397E0,-7.623074055E-1
1.562262091E0,-7.057168987E-3,-1.444322824E0,-6.717625856E-1
1.564743237E0,-6.777545065E-2,-1.540193796E0,-5.854787230E-1
1.567224435E0,-1.189066395E-1,-1.616890550E0,-4.981296062E-1
1.569705633E0,-1.529940963E-1,-1.672282696E0,-4.107804894E-1
1.572186831E0,-1.689725816E-1,-1.708500624E0,-3.330184817E-1
1.574668029E0,-1.689725816E-1,-1.725544333E0,-2.584521770E-1
1.577149175E0,-1.540593207E-1,-1.720218182E0,-1.945381761E-1
1.579630372E0,-1.221023351E-1,-1.697848320E0,-1.370155960E-1
1.582111570E0,-8.268871158E-2,-1.658434629E0,-8.694964647E-2
1.584592768E0,-3.688369319E-2,-1.597716331E0,-4.327509180E-2
1.587073966E0,1.744319126E-2,-1.530606747E0,-7.057168987E-3
1.589555164E0,7.177007198E-2,-1.464562297E0,3.022598661E-2
1.592036310E0,1.250317246E-1,-1.418757200E0,7.709623873E-2
1.594382612E0,1.761629134E-1,-1.407039642E0,1.260969639E-1
1.596863758E0,2.177069932E-1,-1.438996673E0,1.761629134E-1
1.599344956E0,2.422073632E-1,-1.512497783E0,2.251636237E-1
1.601826154E0,2.496639937E-1,-1.624347210E0,2.773600519E-1
1.604307352E0,2.304897904E-1,-1.768153667E0,3.263607621E-1
1.606788550E0,1.846847683E-1,-1.934329987E0,3.785571754E-1
1.609269695E0,1.101184636E-1,-2.110093355E0,4.446016252E-1
1.611750893E0,9.986559860E-3,-2.290117741E0,5.244941115E-1
1.614232091E0,-1.082543060E-1,-2.478664160E0,6.129084229E-1
1.616713289E0,-2.424736619E-1,-2.667210340E0,7.130403519E-1
1.619194487E0,-3.916063011E-1,-2.821669102E0,8.163679838E-1
1.621675685E0,-5.599130988E-1,-2.907953024E0,9.154346585E-1
1.624156831E0,-7.005238533E-1,-3.085846901E0,1.015566587E0
1.626392612E0,-8.187647462E-1,-3.286110640E0,1.108241796E0
1.628873758E0,-9.455274343E-1,-3.434178114E0,1.191329956E0
1.631354956E0,-1.069094539E0,-3.546027660E0,1.274418116E0
1.633836154E0,-1.182009220E0,-3.631246328E0,1.350049734E0
1.636317352E0,-1.281075835E0,-3.670659781E0,1.420355082E0
1.638798550E0,-1.354576945E0,-3.661072731E0,1.473616719E0
1.641279695E0,-1.404642940E0,-3.614202499E0,1.514095545E0
1.643760893E0,-1.436599851E0,-3.530049086E0,1.542856932E0
1.646242091E0,-1.449382663E0,-3.407547235E0,1.562031031E0
1.648723289E0,-1.456839323E0,-3.269067049E0,1.574813843E0
1.651204487E0,-1.452578425E0,-3.133782387E0,1.590792418E0
1.653685685E0,-1.446187019E0,-2.980388880E0,1.616357923E0
1.656166883E0,-1.439795613E0,-2.814212561E0,1.642988801E0
1.658652247E0,-1.434469461E0,-2.650166512E0,1.669619560E0
1.661133393E0,-1.421686649E0,-2.486120701E0,1.699446082E0
1.663614591E0,-1.405708075E0,-2.340183735E0,1.717555046E0
1.666095789E0,-1.390794873E0,-2.204899311E0,1.728207469E0
1.668576987E0,-1.372685909E0,-2.077071190E0,1.735664010E0
1.671058185E0,-1.352446437E0,-1.966287017E0,1.737794518E0
1.673539331E0,-1.329011321E0,-1.872546554E0,1.740990281E0
1.676020529E0,-1.294923902E0,-1.784132123E0,1.748446822E0
1.678501727E0,-1.255510330E0,-1.692522168E0,1.751642585E0
1.680982925E0,-1.208639979E0,-1.591324925E0,1.758033991E0
1.683464122E0,-1.153247952E0,-1.501845360E0,1.760164380E0
1.685945320E0,-1.093594909E0,-1.421952963E0,1.759099126E0
1.688426518E0,-1.030746102E0,-1.331408143E0,1.752707839E0
1.690623029E0,-9.625712037E-1,-1.259904385E0,1.745251179E0
1.693104175E0,-8.890700936E-1,-1.218360305E0,1.740990281E0
1.695585372E0,-8.145037889E-1,-1.190664172E0,1.738859773E0
1.698066570E0,-7.388722301E-1,-1.173620462E0,1.731403112E0
1.700547768E0,-6.696321368E-1,-1.169359565E0,1.716489911E0
1.703028914E0,-6.035876870E-1,-1.181077123E0,1.696250439E0
1.705510112E0,-5.428693891E-1,-1.204512239E0,1.666423917E0
1.707991310E0,-4.906729758E-1,-1.238599658E0,1.630205989E0
1.710472508E0,-4.459331632E-1,-1.278013349E0,1.591857553E0
1.712953706E0,-4.118457139E-1,-1.320622683E0,1.552443981E0
1.715434904E0,-3.841496706E-1,-1.370821714E0,1.510899901E0
1.717916050E0,-3.671059310E-1,-1.417691946E0,1.469355822E0
1.720397247E0,-3.479317427E-1,-1.458170891E0,1.429942131E0
1.722753966E0,-3.340837061E-1,-1.487997413E0,1.394789457E0
1.725235164E0,-3.127790391E-1,-1.503975868E0,1.358571529E0
1.727716362E0,-2.723001838E-1,-1.496519208E0,1.321288466E0
1.730197560E0,-2.232994735E-1,-1.478410244E0,1.281874776E0
1.732678706E0,-1.551245600E-1,-1.450714231E0,1.240330696E0
1.735159904E0,-7.310161740E-2,-1.413431048E0,1.187069058E0
1.737641102E0,1.531272475E-2,-1.364430308E0,1.134872675E0
1.740122300E0,1.069227681E-1,-1.304644108E0,1.080545783E0
1.742603497E0,1.964023411E-1,-1.234338760E0,1.027284145E0
1.745084695E0,2.805557549E-1,-1.145924449E0,9.697614908E-1
1.747565841E0,3.593829870E-1,-1.058575273E0,9.133041501E-1
1.750047039E0,4.222317338E-1,-9.669652581E-1,8.547163606E-1
1.752564435E0,4.691019952E-1,-8.796161413E-1,7.939980626E-1
1.755045581E0,5.106461048E-1,-7.975932360E-1,7.396711707E-1
1.757526779E0,5.372769237E-1,-7.187659740E-1,6.991923451E-1
1.760007977E0,5.511249304E-1,-6.324821115E-1,6.714962721E-1
1.762489175E0,5.575163364E-1,-5.398068428E-1,6.459306479E-1
1.764970372E0,5.585815907E-1,-4.471315742E-1,6.278216839E-1
1.767451518E0,5.564510822E-1,-3.544562757E-1,6.097127795E-1
1.769932716E0,5.585815907E-1,-2.766942680E-1,5.958647132E-1
1.772413914E0,5.639077425E-1,-2.213021666E-1,5.937342644E-1
1.774895112E0,5.692338943E-1,-1.850842386E-1,5.958647132E-1
1.777376310E0,5.713643432E-1,-1.552577168E-1,6.022561193E-1
1.779857508E0,5.713643432E-1,-1.222354919E-1,6.043865681E-1
1.782338706E0,5.702991486E-1,-9.986559302E-2,6.022561193E-1
1.784690945E0,5.681686401E-1,-1.083874628E-1,5.937342644E-1
1.787172091E0,5.724295974E-1,-1.499315500E-1,5.841471553E-1
1.789653289E0,5.777557492E-1,-2.095845938E-1,5.681686401E-1
1.792134487E0,5.809514523E-1,-2.628462613E-1,5.457987785E-1
1.794615685E0,5.830819011E-1,-3.065207899E-1,5.212984085E-1
1.797096883E0,5.916038156E-1,-3.491301239E-1,4.936023653E-1
1.799578029E0,6.054518223E-1,-3.874785006E-1,4.659062922E-1
1.802059227E0,6.278216839E-1,-4.236964285E-1,4.328840673E-1
1.804540425E0,6.565830112E-1,-4.513925016E-1,3.977313936E-1
1.807021622E0,6.896052361E-1,-4.641752839E-1,3.679048419E-1
1.809502820E0,7.279536128E-1,-4.577838778E-1,3.306216896E-1
1.811984018E0,7.673672438E-1,-4.460663199E-1,2.922733128E-1
1.814465216E0,8.142374754E-1,-4.290226102E-1,2.624467909E-1
1.816819279E0,8.696296215E-1,-4.226312041E-1,2.443378270E-1
1.819300425E0,9.228912592E-1,-4.194355011E-1,2.283593267E-1
1.821781622E0,9.729571939E-1,-4.055874646E-1,2.166417688E-1
1.824262820E0,1.021957874E0,-3.864132762E-1,2.049241960E-1
1.826744018E0,1.071091771E0,-3.587172329E-1,1.995980442E-1
1.829225216E0,1.121157765E0,-3.278254569E-1,2.017285079E-1
1.831706414E0,1.170158505E0,-2.884118557E-1,2.091851383E-1
1.834187560E0,1.217028737E0,-2.479329854E-1,2.251636237E-1
1.836668758E0,1.260703325E0,-1.968017966E-1,2.358159572E-1
1.839149956E0,1.293725491E0,-1.190397888E-1,2.294245660E-1
1.841631154E0,1.319291115E0,-3.488638252E-2,2.091851383E-1
1.844112352E0,1.338465333E0,2.263620123E-2,1.793586165E-1
1.846593550E0,1.346987128E0,5.565842614E-2,1.367492825E-1
1.848951466E0,1.337400079E0,6.311506033E-2,8.561810106E-2
1.851432664E0,1.305443048E0,3.328853101E-2,4.726971686E-2
1.853913810E0,1.252181411E0,-2.929390874E-3,4.513924941E-2
1.856395008E0,1.184006453E0,-1.145125460E-2,5.472634733E-2
1.858876206E0,1.107309699E0,-1.145125460E-2,4.620448127E-2
1.861357404E0,1.034740686E0,-8.255556226E-3,3.342168778E-2
1.863838550E0,9.718919992E-1,-5.512581021E-2,3.342168778E-2
1.866319747E0,9.101084471E-1,-1.424749196E-1,5.898727849E-2
1.868800945E0,8.674991727E-1,-2.340849638E-1,9.520520270E-2
1.871282143E0,8.291507363E-1,-2.830856740E-1,1.346188188E-1
1.873763341E0,8.057156205E-1,-2.766942680E-1,1.612496525E-1
1.876244539E0,7.961285114E-1,-2.106498331E-1,1.687062830E-1
1.878725737E0,8.025199175E-1,-3.275591508E-2,1.484668553E-1
1.881077716E0,8.376725912E-1,1.813559234E-1,1.175750941E-1
1.883558862E0,9.218260050E-1,1.920082569E-1,1.314231306E-1
1.886040060E0,1.043262601E0,8.788172156E-3,1.910761744E-1
1.888521258E0,1.139266729E0,-1.009308323E-1,2.603163123E-1
1.891002456E0,1.187202215E0,-3.382114694E-2,3.189041317E-1
1.893483654E0,1.217028737E0,1.270290315E-1,3.711005449E-1
1.895964800E0,1.252181411E0,2.537917793E-1,4.296883643E-1
1.898445997E0,1.301182151E0,3.155752718E-1,4.957328141E-1
1.900927195E0,1.348052382E0,3.390104175E-1,5.457987785E-1
1.903408393E0,1.373618007E0,3.528584540E-1,5.649729371E-1
1.905889591E0,1.378944159E0,3.581846058E-1,5.862776041E-1
1.908370789E0,1.385335565E0,3.507279754E-1,6.171693802E-1
1.910851987E0,1.383205056E0,3.890763521E-1,6.406044960E-1
1.913208810E0,1.351248145E0,4.977301359E-1,6.469959021E-1
1.915689956E0,1.305443048E0,5.786878467E-1,6.480611563E-1
1.918171154E0,1.258572817E0,5.659050345E-1,6.661701202E-1
1.920652352E0,1.205311179E0,5.243609548E-1,6.789528728E-1
1.923133550E0,1.139266729E0,4.924039543E-1,6.746919751E-1
1.925614747E0,1.077483177E0,4.615122080E-1,6.565830112E-1
1.928095893E0,1.034740686E0,4.497946501E-1,6.299521923E-1
1.930577091E0,1.002783775E0,4.583165050E-1,5.969299674E-1
1.933058289E0,9.750877023E-1,4.966649115E-1,5.671034455E-1
1.935539487E0,9.399349689E-1,5.659050345E-1,5.511249304E-1
1.938020685E0,9.037170410E-1,6.756240726E-1,5.362116694E-1
1.940501883E0,8.983908892E-1,8.151695728E-1,5.255593657E-1
1.942983081E0,9.420654774E-1,9.429975152E-1,5.149070024E-1
1.945336206E0,1.049654007E0,1.003715873E0,5.149070024E-1
1.947817352E0,1.181876063E0,1.102782488E0,5.149070024E-1
1.950298550E0,1.295855999E0,1.279611111E0,4.925371110E-1
1.952779747E0,1.376813650E0,1.490527272E0,4.563191831E-1
1.955260945E0,1.463097572E0,1.621550918E0,4.307536185E-1
1.957742143E0,1.587729812E0,1.630072832E0,4.350145459E-1
1.960223289E0,1.709166408E0,1.650312304E0,4.477973282E-1
1.962704487E0,1.807167768E0,1.704639196E0,4.414059222E-1
1.965185685E0,1.887060285E0,1.731269956E0,4.126446545E-1
1.967666883E0,1.955235243E0,1.711030602E0,3.785571754E-1
1.970148081E0,2.006366491E0,1.624746680E0,3.519263566E-1
1.972629279E0,2.019149303E0,1.504375339E0,3.284912407E-1
1.975110477E0,1.985061765E0,1.388264894E0,3.029256463E-1
1.977466050E0,1.909430146E0,1.291328788E0,2.677729428E-1
1.979947195E0,1.809298277E0,1.208240509E0,2.198374718E-1
1.982428393E0,1.708101153E0,1.111304402E0,1.697715074E-1
1.984909591E0,1.625012994E0,9.888025522E-1,1.292926520E-1
1.987390789E0,1.599447370E0,8.098434210E-1,1.197055578E-1
1.989871987E0,1.618621588E0,6.734935641E-1,1.250317246E-1
1.992353133E0,1.594121218E0,6.734935641E-1,1.058575287E-1
1.994834331E0,1.493989348E0,8.109086156E-1,5.153064802E-2
1.997315529E0,1.371487498E0,9.398018122E-1,-1.238333434E-2
1.999796727E0,1.307573557E0,9.014534354E-1,-4.647079110E-2
2.002277925E0,1.302247405E0,7.842777967E-1,-6.244928762E-2
2.004759122E0,1.311834455E0,6.852111220E-1,-8.055824786E-2
2.007240320E0,1.296921253E0,6.660369635E-1,-1.274285018E-1
2.009592768E0,1.285203695E0,6.873416305E-1,-1.561897993E-1
2.012073914E0,1.291594982E0,7.118419409E-1,-1.540593207E-1
2.014555112E0,1.353378534E0,6.628412604E-1,-1.263632625E-1
2.017036310E0,1.456706166E0,6.234276295E-1,-8.055824786E-2
2.019517508E0,1.571751356E0,6.447322965E-1,-3.901416063E-2
2.021998706E0,1.665491819E0,7.065157890E-1,-1.983996481E-2
2.024479852E0,1.729405761E0,7.587122321E-1,-1.877473295E-2
2.026961050E0,1.777341247E0,7.629731297E-1,-1.238333434E-2
2.029442247E0,1.812494040E0,7.246247530E-1,-4.926702939E-3
2.031923445E0,1.825276732E0,7.022548914E-1,-1.025286783E-2
2.034404643E0,1.818885446E0,6.926677823E-1,-1.983996481E-2
2.036885841E0,1.808233023E0,6.479279995E-1,-2.303566411E-2
2.039367039E0,1.792254567E0,5.765573978E-1,-1.770949923E-2
2.041709695E0,1.782667518E0,4.785559475E-1,-2.796236658E-3
2.044190841E0,1.782667518E0,3.496627510E-1,1.424749196E-2
2.046672039E0,1.767754197E0,1.802906841E-1,2.063889056E-2
2.049153237E0,1.742188573E0,1.091863867E-2,1.424749196E-2
2.051634435E0,1.713427305E0,-1.254311949E-1,3.595161485E-3
2.054115633E0,1.651643753E0,-2.042584270E-1,-2.197043039E-2
2.056596779E0,1.556838036E0,-2.628462613E-1,-6.457975507E-2
2.059077977E0,1.452445269E0,-3.224993050E-1,-1.135804728E-1
2.061559175E0,1.354443789E0,-3.704347908E-1,-1.668421179E-1
2.064040372E0,1.251116157E0,-3.501953483E-1,-2.275604010E-1
2.066521570E0,1.152049541E0,-3.363473415E-1,-2.957353294E-1
2.069002768E0,1.083874583E0,-3.448691964E-1,-3.564535975E-1
2.071483914E0,1.043262601E0,-3.448691964E-1,-4.086500108E-1
2.073823133E0,1.033675551E0,-3.310211599E-1,-4.608464241E-1
2.076302300E0,1.047523499E0,-3.011946380E-1,-5.119776130E-1
2.078781518E0,1.081744194E0,-2.500634491E-1,-5.513912439E-1
2.081260685E0,1.131810069E0,-1.595186442E-1,-5.726959109E-1
2.083739904E0,1.182941318E0,-3.382114694E-2,-5.844134688E-1
2.086219122E0,1.220224380E0,9.294158220E-2,-6.003919840E-1
2.088698341E0,1.230876803E0,2.314218730E-1,-6.291532516E-1
2.091177560E0,1.233007193E0,3.283580840E-1,-6.515231729E-1
2.093656779E0,1.246855259E0,3.507279754E-1,-6.472622156E-1
2.096135997E0,1.268159866E0,3.113143444E-1,-6.216966510E-1
2.098615216E0,1.280942678E0,2.942706347E-1,-5.993267298E-1
2.101094383E0,1.258572817E0,3.336842358E-1,-5.790873170E-1
2.103573602E0,1.194658875E0,4.018591642E-1,-5.524564981E-1
2.105978237E0,1.136070967E0,3.794892728E-1,-4.970643520E-1
2.108457352E0,1.169093251E0,1.888125539E-1,-3.884105980E-1
2.110936570E0,1.239398599E0,3.861469775E-2,-2.914743721E-1
2.113415789E0,1.288399339E0,-9.320789017E-3,-2.382127345E-1
2.115895008E0,1.301182151E0,-7.190322969E-3,-2.222342342E-1
2.118374227E0,1.275616527E0,5.778888986E-2,-2.350170314E-1
2.120853445E0,1.228746295E0,9.933298081E-2,-2.509955168E-1
2.123332612E0,1.170158505E0,9.826774895E-2,-2.605826259E-1
2.125811883E0,1.099853039E0,1.046591476E-1,-2.733654380E-1
2.128291050E0,1.015566587E0,1.291595101E-1,-3.042571843E-1
2.130770268E0,9.793485999E-1,2.902759984E-2,-3.234313726E-1
2.133249487E0,1.017696977E0,-1.754971445E-1,-3.021267056E-1
2.135728706E0,1.083874583E0,-3.139774203E-1,-2.733654380E-1
2.138111987E0,1.154179931E0,-3.693695366E-1,-2.595174015E-1
2.140591102E0,1.227681041E0,-3.704347908E-1,-2.499302924E-1
2.143070320E0,1.311834455E0,-3.480648994E-1,-2.403431982E-1
2.145549539E0,1.387466073E0,-2.830856740E-1,-2.403431982E-1
2.148028758E0,1.454575658E0,-2.266283184E-1,-2.318213433E-1
2.150507977E0,1.482271791E0,-1.371487528E-1,-2.126471400E-1
2.152987195E0,1.462032318E0,-5.193011090E-2,-1.998643428E-1
2.155466414E0,1.422618747E0,1.304910425E-2,-1.711030602E-1
2.157945633E0,1.383205056E0,6.524552405E-2,-1.380808353E-1
2.160424800E0,1.348052382E0,9.400681406E-2,-1.093195379E-1
2.162904018E0,1.294790745E0,1.366161406E-1,-9.866721183E-2
2.165383237E0,1.235137701E0,1.760297567E-1,-9.973244369E-2
2.167862456E0,1.173354149E0,2.207695395E-1,-9.760197252E-2
2.170092664E0,1.113701105E0,2.665745616E-1,-8.908011019E-2
2.172571831E0,1.064700365E0,2.900096774E-1,-6.671021879E-2
2.175051050E0,1.026218891E0,2.995967865E-1,-2.836182900E-2
2.177530216E0,9.900009632E-1,3.049229383E-1,6.790860556E-3
2.180009435E0,9.420654774E-1,3.059881926E-1,4.300878197E-2
2.182488654E0,8.653686643E-1,3.283580840E-1,4.940018058E-2
2.184967872E0,7.556496859E-1,3.784240186E-1,2.489982173E-2
2.187447091E0,6.288869381E-1,3.549889028E-1,4.660394508E-3
2.189926310E0,5.031894445E-1,3.113143444E-1,-1.557903271E-2
2.192405529E0,4.083836973E-1,1.888125539E-1,-9.187635034E-3
2.194884747E0,3.892095089E-1,-3.488638252E-2,4.726971686E-2
2.197363914E0,4.094489515E-1,-2.234326303E-1,1.058575287E-1
2.199843133E0,3.987966180E-1,-2.756290436E-1,1.015966013E-1
2.202350841E0,3.625786901E-1,-2.948032320E-1,9.200949967E-2
2.204829956E0,3.402087986E-1,-3.459344208E-1,1.079879999E-1
2.207309175E0,3.306216896E-1,-4.087831676E-1,1.186403260E-1
2.209788393E0,3.210346103E-1,-4.620448351E-1,1.133141592E-1
2.212267612E0,3.167736828E-1,-5.195674300E-1,1.047922969E-1
2.214746831E0,3.444697261E-1,-6.367430687E-1,1.154446304E-1
2.217226050E0,3.838833570E-1,-7.645710111E-1,1.197055578E-1
2.219705216E0,4.051880240E-1,-8.412677646E-1,1.197055578E-1
2.222184435E0,4.019923210E-1,-8.625724316E-1,1.047922969E-1
2.224663654E0,3.679048419E-1,-8.295502067E-1,6.963960826E-2
2.227142872E0,3.071865737E-1,-7.603100538E-1,3.129122034E-2
2.229622091E0,2.794905007E-1,-7.997236848E-1,2.383458801E-2
2.232101310E0,3.210346103E-1,-9.328778386E-1,5.153064802E-2
2.234486466E0,4.169055820E-1,-1.112902164E0,9.094426781E-2
2.236965581E0,5.532553792E-1,-1.240730166E0,1.111836955E-1
2.239444800E0,7.364754677E-1,-1.322753072E0,1.005313694E-1
2.241924018E0,9.495220780E-1,-1.360169411E0,3.235645220E-2
2.244403237E0,1.045393109E0,-1.166163802E0,-6.884068251E-2
2.246882456E0,9.633701444E-1,-8.700290918E-1,-1.423417628E-1
2.249361675E0,7.876066566E-1,-6.878741980E-1,-1.583202630E-1
2.251840841E0,6.075822711E-1,-5.749595165E-1,-1.348851323E-1
2.254320112E0,4.286231399E-1,-4.556534290E-1,-1.242327988E-1
2.256799279E0,2.848166823E-1,-3.576519787E-1,-1.316894293E-1
2.259278497E0,2.134460658E-1,-3.171731234E-1,-1.444722265E-1
2.261757716E0,2.049241960E-1,-2.820204496E-1,-1.583202630E-1
2.264236935E0,2.528596818E-1,-2.511286736E-1,-1.647116542E-1
2.266619331E0,3.359478712E-1,-2.202369273E-1,-1.668421179E-1
2.269098445E0,4.488625526E-1,-2.319544852E-1,-1.679073572E-1
2.271577664E0,5.628424883E-1,-2.181064636E-1,-1.679073572E-1
2.274056883E0,6.661701202E-1,-1.360835135E-1,-1.497983932E-1
2.276536102E0,7.332797647E-1,-2.636451647E-2,-1.370155960E-1
2.279015320E0,7.908023596E-1,3.462007269E-3,-1.252980381E-1
2.281494539E0,8.536511064E-1,-3.595161438E-2,-1.071890742E-1
2.283973758E0,8.941299915E-1,-7.323476672E-2,-9.760197252E-2
2.286452977E0,9.164998531E-1,-1.137136221E-1,-9.866721183E-2
2.288932143E0,9.282174110E-1,-1.563229412E-1,-9.653674066E-2
2.291411362E0,9.303479195E-1,-1.914756298E-1,-8.694964647E-2
2.293890581E0,9.292826653E-1,-2.181064636E-1,-8.055824786E-2
2.296369800E0,9.239565134E-1,-2.447372824E-1,-7.310161740E-2
2.298754747E0,9.196955562E-1,-2.596505582E-1,-6.777545065E-2
2.301233862E0,9.143694043E-1,-2.617810071E-1,-7.310161740E-2
2.303713081E0,9.026518464E-1,-2.532591522E-1,-6.777545065E-2
2.306192300E0,8.728253245E-1,-2.117150575E-1,-6.990591437E-2
2.308671518E0,8.515206575E-1,-2.063889056E-1,-7.523208112E-2
2.311150737E0,8.419335485E-1,-2.287587970E-1,-6.457975507E-2
2.313629956E0,8.493902087E-1,-2.607157826E-1,-3.475322574E-2
2.316109175E0,8.749557734E-1,-2.873466015E-1,-8.122402243E-3
2.318588393E0,8.909342885E-1,-2.724333405E-1,-3.861469682E-3
2.321067560E0,8.941299915E-1,-2.394111156E-1,-2.090519853E-2
2.323546779E0,8.973256946E-1,-2.095845938E-1,-4.434032366E-2
2.326025997E0,8.994561434E-1,-1.872147024E-1,-5.925358832E-2
2.328505216E0,9.047822952E-1,-1.659100503E-1,-7.842778414E-2
2.330887612E0,9.122389555E-1,-1.573881805E-1,-8.908011019E-2
2.333366779E0,9.196955562E-1,-1.573881805E-1,-9.440627694E-2
2.335845997E0,9.239565134E-1,-1.478010863E-1,-9.760197252E-2
2.338325216E0,9.282174110E-1,-1.328878254E-1,-9.440627694E-2
2.340804435E0,9.356740713E-1,-1.094526947E-1,-8.908011019E-2
2.343283654E0,9.473916292E-1,-8.814803511E-2,-7.842778414E-2
2.345762872E0,9.495220780E-1,-8.388710022E-2,-5.712312087E-2
2.348242091E0,9.441959262E-1,-9.880036116E-2,-3.581846133E-2
2.350721258E0,9.356740713E-1,-1.286268830E-1,-9.187635034E-3
2.353200477E0,9.218260050E-1,-1.712362021E-1,1.850842312E-2
2.355679695E0,8.983908892E-1,-2.244978547E-1,3.874785081E-2
2.358158914E0,8.643034697E-1,-2.820204496E-1,5.259587988E-2
2.360638133E0,8.270202875E-1,-3.427387178E-1,6.431344151E-2
2.363012300E0,7.865414619E-1,-4.023917615E-1,6.537867337E-2
2.365491414E0,7.460625768E-1,-4.684362113E-1,6.324820966E-2
2.367970633E0,7.034532428E-1,-5.280892849E-1,6.218297780E-2
2.370449852E0,6.608439088E-1,-5.802856684E-1,5.366111174E-2
2.372929070E0,6.182346344E-1,-6.388735175E-1,4.300878197E-2
2.375408289E0,5.681686401E-1,-6.889394522E-1,3.661738336E-2
2.377887508E0,5.138418078E-1,-7.272878289E-1,2.916075476E-2
2.380366727E0,4.616453648E-1,-7.528534532E-1,2.383458801E-2
2.382845945E0,4.105141759E-1,-7.592448592E-1,1.637795754E-2
2.385325112E0,3.583177626E-1,-7.571143508E-1,-3.861469682E-3
2.387804331E0,3.189041317E-1,-7.560491562E-1,-3.155753016E-2
2.390283550E0,2.880123854E-1,-7.581796050E-1,-6.244928762E-2
2.392762768E0,2.677729428E-1,-7.592448592E-1,-9.227581322E-2
2.395140425E0,2.549901605E-1,-7.464620471E-1,-1.231675670E-1
2.397619539E0,2.368811965E-1,-7.219616771E-1,-1.540593207E-1
2.400098758E0,2.113156021E-1,-6.878741980E-1,-1.817553788E-1
2.402577977E0,1.889457107E-1,-6.633738875E-1,-1.966686398E-1
2.405057195E0,1.676410437E-1,-6.441996694E-1,-2.051905096E-1
2.407536414E0,1.442059278E-1,-6.260907054E-1,-2.094514370E-1
2.410015633E0,1.186403260E-1,-6.143731475E-1,-2.073209733E-1
2.412494852E0,9.094426781E-2,-5.951989293E-1,-2.030600458E-1
2.414974070E0,6.218297780E-2,-5.728290677E-1,-1.956034154E-1
2.417453237E0,3.342168778E-2,-5.579158068E-1,-1.785596907E-1
2.419932456E0,9.986559860E-3,-5.579158068E-1,-1.561897993E-1
2.422411675E0,-1.238333434E-2,-5.653724074E-1,-1.455374658E-1
2.424890893E0,-3.049229458E-2,-5.866770744E-1,-1.529940963E-1
2.427140633E0,-4.434032366E-2,-6.111774445E-1,-1.668421179E-1
2.429619747E0,-5.925358832E-2,-6.346125603E-1,-1.838858575E-1
2.432098966E0,-6.990591437E-2,-6.484606266E-1,-2.073209733E-1
2.434578185E0,-6.564498693E-2,-6.761566401E-1,-2.222342342E-1
2.437057404E0,-5.499265343E-2,-7.038527131E-1,-2.414084375E-1
2.439536622E0,-4.647079110E-2,-6.995918155E-1,-2.605826259E-1
2.442015841E0,-4.220985994E-2,-6.505910754E-1,-2.733654380E-1
2.444495060E0,-2.836182900E-2,-6.378082633E-1,-2.776263654E-1
2.446974279E0,-6.657706108E-4,-6.324821115E-1,-2.957353294E-1
2.449453445E0,3.022598661E-2,-6.260907054E-1,-3.170399666E-1
2.451932664E0,5.579157919E-2,-5.973294377E-1,-3.415403366E-1
2.454411883E0,7.816147059E-2,-5.600462556E-1,-3.639102280E-1
2.456891102E0,1.079879999E-1,-5.312849879E-1,-3.884105980E-1
2.459397404E0,1.271621883E-1,-4.940018058E-1,-4.171718955E-1
2.461876518E0,1.420754492E-1,-4.524577260E-1,-4.384765327E-1
2.464355737E0,1.548582464E-1,-4.055874646E-1,-4.523245692E-1
2.466834956E0,1.623148769E-1,-3.576519787E-1,-4.629769027E-1
2.469314175E0,1.676410437E-1,-3.107817471E-1,-4.672378302E-1
2.471793393E0,1.750976741E-1,-2.585853040E-1,-4.608464241E-1
2.474272612E0,1.825543046E-1,-2.074541301E-1,-4.523245692E-1
2.476751831E0,1.910761744E-1,-1.552577168E-1,-4.427374899E-1
2.479231050E0,2.017285079E-1,-9.560466558E-2,-4.331503808E-1
2.481710216E0,2.155765295E-1,-3.062544949E-2,-4.171718955E-1
2.484189435E0,2.315550297E-1,2.583190054E-2,-4.054543078E-1
2.486668654E0,2.454030514E-1,6.631075591E-2,-4.033238590E-1
2.489147872E0,2.528596818E-1,9.507204592E-2,-4.097152650E-1
2.491388445E0,2.507292330E-1,9.826774895E-2,-4.214328229E-1
2.493867664E0,2.368811965E-1,7.696308941E-2,-4.395417869E-1
2.496346883E0,2.113156021E-1,5.565842614E-2,-4.640421271E-1
2.498826102E0,1.761629134E-1,3.861469775E-2,-4.832163453E-1
2.501305320E0,1.420754492E-1,1.304910425E-2,-5.066514611E-1
2.503784539E0,1.069227681E-1,-1.571218669E-2,-5.343475342E-1
2.506263758E0,5.685681105E-2,1.331541222E-3,-5.726959109E-1
2.508742925E0,-4.926702939E-3,2.902759984E-2,-6.216966510E-1
2.511222143E0,-6.244928762E-2,1.731003635E-2,-6.813496947E-1
2.513701362E0,-1.231675670E-1,-1.251648832E-2,-7.537854910E-1
2.516180581E0,-1.817553788E-1,-4.234301299E-2,-8.294170499E-1
2.518659800E0,-2.414084375E-1,-4.979964346E-2,-9.103747606E-1
2.521180945E0,-3.010614812E-1,-4.127778113E-2,-9.913324714E-1
2.523660060E0,-3.575188220E-1,-1.784265228E-2,-1.077616334E0
2.526139279E0,-4.129109383E-1,3.115806542E-2,-1.151117444E0
2.528618497E0,-4.544550478E-1,7.696308941E-2,-1.200118184E0
2.531097716E0,-4.959991276E-1,1.366161406E-1,-1.224618554E0
2.533576935E0,-5.300865769E-1,2.005301118E-1,-1.234205604E0
2.536056154E0,-5.535216928E-1,2.633788586E-1,-1.224618554E0
2.538535372E0,-5.705654621E-1,3.145100474E-1,-1.203313828E0
2.541014591E0,-5.801525116E-1,3.549889028E-1,-1.164965510E0
2.543493758E0,-5.950657725E-1,3.773587942E-1,-1.123421431E0
2.545972977E0,-6.078485847E-1,3.837502003E-1,-1.088268638E0
2.548452195E0,-6.163704395E-1,3.794892728E-1,-1.054181218E0
2.550931414E0,-6.259575486E-1,3.571193814E-1,-1.020093799E0
2.553311258E0,-6.398055553E-1,3.219666779E-1,-9.860063195E-1
2.555790372E0,-6.568493247E-1,2.793573737E-1,-9.508536458E-1
2.558269591E0,-6.845453978E-1,2.335523367E-1,-9.231575727E-1
2.560748810E0,-7.122414112E-1,1.792254597E-1,-9.061138630E-1
2.563228029E0,-7.356765866E-1,1.344856620E-1,-8.954614997E-1
2.565707247E0,-7.633726001E-1,7.696308941E-2,-8.901353478E-1
2.568186466E0,-7.889382243E-1,-2.929390874E-3,-8.869396448E-1
2.570665685E0,-8.176994920E-1,-8.175663650E-2,-8.752220869E-1
2.573144904E0,-8.485912681E-1,-1.541924775E-1,-8.624392748E-1
2.575624070E0,-8.837439418E-1,-2.255630940E-1,-8.539174199E-1
2.578103289E0,-9.242228270E-1,-2.852161527E-1,-8.517869711E-1
2.580582508E0,-9.636363983E-1,-3.395430148E-1,-8.560478687E-1
2.583061727E0,-1.009441495E0,-3.864132762E-1,-8.730916381E-1
2.585410320E0,-1.055246472E0,-4.205007255E-1,-8.890700936E-1
2.587887925E0,-1.094660044E0,-4.343487620E-1,-9.050486088E-1
2.590365581E0,-1.137269378E0,-4.343487620E-1,-9.316794276E-1
2.592843237E0,-1.172422051E0,-4.322183132E-1,-9.497883916E-1
2.595320893E0,-1.201183438E0,-4.226312041E-1,-9.615059495E-1
2.597798550E0,-1.226748943E0,-4.151745737E-1,-9.519188404E-1
2.600276206E0,-1.250184059E0,-3.981308341E-1,-9.263532758E-1
2.602753862E0,-1.274684429E0,-3.651086092E-1,-9.061138630E-1
2.605231518E0,-1.292793393E0,-3.416734934E-1,-8.880048990E-1
2.607709175E0,-1.305576205E0,-3.139774203E-1,-8.794830441E-1
2.610186831E0,-1.325815678E0,-2.628462613E-1,-8.784177899E-1
2.612664487E0,-1.346055031E0,-2.372806519E-1,-8.880048990E-1
2.615142143E0,-1.360968351E0,-2.362154275E-1,-8.975919485E-1
2.617570945E0,-1.379077315E0,-2.415415943E-1,-9.039833546E-1
2.620048550E0,-1.414229989E0,-2.489982247E-1,-8.933310509E-1
2.622526206E0,-1.440860868E0,-2.926727831E-1,-8.880048990E-1
2.625003862E0,-1.468556881E0,-3.512606025E-1,-8.730916381E-1
2.627481518E0,-1.487731099E0,-3.960003853E-1,-8.549826741E-1
2.629959175E0,-1.491991997E0,-4.418053925E-1,-8.603088260E-1
2.632436831E0,-1.479209185E0,-4.897408783E-1,-8.848091960E-1
2.634914487E0,-1.448317409E0,-5.078498721E-1,-9.231575727E-1
2.637392143E0,-1.404642940E0,-5.046541691E-1,-9.647016525E-1
2.639869852E0,-1.346055031E0,-4.609795809E-1,-9.966586232E-1
2.642347508E0,-1.276814938E0,-3.757609427E-1,-1.017963290E0
2.644825164E0,-1.200118184E0,-2.575200796E-1,-1.008376241E0
2.647302820E0,-1.109573364E0,-1.126483902E-1,-9.700278044E-1
2.649697977E0,-1.000919580E0,3.754946589E-2,-8.997224569E-1
2.652175581E0,-8.773525357E-1,1.856168509E-1,-8.219604492E-1
2.654653237E0,-7.537854910E-1,3.443365693E-1,-7.548507452E-1
2.657130893E0,-6.344794035E-1,4.977301359E-1,-6.962629557E-1
2.659608550E0,-5.141080618E-1,6.266233325E-1,-6.440665126E-1
2.662086206E0,-4.043890834E-1,7.395380139E-1,-5.982614756E-1
2.664563862E0,-3.106485903E-1,8.439308405E-1,-5.673697591E-1
2.667041518E0,-2.382127345E-1,9.312799573E-1,-5.535216928E-1
2.669519175E0,-1.870815456E-1,1.014368176E0,-5.322170258E-1
2.671996883E0,-1.551245600E-1,1.108108640E0,-5.013253093E-1
2.674474539E0,-1.263632625E-1,1.198653460E0,-4.693683088E-1
2.676952195E0,-9.760197252E-2,1.281741619E0,-4.171718955E-1
2.679429852E0,-6.671021879E-2,1.361634135E0,-3.436708152E-1
2.681828081E0,-3.262276202E-2,1.434069991E0,-2.446041405E-1
2.684305685E0,-2.197043039E-2,1.474548817E0,-1.860163212E-1
2.686783341E0,-3.794892505E-2,1.497983932E0,-1.487331539E-1
2.689260997E0,-5.818835273E-2,1.491592526E0,-9.121058136E-2
2.691738706E0,-9.760197252E-2,1.480940223E0,-4.966649041E-2
2.694216310E0,-1.327546686E-1,1.433004737E0,-7.057168987E-3
2.696693966E0,-1.711030602E-1,1.368025541E0,1.637795754E-2
2.699171622E0,-2.030600458E-1,1.327546597E0,3.874785081E-2
2.701649279E0,-2.371474952E-1,1.300915837E0,2.916075476E-2
2.704126987E0,-2.680392563E-1,1.261502266E0,5.725627299E-3
2.706604643E0,-2.786915898E-1,1.256175995E0,-1.557903271E-2
2.709082300E0,-2.829525173E-1,1.339264274E0,-1.093195379E-1
2.711559956E0,-2.477998286E-1,1.417026281E0,-2.296908647E-1
2.713924018E0,-1.828206182E-1,1.455374599E0,-2.882786989E-1
2.716401622E0,-1.178414002E-1,1.515027642E0,-3.596493006E-1
2.718879279E0,-8.588441461E-2,1.582137346E0,-5.173037648E-1
2.721356935E0,-7.523208112E-2,1.631138086E0,-7.452636361E-1
2.723834591E0,-4.327509180E-2,1.704639196E0,-8.954614997E-1
2.726312247E0,-8.122402243E-3,1.744052768E0,-9.764192104E-1
2.728789904E0,2.170412242E-2,1.754705071E0,-1.074420691E0
2.731267612E0,4.726971686E-2,1.799444914E0,-1.197987676E0
2.733745216E0,6.111774594E-2,1.859097958E0,-1.340728879E0
2.736222872E0,6.324820966E-2,1.925142407E0,-1.467491627E0
2.738700529E0,4.940018058E-2,1.992252111E0,-1.564427853E0
2.741178185E0,2.383458801E-2,2.044448376E0,-1.653907418E0
2.743655841E0,-3.861469682E-3,2.121145248E0,-1.733799934E0
2.746071570E0,-1.770949923E-2,2.225538015E0,-1.797713876E0
2.748549175E0,-1.131810062E-2,2.348039865E0,-1.834997058E0
2.751026883E0,2.703028731E-2,2.367214203E0,-1.854171276E0
2.753504487E0,6.857437640E-2,2.269212723E0,-1.873345375E0
2.755982143E0,1.015966013E-1,2.171211243E0,-1.882932544E0
2.758459800E0,1.122489274E-1,2.114753962E0,-1.868019223E0
2.760937456E0,9.307473898E-2,2.115818977E0,-1.824344754E0
2.763415112E0,6.218297780E-2,2.132862806E0,-1.761495948E0
2.765892768E0,2.596505545E-2,2.133928061E0,-1.690125346E0
2.768370477E0,-6.657706108E-4,2.107297182E0,-1.626211405E0
2.770848133E0,-1.131810062E-2,2.049774647E0,-1.567623496E0
2.773325789E0,-3.049229458E-2,1.977338791E0,-1.503709555E0
2.775803445E0,-6.244928762E-2,1.917685747E0,-1.457904577E0
2.778215789E0,-8.908011019E-2,1.723813295E0,-1.429143310E0
2.780693393E0,-1.252980381E-1,1.422352433E0,-1.411034346E0
2.783171050E0,-1.924077123E-1,1.134739518E0,-1.393990517E0
2.785648706E0,-2.797568142E-1,8.918663263E-1,-1.368425012E0
2.788126362E0,-3.777582645E-1,7.011896372E-1,-1.339663625E0
2.790604018E0,-4.714987576E-1,5.669702888E-1,-1.301315308E0
2.793081675E0,-5.481955409E-1,4.849473238E-1,-1.264032125E0
2.795559331E0,-5.950657725E-1,4.316856861E-1,-1.238466501E0
2.798036987E0,-6.163704395E-1,4.018591642E-1,-1.217161894E0
2.800514695E0,-6.078485847E-1,3.890763521E-1,-1.200118184E0
2.802992352E0,-5.865439177E-1,3.944025338E-1,-1.200118184E0
2.805470008E0,-5.609783530E-1,4.018591642E-1,-1.219292402E0
2.807947664E0,-5.311518312E-1,4.220985770E-1,-1.244857907E0
2.810193185E0,-5.023905039E-1,4.572512805E-1,-1.281075835E0
2.812670789E0,-4.746944606E-1,5.137086511E-1,-1.324750423E0
2.815148445E0,-4.501941204E-1,5.978620052E-1,-1.363098860E0
2.817626102E0,-4.256937504E-1,7.331466079E-1,-1.405708075E0
2.820103758E0,-3.990629315E-1,9.035838842E-1,-1.438730359E0
2.822581414E0,-3.511274457E-1,9.270190597E-1,-1.456839323E0
2.825059070E0,-3.021267056E-1,7.885387540E-1,-1.470687389E0
2.827536727E0,-2.946700752E-1,5.861444473E-1,-1.501579046E0
2.830014383E0,-3.447360396E-1,4.668383598E-1,-1.568688750E0
2.832492039E0,-4.097152650E-1,4.753602445E-1,-1.635798454E0
2.834969695E0,-4.438027143E-1,5.403394699E-1,-1.679473042E0
2.837447352E0,-4.416722357E-1,5.722964406E-1,-1.689060092E0
2.839925008E0,-4.310199022E-1,5.360785127E-1,-1.677342534E0
2.842471466E0,-4.214328229E-1,4.551208019E-1,-1.658168316E0
2.844949070E0,-4.214328229E-1,3.539236784E-1,-1.654972672E0
2.847426727E0,-4.363460839E-1,2.601831555E-1,-1.668820739E0
2.849904383E0,-4.597811997E-1,1.856168509E-1,-1.693320990E0
2.852382039E0,-4.864120185E-1,1.291595101E-1,-1.708234310E0
2.854859695E0,-5.045210123E-1,9.294158220E-2,-1.695451498E0
2.857337352E0,-5.034557581E-1,6.204982474E-2,-1.649646521E0
2.859815008E0,-4.928034246E-1,3.648423031E-2,-1.582536817E0
2.862292664E0,-4.800206423E-1,9.853405878E-3,-1.500513911E0
2.864770372E0,-4.587159753E-1,-1.997311972E-2,-1.415295243E0
2.867248029E0,-4.438027143E-1,-4.873441160E-2,-1.340728879E0
2.869725685E0,-4.320851564E-1,-7.003907114E-2,-1.275749683E0
2.872203341E0,-4.203675687E-1,-8.282186836E-2,-1.229944706E0
2.874593133E0,-4.075847864E-1,-1.105179265E-1,-1.199052930E0
2.877070737E0,-3.916063011E-1,-1.414096802E-1,-1.176683068E0
2.879548393E0,-3.724320829E-1,-1.648448110E-1,-1.166030645E0
2.882026050E0,-3.596493006E-1,-1.808233112E-1,-1.166030645E0
2.884503706E0,-3.436708152E-1,-1.946713328E-1,-1.154313087E0
2.886981362E0,-3.340837061E-1,-2.021279633E-1,-1.126617074E0
2.889459018E0,-3.234313726E-1,-2.085193694E-1,-1.099986196E0
2.891936727E0,-3.063876629E-1,-2.127802968E-1,-1.073355436E0
2.894414331E0,-2.882786989E-1,-2.149107605E-1,-1.060572624E0
2.896892039E0,-2.733654380E-1,-2.127802968E-1,-1.074420691E0
2.899369695E0,-2.541912198E-1,-2.021279633E-1,-1.106377602E0
2.901847352E0,-2.360822707E-1,-1.595186442E-1,-1.140465140E0
2.904325008E0,-2.137123793E-1,-8.388710022E-2,-1.186270118E0
2.906728602E0,-1.668421179E-1,2.796236612E-2,-1.242727518E0
2.909206206E0,-1.061238423E-1,1.312899739E-1,-1.315163374E0
2.911683914E0,-3.794892505E-2,2.505960763E-1,-1.391860127E0
2.914161518E0,3.555215150E-2,3.752283454E-1,-1.462165475E0
2.916639175E0,1.037270650E-1,5.062519908E-1,-1.519688010E0
2.919116831E0,1.633801162E-1,5.978620052E-1,-1.562297344E0
2.921594487E0,2.059894353E-1,6.575151086E-1,-1.604906678E0
2.924072195E0,2.304897904E-1,6.905373335E-1,-1.638994217E0
2.926549800E0,2.485987544E-1,7.107767463E-1,-1.668820739E0
2.929027508E0,2.688381970E-1,7.278204560E-1,-1.726343274E0
2.931505112E0,2.901428342E-1,7.395380139E-1,-1.795583367E0
2.933982820E0,3.114475012E-1,7.597774267E-1,-1.866953969E0
2.936460477E0,3.370130956E-1,8.364742398E-1,-1.925541878E0
2.938859695E0,3.561872840E-1,9.312799573E-1,-1.974542618E0
2.941337300E0,3.668396175E-1,1.001585364E0,-2.029934645E0
2.943814956E0,3.764267266E-1,1.048455596E0,-2.089587688E0
2.946292612E0,3.732310236E-1,1.051651359E0,-2.134327412E0
2.948770268E0,3.604482114E-1,9.962592125E-1,-2.149374008E0
2.951247977E0,3.434045017E-1,8.971925378E-1,-2.130066633E0
2.953725581E0,3.029256463E-1,7.661688328E-1,-2.086391926E0
2.956203237E0,2.475335300E-1,6.202319264E-1,-2.023543358E0
2.958680893E0,1.868152469E-1,4.721645415E-1,-1.947911739E0
2.961158602E0,1.303578913E-1,3.240971565E-1,-1.870149732E0
2.963636258E0,7.283531129E-2,1.792254597E-1,-1.794518232E0
2.966113914E0,1.744319126E-2,4.713656008E-2,-1.727408528E0
2.968591570E0,-3.262276202E-2,-5.832150951E-2,-1.674146891E0
2.970958393E0,-7.523208112E-2,-1.403444558E-1,-1.623015642E0
2.973435997E0,-1.039933711E-1,-1.978670359E-1,-1.569754004E0
2.975913654E0,-1.199718714E-1,-2.298240215E-1,-1.533536077E0
2.978391310E0,-1.327546686E-1,-1.882799417E-1,-1.511166215E0
2.980868966E0,-1.817553788E-1,-4.979964346E-2,-1.497318149E0
2.983346622E0,-2.211690098E-1,-7.003907114E-2,-1.491991997E0
2.985824279E0,-2.339518070E-1,-1.946713328E-1,-1.504774809E0
2.988301935E0,-2.541912198E-1,-2.468677461E-1,-1.531405568E0
2.990779591E0,-2.797568142E-1,-2.745638192E-1,-1.553775549E0
2.993257247E0,-2.893439233E-1,-3.608476818E-1,-1.556971192E0
2.995734904E0,-2.978657782E-1,-4.599143565E-1,-1.551645041E0
2.998212560E0,-3.063876629E-1,-5.419372916E-1,-1.534601331E0
3.000690216E0,-3.149095178E-1,-6.186341047E-1,-1.503709555E0
3.003117560E0,-3.276923001E-1,-7.113093734E-1,-1.447252274E0
3.005595164E0,-3.404751122E-1,-7.954627872E-1,-1.384403467E0
3.008072820E0,-3.575188220E-1,-8.487244248E-1,-1.324750423E0
3.010550477E0,-3.777582645E-1,-8.881380558E-1,-1.268293023E0
3.013028133E0,-4.054543078E-1,-9.083774686E-1,-1.210770488E0
3.015505789E0,-4.256937504E-1,-9.083774686E-1,-1.166030645E0
3.017983445E0,-4.512593448E-1,-8.998556137E-1,-1.130877972E0
3.020461102E0,-4.821510911E-1,-8.828118443E-1,-1.102116704E0
3.022938810E0,-5.268908739E-1,-8.103760481E-1,-1.071224928E0
3.025416466E0,-5.918700695E-1,-6.143731475E-1,-1.044594169E0
3.027894122E0,-6.813496947E-1,-4.300878346E-1,-1.029680848E0
3.030371779E0,-7.591117024E-1,-3.576519787E-1,-1.033941746E0
3.032849435E0,-8.176994920E-1,-3.342168629E-1,-1.043528914E0
3.035232768E0,-8.667002320E-1,-3.310211599E-1,-1.046724558E0
3.037710372E0,-9.103747606E-1,-3.501953483E-1,-1.033941746E0
3.040188029E0,-9.476579428E-1,-3.693695366E-1,-1.008376241E0
3.042665685E0,-9.753540158E-1,-3.736304939E-1,-9.647016525E-1
3.045143341E0,-1.000919580E0,-3.810871243E-1,-8.943963051E-1
3.047620997E0,-1.027550459E0,-3.938699067E-1,-8.081123829E-1
3.050098654E0,-1.053115964E0,-3.981308341E-1,-7.196980715E-1
3.052576310E0,-1.084007740E0,-3.885437548E-1,-6.440665126E-1
3.055053966E0,-1.117030025E0,-3.757609427E-1,-5.897396207E-1
3.057531675E0,-1.148986936E0,-3.629781604E-1,-5.652392507E-1
3.060009331E0,-1.179878712E0,-3.608476818E-1,-5.652392507E-1
3.062486987E0,-1.201183438E0,-3.736304939E-1,-5.897396207E-1
3.064964643E0,-1.219292402E0,-3.928046823E-1,-6.366099119E-1
3.067373966E0,-1.237401366E0,-3.960003853E-1,-6.717625856E-1
3.069851570E0,-1.265097380E0,-3.874785006E-1,-6.888062954E-1
3.072329227E0,-1.293858647E0,-3.832175732E-1,-6.770887375E-1
3.074806883E0,-1.324750423E0,-3.853480518E-1,-6.366099119E-1
3.077284539E0,-1.335402727E0,-3.874785006E-1,-5.769568086E-1
3.079762195E0,-1.330076575E0,-3.693695366E-1,-5.055862069E-1
3.082239852E0,-1.318359017E0,-3.416734934E-1,-4.352808297E-1
3.084717508E0,-1.295989156E0,-2.937380075E-1,-3.745625615E-1
3.087195164E0,-1.270423532E0,-2.415415943E-1,-3.372794092E-1
3.089672872E0,-1.232075095E0,-1.786928326E-1,-2.989310026E-1
3.092150529E0,-1.190531015E0,-1.318225861E-1,-2.627131045E-1
3.094628185E0,-1.159639359E0,-1.115831584E-1,-2.541912198E-1
3.097105841E0,-1.152182698E0,-1.201050207E-1,-2.797568142E-1
3.099505789E0,-1.135138988E0,-6.897383928E-2,-3.138442934E-1
3.101982143E0,-1.105312467E0,3.009283356E-2,-3.340837061E-1
3.104458602E0,-1.080812097E0,1.302247345E-1,-3.521926701E-1
3.106935060E0,-1.056311727E0,2.143781483E-1,-3.692364097E-1
3.109411518E0,-1.022224188E0,2.910749316E-1,-3.820191920E-1
3.111887925E0,-9.860063195E-1,3.624455333E-1,-3.916063011E-1
3.114364383E0,-9.402012825E-1,4.295552075E-1,-3.873453438E-1
3.116840841E0,-8.943963051E-1,4.838820994E-1,-3.724320829E-1
3.119317300E0,-8.475260139E-1,5.019910336E-1,-3.649754524E-1
3.121793758E0,-8.059819341E-1,5.030562878E-1,-3.532578945E-1
3.124270216E0,-7.591117024E-1,5.126433969E-1,-3.234313726E-1
3.126746622E0,-7.196980715E-1,5.147738457E-1,-2.829525173E-1
3.129223081E0,-6.824148893E-1,5.083824396E-1,-2.350170314E-1
3.131484695E0,-6.483274698E-1,4.955996573E-1,-1.849510819E-1
3.133961154E0,-6.110442877E-1,4.764254689E-1,-1.338198930E-1
3.136437612E0,-5.790873170E-1,4.497946501E-1,-8.588441461E-2
3.138914070E0,-5.513912439E-1,4.157072008E-1,-4.327509180E-2
3.141390529E0,-5.279561281E-1,3.752283454E-1,-5.991935730E-3
3.143866935E0,-5.087819099E-1,3.368799388E-1,1.957365684E-2
3.146343393E0,-4.928034246E-1,3.059881926E-1,3.342168778E-2
3.148819852E0,-4.800206423E-1,2.868140042E-1,3.661738336E-2
3.151296258E0,-4.778901637E-1,2.793573737E-1,3.129122034E-2
3.153772768E0,-4.789553881E-1,2.750964165E-1,1.531272475E-2
3.156249175E0,-4.778901637E-1,2.719007432E-1,-4.926702939E-3
3.158725633E0,-4.778901637E-1,2.750964165E-1,-3.475322574E-2
3.161289331E0,-4.619116783E-1,2.761616707E-1,-7.523208112E-2
3.163765685E0,-4.352808297E-1,3.283580840E-1,-1.178414002E-1
3.166242143E0,-4.075847864E-1,4.615122080E-1,-1.796249151E-1
3.168718602E0,-4.043890834E-1,5.882749557E-1,-2.584521770E-1
3.171195008E0,-4.129109383E-1,6.521888971E-1,-3.298227787E-1
3.173671518E0,-4.363460839E-1,6.830806732E-1,-3.990629315E-1
3.176147925E0,-4.597811997E-1,7.224943042E-1,-4.672378302E-1
3.178624383E0,-4.736292362E-1,7.693645358E-1,-5.343475342E-1
3.181100841E0,-4.864120185E-1,8.226261735E-1,-6.078485847E-1
3.183577300E0,-5.002600551E-1,8.748226166E-1,-6.717625856E-1
3.186053706E0,-5.098471642E-1,9.334104657E-1,-7.378070354E-1
3.188530164E0,-5.247604251E-1,9.962592125E-1,-8.081123829E-1
3.191006622E0,-5.418041348E-1,1.063368917E0,-8.826786876E-1
3.193404695E0,-5.513912439E-1,1.132609010E0,-9.636363983E-1
3.195881050E0,-5.588479042E-1,1.212501526E0,-1.047789812E0
3.198357508E0,-5.620435476E-1,1.312633395E0,-1.145791292E0
3.200833966E0,-5.631088018E-1,1.423417687E0,-1.250184059E0
3.203310425E0,-5.641740561E-1,1.533136606E0,-1.366294503E0
3.205786883E0,-5.663045049E-1,1.635398984E0,-1.495187759E0
3.208263289E0,-5.641740561E-1,1.733400464E0,-1.631537557E0
3.210739747E0,-5.631088018E-1,1.829271436E0,-1.770017862E0
3.213216206E0,-5.684349537E-1,1.918751001E0,-1.909563303E0
3.215692664E0,-5.726959109E-1,1.978404045E0,-2.043782711E0
3.218169070E0,-5.631088018E-1,1.965621233E0,-2.167482853E0
3.220645529E0,-5.268908739E-1,1.861228347E0,-2.272940874E0
3.223121935E0,-4.342156053E-1,1.621550918E0,-2.347507238E0
3.225531258E0,-2.701697350E-1,1.225284338E0,-2.384790421E0
3.228007612E0,-5.179695413E-2,7.310161591E-1,-2.385855675E0
3.230484070E0,2.059894353E-1,2.452699095E-1,-2.353898764E0
3.232960529E0,4.712324440E-1,-1.723014414E-1,-2.319811106E0
3.235436987E0,7.183665037E-1,-4.854799509E-1,-2.300637007E0
3.237913445E0,9.271522164E-1,-6.953308582E-1,-2.316615582E0
3.240389852E0,1.095592141E0,-8.167673945E-1,-2.362420559E0
3.242866310E0,1.225550652E0,-8.295502067E-1,-2.432725906E0
3.245342768E0,1.315030217E0,-7.752233148E-1,-2.524335861E0
3.247819227E0,1.378944159E0,-6.782871485E-1,-2.635120153E0
3.250295633E0,1.437531948E0,-4.407401681E-1,-2.721404076E0
3.252772091E0,1.516359210E0,-9.320789017E-3,-2.749100208E0
3.255248550E0,1.572816610E0,3.166405261E-1,-2.772535324E0
3.257662977E0,1.597316861E0,5.264914036E-1,-2.795970440E0
3.260139331E0,1.596251726E0,7.129071951E-1,-2.803426981E0
3.262615789E0,1.553642392E0,9.216928482E-1,-2.781057119E0
3.265092247E0,1.470554233E0,1.178413987E0,-2.708621264E0
3.267568706E0,1.359769940E0,1.510766745E0,-2.560553789E0
3.270045164E0,1.209572077E0,1.839923739E0,-2.364551067E0
3.272521570E0,1.040066838E0,2.085992575E0,-2.139653683E0
3.274998029E0,8.557815552E-1,2.201037645E0,-1.896780610E0
3.277474487E0,6.832138300E-1,2.143515110E0,-1.648581266E0
3.279950945E0,5.117112994E-1,1.926207662E0,-1.418490887E0
3.282427352E0,3.551220596E-1,1.592789650E0,-1.207574844E0
3.284903810E0,2.187722325E-1,1.196522951E0,-1.028615594E0
3.287380268E0,9.946613014E-2,7.576469779E-1,-8.869396448E-1
3.289789331E0,1.464695437E-3,3.358147144E-1,-7.793511152E-1
3.292265685E0,-8.162347972E-2,-1.677742042E-2,-6.962629557E-1
3.294742143E0,-1.434070021E-1,-2.766942680E-1,-6.323489547E-1
3.297218602E0,-1.902772486E-1,-4.567186534E-1,-5.865439177E-1
3.299695060E0,-2.137123793E-1,-5.802856684E-1,-5.535216928E-1
3.302171518E0,-2.179733068E-1,-6.473953724E-1,-5.204994678E-1
3.304647925E0,-2.137123793E-1,-6.527215242E-1,-4.864120185E-1
3.307124383E0,-1.956034154E-1,-6.346125603E-1,-4.555202723E-1
3.309600841E0,-1.593854874E-1,-6.026555896E-1,-4.203675687E-1
3.312077300E0,-1.114500016E-1,-5.738942623E-1,-3.841496706E-1
3.314553706E0,-5.499265343E-2,-5.419372916E-1,-3.521926701E-1
3.317030164E0,9.986559860E-3,-4.918713570E-1,-3.191704452E-1
3.319506622E0,7.709623873E-2,-4.247616827E-1,-2.893439233E-1
3.321824227E0,1.431406885E-1,-3.597824574E-1,-2.627131045E-1
3.324300633E0,2.070546746E-1,-2.841508985E-1,-2.392779738E-1
3.326777091E0,2.624467909E-1,-1.968017966E-1,-2.147776037E-1
3.329253550E0,3.125127256E-1,-1.062569916E-1,-1.924077123E-1
3.331729956E0,3.529915810E-1,-3.062544949E-2,-1.764292270E-1
3.334206414E0,3.881442845E-1,2.902759984E-2,-1.647116542E-1
3.336682872E0,4.158403277E-1,5.459319428E-2,-1.615159512E-1
3.339159331E0,4.371449947E-1,4.607132822E-2,-1.636464298E-1
3.341635789E0,4.477973282E-1,2.263620123E-2,-1.785596907E-1
3.344112195E0,4.509930313E-1,2.663082560E-4,-1.977338791E-1
3.346588654E0,4.509930313E-1,-2.742975019E-2,-2.169080675E-1
3.349065112E0,4.467321038E-1,-6.045197323E-2,-2.371474952E-1
3.351541518E0,4.328840673E-1,-1.041265279E-1,-2.627131045E-1
3.354048602E0,4.147751033E-1,-1.467358470E-1,-2.840177417E-1
3.356524956E0,3.902747631E-1,-2.031932026E-1,-2.999962568E-1
3.359001414E0,3.679048419E-1,-2.671071887E-1,-3.149095178E-1
3.361477872E0,3.306216896E-1,-3.374125659E-1,-3.319532275E-1
3.363954331E0,2.901428342E-1,-4.087831676E-1,-3.458012640E-1
3.366430789E0,2.496639937E-1,-4.844147265E-1,-3.639102280E-1
3.368907195E0,2.081198990E-1,-5.536548495E-1,-3.830844164E-1
3.371383602E0,1.687062830E-1,-6.122426987E-1,-3.990629315E-1
3.373860112E0,1.292926520E-1,-6.612433791E-1,-4.182371199E-1
3.376336570E0,9.840089828E-2,-6.910699010E-1,-4.342156053E-1
3.378812977E0,6.963960826E-2,-7.038527131E-1,-4.480636418E-1
3.381289435E0,4.833494872E-2,-7.027874589E-1,-4.597811997E-1
3.383765893E0,2.809552103E-2,-6.878741980E-1,-4.757596850E-1
3.386172820E0,1.531272475E-2,-6.718957424E-1,-4.874772727E-1
3.388649175E0,8.921326138E-3,-6.473953724E-1,-5.023905039E-1
3.391125581E0,6.790860556E-3,-6.196992993E-1,-5.162385702E-1
3.393602091E0,7.856093347E-3,-6.005251408E-1,-5.322170258E-1
3.396078550E0,1.211702544E-2,-5.909380317E-1,-5.524564981E-1
3.398555008E0,2.489982173E-2,-5.824161768E-1,-5.737611651E-1
3.401031414E0,3.768261895E-2,-5.781552196E-1,-6.003919840E-1
3.403507872E0,4.940018058E-2,-5.781552196E-1,-6.312837005E-1
3.405984331E0,6.431344151E-2,-5.792204738E-1,-6.643059254E-1
3.408460789E0,7.496577501E-2,-5.792204738E-1,-7.026543617E-1
3.410937195E0,8.561810106E-2,-5.898727775E-1,-7.452636361E-1
3.413413654E0,9.307473898E-2,-6.005251408E-1,-7.921339273E-1
3.415890112E0,9.946613014E-2,-6.079817414E-1,-8.411346078E-1
3.418301050E0,9.840089828E-2,-6.111774445E-1,-8.954614997E-1
3.420777404E0,9.627043456E-2,-6.186341047E-1,-9.497883916E-1
3.423253810E0,8.987903595E-2,-6.218297482E-1,-1.003050089E0
3.425730320E0,8.029194176E-2,-6.271559596E-1,-1.060572624E0
3.428206779E0,6.644391268E-2,-6.271559596E-1,-1.114899516E0
3.430683237E0,5.153064802E-2,-6.239602566E-1,-1.166030645E0
3.433159643E0,3.342168778E-2,-6.175688505E-1,-1.221422791E0
3.435636102E0,1.744319126E-2,-6.069164872E-1,-1.276814938E0
3.438112560E0,-1.731003635E-3,-5.941337347E-1,-1.332207084E0
3.440589018E0,-1.557903271E-2,-5.834813714E-1,-1.391860127E0
3.443065425E0,-2.197043039E-2,-5.643072128E-1,-1.452578425E0
3.445541883E0,-2.836182900E-2,-5.355458856E-1,-1.510100961E0
3.448018341E0,-3.794892505E-2,-5.035889149E-1,-1.569754004E0
3.450318550E0,-4.540555924E-2,-4.652405083E-1,-1.632602811E0
3.452794956E0,-5.073172227E-2,-4.205007255E-1,-1.693320990E0
3.455271414E0,-5.712312087E-2,-3.683043122E-1,-1.756169796E0
3.457747872E0,-6.031882018E-2,-3.193036020E-1,-1.814757586E0
3.460224331E0,-7.097115368E-2,-2.724333405E-1,-1.874410629E0
3.462700737E0,-8.588441461E-2,-2.308892608E-1,-1.938324690E0
3.465177195E0,-1.103847697E-1,-1.946713328E-1,-2.003303766E0
3.467653654E0,-1.434070021E-1,-1.488663107E-1,-2.064022064E0
3.470130112E0,-1.870815456E-1,-1.030612960E-1,-2.135392666E0
3.472606518E0,-2.382127345E-1,-5.725627393E-2,-2.204766035E0
3.475082977E0,-2.999962568E-1,-1.251648832E-2,-2.271875620E0
3.477559435E0,-3.713668585E-1,1.304910425E-2,-2.337920189E0
3.480035893E0,-4.427374899E-1,1.411433797E-2,-2.397573233E0
3.482560581E0,-5.023905039E-1,-7.190322969E-3,-2.455095768E0
3.485036935E0,-5.513912439E-1,-5.832150951E-2,-2.506227016E0
3.487513393E0,-5.950657725E-1,-1.275616586E-1,-2.549901485E0
3.489989852E0,-6.227618456E-1,-2.117150575E-1,-2.582923889E0
3.492466310E0,-6.376751065E-1,-3.043903410E-1,-2.611685038E0
3.494942768E0,-6.419360638E-1,-3.896089792E-1,-2.639381170E0
3.497419175E0,-6.259575486E-1,-4.599143565E-1,-2.661751032E0
3.499895633E0,-6.067833900E-1,-5.174369216E-1,-2.686251402E0
3.502372091E0,-5.844134688E-1,-5.525896549E-1,-2.719273567E0
3.504848550E0,-5.588479042E-1,-5.653724074E-1,-2.755491495E0
3.507324956E0,-5.279561281E-1,-5.504591465E-1,-2.788513660E0
3.509801414E0,-5.034557581E-1,-5.025236607E-1,-2.822601318E0
3.512277872E0,-4.970643520E-1,-4.215659797E-1,-2.860949516E0
3.514696258E0,-5.066514611E-1,-2.990641594E-1,-2.900363207E0
3.517172612E0,-5.258256793E-1,-1.541924775E-1,-2.938711643E0
3.519649070E0,-5.460650921E-1,-1.571218669E-2,-2.960016251E0
3.522125529E0,-5.577826500E-1,1.089200750E-1,-2.962146759E0
3.524601987E0,-5.556522012E-1,2.143781483E-1,-2.951494455E0
3.527078445E0,-5.407389402E-1,3.027924895E-1,-2.920602560E0
3.529554852E0,-5.173037648E-1,3.560541272E-1,-2.851362467E0
3.532031310E0,-4.928034246E-1,3.613803089E-1,-2.748034954E0
3.534507768E0,-4.693683088E-1,3.507279754E-1,-2.598902225E0
3.536984227E0,-4.501941204E-1,3.784240186E-1,-2.399703741E0
3.539460633E0,-4.267589748E-1,4.508598745E-1,-2.166417599E0
3.541937091E0,-3.958672285E-1,5.456656218E-1,-1.913824320E0
3.544413550E0,-3.596493006E-1,6.351451874E-1,-1.649646521E0
3.546818602E0,-3.138442934E-1,7.129071951E-1,-1.382272959E0
3.549294956E0,-2.712349594E-1,7.725602388E-1,-1.128747582E0
3.551771414E0,-2.318213433E-1,7.991910577E-1,-8.912006021E-1
3.554247872E0,-1.924077123E-1,8.002563119E-1,-6.738930345E-1
3.556724331E0,-1.466026902E-1,7.725602388E-1,-4.714987576E-1
3.559200789E0,-1.007976755E-1,7.043853402E-1,-2.999962568E-1
3.561677195E0,-5.179695413E-2,5.946663618E-1,-1.487331539E-1
3.564153654E0,-2.796236658E-3,4.476641715E-1,-2.090519853E-2
3.566630112E0,4.300878197E-2,2.804225981E-1,8.242240548E-2
3.569106570E0,7.390054315E-2,1.153114736E-1,1.623148769E-1
3.571582977E0,9.946613014E-2,-4.873441160E-2,2.145113051E-1
3.574059435E0,1.271621883E-1,-2.074541301E-1,2.507292330E-1
3.576535893E0,1.505973190E-1,-3.597824574E-1,2.709686458E-1
3.578946727E0,1.740324497E-1,-4.993279874E-1,2.667077184E-1
3.581423081E0,1.985328048E-1,-6.228950024E-1,2.422073632E-1
3.583899539E0,2.219679356E-1,-7.315487862E-1,2.017285079E-1
3.586375997E0,2.464682907E-1,-8.188979030E-1,1.431406885E-1
3.588852456E0,2.741643488E-1,-8.892032504E-1,7.390054315E-2
3.591328862E0,3.029256463E-1,-9.382039905E-1,-2.796236658E-3
3.593805320E0,3.306216896E-1,-9.680305123E-1,-8.694964647E-2
3.596281779E0,3.561872840E-1,-9.882699251E-1,-1.828206182E-1
3.598758237E0,3.764267266E-1,-9.935960770E-1,-2.786915898E-1
3.601234695E0,4.019923210E-1,-9.904004335E-1,-3.809539676E-1
3.603711102E0,4.296883643E-1,-9.722914696E-1,-4.800206423E-1
3.606187560E0,4.563191831E-1,-9.382039905E-1,-5.790873170E-1
3.608664018E0,4.786891043E-1,-8.828118443E-1,-6.877411008E-1
3.611094643E0,5.031894445E-1,-8.103760481E-1,-7.931991220E-1
3.613570008E0,5.223636627E-1,-7.251573801E-1,-8.986572027E-1
3.616045477E0,5.394073725E-1,-6.260907054E-1,-1.006245732E0
3.618520893E0,5.564510822E-1,-5.280892849E-1,-1.105312467E0
3.620996362E0,5.766905546E-1,-4.258269072E-1,-1.196922421E0
3.623471831E0,5.926690102E-1,-3.139774203E-1,-1.275749683E0
3.625947247E0,6.033213735E-1,-1.872147024E-1,-1.342859387E0
3.628422716E0,6.075822711E-1,-5.725627393E-2,-1.397186279E0
3.630898133E0,6.118432283E-1,7.802832127E-2,-1.438730359E0
3.633373602E0,6.118432283E-1,2.122476846E-1,-1.469622135E0
3.635849018E0,6.129084229E-1,3.475322723E-1,-1.486665845E0
3.638324487E0,6.171693802E-1,4.742949903E-1,-1.490926743E0
3.640799904E0,6.224955320E-1,5.999925137E-1,-1.485600591E0
3.643205997E0,6.299521923E-1,7.192986012E-1,-1.468556881E0
3.645681362E0,6.395393014E-1,8.268871307E-1,-1.438730359E0
3.648156831E0,6.491263509E-1,9.270190597E-1,-1.402512431E0
3.650632247E0,6.651048660E-1,1.016498566E0,-1.356707454E0
3.653107716E0,6.810833812E-1,1.085738778E0,-1.297054410E0
3.655583185E0,6.896052361E-1,1.143261313E0,-1.227814198E0
3.658058602E0,6.959966421E-1,1.183740139E0,-1.150052190E0
3.660534070E0,7.023880482E-1,1.188001156E0,-1.064833522E0
3.663009487E0,6.981270909E-1,1.162435532E0,-9.764192104E-1
3.665484956E0,6.885399818E-1,1.113434792E0,-8.794830441E-1
3.667960372E0,6.757571697E-1,1.040998936E0,-7.814815640E-1
3.670435841E0,6.608439088E-1,9.525846243E-1,-6.813496947E-1
3.672911258E0,6.427350044E-1,8.481917977E-1,-5.844134688E-1
3.675335997E0,6.224955320E-1,7.299509048E-1,-4.864120185E-1
3.677811362E0,5.979951620E-1,5.893401504E-1,-3.937367499E-1
3.680286831E0,5.734948516E-1,4.348813891E-1,-3.042571843E-1
3.682762247E0,5.500596762E-1,2.772268951E-1,-2.211690098E-1
3.685237716E0,5.362116694E-1,1.248985752E-1,-1.508636326E-1
3.687713185E0,5.255593657E-1,-2.423405088E-2,-8.481918275E-2
3.690188602E0,5.202331543E-1,-1.520620137E-1,-3.155753016E-2
3.692664070E0,5.244941115E-1,-2.713681161E-1,4.660394508E-3
3.695139487E0,5.351464152E-1,-3.789566457E-1,3.022598661E-2
3.697614956E0,5.521901846E-1,-4.737623930E-1,4.194355011E-2
3.700090372E0,5.756253004E-1,-5.632419586E-1,4.087831825E-2
3.702565841E0,6.065170765E-1,-6.431344151E-1,2.063889056E-2
3.705041258E0,6.395393014E-1,-7.134398222E-1,-1.238333434E-2
3.707464227E0,6.768224239E-1,-7.762885690E-1,-5.605788901E-2
3.709939591E0,7.087793946E-1,-8.380720615E-1,-9.760197252E-2
3.712415060E0,7.449973226E-1,-8.977251053E-1,-1.370155960E-1
3.714890477E0,7.865414619E-1,-9.552477002E-1,-1.689725816E-1
3.717365945E0,8.312812448E-1,-1.023422599E0,-1.870815456E-1
3.719841414E0,8.824124336E-1,-1.104380369E0,-1.902772486E-1
3.722316831E0,9.356740713E-1,-1.184272766E0,-1.753639877E-1
3.724792300E0,9.868052602E-1,-1.270556688E0,-1.476679295E-1
3.727267716E0,1.028349280E0,-1.362299919E0,-1.029281393E-1
3.729743185E0,1.064700365E0,-1.465627432E0,-5.073172227E-2
3.732218602E0,1.097722650E0,-1.577476978E0,-1.731003635E-3
3.734694070E0,1.138201475E0,-1.696783066E0,4.300878197E-2
3.737169487E0,1.184006453E0,-1.803306341E0,8.455286920E-2
3.739592456E0,1.221289635E0,-1.862959385E0,1.388797611E-1
3.742067820E0,1.259638071E0,-1.824611068E0,1.750976741E-1
3.744543289E0,1.332073927E0,-1.712761521E0,1.750976741E-1
3.747018706E0,1.442858100E0,-1.564694166E0,1.527277827E-1
3.749494175E0,1.571751356E0,-1.367626071E0,1.165098622E-1
3.751969643E0,1.711296797E0,-1.141663551E0,7.603100687E-2
3.754445060E0,1.836994290E0,-8.689638376E-1,3.129122034E-2
3.756920529E0,1.910495400E0,-5.344806910E-1,-3.794892505E-2
3.759395945E0,1.903038740E0,-2.053236663E-1,-1.593854874E-1
3.761871414E0,1.795450211E0,7.376738638E-2,-3.330184817E-1
3.764346831E0,1.564294696E0,2.782921195E-1,-5.300865769E-1
3.766822300E0,1.219159245E0,3.688369393E-1,-7.207632661E-1
3.769297716E0,7.684324980E-1,2.623136342E-1,-8.560478687E-1
3.771585060E0,2.400768995E-1,-5.938674137E-2,-8.603088260E-1
3.774060477E0,-3.298227787E-1,-5.866770744E-1,-7.228937745E-1
3.776535893E0,-9.125052094E-1,-1.240730166E0,-5.375432372E-1
3.779011362E0,-1.389729619E0,-1.855502725E0,-3.873453438E-1
3.781486831E0,-1.674146891E0,-2.294378757E0,-3.063876629E-1
3.783962247E0,-1.761495948E0,-2.511686325E0,-2.584521770E-1
3.786437716E0,-1.697582006E0,-2.535121441E0,-2.009295821E-1
3.788913133E0,-1.533536077E0,-2.427532911E0,-1.380808353E-1
3.791388602E0,-1.318359017E0,-2.245378017E0,-6.244928762E-2
3.793864018E0,-1.075485945E0,-2.011026859E0,2.489982173E-2
3.796339487E0,-8.251561522E-1,-1.757501364E0,1.229012609E-1
3.798814956E0,-5.940005779E-1,-1.509302020E0,2.155765295E-1
3.801380633E0,-4.011933804E-1,-1.298252702E0,2.997299433E-1
3.803855997E0,-2.499302924E-1,-1.119293571E0,3.636439145E-1
3.806331466E0,-1.540593207E-1,-9.445953965E-1,3.945356905E-1
3.808806883E0,-1.274285018E-1,-7.379401922E-1,3.849485815E-1
3.811282352E0,-1.402112991E-1,-4.993279874E-1,3.338173926E-1
3.813757820E0,-1.561897993E-1,-2.436720580E-1,2.422073632E-1
3.816233237E0,-1.796249151E-1,-2.316881903E-2,1.420754492E-1
3.818708706E0,-2.094514370E-1,1.099853069E-1,6.537867337E-2
3.821184122E0,-2.360822707E-1,1.493989378E-1,1.424749196E-2
3.823659591E0,-2.573869228E-1,1.195724085E-1,-1.451379992E-2
3.826135008E0,-2.754958868E-1,5.246272683E-2,-2.516612969E-2
3.828610477E0,-2.861482203E-1,-2.742975019E-2,-3.155753016E-2
3.831085893E0,-2.882786989E-1,-1.030612960E-1,-3.581846133E-2
3.833504591E0,-2.797568142E-1,-1.605838835E-1,-4.966649041E-2
3.835979956E0,-2.659088075E-1,-2.010627389E-1,-8.908011019E-2
3.838455425E0,-2.552564740E-1,-2.489982247E-1,-1.178414002E-1
3.840930841E0,-2.296908647E-1,-2.841508985E-1,-1.210371032E-1
3.843406310E0,-1.902772486E-1,-3.022598624E-1,-1.178414002E-1
3.845881779E0,-1.540593207E-1,-3.118469715E-1,-1.082543060E-1
3.848357195E0,-1.284937263E-1,-3.171731234E-1,-9.760197252E-2
3.850832664E0,-9.760197252E-2,-3.139774203E-1,-8.375394344E-2
3.853308081E0,-6.564498693E-2,-2.873466015E-1,-6.671021879E-2
3.855783550E0,-3.262276202E-2,-2.479329854E-1,-4.753602296E-2
3.858258966E0,2.529928461E-3,-1.914756298E-1,-3.262276202E-2
3.860734435E0,3.661738336E-2,-1.190397888E-1,-1.664426550E-2
3.863209852E0,8.135717362E-2,-6.125089712E-3,-4.926702939E-3
3.865639435E0,1.495320797E-1,1.696383655E-1,-8.122402243E-3
3.868114800E0,2.549901605E-1,4.252942801E-1,-1.664426550E-2
3.870590268E0,4.126446545E-1,7.874734998E-1,-2.729659714E-2
3.873065685E0,6.310173869E-1,1.283872128E0,-6.244928762E-2
3.875541154E0,8.142374754E-1,1.771748781E0,-1.050586104E-1
3.878016622E0,8.973256946E-1,2.124341011E0,-1.338198930E-1
3.880492039E0,9.101084471E-1,2.368279219E0,-1.529940963E-1
3.882967508E0,8.749557734E-1,2.509955406E0,-1.668421179E-1
3.885442925E0,8.110417724E-1,2.563216925E0,-1.753639877E-1
3.887918393E0,7.204970121E-1,2.528064251E0,-1.806901544E-1
3.890393810E0,6.054518223E-1,2.405562401E0,-1.764292270E-1
3.892869279E0,4.797543287E-1,2.201037645E0,-1.679073572E-1
3.895344695E0,3.370130956E-1,1.908098698E0,-1.519288570E-1
3.897764747E0,1.878804713E-1,1.542723775E0,-1.306242049E-1
3.900240112E0,4.300878197E-2,1.131543756E0,-1.071890742E-1
3.902715581E0,-8.801487833E-2,7.288857102E-1,-8.801487833E-2
3.905190997E0,-1.892120093E-1,3.805544972E-1,-7.736254483E-2
3.907666466E0,-2.563216984E-1,1.121157780E-1,-6.671021879E-2
3.910141935E0,-2.968005538E-1,-8.921326697E-2,-5.073172227E-2
3.912617352E0,-3.095833361E-1,-2.362154275E-1,-3.049229458E-2
3.915092820E0,-3.010614812E-1,-3.384777904E-1,-7.057168987E-3
3.917568237E0,-2.723001838E-1,-4.002613127E-1,1.744319126E-2
3.920043706E0,-2.296908647E-1,-4.332835376E-1,4.194355011E-2
3.922519122E0,-1.785596907E-1,-4.418053925E-1,6.218297780E-2
3.924994591E0,-1.242327988E-1,-4.375444651E-1,7.603100687E-2
3.927470008E0,-7.736254483E-2,-4.300878346E-1,7.922670245E-2
3.929915320E0,-4.114462435E-2,-4.268921316E-1,6.963960826E-2
3.932390685E0,-1.877473295E-2,-4.290226102E-1,5.685681105E-2
3.934866154E0,-1.344856713E-2,-4.300878346E-1,4.620448127E-2
3.937341570E0,-1.770949923E-2,-4.236964285E-1,3.661738336E-2
3.939817039E0,-3.049229458E-2,-4.119788706E-1,2.916075476E-2
3.942292508E0,-4.860125855E-2,-3.917394578E-1,2.489982173E-2
3.944767925E0,-6.777545065E-2,-3.661738634E-1,2.383458801E-2
3.947243393E0,-8.481918275E-2,-3.320863843E-1,2.063889056E-2
3.949718810E0,-9.866721183E-2,-2.937380075E-1,1.850842312E-2
3.952194279E0,-1.146457046E-1,-2.575200796E-1,2.063889056E-2
3.954669695E0,-1.252980381E-1,-2.298240215E-1,2.063889056E-2
3.957145164E0,-1.327546686E-1,-2.042584270E-1,2.170412242E-2
3.959620581E0,-1.359503716E-1,-1.872147024E-1,2.170412242E-2
3.962024643E0,-1.370155960E-1,-1.744319052E-1,2.170412242E-2
3.964500008E0,-1.412765235E-1,-1.691057384E-1,2.170412242E-2
3.966975477E0,-1.497983932E-1,-1.723014414E-1,2.596505545E-2
3.969450893E0,-1.529940963E-1,-1.872147024E-1,2.809552103E-2
3.971926362E0,-1.466026902E-1,-2.063889056E-1,2.489982173E-2
3.974401831E0,-1.455374658E-1,-2.244978547E-1,1.850842312E-2
3.976877247E0,-1.391460598E-1,-2.383458912E-1,1.424749196E-2
3.979352716E0,-1.263632625E-1,-2.468677461E-1,9.986559860E-3
3.981828133E0,-1.093195379E-1,-2.500634491E-1,6.790860556E-3
3.984303602E0,-9.014534205E-2,-2.447372824E-1,-2.796236658E-3
3.986779018E0,-6.351451576E-2,-2.362154275E-1,-3.901416063E-2
3.989254487E0,-3.049229458E-2,-2.234326303E-1,-1.306242049E-1
3.991729956E0,2.703028731E-2,-2.042584270E-1,-2.999962568E-1
3.994152456E0,9.840089828E-2,-1.818885356E-1,-5.173037648E-1
3.996627820E0,1.655105799E-1,-1.403444558E-1,-7.154371142E-1
3.999103289E0,2.411421239E-1,-3.275591508E-2,-8.656349778E-1
4.001578706E0,3.423392773E-1,1.877473146E-1,-1.006245732E0
4.004054175E0,4.925371110E-1,5.552527308E-1,-1.147921681E0
4.006529643E0,6.224955320E-1,9.611064792E-1,-1.284271598E0
4.009005060E0,6.896052361E-1,1.301981091E0,-1.412099481E0
4.011480477E0,7.034532428E-1,1.575745940E0,-1.501579046E0
4.013955945E0,6.768224239E-1,1.803705812E0,-1.574014902E0
4.016431414E0,6.129084229E-1,1.984795451E0,-1.633667946E0
4.018906831E0,5.234288573E-1,2.109427691E0,-1.690125346E0
4.021382300E0,4.222317338E-1,2.176537275E0,-1.742321730E0
4.023857768E0,3.220998347E-1,2.183994055E0,-1.789191961E0
4.026277143E0,2.294245660E-1,2.126471519E0,-1.826475143E0
4.028752508E0,1.516625583E-1,2.028470039E0,-1.825409889E0
4.031227977E0,9.200949967E-2,1.899576783E0,-1.776409268E0
4.033703393E0,4.513924941E-2,1.747248411E0,-1.686929703E0
4.036178862E0,2.170412242E-2,1.587463498E0,-1.564427853E0
4.038654331E0,1.424749196E-2,1.407439113E0,-1.441926003E0
4.041129747E0,1.637795754E-2,1.212501526E0,-1.336467981E0
4.043605216E0,1.744319126E-2,1.001585364E0,-1.252314568E0
4.046080633E0,1.744319126E-2,7.927996516E-1,-1.170291662E0
4.048556102E0,1.957365684E-2,6.202319264E-1,-1.058442116E0
4.051031518E0,2.916075476E-2,4.774906933E-1,-9.647016525E-1
4.053506987E0,2.703028731E-2,3.613803089E-1,-8.794830441E-1
4.055982404E0,1.957365684E-2,2.750964165E-1,-7.995905280E-1
4.058409852E0,1.850842312E-2,2.122476846E-1,-7.196980715E-1
4.060885216E0,1.744319126E-2,1.685731262E-1,-6.398055553E-1
4.063360685E0,1.424749196E-2,1.398118287E-1,-5.663045049E-1
4.065836102E0,1.424749196E-2,1.217028722E-1,-4.938686490E-1
4.068311570E0,2.276935615E-2,1.110505462E-1,-4.427374899E-1
4.070787039E0,3.129122034E-2,1.035939083E-1,-4.097152650E-1
4.073262456E0,4.726971686E-2,1.099853069E-1,-3.926715255E-1
4.075737925E0,6.111774594E-2,1.302247345E-1,-3.798887134E-1
4.078213341E0,6.857437640E-2,1.611164957E-1,-3.777582645E-1
4.080688810E0,7.922670245E-2,2.101172209E-1,-3.798887134E-1
4.083164227E0,8.135717362E-2,2.825530469E-1,-3.873453438E-1
4.085639695E0,7.390054315E-2,3.635107577E-1,-3.979976773E-1
4.088115112E0,6.750914454E-2,4.497946501E-1,-4.097152650E-1
4.090439956E0,6.537867337E-2,5.286219120E-1,-4.214328229E-1
4.092915320E0,6.005251035E-2,6.095796227E-1,-4.320851564E-1
4.095390789E0,5.259587988E-2,6.852111220E-1,-4.427374899E-1
4.097866206E0,4.194355011E-2,7.448641658E-1,-4.544550478E-1
4.100341675E0,2.276935615E-2,7.800168991E-1,-4.544550478E-1
4.102817091E0,1.318225823E-2,7.789516449E-1,-4.544550478E-1
4.105292560E0,-5.991935730E-3,7.576469779E-1,-4.469984174E-1
4.107768029E0,-3.262276202E-2,7.256900072E-1,-4.310199022E-1
4.110243445E0,-5.818835273E-2,6.777545214E-1,-4.139761925E-1
4.112718914E0,-7.842778414E-2,6.212971807E-1,-4.011933804E-1
4.115194331E0,-9.760197252E-2,5.701659918E-1,-3.884105980E-1
4.117669800E0,-1.135804728E-1,5.360785127E-1,-3.862801194E-1
4.120145216E0,-1.295589656E-1,5.211652517E-1,-3.798887134E-1
4.122526727E0,-1.497983932E-1,5.158390999E-1,-3.607145250E-1
4.125001258E0,-1.689725816E-1,5.179695487E-1,-3.436708152E-1
4.127475737E0,-1.913424879E-1,5.211652517E-1,-3.276923001E-1
4.129950216E0,-2.147776037E-1,5.275566578E-1,-3.181052208E-1
4.132424695E0,-2.339518070E-1,5.424699187E-1,-3.191704452E-1
4.134899227E0,-2.541912198E-1,5.541874766E-1,-3.340837061E-1
4.137373706E0,-2.840177417E-1,5.531222224E-1,-3.948020041E-1
4.139848185E0,-3.213009238E-1,5.712311864E-1,-4.565854967E-1
4.142322664E0,-3.553883731E-1,6.330147386E-1,-4.555202723E-1
4.144797195E0,-3.745625615E-1,7.214290500E-1,-3.990629315E-1
4.147271675E0,-3.798887134E-1,7.949301600E-1,-3.276923001E-1
4.149746154E0,-3.798887134E-1,8.407351375E-1,-2.659088075E-1
4.152323758E0,-3.820191920E-1,8.577789068E-1,-2.211690098E-1
4.154798185E0,-3.852148950E-1,8.481917977E-1,-1.913424879E-1
4.157272664E0,-3.884105980E-1,8.119738698E-1,-1.679073572E-1
4.159747143E0,-3.958672285E-1,7.544512749E-1,-1.466026902E-1
4.162221675E0,-4.065195620E-1,6.809502244E-1,-1.348851323E-1
4.164696154E0,-4.161066413E-1,5.957315564E-1,-1.242327988E-1
4.167170633E0,-4.224980474E-1,4.934692085E-1,-1.071890742E-1
4.169645112E0,-4.246285260E-1,3.805544972E-1,-9.227581322E-2
4.172119643E0,-4.214328229E-1,2.569874525E-1,-6.777545065E-2
4.174594122E0,-4.129109383E-1,1.280942708E-1,-3.475322574E-2
4.177068602E0,-4.011933804E-1,-9.320789017E-3,3.595161485E-3
4.179543081E0,-3.766930401E-1,-1.797580719E-1,6.218297780E-2
4.182017612E0,-3.489969671E-1,-3.565867543E-1,1.154446304E-1
4.184471675E0,-3.276923001E-1,-4.524577260E-1,1.292926520E-1
4.186946102E0,-2.989310026E-1,-4.535229504E-1,1.271621883E-1
4.189420581E0,-2.616478503E-1,-3.789566457E-1,1.292926520E-1
4.191895060E0,-2.339518070E-1,-2.660419345E-1,1.314231306E-1
4.194369591E0,-2.019948065E-1,-1.414096802E-1,1.356840581E-1
4.196844070E0,-1.604507267E-1,-2.103835158E-2,1.367492825E-1
4.199318550E0,-1.252980381E-1,7.802832127E-2,1.356840581E-1
4.201793029E0,-9.866721183E-2,1.483336985E-1,1.335535944E-1
4.204267560E0,-8.481918275E-2,1.898777932E-1,1.314231306E-1
4.206742039E0,-7.629731297E-2,2.154433727E-1,1.218360290E-1
4.209216518E0,-8.268871158E-2,2.282261699E-1,1.197055578E-1
4.211690997E0,-9.653674066E-2,2.356828004E-1,1.165098622E-1
4.214165477E0,-1.093195379E-1,2.410089672E-1,1.197055578E-1
4.216597768E0,-1.252980381E-1,2.399437428E-1,1.207707971E-1
4.219072195E0,-1.529940963E-1,2.292914093E-1,1.218360290E-1
4.221546675E0,-2.350170314E-1,3.240971565E-1,1.431406885E-1
4.224021206E0,-3.159747422E-1,4.220985770E-1,1.431406885E-1
4.226495685E0,-3.404751122E-1,4.242290556E-1,1.133141592E-1
4.228970164E0,-3.564535975E-1,4.125114977E-1,9.733566642E-2
4.231444695E0,-3.649754524E-1,3.997286856E-1,1.069227681E-1
4.233919122E0,-3.734973371E-1,3.773587942E-1,1.143793985E-1
4.236393654E0,-3.830844164E-1,3.581846058E-1,1.250317246E-1
4.238868133E0,-3.841496706E-1,3.379451632E-1,1.271621883E-1
4.241342612E0,-3.852148950E-1,3.198362291E-1,1.260969639E-1
4.243817091E0,-3.979976773E-1,3.081186414E-1,1.175750941E-1
4.246291622E0,-3.990629315E-1,2.995967865E-1,1.101184636E-1
4.248725425E0,-3.948020041E-1,2.974663079E-1,1.122489274E-1
4.251199852E0,-3.894758224E-1,3.017272651E-1,1.229012609E-1
4.253674331E0,-3.926715255E-1,2.932053804E-1,1.335535944E-1
4.256148810E0,-3.979976773E-1,2.793573737E-1,1.388797611E-1
4.258623341E0,-4.129109383E-1,2.580527067E-1,1.452711523E-1
4.261097820E0,-4.395417869E-1,2.292914093E-1,1.559234858E-1
4.263572300E0,-4.587159753E-1,1.941387206E-1,1.719019860E-1
4.266046779E0,-4.736292362E-1,1.536598653E-1,1.910761744E-1
4.268521310E0,-4.917382002E-1,1.067896113E-1,2.017285079E-1
4.270995789E0,-5.151733160E-1,4.074516147E-2,2.006632686E-1
4.273470268E0,-5.364779830E-1,-3.701684624E-2,1.921414137E-1
4.275944747E0,-5.524564981E-1,-1.147788614E-1,1.750976741E-1
4.278419279E0,-5.641740561E-1,-1.893451661E-1,1.548582464E-1
4.280856727E0,-5.705654621E-1,-2.458025217E-1,1.303578913E-1
4.283331154E0,-5.567173958E-1,-2.894770801E-1,1.090532318E-1
4.285805633E0,-5.215647221E-1,-3.075860441E-1,8.987903595E-2
4.288280112E0,-4.619116783E-1,-3.171731234E-1,7.070484012E-2
4.290754643E0,-3.852148950E-1,-3.086512685E-1,4.833494872E-2
4.293229122E0,-2.946700752E-1,-2.830856740E-1,2.170412242E-2
4.295703602E0,-2.073209733E-1,-2.372806519E-1,-7.057168987E-3
4.298178081E0,-1.316894293E-1,-1.584534049E-1,-3.368799388E-2
4.300652612E0,-7.203638554E-2,-6.258244067E-2,-4.860125855E-2
4.303127091E0,-3.688369319E-2,1.624480449E-2,-3.581846133E-2
4.305601570E0,-2.942706272E-2,5.672365800E-2,-7.057168987E-3
4.308076050E0,-2.942706272E-2,5.991935730E-2,1.637795754E-2
4.310550581E0,-3.901416063E-2,2.263620123E-2,2.489982173E-2
4.312987247E0,-4.860125855E-2,-2.103835158E-2,2.170412242E-2
4.315461675E0,-4.647079110E-2,-4.127778113E-2,1.531272475E-2
4.317936154E0,-4.647079110E-2,-5.938674137E-2,9.986559860E-3
4.320410633E0,-4.860125855E-2,-7.323476672E-2,9.986559860E-3
4.322885164E0,-4.860125855E-2,-8.495233208E-2,1.105179265E-2
4.325359643E0,-5.392742157E-2,-1.009308323E-1,1.424749196E-2
4.327834122E0,-6.138405204E-2,-1.254311949E-1,1.637795754E-2
4.330308602E0,-6.990591437E-2,-1.499315500E-1,2.063889056E-2
4.332783133E0,-7.523208112E-2,-1.680405140E-1,1.211702544E-2
4.335257612E0,-8.268871158E-2,-1.968017966E-1,5.725627299E-3
4.337732091E0,-1.007976755E-1,-2.362154275E-1,-3.861469682E-3
4.340206570E0,-1.125152409E-1,-2.692376375E-1,-5.991935730E-3
4.342681102E0,-1.210371032E-1,-3.129121959E-1,-1.344856713E-2
4.345114800E0,-1.327546686E-1,-3.587172329E-1,-1.664426550E-2
4.347589227E0,-1.348851323E-1,-3.981308341E-1,-1.557903271E-2
4.350063706E0,-1.327546686E-1,-4.151745737E-1,-1.131810062E-2
4.352538185E0,-1.316894293E-1,-4.087831676E-1,-8.122402243E-3
4.355012716E0,-1.423417628E-1,-4.130440950E-1,-9.187635034E-3
4.357487195E0,-1.540593207E-1,-4.141093493E-1,-1.451379992E-2
4.359961675E0,-1.455374658E-1,-3.693695366E-1,-1.664426550E-2
4.362436154E0,-1.306242049E-1,-3.097164929E-1,-1.557903271E-2
4.364910685E0,-1.221023351E-1,-2.671071887E-1,-1.451379992E-2
4.367385164E0,-1.071890742E-1,-2.276935577E-1,-8.122402243E-3
4.369859643E0,-9.547150880E-2,-1.957365721E-1,-7.057168987E-3
4.372334122E0,-8.375394344E-2,-1.786928326E-1,-1.238333434E-2
4.374808654E0,-6.244928762E-2,-1.499315500E-1,-1.877473295E-2
4.377210008E0,-3.581846133E-2,-1.009308323E-1,-2.303566411E-2
4.379684435E0,4.660394508E-3,-1.464695390E-2,-3.049229458E-2
4.382158966E0,1.744319126E-2,3.115806542E-2,-5.073172227E-2
4.384633445E0,1.318225823E-2,3.967992961E-2,-7.949301600E-2
4.387107925E0,-2.796236658E-3,1.731003635E-2,-1.018629074E-1
4.389582404E0,7.856093347E-3,3.222329915E-2,-1.007976755E-1
4.392056935E0,4.194355011E-2,9.933298081E-2,-8.588441461E-2
4.394531414E0,5.898727849E-2,1.334204376E-1,-6.457975507E-2
4.397005893E0,4.620448127E-2,1.153114736E-1,-4.434032366E-2
4.399480372E0,4.087831825E-2,1.376813650E-1,-7.057168987E-3
4.401954904E0,4.194355011E-2,1.802906841E-1,3.555215150E-2
4.404429383E0,6.218297780E-2,2.335523367E-1,4.940018058E-2
4.406903862E0,7.283531129E-2,2.846835256E-1,4.833494872E-2
4.409370789E0,7.603100687E-2,3.496627510E-1,4.940018058E-2
4.411845216E0,1.197055578E-1,5.435351729E-1,5.898727849E-2
4.414319695E0,1.559234858E-1,7.491251230E-1,7.816147059E-2
4.416794175E0,1.857500076E-1,8.428656459E-1,6.005251035E-2
4.419268706E0,2.283593267E-1,8.631050587E-1,1.744319126E-2
4.421743185E0,2.730991244E-1,8.812140226E-1,6.790860556E-3
4.424217664E0,2.826862037E-1,8.769530654E-1,9.986559860E-3
4.426692143E0,2.528596818E-1,8.236914277E-1,-8.122402243E-3
4.429166675E0,2.219679356E-1,7.480598688E-1,-1.770949923E-2
4.431641154E0,1.953371018E-1,6.575151086E-1,-1.344856713E-2
4.434115633E0,1.772281379E-1,5.733616948E-1,-6.657706108E-4
4.436590112E0,1.687062830E-1,5.126433969E-1,1.531272475E-2
4.439064643E0,1.633801162E-1,4.647079110E-1,1.744319126E-2
4.441499904E0,1.559234858E-1,4.125114977E-1,1.105179265E-2
4.443974331E0,1.527277827E-1,3.688369393E-1,7.856093347E-3
4.446448810E0,1.505973190E-1,3.464670479E-1,6.790860556E-3
4.448923289E0,1.463363916E-1,3.272928596E-1,7.856093347E-3
4.451397820E0,1.282274276E-1,2.836183012E-1,6.790860556E-3
4.453872300E0,1.037270650E-1,2.197043151E-1,7.856093347E-3
4.456346779E0,8.348763734E-2,1.600512564E-1,2.529928461E-3
4.458821258E0,7.603100687E-2,1.014634445E-1,2.529928461E-3
4.461295789E0,6.963960826E-2,3.435376659E-2,8.921326138E-3
4.463770268E0,7.283531129E-2,-2.956021577E-2,1.211702544E-2
4.466244747E0,8.135717362E-2,-7.003907114E-2,1.531272475E-2
4.468719227E0,9.520520270E-2,-7.749570161E-2,1.957365684E-2
4.471193706E0,1.079879999E-1,-6.045197323E-2,2.063889056E-2
4.473613810E0,1.143793985E-1,-4.127778113E-2,2.703028731E-2
4.476088237E0,1.069227681E-1,-2.316881903E-2,3.448691964E-2
4.478562716E0,9.413997084E-2,-6.125089712E-3,3.768261895E-2
4.481037195E0,8.774857223E-2,1.331541222E-3,3.981308267E-2
4.483511727E0,9.200949967E-2,2.396774245E-3,3.235645220E-2
4.485986206E0,9.307473898E-2,3.462007269E-3,2.703028731E-2
4.488460685E0,9.520520270E-2,1.624480449E-2,2.703028731E-2
4.490935164E0,8.668334037E-2,3.541899845E-2,2.383458801E-2
4.493409695E0,7.709623873E-2,5.672365800E-2,2.916075476E-2
4.495884175E0,6.963960826E-2,6.844121963E-2,3.129122034E-2
4.498358654E0,6.218297780E-2,7.057169080E-2,1.957365684E-2
4.500833133E0,5.792204663E-2,7.163692266E-2,8.921326138E-3
4.503307664E0,5.685681105E-2,7.376738638E-2,9.986559860E-3
4.505741727E0,7.177007198E-2,7.376738638E-2,1.744319126E-2
4.508216154E0,9.200949967E-2,6.524552405E-2,1.957365684E-2
4.510690633E0,1.079879999E-1,6.311506033E-2,1.957365684E-2
4.513165112E0,1.133141592E-1,5.885412544E-2,2.063889056E-2
4.515639643E0,1.111836955E-1,5.033225939E-2,2.383458801E-2
4.518114122E0,1.047922969E-1,4.181039706E-2,2.703028731E-2
4.520588602E0,9.200949967E-2,2.902759984E-2,3.129122034E-2
4.523063133E0,7.816147059E-2,1.091863867E-2,3.129122034E-2
4.525537612E0,6.324820966E-2,2.663082560E-4,2.809552103E-2
4.528012091E0,5.472634733E-2,-3.994623665E-3,2.703028731E-2
4.530486570E0,4.940018058E-2,-8.255556226E-3,2.809552103E-2
4.532961050E0,4.300878197E-2,-1.145125460E-2,2.916075476E-2
4.535435581E0,4.620448127E-2,-1.038602181E-2,3.129122034E-2
4.537869175E0,5.259587988E-2,-1.145125460E-2,3.342168778E-2
4.540343602E0,5.898727849E-2,-1.358172111E-2,3.874785081E-2
4.542818081E0,6.218297780E-2,-1.145125460E-2,4.087831825E-2
4.545292560E0,6.537867337E-2,-5.059856921E-3,4.194355011E-2
4.547767091E0,6.857437640E-2,-7.989247679E-4,4.300878197E-2
4.550241570E0,6.963960826E-2,5.592473317E-3,4.513924941E-2
4.552716050E0,7.070484012E-2,1.091863867E-2,4.513924941E-2
4.555190529E0,6.857437640E-2,2.157096937E-2,5.046541616E-2
4.557665060E0,6.324820966E-2,2.796236612E-2,5.153064802E-2
4.560139539E0,6.005251035E-2,3.115806542E-2,5.046541616E-2
4.562614018E0,6.218297780E-2,3.115806542E-2,4.726971686E-2
4.565088497E0,6.111774594E-2,3.115806542E-2,4.620448127E-2
4.567563029E0,5.898727849E-2,2.583190054E-2,4.726971686E-2
4.570003862E0,5.259587988E-2,1.944050193E-2,4.620448127E-2
4.572478289E0,5.046541616E-2,9.853405878E-3,4.407401755E-2
4.574952768E0,4.940018058E-2,1.331541222E-3,4.513924941E-2
4.577427247E0,4.940018058E-2,-1.864157850E-3,5.153064802E-2
4.579901779E0,4.620448127E-2,-1.038602181E-2,5.366111174E-2
4.582376258E0,4.620448127E-2,-1.997311972E-2,5.472634733E-2
4.584850737E0,4.940018058E-2,-3.169068322E-2,5.579157919E-2
4.587325216E0,4.513924941E-2,-3.595161438E-2,5.792204663E-2
4.589799747E0,4.513924941E-2,-3.701684624E-2,6.537867337E-2
4.592274227E0,4.407401755E-2,-3.595161438E-2,6.324820966E-2
4.594748706E0,4.513924941E-2,-4.766917601E-2,5.898727849E-2
4.597223185E0,4.833494872E-2,-5.938674137E-2,6.324820966E-2
4.599697716E0,4.407401755E-2,-6.045197323E-2,6.537867337E-2
4.602129487E0,4.407401755E-2,-6.684337556E-2,6.857437640E-2
4.604603914E0,3.874785081E-2,-6.151720881E-2,6.963960826E-2
4.607078393E0,2.916075476E-2,-5.299534276E-2,6.963960826E-2
4.609552872E0,2.703028731E-2,-4.766917601E-2,6.963960826E-2
4.612027404E0,3.129122034E-2,-4.979964346E-2,6.750914454E-2
4.614501883E0,4.087831825E-2,-5.512581021E-2,7.177007198E-2
4.616976362E0,5.153064802E-2,-5.725627393E-2,8.135717362E-2
4.619450841E0,4.940018058E-2,-4.660394415E-2,8.348763734E-2
4.621925372E0,4.087831825E-2,-2.849498391E-2,8.348763734E-2
4.624399852E0,2.916075476E-2,-1.038602181E-2,7.709623873E-2
4.626874331E0,1.850842312E-2,5.592473317E-3,6.644391268E-2
4.629348810E0,8.921326138E-3,1.837527007E-2,5.579157919E-2
4.631823289E0,-6.657706108E-4,3.328853101E-2,5.046541616E-2
4.634255945E0,-1.131810062E-2,3.967992961E-2,4.726971686E-2
4.636729904E0,-3.861469682E-3,3.435376659E-2,4.940018058E-2
4.639203914E0,7.856093347E-3,1.731003635E-2,4.620448127E-2
4.641677925E0,2.383458801E-2,1.331541222E-3,4.833494872E-2
4.644151987E0,3.555215150E-2,-6.125089712E-3,4.940018058E-2
4.646625997E0,3.661738336E-2,-3.994623665E-3,4.194355011E-2
4.649100008E0,2.916075476E-2,5.592473317E-3,4.407401755E-2
4.651574018E0,2.170412242E-2,1.624480449E-2,4.087831825E-2
4.654048029E0,7.856093347E-3,2.370143496E-2,3.874785081E-2
4.656522039E0,1.464695437E-3,1.517957076E-2,4.194355011E-2
4.658996102E0,4.660394508E-3,-3.994623665E-3,4.833494872E-2
4.661470112E0,1.424749196E-2,-2.210358530E-2,5.366111174E-2
4.663944122E0,4.726971686E-2,-9.320789017E-3,4.726971686E-2
4.666387768E0,9.627043456E-2,1.624480449E-2,3.022598661E-2
4.668861727E0,1.314231306E-1,4.500609636E-2,2.276935615E-2
4.671335737E0,1.250317246E-1,5.885412544E-2,4.513924941E-2
4.673809747E0,1.037270650E-1,9.081111848E-2,7.603100687E-2
4.676283810E0,8.135717362E-2,1.185071766E-1,8.455286920E-2
4.678757820E0,4.833494872E-2,1.227681041E-1,6.537867337E-2
4.681231831E0,2.170412242E-2,1.121157780E-1,5.153064802E-2
4.683705841E0,5.725627299E-3,8.974587917E-2,5.579157919E-2
4.686179852E0,-9.187635034E-3,8.228924870E-2,6.218297780E-2
4.688653862E0,-1.770949923E-2,8.015878499E-2,6.750914454E-2
4.691127872E0,-2.197043039E-2,8.122401685E-2,6.644391268E-2
4.693601935E0,-1.770949923E-2,7.270215452E-2,7.283531129E-2
4.696075945E0,-8.122402243E-3,6.311506033E-2,7.283531129E-2
4.698519539E0,-1.025286783E-2,5.352795869E-2,7.070484012E-2
4.700993497E0,-1.877473295E-2,5.352795869E-2,6.857437640E-2
4.703467508E0,-2.729659714E-2,5.565842614E-2,6.963960826E-2
4.705941518E0,-4.007939249E-2,7.802832127E-2,7.390054315E-2
4.708415581E0,-4.966649041E-2,8.548495173E-2,7.496577501E-2
4.710889591E0,-5.179695413E-2,8.761541545E-2,6.963960826E-2
4.713363602E0,-5.179695413E-2,7.909355313E-2,6.324820966E-2
4.715837612E0,-7.310161740E-2,2.902759984E-2,5.153064802E-2
4.718311622E0,-1.252980381E-1,-9.240896255E-2,3.874785081E-2
4.720785633E0,-1.711030602E-1,-2.085193694E-1,3.981308267E-2
4.723259643E0,-1.849510819E-1,-2.745638192E-1,4.940018058E-2
4.725733706E0,-1.732335240E-1,-2.958684862E-1,6.431344151E-2
4.728207716E0,-1.338198930E-1,-2.724333405E-1,8.668334037E-2
4.730529904E0,-7.203638554E-2,-2.298240215E-1,1.143793985E-1
4.733003862E0,-7.057168987E-3,-1.914756298E-1,1.367492825E-1
4.735477925E0,4.300878197E-2,-1.488663107E-1,1.399449855E-1
4.737951935E0,7.177007198E-2,-1.073222235E-1,1.324883550E-1
4.740425945E0,7.177007198E-2,-6.471290439E-2,1.239664927E-1
4.742899956E0,5.898727849E-2,-1.890788600E-2,1.207707971E-1
4.745373966E0,4.513924941E-2,3.435376659E-2,1.133141592E-1
4.747847977E0,3.555215150E-2,8.122401685E-2,1.047922969E-1
4.750322039E0,2.916075476E-2,1.163767055E-1,9.840089828E-2
4.752796050E0,2.276935615E-2,1.366161406E-1,9.520520270E-2
4.755270060E0,1.637795754E-2,1.398118287E-1,9.200949967E-2
4.757744070E0,7.856093347E-3,1.291595101E-1,8.987903595E-2
4.760218081E0,2.529928461E-3,1.099853069E-1,8.987903595E-2
4.762787456E0,-2.796236658E-3,8.441971987E-2,8.774857223E-2
4.765261414E0,-8.122402243E-3,6.524552405E-2,8.561810106E-2
4.767735425E0,-1.131810062E-2,4.713656008E-2,9.094426781E-2
4.770209435E0,-1.664426550E-2,3.541899845E-2,9.413997084E-2
4.772683497E0,-2.197043039E-2,2.689713426E-2,9.520520270E-2
4.775157508E0,-2.729659714E-2,2.263620123E-2,9.413997084E-2
4.777631518E0,-3.049229458E-2,2.263620123E-2,9.094426781E-2
4.780105529E0,-3.581846133E-2,1.944050193E-2,8.774857223E-2
4.782579539E0,-3.794892505E-2,1.624480449E-2,8.348763734E-2
4.785053550E0,-4.114462435E-2,1.091863867E-2,7.709623873E-2
4.787527612E0,-4.647079110E-2,5.592473317E-3,7.283531129E-2
4.790001622E0,-4.647079110E-2,5.592473317E-3,7.177007198E-2
4.792475633E0,-4.220985994E-2,2.396774245E-3,6.750914454E-2
4.794917560E0,-4.007939249E-2,-7.989247679E-4,6.324820966E-2
4.797391518E0,-4.114462435E-2,-1.864157850E-3,6.005251035E-2
4.799865529E0,-3.581846133E-2,-3.994623665E-3,5.366111174E-2
4.802339539E0,-3.155753016E-2,-7.190322969E-3,4.833494872E-2
4.804813602E0,-2.942706272E-2,-1.464695390E-2,4.940018058E-2
4.807287612E0,-2.836182900E-2,-2.210358530E-2,4.726971686E-2
4.809761622E0,-2.303566411E-2,-3.062544949E-2,4.300878197E-2
4.812235633E0,-2.410089783E-2,-3.701684624E-2,4.087831825E-2
4.814709643E0,-1.877473295E-2,-4.340824485E-2,4.087831825E-2
4.817183654E0,-1.877473295E-2,-4.660394415E-2,4.087831825E-2
4.819657716E0,-1.238333434E-2,-4.340824485E-2,3.874785081E-2
4.822131727E0,-4.926702939E-3,-3.914731368E-2,3.874785081E-2
4.824605685E0,3.595161485E-3,-3.275591508E-2,3.448691964E-2
4.827039227E0,1.105179265E-2,-2.742975019E-2,3.235645220E-2
4.829513185E0,1.637795754E-2,-1.997311972E-2,3.235645220E-2
4.831987195E0,2.703028731E-2,-1.464695390E-2,2.916075476E-2
4.834461206E0,3.661738336E-2,-1.251648832E-2,2.809552103E-2
4.836935268E0,4.194355011E-2,-1.145125460E-2,2.596505545E-2
4.839409279E0,4.833494872E-2,-5.059856921E-3,2.276935615E-2
4.841883289E0,5.579157919E-2,-1.864157850E-3,2.276935615E-2
4.844357300E0,6.005251035E-2,-1.864157850E-3,2.063889056E-2
4.846831310E0,6.324820966E-2,2.663082560E-4,2.063889056E-2
4.849305320E0,6.750914454E-2,-7.989247679E-4,1.850842312E-2
4.851779331E0,6.750914454E-2,-1.251648832E-2,1.637795754E-2
4.854253393E0,6.324820966E-2,-3.275591508E-2,1.424749196E-2
4.856727404E0,6.005251035E-2,-4.979964346E-2,1.211702544E-2
4.859179695E0,5.685681105E-2,-6.258244067E-2,1.637795754E-2
4.861653654E0,5.792204663E-2,-6.684337556E-2,2.276935615E-2
4.864127664E0,6.537867337E-2,-6.577813625E-2,2.809552103E-2
4.866601675E0,6.963960826E-2,-5.938674137E-2,2.809552103E-2
4.869075737E0,7.496577501E-2,-4.873441160E-2,2.916075476E-2
4.871549747E0,7.816147059E-2,-3.382114694E-2,2.596505545E-2
4.874023758E0,7.922670245E-2,-1.571218669E-2,2.489982173E-2
4.876497768E0,8.455286920E-2,-7.989247679E-4,2.596505545E-2
4.878971779E0,8.881380409E-2,1.837527007E-2,3.022598661E-2
4.881445789E0,9.094426781E-2,3.541899845E-2,2.916075476E-2
4.883919852E0,9.733566642E-2,4.607132822E-2,2.916075476E-2
4.886393862E0,1.026618332E-1,5.778888986E-2,3.129122034E-2
4.888867872E0,1.069227681E-1,6.844121963E-2,3.129122034E-2
4.891172300E0,1.122489274E-1,7.589785010E-2,3.235645220E-2
4.893646362E0,1.197055578E-1,8.335448056E-2,3.235645220E-2
4.896120372E0,1.239664927E-1,8.655018359E-2,3.555215150E-2
4.898594383E0,1.303578913E-1,8.655018359E-2,3.661738336E-2
4.901068393E0,1.346188188E-1,8.548495173E-2,3.661738336E-2
4.903542456E0,1.367492825E-1,8.015878499E-2,3.981308267E-2
4.906016466E0,1.378145218E-1,7.270215452E-2,3.981308267E-2
4.908490477E0,1.378145218E-1,6.098458916E-2,3.661738336E-2
4.910964487E0,1.378145218E-1,5.033225939E-2,3.981308267E-2
4.913438497E0,1.356840581E-1,3.861469775E-2,4.194355011E-2
4.915912508E0,1.314231306E-1,2.583190054E-2,4.194355011E-2
4.918386570E0,1.314231306E-1,1.624480449E-2,4.407401755E-2
4.920962664E0,1.335535944E-1,9.853405878E-3,4.513924941E-2
4.923436622E0,1.271621883E-1,-7.989247679E-4,4.407401755E-2
4.925910633E0,1.260969639E-1,-7.190322969E-3,4.194355011E-2
4.928384643E0,1.218360290E-1,-8.255556226E-3,4.407401755E-2
4.930858706E0,1.186403260E-1,-1.038602181E-2,4.726971686E-2
4.933332716E0,1.122489274E-1,-1.464695390E-2,4.620448127E-2
4.935806727E0,1.058575287E-1,-1.997311972E-2,4.513924941E-2
4.938280737E0,1.026618332E-1,-2.210358530E-2,4.833494872E-2
4.940754747E0,1.005313694E-1,-2.103835158E-2,4.513924941E-2
4.943228758E0,9.946613014E-2,-1.997311972E-2,4.940018058E-2
4.945702820E0,9.520520270E-2,-2.103835158E-2,4.940018058E-2
4.948176831E0,9.307473898E-2,-2.423405088E-2,4.726971686E-2
4.950650841E0,9.307473898E-2,-2.849498391E-2,4.940018058E-2
4.953090841E0,9.094426781E-2,-3.382114694E-2,5.046541616E-2
4.955564800E0,8.987903595E-2,-3.808208182E-2,4.940018058E-2
4.958038810E0,8.774857223E-2,-4.021254554E-2,5.259587988E-2
4.960512820E0,8.561810106E-2,-4.766917601E-2,5.366111174E-2
4.962986883E0,8.242240548E-2,-5.512581021E-2,5.153064802E-2
4.965460893E0,8.135717362E-2,-6.258244067E-2,5.472634733E-2
4.967934904E0,8.242240548E-2,-7.003907114E-2,6.218297780E-2
4.970408914E0,8.029194176E-2,-7.749570161E-2,6.005251035E-2
4.972882925E0,7.390054315E-2,-8.921326697E-2,6.218297780E-2
4.975356935E0,7.390054315E-2,-1.019960642E-1,6.750914454E-2
4.977830997E0,7.709623873E-2,-1.115831584E-1,6.644391268E-2
4.980305008E0,7.496577501E-2,-1.179745570E-1,6.644391268E-2
4.982779018E0,7.603100687E-2,-1.201050207E-1,7.177007198E-2
4.985216935E0,7.496577501E-2,-1.243659556E-1,6.963960826E-2
4.987690893E0,7.496577501E-2,-1.211702600E-1,7.070484012E-2
4.990164904E0,7.816147059E-2,-1.179745570E-1,7.070484012E-2
4.992638914E0,7.603100687E-2,-1.158440933E-1,6.750914454E-2
4.995112977E0,7.709623873E-2,-1.126483902E-1,6.963960826E-2
4.997586987E0,7.390054315E-2,-1.115831584E-1,6.963960826E-2
