"Time (s)","Gyroscope x (rad/s)","Gyroscope y (rad/s)","Gyroscope z (rad/s)"
1.057570510E-1,2.480039895E-1,2.927485406E-1,3.813214004E-1
1.081863740E-1,2.492256761E-1,3.501681983E-1,3.959817290E-1
1.106155410E-1,2.467822880E-1,4.149180055E-1,4.094203711E-1
1.130444990E-1,2.589992285E-1,4.723376334E-1,4.253024161E-1
1.154733010E-1,2.638860047E-1,5.273138881E-1,4.375193417E-1
1.179019990E-1,2.699944973E-1,5.885513425E-1,4.497362971E-1
1.203305930E-1,2.822114229E-1,6.325323582E-1,4.534013867E-1
1.227590300E-1,3.005368412E-1,6.606312990E-1,4.436278343E-1
1.251873640E-1,3.213056624E-1,6.923953891E-1,4.301891923E-1
1.276084050E-1,3.384093940E-1,7.314895988E-1,4.216373265E-1
1.299864260E-1,3.579564989E-1,7.766922712E-1,4.179722369E-1
1.323637180E-1,3.689517379E-1,8.341119289E-1,4.191939235E-1
1.347417910E-1,3.762819171E-1,9.061918855E-1,4.167505503E-1
1.371205930E-1,3.787252903E-1,9.843803644E-1,4.167505503E-1
1.394986660E-1,3.775036037E-1,1.066233873E0,4.143071473E-1
1.418759570E-1,3.677300513E-1,1.146865726E0,4.057552814E-1
1.442540300E-1,3.591781855E-1,1.222610831E0,3.959817290E-1
1.466328320E-1,3.481829464E-1,1.286138892E0,3.813214004E-1
1.490109050E-1,3.408527672E-1,1.336228371E0,3.678827584E-1
1.513881970E-1,3.347443044E-1,1.370435834E0,3.520007432E-1
1.537662180E-1,3.298575282E-1,1.391204596E0,3.361186981E-1
1.561450720E-1,3.274141252E-1,1.402199864E0,3.202366829E-1
1.585231450E-1,3.286358118E-1,1.399756551E0,3.031329513E-1
1.609004360E-1,3.286358118E-1,1.398534775E0,2.884726226E-1
1.632784570E-1,3.286358118E-1,1.391204596E0,2.738122940E-1
1.656573110E-1,3.286358118E-1,1.387539506E0,2.591519356E-1
1.680353840E-1,3.237490356E-1,1.383874416E0,2.469350100E-1
1.704126240E-1,3.164188862E-1,1.374100924E0,2.334963679E-1
1.727906970E-1,3.139754832E-1,1.370435834E0,2.212794125E-1
1.751695510E-1,3.042019308E-1,1.360662222E0,2.115058601E-1
1.775475720E-1,2.956500649E-1,1.352110386E0,2.005106062E-1
1.799248640E-1,2.883199155E-1,1.339893460E0,1.919587553E-1
1.823029360E-1,2.822114229E-1,1.321568012E0,1.821851879E-1
1.846817390E-1,2.773246467E-1,1.294690728E0,1.760767251E-1
1.870598110E-1,2.748812735E-1,1.256818295E0,1.699682474E-1
1.894371030E-1,2.736595869E-1,1.210393786E0,1.687465608E-1
1.918151760E-1,2.736595869E-1,1.154195905E0,1.675248593E-1
1.941939780E-1,2.761029601E-1,1.091889501E0,1.699682474E-1
1.965720510E-1,2.797680497E-1,1.028361320E0,1.748550236E-1
1.989493430E-1,2.846548259E-1,9.550597072E-1,1.809635013E-1
2.013273640E-1,2.919849753E-1,8.854231238E-1,1.882936656E-1
2.037062180E-1,3.017585576E-1,8.108997345E-1,2.005106062E-1
2.060842910E-1,3.115321100E-1,7.351546884E-1,2.139492482E-1
2.084615820E-1,3.225273490E-1,6.667397618E-1,2.273878902E-1
2.108396030E-1,3.371876776E-1,5.958815217E-1,2.408265322E-1
2.132184570E-1,3.518480062E-1,5.260922313E-1,2.554868758E-1
2.155964780E-1,3.689517379E-1,4.601207078E-1,2.701472044E-1
2.179737700E-1,3.872771561E-1,3.929274976E-1,2.872509360E-1
2.203518430E-1,4.043808877E-1,3.330644667E-1,3.019112647E-1
2.227306970E-1,4.227063060E-1,2.756448388E-1,3.141281903E-1
2.251087180E-1,4.422534108E-1,2.243336588E-1,3.300102353E-1
2.274860090E-1,4.581354558E-1,1.815743446E-1,3.410054743E-1
2.298640820E-1,4.789042473E-1,1.302631795E-1,3.495573401E-1
2.322428840E-1,4.960079789E-1,9.116895497E-2,3.581092060E-1
2.346209570E-1,5.131117105E-1,5.329642445E-2,3.666610718E-1
2.369982490E-1,5.326588154E-1,2.031067200E-2,3.715478480E-1
2.393763220E-1,5.497625470E-1,-9.009997360E-3,3.752129376E-1
2.417551240E-1,5.656445622E-1,-3.344388679E-2,3.764346242E-1
2.441331970E-1,5.790832043E-1,-5.421269313E-2,3.788780272E-1
2.465104890E-1,5.937435627E-1,-6.642963737E-2,3.788780272E-1
2.488885090E-1,6.059604883E-1,-7.131642103E-2,3.788780272E-1
2.512673640E-1,6.242858768E-1,-7.131642103E-2,3.752129376E-1
2.536454360E-1,6.389462352E-1,-7.131642103E-2,3.727695346E-1
2.560226760E-1,6.560499668E-1,-5.909947306E-2,3.691044450E-1
2.584007490E-1,6.743753552E-1,-4.199574888E-2,3.654393852E-1
2.607796030E-1,6.927008033E-1,-1.878355257E-2,3.629959822E-1
2.631576240E-1,7.171346545E-1,8.093725890E-3,3.629959822E-1
2.655349160E-1,7.391251922E-1,4.230117425E-2,3.642176688E-1
2.679129890E-1,7.684458494E-1,7.528692484E-2,3.678827584E-1
2.702918430E-1,7.965448499E-1,1.143811494E-1,3.727695346E-1
2.726698640E-1,8.258655071E-1,1.522536725E-1,3.800997138E-1
2.750471550E-1,8.551861644E-1,1.925695986E-1,3.862081766E-1
2.774252280E-1,8.881719112E-1,2.341072112E-1,3.959817290E-1
2.798040300E-1,9.187142849E-1,2.805316150E-1,4.057552814E-1
2.821821030E-1,9.517000318E-1,3.245126009E-1,4.143071473E-1
2.845593950E-1,9.822424054E-1,3.709369898E-1,4.240806997E-1
2.869374680E-1,1.014006495E0,4.112529159E-1,4.301891923E-1
2.893162700E-1,1.044548869E0,4.552339315E-1,4.399627447E-1
2.916943430E-1,1.070204377E0,4.967715442E-1,4.472928941E-1
2.940716340E-1,1.093416572E0,5.372401476E-1,4.558447599E-1
2.964497070E-1,1.119072199E0,5.665608048E-1,4.656183124E-1
2.988285090E-1,1.139840961E0,5.897729993E-1,4.729484916E-1
3.012065820E-1,1.155722976E0,6.056550741E-1,4.815003574E-1
3.035838740E-1,1.170383334E0,6.227588058E-1,4.912739098E-1
3.059618950E-1,1.183822036E0,6.264238358E-1,5.034908652E-1
3.083407490E-1,1.194817185E0,6.239804626E-1,5.157077909E-1
3.107188220E-1,1.204590797E0,6.105418205E-1,5.291464329E-1
3.130961140E-1,1.211920977E0,5.897729993E-1,5.450284481E-1
3.154741340E-1,1.219251156E0,5.616740584E-1,5.596888065E-1
3.178529890E-1,1.221694469E0,5.260922313E-1,5.731274486E-1
3.202310090E-1,1.222916245E0,4.808894992E-1,5.890094638E-1
3.226083010E-1,1.222916245E0,4.344651103E-1,6.024481058E-1
3.249863740E-1,1.221694469E0,3.880407214E-1,6.158867478E-1
3.273652280E-1,1.218029380E0,3.391729295E-1,6.268820167E-1
3.297432490E-1,1.211920977E0,2.866400778E-1,6.354338527E-1
3.321205410E-1,1.207034230E0,2.365505993E-1,6.403206587E-1
3.344986140E-1,1.196038961E0,1.876828223E-1,6.427640319E-1
3.368774160E-1,1.187487125E0,1.314848661E-1,6.403206587E-1
3.392554890E-1,1.170383334E0,9.116895497E-2,6.354338527E-1
3.416327800E-1,1.158166409E0,3.497100621E-2,6.219952106E-1
3.440108530E-1,1.142284393E0,-1.389677543E-2,6.061131954E-1
3.463896550E-1,1.122737288E0,-5.054761097E-2,5.853443742E-1
3.487677280E-1,1.100746751E0,-8.719844371E-2,5.572454333E-1
3.511450200E-1,1.083643079E0,-1.201841980E-1,5.279247165E-1
3.535230410E-1,1.061652541E0,-1.458397806E-1,4.924955964E-1
3.559018950E-1,1.042105436E0,-1.702736765E-1,4.546230733E-1
3.582799680E-1,1.020114899E0,-1.824906170E-1,4.143071473E-1
3.606572590E-1,1.003011227E0,-1.947075576E-1,3.727695346E-1
3.630352800E-1,9.859074950E-1,-2.008160353E-1,3.300102353E-1
3.654141340E-1,9.736905098E-1,-2.057028115E-1,2.860292196E-1
3.677922070E-1,9.626953006E-1,-2.057028115E-1,2.444916219E-1
3.701694990E-1,9.553651214E-1,-2.093679011E-1,2.041756958E-1
3.725475200E-1,9.443698525E-1,-1.983726472E-1,1.663031727E-1
3.749263740E-1,9.419264793E-1,-1.971509457E-1,1.307213157E-1
3.773043950E-1,9.370396733E-1,-1.873773932E-1,9.895725548E-2
3.796816860E-1,9.345963001E-1,-1.812689304E-1,7.207997888E-2
3.820597590E-1,9.358180165E-1,-1.714953631E-1,5.008947477E-2
3.844386140E-1,9.321529269E-1,-1.580567211E-1,3.420744836E-2
3.868166340E-1,9.345963001E-1,-1.470614821E-1,2.321219631E-2
3.891939260E-1,9.321529269E-1,-1.385096163E-1,1.710372418E-2
3.915719990E-1,9.309312105E-1,-1.324011385E-1,2.076880634E-2
3.939508010E-1,9.309312105E-1,-1.177408099E-1,2.932066843E-2
3.963288740E-1,9.297095537E-1,-1.091889441E-1,4.398100078E-2
3.987061660E-1,9.272661209E-1,-1.018587798E-1,6.352811307E-2
4.010842390E-1,9.248227477E-1,-9.208522737E-2,8.796200156E-2
4.034630410E-1,9.199360013E-1,-8.842013776E-2,1.185043678E-1
4.058411140E-1,9.187142849E-1,-8.842013776E-2,1.491994411E-1
4.082184050E-1,9.101623893E-1,-8.353336155E-2,1.834068894E-1
4.105964780E-1,9.028322697E-1,-8.231166750E-2,2.163926363E-1
4.129752800E-1,9.003888369E-1,-8.964183182E-2,2.481566966E-1
4.153533530E-1,8.955020905E-1,-1.067455560E-1,2.786990702E-1
4.177306450E-1,8.881719112E-1,-1.128540337E-1,3.031329513E-1
4.201087180E-1,8.796200752E-1,-1.128540337E-1,3.226800561E-1
4.224875200E-1,8.686248064E-1,-1.201841980E-1,3.324536085E-1
4.248655930E-1,8.600729704E-1,-1.250709742E-1,3.361186981E-1
4.272428840E-1,8.502993584E-1,-1.299577504E-1,3.348970115E-1
4.296209050E-1,8.429692388E-1,-1.372879148E-1,3.275668323E-1
4.319997590E-1,8.307522535E-1,-1.543916464E-1,3.153499067E-1
4.343778320E-1,8.173136115E-1,-2.166980654E-1,2.933593988E-1
4.367551240E-1,7.892146707E-1,-3.327590525E-1,2.591519356E-1
4.391331450E-1,7.452336550E-1,-5.392253995E-1,2.066190839E-1
4.415119990E-1,6.865923405E-1,-7.945595980E-1,1.430909634E-1
4.438900720E-1,6.132906675E-1,-1.066997409E0,7.696675509E-2
4.462673110E-1,5.387672782E-1,-1.296676040E0,1.588202827E-2
4.486453840E-1,4.654656053E-1,-1.437170863E0,-3.665083647E-2
4.510242390E-1,4.007157981E-1,-1.497033954E0,-7.452336699E-2
4.534022590E-1,3.445178568E-1,-1.492147088E0,-9.895725548E-2
4.557795510E-1,2.980934680E-1,-1.440835953E0,-1.111742035E-1
4.581576240E-1,2.589992285E-1,-1.363869190E0,-1.087308154E-1
4.605364780E-1,2.370087355E-1,-1.295454383E0,-9.651386738E-2
4.629144990E-1,2.247917950E-1,-1.238034725E0,-7.696675509E-2
4.652917910E-1,2.223484069E-1,-1.200162172E0,-5.619794875E-2
4.676698640E-1,2.296785712E-1,-1.186723471E0,-3.665083647E-2
4.700486660E-1,2.443388999E-1,-1.192831993E0,-1.832541823E-2
4.724267390E-1,2.638860047E-1,-1.213600755E0,-7.330167107E-3
4.748040300E-1,2.822114229E-1,-1.230704546E0,2.443389036E-3
4.771821030E-1,3.017585576E-1,-1.241699815E0,7.330167107E-3
4.795609050E-1,3.237490356E-1,-1.251473308E0,1.343864016E-2
4.819389780E-1,3.469612300E-1,-1.253916740E0,1.588202827E-2
4.843162700E-1,3.726168275E-1,-1.261246920E0,2.076880634E-2
4.866943430E-1,3.958290219E-1,-1.258803487E0,2.199050039E-2
4.890731450E-1,4.239279926E-1,-1.256360054E0,2.443389036E-2
4.914512180E-1,4.508052766E-1,-1.246586561E0,2.687728032E-2
4.938285090E-1,4.813476503E-1,-1.233147860E0,2.687728032E-2
4.962065820E-1,5.192201734E-1,-1.185501814E0,2.199050039E-2
4.985853840E-1,5.693096519E-1,-1.104869962E0,2.076880634E-2
5.009634570E-1,6.267293096E-1,-1.003469348E0,2.443389036E-2
5.033407490E-1,6.878139973E-1,-8.837432861E-1,3.176405653E-2
5.057187700E-1,7.513421178E-1,-7.591304183E-1,4.275930673E-2
5.080976240E-1,8.160919547E-1,-6.320741773E-1,5.619794875E-2
5.104756970E-1,8.722898960E-1,-5.062396526E-1,7.330167294E-2
5.128529890E-1,9.223793745E-1,-3.938437700E-1,9.162709117E-2
5.152310090E-1,9.651386738E-1,-2.985515893E-1,1.099525094E-1
5.176098640E-1,1.000567794E0,-2.203631550E-1,1.282779276E-1
5.199879360E-1,1.027445078E0,-1.666085869E-1,1.491994411E-1
5.223652280E-1,1.048213840E0,-1.348445266E-1,1.650814712E-1
5.247432490E-1,1.064095974E0,-1.152974218E-1,1.809635013E-1
5.271221030E-1,1.076312900E0,-1.128540337E-1,1.919587553E-1
5.295001760E-1,1.083643079E0,-1.177408099E-1,2.017323077E-1
5.318774160E-1,1.094638348E0,-1.311794519E-1,2.102841735E-1
5.342554890E-1,1.098303318E0,-1.385096163E-1,2.151709497E-1
5.366343430E-1,1.099525094E0,-1.446180940E-1,2.212794125E-1
5.390124160E-1,1.104411840E0,-1.495048702E-1,2.249445021E-1
5.413896550E-1,1.109298587E0,-1.543916464E-1,2.286095917E-1
5.437677280E-1,1.112963676E0,-1.458397806E-1,2.310529798E-1
5.461465820E-1,1.116628766E0,-1.324011385E-1,2.347180545E-1
5.485246030E-1,1.125180602E0,-1.165191159E-1,2.371614426E-1
5.509018950E-1,1.133732557E0,-9.208522737E-2,2.408265322E-1
5.532799680E-1,1.144727707E0,-5.787777901E-2,2.457133085E-1
5.556588220E-1,1.156944752E0,-1.756185852E-2,2.518217862E-1
5.580368430E-1,1.171604991E0,2.764083818E-2,2.603736520E-1
5.604141340E-1,1.191152096E0,6.795676053E-2,2.689255178E-1
5.627922070E-1,1.207034230E0,1.156028435E-1,2.774773538E-1
5.651710610E-1,1.222916245E0,1.510319859E-1,2.896943092E-1
5.675490820E-1,1.233911514E0,1.827960461E-1,3.019112647E-1
5.699263740E-1,1.243685007E0,2.072299272E-1,3.104631305E-1
5.723044470E-1,1.252236843E0,2.145601064E-1,3.141281903E-1
5.746832490E-1,1.255901933E0,2.218902707E-1,3.177932799E-1
5.770613220E-1,1.257123709E0,2.267770469E-1,3.214583695E-1
5.794386140E-1,1.258345366E0,2.255553454E-1,3.177932799E-1
5.818166860E-1,1.253458619E0,2.243336588E-1,3.153499067E-1
5.841954890E-1,1.249793530E0,2.267770469E-1,3.116848171E-1
5.865735610E-1,1.241241574E0,2.243336588E-1,3.043546379E-1
5.889508530E-1,1.230246425E0,2.157817930E-1,2.994678617E-1
5.913289260E-1,1.214364409E0,2.133384049E-1,2.921377122E-1
5.937077280E-1,1.191152096E0,2.231119573E-1,2.835858464E-1
5.960858010E-1,1.169161677E0,2.206685692E-1,2.750339806E-1
5.984630930E-1,1.144727707E0,2.121167034E-1,2.652604282E-1
6.008411660E-1,1.119072199E0,2.023431510E-1,2.567085624E-1
6.032199680E-1,1.099525094E0,1.901262105E-1,2.493783981E-1
6.055980410E-1,1.076312900E0,1.852394342E-1,2.408265322E-1
6.079753320E-1,1.056765795E0,1.803526580E-1,2.334963679E-1
6.103534050E-1,1.038440347E0,1.803526580E-1,2.286095917E-1
6.127322070E-1,1.021336675E0,1.840177327E-1,2.225011140E-1
6.151102800E-1,1.006676316E0,1.876828223E-1,2.151709497E-1
6.174875720E-1,9.920159578E-1,1.974563748E-1,2.078407854E-1
6.198656450E-1,9.773555994E-1,2.121167034E-1,1.968455315E-1
6.222444470E-1,9.626953006E-1,2.279987335E-1,1.846285909E-1
6.246225200E-1,9.480349422E-1,2.451024652E-1,1.675248593E-1
6.269998110E-1,9.358180165E-1,2.634278834E-1,1.479777545E-1
6.293778320E-1,9.248227477E-1,2.878617644E-1,1.233911440E-1
6.317566860E-1,9.138274789E-1,3.135173619E-1,9.651386738E-2
6.341347590E-1,9.064973593E-1,3.416163325E-1,6.963659078E-2
6.365120510E-1,8.991671801E-1,3.684936166E-1,3.787253052E-2
6.388900720E-1,8.906152844E-1,3.941491842E-1,6.108472589E-3
6.412689260E-1,8.869501948E-1,4.185830951E-1,-2.321219631E-2
6.436469990E-1,8.832851648E-1,4.417952895E-1,-5.497625470E-2
6.460242910E-1,8.796200752E-1,4.674508572E-1,-8.429691941E-2
6.484023110E-1,8.771766424E-1,4.943281412E-1,-1.111742035E-1
6.507811660E-1,8.735115528E-1,5.384618640E-1,-1.319430023E-1
6.531592390E-1,8.674030900E-1,5.677825212E-1,-1.490467340E-1
6.555364780E-1,8.551861644E-1,5.958815217E-1,-1.612636745E-1
6.579145510E-1,8.393041492E-1,6.227588058E-1,-1.710372269E-1
6.602934050E-1,8.222004175E-1,6.374191046E-1,-1.783674061E-1
6.626714780E-1,8.112051487E-1,6.447492838E-1,-1.844758689E-1
6.650487180E-1,7.989882231E-1,6.349757314E-1,-1.893626451E-1
6.674267910E-1,7.879929543E-1,6.190937161E-1,-1.881409585E-1
6.698056450E-1,7.794411182E-1,5.897729993E-1,-1.808107942E-1
6.721837180E-1,7.647807598E-1,5.519005060E-1,-1.685938388E-1
6.745609570E-1,7.464553714E-1,5.089884996E-1,-1.527118087E-1
6.769391860E-1,7.269082665E-1,4.698942602E-1,-1.368297935E-1
6.793174160E-1,7.085828185E-1,4.295783341E-1,-1.197260618E-1
6.816959050E-1,6.927008033E-1,3.978142738E-1,-1.014006436E-1
6.840731970E-1,6.755970716E-1,3.697153032E-1,-8.429691941E-2
6.864512700E-1,6.621584296E-1,3.465031087E-1,-6.597150117E-2
6.888301240E-1,6.487197876E-1,3.293993771E-1,-4.642439261E-2
6.912081450E-1,6.413896084E-1,3.135173619E-1,-2.565558441E-2
6.935854360E-1,6.316160560E-1,3.037438095E-1,-2.443389036E-3
6.959635090E-1,6.206207871E-1,2.817533016E-1,2.565558441E-2
6.983423640E-1,6.120689511E-1,2.499892414E-1,6.474980712E-2
7.007203840E-1,5.986303091E-1,2.023431510E-1,1.233911440E-1
7.030976760E-1,5.827482939E-1,1.546970755E-1,2.017323077E-1
7.054757490E-1,5.607577562E-1,1.400367320E-1,2.799207568E-1
7.078546030E-1,5.387672782E-1,1.412584335E-1,3.593308926E-1
7.102326240E-1,5.216635466E-1,1.351499557E-1,4.350759685E-1
7.126099160E-1,5.033381581E-1,1.217113137E-1,5.071559548E-1
7.149879890E-1,4.911212027E-1,9.116895497E-2,5.694623590E-1
7.173668430E-1,4.813476503E-1,6.306997687E-2,6.219952106E-1
7.197448640E-1,4.776825607E-1,3.130592033E-2,6.708629727E-1
7.221221550E-1,4.740174711E-1,-1.267508045E-2,7.172874212E-1
7.245002280E-1,4.776825607E-1,-5.543438718E-2,7.600467205E-1
7.268790300E-1,4.837910235E-1,-9.086353332E-2,8.015843034E-1
7.292571030E-1,4.935645759E-1,-1.262926757E-1,8.394568563E-1
7.316343950E-1,5.070032477E-1,-1.556133330E-1,8.736643195E-1
7.340124680E-1,5.216635466E-1,-1.788255423E-1,9.017632604E-1
7.363912700E-1,5.399889946E-1,-1.934858710E-1,9.213103652E-1
7.387693430E-1,5.607577562E-1,-1.983726472E-1,9.286405444E-1
7.411466340E-1,5.839699507E-1,-1.959292591E-1,9.249754548E-1
7.435247070E-1,6.120689511E-1,-1.861557066E-1,9.078717232E-1
7.459035090E-1,6.401679516E-1,-1.727170646E-1,8.785510659E-1
7.482815820E-1,6.707102656E-1,-1.482831687E-1,8.370134830E-1
7.506588740E-1,7.085828185E-1,-9.941539168E-2,7.747070193E-1
7.530369470E-1,7.525638342E-1,-2.977880463E-2,6.952968836E-1
7.554157490E-1,7.892146707E-1,2.519745007E-2,6.158867478E-1
7.577938220E-1,8.209787011E-1,4.718795046E-2,5.364766121E-1
7.601711140E-1,8.454126120E-1,4.107947648E-2,4.582881629E-1
7.625491860E-1,8.674030900E-1,1.175880991E-2,3.825430870E-1
7.649279890E-1,8.857285380E-1,-3.100049868E-2,3.055763543E-1
7.673060610E-1,9.052756429E-1,-7.986827940E-2,2.322746664E-1
7.696833530E-1,9.260444641E-1,-1.275143623E-1,1.601946950E-1
7.720614260E-1,9.468132257E-1,-1.678302884E-1,9.162709117E-2
7.744402280E-1,9.700254202E-1,-1.947075576E-1,3.298575059E-2
7.768183010E-1,9.932376146E-1,-2.179197669E-1,-1.832541823E-2
7.791961660E-1,1.014006495E0,-2.386885732E-1,-6.230641901E-2
7.815736660E-1,1.033553600E0,-2.545706034E-1,-9.162709117E-2
7.839524680E-1,1.045770526E0,-2.643441558E-1,-1.087308154E-1
7.863305410E-1,1.059209108E0,-2.728960216E-1,-1.148392856E-1
7.887078320E-1,1.061652541E0,-2.814478874E-1,-1.087308154E-1
7.910859050E-1,1.061652541E0,-2.875563502E-1,-9.407047927E-2
7.934647070E-1,1.054322362E0,-2.912214398E-1,-7.085828483E-2
7.958427800E-1,1.042105436E0,-2.936648130E-1,-4.153761268E-2
7.982200720E-1,1.026223421E0,-2.936648130E-1,-4.886778072E-3
8.005981450E-1,1.004232883E0,-2.912214398E-1,3.420744836E-2
8.029769470E-1,9.797990322E-1,-2.814478874E-1,7.818844914E-2
8.053550200E-1,9.529217482E-1,-2.716743052E-1,1.233911440E-1
8.077323110E-1,9.248227477E-1,-2.594573796E-1,1.724116355E-1
8.101103840E-1,8.930587173E-1,-2.472404242E-1,2.237228155E-1
8.124891860E-1,8.600729704E-1,-2.399102598E-1,2.786990702E-1
8.148672590E-1,8.270871639E-1,-2.313583940E-1,3.385621011E-1
8.172445510E-1,7.904363275E-1,-2.191414535E-1,4.008685052E-1
8.196226240E-1,7.525638342E-1,-2.044811249E-1,4.668400288E-1
8.220014260E-1,7.159129977E-1,-1.898207814E-1,5.389199853E-1
8.243794990E-1,6.768187881E-1,-1.666085869E-1,6.109999418E-1
8.267567910E-1,6.377245188E-1,-1.409530044E-1,6.879667044E-1
8.291348640E-1,5.986303091E-1,-1.128540337E-1,7.637118101E-1
8.315136660E-1,5.570927262E-1,-7.864658535E-2,8.419002295E-1
8.338917390E-1,5.167768002E-1,-3.833066672E-2,9.213103652E-1
8.362690300E-1,4.764608741E-1,8.093725890E-3,1.001942158E0
8.386471030E-1,4.361449480E-1,5.818320066E-2,1.085017443E0
8.410259050E-1,3.994941115E-1,1.094943732E-1,1.161984205E0
8.434039780E-1,3.640649617E-1,1.632489264E-1,1.238950968E0
8.457812700E-1,3.310792148E-1,2.182251811E-1,1.311030984E0
8.481592910E-1,3.005368412E-1,2.719797492E-1,1.377002478E0
8.505381450E-1,2.699944973E-1,3.220692277E-1,1.434422135E0
8.529162180E-1,2.455606014E-1,3.746020794E-1,1.482068181E0
8.552935090E-1,2.199050188E-1,4.185830951E-1,1.512610555E0
8.576715820E-1,2.003578991E-1,4.527905285E-1,1.526049137E0
8.600503840E-1,1.905843467E-1,4.723376334E-1,1.523605824E0
8.624284570E-1,1.820324808E-1,4.808894992E-1,1.504058719E0
8.648057490E-1,1.795890927E-1,4.821111858E-1,1.472294569E0
8.671838220E-1,1.832541823E-1,4.796678126E-1,1.425870180E0
8.695626240E-1,1.905843467E-1,4.613423944E-1,1.372115612E0
8.719406970E-1,2.015796006E-1,4.454603493E-1,1.317139387E0
8.743179890E-1,2.137965411E-1,4.222481549E-1,1.256054640E0
8.766960610E-1,2.284568697E-1,3.917058110E-1,1.193748236E0
8.790748640E-1,2.370087355E-1,3.733803928E-1,1.135106921E0
8.814529360E-1,2.528907657E-1,3.403946459E-1,1.078908920E0
8.838302280E-1,2.626643181E-1,3.122956753E-1,1.026376128E0
8.862083010E-1,2.712161839E-1,2.866400778E-1,9.787300229E-1
8.885871030E-1,2.797680497E-1,2.609844804E-1,9.347490072E-1
8.909651760E-1,2.858765125E-1,2.402156889E-1,8.980981708E-1
8.933424680E-1,2.895416021E-1,2.267770469E-1,8.663341403E-1
8.957205410E-1,2.932066917E-1,2.194468826E-1,8.345700502E-1
8.980993430E-1,2.956500649E-1,2.157817930E-1,8.052493930E-1
9.004774160E-1,3.017585576E-1,2.206685692E-1,7.795938253E-1
9.028547070E-1,3.042019308E-1,2.328855246E-1,7.600467205E-1
9.052327800E-1,3.078670204E-1,2.451024652E-1,7.441646457E-1
9.076115820E-1,3.139754832E-1,2.548760176E-1,7.380561829E-1
9.099896550E-1,3.151971996E-1,2.634278834E-1,7.392778993E-1
9.123669470E-1,3.066453338E-1,2.756448388E-1,7.478297353E-1
9.147450200E-1,2.944283783E-1,2.768665254E-1,7.649334669E-1
9.171238220E-1,2.785463631E-1,2.768665254E-1,7.869240046E-1
9.195018950E-1,2.589992285E-1,2.780882120E-1,8.138012886E-1
9.218791860E-1,2.357870489E-1,2.817533016E-1,8.431219459E-1
9.242572070E-1,2.101314515E-1,2.841966748E-1,8.748859763E-1
9.266360610E-1,1.820324808E-1,2.976353168E-1,9.066500664E-1
9.290141340E-1,1.527118087E-1,3.122956753E-1,9.371923804E-1
9.313914260E-1,1.197260618E-1,3.306210935E-1,9.677347541E-1
9.337694990E-1,9.407047927E-2,3.465031087E-1,9.970554113E-1
9.361483010E-1,6.230641901E-2,3.636068404E-1,1.023932695E0
9.385263740E-1,3.054236248E-2,3.794888556E-1,1.043479800E0
9.409036660E-1,-1.221694518E-3,3.929274976E-1,1.058140159E0
9.432816860E-1,-2.932066843E-2,4.002576768E-1,1.063026905E0
9.456605410E-1,-5.619794875E-2,4.014793634E-1,1.059361815E0
9.480386140E-1,-8.307522535E-2,4.051444530E-1,1.045923233E0
9.504159050E-1,-1.062874198E-1,4.075878263E-1,1.025154471E0
9.527939780E-1,-1.294996142E-1,4.039227366E-1,9.946120381E-1
9.551727800E-1,-1.502684206E-1,3.978142738E-1,9.567395449E-1
9.575508530E-1,-1.685938388E-1,3.794888556E-1,9.066500664E-1
9.599281450E-1,-1.869192570E-1,3.648285270E-1,8.504521251E-1
9.623062180E-1,-2.040229887E-1,3.403946459E-1,7.869240046E-1
9.646850200E-1,-2.174616307E-1,3.122956753E-1,7.160657048E-1
9.670630930E-1,-2.272351831E-1,2.866400778E-1,6.452074051E-1
9.694403840E-1,-2.333436459E-1,2.622061968E-1,5.743491650E-1
9.718184570E-1,-2.370087355E-1,2.377723008E-1,5.059342384E-1
9.741972590E-1,-2.382304370E-1,2.145601064E-1,4.387410581E-1
9.765753320E-1,-2.370087355E-1,1.998997629E-1,3.752129376E-1
9.789526240E-1,-2.333436459E-1,1.876828223E-1,3.153499067E-1
9.813306450E-1,-2.260134816E-1,1.754658818E-1,2.567085624E-1
9.837094990E-1,-2.199050188E-1,1.742441803E-1,2.053973973E-1
9.860875720E-1,-2.076880634E-1,1.803526580E-1,1.577513069E-1
9.884648640E-1,-1.966928244E-1,2.011214644E-1,1.136175916E-1
9.908428840E-1,-1.783674061E-1,2.279987335E-1,7.574506104E-2
9.932217390E-1,-1.563768983E-1,2.670929730E-1,4.153761268E-2
9.955998110E-1,-1.319430023E-1,3.171824515E-1,1.099525020E-2
9.979771030E-1,-1.050657257E-1,3.697153032E-1,-1.099525020E-2
1.000355176E0,-7.696675509E-2,4.198047817E-1,-3.054236248E-2
1.002733978E0,-4.886778072E-2,4.686725736E-1,-4.398100078E-2
1.005112051E0,-1.954711229E-2,5.089884996E-1,-5.497625470E-2
1.007489343E0,7.330167107E-3,5.531222224E-1,-6.597150117E-2
1.009867416E0,3.420744836E-2,5.897729993E-1,-7.207997888E-2
1.012246218E0,6.352811307E-2,6.203153729E-1,-8.185353130E-2
1.014624291E0,9.284878522E-2,6.471926570E-1,-9.040539712E-2
1.017001582E0,1.185043678E-1,6.704048514E-1,-1.001789495E-1
1.019379655E0,1.453816444E-1,6.838434935E-1,-1.099525094E-1
1.021758457E0,1.771457046E-1,6.911736727E-1,-1.233911440E-1
1.024136530E0,2.040229887E-1,6.985038519E-1,-1.392731816E-1
1.026513822E0,2.321219593E-1,6.985038519E-1,-1.575985998E-1
1.028891895E0,2.638860047E-1,6.923953891E-1,-1.795890927E-1
1.031270697E0,2.944283783E-1,6.814001203E-1,-2.052446753E-1
1.033648770E0,3.261924386E-1,6.752916574E-1,-2.333436459E-1
1.036026061E0,3.591781855E-1,6.618530154E-1,-2.614426315E-1
1.038404134E0,3.897205591E-1,6.459710002E-1,-2.907632887E-1
1.040782936E0,4.202629030E-1,6.239804626E-1,-3.164188862E-1
1.043161009E0,4.471401870E-1,6.019899845E-1,-3.408527672E-1
1.045538301E0,4.776825607E-1,5.677825212E-1,-3.628432751E-1
1.047916374E0,5.008947253E-1,5.360184908E-1,-3.860554695E-1
1.050295176E0,5.167768002E-1,5.028799772E-1,-4.019374847E-1
1.052673249E0,5.326588154E-1,4.662291706E-1,-4.153761268E-1
1.055050541E0,5.448757410E-1,4.271349311E-1,-4.300364852E-1
1.057428614E0,5.509842038E-1,3.904841244E-1,-4.385883212E-1
1.059807416E0,5.570927262E-1,3.501681983E-1,-4.446968138E-1
1.062185489E0,5.583143830E-1,3.074088693E-1,-4.508052766E-1
1.064562780E0,5.534276366E-1,2.646495700E-1,-4.544703662E-1
1.066940853E0,5.473191738E-1,2.170034945E-1,-4.581354558E-1
1.069319655E0,5.448757410E-1,1.718007922E-1,-4.618005157E-1
1.071697728E0,5.387672782E-1,1.241547018E-1,-4.618005157E-1
1.074075020E0,5.277720094E-1,8.139539510E-2,-4.642439187E-1
1.076453093E0,5.241069198E-1,3.130592033E-2,-4.642439187E-1
1.078831895E0,5.155550838E-1,-1.634016447E-2,-4.630222321E-1
1.081209968E0,5.094466209E-1,-6.154286116E-2,-4.618005157E-1
1.083587259E0,5.057815313E-1,-1.043021679E-1,-4.569137394E-1
1.085965332E0,5.008947253E-1,-1.324011385E-1,-4.471401870E-1
1.088344134E0,4.984513521E-1,-1.653869003E-1,-4.349232614E-1
1.090722207E0,5.008947253E-1,-2.032594234E-1,-4.178195298E-1
1.093099499E0,5.057815313E-1,-2.338017821E-1,-3.994941115E-1
1.095477572E0,5.070032477E-1,-2.435753495E-1,-3.726168275E-1
1.097856374E0,5.106683373E-1,-2.496838123E-1,-3.396310806E-1
1.100234447E0,5.106683373E-1,-2.460187376E-1,-2.980934680E-1
1.102611739E0,5.045598149E-1,-2.325800955E-1,-2.504473627E-1
1.104989811E0,4.911212027E-1,-2.166980654E-1,-1.979145110E-1
1.107368614E0,4.752391577E-1,-2.008160353E-1,-1.441599578E-1
1.109746686E0,4.532486796E-1,-1.861557066E-1,-8.918370306E-2
1.112123978E0,4.300364852E-1,-1.727170646E-1,-3.665083647E-2
1.114502051E0,4.019374847E-1,-1.568350345E-1,1.343864016E-2
1.116880905E0,3.750602305E-1,-1.360662282E-1,5.986303091E-2
1.119258926E0,3.481829464E-1,-1.018587798E-1,1.014006436E-1
1.121636218E0,3.261924386E-1,-6.642963737E-2,1.394258887E-1
1.124014291E0,3.054236174E-1,-2.000524849E-2,1.748550236E-1
1.126393093E0,2.883199155E-1,3.374931216E-2,2.090624720E-1
1.128771166E0,2.736595869E-1,8.261708915E-2,2.383831441E-1
1.131148457E0,2.565558553E-1,1.339282542E-1,2.677038014E-1
1.133526530E0,2.394521236E-1,1.742441803E-1,2.933593988E-1
1.135905384E0,2.186833173E-1,2.121167034E-1,3.165715933E-1
1.138283405E0,1.942494214E-1,2.389939874E-1,3.373403847E-1
1.140660697E0,1.698155403E-1,2.585411072E-1,3.544441164E-1
1.143038770E0,1.429382563E-1,2.658712566E-1,3.678827584E-1
1.145417624E0,1.185043678E-1,2.683146596E-1,3.800997138E-1
1.147795645E0,9.040539712E-2,2.658712566E-1,3.874298632E-1
1.150172936E0,5.864133686E-2,2.597627938E-1,3.910949528E-1
1.152551009E0,3.298575059E-2,2.438807636E-1,3.910949528E-1
1.154929864E0,8.551862091E-3,2.292204350E-1,3.898732662E-1
1.157307884E0,-1.588202827E-2,2.218902707E-1,3.862081766E-1
1.159685176E0,-3.665083647E-2,2.072299272E-1,3.788780272E-1
1.162063249E0,-5.619794875E-2,1.937913001E-1,3.715478480E-1
1.164442103E0,-7.452336699E-2,1.840177327E-1,3.629959822E-1
1.166820124E0,-9.162709117E-2,1.742441803E-1,3.544441164E-1
1.169197416E0,-1.050657257E-1,1.620272398E-1,3.458922505E-1
1.171575489E0,-1.209477559E-1,1.559187621E-1,3.385621011E-1
1.173954343E0,-1.331647038E-1,1.473668963E-1,3.312319219E-1
1.176332364E0,-1.478250325E-1,1.437018216E-1,3.239017725E-1
1.178709655E0,-1.600419879E-1,1.363716573E-1,3.165715933E-1
1.181087728E0,-1.734806150E-1,1.363716573E-1,3.129065037E-1
1.183466582E0,-1.881409585E-1,1.388150454E-1,3.080197275E-1
1.185844603E0,-2.015796006E-1,1.400367320E-1,3.055763543E-1
1.188221895E0,-2.174616307E-1,1.437018216E-1,3.019112647E-1
1.190599968E0,-2.333436459E-1,1.534753740E-1,3.031329513E-1
1.192978822E0,-2.480039895E-1,1.656923145E-1,3.031329513E-1
1.195356895E0,-2.638860047E-1,1.705790907E-1,3.031329513E-1
1.197734134E0,-2.748812735E-1,1.779092699E-1,3.019112647E-1
1.200112207E0,-2.858765125E-1,1.779092699E-1,3.006895781E-1
1.202491061E0,-2.956500649E-1,1.852394342E-1,2.994678617E-1
1.204869134E0,-3.042019308E-1,1.876828223E-1,2.970244884E-1
1.207246426E0,-3.103103936E-1,1.876828223E-1,2.921377122E-1
1.209624447E0,-3.103103936E-1,1.827960461E-1,2.872509360E-1
1.212003301E0,-3.115321100E-1,1.852394342E-1,2.848075330E-1
1.214381374E0,-3.066453338E-1,1.864611208E-1,2.799207568E-1
1.216758666E0,-3.029802442E-1,1.876828223E-1,2.774773538E-1
1.219136686E0,-2.932066917E-1,1.815743446E-1,2.738122940E-1
1.221515541E0,-2.797680497E-1,1.815743446E-1,2.677038014E-1
1.223893614E0,-2.675510943E-1,1.876828223E-1,2.664821148E-1
1.226270905E0,-2.553341687E-1,1.974563748E-1,2.640387416E-1
1.228648926E0,-2.394521236E-1,2.011214644E-1,2.640387416E-1
1.231027780E0,-2.235700935E-1,2.011214644E-1,2.615953386E-1
1.233405853E0,-2.125748396E-1,2.072299272E-1,2.615953386E-1
1.235783145E0,-1.979145110E-1,2.096733153E-1,2.603736520E-1
1.238161218E0,-1.881409585E-1,2.121167034E-1,2.603736520E-1
1.240540020E0,-1.698155403E-1,2.072299272E-1,2.579302490E-1
1.242918093E0,-1.600419879E-1,2.060082406E-1,2.579302490E-1
1.245295384E0,-1.502684206E-1,1.986780763E-1,2.567085624E-1
1.247673405E0,-1.380514801E-1,1.864611208E-1,2.530434728E-1
1.250052259E0,-1.307213157E-1,1.791309565E-1,2.493783981E-1
1.252430332E0,-1.221694499E-1,1.705790907E-1,2.444916219E-1
1.254807624E0,-1.123958975E-1,1.583621502E-1,2.396048307E-1
1.257185645E0,-1.075091213E-1,1.534753740E-1,2.347180545E-1
1.259564499E0,-9.895725548E-2,1.412584335E-1,2.273878902E-1
1.261942572E0,-9.284878522E-2,1.314848661E-1,2.200577259E-1
1.264319864E0,-8.918370306E-2,1.265980899E-1,2.102841735E-1
1.266697936E0,-8.796200156E-2,1.217113137E-1,2.029540092E-1
1.269076739E0,-8.674030751E-2,1.168245375E-1,1.931804419E-1
1.271454811E0,-8.429691941E-2,1.143811494E-1,1.809635013E-1
1.273832103E0,-8.307522535E-2,1.058292910E-1,1.687465608E-1
1.276210124E0,-8.674030751E-2,1.070509851E-1,1.553079188E-1
1.278588978E0,-8.796200156E-2,1.033858955E-1,1.455343664E-1
1.280967051E0,-8.918370306E-2,1.009425074E-1,1.345391124E-1
1.283344343E0,-8.918370306E-2,9.972081333E-2,1.246128380E-1
1.285722416E0,-9.040539712E-2,9.605573118E-2,1.160609797E-1
1.288101218E0,-9.407047927E-2,9.116895497E-2,1.062874198E-1
1.290479291E0,-9.651386738E-2,8.628217876E-2,1.014006436E-1
1.292856582E0,-9.773556143E-2,7.528692484E-2,9.529217333E-2
1.295234655E0,-1.050657257E-1,7.773031294E-2,9.040539712E-2
1.297613457E0,-1.111742035E-1,6.795676053E-2,8.429691941E-2
1.299991530E0,-1.136175916E-1,6.062658876E-2,8.185353130E-2
1.302368822E0,-1.209477559E-1,5.207473040E-2,7.696675509E-2
1.304746895E0,-1.258345395E-1,4.596625641E-2,7.574506104E-2
1.307125697E0,-1.319430023E-1,3.497100621E-2,7.330167294E-2
1.309503770E0,-1.404948682E-1,2.764083818E-2,6.963659078E-2
1.311881061E0,-1.478250325E-1,2.275406010E-2,6.963659078E-2
1.314259134E0,-1.563768983E-1,2.031067200E-2,6.963659078E-2
1.316637936E0,-1.637070626E-1,1.542389300E-2,6.841489673E-2
1.319016009E0,-1.710372269E-1,1.053711493E-2,7.085828483E-2
1.321393301E0,-1.771457046E-1,9.315420873E-3,7.574506104E-2
1.323771374E0,-1.881409585E-1,8.093725890E-3,7.941014320E-2
1.326150228E0,-1.930277348E-1,4.428642802E-3,8.551861346E-2
1.328528249E0,-1.991362125E-1,4.428642802E-3,9.162709117E-2
1.330905541E0,-2.076880634E-1,7.635590737E-4,9.895725548E-2
1.333283614E0,-2.162399292E-1,-4.123218823E-3,1.062874198E-1
1.335662416E0,-2.235700935E-1,-5.344913341E-3,1.136175916E-1
1.338040489E0,-2.309002578E-1,-1.023169141E-2,1.197260618E-1
1.340417780E0,-2.345653474E-1,-2.122694254E-2,1.270562261E-1
1.342795853E0,-2.406738251E-1,-2.611372061E-2,1.345391124E-1
1.345174707E0,-2.406738251E-1,-3.100049868E-2,1.418692768E-1
1.347552728E0,-2.431172132E-1,-3.466558084E-2,1.491994411E-1
1.349930020E0,-2.418955117E-1,-3.466558084E-2,1.565296054E-1
1.352308093E0,-2.370087355E-1,-3.588727489E-2,1.650814712E-1
1.354686947E0,-2.296785712E-1,-3.466558084E-2,1.736333370E-1
1.357064968E0,-2.235700935E-1,-3.222219273E-2,1.821851879E-1
1.359442259E0,-2.137965411E-1,-3.466558084E-2,1.907370538E-1
1.361820332E0,-2.040229887E-1,-3.344388679E-2,2.005106062E-1
1.364199186E0,-1.930277348E-1,-3.466558084E-2,2.102841735E-1
1.366577259E0,-1.808107942E-1,-3.344388679E-2,2.188360244E-1
1.368954499E0,-1.722589284E-1,-3.222219273E-2,2.273878902E-1
1.371332572E0,-1.612636745E-1,-3.344388679E-2,2.371614426E-1
1.373711426E0,-1.514901221E-1,-3.100049868E-2,2.481566966E-1
1.376089447E0,-1.392731816E-1,-3.466558084E-2,2.579302490E-1
1.378466791E0,-1.294996142E-1,-3.344388679E-2,2.652604282E-1
1.380844811E0,-1.185043678E-1,-3.222219273E-2,2.738122940E-1
1.383223666E0,-1.099525094E-1,-3.222219273E-2,2.835858464E-1
1.385601739E0,-9.895725548E-2,-3.100049868E-2,2.909159958E-1
1.387979030E0,-8.674030751E-2,-3.222219273E-2,2.970244884E-1
1.390357051E0,-7.574506104E-2,-3.100049868E-2,3.031329513E-1
1.392735905E0,-6.474980712E-2,-3.588727489E-2,3.055763543E-1
1.395113978E0,-5.253286287E-2,-4.199574888E-2,3.055763543E-1
1.397491270E0,-4.275930673E-2,-4.443913698E-2,3.067980409E-1
1.399869291E0,-3.298575059E-2,-4.321744293E-2,3.043546379E-1
1.402248145E0,-2.443389036E-2,-4.688252881E-2,3.006895781E-1
1.404626218E0,-1.588202827E-2,-5.176930502E-2,2.970244884E-1
1.407003509E0,-7.330167107E-3,-5.176930502E-2,2.884726226E-1
1.409381582E0,-0.000000000E0,-5.176930502E-2,2.823641598E-1
1.411760384E0,3.665083554E-3,-5.543438718E-2,2.750339806E-1
1.414138457E0,7.330167107E-3,-5.665608495E-2,2.652604282E-1
1.416515749E0,1.099525020E-2,-5.299099907E-2,2.542651594E-1
1.418893822E0,1.343864016E-2,-5.787777901E-2,2.444916219E-1
1.421272624E0,1.221694518E-2,-5.543438718E-2,2.334963679E-1
1.423650697E0,9.773556143E-3,-5.176930502E-2,2.212794125E-1
1.426027989E0,9.773556143E-3,-5.176930502E-2,2.078407854E-1
1.428406061E0,7.330167107E-3,-5.299099907E-2,1.931804419E-1
1.430784864E0,7.330167107E-3,-5.421269313E-2,1.797417998E-1
1.433162936E0,4.886778072E-3,-5.421269313E-2,1.638597846E-1
1.435540228E0,3.665083554E-3,-5.176930502E-2,1.479777545E-1
1.437918301E0,1.221694518E-3,-5.176930502E-2,1.319430023E-1
1.440297103E0,1.221694518E-3,-5.421269313E-2,1.148392856E-1
1.442675176E0,-0.000000000E0,-5.543438718E-2,1.001789495E-1
1.445052468E0,-2.443389036E-3,-5.665608495E-2,8.307522535E-2
1.447430541E0,-2.443389036E-3,-5.787777901E-2,6.963659078E-2
1.449809343E0,-2.443389036E-3,-6.276455522E-2,5.497625470E-2
1.452187416E0,-4.886778072E-3,-6.642963737E-2,4.031591862E-2
1.454564707E0,-4.886778072E-3,-6.765133142E-2,2.687728032E-2
1.456942780E0,-6.108472589E-3,-6.642963737E-2,1.588202827E-2
1.459321634E0,-7.330167107E-3,-6.398624927E-2,6.108472589E-3
1.461699655E0,-7.330167107E-3,-6.398624927E-2,-3.665083554E-3
1.464076947E0,-6.108472589E-3,-6.276455522E-2,-1.466033421E-2
1.466455020E0,-6.108472589E-3,-6.032116711E-2,-2.199050039E-2
1.468833874E0,-4.886778072E-3,-5.421269313E-2,-3.054236248E-2
1.471211895E0,-3.665083554E-3,-5.054761097E-2,-3.787253052E-2
1.473589186E0,-4.886778072E-3,-4.321744293E-2,-4.642439261E-2
1.475967259E0,-1.221694518E-3,-3.710897267E-2,-5.497625470E-2
1.478346114E0,3.665083554E-3,-2.977880463E-2,-5.864133686E-2
1.480724134E0,6.108472589E-3,-1.878355257E-2,-6.474980712E-2
1.483101426E0,8.551862091E-3,-5.344913341E-3,-7.207997888E-2
1.485479499E0,1.466033421E-2,8.093725890E-3,-7.818844914E-2
1.487858353E0,2.199050039E-2,1.908897609E-2,-8.307522535E-2
1.490236426E0,2.687728032E-2,2.641914412E-2,-8.918370306E-2
1.492613666E0,3.054236248E-2,3.863608837E-2,-9.407047927E-2
1.494991739E0,3.420744836E-2,4.840964451E-2,-9.895725548E-2
1.497370593E0,3.909422457E-2,4.963133857E-2,-1.038440317E-1
1.499748666E0,4.153761268E-2,6.062658876E-2,-1.075091213E-1
1.502125905E0,4.398100078E-2,6.551336497E-2,-1.123958975E-1
1.504503978E0,4.764608666E-2,6.184828654E-2,-1.172826737E-1
1.506882832E0,5.131116882E-2,6.429167092E-2,-1.233911440E-1
1.509260905E0,5.497625470E-2,6.673506647E-2,-1.270562261E-1
1.511638197E0,5.741964281E-2,6.795676053E-2,-1.319430023E-1
1.514016218E0,5.986303091E-2,6.795676053E-2,-1.368297935E-1
1.516395072E0,6.230641901E-2,6.673506647E-2,-1.441599578E-1
1.518773145E0,6.474980712E-2,6.184828654E-2,-1.490467340E-1
1.521150436E0,6.719319522E-2,5.818320066E-2,-1.551551968E-1
1.523528457E0,6.963659078E-2,5.573981255E-2,-1.600419879E-1
1.525907311E0,7.330167294E-2,5.085303262E-2,-1.649287641E-1
1.528285384E0,7.452336699E-2,4.963133857E-2,-1.685938388E-1
1.530662676E0,7.330167294E-2,4.596625641E-2,-1.710372269E-1
1.533040697E0,7.574506104E-2,3.619270027E-2,-1.747023165E-1
1.535419551E0,7.330167294E-2,3.863608837E-2,-1.759240031E-1
1.537797624E0,7.085828483E-2,3.497100621E-2,-1.771457046E-1
1.540174916E0,7.085828483E-2,3.252761811E-2,-1.771457046E-1
1.542552989E0,6.841489673E-2,2.764083818E-2,-1.795890927E-1
1.544931791E0,6.719319522E-2,2.764083818E-2,-1.795890927E-1
1.547309864E0,6.108472496E-2,2.764083818E-2,-1.795890927E-1
1.549687155E0,5.619794875E-2,3.008422814E-2,-1.795890927E-1
1.552065228E0,5.253286287E-2,2.886253223E-2,-1.783674061E-1
1.554444030E0,4.764608666E-2,2.764083818E-2,-1.783674061E-1
1.556822103E0,4.275930673E-2,2.641914412E-2,-1.771457046E-1
1.559199395E0,3.665083647E-2,2.764083818E-2,-1.747023165E-1
1.561577468E0,2.932066843E-2,3.374931216E-2,-1.710372269E-1
1.563956270E0,2.687728032E-2,3.985778242E-2,-1.649287641E-1
1.566334343E0,2.443389036E-2,4.474456236E-2,-1.600419879E-1
1.568711634E0,1.954711229E-2,5.573981255E-2,-1.527118087E-1
1.571089707E0,1.832541823E-2,6.795676053E-2,-1.441599578E-1
1.573468509E0,1.588202827E-2,7.528692484E-2,-1.356080920E-1
1.575846582E0,1.466033421E-2,8.383878320E-2,-1.270562261E-1
1.578223874E0,1.099525020E-2,8.506047726E-2,-1.185043678E-1
1.580601947E0,8.551862091E-3,8.383878320E-2,-1.087308154E-1
1.582980801E0,4.886778072E-3,8.261708915E-2,-1.014006436E-1
1.585358822E0,1.221694518E-3,7.895200700E-2,-9.407047927E-2
1.587736114E0,-2.443389036E-3,7.162184268E-2,-8.551861346E-2
1.590114186E0,-4.886778072E-3,6.551336497E-2,-7.941014320E-2
1.592493041E0,-4.886778072E-3,5.696150661E-2,-7.085828483E-2
1.594871061E0,-6.108472589E-3,4.840964451E-2,-6.352811307E-2
1.597248353E0,-8.551862091E-3,3.863608837E-2,-5.497625470E-2
1.599626426E0,-7.330167107E-3,3.130592033E-2,-4.764608666E-2
1.602005280E0,-4.886778072E-3,2.764083818E-2,-3.909422457E-2
1.604383301E0,-4.886778072E-3,2.153236605E-2,-3.176405653E-2
1.606760593E0,-3.665083554E-3,1.542389300E-2,-2.443389036E-2
1.609138666E0,-2.443389036E-3,1.542389300E-2,-1.954711229E-2
1.611517520E0,-2.443389036E-3,1.298050396E-2,-1.466033421E-2
1.613895541E0,1.221694518E-3,1.175880991E-2,-1.221694518E-2
1.616272832E0,2.443389036E-3,1.298050396E-2,-9.773556143E-3
1.618650905E0,4.886778072E-3,9.315420873E-3,-9.773556143E-3
1.621029759E0,6.108472589E-3,8.093725890E-3,-9.773556143E-3
1.623407832E0,7.330167107E-3,5.650337320E-3,-8.551862091E-3
1.625785072E0,1.343864016E-2,7.635590737E-4,-7.330167107E-3
1.628163145E0,1.832541823E-2,-2.901524538E-3,-1.099525020E-2
1.630541999E0,2.565558441E-2,-7.788302377E-3,-1.099525020E-2
1.632920072E0,2.809897438E-2,-9.009997360E-3,-1.466033421E-2
1.635297364E0,3.542914242E-2,-1.145338640E-2,-1.710372418E-2
1.637675436E0,4.275930673E-2,-1.511846948E-2,-1.954711229E-2
1.640054239E0,5.008947477E-2,-1.756185852E-2,-2.199050039E-2
1.642432311E0,5.741964281E-2,-1.878355257E-2,-2.687728032E-2
1.644809603E0,6.841489673E-2,-2.122694254E-2,-2.932066843E-2
1.647187676E0,7.696675509E-2,-1.878355257E-2,-3.054236248E-2
1.649566478E0,8.918370306E-2,-2.000524849E-2,-3.542914242E-2
1.651944551E0,9.651386738E-2,-1.634016447E-2,-3.909422457E-2
1.654321843E0,1.111742035E-1,-1.634016447E-2,-4.398100078E-2
1.656699916E0,1.197260618E-1,-1.756185852E-2,-4.764608666E-2
1.659078718E0,1.307213157E-1,-1.756185852E-2,-5.131116882E-2
1.661456791E0,1.429382563E-1,-2.000524849E-2,-5.497625470E-2
1.663834082E0,1.539335102E-1,-1.878355257E-2,-6.108472496E-2
1.666212155E0,1.661504507E-1,-2.122694254E-2,-6.597150117E-2
1.668590957E0,1.771457046E-1,-2.122694254E-2,-7.085828483E-2
1.670969030E0,1.893626451E-1,-2.122694254E-2,-7.452336699E-2
1.673346322E0,2.003578991E-1,-2.244863659E-2,-7.941014320E-2
1.675724395E0,2.101314515E-1,-1.878355257E-2,-8.429691941E-2
1.678103197E0,2.174616307E-1,-1.756185852E-2,-8.918370306E-2
1.680481270E0,2.235700935E-1,-1.389677543E-2,-9.284878522E-2
1.682858561E0,2.321219593E-1,-1.389677543E-2,-9.773556143E-2
1.685236634E0,2.382304370E-1,-1.389677543E-2,-1.014006436E-1
1.687615436E0,2.443388999E-1,-1.511846948E-2,-1.062874198E-1
1.689993509E0,2.455606014E-1,-1.267508045E-2,-1.099525094E-1
1.692370801E0,2.516690791E-1,-1.023169141E-2,-1.160609797E-1
1.694748874E0,2.516690791E-1,-1.679830020E-3,-1.197260618E-1
1.697127728E0,2.541124523E-1,8.093725890E-3,-1.233911440E-1
1.699505749E0,2.565558553E-1,1.175880991E-2,-1.258345395E-1
1.701883041E0,2.565558553E-1,1.908897609E-2,-1.307213157E-1
1.704261114E0,2.565558553E-1,2.641914412E-2,-1.331647038E-1
1.706639968E0,2.528907657E-1,3.130592033E-2,-1.356080920E-1
1.709017989E0,2.528907657E-1,3.252761811E-2,-1.343863904E-1
1.711395280E0,2.431172132E-1,3.741439432E-2,-1.356080920E-1
1.713773353E0,2.382304370E-1,4.107947648E-2,-1.356080920E-1
1.716152207E0,2.345653474E-1,4.230117425E-2,-1.368297935E-1
1.718530228E0,2.296785712E-1,4.718795046E-2,-1.343863904E-1
1.720907520E0,2.247917950E-1,4.718795046E-2,-1.331647038E-1
1.723285593E0,2.211267054E-1,5.085303262E-2,-1.294996142E-1
1.725664447E0,2.137965411E-1,5.451811850E-2,-1.246128380E-1
1.728042520E0,2.089097649E-1,5.573981255E-2,-1.197260618E-1
1.730419811E0,2.040229887E-1,5.207473040E-2,-1.148392856E-1
1.732797832E0,1.954711229E-1,5.329642445E-2,-1.111742035E-1
1.735176686E0,1.869192570E-1,5.085303262E-2,-1.038440317E-1
1.737554759E0,1.844758689E-1,3.863608837E-2,-1.001789495E-1
1.739932051E0,1.771457046E-1,3.497100621E-2,-9.284878522E-2
1.742310072E0,1.685938388E-1,2.886253223E-2,-8.796200156E-2
1.744688926E0,1.588202864E-1,2.397575416E-2,-8.185353130E-2
1.747066999E0,1.551551968E-1,1.664558798E-2,-7.574506104E-2
1.749444291E0,1.502684206E-1,8.093725890E-3,-7.207997888E-2
1.751822311E0,1.417165697E-1,1.985253533E-3,-6.841489673E-2
1.754201166E0,1.343863904E-1,-5.344913341E-3,-6.474980712E-2
1.756579239E0,1.282779276E-1,-1.023169141E-2,-6.108472496E-2
1.758956530E0,1.221694499E-1,-1.389677543E-2,-5.741964281E-2
1.761334603E0,1.160609797E-1,-2.122694254E-2,-5.619794875E-2
1.763713405E0,1.099525094E-1,-2.244863659E-2,-5.497625470E-2
1.766091478E0,1.038440317E-1,-2.855710872E-2,-5.253286287E-2
1.768468770E0,1.014006436E-1,-3.344388679E-2,-5.131116882E-2
1.770846843E0,9.651386738E-2,-3.222219273E-2,-4.886778072E-2
1.773225645E0,9.162709117E-2,-2.977880463E-2,-4.642439261E-2
1.775603718E0,9.040539712E-2,-3.222219273E-2,-4.398100078E-2
1.777981009E0,8.796200156E-2,-3.100049868E-2,-4.153761268E-2
1.780359082E0,8.674030751E-2,-3.466558084E-2,-3.909422457E-2
1.782737884E0,8.429691941E-2,-3.222219273E-2,-3.665083647E-2
1.785115957E0,8.307522535E-2,-3.344388679E-2,-3.176405653E-2
1.787493249E0,7.941014320E-2,-3.466558084E-2,-2.932066843E-2
1.789871322E0,7.818844914E-2,-3.588727489E-2,-2.809897438E-2
1.792250124E0,7.818844914E-2,-3.222219273E-2,-2.565558441E-2
1.794628197E0,7.696675509E-2,-3.344388679E-2,-2.321219631E-2
1.797005489E0,7.696675509E-2,-3.344388679E-2,-2.199050039E-2
1.799383561E0,7.818844914E-2,-3.100049868E-2,-2.443389036E-2
1.801762416E0,7.941014320E-2,-3.100049868E-2,-2.565558441E-2
1.804140436E0,8.063183725E-2,-2.977880463E-2,-2.809897438E-2
1.806517728E0,8.185353130E-2,-2.733541466E-2,-2.932066843E-2
1.808895801E0,8.429691941E-2,-2.244863659E-2,-3.298575059E-2
1.811274655E0,8.796200156E-2,-2.244863659E-2,-3.787253052E-2
1.813652676E0,9.040539712E-2,-2.000524849E-2,-4.153761268E-2
1.816029968E0,9.284878522E-2,-2.489202656E-2,-4.520269856E-2
1.818408041E0,9.651386738E-2,-2.733541466E-2,-4.886778072E-2
1.820786895E0,9.895725548E-2,-2.855710872E-2,-5.253286287E-2
1.823164968E0,1.014006436E-1,-3.222219273E-2,-5.741964281E-2
1.825542259E0,1.026223376E-1,-3.466558084E-2,-5.986303091E-2
1.827920280E0,1.038440317E-1,-3.466558084E-2,-6.352811307E-2
1.830299134E0,1.038440317E-1,-2.855710872E-2,-6.597150117E-2
1.832677207E0,1.062874198E-1,-3.466558084E-2,-6.963659078E-2
1.835054499E0,1.099525094E-1,-3.588727489E-2,-7.207997888E-2
1.837432520E0,1.111742035E-1,-3.466558084E-2,-7.330167294E-2
1.839811374E0,1.111742035E-1,-3.344388679E-2,-7.452336699E-2
1.842189447E0,1.136175916E-1,-3.588727489E-2,-7.574506104E-2
1.844566739E0,1.185043678E-1,-3.710897267E-2,-7.696675509E-2
1.846944759E0,1.197260618E-1,-3.955236077E-2,-7.696675509E-2
1.849323614E0,1.221694499E-1,-4.199574888E-2,-7.941014320E-2
1.851701686E0,1.270562261E-1,-4.321744293E-2,-7.818844914E-2
1.854078978E0,1.319430023E-1,-5.176930502E-2,-8.063183725E-2
1.856457051E0,1.356080920E-1,-5.176930502E-2,-8.063183725E-2
1.858835853E0,1.380514801E-1,-5.665608495E-2,-8.063183725E-2
1.861213926E0,1.429382563E-1,-6.398624927E-2,-8.063183725E-2
1.863591218E0,1.502684206E-1,-7.009471953E-2,-8.185353130E-2
1.865969291E0,1.551551968E-1,-7.009471953E-2,-8.185353130E-2
1.868348093E0,1.612636745E-1,-7.131642103E-2,-8.307522535E-2
1.870726166E0,1.698155403E-1,-6.765133142E-2,-8.551861346E-2
1.873103457E0,1.771457046E-1,-5.909947306E-2,-8.551861346E-2
1.875481530E0,1.844758689E-1,-5.421269313E-2,-8.796200156E-2
1.877860332E0,1.893626451E-1,-4.566083103E-2,-8.551861346E-2
1.880238405E0,1.954711229E-1,-4.566083103E-2,-8.551861346E-2
1.882615697E0,1.979145110E-1,-4.810422286E-2,-8.429691941E-2
1.884993770E0,2.003578991E-1,-4.932591692E-2,-8.429691941E-2
1.887372624E0,2.028012872E-1,-5.299099907E-2,-8.429691941E-2
1.889750645E0,2.040229887E-1,-5.299099907E-2,-8.307522535E-2
1.892127936E0,2.052446753E-1,-5.299099907E-2,-8.429691941E-2
1.894506009E0,2.064663768E-1,-5.176930502E-2,-8.674030751E-2
1.896884864E0,2.125748396E-1,-5.176930502E-2,-8.796200156E-2
1.899262884E0,2.125748396E-1,-4.077405483E-2,-8.674030751E-2
1.901640176E0,2.150182426E-1,-2.977880463E-2,-8.551861346E-2
1.904018249E0,2.186833173E-1,-2.122694254E-2,-8.185353130E-2
1.906397103E0,2.186833173E-1,-1.145338640E-2,-8.063183725E-2
1.908775124E0,2.186833173E-1,-6.566607859E-3,-7.574506104E-2
1.911152416E0,2.162399292E-1,-1.679830020E-3,-7.085828483E-2
1.913530489E0,2.125748396E-1,7.635590737E-4,-6.597150117E-2
1.915909343E0,2.113531530E-1,-1.679830020E-3,-6.230641901E-2
1.918287416E0,2.089097649E-1,-2.901524538E-3,-5.619794875E-2
1.920664707E0,2.076880634E-1,-4.123218823E-3,-5.008947477E-2
1.923042728E0,2.040229887E-1,-4.123218823E-3,-4.764608666E-2
1.925421582E0,2.040229887E-1,3.206948051E-3,-4.153761268E-2
1.927799655E0,2.064663768E-1,7.635590737E-4,-3.665083647E-2
1.930176947E0,2.052446753E-1,3.206948051E-3,-3.298575059E-2
1.932554968E0,2.052446753E-1,1.985253533E-3,-3.054236248E-2
1.934933822E0,2.064663768E-1,7.635590737E-4,-2.809897438E-2
1.937311895E0,2.089097649E-1,3.206948051E-3,-2.687728032E-2
1.939689186E0,2.101314515E-1,3.206948051E-3,-2.565558441E-2
1.942067259E0,2.113531530E-1,-4.581354442E-4,-2.809897438E-2
1.944446061E0,2.125748396E-1,-5.344913341E-3,-2.932066843E-2
1.946824134E0,2.174616307E-1,-1.389677543E-2,-2.932066843E-2
1.949201426E0,2.211267054E-1,-2.244863659E-2,-3.054236248E-2
1.951579499E0,2.272351831E-1,-3.222219273E-2,-3.420744836E-2
1.953958301E0,2.296785712E-1,-3.588727489E-2,-3.665083647E-2
1.956336374E0,2.357870489E-1,-4.077405483E-2,-3.909422457E-2
1.958713666E0,2.455606014E-1,-4.566083103E-2,-4.031591862E-2
1.961091739E0,2.541124523E-1,-5.054761097E-2,-4.031591862E-2
1.963470541E0,2.638860047E-1,-5.543438718E-2,-4.031591862E-2
1.965848614E0,2.736595869E-1,-6.520794332E-2,-4.031591862E-2
1.968225905E0,2.834331393E-1,-7.375980914E-2,-3.787253052E-2
1.970603978E0,2.956500649E-1,-7.864658535E-2,-3.542914242E-2
1.972982832E0,3.042019308E-1,-8.353336155E-2,-3.176405653E-2
1.975360853E0,3.127537966E-1,-8.719844371E-2,-2.932066843E-2
1.977738145E0,3.249707520E-1,-9.208522737E-2,-2.932066843E-2
1.980116218E0,3.347443044E-1,-9.697200358E-2,-2.932066843E-2
1.982495072E0,3.432961702E-1,-9.819369763E-2,-2.932066843E-2
1.984873093E0,3.567348123E-1,-1.116323397E-1,-3.054236248E-2
1.987250384E0,3.689517379E-1,-1.152974218E-1,-3.176405653E-2
1.989628457E0,3.775036037E-1,-1.152974218E-1,-3.420744836E-2
1.992007311E0,3.909422457E-1,-1.165191159E-1,-3.420744836E-2
1.994385384E0,3.994941115E-1,-1.189625040E-1,-3.542914242E-2
1.996762624E0,4.080459774E-1,-1.250709742E-1,-3.542914242E-2
1.999140697E0,4.178195298E-1,-1.299577504E-1,-3.665083647E-2
2.001519551E0,4.239279926E-1,-1.348445266E-1,-3.909422457E-2
2.003897624E0,4.300364852E-1,-1.385096163E-1,-4.031591862E-2
2.006274916E0,4.349232614E-1,-1.385096163E-1,-4.275930673E-2
2.008652936E0,4.398100376E-1,-1.409530044E-1,-4.398100078E-2
2.011031791E0,4.422534108E-1,-1.433963925E-1,-4.398100078E-2
2.013409864E0,4.434750974E-1,-1.409530044E-1,-4.398100078E-2
2.015787155E0,4.446968138E-1,-1.409530044E-1,-4.642439261E-2
2.018165176E0,4.446968138E-1,-1.482831687E-1,-4.886778072E-2
2.020544030E0,4.446968138E-1,-1.507265568E-1,-5.131116882E-2
2.022922103E0,4.410317242E-1,-1.531699449E-1,-5.375456065E-2
2.025299395E0,4.361449480E-1,-1.543916464E-1,-5.253286287E-2
2.027677416E0,4.337015450E-1,-1.531699449E-1,-5.497625470E-2
2.030056270E0,4.324798584E-1,-1.519482583E-1,-5.741964281E-2
2.032434343E0,4.300364852E-1,-1.495048702E-1,-6.108472496E-2
2.034811634E0,4.288147688E-1,-1.458397806E-1,-6.230641901E-2
2.037189707E0,4.275930822E-1,-1.433963925E-1,-6.474980712E-2
2.039568509E0,4.251496792E-1,-1.409530044E-1,-6.474980712E-2
2.041946582E0,4.251496792E-1,-1.360662282E-1,-6.474980712E-2
2.044323874E0,4.263713956E-1,-1.287360638E-1,-6.474980712E-2
2.046701947E0,4.263713956E-1,-1.275143623E-1,-6.719319522E-2
2.049080749E0,4.251496792E-1,-1.214058921E-1,-6.841489673E-2
2.051458822E0,4.251496792E-1,-1.214058921E-1,-7.085828483E-2
2.053836114E0,4.251496792E-1,-1.152974218E-1,-7.330167294E-2
2.056214186E0,4.275930822E-1,-1.177408099E-1,-7.452336699E-2
2.058592989E0,4.300364852E-1,-1.177408099E-1,-7.574506104E-2
2.060971061E0,4.361449480E-1,-1.189625040E-1,-7.818844914E-2
2.063348353E0,4.385883212E-1,-1.189625040E-1,-7.941014320E-2
2.065726426E0,4.434750974E-1,-1.177408099E-1,-8.185353130E-2
2.068105280E0,4.471401870E-1,-1.177408099E-1,-8.674030751E-2
2.070483301E0,4.532486796E-1,-1.140757278E-1,-9.040539712E-2
2.072860593E0,4.581354558E-1,-1.226275861E-1,-9.407047927E-2
2.075238666E0,4.618005157E-1,-1.226275861E-1,-9.773556143E-2
2.077617520E0,4.654656053E-1,-1.177408099E-1,-1.050657257E-1
2.079995541E0,4.752391577E-1,-1.079672500E-1,-1.075091213E-1
2.082372832E0,4.825693369E-1,-9.452861547E-2,-1.099525094E-1
2.084750905E0,4.898995161E-1,-8.231166750E-2,-1.111742035E-1
2.087129759E0,4.960079789E-1,-6.398624927E-2,-1.111742035E-1
2.089507832E0,4.984513521E-1,-4.566083103E-2,-1.111742035E-1
2.091885072E0,5.008947253E-1,-3.222219273E-2,-1.087308154E-1
2.094263145E0,5.045598149E-1,-2.611372061E-2,-1.075091213E-1
2.096641999E0,5.045598149E-1,-1.756185852E-2,-1.062874198E-1
2.099020072E0,5.021164417E-1,-7.788302377E-3,-1.038440317E-1
2.101397364E0,5.021164417E-1,-1.511846948E-2,-1.014006436E-1
2.103775384E0,4.972296655E-1,-1.267508045E-2,-9.773556143E-2
2.106154239E0,4.923428893E-1,-1.145338640E-2,-9.529217333E-2
2.108532311E0,4.886777997E-1,-1.511846948E-2,-9.162709117E-2
2.110909603E0,4.801259339E-1,-1.634016447E-2,-8.796200156E-2
2.113287624E0,4.715740979E-1,-1.878355257E-2,-8.551861346E-2
2.115666478E0,4.605788291E-1,-2.122694254E-2,-8.185353130E-2
2.118044551E0,4.471401870E-1,-2.000524849E-2,-7.696675509E-2
2.120421843E0,4.337015450E-1,-2.611372061E-2,-7.330167294E-2
2.122799916E0,4.165978432E-1,-2.733541466E-2,-6.963659078E-2
2.125178718E0,3.982724249E-1,-2.733541466E-2,-6.474980712E-2
2.127556791E0,3.787252903E-1,-2.733541466E-2,-5.864133686E-2
2.129934082E0,3.579564989E-1,-2.489202656E-2,-5.253286287E-2
2.132312155E0,3.371876776E-1,-2.611372061E-2,-4.642439261E-2
2.134690957E0,3.127537966E-1,-2.489202656E-2,-4.031591862E-2
2.137069030E0,2.895416021E-1,-2.977880463E-2,-3.542914242E-2
2.139446322E0,2.675510943E-1,-3.100049868E-2,-3.176405653E-2
2.141824395E0,2.443388999E-1,-2.977880463E-2,-2.687728032E-2
2.144203197E0,2.235700935E-1,-2.611372061E-2,-2.321219631E-2
2.146581270E0,2.064663768E-1,-2.733541466E-2,-1.954711229E-2
2.148958561E0,1.869192570E-1,-3.344388679E-2,-1.954711229E-2
2.151336634E0,1.698155403E-1,-3.955236077E-2,-2.199050039E-2
2.153715489E0,1.527118087E-1,-4.810422286E-2,-2.565558441E-2
2.156093509E0,1.368297935E-1,-6.032116711E-2,-2.932066843E-2
2.158470801E0,1.221694499E-1,-6.642963737E-2,-3.298575059E-2
2.160848874E0,1.148392856E-1,-7.864658535E-2,-4.031591862E-2
2.163227728E0,1.050657257E-1,-9.208522737E-2,-4.764608666E-2
2.165605749E0,1.001789495E-1,-1.055238619E-1,-5.619794875E-2
2.167983041E0,9.529217333E-2,-1.128540337E-1,-6.474980712E-2
2.170361114E0,9.284878522E-2,-1.177408099E-1,-7.330167294E-2
2.172739968E0,9.284878522E-2,-1.177408099E-1,-7.818844914E-2
2.175118041E0,9.284878522E-2,-1.165191159E-1,-8.185353130E-2
2.177495280E0,9.407047927E-2,-1.128540337E-1,-8.674030751E-2
2.179873353E0,9.895725548E-2,-1.079672500E-1,-8.918370306E-2
2.182252207E0,1.038440317E-1,-1.128540337E-1,-9.162709117E-2
2.184630280E0,1.123958975E-1,-1.152974218E-1,-9.284878522E-2
2.187007520E0,1.160609797E-1,-1.043021679E-1,-9.162709117E-2
2.189385593E0,1.270562261E-1,-1.030804738E-1,-9.162709117E-2
2.191764447E0,1.380514801E-1,-1.043021679E-1,-9.040539712E-2
2.194142520E0,1.466033459E-1,-9.697200358E-2,-8.918370306E-2
2.196519811E0,1.600419879E-1,-9.086353332E-2,-8.796200156E-2
2.198897832E0,1.734806150E-1,-7.498150319E-2,-8.551861346E-2
2.201276686E0,1.881409585E-1,-6.520794332E-2,-8.429691941E-2
2.203654759E0,2.052446753E-1,-5.787777901E-2,-8.307522535E-2
2.206032051E0,2.199050188E-1,-5.176930502E-2,-8.307522535E-2
2.208410124E0,2.309002578E-1,-4.321744293E-2,-8.185353130E-2
2.210788926E0,2.431172132E-1,-3.833066672E-2,-8.063183725E-2
2.213166999E0,2.565558553E-1,-3.833066672E-2,-7.818844914E-2
2.215544291E0,2.614426315E-1,-3.833066672E-2,-7.696675509E-2
2.217922364E0,2.724378705E-1,-4.199574888E-2,-7.574506104E-2
2.220301166E0,2.773246467E-1,-4.199574888E-2,-7.330167294E-2
2.222679239E0,2.785463631E-1,-4.199574888E-2,-7.085828483E-2
2.225056530E0,2.822114229E-1,-4.932591692E-2,-6.963659078E-2
2.227434603E0,2.846548259E-1,-5.421269313E-2,-6.963659078E-2
2.229813405E0,2.834331393E-1,-5.787777901E-2,-6.597150117E-2
2.232191478E0,2.809897363E-1,-6.154286116E-2,-6.352811307E-2
2.234568770E0,2.785463631E-1,-6.642963737E-2,-5.986303091E-2
2.236946843E0,2.712161839E-1,-6.642963737E-2,-5.864133686E-2
2.239325697E0,2.638860047E-1,-6.642963737E-2,-5.619794875E-2
2.241703718E0,2.541124523E-1,-6.765133142E-2,-5.375456065E-2
2.244081009E0,2.418955117E-1,-7.131642103E-2,-5.131116882E-2
2.246459082E0,2.272351831E-1,-7.131642103E-2,-5.008947477E-2
2.248837936E0,2.150182426E-1,-7.742489129E-2,-5.008947477E-2
2.251215957E0,2.015796006E-1,-7.864658535E-2,-4.886778072E-2
2.253593249E0,1.844758689E-1,-8.108997345E-2,-5.008947477E-2
2.255971322E0,1.698155403E-1,-8.108997345E-2,-5.253286287E-2
2.258350176E0,1.539335102E-1,-8.231166750E-2,-5.375456065E-2
2.260728197E0,1.404948682E-1,-9.086353332E-2,-5.864133686E-2
2.263105489E0,1.233911440E-1,-8.108997345E-2,-6.108472496E-2
2.265483561E0,1.099525094E-1,-8.108997345E-2,-6.352811307E-2
2.267862416E0,9.407047927E-2,-7.498150319E-2,-6.719319522E-2
2.270240489E0,8.185353130E-2,-7.131642103E-2,-7.085828483E-2
2.272617780E0,7.330167294E-2,-6.887302548E-2,-7.574506104E-2
2.274995801E0,6.474980712E-2,-6.154286116E-2,-7.941014320E-2
2.277374655E0,5.619794875E-2,-5.299099907E-2,-8.551861346E-2
2.279752728E0,5.008947477E-2,-4.566083103E-2,-9.040539712E-2
2.282130020E0,4.520269856E-2,-4.077405483E-2,-9.407047927E-2
2.284508041E0,3.787253052E-2,-3.100049868E-2,-1.001789495E-1
2.286886895E0,3.665083647E-2,-2.855710872E-2,-1.050657257E-1
2.289264968E0,3.665083647E-2,-2.977880463E-2,-1.136175916E-1
2.291642259E0,3.420744836E-2,-2.733541466E-2,-1.172826737E-1
2.294020332E0,3.542914242E-2,-3.222219273E-2,-1.233911440E-1
2.296399134E0,3.665083647E-2,-2.733541466E-2,-1.270562261E-1
2.298777207E0,3.787253052E-2,-2.855710872E-2,-1.307213157E-1
2.301154499E0,4.275930673E-2,-2.733541466E-2,-1.368297935E-1
2.303532572E0,4.764608666E-2,-2.733541466E-2,-1.417165697E-1
2.305911374E0,5.131116882E-2,-2.367033064E-2,-1.453816444E-1
2.308289447E0,5.741964281E-2,-2.000524849E-2,-1.490467340E-1
2.310666739E0,6.841489673E-2,-1.267508045E-2,-1.539335102E-1
2.313044811E0,7.207997888E-2,1.985253533E-3,-1.563768983E-1
2.315423614E0,8.307522535E-2,4.428642802E-3,-1.575985998E-1
2.317801686E0,8.551861346E-2,1.786728203E-2,-1.600419879E-1
2.320178978E0,9.284878522E-2,2.153236605E-2,-1.612636745E-1
2.322557051E0,9.651386738E-2,3.008422814E-2,-1.600419879E-1
2.324935905E0,9.895725548E-2,3.374931216E-2,-1.600419879E-1
2.327313926E0,1.062874198E-1,3.252761811E-2,-1.612636745E-1
2.329691218E0,1.099525094E-1,3.985778242E-2,-1.612636745E-1
2.332069291E0,1.160609797E-1,4.474456236E-2,-1.649287641E-1
2.334448145E0,1.209477559E-1,5.573981255E-2,-1.673721522E-1
2.336826166E0,1.282779276E-1,6.184828654E-2,-1.722589284E-1
2.339203457E0,1.368297935E-1,7.528692484E-2,-1.759240031E-1
2.341581530E0,1.441599578E-1,8.872556686E-2,-1.820324808E-1
2.343960384E0,1.502684206E-1,9.727742523E-2,-1.893626451E-1
2.346338457E0,1.539335102E-1,1.058292910E-1,-1.954711229E-1
2.348715697E0,1.588202864E-1,1.119377613E-1,-2.040229887E-1
2.351093770E0,1.649287641E-1,1.143811494E-1,-2.137965411E-1
2.353472624E0,1.698155403E-1,1.168245375E-1,-2.223484069E-1
2.355850697E0,1.759240031E-1,1.204896197E-1,-2.309002578E-1
2.358227989E0,1.832541823E-1,1.229330078E-1,-2.394521236E-1
2.360606009E0,1.918060333E-1,1.192679256E-1,-2.516690791E-1
2.362984864E0,2.003578991E-1,1.192679256E-1,-2.602209449E-1
2.365362936E0,2.076880634E-1,1.217113137E-1,-2.675510943E-1
2.367740228E0,2.150182426E-1,1.278197914E-1,-2.797680497E-1
2.370118249E0,2.260134816E-1,1.253764033E-1,-2.895416021E-1
2.372497103E0,2.321219593E-1,1.314848661E-1,-2.993151546E-1
2.374875176E0,2.406738251E-1,1.314848661E-1,-3.078670204E-1
2.377252468E0,2.504473627E-1,1.290414780E-1,-3.139754832E-1
2.379630541E0,2.589992285E-1,1.302631795E-1,-3.213056624E-1
2.382009343E0,2.675510943E-1,1.314848661E-1,-3.274141252E-1
2.384387416E0,2.761029601E-1,1.253764033E-1,-3.335226178E-1
2.386764707E0,2.846548259E-1,1.241547018E-1,-3.347443044E-1
2.389142780E0,2.944283783E-1,1.143811494E-1,-3.396310806E-1
2.391521582E0,3.029802442E-1,1.094943732E-1,-3.384093940E-1
2.393899655E0,3.103103936E-1,1.094943732E-1,-3.359659910E-1
2.396276947E0,3.213056624E-1,1.058292910E-1,-3.347443044E-1
2.398655020E0,3.286358118E-1,1.058292910E-1,-3.310792148E-1
2.401033822E0,3.384093940E-1,9.972081333E-2,-3.274141252E-1
2.403411895E0,3.457395434E-1,9.239064902E-2,-3.213056624E-1
2.405789186E0,3.542914093E-1,8.628217876E-2,-3.151971996E-1
2.408167259E0,3.616215885E-1,8.261708915E-2,-3.090887070E-1
2.410546061E0,3.640649617E-1,8.017370105E-2,-3.029802442E-1
2.412924134E0,3.701734245E-1,7.528692484E-2,-2.980934680E-1
2.415301426E0,3.726168275E-1,7.040014863E-2,-2.932066917E-1
2.417679499E0,3.738385141E-1,7.162184268E-2,-2.870981991E-1
2.420058353E0,3.750602305E-1,6.184828654E-2,-2.846548259E-1
2.422436374E0,3.775036037E-1,5.451811850E-2,-2.809897363E-1
2.424813666E0,3.823903799E-1,4.963133857E-2,-2.761029601E-1
2.427191739E0,3.823903799E-1,4.840964451E-2,-2.712161839E-1
2.429570593E0,3.848337829E-1,4.963133857E-2,-2.638860047E-1
2.431948666E0,3.860554695E-1,5.573981255E-2,-2.565558553E-1
2.434325905E0,3.848337829E-1,6.306997687E-2,-2.480039895E-1
2.436703978E0,3.823903799E-1,7.040014863E-2,-2.382304370E-1
2.439082832E0,3.775036037E-1,7.650861889E-2,-2.284568697E-1
2.441460905E0,3.738385141E-1,7.650861889E-2,-2.186833173E-1
2.443838197E0,3.689517379E-1,8.261708915E-2,-2.076880634E-1
2.446216218E0,3.640649617E-1,8.750387281E-2,-1.954711229E-1
2.448595072E0,3.579564989E-1,9.361234307E-2,-1.844758689E-1
2.450973145E0,3.542914093E-1,9.727742523E-2,-1.734806150E-1
2.453350436E0,3.481829464E-1,1.021642014E-1,-1.600419879E-1
2.455728509E0,3.481829464E-1,1.082726792E-1,-1.478250325E-1
2.458107311E0,3.445178568E-1,1.143811494E-1,-1.356080920E-1
2.460485384E0,3.396310806E-1,1.192679256E-1,-1.221694499E-1
2.462862676E0,3.408527672E-1,1.265980899E-1,-1.087308154E-1
2.465240749E0,3.396310806E-1,1.302631795E-1,-9.651386738E-2
2.467619551E0,3.384093940E-1,1.339282542E-1,-8.429691941E-2
2.469997624E0,3.371876776E-1,1.375933439E-1,-7.330167294E-2
2.472374916E0,3.371876776E-1,1.424801201E-1,-6.230641901E-2
2.474752989E0,3.359659910E-1,1.400367320E-1,-5.253286287E-2
2.477131791E0,3.347443044E-1,1.461452097E-1,-4.275930673E-2
2.479509864E0,3.323009014E-1,1.437018216E-1,-3.542914242E-2
2.481887155E0,3.298575282E-1,1.400367320E-1,-2.932066843E-2
2.484265228E0,3.249707520E-1,1.424801201E-1,-2.443389036E-2
2.486644030E0,3.225273490E-1,1.473668963E-1,-1.710372418E-2
2.489022103E0,3.188622594E-1,1.485885978E-1,-1.221694518E-2
2.491399395E0,3.090887070E-1,1.620272398E-1,-4.886778072E-3
2.493777468E0,2.895416021E-1,1.852394342E-1,1.466033421E-2
2.496156322E0,2.455606014E-1,2.377723008E-1,5.619794875E-2
2.498534343E0,1.685938388E-1,3.122956753E-1,1.357607991E-1
2.500911634E0,7.574506104E-2,3.623851240E-1,2.322746664E-1
2.503289707E0,-1.466033421E-2,3.611634374E-1,3.300102353E-1
2.505668561E0,-9.407047927E-2,3.293993771E-1,4.228590131E-1
2.508046582E0,-1.551551968E-1,2.768665254E-1,5.010474920E-1
2.510423874E0,-1.991362125E-1,2.206685692E-1,5.645755529E-1
2.512801947E0,-2.247917950E-1,1.644706279E-1,6.134433746E-1
2.515180801E0,-2.394521236E-1,1.021642014E-1,6.513158679E-1
2.517558874E0,-2.455606014E-1,3.741439432E-2,6.806365848E-1
2.519936166E0,-2.467822880E-1,-1.634016447E-2,7.075138092E-1
2.522314186E0,-2.480039895E-1,-5.909947306E-2,7.319477201E-1
2.524693041E0,-2.492256761E-1,-9.697200358E-2,7.539382577E-1
2.527071114E0,-2.553341687E-1,-1.250709742E-1,7.795938253E-1
2.529448405E0,-2.736595869E-1,-1.409530044E-1,8.040276766E-1
2.531826426E0,-2.980934680E-1,-1.482831687E-1,8.309049606E-1
2.534205280E0,-3.286358118E-1,-1.507265568E-1,8.565605879E-1
2.536583353E0,-3.701734245E-1,-1.495048702E-1,8.797727823E-1
2.538960645E0,-4.165978432E-1,-1.275143623E-1,9.066500664E-1
2.541338666E0,-4.654656053E-1,-1.067455560E-1,9.347490072E-1
2.543717520E0,-5.143333673E-1,-8.719844371E-2,9.616262913E-1
2.546095593E0,-5.607577562E-1,-6.398624927E-2,9.897252917E-1
2.548472884E0,-6.047387719E-1,-4.199574888E-2,1.017824292E0
2.550850957E0,-6.474980712E-1,-2.611372061E-2,1.045923233E0
2.553229759E0,-6.865923405E-1,-1.634016447E-2,1.076465607E0
2.555607832E0,-7.256865501E-1,-6.566607859E-3,1.107007980E0
2.557985124E0,-7.635591030E-1,7.635590737E-4,1.138772011E0
2.560363197E0,-8.002098799E-1,3.206948051E-3,1.168092728E0
2.562741999E0,-8.319739699E-1,-1.679830020E-3,1.197413325E0
2.565120072E0,-8.625163436E-1,-1.389677543E-2,1.224290609E0
2.567497364E0,-8.893936276E-1,-3.222219273E-2,1.246281147E0
2.569875436E0,-9.150491953E-1,-5.909947306E-2,1.263384819E0
2.572254239E0,-9.370396733E-1,-8.964183182E-2,1.274380088E0
2.574632311E0,-9.590302110E-1,-1.201841980E-1,1.278045177E0
2.577009603E0,-9.761339426E-1,-1.592784226E-1,1.273158431E0
2.579387676E0,-9.920159578E-1,-2.057028115E-1,1.258498073E0
2.581766530E0,-9.993461370E-1,-2.557922900E-1,1.234064221E0
2.584144551E0,-1.006676316E0,-3.046600819E-1,1.201078415E0
2.586521843E0,-1.004232883E0,-3.584146202E-1,1.159540772E0
2.588899916E0,-9.969027042E-1,-4.048390090E-1,1.107007980E0
2.591278770E0,-9.810206890E-1,-4.475983381E-1,1.049588323E0
2.593656791E0,-9.565867782E-1,-4.830274582E-1,9.872818589E-1
2.596034082E0,-9.223793745E-1,-5.135698318E-1,9.213103652E-1
2.598412155E0,-8.796200752E-1,-5.331169367E-1,8.504521251E-1
2.600791009E0,-8.307522535E-1,-5.453338623E-1,7.832589149E-1
2.603169030E0,-7.757760286E-1,-5.563291311E-1,7.148439884E-1
2.605546374E0,-7.171346545E-1,-5.599942207E-1,6.476507783E-1
2.607924395E0,-6.511631608E-1,-5.551074743E-1,5.841227174E-1
2.610303249E0,-5.864133835E-1,-5.367820263E-1,5.254813433E-1
2.612681322E0,-5.143333673E-1,-5.123481154E-1,4.705050886E-1
2.615058614E0,-4.422534108E-1,-4.805840850E-1,4.204156399E-1
2.617436634E0,-3.665083647E-1,-4.475983381E-1,3.752129376E-1
2.619815489E0,-2.932066917E-1,-4.036173224E-1,3.336753249E-1
2.622193561E0,-2.186833173E-1,-3.596363366E-1,2.958027720E-1
2.624570853E0,-1.466033459E-1,-3.132119179E-1,2.652604282E-1
2.626948874E0,-7.941014320E-2,-2.643441558E-1,2.371614426E-1
2.629327728E0,-1.588202827E-2,-2.191414535E-1,2.115058601E-1
2.631705801E0,4.153761268E-2,-1.678302884E-1,1.870719790E-1
2.634083093E0,9.895725548E-2,-1.299577504E-1,1.638597846E-1
2.636461166E0,1.478250325E-1,-8.842013776E-2,1.394258887E-1
2.638839968E0,1.918060333E-1,-5.421269313E-2,1.136175916E-1
2.641218041E0,2.284568697E-1,-1.511846948E-2,8.674030751E-2
2.643595332E0,2.614426315E-1,1.908897609E-2,6.230641901E-2
2.645973405E0,2.858765125E-1,5.573981255E-2,4.275930673E-2
2.648352207E0,3.017585576E-1,8.383878320E-2,2.321219631E-2
2.650730280E0,3.188622594E-1,9.972081333E-2,4.886778072E-3
2.653107572E0,3.249707520E-1,1.156028435E-1,-8.551862091E-3
2.655485645E0,3.274141252E-1,1.241547018E-1,-2.321219631E-2
2.657864447E0,3.261924386E-1,1.229330078E-1,-3.787253052E-2
2.660242520E0,3.237490356E-1,1.180462316E-1,-5.131116882E-2
2.662619811E0,3.139754832E-1,1.119377613E-1,-6.597150117E-2
2.664997884E0,3.054236174E-1,1.021642014E-1,-8.185353130E-2
2.667376739E0,2.919849753E-1,9.239064902E-2,-9.773556143E-2
2.669754759E0,2.797680497E-1,8.261708915E-2,-1.148392856E-1
2.672132051E0,2.675510943E-1,7.528692484E-2,-1.331647038E-1
2.674510124E0,2.516690791E-1,7.162184268E-2,-1.490467340E-1
2.676888978E0,2.357870489E-1,6.917845458E-2,-1.661504507E-1
2.679266999E0,2.211267054E-1,6.306997687E-2,-1.856975704E-1
2.681644291E0,2.076880634E-1,6.062658876E-2,-2.040229887E-1
2.684022364E0,1.905843467E-1,6.306997687E-2,-2.199050188E-1
2.686401218E0,1.759240031E-1,6.429167092E-2,-2.382304370E-1
2.688779239E0,1.588202864E-1,7.406523079E-2,-2.528907657E-1
2.691156530E0,1.441599578E-1,8.139539510E-2,-2.675510943E-1
2.693534603E0,1.294996142E-1,9.116895497E-2,-2.797680497E-1
2.695913457E0,1.123958975E-1,1.046075895E-1,-2.907632887E-1
2.698291530E0,9.407047927E-2,1.229330078E-1,-2.993151546E-1
2.700668822E0,8.307522535E-2,1.339282542E-1,-3.103103936E-1
2.703046843E0,7.330167294E-2,1.461452097E-1,-3.188622594E-1
2.705425697E0,6.352811307E-2,1.620272398E-1,-3.249707520E-1
2.707803770E0,5.375456065E-2,1.803526580E-1,-3.310792148E-1
2.710181061E0,4.642439261E-2,1.937913001E-1,-3.371876776E-1
2.712559082E0,4.153761268E-2,2.096733153E-1,-3.396310806E-1
2.714937936E0,3.787253052E-2,2.267770469E-1,-3.420744538E-1
2.717316009E0,3.542914242E-2,2.426590770E-1,-3.457395434E-1
2.719693301E0,3.298575059E-2,2.548760176E-1,-3.457395434E-1
2.722071322E0,3.054236248E-2,2.683146596E-1,-3.469612300E-1
2.724450176E0,3.054236248E-2,2.805316150E-1,-3.481829464E-1
2.726828249E0,3.054236248E-2,2.915268540E-1,-3.506263196E-1
2.729205541E0,2.809897438E-2,3.074088693E-1,-3.518480062E-1
2.731583614E0,2.809897438E-2,3.208475113E-1,-3.518480062E-1
2.733962416E0,2.443389036E-2,3.367295563E-1,-3.481829464E-1
2.736340489E0,2.199050039E-2,3.526115716E-1,-3.457395434E-1
2.738717780E0,1.466033421E-2,3.697153032E-1,-3.432961702E-1
2.741095853E0,9.773556143E-3,3.794888556E-1,-3.396310806E-1
2.743474655E0,8.551862091E-3,3.831539452E-1,-3.384093940E-1
2.745852728E0,3.665083554E-3,3.868190348E-1,-3.371876776E-1
2.748230020E0,3.665083554E-3,3.868190348E-1,-3.371876776E-1
2.750608093E0,4.886778072E-3,3.831539452E-1,-3.384093940E-1
2.752986947E0,8.551862091E-3,3.794888556E-1,-3.408527672E-1
2.755364968E0,1.588202827E-2,3.697153032E-1,-3.445178568E-1
2.757742259E0,2.565558441E-2,3.611634374E-1,-3.481829464E-1
2.760120332E0,3.665083647E-2,3.538332880E-1,-3.542914093E-1
2.762499186E0,5.131116882E-2,3.477247953E-1,-3.579564989E-1
2.764877207E0,6.719319522E-2,3.416163325E-1,-3.591781855E-1
2.767254499E0,8.185353130E-2,3.379512429E-1,-3.603998721E-1
2.769632572E0,9.651386738E-2,3.355078697E-1,-3.591781855E-1
2.772011426E0,1.099525094E-1,3.318427801E-1,-3.567348123E-1
2.774389447E0,1.258345395E-1,3.257342875E-1,-3.445178568E-1
2.776766739E0,1.404948682E-1,3.208475113E-1,-3.286358118E-1
2.779144811E0,1.551551968E-1,3.269560039E-1,-3.139754832E-1
2.781523666E0,1.637070626E-1,3.306210935E-1,-2.980934680E-1
2.783901739E0,1.722589284E-1,3.355078697E-1,-2.822114229E-1
2.786279030E0,1.808107942E-1,3.367295563E-1,-2.663294077E-1
2.788657051E0,1.820324808E-1,3.403946459E-1,-2.480039895E-1
2.791035905E0,1.844758689E-1,3.416163325E-1,-2.284568697E-1
2.793413978E0,1.856975704E-1,3.403946459E-1,-2.089097649E-1
2.795791270E0,1.869192570E-1,3.330644667E-1,-1.905843467E-1
2.798169291E0,1.808107942E-1,3.355078697E-1,-1.710372269E-1
2.800548145E0,1.759240031E-1,3.257342875E-1,-1.514901221E-1
2.802926218E0,1.673721522E-1,3.220692277E-1,-1.331647038E-1
2.805303509E0,1.624853760E-1,3.159607351E-1,-1.148392856E-1
2.807681530E0,1.539335102E-1,3.122956753E-1,-9.529217333E-2
2.810060384E0,1.453816444E-1,3.122956753E-1,-7.574506104E-2
2.812438457E0,1.356080920E-1,3.074088693E-1,-5.986303091E-2
2.814815749E0,1.233911440E-1,3.122956753E-1,-4.153761268E-2
2.817193822E0,1.111742035E-1,3.110739589E-1,-2.443389036E-2
2.819572624E0,9.651386738E-2,3.122956753E-1,-8.551862091E-3
2.821950697E0,7.941014320E-2,3.074088693E-1,4.886778072E-3
2.824327989E0,6.108472496E-2,3.049654961E-1,1.954711229E-2
2.826706061E0,3.909422457E-2,3.000787199E-1,2.932066843E-2
2.829084864E0,1.588202827E-2,2.878617644E-1,3.787253052E-2
2.831462936E0,-3.665083554E-3,2.695363462E-1,4.398100078E-2
2.833840228E0,-2.932066843E-2,2.475458533E-1,4.642439261E-2
2.836218301E0,-5.375456065E-2,2.267770469E-1,4.764608666E-2
2.838597103E0,-8.063183725E-2,2.011214644E-1,4.764608666E-2
2.840975176E0,-1.038440317E-1,1.827960461E-1,4.764608666E-2
2.843352468E0,-1.270562261E-1,1.595838517E-1,4.642439261E-2
2.845730541E0,-1.539335102E-1,1.437018216E-1,4.642439261E-2
2.848109395E0,-1.710372269E-1,1.192679256E-1,4.642439261E-2
2.850487416E0,-1.966928244E-1,1.094943732E-1,4.642439261E-2
2.852864707E0,-2.199050188E-1,1.094943732E-1,5.008947477E-2
2.855242780E0,-2.357870489E-1,1.058292910E-1,5.619794875E-2
2.857621634E0,-2.528907657E-1,1.119377613E-1,6.108472496E-2
2.859999655E0,-2.687727809E-1,1.192679256E-1,6.719319522E-2
2.862376947E0,-2.748812735E-1,1.253764033E-1,7.574506104E-2
2.864755020E0,-2.834331393E-1,1.278197914E-1,8.551861346E-2
2.867133874E0,-2.932066917E-1,1.351499557E-1,9.529217333E-2
2.869511947E0,-2.956500649E-1,1.253764033E-1,1.038440317E-1
2.871889186E0,-2.956500649E-1,1.180462316E-1,1.099525094E-1
2.874267259E0,-2.956500649E-1,1.107160673E-1,1.160609797E-1
2.876646114E0,-2.883199155E-1,1.021642014E-1,1.197260618E-1
2.879024186E0,-2.822114229E-1,9.239064902E-2,1.258345395E-1
2.881401478E0,-2.699944973E-1,7.895200700E-2,1.319430023E-1
2.883779499E0,-2.565558553E-1,7.162184268E-2,1.394258887E-1
2.886158353E0,-2.431172132E-1,5.940489471E-2,1.455343664E-1
2.888536426E0,-2.260134816E-1,5.451811850E-2,1.577513069E-1
2.890913718E0,-2.076880634E-1,4.963133857E-2,1.711899489E-1
2.893291739E0,-1.869192570E-1,4.963133857E-2,1.858502775E-1
2.895670593E0,-1.649287641E-1,4.474456236E-2,2.005106062E-1
2.898048666E0,-1.429382563E-1,4.718795046E-2,2.163926363E-1
2.900425957E0,-1.209477559E-1,5.696150661E-2,2.310529798E-1
2.902804030E0,-9.529217333E-2,5.940489471E-2,2.444916219E-1
2.905182832E0,-7.207997888E-2,7.406523079E-2,2.579302490E-1
2.907560905E0,-4.886778072E-2,8.383878320E-2,2.677038014E-1
2.909938197E0,-2.443389036E-2,9.483403713E-2,2.786990702E-1
2.912316270E0,-3.665083554E-3,1.131594554E-1,2.872509360E-1
2.914695072E0,1.588202827E-2,1.253764033E-1,2.958027720E-1
2.917073145E0,4.031591862E-2,1.314848661E-1,3.043546379E-1
2.919450436E0,5.864133686E-2,1.327065676E-1,3.080197275E-1
2.921828509E0,7.696675509E-2,1.265980899E-1,3.141281903E-1
2.924207311E0,8.796200156E-2,1.327065676E-1,3.165715933E-1
2.926585384E0,1.026223376E-1,1.253764033E-1,3.177932799E-1
2.928962676E0,1.148392856E-1,1.229330078E-1,3.177932799E-1
2.931340749E0,1.270562261E-1,1.168245375E-1,3.153499067E-1
2.933719603E0,1.368297935E-1,1.131594554E-1,3.116848171E-1
2.936097624E0,1.441599578E-1,1.094943732E-1,3.080197275E-1
2.938474916E0,1.539335102E-1,1.058292910E-1,2.994678617E-1
2.940852989E0,1.600419879E-1,9.972081333E-2,2.921377122E-1
2.943231843E0,1.637070626E-1,1.009425074E-1,2.848075330E-1
2.945609864E0,1.661504507E-1,9.361234307E-2,2.762556672E-1
2.947987155E0,1.673721522E-1,8.994726092E-2,2.701472044E-1
2.950365228E0,1.649287641E-1,8.994726092E-2,2.591519356E-1
2.952744082E0,1.624853760E-1,8.383878320E-2,2.493783981E-1
2.955122103E0,1.575985998E-1,8.261708915E-2,2.383831441E-1
2.957499447E0,1.563768983E-1,8.017370105E-2,2.286095917E-1
2.959877468E0,1.478250325E-1,8.139539510E-2,2.176143378E-1
2.962256322E0,1.429382563E-1,7.040014863E-2,2.066190839E-1
2.964634395E0,1.356080920E-1,6.795676053E-2,1.944021434E-1
2.967011686E0,1.258345395E-1,7.528692484E-2,1.834068894E-1
2.969389707E0,1.172826737E-1,7.406523079E-2,1.699682474E-1
2.971768561E0,1.075091213E-1,7.040014863E-2,1.565296054E-1
2.974146634E0,9.895725548E-2,7.040014863E-2,1.430909634E-1
2.976523926E0,8.918370306E-2,7.162184268E-2,1.246128380E-1
2.978901947E0,8.063183725E-2,7.895200700E-2,1.087308154E-1
2.981280801E0,7.574506104E-2,8.994726092E-2,9.162709117E-2
2.983658874E0,7.207997888E-2,1.033858955E-1,7.452336699E-2
2.986036166E0,7.330167294E-2,1.192679256E-1,5.864133686E-2
2.988414239E0,7.207997888E-2,1.412584335E-1,4.275930673E-2
2.990793041E0,7.330167294E-2,1.620272398E-1,2.687728032E-2
2.993171114E0,7.696675509E-2,1.803526580E-1,9.773556143E-3
2.995548405E0,8.307522535E-2,1.986780763E-1,-6.108472589E-3
2.997926478E0,8.796200156E-2,2.157817930E-1,-2.321219631E-2
3.000305280E0,9.407047927E-2,2.292204350E-1,-4.153761268E-2
3.002683353E0,1.038440317E-1,2.389939874E-1,-5.986303091E-2
3.005060645E0,1.148392856E-1,2.463241518E-1,-7.818844914E-2
3.007438718E0,1.270562261E-1,2.536543310E-1,-9.895725548E-2
3.009817520E0,1.417165697E-1,2.585411072E-1,-1.197260618E-1
3.012195593E0,1.575985998E-1,2.622061968E-1,-1.392731816E-1
3.014572884E0,1.759240031E-1,2.622061968E-1,-1.612636745E-1
3.016950957E0,1.918060333E-1,2.634278834E-1,-1.820324808E-1
3.019329811E0,2.101314515E-1,2.670929730E-1,-2.015796006E-1
3.021707832E0,2.284568697E-1,2.670929730E-1,-2.223484069E-1
3.024085124E0,2.406738251E-1,2.695363462E-1,-2.418955117E-1
3.026463197E0,2.589992285E-1,2.658712566E-1,-2.626643181E-1
3.028842051E0,2.724378705E-1,2.719797492E-1,-2.809897363E-1
3.031220072E0,2.870981991E-1,2.756448388E-1,-2.980934680E-1
3.033597364E0,2.968717813E-1,2.805316150E-1,-3.151971996E-1
3.035975436E0,3.090887070E-1,2.805316150E-1,-3.310792148E-1
3.038354291E0,3.188622594E-1,2.829749882E-1,-3.481829464E-1
3.040732311E0,3.261924386E-1,2.890834510E-1,-3.628432751E-1
3.043109603E0,3.310792148E-1,2.951919436E-1,-3.775036037E-1
3.045487676E0,3.371876776E-1,2.915268540E-1,-3.946073353E-1
3.047866530E0,3.384093940E-1,2.939702570E-1,-4.104893506E-1
3.050244603E0,3.396310806E-1,2.939702570E-1,-4.288147688E-1
3.052621895E0,3.396310806E-1,2.927485406E-1,-4.483618736E-1
3.054999916E0,3.408527672E-1,2.903051674E-1,-4.679090083E-1
3.057378770E0,3.408527672E-1,2.854183912E-1,-4.886777997E-1
3.059756843E0,3.420744538E-1,2.756448388E-1,-5.106683373E-1
3.062134134E0,3.408527672E-1,2.707580328E-1,-5.314370990E-1
3.064512155E0,3.396310806E-1,2.670929730E-1,-5.485408306E-1
3.066891009E0,3.384093940E-1,2.658712566E-1,-5.680879354E-1
3.069269082E0,3.371876776E-1,2.634278834E-1,-5.864133835E-1
3.071646374E0,3.347443044E-1,2.658712566E-1,-6.035171151E-1
3.074024447E0,3.359659910E-1,2.622061968E-1,-6.157340407E-1
3.076403249E0,3.347443044E-1,2.646495700E-1,-6.267293096E-1
3.078781322E0,3.323009014E-1,2.658712566E-1,-6.352811456E-1
3.081158614E0,3.335226178E-1,2.695363462E-1,-6.401679516E-1
3.083536686E0,3.323009014E-1,2.744231224E-1,-6.413896084E-1
3.085915489E0,3.347443044E-1,2.780882120E-1,-6.413896084E-1
3.088293561E0,3.323009014E-1,2.878617644E-1,-6.389462352E-1
3.090670853E0,3.347443044E-1,2.915268540E-1,-6.377245188E-1
3.093048926E0,3.359659910E-1,2.988570333E-1,-6.328377724E-1
3.095427728E0,3.347443044E-1,3.049654961E-1,-6.255075932E-1
3.097805801E0,3.359659910E-1,3.074088693E-1,-6.206207871E-1
3.100183093E0,3.384093940E-1,3.098522723E-1,-6.132906675E-1
3.102561166E0,3.432961702E-1,3.122956753E-1,-6.059604883E-1
3.104939968E0,3.481829464E-1,3.171824515E-1,-5.974085927E-1
3.107318041E0,3.518480062E-1,3.184041381E-1,-5.900784731E-1
3.109695332E0,3.579564989E-1,3.171824515E-1,-5.851916671E-1
3.112073405E0,3.628432751E-1,3.171824515E-1,-5.803049207E-1
3.114452259E0,3.701734245E-1,3.171824515E-1,-5.778614879E-1
3.116830280E0,3.762819171E-1,3.171824515E-1,-5.754181147E-1
3.119207572E0,3.811686933E-1,3.232909143E-1,-5.705313683E-1
3.121585645E0,3.884988427E-1,3.232909143E-1,-5.668662786E-1
3.123964499E0,3.982724249E-1,3.196258247E-1,-5.644228458E-1
3.126342520E0,4.031592011E-1,3.232909143E-1,-5.607577562E-1
3.128719811E0,4.104893506E-1,3.171824515E-1,-5.558710098E-1
3.131097884E0,4.141544402E-1,3.122956753E-1,-5.534276366E-1
3.133476739E0,4.178195298E-1,3.037438095E-1,-5.473191738E-1
3.135854811E0,4.190412164E-1,2.988570333E-1,-5.448757410E-1
3.138232051E0,4.263713956E-1,2.939702570E-1,-5.399889946E-1
3.140610124E0,4.324798584E-1,2.841966748E-1,-5.326588154E-1
3.142988978E0,4.349232614E-1,2.805316150E-1,-5.277720094E-1
3.145367051E0,4.385883212E-1,2.719797492E-1,-5.241069198E-1
3.147744343E0,4.446968138E-1,2.707580328E-1,-5.167768002E-1
3.150122364E0,4.495835900E-1,2.634278834E-1,-5.118899941E-1
3.152501218E0,4.508052766E-1,2.622061968E-1,-5.045598149E-1
3.154879291E0,4.544703662E-1,2.597627938E-1,-5.008947253E-1
3.157256582E0,4.593571424E-1,2.597627938E-1,-4.960079789E-1
3.159634603E0,4.642439187E-1,2.548760176E-1,-4.935645759E-1
3.162013457E0,4.666872919E-1,2.487675399E-1,-4.911212027E-1
3.164391530E0,4.666872919E-1,2.487675399E-1,-4.886777997E-1
3.166768822E0,4.703523815E-1,2.389939874E-1,-4.886777997E-1
3.169146895E0,4.764608741E-1,2.353289127E-1,-4.862344265E-1
3.171525697E0,4.789042473E-1,2.316638231E-1,-4.874561131E-1
3.173903770E0,4.837910235E-1,2.292204350E-1,-4.886777997E-1
3.176281061E0,4.898995161E-1,2.279987335E-1,-4.911212027E-1
3.178659134E0,4.972296655E-1,2.304421216E-1,-4.935645759E-1
3.181037936E0,5.045598149E-1,2.292204350E-1,-4.996730685E-1
3.183416009E0,5.106683373E-1,2.341072112E-1,-5.045598149E-1
3.185793301E0,5.167768002E-1,2.353289127E-1,-5.106683373E-1
3.188171374E0,5.253286362E-1,2.353289127E-1,-5.192201734E-1
3.190550176E0,5.302154422E-1,2.402156889E-1,-5.265503526E-1
3.192928249E0,5.363239050E-1,2.438807636E-1,-5.338805318E-1
3.195305541E0,5.412106514E-1,2.499892414E-1,-5.412106514E-1
3.197683614E0,5.460974574E-1,2.463241518E-1,-5.485408306E-1
3.200062416E0,5.460974574E-1,2.475458533E-1,-5.558710098E-1
3.202440489E0,5.448757410E-1,2.524326444E-1,-5.619794726E-1
3.204817780E0,5.460974574E-1,2.536543310E-1,-5.656445622E-1
3.207195853E0,5.424323678E-1,2.573194206E-1,-5.705313683E-1
3.209574707E0,5.399889946E-1,2.646495700E-1,-5.741963983E-1
3.211952728E0,5.375455618E-1,2.707580328E-1,-5.790832043E-1
3.214330020E0,5.363239050E-1,2.768665254E-1,-5.839699507E-1
3.216708093E0,5.363239050E-1,2.841966748E-1,-5.900784731E-1
3.219086947E0,5.314370990E-1,2.988570333E-1,-5.961869359E-1
3.221464968E0,5.289937258E-1,3.013004065E-1,-6.035171151E-1
3.223842259E0,5.241069198E-1,3.061871827E-1,-6.132906675E-1
3.226220332E0,5.204418898E-1,3.171824515E-1,-6.230642200E-1
3.228599186E0,5.179984570E-1,3.220692277E-1,-6.316160560E-1
3.230977259E0,5.118899941E-1,3.293993771E-1,-6.426113248E-1
3.233354551E0,5.057815313E-1,3.379512429E-1,-6.499415040E-1
3.235732572E0,4.984513521E-1,3.440597057E-1,-6.584933400E-1
3.238111426E0,4.911212027E-1,3.538332880E-1,-6.658235192E-1
3.240489499E0,4.801259339E-1,3.623851240E-1,-6.707102656E-1
3.242866791E0,4.654656053E-1,3.684936166E-1,-6.768187881E-1
3.245244811E0,4.495835900E-1,3.770454824E-1,-6.804838181E-1
3.247623666E0,4.337015450E-1,3.904841244E-1,-6.853706241E-1
3.250001739E0,4.153761268E-1,4.063661397E-1,-6.865923405E-1
3.252379030E0,3.970507085E-1,4.161396921E-1,-6.902574301E-1
3.254757103E0,3.799470067E-1,4.283566475E-1,-6.963658929E-1
3.257135905E0,3.616215885E-1,4.356867969E-1,-7.036960125E-1
3.259513978E0,3.408527672E-1,4.393518865E-1,-7.098045349E-1
3.261891270E0,3.225273490E-1,4.381301999E-1,-7.171346545E-1
3.264269343E0,3.090887070E-1,4.332434237E-1,-7.256865501E-1
3.266648145E0,2.907632887E-1,4.344651103E-1,-7.342383862E-1
3.269026218E0,2.748812735E-1,4.283566475E-1,-7.403468490E-1
3.271403509E0,2.602209449E-1,4.283566475E-1,-7.427902818E-1
3.273781582E0,2.455606014E-1,4.234698713E-1,-7.452336550E-1
3.276160384E0,2.309002578E-1,4.259132445E-1,-7.440119386E-1
3.278538457E0,2.223484069E-1,4.271349311E-1,-7.391251922E-1
3.280915749E0,2.101314515E-1,4.234698713E-1,-7.366818190E-1
3.283293822E0,1.979145110E-1,4.295783341E-1,-7.305732965E-1
3.285672624E0,1.881409585E-1,4.344651103E-1,-7.256865501E-1
3.288050697E0,1.783674061E-1,4.405735731E-1,-7.195780873E-1
3.290427989E0,1.698155403E-1,4.442386627E-1,-7.122479081E-1
3.292806061E0,1.624853760E-1,4.466820657E-1,-7.061394453E-1
3.295184916E0,1.539335102E-1,4.466820657E-1,-7.000309825E-1
3.297562936E0,1.490467340E-1,4.405735731E-1,-6.951441765E-1
3.299940228E0,1.404948682E-1,4.393518865E-1,-6.878139973E-1
3.302318301E0,1.356080920E-1,4.381301999E-1,-6.792621613E-1
3.304697155E0,1.319430023E-1,4.320217371E-1,-6.707102656E-1
3.307075176E0,1.233911440E-1,4.332434237E-1,-6.633801460E-1
3.309452468E0,1.160609797E-1,4.320217371E-1,-6.548282504E-1
3.311830541E0,1.111742035E-1,4.344651103E-1,-6.438329816E-1
3.314209395E0,1.026223376E-1,4.332434237E-1,-6.377245188E-1
3.316587468E0,9.284878522E-2,4.332434237E-1,-6.291726828E-1
3.318964707E0,7.941014320E-2,4.369085133E-1,-6.230642200E-1
3.321342780E0,6.597150117E-2,4.332434237E-1,-6.157340407E-1
3.323721634E0,4.886778072E-2,4.332434237E-1,-6.084038615E-1
3.326099707E0,2.809897438E-2,4.283566475E-1,-6.010736823E-1
3.328476999E0,-0.000000000E0,4.234698713E-1,-5.925218463E-1
3.330855020E0,-3.420744836E-2,4.271349311E-1,-5.790832043E-1
3.333233874E0,-6.841489673E-2,4.271349311E-1,-5.668662786E-1
3.335611947E0,-1.136175916E-1,4.369085133E-1,-5.534276366E-1
3.337989239E0,-1.551551968E-1,4.466820657E-1,-5.399889946E-1
3.340367259E0,-2.064663768E-1,4.637857676E-1,-5.228852630E-1
3.342746114E0,-2.528907657E-1,4.698942602E-1,-5.070032477E-1
3.345124186E0,-2.870981991E-1,4.723376334E-1,-4.886777997E-1
3.347501478E0,-3.384093940E-1,4.845545888E-1,-4.740174711E-1
3.349879551E0,-3.750602305E-1,4.882196784E-1,-4.581354558E-1
3.352258353E0,-4.117110670E-1,4.918847680E-1,-4.373666346E-1
3.354636426E0,-4.508052766E-1,4.918847680E-1,-4.190412164E-1
3.357013718E0,-4.825693369E-1,4.869979918E-1,-4.019374847E-1
3.359391791E0,-5.106683373E-1,4.784461260E-1,-3.860554695E-1
3.361770593E0,-5.326588154E-1,4.613423944E-1,-3.652866483E-1
3.364148666E0,-5.509842038E-1,4.405735731E-1,-3.432961702E-1
3.366525957E0,-5.668662786E-1,4.185830951E-1,-3.249707520E-1
3.368904030E0,-5.778614879E-1,4.027010500E-1,-3.103103936E-1
3.371282832E0,-5.839699507E-1,3.831539452E-1,-2.956500649E-1
3.373660905E0,-5.851916671E-1,3.648285270E-1,-2.785463631E-1
3.376038197E0,-5.839699507E-1,3.513898849E-1,-2.626643181E-1
3.378416270E0,-5.839699507E-1,3.367295563E-1,-2.467822880E-1
3.380795124E0,-5.827482939E-1,3.171824515E-1,-2.406738251E-1
3.383173145E0,-5.778614879E-1,2.939702570E-1,-2.357870489E-1
3.385550436E0,-5.741963983E-1,2.683146596E-1,-2.333436459E-1
3.387928509E0,-5.705313683E-1,2.341072112E-1,-2.345653474E-1
3.390307311E0,-5.680879354E-1,1.998997629E-1,-2.321219593E-1
3.392685384E0,-5.644228458E-1,1.644706279E-1,-2.333436459E-1
3.395062676E0,-5.607577562E-1,1.278197914E-1,-2.357870489E-1
3.397440749E0,-5.607577562E-1,8.750387281E-2,-2.394521236E-1
3.399819603E0,-5.583143830E-1,5.085303262E-2,-2.382304370E-1
3.402197624E0,-5.522059202E-1,1.664558798E-2,-2.321219593E-1
3.404574916E0,-5.497625470E-1,-1.145338640E-2,-2.211267054E-1
3.406952989E0,-5.436540842E-1,-3.222219273E-2,-2.052446753E-1
3.409331843E0,-5.387672782E-1,-4.199574888E-2,-1.832541823E-1
3.411709916E0,-5.338805318E-1,-4.566083103E-2,-1.612636745E-1
3.414087155E0,-5.253286362E-1,-5.176930502E-2,-1.356080920E-1
3.416465228E0,-5.167768002E-1,-4.199574888E-2,-1.075091213E-1
3.418844082E0,-5.070032477E-1,-4.199574888E-2,-7.941014320E-2
3.421222103E0,-5.008947253E-1,-3.710897267E-2,-5.497625470E-2
3.423599447E0,-4.960079789E-1,-3.222219273E-2,-3.176405653E-2
3.425977468E0,-4.911212027E-1,-3.222219273E-2,-9.773556143E-3
3.428356322E0,-4.874561131E-1,-3.466558084E-2,1.099525020E-2
3.430734395E0,-4.886777997E-1,-3.588727489E-2,2.932066843E-2
3.433111686E0,-4.898995161E-1,-3.955236077E-2,4.031591862E-2
3.435489707E0,-4.898995161E-1,-3.955236077E-2,5.375456065E-2
3.437868561E0,-4.911212027E-1,-5.421269313E-2,6.230641901E-2
3.440246634E0,-4.911212027E-1,-6.642963737E-2,6.841489673E-2
3.442623926E0,-4.935645759E-1,-7.375980914E-2,7.696675509E-2
3.445001947E0,-4.947862923E-1,-7.986827940E-2,8.429691941E-2
3.447380801E0,-4.984513521E-1,-8.597674966E-2,8.796200156E-2
3.449758874E0,-4.996730685E-1,-8.964183182E-2,9.407047927E-2
3.452136166E0,-4.996730685E-1,-8.964183182E-2,9.895725548E-2
3.454514239E0,-5.033381581E-1,-8.475505561E-2,1.038440317E-1
3.456893041E0,-5.057815313E-1,-7.864658535E-2,1.087308154E-1
3.459271114E0,-5.070032477E-1,-7.375980914E-2,1.099525094E-1
3.461648405E0,-5.082249045E-1,-6.765133142E-2,1.136175916E-1
3.464026478E0,-5.082249045E-1,-5.909947306E-2,1.172826737E-1
3.466405280E0,-5.094466209E-1,-5.299099907E-2,1.197260618E-1
3.468783353E0,-5.167768002E-1,-8.231166750E-2,1.099525094E-1
3.471160645E0,-5.289937258E-1,-1.617218107E-1,6.597150117E-2
3.473538718E0,-5.192201734E-1,-2.631224692E-1,-2.199050039E-2
3.475917520E0,-4.679090083E-1,-3.413109183E-1,-1.356080920E-1
3.478295593E0,-3.860554695E-1,-3.303156495E-1,-2.418955117E-1
3.480672884E0,-2.406738251E-1,-2.191414535E-1,-3.384093940E-1
3.483050957E0,-9.773556143E-2,-1.189625040E-1,-3.933856487E-1
3.485429759E0,4.153761268E-2,-2.244863659E-2,-4.337015450E-1
3.487807832E0,1.527118087E-1,7.162184268E-2,-4.471401870E-1
3.490185124E0,2.467822880E-1,1.559187621E-1,-4.471401870E-1
3.492563197E0,3.066453338E-1,2.231119573E-1,-4.275930822E-1
3.494942051E0,3.384093940E-1,2.683146596E-1,-3.970507085E-1
3.497320072E0,3.445178568E-1,3.074088693E-1,-3.677300513E-1
3.499697364E0,3.347443044E-1,3.245126009E-1,-3.408527672E-1
3.502075436E0,3.127537966E-1,3.367295563E-1,-3.213056624E-1
3.504454291E0,2.858765125E-1,3.379512429E-1,-3.029802442E-1
3.506832364E0,2.589992285E-1,3.208475113E-1,-2.858765125E-1
3.509209655E0,2.309002578E-1,3.037438095E-1,-2.699944973E-1
3.511587676E0,2.003578991E-1,2.878617644E-1,-2.528907657E-1
3.513966530E0,1.698155403E-1,2.670929730E-1,-2.345653474E-1
3.516344603E0,1.343863904E-1,2.524326444E-1,-2.150182426E-1
3.518721895E0,1.014006436E-1,2.426590770E-1,-1.905843467E-1
3.521099916E0,6.719319522E-2,2.353289127E-1,-1.637070626E-1
3.523478770E0,3.176405653E-2,2.304421216E-1,-1.197260618E-1
3.525856843E0,-7.330167107E-3,2.255553454E-1,-6.963659078E-2
3.528234134E0,-4.764608666E-2,2.279987335E-1,-3.420744836E-2
3.530612155E0,-7.696675509E-2,2.353289127E-1,-1.954711229E-2
3.532991009E0,-8.918370306E-2,2.438807636E-1,-1.710372418E-2
3.535369082E0,-8.185353130E-2,2.548760176E-1,-2.199050039E-2
3.537746374E0,-6.597150117E-2,2.695363462E-1,-3.298575059E-2
3.540124395E0,-3.787253052E-2,2.756448388E-1,-4.031591862E-2
3.542503249E0,-7.330167107E-3,2.793098986E-1,-4.886778072E-2
3.544881322E0,2.443389036E-2,2.878617644E-1,-5.131116882E-2
3.547258614E0,5.131116882E-2,2.976353168E-1,-5.253286287E-2
3.549636686E0,7.574506104E-2,3.098522723E-1,-4.886778072E-2
3.552015489E0,9.529217333E-2,3.184041381E-1,-5.131116882E-2
3.554393561E0,1.038440317E-1,3.184041381E-1,-5.619794875E-2
3.556770853E0,1.014006436E-1,3.098522723E-1,-5.253286287E-2
3.559148926E0,9.529217333E-2,3.098522723E-1,-4.398100078E-2
3.561527728E0,8.307522535E-2,3.171824515E-1,-3.298575059E-2
3.563905801E0,7.330167294E-2,3.220692277E-1,-2.076880634E-2
3.566283093E0,6.474980712E-2,3.220692277E-1,-9.773556143E-3
3.568661166E0,5.253286287E-2,3.281776905E-1,3.665083554E-3
3.571039968E0,3.909422457E-2,3.342861533E-1,1.710372418E-2
3.573418041E0,2.321219631E-2,3.477247953E-1,3.176405653E-2
3.575795332E0,7.330167107E-3,3.636068404E-1,4.642439261E-2
3.578173405E0,-8.551862091E-3,3.819322586E-1,5.986303091E-2
3.580552259E0,-2.687728032E-2,4.027010500E-1,6.963659078E-2
3.582930280E0,-4.520269856E-2,4.332434237E-1,8.063183725E-2
3.585307572E0,-5.986303091E-2,4.576773047E-1,9.040539712E-2
3.587685645E0,-7.941014320E-2,4.857762754E-1,1.001789495E-1
3.590064499E0,-9.651386738E-2,5.224271417E-1,1.148392856E-1
3.592442520E0,-9.895725548E-2,5.677825212E-1,1.345391124E-1
3.594819811E0,-1.111742035E-1,5.885513425E-1,1.455343664E-1
3.597197884E0,-1.062874198E-1,6.361974478E-1,1.638597846E-1
3.599576739E0,-1.148392856E-1,6.508577466E-1,1.736333370E-1
3.601954759E0,-1.282779276E-1,6.508577466E-1,1.760767251E-1
3.604332051E0,-1.368297935E-1,6.606312990E-1,1.846285909E-1
3.606710124E0,-1.710372269E-1,6.325323582E-1,1.736333370E-1
3.609088978E0,-1.918060333E-1,6.423059106E-1,1.724116355E-1
3.611467051E0,-2.492256761E-1,5.934380889E-1,1.491994411E-1
3.613844343E0,-3.054236174E-1,5.726693273E-1,1.430909634E-1
3.616222364E0,-3.457395434E-1,5.909947157E-1,1.516428292E-1
3.618601218E0,-3.787252903E-1,6.093201637E-1,1.614163816E-1
3.620979291E0,-4.056025743E-1,6.239804626E-1,1.687465608E-1
3.623356582E0,-4.275930822E-1,6.178719997E-1,1.699682474E-1
3.625734603E0,-4.471401870E-1,6.080984473E-1,1.699682474E-1
3.628113457E0,-4.642439187E-1,5.848862529E-1,1.638597846E-1
3.630491530E0,-4.776825607E-1,5.543438792E-1,1.565296054E-1
3.632868822E0,-4.813476503E-1,5.175403357E-1,1.504211426E-1
3.635246843E0,-4.837910235E-1,4.845545888E-1,1.430909634E-1
3.637625697E0,-4.789042473E-1,4.466820657E-1,1.357607991E-1
3.640003770E0,-4.740174711E-1,4.100312293E-1,1.246128380E-1
3.642381061E0,-4.618005157E-1,3.697153032E-1,1.148392856E-1
3.644759134E0,-4.556920528E-1,3.452814221E-1,1.050657257E-1
3.647137936E0,-4.446968138E-1,3.306210935E-1,1.001789495E-1
3.649516009E0,-4.385883212E-1,3.122956753E-1,9.773556143E-2
3.651893301E0,-4.361449480E-1,3.110739589E-1,9.895725548E-2
3.654271374E0,-4.385883212E-1,3.086305857E-1,1.014006436E-1
3.656650176E0,-4.385883212E-1,3.037438095E-1,1.099525094E-1
3.659028249E0,-4.446968138E-1,3.086305857E-1,1.246128380E-1
3.661405541E0,-4.263713956E-1,3.550549746E-1,1.443126649E-1
3.663783614E0,-4.007157981E-1,3.648285270E-1,1.467560530E-1
3.666162416E0,-4.263713956E-1,2.988570333E-1,1.467560530E-1
3.668540489E0,-4.679090083E-1,2.695363462E-1,1.479777545E-1
3.670917780E0,-5.033381581E-1,2.817533016E-1,1.504211426E-1
3.673295853E0,-5.314370990E-1,3.098522723E-1,1.724116355E-1
3.675674655E0,-5.509842038E-1,3.330644667E-1,2.005106062E-1
3.678052728E0,-5.705313683E-1,3.587200642E-1,2.249445021E-1
3.680430020E0,-5.876350403E-1,3.758237660E-1,2.432699203E-1
3.682808093E0,-6.047387719E-1,3.978142738E-1,2.615953386E-1
3.685186947E0,-6.181774139E-1,4.222481549E-1,2.811424434E-1
3.687564968E0,-6.303943992E-1,4.332434237E-1,2.970244884E-1
3.689942259E0,-6.389462352E-1,4.417952895E-1,3.129065037E-1
3.692320332E0,-6.438329816E-1,4.491254389E-1,3.312319219E-1
3.694699186E0,-6.474980712E-1,4.515688419E-1,3.471139669E-1
3.697077207E0,-6.450546980E-1,4.674508572E-1,3.556658030E-1
3.699454499E0,-6.096255779E-1,5.126535892E-1,3.556658030E-1
3.701832572E0,-5.998520255E-1,4.808894992E-1,3.666610718E-1
3.704211426E0,-6.218425035E-1,4.210264683E-1,3.788780272E-1
3.706589447E0,-6.426113248E-1,3.978142738E-1,3.703261614E-1
3.708966739E0,-6.633801460E-1,4.063661397E-1,3.410054743E-1
3.711344811E0,-6.694886088E-1,4.185830951E-1,3.410054743E-1
3.713723666E0,-6.755970716E-1,4.222481549E-1,3.532224298E-1
3.716101739E0,-6.707102656E-1,4.466820657E-1,3.495573401E-1
3.718478978E0,-6.157340407E-1,5.077667832E-1,3.300102353E-1
3.720857051E0,-6.035171151E-1,4.515688419E-1,3.471139669E-1
3.723235905E0,-6.279509664E-1,3.733803928E-1,3.678827584E-1
3.725613978E0,-6.511631608E-1,3.465031087E-1,3.617742956E-1
3.727991270E0,-6.658235192E-1,3.538332880E-1,3.251234591E-1
3.730369291E0,-6.621584296E-1,3.794888556E-1,3.190149665E-1
3.732748145E0,-5.937435627E-1,4.772244096E-1,2.958027720E-1
3.735126218E0,-5.351021886E-1,4.784461260E-1,2.982461751E-1
3.737503509E0,-5.314370990E-1,4.259132445E-1,3.092414141E-1
3.739881530E0,-4.911212027E-1,4.503471553E-1,2.970244884E-1
3.742260384E0,-4.935645759E-1,3.953709006E-1,3.153499067E-1
3.744638457E0,-4.630222321E-1,4.075878263E-1,3.165715933E-1
3.747015749E0,-4.581354558E-1,3.538332880E-1,3.055763543E-1
3.749393770E0,-4.263713956E-1,3.587200642E-1,2.909159958E-1
3.751772624E0,-4.104893506E-1,3.257342875E-1,2.689255178E-1
3.754150697E0,-3.823903799E-1,3.232909143E-1,2.334963679E-1
3.756527989E0,-3.750602305E-1,3.098522723E-1,1.638597846E-1
3.758906061E0,-3.555130959E-1,2.890834510E-1,1.050657257E-1
3.761284864E0,-3.445178568E-1,2.707580328E-1,5.986303091E-2
3.763662936E0,-3.457395434E-1,2.438807636E-1,2.076880634E-2
3.766040228E0,-3.494046330E-1,2.316638231E-1,-7.330167107E-3
3.768418301E0,-3.603998721E-1,2.341072112E-1,-2.932066843E-2
3.770797103E0,-3.677300513E-1,2.414373755E-1,-4.886778072E-2
3.773175176E0,-3.726168275E-1,2.560977042E-1,-5.864133686E-2
3.775552468E0,-3.750602305E-1,2.768665254E-1,-6.719319522E-2
3.777930541E0,-3.738385141E-1,2.976353168E-1,-7.818844914E-2
3.780309343E0,-3.689517379E-1,3.122956753E-1,-9.040539712E-2
3.782687416E0,-3.603998721E-1,3.293993771E-1,-1.026223376E-1
3.785064707E0,-3.506263196E-1,3.428380191E-1,-1.148392856E-1
3.787442780E0,-3.371876776E-1,3.587200642E-1,-1.294996142E-1
3.789821634E0,-3.213056624E-1,3.660502136E-1,-1.441599578E-1
3.792199655E0,-3.066453338E-1,3.855973184E-1,-1.575985998E-1
3.794576947E0,-2.895416021E-1,3.941491842E-1,-1.661504507E-1
3.796955020E0,-2.724378705E-1,4.063661397E-1,-1.698155403E-1
3.799333874E0,-2.589992285E-1,4.210264683E-1,-1.649287641E-1
3.801711895E0,-2.394521236E-1,4.246915579E-1,-1.514901221E-1
3.804089186E0,-2.186833173E-1,4.295783341E-1,-1.429382563E-1
3.806467259E0,-1.942494214E-1,4.308000207E-1,-1.441599578E-1
3.808846114E0,-1.661504507E-1,4.259132445E-1,-1.527118087E-1
3.811224134E0,-1.356080920E-1,4.124746025E-1,-1.624853760E-1
3.813601426E0,-1.087308154E-1,4.063661397E-1,-1.759240031E-1
3.815979499E0,-7.941014320E-2,3.892624080E-1,-1.869192570E-1
3.818358353E0,-5.375456065E-2,3.709369898E-1,-1.942494214E-1
3.820736374E0,-3.298575059E-2,3.623851240E-1,-1.918060333E-1
3.823113666E0,-9.773556143E-3,3.501681983E-1,-1.844758689E-1
3.825491739E0,1.221694518E-2,3.428380191E-1,-1.685938388E-1
3.827870593E0,3.054236248E-2,3.465031087E-1,-1.514901221E-1
3.830248666E0,5.375456065E-2,3.452814221E-1,-1.294996142E-1
3.832625957E0,8.063183725E-2,3.428380191E-1,-8.429691941E-2
3.835003978E0,1.014006436E-1,3.416163325E-1,-2.321219631E-2
3.837382832E0,1.160609797E-1,3.391729295E-1,-8.551862091E-3
3.839760905E0,1.392731816E-1,3.355078697E-1,-2.932066843E-2
3.842138197E0,1.637070626E-1,3.184041381E-1,-5.253286287E-2
3.844516218E0,1.930277348E-1,3.000787199E-1,-6.597150117E-2
3.846895072E0,2.174616307E-1,2.903051674E-1,-7.085828483E-2
3.849273145E0,2.418955117E-1,2.805316150E-1,-7.330167294E-2
3.851650436E0,2.602209449E-1,2.793098986E-1,-7.574506104E-2
3.854028509E0,2.761029601E-1,2.744231224E-1,-7.941014320E-2
3.856407311E0,2.895416021E-1,2.732014358E-1,-8.307522535E-2
3.858785384E0,3.017585576E-1,2.707580328E-1,-8.674030751E-2
3.861162676E0,3.127537966E-1,2.805316150E-1,-8.918370306E-2
3.863540749E0,3.213056624E-1,2.951919436E-1,-8.674030751E-2
3.865919551E0,3.335226178E-1,3.074088693E-1,-7.941014320E-2
3.868297624E0,3.432961702E-1,3.208475113E-1,-7.452336699E-2
3.870674916E0,3.542914093E-1,3.306210935E-1,-7.085828483E-2
3.873052989E0,3.652866483E-1,3.452814221E-1,-6.474980712E-2
3.875431791E0,3.787252903E-1,3.562766612E-1,-6.108472496E-2
3.877809864E0,3.897205591E-1,3.636068404E-1,-6.108472496E-2
3.880187155E0,4.043808877E-1,3.660502136E-1,-6.108472496E-2
3.882565228E0,4.129327536E-1,3.746020794E-1,-5.986303091E-2
3.884944030E0,4.214846194E-1,3.794888556E-1,-6.352811307E-2
3.887322103E0,4.312581718E-1,3.843756318E-1,-6.719319522E-2
3.889699395E0,4.373666346E-1,3.929274976E-1,-7.085828483E-2
3.892077468E0,4.422534108E-1,3.978142738E-1,-7.696675509E-2
3.894456270E0,4.459185004E-1,4.027010500E-1,-8.185353130E-2
3.896834343E0,4.520269632E-1,4.063661397E-1,-8.918370306E-2
3.899211634E0,4.532486796E-1,4.112529159E-1,-9.773556143E-2
3.901589707E0,4.556920528E-1,4.100312293E-1,-1.087308154E-1
3.903968561E0,4.556920528E-1,4.124746025E-1,-1.209477559E-1
3.906346582E0,4.544703662E-1,4.161396921E-1,-1.294996142E-1
3.908723874E0,4.666872919E-1,4.027010500E-1,-1.368297935E-1
3.911101947E0,4.666872919E-1,4.124746025E-1,-1.869192570E-1
3.913480801E0,4.874561131E-1,4.662291706E-1,-3.518480062E-1
3.915858822E0,5.021164417E-1,4.405735731E-1,-4.996730685E-1
3.918236114E0,4.898995161E-1,3.880407214E-1,-6.206207871E-1
3.920614186E0,4.618005157E-1,3.623851240E-1,-7.232431769E-1
3.922993041E0,4.227063060E-1,3.587200642E-1,-8.038749695E-1
3.925371061E0,3.823903799E-1,3.660502136E-1,-8.722898960E-1
3.927748353E0,3.432961702E-1,4.014793634E-1,-9.468132257E-1
3.930126426E0,3.200839758E-1,4.332434237E-1,-1.010341406E0
3.932505280E0,3.017585576E-1,4.698942602E-1,-1.049435616E0
3.934883353E0,2.895416021E-1,5.041016936E-1,-1.072647810E0
3.937260593E0,2.822114229E-1,5.273138881E-1,-1.065317631E0
3.939638666E0,2.761029601E-1,5.445703268E-1,-1.048213840E0
3.942017520E0,2.797680497E-1,5.604523420E-1,-1.046992183E0
3.944395593E0,2.870981991E-1,5.519005060E-1,-1.034775257E0
3.946772884E0,2.919849753E-1,5.224271417E-1,-1.018893242E0
3.949150905E0,2.956500649E-1,4.955498278E-1,-1.005454540E0
3.951529759E0,3.005368412E-1,4.466820657E-1,-9.651386738E-1
3.953907832E0,2.980934680E-1,4.051444530E-1,-9.199360013E-1
3.956285124E0,3.029802442E-1,3.770454824E-1,-8.869501948E-1
3.958663145E0,3.139754832E-1,3.465031087E-1,-8.368607163E-1
3.961041999E0,3.225273490E-1,3.037438095E-1,-7.721109390E-1
3.963420072E0,3.432961702E-1,2.805316150E-1,-7.049177289E-1
3.965797364E0,3.591781855E-1,2.597627938E-1,-6.279509664E-1
3.968175436E0,3.738385141E-1,2.206685692E-1,-5.399889946E-1
3.970554239E0,3.787252903E-1,1.815743446E-1,-4.605788291E-1
3.972932311E0,3.811686933E-1,1.449235082E-1,-4.056025743E-1
3.975309603E0,3.897205591E-1,1.094943732E-1,-3.713951409E-1
3.977687676E0,4.031592011E-1,6.673506647E-2,-3.408527672E-1
3.980066478E0,4.141544402E-1,2.397575416E-2,-3.066453338E-1
3.982444551E0,4.202629030E-1,-3.100049868E-2,-2.651077211E-1
3.984821843E0,4.178195298E-1,-8.597674966E-2,-2.235700935E-1
3.987199916E0,4.068242610E-1,-1.262926757E-1,-1.881409585E-1
3.989578718E0,3.970507085E-1,-1.580567211E-1,-1.612636745E-1
3.991956791E0,3.909422457E-1,-1.885990947E-1,-1.380514801E-1
3.994334082E0,3.860554695E-1,-2.252499312E-1,-1.160609797E-1
3.996712155E0,3.799470067E-1,-2.619007528E-1,-8.796200156E-2
3.999090957E0,3.738385141E-1,-2.851129472E-1,-5.741964281E-2
4.001469030E0,3.640649617E-1,-3.046600819E-1,-2.565558441E-2
4.003846322E0,3.591781855E-1,-3.046600819E-1,3.665083554E-3
4.006224395E0,3.542914093E-1,-2.924431264E-1,3.176405653E-2
4.008603197E0,3.494046330E-1,-2.851129472E-1,5.619794875E-2
4.010981270E0,3.481829464E-1,-2.680092454E-1,8.063183725E-2
4.013358561E0,3.506263196E-1,-2.411319613E-1,1.038440317E-1
4.015736634E0,3.506263196E-1,-2.093679011E-1,1.258345395E-1
4.018115489E0,3.432961702E-1,-1.824906170E-1,1.455343664E-1
4.020493509E0,3.481829464E-1,-1.421747059E-1,1.687465608E-1
4.022870801E0,3.652866483E-1,-7.498150319E-2,1.919587553E-1
4.025248874E0,3.689517379E-1,-2.367033064E-2,2.066190839E-1
4.027627728E0,3.860554695E-1,-2.901524538E-3,2.151709497E-1
4.030005749E0,3.787252903E-1,-1.389677543E-2,2.249445021E-1
4.032383041E0,3.555130959E-1,-2.855710872E-2,2.322746664E-1
4.034761114E0,3.359659910E-1,-4.443913698E-2,2.334963679E-1
4.037139968E0,3.164188862E-1,-6.398624927E-2,2.334963679E-1
4.039517989E0,3.029802442E-1,-9.086353332E-2,2.322746664E-1
4.041895280E0,2.919849753E-1,-1.140757278E-1,2.347180545E-1
4.044273353E0,2.773246467E-1,-1.287360638E-1,2.310529798E-1
4.046652207E0,2.565558553E-1,-1.372879148E-1,2.237228155E-1
4.049030280E0,2.333436459E-1,-1.348445266E-1,2.090624720E-1
4.051407520E0,2.089097649E-1,-1.214058921E-1,2.041756958E-1
4.053785593E0,1.918060333E-1,-1.116323397E-1,2.066190839E-1
4.056164447E0,1.759240031E-1,-1.104106456E-1,2.053973973E-1
4.058542520E0,1.612636745E-1,-1.116323397E-1,2.066190839E-1
4.060919811E0,1.478250325E-1,-1.104106456E-1,2.066190839E-1
4.063297832E0,1.368297935E-1,-1.091889441E-1,2.139492482E-1
4.065676686E0,1.221694499E-1,-1.067455560E-1,2.200577259E-1
4.068054759E0,1.123958975E-1,-1.079672500E-1,2.249445021E-1
4.070432051E0,1.001789495E-1,-9.819369763E-2,2.310529798E-1
4.072810072E0,8.918370306E-2,-9.086353332E-2,2.359397560E-1
4.075188926E0,7.574506104E-2,-8.231166750E-2,2.359397560E-1
4.077566999E0,6.597150117E-2,-7.742489129E-2,2.383831441E-1
4.079944291E0,5.253286287E-2,-7.498150319E-2,2.371614426E-1
4.082322311E0,3.909422457E-2,-7.253811508E-2,2.334963679E-1
4.084701166E0,2.443389036E-2,-7.375980914E-2,2.286095917E-1
4.087079239E0,1.343864016E-2,-7.620319724E-2,2.225011140E-1
4.089456530E0,-1.221694518E-3,-7.986827940E-2,2.127275616E-1
4.091834603E0,-1.221694518E-2,-9.086353332E-2,2.029540092E-1
4.094213405E0,-2.443389036E-2,-9.208522737E-2,1.919587553E-1
4.096591478E0,-3.909422457E-2,-9.941539168E-2,1.785201132E-1
4.098968770E0,-5.131116882E-2,-1.030804738E-1,1.663031727E-1
4.101346843E0,-6.719319522E-2,-1.116323397E-1,1.553079188E-1
4.103725645E0,-8.307522535E-2,-1.238492802E-1,1.430909634E-1
4.106103718E0,-9.284878522E-2,-1.360662282E-1,1.270562261E-1
4.108481009E0,-1.038440317E-1,-1.482831687E-1,1.099525094E-1
4.110859082E0,-1.185043678E-1,-1.617218107E-1,9.407047927E-2
4.113237884E0,-1.294996142E-1,-1.776038408E-1,7.941014320E-2
4.115615957E0,-1.343863904E-1,-1.934858710E-1,6.230641901E-2
4.117993249E0,-1.392731816E-1,-2.130329758E-1,4.886778072E-2
4.120371322E0,-1.453816444E-1,-2.276933193E-1,3.665083647E-2
4.122750176E0,-1.502684206E-1,-2.411319613E-1,2.443389036E-2
4.125128197E0,-1.539335102E-1,-2.570139766E-1,1.588202827E-2
4.127505489E0,-1.551551968E-1,-2.716743052E-1,7.330167107E-3
4.129883561E0,-1.612636745E-1,-2.753393948E-1,1.221694518E-3
4.132262416E0,-1.698155403E-1,-2.863346636E-1,-1.221694518E-3
4.134640436E0,-1.734806150E-1,-2.997733057E-1,-3.665083554E-3
4.137017728E0,-1.832541823E-1,-3.022166789E-1,-3.665083554E-3
4.139395801E0,-1.905843467E-1,-3.119902313E-1,-3.665083554E-3
4.141774655E0,-1.954711229E-1,-3.193204105E-1,-3.665083554E-3
4.144152676E0,-2.028012872E-1,-3.278722763E-1,-7.330167107E-3
4.146529968E0,-2.089097649E-1,-3.376458287E-1,-6.108472589E-3
4.148908041E0,-2.186833173E-1,-3.425326049E-1,-3.665083554E-3
4.151286895E0,-2.284568697E-1,-3.474193811E-1,0.000000000E0
4.153664916E0,-2.345653474E-1,-3.559712470E-1,1.221694518E-3
4.156042207E0,-2.382304370E-1,-3.645231128E-1,6.108472589E-3
4.158420280E0,-2.480039895E-1,-3.645231128E-1,1.099525020E-2
4.160799134E0,-2.565558553E-1,-3.620797098E-1,1.832541823E-2
4.163177207E0,-2.651077211E-1,-3.596363366E-1,2.565558441E-2
4.165554499E0,-2.712161839E-1,-3.571929336E-1,3.542914242E-2
4.167932520E0,-2.748812735E-1,-3.559712470E-1,4.520269856E-2
4.170311374E0,-2.785463631E-1,-3.461976945E-1,5.741964281E-2
4.172689447E0,-2.846548259E-1,-3.376458287E-1,6.963659078E-2
4.175066739E0,-2.883199155E-1,-3.278722763E-1,8.674030751E-2
4.177444759E0,-2.846548259E-1,-3.168770075E-1,1.479777545E-1
4.179823614E0,-2.797680497E-1,-3.083251417E-1,2.237228155E-1
4.182201686E0,-2.638860047E-1,-3.132119179E-1,2.579302490E-1
4.184578978E0,-2.553341687E-1,-3.119902313E-1,2.677038014E-1
4.186956999E0,-2.577775419E-1,-3.107685447E-1,2.701472044E-1
4.189335853E0,-2.516690791E-1,-3.168770075E-1,2.701472044E-1
4.191713926E0,-2.467822880E-1,-3.229855001E-1,2.713688910E-1
4.194091218E0,-2.467822880E-1,-3.242071867E-1,2.725905776E-1
4.196469239E0,-2.492256761E-1,-3.217637837E-1,2.774773538E-1
4.198848093E0,-2.589992285E-1,-3.193204105E-1,2.799207568E-1
4.201226166E0,-2.748812735E-1,-3.132119179E-1,2.774773538E-1
4.203603457E0,-2.858765125E-1,-3.132119179E-1,2.762556672E-1
4.205981530E0,-2.968717813E-1,-3.144336343E-1,2.762556672E-1
4.208360332E0,-3.017585576E-1,-3.180987239E-1,2.738122940E-1
4.210738405E0,-3.017585576E-1,-3.290939629E-1,2.725905776E-1
4.213115697E0,-2.993151546E-1,-3.339807391E-1,2.762556672E-1
4.215493770E0,-2.907632887E-1,-3.437542915E-1,2.762556672E-1
4.217872572E0,-2.870981991E-1,-3.498627543E-1,2.872509360E-1
4.220250645E0,-2.773246467E-1,-3.535278440E-1,2.958027720E-1
4.222627936E0,-2.589992285E-1,-3.779617548E-1,2.884726226E-1
4.225006009E0,-2.541124523E-1,-3.889569938E-1,2.933593988E-1
4.227384811E0,-2.382304370E-1,-4.121691883E-1,2.811424434E-1
4.229762884E0,-2.199050188E-1,-4.402681589E-1,2.554868758E-1
4.232140176E0,-2.137965411E-1,-4.488200247E-1,2.359397560E-1
4.234518249E0,-2.125748396E-1,-4.451549351E-1,2.554868758E-1
4.236897051E0,-1.966928244E-1,-4.488200247E-1,2.701472044E-1
4.239275124E0,-1.747023165E-1,-4.585935771E-1,2.591519356E-1
4.241652416E0,-1.612636745E-1,-4.598152637E-1,2.469350100E-1
4.244030489E0,-1.563768983E-1,-4.537068009E-1,2.469350100E-1
4.246409291E0,-1.612636745E-1,-4.414898455E-1,2.701472044E-1
4.248787364E0,-1.502684206E-1,-4.500417113E-1,2.640387416E-1
4.251164655E0,-1.380514801E-1,-4.561502039E-1,2.420482337E-1
4.253542728E0,-1.392731816E-1,-4.512633979E-1,2.163926363E-1
4.255921582E0,-1.466033459E-1,-4.427115619E-1,2.090624720E-1
4.258299603E0,-1.453816444E-1,-4.378247857E-1,2.347180545E-1
4.260676895E0,-1.343863904E-1,-4.341596961E-1,2.383831441E-1
4.263054968E0,-1.209477559E-1,-4.353813827E-1,2.249445021E-1
4.265433822E0,-1.197260618E-1,-4.256078303E-1,2.029540092E-1
4.267811843E0,-1.233911440E-1,-4.121691883E-1,1.809635013E-1
4.270189134E0,-1.294996142E-1,-3.975088596E-1,1.626380831E-1
4.272567207E0,-1.392731816E-1,-3.779617548E-1,1.443126649E-1
4.274946061E0,-1.392731816E-1,-3.694098890E-1,1.294996142E-1
4.277324134E0,-1.380514801E-1,-3.718532622E-1,1.209477559E-1
4.279701374E0,-1.417165697E-1,-3.559712470E-1,1.246128380E-1
4.282079447E0,-1.356080920E-1,-3.413109183E-1,1.357607991E-1
4.284458301E0,-1.307213157E-1,-3.608580232E-1,1.394258887E-1
4.286836374E0,-9.651386738E-2,-4.060607255E-1,1.589729935E-1
4.289213614E0,-4.520269856E-2,-4.549284875E-1,1.895153672E-1
4.291591686E0,-2.809897438E-2,-4.353813827E-1,2.115058601E-1
4.293970541E0,-4.886778072E-3,-4.158342779E-1,2.127275616E-1
4.296348614E0,2.199050039E-2,-4.060607255E-1,2.005106062E-1
4.298725905E0,4.031591862E-2,-4.023956358E-1,1.785201132E-1
4.301103926E0,4.642439261E-2,-3.926220834E-1,1.491994411E-1
4.303482780E0,4.886778072E-2,-3.865135908E-1,1.209477559E-1
4.305860853E0,5.131116882E-2,-3.840702176E-1,9.773556143E-2
4.308238145E0,4.520269856E-2,-3.620797098E-1,7.574506104E-2
4.310616218E0,4.153761268E-2,-3.510844707E-1,5.497625470E-2
4.312995020E0,6.230641901E-2,-3.877353072E-1,5.131116882E-2
4.315373093E0,7.941014320E-2,-4.146125913E-1,7.818844914E-2
4.317750384E0,6.352811307E-2,-3.718532622E-1,9.895725548E-2
4.320128405E0,5.619794875E-2,-3.413109183E-1,1.075091213E-1
4.322507259E0,6.597150117E-2,-3.437542915E-1,9.773556143E-2
4.324885332E0,7.574506104E-2,-3.571929336E-1,7.818844914E-2
4.327262624E0,8.307522535E-2,-3.767400384E-1,5.619794875E-2
4.329640697E0,9.284878522E-2,-3.987305462E-1,3.542914242E-2
4.332019499E0,1.160609797E-1,-4.451549351E-1,2.443389036E-2
4.334397572E0,1.490467340E-1,-5.025745630E-1,4.031591862E-2
4.336774864E0,1.575985998E-1,-5.013529062E-1,4.153761268E-2
4.339152936E0,1.575985998E-1,-4.842491746E-1,3.909422457E-2
4.341531739E0,1.588202864E-1,-4.598152637E-1,4.275930673E-2
4.343909811E0,1.624853760E-1,-4.500417113E-1,6.963659078E-2
4.346287103E0,1.600419879E-1,-4.243861437E-1,8.307522535E-2
4.348665176E0,1.502684206E-1,-3.975088596E-1,1.038440317E-1
4.351043978E0,1.417165697E-1,-3.779617548E-1,1.455343664E-1
4.353422051E0,1.233911440E-1,-3.474193811E-1,1.443126649E-1
4.355799343E0,8.796200156E-2,-3.034383655E-1,1.075091213E-1
4.358177416E0,5.253286287E-2,-2.802261710E-1,6.719319522E-2
4.360556218E0,3.420744836E-2,-2.826695740E-1,7.330167107E-3
4.362934291E0,2.565558441E-2,-2.912214398E-1,-3.909422457E-2
4.365311582E0,1.466033421E-2,-3.034383655E-1,-3.420744836E-2
4.367689655E0,1.466033421E-2,-3.168770075E-1,1.343864016E-2
4.370068509E0,1.954711229E-2,-3.290939629E-1,4.886778072E-2
4.372446530E0,1.832541823E-2,-3.242071867E-1,6.719319522E-2
4.374823822E0,1.466033421E-2,-3.034383655E-1,5.131116882E-2
4.377201895E0,-3.665083554E-3,-2.704526186E-1,-4.886778072E-3
4.379580749E0,-2.321219631E-2,-2.142546773E-1,-3.176405653E-2
4.381958770E0,-3.787253052E-2,-1.421747059E-1,-2.565558441E-2
4.384336061E0,-3.909422457E-2,-8.719844371E-2,-1.221694518E-2
4.386714134E0,-3.542914242E-2,-6.032116711E-2,-1.343864016E-2
4.389092989E0,-3.420744836E-2,-6.032116711E-2,-2.565558441E-2
4.391471009E0,-4.275930673E-2,-7.742489129E-2,-4.031591862E-2
4.393848301E0,-5.497625470E-2,-9.575030953E-2,-4.764608666E-2
4.396226374E0,-7.085828483E-2,-1.189625040E-1,-4.886778072E-2
4.398605228E0,-7.941014320E-2,-1.482831687E-1,-4.764608666E-2
4.400983301E0,-8.796200156E-2,-1.690519750E-1,-4.642439261E-2
4.403360541E0,-9.407047927E-2,-1.861557066E-1,-4.031591862E-2
4.405738614E0,-1.062874198E-1,-1.873773932E-1,-3.298575059E-2
4.408117468E0,-1.160609797E-1,-1.800472289E-1,-2.321219631E-2
4.410495541E0,-1.221694499E-1,-1.714953631E-1,-1.710372418E-2
4.412872780E0,-1.282779276E-1,-1.629435122E-1,-1.099525020E-2
4.415250853E0,-1.319430023E-1,-1.678302884E-1,-2.443389036E-3
4.417629707E0,-1.026223376E-1,-2.557922900E-1,1.588202827E-2
4.420007780E0,-1.123958975E-1,-2.753393948E-1,2.809897438E-2
4.422385072E0,-1.380514801E-1,-2.484621257E-1,2.565558441E-2
4.424763093E0,-1.514901221E-1,-2.374668717E-1,1.466033421E-2
4.427141947E0,-1.551551968E-1,-2.411319613E-1,1.099525020E-2
4.429520020E0,-1.624853760E-1,-2.313583940E-1,1.710372418E-2
4.431897311E0,-1.673721522E-1,-2.338017821E-1,2.809897438E-2
4.434275332E0,-1.771457046E-1,-2.325800955E-1,3.909422457E-2
4.436654186E0,-1.820324808E-1,-2.374668717E-1,5.008947477E-2
4.439032259E0,-1.893626451E-1,-2.447970361E-1,6.108472496E-2
4.441409551E0,-1.966928244E-1,-2.533488870E-1,6.841489673E-2
4.443787624E0,-2.040229887E-1,-2.643441558E-1,7.207997888E-2
4.446166426E0,-2.089097649E-1,-2.728960216E-1,7.574506104E-2
4.448544499E0,-2.101314515E-1,-2.899997234E-1,7.696675509E-2
4.450921791E0,-2.150182426E-1,-2.790044844E-1,7.574506104E-2
4.453299864E0,-2.137965411E-1,-2.826695740E-1,7.207997888E-2
4.455678666E0,-2.150182426E-1,-2.777827978E-1,6.597150117E-2
4.458056739E0,-2.199050188E-1,-2.667875290E-1,5.741964281E-2
4.460434030E0,-2.125748396E-1,-2.728960216E-1,4.764608666E-2
4.462812103E0,-2.211267054E-1,-2.728960216E-1,3.665083647E-2
4.465190905E0,-2.370087355E-1,-2.655658424E-1,3.054236248E-2
4.467568978E0,-2.431172132E-1,-2.704526186E-1,2.321219631E-2
4.469946270E0,-2.516690791E-1,-2.826695740E-1,1.221694518E-2
4.472324343E0,-2.602209449E-1,-2.912214398E-1,2.443389036E-3
4.474703145E0,-2.675510943E-1,-2.912214398E-1,-6.108472589E-3
4.477081218E0,-2.724378705E-1,-2.851129472E-1,-1.221694518E-2
4.479458509E0,-2.724378705E-1,-2.802261710E-1,-1.954711229E-2
4.481836582E0,-2.736595869E-1,-2.790044844E-1,-2.932066843E-2
4.484215384E0,-2.724378705E-1,-2.753393948E-1,-3.909422457E-2
4.486593457E0,-2.663294077E-1,-2.753393948E-1,-4.642439261E-2
4.488970749E0,-2.626643181E-1,-2.667875290E-1,-4.031591862E-2
4.491348822E0,-2.370087355E-1,-2.545706034E-1,-6.108472589E-3
4.493727624E0,-2.076880634E-1,-2.472404242E-1,1.466033421E-2
4.496105697E0,-1.979145110E-1,-2.411319613E-1,3.665083554E-3
4.498482989E0,-2.125748396E-1,-2.594573796E-1,-2.076880634E-2
4.500861061E0,-2.247917950E-1,-2.643441558E-1,-4.275930673E-2
4.503239916E0,-2.345653474E-1,-2.619007528E-1,-5.864133686E-2
4.505617936E0,-2.345653474E-1,-2.619007528E-1,-6.841489673E-2
4.507995228E0,-2.296785712E-1,-2.557922900E-1,-7.330167294E-2
4.510373301E0,-1.979145110E-1,-3.083251417E-1,-6.230641901E-2
4.512752155E0,-1.808107942E-1,-3.071034551E-1,-4.520269856E-2
4.515130176E0,-1.771457046E-1,-2.667875290E-1,-3.542914242E-2
4.517507468E0,-1.881409585E-1,-2.435753495E-1,-4.520269856E-2
4.519885541E0,-2.064663768E-1,-2.228065431E-1,-6.474980712E-2
4.522264395E0,-2.394521236E-1,-2.374668717E-1,-1.050657257E-1
4.524642416E0,-2.785463631E-1,-2.570139766E-1,-1.380514801E-1
4.527019707E0,-3.005368412E-1,-2.667875290E-1,-1.514901221E-1
4.529397780E0,-3.017585576E-1,-2.655658424E-1,-1.527118087E-1
4.531776634E0,-2.932066917E-1,-2.533488870E-1,-1.478250325E-1
4.534154655E0,-2.748812735E-1,-2.386885732E-1,-1.453816444E-1
4.536531947E0,-2.614426315E-1,-2.154763639E-1,-1.453816444E-1
4.538910020E0,-2.480039895E-1,-1.837123185E-1,-1.478250325E-1
4.541288874E0,-2.321219593E-1,-1.531699449E-1,-1.588202864E-1
4.543666947E0,-2.223484069E-1,-1.336228400E-1,-1.734806150E-1
4.546044186E0,-2.150182426E-1,-1.128540337E-1,-1.918060333E-1
4.548422259E0,-2.064663768E-1,-9.819369763E-2,-2.089097649E-1
4.550801114E0,-2.015796006E-1,-9.086353332E-2,-2.223484069E-1
4.553179186E0,-1.893626451E-1,-8.964183182E-2,-2.394521236E-1
4.555556478E0,-1.844758689E-1,-8.353336155E-2,-2.480039895E-1
4.557934499E0,-1.441599578E-1,-5.909947306E-2,-2.553341687E-1
4.560313353E0,-1.710372269E-1,-6.154286116E-2,-2.614426315E-1
4.562691426E0,-1.771457046E-1,-3.466558084E-2,-2.626643181E-1
4.565068718E0,-1.759240031E-1,-2.489202656E-2,-2.651077211E-1
4.567446739E0,-1.759240031E-1,-3.100049868E-2,-2.724378705E-1
4.569825593E0,-1.942494214E-1,-4.321744293E-2,-2.846548259E-1
4.572203666E0,-2.137965411E-1,-4.688252881E-2,-2.870981991E-1
4.574580957E0,-2.296785712E-1,-3.710897267E-2,-2.822114229E-1
4.576959030E0,-2.418955117E-1,-2.489202656E-2,-2.724378705E-1
4.579337832E0,-2.467822880E-1,-1.389677543E-2,-2.577775419E-1
4.581715905E0,-2.492256761E-1,-1.679830020E-3,-2.296785712E-1
4.584093197E0,-2.296785712E-1,4.428642802E-3,-2.040229887E-1
4.586471270E0,-2.028012872E-1,1.985253533E-3,-1.820324808E-1
4.588850072E0,-1.820324808E-1,1.053711493E-2,-1.575985998E-1
4.591228145E0,-1.575985998E-1,1.542389300E-2,-1.380514801E-1
4.593605436E0,-1.319430023E-1,1.298050396E-2,-1.233911440E-1
4.595983509E0,-1.099525094E-1,3.008422814E-2,-1.050657257E-1
4.598362311E0,-9.040539712E-2,4.474456236E-2,-8.674030751E-2
4.600740384E0,-7.330167294E-2,6.184828654E-2,-6.963659078E-2
4.603117676E0,-5.619794875E-2,6.306997687E-2,-5.619794875E-2
4.605495749E0,-5.497625470E-2,5.085303262E-2,-5.253286287E-2
4.607874551E0,-6.474980712E-2,3.252761811E-2,-5.008947477E-2
4.610252624E0,-6.963659078E-2,3.008422814E-2,-3.665083647E-2
4.612629916E0,-6.719319522E-2,3.130592033E-2,-1.588202827E-2
4.615007989E0,-6.230641901E-2,3.863608837E-2,2.443389036E-3
4.617386791E0,-5.008947477E-2,3.863608837E-2,1.954711229E-2
4.619764864E0,-4.398100078E-2,4.352286831E-2,3.420744836E-2
4.622142155E0,-3.787253052E-2,5.329642445E-2,5.008947477E-2
4.624520228E0,-3.665083647E-2,6.306997687E-2,6.352811307E-2
4.626899030E0,-4.642439261E-2,8.017370105E-2,6.841489673E-2
4.629277103E0,-3.298575059E-2,5.940489471E-2,6.352811307E-2
4.631654395E0,-3.420744836E-2,2.031067200E-2,5.008947477E-2
4.634032468E0,-5.619794875E-2,1.420219894E-2,4.398100078E-2
4.636411270E0,-5.619794875E-2,8.093725890E-3,4.275930673E-2
4.638789343E0,-4.886778072E-2,6.872031838E-3,4.886778072E-2
4.641166634E0,-4.398100078E-2,2.519745007E-2,5.741964281E-2
4.643544707E0,-3.176405653E-2,4.963133857E-2,7.085828483E-2
4.645923561E0,-2.443389036E-2,6.429167092E-2,7.696675509E-2
4.648301582E0,-3.298575059E-2,1.082726792E-1,8.918370306E-2
4.650678874E0,1.221694518E-3,1.058292910E-1,9.407047927E-2
4.653056947E0,-1.221694518E-3,7.284353673E-2,8.796200156E-2
4.655435801E0,-4.886778072E-3,7.650861889E-2,9.040539712E-2
4.657813822E0,-2.199050039E-2,7.284353673E-2,9.284878522E-2
4.660191114E0,-2.932066843E-2,7.284353673E-2,9.895725548E-2
4.662569186E0,-2.809897438E-2,8.139539510E-2,1.062874198E-1
4.664948041E0,-2.321219631E-2,8.383878320E-2,1.099525094E-1
4.667326061E0,-1.343864016E-2,9.116895497E-2,1.160609797E-1
4.669703353E0,-3.665083554E-3,1.058292910E-1,1.221694499E-1
4.672081426E0,3.665083554E-3,1.229330078E-1,1.282779276E-1
4.674460280E0,1.466033421E-2,1.510319859E-1,1.369825006E-1
4.676838353E0,2.321219631E-2,1.754658818E-1,1.443126649E-1
4.679215593E0,1.710372418E-2,1.827960461E-1,1.467560530E-1
4.681593666E0,2.565558441E-2,1.974563748E-1,1.443126649E-1
4.683972520E0,1.343864016E-2,1.840177327E-1,1.430909634E-1
4.686350541E0,9.773556143E-3,1.901262105E-1,1.394258887E-1
4.688727832E0,-2.443389036E-3,1.754658818E-1,1.345391124E-1
4.691105905E0,-6.108472589E-3,1.718007922E-1,1.307213157E-1
4.693484759E0,-8.551862091E-3,1.571404636E-1,1.246128380E-1
4.695862832E0,-6.108472589E-3,1.485885978E-1,1.221694499E-1
4.698240124E0,-0.000000000E0,1.314848661E-1,1.197260618E-1
4.700618145E0,3.665083554E-3,1.156028435E-1,1.148392856E-1
4.702996999E0,3.665083554E-3,1.009425074E-1,1.136175916E-1
4.705375072E0,-3.665083554E-3,8.506047726E-2,1.099525094E-1
4.707752364E0,-6.108472589E-3,7.650861889E-2,1.075091213E-1
4.710130384E0,-8.551862091E-3,6.306997687E-2,1.026223376E-1
4.712509239E0,-9.773556143E-3,5.329642445E-2,9.773556143E-2
4.714887311E0,-8.551862091E-3,4.352286831E-2,9.162709117E-2
4.717264603E0,-4.886778072E-3,3.619270027E-2,8.796200156E-2
4.719642624E0,2.443389036E-3,2.397575416E-2,8.185353130E-2
4.722021478E0,9.773556143E-3,1.664558798E-2,7.941014320E-2
4.724399551E0,1.588202827E-2,1.298050396E-2,7.696675509E-2
4.726776843E0,2.076880634E-2,5.650337320E-3,7.207997888E-2
4.729154916E0,2.809897438E-2,1.985253533E-3,6.719319522E-2
4.731533718E0,3.176405653E-2,1.985253533E-3,6.108472496E-2
4.733911791E0,3.787253052E-2,-4.123218823E-3,5.619794875E-2
4.736289082E0,4.398100078E-2,-7.788302377E-3,5.008947477E-2
4.738667155E0,4.153761268E-2,-2.901524538E-3,4.642439261E-2
4.741045957E0,5.986303091E-2,-1.389677543E-2,3.787253052E-2
4.743424030E0,5.741964281E-2,-9.009997360E-3,2.932066843E-2
4.745801322E0,5.986303091E-2,-1.389677543E-2,2.199050039E-2
4.748179395E0,6.597150117E-2,-2.367033064E-2,1.099525020E-2
4.750558197E0,6.841489673E-2,-3.955236077E-2,1.221694518E-3
4.752936270E0,7.941014320E-2,-7.375980914E-2,-6.108472589E-3
4.755313561E0,7.941014320E-2,-1.421747059E-1,-1.710372418E-2
4.757691634E0,7.207997888E-2,-2.032594234E-1,-2.809897438E-2
4.760070436E0,6.841489673E-2,-2.008160353E-1,-3.787253052E-2
4.762448509E0,7.941014320E-2,-1.739387512E-1,-5.008947477E-2
4.764825801E0,8.796200156E-2,-1.409530044E-1,-6.108472496E-2
4.767203874E0,8.674030751E-2,-1.055238619E-1,-7.085828483E-2
4.769582676E0,8.429691941E-2,-7.986827940E-2,-7.941014320E-2
4.771960749E0,7.818844914E-2,-6.520794332E-2,-9.162709117E-2
4.774338041E0,7.574506104E-2,-6.765133142E-2,-1.075091213E-1
4.776716114E0,5.619794875E-2,-6.276455522E-2,-1.136175916E-1
4.779094916E0,6.108472496E-2,-7.498150319E-2,-1.319430023E-1
4.781472989E0,7.207997888E-2,-1.079672500E-1,-1.588202864E-1
4.783850280E0,6.597150117E-2,-1.299577504E-1,-1.734806150E-1
4.786228353E0,5.741964281E-2,-1.421747059E-1,-1.844758689E-1
4.788607155E0,4.520269856E-2,-1.543916464E-1,-1.966928244E-1
4.790985228E0,3.298575059E-2,-1.788255423E-1,-2.174616307E-1
4.793362520E0,2.809897438E-2,-2.008160353E-1,-2.345653474E-1
4.795740593E0,3.176405653E-2,-2.166980654E-1,-2.492256761E-1
4.798119395E0,3.665083647E-2,-2.264716178E-1,-2.651077211E-1
4.800497468E0,3.542914242E-2,-2.276933193E-1,-2.797680497E-1
4.802874759E0,3.176405653E-2,-2.289150059E-1,-2.919849753E-1
4.805252832E0,1.954711229E-2,-2.240282297E-1,-2.968717813E-1
4.807631686E0,1.099525020E-2,-2.179197669E-1,-3.017585576E-1
4.810009707E0,3.665083554E-3,-2.093679011E-1,-3.005368412E-1
4.812386999E0,-3.665083554E-3,-1.898207814E-1,-2.907632887E-1
4.814765072E0,-1.221694518E-2,-1.714953631E-1,-2.834331393E-1
4.817143926E0,-1.466033421E-2,-1.592784226E-1,-2.748812735E-1
4.819521947E0,-1.588202827E-2,-1.556133330E-1,-2.687727809E-1
4.821899239E0,-1.954711229E-2,-1.531699449E-1,-2.614426315E-1
4.824277311E0,-2.076880634E-2,-1.568350345E-1,-2.553341687E-1
4.826656166E0,-2.199050039E-2,-1.727170646E-1,-2.528907657E-1
