"Time (s)","Acceleration x (m/s^2)","Acceleration y (m/s^2)","Acceleration z (m/s^2)"
9.457336000E-3,3.391884804E0,4.070928097E0,1.061154175E1
1.342764800E-2,3.362215757E0,3.927582502E0,1.046717167E1
1.739796100E-2,3.427184820E0,3.800900698E0,1.034281731E1
2.136827300E-2,3.486264229E0,3.687932730E0,1.020226765E1
2.533858600E-2,3.559258461E0,3.600457907E0,1.008375454E1
2.931046100E-2,3.586657763E0,3.569285393E0,1.006277275E1
3.328077300E-2,3.628087044E0,3.610925436E0,1.009131145E1
3.725108600E-2,3.654068947E0,3.565387726E0,1.013794041E1
4.122139800E-2,3.829018116E0,3.627713680E0,1.014547729E1
4.519171100E-2,4.158249378E0,3.687137604E0,1.018885994E1
4.916202300E-2,4.551147461E0,3.704519510E0,1.024210739E1
5.313233600E-2,5.037993908E0,3.709432364E0,1.035236549E1
5.710264800E-2,5.462265491E0,3.681458473E0,1.045279694E1
6.107296100E-2,5.691065311E0,3.613396168E0,1.053858566E1
6.504483600E-2,5.788537979E0,3.462944508E0,1.060637093E1
6.901514800E-2,5.721337318E0,3.348300457E0,1.068955421E1
7.298546100E-2,5.520780087E0,3.225190878E0,1.073004627E1
7.695577300E-2,5.244355202E0,3.079470158E0,1.074180698E1
8.092608600E-2,4.980762959E0,2.956168652E0,1.070831680E1
8.489639800E-2,4.649663925E0,2.817726374E0,1.064105892E1
8.886671100E-2,4.312244415E0,2.728125811E0,1.045366859E1
9.283702300E-2,4.057625771E0,2.815983295E0,1.002599716E1
9.680889800E-2,3.807920456E0,3.113055944E0,9.033562660E0
1.007792110E-1,2.867525816E0,2.704413652E0,8.208616257E0
1.047495230E-1,2.109243870E0,2.501749277E0,7.816235542E0
1.087198360E-1,2.003870249E0,2.897127628E0,7.835896492E0
1.126917110E-1,2.153871775E0,3.197762966E0,8.062521935E0
1.166604610E-1,2.443685055E0,3.421582222E0,8.313242912E0
1.206307730E-1,2.643878698E0,3.641417980E0,8.438890457E0
1.246026480E-1,2.768271685E0,3.902510405E0,8.570610046E0
1.285729610E-1,2.835270882E0,4.101382256E0,8.752578735E0
1.325432730E-1,2.936785221E0,4.198529720E0,8.775621414E0
1.365135860E-1,3.156917810E0,4.231626987E0,8.606820107E0
1.404838980E-1,3.397439241E0,4.204457283E0,8.394865990E0
1.444542110E-1,3.726795197E0,4.133273602E0,8.164256096E0
1.484260860E-1,4.048987865E0,4.082017899E0,8.040467262E0
1.523963980E-1,4.309965134E0,4.050107956E0,7.929318428E0
1.563667110E-1,4.577465057E0,4.000500202E0,7.773972988E0
1.603370230E-1,4.795624733E0,3.913667440E0,7.624402523E0
1.643073360E-1,4.926625252E0,3.828970194E0,7.430347443E0
1.682776480E-1,5.029145241E0,3.727896452E0,7.126752853E0
1.722495230E-1,5.106305599E0,3.628767014E0,6.839889526E0
1.762198360E-1,5.233360767E0,3.528066874E0,6.509278774E0
1.801885860E-1,5.389626026E0,3.435919046E0,6.245801926E0
1.841604610E-1,5.572992802E0,3.374876261E0,6.003872395E0
1.881307730E-1,5.756350517E0,3.265815735E0,5.757939816E0
1.921010860E-1,5.887715340E0,3.199793100E0,5.486092567E0
1.960713980E-1,5.954992771E0,3.103048086E0,5.214456558E0
2.000417110E-1,5.941048622E0,3.005537033E0,4.900950432E0
2.040135860E-1,5.876702309E0,2.912737846E0,4.633220673E0
2.079838980E-1,5.768350124E0,2.806732178E0,4.340783596E0
2.119542110E-1,5.641543388E0,2.715982437E0,4.132937908E0
2.159245230E-1,5.531965733E0,2.641656637E0,3.948699474E0
2.198948360E-1,5.568970680E0,2.573508263E0,3.887886763E0
2.238651480E-1,5.763504505E0,2.400532007E0,3.974442005E0
2.278354610E-1,6.207465649E0,1.923482537E0,4.158307076E0
2.318057730E-1,6.334157944E0,1.929094434E0,4.311593056E0
2.357776480E-1,6.259122849E0,2.109933376E0,4.483219147E0
2.397495230E-1,6.168258190E0,2.386061430E0,4.705266953E0
2.437182730E-1,6.141309261E0,2.576975107E0,4.915018559E0
2.476885860E-1,6.171342373E0,2.721853018E0,5.176847935E0
2.516604610E-1,6.187125206E0,2.759049416E0,5.495382309E0
2.556292110E-1,6.146097660E0,2.706932306E0,5.741592884E0
2.595995230E-1,6.036970139E0,2.556624174E0,5.881231785E0
2.635698360E-1,5.823675156E0,2.393655777E0,5.947513103E0
2.675417110E-1,5.515149117E0,2.200530052E0,5.967355728E0
2.715120230E-1,5.163996220E0,1.993967772E0,5.884966850E0
2.754823360E-1,4.818034172E0,1.815523148E0,5.773560047E0
2.794526480E-1,4.412255287E0,1.630977988E0,5.549692154E0
2.834229610E-1,4.055174351E0,1.500666499E0,5.352640152E0
2.873948360E-1,3.718511343E0,1.343396068E0,5.142898560E0
2.913635860E-1,3.482375860E0,1.213831544E0,5.101766109E0
2.953338980E-1,3.457600832E0,1.098019123E0,5.195599556E0
2.993057730E-1,3.615244627E0,9.139626026E-1,5.524706364E0
3.032760860E-1,3.882456541E0,7.613944411E-1,5.975985050E0
3.072463980E-1,4.451586723E0,6.062406301E-1,7.013181686E0
3.112167110E-1,4.769910812E0,4.966723621E-1,7.693163872E0
3.151870230E-1,4.858830929E0,2.603933811E-1,8.017511368E0
3.191573360E-1,4.988357544E0,2.214061916E-1,8.870872498E0
3.231292110E-1,5.161467552E0,4.881585836E-1,1.032465076E1
3.270995230E-1,5.211554527E0,7.409000993E-1,1.125766087E1
3.310698360E-1,5.176101208E0,1.043373942E0,1.216151047E1
3.350401480E-1,5.039114952E0,1.353068709E0,1.308065414E1
3.390151480E-1,4.742454052E0,1.667389154E0,1.381647873E1
3.429807730E-1,4.796150684E0,1.983145952E0,1.522784042E1
3.469510860E-1,4.768694401E0,2.148575783E0,1.530367947E1
3.509229610E-1,4.338063240E0,2.122670412E0,1.392518425E1
3.548932730E-1,3.883663416E0,2.081949949E0,1.274947834E1
3.588635860E-1,3.981615067E0,2.092321634E0,1.146401310E1
3.628338980E-1,4.529092312E0,2.215038776E0,1.007415962E1
3.668042110E-1,5.085073948E0,2.287056446E0,8.927422523E0
3.707745230E-1,5.552354813E0,2.077927828E0,7.394309998E0
3.747448360E-1,5.772257328E0,1.660934329E0,6.085831165E0
3.787151480E-1,5.780024529E0,1.106216908E0,4.917805195E0
3.826870230E-1,5.642951488E0,6.266487837E-1,4.182182312E0
3.866573360E-1,5.526229382E0,3.795863092E-1,3.718195200E0
3.906276480E-1,5.483325005E0,1.938249916E-1,3.279845715E0
3.945979610E-1,5.667304993E0,5.559336394E-2,3.001199007E0
3.985682730E-1,6.129453182E0,-3.499365225E-2,2.990674019E0
4.025385860E-1,6.728319645E0,-4.167826474E-2,3.247552633E0
4.065088980E-1,7.258807659E0,3.999274597E-2,3.636524200E0
4.104807730E-1,7.764396191E0,2.552793622E-1,4.247630119E0
4.144510860E-1,8.016227722E0,5.353530645E-1,4.795815945E0
4.184213980E-1,7.995110989E0,7.808736563E-1,5.063219070E0
4.223917110E-1,7.741134167E0,9.765948653E-1,5.248042583E0
4.263620230E-1,7.352669716E0,1.109865665E0,5.213010311E0
4.303323360E-1,6.734257221E0,1.201582789E0,5.007080078E0
4.343026480E-1,6.131837845E0,1.298251152E0,4.468930721E0
4.382745230E-1,5.773838043E0,1.362923265E0,4.098586082E0
4.422448360E-1,5.559949398E0,1.396767735E0,3.931116343E0
4.462151480E-1,5.435412407E0,1.378686666E0,4.005805969E0
4.501854610E-1,5.301116467E0,1.327182651E0,4.136394978E0
4.541557730E-1,5.172079086E0,1.252694249E0,4.236463547E0
4.581260860E-1,5.111256599E0,1.179718971E0,4.319398403E0
4.620979610E-1,5.122720242E0,1.099216342E0,4.493897438E0
4.660682730E-1,5.108048439E0,1.076902390E0,4.773099422E0
4.700385860E-1,5.098050117E0,1.099503636E0,5.186760426E0
4.740088980E-1,5.079088211E0,1.166924357E0,5.758495808E0
4.779792110E-1,5.065182686E0,1.327402830E0,6.345726013E0
4.819495230E-1,4.986442566E0,1.564821482E0,7.033168316E0
4.859198360E-1,4.745346069E0,1.779954791E0,7.555660248E0
4.898901480E-1,4.431916714E0,1.946313620E0,7.950990677E0
4.938604610E-1,4.126138687E0,2.060756445E0,8.237633705E0
4.978323360E-1,3.823176384E0,2.126462936E0,8.489302635E0
5.018026480E-1,3.566910505E0,2.218084335E0,8.796498299E0
5.057729610E-1,3.334146261E0,2.274558544E0,9.074857712E0
5.097432730E-1,3.139028311E0,2.317405224E0,9.243965149E0
5.137135860E-1,3.079566002E0,2.293808222E0,9.791978836E0
5.176838980E-1,3.262540340E0,2.156543732E0,1.027557850E1
5.216557730E-1,3.254668236E0,2.038605452E0,9.929213524E0
5.256245230E-1,2.773194313E0,1.847691655E0,9.357498169E0
5.295963980E-1,2.621066570E0,1.730059743E0,9.100302696E0
5.335667110E-1,2.623824596E0,1.650600910E0,8.913583755E0
5.375370230E-1,2.585268497E0,1.604651451E0,8.946786880E0
5.415073360E-1,2.494595528E0,1.564409614E0,9.480712891E0
5.454776480E-1,2.292170525E0,1.497075200E0,1.051661682E1
5.494479610E-1,2.134248734E0,1.448109031E0,1.103347778E1
5.534198360E-1,2.234163523E0,1.411650062E0,1.101992607E1
5.573901480E-1,2.576343060E0,1.410654068E0,1.086510754E1
5.613604610E-1,2.862785339E0,1.470269680E0,1.084583855E1
5.653307730E-1,2.959922791E0,1.544221759E0,1.084427834E1
5.693010860E-1,3.092829943E0,1.601050496E0,1.083476830E1
5.732713980E-1,3.388398647E0,1.573268175E0,1.116531181E1
5.772417110E-1,3.696953773E0,1.511267900E0,1.132078171E1
5.812135860E-1,3.837349892E0,1.457829475E0,1.039216709E1
5.851838980E-1,3.950145483E0,1.330668569E0,9.813660622E0
5.891542110E-1,3.641264677E0,1.307645917E0,9.579928398E0
5.931245230E-1,2.798381329E0,1.499134183E0,9.244367599E0
5.970948360E-1,2.044945240E0,1.848639727E0,9.159172058E0
6.010667110E-1,1.691417336E0,2.130159616E0,9.461750984E0
6.050354610E-1,1.390245795E0,2.347562790E0,9.903099060E0
6.090073360E-1,1.160354614E0,2.484185219E0,1.021331024E1
6.129776480E-1,1.025800586E0,2.515539885E0,1.042880726E1
6.169479610E-1,9.616646171E-1,2.445562124E0,1.056805325E1
6.209182730E-1,9.669414759E-1,2.354094028E0,1.064357758E1
6.248885860E-1,9.958538413E-1,2.248500347E0,1.070746422E1
6.288588980E-1,1.056130290E0,2.137887955E0,1.070783710E1
6.328292110E-1,1.225180030E0,1.963360310E0,1.061055565E1
6.368026480E-1,1.488120794E0,1.769343734E0,1.039014530E1
6.407713980E-1,1.758541107E0,1.604948401E0,1.010961246E1
6.447417110E-1,2.051112652E0,1.461430311E0,9.675850868E0
6.487120230E-1,2.284709930E0,1.409294248E0,9.259153366E0
6.526823360E-1,2.402590990E0,1.420604348E0,8.955051422E0
6.566542110E-1,2.472683668E0,1.510827541E0,8.686317444E0
6.606229610E-1,2.416027308E0,1.638036132E0,8.534189224E0
6.645932730E-1,2.251670122E0,1.826009750E0,8.482283592E0
6.685635860E-1,1.968560576E0,2.049800634E0,8.501791000E0
6.725354610E-1,1.740019679E0,2.227967501E0,8.706073761E0
6.765057730E-1,1.558290124E0,2.396241426E0,8.954257011E0
6.804760860E-1,1.525661945E0,2.460875511E0,9.114984512E0
6.844463980E-1,1.603262782E0,2.451873302E0,9.211863518E0
6.884167110E-1,1.790910721E0,2.353404522E0,9.236409187E0
6.923885860E-1,1.989131451E0,2.219597340E0,9.236150742E0
6.963588980E-1,2.213382006E0,2.027793169E0,9.175845146E0
7.003292110E-1,2.369522333E0,1.846168995E0,9.142957687E0
7.042995230E-1,2.631696939E0,1.644730330E0,9.032384872E0
7.082698360E-1,2.876882315E0,1.465241790E0,8.834537506E0
7.122401480E-1,3.024528027E0,1.381856561E0,8.652395248E0
7.162104610E-1,3.093471527E0,1.394277692E0,8.503294945E0
7.201807730E-1,3.056878328E0,1.482336402E0,8.411098480E0
7.241510860E-1,2.908380270E0,1.599068165E0,8.404442787E0
7.281292110E-1,2.735136032E0,1.737529635E0,8.478711128E0
7.320932730E-1,2.596770287E0,1.845134616E0,8.594580650E0
7.360635860E-1,2.472616673E0,1.965993881E0,8.734918594E0
7.400338980E-1,2.429587841E0,2.029124260E0,8.822614670E0
7.440042110E-1,2.403136969E0,2.079680204E0,8.960979462E0
7.479745230E-1,2.387325525E0,2.099839449E0,9.147287369E0
7.519448360E-1,2.418881178E0,2.032878399E0,9.264488220E0
7.559167110E-1,2.574102163E0,1.877092361E0,9.370436668E0
7.598870230E-1,2.763770819E0,1.650045514E0,9.448276520E0
7.638573360E-1,2.890002728E0,1.463747978E0,9.487062454E0
7.678276480E-1,2.980436325E0,1.331731558E0,9.552922249E0
7.717979610E-1,2.944513559E0,1.304294109E0,9.698509216E0
7.757682730E-1,2.866510630E0,1.317433476E0,9.972760201E0
7.797401480E-1,2.786764622E0,1.348184586E0,1.025181866E1
7.837088980E-1,2.755208969E0,1.335859299E0,1.044664955E1
7.876807730E-1,2.711672783E0,1.301449656E0,1.052033329E1
7.916510860E-1,2.713722229E0,1.266226172E0,1.049340343E1
7.956213980E-1,2.743640184E0,1.248327136E0,1.038651657E1
7.995917110E-1,2.774985075E0,1.248901844E0,1.018727016E1
8.035620230E-1,2.809461594E0,1.296718717E0,9.948263168E0
8.075323360E-1,2.889743805E0,1.360873818E0,9.592474937E0
8.115042110E-1,2.886832476E0,1.454324365E0,9.188304901E0
8.154745230E-1,2.859031200E0,1.561747313E0,8.884374619E0
8.194448360E-1,2.738957167E0,1.779437780E0,8.578636169E0
8.234151480E-1,2.581150532E0,1.988116384E0,8.468502045E0
8.273854610E-1,2.382920265E0,2.240666151E0,8.452939034E0
8.313557730E-1,2.153239727E0,2.470777750E0,8.563398361E0
8.353260860E-1,1.968311548E0,2.573910475E0,8.690137863E0
8.392979610E-1,1.839216232E0,2.580106735E0,8.766599655E0
8.432667110E-1,1.821824670E0,2.480890751E0,8.791968346E0
8.472385860E-1,1.991918325E0,2.291844845E0,8.807539940E0
8.512088980E-1,2.122009754E0,2.143212557E0,8.805337906E0
8.551792110E-1,2.129393339E0,1.987091660E0,8.804542542E0
8.591495230E-1,2.082610607E0,1.855448842E0,8.781309128E0
8.631198360E-1,2.053076029E0,1.780711412E0,8.820468903E0
8.670917110E-1,2.034219027E0,1.741753101E0,8.881405830E0
8.710620230E-1,2.026337385E0,1.756558657E0,8.967003822E0
8.750323360E-1,1.995595813E0,1.719697595E0,8.971973419E0
8.790026480E-1,1.878902435E0,1.699586272E0,8.936252594E0
8.829729610E-1,1.738113761E0,1.656251192E0,8.871321678E0
8.869432730E-1,1.611843586E0,1.628373146E0,8.748777390E0
8.909151480E-1,1.478208899E0,1.590937495E0,8.584832191E0
8.948854610E-1,1.389910698E0,1.611939311E0,8.429505348E0
8.988542110E-1,1.231663585E0,1.673173428E0,8.351531029E0
9.028260860E-1,9.972329140E-1,1.777484179E0,8.395114899E0
9.067963980E-1,8.027949929E-1,1.838957667E0,8.491122246E0
9.107667110E-1,5.939918756E-1,1.869028807E0,8.565121651E0
9.147370230E-1,4.177403152E-1,1.827407956E0,8.500967979E0
9.187073360E-1,1.918521672E-1,1.723020792E0,8.274255753E0
9.226776480E-1,-6.963296235E-2,1.603272319E0,7.899850368E0
9.266495230E-1,-3.261668980E-1,1.500101447E0,7.522802353E0
9.306198360E-1,-5.853631496E-1,1.423946619E0,7.061190605E0
9.345901480E-1,-7.850108743E-1,1.424463868E0,6.694972992E0
9.385604610E-1,-9.882785678E-1,1.528467894E0,6.224340439E0
9.425307730E-1,-1.245492458E0,1.739789844E0,5.769192696E0
9.465010860E-1,-1.511919141E0,1.979755878E0,5.414898872E0
9.504729610E-1,-1.866548300E0,2.284709930E0,5.093922615E0
9.544417110E-1,-2.325382710E0,2.554402590E0,4.950309277E0
9.584135860E-1,-2.841323614E0,2.900575399E0,4.965229511E0
9.623838980E-1,-3.214321136E0,3.250349045E0,5.031223297E0
9.663776480E-1,-3.449048519E0,3.442344904E0,5.068860531E0
9.703245230E-1,-3.563529730E0,3.432710648E0,5.168439865E0
9.742948360E-1,-3.672006369E0,3.239642143E0,5.402315140E0
9.782651480E-1,-3.762372971E0,2.990491867E0,5.659634113E0
9.822354610E-1,-3.852672815E0,2.624322653E0,6.039278030E0
9.862073360E-1,-3.858150721E0,2.287448883E0,6.419343472E0
9.901776480E-1,-3.791055679E0,1.833604097E0,6.886988163E0
9.941479610E-1,-3.624850035E0,1.351047993E0,7.277358055E0
9.981182730E-1,-3.413643360E0,9.279063940E-1,7.553696632E0
1.002088586E0,-3.135704994E0,4.037294388E-1,7.790444851E0
1.006058898E0,-2.889992952E0,-8.026321232E-2,7.920814037E0
1.010030773E0,-2.556202888E0,-6.603495479E-1,8.008853912E0
1.014001086E0,-2.153057575E0,-1.273945212E0,7.993128300E0
1.017971398E0,-1.793908358E0,-1.807248831E0,7.807089329E0
1.021941711E0,-1.645304918E0,-2.358441830E0,7.504309177E0
1.025912023E0,-1.974325776E0,-2.664028406E0,7.394271374E0
1.029882336E0,-2.489624977E0,-2.692796946E0,7.559758663E0
1.033854211E0,-3.071760654E0,-2.538830519E0,7.770113468E0
1.037822961E0,-3.629073381E0,-2.383542776E0,7.793720245E0
1.041794836E0,-4.198308945E0,-2.352887392E0,7.515916348E0
1.045765148E0,-4.678902149E0,-2.343099833E0,6.962759972E0
1.049735461E0,-5.150090694E0,-2.168677568E0,6.467016697E0
1.053705773E0,-5.729401588E0,-1.752584338E0,5.963965893E0
1.057676086E0,-6.125479221E0,-1.307827830E0,5.444194317E0
1.061646398E0,-6.339884281E0,-8.923859596E-1,4.656195641E0
1.065616711E0,-6.403368950E0,-6.350284815E-1,3.820906401E0
1.069588586E0,-6.441676140E0,-4.407438040E-1,3.170392275E0
1.073558898E0,-6.543056011E0,-2.846418321E-1,2.541780233E0
1.077529211E0,-6.570522308E0,-1.947347820E-1,2.110776186E0
1.081499523E0,-6.479006767E0,-2.555570900E-1,1.709948540E0
1.085469836E0,-6.247621536E0,-5.428900123E-1,1.507130861E0
1.089440148E0,-5.994736195E0,-9.829251766E-1,1.589136958E0
1.093410461E0,-5.653935909E0,-1.634636521E0,1.882168055E0
1.097380773E0,-5.409104824E0,-2.298481464E0,2.268659353E0
1.101352648E0,-5.096508503E0,-3.097694874E0,2.894791126E0
1.105322961E0,-4.767305851E0,-3.921060801E0,3.608914375E0
1.109293273E0,-4.478009224E0,-4.527100086E0,4.241519928E0
1.113263586E0,-4.094812870E0,-5.146690845E0,4.965296268E0
1.117233898E0,-4.207982063E0,-5.758505344E0,5.820668221E0
1.121204211E0,-4.409238338E0,-6.229712963E0,6.639513969E0
1.125176086E0,-4.632790089E0,-6.689054489E0,7.477925301E0
1.129146398E0,-4.820696354E0,-6.981798649E0,8.074282646E0
1.133115148E0,-5.087496758E0,-7.210789680E0,8.570552826E0
1.137087023E0,-5.265385628E0,-7.377416611E0,8.725897789E0
1.141057336E0,-5.328966141E0,-7.454270363E0,8.610324860E0
1.145027648E0,-5.342325687E0,-7.445929050E0,8.322608948E0
1.148999523E0,-5.321649551E0,-7.346684456E0,8.005990028E0
1.152968273E0,-5.377118587E0,-7.158854485E0,7.653257370E0
1.156940148E0,-5.553474903E0,-6.916245461E0,7.333133221E0
1.160910461E0,-5.712393284E0,-6.696994305E0,7.220012188E0
1.164880773E0,-5.919970036E0,-6.445468903E0,7.352966785E0
1.168851086E0,-6.130334377E0,-6.311048985E0,7.634333611E0
1.172821398E0,-6.179693222E0,-6.446158409E0,7.998136997E0
1.176791711E0,-6.052685738E0,-6.855222225E0,8.490299225E0
1.180763586E0,-6.191386223E0,-6.987736225E0,8.929969788E0
1.184733898E0,-6.343877792E0,-7.097955704E0,9.467238426E0
1.188704211E0,-6.467256069E0,-7.149804592E0,9.883139610E0
1.192674523E0,-6.494952202E0,-7.322972298E0,1.019584179E1
1.196644836E0,-6.536055565E0,-7.549722195E0,1.045078659E1
1.200615148E0,-6.776079178E0,-7.661838055E0,1.076622677E1
1.204587023E0,-7.156163692E0,-7.649694920E0,1.135375500E1
1.208555773E0,-7.369477749E0,-7.646352768E0,1.203978920E1
1.212526086E0,-7.361461639E0,-7.805634022E0,1.255299091E1
1.216497961E0,-7.240860939E0,-8.083189011E0,1.293166828E1
1.220468273E0,-7.105368137E0,-8.317188263E0,1.310792828E1
1.224438586E0,-7.044162750E0,-8.457736969E0,1.330012608E1
1.228408898E0,-6.961840153E0,-8.452576637E0,1.344326115E1
1.232379211E0,-6.734286308E0,-8.468875885E0,1.349157524E1
1.236349523E0,-6.368988514E0,-8.594591141E0,1.352755547E1
1.240321398E0,-6.483881474E0,-8.662097931E0,1.373589897E1
1.244291711E0,-6.458014011E0,-8.781597137E0,1.359340572E1
1.248262023E0,-6.359909534E0,-9.013355255E0,1.361174488E1
1.252232336E0,-6.317474842E0,-9.167321205E0,1.376729202E1
1.256202648E0,-6.412524223E0,-9.221535683E0,1.396846199E1
1.260172961E0,-6.589858532E0,-9.119897842E0,1.415633011E1
1.264143273E0,-6.993281364E0,-8.892065048E0,1.440987587E1
1.268115148E0,-7.495143890E0,-8.588365555E0,1.469691181E1
1.272083898E0,-7.945301533E0,-8.285029411E0,1.491690159E1
1.276055773E0,-8.339838028E0,-7.937075615E0,1.502613449E1
1.280026086E0,-8.655959129E0,-7.611818314E0,1.506410599E1
1.283996398E0,-8.932489395E0,-7.310081959E0,1.514948368E1
1.287966711E0,-9.246186256E0,-6.913535118E0,1.534344196E1
1.291937023E0,-9.456646919E0,-6.609136105E0,1.554193211E1
1.295907336E0,-9.632199287E0,-6.344299316E0,1.589217472E1
1.299879211E0,-9.655757904E0,-6.224254131E0,1.620636940E1
1.303849523E0,-9.635311127E0,-6.225355625E0,1.632172203E1
1.307819836E0,-9.599283218E0,-6.249383926E0,1.619078827E1
1.311790148E0,-9.610067368E0,-6.274292946E0,1.591833878E1
1.315760461E0,-9.708114624E0,-6.287126064E0,1.558316898E1
1.319730773E0,-9.855549812E0,-6.344558239E0,1.518473625E1
1.323701086E0,-1.002943516E1,-6.444281101E0,1.489815044E1
1.327672961E0,-1.025072670E1,-6.510437965E0,1.477624702E1
1.331641711E0,-1.052721882E1,-6.462151527E0,1.484158897E1
1.335613586E0,-1.090464020E1,-6.282701015E0,1.509028912E1
1.339583898E0,-1.125368690E1,-6.067778587E0,1.536980724E1
1.343554211E0,-1.153255367E1,-5.872249126E0,1.548087025E1
1.347524523E0,-1.179090691E1,-5.674382210E0,1.545099068E1
1.351494836E0,-1.193507576E1,-5.540786266E0,1.534202576E1
1.355466711E0,-1.212493610E1,-5.348665714E0,1.509948349E1
1.359437023E0,-1.226878071E1,-5.079164982E0,1.479238415E1
1.363407336E0,-1.237359905E1,-4.818311691E0,1.444843292E1
1.367377648E0,-1.248294640E1,-4.585911751E0,1.404199314E1
1.371347961E0,-1.255400562E1,-4.442364693E0,1.369060040E1
1.375318273E0,-1.258528423E1,-4.341367722E0,1.348532200E1
1.379288586E0,-1.258077335E1,-4.273860931E0,1.339280033E1
1.383260461E0,-1.252571583E1,-4.224980354E0,1.335215664E1
1.387230773E0,-1.237973690E1,-4.295016289E0,1.326380062E1
1.391201086E0,-1.214818001E1,-4.507927418E0,1.302865219E1
1.395171398E0,-1.191255188E1,-4.708149910E0,1.274856853E1
1.399141711E0,-1.160698414E1,-4.881949902E0,1.235651398E1
1.403112023E0,-1.136113834E1,-4.947837830E0,1.198690605E1
1.407082336E0,-1.106081963E1,-4.953957558E0,1.146408844E1
1.411052648E0,-1.079517746E1,-4.966886044E0,1.089828110E1
1.415024523E0,-1.066340065E1,-5.013056278E0,1.049758816E1
1.418994836E0,-1.057487297E1,-5.079279900E0,1.014515209E1
1.422965148E0,-1.048731232E1,-5.097561836E0,9.919235229E0
1.426935461E0,-1.046625328E1,-5.086232185E0,9.692657471E0
1.430907336E0,-1.050431061E1,-5.003862381E0,9.436870575E0
1.434876086E0,-1.061677170E1,-4.845845222E0,9.202095032E0
1.438847961E0,-1.070672703E1,-4.577340126E0,8.965682030E0
1.442824523E0,-1.055412006E1,-4.265787601E0,8.586498260E0
1.446788586E0,-1.035817909E1,-4.054906368E0,8.159506798E0
1.450758898E0,-1.045395565E1,-3.898507357E0,7.575742722E0
1.454729211E0,-1.060507774E1,-3.819221020E0,7.019684792E0
1.458699523E0,-1.059871864E1,-3.711558580E0,6.393351555E0
1.462669836E0,-1.035779476E1,-3.635518551E0,5.896238804E0
1.466640148E0,-9.993646622E0,-3.701521873E0,5.683901787E0
1.470610461E0,-9.307200432E0,-4.256382942E0,5.612928391E0
1.474582336E0,-8.836442947E0,-4.858065128E0,5.599511147E0
1.478552648E0,-8.896374702E0,-4.863073826E0,5.412744045E0
1.482527648E0,-9.181265831E0,-4.416507244E0,5.314179897E0
1.486493273E0,-9.469814301E0,-3.833117008E0,5.176637650E0
1.490463586E0,-9.599848747E0,-3.285984278E0,5.012423992E0
1.494433898E0,-9.597415924E0,-2.949244738E0,4.859511375E0
1.498405773E0,-9.462718964E0,-2.792242527E0,4.775532246E0
1.502374523E0,-9.317247391E0,-2.766921282E0,4.694607735E0
1.506344836E0,-9.275510788E0,-2.902921677E0,4.193089962E0
1.510316711E0,-9.208099365E0,-3.252724171E0,3.248443365E0
1.514287023E0,-8.964274406E0,-3.507304430E0,2.655897379E0
1.518257336E0,-8.398505211E0,-3.571038008E0,1.441089153E0
1.522229211E0,-7.840215683E0,-3.178494453E0,-3.842980862E-1
1.526197961E0,-7.582379341E0,-2.553301334E0,-2.895911455E0
1.530169836E0,-6.871933460E0,-2.481456041E0,-1.004855990E0
1.534140148E0,-6.268422127E0,-2.795594454E0,1.891017079E0
1.538110461E0,-6.435221672E0,-3.046487570E0,2.360893488E0
1.542080773E0,-6.950913429E0,-3.202139378E0,2.981690884E0
1.546051086E0,-7.163384438E0,-3.256449461E0,4.236520767E0
1.550021398E0,-7.625857830E0,-3.079106092E0,4.862546921E0
1.553994836E0,-8.088427544E0,-2.716442108E0,5.033042908E0
1.557963586E0,-8.319688797E0,-2.256784201E0,4.586543560E0
1.561932336E0,-8.643287659E0,-1.510511518E0,2.341519833E0
1.565904211E0,-8.832545280E0,-7.187201977E-1,-1.192312408E-2
1.569874523E0,-9.011114120E0,2.512954175E-2,-1.918617487E0
1.573844836E0,-9.055244446E0,5.404479504E-1,-3.197829723E0
1.577815148E0,-9.222148895E0,5.550909042E-1,-3.339786768E0
1.581785461E0,-9.402978897E0,-1.069729310E-2,-2.399545670E0
1.585755773E0,-9.228287697E0,-1.322978377E0,-9.986311197E-1
1.589727648E0,-8.481698990E0,-3.493944883E0,9.072300196E-1
1.593697961E0,-6.876530170E0,-5.748755932E0,2.329903126E0
1.597668273E0,-5.032803535E0,-7.532302380E0,2.590248585E0
1.601638586E0,-3.316103458E0,-9.110243797E0,2.075581312E0
1.605608898E0,-2.137476206E0,-1.005641270E1,1.535066366E0
1.609579211E0,-1.423755169E0,-1.029563236E1,1.281185150E0
1.613551086E0,-1.083376169E0,-1.019110203E1,1.217307806E0
1.617521398E0,-8.583979607E-1,-9.875392914E0,1.235906124E0
1.621491711E0,-7.770237923E-1,-9.406924248E0,1.296728373E0
1.625462023E0,-7.740550041E-1,-9.171535492E0,1.410271049E0
1.629432336E0,-7.757022381E-1,-9.101356506E0,1.487325907E0
1.633402648E0,-7.950282097E-1,-8.969904900E0,1.499239445E0
1.637372961E0,-8.263443708E-1,-8.732764244E0,1.406785011E0
1.641343273E0,-9.696612358E-1,-8.446216583E0,1.295186520E0
1.645313586E0,-1.102280855E0,-8.337624550E0,1.334729075E0
1.649285461E0,-1.208334446E0,-8.409049034E0,1.629771352E0
1.653255773E0,-1.410376310E0,-8.715861320E0,2.137342215E0
1.657226086E0,-1.815159202E0,-8.832909584E0,2.538677454E0
1.661196398E0,-2.393177032E0,-8.486535072E0,2.684005260E0
1.665166711E0,-2.771020174E0,-7.941653252E0,2.664420843E0
1.669137023E0,-2.762238264E0,-7.679411411E0,2.500676870E0
1.673108898E0,-2.696388245E0,-7.600421906E0,2.354850531E0
1.677079211E0,-2.665464878E0,-7.571825504E0,2.276081324E0
1.681049523E0,-2.633985758E0,-7.512765408E0,2.146861553E0
1.685019836E0,-2.616690159E0,-7.354556561E0,1.988221645E0
1.688990148E0,-2.772447348E0,-7.140936375E0,1.860026598E0
1.692960461E0,-3.166753292E0,-6.188350677E0,1.071577668E0
1.696930773E0,-3.490353584E0,-4.272203922E0,4.989899397E-1
1.700902648E0,-3.917632341E0,-2.594290018E0,9.390059114E-2
1.704872961E0,-4.205070496E0,-3.472349167E0,9.823601246E-1
1.708843273E0,-4.077287197E0,-5.844073772E0,2.333570957E0
1.712813586E0,-3.613597393E0,-6.590384960E0,3.336013556E0
1.716783898E0,-3.546885252E0,-4.424771786E0,3.518451691E0
1.720754211E0,-4.019500732E0,-2.132276058E0,3.538266182E0
1.724724523E0,-5.359516144E0,-1.320545971E-1,3.810659409E0
1.728696398E0,-6.368308544E0,7.269275188E-1,4.363729477E0
1.732666711E0,-5.754521370E0,-2.819162846E0,3.495754719E0
1.736637023E0,-5.668330193E0,-7.084328175E0,2.345427036E0
1.740607336E0,-4.243013859E0,-1.098348618E1,5.324704647E-1
1.744577648E0,-2.245291948E0,-1.331479645E1,3.337201118E0
1.748547961E0,-1.946620107E0,-1.295891380E1,5.810746670E0
1.752519836E0,-1.232688189E0,-1.105620289E1,6.090839386E0
1.756488586E0,-1.995117068E0,-1.070777035E1,5.662708282E0
1.760460461E0,-2.478535175E0,-1.123574924E1,6.097131252E0
1.764430773E0,-2.293654680E0,-1.106849003E1,6.971934795E0
1.768401086E0,-2.344009876E0,-1.112513638E1,7.001747131E0
1.772371398E0,-2.199658394E0,-1.108926296E1,6.586564064E0
1.776341711E0,-2.051390409E0,-1.079096413E1,6.045924187E0
1.780312023E0,-1.846207261E0,-1.046791935E1,5.466622829E0
1.784282336E0,-1.643332124E0,-1.040566063E1,4.783375263E0
1.788254211E0,-1.302464843E0,-1.055576801E1,4.125506401E0
1.792224523E0,-1.080235124E0,-1.075564480E1,3.749990225E0
1.796194836E0,-6.455821395E-1,-1.107315445E1,3.645354033E0
1.800171398E0,-1.459409595E-1,-1.169682407E1,4.020621300E0
1.804135461E0,1.819210202E-1,-1.207209206E1,4.144526005E0
1.808105773E0,6.008393168E-1,-1.201664162E1,3.653676271E0
1.812077648E0,9.273892045E-1,-1.199542999E1,3.238971949E0
1.816047961E0,1.112326860E0,-1.120777512E1,2.249764442E0
1.820016711E0,1.525317192E0,-1.077818871E1,1.617953658E0
1.823988586E0,1.597564578E0,-9.743567467E0,8.792083263E-1
1.827958898E0,1.645793438E0,-9.054363251E0,4.420462251E-1
1.831929211E0,1.511967182E0,-8.328412056E0,-7.138551772E-2
1.835901086E0,1.306448817E0,-7.387510300E0,-6.416364908E-1
1.839869836E0,9.879242778E-1,-6.749426842E0,-1.327345490E0
1.843840148E0,7.264486551E-1,-6.670906544E0,-1.487431288E0
1.847812023E0,3.908390403E-1,-6.166074753E0,-1.664803386E0
1.851782336E0,8.063670993E-2,-5.938625813E0,-1.131959319E0
1.855752648E0,-1.204379201E-1,-6.287106514E0,-6.426995397E-1
1.859722961E0,-7.180019617E-1,-6.579151154E0,-2.496960908E-1
1.863693273E0,-1.206782937E0,-6.920516491E0,-6.059245765E-2
1.867663586E0,-1.920130610E0,-7.487808704E0,6.197342873E-1
1.871635461E0,-2.449373722E0,-8.319850922E0,1.831238627E0
1.875604211E0,-2.821672201E0,-9.313817978E0,3.061934948E0
1.879576086E0,-3.015372515E0,-9.526394844E0,4.266831398E0
1.883546398E0,-2.750037670E0,-9.568637848E0,4.504412651E0
1.887516711E0,-2.306746244E0,-9.529746056E0,4.854244232E0
1.891487023E0,-2.309447050E0,-9.406913757E0,5.102580070E0
1.895457336E0,-2.827820301E0,-9.492914200E0,5.025457859E0
1.899427648E0,-2.865485907E0,-9.298188210E0,4.699013710E0
1.903399523E0,-3.018102169E0,-9.439417839E0,4.517533302E0
1.907369836E0,-3.013256073E0,-9.719606400E0,4.315606117E0
1.911340148E0,-2.815255642E0,-9.772153854E0,3.934784412E0
1.915310461E0,-2.738727331E0,-1.009972000E1,3.771873236E0
1.919288586E0,-2.326474667E0,-1.032956219E1,3.581227779E0
1.923251086E0,-1.576629758E0,-1.006005287E1,3.483697414E0
1.927221398E0,-1.032025337E0,-9.939604759E0,3.199582577E0
1.931193273E0,-2.029421031E-1,-9.829174995E0,2.856387854E0
1.935162023E0,3.825838566E-1,-9.716320992E0,2.492134094E0
1.939133898E0,4.104715288E-1,-9.822107315E0,2.171876192E0
1.943104211E0,3.071281910E-1,-9.974176407E0,1.871777296E0
1.947074523E0,-3.250942826E-1,-1.036875057E1,1.618844271E0
1.951047961E0,-1.041822553E0,-1.085901642E1,1.603071332E0
1.955015148E0,-1.571975350E0,-1.129110336E1,1.675759315E0
1.958985461E0,-1.908762932E0,-1.175708199E1,2.000939608E0
1.962957336E0,-1.377700329E0,-1.193025875E1,2.053679228E0
1.966927648E0,-1.555819392E0,-1.082423306E1,1.389355183E0
1.970897961E0,-2.750018358E0,-1.071751022E1,2.103459358E0
1.974868273E0,-2.557534218E0,-1.140051842E1,3.640757084E0
1.978838586E0,-3.083109379E0,-1.188515282E1,3.905728340E0
1.982808898E0,-3.850288153E0,-1.202641964E1,4.027909279E0
1.986780773E0,-3.709882498E0,-1.203805542E1,4.225153446E0
1.990751086E0,-3.180160761E0,-1.230699158E1,3.951495886E0
1.994719836E0,-2.709738255E0,-1.228207302E1,3.706616879E0
1.998691711E0,-2.033117771E0,-1.213547039E1,3.158143520E0
2.002662023E0,-9.281170368E-1,-1.200610733E1,2.190474272E0
2.006632336E0,3.350924700E-2,-1.200636578E1,1.651156425E0
2.010602648E0,3.227096498E-1,-1.168504524E1,1.191124916E0
2.014572961E0,8.461491466E-1,-1.159499454E1,9.218443036E-1
2.018544836E0,9.134262800E-1,-1.127009201E1,1.039112329E0
2.022515148E0,1.629110575E-1,-1.056385899E1,1.212184310E0
2.026485461E0,-4.818187356E-1,-9.803432465E0,1.116943002E0
2.030455773E0,-1.209579468E0,-9.165081024E0,1.023904324E0
2.034426086E0,-1.810610175E0,-8.919684410E0,2.494662404E-1
2.038396398E0,-2.307311296E0,-8.914522171E0,-4.649348259E-1
2.042368273E0,-4.602038383E0,-8.122559547E0,1.959701926E-1
2.046338586E0,-7.375041485E0,-7.017079353E0,7.182700634E-1
2.050313586E0,-9.594552994E0,-6.191041470E0,9.447328448E-1
2.054279211E0,-1.054527092E1,-5.533115387E0,2.145664215E0
2.058249523E0,-1.100471878E1,-5.307945251E0,1.489365816E0
2.062219836E0,-1.106667137E1,-5.451712608E0,1.446107388E0
2.066190148E0,-1.030335140E1,-5.536543369E0,2.950901389E-1
2.070162023E0,-9.949747086E0,-5.601215839E0,-5.166016817E-1
2.074130773E0,-9.996855736E0,-5.300896645E0,-7.234990001E-1
2.078102648E0,-9.943023682E0,-4.737799168E0,-6.696965098E-1
2.082072961E0,-9.747303009E0,-4.222739697E0,-3.116005659E-1
2.086043273E0,-9.855789185E0,-4.004714012E0,3.106141686E-1
2.090013586E0,-1.026384640E1,-4.194641590E0,1.301794529E0
2.093983898E0,-1.032262039E1,-5.011820793E0,1.973396897E0
2.097954211E0,-9.455239296E0,-6.113689899E0,2.169874430E0
2.101926086E0,-7.904523849E0,-7.440566063E0,2.305146933E0
2.105894836E0,-6.933752060E0,-8.654713631E0,2.499834061E0
2.109866711E0,-6.218354702E0,-9.809360504E0,3.027803183E0
2.113837023E0,-6.414076328E0,-1.075617218E1,3.819996595E0
2.117807336E0,-7.187719345E0,-1.120948887E1,4.651914597E0
2.121777648E0,-7.493046761E0,-1.134712696E1,5.232930183E0
2.125747961E0,-7.191205025E0,-1.182386971E1,5.328181267E0
2.129718273E0,-6.637914658E0,-1.219859219E1,5.599281311E0
2.133688586E0,-5.772573948E0,-1.244872856E1,5.478728294E0
2.137660461E0,-4.977842331E0,-1.279289913E1,5.144670486E0
2.141630773E0,-4.082257748E0,-1.325554562E1,4.502257824E0
2.145601086E0,-3.520137310E0,-1.349313641E1,3.527616739E0
2.149577648E0,-2.839504242E0,-1.328837490E1,2.394987106E0
2.153541711E0,-2.380143166E0,-1.279529381E1,1.343434453E0
2.157512023E0,-1.752910018E0,-1.240115070E1,5.973150134E-1
2.161483898E0,-6.456779242E-1,-1.240888882E1,-3.318363726E-1
2.165452648E0,-1.923980564E-1,-1.247509384E1,-1.275573254E0
2.169424523E0,7.368873954E-1,-1.300716114E1,-1.974229932E0
2.173394836E0,1.204762340E0,-1.357375431E1,-2.359801769E0
2.177365148E0,1.557361245E0,-1.386701488E1,-2.316849947E0
2.181335461E0,1.968828559E0,-1.410329437E1,-2.038250923E0
2.185305773E0,1.553185701E0,-1.342884731E1,-1.443397164E0
2.189276086E0,1.297436953E0,-1.257040119E1,-6.928149462E-1
2.193247961E0,7.672363520E-1,-1.126798439E1,-3.499365225E-2
2.197218273E0,1.209158063E0,-1.032069492E1,2.344402373E-1
2.201188586E0,2.248682022E0,-9.564902306E0,3.207368553E-1
2.205158898E0,3.143471956E0,-9.264803886E0,4.926500916E-1
2.209129211E0,3.308604717E0,-9.179695129E0,6.189585924E-1
2.213099523E0,3.364849329E0,-9.286141396E0,8.728492856E-1
2.217069836E0,2.945174456E0,-9.350871086E0,1.027141213E0
2.221041711E0,1.673958778E0,-9.427408218E0,8.675437570E-1
2.225013586E0,7.255005240E-1,-9.638644218E0,4.158153832E-1
2.228982336E0,-5.372588523E-3,-9.764818192E0,1.707832068E-1
2.232952648E0,-6.600718498E-1,-9.864973068E0,1.806664616E-1
2.236922961E0,-1.076241612E0,-9.795789719E0,4.926979542E-1
2.240893273E0,-1.279968977E0,-9.615572929E0,8.536286354E-1
2.244863586E0,-1.281367183E0,-9.486851692E0,1.087187886E0
2.248833898E0,-1.015189409E0,-9.389886856E0,8.550460339E-1
2.252805773E0,-5.637291074E-1,-9.504473686E0,7.229435444E-1
2.256776086E0,-1.313937828E-2,-9.730859756E0,2.950709760E-1
2.260746398E0,4.686984718E-1,-9.853681564E0,1.528458390E-2
2.264716711E0,1.030560136E0,-1.000933361E1,1.128339395E-1
2.268687023E0,1.415183783E0,-1.007260704E1,2.627492547E-1
2.272657336E0,1.770828247E0,-1.013489532E1,8.448371291E-1
2.276629211E0,2.209618330E0,-9.981340408E0,1.093757510E0
2.280599523E0,2.318631172E0,-9.713304520E0,1.175792456E0
2.284569836E0,2.404726505E0,-9.429208755E0,1.250395775E0
2.288540148E0,2.521716833E0,-9.318300247E0,1.103717446E0
2.292510461E0,2.713913918E0,-9.308157921E0,9.624403715E-1
2.296480773E0,2.635728836E0,-9.049910545E0,1.020159841E0
2.300452648E0,1.934189320E0,-7.895483494E0,1.193892598E0
2.304421398E0,1.401757240E0,-7.451866627E0,1.387334585E0
2.308393273E0,1.283598542E0,-7.656264305E0,1.460941911E0
2.312363586E0,1.322375059E0,-8.128917694E0,1.623843431E0
2.316333898E0,1.136872292E0,-8.432751656E0,1.842395663E0
2.320304211E0,6.808726788E-1,-8.649398804E0,1.947596908E0
2.324274523E0,-1.899846941E-1,-8.892697334E0,2.352006435E0
2.328244836E0,-9.377800822E-1,-9.076782227E0,2.897079945E0
2.332215148E0,-1.410309315E0,-9.055933952E0,3.064453602E0
2.336187023E0,-1.833738327E0,-8.995389938E0,2.955421686E0
2.340157336E0,-2.074901342E0,-8.989394188E0,2.757670164E0
2.344127648E0,-2.089592218E0,-9.047344208E0,2.407369852E0
2.348099523E0,-1.780405045E0,-9.090151787E0,1.673815131E0
2.352068273E0,-1.076950192E0,-8.972807884E0,6.351625323E-1
2.356040148E0,-1.069729328E-1,-8.363903999E0,-5.814462304E-1
2.360010461E0,5.154716372E-1,-7.609098434E0,-9.880870581E-1
2.363979211E0,8.011956811E-1,-6.717986107E0,-1.070476294E0
2.367951086E0,7.790157199E-1,-6.084825039E0,-9.886137843E-1
2.371921398E0,7.586650252E-1,-5.776126385E0,-9.670755267E-1
2.375891711E0,7.848384976E-1,-5.613818645E0,-8.997601271E-1
2.379862023E0,7.529860139E-1,-5.553906441E0,-7.839669585E-1
2.383832336E0,6.134328246E-1,-5.398465157E0,-6.710564494E-1
2.387802648E0,5.582320690E-1,-5.358242512E0,-4.354861379E-1
2.391774523E0,5.195800662E-1,-5.376457691E0,-2.366333157E-1
2.395749523E0,5.279119015E-1,-5.506338596E0,-5.482721701E-2
2.399715148E0,5.927277207E-1,-5.648046494E0,4.336377978E-2
2.403685461E0,7.238820791E-1,-5.772563934E0,2.967948318E-1
2.407655773E0,8.603132963E-1,-6.093626499E0,8.546438217E-1
2.411626086E0,1.445235968E0,-7.868342876E0,2.311573029E0
2.415596398E0,1.945623994E0,-9.673283577E0,3.303107738E0
2.419568273E0,1.657199383E0,-9.299424171E0,3.152503014E0
2.423537023E0,1.387190938E0,-9.079118729E0,3.157779455E0
2.427508898E0,1.085444808E0,-9.076581001E0,2.966348886E0
2.431479211E0,5.888874531E-1,-8.887668610E0,2.566373587E0
2.435449523E0,-1.698734015E-1,-8.429735184E0,1.709881306E0
2.439421398E0,-9.139242768E-1,-8.096673012E0,9.566463828E-1
2.443390148E0,-1.357972026E0,-8.046500206E0,3.220296800E-1
2.447362023E0,-1.511392474E0,-7.972002029E0,-3.168390691E-1
2.451332336E0,-1.587231159E0,-8.040610313E0,-4.276522994E-1
2.455302648E0,-1.518421888E0,-8.359001160E0,-3.669832274E-2
2.459272961E0,-1.170055866E0,-8.427532196E0,6.137296557E-1
2.463243273E0,-8.997601271E-1,-8.416509628E0,1.199131131E0
2.467213586E0,-7.464929223E-1,-8.380002975E0,1.944331169E0
2.471183898E0,-7.319744825E-1,-8.188715935E0,2.547172070E0
2.475155773E0,-9.363531470E-1,-7.728492737E0,2.948966980E0
2.479126086E0,-1.116713166E0,-7.404030323E0,3.054589510E0
2.483094836E0,-1.080656528E0,-7.378421783E0,3.161217690E0
2.487066711E0,-9.591650963E-1,-7.552920818E0,3.154964209E0
2.491037023E0,-9.218729734E-1,-7.852292061E0,2.974182606E0
2.495007336E0,-9.982384443E-1,-8.143723488E0,2.746848345E0
2.498979211E0,-1.004626155E0,-8.707510948E0,2.099944830E0
2.502947961E0,-1.133405566E0,-9.414757729E0,9.200534225E-1
2.506918273E0,-1.173829198E0,-1.035829258E1,-3.353223205E-1
2.510890148E0,-8.541554213E-1,-1.092065334E1,-3.170114458E-1
2.514860461E0,-2.084679306E-1,-1.113561440E1,5.961562395E-1
2.518830773E0,1.959893554E-1,-1.119298840E1,1.410893440E0
2.522801086E0,5.499960184E-1,-1.134774971E1,1.742030740E0
2.526771398E0,7.125527263E-1,-1.174740887E1,1.791322470E0
2.530743273E0,7.784124017E-1,-1.201476479E1,1.859164715E0
2.534713586E0,8.151969314E-1,-1.216780281E1,1.809585571E0
2.538683898E0,7.639322877E-1,-1.243218899E1,1.515137076E0
2.542654211E0,9.036483169E-1,-1.266896629E1,1.285111666E0
2.546624523E0,9.441869259E-1,-1.297230148E1,1.092885971E0
2.550594836E0,1.304475904E0,-1.334801006E1,1.160038590E0
2.554565148E0,1.482068300E0,-1.355401707E1,1.435946465E0
2.558537023E0,1.623316646E0,-1.373145485E1,1.423027396E0
2.562505773E0,1.778958917E0,-1.401669979E1,1.063686371E0
2.566477648E0,1.851215959E0,-1.424552917E1,7.535032034E-1
2.570447961E0,1.774275899E0,-1.449861526E1,2.665608525E-1
2.574418273E0,1.861989856E0,-1.482113266E1,-2.567541897E-1
2.578388586E0,2.088347197E0,-1.514173603E1,-7.591343522E-1
2.582358898E0,2.446902752E0,-1.540284729E1,-8.826559782E-1
2.586329211E0,2.753571272E0,-1.541746235E1,-5.948441625E-1
2.590299523E0,2.953850985E0,-1.528929615E1,1.118475273E-1
2.594271398E0,3.023608685E0,-1.493864059E1,1.044369936E0
2.598241711E0,2.441185474E0,-1.408472443E1,1.992234349E0
2.602212023E0,1.545821190E0,-1.285538864E1,2.799128056E0
2.606182336E0,7.481880784E-1,-1.164955330E1,3.258431911E0
2.610152648E0,1.388062388E-1,-1.057182693E1,3.376954317E0
2.614124523E0,-9.957005829E-2,-1.006398869E1,3.136174202E0
2.618094836E0,1.450120062E-1,-1.017348003E1,2.328179121E0
2.622068273E0,6.428335309E-1,-1.043698597E1,1.348644257E0
2.626035461E0,1.123962760E0,-1.046877193E1,8.208185434E-1
2.630005773E0,1.343415260E0,-9.868956566E0,1.025398374E0
2.633994836E0,9.308559895E-1,-9.372016907E0,1.115008473E0
2.637947961E0,5.347593427E-1,-9.191072464E0,7.561559677E-1
2.641916711E0,1.866040826E-1,-9.716915131E0,-2.653541565E-1
2.645887023E0,7.703583688E-2,-1.016578007E1,-4.777868986E-1
2.649858898E0,2.661873400E-1,-1.052483368E1,8.583787680E-1
2.653829211E0,7.530242801E-1,-1.069951439E1,2.758819580E0
2.657799523E0,1.090032101E0,-1.023501110E1,4.173476696E0
2.661769836E0,7.506684065E-1,-9.576242447E0,4.322041512E0
2.665740148E0,3.310702145E-1,-9.199126244E0,3.205232620E0
2.669710461E0,-2.207453847E-1,-8.890896797E0,1.714459062E0
2.673680773E0,-3.537576497E-1,-9.063250542E0,-5.356308073E-2
2.677652648E0,-7.072471827E-2,-9.303370476E0,-8.250802159E-1
2.681622961E0,5.157589316E-1,-9.542023659E0,-3.962403834E-1
2.685593273E0,9.178028703E-1,-9.613524437E0,7.163739204E-1
2.689563586E0,7.835647464E-1,-9.448918343E0,1.760475755E0
2.693533898E0,2.274204195E-1,-9.195592880E0,1.912296772E0
2.697504211E0,4.202302918E-2,-9.084529877E0,1.634492755E0
2.701474523E0,3.047818840E-1,-9.133342743E0,1.404544115E0
2.705446398E0,5.923159122E-1,-9.226324081E0,1.477097869E0
2.709416711E0,3.244430423E-1,-8.893377304E0,2.194036961E0
2.713387023E0,5.978321433E-1,-9.019388199E0,2.392621517E0
2.717357336E0,7.915614247E-1,-9.147986412E0,2.423851490E0
2.721327648E0,8.967530727E-1,-9.252392769E0,2.395542383E0
2.725297961E0,9.625073671E-1,-9.385710716E0,2.238980770E0
2.729268273E0,9.421279430E-1,-9.535550117E0,2.004713058E0
2.733240148E0,8.249844313E-1,-9.767087936E0,1.566497445E0
2.737210461E0,7.591917515E-1,-1.001438046E1,1.224471331E0
2.741180773E0,6.678290367E-1,-1.021746635E1,9.032269120E-1
2.745160461E0,5.779219866E-1,-1.014065075E1,6.661722660E-1
2.749121398E0,5.248377919E-1,-9.862971306E0,7.782304883E-1
2.753097961E0,5.371726751E-1,-9.594418526E0,1.195444107E0
2.757062023E0,5.698487759E-1,-9.402949333E0,1.556585431E0
2.761032336E0,5.762556195E-1,-9.322015762E0,1.812199950E0
2.765004211E0,6.244844198E-1,-9.353695869E0,1.866567492E0
2.768974523E0,6.673789024E-1,-9.433020592E0,1.689473271E0
2.772944836E0,5.961371064E-1,-9.365369797E0,1.498032808E0
2.776915148E0,5.608082414E-1,-9.349941254E0,1.379558206E0
2.780885461E0,5.653667450E-1,-9.476853371E0,1.316006422E0
2.784855773E0,5.423440933E-1,-9.588710785E0,1.298040390E0
2.788827648E0,5.658934712E-1,-9.825813293E0,1.262050748E0
2.792797961E0,5.993356705E-1,-9.990879059E0,1.189372301E0
2.796766711E0,6.043539643E-1,-9.996893883E0,1.250462770E0
2.800738586E0,5.281225443E-1,-9.757281303E0,1.474809051E0
2.804708898E0,5.312159061E-1,-9.670947075E0,1.502792478E0
2.808679211E0,5.261593461E-1,-9.723993301E0,1.378332376E0
2.812649523E0,4.337239861E-1,-9.598354340E0,1.062403083E0
2.816619836E0,2.240110934E-1,-8.974444389E0,1.329538465E0
2.820590148E0,-2.581428289E-1,-8.211087227E0,1.988116384E0
2.824580773E0,-3.799598217E-1,-8.611665726E0,2.314733505E0
2.828532336E0,-7.403637767E-1,-8.341724396E0,2.126558542E0
2.832502648E0,-2.220765591E0,-6.707662582E0,3.588496685E0
2.836472961E0,2.541109920E-1,-8.144844055E0,1.761845112E0
2.840443273E0,9.392932057E-1,-9.348859787E0,-1.336443275E-1
2.844415148E0,1.555072308E0,-1.111598110E1,-1.010582924E0
2.848385461E0,1.519006133E0,-1.084742832E1,-1.291566491E0
2.852355773E0,1.035549641E0,-1.055777836E1,-8.668925613E-2
2.856326086E0,7.525646091E-1,-1.013801765E1,1.723442197E0
2.860296398E0,6.769940853E-1,-9.939518929E0,2.079728127E0
2.864266711E0,5.179712176E-1,-9.519173622E0,2.857661724E0
2.868237023E0,2.931652367E-1,-8.976474762E0,2.978770018E0
2.872207336E0,1.051629186E-1,-9.085938454E0,2.132850647E0
2.876177648E0,2.707746327E-1,-9.520514488E0,1.751588345E0
2.880149523E0,4.677982926E-1,-9.908078194E0,1.605005741E0
2.884119836E0,6.656646729E-1,-9.918679237E0,1.675510287E0
2.888090148E0,7.043071389E-1,-9.685273170E0,1.677530885E0
2.892060461E0,6.377674341E-1,-9.391494751E0,1.567234874E0
2.896030773E0,5.221945047E-1,-9.038015366E0,1.482307792E0
2.900001086E0,4.285716712E-1,-8.897830009E0,1.489892602E0
2.903971398E0,3.271436989E-1,-8.803038597E0,1.592019677E0
2.907943273E0,2.586216629E-1,-8.842217445E0,1.702037930E0
2.911913586E0,2.274683118E-1,-8.918985367E0,1.764057398E0
2.915883898E0,1.964490414E-1,-9.324726105E0,1.782799244E0
2.919854211E0,2.613031566E-1,-9.566587448E0,1.740239859E0
2.923824523E0,3.060460091E-1,-9.711504936E0,1.650916934E0
2.927794836E0,3.138319850E-1,-9.719769478E0,1.573124647E0
2.931765148E0,3.241365850E-1,-9.775486946E0,1.452897310E0
2.935735461E0,3.683814406E-1,-9.908959389E0,1.249495625E0
2.939707336E0,3.994964957E-1,-9.995494843E0,1.113667727E0
2.943677648E0,3.724228442E-1,-9.819339752E0,9.970030785E-1
2.947647961E0,2.297475934E-1,-9.469622612E0,8.901258707E-1
2.951618273E0,4.441722855E-2,-9.128008842E0,9.133687615E-1
2.955588586E0,-1.354543567E-1,-8.971055031E0,1.026308060E0
2.959558898E0,-2.466410846E-1,-8.904409409E0,1.129172564E0
2.963530773E0,-2.998594046E-1,-8.788606644E0,1.241872430E0
2.967501086E0,-3.212635517E-1,-8.637887001E0,1.326387644E0
2.971471398E0,-3.009511530E-1,-8.520045280E0,1.413977146E0
2.975441711E0,-4.233714640E-1,-8.177194595E0,1.547439575E0
2.979412023E0,-4.325460494E-1,-7.862433910E0,1.680078387E0
2.983382336E0,-4.209198058E-1,-7.623463631E0,1.909375906E0
2.987354211E0,-4.049073756E-1,-7.468137741E0,2.143107414E0
2.991333898E0,-4.266276062E-1,-7.468530178E0,2.188396215E0
2.995293273E0,-3.998412490E-1,-7.580463886E0,2.119184494E0
2.999265148E0,-4.712650776E-1,-7.767546654E0,1.946869016E0
3.003235461E0,-5.744742751E-1,-7.954438686E0,1.687854767E0
3.007205773E0,-7.478719950E-1,-8.161651611E0,1.358680844E0
3.011176086E0,-7.470005155E-1,-8.382368088E0,1.049924493E0
3.015146398E0,-6.027546525E-1,-8.550844193E0,8.206461668E-1
3.019116711E0,-5.097255707E-1,-8.710000038E0,7.164409161E-1
3.023088586E0,-5.136041045E-1,-8.747187614E0,6.736134887E-1
3.027057336E0,-5.460886955E-1,-8.733654976E0,6.789764166E-1
3.031029211E0,-4.106343091E-1,-8.767585754E0,7.426239252E-1
3.034999523E0,-4.621671140E-1,-8.743031502E0,9.352517724E-1
3.038969836E0,-6.409661174E-1,-8.584659576E0,1.296038866E0
3.042940148E0,-8.632820845E-1,-8.296790123E0,1.567838192E0
3.046910461E0,-1.109817863E0,-8.186637878E0,1.813186407E0
3.050882336E0,-1.022735953E0,-8.382061958E0,1.836563349E0
3.054852648E0,-9.371001124E-1,-8.679584503E0,1.680471063E0
3.058822961E0,-9.186648130E-1,-8.922739029E0,1.544413328E0
3.062793273E0,-1.029200315E0,-8.937544823E0,1.450177431E0
3.066763586E0,-1.078674078E0,-8.866130829E0,1.463623405E0
3.070733898E0,-1.082696319E0,-8.681432724E0,1.714823008E0
3.074704211E0,-1.016166210E0,-8.573760986E0,1.907604098E0
3.078674523E0,-9.202449322E-1,-8.490567207E0,2.052549124E0
3.082646398E0,-8.278000355E-1,-8.621472359E0,2.125438213E0
3.086616711E0,-8.658007979E-1,-8.463387489E0,1.806913614E0
3.090587023E0,-1.130599499E0,-8.390719414E0,1.092589140E0
3.094557336E0,-1.525891781E0,-8.264957428E0,7.052743435E-1
3.098527648E0,-1.783603668E0,-8.539877892E0,5.438094139E-1
3.102499523E0,-1.363066912E0,-9.023496628E0,1.361515522E0
3.106468273E0,-8.983715177E-1,-9.323662758E0,1.760351181E0
3.110449523E0,-1.968991607E-1,-9.917769432E0,1.801014304E0
3.114410461E0,5.247324109E-1,-1.069457340E1,1.891266108E0
3.118380773E0,1.141880989E0,-1.167784405E1,1.989600658E0
3.122351086E0,1.346575737E0,-1.251044178E1,2.182420254E0
3.126321398E0,1.411870360E0,-1.312120247E1,2.546214342E0
3.130291711E0,1.314541221E0,-1.354800224E1,2.738277197E0
3.134262023E0,1.076327801E0,-1.352064133E1,2.682932854E0
3.138233898E0,7.976713777E-1,-1.314005852E1,2.594443083E0
3.142202648E0,4.333888292E-1,-1.257017231E1,2.400886297E0
3.146174523E0,9.939767420E-2,-1.196865273E1,2.265115976E0
3.150144836E0,-2.487192601E-1,-1.138825989E1,2.110402584E0
3.154115148E0,-5.245121717E-1,-1.092766285E1,1.963130474E0
3.158085461E0,-7.801171541E-1,-1.059890175E1,1.932819843E0
3.162057336E0,-9.392166138E-1,-1.050261593E1,1.753800631E0
3.166027648E0,-9.970414042E-1,-1.049019432E1,1.672819138E0
3.169996398E0,-1.179268837E0,-1.061486530E1,1.498281837E0
3.173968273E0,-1.489672184E0,-1.072440529E1,1.186853647E0
3.177938586E0,-7.729344964E-1,-1.151546860E1,1.741571069E0
3.181908898E0,-4.642261267E-1,-1.236366653E1,1.812037230E0
3.185879211E0,-6.753564477E-1,-1.280000591E1,1.318831682E0
3.189849523E0,-1.207242727E0,-1.288220310E1,5.920573473E-1
3.193821398E0,-1.530402422E0,-1.265555859E1,2.082763910E-1
3.197791711E0,-1.539146066E0,-1.230784416E1,-1.524053067E-1
3.201762023E0,-1.270277262E0,-1.182744217E1,-5.002444983E-1
3.205732336E0,-1.174260139E0,-1.128353691E1,-8.108586669E-1
3.209702648E0,-1.445724368E0,-1.076284695E1,-1.024105430E0
3.213672961E0,-1.629771352E0,-1.048171043E1,-8.225902915E-1
3.217644836E0,-1.637020946E0,-1.037751389E1,-3.939227760E-1
3.221613586E0,-1.468421340E0,-1.050556564E1,3.429550231E-1
3.225583898E0,-1.321752548E0,-1.071537399E1,8.971744180E-1
3.229555773E0,-1.240139008E0,-1.104422283E1,1.194380999E0
3.233526086E0,-1.209225059E0,-1.114931870E1,1.443761110E0
3.237496398E0,-1.229441762E0,-1.116361618E1,1.588686943E0
3.241466711E0,-1.371197581E0,-1.099918270E1,1.391213179E0
3.245437023E0,-1.553712368E0,-1.066213703E1,1.226606965E0
3.249407336E0,-1.690469265E0,-1.013350677E1,1.253000617E0
3.253379211E0,-1.772561669E0,-9.610526085E0,1.406411529E0
3.257349523E0,-1.873865128E0,-9.288679123E0,1.454123139E0
3.261319836E0,-2.042416811E0,-9.004631042E0,1.470623970E0
3.265290148E0,-2.153258801E0,-8.841126442E0,1.428562760E0
3.269260461E0,-2.280390978E0,-8.644466400E0,1.331022978E0
3.273230773E0,-2.237362385E0,-8.495528221E0,1.213936925E0
3.277202648E0,-2.116177559E0,-8.418482780E0,1.212366343E0
3.281172961E0,-1.966396093E0,-8.447452545E0,1.360787630E0
3.285141711E0,-1.841447473E0,-8.590817451E0,1.456929207E0
3.289113586E0,-1.798294425E0,-8.758736610E0,1.581992626E0
3.293083898E0,-1.785863757E0,-8.878293991E0,1.586493731E0
3.297054211E0,-1.730797172E0,-8.931157112E0,1.610981703E0
3.301024523E0,-1.677090406E0,-8.996155739E0,1.595122576E0
3.304994836E0,-1.585775495E0,-9.071534157E0,1.509697437E0
3.308966711E0,-1.513422728E0,-9.118700027E0,1.469963312E0
3.312937023E0,-1.447812080E0,-9.162600517E0,1.321158767E0
3.316907336E0,-1.410232663E0,-9.136905670E0,1.242715240E0
3.320877648E0,-1.329394937E0,-9.097248077E0,1.359446883E0
3.324849523E0,-1.228761673E0,-9.066534996E0,1.498032808E0
3.328818273E0,-1.149532795E0,-9.092163086E0,1.535238743E0
3.332788586E0,-1.079516888E0,-9.226726532E0,1.390705585E0
3.336760461E0,-1.065046310E0,-9.374391556E0,1.187246323E0
3.340730773E0,-1.044245481E0,-9.495844841E0,1.112920761E0
3.344701086E0,-1.040491343E0,-9.489208221E0,1.351996064E0
3.348676086E0,-1.065687895E0,-9.401177406E0,1.662418723E0
3.352641711E0,-1.062996864E0,-9.368300438E0,1.907671094E0
3.356612023E0,-9.866217375E-1,-9.427495003E0,2.020955086E0
3.360582336E0,-9.371575713E-1,-9.429228783E0,1.998995662E0
3.364552648E0,-9.562058449E-1,-9.329887390E0,1.911999822E0
3.368524523E0,-9.556503892E-1,-9.364995956E0,1.847385168E0
3.372494836E0,-8.724374771E-1,-9.576950073E0,1.743218303E0
3.376465148E0,-7.067396045E-1,-9.820508003E0,1.552007675E0
3.380435461E0,-5.180478096E-1,-9.980478287E0,1.419177413E0
3.384405773E0,-4.010383487E-1,-1.010627937E1,1.310518980E0
3.388376086E0,-4.127220809E-1,-1.024476051E1,1.226223826E0
3.392346398E0,-4.505983293E-1,-1.046962357E1,1.142704606E0
3.396318273E0,-3.841161430E-1,-1.067009449E1,1.119749069E0
3.400287023E0,-3.748075068E-1,-1.080063629E1,9.823313355E-1
3.404258898E0,-4.425154924E-1,-1.098929024E1,8.824070096E-1
3.408229211E0,-5.275671482E-1,-1.107609367E1,9.260389209E-1
3.412199523E0,-6.283630133E-1,-1.120324516E1,1.042569399E0
3.416169836E0,-7.160961032E-1,-1.119972134E1,1.207175612E0
3.420140148E0,-8.013967872E-1,-1.116268730E1,1.366840243E0
3.424110461E0,-8.255015612E-1,-1.122949505E1,1.482164025E0
3.428082336E0,-9.106585979E-1,-1.118591118E1,1.628018856E0
3.432052648E0,-1.025302529E0,-1.102816200E1,1.804280043E0
3.436022961E0,-1.183463454E0,-1.109865761E1,1.758244276E0
3.439993273E0,-1.281367183E0,-1.035608101E1,1.795680046E0
3.443963586E0,-1.157357097E0,-9.704637527E0,1.692777276E0
3.447933898E0,-1.031508327E0,-9.487607956E0,1.865159750E0
3.451905773E0,-1.058122158E0,-9.375501633E0,2.046352863E0
3.455876086E0,-1.106312752E0,-9.209900856E0,2.365940332E0
3.459846398E0,-1.125226974E0,-9.143236160E0,2.270660877E0
3.463816711E0,-1.051562190E0,-9.010749817E0,2.204216957E0
3.467787023E0,-9.922624826E-1,-9.041271210E0,1.903189182E0
3.471757336E0,-9.267092943E-1,-8.857847214E0,1.874525905E0
3.475727648E0,-8.664137125E-1,-8.725390434E0,1.900354505E0
3.479697961E0,-7.438880801E-1,-8.392347336E0,1.900067091E0
3.483668273E0,-5.438285470E-1,-8.259315491E0,1.688419819E0
3.487640148E0,-4.161697030E-1,-8.040266037E0,1.469331145E0
3.491610461E0,-3.701627553E-1,-7.759655952E0,1.302694678E0
3.495580773E0,-4.250378311E-1,-7.477580547E0,1.195635676E0
3.499551086E0,-3.027898967E-1,-7.462966442E0,1.047338724E0
3.503521398E0,-2.356373221E-1,-7.492166042E0,1.067766070E0
3.507491711E0,-2.754672766E-1,-7.101901531E0,1.817754507E0
3.511463586E0,-3.776134923E-2,-6.601982594E0,4.828089714E0
3.515437023E0,-5.296453238E-1,-8.864138603E0,4.566278934E0
3.519404211E0,-8.508035541E-1,-1.013539314E1,2.231204271E0
3.523374523E0,-1.030809164E0,-1.065600777E1,3.430603743E-1
3.527344836E0,-9.289215207E-1,-1.095538807E1,-1.178090930E0
3.531315148E0,-6.260741353E-1,-1.099265099E1,-1.576735139E0
3.535285461E0,-1.969087273E-1,-1.076482868E1,-3.758896887E-1
3.539255773E0,-4.024174064E-2,-1.031819534E1,1.264780164E0
3.543227648E0,-1.784637868E-1,-9.987585068E0,2.062461138E0
3.547197961E0,-3.982610703E-1,-9.680121422E0,2.362311125E0
3.551168273E0,-5.426410437E-1,-9.536929131E0,2.220392227E0
3.555138586E0,-6.037697792E-1,-9.482657433E0,1.857555747E0
3.559108898E0,-6.003413200E-1,-9.532007217E0,1.431014419E0
3.563079211E0,-5.361479521E-1,-9.602281570E0,1.102051020E0
3.567049523E0,-4.873062372E-1,-9.648336411E0,9.406052232E-1
3.571021398E0,-4.814356565E-1,-9.684727669E0,8.473845720E-1
3.574991711E0,-4.759385586E-1,-9.704791069E0,7.974798679E-1
3.578962023E0,-4.856781960E-1,-9.610804558E0,8.922040462E-1
3.582932336E0,-4.687080681E-1,-9.548325539E0,1.005162477E0
3.586902648E0,-4.764174223E-1,-9.501791954E0,1.143126011E0
3.590872961E0,-4.927075505E-1,-9.547616005E0,1.270286918E0
3.594843273E0,-5.997092128E-1,-9.400306702E0,1.344162345E0
3.598813586E0,-3.621565104E-1,-9.286907196E0,1.649288893E0
3.602785461E0,-2.693572640E-1,-9.205168724E0,1.825981021E0
3.606755773E0,-2.407609224E-1,-9.176447868E0,1.987043738E0
3.610726086E0,-2.905507386E-1,-9.203656197E0,2.016798973E0
3.614696398E0,-3.330238760E-1,-9.228661537E0,1.977898002E0
3.618666711E0,-3.168486655E-1,-9.263827324E0,1.870474815E0
3.622637023E0,-2.995529473E-1,-9.277646065E0,1.733574510E0
3.626608898E0,-2.770474553E-1,-9.285873413E0,1.667561531E0
3.630579211E0,-2.539577782E-1,-9.274907112E0,1.661547184E0
3.634547961E0,-2.122986615E-1,-9.269640923E0,1.687931418E0
3.638519836E0,-1.881746799E-1,-9.267351151E0,1.706328392E0
3.642490148E0,-1.574905813E-1,-9.287184715E0,1.760600209E0
3.646460461E0,-1.277450323E-1,-9.308387756E0,1.834169149E0
3.650432336E0,-9.840168804E-2,-9.331104279E0,1.863924265E0
3.654401086E0,-6.455725431E-2,-9.390901566E0,1.844847322E0
3.658372961E0,-3.810611367E-2,-9.445020676E0,1.817122459E0
3.662343273E0,-2.156696841E-2,-9.501158714E0,1.811625361E0
3.666313586E0,7.977480069E-3,-9.580311775E0,1.826450348E0
3.670283898E0,1.689348742E-2,-9.611388206E0,1.819622040E0
3.674254211E0,7.058106363E-3,-9.640703201E0,1.813157678E0
3.678224523E0,-1.039083581E-2,-9.660402298E0,1.780864596E0
3.682196398E0,-4.125688598E-2,-9.667796135E0,1.749835849E0
3.686166711E0,-7.863516361E-2,-9.652521133E0,1.730902433E0
3.690137023E0,-1.258392483E-1,-9.616933823E0,1.651156425E0
3.694107336E0,-2.065046877E-1,-9.579114914E0,1.627980590E0
3.698077648E0,-2.730347514E-1,-9.541343689E0,1.600236535E0
3.702047961E0,-3.274501562E-1,-9.509970665E0,1.593743443E0
3.706018273E0,-4.082114100E-1,-9.479764938E0,1.562829494E0
3.709988586E0,-4.244249165E-1,-9.432044029E0,1.520528793E0
3.713958898E0,-4.770782292E-1,-9.394818306E0,1.457503796E0
3.717930773E0,-5.342422128E-1,-9.364105225E0,1.387880325E0
3.721901086E0,-5.674449205E-1,-9.334187508E0,1.358268976E0
3.725871398E0,-5.871157050E-1,-9.336611748E0,1.352972865E0
3.729841711E0,-6.250973344E-1,-9.389801025E0,1.336002827E0
3.733812023E0,-6.852300763E-1,-9.429880142E0,1.321656704E0
3.737782336E0,-7.237480283E-1,-9.466567993E0,1.308373809E0
3.741752648E0,-7.259506583E-1,-9.528348923E0,1.335763454E0
3.745724523E0,-7.245237231E-1,-9.567623138E0,1.337726712E0
3.749694836E0,-7.007828355E-1,-9.644237518E0,1.351756692E0
3.753665148E0,-7.091434002E-1,-9.691297531E0,1.382201433E0
3.757635461E0,-6.980917454E-1,-9.718600273E0,1.380238175E0
3.761605773E0,-6.610390544E-1,-9.697905540E0,1.350961804E0
3.765577648E0,-6.425462365E-1,-9.678148270E0,1.360308886E0
3.769547961E0,-6.452277899E-1,-9.674356461E0,1.322489977E0
3.773516711E0,-6.293302774E-1,-9.679077148E0,1.304610133E0
3.777488586E0,-5.937524438E-1,-9.668208122E0,1.298614979E0
3.781458898E0,-5.676364899E-1,-9.651649475E0,1.250635266E0
3.785429211E0,-4.992485046E-1,-9.647837639E0,1.249380589E0
3.789399523E0,-4.698764384E-1,-9.639783859E0,1.235752821E0
3.793369836E0,-4.470357597E-1,-9.673944473E0,1.267595649E0
3.797340148E0,-4.238981903E-1,-9.694075584E0,1.278369665E0
3.801312023E0,-3.922947347E-1,-9.703469276E0,1.294573665E0
3.805282336E0,-3.990367949E-1,-9.697905540E0,1.345589280E0
3.809252648E0,-3.860793710E-1,-9.670985222E0,1.376177669E0
3.813222961E0,-3.970831335E-1,-9.617938995E0,1.422174931E0
3.817218273E0,-4.310616553E-1,-9.594973564E0,1.443349242E0
3.821169836E0,-5.116313100E-1,-9.536143303E0,1.490314007E0
3.825135461E0,-5.641409159E-1,-9.473329544E0,1.547066092E0
3.829105773E0,-6.163728833E-1,-9.418387413E0,1.569217324E0
3.833074523E0,-6.813802719E-1,-9.374726295E0,1.616268039E0
3.837046398E0,-7.066821456E-1,-9.354682922E0,1.656375766E0
3.841016711E0,-7.477379441E-1,-9.366222382E0,1.696282387E0
3.844987023E0,-7.565485835E-1,-9.340192795E0,1.697048426E0
3.848957336E0,-7.323480248E-1,-9.355850220E0,1.688113332E0
3.852927648E0,-6.874998212E-1,-9.366106987E0,1.670338750E0
3.856899523E0,-6.534255147E-1,-9.369411469E0,1.640009046E0
3.860869836E0,-6.045072079E-1,-9.381584167E0,1.608099103E0
3.864840148E0,-5.916455984E-1,-9.426680565E0,1.600772858E0
3.868810461E0,-5.789753795E-1,-9.494053841E0,1.595438600E0
3.872780773E0,-5.602049232E-1,-9.591344833E0,1.577089310E0
3.876751086E0,-5.200302005E-1,-9.656092644E0,1.547832251E0
3.880722961E0,-4.920563400E-1,-9.729164124E0,1.515395641E0
3.884693273E0,-4.602996409E-1,-9.779920578E0,1.456699371E0
3.888663586E0,-4.035283327E-1,-9.786959648E0,1.427815676E0
3.892633898E0,-3.722217381E-1,-9.835303307E0,1.397303939E0
3.896604211E0,-3.209283650E-1,-9.871456146E0,1.356976032E0
3.900574523E0,-2.823721766E-1,-9.897753716E0,1.319396734E0
3.904544836E0,-2.703532279E-1,-9.873946190E0,1.276961803E0
3.908515148E0,-2.807249427E-1,-9.870000839E0,1.245358348E0
3.912485461E0,-2.879649997E-1,-9.853787422E0,1.235350609E0
3.916457336E0,-3.141959012E-1,-9.822614670E0,1.235168695E0
3.920427648E0,-3.933865130E-1,-9.781998634E0,1.239947557E0
3.924397961E0,-4.657488465E-1,-9.700664520E0,1.272068143E0
3.928368273E0,-5.152800679E-1,-9.670238495E0,1.301497698E0
3.932338586E0,-5.655774474E-1,-9.603277206E0,1.364694953E0
3.936316711E0,-5.938099027E-1,-9.543987274E0,1.363411665E0
3.940280773E0,-6.230766177E-1,-9.506244659E0,1.386338472E0
3.944260461E0,-6.594206095E-1,-9.451982498E0,1.422912359E0
3.948221398E0,-6.854312420E-1,-9.427073479E0,1.446662784E0
3.952191711E0,-7.058393955E-1,-9.404873848E0,1.462253928E0
3.956162023E0,-7.212484479E-1,-9.404855728E0,1.451432109E0
3.960132336E0,-7.316488624E-1,-9.389177322E0,1.477059722E0
3.964102648E0,-7.670160532E-1,-9.398141861E0,1.489978790E0
3.968072961E0,-7.810939550E-1,-9.421950340E0,1.496471763E0
3.972043273E0,-8.085506558E-1,-9.464116096E0,1.506728649E0
3.976015148E0,-8.162887096E-1,-9.484179497E0,1.522740960E0
3.979985461E0,-8.487923741E-1,-9.508092880E0,1.515031695E0
3.983955773E0,-8.532839417E-1,-9.537130356E0,1.516774654E0
3.987926086E0,-8.584266305E-1,-9.569614410E0,1.533888459E0
3.991896398E0,-8.305006623E-1,-9.616493225E0,1.512934327E0
3.995866711E0,-8.341207504E-1,-9.664751053E0,1.483073831E0
3.999838586E0,-8.353561163E-1,-9.693586349E0,1.449650884E0
4.003807336E0,-8.060606718E-1,-9.717605591E0,1.415605187E0
4.007779211E0,-8.132815957E-1,-9.730744362E0,1.426063061E0
4.011749523E0,-8.056201339E-1,-9.778896332E0,1.418238878E0
4.015719836E0,-7.767843604E-1,-9.818362236E0,1.406775475E0
4.019690148E0,-7.581670284E-1,-9.821101189E0,1.381693840E0
4.023660461E0,-7.211239338E-1,-9.825612068E0,1.372806549E0
4.027632336E0,-7.202811837E-1,-9.854428291E0,1.350243568E0
4.031602648E0,-6.859771013E-1,-9.861304283E0,1.311055303E0
4.035582336E0,-6.750690937E-1,-9.868124008E0,1.270238876E0
4.039543273E0,-6.194374561E-1,-9.843070030E0,1.224049926E0
4.043513586E0,-5.583757162E-1,-9.799045563E0,1.154033899E0
4.047483898E0,-5.368949771E-1,-9.726243019E0,1.128808618E0
4.051454211E0,-5.320203304E-1,-9.664117813E0,1.116732359E0
4.055424523E0,-5.111429095E-1,-9.605010986E0,1.130972981E0
4.059396398E0,-4.764748514E-1,-9.562901497E0,1.126175046E0
4.063366711E0,-4.363863468E-1,-9.537054062E0,1.135234594E0
4.067337023E0,-4.202015400E-1,-9.527821541E0,1.160182238E0
4.071307336E0,-4.047445953E-1,-9.498391151E0,1.191670775E0
4.075277648E0,-3.912700117E-1,-9.449742317E0,1.225840807E0
4.079247961E0,-3.942771256E-1,-9.394990921E0,1.278111100E0
4.083219836E0,-3.992666602E-1,-9.358091354E0,1.311639428E0
4.087188586E0,-4.283035398E-1,-9.310072899E0,1.341883063E0
4.091160461E0,-4.447756410E-1,-9.286189079E0,1.352733493E0
4.095130773E0,-4.412992597E-1,-9.306597710E0,1.336816907E0
4.099101086E0,-4.553197026E-1,-9.345603943E0,1.330093980E0
4.103071398E0,-4.404756427E-1,-9.407316208E0,1.351297021E0
4.107041711E0,-4.421803355E-1,-9.465036392E0,1.389364839E0
4.111012023E0,-4.294814765E-1,-9.526518822E0,1.430784583E0
4.114983898E0,-4.238694906E-1,-9.575331688E0,1.495418310E0
4.118954211E0,-3.885789514E-1,-9.593317032E0,1.533313870E0
4.122924523E0,-3.854760528E-1,-9.667211533E0,1.543206692E0
4.126894836E0,-3.482701480E-1,-9.716791153E0,1.521764159E0
4.130865148E0,-3.064961135E-1,-9.762242317E0,1.475671053E0
4.134835461E0,-2.518029809E-1,-9.810030937E0,1.417396069E0
4.138807336E0,-1.968416870E-1,-9.823841095E0,1.328264713E0
4.142777648E0,-1.479808241E-1,-9.854754448E0,1.253536940E0
4.146746398E0,-1.058141440E-1,-9.846412659E0,1.156188726E0
4.150718273E0,-5.808333308E-2,-9.825383186E0,1.097090244E0
4.154688586E0,-1.382890902E-2,-9.785867691E0,1.034831405E0
4.158658898E0,-8.810662664E-3,-9.749926567E0,9.658784270E-1
4.162629211E0,2.183512086E-3,-9.743988991E0,9.559568763E-1
4.166599523E0,5.498044938E-2,-9.711868286E0,9.079004526E-1
4.170569836E0,8.024406433E-2,-9.647694588E0,8.517994881E-1
4.174541711E0,4.388092831E-2,-9.627449036E0,8.278766274E-1
4.178512023E0,1.507389359E-2,-9.571903229E0,8.198320866E-1
4.182485461E0,9.701305069E-3,-9.519709587E0,8.111268282E-1
4.186452648E0,-2.227565274E-2,-9.470676422E0,8.189222813E-1
4.190422961E0,-5.385996401E-2,-9.430482864E0,8.642588854E-1
4.194393273E0,-9.339302033E-2,-9.413828850E0,9.079483151E-1
4.198365148E0,-1.245080680E-1,-9.409729958E0,9.598833323E-1
4.202335461E0,-1.728230566E-1,-9.409997940E0,1.000086784E0
4.206305773E0,-2.321226448E-1,-9.430357933E0,1.029813290E0
4.210276086E0,-2.545706928E-1,-9.466702461E0,1.054818273E0
4.214246398E0,-2.757258415E-1,-9.490318298E0,1.088164687E0
4.218216711E0,-2.799971104E-1,-9.532380104E0,1.130398393E0
4.222187023E0,-2.723164856E-1,-9.550576210E0,1.167997003E0
4.226157336E0,-2.736859620E-1,-9.597176552E0,1.222517729E0
4.230127648E0,-2.886641324E-1,-9.679059029E0,1.287659168E0
4.234099523E0,-2.955306768E-1,-9.737821579E0,1.329691768E0
4.238069836E0,-2.865763605E-1,-9.787065506E0,1.369828105E0
4.242040148E0,-2.582769096E-1,-9.833159447E0,1.372011542E0
4.246010461E0,-2.268075049E-1,-9.827911377E0,1.341518998E0
4.249980773E0,-2.014577091E-1,-9.846470833E0,1.308996201E0
4.253951086E0,-1.723537892E-1,-9.881933212E0,1.267758489E0
4.257922961E0,-1.343721747E-1,-9.903949738E0,1.199246049E0
4.261891711E0,-1.139256954E-1,-9.876311302E0,1.116080999E0
4.265863586E0,-1.280035973E-1,-9.868842125E0,1.094293833E0
4.269833898E0,-1.262031645E-1,-9.812338829E0,1.057930708E0
4.273804211E0,-1.531044096E-1,-9.780544281E0,1.073004603E0
4.277774523E0,-1.339795291E-1,-9.722565651E0,1.094724774E0
4.281744836E0,-1.371494383E-1,-9.675237656E0,1.112010837E0
4.285715148E0,-1.146343797E-1,-9.639190674E0,1.123244524E0
4.289687023E0,-1.253795475E-1,-9.607778549E0,1.115525603E0
4.293657336E0,-1.198537350E-1,-9.605336189E0,1.130570769E0
4.297627648E0,-1.373409927E-1,-9.581528664E0,1.135866642E0
4.301597961E0,-1.678048074E-1,-9.582677841E0,1.199638724E0
4.305568273E0,-2.010554820E-1,-9.559950829E0,1.237505317E0
4.309546398E0,-2.447736114E-1,-9.546257019E0,1.278532505E0
4.313510461E0,-2.675472498E-1,-9.542885780E0,1.311218143E0
4.317480773E0,-3.368067443E-1,-9.554148674E0,1.326885700E0
4.321451086E0,-3.613807857E-1,-9.556542397E0,1.362204909E0
4.325421398E0,-3.646848202E-1,-9.567727089E0,1.361879349E0
4.329391711E0,-3.945740163E-1,-9.543919563E0,1.353547573E0
4.333362023E0,-3.990942836E-1,-9.545624733E0,1.356746197E0
4.337332336E0,-4.152407646E-1,-9.547003746E0,1.361065269E0
4.341302648E0,-3.935397267E-1,-9.552807808E0,1.321762085E0
4.345274523E0,-3.342592716E-1,-9.538221359E0,1.315259576E0
4.349244836E0,-3.505111337E-1,-9.579880714E0,1.317500472E0
4.353215148E0,-3.266457319E-1,-9.645472527E0,1.293529630E0
4.357185461E0,-2.922266722E-1,-9.673513412E0,1.268381000E0
4.361155773E0,-2.573671043E-1,-9.661858559E0,1.225917459E0
4.365126086E0,-2.395925671E-1,-9.638941765E0,1.187648535E0
4.369096398E0,-2.439978719E-1,-9.634363174E0,1.173063159E0
4.373068273E0,-2.204293609E-1,-9.666293144E0,1.158678770E0
4.377038586E0,-2.007394433E-1,-9.643020630E0,1.145395637E0
4.381008898E0,-1.905497313E-1,-9.665047646E0,1.132514834E0
4.384979211E0,-1.488044262E-1,-9.658056259E0,1.083998799E0
4.388949523E0,-1.333187222E-1,-9.630589485E0,1.062067866E0
4.392919836E0,-1.072410792E-1,-9.611944199E0,1.076931000E0
4.396890148E0,-9.795157611E-2,-9.610010147E0,1.073761106E0
4.400860461E0,-7.189308852E-2,-9.615123749E0,1.098823667E0
4.404832336E0,-6.146394834E-2,-9.622852325E0,1.118753076E0
4.408802648E0,-5.778645352E-2,-9.635924339E0,1.121290922E0
4.412772961E0,-7.083006203E-2,-9.649580956E0,1.166694403E0
4.416743273E0,-7.091625035E-2,-9.664626122E0,1.196727276E0
4.420713586E0,-8.687121421E-2,-9.677621841E0,1.235388875E0
4.424683898E0,-1.142225713E-1,-9.667977333E0,1.230552554E0
4.428655773E0,-1.546271145E-1,-9.675591469E0,1.271685004E0
4.432635461E0,-1.658702940E-1,-9.681289673E0,1.307914019E0
4.436596398E0,-1.472529769E-1,-9.678417206E0,1.319454074E0
4.440566711E0,-1.525393873E-1,-9.641584396E0,1.320842743E0
4.444537023E0,-1.558529437E-1,-9.593901634E0,1.292916775E0
4.448507336E0,-1.711662710E-1,-9.572957039E0,1.293328643E0
4.452479211E0,-1.771613508E-1,-9.542205811E0,1.275036812E0
4.456447961E0,-1.729475558E-1,-9.509194374E0,1.260202408E0
4.460419836E0,-1.734551191E-1,-9.504328728E0,1.245770097E0
4.464390148E0,-1.608999372E-1,-9.487819672E0,1.231682777E0
4.468360461E0,-1.711758375E-1,-9.490069389E0,1.225352407E0
4.472330773E0,-1.448683590E-1,-9.504166603E0,1.222575188E0
4.476301086E0,-1.376665980E-1,-9.495039940E0,1.217193007E0
4.480271398E0,-1.146056429E-1,-9.514241219E0,1.223896742E0
4.484241711E0,-9.888052940E-2,-9.527295113E0,1.238577962E0
4.488213586E0,-6.604165584E-2,-9.537446022E0,1.238328934E0
4.492183898E0,-6.495948136E-2,-9.553592682E0,1.243050456E0
4.496154211E0,-5.403234437E-2,-9.575591087E0,1.242696047E0
4.500124523E0,-6.065949425E-2,-9.597971916E0,1.250213861E0
4.504094836E0,-5.578489974E-2,-9.627075195E0,1.243854880E0
4.508065148E0,-6.114790961E-2,-9.667068481E0,1.256189704E0
4.512037023E0,-5.691496283E-2,-9.660757065E0,1.252157927E0
4.516005773E0,-8.233180642E-2,-9.665689468E0,1.256093979E0
4.519977648E0,-1.011215076E-1,-9.664261818E0,1.243193984E0
4.523947961E0,-1.238759980E-1,-9.674346924E0,1.245913863E0
4.527918273E0,-1.361821890E-1,-9.696861267E0,1.252014279E0
4.531888586E0,-1.530373693E-1,-9.699887276E0,1.261629343E0
4.535860461E0,-1.402523369E-1,-9.710393906E0,1.293596745E0
4.539829211E0,-1.440351754E-1,-9.712711334E0,1.294937491E0
4.543801086E0,-1.505474150E-1,-9.705557823E0,1.277881265E0
4.547771398E0,-1.644146144E-1,-9.708420753E0,1.274634600E0
4.551741711E0,-1.474157870E-1,-9.691192627E0,1.259397984E0
4.555712023E0,-1.520892680E-1,-9.684268951E0,1.252569675E0
4.559682336E0,-1.434126943E-1,-9.680552483E0,1.234000206E0
4.563652648E0,-1.550485045E-1,-9.688328743E0,1.195673943E0
4.567622961E0,-1.343530267E-1,-9.713142395E0,1.178493142E0
4.571594836E0,-8.575072140E-2,-9.710221291E0,1.141775608E0
4.575565148E0,-6.857950985E-2,-9.712413788E0,1.126424074E0
4.579535461E0,-7.316680253E-2,-9.698634148E0,1.102271318E0
4.583505773E0,-6.268977374E-2,-9.667461395E0,1.119021177E0
4.587476086E0,-7.012137771E-2,-9.651132584E0,1.126404881E0
4.591446398E0,-9.731951356E-2,-9.627371788E0,1.148488998E0
4.595416711E0,-1.124412939E-1,-9.585962296E0,1.158180714E0
4.599387023E0,-1.319205165E-1,-9.579238892E0,1.196411371E0
4.603358898E0,-1.447055489E-1,-9.560765266E0,1.225601435E0
4.607329211E0,-1.900325716E-1,-9.560947418E0,1.253115654E0
4.611299523E0,-1.992454678E-1,-9.566176414E0,1.265804768E0
4.615269836E0,-2.050873041E-1,-9.555364609E0,1.271148682E0
4.619240148E0,-2.125380635E-1,-9.580303192E0,1.286921740E0
4.623210461E0,-2.081423253E-1,-9.602998734E0,1.301756263E0
4.627180773E0,-2.061790824E-1,-9.640492439E0,1.310518980E0
4.631152648E0,-2.114080042E-1,-9.641162872E0,1.317174792E0
4.635121398E0,-2.022717446E-1,-9.640070915E0,1.319923282E0
4.639093273E0,-1.887588650E-1,-9.637887955E0,1.315412760E0
4.643063586E0,-1.929247677E-1,-9.636058807E0,1.310174227E0
4.647033898E0,-1.840853691E-1,-9.647943497E0,1.300492048E0
4.651004211E0,-1.717121452E-1,-9.651123047E0,1.292303801E0
4.654974523E0,-1.633899063E-1,-9.659952164E0,1.284460425E0
4.658944836E0,-1.540333629E-1,-9.660939217E0,1.288166761E0
4.662916711E0,-1.445427388E-1,-9.666263580E0,1.289852142E0
4.666887023E0,-1.640698612E-1,-9.675927162E0,1.295981288E0
4.670857336E0,-1.609669626E-1,-9.669137001E0,1.299419403E0
4.674827648E0,-1.611489207E-1,-9.638347626E0,1.307732224E0
4.678797961E0,-1.864317060E-1,-9.646104813E0,1.301784873E0
4.682768273E0,-1.710609347E-1,-9.620256424E0,1.305797577E0
4.686738586E0,-1.864125580E-1,-9.605336189E0,1.313966632E0
4.690710461E0,-1.873414963E-1,-9.606542587E0,1.309867740E0
4.694680773E0,-2.066291869E-1,-9.586585045E0,1.319281697E0
4.698651086E0,-2.074527889E-1,-9.598603249E0,1.326732516E0
4.702621398E0,-2.037369907E-1,-9.593624115E0,1.324319124E0
4.706591711E0,-2.095118016E-1,-9.595252037E0,1.334010839E0
4.710562023E0,-2.040338814E-1,-9.605929375E0,1.344238877E0
4.714533898E0,-2.083913088E-1,-9.601256371E0,1.337764978E0
4.718504211E0,-2.137447447E-1,-9.612020493E0,1.322106957E0
4.722474523E0,-2.031432241E-1,-9.595846176E0,1.320679903E0
4.726444836E0,-2.109387517E-1,-9.599493980E0,1.318783760E0
4.730415148E0,-1.933940500E-1,-9.617010117E0,1.306314707E0
4.734385461E0,-1.636676341E-1,-9.629899979E0,1.288683891E0
4.738355773E0,-1.575480551E-1,-9.626108170E0,1.271550894E0
4.742326086E0,-1.365557015E-1,-9.640090942E0,1.255203366E0
4.746297961E0,-1.135617718E-1,-9.634985924E0,1.229470491E0
4.750266711E0,-1.138107777E-1,-9.633998871E0,1.218246460E0
4.754238586E0,-1.112346128E-1,-9.649159431E0,1.215239406E0
4.758208898E0,-1.003266275E-1,-9.674653053E0,1.206419110E0
4.762179211E0,-1.027591377E-1,-9.686862946E0,1.206313729E0
4.766149523E0,-8.635406196E-2,-9.690100670E0,1.203287482E0
4.770119836E0,-7.770621032E-2,-9.662681580E0,1.223168969E0
4.774090148E0,-1.036497802E-1,-9.649848938E0,1.224270225E0
4.778062023E0,-1.304744184E-1,-9.631912231E0,1.239794254E0
4.782032336E0,-1.661384404E-1,-9.619653702E0,1.266695499E0
4.786002648E0,-1.891802400E-1,-9.600269318E0,1.287563324E0
4.789972961E0,-2.114558816E-1,-9.588807106E0,1.307224631E0
4.793943273E0,-2.463346273E-1,-9.571386337E0,1.311869264E0
4.797913586E0,-2.738392055E-1,-9.550576210E0,1.320258498E0
4.801885461E0,-2.986623049E-1,-9.542071342E0,1.326196194E0
4.805854211E0,-3.270671070E-1,-9.542224884E0,1.334499240E0
4.809824523E0,-3.234375119E-1,-9.545165062E0,1.308565259E0
4.813796398E0,-3.489405215E-1,-9.559625626E0,1.321197152E0
4.817766711E0,-3.055192828E-1,-9.553746223E0,1.305567741E0
4.821737023E0,-2.784935236E-1,-9.564931870E0,1.307866216E0
4.825708898E0,-2.604316771E-1,-9.578137398E0,1.302991629E0
4.829687023E0,-2.478286177E-1,-9.613581657E0,1.301248670E0
4.833647961E0,-2.254092991E-1,-9.606428146E0,1.308651447E0
4.837619836E0,-2.232640982E-1,-9.610297203E0,1.332248807E0
4.841590148E0,-2.197398394E-1,-9.635129929E0,1.332268000E0
4.845560461E0,-2.075294107E-1,-9.671933174E0,1.338052273E0
4.849530773E0,-2.023483515E-1,-9.702798843E0,1.333771467E0
4.853501086E0,-2.010650635E-1,-9.694946289E0,1.307291627E0
4.857471398E0,-1.826775968E-1,-9.690656662E0,1.293769121E0
4.861441711E0,-1.681974679E-1,-9.677994728E0,1.272460699E0
4.865413586E0,-1.785308421E-1,-9.667652130E0,1.251669526E0
4.869383898E0,-1.840758026E-1,-9.665555000E0,1.239487767E0
4.873354211E0,-1.643571556E-1,-9.639860153E0,1.224614978E0
4.877324523E0,-1.593389064E-1,-9.659282684E0,1.231012344E0
4.881294836E0,-1.472050995E-1,-9.618752480E0,1.211762905E0
4.885265148E0,-1.508346945E-1,-9.604426384E0,1.215354204E0
4.889235461E0,-1.599997133E-1,-9.591123581E0,1.182457924E0
4.893207336E0,-1.657553762E-1,-9.594121933E0,1.168887615E0
4.897177648E0,-1.548473835E-1,-9.563322067E0,1.173656821E0
4.901147961E0,-1.516295820E-1,-9.550614357E0,1.169557929E0
4.905118273E0,-1.715684980E-1,-9.552941322E0,1.178847432E0
4.909088586E0,-1.648647338E-1,-9.556082726E0,1.197589278E0
4.913058898E0,-1.685805321E-1,-9.567048073E0,1.197646737E0
4.917030773E0,-1.619916856E-1,-9.582734108E0,1.194074631E0
4.921001086E0,-1.436808258E-1,-9.594993591E0,1.207597017E0
4.924971398E0,-1.205241159E-1,-9.616100311E0,1.204264283E0
4.928941711E0,-1.075283885E-1,-9.630015373E0,1.217470646E0
4.932912023E0,-9.982863814E-2,-9.648221016E0,1.232324362E0
4.936882336E0,-9.309613705E-2,-9.669903755E0,1.257156968E0
4.940854211E0,-8.608591557E-2,-9.697379112E0,1.279566765E0
4.944822961E0,-8.661264181E-2,-9.704523087E0,1.285810828E0
4.948793273E0,-8.881530911E-2,-9.726425171E0,1.295224905E0
4.952765148E0,-9.188945591E-2,-9.713017464E0,1.311400056E0
4.956735461E0,-7.719863951E-2,-9.713467598E0,1.300511241E0
4.960705773E0,-7.614518702E-2,-9.700615883E0,1.274309039E0
4.964676086E0,-6.902962178E-2,-9.683894157E0,1.253843427E0
4.968646398E0,-6.656838208E-2,-9.683052063E0,1.235973120E0
4.972616711E0,-7.778282464E-2,-9.659005165E0,1.223494530E0
4.976588586E0,-8.275318891E-2,-9.629881859E0,1.217872977E0
4.980558898E0,-8.795338869E-2,-9.602042198E0,1.209272981E0
4.984529211E0,-9.988608956E-2,-9.588729858E0,1.162969112E0
4.988499523E0,-1.116559878E-1,-9.582006454E0,1.160804868E0
4.992469836E0,-1.226022765E-1,-9.583098412E0,1.154627681E0
4.996440148E0,-1.465059966E-1,-9.587656975E0,1.152855992E0
5.000410461E0,-1.701607108E-1,-9.604177475E0,1.147598386E0
5.004380773E0,-1.713099182E-1,-9.629153252E0,1.162815928E0
5.008352648E0,-1.724112481E-1,-9.643835068E0,1.172201157E0
5.012322961E0,-1.805036664E-1,-9.644275665E0,1.173628092E0
5.016302648E0,-1.992933452E-1,-9.664233208E0,1.176750064E0
5.020263586E0,-2.129211426E-1,-9.693451881E0,1.174442172E0
5.024233898E0,-2.051830888E-1,-9.714464188E0,1.187457085E0
5.028204211E0,-2.217413783E-1,-9.730322838E0,1.181576848E0
5.032176086E0,-1.908370405E-1,-9.751267433E0,1.199945211E0
5.036146398E0,-1.884428263E-1,-9.754676819E0,1.229269266E0
5.040116711E0,-1.975982487E-1,-9.734163284E0,1.226511240E0
5.044087023E0,-1.862593144E-1,-9.719357491E0,1.242801428E0
5.048057336E0,-1.719132513E-1,-9.712347984E0,1.245233893E0
5.052027648E0,-1.737328470E-1,-9.678281784E0,1.247829199E0
5.055997961E0,-1.665598303E-1,-9.635196686E0,1.245224237E0
5.059968273E0,-1.661384404E-1,-9.589390755E0,1.233042598E0
5.063938586E0,-1.539567411E-1,-9.564500809E0,1.237352133E0
5.067910461E0,-1.790575534E-1,-9.551638603E0,1.222134590E0
5.071880773E0,-1.849568635E-1,-9.533375740E0,1.225275755E0
5.075851086E0,-2.095213830E-1,-9.529679298E0,1.220564127E0
5.079821398E0,-2.505675554E-1,-9.506081581E0,1.239267588E0
5.083791711E0,-2.672695220E-1,-9.522200584E0,1.249294400E0
5.087762023E0,-2.911157906E-1,-9.509845734E0,1.262079477E0
5.091733898E0,-3.089477718E-1,-9.507652283E0,1.285399079E0
5.095704211E0,-3.133243918E-1,-9.520083427E0,1.305213332E0
5.099674523E0,-3.085359931E-1,-9.548382759E0,1.333110690E0
5.103649523E0,-3.066110611E-1,-9.577008247E0,1.376914859E0
5.107615148E0,-2.919872701E-1,-9.611436844E0,1.392304897E0
5.111585461E0,-2.889992893E-1,-9.657404900E0,1.414293170E0
5.115557336E0,-2.795853019E-1,-9.677277565E0,1.397342324E0
5.119527648E0,-2.552601993E-1,-9.679843903E0,1.378112078E0
5.123496398E0,-2.411535680E-1,-9.672392845E0,1.338148117E0
5.127474523E0,-2.417185903E-1,-9.680418015E0,1.295646191E0
5.131438586E0,-2.588227987E-1,-9.697196960E0,1.258746743E0
5.135408898E0,-2.729007006E-1,-9.706667900E0,1.238233328E0
5.139379211E0,-2.624236345E-1,-9.701678276E0,1.186987758E0
5.143349523E0,-2.311553806E-1,-9.692188263E0,1.142292738E0
5.147319836E0,-1.997434497E-1,-9.712386131E0,1.091641068E0
5.151291711E0,-1.443607807E-1,-9.693902016E0,1.054291487E0
5.155262023E0,-1.130733564E-1,-9.690032959E0,1.025829196E0
5.159232336E0,-6.962338090E-2,-9.710824013E0,1.027284861E0
5.163202648E0,-4.737646505E-2,-9.731433868E0,1.071960688E0
5.167172961E0,-3.244622052E-2,-9.734565735E0,1.145529747E0
5.171144836E0,-1.289038174E-2,-9.720985413E0,1.505847573E0
5.175115148E0,4.309562966E-3,-9.751343727E0,1.398232937E0
5.179085461E0,-1.123742536E-1,-9.765268326E0,1.189018011E0
5.183055773E0,-2.043307424E-1,-9.730974197E0,9.914772511E-1
5.187026086E0,-1.994274259E-1,-9.655508995E0,1.073004603E0
5.190996398E0,-1.318439096E-1,-9.610075951E0,1.209100604E0
5.194966711E0,-1.043871939E-1,-9.548612595E0,1.308986664E0
5.198937023E0,-1.097789407E-1,-9.546774864E0,1.289631963E0
5.202907336E0,-1.231864616E-1,-9.546428680E0,1.240378380E0
5.206879211E0,-1.908944845E-1,-9.530138969E0,1.202684045E0
5.210849523E0,-2.247963846E-1,-9.507796288E0,1.178550482E0
5.214819836E0,-2.484223694E-1,-9.505028725E0,1.157606125E0
5.218790148E0,-2.110345215E-1,-9.493488312E0,1.378523946E0
5.222760461E0,-1.495131105E-1,-9.539658546E0,1.244525194E0
5.226740148E0,-1.519456208E-1,-9.561646461E0,1.065898538E0
5.230702648E0,-1.186374798E-1,-9.581892014E0,9.577285647E-1
5.234672961E0,-3.487873077E-2,-9.606772423E0,9.254451394E-1
5.238641711E0,9.883265197E-2,-9.655097961E0,1.004597425E0
5.242613586E0,2.308297753E-1,-9.693241119E0,1.090654612E0
5.246583898E0,3.970448375E-1,-9.744467735E0,1.203258753E0
5.250554211E0,5.162281990E-1,-9.750204086E0,1.259493828E0
5.254526086E0,6.901813149E-1,-9.755366325E0,1.323026299E0
5.258496398E0,7.862367034E-1,-9.760585785E0,1.352503657E0
5.262465148E0,8.719586730E-1,-9.767059326E0,1.364101171E0
5.266437023E0,9.415437579E-1,-9.727967262E0,1.368066072E0
5.270407336E0,9.667403698E-1,-9.728857040E0,1.373582244E0
5.274377648E0,9.961124063E-1,-9.726396561E0,1.386587501E0
5.278347961E0,1.001762748E0,-9.721598625E0,1.443205714E0
5.282318273E0,9.883647561E-1,-9.687590599E0,1.497142196E0
5.286288586E0,9.345718622E-1,-9.659521103E0,1.576141238E0
5.290260461E0,8.572199941E-1,-9.624000549E0,1.645247579E0
5.294230773E0,7.751659155E-1,-9.592532158E0,1.721536398E0
5.298199523E0,6.905356646E-1,-9.574240685E0,1.826469541E0
5.302171398E0,6.751074195E-1,-9.532045364E0,2.018991947E0
5.306141711E0,6.001018882E-1,-9.566453934E0,1.910841107E0
5.310112023E0,5.255751610E-1,-9.554109573E0,1.858858109E0
5.314083898E0,5.509824157E-1,-9.544437408E0,1.894608378E0
5.318052648E0,4.847683609E-1,-9.513935089E0,1.786783218E0
5.322022961E0,4.433103800E-1,-9.484179497E0,1.779916644E0
5.325994836E0,4.302859306E-1,-9.431966782E0,1.827704787E0
5.329965148E0,4.397286773E-1,-9.385758400E0,1.850851893E0
5.333935461E0,4.168400764E-1,-9.300449371E0,1.977169991E0
5.337905773E0,4.885033369E-1,-9.307994843E0,1.861788750E0
5.341876086E0,4.719163179E-1,-9.306491852E0,1.641828656E0
5.345847961E0,4.995262325E-1,-9.276171684E0,1.710350752E0
5.349818273E0,6.230000257E-1,-9.297087669E0,1.534798265E0
5.353788586E0,6.348178387E-1,-9.321977615E0,1.407101035E0
5.357760461E0,6.512516141E-1,-9.333930016E0,1.383925200E0
5.361729211E0,6.636823416E-1,-9.375750542E0,1.436090112E0
5.365699523E0,6.835350394E-1,-9.348313332E0,1.582883358E0
5.369669836E0,7.609443069E-1,-9.432456017E0,1.530718565E0
5.373649523E0,7.199556231E-1,-9.489140511E0,1.404553533E0
5.377610461E0,6.971532106E-1,-9.507997513E0,1.423257232E0
5.381582336E0,6.967031360E-1,-9.507634163E0,1.558500886E0
5.385552648E0,6.611539721E-1,-9.525111198E0,1.709507942E0
5.389522961E0,6.062310338E-1,-9.522286415E0,1.860696912E0
5.393493273E0,5.277873874E-1,-9.517918587E0,1.982264876E0
5.397463586E0,4.157770574E-1,-9.499666214E0,2.088021755E0
5.401433898E0,3.213018775E-1,-9.468885422E0,2.152224541E0
5.405405773E0,2.439787239E-1,-9.412593842E0,2.215450764E0
5.409376086E0,1.845737845E-1,-9.348275185E0,2.276042938E0
5.413346398E0,1.068867445E-1,-9.301579475E0,2.352935314E0
5.417316711E0,5.213613436E-2,-9.231093407E0,2.387449980E0
5.421287023E0,1.412578952E-2,-9.178362846E0,2.417798996E0
5.425257336E0,-7.402871735E-3,-9.147794724E0,2.422893763E0
5.429229211E0,2.146162465E-2,-9.098032951E0,2.433983564E0
5.433199523E0,4.707958177E-2,-9.072348595E0,2.431321383E0
5.437168273E0,1.101620123E-1,-9.063489914E0,2.478832006E0
5.441140148E0,1.752651334E-1,-9.087182999E0,2.370652437E0
5.445110461E0,1.950603873E-1,-9.119523048E0,2.315480471E0
5.449080773E0,2.385295331E-1,-9.170912743E0,2.299218893E0
5.453051086E0,2.592154145E-1,-9.233545303E0,2.349027872E0
5.457021398E0,2.985378206E-1,-9.277339935E0,2.434098721E0
5.460991711E0,3.224319518E-1,-9.317380905E0,2.564573050E0
5.464963586E0,3.371227384E-1,-9.332589149E0,2.682271957E0
5.468933898E0,3.345561922E-1,-9.343237877E0,2.826900959E0
5.472904211E0,3.354659677E-1,-9.314067841E0,2.912220716E0
5.476874523E0,3.144353032E-1,-9.260838509E0,2.957308292E0
5.480844836E0,2.025782019E-1,-9.214909554E0,3.039487123E0
5.484815148E0,9.996270388E-2,-9.200677872E0,3.081203699E0
5.488787023E0,-5.955816433E-2,-9.232693672E0,3.138175964E0
5.492768273E0,-1.171147674E-1,-9.273231506E0,3.130725145E0
5.496727648E0,-1.445235908E-1,-9.289138794E0,3.153010607E0
5.500697961E0,-1.187428311E-1,-9.279130936E0,3.130916834E0
5.504668273E0,-1.735891998E-1,-9.243868828E0,3.117767811E0
5.508638586E0,-2.331377864E-1,-9.170395851E0,3.089621544E0
5.512610461E0,-3.315203190E-1,-9.130182266E0,3.112414360E0
5.516580773E0,-4.504450858E-1,-9.138121605E0,3.181913376E0
5.520551086E0,-5.364160538E-1,-9.114754677E0,3.259523630E0
5.524527648E0,-6.319064498E-1,-9.117608070E0,3.424886465E0
5.528491711E0,-6.495469213E-1,-9.127923012E0,3.406546831E0
5.532462023E0,-7.731260657E-1,-9.114601135E0,3.389499903E0
5.536432336E0,-8.502576351E-1,-9.077816010E0,3.418613434E0
5.540402648E0,-9.271594286E-1,-9.020633698E0,3.483592272E0
5.544372961E0,-1.091229200E0,-8.980315208E0,3.498263836E0
5.548344836E0,-1.160479069E0,-8.945972443E0,3.516670465E0
5.552315148E0,-1.333263874E0,-8.889633179E0,3.522157907E0
5.556285461E0,-1.476877689E0,-8.865757942E0,3.582003355E0
5.560255773E0,-1.600380182E0,-8.810988426E0,3.436368942E0
5.564226086E0,-1.771469831E0,-8.778368950E0,3.309993505E0
5.568196398E0,-2.016252995E0,-8.711752892E0,3.270536900E0
5.572166711E0,-2.168821096E0,-8.698920250E0,3.164933681E0
5.576137023E0,-2.299707174E0,-8.689400673E0,3.101449013E0
5.580107336E0,-2.297332287E0,-8.692819595E0,3.038586617E0
5.584079211E0,-2.214425802E0,-8.693777084E0,2.957116842E0
5.588049523E0,-2.189708233E0,-8.678569794E0,2.860841274E0
5.592019836E0,-2.216235876E0,-8.680302620E0,2.742989063E0
5.595991711E0,-2.217595816E0,-8.672899246E0,2.629407883E0
5.599960461E0,-2.222202063E0,-8.727190018E0,2.495409489E0
5.603932336E0,-2.224117756E0,-8.830199242E0,2.295771122E0
5.607902648E0,-2.252369165E0,-8.942889214E0,2.066090822E0
5.611872961E0,-2.214971781E0,-9.185211182E0,1.728029370E0
5.615843273E0,-2.189995289E0,-9.457594872E0,1.495427966E0
5.619813586E0,-2.211150646E0,-9.765833855E0,1.270382524E0
5.623783898E0,-2.293712139E0,-1.012243557E1,9.603143334E-1
5.627754211E0,-2.234029531E0,-1.051699066E1,7.760756612E-1
5.631724523E0,-2.209809780E0,-1.097584343E1,6.299527884E-1
5.635694836E0,-2.249103546E0,-1.127013016E1,6.597653627E-1
5.639666711E0,-2.318678856E0,-1.137204552E1,7.472686768E-1
5.643637023E0,-2.513720274E0,-1.138340473E1,1.060162067E0
5.647607336E0,-2.747346401E0,-1.130013371E1,1.509735703E0
5.651577648E0,-3.074068785E0,-1.092243481E1,2.026988745E0
5.655547961E0,-3.332690477E0,-1.043989754E1,2.548838377E0
5.659518273E0,-3.466420889E0,-9.969541550E0,2.852365732E0
5.663490148E0,-3.618740082E0,-9.609252930E0,2.796944857E0
5.667460461E0,-3.692510366E0,-9.563963890E0,2.733766556E0
5.671430773E0,-3.841908455E0,-9.612221718E0,2.628795147E0
5.675401086E0,-4.015574455E0,-9.812080383E0,2.430670261E0
5.679371398E0,-4.124127388E0,-1.009573555E1,2.233627558E0
5.683341711E0,-4.246270180E0,-1.047505379E1,2.047952175E0
5.687312023E0,-4.142898083E0,-1.093543911E1,1.919910431E0
5.691283898E0,-3.977209568E0,-1.138014889E1,1.490476847E0
5.695254211E0,-3.837675571E0,-1.177846718E1,6.158461571E-1
5.699224523E0,-3.672676802E0,-1.205581188E1,-1.205624267E-1
5.703194836E0,-3.483218670E0,-1.225354290E1,-6.491925716E-1
5.707165148E0,-3.285198927E0,-1.237995720E1,-6.816292405E-1
5.711135461E0,-3.168381214E0,-1.228224468E1,-6.174263358E-1
5.715105773E0,-3.193060637E0,-1.211590481E1,-4.609125555E-1
5.719076086E0,-3.240101814E0,-1.187990475E1,-2.440553457E-1
5.723047961E0,-3.271638393E0,-1.161190701E1,5.322789401E-2
5.727018273E0,-3.459362745E0,-1.129212761E1,3.782072365E-1
5.730988586E0,-3.402179718E0,-1.101532936E1,5.810153484E-1
5.734958898E0,-3.311956882E0,-1.076571941E1,8.822250366E-1
5.738929211E0,-3.410243511E0,-1.058293629E1,1.080646873E0
5.742899523E0,-3.303155422E0,-1.029285526E1,1.226291060E0
5.746869836E0,-3.146632433E0,-1.013516331E1,1.215134025E0
5.750840148E0,-2.986287832E0,-9.974321365E0,1.185388446E0
5.754812023E0,-2.783278465E0,-9.802215576E0,1.179211378E0
5.758782336E0,-2.658655643E0,-9.617469788E0,1.131423116E0
5.762752648E0,-2.698236465E0,-9.344415665E0,8.368884325E-1
5.766722961E0,-2.846897364E0,-9.054794312E0,6.907463670E-1
5.770693273E0,-2.848602057E0,-8.832363129E0,5.787742734E-1
5.774663586E0,-2.794138670E0,-8.675696373E0,5.005221963E-1
5.778635461E0,-2.634435892E0,-8.607729912E0,6.841958165E-1
5.782605773E0,-2.425469875E0,-8.647081375E0,9.715861678E-1
5.786576086E0,-2.189219713E0,-8.648182869E0,1.351019263E0
5.790546398E0,-1.989935875E0,-8.671703339E0,1.670626044E0
5.794516711E0,-1.857115269E0,-8.654377937E0,2.069739580E0
5.798487023E0,-1.779313207E0,-8.610056877E0,2.342228174E0
5.802458898E0,-1.613605738E0,-8.641248703E0,2.635288239E0
5.806429211E0,-1.576438069E0,-8.652654648E0,2.916779280E0
5.810397961E0,-1.509898543E0,-8.683712006E0,3.124433041E0
5.814369836E0,-1.578707933E0,-8.818956375E0,3.340524197E0
5.818340148E0,-1.613078952E0,-8.775621414E0,3.552707911E0
5.822310461E0,-1.565434456E0,-8.826913834E0,3.732857466E0
5.826280773E0,-1.569360971E0,-8.858306885E0,3.845030546E0
5.830251086E0,-1.617015123E0,-8.854284286E0,3.875676155E0
5.834222961E0,-1.605216384E0,-8.863957405E0,3.875264406E0
5.838193273E0,-1.681419015E0,-8.891212463E0,3.796236515E0
5.842163586E0,-1.616201043E0,-8.757539749E0,3.690681219E0
5.846133898E0,-1.378131270E0,-8.625063896E0,3.518930674E0
5.850104211E0,-1.327230453E0,-8.441361427E0,3.215719223E0
5.854074523E0,-1.243835688E0,-8.340948105E0,2.981173754E0
5.858044836E0,-1.263161659E0,-8.251031876E0,2.807756901E0
5.862015148E0,-1.484836102E0,-8.189223289E0,2.624935865E0
5.865987023E0,-1.333474636E0,-8.058069229E0,2.761692524E0
5.869957336E0,-1.274855018E0,-7.962300777E0,2.866453171E0
5.873927648E0,-1.349850893E0,-7.833128929E0,2.915946007E0
5.877897961E0,-1.446729898E0,-7.765803814E0,2.933864355E0
5.881868273E0,-1.543637514E0,-7.704866886E0,3.019576550E0
5.885838586E0,-1.695927978E0,-7.679296494E0,3.054407597E0
5.889808898E0,-1.822600484E0,-7.726242065E0,3.042905807E0
5.893779211E0,-1.910764575E0,-7.748862267E0,3.047550440E0
5.897755773E0,-1.994820118E0,-7.758630753E0,3.033606768E0
5.901721398E0,-2.072277308E0,-7.775505543E0,3.035004854E0
5.905691711E0,-2.181625128E0,-7.804829597E0,3.033147335E0
5.909662023E0,-2.261888504E0,-7.858583927E0,3.003037691E0
5.913632336E0,-2.224845409E0,-7.937027931E0,2.970342398E0
5.917602648E0,-2.160192490E0,-7.990878105E0,2.944015980E0
5.921574523E0,-2.192341805E0,-8.029769897E0,2.846715450E0
5.925543273E0,-2.237917662E0,-8.072070122E0,2.745076656E0
5.929515148E0,-2.279988766E0,-8.135746956E0,2.613682747E0
5.933485461E0,-2.289766550E0,-8.184482574E0,2.537556887E0
5.937455773E0,-2.303030491E0,-8.218958855E0,2.460367918E0
5.941426086E0,-2.335352182E0,-8.221076012E0,2.354410172E0
5.945396398E0,-2.254466534E0,-8.266986847E0,2.332105637E0
5.949366711E0,-2.220918894E0,-8.264190674E0,2.290781736E0
5.953338586E0,-2.221627712E0,-8.266268730E0,2.248624802E0
5.957308898E0,-2.187457561E0,-8.246368408E0,2.195799112E0
5.961279211E0,-2.185322046E0,-8.202113152E0,2.170832157E0
5.965249523E0,-2.138319016E0,-8.195734978E0,2.179757833E0
5.969226086E0,-2.098239899E0,-8.201663017E0,2.227086544E0
5.973190148E0,-2.073052883E0,-8.214774132E0,2.294286966E0
5.977160461E0,-1.981517911E0,-8.157955170E0,2.337660074E0
5.981132336E0,-1.913723707E0,-8.046624184E0,2.452294588E0
5.985101086E0,-1.862028122E0,-7.950272560E0,2.561757565E0
5.989072961E0,-1.863531709E0,-7.849936008E0,2.721134663E0
5.993043273E0,-1.909672737E0,-7.773273945E0,2.836496830E0
5.997013586E0,-1.984094143E0,-7.700442314E0,2.959329128E0
6.000983898E0,-2.049647570E0,-7.701543331E0,2.964337587E0
6.004954211E0,-2.150902748E0,-7.670227528E0,3.022967100E0
6.008926086E0,-2.360031843E0,-7.610860825E0,3.061561584E0
6.012896398E0,-2.430516958E0,-7.581182003E0,3.440601826E0
6.016866711E0,-2.464639187E0,-7.574881077E0,3.548024893E0
6.020837023E0,-2.644941568E0,-7.568645954E0,3.471190214E0
6.024807336E0,-2.869383812E0,-7.547720909E0,3.295379162E0
6.028777648E0,-2.899253607E0,-7.516433716E0,3.339863539E0
6.032747961E0,-2.898918390E0,-7.516328335E0,3.274904013E0
6.036719836E0,-2.970294476E0,-7.465772152E0,3.144649982E0
6.040688586E0,-2.906014919E0,-7.419391632E0,3.283973217E0
6.044660461E0,-2.963743925E0,-7.418999195E0,3.259389639E0
6.048632336E0,-2.990377188E0,-7.359823704E0,3.256755829E0
6.052601086E0,-2.967957735E0,-7.380615234E0,3.353950977E0
6.056571398E0,-3.003679276E0,-7.386610508E0,3.294402361E0
6.060541711E0,-3.028406382E0,-7.396944046E0,3.441894770E0
6.064513586E0,-3.168773890E0,-7.465101719E0,3.443369627E0
6.068483898E0,-3.439299583E0,-7.513713360E0,3.507045984E0
6.072454211E0,-3.623241186E0,-7.660622120E0,3.629609823E0
6.076424523E0,-3.818445206E0,-7.824232101E0,3.541072369E0
6.080394836E0,-4.034267902E0,-7.999056816E0,3.651052237E0
6.084365148E0,-4.164139271E0,-8.242863655E0,3.669573784E0
6.088335461E0,-4.401672840E0,-8.433814049E0,3.584359407E0
6.092307336E0,-4.740078449E0,-8.655997276E0,3.645334959E0
6.096277648E0,-4.894581318E0,-8.865556717E0,3.652364254E0
6.100247961E0,-5.067893028E0,-9.097679138E0,3.586408615E0
6.104218273E0,-5.227423191E0,-9.311164856E0,3.520079851E0
6.108188586E0,-5.360559940E0,-9.480780602E0,3.461738110E0
6.112158898E0,-5.476899624E0,-9.642494202E0,3.355588675E0
6.116129211E0,-5.595134258E0,-9.777881622E0,3.259370327E0
6.120099523E0,-5.694838524E0,-9.903682709E0,3.175506353E0
6.124069836E0,-5.771702290E0,-1.006603813E1,3.084430933E0
6.128041711E0,-5.800202847E0,-1.021213150E1,2.995491266E0
6.132012023E0,-5.827611446E0,-1.034332561E1,2.853811741E0
6.135982336E0,-5.679525375E0,-1.059159374E1,2.781353712E0
6.139952648E0,-5.560887814E0,-1.086701393E1,2.733824015E0
6.143922961E0,-5.446147919E0,-1.113873672E1,2.724486589E0
6.147893273E0,-5.300944328E0,-1.130566025E1,2.709029436E0
6.151865148E0,-5.034986973E0,-1.147986221E1,2.656788111E0
6.155833898E0,-4.767564297E0,-1.161069012E1,2.578650951E0
6.159804211E0,-4.415224075E0,-1.171497250E1,2.418335199E0
6.163776086E0,-4.013821602E0,-1.176164055E1,2.260729790E0
6.167746398E0,-3.666959286E0,-1.175567341E1,2.123848438E0
6.171718273E0,-3.272950411E0,-1.169675827E1,1.990769148E0
6.175687023E0,-2.897836447E0,-1.153613567E1,1.896744013E0
6.179657336E0,-2.621420860E0,-1.136100388E1,1.820579767E0
6.183629211E0,-2.381234646E0,-1.114571762E1,1.824554086E0
6.187599523E0,-2.290350914E0,-1.090385532E1,1.951092362E0
6.191569836E0,-2.229174137E0,-1.071518230E1,2.098335981E0
6.195540148E0,-2.325488091E0,-1.064389229E1,2.270670414E0
6.199510461E0,-2.490572929E0,-1.071372700E1,2.498157978E0
6.203480773E0,-2.787904263E0,-1.085231209E1,2.796580791E0
6.207452648E0,-3.131117821E0,-1.104181862E1,3.088865042E0
6.211422961E0,-3.436091423E0,-1.129320049E1,3.305559397E0
6.215393273E0,-3.714594126E0,-1.163593578E1,3.450130939E0
6.219363586E0,-3.947013855E0,-1.197126675E1,3.526822090E0
6.223333898E0,-4.218554497E0,-1.233446789E1,3.559938431E0
6.227305773E0,-4.412456036E0,-1.262992191E1,3.547009706E0
6.231274523E0,-4.526286125E0,-1.292273235E1,3.509794474E0
6.235246398E0,-4.551281929E0,-1.312841320E1,3.392354012E0
6.239215148E0,-4.507305145E0,-1.323052120E1,3.267050982E0
6.243187023E0,-4.263872147E0,-1.328562641E1,3.057644606E0
6.247157336E0,-3.829630852E0,-1.326549625E1,2.732397079E0
6.251127648E0,-3.259782314E0,-1.316334915E1,2.454391956E0
6.255097961E0,-2.448214769E0,-1.285717010E1,2.163764715E0
6.259068273E0,-1.760169148E0,-1.243736076E1,1.907594562E0
6.263038586E0,-9.008135796E-1,-1.181645775E1,1.680174232E0
6.267010461E0,2.319502644E-2,-1.122106838E1,1.459476709E0
6.270980773E0,7.463109493E-1,-1.073726654E1,1.297264695E0
6.274949523E0,1.430315256E0,-1.018331528E1,1.230035543E0
6.278921398E0,1.861693025E0,-9.749159813E0,1.200088859E0
6.282891711E0,2.209580183E0,-9.308646202E0,1.254188180E0
6.286862023E0,2.298433542E0,-8.870622635E0,1.899377704E0
6.290833898E0,2.163563490E0,-8.453236580E0,2.553444862E0
6.294804211E0,2.105930090E0,-8.017616272E0,3.152933836E0
6.298774523E0,2.143739462E0,-7.763486385E0,3.544701815E0
6.302744836E0,2.168668032E0,-7.509356022E0,3.736917973E0
6.306715148E0,2.284662008E0,-7.262763023E0,3.804070473E0
6.310685461E0,2.429587841E0,-7.118153095E0,3.837675571E0
6.314655773E0,2.574437141E0,-7.028935432E0,3.781383038E0
6.318626086E0,2.624811172E0,-6.966571331E0,3.803610802E0
6.322596398E0,2.617082834E0,-6.979711056E0,3.890510798E0
6.326569836E0,2.390438080E0,-6.920832634E0,3.923483610E0
6.330538586E0,2.086010456E0,-6.939306259E0,3.800651550E0
6.334508898E0,1.453155875E0,-7.086434364E0,3.600573063E0
6.338479211E0,7.737581134E-1,-7.279531956E0,3.434693098E0
6.342449523E0,3.844608963E-1,-7.590519428E0,3.189469337E0
6.346419836E0,1.094916314E-1,-8.028600693E0,2.523220539E0
6.350391711E0,-1.967938095E-1,-8.346818924E0,1.625978947E0
6.354360461E0,-4.131242931E-1,-8.653182030E0,5.896248221E-1
6.358332336E0,-4.289451838E-1,-8.888032913E0,5.050807595E-1
6.362302648E0,-4.957242310E-1,-9.142814636E0,5.089498162E-1
6.366272961E0,-4.254113436E-1,-9.430904388E0,6.126857996E-1
6.370243273E0,-3.571765721E-1,-9.720420837E0,5.013362765E-1
6.374213586E0,-3.906379342E-1,-1.001472569E1,1.764047891E-2
6.378185461E0,-1.599135101E-1,-1.023326874E1,-3.028377891E-1
6.382155773E0,1.507006437E-1,-1.036946011E1,-6.667755842E-1
6.386126086E0,4.749042690E-1,-1.049809551E1,-1.179699779E0
6.390096398E0,4.879287481E-1,-1.057758331E1,-1.200481415E0
6.394066711E0,1.690306365E-1,-1.049301052E1,-5.979183316E-1
6.398037023E0,-8.961018175E-2,-1.024256706E1,5.273181200E-1
6.402007336E0,-2.138500959E-1,-1.012658310E1,1.979066253E0
6.405977648E0,-9.203311056E-2,-9.909753799E0,3.659987211E0
6.409949523E0,1.859049648E-1,-9.550279617E0,4.319771767E0
6.413918273E0,3.165709376E-1,-9.350879669E0,4.230305195E0
6.417890148E0,3.988261223E-1,-9.280730247E0,3.820351124E0
6.421860461E0,4.736976027E-1,-9.380213737E0,3.353385925E0
6.425830773E0,6.254229546E-1,-9.501332283E0,3.158919096E0
6.429802648E0,8.977777958E-1,-9.657128334E0,3.385679007E0
6.433771398E0,1.125686646E0,-9.785792351E0,3.822218418E0
6.437741711E0,1.358747840E0,-1.002082634E1,4.478249073E0
6.441713586E0,1.524809599E0,-1.018218517E1,4.991518021E0
6.445683898E0,1.559736252E0,-1.039311409E1,5.261689186E0
6.449654211E0,1.543455720E0,-1.044374752E1,5.043941498E0
6.453624523E0,1.501011252E0,-1.043486881E1,4.713062286E0
6.457594836E0,1.437057376E0,-1.031832886E1,4.333208084E0
6.461565148E0,1.341796875E0,-1.017623806E1,4.043826103E0
6.465537023E0,1.254609585E0,-1.004212475E1,3.813819647E0
6.469505773E0,1.136144519E0,-9.824845314E0,3.860133171E0
6.473476086E0,1.109338999E0,-9.666924477E0,3.827466488E0
6.477447961E0,1.039303780E0,-9.456263542E0,3.737272263E0
6.481418273E0,8.206844330E-1,-9.137747765E0,3.679552794E0
6.485388586E0,5.444223285E-1,-8.766197205E0,3.496683598E0
6.489358898E0,5.051286817E-1,-8.468443871E0,3.272950411E0
6.493329211E0,5.207101703E-1,-8.257045746E0,3.114550114E0
6.497299523E0,5.365597606E-1,-7.986491680E0,2.771968603E0
6.501271398E0,4.562199116E-1,-7.812634468E0,2.557649136E0
6.505241711E0,3.366630673E-1,-7.724422455E0,2.440026522E0
6.509212023E0,2.030666023E-1,-7.564681053E0,2.357934237E0
6.513182336E0,1.630642861E-1,-7.441944599E0,2.112997770E0
6.517152648E0,1.566574126E-1,-7.412889004E0,2.055269003E0
6.521122961E0,1.616469324E-1,-7.502575874E0,1.917563915E0
6.525094836E0,1.305989027E-1,-7.610094547E0,1.845680594E0
6.529063586E0,7.757213712E-2,-7.821876049E0,1.803676605E0
6.533035461E0,4.022258893E-2,-8.030123711E0,1.832263470E0
6.537005773E0,1.894292422E-2,-8.219255447E0,1.958466530E0
6.540976086E0,-8.108682185E-2,-8.415102005E0,1.860093594E0
6.544946398E0,-4.758715257E-2,-8.559060097E0,1.550781846E0
6.548916711E0,-1.210316867E-1,-8.708228111E0,1.968177438E0
6.552887023E0,-1.259445846E-1,-8.776338577E0,2.296039581E0
6.556858898E0,-9.730993956E-2,-8.855328560E0,2.681563377E0
6.560829211E0,-3.369120881E-2,-8.901220322E0,3.034976244E0
6.564802648E0,9.278967977E-2,-8.945886612E0,3.503023386E0
6.568769836E0,8.893980086E-2,-8.901039124E0,3.771969080E0
6.572740148E0,9.782707691E-2,-8.868898392E0,3.768205404E0
6.576710461E0,1.843152195E-1,-8.914244652E0,3.605849504E0
6.580680773E0,2.478477657E-1,-8.988303185E0,3.364849329E0
6.584652648E0,3.117058873E-1,-9.100811005E0,3.189373493E0
6.588622961E0,3.815208375E-1,-9.253053665E0,2.984793663E0
6.592593273E0,4.942877293E-1,-9.363196373E0,2.766289234E0
6.596563586E0,5.464334488E-1,-9.440059662E0,2.106945276E0
6.600533898E0,6.820889115E-1,-9.553439140E0,2.332507849E0
6.604504211E0,7.581958175E-1,-9.566750526E0,2.469925642E0
6.608474523E0,8.478729725E-1,-9.518550873E0,2.706367254E0
6.612444836E0,9.074503183E-1,-9.398381233E0,2.988356352E0
6.616416711E0,9.115204215E-1,-9.363904953E0,3.224779129E0
6.620387023E0,8.976436853E-1,-9.295526505E0,3.574284554E0
6.624357336E0,8.639237881E-1,-9.262122154E0,3.574409246E0
6.628327648E0,7.850204706E-1,-9.214756012E0,3.486915350E0
6.632297961E0,6.512420177E-1,-9.176171303E0,3.264398098E0
6.636268273E0,5.497374535E-1,-9.135708809E0,3.101142406E0
6.640240148E0,5.159504414E-1,-9.098272324E0,2.974153996E0
6.644210461E0,4.359170794E-1,-9.069829941E0,2.893929005E0
6.648179211E0,3.998412490E-1,-9.083649635E0,2.860841274E0
6.652151086E0,4.069855511E-1,-9.058078766E0,2.795939207E0
6.656121398E0,4.530883133E-1,-9.049612999E0,2.839283705E0
6.660091711E0,5.051190853E-1,-9.085851669E0,2.897022486E0
6.664063586E0,5.376418829E-1,-9.101682663E0,2.946409941E0
6.668032336E0,6.190639734E-1,-9.092575073E0,3.053890467E0
6.672004211E0,6.866953969E-1,-9.086369514E0,3.115009546E0
6.675974523E0,6.872891188E-1,-9.076869011E0,3.136461735E0
6.679944836E0,6.510217190E-1,-9.024943352E0,3.141594887E0
6.683926086E0,6.369438767E-1,-8.970144272E0,3.200722218E0
6.687887023E0,5.773090720E-1,-8.954074860E0,3.220718622E0
6.691862023E0,5.534628034E-1,-8.919148445E0,3.274501801E0
6.695827648E0,5.196183920E-1,-8.869443893E0,3.283504009E0
6.699797961E0,4.899302721E-1,-8.808880806E0,3.298769236E0
6.703768273E0,5.007424951E-1,-8.755930901E0,3.338293076E0
6.707738586E0,5.148395300E-1,-8.705336571E0,3.388187885E0
6.711708898E0,5.353626609E-1,-8.652386665E0,3.423919201E0
6.715679211E0,5.887437463E-1,-8.628128052E0,3.575567961E0
6.719651086E0,6.328066587E-1,-8.599617958E0,3.585805416E0
6.723621398E0,7.484274507E-1,-8.554884911E0,3.802873373E0
6.727591711E0,8.513493538E-1,-8.553735733E0,3.878051281E0
6.731562023E0,9.632735848E-1,-8.527170181E0,3.878807783E0
6.735532336E0,1.091669798E0,-8.504070282E0,3.904004335E0
6.739502648E0,1.211351156E0,-8.485051155E0,3.916415930E0
6.743472961E0,1.361170650E0,-8.407134056E0,3.960498095E0
6.747443273E0,1.461784720E0,-8.355198860E0,4.015717983E0
6.751413586E0,1.632165670E0,-8.244184494E0,4.115852833E0
6.755385461E0,1.801157951E0,-8.144030571E0,4.173275471E0
6.759355773E0,1.951695800E0,-8.022740364E0,4.178360939E0
6.763326086E0,2.061302185E0,-7.849696636E0,4.088855743E0
6.767296398E0,2.102406025E0,-7.706906796E0,3.933165789E0
6.771266711E0,2.034650087E0,-7.513617516E0,3.684130669E0
6.775237023E0,2.016482830E0,-7.319601536E0,3.337881088E0
6.779208898E0,2.093106985E0,-7.206652164E0,3.037121534E0
6.783177648E0,2.073388100E0,-7.064177990E0,2.724218607E0
6.787147961E0,2.033242226E0,-7.010404110E0,2.479866266E0
6.791119836E0,1.983414173E0,-7.016830444E0,2.155145407E0
6.795090148E0,1.944340825E0,-7.075498104E0,1.925196767E0
6.799060461E0,2.005603552E0,-7.133361340E0,1.843468308E0
6.803037023E0,2.042752028E0,-7.268480301E0,1.924909472E0
6.807001086E0,2.048689604E0,-7.540978909E0,1.229508758E0
6.810971398E0,2.281070709E0,-7.697511673E0,1.582318306E0
6.814952648E0,2.632769585E0,-8.030602455E0,2.437048435E0
6.818913586E0,2.862823486E0,-8.348313332E0,3.260941029E0
6.822883898E0,3.120487452E0,-8.713189125E0,4.157081127E0
6.826854211E0,3.361861229E0,-9.051077843E0,4.896400928E0
6.830824523E0,3.567427397E0,-9.276142120E0,5.572906971E0
6.834794836E0,3.866291046E0,-9.329484940E0,6.576048374E0
6.838766711E0,4.083742142E0,-9.379074097E0,6.803066730E0
6.842735461E0,4.241261005E0,-9.384944916E0,6.801572800E0
6.846707336E0,4.300044060E0,-9.297843933E0,6.672161102E0
6.850677648E0,4.264293671E0,-9.137739182E0,6.610074520E0
6.854647961E0,4.033789158E0,-8.899621010E0,6.481420040E0
6.858618273E0,3.741390467E0,-8.660123825E0,6.439980984E0
6.862588586E0,3.280104160E0,-8.448649406E0,6.421114922E0
6.866558898E0,2.637940884E0,-8.225816727E0,6.314563274E0
6.870530773E0,2.052999258E0,-8.011410713E0,6.225977898E0
6.874501086E0,1.654498816E0,-7.882468700E0,5.751543045E0
6.878471398E0,1.257051587E0,-7.760000706E0,5.034786224E0
6.882441711E0,8.112704754E-1,-7.594580173E0,4.240801811E0
6.886413586E0,2.769517004E-1,-7.391302586E0,3.753294230E0
6.890382336E0,-5.763322487E-2,-7.190036774E0,4.112989902E0
6.894352648E0,-4.798459113E-1,-7.057034016E0,4.663722992E0
6.898324523E0,-9.264602661E-1,-7.066687584E0,4.725828648E0
6.902293273E0,-1.272968292E0,-7.093981266E0,4.548054218E0
6.906265148E0,-1.601519823E0,-7.069982052E0,4.375451565E0
6.910235461E0,-1.840020657E0,-7.044517040E0,4.291242599E0
6.914205773E0,-2.088816404E0,-7.007454872E0,4.275172710E0
6.918177648E0,-2.331310749E0,-6.989536762E0,4.218247890E0
6.922146398E0,-2.518173695E0,-6.991681576E0,4.157540798E0
6.926116711E0,-2.637960196E0,-7.049573898E0,4.056974888E0
6.930088586E0,-2.715656757E0,-7.100273609E0,3.935789824E0
6.934058898E0,-2.773443460E0,-7.127873421E0,3.784093380E0
6.938029211E0,-2.849004269E0,-7.150589943E0,3.583602667E0
6.941999523E0,-2.860161066E0,-7.161708355E0,3.381024599E0
6.945969836E0,-2.922065735E0,-7.161401749E0,3.189182043E0
6.949940148E0,-2.948957205E0,-7.179397106E0,2.931316853E0
6.953912023E0,-2.881067276E0,-7.137891293E0,2.804500818E0
6.957882336E0,-2.827552319E0,-6.939546108E0,2.734839201E0
6.961851086E0,-2.744444609E0,-6.862289429E0,2.702737808E0
6.965822961E0,-2.505273342E0,-6.879662037E0,2.735978842E0
6.969793273E0,-2.243079662E0,-6.949878693E0,2.741370678E0
6.973763586E0,-2.072171926E0,-6.913496971E0,2.624054670E0
6.977733898E0,-1.867324114E0,-6.899236679E0,2.413173437E0
6.981704211E0,-1.568096757E0,-7.054256916E0,2.162414312E0
6.985674523E0,-1.270813465E0,-7.290056705E0,2.009558916E0
6.989646398E0,-1.057193279E0,-7.536659718E0,2.011090994E0
6.993616711E0,-8.474803567E-1,-7.835867882E0,2.079527140E0
6.997587023E0,-6.960327029E-1,-8.308272362E0,2.140904903E0
7.001557336E0,-6.832956076E-1,-8.850243568E0,2.160671473E0
7.005527648E0,-7.490594983E-1,-9.624068260E0,2.225247622E0
7.009499523E0,-8.148043156E-1,-1.066429234E1,2.158679247E0
7.013469836E0,-7.242938876E-1,-1.185815525E1,2.125859737E0
7.017440148E0,-2.727953494E-1,-1.367589092E1,2.593657970E0
7.021410461E0,4.523030221E-1,-1.551743412E1,3.382834673E0
7.025380773E0,1.333857656E0,-1.812587929E1,4.406126022E0
7.029351086E0,2.619946241E0,-2.109872055E1,5.091279507E0
7.033321398E0,3.707861900E0,-2.349546814E1,5.373029232E0
7.037293273E0,4.644636154E0,-2.585178566E1,5.802635193E0
7.041262023E0,5.508828163E0,-2.762006569E1,5.931855202E0
7.045233898E0,5.693583965E0,-2.820941353E1,5.671681404E0
7.049204211E0,5.517629623E0,-2.819192505E1,4.946276665E0
7.053174523E0,4.911044121E0,-2.719385910E1,4.184738636E0
7.057144836E0,3.449038982E0,-2.464703369E1,3.282613277E0
7.061115148E0,1.218907237E0,-2.086656761E1,2.631974697E0
7.065085461E0,-1.279107094E0,-1.757933044E1,1.796331167E0
7.069055773E0,-3.738976717E0,-1.469096470E1,4.948240221E-1
7.073027648E0,-4.782274246E0,-1.300734329E1,-1.519264728E-1
7.076997961E0,-5.321592331E0,-1.171070099E1,-5.044295788E-1
7.080968273E0,-5.452889919E0,-1.091248417E1,-7.810077667E-1
7.084938586E0,-5.326140881E0,-1.047591591E1,-9.937469363E-1
7.088908898E0,-4.951860428E0,-1.008316135E1,-1.175926566E0
7.092879211E0,-4.563875198E0,-9.751823425E0,-1.168102264E0
7.096851086E0,-4.098222256E0,-9.313856125E0,-9.039835334E-1
7.100819836E0,-3.938548088E0,-8.815594673E0,-9.375214577E-1
7.104791711E0,-4.017470360E0,-8.464824677E0,-1.374051571E0
7.108762023E0,-4.217932224E0,-8.012971878E0,-1.999905348E0
7.112732336E0,-4.340198994E0,-7.622334003E0,-2.295646667E0
7.116702648E0,-4.393886566E0,-7.306107521E0,-2.560598612E0
7.120672961E0,-4.298080444E0,-7.136205673E0,-2.882982731E0
7.124643273E0,-4.249066353E0,-7.019196033E0,-3.162912846E0
7.128615148E0,-4.280746460E0,-6.946459770E0,-3.537423372E0
7.132585461E0,-4.205530167E0,-6.822297096E0,-3.630998611E0
7.136555773E0,-4.284203529E0,-6.608676910E0,-3.391846418E0
7.140526086E0,-4.565713882E0,-6.289644718E0,-2.567197084E0
7.144496398E0,-4.777543545E0,-6.091394901E0,-1.319205046E0
7.148466711E0,-4.787733078E0,-6.092965603E0,1.119624451E-1
7.152437023E0,-4.545631409E0,-6.100646019E0,1.472692609E0
7.156408898E0,-4.251144409E0,-6.123601437E0,2.545888662E0
7.160387023E0,-3.754376411E0,-6.166649342E0,3.611097813E0
7.164349523E0,-3.264522791E0,-6.301538944E0,4.313546658E0
7.168319836E0,-2.661978722E0,-6.420406342E0,4.917278290E0
7.172290148E0,-2.009127855E0,-6.608523369E0,5.292076111E0
7.176262023E0,-1.588045239E0,-6.786680698E0,5.453934193E0
7.180230773E0,-1.128933072E0,-6.903316975E0,5.745097637E0
7.184202648E0,-8.036664724E-1,-7.014713764E0,5.887868881E0
7.188172961E0,-3.446788490E-1,-7.072807312E0,6.244643211E0
7.192143273E0,-1.910573058E-2,-7.242163181E0,6.283218384E0
7.196113586E0,1.547133178E-1,-7.262858868E0,6.172845840E0
7.200083898E0,2.790873051E-1,-7.379580975E0,6.004456520E0
7.204054211E0,3.574160039E-1,-7.501876354E0,5.723875523E0
7.208024523E0,3.546866179E-1,-7.710574150E0,5.161209583E0
7.211994836E0,2.665512562E-1,-7.887123108E0,4.369973660E0
7.215965148E0,1.385476738E-1,-8.053673744E0,3.586073637E0
7.219937023E0,-6.713341922E-3,-8.164323807E0,2.360769033E0
7.223907336E0,-1.177085340E-1,-8.265224457E0,1.086594105E0
7.227877648E0,-2.477615625E-1,-8.563131332E0,1.395436525E-1
7.231847961E0,-4.052138329E-1,-8.731107712E0,-7.847522497E-1
7.235818273E0,-5.390305519E-1,-8.890274048E0,-1.177870631E0
7.239788586E0,-6.667659879E-1,-8.924147606E0,-1.235570908E0
7.243760461E0,-6.931022406E-1,-8.813813210E0,-1.053946733E0
7.247730773E0,-6.512228251E-1,-8.683099747E0,-6.170145273E-1
7.251701086E0,-4.914338291E-1,-8.498419762E0,1.646444499E-1
7.255671398E0,-3.277470767E-1,-8.240353584E0,8.745731115E-1
7.259641711E0,-7.334876060E-2,-8.004783630E0,1.655197859E0
7.263612023E0,8.884403855E-2,-7.894918442E0,2.415155649E0
7.267583898E0,2.539769113E-1,-7.690223694E0,2.967325687E0
7.271554211E0,4.677121043E-1,-7.425569057E0,3.409314394E0
7.275522961E0,6.316670775E-1,-7.252726555E0,3.656070471E0
7.279501086E0,7.235181928E-1,-7.060079575E0,3.933941603E0
7.283465148E0,8.112704754E-1,-6.804953098E0,4.166303635E0
7.287435461E0,9.976255298E-1,-6.720964909E0,4.264580727E0
7.291407336E0,1.211753368E0,-6.732007027E0,4.196614265E0
7.295376086E0,1.324931979E0,-6.673617363E0,4.058909416E0
7.299346398E0,1.346297979E0,-6.607805252E0,3.952865124E0
7.303318273E0,1.355424523E0,-6.538133621E0,3.892301559E0
7.307288586E0,1.373677969E0,-6.526929379E0,3.937121153E0
7.311258898E0,1.297829747E0,-6.513646126E0,3.959511757E0
7.315229211E0,1.130340934E0,-6.468146324E0,3.907844782E0
7.319199523E0,9.481996298E-1,-6.439013958E0,3.874584436E0
7.323169836E0,7.134529352E-1,-6.457602501E0,3.850584984E0
7.327141711E0,4.009042978E-1,-6.454499722E0,3.825876951E0
7.331112023E0,4.064396769E-2,-6.492825985E0,3.742204428E0
7.335082336E0,-3.412311971E-1,-6.501665592E0,3.610293388E0
7.339052648E0,-6.973639131E-1,-6.579084396E0,3.408672810E0
7.343022961E0,-1.001168966E0,-6.681144714E0,3.412197113E0
7.346993273E0,-1.274404764E0,-6.776979446E0,3.345561743E0
7.350963586E0,-1.649978518E0,-6.888951778E0,3.094927073E0
7.354933898E0,-2.067402840E0,-6.978149891E0,2.790758133E0
7.358905773E0,-2.451538086E0,-7.072979450E0,2.579781055E0
7.362876086E0,-2.902193785E0,-7.219418526E0,2.268094301E0
7.366846398E0,-3.273582458E0,-7.287461281E0,2.077812672E0
7.370816711E0,-3.747241735E0,-7.451789856E0,1.875138760E0
7.374787023E0,-4.287019253E0,-7.678521156E0,1.578669548E0
7.378757336E0,-4.708868027E0,-7.934211731E0,1.373247027E0
7.382727648E0,-5.179108620E0,-8.260129929E0,9.724768400E-1
7.386697961E0,-5.675502777E0,-8.555938721E0,4.873158336E-1
7.390668273E0,-6.163125515E0,-8.820785522E0,1.834437400E-1
7.394640148E0,-6.727993965E0,-9.101998329E0,-1.228895858E-1
7.398618273E0,-7.243130207E0,-9.404921532E0,-1.803025305E-1
7.402580773E0,-7.587675095E0,-9.625323296E0,5.468356609E-2
7.406551086E0,-7.925583363E0,-9.765048981E0,7.073621154E-1
7.410522961E0,-8.273959160E0,-9.775439262E0,1.340666771E0
7.414491711E0,-8.471624374E0,-9.809801102E0,2.254466534E0
7.418463586E0,-8.400305748E0,-9.955013275E0,3.258019924E0
7.422433898E0,-8.314823151E0,-1.011571312E1,4.561796665E0
7.426404211E0,-8.324227333E0,-1.023881340E1,5.931127071E0
7.430374523E0,-8.380510330E0,-1.035243225E1,7.207179070E0
7.434344836E0,-8.535577774E0,-1.049059677E1,8.697100639E0
7.438315148E0,-8.660286903E0,-1.069160461E1,9.831463814E0
7.442287023E0,-8.785350800E0,-1.106909370E1,1.097310543E1
7.446255773E0,-8.749283791E0,-1.155577755E1,1.180986881E1
7.450227648E0,-8.509644508E0,-1.199767971E1,1.213125706E1
7.454199523E0,-7.909963608E0,-1.243895054E1,1.210400200E1
7.458168273E0,-7.256355762E0,-1.261202240E1,1.146647358E1
7.462138586E0,-6.654702663E0,-1.247540951E1,1.047862625E1
7.466108898E0,-5.896430016E0,-1.200444126E1,8.831654549E0
7.470079211E0,-5.308519840E0,-1.149796200E1,6.939019203E0
7.474049523E0,-4.858773708E0,-1.096564484E1,4.654605865E0
7.478021398E0,-4.481198788E0,-1.065030956E1,2.120965719E0
7.481991711E0,-4.268430710E0,-1.051934624E1,-5.324704573E-3
7.485968273E0,-4.088099480E0,-1.065040493E1,-1.930080891E0
7.489932336E0,-4.064348698E0,-1.088082314E1,-3.015219212E0
7.493902648E0,-4.014865398E0,-1.108348751E1,-3.494375706E0
7.497874523E0,-3.755056381E0,-1.115674973E1,-3.340437889E0
7.501844836E0,-3.299123764E0,-1.115976620E1,-3.037677050E0
7.505813586E0,-2.578306198E0,-1.099948883E1,-2.536857843E0
7.509785461E0,-1.940921903E0,-1.069668102E1,-1.989619851E0
7.513755773E0,-1.173723936E0,-1.023439884E1,-1.141660810E0
7.517732336E0,-4.856015742E-1,-9.722919464E0,-1.049522236E-1
7.521696398E0,5.238513462E-3,-9.343832016E0,9.311146140E-1
7.525666711E0,3.918446302E-1,-9.110053062E0,2.214195967E0
7.529637023E0,4.265797138E-1,-9.223834038E0,3.506844759E0
7.533608898E0,3.162740469E-1,-9.623388290E0,4.507745743E0
7.537579211E0,2.157654613E-2,-1.035178089E1,5.477579117E0
7.541549523E0,-3.225851655E-1,-1.109756565E1,6.121121407E0
7.545519836E0,-8.241704106E-1,-1.201239967E1,6.658083439E0
7.549490148E0,-1.447725773E0,-1.286154556E1,6.995062351E0
7.553460461E0,-2.021587372E0,-1.345413017E1,7.004926682E0
7.557430773E0,-2.735978842E0,-1.400310135E1,6.617209435E0
7.561402648E0,-3.236558676E0,-1.440030003E1,6.079567909E0
7.565371398E0,-3.678336620E0,-1.480070591E1,5.413797855E0
7.569343273E0,-3.999523401E0,-1.506519794E1,4.727159500E0
7.573313586E0,-4.166706085E0,-1.520610142E1,4.116571426E0
7.577283898E0,-4.238081455E0,-1.523202610E1,3.432461739E0
7.581255773E0,-4.174424648E0,-1.506225777E1,2.918043375E0
7.585224523E0,-3.761884451E0,-1.457415676E1,2.267902851E0
7.589194836E0,-3.021655083E0,-1.372347736E1,1.516841650E0
7.593166711E0,-2.248883247E0,-1.273418427E1,1.102491617E0
7.597137023E0,-1.333905458E0,-1.151353455E1,6.966648102E-1
7.601107336E0,-6.195906997E-1,-1.050456905E1,2.882618606E-1
7.605077648E0,1.709651500E-1,-9.457144737E0,-4.030016065E-1
7.609057336E0,7.584926486E-1,-8.547932625E0,-1.160048246E0
7.613018273E0,1.187437892E0,-7.931587696E0,-1.787482262E0
7.616990148E0,1.905526042E0,-7.601915836E0,-1.875550508E0
7.620960461E0,2.646301508E0,-7.490825176E0,-1.312079906E0
7.624929211E0,3.177479267E0,-7.434906483E0,-6.024481654E-1
7.628901086E0,3.586543083E0,-7.354297638E0,-1.095586643E-2
7.632871398E0,3.852337599E0,-7.370291710E0,4.171656966E-1
7.636841711E0,3.849665642E0,-7.411155701E0,9.955569506E-1
7.640812023E0,3.673452377E0,-7.442318439E0,1.567531705E0
7.644782336E0,3.391875267E0,-7.491878510E0,2.271494150E0
7.648752648E0,2.866347790E0,-7.457363605E0,3.028540850E0
7.652724523E0,2.440562963E0,-7.439895630E0,3.409113169E0
7.656694836E0,2.275037527E0,-7.683606148E0,4.152714252E0
7.660665148E0,2.332680225E0,-8.089126587E0,5.659557819E0
7.664637023E0,1.851187110E0,-8.218709946E0,6.676298141E0
7.668605773E0,1.551241636E0,-8.455430031E0,7.364076138E0
7.672576086E0,1.545782804E0,-8.658535004E0,7.377665520E0
7.676547961E0,1.562369823E0,-8.961573601E0,6.889286518E0
7.680518273E0,1.511746883E0,-9.278920174E0,6.205962181E0
7.684488586E0,1.554679632E0,-9.691987038E0,5.475683212E0
7.688458898E0,1.390447021E0,-1.009766960E1,4.394394398E0
7.692429211E0,1.003266335E0,-1.022655487E1,3.168812275E0
7.696399523E0,8.375683427E-1,-1.038708115E1,2.599834919E0
7.700369836E0,6.767737865E-1,-1.045864868E1,2.413431883E0
7.704340148E0,5.280651450E-1,-1.036465263E1,2.382776499E0
7.708312023E0,2.988442779E-1,-1.015975666E1,2.475614071E0
7.712282336E0,9.561483562E-2,-9.911228180E0,2.777733564E0
7.716252648E0,2.742797509E-2,-9.712806702E0,3.103507757E0
7.720222961E0,-3.227383830E-3,-9.446371078E0,3.421237469E0
7.724193273E0,-5.853344500E-2,-9.137671471E0,3.676076412E0
7.728163586E0,-1.286739856E-1,-8.766197205E0,3.783825159E0
7.732135461E0,-2.617054284E-1,-8.398591995E0,3.765275002E0
7.736105773E0,-4.359266758E-1,-8.152716637E0,3.632645607E0
7.740076086E0,-5.882649422E-1,-7.992266655E0,3.105902195E0
7.744046398E0,-8.134348392E-1,-7.974405766E0,2.829822063E0
7.748016711E0,-1.086603642E0,-8.043588638E0,2.516957283E0
7.751987023E0,-1.112911105E0,-8.313721657E0,2.233110428E0
7.755958898E0,-8.323202729E-1,-8.676510811E0,2.051150799E0
7.759929211E0,-3.725090623E-1,-9.152812958E0,1.947798014E0
7.763897961E0,-8.902599663E-2,-9.466769218E0,2.083673716E0
7.767869836E0,1.135521978E-1,-9.484563828E0,2.147656441E0
7.771840148E0,3.398808539E-1,-9.404672623E0,2.105508804E0
7.775810461E0,6.928915381E-1,-9.367639542E0,2.170209646E0
7.779780773E0,1.054032922E0,-9.264469147E0,2.441731453E0
7.783751086E0,1.282947421E0,-9.151511192E0,2.661308289E0
7.787721398E0,1.486483335E0,-9.033275604E0,2.858150244E0
7.791693273E0,1.584894538E0,-8.869368553E0,3.026386023E0
7.795663586E0,1.680365682E0,-8.672478676E0,3.320595026E0
7.799633898E0,1.786381006E0,-8.473041534E0,3.634043932E0
7.803604211E0,1.856483102E0,-8.366087914E0,3.806560516E0
7.807574523E0,1.968100786E0,-8.233965874E0,3.874967575E0
7.811544836E0,2.093681335E0,-8.129147530E0,3.960536480E0
7.815516711E0,2.276521921E0,-8.079540253E0,3.979230165E0
7.819487023E0,2.288014174E0,-8.073602676E0,4.085379601E0
7.823457336E0,2.256276608E0,-8.019513130E0,4.253758907E0
7.827427648E0,1.866366506E0,-7.883378506E0,3.927256823E0
7.831397961E0,1.538600206E0,-7.692330360E0,3.760409832E0
7.835369836E0,1.739732265E0,-7.807693005E0,3.596684933E0
7.839338586E0,1.716958642E0,-7.914914608E0,3.285256624E0
7.843308898E0,1.496203780E0,-8.040524483E0,3.085848093E0
7.847280773E0,1.293462634E0,-8.123488426E0,3.034028053E0
7.851251086E0,9.727737308E-1,-8.253761292E0,2.889207840E0
7.855221398E0,6.582905054E-1,-8.364775658E0,2.929803610E0
7.859191711E0,4.333983660E-1,-8.450909615E0,2.957059383E0
7.863162023E0,1.327441186E-1,-8.563063622E0,3.056035757E0
7.867132336E0,-1.075762734E-1,-8.631594658E0,3.148308039E0
7.871104211E0,-3.893929720E-1,-8.742838860E0,3.234039783E0
7.875074523E0,-6.439061761E-1,-8.844410896E0,3.305291176E0
7.879043273E0,-8.307784200E-1,-8.840225220E0,3.195857048E0
7.883015148E0,-1.058984160E0,-8.724480629E0,2.552151918E0
7.886985461E0,-1.033030987E0,-8.680322647E0,2.699663639E0
7.890955773E0,-9.431334734E-1,-8.635425568E0,3.038730383E0
7.894926086E0,-8.762682676E-1,-8.608189583E0,3.168141842E0
7.898896398E0,-7.948654294E-1,-8.585874557E0,3.199371815E0
7.902866711E0,-6.812365651E-1,-8.550527573E0,2.959415197E0
7.906838586E0,-5.992878675E-1,-8.558753967E0,2.737539768E0
7.910808898E0,-5.367991924E-1,-8.560123444E0,2.452486038E0
7.914779211E0,-4.235917330E-1,-8.597799301E0,2.317999125E0
7.918749523E0,-3.459142745E-1,-8.631289482E0,2.245770693E0
7.922719836E0,-3.094840944E-1,-8.648689270E0,2.194831848E0
7.926690148E0,-2.431742698E-1,-8.699666977E0,2.130954266E0
7.930662023E0,-2.817879617E-1,-8.684870720E0,1.756281018E0
7.934630773E0,-1.998583823E-1,-8.739439011E0,1.961004376E0
7.938601086E0,-1.315853298E-1,-8.835140228E0,2.190857410E0
7.942572961E0,-5.400361121E-2,-8.951383591E0,2.471467257E0
7.946543273E0,1.060727164E-1,-9.090304375E0,2.704748869E0
7.950513586E0,2.693668604E-1,-9.194270134E0,3.042944193E0
7.954483898E0,5.206909776E-1,-9.191407204E0,3.429713249E0
7.958454211E0,7.161728144E-1,-9.257430077E0,3.499058723E0
7.962424523E0,9.155139923E-1,-9.359049797E0,3.610982895E0
7.966396398E0,1.098976970E0,-9.457547188E0,3.739896297E0
7.970366711E0,1.222766757E0,-9.528855324E0,3.885109425E0
7.974337023E0,1.373610973E0,-9.558113098E0,4.089066505E0
7.978307336E0,1.492832661E0,-9.555220604E0,4.240734577E0
7.982277648E0,1.621334195E0,-9.533155441E0,4.482328415E0
7.986247961E0,1.676123142E0,-9.491161346E0,4.720743179E0
7.990219836E0,1.664554358E0,-9.349022865E0,4.830378532E0
7.994188586E0,1.626429081E0,-9.189501762E0,4.995607376E0
7.998160461E0,1.611613750E0,-9.048463821E0,5.057176113E0
8.002130773E0,1.517713189E0,-8.832161903E0,5.146470547E0
8.006101086E0,1.432077408E0,-8.661962509E0,5.334807873E0
8.010071398E0,1.344095230E0,-8.483183861E0,5.347794533E0
8.014041711E0,1.202799082E0,-8.209708214E0,5.180104256E0
8.018012023E0,1.039198518E0,-7.904140949E0,4.961465836E0
8.021983898E0,9.049028754E-1,-7.575531960E0,4.783700943E0
8.025954211E0,7.992036939E-1,-7.135918140E0,4.461853504E0
8.029924523E0,6.937917471E-1,-6.705756664E0,4.151708603E0
8.033894836E0,5.358893871E-1,-6.152925968E0,3.763522148E0
8.037865148E0,4.168400764E-1,-5.707470417E0,3.139526367E0
8.041835461E0,3.101449013E-1,-5.402228832E0,2.537642956E0
8.045805773E0,2.052501291E-1,-5.156439781E0,2.145166397E0
8.049777648E0,1.385380924E-1,-5.054418564E0,1.881114721E0
8.053746398E0,1.327537000E-1,-5.082813263E0,1.565376997E0
8.057718273E0,2.605082989E-1,-5.282824993E0,1.263774514E0
8.061688586E0,3.715130687E-1,-5.509517670E0,1.388876438E0
8.065658898E0,6.413491964E-1,-5.781288624E0,1.727100492E0
8.069629211E0,8.904610872E-1,-6.096642971E0,2.194630623E0
8.073599523E0,1.249821186E0,-6.545498371E0,2.880818367E0
8.077569836E0,1.659526467E0,-7.057991505E0,3.634666204E0
8.081541711E0,1.991592765E0,-7.521279335E0,4.272500992E0
8.085512023E0,2.370978117E0,-7.990647793E0,4.907319069E0
8.089482336E0,2.710877895E0,-8.275730133E0,5.447872162E0
8.093452648E0,3.109292269E0,-8.495977402E0,6.058996677E0
8.097422961E0,3.478583574E0,-8.535645485E0,6.564699650E0
8.101393273E0,3.697547674E0,-8.511559486E0,7.028916359E0
8.105365148E0,3.916425467E0,-8.400774956E0,7.568052292E0
8.109335461E0,4.000988960E0,-8.296032906E0,7.943386555E0
8.113304211E0,3.965679169E0,-8.217560768E0,8.190085411E0
8.117276086E0,3.772351980E0,-8.047448158E0,8.285948753E0
8.121246398E0,3.490382195E0,-7.951306820E0,8.357861519E0
8.125216711E0,2.973378181E0,-7.800175190E0,8.093311310E0
8.129188586E0,2.388752460E0,-7.768227100E0,7.500095367E0
8.133157336E0,1.941467762E0,-7.718964100E0,6.971129894E0
8.137127648E0,1.360634446E0,-7.593832970E0,6.402804375E0
8.141099523E0,8.498745561E-1,-7.477695465E0,6.063028336E0
8.145069836E0,2.942186594E-1,-7.300868988E0,5.810411453E0
8.149040148E0,-2.502419651E-1,-7.151643276E0,5.631076336E0
8.153010461E0,-6.439061761E-1,-7.009628773E0,5.518500805E0
8.156980773E0,-1.034965396E0,-6.887304306E0,5.403042793E0
8.160952648E0,-1.435649514E0,-6.851726532E0,5.200215816E0
8.164922961E0,-1.992473722E0,-6.900941372E0,4.885483265E0
8.168893273E0,-2.563069582E0,-7.006440163E0,4.516087055E0
8.172863586E0,-2.963600397E0,-7.074607372E0,4.254084587E0
