"Time (s)","Acceleration x (m/s^2)","Acceleration y (m/s^2)","Acceleration z (m/s^2)"
5.152844000E-3,1.849865556E0,2.667380095E0,7.935457230E0
9.123157000E-3,1.939992905E0,2.613127470E0,7.937477589E0
1.309346900E-2,2.057270527E0,2.567426920E0,8.014140129E0
1.706378200E-2,2.140502453E0,2.607553720E0,8.245161057E0
2.103409400E-2,2.229835033E0,2.717552900E0,8.553870201E0
2.500440700E-2,2.278763056E0,2.849511623E0,8.948357582E0
2.897471900E-2,2.288004398E0,2.939371109E0,9.233353615E0
3.294503200E-2,2.313335180E0,2.963466406E0,9.436429977E0
3.691690700E-2,2.276742220E0,2.962431908E0,9.513589859E0
4.088721900E-2,2.311017513E0,2.938403845E0,9.543957710E0
4.485753200E-2,2.410597086E0,2.904856205E0,9.587781906E0
4.884034400E-2,2.576218605E0,2.890682697E0,9.693892479E0
5.279815700E-2,2.775349140E0,2.868885756E0,9.833618164E0
5.676846900E-2,3.066110373E0,2.820254564E0,1.001360416E1
6.074034400E-2,3.291711092E0,2.791074276E0,1.016643143E1
6.471065700E-2,3.476332903E0,2.725645542E0,1.027714920E1
6.868096900E-2,3.564372540E0,2.684944153E0,1.034781647E1
7.265128200E-2,3.571823359E0,2.682185888E0,1.042062855E1
7.662159400E-2,3.455857754E0,2.737568617E0,1.047563744E1
8.059190700E-2,3.323238134E0,2.853859663E0,1.049205303E1
8.456221900E-2,3.129384518E0,2.981863260E0,1.042377949E1
8.853253200E-2,2.905746937E0,3.120430231E0,1.026681519E1
9.250440700E-2,2.755476952E0,3.183512449E0,1.004819584E1
9.647471900E-2,2.638678551E0,3.181779146E0,9.744410515E0
1.004450320E-1,2.607869864E0,3.099456787E0,9.422504425E0
1.044153440E-1,2.632654428E0,3.023110628E0,9.083667755E0
1.083856570E-1,2.776057720E0,2.903266430E0,8.762748718E0
1.123559690E-1,2.923674583E0,2.783039331E0,8.591477394E0
1.163262820E-1,3.122738123E0,2.708761454E0,8.478089333E0
1.202981570E-1,3.328610897E0,2.629503965E0,8.452873230E0
1.242684690E-1,3.538563013E0,2.515865564E0,8.502470970E0
1.282387820E-1,3.709576130E0,2.425738096E0,8.693777084E0
1.322090940E-1,3.853630304E0,2.361697912E0,8.980152130E0
1.361794070E-1,4.249516487E0,2.364887238E0,9.555489540E0
1.401497190E-1,6.561491489E0,1.843056560E0,1.233406544E1
1.441200320E-1,3.381809711E0,3.580317974E0,1.116915226E1
1.480903440E-1,1.930713058E0,3.951591492E0,9.956613541E0
1.520622190E-1,4.970946789E0,2.033989191E0,1.245123768E1
1.560325320E-1,4.283389568E0,2.154944420E0,1.099046803E1
1.600028440E-1,2.806042671E0,2.533707142E0,8.628817558E0
1.639731570E-1,3.565818548E0,2.115717888E0,8.410447121E0
1.679434690E-1,4.318632126E0,2.115918875E0,8.376669884E0
1.719137820E-1,3.987341881E0,2.599490166E0,7.902694702E0
1.758856570E-1,3.684350729E0,2.985579014E0,7.625446320E0
1.798559690E-1,3.779046297E0,3.134728193E0,7.778397560E0
1.838262820E-1,3.841879606E0,3.293253183E0,8.087842941E0
1.877965940E-1,3.685356379E0,3.588448763E0,8.509347916E0
1.917669070E-1,3.366554022E0,3.801877499E0,8.698901176E0
1.957372190E-1,3.167366028E0,3.840673208E0,8.919569016E0
1.997169070E-1,3.039735794E0,3.768837452E0,9.111393929E0
2.036778440E-1,2.977630377E0,3.639330387E0,9.206902504E0
2.076481570E-1,2.980819225E0,3.503665209E0,9.380462646E0
2.116200320E-1,3.020668507E0,3.404506922E0,9.691699982E0
2.155903440E-1,3.030446529E0,3.367099762E0,9.873362541E0
2.195606570E-1,3.146460056E0,3.552985907E0,1.011011982E1
2.235309690E-1,3.190311909E0,3.835223913E0,1.019759464E1
2.275012820E-1,3.263507605E0,4.027669907E0,1.009465313E1
2.314715940E-1,3.220727921E0,4.011360168E0,9.824741364E0
2.354434690E-1,3.183062553E0,3.922277212E0,9.472400665E0
2.394137820E-1,3.295331240E0,3.675128460E0,9.136293411E0
2.433840940E-1,3.379396439E0,3.437125444E0,8.822212219E0
2.473544070E-1,3.352792263E0,3.090243816E0,8.473683357E0
2.513247190E-1,3.249027491E0,2.813196421E0,8.173747063E0
2.552950320E-1,3.100864649E0,2.554460049E0,7.959044933E0
2.592669070E-1,3.014883995E0,2.315288782E0,7.724872589E0
2.632356570E-1,3.038548231E0,2.142906189E0,7.585932255E0
2.672075320E-1,3.183119774E0,1.972716808E0,7.495038986E0
2.711778440E-1,3.394824743E0,1.860917211E0,7.470627308E0
2.751481570E-1,3.617485523E0,1.822667480E0,7.497452259E0
2.791184690E-1,3.829822540E0,1.884303808E0,7.534658432E0
2.830887820E-1,3.960536480E0,2.047914028E0,7.517831326E0
2.870590940E-1,4.064033031E0,2.390667915E0,7.322043419E0
2.910294070E-1,4.105155945E0,2.678920269E0,7.087747097E0
2.950012820E-1,4.126435757E0,3.007538795E0,6.858363152E0
2.989715940E-1,4.151641369E0,3.374684811E0,6.690462589E0
3.029419070E-1,4.157962322E0,3.717525005E0,6.461940765E0
3.069122190E-1,4.169866085E0,3.950672150E0,6.224321365E0
3.108825320E-1,4.160768032E0,4.187257767E0,5.984699726E0
3.148528440E-1,4.104198456E0,4.369350910E0,5.786967278E0
3.188247190E-1,4.013611317E0,4.483372688E0,5.516987801E0
3.227934690E-1,3.920802355E0,4.551051617E0,5.195781708E0
3.267653440E-1,3.871165514E0,4.557870388E0,4.963065624E0
3.307356570E-1,3.965027809E0,4.504671574E0,4.756435871E0
3.347059690E-1,4.175765514E0,4.421487331E0,4.634915829E0
3.386762820E-1,4.518318176E0,4.273439407E0,4.550170898E0
3.426465940E-1,4.874441624E0,4.138502121E0,4.580797195E0
3.466169070E-1,5.201154232E0,4.048863411E0,4.739532948E0
3.505887820E-1,5.560849667E0,3.929842710E0,5.073523998E0
3.545590940E-1,5.877583027E0,3.819058180E0,5.458186150E0
3.585294070E-1,6.273670197E0,3.654356241E0,5.976444721E0
3.624997190E-1,6.584475994E0,3.554288149E0,6.566098213E0
3.664700320E-1,6.726739883E0,3.543284416E0,7.056804180E0
3.704403440E-1,6.730876446E0,3.622446299E0,7.563800335E0
3.744122190E-1,6.573683262E0,3.820600033E0,7.883004665E0
3.783825320E-1,6.384521961E0,4.002061367E0,8.088925362E0
3.823528440E-1,6.239758968E0,4.204677582E0,8.242364883E0
3.863231570E-1,6.105434418E0,4.325728416E0,8.386208534E0
3.902934690E-1,6.057751656E0,4.346299648E0,8.426297188E0
3.942637820E-1,6.035198212E0,4.301825047E0,8.287758827E0
3.982340940E-1,6.019549847E0,4.182909489E0,8.119695663E0
4.022059690E-1,6.000961304E0,3.923225164E0,7.975411415E0
4.061794070E-1,6.075449944E0,3.596627235E0,7.917596340E0
4.101465940E-1,6.186416149E0,3.238789797E0,7.864933491E0
4.141169070E-1,6.276016712E0,2.793066263E0,7.698067188E0
4.180872190E-1,6.282126427E0,2.501011610E0,7.406922817E0
4.220575320E-1,6.264773369E0,2.195272207E0,6.921407223E0
4.260278440E-1,6.163622856E0,2.072018862E0,6.487156868E0
4.299997190E-1,6.064331055E0,2.057385445E0,5.987553596E0
4.339700320E-1,6.127844334E0,2.123905897E0,5.593161583E0
4.379387820E-1,6.268316746E0,2.256544590E0,5.404670715E0
4.419106570E-1,6.515705109E0,2.376130342E0,5.310750961E0
4.458809690E-1,6.782974720E0,2.529521942E0,5.285459042E0
4.498512820E-1,7.091701984E0,2.794215441E0,5.230765820E0
4.538215940E-1,7.365100384E0,3.067930222E0,5.126560688E0
4.577919070E-1,7.486592293E0,3.343234539E0,5.143789291E0
4.617622190E-1,7.556244373E0,3.616958857E0,5.218220234E0
4.657340940E-1,7.573951721E0,3.851571560E0,5.460704803E0
4.697044070E-1,7.675073147E0,3.974460840E0,5.688948631E0
4.736747190E-1,7.753018856E0,4.107645512E0,5.973447323E0
4.776450320E-1,7.816503525E0,4.235055447E0,6.249872208E0
4.816153440E-1,7.816561222E0,4.435009956E0,6.552288532E0
4.855856570E-1,7.703679085E0,4.536313057E0,6.891106606E0
4.895559690E-1,7.562986374E0,4.606626034E0,7.077308178E0
4.935278440E-1,7.375414848E0,4.570923805E0,7.279637337E0
4.975106570E-1,7.265032768E0,4.472521782E0,7.255848408E0
5.014684690E-1,7.088110924E0,4.311861515E0,7.132614136E0
5.054387820E-1,6.874433041E0,4.155338287E0,7.015441895E0
5.094090940E-1,6.739879131E0,4.048049450E0,6.971168518E0
5.133809690E-1,6.619536400E0,3.889821291E0,6.897436619E0
5.173497190E-1,6.505649567E0,3.733719349E0,6.858880520E0
5.213200320E-1,6.371305943E0,3.555705547E0,6.836489677E0
5.252919070E-1,6.226092815E0,3.351882219E0,6.875093937E0
5.292622190E-1,6.043846130E0,3.233512878E0,6.936806679E0
5.332325320E-1,5.806772232E0,3.135657310E0,7.002532005E0
5.372028440E-1,5.587530136E0,3.096229553E0,6.989804745E0
5.411731570E-1,5.464372635E0,3.087198496E0,6.913755417E0
5.451434690E-1,5.415847301E0,3.091584682E0,6.783185005E0
5.491153440E-1,5.458703041E0,3.137476921E0,6.742129326E0
5.530856570E-1,5.496828556E0,3.193874836E0,6.661090374E0
5.570544070E-1,5.462783337E0,3.249334097E0,6.396329880E0
5.610262820E-1,5.409554958E0,3.305971146E0,6.135974884E0
5.649965940E-1,5.391512394E0,3.370212317E0,5.802951336E0
5.689669070E-1,5.406567097E0,3.434903860E0,5.524955750E0
5.729450320E-1,5.562850952E0,3.424857616E0,5.227854729E0
5.769075320E-1,5.765850544E0,3.367952108E0,5.007616520E0
5.808794070E-1,5.942303181E0,3.298960924E0,4.847099781E0
5.848497190E-1,6.239222527E0,3.227738380E0,4.779784203E0
5.888200320E-1,6.675187588E0,3.162855387E0,4.818149090E0
5.927903440E-1,7.205570221E0,3.081356764E0,4.958008766E0
5.967606570E-1,7.755719662E0,2.858226776E0,5.098289490E0
6.007309690E-1,7.989613533E0,2.726833105E0,5.022546768E0
6.047012820E-1,7.931281567E0,2.674505472E0,4.768694401E0
6.086731570E-1,7.643833637E0,2.745000362E0,4.502717972E0
6.126419070E-1,7.127653122E0,2.920916557E0,4.173601151E0
6.166137820E-1,6.726950169E0,3.154475689E0,3.942685127E0
6.205840940E-1,6.501387596E0,3.389308691E0,3.822017431E0
6.245544070E-1,6.451846600E0,3.600132227E0,3.770791054E0
6.285247190E-1,6.499414921E0,3.820485115E0,3.781708717E0
6.324950320E-1,6.552183151E0,3.910229206E0,3.825187206E0
6.364653440E-1,6.541629314E0,3.932562590E0,3.878826857E0
6.404372190E-1,6.406797409E0,3.905527115E0,3.846342564E0
6.444075320E-1,6.109542847E0,3.839504719E0,3.603168249E0
6.483778440E-1,5.775599480E0,3.742472410E0,3.344565630E0
6.523481570E-1,5.492116928E0,3.706157207E0,3.205740213E0
6.563184690E-1,5.393552303E0,3.436445475E0,3.275536060E0
6.602887820E-1,5.494453430E0,3.005738258E0,3.504067421E0
6.642606570E-1,5.781700134E0,2.344852209E0,3.966770649E0
6.682309690E-1,6.108221531E0,1.831257820E0,4.610217094E0
6.722012820E-1,6.150742531E0,1.767840266E0,5.086596012E0
6.761715940E-1,5.765400410E0,1.948209882E0,4.978110313E0
6.801419070E-1,5.385766029E0,2.116531849E0,4.741908073E0
6.841122190E-1,5.337269306E0,2.209139347E0,4.772314548E0
6.880825320E-1,5.490373611E0,2.231242657E0,5.012596607E0
6.920528440E-1,5.586927414E0,2.246785879E0,5.196624279E0
6.960247190E-1,5.337125301E0,2.435870409E0,5.392431736E0
6.999950320E-1,4.847271919E0,2.772159815E0,5.667927742E0
7.039653440E-1,4.601617336E0,3.053526640E0,6.162397385E0
7.079356570E-1,4.559469700E0,3.366956234E0,6.945770741E0
7.119059690E-1,4.648428917E0,3.542939663E0,7.826224327E0
7.158762820E-1,4.853018284E0,3.535824299E0,8.725026131E0
7.198465940E-1,5.092074394E0,3.349833012E0,9.379591942E0
7.238184690E-1,5.230095387E0,3.134891033E0,9.765288353E0
7.277887820E-1,5.267128944E0,2.850143909E0,1.011013985E1
7.317590940E-1,5.254181385E0,2.623719454E0,1.033548164E1
7.357294070E-1,5.185707092E0,2.411669731E0,1.062752628E1
7.396997190E-1,5.096431732E0,2.233886003E0,1.092833424E1
7.436715940E-1,5.043194294E0,2.042694569E0,1.123809528E1
7.476419070E-1,5.125008583E0,1.753532529E0,1.159302139E1
7.516106570E-1,5.273717880E0,1.516180873E0,1.182694435E1
7.555825320E-1,5.590173721E0,1.258363605E0,1.199890518E1
7.595528440E-1,6.026818275E0,1.036641479E0,1.219634056E1
7.635294070E-1,6.405868530E0,9.794583321E-1,1.236971951E1
7.674934690E-1,6.686430454E0,9.284139276E-1,1.248041821E1
7.714653440E-1,6.870640755E0,8.170357347E-1,1.256901264E1
7.754340940E-1,6.793288708E0,7.212197185E-1,1.243745613E1
7.794059690E-1,6.536275864E0,6.053786874E-1,1.211811829E1
7.833762820E-1,6.336302757E0,4.863485396E-1,1.174922848E1
7.873465940E-1,6.140984058E0,4.373248816E-1,1.121698856E1
7.913169070E-1,6.040120602E0,5.016043782E-1,1.050787258E1
7.952872190E-1,6.080640316E0,6.490967870E-1,9.874176025E0
7.992575320E-1,6.126695156E0,8.511769772E-1,9.106374741E0
8.032278440E-1,6.071935177E0,1.006867170E0,8.366211891E0
8.071997190E-1,5.994870663E0,1.126663446E0,7.571375370E0
8.111684690E-1,5.920352936E0,1.121817589E0,6.799781799E0
8.151403440E-1,5.994717121E0,1.075551987E0,6.206757545E0
8.191106570E-1,6.384856701E0,9.936512113E-1,5.660620689E0
8.230809690E-1,6.973945618E0,8.388229609E-1,5.314380646E0
8.270512820E-1,7.874194145E0,5.372971892E-1,5.050233364E0
8.310215940E-1,8.800012589E0,1.719611287E-1,4.893384457E0
8.349919070E-1,9.413866997E0,-1.226980537E-1,4.667543888E0
8.389637820E-1,9.820411682E0,-3.505015671E-1,4.375010967E0
8.429340940E-1,9.842131615E0,-4.485010207E-1,4.268986225E0
8.469044070E-1,9.607222557E0,-5.837255120E-1,4.492920399E0
8.508747190E-1,9.088475227E0,-7.445583940E-1,4.757786274E0
8.548450320E-1,8.619892120E0,-8.227913976E-1,4.937274933E0
8.588169070E-1,8.323020935E0,-6.941652894E-1,5.120440960E0
8.627872190E-1,8.283946991E0,-3.831872046E-1,5.245906830E0
8.667575320E-1,8.286657333E0,-1.479616668E-2,5.206373692E0
8.707278440E-1,8.270406723E0,4.135743976E-1,5.018438339E0
8.746981570E-1,8.191550255E0,7.459949255E-1,4.843240261E0
8.786684690E-1,8.078495979E0,1.012900591E0,4.543783188E0
8.826434690E-1,7.983638287E0,1.202061653E0,4.248846054E0
8.866090940E-1,8.112063408E0,1.320095778E0,3.999264956E0
8.905794070E-1,8.655211449E0,1.394756556E0,3.739311934E0
8.945497190E-1,9.292413712E0,1.384557247E0,3.640038729E0
8.985215940E-1,9.995965004E0,1.249294400E0,3.586140633E0
9.024919070E-1,1.051126385E1,9.859801531E-1,3.539741039E0
9.064622190E-1,1.090511036E1,6.447872519E-1,3.574868679E0
9.104325320E-1,1.127756119E1,2.097416371E-1,3.702489376E0
9.144028440E-1,1.145319080E1,-1.206390411E-1,3.857116461E0
9.183747190E-1,1.136094666E1,-4.184298515E-1,4.012950420E0
9.223450320E-1,1.101399803E1,-6.149937510E-1,4.085389137E0
9.263153440E-1,1.060685921E1,-6.800203323E-1,4.142572403E0
9.302856570E-1,1.004125309E1,-6.646974683E-1,4.161141396E0
9.342559690E-1,9.680830002E0,-5.529744029E-1,4.148854256E0
9.382262820E-1,9.393583298E0,-3.097043335E-1,4.179164886E0
9.421965940E-1,9.259057999E0,-4.261679016E-3,4.257714272E0
9.461669070E-1,9.150801659E0,2.738009095E-1,4.347056389E0
9.501372190E-1,8.923525810E0,5.248185992E-1,4.462840080E0
9.541090940E-1,8.693336487E0,6.748009920E-1,4.602890968E0
9.580794070E-1,8.568963051E0,7.168048024E-1,4.686419964E0
9.620497190E-1,8.574872017E0,7.255005240E-1,4.769422531E0
9.660200320E-1,8.704082489E0,6.534063816E-1,4.816444397E0
9.699903440E-1,8.897830009E0,5.233341455E-1,4.839706421E0
9.739606570E-1,9.065567970E0,3.347668350E-1,4.782781601E0
9.779309690E-1,9.150256157E0,1.689061373E-1,4.691946030E0
9.819028440E-1,9.132443428E0,-2.149035409E-2,4.554939747E0
9.858731570E-1,8.984740257E0,-1.783680320E-1,4.525156021E0
9.898434690E-1,8.821789742E0,-3.638899326E-1,4.592806816E0
9.938137820E-1,8.672488213E0,-4.843757451E-1,4.742702484E0
9.977840940E-1,8.600297928E0,-5.227883458E-1,4.879977226E0
1.001768469E0,8.577562332E0,-4.811291993E-1,5.039382935E0
1.005724719E0,8.629948616E0,-3.884640336E-1,5.163258553E0
1.009695032E0,8.671472549E0,-2.067919970E-1,5.214159489E0
1.013666907E0,8.680513382E0,-3.462015465E-2,5.236895084E0
1.017637219E0,8.625485420E0,5.456864461E-2,5.204802513E0
1.021607532E0,8.565390587E0,1.886247844E-1,5.136884212E0
1.025577844E0,8.568205833E0,2.669152021E-1,5.012672901E0
1.029548157E0,8.590136528E0,3.134297132E-1,4.873627663E0
1.033518469E0,8.648402214E0,2.128732651E-1,4.190801144E0
1.037490344E0,8.700738907E0,5.360138789E-2,2.832369328E0
1.041460657E0,8.812797546E0,1.185608655E-2,9.037345052E-1
1.045430969E0,8.883819580E0,2.565530837E-1,-6.884670258E-1
1.049401282E0,8.797628403E0,5.866943598E-1,-1.497410417E0
1.053371594E0,8.406798363E0,8.614433408E-1,-1.610924244E0
1.057341907E0,8.014379501E0,8.287672997E-1,-8.426632285E-1
1.061313782E0,7.881750584E0,5.217157006E-1,6.600814462E-1
1.065282532E0,8.271564484E0,1.041669324E-1,2.357043743E0
1.069252844E0,8.776320457E0,-1.913254410E-1,3.595583439E0
1.073224719E0,9.336754799E0,-4.394509196E-1,4.608244419E0
1.077195032E0,9.635799408E0,-5.178467035E-1,5.155472755E0
1.081165344E0,9.761955261E0,-5.016523004E-1,5.483736992E0
1.085135657E0,9.754407883E0,-3.787722886E-1,5.431658268E0
1.089105969E0,9.584228516E0,-1.894771308E-1,5.166533947E0
1.093077844E0,9.351857185E0,6.412629783E-2,4.791917801E0
1.097046594E0,9.215818405E0,2.889418304E-1,4.618290424E0
1.101018469E0,9.070050240E0,5.936566591E-1,4.636294842E0
1.104988782E0,8.763458252E0,8.945216537E-1,4.861350060E0
1.108959094E0,8.429773331E0,1.107203364E0,5.124070168E0
1.112929407E0,8.101835251E0,1.258459449E0,5.420845985E0
1.116899719E0,7.895033360E0,1.295981288E0,5.518577576E0
1.120870032E0,7.818667889E0,1.287036657E0,5.437720776E0
1.124840344E0,7.861485958E0,1.283933759E0,5.326006889E0
1.128812219E0,7.820659637E0,1.308804631E0,5.213575363E0
1.132782532E0,7.659874916E0,1.367117882E0,5.112903595E0
1.136752844E0,7.545729160E0,1.366715670E0,5.046488762E0
1.140723157E0,7.509116650E0,1.290283203E0,5.009838581E0
1.144693469E0,7.539350510E0,1.130168557E0,4.987351894E0
1.148663782E0,7.630330563E0,9.384216666E-1,4.935139179E0
1.152635657E0,7.723158360E0,7.349816561E-1,4.861350060E0
1.156604407E0,7.710076809E0,6.193704009E-1,4.753457546E0
1.160576282E0,7.615122795E0,6.116898060E-1,4.720063686E0
1.164546594E0,7.362946033E0,7.039240003E-1,4.772256851E0
1.168516907E0,7.114466190E0,8.453830481E-1,4.892091274E0
1.172487219E0,6.766751289E0,1.097731948E0,5.257389069E0
1.176459094E0,6.270289421E0,1.464226723E0,5.775772095E0
1.180429407E0,5.778932571E0,1.792117476E0,6.235554695E0
1.184398157E0,5.291224003E0,2.078933001E0,6.672256947E0
1.188370032E0,4.974882603E0,2.216762781E0,6.837533474E0
1.192340344E0,4.701024532E0,2.262980223E0,6.591696739E0
1.196310657E0,4.473354816E0,2.196756601E0,6.144441128E0
1.200280969E0,4.312933922E0,2.114951611E0,5.880197525E0
1.204251282E0,4.279702663E0,1.962373853E0,5.668694019E0
1.208221594E0,4.337632656E0,1.764871478E0,5.490929127E0
1.212193469E0,4.485527515E0,1.510434866E0,5.305387974E0
1.216163782E0,4.596436501E0,1.186911106E0,5.033435345E0
1.220134094E0,4.659451485E0,9.144988656E-1,4.798746586E0
1.224104407E0,4.917278290E0,5.927373171E-1,4.511241436E0
1.228074719E0,5.629716396E0,1.191450506E-1,3.895921707E0
1.232045032E0,5.715447903E0,-1.293635070E-1,3.396251678E0
1.236015344E0,5.490555763E0,-2.461526692E-1,3.227632761E0
1.239988782E0,5.311775684E0,-3.552420735E-1,3.241816044E0
1.243957532E0,5.188455582E0,-4.628470838E-1,3.317606926E0
1.247927844E0,5.114560604E0,-5.090647340E-1,3.572589397E0
1.251898157E0,5.037984371E0,-4.368843436E-1,3.848478079E0
1.255868469E0,4.958362579E0,-2.782253921E-1,4.045473099E0
1.259838782E0,4.971253395E0,-1.512943804E-1,4.267865658E0
1.263809094E0,4.986087799E0,2.000594884E-2,4.960508347E0
1.267780969E0,4.788882256E0,3.401011229E-1,6.075813293E0
1.271751282E0,4.473249912E0,7.253282070E-1,6.985610485E0
1.275721594E0,4.159781933E0,1.129469514E0,7.751936436E0
1.279691907E0,4.114933491E0,1.323744535E0,8.130699158E0
1.283662219E0,4.286511898E0,1.266934991E0,8.220482826E0
1.287632532E0,4.724056721E0,1.016826987E0,8.065443039E0
1.291602844E0,5.255636692E0,7.330949903E-1,7.736489296E0
1.295574719E0,5.854647160E0,4.596771598E-1,7.273920059E0
1.299543469E0,6.317244530E0,2.343444675E-1,6.719011307E0
1.303515344E0,6.560323238E0,2.921883762E-2,6.186425686E0
1.307485657E0,6.746563435E0,-3.199611306E-1,5.542826176E0
1.311455969E0,6.961495399E0,-7.378546596E-1,4.991862774E0
1.315426282E0,7.289740562E0,-1.285743833E0,4.446195126E0
1.319396594E0,7.583786964E0,-1.748887658E0,4.039688587E0
1.323366907E0,7.780571461E0,-2.002807140E0,3.735931396E0
1.327338782E0,7.984566689E0,-2.219290972E0,3.453444242E0
1.331309094E0,8.134185791E0,-2.387938499E0,3.195378065E0
1.335279407E0,8.208233833E0,-2.635604143E0,2.959032297E0
1.339249719E0,8.127232552E0,-2.869508266E0,2.778308392E0
1.343220032E0,7.974051952E0,-3.074107170E0,2.673193216E0
1.347190344E0,7.746621609E0,-3.255587578E0,2.627837420E0
1.351162219E0,7.496034622E0,-3.390620708E0,2.727407455E0
1.355132532E0,7.253148079E0,-3.442086458E0,2.940433979E0
1.359107532E0,6.874433041E0,-3.396673203E0,3.267778873E0
1.363073157E0,6.529782772E0,-3.280372381E0,3.636457205E0
1.367043469E0,6.186712742E0,-3.165441275E0,4.179002285E0
1.371013782E0,6.001009464E0,-3.095166445E0,4.758925915E0
1.374984094E0,5.862720013E0,-3.068447351E0,5.183781624E0
1.378954407E0,5.678625107E0,-2.974220991E0,5.545469284E0
1.382924719E0,5.483555317E0,-2.831861734E0,5.849551678E0
1.386896594E0,5.246634483E0,-2.611853838E0,6.177567005E0
1.390866907E0,5.050252438E0,-2.404659748E0,6.468970299E0
1.394837219E0,4.995348454E0,-2.244008541E0,6.656847954E0
1.398807532E0,5.010959148E0,-2.079277992E0,6.773733139E0
1.402777844E0,5.059876919E0,-2.033318758E0,6.810565472E0
1.406748157E0,5.099783897E0,-2.012939453E0,6.770400524E0
1.410720032E0,5.111707211E0,-2.059157133E0,6.633269787E0
1.414690344E0,5.147772789E0,-2.141785860E0,6.433162689E0
1.418660657E0,5.237210751E0,-2.253796101E0,6.208586216E0
1.422630969E0,5.400188923E0,-2.302609205E0,5.982611656E0
1.426601282E0,5.566174507E0,-2.457705498E0,5.759300232E0
1.430571594E0,5.402564049E0,-3.018590450E0,5.144268036E0
1.434543469E0,5.099783897E0,-3.736956358E0,4.604672432E0
1.438512219E0,4.772736073E0,-4.611117840E0,4.122805595E0
1.442484094E0,4.659490108E0,-5.505390167E0,3.700755835E0
1.446454407E0,4.844284058E0,-6.169762135E0,3.456662178E0
1.450424719E0,5.369801521E0,-6.792263985E0,3.384098768E0
1.454395032E0,5.921981335E0,-7.192498207E0,3.537356377E0
1.458365344E0,6.593765736E0,-7.496915817E0,4.030820370E0
1.462335657E0,7.164466858E0,-7.576125622E0,4.723827362E0
1.466307532E0,7.576164246E0,-7.507124901E0,5.249047756E0
1.470277844E0,7.970661163E0,-7.383785248E0,5.593209267E0
1.474248157E0,8.294070244E0,-7.294356823E0,5.649751186E0
1.478218469E0,8.598009109E0,-7.184281349E0,5.562267303E0
1.482188782E0,8.740799904E0,-7.062569141E0,5.345840931E0
1.486159094E0,8.720429420E0,-6.904417992E0,5.147150517E0
1.490130969E0,8.619585991E0,-6.752137184E0,4.916215420E0
1.494099719E0,8.444014549E0,-6.615112305E0,4.775417328E0
1.498070032E0,8.168039322E0,-6.424476624E0,4.640594959E0
1.502041907E0,7.818572044E0,-6.234865189E0,4.577818871E0
1.506012219E0,7.541668415E0,-6.082325459E0,4.632061958E0
1.509982532E0,7.230192184E0,-6.082670212E0,4.654136658E0
1.513952844E0,7.033810139E0,-6.234749794E0,4.666777611E0
1.517923157E0,6.926683903E0,-6.457458973E0,4.668578625E0
1.521893469E0,6.779699326E0,-6.759329796E0,4.625003815E0
1.525865344E0,6.605564117E0,-6.963142872E0,4.603273869E0
1.529835657E0,6.496072769E0,-7.179741859E0,4.546225071E0
1.533805969E0,6.572361469E0,-7.362093925E0,4.524294376E0
1.537776282E0,6.765315056E0,-7.508522987E0,4.498906136E0
1.541746594E0,7.304249287E0,-7.734027863E0,4.523576260E0
1.545716907E0,8.035688400E0,-7.916896820E0,4.573882580E0
1.549688782E0,8.933312416E0,-8.023812294E0,4.700938702E0
1.553657532E0,9.603487015E0,-7.969674587E0,4.838777542E0
1.557627844E0,9.996453285E0,-7.811763287E0,4.861828804E0
1.561599719E0,1.018837166E1,-7.525780201E0,4.718378067E0
1.565570032E0,1.021574211E1,-7.248570442E0,4.468863964E0
1.569540344E0,1.022359562E1,-6.975956440E0,4.024298668E0
1.573512219E0,1.034117031E1,-6.847349644E0,3.583660126E0
1.577480969E0,1.033460045E1,-6.835570335E0,3.296787024E0
1.581452844E0,1.027567387E1,-6.872125149E0,3.169262171E0
1.585423157E0,1.025445175E1,-6.965039253E0,3.088146687E0
1.589393469E0,1.030177116E1,-7.088589191E0,3.005460501E0
1.593363782E0,1.046894360E1,-7.242469788E0,2.865868807E0
1.597338782E0,1.064906406E1,-7.395162106E0,2.699022055E0
1.601304407E0,1.070720482E1,-7.504443169E0,2.472185612E0
1.605274719E0,1.066185951E1,-7.598430157E0,2.245617390E0
1.609246594E0,1.053400898E1,-7.644121170E0,2.068666935E0
1.613215344E0,1.024558353E1,-7.634381294E0,1.849358082E0
1.617187219E0,9.922386169E0,-7.588603973E0,1.706788063E0
1.621157532E0,9.741374969E0,-7.565054893E0,1.639568448E0
1.625127844E0,9.736117363E0,-7.598343849E0,1.717849255E0
1.629098157E0,9.793069839E0,-7.632762909E0,1.870934606E0
1.633068469E0,9.915241241E0,-7.647922993E0,2.047195673E0
1.637038782E0,1.001463985E1,-7.652366638E0,2.156332970E0
1.641009094E0,1.009768009E1,-7.685061932E0,2.251861572E0
1.644980969E0,1.016926670E1,-7.790990829E0,2.321839333E0
1.648951282E0,1.021677780E1,-7.916054249E0,2.294995546E0
1.652921594E0,1.029321861E1,-8.113068581E0,2.234134912E0
1.656891907E0,1.040553570E1,-8.353081703E0,2.100107431E0
1.660862219E0,1.057274723E1,-8.623588562E0,1.914183497E0
1.664832532E0,1.052115631E1,-8.797111511E0,1.620893717E0
1.668802844E0,1.034982681E1,-8.853776932E0,1.254475474E0
1.672773157E0,1.018052864E1,-8.877891541E0,7.693623900E-1
1.676745032E0,9.971103668E0,-8.850625992E0,3.178925216E-1
1.680715344E0,9.731491089E0,-8.801066399E0,-2.851973101E-2
1.684685657E0,9.474804878E0,-8.772910118E0,-3.409343362E-1
1.688655969E0,9.248513222E0,-8.733473778E0,-5.074270964E-1
1.692626282E0,8.977298737E0,-8.684085846E0,-6.363883615E-1
1.696596594E0,8.789459229E0,-8.655019760E0,-7.460811138E-1
1.700568469E0,8.743537903E0,-8.617910385E0,-8.192670941E-1
1.704538782E0,8.694764137E0,-8.533250809E0,-9.415437579E-1
1.708509094E0,8.612508774E0,-8.506320953E0,-1.089074492E0
1.712479407E0,8.571730614E0,-8.507068634E0,-1.381559730E0
1.716449719E0,8.712394714E0,-8.594493866E0,-1.456852555E0
1.720420032E0,8.861754417E0,-8.697168350E0,-1.456364155E0
1.724390344E0,9.319401741E0,-8.958365440E0,-1.577271342E0
1.728362219E0,9.669116974E0,-9.163318634E0,-1.669620514E0
1.732330969E0,9.834030151E0,-9.285595894E0,-1.665301442E0
1.736302844E0,1.004278469E1,-9.366921425E0,-1.490850210E0
1.740273157E0,1.028625679E1,-9.346877098E0,-1.309111238E0
1.744243469E0,1.053004360E1,-9.276200294E0,-1.121003509E0
1.748213782E0,1.083927917E1,-9.236485481E0,-9.831932783E-1
1.752184094E0,1.115515995E1,-9.244338036E0,-8.554961681E-1
1.756155969E0,1.148733234E1,-9.282683372E0,-6.433411241E-1
1.760126282E0,1.164733219E1,-9.274151802E0,-4.095616937E-1
1.764096594E0,1.169800282E1,-9.204402924E0,-1.758780479E-1
1.768066907E0,1.153445053E1,-9.012665749E0,-1.740776151E-1
1.772037219E0,1.125393581E1,-8.745884895E0,-2.873808146E-1
1.776007532E0,1.082980728E1,-8.296550751E0,-2.567158937E-1
1.779977844E0,1.044872761E1,-7.930716515E0,-8.860461414E-2
1.783949719E0,9.960779190E0,-7.550603390E0,1.490055323E-1
1.787918469E0,9.410744667E0,-7.233908176E0,3.204973936E-1
1.791890344E0,8.911228180E0,-7.035198689E0,3.704308867E-1
1.795860657E0,8.355400085E0,-6.881663799E0,3.901591301E-1
1.799830969E0,7.775256157E0,-6.794122219E0,4.187267125E-1
1.803801282E0,6.978130817E0,-6.764098644E0,5.310243368E-1
1.807771594E0,6.341981888E0,-6.808333874E0,6.909186840E-1
1.811741907E0,6.106507301E0,-6.878244400E0,7.998357415E-1
1.815712219E0,6.287652493E0,-6.976675034E0,8.083303571E-1
1.819684094E0,6.714318275E0,-6.987765312E0,6.158652902E-1
1.823654407E0,7.358971596E0,-6.884009838E0,7.453628629E-2
1.827624719E0,7.856237888E0,-6.723923683E0,-7.896938920E-1
1.831595032E0,8.193513870E0,-6.783874512E0,-1.543934464E0
1.835565344E0,8.488766670E0,-7.178956509E0,-2.064759493E0
1.839537219E0,8.832612038E0,-7.776797771E0,-2.186892509E0
1.843505969E0,9.169007301E0,-8.400889397E0,-2.143835306E0
1.847476282E0,9.492166519E0,-9.096769333E0,-2.090626478E0
1.851448157E0,9.602884293E0,-9.558314323E0,-2.113821507E0
1.855418469E0,9.472141266E0,-9.855951309E0,-2.228714705E0
1.859388782E0,9.178794861E0,-9.898203850E0,-2.298500776E0
1.863359094E0,8.892649651E0,-9.828542709E0,-2.301124811E0
1.867329407E0,8.372591019E0,-9.630226135E0,-2.234814882E0
1.871299719E0,7.836011410E0,-9.417056084E0,-2.207913637E0
1.875271594E0,7.047141075E0,-9.122530937E0,-2.309016228E0
1.879241907E0,6.165021420E0,-8.820487976E0,-2.453903675E0
1.883212219E0,5.369926453E0,-8.587167740E0,-2.467789888E0
1.887182532E0,4.425930500E0,-8.363320351E0,-2.282440424E0
1.891152844E0,3.652067423E0,-8.196799278E0,-2.122038364E0
1.895123157E0,2.825895548E0,-8.020115852E0,-2.025178671E0
1.899095032E0,2.150357008E0,-7.899678230E0,-2.123254538E0
1.903065344E0,1.728699803E0,-7.863420486E0,-2.313813925E0
1.907035657E0,1.435189843E0,-7.960413933E0,-2.604527473E0
1.911005969E0,1.395714283E0,-8.162551880E0,-2.832512856E0
1.914976282E0,1.627089858E0,-8.420905113E0,-2.916281223E0
1.918946594E0,2.063112259E0,-8.785025597E0,-3.003315449E0
1.922918469E0,2.492488623E0,-9.048607826E0,-3.069826126E0
1.926887219E0,2.860055923E0,-9.277195930E0,-3.264752626E0
1.930859094E0,2.984487295E0,-9.396130562E0,-3.575069904E0
1.934829407E0,2.863044024E0,-9.408455849E0,-3.841247559E0
1.938799719E0,2.608501911E0,-9.389273643E0,-3.937408447E0
1.942770032E0,2.321168900E0,-9.367621422E0,-3.776173353E0
1.946740344E0,1.976729512E0,-9.360007286E0,-3.410473347E0
1.950710657E0,1.662983775E0,-9.423501015E0,-3.143328428E0
1.954680969E0,1.534348130E0,-9.518301964E0,-3.054618359E0
1.958652844E0,1.530546188E0,-9.598191261E0,-3.168285370E0
1.962623157E0,1.501729488E0,-9.476986885E0,-3.425240755E0
1.966593469E0,1.469924927E0,-9.260398865E0,-3.833499908E0
1.970565344E0,1.438867331E0,-8.937899590E0,-4.282412529E0
1.974534094E0,1.498952270E0,-8.736709595E0,-4.665552139E0
1.978504407E0,2.135838509E0,-8.789861679E0,-5.088080883E0
1.982474719E0,2.899138927E0,-8.914130211E0,-5.551473618E0
1.986445032E0,3.711539268E0,-9.016975403E0,-6.155683994E0
1.990416907E0,4.006112099E0,-8.915528297E0,-6.656024456E0
1.994387219E0,4.185074329E0,-8.792456627E0,-6.789592266E0
1.998357532E0,4.456423283E0,-8.582858086E0,-6.783032417E0
2.002327844E0,4.741055489E0,-8.287539482E0,-6.873609543E0
2.006298157E0,4.852405071E0,-7.960184574E0,-7.102696419E0
2.010268469E0,4.960048199E0,-7.587972164E0,-7.299690723E0
2.014240344E0,4.899369717E0,-7.210387230E0,-7.211009979E0
2.018210657E0,4.772764683E0,-6.827937603E0,-6.815162182E0
2.022179407E0,4.761713028E0,-6.681029320E0,-6.002368927E0
2.026151282E0,4.934564590E0,-6.822182178E0,-4.143156052E0
2.030121594E0,5.323843002E0,-7.061171532E0,-1.818712234E0
2.034091907E0,5.693593979E0,-7.261690617E0,-6.481295824E-1
2.038063782E0,6.027239799E0,-7.366364956E0,-2.969097197E-1
2.042032532E0,6.160396099E0,-7.352688789E0,-5.370577574E-1
2.046002844E0,6.028973103E0,-7.193426609E0,-8.017702699E-1
2.049974719E0,5.685846329E0,-7.010146141E0,-1.351498127E0
2.053945032E0,5.384549618E0,-6.798738003E0,-1.786131978E0
2.057915344E0,5.094956875E0,-6.641180038E0,-2.269684076E0
2.061885657E0,4.977018356E0,-6.489349842E0,-2.450034380E0
2.065855969E0,4.959904671E0,-6.352046967E0,-2.352130890E0
2.069827844E0,5.058574677E0,-6.194211483E0,-1.991458654E0
2.073798157E0,5.170221329E0,-6.048165321E0,-1.478735566E0
2.077768469E0,5.389424801E0,-5.986825466E0,-1.100145221E0
2.081738782E0,5.613205910E0,-5.943184376E0,-6.280661821E-1
2.085709094E0,5.608781338E0,-5.901208878E0,-4.582502246E-1
2.089679407E0,5.206067085E0,-5.915066719E0,-5.839266181E-1
2.093649719E0,3.099993229E0,-5.936499596E0,-2.342458248E0
2.097620032E0,1.982159495E0,-5.919165611E0,-2.240158796E0
2.101590344E0,1.933030486E0,-6.034029961E0,-1.292629480E0
2.105562219E0,1.757794142E0,-6.011763573E0,-7.960433364E-1
2.109532532E0,1.577529907E0,-5.944343090E0,-6.380739212E-1
2.113502844E0,1.520308495E0,-5.857826233E0,-6.635865569E-1
2.117473157E0,1.399047017E0,-5.740644455E0,-6.811312437E-1
2.121443469E0,1.418162227E0,-5.683767796E0,-1.162384868E0
2.125413782E0,1.429970503E0,-5.721146107E0,-1.368094683E0
2.129385657E0,1.422893167E0,-5.834114075E0,-1.695793986E0
2.133355969E0,1.416563034E0,-6.061486721E0,-2.124097347E0
2.137326282E0,1.355300188E0,-6.354211330E0,-2.534013510E0
2.141296594E0,1.244266629E0,-6.750556946E0,-3.069251776E0
2.145266907E0,1.086728096E0,-7.082431793E0,-3.603895903E0
2.149237219E0,8.643260002E-1,-7.535453320E0,-4.093232632E0
2.153207532E0,5.739572048E-1,-7.963210583E0,-4.552085876E0
2.157177844E0,3.303327858E-1,-8.294214249E0,-4.772754669E0
2.161149719E0,1.161666680E-2,-8.715564728E0,-4.885301590E0
2.165120032E0,-2.206400484E-1,-9.144001961E0,-4.798191071E0
2.169090344E0,-3.194152117E-1,-9.456130028E0,-4.795135975E0
2.173060657E0,-3.976960480E-1,-9.660470009E0,-4.891689301E0
2.177030969E0,-4.026664197E-1,-9.810328484E0,-5.051736832E0
2.181001282E0,-5.129433870E-1,-9.952917099E0,-5.157608509E0
2.184971594E0,-5.557229519E-1,-9.986377716E0,-4.969002724E0
2.188943469E0,-5.575712919E-1,-9.917760849E0,-4.679946423E0
2.192920032E0,-7.929691672E-1,-9.683607101E0,-4.312704086E0
2.196884094E0,-1.147761106E0,-9.339790344E0,-4.005585670E0
2.200854407E0,-1.641608238E0,-8.923822403E0,-3.656798363E0
2.204824719E0,-2.210863352E0,-8.480300903E0,-3.420203447E0
2.208795032E0,-2.715944052E0,-8.169370651E0,-3.268190622E0
2.212766907E0,-3.392286777E0,-7.939239979E0,-3.148288965E0
2.216737219E0,-3.911378622E0,-7.767432213E0,-3.126386881E0
2.220705969E0,-4.374043465E0,-7.758975506E0,-3.053890467E0
2.224679407E0,-4.699578762E0,-7.906841278E0,-2.949436188E0
2.228648157E0,-4.840415001E0,-8.082556725E0,-2.911914349E0
2.232618469E0,-4.776221752E0,-8.353255272E0,-2.850584507E0
2.236588782E0,-4.593055725E0,-8.678129196E0,-2.850249290E0
2.240559094E0,-4.389576912E0,-8.799390793E0,-2.900431633E0
2.244529407E0,-4.184011459E0,-9.024416924E0,-3.154734135E0
2.248501282E0,-4.097101688E0,-9.551026344E0,-3.569879055E0
2.252471594E0,-3.850048780E0,-9.228736877E0,-3.533257484E0
2.256441907E0,-3.683833838E0,-9.167915344E0,-3.551577806E0
2.260412219E0,-3.504297256E0,-8.986722946E0,-3.509861231E0
2.264382532E0,-3.350704432E0,-8.792591095E0,-3.506308317E0
2.268352844E0,-3.394403219E0,-8.590606689E0,-3.417358875E0
2.272324719E0,-3.489127636E0,-8.517592430E0,-3.515875816E0
2.276295032E0,-3.743267298E0,-8.730657578E0,-3.672293663E0
2.280265344E0,-3.584914684E0,-8.096758842E0,-3.967891455E0
2.284235657E0,-3.431092024E0,-7.956372738E0,-3.777513981E0
2.288205969E0,-3.046679258E0,-7.958086967E0,-3.621105433E0
2.292176282E0,-2.887158155E0,-8.580617905E0,-3.316304445E0
2.296146594E0,-2.750784397E0,-9.338076591E0,-3.304151535E0
2.300116907E0,-2.195674658E0,-9.376689911E0,-3.464725733E0
2.304088782E0,-1.911645532E0,-9.228402138E0,-3.349794626E0
2.308059094E0,-2.185915709E0,-9.281783104E0,-3.129949570E0
2.312029407E0,-2.901590586E0,-9.254269600E0,-3.178130388E0
2.315999719E0,-3.270776272E0,-9.300592422E0,-3.387402773E0
2.319970032E0,-3.026931524E0,-9.116698265E0,-3.760744810E0
2.323940344E0,-2.887905359E0,-9.222867012E0,-3.760936499E0
2.327912219E0,-2.629293203E0,-9.549666405E0,-3.861023664E0
2.331882532E0,-2.206074953E0,-9.716006279E0,-4.101161957E0
2.335851282E0,-1.694376588E0,-1.002638054E1,-4.306106091E0
2.339823157E0,-1.329720497E0,-1.021725559E1,-4.451117516E0
2.343793469E0,-9.287299514E-1,-1.013191700E1,-4.727992535E0
2.347763782E0,-5.924212933E-1,-9.759628296E0,-4.836316586E0
2.351735657E0,-3.000413477E-1,-9.336304665E0,-4.648275375E0
2.355704407E0,-4.143884405E-2,-8.511597633E0,-4.052588463E0
2.359674719E0,-3.625108600E-1,-8.131484985E0,-3.359649181E0
2.363646594E0,-8.014159203E-1,-7.854954720E0,-2.599720001E0
2.367616907E0,-1.335792065E0,-7.772440434E0,-2.265757561E0
2.371587219E0,-2.145099401E0,-7.779709339E0,-2.198126316E0
2.375557532E0,-1.633209467E0,-7.938071251E0,-2.354314327E0
2.379527844E0,-1.754777431E0,-8.193715096E0,-2.261620283E0
2.383498157E0,-2.367357969E0,-8.511722565E0,-2.108362675E0
2.387470032E0,-2.821298599E0,-8.923151016E0,-2.065324545E0
2.391440344E0,-3.583631516E0,-9.251952171E0,-2.156438351E0
2.395410657E0,-5.023647785E0,-9.605364799E0,-2.533525229E0
2.399380969E0,-5.483439922E0,-1.004023838E1,-3.141719341E0
2.403351282E0,-5.843394279E0,-1.031441212E1,-3.651530981E0
2.407321594E0,-5.874786854E0,-1.045121670E1,-4.078206539E0
2.411293469E0,-5.715907574E0,-1.044741535E1,-4.309332848E0
2.415262219E0,-5.319801331E0,-1.031175041E1,-4.400648117E0
2.419234094E0,-4.636007786E0,-1.014023972E1,-4.431236267E0
2.423204407E0,-4.038980007E0,-9.863632202E0,-4.445812702E0
2.427174719E0,-3.432672262E0,-9.522429466E0,-4.367742062E0
2.431154407E0,-2.783565998E0,-9.315168381E0,-4.198098660E0
2.435115344E0,-2.070017338E0,-9.325281143E0,-4.078015327E0
2.439085657E0,-1.352819681E0,-9.488574982E0,-4.052521706E0
2.443057532E0,-9.996558428E-1,-9.635848045E0,-4.056150913E0
2.447027844E0,-8.421556354E-1,-9.754226685E0,-4.020458698E0
2.450998157E0,-9.123440385E-1,-9.878734589E0,-3.815993547E0
2.454968469E0,-1.123187065E0,-1.002970314E1,-3.499700546E0
2.458938782E0,-1.472864985E0,-1.016939068E1,-3.130667686E0
2.462909094E0,-1.804960012E0,-1.038300228E1,-2.889925957E0
2.466879407E0,-2.232439995E0,-1.063950729E1,-2.720876217E0
2.470849719E0,-2.737444162E0,-1.082631111E1,-2.608166695E0
2.474820032E0,-3.185724735E0,-1.100571346E1,-2.563031197E0
2.478791907E0,-3.457236767E0,-1.113359356E1,-2.578315973E0
2.482777844E0,-3.418785810E0,-1.114370632E1,-2.586590052E0
2.486732532E0,-3.142514229E0,-1.098577499E1,-2.587308407E0
2.490702844E0,-2.772140980E0,-1.073616505E1,-2.569026470E0
2.494673157E0,-2.456307411E0,-1.046842670E1,-2.565693617E0
2.498643469E0,-2.172843456E0,-1.018927288E1,-2.565626383E0
2.502615344E0,-2.083520412E0,-9.913527489E0,-2.512216806E0
2.506585657E0,-2.046094418E0,-9.612796783E0,-2.473593473E0
2.510571594E0,-1.965495944E0,-9.511885643E0,-2.517005205E0
2.514526282E0,-1.821001053E0,-9.517450333E0,-2.602908850E0
2.518496594E0,-1.585756302E0,-9.571089745E0,-2.740891695E0
2.522466907E0,-1.336041093E0,-9.667269707E0,-2.810926676E0
2.526437219E0,-1.007575870E0,-9.908068657E0,-2.822016954E0
2.530407532E0,-7.130603194E-1,-1.026331043E1,-2.818712950E0
2.534377844E0,-4.889821708E-1,-1.052605057E1,-2.849511623E0
2.538349719E0,-2.391711771E-1,-1.074669075E1,-2.917574167E0
2.542320032E0,-1.388636976E-2,-1.083699989E1,-2.924325943E0
2.546290344E0,1.022036821E-1,-1.084735298E1,-2.799051523E0
2.550274719E0,1.332516968E-1,-1.087745190E1,-2.542278290E0
2.554230969E0,1.262893528E-1,-1.093605232E1,-2.287554502E0
2.558201282E0,2.761376202E-1,-1.121328259E1,-2.036670685E0
2.562173157E0,5.995081067E-1,-1.170557785E1,-2.162538767E0
2.566143469E0,6.689590812E-1,-1.198223209E1,-2.356172085E0
2.570113782E0,6.080697775E-1,-1.215195274E1,-2.691973448E0
2.574084094E0,2.763579190E-1,-1.209928989E1,-2.823539495E0
2.578054407E0,-1.406641454E-1,-1.189148235E1,-2.851465464E0
2.582024719E0,-6.062310338E-1,-1.161896515E1,-3.013189077E0
2.585995032E0,-1.263985276E0,-1.129891777E1,-2.940635204E0
2.589966907E0,-2.121473312E0,-1.085807800E1,-2.924009800E0
2.593937219E0,-2.414763212E0,-1.070138264E1,-2.968743086E0
2.597907532E0,-2.007643461E0,-1.079829025E1,-3.048699856E0
2.601877844E0,-1.859423161E0,-1.063823318E1,-3.133186579E0
2.605848157E0,-2.519361019E0,-1.007921600E1,-3.131520033E0
2.609818469E0,-3.140972376E0,-9.504434586E0,-3.226091146E0
2.613788782E0,-3.229471684E0,-9.236121178E0,-3.261745453E0
2.617759094E0,-2.962479830E0,-9.246569633E0,-3.380450010E0
2.621730969E0,-2.557505369E0,-9.379304886E0,-3.422530413E0
2.625701282E0,-2.413882017E0,-9.201692581E0,-3.350321293E0
2.629671594E0,-2.321887255E0,-8.847551346E0,-3.538093805E0
2.633641907E0,-2.170267344E0,-8.449243546E0,-3.458874464E0
2.637612219E0,-1.940816522E0,-7.998884201E0,-3.503282309E0
2.641582532E0,-1.474540949E0,-7.583873749E0,-3.639684677E0
2.645554407E0,-1.184181809E0,-7.134203911E0,-3.408730268E0
2.649523157E0,7.784028351E-2,-7.205321312E0,-3.253739357E0
2.653495032E0,1.878394842E0,-7.570341110E0,-3.005824566E0
2.657465344E0,2.016157150E0,-7.012760162E0,-2.980723619E0
2.661435657E0,2.176453829E0,-6.174024105E0,-2.846677065E0
2.665405969E0,2.546683550E0,-5.649693489E0,-2.631026506E0
2.669376282E0,3.731985807E0,-5.471488476E0,-2.400752306E0
2.673346594E0,3.985148668E0,-4.762660980E0,-2.163793325E0
2.677318469E0,3.987973928E0,-4.205252647E0,-1.797518849E0
2.681288782E0,4.159389019E0,-3.764317036E0,-1.298902392E0
2.685259094E0,4.126483440E0,-3.315289259E0,-9.902514219E-1
2.689229407E0,3.052798510E0,-2.704413652E0,-7.563091516E-1
2.693199719E0,2.449680090E0,-2.649844885E0,-7.688930631E-1
2.697170032E0,1.314684987E0,-2.366697073E0,-8.584936857E-1
2.701141907E0,-8.777717948E-1,-2.222029686E0,-1.126175046E0
2.705112219E0,-2.291882992E0,-2.610790730E0,-1.470547318E0
2.709082532E0,-6.706743240E0,-2.766059637E0,-1.412358761E0
2.713052844E0,-1.449372196E1,-3.419887304E0,-2.449814320E0
2.717023157E0,-1.947526932E1,-4.804166794E0,-4.004560947E0
2.720993469E0,-2.031396866E1,-7.205752373E0,-6.025698185E0
2.724963782E0,-1.727513313E1,-8.911822319E0,-6.985974312E0
2.728934094E0,-1.355016613E1,-9.187615395E0,-6.818542957E0
2.732904407E0,-9.903548241E0,-8.003902435E0,-5.700077057E0
2.736876282E0,-7.314305305E0,-6.498600483E0,-4.573834896E0
2.740846594E0,-5.221236706E0,-5.526018620E0,-3.488639116E0
2.744816907E0,-3.985311508E0,-4.707431793E0,-3.173859119E0
2.748787219E0,-3.283523083E0,-4.701120377E0,-2.781803608E0
2.752757532E0,-2.918081760E0,-5.075391769E0,-2.384452343E0
2.756727844E0,-2.784628868E0,-5.515244484E0,-2.215498447E0
2.760699719E0,-2.648916006E0,-5.985561371E0,-1.981374264E0
2.764670032E0,-2.311132669E0,-6.345218658E0,-1.865427852E0
2.768640344E0,-1.616191506E0,-6.895674229E0,-1.951178551E0
2.772610657E0,-4.872104824E-1,-7.902349949E0,-2.295598984E0
2.776580969E0,5.421909094E-1,-8.979127884E0,-2.679494858E0
2.780551282E0,1.415940404E0,-1.007621765E1,-3.349727631E0
2.784521594E0,1.740393043E0,-1.115620422E1,-4.121215820E0
2.788491907E0,1.591445088E0,-1.178077412E1,-4.926912785E0
2.792463782E0,4.791851342E-1,-1.211813641E1,-5.342833519E0
2.796434094E0,-9.515802860E-1,-1.197561550E1,-5.561481476E0
2.800404407E0,-1.978788614E0,-1.189091778E1,-5.515627861E0
2.804374719E0,-3.185638666E0,-1.155102730E1,-4.790472031E0
2.808345032E0,-3.867449760E0,-1.150030899E1,-4.520626545E0
2.812315344E0,-3.991191626E0,-1.194839764E1,-4.674228668E0
2.816285657E0,-4.064157486E0,-1.190330124E1,-4.138291359E0
2.820257532E0,-3.496099710E0,-1.182327652E1,-3.350216150E0
2.824226282E0,-2.355348587E0,-1.127597141E1,-2.295340300E0
2.828198157E0,-1.256850600E0,-1.046591759E1,-1.956005335E0
2.832168469E0,-4.959732294E-1,-9.449579239E0,-1.718557954E0
2.836138782E0,3.322194144E-2,-8.636211395E0,-1.617225885E0
2.840110657E0,2.378783077E-1,-8.258377075E0,-1.361783624E0
2.844080969E0,3.747212887E-1,-8.047324181E0,-1.153746724E0
2.848049719E0,4.210347235E-1,-8.122635841E0,-9.403275251E-1
2.852021594E0,6.388783455E-1,-8.559988976E0,-8.081963062E-1
2.855991907E0,1.077333212E0,-9.385758400E0,-9.893128872E-1
2.859962219E0,2.009204388E0,-1.047349358E1,-1.291518569E0
2.863932532E0,2.642327070E0,-1.177944374E1,-1.786802292E0
2.867902844E0,3.004292250E0,-1.268779373E1,-2.020878553E0
2.871873157E0,3.018705368E0,-1.320355320E1,-2.322538614E0
2.875845032E0,2.420652866E0,-1.308902454E1,-2.684216022E0
2.879815344E0,1.748878121E0,-1.295989037E1,-2.940242529E0
2.883785657E0,8.916486502E-1,-1.270762825E1,-3.444020748E0
2.887755969E0,-1.802259237E-1,-1.230492306E1,-3.398895025E0
2.891726282E0,-7.120929956E-1,-1.200895214E1,-3.346385241E0
2.895696594E0,-8.508896828E-1,-1.130016327E1,-3.271609545E0
2.899668469E0,-8.494723439E-1,-1.082244301E1,-2.914308548E0
2.903637219E0,-7.132710218E-1,-1.060250187E1,-2.952242136E0
2.907609094E0,-6.312647462E-1,-1.049575901E1,-2.850038528E0
2.911579407E0,-5.683260560E-1,-1.036200905E1,-2.869814634E0
2.915549719E0,-4.837245047E-1,-1.010199928E1,-2.707114220E0
2.919520032E0,-2.341529280E-1,-1.008557415E1,-2.764565468E0
2.923490344E0,3.044658601E-1,-1.020333099E1,-2.793975830E0
2.927460657E0,4.804109633E-1,-1.022733021E1,-2.818262577E0
2.931432532E0,2.298625112E-1,-1.005210304E1,-2.700362444E0
2.935401282E0,3.987207711E-1,-9.800836563E0,-2.753858566E0
2.939373157E0,8.808076978E-1,-1.001536751E1,-2.761759520E0
2.943343469E0,1.154991627E0,-1.026120377E1,-2.656491280E0
2.947313782E0,1.250165939E0,-1.034002018E1,-2.545850277E0
2.951284094E0,1.152482510E0,-1.014170456E1,-2.400072336E0
2.955254407E0,9.343707561E-1,-9.934700966E0,-2.274022579E0
2.959224719E0,5.908889771E-1,-9.798519135E0,-2.173351049E0
2.963195032E0,2.809931040E-1,-9.851134300E0,-2.093652725E0
2.967166907E0,-1.778891981E-1,-9.924569130E0,-2.055335999E0
2.971137219E0,-5.515761971E-1,-9.892535210E0,-2.057921648E0
2.975107532E0,-6.533967853E-1,-9.784202576E0,-2.100605488E0
2.979087219E0,-6.890895367E-1,-9.722259521E0,-2.241489887E0
2.983048157E0,-7.440699935E-1,-9.671473503E0,-2.289144039E0
2.987018469E0,-6.905547976E-1,-9.548651695E0,-2.357580185E0
2.990990344E0,-6.935427785E-1,-9.377216339E0,-2.420260191E0
2.994960657E0,-6.646591425E-1,-9.219332695E0,-2.429540157E0
2.998929407E0,-6.564230919E-1,-8.797866821E0,-2.529292345E0
3.002901282E0,-4.645517468E-1,-8.725523949E0,-2.643754244E0
3.006871594E0,-2.927725613E-1,-8.793156624E0,-2.839350939E0
3.010841907E0,-8.030152321E-2,-8.974425316E0,-2.981029987E0
3.014812219E0,1.718270779E-1,-9.147900581E0,-3.140713930E0
3.018782532E0,5.230277181E-1,-9.315972328E0,-3.207224607E0
3.022752844E0,7.995867133E-1,-9.641651154E0,-3.202187300E0
3.026724719E0,1.130225897E0,-1.021315765E1,-3.211792946E0
3.030695032E0,1.363497972E0,-1.060018444E1,-3.138003588E0
3.034665344E0,1.436846733E0,-1.091253185E1,-3.016789913E0
3.038635657E0,1.338837624E0,-1.104133034E1,-2.866165876E0
3.042605969E0,1.137868285E0,-1.102035713E1,-2.694607019E0
3.046576282E0,8.941769004E-1,-1.085282993E1,-2.526830912E0
3.050548157E0,7.807587385E-1,-1.072127342E1,-2.428027153E0
3.054518469E0,7.214879394E-1,-1.068467045E1,-2.352724552E0
3.058487219E0,5.943461657E-1,-1.069156647E1,-2.297849417E0
3.062459094E0,4.740806520E-1,-1.070636272E1,-2.196373463E0
3.066429407E0,4.041699767E-1,-1.070515537E1,-2.019940138E0
3.070401282E0,3.489979804E-1,-1.059204388E1,-1.806109190E0
3.074370032E0,1.218074039E-1,-1.036022758E1,-1.677808762E0
3.078340344E0,-2.584109902E-1,-9.998081207E0,-1.486186266E0
3.082312219E0,-2.510847151E-1,-1.009082222E1,-1.361343145E0
3.086282532E0,-4.031931460E-1,-1.030404091E1,-1.266331553E0
3.090252844E0,-7.382664680E-1,-1.040612984E1,-1.224375606E0
3.094223157E0,-1.011674762E0,-1.033702374E1,-1.234584451E0
3.098193469E0,-1.142177820E0,-1.020726776E1,-1.259761810E0
3.102163782E0,-1.026547432E0,-1.025264168E1,-1.243548393E0
3.106134094E0,-9.209823608E-1,-1.032907391E1,-1.294774652E0
3.110105969E0,-7.703871131E-1,-1.047030354E1,-1.570107937E0
3.114076282E0,-5.661808252E-1,-1.060471344E1,-1.712639570E0
3.118046594E0,-2.302838862E-1,-1.071907139E1,-1.675098419E0
3.122016907E0,1.572415978E-1,-1.078563976E1,-1.718644142E0
3.125987219E0,3.769814074E-1,-1.084275532E1,-1.765158653E0
3.129957532E0,7.004764080E-1,-1.098598671E1,-1.829601049E0
3.133927844E0,9.269773960E-1,-1.111674786E1,-1.802766800E0
3.137899719E0,9.931052923E-1,-1.123250294E1,-1.817103267E0
3.141870032E0,9.382684827E-1,-1.117546272E1,-1.958064318E0
3.145846594E0,6.578212976E-1,-1.068254471E1,-2.058735847E0
3.149810657E0,4.247601032E-1,-1.003486538E1,-2.153172493E0
3.153780969E0,5.022556186E-1,-9.425425529E0,-2.147340298E0
3.157751282E0,1.103861094E0,-8.313041687E0,-1.806243181E0
3.161721594E0,9.996558428E-1,-7.833243847E0,-1.744673967E0
3.165693469E0,9.565793276E-1,-7.724499226E0,-1.988623857E0
3.169663782E0,5.249239206E-1,-7.720678329E0,-2.463729143E0
3.173632532E0,-1.238664165E-1,-7.728445053E0,-2.861501932E0
3.177604407E0,-7.707509995E-1,-7.835226059E0,-3.164808989E0
3.181574719E0,-1.141076565E0,-7.861255646E0,-3.052185774E0
3.185545032E0,-1.169711232E0,-7.776213646E0,-2.672791004E0
3.189516907E0,-9.185976982E-1,-7.745405197E0,-2.144716263E0
3.193485657E0,-5.668511987E-1,-7.836308479E0,-1.805362225E0
3.197457532E0,-1.380113661E-1,-8.096424103E0,-1.533514857E0
3.201427844E0,5.907932296E-2,-8.499464035E0,-1.399621606E0
3.205398157E0,2.294411361E-1,-8.963345528E0,-1.413574934E0
3.209368469E0,1.998871118E-1,-9.493364334E0,-1.390284181E0
3.213338782E0,-1.951753162E-2,-9.703497887E0,-1.291786790E0
3.217309094E0,-1.049617976E-1,-9.555134773E0,-1.114663720E0
3.221279407E0,2.555283606E-1,-8.237968445E0,-9.450584650E-1
3.225251282E0,-2.381368726E-1,-8.346962929E0,-6.338984370E-1
3.229221594E0,-7.160483003E-1,-8.829202652E0,-5.007520914E-1
3.233191907E0,-6.057617664E-1,-9.297441483E0,-5.356978178E-1
3.237162219E0,-4.183723629E-1,-9.598038673E0,-5.293483734E-1
3.241132532E0,-1.237227693E-1,-9.599360466E0,-7.185190916E-1
3.245104407E0,2.802173607E-2,-9.468626976E0,-9.970700741E-1
3.249074719E0,5.629247054E-2,-9.390040398E0,-1.316044807E0
3.253043469E0,-2.633621730E-2,-9.343927383E0,-1.370067477E0
3.257015344E0,-4.158249497E-2,-9.284599304E0,-1.363603234E0
3.260985657E0,-7.548438758E-2,-9.253627777E0,-1.345924497E0
3.264968469E0,-1.270938069E-1,-9.257726669E0,-1.380611539E0
3.268926282E0,-7.018841803E-2,-9.302545547E0,-1.443406701E0
3.272896594E0,1.102482006E-1,-9.397912025E0,-1.557456851E0
3.276868469E0,1.842769235E-1,-9.491113663E0,-1.647574663E0
3.280838782E0,1.516008526E-1,-9.473884583E0,-1.707247853E0
3.284809094E0,6.035303324E-2,-9.447338104E0,-1.779801607E0
3.288779407E0,-1.271799952E-2,-9.459451675E0,-1.765225649E0
3.292749719E0,-1.213381346E-2,-9.557279587E0,-1.615674257E0
3.296720032E0,-4.063438997E-2,-9.628157616E0,-1.356056690E0
3.300690344E0,-1.121444106E-1,-9.606878281E0,-1.070198655E0
3.304660657E0,1.863263547E-1,-9.737984657E0,-7.943195105E-1
3.308632532E0,3.667533994E-1,-9.761974335E0,-6.240247488E-1
3.312602844E0,5.066992640E-1,-9.728293419E0,-5.279789567E-1
3.316573157E0,6.240151525E-1,-9.812952042E0,-5.253453255E-1
3.320543469E0,7.207792401E-1,-1.004462433E1,-5.707681179E-1
3.324513782E0,6.888597608E-1,-1.021396065E1,-6.099851131E-1
3.328484094E0,5.966255069E-1,-9.998579025E0,-5.128667355E-1
3.332454407E0,5.478795171E-1,-9.512900352E0,-3.433859944E-1
3.336424719E0,5.027057528E-1,-9.251990318E0,-2.579512894E-1
3.340396594E0,4.366162121E-1,-9.255829811E0,-2.572330236E-1
3.344366907E0,3.328419328E-1,-9.366786957E0,-3.424857855E-1
3.348337219E0,1.665406674E-1,-9.437905312E0,-5.151364207E-1
3.352307532E0,-9.782707691E-2,-9.490108490E0,-8.396561146E-1
3.356277844E0,-4.315787852E-1,-9.408475876E0,-1.117833614E0
3.360248157E0,-8.162504435E-1,-9.247086525E0,-1.258296609E0
3.364220032E0,-8.836040497E-1,-9.144911766E0,-1.143164277E0
3.368190344E0,-7.277989984E-1,-9.162044525E0,-8.811045289E-1
3.372159094E0,-3.941717744E-1,-9.248399734E0,-5.911954641E-1
3.376140344E0,7.691133767E-2,-9.483519554E0,-3.464984298E-1
3.380101282E0,6.578691602E-1,-9.895858765E0,-2.475125790E-1
3.384084094E0,1.384949923E0,-1.056034470E1,-8.613379300E-2
3.388041907E0,2.068532705E0,-1.132031250E1,1.243069582E-2
3.392012219E0,2.133367777E0,-1.153254414E1,-4.247313738E-2
3.395982532E0,1.133194804E0,-1.056095791E1,-2.636207640E-1
3.399954407E0,6.300198436E-1,-9.926475525E0,-4.046200812E-1
3.403924719E0,6.032621861E-1,-9.760996819E0,-4.998039603E-1
3.407895032E0,6.506099105E-1,-9.846642494E0,-5.105491281E-1
3.411865344E0,6.654253006E-1,-9.903605461E0,-5.258241296E-1
3.415835657E0,6.889554858E-1,-9.771349907E0,-5.497757792E-1
3.419807532E0,7.519421577E-1,-9.597128868E0,-5.929863453E-1
3.423777844E0,8.791987300E-1,-9.413291931E0,-6.408703327E-1
3.427748157E0,9.715383053E-1,-9.321240425E0,-6.575818658E-1
3.431718469E0,1.011866331E0,-9.235939026E0,-5.852578282E-1
3.435688782E0,8.940715194E-1,-9.117781639E0,-5.505802035E-1
3.439659094E0,7.514728904E-1,-9.074934959E0,-5.562496781E-1
3.443629407E0,6.065470576E-1,-9.012454987E0,-5.070344806E-1
3.447601282E0,5.384176373E-1,-8.979147911E0,-4.413279891E-1
3.451570032E0,6.045933962E-1,-8.889326096E0,-3.327269852E-1
3.455541907E0,6.856131554E-1,-8.652540207E0,-1.711662710E-1
3.459512219E0,8.632246256E-1,-8.323173523E0,-1.523669958E-1
3.463482532E0,1.111608624E0,-7.757146358E0,-2.581236959E-1
3.467452844E0,1.185445905E0,-7.219111919E0,-4.543811679E-1
3.471423157E0,1.212892890E0,-6.871176720E0,-5.247706771E-1
3.475393469E0,1.345905304E0,-6.360397816E0,-7.391570807E-1
3.479363782E0,1.324548960E0,-6.326754570E0,-9.194213152E-1
3.483335657E0,1.335705876E0,-6.436840057E0,-9.820440412E-1
3.487305969E0,1.253105998E0,-6.703104019E0,-1.051121593E0
3.491276282E0,1.051217437E0,-7.128821850E0,-1.083338022E0
3.495246594E0,7.944152951E-1,-7.791029453E0,-1.124240518E0
3.499216907E0,6.799533367E-1,-8.355208397E0,-9.552481771E-1
3.503188782E0,6.673693657E-1,-8.811677933E0,-7.828752398E-1
3.507157532E0,4.302667975E-1,-9.419804573E0,-7.248398066E-1
3.511127844E0,3.756981194E-1,-1.009952831E1,-6.767258644E-1
3.515099719E0,4.626363814E-1,-1.065632343E1,-8.006402254E-1
3.519070032E0,4.508951902E-1,-1.094714260E1,-8.874635696E-1
3.523040344E0,2.894302607E-1,-1.156642723E1,-8.152161241E-1
3.527010657E0,4.061045051E-1,-1.190933418E1,-9.843807817E-1
3.530980969E0,5.398158431E-1,-1.227108765E1,-1.035291195E0
3.534951282E0,7.700902224E-1,-1.277270222E1,-9.814119935E-1
3.538923157E0,6.150799990E-1,-1.321471977E1,-7.328364253E-1
3.542893469E0,5.772707462E-1,-1.334022331E1,-5.318671465E-1
3.546863782E0,4.406959116E-1,-1.318258953E1,-3.444873095E-1
3.550834094E0,2.336549312E-1,-1.294041157E1,-2.049149275E-1
3.554804407E0,7.006391883E-2,-1.270829773E1,-1.805419624E-1
3.558774719E0,8.728302270E-2,-1.247338867E1,-2.824391723E-1
3.562746594E0,4.120900109E-2,-1.221590614E1,-3.643304706E-1
3.566715344E0,-2.366907746E-1,-1.180850029E1,-3.141479790E-1
3.570687219E0,-5.639781356E-1,-1.128409290E1,-2.843737006E-1
3.574657532E0,-7.262858748E-1,-1.047503376E1,-3.338762224E-1
3.578627844E0,-5.341272354E-1,-9.985363007E0,-5.620914698E-1
3.582598157E0,-1.550006270E-1,-9.700327873E0,-8.428356051E-1
3.586568469E0,4.772314429E-1,-9.546525002E0,-1.176280856E0
3.590538782E0,9.139146805E-1,-9.530311584E0,-1.472558618E0
3.594510657E0,1.170285821E0,-9.571980476E0,-1.734503388E0
3.598480969E0,1.146248102E0,-9.580617905E0,-1.646492600E0
3.602451282E0,1.039763570E0,-9.467247963E0,-1.548224807E0
3.606421594E0,1.037972689E0,-9.338871002E0,-1.797365427E0
3.610391907E0,1.261993289E0,-9.094987869E0,-2.482519150E0
3.614362219E0,1.268725872E0,-9.158137321E0,-2.019997597E0
3.618332532E0,1.150318146E0,-9.553257942E0,-8.038867116E-1
3.622309094E0,1.274912357E0,-9.716791153E0,-2.502419651E-1
3.626273157E0,1.645860434E0,-9.437262535E0,-2.333676368E-1
3.630245032E0,1.717054486E0,-8.810269356E0,-6.746668816E-1
3.634215344E0,9.782612324E-1,-8.861103058E0,-8.569135070E-1
3.638185657E0,5.363777876E-1,-9.023459435E0,-7.852119803E-1
3.642155969E0,6.523050666E-1,-9.165914536E0,-7.548343539E-1
3.646126282E0,9.292950630E-1,-9.235182762E0,-7.710286975E-1
3.650096594E0,1.087637901E0,-9.281333923E0,-7.929978967E-1
3.654068469E0,1.126012206E0,-9.361080170E0,-8.294568062E-1
3.658038782E0,1.045567036E0,-9.502280235E0,-7.951239347E-1
3.662009094E0,1.014471173E0,-9.635369301E0,-7.410246134E-1
3.665979407E0,1.213955998E0,-9.677621841E0,-8.531402349E-1
3.669949719E0,1.303939700E0,-9.575695992E0,-1.084774494E0
3.673920032E0,1.167633057E0,-9.502499580E0,-1.232678652E0
3.677891907E0,1.018110394E0,-9.432053566E0,-1.342122436E0
3.681860657E0,9.314689040E-1,-9.502653122E0,-1.354562759E0
3.685830969E0,9.050465822E-1,-9.718916893E0,-1.304744124E0
3.689802844E0,9.443784952E-1,-9.909667969E0,-1.266973257E0
3.693773157E0,1.079823256E0,-1.000722694E1,-1.316370368E0
3.697743469E0,1.189401150E0,-9.885591507E0,-1.311802268E0
3.701713782E0,1.313918710E0,-9.797063828E0,-1.071156263E0
3.705684094E0,1.425804615E0,-9.654378891E0,-8.185775876E-1
3.709654407E0,1.425459862E0,-9.570687294E0,-6.141797304E-1
3.713626282E0,1.301037908E0,-9.637341499E0,-5.836776495E-1
3.717596594E0,9.652655125E-1,-9.753718376E0,-7.365331054E-1
3.721566907E0,4.955327213E-1,-9.780179977E0,-9.373969436E-1
3.725537219E0,2.576160990E-2,-9.362688065E0,-9.755701423E-1
3.729507532E0,-3.193482161E-1,-8.505162239E0,-9.202449322E-1
3.733479407E0,-3.914902806E-1,-7.862922192E0,-9.242576361E-1
3.737449719E0,-6.996335983E-1,-6.891603947E0,-8.708956242E-1
3.741420032E0,-9.821685553E-1,-5.784142017E0,-7.405744791E-1
3.745390344E0,-1.124115944E0,-4.687694073E0,-6.064895988E-1
3.749368469E0,-1.204024911E0,-3.606616020E0,-5.983014703E-1
3.753330969E0,-1.065027118E0,-3.063821554E0,-6.761225462E-1
3.757301282E0,-7.799926400E-1,-2.952003002E0,-9.510535002E-1
3.761271594E0,-4.474954605E-1,-3.175669193E0,-1.109722018E0
3.765241907E0,-9.352709353E-2,-3.575481653E0,-1.250797987E0
3.769213782E0,3.226521909E-1,-4.118898392E0,-1.390370369E0
3.773184094E0,6.848566532E-1,-4.696437359E0,-1.422768712E0
3.777154407E0,9.129474163E-1,-5.232278824E0,-1.441165805E0
3.781124719E0,1.133147001E0,-6.011150837E0,-1.468603253E0
3.785095032E0,1.383685827E0,-6.738471031E0,-1.382239580E0
3.789065344E0,1.549690127E0,-7.597223282E0,-1.413067341E0
3.793035657E0,1.661652565E0,-8.236484528E0,-1.130503774E0
3.797007532E0,1.603320360E0,-8.647521019E0,-9.831932783E-1
3.800976282E0,1.308584452E0,-8.669652939E0,-9.526050091E-1
3.804948157E0,1.042923808E0,-8.686124802E0,-9.708679318E-1
3.808918469E0,7.740262747E-1,-8.883091927E0,-1.093201995E0
3.812888782E0,5.298464298E-1,-8.879021645E0,-1.393090248E0
3.816859094E0,3.955604136E-1,-8.915010452E0,-1.551816106E0
3.820830969E0,2.781392038E-1,-9.100744247E0,-1.552965403E0
3.824799719E0,-2.905603126E-2,-9.543163300E0,-1.394651294E0
3.828771594E0,-7.684046626E-1,-1.015159702E1,-1.052222848E0
3.832741907E0,-1.472386122E0,-1.041828251E1,-1.197043300E0
3.836712219E0,-1.780232668E0,-1.045370674E1,-1.309092045E0
3.840682532E0,-1.900967360E0,-1.030815887E1,-1.355606556E0
3.844652844E0,-1.966827154E0,-1.022060776E1,-1.287218571E0
3.848623157E0,-1.829993606E0,-1.052443123E1,-1.128588438E0
3.852595032E0,-1.247024775E0,-1.132368374E1,-8.465226889E-1
3.856565344E0,-6.229425669E-1,-1.198773956E1,-8.323585987E-1
3.860534094E0,4.013639688E-2,-1.256203079E1,-8.784613013E-1
3.864505969E0,5.419802070E-1,-1.307131672E1,-9.460352659E-1
3.868476282E0,1.147732377E0,-1.345114231E1,-1.007020354E0
3.872446594E0,1.788229227E0,-1.369330215E1,-1.166598797E0
3.876418469E0,2.255328417E0,-1.389219284E1,-1.205585957E0
3.880387219E0,2.605839491E0,-1.366299152E1,-1.582021475E0
3.884357532E0,3.454900265E0,-1.277433014E1,-2.083424807E0
3.888329407E0,4.257953644E0,-1.177680111E1,-2.286692381E0
3.892299719E0,4.549069405E0,-1.142520714E1,-1.857431293E0
3.896270032E0,4.472349644E0,-1.166782570E1,-1.863378406E0
3.900240344E0,4.381187916E0,-1.200410557E1,-1.332947850E0
3.904210657E0,3.482998610E0,-1.313038635E1,-5.584523082E-1
3.908180969E0,2.083175898E0,-1.416242123E1,-5.258241296E-1
3.912152844E0,8.748700619E-1,-1.511524582E1,-6.934661865E-1
3.916123157E0,1.789426357E-1,-1.562237740E1,-5.363011956E-1
3.920093469E0,-3.105375469E-1,-1.574286270E1,-3.305530846E-1
3.924063782E0,-6.977661252E-1,-1.546523190E1,-2.999647558E-1
3.928034094E0,-9.999048710E-1,-1.489464474E1,-4.580012262E-1
3.932004407E0,-7.454012036E-1,-1.319003963E1,-5.371534824E-1
3.935974719E0,1.340657175E-1,-1.162858963E1,-6.434081793E-1
3.939945032E0,6.739390492E-1,-1.100288010E1,-8.447893262E-1
3.943916907E0,9.047305584E-1,-1.068914318E1,-1.231337905E0
3.947887219E0,6.741210222E-1,-1.032532978E1,-1.496060014E0
3.951857532E0,-5.390497446E-1,-8.484552383E0,-1.679551601E0
3.955827844E0,-1.635536671E0,-7.580090523E0,-1.723614454E0
3.959798157E0,-2.734963655E0,-6.110950470E0,-1.587872982E0
3.963768469E0,-1.664956570E0,-7.560917377E0,-1.630815268E0
3.967740344E0,-7.163164020E-1,-8.936597824E0,-1.746838212E0
3.971710657E0,7.163451612E-2,-9.919637680E0,-1.857584476E0
3.975680969E0,3.901207745E-1,-1.018763447E1,-1.987541795E0
3.979651282E0,4.255932868E-1,-1.013884068E1,-2.073953390E0
3.983621594E0,3.885406256E-1,-9.941817284E0,-1.953563213E0
3.987591907E0,4.495257139E-1,-9.636488914E0,-1.604718447E0
3.991563782E0,7.955740690E-1,-9.304949760E0,-1.049349904E0
3.995534094E0,7.870028019E-1,-9.219448090E0,-1.414628386E0
3.999502844E0,5.769738555E-1,-9.302814484E0,-1.740986824E0
4.003474719E0,3.121368587E-1,-9.318328857E0,-1.818405747E0
4.007445032E0,2.331090569E-1,-9.299327850E0,-1.669141650E0
4.011415344E0,2.154111117E-1,-9.237069130E0,-1.513355732E0
4.015385657E0,2.143576592E-1,-9.219045639E0,-1.457589984E0
4.019355969E0,2.400618196E-1,-9.222158432E0,-1.489499927E0
4.023326282E0,3.176626861E-1,-9.253034592E0,-1.482566237E0
4.027298157E0,3.695881367E-1,-9.284358978E0,-1.472290397E0
4.031268469E0,4.048690796E-1,-9.329629898E0,-1.469082117E0
4.035238782E0,4.407150447E-1,-9.414671898E0,-1.468047857E0
4.039209094E0,4.193204939E-1,-9.491037369E0,-1.481024384E0
4.043179407E0,3.926490843E-1,-9.636240005E0,-1.480095506E0
4.047149719E0,5.170230865E-1,-1.017436123E1,-1.334911108E0
4.051121594E0,5.485307574E-1,-1.047973728E1,-1.124968410E0
4.055090344E0,4.387230873E-1,-1.022917843E1,-1.035003781E0
4.059060657E0,3.970544040E-1,-9.845751762E0,-1.077515244E0
4.063032532E0,3.411641419E-1,-9.720411301E0,-1.099292994E0
4.067002844E0,2.347658426E-1,-9.641603470E0,-1.058304191E0
4.070973157E0,7.584831119E-2,-9.384447098E0,-1.033069372E0
4.074945032E0,-1.755907536E-1,-8.918688774E0,-1.066118956E0
4.078913782E0,-3.894695640E-1,-8.468980789E0,-1.129249096E0
4.082885657E0,-6.010212302E-1,-7.960107803E0,-1.276712894E0
4.086855969E0,-6.627629399E-1,-7.427225590E0,-1.617053390E0
4.090826282E0,-5.839170814E-1,-6.963525772E0,-1.916453123E0
4.094796594E0,-5.364639759E-1,-6.302199841E0,-1.959654093E0
4.098766907E0,-7.722353935E-1,-5.244154453E0,-1.828250766E0
4.102737219E0,-1.104809165E0,-4.592720509E0,-1.710465550E0
4.106707532E0,-1.551423550E0,-3.759844780E0,-1.816394687E0
4.110679407E0,-1.647603393E0,-3.222269773E0,-2.271743059E0
4.114648157E0,-1.543972731E0,-2.864039898E0,-2.926978588E0
4.118620032E0,-1.135876298E0,-3.025600672E0,-3.171215773E0
4.122590344E0,-7.404212356E-1,-3.372501135E0,-3.180457592E0
4.126560657E0,-1.918425858E-1,-3.951227665E0,-2.904453754E0
4.130530969E0,2.624523938E-1,-4.631927967E0,-2.491904259E0
4.134501282E0,6.059916019E-1,-5.198626041E0,-2.111944675E0
4.138471594E0,8.164610863E-1,-5.782092571E0,-1.987637520E0
4.142441907E0,9.270253181E-1,-6.350878239E0,-1.847662926E0
4.146413782E0,9.663572311E-1,-6.993568420E0,-2.038835049E0
4.150384094E0,9.022884369E-1,-7.533078194E0,-2.272087812E0
4.154354407E0,6.221476793E-1,-7.809033871E0,-2.468843222E0
4.158324719E0,3.715992570E-1,-8.139452934E0,-2.477184772E0
4.162295032E0,2.882906199E-1,-8.454261780E0,-2.150165558E0
4.166266907E0,2.088031173E-1,-8.815306664E0,-2.085330486E0
4.170235657E0,9.441774338E-2,-9.012445450E0,-2.090070963E0
4.174205969E0,8.119216561E-2,-9.339598656E0,-2.010219574E0
4.178177844E0,2.098278403E-1,-1.002488708E1,-1.745957255E0
4.182148157E0,3.272203505E-1,-1.041951752E1,-1.731841087E0
4.186118469E0,3.467761874E-1,-1.119657993E1,-1.828126192E0
4.190088782E0,2.260413617E-1,-1.165269470E1,-2.031911135E0
4.194059094E0,2.197589874E-1,-1.207909298E1,-2.155107260E0
4.198029407E0,3.970544040E-2,-1.277832413E1,-2.170544863E0
4.202001282E0,-4.626555368E-2,-1.334256077E1,-2.116139174E0
4.205971594E0,-2.456163615E-1,-1.384771824E1,-1.982418180E0
4.209941907E0,-3.702489436E-1,-1.409489536E1,-1.752057672E0
4.213912219E0,-4.560475349E-1,-1.410528660E1,-1.673527837E0
4.217882532E0,-7.664127350E-1,-1.434395885E1,-1.513422728E0
4.221852844E0,-9.647195935E-1,-1.473888779E1,-1.552879214E0
4.225824719E0,-9.854726195E-1,-1.494332314E1,-1.628210306E0
4.229795032E0,-7.680120468E-1,-1.498796082E1,-1.726094961E0
4.233765344E0,-5.006850362E-1,-1.512227631E1,-1.678766370E0
4.237735657E0,-1.091851741E-1,-1.516599369E1,-1.652928114E0
4.241705969E0,2.880703509E-1,-1.488127518E1,-1.677818179E0
4.245676282E0,6.467792392E-1,-1.464734268E1,-1.704336405E0
4.249646594E0,1.019757509E0,-1.443649006E1,-1.725309610E0
4.253616907E0,1.176481962E0,-1.393770123E1,-1.744329214E0
4.257588782E0,1.034936786E0,-1.224472332E1,-1.854931712E0
4.261559094E0,9.844956994E-1,-1.155268383E1,-2.005258799E0
4.265529407E0,1.099455714E0,-1.147900963E1,-2.134277582E0
4.269499719E0,1.155068278E0,-1.146918392E1,-2.234269142E0
4.273470032E0,1.127870083E0,-1.143737030E1,-2.306468487E0
4.277440344E0,1.074910402E0,-1.127455425E1,-2.276205778E0
4.281410657E0,1.013216496E0,-1.104371452E1,-2.120822191E0
4.285382532E0,1.025819659E0,-1.092754841E1,-2.033452988E0
4.289352844E0,9.438613057E-1,-1.074656582E1,-2.101802826E0
4.293323157E0,7.831146121E-1,-1.051238346E1,-2.195004225E0
4.297293469E0,4.366066158E-1,-1.007280827E1,-2.316715717E0
4.301263782E0,2.858389616E-1,-1.012134361E1,-2.393923998E0
4.305234094E0,2.949752212E-1,-1.032034969E1,-2.264349937E0
4.309204407E0,3.665044010E-1,-1.036713314E1,-2.044629097E0
4.313174719E0,2.920542955E-1,-1.021766758E1,-1.899894834E0
4.317146594E0,1.522424966E-1,-9.913968086E0,-1.902815819E0
4.321116907E0,-2.690125071E-2,-9.594705582E0,-1.783632278E0
4.325087219E0,-4.182000160E-1,-8.817366600E0,-1.734168172E0
4.329057532E0,-1.875291944E0,-5.790099144E0,-1.078185678E0
4.333027844E0,-3.039975405E0,-3.527262449E0,-1.271962762E0
4.336998157E0,-2.676028013E0,-3.129863262E0,-2.090003967E0
4.340970032E0,-1.484615684E0,-4.934229374E0,-2.627444744E0
4.344940344E0,-7.668723464E-1,-6.917825699E0,-3.162204027E0
4.348910657E0,-2.487479895E-1,-8.640731812E0,-3.328227758E0
4.352880969E0,-2.122220397E-2,-9.488307953E0,-3.217127085E0
4.356851282E0,2.897941694E-2,-9.558065414E0,-2.950010777E0
4.360821594E0,-1.859528571E-1,-9.242825508E0,-2.847711325E0
4.364791907E0,-2.832436562E-1,-9.130125046E0,-2.777944326E0
4.368763782E0,-1.742595881E-1,-9.223451614E0,-2.647718906E0
4.372732532E0,-2.347275428E-2,-9.293821335E0,-2.548713923E0
4.376704407E0,2.082955465E-2,-9.246665955E0,-2.504670143E0
4.380674719E0,9.997228533E-2,-9.314229965E0,-2.439490557E0
4.384645032E0,1.691264063E-1,-9.386688232E0,-2.307426214E0
4.388615344E0,1.722771823E-1,-9.375702858E0,-2.159522057E0
4.392585657E0,1.245463714E-1,-9.395402908E0,-2.021175623E0
4.396557532E0,1.284345537E-1,-9.443985939E0,-1.905813217E0
4.400527844E0,1.252933592E-1,-9.465552330E0,-1.759537101E0
4.404498157E0,1.474923939E-1,-9.572248459E0,-1.670118570E0
4.408468469E0,1.789234728E-1,-9.762002945E0,-1.596750617E0
4.412438782E0,2.062844187E-1,-9.870823860E0,-1.538906574E0
4.416409094E0,2.488628924E-1,-9.904784203E0,-1.478046060E0
4.420379407E0,2.585450411E-1,-9.736585617E0,-1.462244272E0
4.424349719E0,8.167100698E-2,-9.247086525E0,-1.419972301E0
4.428320032E0,-7.037995011E-2,-8.810327530E0,-1.428658485E0
4.432291907E0,-8.576031029E-2,-8.496734619E0,-1.494958758E0
4.436262219E0,-1.153047569E-2,-8.298140526E0,-1.605206966E0
4.440232532E0,-8.054094389E-3,-7.938885689E0,-1.750793457E0
4.444202844E0,-1.541291326E-1,-7.311240673E0,-1.789072037E0
4.448173157E0,-4.007414877E-1,-6.526076794E0,-1.819507122E0
4.452143469E0,-5.939248204E-1,-5.726872921E0,-1.953840971E0
4.456124719E0,-5.728654265E-1,-5.220068455E0,-2.031288624E0
4.460085657E0,-5.778262615E-1,-4.818531990E0,-2.150088787E0
4.464055969E0,-5.007328987E-1,-4.258902073E0,-2.473104954E0
4.468026282E0,-2.122699320E-1,-4.071397305E0,-2.701454401E0
4.471996594E0,1.357991248E-1,-3.942273378E0,-3.007328033E0
4.475966907E0,5.286014676E-1,-4.421065807E0,-3.032237291E0
4.479938782E0,9.517238736E-1,-5.108211517E0,-3.024336338E0
4.483907532E0,1.177353501E0,-5.927526474E0,-2.952098608E0
4.487877844E0,1.341739416E0,-6.883185863E0,-2.720722914E0
4.491849719E0,1.315920234E0,-7.878896713E0,-2.438398600E0
4.495820032E0,1.131193280E0,-8.531019211E0,-2.326972485E0
4.499790344E0,8.879327774E-1,-9.033188820E0,-2.162203550E0
4.503760657E0,3.793469071E-1,-9.877518654E0,-2.014701605E0
4.507730969E0,-5.846640468E-2,-1.064953327E1,-1.824573278E0
4.511704407E0,-6.397115588E-1,-1.145869732E1,-1.596894264E0
4.515673157E0,-1.072573662E0,-1.259681416E1,-1.590353251E0
4.519643469E0,-1.505952835E0,-1.346067047E1,-1.690000057E0
4.523613782E0,-2.053736687E0,-1.389607143E1,-1.825099945E0
4.527584094E0,-2.520337820E0,-1.382922459E1,-1.992962241E0
4.531554407E0,-2.900393248E0,-1.341652203E1,-2.132783651E0
4.535524719E0,-2.963063955E0,-1.328957272E1,-1.966865420E0
4.539496594E0,-2.698715448E0,-1.306620216E1,-2.172259331E0
4.543465344E0,-2.216590405E0,-1.316059208E1,-2.377384663E0
4.547435657E0,-1.817371488E0,-1.309964466E1,-2.532835484E0
4.551407532E0,-1.456411958E0,-1.304236603E1,-2.683009624E0
4.555377844E0,-9.239607453E-1,-1.293283558E1,-2.857881784E0
4.559348157E0,-4.887044430E-1,-1.271934986E1,-2.881584406E0
4.563318469E0,-6.401137263E-2,-1.249526215E1,-2.885003328E0
4.567288782E0,9.984778613E-2,-1.201806927E1,-2.801187277E0
4.571260657E0,2.290293276E-1,-1.145474243E1,-2.718328714E0
4.575232532E0,3.054043651E-1,-1.122142220E1,-2.694760323E0
4.579201282E0,3.023397923E-1,-1.118990517E1,-2.589855909E0
4.583171594E0,3.304572999E-1,-1.120856094E1,-2.320527315E0
4.587141907E0,3.367396891E-1,-1.122423840E1,-2.021453142E0
4.591112219E0,3.910689056E-1,-1.117433262E1,-1.772915840E0
4.595082532E0,3.848823011E-1,-1.109439564E1,-1.355472565E0
4.599052844E0,3.987590969E-1,-1.099467182E1,-1.469015121E0
4.603023157E0,3.920936286E-1,-1.076443672E1,-1.615348697E0
4.606995032E0,3.996497095E-1,-1.050247288E1,-1.770301461E0
4.610965344E0,3.974470496E-1,-1.032419014E1,-1.898056030E0
4.614935657E0,4.049073756E-1,-1.020198059E1,-2.063351870E0
4.618905969E0,3.912413120E-1,-1.011426640E1,-2.153431177E0
4.622876282E0,3.054713905E-1,-1.001227379E1,-2.278188229E0
4.626846594E0,1.850909442E-1,-9.775429726E0,-2.404410601E0
4.630818469E0,1.055459902E-1,-9.588950157E0,-2.497554779E0
4.634788782E0,-6.703764666E-4,-9.407412529E0,-2.557993889E0
4.638759094E0,3.988740221E-2,-9.366595268E0,-2.484214067E0
4.642729407E0,1.642422378E-2,-9.228019714E0,-2.551471949E0
4.646699719E0,-1.831947267E-1,-9.020126343E0,-2.977917671E0
4.650670032E0,-3.906858265E-1,-8.843845367E0,-3.357264757E0
4.654641907E0,-5.821549296E-1,-8.702386856E0,-3.701100588E0
4.658612219E0,-7.050062418E-1,-8.568933487E0,-3.881365061E0
4.662580969E0,-6.585969925E-1,-8.478979111E0,-3.901801825E0
4.666562219E0,-5.305359364E-1,-8.565333366E0,-3.539530277E0
4.670523157E0,-3.364906907E-1,-8.519929886E0,-3.272538662E0
4.674493469E0,-1.115027592E-1,-8.340249062E0,-3.953248262E0
4.678463782E0,1.208592951E-1,-8.297059059E0,-4.294373989E0
4.682434094E0,2.337028235E-1,-8.356156349E0,-4.339988708E0
4.686404407E0,2.310500294E-1,-8.430405617E0,-4.428986073E0
4.690376282E0,1.303977966E-1,-8.534916878E0,-4.723013401E0
4.694346594E0,-2.640325576E-2,-8.548132896E0,-4.656578541E0
4.698316907E0,-1.400129050E-1,-8.542550087E0,-4.354277134E0
4.702287219E0,-3.789063692E-1,-8.569431305E0,-4.095233917E0
4.706257532E0,-6.678960323E-1,-8.575886726E0,-4.065699100E0
4.710227844E0,-9.064831138E-1,-8.643748283E0,-4.078139305E0
4.714199719E0,-9.978266358E-1,-8.716320992E0,-4.150693417E0
4.718170032E0,-9.069331884E-1,-8.924864769E0,-4.112529755E0
4.722138782E0,-6.987525821E-1,-9.002944946E0,-4.047972679E0
4.726110657E0,-4.016799927E-1,-8.952437401E0,-4.021416187E0
4.730080969E0,-8.644983917E-2,-8.930698395E0,-4.161592007E0
4.734051282E0,2.232162207E-1,-8.810604095E0,-4.249602318E0
4.738021594E0,5.072355866E-1,-8.644427299E0,-4.347276211E0
4.741991907E0,7.741028666E-1,-8.569211960E0,-4.299124718E0
4.745963782E0,1.046266079E0,-8.460659027E0,-4.342076302E0
4.749934094E0,1.200663447E0,-8.350985527E0,-4.333428383E0
4.753904407E0,1.367682934E0,-8.358704567E0,-4.370356560E0
4.757874719E0,1.508011818E0,-8.448036194E0,-4.286195755E0
4.761845032E0,1.630039573E0,-8.586498260E0,-4.292248249E0
4.765815344E0,1.720233917E0,-8.692972183E0,-4.325211525E0
4.769785657E0,1.781640410E0,-8.743806839E0,-4.374685764E0
4.773757532E0,1.862114310E0,-8.787687302E0,-4.437499523E0
4.777727844E0,1.970859051E0,-8.917472839E0,-4.605467319E0
4.781698157E0,2.009003401E0,-8.979223251E0,-4.761626244E0
4.785668469E0,1.997626066E0,-8.982556343E0,-4.920831680E0
4.789638782E0,1.929247737E0,-8.747847557E0,-4.760506153E0
4.793609094E0,2.084343910E0,-8.662920952E0,-4.571986675E0
4.797579407E0,2.402342081E0,-8.860624313E0,-4.400178909E0
4.801549719E0,2.431790829E0,-8.867222786E0,-4.263718605E0
4.805521594E0,2.472262144E0,-8.964092255E0,-3.993873358E0
4.809491907E0,2.286730766E0,-8.943531036E0,-3.793602943E0
4.813462219E0,2.042081594E0,-8.845685005E0,-3.483017683E0
4.817432532E0,2.456872225E0,-1.007675457E1,-3.488007069E0
4.821402844E0,2.270009756E0,-1.029894638E1,-3.476859570E0
4.825373157E0,1.864910722E0,-9.884882927E0,-3.425633192E0
4.829345032E0,1.590889573E0,-9.359432220E0,-3.233206511E0
4.833315344E0,1.629110575E0,-9.114563942E0,-3.085427046E0
4.837284094E0,1.700486541E0,-9.138073921E0,-3.072689772E0
4.841255969E0,1.682060838E0,-9.393095016E0,-3.144008398E0
4.845226282E0,1.508576870E0,-9.528491974E0,-3.326676369E0
4.849196594E0,1.246909738E0,-9.639927864E0,-3.352246284E0
4.853168469E0,9.351177216E-1,-9.605230331E0,-3.238492966E0
4.857137219E0,5.813983679E-1,-9.401551247E0,-2.990817547E0
4.861107532E0,3.372280896E-1,-8.958682060E0,-2.725453854E0
4.865079407E0,3.162548840E-1,-8.424956322E0,-2.485028028E0
4.869049719E0,6.902004778E-2,-8.014820099E0,-2.052252293E0
4.873020032E0,-2.776699364E-1,-7.853919983E0,-1.674207807E0
4.876990344E0,-3.740509450E-1,-7.625465393E0,-1.333953381E0
4.880960657E0,-7.741890848E-2,-7.388717175E0,-1.329107523E0
4.884930969E0,2.946879268E-1,-7.145178795E0,-1.594183922E0
4.888902844E0,8.827996254E-1,-6.942687035E0,-2.091354132E0
4.892873157E0,1.471993566E0,-7.006382465E0,-2.595582724E0
4.896843469E0,1.960171223E0,-7.321430683E0,-3.046152353E0
4.900813782E0,2.715063095E0,-7.917654037E0,-3.414725304E0
4.904784094E0,3.399957895E0,-8.601227760E0,-3.685586214E0
4.908755969E0,4.191768646E0,-9.701381683E0,-3.952080011E0
4.912726282E0,4.745154381E0,-1.098306561E1,-3.930168152E0
4.916695032E0,4.834438801E0,-1.211256313E1,-3.680251837E0
4.920666907E0,4.340218067E0,-1.329413128E1,-3.259542704E0
4.924637219E0,3.356076956E0,-1.414888000E1,-2.797758818E0
4.928607532E0,1.698274255E0,-1.501770687E1,-2.088624954E0
4.932590344E0,2.967852354E-2,-1.575316715E1,-1.511200905E0
4.936548157E0,-1.067181826E0,-1.613714027E1,-1.130063176E0
4.940518469E0,-1.870656848E0,-1.609915733E1,-7.783262134E-1
4.944490344E0,-2.320680618E0,-1.578293133E1,-4.957529902E-1
4.948460657E0,-2.568432570E0,-1.503658295E1,-1.041094661E-1
4.952430969E0,-2.469954252E0,-1.417347240E1,1.985942423E-1
4.956401282E0,-2.173916101E0,-1.335650349E1,3.833978772E-1
4.960371594E0,-1.802728534E0,-1.244136429E1,4.981663227E-1
4.964341907E0,-1.511900067E0,-1.172947121E1,4.607497454E-1
4.968312219E0,-1.207913041E0,-1.101109695E1,2.897654474E-1
4.972282532E0,-1.038547277E0,-1.034074879E1,-1.299572643E-2
4.976252844E0,-9.438135028E-1,-9.831109047E0,-4.034708440E-1
4.980224719E0,-8.016936779E-1,-9.308809280E0,-8.003050089E-1
4.984195032E0,-5.827487111E-1,-8.757051468E0,-1.282851577E0
4.988165344E0,-3.853802681E-1,-8.450277328E0,-1.663433790E0
4.992135657E0,-1.027495563E-1,-8.146118164E0,-1.990855336E0
4.996105969E0,1.566957086E-1,-7.907961845E0,-2.155059338E0
5.000076282E0,4.417685270E-1,-7.677275658E0,-2.412483931E0
5.004048157E0,7.156938910E-1,-7.487587929E0,-2.708071947E0
5.008018469E0,9.546639919E-1,-7.381975174E0,-2.837923765E0
5.011988782E0,1.209225059E0,-7.246434689E0,-2.897233248E0
5.015959094E0,1.406737208E0,-7.199958324E0,-2.902806759E0
5.019929407E0,1.572396755E0,-7.237087250E0,-2.908658266E0
5.023899719E0,1.714756012E0,-7.295515537E0,-2.897472382E0
5.027871594E0,1.842050910E0,-7.351223946E0,-2.866405249E0
5.031840344E0,2.012977839E0,-7.440575600E0,-2.694635630E0
5.035810657E0,2.138979673E0,-7.543506622E0,-2.497257710E0
5.039782532E0,2.181050777E0,-7.581038475E0,-2.239086151E0
5.043752844E0,2.174174547E0,-7.575033665E0,-2.204485178E0
5.047723157E0,2.053439617E0,-7.501148701E0,-2.327403545E0
5.051693469E0,1.794751048E0,-7.285124779E0,-2.540487289E0
5.055663782E0,1.660177708E0,-7.201346874E0,-2.709479809E0
5.059634094E0,1.404237509E0,-7.190937042E0,-2.946543932E0
5.063615344E0,1.242303371E0,-7.156125069E0,-3.167002201E0
5.067574719E0,1.241048813E0,-7.099363327E0,-3.258527517E0
5.071546594E0,1.285743833E0,-7.018698215E0,-3.195550442E0
5.075516907E0,1.297044396E0,-6.958076477E0,-3.108851910E0
5.079487219E0,1.331980586E0,-6.845712185E0,-3.116819620E0
5.083457532E0,1.370967746E0,-6.736067295E0,-3.202235222E0
5.087429407E0,1.403835297E0,-6.692110062E0,-3.324971437E0
5.091398157E0,1.387008905E0,-6.696496010E0,-3.460042715E0
5.095370032E0,1.370555997E0,-6.769834995E0,-3.555178881E0
5.099340344E0,1.332670212E0,-6.841239929E0,-3.649424076E0
5.103310657E0,1.279423118E0,-6.971963406E0,-3.728471279E0
5.107280969E0,1.282315254E0,-7.088963032E0,-3.756291866E0
5.111251282E0,1.254418135E0,-7.220663071E0,-3.759232044E0
5.115221594E0,1.222603917E0,-7.321717739E0,-3.791630030E0
5.119193469E0,1.232898951E0,-7.419037342E0,-3.814116478E0
5.123163782E0,1.338081002E0,-7.500104904E0,-3.884305000E0
5.127134094E0,1.398960829E0,-7.579209328E0,-3.958802938E0
5.131104407E0,1.487249374E0,-7.700968742E0,-4.082305431E0
5.135074719E0,1.702919126E0,-7.812979698E0,-4.271514416E0
5.139045032E0,1.940471768E0,-7.900003910E0,-4.346922398E0
5.143015344E0,2.165047884E0,-7.932449818E0,-4.431408882E0
5.146987219E0,2.395609379E0,-7.941375256E0,-4.459487915E0
5.150955969E0,2.621861458E0,-7.999516010E0,-4.435134411E0
5.154927844E0,2.887972116E0,-8.087804794E0,-4.388035774E0
5.158898157E0,3.147245169E0,-8.216306686E0,-4.330134392E0
5.162868469E0,3.388149738E0,-8.504615784E0,-4.110738754E0
5.166838782E0,3.611998081E0,-8.836997986E0,-3.846677780E0
5.170809094E0,3.798295736E0,-9.096893311E0,-3.611318111E0
5.174779407E0,3.991775990E0,-9.356032372E0,-3.434444189E0
5.178751282E0,4.073399067E0,-9.558371544E0,-3.195522070E0
5.182721594E0,4.106774330E0,-9.738712311E0,-2.943737984E0
5.186691907E0,4.112386227E0,-9.807626724E0,-2.803887844E0
5.190662219E0,4.074088573E0,-9.861822128E0,-2.766356468E0
5.194632532E0,4.033483028E0,-9.883609772E0,-2.814757586E0
5.198602844E0,4.006687164E0,-9.890571594E0,-2.924354553E0
5.202574719E0,3.994677782E0,-9.933495522E0,-3.042532444E0
5.206545032E0,3.986661911E0,-9.973545074E0,-3.168189764E0
5.210515344E0,3.975610018E0,-1.003116894E1,-3.231271982E0
5.214485657E0,3.983348370E0,-1.013869762E1,-3.239489079E0
5.218455969E0,4.010939121E0,-1.031752586E1,-3.198366165E0
5.222426282E0,4.095176697E0,-1.064344215E1,-3.141039371E0
5.226396594E0,4.148270607E0,-1.106996441E1,-3.074308157E0
5.230366907E0,4.182775974E0,-1.149641991E1,-3.018015623E0
5.234338782E0,4.065143585E0,-1.201122189E1,-2.956465483E0
5.238309094E0,3.755516052E0,-1.244733047E1,-2.906388521E0
5.242279407E0,3.310500860E0,-1.267956734E1,-2.828098059E0
5.246249719E0,2.644912958E0,-1.283304596E1,-2.724160910E0
5.250220032E0,2.008294582E0,-1.283541107E1,-2.532098055E0
5.254190344E0,1.243299365E0,-1.274770737E1,-2.241901875E0
5.258160657E0,5.880159140E-1,-1.263721848E1,-1.909653544E0
5.262132532E0,1.057375222E-1,-1.254895878E1,-1.632721066E0
5.266102844E0,-2.881661057E-1,-1.245264530E1,-1.280016899E0
5.270073157E0,-5.637674332E-1,-1.230129337E1,-1.025254607E0
5.274043469E0,-9.107543230E-1,-1.193997002E1,-8.757127523E-1
5.278013782E0,-1.154780865E0,-1.128189087E1,-9.374257326E-1
5.281984094E0,-1.229460955E0,-1.060470486E1,-1.088624358E0
5.285954407E0,-1.046668291E0,-9.847198486E0,-1.347322583E0
5.289924719E0,-6.736708879E-1,-9.158942223E0,-1.626132250E0
5.293896594E0,-3.058449030E-1,-8.685924530E0,-1.861970663E0
5.297866907E0,7.287950069E-2,-8.221899033E0,-1.990654230E0
5.301837219E0,3.097809851E-1,-7.853269100E0,-2.065094709E0
5.305807532E0,5.266860723E-1,-7.584783077E0,-2.109990835E0
5.309777844E0,7.369257212E-1,-7.419611931E0,-2.081375360E0
5.313748157E0,9.075269103E-1,-7.364152908E0,-2.014816523E0
5.317720032E0,1.056609154E0,-7.421919823E0,-1.915447474E0
5.321690344E0,1.188769102E0,-7.609022141E0,-1.891390681E0
5.325660657E0,1.247216344E0,-7.922499657E0,-1.859787107E0
5.329630969E0,1.200941205E0,-8.396532059E0,-1.752919555E0
5.333601282E0,9.805787802E-1,-8.799351692E0,-1.627099514E0
5.337571594E0,5.731910467E-1,-9.115615845E0,-1.119251013E0
5.341543469E0,-6.569689140E-3,-9.301492691E0,-1.021577120E0
5.345512219E0,-7.518751025E-1,-9.638893127E0,-1.110794663E0
5.349482532E0,-1.384633899E0,-1.004833984E1,-1.211159587E0
5.353454407E0,-1.743237376E0,-1.029995155E1,-1.406401992E0
5.357424719E0,-2.052692890E0,-1.047732353E1,-1.755007267E0
5.361395032E0,-2.272815704E0,-1.054381561E1,-1.919805050E0
5.365365344E0,-2.381407022E0,-1.056487465E1,-2.102492094E0
5.369335657E0,-2.420509338E0,-1.056131268E1,-2.438867807E0
5.373305969E0,-2.346413374E0,-1.051312160E1,-2.705917120E0
5.377277844E0,-2.033395529E0,-1.036162567E1,-2.857460737E0
5.381248157E0,-1.546893716E0,-1.019988346E1,-2.741121531E0
5.385218469E0,-7.485998273E-1,-1.002224350E1,-2.486866951E0
5.389188782E0,2.433179319E-1,-9.910472870E0,-2.245914221E0
5.393159094E0,1.171128511E0,-9.816418648E0,-2.158640862E0
5.397129407E0,2.155174017E0,-9.902830124E0,-2.261227846E0
5.401101282E0,2.818732023E0,-1.007450390E1,-2.577856302E0
5.405071594E0,3.121828318E0,-1.025204754E1,-3.056380272E0
5.409041907E0,3.028904438E0,-1.057314968E1,-3.711692572E0
5.413012219E0,2.788220167E0,-1.065913010E1,-4.112616062E0
5.416982532E0,2.156629801E0,-1.056470203E1,-4.120928764E0
5.420952844E0,1.274433613E0,-1.015580177E1,-3.737013578E0
5.424923157E0,6.044784784E-1,-9.669490814E0,-3.326446295E0
5.428893469E0,-1.036402062E-1,-9.068038940E0,-2.964988947E0
5.432865344E0,-6.135860085E-1,-8.585932732E0,-2.758254290E0
5.436835657E0,-1.019872427E0,-8.079473495E0,-2.692921400E0
5.440805969E0,-1.309187770E0,-7.688710213E0,-2.796925545E0
5.444776282E0,-1.476418018E0,-7.486046314E0,-2.959089518E0
5.448746594E0,-1.606854081E0,-7.353809357E0,-3.109953165E0
5.452716907E0,-1.678201318E0,-7.298790932E0,-3.275516748E0
5.456687219E0,-1.748993039E0,-7.281274796E0,-3.432346582E0
5.460657532E0,-1.785528541E0,-7.317293644E0,-3.455675840E0
5.464627844E0,-1.753839016E0,-7.393774033E0,-3.427548885E0
5.468599719E0,-1.612159610E0,-7.512938023E0,-3.332000971E0
5.472570032E0,-1.429165959E0,-7.690281391E0,-3.198212862E0
5.476540344E0,-1.221703649E0,-7.923438072E0,-3.059425831E0
5.480510657E0,-9.334226251E-1,-8.173028946E0,-2.765494347E0
5.484480969E0,-6.402382851E-1,-8.433441162E0,-2.688707829E0
5.488451282E0,-3.039965928E-1,-8.756361008E0,-2.417588472E0
5.492423157E0,3.213976324E-2,-9.109381676E0,-2.115219831E0
5.496393469E0,1.992646158E-1,-9.398447990E0,-1.906972051E0
5.500363782E0,2.528181076E-1,-9.620821953E0,-1.619370937E0
5.504334094E0,2.180926204E-1,-9.828351974E0,-1.584875345E0
5.508304407E0,9.894756973E-2,-9.956354141E0,-1.573775768E0
5.512274719E0,-5.176264048E-2,-9.986838341E0,-1.770588756E0
5.516245032E0,-6.957550347E-2,-9.984855652E0,-2.020303965E0
5.520216907E0,-2.338943481E-1,-9.947956085E0,-2.342678547E0
5.524185657E0,-3.957136571E-1,-9.825478554E0,-2.534731627E0
5.528157532E0,-5.142362118E-1,-9.563427925E0,-2.712007999E0
5.532127844E0,-5.979853868E-1,-9.375951767E0,-2.881670713E0
5.536098157E0,-7.089422345E-1,-9.179953575E0,-2.968015194E0
5.540068469E0,-8.569900990E-1,-9.027423859E0,-3.042561054E0
5.544038782E0,-1.029219508E0,-8.875200272E0,-3.198758841E0
5.548009094E0,-1.142522573E0,-8.738194466E0,-3.362589359E0
5.551980969E0,-1.136230707E0,-8.586000443E0,-3.586743832E0
5.555951282E0,-1.036009431E0,-8.560467720E0,-3.682138681E0
5.559921594E0,-8.621424437E-1,-8.502921104E0,-3.822007895E0
5.563891907E0,-6.742358804E-1,-8.504578590E0,-3.792300463E0
5.567862219E0,-5.009148717E-1,-8.606627464E0,-3.586370707E0
5.571832532E0,-2.529521883E-1,-8.825017929E0,-3.312598467E0
5.575804407E0,-1.339220703E-1,-9.005866051E0,-3.059981108E0
5.579774719E0,1.298614964E-2,-9.178009987E0,-2.765839338E0
5.583745032E0,1.082370654E-1,-9.410131454E0,-2.545611143E0
5.587715344E0,3.840299696E-2,-9.567603111E0,-2.496539593E0
5.591685657E0,-7.312849164E-2,-9.856449127E0,-2.513653278E0
5.595655969E0,-2.274204195E-1,-9.945925713E0,-2.612945557E0
5.599626282E0,-5.163335800E-1,-1.008289337E1,-2.637960196E0
5.603596594E0,-6.969138384E-1,-1.027127838E1,-2.554804802E0
5.607568469E0,-9.344473481E-1,-1.039796066E1,-2.451786995E0
5.611538782E0,-1.135627270E0,-1.060176468E1,-2.401930094E0
5.615509094E0,-1.164089561E0,-1.062510395E1,-2.335888386E0
5.619479407E0,-1.187859297E0,-1.051899242E1,-2.143011808E0
5.623449719E0,-1.279930711E0,-1.035596561E1,-1.930396914E0
5.627420032E0,-1.304801583E0,-1.014432812E1,-1.880904078E0
5.631390344E0,-1.290474772E0,-9.906843185E0,-1.898975492E0
5.635362219E0,-1.192781687E0,-9.738252640E0,-1.993766665E0
5.639330969E0,-1.135675192E0,-9.616694450E0,-2.171799660E0
5.643302844E0,-9.892266989E-1,-9.560909271E0,-2.358824968E0
5.647284094E0,-8.534754515E-1,-9.463369370E0,-2.457140446E0
5.651243469E0,-6.516921520E-1,-9.486047745E0,-2.481149435E0
5.655213782E0,-3.604518473E-1,-9.560468674E0,-2.370786428E0
5.659184094E0,-6.184701994E-2,-9.710642815E0,-2.243769169E0
5.663154407E0,2.646071911E-1,-9.864456177E0,-2.021204233E0
5.667126282E0,5.216391087E-1,-1.003576565E1,-1.838277578E0
5.671096594E0,7.277510762E-1,-1.019406033E1,-1.552208900E0
5.675066907E0,8.411596417E-1,-1.021867275E1,-1.295741916E0
5.679037219E0,9.325128198E-1,-1.017610455E1,-1.046448112E0
5.683007532E0,9.694793224E-1,-1.006308746E1,-9.347347021E-1
5.686977844E0,9.957676530E-1,-9.899018288E0,-8.780495524E-1
5.690949719E0,9.614443183E-1,-9.719079971E0,-8.763544559E-1
5.694920032E0,9.002677202E-1,-9.480444908E0,-7.631278634E-1
5.698890344E0,7.485327721E-1,-9.279140472E0,-5.982439518E-1
5.702860657E0,5.216869712E-1,-9.104861259E0,-3.504153788E-1
5.706830969E0,2.965841293E-1,-9.010089874E0,-1.294496953E-1
5.710801282E0,6.668330729E-2,-8.942237854E0,1.282525957E-1
5.714771594E0,-2.025494725E-1,-8.875325203E0,3.478583694E-1
5.718743469E0,-4.048211873E-1,-8.855357170E0,5.069769621E-1
5.722712219E0,-6.361872554E-1,-8.842380524E0,5.949974656E-1
5.726684094E0,-8.512727618E-1,-8.857387543E0,5.316755772E-1
5.730654407E0,-1.034668565E0,-8.845664978E0,4.198184907E-1
5.734624719E0,-1.201257229E0,-8.843731880E0,1.208305731E-1
5.738595032E0,-1.292514563E0,-8.807205200E0,-2.123369575E-1
5.742565344E0,-1.319348812E0,-8.799955368E0,-5.803257227E-1
5.746535657E0,-1.273169398E0,-8.836356163E0,-9.289885759E-1
5.750507532E0,-1.202617049E0,-8.838607788E0,-1.161025047E0
5.754476282E0,-1.088375330E0,-8.915672302E0,-1.345713735E0
5.758448157E0,-1.070198655E0,-8.951833725E0,-1.435783625E0
5.762418469E0,-1.060372829E0,-9.018555641E0,-1.551586270E0
5.766399719E0,-1.097454190E0,-9.072587967E0,-1.589548826E0
5.770359094E0,-1.146487474E0,-9.099403381E0,-1.592144132E0
5.774329407E0,-1.190827966E0,-9.100131035E0,-1.591550469E0
5.778299719E0,-1.223868012E0,-9.115061760E0,-1.583371878E0
5.782271594E0,-1.192025185E0,-9.133573532E0,-1.519982934E0
5.786241907E0,-1.076940656E0,-9.127721786E0,-1.373218417E0
5.790212219E0,-9.675351977E-1,-9.117982864E0,-1.223465800E0
5.794182532E0,-7.692378759E-1,-9.141808510E0,-1.024172544E0
5.798152844E0,-6.273095608E-1,-9.147918701E0,-8.699475527E-1
5.802123157E0,-4.807461202E-1,-9.145008087E0,-7.361786962E-1
5.806095032E0,-3.597910404E-1,-9.213951111E0,-6.004753709E-1
5.810065344E0,-2.660436928E-1,-9.296320915E0,-5.075612068E-1
5.814035657E0,-1.260595024E-1,-9.385548592E0,-4.096095860E-1
5.818005969E0,-7.774451375E-2,-9.517669678E0,-3.909156919E-1
5.821976282E0,-1.056800634E-1,-9.615851402E0,-4.051372409E-1
5.825946594E0,-2.029516846E-1,-9.768630028E0,-4.290026128E-1
5.829918469E0,-2.672599554E-1,-9.930449486E0,-4.980992973E-1
5.833887219E0,-4.233618975E-1,-1.010852051E1,-5.693794489E-1
5.837857532E0,-5.427654982E-1,-1.024041176E1,-6.286311746E-1
5.841829407E0,-5.607316494E-1,-1.035566902E1,-6.710277200E-1
5.845799719E0,-5.712565184E-1,-1.044722366E1,-7.016064525E-1
5.849770032E0,-5.994123816E-1,-1.052872276E1,-6.957358122E-1
5.853740344E0,-6.395487189E-1,-1.052959347E1,-6.727610826E-1
5.857721594E0,-7.638461590E-1,-1.050117970E1,-7.059734464E-1
5.861680969E0,-8.862281442E-1,-1.042184448E1,-7.233074903E-1
5.865652844E0,-9.900119901E-1,-1.034160042E1,-7.538862228E-1
5.869623157E0,-1.074230433E0,-1.024353409E1,-8.076121211E-1
5.873593469E0,-1.190377951E0,-1.011436272E1,-8.919933438E-1
5.877563782E0,-1.287343144E0,-1.002479076E1,-9.917836785E-1
5.881534094E0,-1.381789565E0,-9.953912735E0,-1.101620078E0
5.885504407E0,-1.490141630E0,-9.866543770E0,-1.257252812E0
5.889476282E0,-1.603722572E0,-9.806122780E0,-1.359226584E0
5.893446594E0,-1.737884045E0,-9.757176399E0,-1.406325340E0
5.897416907E0,-1.822150230E0,-9.727047920E0,-1.420345783E0
5.901387219E0,-1.864786267E0,-9.720956802E0,-1.428744674E0
5.905357532E0,-1.864068031E0,-9.717288971E0,-1.431081414E0
5.909327844E0,-1.897136688E0,-9.671186447E0,-1.416572452E0
5.913298157E0,-1.869545937E0,-9.651304245E0,-1.429443717E0
5.917268469E0,-1.781391382E0,-9.627314568E0,-1.452351451E0
5.921240344E0,-1.707506299E0,-9.593115807E0,-1.478467464E0
5.925210657E0,-1.577012777E0,-9.501762390E0,-1.493617892E0
5.929180969E0,-1.455243707E0,-9.404184341E0,-1.478496194E0
5.933151282E0,-1.359341502E0,-9.343276024E0,-1.440907240E0
5.937121594E0,-1.255212903E0,-9.290690422E0,-1.343989849E0
5.941091907E0,-1.184900045E0,-9.220980644E0,-1.242964268E0
5.945062219E0,-1.084985256E0,-9.154910088E0,-1.107184172E0
5.949034094E0,-1.003285408E0,-9.142708778E0,-9.663285613E-1
5.953002844E0,-9.656294584E-1,-9.150907516E0,-8.911505938E-1
5.956974719E0,-9.365255237E-1,-9.139309883E0,-8.323873281E-1
5.960945032E0,-9.381343722E-1,-9.178344727E0,-8.155416846E-1
5.964915344E0,-9.413139224E-1,-9.227339745E0,-8.359594941E-1
5.968885657E0,-9.399923086E-1,-9.269439697E0,-8.569996953E-1
5.972855969E0,-9.294099808E-1,-9.301204681E0,-8.651112914E-1
5.976826282E0,-9.289981723E-1,-9.338344574E0,-8.729929924E-1
5.980798157E0,-9.466290474E-1,-9.389283180E0,-8.667872548E-1
5.984768469E0,-9.571060538E-1,-9.431765556E0,-8.466567397E-1
5.988738782E0,-9.713946581E-1,-9.510956764E0,-8.240938187E-1
5.992709094E0,-9.904046059E-1,-9.584190369E0,-8.418013453E-1
5.996679407E0,-1.020523667E0,-9.662586212E0,-8.700529337E-1
6.000649719E0,-1.043326020E0,-9.736394882E0,-9.009380937E-1
6.004621594E0,-1.027332783E0,-9.783034325E0,-9.124589562E-1
6.008591907E0,-9.833848476E-1,-9.812693596E0,-8.970499039E-1
6.012560657E0,-9.420896769E-1,-9.839536667E0,-9.001432657E-1
6.016532532E0,-9.065405130E-1,-9.840704918E0,-9.321202040E-1
6.020502844E0,-8.646898866E-1,-9.825765610E0,-1.007202387E0
6.024473157E0,-8.502193689E-1,-9.805970192E0,-1.058179736E0
6.028443469E0,-8.414661288E-1,-9.764435768E0,-1.123091340E0
6.032413782E0,-8.483901620E-1,-9.721923828E0,-1.169318438E0
6.036384094E0,-8.779920936E-1,-9.663965225E0,-1.210460424E0
6.040355969E0,-8.991472125E-1,-9.583903313E0,-1.277325749E0
6.044326282E0,-9.371480346E-1,-9.516530037E0,-1.291796207E0
6.048296594E0,-9.646430016E-1,-9.418693542E0,-1.289986372E0
6.052266907E0,-1.018253922E0,-9.373012543E0,-1.308383346E0
6.056237219E0,-1.051638722E0,-9.337425232E0,-1.321781278E0
6.060209094E0,-1.105039120E0,-9.319190025E0,-1.338923812E0
6.064179407E0,-1.159636378E0,-9.330452919E0,-1.381904483E0
6.068148157E0,-1.233243823E0,-9.343592644E0,-1.403768301E0
6.072120032E0,-1.273629189E0,-9.393439293E0,-1.426235437E0
6.076090344E0,-1.278254747E0,-9.424285889E0,-1.453692317E0
6.080060657E0,-1.268543839E0,-9.476891518E0,-1.497458220E0
6.084030969E0,-1.237830997E0,-9.519959450E0,-1.497841358E0
6.088001282E0,-1.220133066E0,-9.522295952E0,-1.487469554E0
6.091971594E0,-1.181318283E0,-9.547185898E0,-1.444795370E0
6.095943469E0,-1.128961921E0,-9.571386337E0,-1.417616487E0
6.099913782E0,-1.070849895E0,-9.578826904E0,-1.371666908E0
6.103884094E0,-1.016539693E0,-9.580474854E0,-1.317826033E0
6.107854407E0,-9.392740726E-1,-9.553803444E0,-1.281501174E0
6.111824719E0,-8.579095006E-1,-9.533979416E0,-1.244726300E0
6.115795032E0,-8.237011433E-1,-9.501696587E0,-1.224586248E0
6.119765344E0,-7.544321418E-1,-9.469144821E0,-1.176338434E0
6.123740344E0,-6.906985044E-1,-9.454827309E0,-1.141593575E0
6.127705969E0,-6.554462314E-1,-9.464250565E0,-1.100365520E0
6.131684094E0,-6.304795146E-1,-9.494618416E0,-1.094629049E0
6.135648157E0,-6.059149504E-1,-9.501868248E0,-1.081326723E0
6.139618469E0,-6.183361411E-1,-9.543202400E0,-1.080062747E0
6.143588782E0,-6.184414625E-1,-9.568617821E0,-1.069595218E0
6.147559094E0,-6.165643930E-1,-9.600691795E0,-1.066243410E0
6.151529407E0,-6.630885005E-1,-9.618465424E0,-1.063169241E0
6.155501282E0,-7.055329680E-1,-9.625897408E0,-1.068800449E0
6.159471594E0,-7.419152260E-1,-9.641842842E0,-1.050604463E0
6.163441907E0,-8.082346320E-1,-9.633894920E0,-1.060870767E0
6.167412219E0,-8.634257317E-1,-9.617748260E0,-1.069758058E0
6.171382532E0,-9.260771871E-1,-9.621472359E0,-1.069193006E0
6.175352844E0,-9.728695154E-1,-9.642044067E0,-1.101447701E0
6.179324719E0,-1.044063449E0,-9.653364182E0,-1.092359304E0
6.183293469E0,-1.104311109E0,-9.659722328E0,-1.106848955E0
6.187263782E0,-1.147368550E0,-9.674413681E0,-1.118082643E0
6.191235657E0,-1.189276576E0,-9.663783073E0,-1.148986936E0
6.195205969E0,-1.214300752E0,-9.655039787E0,-1.178569674E0
6.199176282E0,-1.216206551E0,-9.614960670E0,-1.212596059E0
6.203148157E0,-1.195482373E0,-9.592598915E0,-1.252062082E0
6.207118469E0,-1.149504185E0,-9.538585663E0,-1.253987074E0
6.211087219E0,-1.130111098E0,-9.492540359E0,-1.267394662E0
6.215059094E0,-1.107088447E0,-9.449282646E0,-1.264703512E0
6.219029407E0,-1.051044941E0,-9.396905899E0,-1.283062220E0
6.222999719E0,-1.000345349E0,-9.390748978E0,-1.291489840E0
6.226970032E0,-9.545873404E-1,-9.388382912E0,-1.299620628E0
6.230940344E0,-9.185019732E-1,-9.413187027E0,-1.290446043E0
6.234912219E0,-9.173718691E-1,-9.418108940E0,-1.300089836E0
6.238882532E0,-8.987258077E-1,-9.445881844E0,-1.276942730E0
6.242859094E0,-9.011774659E-1,-9.464145660E0,-1.272652268E0
6.246823157E0,-8.728397489E-1,-9.486152649E0,-1.275956273E0
6.250793469E0,-8.903078437E-1,-9.496208191E0,-1.250596881E0
6.254773157E0,-8.865346313E-1,-9.508486748E0,-1.250663996E0
6.258734094E0,-8.981224895E-1,-9.516798973E0,-1.255605578E0
6.262705969E0,-9.124973416E-1,-9.525282860E0,-1.250845909E0
6.266674719E0,-8.923859596E-1,-9.552347183E0,-1.261169672E0
6.270646594E0,-8.715660572E-1,-9.554990768E0,-1.275678635E0
6.274616907E0,-8.227147460E-1,-9.578080177E0,-1.299831271E0
6.278587219E0,-8.146318793E-1,-9.610631943E0,-1.319808483E0
6.282557532E0,-8.056392670E-1,-9.653795242E0,-1.372864008E0
6.286527844E0,-8.373576403E-1,-9.711131096E0,-1.403873682E0
6.290498157E0,-8.811427951E-1,-9.758354187E0,-1.446078658E0
6.294470032E0,-9.131580591E-1,-9.783925056E0,-1.486559868E0
6.298440344E0,-9.417640567E-1,-9.801153183E0,-1.504813194E0
6.302410657E0,-9.373203516E-1,-9.802618027E0,-1.519025326E0
6.306380969E0,-9.214994907E-1,-9.757664680E0,-1.537661672E0
6.310351282E0,-8.736824989E-1,-9.739151955E0,-1.533151031E0
6.314321594E0,-8.392347693E-1,-9.695453644E0,-1.505062222E0
6.318293469E0,-8.104563951E-1,-9.674279213E0,-1.487096190E0
6.322262219E0,-8.035611510E-1,-9.628013611E0,-1.467195511E0
6.326232532E0,-7.833157182E-1,-9.602376938E0,-1.455990672E0
6.330204407E0,-7.606858015E-1,-9.579775810E0,-1.455281973E0
6.334174719E0,-7.433517575E-1,-9.557250977E0,-1.453874111E0
6.338145032E0,-7.227137685E-1,-9.523215294E0,-1.472424388E0
6.342115344E0,-7.042304873E-1,-9.495116234E0,-1.501576304E0
6.346087219E0,-6.978810430E-1,-9.472668648E0,-1.520509601E0
6.350055969E0,-6.928628087E-1,-9.451790810E0,-1.543704629E0
6.354027844E0,-6.887256503E-1,-9.443727493E0,-1.544518709E0
6.357998157E0,-6.848566532E-1,-9.415044785E0,-1.554650903E0
6.361966907E0,-6.953049302E-1,-9.417783737E0,-1.529176593E0
6.365938782E0,-7.072376013E-1,-9.433212280E0,-1.498377562E0
6.369909094E0,-7.355370522E-1,-9.457509041E0,-1.494374514E0
6.373879407E0,-7.556291819E-1,-9.486488342E0,-1.491989851E0
6.377851282E0,-7.773494124E-1,-9.544830322E0,-1.494642735E0
6.381820032E0,-8.131666780E-1,-9.578856468E0,-1.490888596E0
6.385790344E0,-8.485912681E-1,-9.621961594E0,-1.432067752E0
6.389762219E0,-8.688175082E-1,-9.664673805E0,-1.400818706E0
6.393732532E0,-9.109937549E-1,-9.666177750E0,-1.405405998E0
6.397702844E0,-9.491668940E-1,-9.696382523E0,-1.403500199E0
6.401673157E0,-9.647387862E-1,-9.690444946E0,-1.399439573E0
6.405643469E0,-9.452021122E-1,-9.681021690E0,-1.396451712E0
6.409615344E0,-9.403466582E-1,-9.657338142E0,-1.398108363E0
6.413585657E0,-9.132634401E-1,-9.621080399E0,-1.411027551E0
6.417555969E0,-8.991951346E-1,-9.600040436E0,-1.411171317E0
6.421526282E0,-8.634448647E-1,-9.557366371E0,-1.390226722E0
6.425496594E0,-8.636555672E-1,-9.547923088E0,-1.374702811E0
6.429466907E0,-8.696889877E-1,-9.535041809E0,-1.371025324E0
6.433437219E0,-8.715277314E-1,-9.535511971E0,-1.387267470E0
6.437409094E0,-8.645653725E-1,-9.551543236E0,-1.416879058E0
6.441377844E0,-8.506790400E-1,-9.563792229E0,-1.432680607E0
6.445349719E0,-8.460438251E-1,-9.595433235E0,-1.456143975E0
6.449320032E0,-8.354135752E-1,-9.615516663E0,-1.443722725E0
6.453290344E0,-8.216134310E-1,-9.663505554E0,-1.407733202E0
6.457260657E0,-8.328853250E-1,-9.676012993E0,-1.365614414E0
6.461230969E0,-8.453447223E-1,-9.678953171E0,-1.309867740E0
6.465201282E0,-8.617785573E-1,-9.681385994E0,-1.255174518E0
6.469171594E0,-8.863909245E-1,-9.692045212E0,-1.219520092E0
6.473143469E0,-9.051997662E-1,-9.685791016E0,-1.197608352E0
6.477113782E0,-9.093465805E-1,-9.689065933E0,-1.175275326E0
6.481084094E0,-9.069235921E-1,-9.654340744E0,-1.144696474E0
6.485054407E0,-9.290077090E-1,-9.650452614E0,-1.128693700E0
6.489024719E0,-9.363627434E-1,-9.605556488E0,-1.118666768E0
6.492996594E0,-9.577956200E-1,-9.583462715E0,-1.140444517E0
6.496966907E0,-9.945801497E-1,-9.573915482E0,-1.158324361E0
6.500937219E0,-1.037733197E0,-9.556063652E0,-1.188117743E0
6.504907532E0,-1.079861522E0,-9.569470406E0,-1.254063725E0
6.508877844E0,-1.106667161E0,-9.560296059E0,-1.330314159E0
6.512848157E0,-1.092541218E0,-9.542359352E0,-1.388598680E0
6.516818469E0,-1.076308608E0,-9.513762474E0,-1.420106292E0
6.520788782E0,-1.040797710E0,-9.511914253E0,-1.426245093E0
6.524759094E0,-1.025618553E0,-9.500517845E0,-1.402197719E0
6.528730969E0,-9.936798811E-1,-9.516721725E0,-1.394067049E0
6.532701282E0,-9.829251766E-1,-9.517153740E0,-1.375622034E0
6.536671594E0,-9.739038348E-1,-9.541726112E0,-1.361553788E0
6.540641907E0,-9.479219317E-1,-9.567048073E0,-1.334077835E0
6.544612219E0,-9.317467213E-1,-9.559501648E0,-1.309101582E0
6.548582532E0,-9.201013446E-1,-9.560086250E0,-1.274759173E0
6.552554407E0,-9.004017711E-1,-9.560296059E0,-1.270468712E0
6.556524719E0,-8.943492174E-1,-9.524785042E0,-1.248719811E0
6.560495032E0,-8.795435429E-1,-9.524670601E0,-1.222057939E0
6.564465344E0,-8.883445859E-1,-9.499819756E0,-1.203996062E0
6.568435657E0,-8.991664052E-1,-9.478913307E0,-1.192657232E0
6.572405969E0,-8.987258077E-1,-9.496170044E0,-1.183233619E0
6.576377844E0,-9.105532169E-1,-9.530771255E0,-1.195999503E0
6.580346594E0,-9.070672393E-1,-9.542367935E0,-1.225227952E0
6.584318469E0,-9.116258025E-1,-9.563437462E0,-1.242791772E0
6.588288782E0,-9.598450065E-1,-9.578885078E0,-1.257405996E0
6.592259094E0,-9.871293306E-1,-9.583118439E0,-1.256103516E0
6.596229407E0,-9.835763574E-1,-9.603584290E0,-1.247465372E0
6.600210657E0,-1.008725047E0,-9.614692688E0,-1.234709024E0
6.604170032E0,-1.027744651E0,-9.639075279E0,-1.233741641E0
6.608140344E0,-1.060746193E0,-9.662663460E0,-1.244180441E0
6.612112219E0,-1.072420359E0,-9.692551613E0,-1.257693410E0
6.616080969E0,-1.068551421E0,-9.709589005E0,-1.272374511E0
6.620052844E0,-1.058572412E0,-9.728446007E0,-1.275659442E0
6.624023157E0,-1.048066497E0,-9.723800659E0,-1.278609037E0
6.627993469E0,-1.019115925E0,-9.695032120E0,-1.321465254E0
6.631963782E0,-9.624882340E-1,-9.676653862E0,-1.314416766E0
6.635934094E0,-9.138380885E-1,-9.659244537E0,-1.296105862E0
6.639904407E0,-8.868793249E-1,-9.622076035E0,-1.287936926E0
6.643876282E0,-8.497309089E-1,-9.613121986E0,-1.266944408E0
6.647846594E0,-8.271296620E-1,-9.598067284E0,-1.249074221E0
6.651815344E0,-8.432856798E-1,-9.573234558E0,-1.244477272E0
6.655787219E0,-8.297058344E-1,-9.558956146E0,-1.221837759E0
6.659757532E0,-8.179071546E-1,-9.538030624E0,-1.200701833E0
6.663727844E0,-8.227818012E-1,-9.527773857E0,-1.206256270E0
6.667699719E0,-8.276467919E-1,-9.527523994E0,-1.199322581E0
6.671670032E0,-8.631958961E-1,-9.533673286E0,-1.229767323E0
6.675640344E0,-8.760001063E-1,-9.536794662E0,-1.250462770E0
6.679610657E0,-8.789210320E-1,-9.545806885E0,-1.263266921E0
6.683580969E0,-8.676970005E-1,-9.543718338E0,-1.286557913E0
6.687551282E0,-8.653315306E-1,-9.543833733E0,-1.289804339E0
6.691521594E0,-8.513206840E-1,-9.550910950E0,-1.273657799E0
6.695491907E0,-8.218911290E-1,-9.561780930E0,-1.257884860E0
6.699462219E0,-8.296387792E-1,-9.567517281E0,-1.264310956E0
6.703434094E0,-8.638471365E-1,-9.602654457E0,-1.240991354E0
6.707404407E0,-9.013786912E-1,-9.623167992E0,-1.243012071E0
6.711374719E0,-9.085229635E-1,-9.650194168E0,-1.271799922E0
6.715345032E0,-9.015222788E-1,-9.680782318E0,-1.285236239E0
6.719315344E0,-8.805107474E-1,-9.675907135E0,-1.301200628E0
6.723285657E0,-8.631671667E-1,-9.673637390E0,-1.303231120E0
6.727257532E0,-8.481028676E-1,-9.663017273E0,-1.243021607E0
6.731226282E0,-8.280873299E-1,-9.650940895E0,-1.191613317E0
6.735198157E0,-8.268231750E-1,-9.660431862E0,-1.164099097E0
6.739168469E0,-8.198034167E-1,-9.647541046E0,-1.153516889E0
6.743138782E0,-8.238735199E-1,-9.639199257E0,-1.161570907E0
6.747109094E0,-8.119983077E-1,-9.620706558E0,-1.161484718E0
6.751079407E0,-8.216708899E-1,-9.606591225E0,-1.183894396E0
6.755049719E0,-8.322820067E-1,-9.582725525E0,-1.189899087E0
6.759021594E0,-8.292078376E-1,-9.544131279E0,-1.207702398E0
6.762991907E0,-8.097573519E-1,-9.504003525E0,-1.220362902E0
6.766962219E0,-7.847522497E-1,-9.470686913E0,-1.236423254E0
6.770932532E0,-7.613273859E-1,-9.407393456E0,-1.250654340E0
6.774902844E0,-7.380749583E-1,-9.367773056E0,-1.279078364E0
6.778873157E0,-7.118728161E-1,-9.314699173E0,-1.283703804E0
6.782843469E0,-6.624085903E-1,-9.285978317E0,-1.324797988E0
6.786815344E0,-6.172252297E-1,-9.287883759E0,-1.363545775E0
6.790785657E0,-5.948250890E-1,-9.310208321E0,-1.407455444E0
6.794755969E0,-5.952942967E-1,-9.335759163E0,-1.417913318E0
6.798726282E0,-5.922009945E-1,-9.330070496E0,-1.396700740E0
6.802696594E0,-6.016245484E-1,-9.361204147E0,-1.358058214E0
6.806666907E0,-6.147831678E-1,-9.406291962E0,-1.307224631E0
6.810638782E0,-6.182211637E-1,-9.434227943E0,-1.223053932E0
6.814607532E0,-6.753181219E-1,-9.446619987E0,-1.154484034E0
6.818579407E0,-7.074961662E-1,-9.437005043E0,-1.101457238E0
6.822549719E0,-7.645547986E-1,-9.461579323E0,-1.015007496E0
6.826520032E0,-8.361222744E-1,-9.465687752E0,-9.487838149E-1
6.830490344E0,-9.463608861E-1,-9.505995750E0,-8.898481727E-1
6.834460657E0,-1.083539009E0,-9.545174599E0,-8.948281407E-1
6.838430969E0,-1.223044395E0,-9.607376099E0,-9.303963780E-1
6.842402844E0,-1.370766759E0,-9.699791908E0,-1.005421042E0
6.846373157E0,-1.502160430E0,-9.767241478E0,-1.066999912E0
6.850341907E0,-1.605388761E0,-9.815873146E0,-1.141679764E0
6.854313782E0,-1.671842337E0,-9.774606705E0,-1.180858612E0
6.858284094E0,-1.699337244E0,-9.720678329E0,-1.206275344E0
6.862254407E0,-1.666852832E0,-9.645271301E0,-1.246067047E0
6.866226282E0,-1.618767738E0,-9.554166794E0,-1.276071191E0
6.870195032E0,-1.522721767E0,-9.487033844E0,-1.329423547E0
6.874165344E0,-1.426264286E0,-9.420292854E0,-1.364455581E0
6.878137219E0,-1.358498812E0,-9.394320488E0,-1.403911948E0
6.882107532E0,-1.296939135E0,-9.390614510E0,-1.405923128E0
6.886077844E0,-1.257262349E0,-9.397615433E0,-1.390217185E0
6.890048157E0,-1.251755714E0,-9.400699615E0,-1.327527285E0
6.894018469E0,-1.218868852E0,-9.429314613E0,-1.266523123E0
6.897990344E0,-1.209761381E0,-9.458705902E0,-1.207127810E0
6.901960657E0,-1.206198812E0,-9.493641853E0,-1.155997157E0
6.905930969E0,-1.258162618E0,-9.520686150E0,-1.133300185E0
6.909901282E0,-1.309187770E0,-9.530981064E0,-1.107232094E0
6.913871594E0,-1.360395074E0,-9.540357590E0,-1.094724774E0
6.917841907E0,-1.428792477E0,-9.538211823E0,-1.098814130E0
6.921812219E0,-1.487230182E0,-9.541784286E0,-1.078894258E0
6.925782532E0,-1.520710707E0,-9.568972588E0,-1.095548391E0
6.929752844E0,-1.596894264E0,-9.623589516E0,-1.123081684E0
6.933724719E0,-1.673757672E0,-9.670783997E0,-1.139850736E0
6.937695032E0,-1.752919555E0,-9.712778091E0,-1.193509579E0
6.941665344E0,-1.843717337E0,-9.777239799E0,-1.231567740E0
6.945635657E0,-1.886831999E0,-9.821743011E0,-1.285197854E0
6.949605969E0,-1.900823712E0,-9.850138664E0,-1.355051160E0
6.953576282E0,-1.930636406E0,-9.869032860E0,-1.464044809E0
6.957554407E0,-1.889341235E0,-9.877642632E0,-1.550322294E0
6.961518469E0,-1.894253969E0,-9.841864586E0,-1.584339023E0
6.965488782E0,-1.854414582E0,-9.741662025E0,-1.600389719E0
6.969459094E0,-1.805908084E0,-9.646066666E0,-1.605695367E0
6.973429407E0,-1.753015399E0,-9.534352303E0,-1.619370937E0
6.977399719E0,-1.654182792E0,-9.402461052E0,-1.623833776E0
6.981371594E0,-1.584090114E0,-9.307707787E0,-1.625816107E0
6.985341907E0,-1.488398552E0,-9.193906784E0,-1.662313342E0
6.989310657E0,-1.401757240E0,-9.109363556E0,-1.673776865E0
6.993282532E0,-1.316360831E0,-9.032633781E0,-1.682233095E0
6.997252844E0,-1.224978924E0,-8.969167709E0,-1.700055599E0
7.001223157E0,-1.144868851E0,-8.940570831E0,-1.755380869E0
7.005193469E0,-1.068465233E0,-8.924827576E0,-1.855736256E0
7.009163782E0,-9.931914806E-1,-8.939020157E0,-1.950297594E0
7.013134094E0,-9.236734509E-1,-8.960012436E0,-2.075590849E0
7.017105969E0,-8.605335951E-1,-8.986587524E0,-2.201076031E0
7.021076282E0,-8.848682046E-1,-9.004755974E0,-2.279711008E0
7.025046594E0,-9.117503166E-1,-9.044632912E0,-2.354486465E0
7.029016907E0,-9.622296691E-1,-9.082575798E0,-2.415002346E0
7.032987219E0,-1.005631804E0,-9.114247322E0,-2.461823463E0
7.036957532E0,-1.033097982E0,-9.113854408E0,-2.494547367E0
7.040929407E0,-1.015227675E0,-9.107131958E0,-2.501193762E0
7.044899719E0,-9.418406487E-1,-9.114084244E0,-2.479119062E0
7.048877844E0,-8.022108078E-1,-9.105637550E0,-2.442861557E0
7.052840344E0,-6.397402883E-1,-9.124407768E0,-2.431608677E0
7.056810657E0,-4.291941822E-1,-9.148886681E0,-2.432269573E0
7.060780969E0,-2.719813287E-1,-9.177846909E0,-2.474416971E0
7.064751282E0,-1.312405616E-1,-9.177223206E0,-2.521257162E0
7.068721594E0,-4.312435910E-2,-9.183965683E0,-2.575471401E0
7.072693469E0,7.402871735E-3,-9.179177284E0,-2.658445120E0
7.076663782E0,5.529648066E-2,-9.168882370E0,-2.794703960E0
7.080634094E0,9.142976999E-2,-9.166019440E0,-2.902720451E0
7.084604407E0,9.337386489E-2,-9.140056610E0,-3.029239655E0
7.088574719E0,1.145386100E-1,-9.103827477E0,-3.178714514E0
7.092545032E0,1.197100803E-1,-9.040448189E0,-3.275737286E0
7.096516907E0,1.016003415E-1,-8.941481590E0,-3.349066973E0
7.100487219E0,1.191546321E-1,-8.867644310E0,-3.425097227E0
7.104457532E0,1.668567061E-1,-8.821062088E0,-3.491224766E0
7.108427844E0,2.298242003E-1,-8.803967476E0,-3.529292822E0
7.112398157E0,2.834638953E-1,-8.804666519E0,-3.554441452E0
7.116368469E0,3.056054711E-1,-8.805251122E0,-3.569381237E0
7.120338782E0,2.899186611E-1,-8.793672562E0,-3.572369099E0
7.124309094E0,2.725942433E-1,-8.807205200E0,-3.550668240E0
7.128279407E0,2.077975422E-1,-8.813774109E0,-3.515454292E0
7.132251282E0,1.314129531E-1,-8.814559937E0,-3.476543665E0
7.136221594E0,9.027098119E-2,-8.826033592E0,-3.447506905E0
7.140191907E0,2.450704761E-2,-8.833225250E0,-3.436282635E0
7.144162219E0,-5.592855066E-2,-8.820421219E0,-3.432499886E0
7.148132532E0,-1.168274656E-1,-8.781520844E0,-3.446692944E0
7.152102844E0,-1.297753155E-1,-8.770018578E0,-3.450255394E0
7.156074719E0,-7.565677911E-2,-8.679201126E0,-3.435430527E0
7.160045032E0,-2.510081045E-2,-8.503697395E0,-3.413576126E0
7.164013782E0,7.526411861E-2,-8.303992271E0,-3.417062044E0
7.167985657E0,2.152100056E-1,-8.047677994E0,-3.424062729E0
7.171955969E0,3.550696969E-1,-7.845846653E0,-3.447238445E0
7.175926282E0,4.325939417E-1,-7.619202137E0,-3.446730852E0
7.179898157E0,5.402851701E-1,-7.447528362E0,-3.429655552E0
7.183866907E0,6.224637032E-1,-7.318308830E0,-3.290696144E0
7.187837219E0,7.077930570E-1,-7.239893436E0,-3.188655376E0
7.191809094E0,8.014829755E-1,-7.224446297E0,-3.129633427E0
7.195779407E0,8.270242810E-1,-7.244184017E0,-3.194008827E0
7.199749719E0,8.444732428E-1,-7.260033607E0,-3.354046583E0
7.203720032E0,8.334599137E-1,-7.313787937E0,-3.461958170E0
7.207690344E0,8.534946442E-1,-7.360589981E0,-3.640747547E0
7.211660657E0,9.199768305E-1,-7.427857399E0,-3.844647408E0
7.215632532E0,1.059798241E0,-7.513473988E0,-4.051420212E0
7.219602844E0,1.387028098E0,-7.714098454E0,-4.287153244E0
7.223573157E0,1.810351729E0,-7.987717628E0,-4.461958885E0
7.227543469E0,2.148240566E0,-8.299049377E0,-4.508281708E0
7.231513782E0,2.510923862E0,-8.688021660E0,-4.241309166E0
7.235484094E0,3.267338276E0,-9.259593964E0,-4.335449219E0
7.239455969E0,3.956073523E0,-9.947381020E0,-4.723520279E0
7.243424719E0,4.333840370E0,-1.050007820E1,-5.032822609E0
7.247396594E0,4.983779907E0,-1.131352234E1,-5.295370579E0
7.251366907E0,5.616682053E0,-1.222052288E1,-5.403579235E0
7.255337219E0,5.963659763E0,-1.292980003E1,-5.258739948E0
7.259307532E0,5.999237537E0,-1.352083302E1,-4.925122261E0
7.263277844E0,5.653687000E0,-1.372057629E1,-4.450428009E0
7.267248157E0,5.346559048E0,-1.386003304E1,-3.708493948E0
7.271220032E0,5.062031746E0,-1.415382099E1,-2.694568634E0
7.275190344E0,4.778567791E0,-1.440661049E1,-1.521122575E0
7.279160657E0,4.399067879E0,-1.452613831E1,-5.700594187E-1
7.283130969E0,3.737712860E0,-1.451164913E1,4.054915905E-1
7.287101282E0,3.236146688E0,-1.435765457E1,1.042033195E0
7.291071594E0,3.183014631E0,-1.443701744E1,1.535363317E0
7.295041907E0,3.352993488E0,-1.475249577E1,1.560875893E0
7.299013782E0,3.195732594E0,-1.479501724E1,1.311639428E0
7.302982532E0,2.881871939E0,-1.439648819E1,9.848597050E-1
7.306954407E0,2.621315718E0,-1.400966167E1,6.640462279E-1
7.310924719E0,2.255826473E0,-1.354291725E1,2.128732651E-1
7.314909094E0,1.846973419E0,-1.313967609E1,-2.736285031E-1
7.318865344E0,1.622943163E0,-1.280140400E1,-7.647079825E-1
7.322835657E0,1.658827424E0,-1.224917698E1,-1.248834729E0
7.326805969E0,1.983241796E0,-1.168467140E1,-1.742624521E0
7.330777844E0,2.481207132E0,-1.107065392E1,-2.379367113E0
7.334748157E0,2.813876390E0,-1.080021477E1,-2.967938662E0
7.338718469E0,3.002798080E0,-1.059325123E1,-3.496061325E0
7.342688782E0,3.218343496E0,-1.035911751E1,-3.676450014E0
7.346659094E0,3.584081650E0,-9.909658432E0,-3.531667709E0
7.350629407E0,3.898440361E0,-9.496745110E0,-3.383658171E0
7.354601282E0,3.938279867E0,-9.300429344E0,-3.342027903E0
7.358571594E0,3.816386223E0,-9.211183548E0,-3.388207197E0
7.362540344E0,3.741629601E0,-8.997343063E0,-3.468317032E0
7.366512219E0,3.706750870E0,-8.884968758E0,-3.447592974E0
7.370482532E0,3.527386904E0,-8.965710640E0,-3.132353306E0
7.374452844E0,3.287545443E0,-9.133543968E0,-2.890883446E0
7.378423157E0,3.135915756E0,-9.241416931E0,-2.863417149E0
7.382393469E0,2.950221539E0,-9.325263023E0,-2.820407867E0
7.386363782E0,2.867803574E0,-9.258531570E0,-2.785394907E0
7.390335657E0,2.700879812E0,-9.194385529E0,-2.723701477E0
7.394305969E0,2.383724689E0,-9.174342155E0,-2.702584505E0
7.398276282E0,2.122354507E0,-9.023439407E0,-2.723327875E0
7.402246594E0,1.932360172E0,-8.745635986E0,-2.668280363E0
7.406216907E0,1.756606698E0,-8.500153542E0,-2.585804939E0
7.410187219E0,1.568355322E0,-8.208722115E0,-2.466133118E0
7.414159094E0,1.498118997E0,-8.000157356E0,-2.402140856E0
7.418129407E0,1.514686942E0,-7.867423534E0,-2.397668362E0
7.422099719E0,1.671717763E0,-7.725619793E0,-2.440045834E0
7.426070032E0,1.864029646E0,-7.630186558E0,-2.528372765E0
7.430040344E0,2.232966661E0,-7.497547626E0,-2.627186298E0
7.434016907E0,2.475575924E0,-7.283573151E0,-2.785749435E0
7.437980969E0,2.683919191E0,-7.117645741E0,-2.944762707E0
7.441951282E0,2.836190462E0,-7.181484222E0,-3.177163124E0
7.445921594E0,2.979315996E0,-7.340833187E0,-3.482548237E0
7.449893469E0,3.134258986E0,-7.304805279E0,-3.726258755E0
7.453863782E0,3.396098375E0,-7.253444672E0,-3.991986513E0
7.457834094E0,3.454076529E0,-7.396033764E0,-4.168343067E0
7.461804407E0,3.395284414E0,-7.621768475E0,-4.223026752E0
7.465774719E0,3.229921579E0,-7.666856289E0,-4.309869766E0
7.469745032E0,3.135417700E0,-7.697023392E0,-4.339883327E0
7.473715344E0,3.099112034E0,-7.702376842E0,-4.317195892E0
7.477687219E0,3.144841194E0,-7.639706135E0,-4.269503593E0
7.481657532E0,3.219885349E0,-7.639284611E0,-4.198050976E0
7.485627844E0,3.286434650E0,-7.660813332E0,-4.008611679E0
7.489598157E0,3.294670582E0,-7.344376564E0,-3.744962454E0
7.493568469E0,3.310654402E0,-7.082125187E0,-3.552171707E0
7.497538782E0,3.329826832E0,-6.902847767E0,-3.541263580E0
7.501509094E0,3.327595711E0,-6.691707611E0,-3.383504868E0
7.505480969E0,3.376791716E0,-6.672975063E0,-3.350742579E0
7.509451282E0,3.282632589E0,-6.702290058E0,-3.313670874E0
7.513421594E0,3.241145849E0,-6.658706188E0,-3.250042677E0
7.517391907E0,3.334692001E0,-6.510179043E0,-3.265854120E0
7.521362219E0,3.515243769E0,-6.326160431E0,-3.294919491E0
7.525332532E0,3.631534576E0,-6.236752033E0,-3.331483841E0
7.529304407E0,3.706569195E0,-6.237058163E0,-3.389088392E0
7.533274719E0,3.801762342E0,-6.240371704E0,-3.483438969E0
7.537243469E0,3.887570620E0,-6.230134487E0,-3.530394077E0
7.541215344E0,3.995711803E0,-6.198616505E0,-3.470797539E0
7.545185657E0,4.088913441E0,-6.153021812E0,-3.453751087E0
7.549155969E0,4.068409443E0,-6.114743233E0,-3.536197424E0
7.553126282E0,4.152177811E0,-6.143933773E0,-3.648198128E0
7.557096594E0,4.139996052E0,-6.202083588E0,-3.742041588E0
7.561068469E0,4.265423298E0,-6.452497959E0,-3.741821289E0
7.565038782E0,4.286501884E0,-6.432635784E0,-4.042293549E0
7.569009094E0,4.204955578E0,-6.278391838E0,-4.070899487E0
7.572979407E0,4.281771183E0,-6.191645145E0,-4.161620617E0
7.576949719E0,4.328860283E0,-6.019042015E0,-4.329099655E0
7.580920032E0,4.359793663E0,-5.966235638E0,-4.411479473E0
7.584891907E0,4.408932209E0,-6.006716728E0,-4.584226131E0
7.588862219E0,4.405743122E0,-6.074491501E0,-4.765121937E0
7.592832532E0,4.359075069E0,-6.084193230E0,-4.931748867E0
7.596802844E0,4.360894680E0,-6.088838100E0,-5.073706150E0
7.600773157E0,4.388035774E0,-6.139030457E0,-5.216506004E0
7.604743469E0,4.269579887E0,-5.901362419E0,-5.222347736E0
7.608713782E0,4.164082050E0,-5.775111198E0,-5.182537079E0
7.612685657E0,4.120335102E0,-5.744293690E0,-5.203998566E0
7.616654407E0,4.086222649E0,-5.758926868E0,-5.175746918E0
7.620626282E0,4.140666485E0,-5.696141243E0,-5.151623249E0
7.624596594E0,4.139411926E0,-5.709375858E0,-5.078532696E0
7.628566907E0,4.090397835E0,-5.598151207E0,-4.910449982E0
7.632537219E0,4.054858208E0,-5.590288639E0,-4.763369560E0
7.636507532E0,4.054599762E0,-5.663024426E0,-4.585547447E0
7.640477844E0,4.069357872E0,-5.772985458E0,-4.499567032E0
7.644449719E0,4.103613853E0,-5.835771084E0,-4.373795033E0
7.648420032E0,4.120363712E0,-5.852530479E0,-4.355206013E0
7.652390344E0,4.126732349E0,-5.896315575E0,-4.365079403E0
7.656360657E0,4.151555061E0,-5.891488552E0,-4.367780209E0
7.660330969E0,4.153882504E0,-5.939075470E0,-4.352677822E0
7.664301282E0,4.201948166E0,-6.019224167E0,-4.326284409E0
7.668273157E0,4.299354076E0,-6.151451111E0,-4.312618256E0
7.672241907E0,4.451290131E0,-6.417475700E0,-4.255942345E0
7.676212219E0,4.587118149E0,-6.592395782E0,-4.213929176E0
7.680184094E0,4.624716759E0,-6.354891300E0,-3.999542713E0
7.684154407E0,4.743631840E0,-6.314132214E0,-3.796083450E0
7.688124719E0,4.950768471E0,-6.463521004E0,-3.686811924E0
7.692095032E0,5.082851887E0,-6.610342979E0,-3.625558853E0
7.696065344E0,5.219656944E0,-6.772277355E0,-3.579178333E0
7.700035657E0,5.323478699E0,-6.896066666E0,-3.567063808E0
7.704007532E0,5.372377872E0,-7.125536919E0,-3.613271713E0
7.707977844E0,5.381696224E0,-7.107331753E0,-3.616461039E0
7.711948157E0,5.280517101E0,-6.936347008E0,-3.511614084E0
7.715918469E0,5.261306286E0,-6.944142342E0,-3.500140905E0
7.719888782E0,5.135629654E0,-7.178534985E0,-3.693419933E0
7.723859094E0,4.888471603E0,-7.456118584E0,-3.880541325E0
7.727829407E0,4.585997581E0,-7.838731289E0,-4.233551979E0
7.731801282E0,4.436053753E0,-8.180039406E0,-4.554135799E0
7.735771594E0,4.420931816E0,-8.535213470E0,-4.951553822E0
7.739741907E0,4.569535255E0,-8.809378624E0,-5.308788300E0
7.743712219E0,4.859587669E0,-9.031819344E0,-5.590910912E0
7.747682532E0,5.108211517E0,-9.343449593E0,-5.805718899E0
7.751652844E0,5.676795959E0,-9.621376991E0,-6.298234940E0
7.755623157E0,6.384005070E0,-1.004209614E1,-6.827592850E0
7.759595032E0,6.903604031E0,-1.038479233E1,-7.203760147E0
7.763565344E0,7.236694813E0,-1.070418835E1,-7.344520092E0
7.767535657E0,7.716895103E0,-1.118925381E1,-7.705470085E0
7.771505969E0,8.272637367E0,-1.135395622E1,-7.824997902E0
7.775476282E0,8.699887276E0,-1.126119423E1,-7.759320259E0
7.779446594E0,9.049278259E0,-1.100180626E1,-7.344261646E0
7.783416907E0,9.171612740E0,-1.066091156E1,-6.768092155E0
7.787388782E0,9.014571190E0,-1.031041908E1,-5.941431522E0
7.791370032E0,8.567976952E0,-1.002579594E1,-4.933185577E0
7.795329407E0,7.969789982E0,-9.699294090E0,-4.031883717E0
7.799299719E0,7.025248528E0,-9.249796867E0,-3.388925552E0
7.803270032E0,6.355446815E0,-9.087326050E0,-3.330200434E0
7.807240344E0,5.869280338E0,-9.246550560E0,-3.669679165E0
7.811210657E0,5.382318974E0,-9.347231865E0,-4.069903374E0
7.815180969E0,4.917325974E0,-9.336773872E0,-4.424848557E0
7.819152844E0,4.303529739E0,-9.184531212E0,-4.920304775E0
7.823123157E0,3.893297672E0,-9.065203667E0,-5.461978436E0
7.827093469E0,3.509516716E0,-8.996807098E0,-6.154247761E0
7.831063782E0,3.090378284E0,-8.819358826E0,-6.785588741E0
7.835034094E0,2.848870039E0,-8.693661690E0,-7.053308487E0
7.839004407E0,2.631189346E0,-8.524209976E0,-7.051910877E0
7.842976282E0,2.527874708E0,-8.370809555E0,-6.838510036E0
7.846946594E0,2.281636000E0,-8.223709106E0,-6.476765633E0
7.850915344E0,2.113246918E0,-8.152429581E0,-6.004293919E0
7.854887219E0,1.929477572E0,-8.010213852E0,-5.579370975E0
7.858857532E0,1.820828676E0,-7.909752846E0,-5.141366005E0
7.862827844E0,1.791456699E0,-7.854552269E0,-4.877372265E0
7.866799719E0,1.869488358E0,-7.926253796E0,-4.767861366E0
7.870768469E0,2.143442631E0,-8.134807587E0,-4.783787727E0
7.874738782E0,2.506499290E0,-8.430022240E0,-4.786076069E0
7.878710657E0,2.865936041E0,-8.853183746E0,-4.693459034E0
7.882680969E0,3.122173071E0,-9.452624321E0,-4.522110939E0
7.886651282E0,3.273381233E0,-1.001689911E1,-4.314657688E0
7.890621594E0,3.378553629E0,-1.070424652E1,-4.113046646E0
7.894591907E0,3.513759136E0,-1.130859947E1,-3.988864422E0
7.898562219E0,3.626324892E0,-1.194300556E1,-3.903458595E0
7.902534094E0,3.768665075E0,-1.245753860E1,-3.840673208E0
7.906504407E0,3.857001543E0,-1.282554722E1,-3.776556492E0
7.910474719E0,3.841161489E0,-1.310291004E1,-3.683766603E0
7.914445032E0,3.744943380E0,-1.316193295E1,-3.621862173E0
7.918415344E0,3.543466330E0,-1.311477661E1,-3.676785231E0
7.922385657E0,3.291404724E0,-1.286788559E1,-3.779017687E0
7.926355969E0,2.935731888E0,-1.251473141E1,-3.865572691E0
7.930326282E0,2.430976629E0,-1.194083214E1,-4.001543999E0
7.934298157E0,1.881516933E0,-1.129455090E1,-4.185016632E0
7.938268469E0,1.396327138E0,-1.068905735E1,-4.355301857E0
7.942238782E0,8.386696577E-1,-9.999948502E0,-4.493839741E0
7.946209094E0,3.013821244E-1,-9.450115204E0,-4.494625568E0
7.950179407E0,-2.672599554E-1,-8.823236465E0,-4.302466869E0
7.954149719E0,-6.300677061E-1,-8.369047165E0,-4.095090389E0
7.958120032E0,-8.816695809E-1,-8.106039047E0,-3.830933332E0
7.962091907E0,-1.075360417E0,-7.945684910E0,-3.502669096E0
7.966062219E0,-1.183262348E0,-7.884221077E0,-3.167902231E0
7.970032532E0,-1.147301555E0,-7.971916199E0,-2.753657579E0
7.974002844E0,-9.231083989E-1,-8.133342743E0,-2.322873592E0
7.977973157E0,-7.239969969E-1,-8.317034721E0,-2.010937929E0
7.981943469E0,-4.490277469E-1,-8.547731400E0,-1.778537512E0
7.985913782E0,-1.756577939E-1,-8.781423569E0,-1.696186543E0
7.989884094E0,7.948749512E-2,-8.953356743E0,-1.818616509E0
7.993855969E0,2.453194857E-1,-9.089184761E0,-2.155193329E0
7.997826282E0,3.660160005E-1,-9.151232719E0,-2.529368639E0
8.001796594E0,4.478881061E-1,-9.164027214E0,-3.003612280E0
8.005766907E0,5.552440882E-1,-9.205666542E0,-3.339221954E0
8.009737219E0,7.359488606E-1,-9.225347519E0,-3.537768364E0
8.013707532E0,9.126505256E-1,-9.307631493E0,-3.563347816E0
8.017679407E0,1.127171040E0,-9.401934624E0,-3.307331085E0
8.021649719E0,9.442731142E-1,-9.306463242E0,-3.538908005E0
8.025618469E0,9.046347737E-1,-9.343879700E0,-3.802787066E0
8.029590344E0,1.007365227E0,-9.357689857E0,-4.004474640E0
8.033560657E0,1.080886364E0,-9.343324661E0,-4.206871033E0
8.037530969E0,1.086143970E0,-9.335461617E0,-4.246643543E0
8.041501282E0,1.063427687E0,-9.285432816E0,-4.181482792E0
8.045471594E0,1.017114282E0,-9.215943336E0,-4.118668556E0
8.049441907E0,9.427408576E-1,-9.092440605E0,-4.060077667E0
8.053413782E0,8.482369184E-1,-8.926349640E0,-4.030648232E0
8.057384094E0,7.987536192E-1,-8.804399490E0,-3.936718702E0
8.061354407E0,7.449128032E-1,-8.673187256E0,-3.802844763E0
8.065324719E0,6.387730241E-1,-8.577408791E0,-3.674410105E0
8.069295032E0,5.268488526E-1,-8.505229950E0,-3.658809662E0
8.073266907E0,5.357840657E-1,-8.368433952E0,-3.667026281E0
8.077237219E0,6.971915364E-1,-8.233391762E0,-3.502573490E0
8.081207532E0,7.046901584E-1,-8.035468102E0,-3.611883163E0
8.085177844E0,7.414172292E-1,-7.870420933E0,-3.661759138E0
8.089148157E0,7.756734490E-1,-7.754493713E0,-3.701531410E0
8.093118469E0,8.482081890E-1,-7.643699646E0,-3.697911739E0
8.097088782E0,9.739995599E-1,-7.525062084E0,-3.675473213E0
8.101059094E0,8.925009370E-1,-7.476929188E0,-3.650056124E0
8.105029407E0,7.072280049E-1,-7.468386650E0,-3.726239681E0
8.109001282E0,5.262933969E-1,-7.479237080E0,-3.767314672E0
8.112971594E0,3.670215309E-1,-7.541342735E0,-3.751522541E0
