"Time (s)","Acceleration x (m/s^2)","Acceleration y (m/s^2)","Acceleration z (m/s^2)"
1.578292300E-2,2.766777575E-1,6.121645451E0,7.582887173E0
1.824620500E-2,3.245873451E-1,6.188718796E0,7.640378952E0
2.070953800E-2,3.910618722E-1,6.174345970E0,7.626006126E0
2.317281900E-2,4.245985746E-1,6.155181885E0,7.769135952E0
2.563610000E-2,4.767002165E-1,6.183928013E0,7.788299561E0
2.809943400E-2,4.904742241E-1,6.246210098E0,7.816446304E0
3.056271500E-2,4.904742241E-1,6.246210098E0,7.849983215E0
3.302599600E-2,5.042482615E-1,6.279747009E0,7.873938084E0
3.548933000E-2,5.234120488E-1,6.261181831E0,7.969158173E0
3.795261100E-2,5.084403157E-1,6.218063354E0,7.964367390E0
4.041589200E-2,5.036493540E-1,6.127035141E0,7.873339176E0
4.287922500E-2,4.695138037E-1,6.108470440E0,7.739192486E0
4.534250700E-2,4.168132544E-1,6.142006874E0,7.849384308E0
4.780578800E-2,3.209941387E-1,6.132425308E0,7.872740269E0
5.026912100E-2,3.060223758E-1,6.103679180E0,7.829621792E0
5.273240300E-2,3.251862228E-1,6.027622700E0,7.781712055E0
5.519568400E-2,2.670958638E-1,5.960549355E0,7.752966404E0
5.765901700E-2,2.048134208E-1,6.008459091E0,7.810457706E0
6.012229800E-2,-4.910730943E-2,6.304899693E0,7.733802319E0
6.258558000E-2,-1.305535734E-1,6.262379646E0,7.742785454E0
6.504891300E-2,-6.887000799E-2,6.123442173E0,7.829022884E0
6.751219400E-2,-3.114122152E-2,6.123442173E0,7.890706539E0
6.997547500E-2,-1.197739318E-2,6.028221607E0,7.852378845E0
7.243880900E-2,3.054235131E-2,5.951566219E0,7.752367496E0
7.490209000E-2,8.324287832E-2,5.880300999E0,7.766141415E0
7.736537100E-2,1.018078402E-1,5.837182522E0,7.785305500E0
7.982870500E-2,1.107908860E-1,5.827600479E0,7.804469109E0
8.229198600E-2,1.778642833E-1,5.756334782E0,7.756559372E0
8.475526700E-2,1.676834971E-1,5.727589130E0,7.827825069E0
8.721860000E-2,2.389489859E-1,5.689261436E0,7.875734806E0
8.968188200E-2,1.862484515E-1,5.694052696E0,7.879926682E0
9.214516300E-2,1.335479319E-1,5.741961956E0,7.846389771E0
9.460849600E-2,7.066661865E-2,5.722798347E0,7.784107685E0
9.707177800E-2,2.754800394E-2,5.761126041E0,7.664932251E0
9.953505900E-2,2.090055048E-1,5.713815212E0,7.521203518E0
1.019983920E-1,5.671295524E-1,5.680278301E0,7.769734859E0
1.044616730E-1,6.006662250E-1,5.723397255E0,8.051802635E0
1.069249550E-1,6.000673771E-1,5.742560863E0,8.103903770E0
1.093882880E-1,5.952764153E-1,5.800052643E0,8.060785294E0
1.118515690E-1,5.186210871E-1,5.915035248E0,8.223078728E0
1.143148500E-1,4.365759790E-1,5.943780899E0,8.338062286E0
1.167781840E-1,3.120110929E-1,6.063555241E0,8.366209030E0
1.192414650E-1,2.880562842E-1,6.092300892E0,8.227869987E0
1.217047460E-1,1.485196650E-1,6.116255760E0,8.055395126E0
1.241680800E-1,7.186435908E-2,6.092300892E0,7.768537045E0
1.266313610E-1,-2.874574251E-2,6.116255760E0,7.438559532E0
1.290946940E-1,-2.874574363E-1,6.293520927E0,6.850469589E0
1.315579750E-1,-6.036605835E-1,6.437249660E0,6.262379646E0
1.340212570E-1,-7.282254696E-1,6.446831703E0,5.640753269E0
1.364845900E-1,-6.946887970E-1,6.394131184E0,5.544933796E0
1.389478710E-1,-6.425871253E-1,6.270164967E0,5.764719009E0
1.414111530E-1,-6.048583388E-1,6.078526974E0,5.884492874E0
1.438744860E-1,-5.377849340E-1,5.877905369E0,5.859939575E0
1.463377670E-1,-4.186098874E-1,5.734775543E0,5.898267269E0
1.488010480E-1,-3.521353602E-1,5.582063675E0,5.984504223E0
1.512643820E-1,-2.569150627E-1,5.519781590E0,5.974323273E0
1.537276630E-1,-1.377400160E-1,5.400007725E0,6.036605835E0
1.561909440E-1,-9.462140501E-2,5.328742027E0,6.150990009E0
1.586542780E-1,-6.168357283E-2,5.323951244E0,6.251600266E0
1.611175590E-1,-8.563835919E-2,5.347905636E0,6.351611137E0
1.635808400E-1,-1.245648861E-1,5.429352283E0,6.465995312E0
1.660441730E-1,-2.108021080E-1,5.453306675E0,6.657034874E0
1.685074550E-1,-2.299659401E-1,5.477261543E0,6.862447262E0
1.709707360E-1,-3.976494372E-1,5.496425629E0,7.077441216E0
1.734340690E-1,-5.515589118E-1,5.563498974E0,7.249915600E0
1.758973500E-1,-7.288243175E-1,5.644945145E0,7.493056774E0
1.783606320E-1,-8.677620888E-1,5.640154362E0,7.564921379E0
1.808239650E-1,-1.040236592E0,5.668900013E0,7.727214813E0
1.832872460E-1,-1.145637631E0,5.702436447E0,7.841598988E0
1.857505280E-1,-1.274993420E0,5.683871746E0,7.985327721E0
1.882138610E-1,-1.370812654E0,5.659916878E0,7.989519596E0
1.906771420E-1,-1.414530039E0,5.597634315E0,7.927237511E0
1.931404230E-1,-1.481603503E0,5.569487572E0,7.893700600E0
1.956037570E-1,-1.525321007E0,5.559905529E0,7.922446251E0
1.980670380E-1,-1.625931025E0,5.559905529E0,7.908073425E0
2.005303190E-1,-1.664258718E0,5.535951138E0,7.621214867E0
2.029936530E-1,-1.660066605E0,5.464685440E0,7.458322525E0
2.054569340E-1,-1.693603277E0,5.540741920E0,7.243328094E0
2.079202150E-1,-1.689411283E0,5.631770134E0,7.042108059E0
2.103835480E-1,-1.718156934E0,5.637159824E0,6.817532063E0
2.128468300E-1,-1.704383016E0,5.622786999E0,6.540255070E0
2.153101110E-1,-1.737919688E0,5.598832130E0,6.391735554E0
2.177734440E-1,-1.719354749E0,5.522176743E0,6.243216038E0
2.202367250E-1,-1.748100519E0,5.546131611E0,6.090504169E0
2.227000070E-1,-1.715162635E0,5.470075130E0,5.903656960E0
2.251633400E-1,-1.643298268E0,5.494029999E0,5.626380444E0
2.276266210E-1,-1.691806674E0,5.661713600E0,5.459295750E0
2.300899030E-1,-1.643897176E0,5.556312561E0,5.349103451E0
2.325532360E-1,-1.587004542E0,5.451510429E0,5.123928547E0
2.350165170E-1,-1.429501772E0,5.346109390E0,4.928098202E0
2.374797980E-1,-1.415727854E0,5.274843693E0,4.784369469E0
2.399431320E-1,-1.358236313E0,5.246098042E0,4.646030426E0
2.424064130E-1,-1.243852258E0,5.092787266E0,4.545420647E0
2.448696940E-1,-1.177377701E0,4.992775917E0,4.478347301E0
2.473330280E-1,-1.120485067E0,4.901748180E0,4.344200134E0
2.497963090E-1,-1.115694165E0,4.749036312E0,4.291499615E0
2.522595900E-1,-1.159411669E0,4.577160835E0,4.310663700E0
2.547229230E-1,-1.164202571E0,4.457386494E0,4.325036526E0
2.571862050E-1,-1.202530265E0,4.290302277E0,4.372347355E0
2.596495380E-1,-1.222292900E0,4.151963234E0,4.381928921E0
2.621128190E-1,-1.270202518E0,4.056144238E0,4.415465832E0
2.645761000E-1,-1.285174251E0,4.036980152E0,4.429239750E0
2.670394340E-1,-1.342665672E0,3.927386999E0,4.328629494E0
2.695027150E-1,-1.386383176E0,3.860313654E0,4.362166405E0
2.719659960E-1,-1.348055601E0,3.827375889E0,4.471759796E0
2.744293300E-1,-1.410936832E0,3.808212042E0,4.734663486E0
2.768926110E-1,-1.511546969E0,3.827375889E0,4.877793312E0
2.793558920E-1,-1.559456587E0,3.836957693E0,5.150279045E0
2.818192250E-1,-1.626529932E0,3.827375889E0,5.489838123E0
2.842825070E-1,-1.790021300E0,3.693827868E0,8.591982841E0
2.867457880E-1,-2.712879419E0,3.531534195E0,1.713845062E1
2.892091210E-1,-4.062132835E0,3.645918369E0,2.507287598E1
2.916724030E-1,-2.943444252E0,3.555489063E0,2.124370193E1
2.941356840E-1,-1.518134475E0,3.818392754E0,1.339012623E1
2.965990170E-1,-1.054609418E0,4.330426216E0,8.968671799E0
2.990622980E-1,-1.112699747E0,4.526256561E0,7.281056881E0
3.015255800E-1,-1.433095098E0,4.617284775E0,7.314593792E0
3.039889130E-1,-1.605569482E0,4.593329906E0,8.251225471E0
3.064521940E-1,-1.797207832E0,4.583748341E0,9.365123749E0
3.089154750E-1,-1.855298162E0,4.593928814E0,1.005801582E1
3.113788090E-1,-1.688213468E0,4.493319035E0,1.077007198E1
3.138420900E-1,-1.434891701E0,4.359770775E0,1.137193584E1
3.163053710E-1,-1.013886333E0,4.302279472E0,1.127132511E1
3.187687050E-1,-6.653441787E-1,4.402889729E0,1.057364273E1
3.212319860E-1,-3.066212535E-1,4.503499508E0,9.851405144E0
3.236952670E-1,-6.827113777E-2,4.632256508E0,9.344761848E0
3.261586000E-1,3.712991625E-2,4.713702679E0,9.139349937E0
3.286218820E-1,3.174009174E-2,4.775985241E0,9.081857681E0
3.310851630E-1,1.173784509E-1,4.914923191E0,8.847101212E0
3.335484960E-1,2.030168027E-1,5.053860664E0,8.550661087E0
3.360117780E-1,2.096043713E-2,5.230527401E0,8.034435272E0
3.384750590E-1,-5.815024376E-1,5.345510483E0,6.992402077E0
3.409383920E-1,-9.551970959E-1,5.450911522E0,6.079125881E0
3.434016730E-1,-1.084552884E0,5.484447956E0,5.452708244E0
3.458649550E-1,-1.046824098E0,5.436538696E0,5.070629120E0
3.483282880E-1,-1.180970907E0,5.561103344E0,4.755024910E0
3.507915690E-1,-1.444473505E0,5.656922817E0,4.453793526E0
3.532548500E-1,-1.707377315E0,5.857543945E0,4.161545277E0
3.557181840E-1,-1.846315145E0,6.111464500E0,3.913014174E0
3.581814650E-1,-1.851704955E0,6.264176369E0,3.845940828E0
3.606447460E-1,-1.952314973E0,6.527678967E0,3.702811003E0
3.631080800E-1,-1.962495804E0,6.752254963E0,3.668675423E0
3.655713610E-1,-1.900213361E0,7.010367870E0,3.597409964E0
3.680346420E-1,-1.633117437E0,7.197215080E0,3.635138750E0
3.704979750E-1,-1.288767457E0,7.312198162E0,3.754313707E0
3.729612570E-1,-1.016281724E0,7.555938244E0,3.969307899E0
3.754245380E-1,-9.641801119E-1,7.656548500E0,4.485533714E0
3.778878710E-1,-1.246846557E0,7.694875717E0,6.512108326E0
3.803511530E-1,-2.361342907E0,7.666130066E0,1.026941681E1
3.828144860E-1,-3.457274437E0,7.609237671E0,1.347157288E1
3.852777670E-1,-2.950630665E0,7.460718155E0,1.281640911E1
3.877410480E-1,-1.621140122E0,7.149904728E0,1.090481758E1
3.902043820E-1,-5.832990408E-1,6.954074383E0,9.518433571E0
3.926676630E-1,2.629037797E-1,6.662424564E0,8.356626511E0
3.951309440E-1,6.401916146E-1,6.261181831E0,7.271475315E0
3.975942780E-1,6.210278273E-1,5.744956493E0,6.401317596E0
4.000575590E-1,3.191975057E-1,5.266459465E0,5.841973305E0
4.025208400E-1,-3.952539712E-2,4.927499294E0,5.363476276E0
4.049841730E-1,-2.694913447E-1,4.659804821E0,4.875996590E0
4.074474550E-1,-7.246322632E-1,4.693341255E0,4.206460476E0
4.099107360E-1,-1.279784441E0,4.712505341E0,3.130890369E0
4.123740690E-1,-1.561851978E0,4.507092953E0,2.160721540E0
4.148373500E-1,-1.366021633E0,3.919003010E0,1.405547023E0
4.173006320E-1,-7.875135541E-1,2.890743732E0,3.389602005E-1
4.197639650E-1,-3.718980551E-1,2.623647928E0,-3.491410017E-1
4.222272460E-1,-2.143953294E-1,2.331998348E0,-3.874686658E-1
4.246905280E-1,9.641800821E-2,1.763072252E0,-4.689149261E-1
4.271538610E-1,3.108133376E-1,1.481004596E0,-4.024403989E-1
4.296171420E-1,6.024628282E-1,1.318710923E0,3.293782845E-2
4.320804230E-1,8.893213868E-1,9.935247302E-1,3.335703909E-1
4.345437570E-1,1.037242174E0,7.785305381E-1,8.210502863E-1
4.370070380E-1,1.041434288E0,6.731294990E-1,1.308530211E0
4.394703190E-1,8.785417676E-1,7.976943254E-1,1.700190902E0
4.419336530E-1,5.341917276E-1,1.127671480E0,2.245162249E0
4.443969340E-1,1.844518483E-1,1.276191235E0,2.732642174E0
4.468602150E-1,-1.551072299E-1,1.553467870E0,3.324924231E0
4.493235480E-1,-5.431747437E-1,1.960100293E0,4.137590408E0
4.517868300E-1,-8.923157454E-1,2.500280619E0,4.653815746E0
4.542501110E-1,-1.289965153E0,2.791930199E0,4.907137871E0
4.567134440E-1,-1.782834888E0,2.954822779E0,5.026312828E0
4.591767250E-1,-2.194258451E0,3.165025949E0,5.528165817E0
4.616400070E-1,-2.682935953E0,3.332709551E0,6.096492767E0
4.641033400E-1,-3.185387611E0,3.289590836E0,6.173148155E0
4.665666210E-1,-3.496201038E0,3.284800053E0,6.345023632E0
4.690299030E-1,-3.573455095E0,3.342291355E0,6.574390888E0
4.714932360E-1,-3.640528440E0,3.075195551E0,6.507317543E0
4.739565170E-1,-3.760302544E0,3.022495031E0,6.320470333E0
4.764197980E-1,-3.823183775E0,2.783545971E0,5.947973251E0
4.788831320E-1,-3.895048141E0,2.209828854E0,5.737171173E0
4.813464130E-1,-4.617284775E0,1.014485121E0,9.063892365E0
4.838096940E-1,-5.402402878E0,-6.587565690E-2,1.383448792E1
4.862730280E-1,-3.733353376E0,5.270052552E-1,7.725418091E0
4.887363090E-1,-2.360743999E0,7.659542561E-1,2.520043373E0
4.911995900E-1,-2.342179060E0,7.785305381E-2,4.981397629E0
4.936629230E-1,-2.452371120E0,-5.677284002E-1,6.601938725E0
4.961262050E-1,-2.285286427E0,-9.264513254E-1,5.301194191E0
4.985895380E-1,-1.850507140E0,-1.241456747E0,2.930269241E0
5.010528710E-1,-1.248044372E0,-1.475614786E0,1.591795444E0
5.035162570E-1,-1.057004929E0,-1.513942480E0,1.195343852E0
5.059795900E-1,-1.434891701E0,-1.260620594E0,7.168469429E-1
5.084429230E-1,-1.401953816E0,-6.054571867E-1,9.030954242E-1
5.109062570E-1,-1.100722432E0,2.078077644E-1,1.505558252E0
5.133696420E-1,-1.197140455E0,6.330052018E-1,2.049930811E0
5.158329750E-1,-1.436688304E0,7.096605301E-1,2.609275103E0
5.182963090E-1,-1.704383016E0,5.952764153E-1,3.077590942E0
5.207596940E-1,-2.173297882E0,9.821461886E-2,3.378822565E0
5.232230280E-1,-3.063817024E0,-6.910955310E-1,2.503874063E0
5.256863610E-1,-2.724257946E0,-5.809035301E-1,1.055208325E0
5.281497460E-1,-2.389489889E0,-2.078077644E-1,1.542688131E0
5.306130800E-1,-2.590710163E0,-7.845192403E-2,2.555975676E0
5.330764130E-1,-2.978777647E0,1.036044434E-1,3.502189636E0
5.355397980E-1,-3.156043053E0,1.131863594E-1,4.090279579E0
5.380031320E-1,-3.036867857E0,-3.533330932E-2,4.797544479E0
5.404664650E-1,-2.860201359E0,-3.030280471E-1,5.643148422E0
5.429297980E-1,-2.731444359E0,-5.850956440E-1,6.489351273E0
5.453931840E-1,-2.745817184E0,-7.952988744E-1,7.459520340E0
5.478565170E-1,-2.803308725E0,-8.857281804E-1,8.300333023E0
5.503198500E-1,-2.899726868E0,-9.192649126E-1,8.950705528E0
5.527832360E-1,-2.966800213E0,-9.528015852E-1,9.313620567E0
5.552465690E-1,-2.967399120E0,-9.240558743E-1,9.562151909E0
5.577099030E-1,-2.991353750E0,-9.761574864E-1,9.590897560E0
5.601732880E-1,-2.991952658E0,-1.033648968E0,9.461541176E0
5.626366210E-1,-2.834450006E0,-1.105513334E0,9.317812920E0
5.650999550E-1,-2.738630772E0,-1.171987891E0,8.930343628E0
5.675633400E-1,-2.710484028E0,-1.367818236E0,8.705767632E0
5.700266730E-1,-2.576936007E0,-1.487592220E0,8.294344902E0
5.724900070E-1,-2.529026508E0,-1.673840642E0,7.715836525E0
5.749533400E-1,-2.472133875E0,-1.874462008E0,6.994198322E0
5.774167250E-1,-2.386495590E0,-2.041546583E0,6.430063248E0
5.798800590E-1,-2.315229893E0,-2.199648142E0,5.909046650E0
5.823433920E-1,-2.172100067E0,-2.323614120E0,5.239510536E0
5.848067780E-1,-2.023580551E0,-2.443388224E0,4.771194458E0
5.872701110E-1,-2.024179459E0,-2.437998295E0,4.230415344E0
5.897334440E-1,-1.957704782E0,-2.485907793E0,3.642924070E0
5.921968300E-1,-1.900213361E0,-2.638619661E0,3.255455256E0
5.946601630E-1,-1.967885613E0,-2.691320181E0,2.796122313E0
5.971234960E-1,-2.149941921E0,-2.624246836E0,2.212823391E0
5.995868300E-1,-2.384698868E0,-2.585919142E0,2.117603064E0
6.020502150E-1,-2.800913334E0,-2.542800426E0,1.916382790E0
6.045135480E-1,-3.466257334E0,-2.275105715E0,1.557659864E0
6.069768820E-1,-3.882471800E0,-2.246360064E0,1.758281231E0
6.094402670E-1,-4.269940376E0,-2.126585960E0,1.854100347E0
6.119036000E-1,-4.725081444E0,-2.131376982E0,2.169105768E0
6.143669340E-1,-5.174832344E0,-2.164913654E0,2.666167736E0
6.168303190E-1,-5.514990330E0,-2.255342960E0,3.096156120E0
6.192936530E-1,-5.543735981E0,-2.680540562E0,3.961522579E0
6.217569860E-1,-5.534154415E0,-2.976980925E0,4.553804874E0
6.242203710E-1,-5.515589237E0,-3.230302811E0,5.113149166E0
6.266837050E-1,-5.468278408E0,-3.550698042E0,5.858741760E0
6.291470380E-1,-5.429951191E0,-3.818392754E0,6.589961529E0
6.316103710E-1,-5.387431145E0,-4.129206181E0,7.239735126E0
6.340737570E-1,-5.249092579E0,-4.420855522E0,7.784706593E0
6.365370900E-1,-5.168244839E0,-4.764606953E0,8.257813454E0
6.390004230E-1,-5.082007885E0,-5.309578419E0,8.960287094E0
6.414638090E-1,-4.934086800E0,-5.902459145E0,9.194445610E0
6.439271420E-1,-4.858030319E0,-6.237227440E0,8.998016357E0
6.463904750E-1,-4.805928707E0,-6.643859863E0,8.615338326E0
6.488538610E-1,-4.781973839E0,-6.954074383E0,8.027248383E0
6.513171940E-1,-4.614889622E0,-7.136130810E0,7.205000401E0
6.537805280E-1,-4.433432102E0,-7.293633461E0,6.703147888E0
6.562439130E-1,-4.319047928E0,-7.398435593E0,6.502526283E0
6.587072460E-1,-4.214245796E0,-7.585282803E0,6.373170853E0
6.611705800E-1,-4.190889835E0,-7.699666977E0,6.248605728E0
6.636339130E-1,-4.200471401E0,-7.818841934E0,6.243814945E0
6.660972980E-1,-4.205861568E0,-7.871542454E0,6.114459038E0
6.685606320E-1,-4.234607220E0,-7.857169628E0,5.971329212E0
6.710239650E-1,-4.344799042E0,-7.746977806E0,5.741363049E0
6.734873500E-1,-4.531646729E0,-7.498446941E0,5.430549622E0
6.759506840E-1,-4.876595497E0,-7.268480778E0,5.172437191E0
6.784140170E-1,-5.283227921E0,-6.905565739E0,5.019126415E0
6.808774030E-1,-5.714414120E0,-6.718718529E0,5.114945412E0
6.833407360E-1,-6.044391155E0,-6.579780579E0,5.296402931E0
6.858040690E-1,-6.418086052E0,-6.422277927E0,5.578470707E0
6.882674030E-1,-6.728899002E0,-6.383950233E0,5.807837963E0
6.907307880E-1,-6.920537472E0,-6.392933369E0,6.050978661E0
6.931941210E-1,-7.164876461E0,-6.340232849E0,6.265973091E0
6.956574550E-1,-7.409214973E0,-6.340232849E0,6.414492607E0
6.981208400E-1,-7.557734966E0,-6.301905155E0,6.399520874E0
7.005841730E-1,-7.677508831E0,-6.359396458E0,6.351611137E0
7.030475070E-1,-7.878728867E0,-6.430662155E0,6.375566006E0
7.055108920E-1,-8.070366859E0,-6.464199066E0,6.318074703E0
7.079742250E-1,-8.151813507E0,-6.536063194E0,6.318074703E0
7.104375590E-1,-8.257813454E0,-6.698357105E0,6.351012707E0
7.129009440E-1,-8.430288315E0,-6.803758144E0,6.303102970E0
7.153642780E-1,-8.511734009E0,-6.927723885E0,6.503724098E0
7.178276110E-1,-8.612343788E0,-7.142718315E0,6.642662048E0
7.202909440E-1,-8.694389343E0,-7.381667137E0,6.833701611E0
7.227543300E-1,-8.747090340E0,-7.630198002E0,7.082232475E0
7.252176630E-1,-8.857281685E0,-7.893101692E0,7.330164433E0
7.276809960E-1,-8.957892418E0,-8.079350471E0,7.549949646E0
7.301443820E-1,-9.025564194E0,-8.347044945E0,7.855971813E0
7.326077150E-1,-9.025564194E0,-8.638694763E0,8.157203674E0
7.350710480E-1,-9.050117493E0,-8.887225151E0,8.295541763E0
7.375344340E-1,-9.026163101E0,-8.992626190E0,8.319497108E0
7.399977670E-1,-9.117790222E0,-9.135756493E0,8.318898201E0
7.424611000E-1,-9.208818436E0,-9.274095535E0,8.533892632E0
7.449244860E-1,-9.290265083E0,-9.326795578E0,8.811168671E0
7.473878190E-1,-9.347756386E0,-9.355541229E0,9.026163101E0
7.498511530E-1,-9.314818382E0,-9.445970535E0,9.508852005E0
7.523144860E-1,-9.301044464E0,-9.350152016E0,9.743010521E0
7.547778710E-1,-9.420818329E0,-9.307032585E0,9.876558304E0
7.572412050E-1,-9.531010628E0,-9.326196671E0,1.023468208E1
7.597045380E-1,-9.602874756E0,-9.345360756E0,1.049279499E1
7.621679230E-1,-9.718456268E0,-9.412433624E0,1.080360794E1
7.646312570E-1,-9.857394218E0,-9.488490105E0,1.128150654E1
7.670945900E-1,-1.002986908E1,-9.507654190E0,1.161567593E1
7.695579750E-1,-1.015922451E1,-9.493281364E0,1.193128014E1
7.720213090E-1,-1.002088547E1,-9.459744453E0,1.226065826E1
7.744846420E-1,-9.762772560E0,-9.168095589E0,1.249960709E1
7.769479750E-1,-9.514242172E0,-8.823744774E0,1.206482792E1
7.794113610E-1,-9.065089226E0,-8.569824219E0,1.244690609E1
7.818746940E-1,-8.515327454E0,-8.316502571E0,1.298708725E1
7.843380280E-1,-8.075757027E0,-8.081746101E0,1.272837543E1
7.868014130E-1,-7.784107685E0,-7.895497322E0,1.251338100E1
7.892647460E-1,-7.708051205E0,-7.579893112E0,1.213549423E1
7.917280800E-1,-7.684096336E0,-7.349926949E0,1.192049980E1
7.941914650E-1,-7.612830639E0,-7.144514561E0,1.168634224E1
7.966547980E-1,-7.522401333E0,-7.024740696E0,1.131324673E1
7.991181320E-1,-7.536774158E0,-6.938503742E0,1.062933731E1
8.015815170E-1,-7.494254589E0,-6.981622219E0,1.034727001E1
8.040448500E-1,-7.308006287E0,-6.890594006E0,1.031852341E1
8.065081840E-1,-7.231949806E0,-6.723509312E0,9.797507286E0
8.089715170E-1,-6.878017902E0,-6.746865273E0,9.314219475E0
8.114349030E-1,-6.926526070E0,-6.641464233E0,8.774039268E0
8.138982360E-1,-7.146910191E0,-6.527080059E0,8.200322151E0
8.163615690E-1,-7.328966618E0,-6.383351326E0,7.703259945E0
8.188249550E-1,-7.558932304E0,-6.321069241E0,7.330164433E0
8.212882880E-1,-7.836209297E0,-6.287532330E0,6.937904835E0
8.237516210E-1,-8.142830849E0,-6.182131290E0,6.612718582E0
8.262150070E-1,-8.415914536E0,-6.052775383E0,6.541452885E0
8.286783400E-1,-8.683609962E0,-6.028820515E0,6.536063194E0
8.311416730E-1,-8.966276169E0,-6.019238472E0,6.651046276E0
8.336050590E-1,-9.301643372E0,-5.918628693E0,6.688775063E0
8.360683920E-1,-9.689111710E0,-5.799453735E0,6.832503796E0
8.385317250E-1,-1.009155178E1,-5.784482002E0,7.085226536E0
8.409950590E-1,-1.048381138E1,-5.646142960E0,7.352921486E0
8.434584440E-1,-1.098147297E1,-5.564696789E0,7.749372959E0
8.459217780E-1,-1.145996952E1,-5.559905529E0,8.060186386E0
8.483851110E-1,-1.185761833E1,-5.483250618E0,8.456638336E0
8.508484960E-1,-1.221634197E1,-5.397013187E0,8.905790329E0
8.533118300E-1,-1.251817226E1,-5.401803970E0,9.298049927E0
8.557751630E-1,-1.264273643E1,-5.449114799E0,9.646592140E0
8.582385480E-1,-1.285832977E1,-5.477860451E0,1.005262566E1
8.607018820E-1,-1.312183285E1,-5.544933796E0,1.021971035E1
8.631652150E-1,-1.320327854E1,-5.477860451E0,1.043949509E1
8.656285480E-1,-1.317992306E1,-5.444324017E0,1.047303200E1
8.680919340E-1,-1.317992306E1,-5.821611881E0,1.068802643E1
8.705552670E-1,-1.302721119E1,-6.170752525E0,1.106531429E1
8.730186000E-1,-1.280742645E1,-6.486357212E0,1.141445541E1
8.754819860E-1,-1.262117767E1,-6.835497856E0,1.141864777E1
8.779453190E-1,-1.257865810E1,-7.308605194E0,1.130426311E1
8.804086530E-1,-1.255530167E1,-7.810457706E0,1.115095234E1
8.828720380E-1,-1.257925701E1,-8.221282005E0,1.117490768E1
8.853353710E-1,-1.264153957E1,-8.656661034E0,1.132282829E1
8.877987050E-1,-1.285234165E1,-8.890818596E0,1.133240986E1
8.902620900E-1,-1.323082733E1,-9.115394592E0,1.135576630E1
8.927254230E-1,-1.363266850E1,-9.339970589E0,1.139888477E1
8.951887570E-1,-1.399678135E1,-9.454954147E0,1.156596947E1
8.976520900E-1,-1.434113121E1,-9.507055283E0,1.195763016E1
9.001154750E-1,-1.456630611E1,-9.444772720E0,1.257925701E1
9.025788090E-1,-1.473398972E1,-9.444772720E0,1.303320026E1
9.050421420E-1,-1.482561684E1,-9.320208549E0,1.346318817E1
9.075055280E-1,-1.486394405E1,-9.162705421E0,1.363506413E1
9.099688610E-1,-1.485496140E1,-9.042931557E0,1.371171951E1
9.124321940E-1,-1.485017014E1,-8.951903343E0,1.372549343E1
9.148955800E-1,-1.480285931E1,-8.803383827E0,1.358715439E1
9.173589130E-1,-1.478369617E1,-8.588389397E0,1.344821644E1
9.198222460E-1,-1.481783104E1,-8.382378578E0,1.319010353E1
9.222856320E-1,-1.480345821E1,-8.148220062E0,1.286012650E1
9.247489650E-1,-1.481363964E1,-7.918853283E0,1.253494072E1
9.272122980E-1,-1.481363964E1,-7.621813774E0,1.204207039E1
9.296756320E-1,-1.485735703E1,-7.488265991E0,1.168394661E1
9.321390170E-1,-1.489568424E1,-7.234345436E0,1.145877171E1
9.346023500E-1,-1.493461132E1,-6.933113575E0,1.112879467E1
9.370656840E-1,-1.492982006E1,-6.588763714E0,1.080360794E1
9.395290690E-1,-1.491604614E1,-6.330650806E0,1.059340477E1
9.419924030E-1,-1.487292767E1,-6.100685120E0,1.032571030E1
9.444557360E-1,-1.478728867E1,-5.957555294E0,9.976569176E0
9.469191210E-1,-1.464415932E1,-5.809035301E0,9.579518318E0
9.493824550E-1,-1.446270180E1,-5.679679394E0,9.206422806E0
9.518457880E-1,-1.433394432E1,-5.674888611E0,8.866864204E0
9.543091210E-1,-1.421476936E1,-5.579069614E0,8.647078514E0
9.567725070E-1,-1.410517693E1,-5.555114746E0,8.456039429E0
9.592358400E-1,-1.396623898E1,-5.588651657E0,8.269191742E0
9.616991730E-1,-1.382789993E1,-5.617397308E0,8.115880966E0
9.641625590E-1,-1.355601311E1,-5.760527134E0,8.082345009E0
9.666258920E-1,-1.324040890E1,-5.822809696E0,8.077553749E0
9.690892250E-1,-1.292001343E1,-5.832391262E0,8.072762489E0
9.715526110E-1,-1.259063530E1,-5.980312347E0,8.163191795E0
9.740159440E-1,-1.230377674E1,-6.023430824E0,8.196728706E0
9.764792780E-1,-1.214627361E1,-5.970730305E0,8.339859009E0
9.789426630E-1,-1.208458996E1,-5.846165180E0,8.559643745E0
9.814059960E-1,-1.197499752E1,-5.769510269E0,8.822547913E0
9.838693300E-1,-1.182707691E1,-5.673690796E0,9.027959824E0
9.863326630E-1,-1.163124561E1,-5.577871799E0,9.348355293E0
9.887960480E-1,-1.169831944E1,-5.544334888E0,9.581913948E0
9.912593820E-1,-1.171748352E1,-5.558708191E0,9.692106247E0
9.937227150E-1,-1.162226295E1,-5.640154362E0,9.753789902E0
9.961861000E-1,-1.140247822E1,-5.735374451E0,9.691507339E0
9.986495380E-1,-1.118269253E1,-5.845566750E0,9.500468254E0
1.001112975E0,-1.106351757E1,-5.897668362E0,9.060298920E0
1.003576361E0,-1.092996979E1,-5.979114532E0,8.749485016E0
1.006039798E0,-1.078204918E1,-5.931204796E0,8.611146927E0
1.008503184E0,-1.063412857E1,-5.797058105E0,8.118276596E0
1.010966621E0,-1.043350697E1,-5.830594540E0,7.975146770E0
1.013430059E0,-1.007897568E1,-5.841374397E0,7.897892952E0
1.015893444E0,-9.954411507E0,-5.774301052E0,7.706853390E0
1.018356882E0,-9.835235596E0,-5.759928226E0,7.472695351E0
1.020820267E0,-9.686716080E0,-5.827001572E0,7.324774742E0
1.023283705E0,-9.486095428E0,-6.013249874E0,7.181046009E0
1.025747142E0,-9.304039001E0,-6.300707340E0,7.009170055E0
1.028210528E0,-9.217801094E0,-6.634876728E0,6.813339710E0
1.030673965E0,-9.117790222E0,-6.773814678E0,6.660029411E0
1.033137350E0,-9.060298920E0,-6.936108112E0,6.569001198E0
1.035600788E0,-8.983643532E0,-6.921735287E0,6.560018063E0
1.038064225E0,-8.859078407E0,-6.907961369E0,6.607328892E0
1.040527611E0,-8.773440361E0,-7.103791714E0,6.707938671E0
1.042991048E0,-8.668039322E0,-7.199610710E0,6.679193020E0
1.045454434E0,-8.615338326E0,-7.142119408E0,6.746266365E0
1.047917871E0,-8.624920845E0,-7.194819927E0,6.980424404E0
1.050381309E0,-8.543474197E0,-7.075046062E0,7.176254749E0
1.052844694E0,-8.486581802E0,-7.209192753E0,7.352921486E0
1.055308132E0,-8.395553589E0,-7.414605141E0,7.219373226E0
1.057771517E0,-8.347643852E0,-7.505633354E0,6.770221233E0
1.060234955E0,-8.285361290E0,-7.528988838E0,7.171463966E0
1.062698392E0,-8.027248383E0,-7.481678486E0,7.291237831E0
1.065161778E0,-7.936220646E0,-7.510424137E0,6.985215664E0
1.067625215E0,-7.769135952E0,-7.605644226E0,6.760639191E0
1.070088600E0,-7.553542614E0,-7.591271400E0,6.502526283E0
1.072552038E0,-7.324175835E0,-7.596062660E0,5.832990170E0
1.075015475E0,-6.912752151E0,-7.629599094E0,6.119848728E0
1.077478861E0,-6.424673557E0,-7.596062660E0,6.081521034E0
1.079942298E0,-6.056368828E0,-7.481678486E0,5.914436340E0
1.082405684E0,-5.673690796E0,-7.361904621E0,5.943182468E0
1.084869121E0,-5.238911629E0,-7.318785667E0,5.890481949E0
1.087332559E0,-4.989781857E0,-7.208593845E0,5.876108646E0
1.089795944E0,-4.712505341E0,-7.118164539E0,5.919227600E0
1.092259382E0,-4.540629387E0,-7.094209671E0,6.119848728E0
1.094722767E0,-4.377737045E0,-6.984017849E0,6.210876942E0
1.097186205E0,-4.358573437E0,-6.984017849E0,6.325261116E0
1.099649642E0,-4.329827309E0,-7.012763500E0,6.406707287E0
1.102113028E0,-4.310663700E0,-7.146910191E0,6.464199066E0
1.104576465E0,-4.243590355E0,-7.251712322E0,6.564209938E0
1.107039850E0,-3.937567949E0,-7.600853443E0,6.865441322E0
1.109503288E0,-4.014223099E0,-7.792491913E0,6.903769016E0
1.111966725E0,-4.368155003E0,-7.887712002E0,6.751057625E0
1.114430111E0,-4.631058693E0,-8.074559212E0,6.798966885E0
1.116893548E0,-4.784369469E0,-8.390163422E0,6.798966885E0
1.119356934E0,-4.865815639E0,-8.748287201E0,6.679193020E0
1.121820371E0,-5.028109550E0,-9.006999016E0,6.540853977E0
1.124283809E0,-4.856234074E0,-9.212411880E0,6.831904888E0
1.126747194E0,-5.028109550E0,-9.226784706E0,6.435452938E0
1.129210632E0,-5.229329586E0,-9.241157532E0,6.186922073E0
1.131674017E0,-5.282030106E0,-9.446569443E0,6.129430771E0
1.134137455E0,-5.234120846E0,-9.561553001E0,5.813826561E0
1.136600892E0,-5.329939842E0,-9.480106354E0,5.555713654E0
1.139064278E0,-5.544933796E0,-9.360332489E0,5.737770081E0
1.141527715E0,-5.645544052E0,-9.260321617E0,5.789871693E0
1.143991100E0,-5.860538483E0,-8.877643585E0,5.718605995E0
1.146454538E0,-6.224051952E0,-8.366209030E0,5.694651604E0
1.148917975E0,-6.501328945E0,-7.921248436E0,5.957555294E0
1.151381361E0,-6.539656639E0,-7.543362141E0,5.914436340E0
1.153844798E0,-6.482164860E0,-7.031927109E0,5.847362995E0
1.156308236E0,-6.410899639E0,-6.530074596E0,5.799453735E0
1.158771621E0,-6.262379646E0,-6.156978607E0,5.747352123E0
1.161235059E0,-6.176142693E0,-5.769510269E0,5.570086479E0
1.163698444E0,-6.109069347E0,-5.468278408E0,5.594041348E0
1.166161882E0,-6.042594433E0,-5.186211109E0,5.536549568E0
1.168625319E0,-6.047385693E0,-4.875397682E0,5.388628960E0
1.171088705E0,-5.985103130E0,-4.435827255E0,5.579668522E0
1.173552142E0,-5.965939522E0,-4.244189262E0,5.689860344E0
1.176015528E0,-5.965939522E0,-4.196279526E0,5.460493565E0
1.178478965E0,-6.037803650E0,-3.981285334E0,5.240109444E0
1.180942403E0,-6.137814999E0,-3.775872946E0,5.130516052E0
1.183405788E0,-6.248006821E0,-3.632144451E0,5.049069881E0
1.185869225E0,-6.401317596E0,-3.474641562E0,4.862821579E0
1.188332611E0,-6.587565899E0,-3.287794352E0,4.834075928E0
1.190796048E0,-6.816933155E0,-3.058427334E0,4.891567230E0
1.193259486E0,-6.984616756E0,-2.843433142E0,4.929894924E0
1.195722871E0,-7.242729187E0,-2.623647928E0,4.905940056E0
1.198186309E0,-7.539169788E0,-2.360145330E0,4.776584148E0
1.200649694E0,-7.926638603E0,-2.154732943E0,4.824493885E0
1.203113132E0,-8.194931984E0,-1.815173864E0,4.814911842E0
1.205576569E0,-8.457836151E0,-1.513942480E0,4.662199974E0
1.208039955E0,-8.735112190E0,-1.433095098E0,4.604708672E0
1.210503392E0,-9.021970749E0,-1.260620594E0,4.460979939E0
1.212966778E0,-8.988434792E0,-1.318112016E0,4.528053284E0
1.215430215E0,-9.204027176E0,-1.131863594E0,4.265149593E0
1.217893653E0,-9.347157478E0,-1.183965325E0,4.198076248E0
1.220357038E0,-9.433394432E0,-1.437886000E0,4.418460369E0
1.222820475E0,-9.486095428E0,-1.786428094E0,4.862821579E0
1.225283861E0,-9.816072464E0,-1.944529653E0,5.111352444E0
1.227747298E0,-1.005562019E1,-2.322416544E0,5.546131611E0
1.230210736E0,-1.022270489E1,-2.771568775E0,6.052775383E0
1.232674121E0,-1.050956345E1,-3.206946850E0,6.354006767E0
1.235137559E0,-1.082995892E1,-3.603398561E0,6.827113628E0
1.237600944E0,-1.071078300E1,-4.316053391E0,7.448740482E0
1.240064382E0,-1.053830910E1,-4.937680244E0,7.907474518E0
1.242527819E0,-1.041913414E1,-5.449114799E0,8.380581856E0
1.244991205E0,-1.016521358E1,-5.927611828E0,9.030954361E0
1.247454642E0,-9.854399681E0,-6.506119728E0,9.202829361E0
1.249918028E0,-9.863982201E0,-6.682786465E0,9.279484749E0
1.252381465E0,-1.012688541E1,-6.573193073E0,9.198039055E0
1.254844903E0,-1.033768749E1,-6.615712643E0,8.854287148E0
1.257308288E0,-1.068203735E1,-6.381554604E0,8.505146980E0
1.259771725E0,-1.124138165E1,-5.846165180E0,8.485982895E0
1.262235111E0,-1.164322376E1,-5.301194191E0,8.261406898E0
1.264698548E0,-1.181090736E1,-4.952053070E0,8.055994034E0
1.267161986E0,-1.199715519E1,-4.631657600E0,7.754763126E0
1.269625371E0,-1.225047684E1,-4.239398003E0,7.644570827E0
1.272088809E0,-1.234150505E1,-3.742336273E0,7.515813828E0
1.274552194E0,-1.221274853E1,-3.546505928E0,7.205000401E0
1.277015632E0,-1.195403671E1,-3.546505928E0,6.760639191E0
1.279479069E0,-1.170071507E1,-3.412359238E0,6.392334461E0
1.281942455E0,-1.164322376E1,-3.321331024E0,6.234831810E0
1.284405892E0,-1.154740429E1,-3.273421526E0,6.253396511E0
1.286869278E0,-1.153842163E1,-3.292585373E0,6.244413853E0
1.289332715E0,-1.097368717E1,-3.919003010E0,6.009656906E0
1.291796153E0,-1.083474922E1,-4.000449181E0,6.201294899E0
1.294259538E0,-1.082576656E1,-3.842946529E0,6.583374023E0
1.296722975E0,-1.062454605E1,-4.062731743E0,6.827113628E0
1.299186361E0,-1.024665928E1,-4.789160252E0,6.927723885E0
1.301649798E0,-1.002208328E1,-5.262866497E0,7.338548660E0
1.304113236E0,-9.969383240E0,-5.554515839E0,7.864356041E0
1.306576621E0,-9.945427895E0,-6.003668308E0,8.495564461E0
1.309040059E0,-9.777744293E0,-6.448628426E0,8.997417450E0
1.311503444E0,-9.615450859E0,-6.916944504E0,9.255530357E0
1.313966882E0,-9.323801041E0,-7.495452404E0,9.446569443E0
1.316430319E0,-8.888422966E0,-8.045813560E0,9.632818222E0
1.318893705E0,-8.290751457E0,-8.786615372E0,9.766964912E0
1.321357142E0,-7.654152870E0,-9.417823792E0,9.743010521E0
1.323820528E0,-7.099599361E0,-9.900512695E0,9.274694443E0
1.326283965E0,-6.262379646E0,-9.771756172E0,7.649362087E0
1.328747403E0,-5.339521885E0,-9.278885841E0,5.034697056E0
1.331210788E0,-4.655612469E0,-8.872852325E0,2.841037512E0
1.333674225E0,-4.248980045E0,-8.494965553E0,1.110304356E0
1.336137611E0,-4.444810390E0,-7.854175091E0,-1.728936672E0
1.338601048E0,-5.779690742E0,-6.544447422E0,-6.891192913E0
1.341064486E0,-6.143204689E0,-6.128232956E0,-8.301530838E0
1.343527871E0,-6.726503849E0,-6.209679127E0,-8.339859009E0
1.345991309E0,-7.190627575E0,-6.610921860E0,-7.570311069E0
1.348454694E0,-7.668525696E0,-6.950480938E0,-8.062582016E0
1.350918132E0,-8.505745888E0,-6.955271721E0,-9.457947731E0
1.353381569E0,-9.500468254E0,-6.792978287E0,-1.097787952E1
1.355844955E0,-1.122281742E1,-5.984504223E0,-1.686237144E1
1.358308392E0,-1.169113350E1,-6.152187824E0,-1.790440559E1
1.360771778E0,-1.045267105E1,-7.007972240E0,-1.409978676E1
1.363235215E0,-9.223191261E0,-7.629599094E0,-1.038559723E1
1.365698653E0,-8.290751457E0,-8.403937340E0,-6.183928013E0
1.368162038E0,-7.649362087E0,-9.226784706E0,-1.848710537E0
1.370625475E0,-7.228955269E0,-1.010173321E1,1.865478873E0
1.373088861E0,-7.219373226E0,-1.096230888E1,4.030991554E0
1.375552298E0,-7.305011749E0,-1.177976608E1,5.092188358E0
1.378015736E0,-6.998989582E0,-1.270741463E1,5.464685440E0
1.380479121E0,-6.310289383E0,-1.376441956E1,5.522176743E0
1.382942559E0,-5.454504490E0,-1.416566277E1,4.929296017E0
1.385405944E0,-4.316053391E0,-1.401295090E1,3.022495031E0
1.387869382E0,-2.976980925E0,-1.410817051E1,2.028371572E0
1.390332819E0,-1.441479206E0,-1.446689415E1,1.492982030E0
1.392796205E0,-1.928360164E-1,-1.534184265E1,1.636111856E0
1.395259642E0,7.731407285E-1,-1.620241737E1,2.205038071E0
1.397723028E0,1.299547076E0,-1.677194214E1,2.200247049E0
1.400186465E0,1.978665233E0,-1.709712982E1,1.315716624E0
1.402649903E0,2.633828640E0,-1.763251877E1,7.611632943E-1
1.405113288E0,2.978178740E0,-1.792895889E1,7.785305381E-2
1.407576725E0,2.303851604E0,-1.731691360E1,4.030392766E-1
1.410040111E0,1.758281231E0,-1.626469994E1,1.961298108E0
1.412503548E0,1.663061023E0,-1.525620365E1,2.114009857E0
1.414966986E0,1.385185480E0,-1.425189972E1,1.922970414E0
1.417430371E0,1.160609365E0,-1.306134701E1,2.056518316E0
1.419893809E0,7.970954776E-1,-1.212890720E1,1.765467644E0
1.422357194E0,4.862821400E-1,-1.168873787E1,1.124677181E0
1.424820632E0,2.563162148E-1,-1.129707718E1,7.282254696E-1
1.427284069E0,2.090055048E-1,-1.097189045E1,2.880562842E-1
1.429747455E0,1.754688025E-1,-1.062274933E1,5.509600639E-1
1.432210892E0,2.706890702E-1,-1.029756355E1,1.277388930E0
1.434674278E0,2.137964666E-1,-1.009694195E1,1.836733222E0
1.437137715E0,-6.587565877E-3,-9.857993126E0,2.750009298E0
1.439601153E0,-3.221918643E-1,-9.871767044E0,4.131002903E0
1.442064538E0,-3.126099408E-1,-9.771756172E0,5.531758785E0
1.444527975E0,-7.048695683E-1,-9.365123749E0,6.660029411E0
1.446991361E0,-1.130665898E0,-9.278885841E0,7.782909870E0
1.449454798E0,-1.651682496E0,-9.154920578E0,8.462027550E0
1.451918236E0,-1.594190955E0,-9.154920578E0,7.726016998E0
1.454381621E0,-1.082756281E0,-9.393869400E0,5.789871693E0
1.456845059E0,-2.096642494E0,-8.944716454E0,3.442901611E0
1.459308444E0,-3.756110430E0,-8.714751244E0,1.616948009E0
1.461771882E0,-4.904143333E0,-8.102705956E0,2.563162088E0
1.464235319E0,-5.229329586E0,-8.772242546E0,4.704720020E0
1.466698705E0,-4.655612469E0,-9.460942268E0,6.139012814E0
1.469162142E0,-3.723172426E0,-1.045566463E1,6.344424725E0
1.471625528E0,-1.986450553E0,-1.166059113E1,5.168244839E0
1.474088965E0,-1.321705341E0,-1.273616028E1,4.289104462E0
1.476552403E0,-2.221207380E0,-1.330029583E1,5.560504436E0
1.479015788E0,-2.823670387E0,-1.286072540E1,7.190627575E0
1.481479225E0,-4.133996964E0,-1.188037586E1,9.981959343E0
1.483942611E0,-4.426245689E0,-1.155519009E1,1.234330177E1
1.486406048E0,-2.938653231E0,-1.135876083E1,1.125335979E1
1.488869486E0,-2.019987345E0,-1.089523506E1,8.872852325E0
1.491332871E0,-1.527716398E0,-1.006340504E1,6.722311497E0
1.493796309E0,-3.010517597E0,-9.020772934E0,4.159748554E0
1.496259746E0,-4.205861568E0,-6.682786465E0,-7.108582854E-1
1.498723184E0,-4.120223045E0,-5.080810070E0,-4.186098576E0
1.501186673E0,-2.747014999E0,-4.296889782E0,-6.461204529E0
1.503650111E0,-5.898866057E-1,-5.019126415E0,-1.159471512E1
1.506113600E0,-8.917168975E-1,-5.692854881E0,-7.512819767E0
1.508577038E0,-1.149829745E0,-7.366695404E0,-2.656585693E0
1.511040475E0,-3.153647423E0,-8.260807991E0,4.991578579E0
1.513503965E0,-3.871093273E0,-9.441779137E0,1.152584457E1
1.515967403E0,-6.033012867E0,-1.102938175E1,2.346131706E1
1.518430892E0,-1.149829745E0,-1.172227383E1,1.956087875E1
1.520894330E0,4.431635439E-1,-1.129228592E1,7.567915440E0
1.523357767E0,-1.546880245E0,-1.056046677E1,4.747838497E0
1.525821257E0,-1.073473835E1,-9.594490051E0,2.448418617E1
1.528284694E0,-1.333682632E1,-1.283677101E1,4.690706253E1
1.530748184E0,-1.838529825E0,-1.512684822E1,2.719946098E1
1.533211621E0,1.361230731E0,-1.431897259E1,8.930343628E0
1.535675111E0,-1.546880245E0,-9.393869400E0,6.180334687E-1
1.538138548E0,-4.220234394E0,-4.157951832E0,-8.382977486E0
1.540601986E0,-3.063218117E0,-4.192087352E-1,-1.157075977E1
1.543065475E0,2.994348109E-1,-1.714563727E0,-1.678092575E1
1.545528913E0,2.231987238E0,-1.561851978E0,-2.069573593E1
1.547992403E0,1.576224923E0,-2.001422405E0,-2.254085350E1
1.550455840E0,6.389939189E-1,-2.087659597E0,-1.640363884E1
1.552919278E0,-1.010891914E0,-2.680540562E0,-9.252535820E0
1.555382767E0,-1.092338204E0,-3.273421526E0,-5.667702198E0
1.557846205E0,-2.402664900E0,-4.598121166E0,-2.302653790E0
1.560309694E0,-2.957817078E0,-4.296889782E0,-4.862821400E-1
1.562773132E0,-2.134970188E0,-5.716809750E0,-2.521241307E-1
1.565236569E0,-1.001309991E0,-6.429464340E0,9.336377382E-1
1.567700059E0,8.444061875E-2,-5.191001892E0,-2.073286772E0
1.570163496E0,-2.503274977E-1,-3.359658718E0,-1.791219115E0
1.572626986E0,-1.446270227E0,-4.292098522E0,7.085226536E0
1.575090423E0,2.375117064E0,-8.227271080E0,5.220945358E0
1.577553861E0,2.413444519E0,-9.145338058E0,-1.752891421E0
1.580017350E0,-1.857693553E0,-6.773814678E0,1.612157106E0
1.582480788E0,-2.096043713E-2,-1.041254616E1,1.267807007E0
1.584944278E0,-1.024067104E-1,-7.055881977E0,6.903769016E0
1.587407715E0,-4.761013508E0,-3.942957640E0,1.071796989E1
1.589871205E0,-3.058427334E0,-4.765205860E0,9.087846756E0
1.592334642E0,-2.317026615E0,-5.831792355E0,3.748924017E0
1.594798080E0,2.930269241E0,-1.612636185E1,7.181046009E0
1.597261569E0,1.782235980E0,-1.857454109E1,1.391593361E1
1.599725007E0,1.700789779E-1,-2.457521439E1,3.304562759E1
1.602188496E0,-3.174009025E-1,-1.567181969E1,2.794505310E1
1.604651934E0,-3.866302252E0,-7.586480618E0,1.256787777E1
1.607115371E0,-2.565557480E0,-6.051577568E0,8.251824379E0
1.609578861E0,-9.123180389E0,-6.176142693E0,1.573230553E1
1.612042298E0,-8.716547966E0,-8.834525108E0,1.466152668E1
1.614505788E0,4.389115334E0,-8.557248116E0,-9.726242065E0
1.616969225E0,6.507916451E0,-5.889284134E0,-1.449623871E1
1.619432663E0,8.018864393E-1,-8.300333023E-1,-6.260583401E0
1.621896153E0,-2.929071426E0,4.228019714E-1,4.260358810E0
1.624359590E0,-2.001422405E0,-2.087659597E0,7.257102013E0
1.626823080E0,-5.665307045E-1,-5.300595284E0,2.965003490E0
1.629286517E0,4.856832623E-1,-6.051577568E0,-1.456450939E0
1.631749955E0,1.901411057E0,-7.405023098E0,-1.972676635E0
1.634213444E0,1.844518423E0,-5.735973358E0,-3.851330519E0
1.636676882E0,2.423026562E0,-5.994086266E0,-2.116405249E0
1.639140371E0,2.222405195E0,-3.359658718E0,-3.320732117E0
1.641603809E0,1.791817904E0,-3.431523085E0,-2.063704729E0
1.644067298E0,1.260620594E0,-2.862596750E0,1.305535734E-1
1.646530736E0,1.298948288E0,-1.762473345E0,-1.179174304E0
1.648994173E0,1.600179672E0,-2.694913387E0,-1.906202078E0
1.651457663E0,9.737620354E-1,-2.494292021E0,-1.150428534E0
1.653921100E0,-4.180110097E-1,-1.375004649E0,-1.910992980E0
1.656384590E0,-6.809147596E-1,-1.930156827E0,-1.055208325E0
1.658848028E0,-8.677620888E-1,-1.925365925E0,5.868922547E-2
1.661311465E0,-1.063592434E0,-2.460755348E0,3.215929866E-1
1.663774955E0,-1.996631384E0,-1.939738750E0,8.330276608E-1
1.666238392E0,-2.805105448E0,-1.662462115E0,7.563723326E-1
1.668701882E0,-2.479320288E0,-2.231388330E0,1.693603277E0
1.671165319E0,-3.187184095E0,-1.542688131E0,2.745218515E0
1.673628757E0,-4.105850220E0,-8.252423406E-1,2.821274757E0
1.676092246E0,-3.957330465E0,-1.260620594E0,2.587116718E0
1.678555684E0,-4.407081604E0,-1.313321114E0,2.572743893E0
1.681019173E0,-4.693940163E0,-1.595388651E0,2.333795071E0
1.683482611E0,-4.000449181E0,-2.317026615E0,2.367331743E0
1.685946048E0,-2.976980925E0,-3.120709658E0,2.563162088E0
1.688409538E0,-1.934348941E0,-3.780065060E0,2.716472626E0
1.690872975E0,-9.204626083E-1,-4.483138084E0,2.620653629E0
1.693336465E0,-6.887000799E-2,-5.133510590E0,2.754800320E0
1.695799903E0,6.581577063E-1,-5.712018490E0,3.189579725E0
1.698263392E0,1.121682882E0,-6.166560650E0,3.590822220E0
1.700726830E0,1.418722153E0,-6.510311604E0,4.198076248E0
1.703190267E0,1.628925443E0,-6.873825550E0,4.752629280E0
1.705653757E0,1.820563674E0,-7.242130280E0,5.249691010E0
1.708117194E0,2.197851658E0,-7.648763180E0,5.756334782E0
1.710580684E0,2.867986679E0,-8.107497215E0,6.148594379E0
1.713044121E0,3.632743120E0,-8.499756813E0,6.554628372E0
1.715507559E0,4.139985561E0,-8.753078461E0,6.875023365E0
1.717971048E0,3.901036739E0,-8.403937340E0,7.137927055E0
1.720434486E0,3.494404316E0,-7.700864792E0,7.109181404E0
1.722897975E0,3.111726522E0,-6.916944504E0,7.157091141E0
1.725361413E0,2.312834501E0,-6.137814999E0,6.836695671E0
1.727824850E0,1.672044039E0,-5.597035408E0,6.062357426E0
1.730288340E0,1.322903037E0,-5.128719330E0,4.852640629E0
1.732751778E0,8.587790728E-1,-4.913725376E0,3.753714800E0
1.735215267E0,1.652880162E-1,-4.875397682E0,1.922970414E0
1.737678705E0,-7.366096228E-2,-5.147883415E0,7.419995070E-1
1.740142142E0,4.090279639E-1,-5.803046703E0,8.042819500E-1
1.742605632E0,1.198338151E0,-6.304899693E0,1.922970414E0
1.745069069E0,1.772654176E0,-6.261780739E0,2.936257839E0
1.747532559E0,1.207920074E0,-6.692368031E0,4.776584148E0
1.749995996E0,1.461241961E0,-7.509825230E0,6.674402237E0
1.752459486E0,3.829172373E0,-1.146416187E1,9.345959663E0
1.754922923E0,5.259273052E0,-1.317573071E1,1.149709892E1
1.757386361E0,2.317625523E0,-9.833439827E0,9.302841187E0
1.759849850E0,-1.427705169E0,-6.811543465E0,5.340719223E0
1.762313288E0,-3.268630505E0,-5.779091835E0,2.133173704E0
1.764776778E0,-4.316652298E0,-5.372459412E0,6.084515452E-1
1.767240215E0,-3.766291142E0,-5.305386066E0,1.209716648E-1
1.769703653E0,-1.685818076E0,-5.606617451E0,-3.239884675E-1
1.772167142E0,5.815024376E-1,-6.041995525E0,-9.402253032E-1
1.774630580E0,2.652393579E0,-6.740277767E0,-5.629374459E-2
1.777094069E0,4.058539391E0,-7.371486187E0,1.674439549E0
1.779557507E0,4.383725643E0,-7.916457653E0,3.462065458E0
1.782020944E0,3.910618782E0,-8.581203461E0,4.523262501E0
1.784484434E0,2.862596750E0,-8.905790329E0,5.244900227E0
1.786947871E0,1.456450939E0,-8.839315414E0,4.231612682E0
1.789411361E0,4.473556280E-1,-8.738705635E0,1.927761316E0
1.791874798E0,-1.982258558E-1,-8.791406631E0,1.478010297E0
1.794338236E0,-7.366096228E-2,-8.872852325E0,1.186959624E0
1.796801725E0,3.275817037E-1,-9.039937019E0,4.359771013E-1
1.799265163E0,8.587790728E-1,-9.121383667E0,-6.773215532E-1
1.801728653E0,1.509151459E0,-8.709959984E0,-2.532020807E0
1.804192090E0,2.016394138E0,-7.098402023E0,-5.467081070E0
1.806655580E0,7.485870719E-1,-2.781150579E0,-5.863532543E0
1.809119017E0,-5.761125684E-1,-4.071714878E0,9.282479286E-1
1.811582455E0,-3.512969255E0,-3.053636312E0,4.188494205E0
1.814045944E0,-2.432009697E0,-8.126661301E0,5.464685440E0
1.816509382E0,-1.838529855E-1,-1.120125771E1,3.734550953E0
1.818972871E0,-5.473668575E-1,-1.029277229E1,1.435490489E0
1.821436309E0,-6.479769349E-1,-8.030841827E0,-1.467230618E-1
1.823899746E0,-2.461354136E-1,-6.075532436E0,-8.503948897E-2
1.826363236E0,-3.593217954E-2,-4.019612789E0,9.617846608E-1
1.828826673E0,-2.413444668E-1,-1.748100519E0,2.205038071E0
1.831290163E0,-1.068982244E0,-2.432009697E0,4.116630077E0
1.833753600E0,-1.963094711E0,-4.851442814E0,6.521091461E0
1.836217038E0,-2.317026615E0,-7.787101746E0,7.372085094E0
1.838680528E0,-2.197851658E0,-1.128270435E1,5.560504436E0
1.841143965E0,-1.762473345E0,-1.356799030E1,5.087397575E0
1.843607455E0,-1.245648861E0,-1.387880421E1,5.875510216E0
1.846070892E0,-6.048583388E-1,-1.383568478E1,5.010742188E0
1.848534330E0,-1.119886190E-1,-1.331945992E1,4.824493885E0
1.850997819E0,-1.455253214E-1,-1.214328003E1,4.776584148E0
1.853461257E0,-7.294232249E-1,-1.099524689E1,5.073024750E0
1.855924746E0,-1.394168496E0,-9.886139870E0,5.703634262E0
1.858388184E0,-1.494778633E0,-9.264513016E0,6.143204689E0
1.860851673E0,-1.470823884E0,-8.700378418E0,6.640865326E0
1.863315111E0,-1.293558359E0,-8.480592728E0,6.779204369E0
1.865778548E0,-8.533892035E-1,-8.848897934E0,5.966537952E0
1.868242038E0,-7.342141867E-1,-9.413032532E0,4.967623711E0
1.870705475E0,-6.815136671E-1,-9.484298706E0,4.049556255E0
1.873168965E0,-6.863046288E-1,-9.546581268E0,3.394991875E0
1.875632403E0,-6.288130879E-1,-9.312422752E0,2.481715679E0
1.878095840E0,-5.904854536E-1,-8.265598297E0,1.229479313E0
1.880559330E0,-6.863046288E-1,-7.399633408E0,6.419882774E-1
1.883022767E0,-1.307931304E0,-6.763633728E0,8.474005461E-1
1.885486257E0,-1.528315306E0,-6.754650593E0,5.174233913E-1
1.887949694E0,-1.202530265E0,-6.740277767E0,4.838866591E-1
1.890413132E0,-1.164801478E0,-6.567803383E0,1.224688411E0
1.892876621E0,-1.394168496E0,-6.758842945E0,1.918179393E0
1.895340059E0,-1.279185534E0,-7.136729240E0,2.003817797E0
1.897803548E0,-1.317513227E0,-7.820638657E0,1.473219275E0
1.900266986E0,-8.294344544E-1,-8.475802422E0,7.372085452E-1
1.902730423E0,-3.467455208E-1,-8.552456856E0,5.749148726E-1
1.905193913E0,3.371635973E-1,-8.881835938E0,9.090840816E-1
1.907657350E0,1.030654669E0,-9.254931450E0,3.551296890E-1
1.910120840E0,1.207920074E0,-9.126173973E0,-3.335703909E-1
1.912584278E0,1.241456747E0,-8.733914375E0,-5.006549954E-1
1.915047767E0,1.355840802E0,-8.552456856E0,-6.012651324E-1
1.917511205E0,1.341467977E0,-8.193734169E0,-5.773103237E-1
1.919974642E0,1.604970574E0,-7.596062660E0,-6.821125150E-1
1.922438132E0,1.987648368E0,-7.352322578E0,-4.287906587E-1
1.924901569E0,1.451660037E0,-7.074447155E0,-2.808698714E-1
1.927365059E0,1.552270055E0,-7.285249233E0,1.826552451E-1
1.929828496E0,1.432496190E0,-7.213384628E0,-3.335703909E-1
1.932291934E0,1.834337711E0,-7.266085148E0,-1.098326921E0
1.934755423E0,2.207433462E0,-7.208593845E0,-2.233783752E-1
1.937218861E0,1.341467977E0,-6.869034767E0,1.076767564E0
1.939682350E0,1.676236153E0,-7.232548714E0,2.285885334E0
1.942145788E0,1.968484521E0,-7.409214973E0,1.975072026E0
1.944609225E0,1.633716345E0,-7.724819660E0,2.094846010E0
1.947072715E0,-1.676236153E0,-7.500243187E0,1.153422952E0
1.949536153E0,-7.454130173E0,-5.444324017E0,1.349253297E0
1.951999642E0,5.235318184E0,-3.909420967E0,-1.944529653E0
1.954463080E0,1.807747841E1,-1.547479153E0,-1.492203426E1
1.956926517E0,1.196002579E1,2.698506594E0,-2.183358955E1
1.959390007E0,-3.091964006E0,5.352097988E0,-1.388000202E1
1.961853444E0,-8.783620834E0,4.443612576E0,-2.728450060E0
1.964316934E0,-8.678818703E0,1.092338204E0,3.925590515E0
1.966780371E0,-5.196392059E0,-4.095669270E0,5.794662476E0
1.969243861E0,-2.542201519E0,-9.637609482E0,1.179833031E1
1.971707298E0,-2.991952658E0,-1.442377472E1,1.787805557E1
1.974170736E0,-4.478946209E0,-1.720672226E1,1.860987473E1
1.976634225E0,-5.273046970E0,-1.886559105E1,1.659707260E1
1.979097663E0,-4.072912216E0,-1.994175911E1,1.427405739E1
1.981561153E0,-2.331399441E0,-2.004656219E1,1.250080490E1
1.984024590E0,-1.475614786E0,-1.932013321E1,1.004843330E1
1.986488028E0,-9.060897827E-1,-1.768941116E1,6.760040283E0
1.988951517E0,-1.461241961E0,-1.501665592E1,5.832990170E0
1.991414955E0,-1.623535633E0,-1.347217178E1,8.385373116E0
1.993878444E0,-1.958902597E0,-1.217142677E1,8.877643585E0
1.996341934E0,-2.542201519E0,-1.075150681E1,9.517834663E0
1.998805423E0,-2.714077234E0,-1.012987995E1,1.048860264E1
2.001268913E0,-3.230901718E0,-9.833439827E0,1.008197021E1
2.003732403E0,-4.259160995E0,-8.748287201E0,1.194625187E1
2.006195892E0,-4.608301640E0,-8.011677742E0,1.448905182E1
2.008659434E0,-4.895160198E0,-6.558221340E0,1.545502853E1
2.011122923E0,-4.646629333E0,-4.492720127E0,1.517775249E1
2.013586413E0,-3.076992273E0,-5.668900013E0,1.194685078E1
2.016049903E0,-3.392596483E0,-8.562039375E0,9.040535927E0
2.018513392E0,-1.915185094E0,-1.142583370E1,7.993711948E0
2.020976934E0,2.611071467E-1,-1.368297386E1,7.309803009E0
2.023440423E0,4.048358798E-1,-1.460583115E1,6.019238472E0
2.025903913E0,-6.587565877E-3,-1.448605728E1,5.321555614E0
2.028367403E0,-1.616948098E-2,-1.404648685E1,3.715387106E0
2.030830892E0,-2.359546423E-1,-1.354403591E1,6.707339883E-1
2.033294434E0,-1.245049953E0,-1.309967422E1,4.886776209E-1
2.035757923E0,-1.766665459E0,-1.218160725E1,-4.814911783E-1
2.038221413E0,-3.177602291E0,-1.114855671E1,-1.031253457E0
2.040684903E0,-5.368267536E0,-1.029756355E1,-1.164801478E0
2.043148392E0,-7.228955269E0,-9.680727959E0,-9.354343414E-1
2.045611882E0,-7.276865005E0,-1.001070499E1,-9.737620354E-1
2.048075423E0,-7.181046009E0,-1.048860264E1,-3.090167344E-1
2.050538913E0,-7.936819077E0,-1.115334797E1,5.940786600E-1
2.053002403E0,-7.578096390E0,-1.192828560E1,1.071976662E0
2.055465892E0,-6.564209938E0,-1.289366341E1,1.052812815E0
2.057929382E0,-5.774899960E0,-1.362548161E1,7.563723326E-1
2.060392923E0,-4.827487946E0,-1.439982033E1,5.557510257E-1
2.062856413E0,-3.813601732E0,-1.501665592E1,5.701239109E-1
2.065319903E0,-3.005726814E0,-1.536100578E1,6.707339883E-1
2.067783392E0,-2.522439003E0,-1.571493816E1,9.288467765E-1
2.070246882E0,-2.407455921E0,-1.595388699E1,1.401953816E0
2.072710423E0,-2.450574636E0,-1.560953712E1,1.812778354E0
2.075173913E0,-2.512856960E0,-1.512684822E1,1.793614507E0
2.077637403E0,-2.440992594E0,-1.470584297E1,1.775049567E0
2.080100892E0,-2.546393633E0,-1.416087151E1,1.602575183E0
2.082564382E0,-2.785342693E0,-1.334820557E1,1.722349048E0
2.085027923E0,-2.890743732E0,-1.241097450E1,1.449863434E0
2.087491413E0,-2.914698601E0,-1.172227383E1,1.134259105E0
2.089954903E0,-2.924280405E0,-1.134019566E1,1.263016105E0
2.092418392E0,-2.670958519E0,-1.103417301E1,3.215929866E-1
2.094881882E0,-2.364337206E0,-1.071377754E1,-2.121196270E0
2.097345423E0,-2.249953270E0,-1.044608307E1,-3.282404423E0
2.099808913E0,-1.833738804E0,-1.031672764E1,-1.934348941E0
2.102272403E0,-1.862484574E0,-1.037421894E1,-1.972676635E0
2.104735892E0,-1.958303690E0,-1.041254616E1,-3.383014679E0
2.107199382E0,-1.843320727E0,-1.055567646E1,-4.439420700E0
2.109662923E0,-1.929557920E0,-1.050297546E1,-5.820414066E0
2.112126413E0,-2.259535074E0,-1.037421894E1,-7.512819767E0
2.114589903E0,-2.460156441E0,-1.044608307E1,-6.265374184E0
2.117053392E0,-1.733128667E0,-1.072336006E1,-3.306359291E0
2.119516882E0,-7.671520114E-1,-1.116772079E1,-1.284575343E0
2.121980423E0,-2.551184595E-1,-1.156956291E1,7.899090648E-1
2.124443913E0,5.569487438E-2,-1.201392365E1,2.567953110E0
2.126907403E0,3.617172539E-1,-1.261638641E1,3.896844625E0
2.129370892E0,7.108582854E-1,-1.335778713E1,4.838866711E0
2.131834382E0,1.213309884E0,-1.419440842E1,4.494516850E0
2.134297923E0,1.743908405E0,-1.478249836E1,4.552008152E0
2.136761413E0,2.107422352E0,-1.503102875E1,4.843657494E0
2.139224903E0,1.849309444E0,-1.485436249E1,4.824493885E0
2.141688392E0,1.844518423E0,-1.442377472E1,5.140098095E0
2.144151882E0,2.289478540E0,-1.395066833E1,5.192199707E0
2.146615423E0,2.504472733E0,-1.357278156E1,4.389115334E0
2.149078913E0,2.231987238E0,-1.313800240E1,3.648313761E0
2.151542403E0,1.466631770E0,-1.243013859E1,2.333795071E0
2.154005892E0,6.916944385E-1,-1.154081631E1,7.707452178E-1
2.156469382E0,1.419321001E-1,-1.067065907E1,-2.377512455E-1
2.158932923E0,-2.119998485E-1,-9.881348610E0,-5.725193620E-1
2.161396413E0,-4.898753762E-1,-9.202829361E0,-4.862821400E-1
2.163859903E0,-7.431972027E-1,-8.528502464E0,-5.569487438E-2
2.166323392E0,-8.581801653E-1,-8.069169044E0,3.168020248E-1
2.168786882E0,-9.198637605E-1,-7.739192486E0,7.563723326E-1
2.171250423E0,-1.121083975E0,-7.347531796E0,1.134259105E0
2.173713913E0,-1.259422898E0,-7.007972240E0,1.578620315E0
2.176177403E0,-1.297750473E0,-6.835497856E0,1.894224644E0
2.178640892E0,-1.264213800E0,-6.706740856E0,2.075682163E0
2.181104382E0,-9.821462035E-1,-6.654040337E0,1.985252857E0
2.183567923E0,-6.904966831E-1,-6.730695724E0,1.918179393E0
2.186031413E0,-5.186210871E-1,-6.572594166E0,1.903806567E0
2.188494903E0,-4.994572699E-1,-6.280944824E0,1.870269895E0
2.190958392E0,-5.946775675E-1,-5.974922180E0,1.913388491E0
2.193421882E0,-7.288243175E-1,-5.683272839E0,2.309840202E0
2.195885423E0,-8.629711270E-1,-5.501815319E0,2.654190302E0
2.198348913E0,-7.431972027E-1,-5.367668629E0,2.376913548E0
2.200812403E0,-7.431972027E-1,-5.248493671E0,1.918179393E0
2.203275892E0,-6.809147596E-1,-5.191001892E0,1.966089010E0
2.205739382E0,-6.377961636E-1,-5.200583935E0,1.966089010E0
2.208202923E0,-6.186323166E-1,-5.253284454E0,2.004416704E0
2.210666413E0,-6.234232783E-1,-5.282030106E0,1.712767124E0
2.213129903E0,-5.377849340E-1,-5.405996323E0,1.397162914E0
2.215593392E0,-4.802934527E-1,-5.258075237E0,1.225287318E0
2.218056882E0,-3.509376049E-1,-5.123928547E0,1.004903197E0
2.220520423E0,-7.845192403E-2,-5.028109550E0,9.192649126E-1
2.222983913E0,1.748699397E-1,-5.032900333E0,8.138638139E-1
2.225447403E0,3.473443985E-1,-4.889770508E0,6.132425070E-1
2.227910892E0,5.240109563E-1,-4.736459732E0,9.288467765E-1
2.230374382E0,4.096268415E-1,-4.665194511E0,2.333795071E0
2.232837923E0,1.796608865E-1,-4.473556042E0,2.764382124E0
2.235301413E0,4.000449181E-1,-4.407081604E0,2.118800879E0
2.237764903E0,7.012763619E-1,-4.229816437E0,1.368417144E0
2.240228392E0,9.210615158E-1,-4.124415398E0,5.701239109E-1
2.242691882E0,1.055208325E0,-4.043567657E0,-6.048583239E-2
2.245155371E0,1.218100786E0,-3.971703529E0,-4.719092846E-1
2.247618913E0,1.255829573E0,-3.880675316E0,-8.258412480E-1
2.250082403E0,1.208518982E0,-3.866302252E0,-8.731519580E-1
2.252545892E0,1.174982190E0,-3.766291142E0,-6.869034767E-1
2.255009382E0,1.170191288E0,-3.818392754E0,-4.431635439E-1
2.257472871E0,1.112699747E0,-3.837556601E0,-5.150279030E-2
2.259936413E0,1.064790249E0,-3.790246010E0,3.024291694E-1
2.262399903E0,1.007298708E0,-3.832765579E0,7.707452178E-1
2.264863392E0,9.593891501E-1,-3.818392754E0,1.445072412E0
2.267326882E0,8.779428601E-1,-3.866302252E0,2.099637032E0
2.269790371E0,6.677396297E-1,-3.957330465E0,2.391286373E0
2.272253913E0,6.006662250E-1,-4.029194832E0,2.750009298E0
2.274717403E0,5.862933993E-1,-4.067522526E0,2.869184494E0
2.277180892E0,5.479657054E-1,-4.229816437E0,2.630235434E0
2.279644382E0,4.479544759E-1,-4.316053391E0,2.482314587E0
2.282107871E0,3.617172539E-1,-4.507092953E0,2.400868416E0
2.284571413E0,2.275704592E-1,-4.641239643E0,2.410450220E0
2.287034903E0,4.000449181E-1,-4.956843853E0,2.635026455E0
2.289498392E0,4.575363994E-1,-5.324550152E0,3.036867857E0
2.291961882E0,3.712991774E-1,-5.530560970E0,2.864393473E0
2.294425371E0,2.227794975E-1,-5.540143013E0,2.309840202E0
2.296888913E0,1.323501915E-1,-5.597634315E0,1.966089010E0
2.299352403E0,1.461241841E-1,-5.668900013E0,1.621739030E0
2.301815892E0,2.850619555E-1,-5.793464661E0,1.325298548E0
2.304279382E0,5.383837819E-1,-5.955758572E0,1.535501719E0
2.306742871E0,9.114795923E-1,-6.314481258E0,2.018789530E0
2.309206413E0,1.179773211E0,-6.888198376E0,2.305049181E0
2.311669903E0,1.270202518E0,-7.280457973E0,2.663772106E0
2.314133392E0,1.165400267E0,-7.490661621E0,2.811692953E0
2.316596882E0,1.050417304E0,-7.753565311E0,2.721263647E0
2.319060371E0,8.731519580E-1,-7.753565311E0,2.434405088E0
2.321523913E0,7.300220728E-1,-7.524198055E0,2.548789263E0
2.323987403E0,5.527566671E-1,-7.189429760E0,2.835647821E0
2.326450892E0,6.006662250E-1,-6.964853764E0,3.280607939E0
2.328914382E0,4.910731018E-1,-6.654040337E0,3.820788383E0
2.331377871E0,3.473443985E-1,-6.443837166E0,3.949545145E0
2.333841413E0,2.467342913E-1,-6.285735607E0,3.901635647E0
2.336304903E0,8.923157305E-2,-6.328854084E0,4.169330597E0
2.338768392E0,-1.263614893E-1,-6.510910511E0,4.322640896E0
2.341231882E0,-2.551184595E-1,-6.888198376E0,4.107048035E0
2.343695371E0,-2.599094212E-1,-7.218175888E0,2.912302971E0
2.346158913E0,-5.856944919E-1,-7.495452404E0,-1.563049704E-1
2.348622403E0,-1.010891914E0,-8.045214653E0,-4.372347355E0
2.351085892E0,-9.773552418E-1,-8.657258987E0,-6.709735394E0
2.353549382E0,-7.767339349E-1,-9.130965233E0,-5.065239429E0
2.356012871E0,-2.317625433E-1,-9.604072571E0,-3.000336885E-1
2.358476413E0,1.988247186E-1,-9.795710564E0,3.285398722E0
2.360939903E0,3.712991774E-1,-9.786128998E0,5.727589130E0
2.363403392E0,3.808811009E-1,-9.528016090E0,7.046898842E0
2.365866882E0,2.275704592E-1,-9.087846756E0,7.410412788E0
2.368330371E0,1.269603670E-1,-8.733914375E0,7.634988785E0
2.370793913E0,2.754800320E-1,-8.461428642E0,7.859565258E0
2.373257403E0,4.623273611E-1,-8.227271080E0,7.152299881E0
2.375720892E0,5.096380711E-1,-7.983530998E0,5.832990170E0
2.378184382E0,2.036156803E-1,-7.653553963E0,4.714301586E0
2.380647871E0,8.444061875E-2,-7.313994884E0,3.772878647E0
2.383111413E0,-1.796608907E-3,-7.203803062E0,2.673354149E0
2.385574903E0,-2.503274977E-1,-7.022345543E0,2.248156548E0
2.388038392E0,-1.006101012E0,-6.415091515E0,2.482314587E0
2.390501882E0,-1.283976555E0,-6.061159611E0,2.706890821E0
2.392965371E0,-1.383987784E0,-5.860538483E0,2.965003490E0
2.395428913E0,-1.427106380E0,-5.989295006E0,3.906426668E0
2.397892403E0,-1.044428587E0,-6.376763821E0,5.522176743E0
2.400355892E0,-6.904966831E-1,-6.807351112E0,6.783995152E0
2.402819382E0,-1.742710620E-1,-7.610435486E0,7.883519650E0
2.405282871E0,-5.569487810E-1,-9.805292130E0,9.145338058E0
2.407746413E0,-1.694801092E0,-1.329071426E1,1.028798103E1
2.410209903E0,-3.622562408E0,-1.801938820E1,1.028798103E1
2.412673392E0,-7.568514347E0,-2.336549759E1,1.095691872E1
2.415136882E0,-9.878953934E0,-2.761627388E1,9.914885521E0
2.417600371E0,-1.213130188E1,-3.112565041E1,8.003293991E0
2.420063913E0,-1.491544724E1,-3.516622543E1,6.961260796E0
2.422527403E0,-1.263375378E1,-3.934992599E1,5.570086479E0
2.424990892E0,-8.898005486E0,-4.298865891E1,4.202867031E0
2.427454382E0,-6.320470333E0,-4.471459961E1,4.723883629E0
2.429917871E0,-1.274394631E0,-4.513500595E1,5.550922871E0
2.432381413E0,3.992064953E0,-4.399715424E1,5.947374344E0
2.434844903E0,8.133847237E0,-4.142980194E1,2.032563448E0
2.437308392E0,1.217082787E1,-3.786772537E1,-9.702286720E0
2.439771882E0,1.511726665E1,-3.346363831E1,-1.891290283E1
2.442235371E0,1.585866642E1,-2.916016006E1,-1.583950329E1
2.444698913E0,1.424171925E1,-2.425002861E1,-7.178051472E0
2.447162403E0,1.138630867E1,-1.907160187E1,-2.259535074E0
2.449625892E0,8.703372002E0,-1.521787643E1,-1.079163074E0
2.452089382E0,6.455215931E0,-1.220556164E1,-9.498072267E-1
2.454552871E0,4.484335899E0,-9.661563873E0,-8.306322098E-1
2.457016361E0,2.800913334E0,-7.715836525E0,-9.833439589E-1
2.459479903E0,1.457049847E0,-6.256989956E0,-1.126473784E0
2.461943392E0,1.509151459E-1,-5.080810070E0,-1.136055708E0
2.464406882E0,-1.116292953E0,-4.110042095E0,-1.026462555E0
2.466870371E0,-2.269117117E0,-3.436313868E0,-8.827338219E-1
2.469333861E0,-3.326122046E0,-3.058427334E0,-8.731519580E-1
2.471797403E0,-4.239398003E0,-2.972189903E0,-9.450162649E-1
2.474260892E0,-5.057454109E0,-2.766777754E0,-1.169592381E0
2.476724382E0,-5.813227654E0,-2.694913387E0,-1.571433902E0
2.479187871E0,-6.391735554E0,-2.924280405E0,-1.690608978E0
2.481651361E0,-6.468390942E0,-3.369240522E0,-1.169592381E0
2.484114903E0,-6.018640041E0,-4.124415398E0,-1.323501915E-1
2.486578392E0,-5.177227974E0,-5.300595284E0,1.220496297E0
2.489041882E0,-4.172923565E0,-6.596549034E0,2.405659437E0
2.491505371E0,-3.259048462E0,-7.734401226E0,3.514765978E0
2.493968861E0,-2.278698921E0,-8.757869720E0,4.417861462E0
2.496432298E0,-1.465433955E0,-9.565744400E0,4.943668842E0
2.498895684E0,-8.821349740E-1,-1.008736038E1,5.240109444E0
2.501359069E0,-3.988471627E-1,-1.045985699E1,5.240109444E0
2.503822455E0,-3.533330932E-2,-1.070419598E1,4.914923191E0
2.506285840E0,3.617172539E-1,-1.079462528E1,4.432234287E0
2.508749225E0,6.150391102E-1,-1.085211658E1,3.992663860E0
2.511212559E0,7.539768815E-1,-1.083295250E1,3.772878647E0
2.513675944E0,7.875135541E-1,-1.079462528E1,3.787251472E0
2.516139330E0,7.108582854E-1,-1.070898724E1,3.954336166E0
2.518602715E0,5.431747437E-1,-1.060837650E1,4.255567551E0
2.521066100E0,2.658981085E-1,-1.042212868E1,4.571171761E0
2.523529486E0,-9.761574864E-2,-1.020174408E1,4.781375408E0
2.525992871E0,-4.419657886E-1,-9.929258347E0,4.790956974E0
2.528456257E0,-7.384062409E-1,-9.723846436E0,4.810121059E0
2.530919642E0,-1.006101012E0,-9.584908485E0,4.719092846E0
2.533382975E0,-1.164202571E0,-9.436987877E0,4.417861462E0
2.535846361E0,-1.283976555E0,-9.398659706E0,4.126211643E0
2.538309746E0,-1.293558359E0,-9.374705315E0,3.748924017E0
2.540773132E0,-1.298349380E0,-9.398659706E0,3.633940935E0
2.543236517E0,-1.298349380E0,-9.336378098E0,3.629149914E0
2.545699903E0,-1.274394631E0,-9.235767365E0,3.505183935E0
2.548163288E0,-1.192948341E0,-9.159710884E0,3.318336725E0
2.550626673E0,-1.111502051E0,-9.111801147E0,3.060223818E0
2.553090059E0,-1.030055761E0,-9.111801147E0,2.821274757E0
2.555553392E0,-9.300445318E-1,-9.054309845E0,2.572743893E0
2.558016778E0,-9.539993405E-1,-9.039937019E0,2.420032263E0
2.560480163E0,-9.348354936E-1,-9.150129318E0,2.266721487E0
2.562943548E0,-9.204626083E-1,-9.264513016E0,2.042145491E0
2.565406934E0,-8.965078592E-1,-9.451360703E0,1.865478873E0
2.567870319E0,-8.581801653E-1,-9.608862877E0,1.717558146E0
2.570333705E0,-7.479881644E-1,-9.743010521E0,1.602575183E0
2.572797090E0,-6.336040497E-1,-9.886139870E0,1.612157106E0
2.575260475E0,-5.186210871E-1,-1.012987995E1,1.621739030E0
2.577723861E0,-3.940562308E-1,-1.031193638E1,1.616948009E0
2.580187194E0,-2.982370853E-1,-1.049339390E1,1.655275702E0
2.582650580E0,-1.982258558E-1,-1.063712215E1,1.636111856E0
2.585113965E0,-5.928809568E-2,-1.079462528E1,1.588202238E0
2.587577350E0,1.125874892E-1,-1.096709919E1,1.626529932E0
2.590040736E0,2.802709937E-1,-1.106711102E1,1.583411336E0
2.592504121E0,3.281805515E-1,-1.111022949E1,1.511546969E0
2.594967507E0,4.234008193E-1,-1.082816219E1,1.664857626E0
2.597430892E0,5.910843015E-1,-1.040775585E1,1.875060797E0
2.599894278E0,8.300333023E-1,-9.795710564E0,2.118800879E0
2.602357611E0,9.977167845E-1,-9.355541229E0,2.252947569E0
2.604820996E0,1.036044478E0,-9.068682671E0,2.252947569E0
2.607284382E0,9.114795923E-1,-8.709959984E0,2.261930704E0
2.609747767E0,8.204513788E-1,-8.628513336E0,2.290676355E0
2.612211153E0,7.012763619E-1,-8.628513336E0,2.309840202E0
2.614674538E0,5.048471093E-1,-8.628513336E0,2.420032263E0
2.617137923E0,2.994348109E-1,-8.461428642E0,2.587116718E0
2.619601309E0,1.365422755E-1,-8.437474251E0,2.806901932E0
2.622064694E0,-1.024067104E-1,-8.494965553E0,3.008122206E0
2.624528028E0,-3.174009025E-1,-8.490175247E0,3.318336725E0
2.626991413E0,-4.515477121E-1,-8.312909126E0,3.720178127E0
2.629454798E0,-7.288243175E-1,-8.256016731E0,4.198076248E0
2.631918184E0,-9.204626083E-1,-8.360818863E0,4.374742508E0
2.634381569E0,-1.063592434E0,-8.475802422E0,4.484934807E0
2.636844955E0,-1.212112188E0,-8.193734169E0,4.810121059E0
2.639308340E0,-1.470224977E0,-7.743983269E0,5.129917145E0
2.641771725E0,-1.862484574E0,-7.729610443E0,4.929296017E0
2.644235111E0,-2.092450619E0,-7.677508831E0,4.255567551E0
2.646698444E0,-2.331399441E0,-7.782310963E0,3.509974957E0
2.649161830E0,-2.235580444E0,-7.724819660E0,2.750009298E0
2.651625215E0,-2.216416597E0,-7.691881657E0,1.626529932E0
2.654088600E0,-2.168506861E0,-8.136242867E0,1.215106487E0
2.656551986E0,-2.063704729E0,-8.246435165E0,1.067185640E0
2.659015371E0,-2.025377035E0,-8.451847076E0,8.953101039E-1
2.661478757E0,-2.006213188E0,-8.518920898E0,1.038439989E0
2.663942142E0,-2.106823444E0,-8.265598297E0,9.761574864E-1
2.666405528E0,-2.134970188E0,-8.222479820E0,1.430699587E0
2.668868913E0,-2.034959078E0,-8.690795898E0,2.467941761E0
2.671332246E0,-1.977467537E0,-8.562039375E0,3.715387106E0
2.673795632E0,-1.967885613E0,-8.145824432E0,4.413070202E0
2.676259017E0,-2.202043533E0,-7.663136005E0,4.733465672E0
2.678722403E0,-2.484111309E0,-7.089418888E0,4.829284668E0
2.681185788E0,-2.781150579E0,-6.539057732E0,5.001160145E0
2.683649173E0,-3.091964006E0,-5.998877048E0,5.149081230E0
2.686112559E0,-3.335703850E0,-5.511397362E0,5.192199707E0
2.688575944E0,-3.556087971E0,-4.956843853E0,4.504098415E0
2.691039330E0,-3.699217796E0,-4.650821686E0,4.556798935E0
2.693502663E0,-3.737545490E0,-4.535838604E0,4.786166191E0
2.695966048E0,-3.838155508E0,-4.774787426E0,5.302391529E0
2.698429434E0,-3.785454988E0,-4.904143333E0,5.900063515E0
2.700892819E0,-3.694426775E0,-4.583748341E0,7.205000401E0
2.703356205E0,-3.417150259E0,-4.784369469E0,6.272560596E0
2.705819590E0,-3.044054270E0,-6.491147995E0,1.263016105E0
2.708282975E0,-2.733241081E0,-8.121870041E0,8.264400810E-2
2.710746361E0,-2.097241402E0,-9.207021713E0,1.497174054E-1
2.713209746E0,-1.532507420E0,-1.066107750E1,1.545083642E0
2.715673080E0,-9.108807445E-1,-1.204266930E1,2.152337551E0
2.718136465E0,-3.701014221E-1,-1.286012650E1,3.160833836E0
2.720599850E0,-7.366096228E-2,-1.352487183E1,3.839353323E0
2.723063236E0,2.323614210E-1,-1.412254333E1,4.069319248E0
2.725526621E0,4.329827428E-1,-1.452917576E1,3.715387106E0
2.727990007E0,5.096380711E-1,-1.481603432E1,3.074596643E0
2.730453392E0,5.719205141E-1,-1.484957123E1,2.290676355E0
2.732916778E0,6.389939189E-1,-1.472979736E1,1.516337872E0
2.735380163E0,6.677396297E-1,-1.447647572E1,9.048920274E-1
2.737843496E0,8.348242640E-1,-1.419919872E1,2.880562842E-1
2.740306882E0,9.641801119E-1,-1.389317703E1,-2.042145431E-1
2.742770267E0,1.007298708E0,-1.342006969E1,-5.581464767E-1
2.745233653E0,9.689710736E-1,-1.277448845E1,-8.306322098E-1
2.747697038E0,7.773327827E-1,-1.221035290E1,-9.114795923E-1
2.750160423E0,6.342029572E-1,-1.174622917E1,-9.689710736E-1
2.752623809E0,4.713104069E-1,-1.135876083E1,-7.731407285E-1
2.755087194E0,2.802709937E-1,-1.114376640E1,-6.533667445E-1
2.757550580E0,1.652880162E-1,-1.079462528E1,-5.246098042E-1
2.760013913E0,-2.096043713E-2,-1.047902107E1,4.910730943E-2
2.762477298E0,-1.790620238E-1,-1.013467121E1,4.263951778E-1
2.764940684E0,-2.748811543E-1,-9.886139870E0,5.701239109E-1
2.767404069E0,-3.796833456E-1,-9.743010521E0,8.042819500E-1
2.769867455E0,-4.180110097E-1,-9.575326920E0,1.024067044E0
2.772330840E0,-5.042482615E-1,-9.465733528E0,1.182168603E0
2.774794225E0,-6.623498201E-1,-9.288468361E0,1.459445357E0
2.777257611E0,-8.390163779E-1,-9.087846756E0,1.827151299E0
2.779720996E0,-9.683722258E-1,-9.107010841E0,1.899015665E0
2.782184382E0,-1.025863647E0,-9.230976105E0,1.870269895E0
2.784647715E0,-1.035445571E0,-9.274095535E0,1.846315145E0
2.787111100E0,-1.025863647E0,-9.211812973E0,1.870269895E0
2.789574486E0,-9.492083788E-1,-9.140546799E0,1.927761316E0
2.792037871E0,-7.336152792E-1,-9.068682671E0,1.975670934E0
2.794501257E0,-4.850844145E-1,-8.872852325E0,2.185874224E0
2.796964642E0,-4.419657886E-1,-8.709959984E0,2.429614067E0
2.799428028E0,-4.084290862E-1,-8.614140511E0,2.706890821E0
2.801891413E0,-5.138301253E-1,-8.609350204E0,2.615862608E0
2.804354798E0,-6.048583388E-1,-8.729124069E0,2.458359957E0
2.806818132E0,-6.767227054E-1,-8.972864151E0,2.190665245E0
2.809281517E0,-6.431859732E-1,-9.111801147E0,2.094846010E0
2.811744903E0,-8.294344544E-1,-9.121383667E0,2.376913548E0
2.814208288E0,-6.815136671E-1,-9.245349884E0,2.515252352E0
2.816671673E0,-7.384062409E-1,-9.422615051E0,2.529625416E0
2.819135059E0,-7.623610497E-1,-9.623235703E0,2.615862608E0
2.821598444E0,-9.923269749E-1,-9.857394218E0,2.386495590E0
2.824061830E0,-1.054609418E0,-1.010173321E1,2.224201918E0
2.826525215E0,-1.030654669E0,-1.008736038E1,2.357749701E0
2.828988548E0,-9.492083788E-1,-1.006819630E1,2.548789263E0
2.831451934E0,-8.965078592E-1,-1.001070499E1,2.591907740E0
2.833915319E0,-8.390163779E-1,-1.003945065E1,2.615862608E0
2.836378705E0,-7.479881644E-1,-9.886139870E0,2.663772106E0
2.838842090E0,-7.198413014E-1,-9.714263916E0,2.663772106E0
2.841305475E0,-7.863158584E-1,-9.608862877E0,2.630235434E0
2.843768861E0,-9.012988210E-1,-9.608862877E0,2.529625416E0
2.846232246E0,-1.106711030E0,-9.675936699E0,2.147546530E0
2.848695632E0,-9.012988210E-1,-9.517834663E0,1.999026895E0
2.851158965E0,-7.527791262E-1,-9.522625923E0,1.736123085E0
2.853622350E0,-9.012988210E-1,-9.427405357E0,1.870269895E0
2.856085736E0,-5.809035301E-1,-8.939327240E0,2.181083202E0
2.858549121E0,-7.102593780E-1,-8.839315414E0,2.133173704E0
2.861012507E0,-1.092338204E0,-8.968072891E0,1.894224644E0
2.863475892E0,-1.455852032E0,-9.250140190E0,1.731332064E0
2.865939278E0,-1.494179726E0,-9.436987877E0,1.564247489E0
2.868402663E0,-1.403750420E0,-9.575326920E0,1.750495911E0
2.870866048E0,-1.288767457E0,-9.675936699E0,2.061309338E0
2.873329434E0,-1.135456800E0,-9.766964912E0,1.855896950E0
2.875792767E0,-9.779540896E-1,-9.828648567E0,1.798405528E0
2.878256153E0,-8.581801653E-1,-9.967586517E0,1.721750259E0
2.880719538E0,-7.431972027E-1,-1.010592556E1,1.760077834E0
2.883182923E0,-7.150503397E-1,-1.012508869E1,1.875060797E0
2.885646309E0,-6.048583388E-1,-1.013946152E1,1.942134261E0
2.888109694E0,-5.090391636E-1,-1.024965382E1,2.003817797E0
2.890573080E0,-4.707115293E-1,-1.036463642E1,2.037354469E0
2.893036465E0,-3.659093380E-1,-1.057483959E1,1.956507087E0
2.895499850E0,-2.940450013E-1,-1.075150681E1,1.946925163E0
2.897963184E0,-3.036268950E-1,-1.084253502E1,2.061309338E0
2.900426569E0,-3.659093380E-1,-1.088086224E1,2.252348661E0
2.902889955E0,-3.467455208E-1,-1.083774376E1,2.400868416E0
2.905353340E0,-2.940450013E-1,-1.082337093E1,2.285885334E0
2.907816725E0,-3.467455208E-1,-1.072755146E1,2.261930704E0
2.910280111E0,-4.802934527E-1,-1.056525803E1,2.338585854E0
2.912743496E0,-5.713216066E-1,-1.034547329E1,2.415241241E0
2.915206882E0,-6.000673771E-1,-1.012987995E1,2.410450220E0
2.917670267E0,-6.958864927E-1,-9.914885521E0,2.520043373E0
2.920133600E0,-6.910955310E-1,-9.723846436E0,2.553580046E0
2.922596986E0,-7.767339349E-1,-9.565744400E0,2.587116718E0
2.925060371E0,-8.677620888E-1,-9.441779137E0,2.740427494E0
2.927523757E0,-9.348354936E-1,-9.384286880E0,2.816483974E0
2.929987142E0,-1.045027494E0,-9.278885841E0,2.965003490E0
2.932450528E0,-1.068982244E0,-9.207021713E0,3.203952551E0
2.934913913E0,-1.054609418E0,-9.188456535E0,3.385410070E0
2.937377298E0,-1.049818516E0,-9.274095535E0,3.380619049E0
2.939840684E0,-1.040236592E0,-9.307631493E0,3.256653070E0
2.942304017E0,-1.001908898E0,-9.312422752E0,3.112924337E0
2.944767403E0,-1.021072745E0,-9.393869400E0,3.045850992E0
2.947230788E0,-1.049818516E0,-9.413032532E0,3.136879206E0
2.949694173E0,-1.073773265E0,-9.465733528E0,3.132088184E0
2.952157559E0,-1.045027494E0,-9.493880272E0,3.108133316E0
2.954620944E0,-1.083355188E0,-9.546581268E0,3.031478167E0
2.957084330E0,-1.083355188E0,-9.695100784E0,2.912302971E0
2.959547715E0,-1.173784494E0,-9.757383347E0,3.170415878E0
2.962011100E0,-1.231275916E0,-9.838230133E0,3.433319569E0
2.964474486E0,-1.197739244E0,-9.943631172E0,3.055432796E0
2.966937819E0,-1.240857840E0,-1.003465939E1,2.749410391E0
2.969401205E0,-1.293558359E0,-1.018737125E1,2.114009857E0
2.971864590E0,-1.355840802E0,-1.019695282E1,2.114009857E0
2.974327975E0,-1.805591941E0,-9.427405357E0,3.500392914E0
2.976791361E0,-2.188269615E0,-8.581203461E0,4.996369362E0
2.979254746E0,-2.211625576E0,-8.686005592E0,4.900550365E0
2.981718132E0,-1.561253190E0,-9.570535660E0,4.552008152E0
2.984181517E0,-1.221694112E0,-1.027360821E1,4.393906593E0
2.986644903E0,-1.202530265E0,-1.053651237E1,4.350788116E0
2.989108236E0,-1.398959517E0,-1.062754059E1,3.581240416E0
2.991571621E0,-1.628326535E0,-1.047422981E1,2.477523565E0
2.994035007E0,-1.676236153E0,-1.002986908E1,1.855896950E0
2.996498444E0,-1.915185094E0,-9.594490051E0,1.640902758E0
2.998961934E0,-1.857693553E0,-9.580117226E0,2.372122526E0
3.001425423E0,-1.857693553E0,-9.781337738E0,3.041059971E0
3.003888913E0,-2.063704729E0,-9.804693222E0,3.194370747E0
3.006352403E0,-2.403263807E0,-9.704682350E0,3.237489223E0
3.008815892E0,-2.579930305E0,-9.532208443E0,3.327918530E0
3.011279382E0,-2.417636633E0,-9.522625923E0,3.538121700E0
3.013742871E0,-2.188868523E0,-9.383687973E0,2.997941494E0
3.016206361E0,-1.940337658E0,-9.522625923E0,1.989444971E0
3.018669850E0,-1.604970574E0,-9.684919357E0,1.702586412E0
3.021133340E0,-1.361230731E0,-9.608862877E0,1.907998681E0
3.023596830E0,-1.389976382E0,-9.460343361E0,2.276303530E0
3.026060319E0,-1.423513174E0,-9.417224884E0,2.419433355E0
3.028523809E0,-1.500168443E0,-9.422016144E0,2.419433355E0
3.030987298E0,-1.481004596E0,-9.469925880E0,2.257139683E0
3.033450788E0,-1.413931251E0,-9.632818222E0,2.185275316E0
3.035914278E0,-1.246846557E0,-9.795111656E0,2.209230185E0
3.038377767E0,-9.689710736E-1,-1.012029839E1,1.989444971E0
3.040841257E0,-6.533667445E-1,-1.062694168E1,1.425309777E0
3.043304746E0,-4.192087352E-1,-1.114376640E1,1.215106487E0
3.045768236E0,-4.192087352E-1,-1.145937061E1,1.095332623E0
3.048231725E0,-4.192087352E-1,-1.177437592E1,9.713665247E-1
3.050695215E0,-7.012763619E-1,-1.160249996E1,8.995022178E-1
3.053158705E0,-1.031253457E0,-1.101441002E1,8.372197747E-1
3.055622194E0,-1.289366364E0,-1.039757442E1,8.803383708E-1
3.058085684E0,-1.399558306E0,-9.814275742E0,9.761574864E-1
3.060549173E0,-1.194146037E0,-9.546581268E0,9.569936991E-1
3.063012663E0,-1.059999228E0,-9.336378098E0,1.100123525E0
3.065476153E0,-8.497959971E-1,-9.326795578E0,1.253434181E0
3.067939642E0,-8.354231715E-1,-9.092039108E0,1.492383122E0
3.070403132E0,-1.007298708E0,-8.628513336E0,1.826552391E0
3.072866621E0,-1.103117824E0,-8.303327560E0,2.018190622E0
3.075330111E0,-1.112699747E0,-8.164389610E0,2.281094551E0
3.077793600E0,-1.059999228E0,-8.169180870E0,2.610472679E0
3.080257090E0,-1.117490768E0,-8.164389610E0,2.911704063E0
3.082720580E0,-1.275592327E0,-7.820638657E0,3.480630398E0
3.085184069E0,-1.270801425E0,-7.848785400E0,3.471048355E0
3.087647559E0,-1.136654615E0,-8.202717781E0,3.514167070E0
3.090111048E0,-1.059999228E0,-8.379982948E0,3.629149914E0
3.092574538E0,-1.016880631E0,-8.269790649E0,3.972901106E0
3.095038028E0,-1.088744998E0,-7.978141308E0,4.192686558E0
3.097501517E0,-1.107908845E0,-7.743983269E0,4.264550686E0
3.099965007E0,-9.737620354E-1,-7.720028400E0,4.278923512E0
3.102428496E0,-8.833327293E-1,-7.987723351E0,4.159149647E0
3.104891986E0,-8.306322098E-1,-8.264999390E0,4.178313255E0
3.107355475E0,-6.773215532E-1,-8.647677422E0,4.207059383E0
3.109819017E0,-6.342029572E-1,-8.900999069E0,4.126211643E0
3.112282507E0,-6.294119954E-1,-9.115993500E0,4.178313255E0
3.114745996E0,-6.629486680E-1,-9.130366325E0,4.283714294E0
3.117209486E0,-7.635588050E-1,-9.120784760E0,4.231013775E0
3.119672975E0,-7.348130345E-1,-9.254931450E0,4.259759903E0
3.122136465E0,-5.341917276E-1,-9.302841187E0,4.097465992E0
3.124599955E0,-5.437736511E-1,-9.283677101E0,3.972901106E0
3.127063444E0,-3.904629946E-1,-9.340569496E0,3.762697935E0
3.129526934E0,-2.994348109E-1,-9.317214012E0,3.518958092E0
3.131990423E0,-2.042145431E-1,-9.340569496E0,3.236890316E0
3.134453913E0,-7.964966446E-2,-9.393270493E0,3.050642014E0
3.136917403E0,1.353445351E-1,-9.517834663E0,3.012314320E0
3.139380892E0,2.072088867E-1,-9.584908485E0,2.873376608E0
3.141844382E0,3.317737877E-1,-9.646592140E0,2.639218569E0
3.144307871E0,5.515589118E-1,-9.503461838E0,2.366732836E0
3.146771361E0,7.144514918E-1,-9.474716187E0,2.156529665E0
3.149234850E0,8.959089518E-1,-9.536998749E0,1.936744452E0
3.151698340E0,9.725642800E-1,-9.628026962E0,1.769659758E0
3.154161830E0,1.121083975E0,-9.345360756E0,1.319908619E0
3.156625319E0,1.704383016E0,-8.819553375E0,1.970281154E-1
3.159088809E0,2.287682056E0,-8.183553696E0,-1.323501945E0
3.161552298E0,2.675150633E0,-7.638582230E0,-2.718868256E0
3.164015788E0,2.890743732E0,-7.552344799E0,-1.958902597E0
3.166479278E0,2.943444252E0,-8.069169044E0,-4.245985746E-1
3.168942767E0,2.632032156E0,-8.446456909E0,1.148033142E0
3.171406257E0,2.134970188E0,-8.599767685E0,2.433806181E0
3.173869746E0,1.149829745E0,-8.231463432E0,4.422053337E0
3.176333236E0,4.461578727E-1,-7.930231571E0,5.182018757E0
3.178796725E0,1.449264586E-1,-8.327281952E0,4.144776821E0
3.181260215E0,-3.904629946E-1,-8.260209084E0,3.294381857E0
3.183723705E0,-3.233895898E-1,-8.327281952E0,2.175693274E0
3.186187194E0,8.264400810E-2,-8.881835938E0,1.482801199E0
3.188650684E0,7.671520114E-1,-9.484298706E0,1.606767178E0
3.191114173E0,1.230677128E0,-9.732829094E0,2.605681896E0
3.193577663E0,1.201931357E0,-9.718456268E0,4.250177860E0
3.196041153E0,1.020473838E0,-9.823857307E0,5.431148529E0
3.198504642E0,9.773552418E-1,-9.914885521E0,5.726990223E0
3.200968132E0,7.000786066E-1,-9.728038788E0,4.990979671E0
3.203431621E0,6.809147596E-1,-9.761574745E0,4.302878380E0
3.205895111E0,8.144627213E-1,-1.049818516E1,3.342291355E0
3.208358600E0,5.084403157E-1,-1.051255798E1,2.247557640E0
3.210822090E0,6.761237979E-1,-1.060298729E1,1.649885893E0
3.213285580E0,1.168394685E0,-1.064131451E1,1.568439603E0
3.215749069E0,1.427106380E0,-1.058382320E1,1.276790023E0
3.218212559E0,1.254631877E0,-1.033050156E1,1.363027334E0
3.220676048E0,1.168394685E0,-1.017778969E1,1.167196870E0
3.223139538E0,1.369614840E0,-1.028259182E1,6.845079660E-1
3.225603028E0,1.536699533E0,-1.029217339E1,3.066212535E-1
3.228066517E0,1.403151512E0,-1.017299843E1,-1.329490542E-1
3.230530007E0,1.493580818E0,-9.923869133E0,-4.533443153E-1
3.232993548E0,1.546281457E0,-9.723247528E0,-3.383613527E-1
3.235457038E0,1.575027108E0,-9.665756226E0,6.767226756E-2
3.237920528E0,1.560654283E0,-9.708874702E0,4.072313607E-1
3.240384017E0,1.388778687E0,-9.775947571E0,5.024515986E-1
3.242847507E0,1.235468030E0,-9.761574745E0,6.030617356E-1
3.245310996E0,1.245049953E0,-9.737620354E0,6.749261022E-1
3.247774486E0,1.115694165E0,-9.728038788E0,8.372197747E-1
3.250237975E0,1.221095204E0,-9.637010574E0,8.036830425E-1
3.252701465E0,1.503162742E0,-9.536998749E0,9.282479286E-1
3.255164955E0,1.608563900E0,-9.532208443E0,9.426208138E-1
3.257628444E0,1.483999014E0,-9.455553055E0,1.143242121E0
3.260091934E0,1.383987784E0,-9.422016144E0,1.353445411E0
3.262555423E0,1.412733436E0,-9.469925880E0,1.649885893E0
3.265018913E0,1.464835167E0,-9.460343361E0,1.797806621E0
3.267482403E0,1.451061130E0,-9.460343361E0,1.736123085E0
3.269945892E0,1.350450993E0,-9.369315147E0,1.816970468E0
3.272409382E0,1.292959571E0,-9.298049927E0,2.075083256E0
3.274872871E0,1.297750473E0,-9.226185799E0,2.261930704E0
3.277336361E0,1.283377647E0,-9.178276062E0,2.252348661E0
3.279799850E0,1.264213800E0,-9.154321671E0,2.099038124E0
3.282263340E0,1.264213800E0,-9.092039108E0,2.065501451E0
3.284726830E0,1.240259051E0,-9.006400108E0,2.194857121E0
3.287190319E0,1.154021740E0,-9.001609802E0,2.223603010E0
3.289653809E0,1.115694165E0,-9.029756546E0,2.309241295E0
3.292117298E0,1.006101012E0,-9.082456589E0,2.457761049E0
3.294580788E0,9.150727987E-1,-9.106411934E0,2.352360010E0
3.297044278E0,8.767451644E-1,-9.048920631E0,2.041546583E0
3.299507767E0,9.486095309E-1,-9.101620674E0,1.927162528E0
3.301971257E0,1.006101012E0,-9.115993500E0,1.989444971E0
3.304434746E0,9.102818370E-1,-9.187857628E0,1.970281124E0
3.306898236E0,9.534004331E-1,-9.274095535E0,1.864880085E0
3.309361725E0,9.773552418E-1,-9.350152016E0,1.936744452E0
3.311825215E0,8.575813174E-1,-9.335779190E0,1.893625736E0
3.314288705E0,7.425983548E-1,-9.250140190E0,1.731332064E0
3.316752194E0,7.665531635E-1,-9.293258667E0,1.645094872E0
3.319215684E0,7.473893166E-1,-9.197440147E0,1.544484735E0
3.321679173E0,6.282142401E-1,-9.092039108E0,1.582812428E0
3.324142663E0,4.749036133E-1,-8.982445717E0,1.616349101E0
3.326606153E0,2.982370853E-1,-9.039338112E0,1.936744452E0
3.329069642E0,4.557397962E-1,-9.144739151E0,1.869670987E0
3.331533132E0,7.282254696E-1,-9.364524841E0,1.377400160E0
3.333996621E0,4.317850173E-1,-9.330987930E0,1.023468256E0
3.336460111E0,2.551184595E-1,-9.298049927E0,1.233671427E0
3.338923600E0,3.311749101E-1,-9.359733582E0,1.348654389E0
3.341387090E0,3.742935359E-1,-9.450761795E0,1.181569815E0
3.343850580E0,2.503274977E-1,-9.527417183E0,1.119287372E0
3.346314069E0,2.934461236E-1,-9.699292183E0,1.004304409E0
3.348777559E0,2.215817720E-1,-9.680129051E0,9.899315238E-1
3.351241048E0,1.880450696E-1,-9.728038788E0,1.013886333E0
3.353704590E0,1.257626265E-1,-9.780738831E0,8.995022178E-1
3.356168080E0,9.222592413E-2,-9.785530090E0,8.851293325E-1
3.358631569E0,8.743496984E-2,-9.809484482E0,8.755474091E-1
3.361095059E0,1.557061076E-2,-9.862185478E0,8.707564473E-1
3.363558548E0,-3.593217814E-3,-9.814275742E0,8.755474091E-1
3.366022038E0,-2.275704592E-2,-9.819067001E0,9.569936991E-1
3.368485528E0,-7.006774843E-2,-9.938241959E0,9.090840816E-1
3.370949017E0,-7.485870272E-2,-9.923869133E0,9.803496003E-1
3.373412507E0,-1.563049704E-1,-9.962196350E0,9.755586386E-1
3.375875996E0,-1.754688025E-1,-1.003885174E1,9.659767151E-1
3.378339486E0,-1.994235814E-1,-1.005801582E1,9.707676768E-1
3.380802975E0,-2.329602838E-1,-1.004364300E1,1.061795831E0
3.383266465E0,-2.521241307E-1,-1.001010609E1,1.138451219E0
3.385729955E0,-1.898416728E-1,-1.001010609E1,1.191151738E0
3.388193444E0,-3.000336885E-1,-1.002927017E1,1.061795831E0
3.390656934E0,-3.671070933E-1,-9.947823524E0,1.042631984E0
3.393120423E0,-4.575363994E-1,-9.895122528E0,1.090541601E0
3.395583913E0,-4.198076129E-1,-9.933450699E0,1.181569815E0
3.398047403E0,-4.862821400E-1,-9.986150742E0,1.157614946E0
3.400510892E0,-5.006549954E-1,-9.895122528E0,1.090541601E0
3.402974382E0,-5.006549954E-1,-9.909496307E0,1.152824044E0
3.405437871E0,-5.485646129E-1,-9.876558304E0,1.200733662E0
3.407901361E0,-6.156379580E-1,-9.809484482E0,1.138451219E0
3.410364850E0,-6.060560942E-1,-9.766366005E0,1.181569815E0
3.412828340E0,-6.443837285E-1,-9.751993179E0,1.195942640E0
3.415291830E0,-6.252198815E-1,-9.833439827E0,1.152824044E0
3.417755319E0,-6.108470559E-1,-9.866975784E0,1.219298601E0
3.420218809E0,-5.868922472E-1,-9.833439827E0,1.233671427E0
3.422682298E0,-5.246098042E-1,-9.819067001E0,1.171987891E0
3.425145788E0,-5.341917276E-1,-9.814275742E0,1.281581044E0
3.427609278E0,-5.964741707E-1,-9.699292183E0,1.315117717E0
3.430072767E0,-5.341917276E-1,-9.704083443E0,1.377400160E0
3.432536257E0,-4.862821400E-1,-9.684919357E0,1.439682603E0
3.434999746E0,-4.671183228E-1,-9.665756226E0,1.463637352E0
3.437463236E0,-4.437623918E-1,-9.665756226E0,1.386982083E0
3.439926725E0,-4.719092846E-1,-9.651383400E0,1.367818236E0
3.442390215E0,-4.245985746E-1,-9.651383400E0,1.491784215E0
3.444853705E0,-3.814799488E-1,-9.689710617E0,1.482202291E0
3.447317194E0,-3.479432464E-1,-9.694501877E0,1.391772985E0
3.449780684E0,-3.479432464E-1,-9.608263969E0,1.454055429E0
3.452244173E0,-3.239884675E-1,-9.551371574E0,1.549275756E0
3.454707663E0,-3.048246503E-1,-9.522625923E0,1.649885893E0
3.457171153E0,-2.521241307E-1,-9.479507446E0,1.683422565E0
3.459634642E0,-2.425422072E-1,-9.422016144E0,1.649885893E0
3.462098132E0,-1.898416728E-1,-9.330987930E0,1.611558199E0
3.464561621E0,-1.802597642E-1,-9.335779190E0,1.678631544E0
3.467025111E0,-1.185761914E-1,-9.402852058E0,1.740315199E0
3.469488600E0,-8.024853468E-2,-9.455553055E0,1.697795391E0
3.471952090E0,-4.671183228E-2,-9.503461838E0,1.759479046E0
3.474415580E0,-1.317513175E-2,-9.469925880E0,1.745106101E0
3.476879121E0,5.988696590E-3,-9.441180229E0,1.754688025E0
3.479342611E0,2.994348109E-2,-9.469925880E0,1.802597642E0
3.481806100E0,4.910730943E-2,-9.484298706E0,1.812179565E0
3.484269590E0,4.910730943E-2,-9.546581268E0,1.773851871E0
3.486733080E0,4.431635141E-2,-9.541790009E0,1.797806621E0
3.489196569E0,2.036156692E-2,-9.532208443E0,1.864880085E0
3.491660059E0,1.077965368E-2,-9.532208443E0,1.874462008E0
3.494123548E0,2.994348109E-2,-9.598682404E0,1.893625736E0
3.496586986E0,-1.317513175E-2,-9.608263969E0,1.970281124E0
3.499050423E0,-2.275704592E-2,-9.589100838E0,1.917580605E0
3.501513913E0,-5.150279030E-2,-9.508253098E0,1.941535354E0
3.503977350E0,-1.137852296E-1,-9.436388969E0,1.941535354E0
3.506440788E0,-9.462140501E-2,-9.398060799E0,1.922371507E0
3.508904225E0,-6.587565690E-2,-9.321405411E0,2.022382736E0
3.511367715E0,-1.521128863E-1,-9.364524841E0,1.927162528E0
3.513831153E0,-1.754688025E-1,-9.460343361E0,1.917580605E0
3.516294590E0,-1.616947949E-1,-9.498671532E0,1.917580605E0
3.518758028E0,-1.754688025E-1,-9.508253098E0,1.850507140E0
3.521221517E0,-1.521128863E-1,-9.541790009E0,1.879252911E0
3.523684955E0,-1.425309777E-1,-9.493880272E0,1.879252911E0
3.526148392E0,-1.946326345E-1,-9.426807404E0,1.850507140E0
3.528611830E0,-1.712767184E-1,-9.417224884E0,1.836134315E0
3.531075267E0,-1.473219246E-1,-9.431597710E0,1.850507140E0
3.533538757E0,-1.712767184E-1,-9.474716187E0,1.840925217E0
3.536002194E0,-1.760676801E-1,-9.513044357E0,1.802597642E0
3.538465632E0,-1.377400160E-1,-9.513044357E0,1.793015718E0
3.540929069E0,-1.473219246E-1,-9.598682404E0,1.721151352E0
3.543392559E0,-1.473219246E-1,-9.613055229E0,1.645094872E0
3.545855996E0,-1.521128863E-1,-9.622637749E0,1.716360331E0
3.548319434E0,-1.521128863E-1,-9.637010574E0,1.659467816E0
3.550782871E0,-1.760676801E-1,-9.665756226E0,1.616349101E0
3.553246361E0,-2.185874134E-1,-9.665756226E0,1.587603450E0
3.555709798E0,-2.569150627E-1,-9.723247528E0,1.578021526E0
3.558173236E0,-3.000336885E-1,-9.756784439E0,1.549275756E0
3.560636673E0,-3.623161316E-1,-9.766366005E0,1.463038564E0
3.563100163E0,-4.006437957E-1,-9.775947571E0,1.463038564E0
3.565563600E0,-4.437623918E-1,-9.766366005E0,1.458247542E0
3.568027038E0,-4.772990942E-1,-9.809484482E0,1.491784215E0
3.570490475E0,-5.916832089E-1,-9.775947571E0,1.515739083E0
3.572953965E0,-5.821012855E-1,-9.747201920E0,1.506157160E0
3.575417403E0,-6.012651324E-1,-9.799902916E0,1.486993313E0
3.577880840E0,-6.827113628E-1,-9.766366005E0,1.525321007E0
3.580344278E0,-7.114571333E-1,-9.756784439E0,1.568439603E0
3.582807767E0,-7.210390568E-1,-9.737620354E0,1.525321007E0
3.585271205E0,-7.929034233E-1,-9.713665962E0,1.563648582E0
3.587734642E0,-8.503949046E-1,-9.694501877E0,1.621140122E0
3.590198080E0,-8.503949046E-1,-9.660964966E0,1.664258718E0
3.592661569E0,-8.647677302E-1,-9.680129051E0,1.693004489E0
3.595125007E0,-8.551858664E-1,-9.651383400E0,1.697196603E0
3.597588444E0,-8.887225389E-1,-9.637010574E0,1.683422565E0
3.600051882E0,-8.551858664E-1,-9.613055229E0,1.706778407E0
3.602515371E0,-8.024852872E-1,-9.656173706E0,1.654676795E0
3.604978809E0,-8.408129811E-1,-9.637010574E0,1.635512948E0
3.607442246E0,-9.174683094E-1,-9.603473663E0,1.783433795E0
3.609905684E0,-8.456039429E-1,-9.637010574E0,1.845716238E0
3.612369173E0,-7.402028441E-1,-9.646592140E0,1.745106101E0
3.614832611E0,-7.593666911E-1,-9.613055229E0,1.836134315E0
3.617296048E0,-6.827113628E-1,-9.680129051E0,1.888834834E0
3.619759486E0,-6.443837285E-1,-9.689710617E0,1.869670987E0
3.622222975E0,-5.731182694E-1,-9.780738831E0,1.802597642E0
3.624686413E0,-5.395815372E-1,-9.732829094E0,1.826552391E0
3.627149850E0,-4.964629412E-1,-9.660964966E0,1.855298162E0
3.629613288E0,-4.150166512E-1,-9.651383400E0,1.864880085E0
3.632076778E0,-4.341804981E-1,-9.622637749E0,1.931953430E0
3.634540215E0,-3.862709105E-1,-9.545982361E0,1.998427987E0
3.637003653E0,-3.623161316E-1,-9.541790009E0,1.993636966E0
3.639467090E0,-3.048246503E-1,-9.589100838E0,1.893625736E0
3.641930580E0,-2.904517651E-1,-9.545982361E0,1.903207660E0
3.644394017E0,-2.575139403E-1,-9.589100838E0,1.941535354E0
3.646857455E0,-1.808586270E-1,-9.574728012E0,1.936744452E0
3.649320892E0,-1.521128863E-1,-9.555563927E0,1.888834834E0
3.651784382E0,-3.712991625E-2,-9.593891144E0,1.893625736E0
3.654247819E0,6.827113777E-2,-9.646592140E0,1.884043932E0
3.656711257E0,2.036156692E-2,-9.608263969E0,1.945727468E0
3.659174694E0,8.683609962E-2,-9.579518318E0,1.974473238E0
3.661638184E0,1.251637489E-1,-9.517834663E0,2.022382736E0
3.664101621E0,2.161919326E-1,-9.541191101E0,2.012800932E0
3.666565059E0,3.311749101E-1,-9.622637749E0,1.984055161E0
3.669028496E0,3.311749101E-1,-9.598682404E0,1.979264140E0
3.671491986E0,2.736834288E-1,-9.532208443E0,2.012800932E0
3.673955423E0,3.263839483E-1,-9.670546532E0,1.964891315E0
3.676418861E0,2.449376881E-1,-9.513044357E0,2.094247103E0
3.678882298E0,4.030392766E-1,-9.574728012E0,2.051128387E0
3.681345788E0,3.982483149E-1,-9.565145493E0,2.046337605E0
3.683809225E0,3.886663914E-1,-9.613055229E0,1.988846064E0
3.686272663E0,3.215929866E-1,-9.527417183E0,1.927162528E0
3.688736100E0,4.551409185E-1,-9.565145493E0,1.960100293E0
3.691199590E0,3.311749101E-1,-9.503461838E0,2.065501451E0
3.693663028E0,3.168020248E-1,-9.513044357E0,1.969682217E0
3.696126465E0,3.215929866E-1,-9.565145493E0,1.993636966E0
3.698589903E0,1.203727946E-1,-9.489089012E0,2.094247103E0
3.701053340E0,2.161919326E-1,-9.550772667E0,2.046337605E0
3.703516830E0,1.587004513E-1,-9.656173706E0,1.984055161E0
3.705980267E0,1.155818403E-1,-9.660964966E0,2.041546583E0
3.708443705E0,1.077965368E-2,-9.560355186E0,2.118201971E0
3.710907142E0,-1.233671457E-1,-9.498671532E0,2.084665298E0
3.713370632E0,-2.048134208E-1,-9.574728012E0,2.122992754E0
3.715834069E0,-2.096043676E-1,-9.560355186E0,2.055919409E0
3.718297507E0,-2.623049021E-1,-9.560355186E0,2.055919409E0
3.720760944E0,-3.862709105E-1,-9.565145493E0,2.084665298E0
3.723224434E0,-4.245985746E-1,-9.569936752E0,2.031964779E0
3.725687871E0,-4.677171707E-1,-9.593891144E0,2.003218889E0
3.728151309E0,-5.970730186E-1,-9.598682404E0,2.051128387E0
3.730614746E0,-7.354119420E-1,-9.632219315E0,2.075083256E0
3.733078236E0,-7.833214998E-1,-9.622637749E0,2.060710430E0
3.735541673E0,-8.695586920E-1,-9.593891144E0,2.146947622E0
3.738005111E0,-8.695586920E-1,-9.680129051E0,2.118201971E0
3.740468548E0,-9.701688290E-1,-9.694501877E0,2.060710430E0
3.742932038E0,-1.065389037E0,-9.675337791E0,2.146947622E0
3.745395475E0,-1.094134808E0,-9.684919357E0,2.256540775E0
3.747858913E0,-9.749597907E-1,-9.928659439E0,2.208631277E0
3.750322350E0,-1.070180058E0,-9.923869133E0,2.070292234E0
3.752785840E0,-1.242654443E0,-9.751993179E0,2.012800932E0
3.755249278E0,-1.204326868E0,-9.799902916E0,1.974473238E0
3.757712715E0,-1.223490715E0,-9.852004051E0,2.094247103E0
3.760176153E0,-1.185163021E0,-9.971777916E0,1.998427987E0
3.762639642E0,-1.247445464E0,-1.004843330E1,2.051128387E0
3.765103080E0,-1.233072639E0,-1.003406048E1,1.907998681E0
3.767566517E0,-1.280982137E0,-9.938241959E0,1.793015718E0
3.770029955E0,-1.228281617E0,-9.971777916E0,1.725942254E0
3.772493444E0,-1.199535847E0,-9.885540962E0,1.788224697E0
3.774956882E0,-1.280982137E0,-9.814275742E0,1.793015718E0
3.777420319E0,-1.247445464E0,-9.790320396E0,1.706778407E0
3.779883757E0,-1.132462502E0,-9.818468094E0,1.558857679E0
3.782347246E0,-1.151626348E0,-9.761574745E0,1.510948062E0
3.784810684E0,-1.084552884E0,-9.713665962E0,1.606767178E0
3.787274121E0,-1.042033195E0,-9.684919357E0,1.592394352E0
3.789737559E0,-1.037242174E0,-9.622637749E0,1.467829466E0
3.792201048E0,-9.174683094E-1,-9.565145493E0,1.405547023E0
3.794664486E0,-9.510049820E-1,-9.503461838E0,1.424710870E0
3.797127923E0,-8.599767685E-1,-9.574728012E0,1.424710870E0
3.799591361E0,-7.976943254E-1,-9.531609535E0,1.448665619E0
3.802054850E0,-7.545757294E-1,-9.369315147E0,1.501366138E0
3.804518288E0,-7.497847676E-1,-9.383687973E0,1.458247542E0
3.806981725E0,-7.497847676E-1,-9.383687973E0,1.554066658E0
3.809445163E0,-6.449825764E-1,-9.383687973E0,1.549275756E0
3.811908653E0,-5.779091716E-1,-9.402852058E0,1.658868909E0
3.814372090E0,-5.491634607E-1,-9.455553055E0,1.778642774E0
3.816835528E0,-4.437623918E-1,-9.684919357E0,1.749897122E0
3.819298965E0,-4.485533535E-1,-9.694501877E0,1.678032756E0
3.821762455E0,-4.772990942E-1,-9.627428055E0,1.764269948E0
3.824225892E0,-3.533330858E-1,-9.603473663E0,1.955309391E0
3.826689330E0,-2.910506427E-1,-9.526818275E0,2.103829145E0
3.829152767E0,-1.760676801E-1,-9.627428055E0,2.232585907E0
3.831616257E0,-2.718868256E-1,-9.479507446E0,2.352360010E0
3.834079694E0,-3.341692686E-1,-9.311823845E0,2.256540775E0
3.836543132E0,-2.718868256E-1,-9.268705368E0,2.290077448E0
3.839006569E0,-1.616947949E-1,-9.244750977E0,2.357150793E0
3.841470059E0,-1.329490542E-1,-9.302242279E0,2.485907793E0
3.843933496E0,-7.545757294E-2,-9.335779190E0,2.433207273E0
3.846396934E0,-7.066661865E-2,-9.493880272E0,2.266122818E0
3.848860371E0,5.988696357E-4,-9.569936752E0,2.409851313E0
3.851323861E0,4.371748492E-2,-9.579518318E0,2.471534967E0
3.853787298E0,4.371748492E-2,-9.694501877E0,2.461953163E0
3.856250736E0,1.497174054E-2,-9.627428055E0,2.409851313E0
3.858714173E0,7.246322930E-2,-9.531609535E0,2.280495644E0
3.861177611E0,1.874461919E-1,-9.526818275E0,2.232585907E0
3.863641100E0,2.497286350E-1,-9.474716187E0,2.227795124E0
3.866104538E0,2.593105435E-1,-9.402852058E0,2.232585907E0
3.868567975E0,3.257850707E-1,-9.369315147E0,2.137365818E0
3.871031413E0,4.024403989E-1,-9.316615105E0,2.170303583E0
3.873494903E0,4.503499568E-1,-9.359733582E0,2.155930758E0
3.875958340E0,5.174233913E-1,-9.469925880E0,2.184676409E0
3.878421778E0,6.324063540E-1,-9.651383400E0,2.132574797E0
3.880885215E0,5.892876983E-1,-9.589100838E0,2.017591715E0
3.883348705E0,5.749148726E-1,-9.646592140E0,1.955309391E0
3.885812142E0,6.605532169E-1,-9.751993179E0,1.869670987E0
3.888275580E0,7.132537365E-1,-9.771157265E0,1.921772718E0
3.890739017E0,7.611632943E-1,-9.871168137E0,1.884043932E0
3.893202507E0,7.803271413E-1,-9.895122528E0,1.864880085E0
3.895665944E0,7.611632943E-1,-9.813676834E0,1.793015718E0
3.898129382E0,7.563723326E-1,-9.861586571E0,1.740315199E0
3.900592819E0,8.138638139E-1,-9.875959396E0,1.725942254E0
3.903056309E0,7.994909883E-1,-9.947823524E0,1.773851871E0
3.905519746E0,8.090728521E-1,-9.952614784E0,1.821761489E0
3.907983184E0,7.324175835E-1,-9.861586571E0,1.773851871E0
3.910446621E0,6.413893700E-1,-9.823258400E0,1.725942254E0
3.912910111E0,7.276266217E-1,-9.875959396E0,1.740315199E0
3.915373548E0,7.276266217E-1,-9.880749702E0,1.716360331E0
3.917836986E0,7.228356600E-1,-9.842422485E0,1.725942254E0
3.920300423E0,6.988808513E-1,-9.856795311E0,1.831343293E0
3.922763913E0,7.180446982E-1,-9.832840919E0,1.860089064E0
3.925227350E0,6.413893700E-1,-9.775947571E0,1.879252911E0
3.927690788E0,6.270164847E-1,-9.771157265E0,1.931354523E0
3.930154225E0,5.749148726E-1,-9.742411613E0,1.836134315E0
3.932617715E0,5.461691022E-1,-9.603473663E0,1.860089064E0
3.935081153E0,5.605419874E-1,-9.656173706E0,2.008009911E0
3.937544590E0,5.701239109E-1,-9.670546532E0,2.055919409E0
3.940008028E0,5.317962170E-1,-9.617846489E0,1.940936446E0
3.942471517E0,5.078414679E-1,-9.579518318E0,2.017591715E0
3.944934955E0,4.311861396E-1,-9.565145493E0,2.060710430E0
3.947398392E0,4.455589950E-1,-9.517236710E0,2.118201971E0
3.949861830E0,4.024403989E-1,-9.498072624E0,2.132574797E0
3.952325319E0,3.928584754E-1,-9.512445450E0,2.223004103E0
3.954788757E0,3.641127348E-1,-9.512445450E0,2.352360010E0
3.957252194E0,3.449489176E-1,-9.493281364E0,2.452371120E0
3.959715632E0,3.066212535E-1,-9.526818275E0,2.505071640E0
3.962179121E0,2.826664746E-1,-9.502862930E0,2.471534967E0
3.964642559E0,2.970393300E-1,-9.431597710E0,2.529026508E0
3.967105996E0,2.635026276E-1,-9.407643318E0,2.572144985E0
3.969569434E0,2.970393300E-1,-9.441180229E0,2.681738138E0
3.972032923E0,2.251749784E-1,-9.465134621E0,2.734438658E0
3.974496361E0,2.203840315E-1,-9.450761795E0,2.767975569E0
3.976959798E0,2.347569019E-1,-9.426807404E0,2.825466871E0
3.979423236E0,1.826552451E-1,-9.407643318E0,2.835048914E0
3.981886725E0,1.778642833E-1,-9.431597710E0,2.796721220E0
3.984350163E0,1.730733216E-1,-9.407643318E0,2.763184547E0
3.986813600E0,1.682823747E-1,-9.374106407E0,2.763184547E0
3.989277038E0,1.587004513E-1,-9.374106407E0,2.839839697E0
3.991740528E0,1.299547106E-1,-9.326196671E0,2.720065832E0
3.994203965E0,1.347456723E-1,-9.292659760E0,2.596099854E0
3.996667350E0,1.155818403E-1,-9.297451019E0,2.572144985E0
3.999130684E0,1.155818403E-1,-9.254332542E0,2.581727028E0
4.001594069E0,1.107908860E-1,-9.263914108E0,2.524235487E0
4.004057403E0,1.155818403E-1,-9.225586891E0,2.557772160E0
4.006520736E0,1.155818403E-1,-9.268705368E0,2.394879580E0
4.008984121E0,6.767226756E-2,-9.263914108E0,2.447580099E0
4.011447455E0,7.725418359E-2,-9.211214066E0,2.376314640E0
4.013910840E0,6.827113777E-2,-9.168694496E0,2.333196163E0
4.016374173E0,8.743496984E-2,-9.216603279E0,2.376314640E0
4.018837507E0,5.928809568E-2,-9.240558624E0,2.352360010E0
4.021300892E0,2.575139515E-2,-9.226185799E0,2.318823338E0
4.023764225E0,3.054235131E-2,-9.207021713E0,2.333196163E0
4.026227611E0,1.018078402E-1,-9.278885841E0,2.337986946E0
4.028690944E0,9.222592413E-2,-9.245349884E0,2.295467377E0
4.031154278E0,8.743496984E-2,-9.250140190E0,2.309241295E0
4.033617663E0,5.928809568E-2,-9.245349884E0,2.309241295E0
4.036080996E0,2.575139515E-2,-9.250140190E0,2.276303530E0
4.038544382E0,7.785305381E-2,-9.293258667E0,2.281094551E0
4.041007715E0,6.827113777E-2,-9.340569496E0,2.323614120E0
4.043471048E0,6.348018348E-2,-9.312422752E0,2.342777967E0
4.045934434E0,9.222592413E-2,-9.354942322E0,2.352360010E0
4.048397767E0,9.701687843E-2,-9.340569496E0,2.314032316E0
4.050861153E0,9.701687843E-2,-9.345360756E0,2.300258160E0
4.053324486E0,1.497174054E-1,-9.330987930E0,2.347568989E0
4.055787819E0,1.545083672E-1,-9.445970535E0,2.366732836E0
4.058251205E0,1.640902758E-1,-9.465134621E0,2.328405142E0
4.060714538E0,2.551184595E-1,-9.546581268E0,2.352360010E0
4.063177923E0,2.503274977E-1,-9.556162834E0,2.429015160E0
4.065641257E0,2.359546423E-1,-9.584908485E0,2.452970028E0
4.068104590E0,2.455365509E-1,-9.641800880E0,2.438597202E0
4.070567975E0,2.311636806E-1,-9.604072571E0,2.409851313E0
4.073031309E0,2.886551619E-1,-9.608862877E0,2.491297722E0
4.075494694E0,2.455365509E-1,-9.632219315E0,2.448179007E0
4.077958028E0,2.263727188E-1,-9.684919357E0,2.505670547E0
4.080421413E0,2.359546423E-1,-9.684919357E0,2.500879526E0
4.082884746E0,2.263727188E-1,-9.718456268E0,2.452970028E0
4.085348080E0,2.263727188E-1,-9.670546532E0,2.462551832E0
4.087811465E0,2.024179399E-1,-9.694501877E0,2.586518049E0
4.090274798E0,2.024179399E-1,-9.723247528E0,2.520043373E0
4.092738184E0,1.976269782E-1,-9.665756226E0,2.486506701E0
4.095201517E0,1.928360164E-1,-9.651383400E0,2.543998241E0
4.097664850E0,2.215817720E-1,-9.694501877E0,2.510461569E0
4.100128236E0,1.976269782E-1,-9.575326920E0,2.491297722E0
4.102591569E0,1.545083672E-1,-9.546581268E0,2.576936007E0
4.105054955E0,1.305535734E-1,-9.627428055E0,2.481715679E0
4.107518288E0,1.736721992E-1,-9.656173706E0,2.409851313E0
4.109981621E0,9.222592413E-2,-9.536998749E0,2.429015160E0
4.112445007E0,1.736721992E-1,-9.541790009E0,2.438597202E0
4.114908340E0,4.653217196E-1,-9.928659439E0,2.452970028E0
4.117371725E0,-7.485870272E-2,-9.474716187E0,2.395478487E0
4.119835059E0,-2.694913372E-2,-9.207021713E0,2.366732836E0
4.122298392E0,9.701687843E-2,-9.254931450E0,2.452970028E0
4.124761778E0,3.533330932E-2,-9.235767365E0,2.357150793E0
4.127225111E0,5.868922547E-2,-9.245349884E0,2.295467377E0
4.129688496E0,5.389826745E-2,-9.264513016E0,2.257139683E0
4.132151830E0,4.910730943E-2,-9.245349884E0,2.237975836E0
4.134615163E0,5.389826745E-2,-9.226185799E0,2.276303530E0
4.137078548E0,4.012426734E-2,-9.221394539E0,2.170902491E0
4.139541882E0,-2.994348295E-3,-9.154321671E0,2.180484295E0
4.142005267E0,1.616948098E-2,-9.163903236E0,2.108619928E0
4.144468600E0,-2.994348295E-3,-9.168694496E0,2.108619928E0
4.146931934E0,1.796608907E-3,-9.159111977E0,2.127783775E0
4.149395319E0,-6.527678668E-2,-9.197440147E0,2.127783775E0
4.151858653E0,-8.444061875E-2,-9.202230453E0,2.079874277E0
4.154322038E0,-3.653104603E-2,-9.202230453E0,2.060710430E0
4.156785371E0,-2.694913372E-2,-9.240558624E0,2.070292234E0
4.159248705E0,-1.736721955E-2,-9.245349884E0,2.156529665E0
4.161712090E0,-7.785305381E-3,-9.288468361E0,2.084665298E0
4.164175423E0,-1.736721955E-2,-9.288468361E0,2.065501451E0
4.166638809E0,-5.090392008E-2,-9.307631493E0,2.055919409E0
4.169102142E0,-5.569487438E-2,-9.378897667E0,2.051128387E0
4.171565475E0,-7.006774843E-2,-9.383687973E0,2.060710430E0
4.174028861E0,-7.964966446E-2,-9.402852058E0,2.060710430E0
4.176492194E0,-6.048583239E-2,-9.431597710E0,2.094247103E0
4.178955580E0,-7.485870272E-2,-9.450761795E0,2.041546583E0
4.181418913E0,-1.083954051E-1,-9.469925880E0,1.994235873E0
4.183882246E0,-3.174009174E-2,-9.455553055E0,2.055919409E0
4.186345632E0,-5.090392008E-2,-9.503461838E0,2.075083256E0
4.188808965E0,-8.444061875E-2,-9.556162834E0,2.027772665E0
4.191272350E0,-5.090392008E-2,-9.570535660E0,2.022981644E0
4.193735684E0,-8.923157305E-2,-9.584908485E0,1.989444971E0
4.196199017E0,-8.923157305E-2,-9.637010574E0,1.989444971E0
4.198662403E0,-1.227682754E-1,-9.656173706E0,2.018190622E0
4.201125736E0,-1.323501915E-1,-9.641800880E0,2.013399601E0
4.203589121E0,-1.323501915E-1,-9.660964966E0,2.013399601E0
4.206052455E0,-1.467230618E-1,-9.699292183E0,2.036755562E0
4.208515840E0,-1.946326345E-1,-9.699292183E0,2.036755562E0
4.210979173E0,-1.898416728E-1,-9.680129051E0,2.036755562E0
4.213442507E0,-2.329602838E-1,-9.684919357E0,2.055919409E0
4.215905892E0,-2.521241307E-1,-9.742411613E0,1.999026895E0
4.218369225E0,-2.377512455E-1,-9.728038788E0,1.989444971E0
4.220832611E0,-2.329602838E-1,-9.728038788E0,1.994235873E0
4.223295944E0,-2.569150627E-1,-9.756784439E0,2.027772665E0
4.225759278E0,-3.048246503E-1,-9.761574745E0,2.022981644E0
4.228222663E0,-3.191975057E-1,-9.675337791E0,2.013399601E0
4.230685996E0,-3.048246503E-1,-9.689710617E0,2.127783775E0
4.233149382E0,-3.239884675E-1,-9.665756226E0,2.070292234E0
4.235612715E0,-3.144065440E-1,-9.694501877E0,2.003817797E0
4.238076048E0,-2.712879479E-1,-9.656173706E0,2.065501451E0
4.240539434E0,-3.239884675E-1,-9.665756226E0,2.075083256E0
4.243002767E0,-3.521353602E-1,-9.632219315E0,2.036755562E0
4.245466153E0,-3.665082157E-1,-9.613654137E0,1.994235873E0
4.247929486E0,-3.377624750E-1,-9.618445396E0,1.994235873E0
4.250392819E0,-3.569262922E-1,-9.551371574E0,2.031964779E0
4.252856205E0,-3.144065440E-1,-9.570535660E0,2.036755562E0
4.255319538E0,-2.617060244E-1,-9.546581268E0,2.027772665E0
4.257782923E0,-2.664969862E-1,-9.556162834E0,1.960699201E0
4.260246257E0,-3.048246503E-1,-9.546581268E0,2.018190622E0
4.262709590E0,-3.096156120E-1,-9.489089012E0,1.989444971E0
4.265172975E0,-2.952427268E-1,-9.465134621E0,1.960699201E0
4.267636309E0,-2.664969862E-1,-9.422016144E0,2.013399601E0
4.270099694E0,-2.473331541E-1,-9.431597710E0,1.975072026E0
4.272563028E0,-2.617060244E-1,-9.374106407E0,1.994235873E0
4.275026361E0,-2.137964666E-1,-9.412433624E0,2.018190622E0
4.277489746E0,-2.617060244E-1,-9.369315147E0,1.946326375E0
4.279953080E0,-2.425422072E-1,-9.412433624E0,1.970281124E0
4.282416465E0,-2.473331541E-1,-9.383687973E0,1.898416758E0
4.284879798E0,-2.473331541E-1,-9.335779190E0,1.941535354E0
4.287343132E0,-1.706778407E-1,-9.302841187E0,2.008608818E0
4.289806517E0,-1.946326345E-1,-9.302841187E0,1.965490103E0
4.292269850E0,-1.946326345E-1,-9.335779190E0,1.936744452E0
4.294733236E0,-1.946326345E-1,-9.350152016E0,2.041546583E0
4.297196569E0,-1.850507110E-1,-9.259722710E0,2.022981644E0
4.299659903E0,-1.610959321E-1,-9.254931450E0,2.031964779E0
4.302123288E0,-1.419321001E-1,-9.245349884E0,2.089456081E0
4.304586621E0,-1.898416728E-1,-9.283677101E0,2.146947622E0
4.307050007E0,-1.994235814E-1,-9.302841187E0,2.204439163E0
4.309513340E0,-1.946326345E-1,-9.278885841E0,2.290077448E0
4.311976673E0,-1.994235814E-1,-9.345360756E0,2.424224377E0
4.314440059E0,-2.281693369E-1,-9.316615105E0,2.457761049E0
4.316903392E0,-2.808698714E-1,-9.274095535E0,2.596099854E0
4.319366778E0,-2.617060244E-1,-9.293258667E0,2.615263700E0
4.321830111E0,-3.287794292E-1,-9.283677101E0,2.720664740E0
4.324293444E0,-3.425534368E-1,-9.298049927E0,2.773365259E0
4.326756830E0,-3.952539563E-1,-9.259722710E0,2.763783455E0
4.329220163E0,-4.479544759E-1,-9.269304276E0,2.720664740E0
4.331683548E0,-5.246098042E-1,-9.278885841E0,2.773365259E0
4.334146882E0,-5.198188424E-1,-9.226185799E0,2.844630718E0
4.336610267E0,-5.773103237E-1,-9.278885841E0,2.778156281E0
4.339073600E0,-6.970842481E-1,-9.235767365E0,2.768574238E0
4.341536934E0,-7.252311110E-1,-9.211812973E0,2.778156281E0
4.344000319E0,-7.731407285E-1,-9.207021713E0,2.744619608E0
4.346463653E0,-8.162593246E-1,-9.264513016E0,2.754201412E0
4.348927038E0,-8.402140737E-1,-9.216603279E0,2.735037565E0
4.351390371E0,-9.120784402E-1,-9.330987930E0,2.667964220E0
4.353853705E0,-9.791518450E-1,-9.330987930E0,2.677546024E0
4.356317090E0,-9.935247302E-1,-9.302841187E0,2.596099854E0
4.358780423E0,-1.069581151E0,-9.330987930E0,2.639218569E0
4.361243809E0,-1.088744998E0,-9.383687973E0,2.615263700E0
4.363707142E0,-1.098326921E0,-9.465134621E0,2.543998241E0
4.366170475E0,-1.069581151E0,-9.441180229E0,2.552981138E0
4.368633861E0,-1.088744998E0,-9.431597710E0,2.500879526E0
4.371097194E0,-1.122281671E0,-9.465134621E0,2.529625416E0
4.373560580E0,-1.112699747E0,-9.489089012E0,2.496088743E0
4.376023913E0,-1.112699747E0,-9.503461838E0,2.376314640E0
4.378487246E0,-1.088744998E0,-9.617846489E0,2.309241295E0
4.380950632E0,-1.117490768E0,-9.617846489E0,2.318823338E0
4.383413965E0,-1.160609365E0,-9.632219315E0,2.309241295E0
4.385877350E0,-1.083954096E0,-9.665756226E0,2.194857121E0
4.388340684E0,-1.046225309E0,-9.699292183E0,2.142156601E0
4.390804017E0,-1.003106594E0,-9.756784439E0,2.170902491E0
4.393267403E0,-9.647789598E-1,-9.771157265E0,2.199648142E0
4.395730736E0,-9.456151724E-1,-9.823857307E0,2.156529665E0
4.398194121E0,-8.258412480E-1,-9.871767044E0,2.194857121E0
4.400657455E0,-7.683497667E-1,-9.905303955E0,2.204439163E0
4.403120788E0,-7.066661716E-1,-9.905303955E0,2.261930704E0
4.405584173E0,-6.779204011E-1,-9.881348610E0,2.285885334E0
4.408047507E0,-6.108470559E-1,-9.843021393E0,2.366732836E0
4.410510892E0,-6.156379580E-1,-9.857394218E0,2.419433355E0
4.412974225E0,-5.964741707E-1,-9.871767044E0,2.452970028E0
4.415437559E0,-6.539656520E-1,-9.866975784E0,2.476924896E0
4.417900944E0,-6.060560942E-1,-9.823857307E0,2.515252352E0
4.420364278E0,-6.012651324E-1,-9.866975784E0,2.552981138E0
4.422827663E0,-6.491746902E-1,-9.905303955E0,2.615263700E0
4.425290996E0,-6.108470559E-1,-9.914286613E0,2.644009352E0
4.427754330E0,-6.300108433E-1,-9.943032265E0,2.658382416E0
4.430217715E0,-6.443837285E-1,-9.914286613E0,2.677546024E0
4.432681048E0,-6.683385372E-1,-9.862185478E0,2.711082935E0
4.435144434E0,-7.443949580E-1,-9.847812653E0,2.663173199E0
4.437607767E0,-7.204401493E-1,-9.852602959E0,2.596099854E0
4.440071100E0,-7.731407285E-1,-9.823857307E0,2.543998241E0
4.442534486E0,-8.833327293E-1,-9.747201920E0,2.615263700E0
4.444997819E0,-8.689598441E-1,-9.718456268E0,2.596099854E0
4.447461205E0,-8.785417676E-1,-9.704083443E0,2.581727028E0
4.449924538E0,-9.360332489E-1,-9.651383400E0,2.496088743E0
4.452387871E0,-9.599879980E-1,-9.584908485E0,2.529625416E0
4.454851257E0,-9.216603637E-1,-9.594490051E0,2.448179007E0
4.457314590E0,-9.024965167E-1,-9.527417183E0,2.481715679E0
4.459777975E0,-9.120784402E-1,-9.546581268E0,2.491297722E0
4.462241309E0,-9.839428067E-1,-9.508253098E0,2.381105661E0
4.464704694E0,-9.743608832E-1,-9.522625923E0,2.337986946E0
4.467168028E0,-9.647789598E-1,-9.513044357E0,2.237975836E0
4.469631361E0,-9.456151724E-1,-9.465134621E0,2.361941814E0
4.472094746E0,-9.695699215E-1,-9.474716187E0,2.304450274E0
4.474558080E0,-9.504061341E-1,-9.465134621E0,2.223603010E0
4.477021465E0,-9.168694019E-1,-9.479507446E0,2.304450274E0
4.479484798E0,-9.264513254E-1,-9.469925880E0,2.424224377E0
4.481948132E0,-9.408242106E-1,-9.422016144E0,2.443388224E0
4.484411517E0,-9.456151724E-1,-9.417224884E0,2.496088743E0
4.486874850E0,-9.551970959E-1,-9.417224884E0,2.552981138E0
4.489338236E0,-9.887337685E-1,-9.412433624E0,2.548190355E0
4.491801569E0,-9.695699215E-1,-9.412433624E0,2.510461569E0
4.494264903E0,-9.456151724E-1,-9.422016144E0,2.524834394E0
4.496728236E0,-9.791518450E-1,-9.364524841E0,2.586518049E0
4.499191673E0,-9.551970959E-1,-9.407643318E0,2.557772160E0
4.501655059E0,-9.695699215E-1,-9.398060799E0,2.486506701E0
4.504118444E0,-9.456151724E-1,-9.359733582E0,2.462551832E0
4.506581830E0,-9.551970959E-1,-9.302841187E0,2.433806181E0
4.509045267E0,-9.551970959E-1,-9.330987930E0,2.352360010E0
4.511508653E0,-9.456151724E-1,-9.307032585E0,2.357150793E0
4.513972038E0,-9.743608832E-1,-9.259722710E0,2.357150793E0
4.516435423E0,-9.312422872E-1,-9.283677101E0,2.337986946E0
4.518898861E0,-9.360332489E-1,-9.240558624E0,2.328405142E0
4.521362246E0,-9.216603637E-1,-9.240558624E0,2.271512508E0
4.523825632E0,-8.977055550E-1,-9.187857628E0,2.357150793E0
4.526289017E0,-8.354231715E-1,-9.221394539E0,2.438597202E0
4.528752455E0,-8.114683628E-1,-9.274095535E0,2.342777967E0
4.531215840E0,-8.306322098E-1,-9.264513016E0,2.361941814E0
4.533679225E0,-7.970954776E-1,-9.321405411E0,2.385896683E0
4.536142663E0,-7.587678432E-1,-9.283677101E0,2.333196163E0
4.538606048E0,-6.970842481E-1,-9.316615105E0,2.385896683E0
4.541069434E0,-6.683385372E-1,-9.369315147E0,2.390687704E0
4.543532819E0,-6.443837285E-1,-9.417224884E0,2.438597202E0
4.545996257E0,-6.156379580E-1,-9.383687973E0,2.486506701E0
4.548459642E0,-6.108470559E-1,-9.417224884E0,2.467342854E0
4.550923028E0,-6.348018050E-1,-9.441180229E0,2.400269508E0
4.553386413E0,-5.964741707E-1,-9.479507446E0,2.409851313E0
4.555849850E0,-5.677284002E-1,-9.469925880E0,2.376314640E0
4.558313236E0,-5.868922472E-1,-9.460343361E0,2.381105661E0
4.560776621E0,-5.533555150E-1,-9.503461838E0,2.342777967E0
4.563240007E0,-5.389826894E-1,-9.484298706E0,2.409851313E0
4.565703444E0,-5.341917276E-1,-9.484298706E0,2.361941814E0
4.568166830E0,-5.246098042E-1,-9.508253098E0,2.381105661E0
4.570630215E0,-5.198188424E-1,-9.508253098E0,2.328405142E0
4.573093600E0,-4.479544759E-1,-9.489089012E0,2.371523857E0
4.575557038E0,-4.671183228E-1,-9.489089012E0,2.352360010E0
4.578020423E0,-4.671183228E-1,-9.503461838E0,2.347568989E0
4.580483809E0,-3.952539563E-1,-9.484298706E0,2.395478487E0
4.582947194E0,-3.808811009E-1,-9.479507446E0,2.443388224E0
4.585410632E0,-4.335816205E-1,-9.455553055E0,2.409851313E0
4.587874017E0,-4.048358798E-1,-9.398060799E0,2.462551832E0
4.590337403E0,-3.952539563E-1,-9.422016144E0,2.424224377E0
4.592800840E0,-4.239996970E-1,-9.441180229E0,2.491297722E0
4.595264225E0,-4.383725822E-1,-9.422016144E0,2.467342854E0
4.597727611E0,-4.335816205E-1,-9.378897667E0,2.467342854E0
4.600190996E0,-5.054459572E-1,-9.388479233E0,2.433806181E0
4.602654434E0,-5.150278807E-1,-9.398060799E0,2.433806181E0
4.605117819E0,-5.341917276E-1,-9.383687973E0,2.520043373E0
4.607581205E0,-5.485646129E-1,-9.388479233E0,2.610472679E0
4.610044590E0,-5.341917276E-1,-9.407643318E0,2.529625416E0
4.612508028E0,-5.677284002E-1,-9.431597710E0,2.586518049E0
4.614971413E0,-5.629374385E-1,-9.422016144E0,2.605681896E0
4.617434798E0,-5.629374385E-1,-9.426807404E0,2.572144985E0
4.619898184E0,-5.868922472E-1,-9.455553055E0,2.572144985E0
4.622361621E0,-5.485646129E-1,-9.450761795E0,2.557772160E0
4.624825007E0,-5.246098042E-1,-9.431597710E0,2.562563181E0
4.627288392E0,-5.102369189E-1,-9.455553055E0,2.543399334E0
4.629751778E0,-4.910731018E-1,-9.460343361E0,2.520043373E0
4.632215215E0,-4.671183228E-1,-9.460343361E0,2.496088743E0
4.634678600E0,-4.623273611E-1,-9.445970535E0,2.529625416E0
4.637141986E0,-4.383725822E-1,-9.422016144E0,2.534416199E0
4.639605371E0,-4.000449181E-1,-9.474716187E0,2.562563181E0
4.642068809E0,-4.431635439E-1,-9.445970535E0,2.486506701E0
4.644532194E0,-4.719092846E-1,-9.383687973E0,2.496088743E0
4.646995580E0,-4.767002165E-1,-9.417224884E0,2.476924896E0
4.649459017E0,-5.006549954E-1,-9.422016144E0,2.467342854E0
4.651922403E0,-4.910731018E-1,-9.378897667E0,2.510461569E0
4.654385788E0,-4.958640635E-1,-9.383687973E0,2.481715679E0
4.656849173E0,-5.102369189E-1,-9.354942322E0,2.385896683E0
4.659312611E0,-4.910731018E-1,-9.340569496E0,2.419433355E0
4.661775996E0,-5.198188424E-1,-9.311823845E0,2.419433355E0
4.664239382E0,-5.389826894E-1,-9.316615105E0,2.400269508E0
4.666702767E0,-5.341917276E-1,-9.369315147E0,2.424224377E0
4.669166205E0,-5.677284002E-1,-9.340569496E0,2.366732836E0
4.671629590E0,-6.060560942E-1,-9.326196671E0,2.395478487E0
4.674092975E0,-5.389826894E-1,-9.350152016E0,2.371523857E0
4.676556361E0,-5.533555150E-1,-9.422016144E0,2.314032316E0
4.679019798E0,-5.150278807E-1,-9.441180229E0,2.409851313E0
4.681483184E0,-5.006549954E-1,-9.474716187E0,2.438597202E0
4.683946569E0,-5.485646129E-1,-9.407643318E0,2.419433355E0
4.686409955E0,-5.629374385E-1,-9.431597710E0,2.419433355E0
4.688873392E0,-5.581464767E-1,-9.489089012E0,2.429015160E0
4.691336778E0,-5.725193620E-1,-9.527417183E0,2.419433355E0
4.693800163E0,-5.964741707E-1,-9.546581268E0,2.419433355E0
4.696263548E0,-5.725193620E-1,-9.560954094E0,2.419433355E0
4.698726986E0,-6.252198815E-1,-9.560954094E0,2.438597202E0
4.701190371E0,-6.395927668E-1,-9.599281311E0,2.472133875E0
4.703653757E0,-6.539656520E-1,-9.594490051E0,2.433806181E0
4.706117194E0,-6.587566137E-1,-9.575326920E0,2.472133875E0
4.708580580E0,-6.539656520E-1,-9.575326920E0,2.429015160E0
4.711043965E0,-6.875023246E-1,-9.546581268E0,2.467342854E0
4.713507350E0,-7.306209803E-1,-9.584908485E0,2.414642334E0
4.715970788E0,-7.635588050E-1,-9.599281311E0,2.467342854E0
4.718434173E0,-7.449938059E-1,-9.556162834E0,2.462551832E0
4.720897559E0,-7.354119420E-1,-9.503461838E0,2.424224377E0
4.723360944E0,-7.545757294E-1,-9.551371574E0,2.443388224E0
4.725824382E0,-7.306209803E-1,-9.484298706E0,2.462551832E0
4.728287767E0,-7.497847676E-1,-9.522625923E0,2.500879526E0
4.730751153E0,-7.875135541E-1,-9.517834663E0,2.467342854E0
4.733214538E0,-7.354119420E-1,-9.498671532E0,2.524834394E0
4.735677975E0,-7.210390568E-1,-9.503461838E0,2.562563181E0
4.738141361E0,-7.497847676E-1,-9.527417183E0,2.472133875E0
4.740604746E0,-6.779204011E-1,-9.493880272E0,2.486506701E0
4.743068132E0,-6.875023246E-1,-9.436388969E0,2.448179007E0
4.745531569E0,-6.683385372E-1,-9.493880272E0,2.409851313E0
4.747994955E0,-6.779204011E-1,-9.441180229E0,2.381105661E0
4.750458340E0,-6.156379580E-1,-9.489089012E0,2.395478487E0
4.752921778E0,-6.252198815E-1,-9.479507446E0,2.361941814E0
4.755385163E0,-5.773103237E-1,-9.541790009E0,2.371523857E0
4.757848548E0,-5.964741707E-1,-9.513044357E0,2.452970028E0
4.760311934E0,-5.725193620E-1,-9.508253098E0,2.376314640E0
4.762775371E0,-5.389826894E-1,-9.513044357E0,2.357150793E0
4.765238757E0,-5.629374385E-1,-9.532208443E0,2.390687704E0
4.767702142E0,-5.964741707E-1,-9.484298706E0,2.390687704E0
4.770165528E0,-5.341917276E-1,-9.522625923E0,2.371523857E0
4.772628965E0,-5.916832089E-1,-9.503461838E0,2.381105661E0
4.775092350E0,-5.868922472E-1,-9.455553055E0,2.491297722E0
4.777555736E0,-5.629374385E-1,-9.460343361E0,2.491297722E0
4.780019121E0,-5.868922472E-1,-9.436388969E0,2.381105661E0
4.782482559E0,-5.868922472E-1,-9.393270493E0,2.438597202E0
4.784945944E0,-5.198188424E-1,-9.422016144E0,2.476924896E0
4.787409330E0,-5.868922472E-1,-9.369315147E0,2.467342854E0
4.789872715E0,-6.012651324E-1,-9.354942322E0,2.552981138E0
4.792336153E0,-5.677284002E-1,-9.398060799E0,2.557772160E0
4.794799538E0,-5.773103237E-1,-9.311823845E0,2.567354202E0
4.797262923E0,-5.868922472E-1,-9.278885841E0,2.567354202E0
4.799726309E0,-5.677284002E-1,-9.259722710E0,2.624845505E0
4.802189746E0,-6.204289198E-1,-9.274095535E0,2.610472679E0
4.804653132E0,-5.964741707E-1,-9.230976105E0,2.672755241E0
4.807116517E0,-5.964741707E-1,-9.211812973E0,2.663173199E0
4.809579955E0,-6.012651324E-1,-9.240558624E0,2.711082935E0
4.812043340E0,-6.012651324E-1,-9.178276062E0,2.730246782E0
4.814506725E0,-5.964741707E-1,-9.159111977E0,2.672755241E0
4.816970111E0,-5.773103237E-1,-9.202230453E0,2.682337046E0
4.819433548E0,-5.773103237E-1,-9.135157585E0,2.677546024E0
4.821896934E0,-5.533555150E-1,-9.173484802E0,2.758992434E0
4.824360319E0,-5.821012855E-1,-9.187857628E0,2.773365259E0
4.826823705E0,-5.868922472E-1,-9.168694496E0,2.701500893E0
4.829287142E0,-5.773103237E-1,-9.187857628E0,2.739828587E0
4.831750528E0,-6.156379580E-1,-9.163903236E0,2.811094046E0
4.834213913E0,-5.916832089E-1,-9.250140190E0,2.758992434E0
4.836677298E0,-5.916832089E-1,-9.297451019E0,2.768574238E0
4.839140736E0,-6.395927668E-1,-9.283677101E0,2.791930199E0
4.841604121E0,-6.300108433E-1,-9.345360756E0,2.801512241E0
4.844067507E0,-6.108470559E-1,-9.393270493E0,2.701500893E0
4.846530892E0,-6.156379580E-1,-9.398060799E0,2.758992434E0
4.848994330E0,-6.395927668E-1,-9.450761795E0,2.815885067E0
4.851457715E0,-6.587566137E-1,-9.508253098E0,2.820676088E0
4.853921100E0,-6.300108433E-1,-9.479507446E0,2.835048914E0
4.856384486E0,-6.060560942E-1,-9.493880272E0,2.839839697E0
4.858847923E0,-6.443837285E-1,-9.493880272E0,2.863794565E0
4.861311309E0,-5.821012855E-1,-9.513044357E0,2.849421740E0
4.863774694E0,-5.773103237E-1,-9.522625923E0,2.768574238E0
4.866238132E0,-5.677284002E-1,-9.445970535E0,2.806303024E0
4.868701517E0,-5.341917276E-1,-9.498671532E0,2.815885067E0
4.871164903E0,-5.054459572E-1,-9.527417183E0,2.758992434E0
4.873628288E0,-4.671183228E-1,-9.532208443E0,2.667964220E0
4.876091725E0,-4.527454376E-1,-9.498671532E0,2.672755241E0
4.878555111E0,-4.527454376E-1,-9.503461838E0,2.696709871E0
4.881018496E0,-4.862821400E-1,-9.532208443E0,2.667964220E0
4.883481882E0,-4.671183228E-1,-9.484298706E0,2.639218569E0
4.885945319E0,-4.383725822E-1,-9.417224884E0,2.576936007E0
4.888408705E0,-4.527454376E-1,-9.460343361E0,2.624845505E0
4.890872090E0,-4.767002165E-1,-9.455553055E0,2.596099854E0
4.893335475E0,-4.767002165E-1,-9.441180229E0,2.572144985E0
4.895798913E0,-5.102369189E-1,-9.479507446E0,2.552981138E0
4.898262298E0,-5.006549954E-1,-9.489089012E0,2.520043373E0
4.900725684E0,-4.719092846E-1,-9.455553055E0,2.481715679E0
4.903189069E0,-4.719092846E-1,-9.460343361E0,2.438597202E0
4.905652507E0,-4.623273611E-1,-9.469925880E0,2.443388224E0
4.908115892E0,-4.287906587E-1,-9.479507446E0,2.486506701E0
4.910579278E0,-4.102256894E-1,-9.498671532E0,2.476924896E0
4.913042663E0,-3.958528340E-1,-9.465134621E0,2.443388224E0
4.915506100E0,-3.623161316E-1,-9.465134621E0,2.429015160E0
4.917969486E0,-3.814799488E-1,-9.469925880E0,2.500879526E0
4.920432871E0,-3.527342081E-1,-9.489089012E0,2.438597202E0
4.922896309E0,-3.671070933E-1,-9.436388969E0,2.419433355E0
4.925359694E0,-3.527342081E-1,-9.402852058E0,2.481715679E0
4.927823080E0,-3.191975057E-1,-9.441180229E0,2.472133875E0
4.930286465E0,-3.287794292E-1,-9.412433624E0,2.572144985E0
4.932749903E0,-3.958528340E-1,-9.335779190E0,2.629636526E0
4.935213288E0,-4.198076129E-1,-9.335779190E0,2.600890875E0
4.937676673E0,-4.006437957E-1,-9.321405411E0,2.557772160E0
4.940140059E0,-4.245985746E-1,-9.354942322E0,2.653591394E0
4.942603496E0,-4.527454376E-1,-9.297451019E0,2.653591394E0
4.945066882E0,-5.198188424E-1,-9.307032585E0,2.667964220E0
4.947530267E0,-5.198188424E-1,-9.326196671E0,2.639218569E0
4.949993653E0,-5.389826894E-1,-9.321405411E0,2.720664740E0
4.952457090E0,-5.725193620E-1,-9.259722710E0,2.763783455E0
4.954920475E0,-5.821012855E-1,-9.292659760E0,2.715873718E0
4.957383861E0,-6.108470559E-1,-9.311823845E0,2.706291914E0
4.959847246E0,-6.060560942E-1,-9.350152016E0,2.773365259E0
4.962310684E0,-6.300108433E-1,-9.354942322E0,2.778156281E0
4.964774069E0,-6.683385372E-1,-9.311823845E0,2.725455761E0
4.967237455E0,-7.210390568E-1,-9.326196671E0,2.778156281E0
4.969700840E0,-7.641576529E-1,-9.330987930E0,2.854212761E0
4.972164278E0,-7.923045158E-1,-9.354942322E0,2.820676088E0
4.974627663E0,-8.018864393E-1,-9.307032585E0,2.830257893E0
4.977091048E0,-8.545869589E-1,-9.340569496E0,2.773365259E0
4.979554486E0,-8.162593246E-1,-9.345360756E0,2.773365259E0
4.982017871E0,-8.114683628E-1,-9.378897667E0,2.830257893E0
4.984481257E0,-8.689598441E-1,-9.364524841E0,2.815885067E0
4.986944642E0,-8.737508059E-1,-9.374106407E0,2.768574238E0
4.989408080E0,-8.593779206E-1,-9.359733582E0,2.801512241E0
4.991871465E0,-8.018864393E-1,-9.364524841E0,2.754201412E0
4.994334850E0,-7.970954776E-1,-9.436388969E0,2.677546024E0
4.996798184E0,-7.497847676E-1,-9.417224884E0,2.711082935E0
4.999261621E0,-7.497847676E-1,-9.417224884E0,2.653591394E0
5.001725007E0,-7.018752098E-1,-9.402852058E0,2.605681896E0
5.004188444E0,-6.970842481E-1,-9.450761795E0,2.596099854E0
5.006651830E0,-6.827113628E-1,-9.436388969E0,2.572144985E0
5.009115215E0,-6.491746902E-1,-9.431597710E0,2.552981138E0
5.011578653E0,-6.300108433E-1,-9.431597710E0,2.515252352E0
5.014042038E0,-6.389939189E-1,-9.445970535E0,2.515252352E0
5.016505475E0,-6.198300719E-1,-9.460343361E0,2.467342854E0
5.018968861E0,-6.006662250E-1,-9.417224884E0,2.352958918E0
5.021432246E0,-5.862933993E-1,-9.431597710E0,2.381704569E0
5.023895684E0,-5.575476289E-1,-9.493880272E0,2.376913548E0
5.026359069E0,-5.815024376E-1,-9.551371574E0,2.372122526E0
5.028822507E0,-5.671295524E-1,-9.532208443E0,2.367331743E0
5.031285892E0,-5.144290328E-1,-9.522625923E0,2.314631224E0
5.033749278E0,-5.192199945E-1,-9.570535660E0,2.309840202E0
5.036212715E0,-4.761013687E-1,-9.628026962E0,2.376913548E0
5.038676100E0,-5.096380711E-1,-9.647191048E0,2.433806181E0
5.041139486E0,-4.617284834E-1,-9.651982307E0,2.391286373E0
5.043602923E0,-4.473556280E-1,-9.737620354E0,2.357749701E0
5.046066309E0,-4.425646663E-1,-9.732829094E0,2.391286373E0
5.048529746E0,-4.090279639E-1,-9.695100784E0,2.481715679E0
5.050993132E0,-4.473556280E-1,-9.723247528E0,2.472133875E0
5.053456517E0,-4.329827428E-1,-9.714263916E0,2.520043373E0
5.055919955E0,-4.425646663E-1,-9.737620354E0,2.558371067E0
5.058383340E0,-4.186098874E-1,-9.718456268E0,2.539207220E0
