"Time (s)","Acceleration x (m/s^2)","Acceleration y (m/s^2)","Acceleration z (m/s^2)"
0.000000000E0,-2.122919321E0,6.904896736E0,5.131281853E0
0.000000000E0,-2.038193464E0,6.881587029E0,5.164608955E0
1.356900000E-3,-1.981517911E0,6.860537052E0,5.189230919E0
3.356900000E-3,-1.956359625E0,6.843538284E0,5.203145981E0
5.356900000E-3,-1.941726327E0,6.835512638E0,5.221437931E0
7.356900000E-3,-1.946811676E0,6.827449322E0,5.243732929E0
9.356900000E-3,-1.975838900E0,6.833233356E0,5.271351814E0
1.135690000E-2,-2.015879631E0,6.849265099E0,5.319504261E0
1.374440000E-2,-2.075313330E0,6.865536213E0,5.375854492E0
1.469283800E-2,-2.075313330E0,6.865536213E0,5.375854492E0
1.736002500E-2,-2.129795551E0,6.913774490E0,5.409564495E0
1.935690000E-2,-2.233196497E0,6.921847820E0,5.506587505E0
2.135690000E-2,-2.327269316E0,6.934249878E0,5.605257511E0
2.335690000E-2,-2.422118187E0,6.940790653E0,5.706809521E0
2.535690000E-2,-2.504737377E0,6.938865662E0,5.817632198E0
2.735690000E-2,-2.585335732E0,6.930591106E0,5.933952332E0
2.935690000E-2,-2.640229940E0,6.919559002E0,6.050655365E0
3.135690000E-2,-2.706549406E0,6.901860714E0,6.170557022E0
3.335690000E-2,-2.773098469E0,6.881338120E0,6.295332909E0
3.535690000E-2,-2.848678827E0,6.878072262E0,6.401166439E0
3.735690000E-2,-2.921922207E0,6.876827240E0,6.510878563E0
3.935690000E-2,-2.996075153E0,6.880428314E0,6.605708122E0
4.135690000E-2,-3.081414223E0,6.885484695E0,6.696878910E0
4.335690000E-2,-3.171665907E0,6.895540714E0,6.779507637E0
4.535690000E-2,-3.252753019E0,6.904437065E0,6.851161480E0
4.735690000E-2,-3.319072247E0,6.913975716E0,6.923619747E0
4.935690000E-2,-3.381283283E0,6.914665222E0,6.984489918E0
5.135690000E-2,-3.447257757E0,6.911428452E0,7.032842636E0
5.353815000E-2,-3.503100157E0,6.879384041E0,7.066706657E0
5.535690000E-2,-3.570587873E0,6.820937157E0,7.067989826E0
5.735690000E-2,-3.622925043E0,6.786182404E0,7.071351528E0
5.935690000E-2,-3.682109833E0,6.744121552E0,7.068373203E0
6.135690000E-2,-3.747356653E0,6.706130505E0,7.066295147E0
6.335690000E-2,-3.824229717E0,6.677850246E0,7.080324650E0
6.535690000E-2,-3.907480717E0,6.649521351E0,7.098108768E0
6.735690000E-2,-3.984871149E0,6.628117561E0,7.121677399E0
6.935690000E-2,-4.063908577E0,6.613963127E0,7.134069920E0
7.135690000E-2,-4.151622772E0,6.616318703E0,7.141147137E0
7.335690000E-2,-4.242726326E0,6.622084141E0,7.149622440E0
7.535690000E-2,-4.321840286E0,6.627677441E0,7.151173592E0
7.735690000E-2,-4.386282921E0,6.642214775E0,7.140323639E0
7.935690000E-2,-4.434827805E0,6.649215221E0,7.132336617E0
8.135690000E-2,-4.458376884E0,6.655698776E0,7.130880833E0
8.335690000E-2,-4.460301876E0,6.656206608E0,7.115596294E0
8.535690000E-2,-4.461987495E0,6.650019646E0,7.095149994E0
8.735690000E-2,-4.457543850E0,6.636985779E0,7.072634697E0
8.935690000E-2,-4.424983025E0,6.616922379E0,7.046365261E0
9.135690000E-2,-4.371994019E0,6.598822117E0,7.022366047E0
9.353815000E-2,-4.293684483E0,6.573912621E0,6.990427017E0
9.535690000E-2,-4.185782909E0,6.550707817E0,6.964282513E0
9.735690000E-2,-4.041824341E0,6.536496162E0,6.944975376E0
9.935690000E-2,-3.876653194E0,6.527216434E0,6.931424618E0
1.013569000E-1,-3.693218946E0,6.523069382E0,6.910949230E0
1.033569000E-1,-3.494902372E0,6.509135246E0,6.883224487E0
1.053569000E-1,-3.283571005E0,6.500995159E0,6.851496696E0
1.073569000E-1,-3.076961040E0,6.506750584E0,6.815928459E0
1.093569000E-1,-2.881450415E0,6.514182091E0,6.781193256E0
1.113569000E-1,-2.686466694E0,6.513119221E0,6.746065617E0
1.133569000E-1,-2.501500130E0,6.518856049E0,6.714002609E0
1.153569000E-1,-2.337650537E0,6.531774998E0,6.677198887E0
1.173569000E-1,-2.196153402E0,6.537367821E0,6.637196064E0
1.193569000E-1,-2.088136435E0,6.545010090E0,6.591103077E0
1.213569000E-1,-2.008524418E0,6.554873943E0,6.544263363E0
1.233569000E-1,-1.941036701E0,6.581900120E0,6.529313564E0
1.253569000E-1,-1.907144427E0,6.613666058E0,6.558714390E0
1.273569000E-1,-1.897653818E0,6.634754181E0,6.614087582E0
1.293569000E-1,-1.901656985E0,6.648621559E0,6.685253143E0
1.313569000E-1,-1.934917212E0,6.658428192E0,6.749637604E0
1.335381500E-1,-1.985396624E0,6.648966312E0,6.787284374E0
1.353569000E-1,-2.035339594E0,6.632637501E0,6.813553333E0
1.373569000E-1,-2.079881430E0,6.611032486E0,6.821109295E0
1.393569000E-1,-2.121798992E0,6.580827236E0,6.817010880E0
1.413569000E-1,-2.154178143E0,6.534168720E0,6.795711994E0
1.433569000E-1,-2.197915554E0,6.476047516E0,6.745979309E0
1.453569000E-1,-2.252417088E0,6.406433582E0,6.684869766E0
1.473569000E-1,-2.320948839E0,6.335287571E0,6.624229431E0
1.493569000E-1,-2.402054787E0,6.265099049E0,6.544933796E0
1.513569000E-1,-2.509956598E0,6.202122211E0,6.448112011E0
1.533569000E-1,-2.623058558E0,6.132307053E0,6.342997074E0
1.553569000E-1,-2.745373487E0,6.080755234E0,6.232528210E0
1.573569000E-1,-2.891678572E0,6.045569897E0,6.126062870E0
1.593569000E-1,-3.059636593E0,6.029778004E0,6.027948856E0
1.613569000E-1,-3.237276554E0,6.029260635E0,5.923638344E0
1.633569000E-1,-3.421093941E0,6.043482304E0,5.845874310E0
1.653569000E-1,-3.590373516E0,6.077316761E0,5.790520668E0
1.673569000E-1,-3.763493538E0,6.115384579E0,5.761579514E0
1.693569000E-1,-3.938050032E0,6.150579453E0,5.767632008E0
1.713569000E-1,-4.086327553E0,6.201815605E0,5.796908379E0
1.735381500E-1,-4.209408760E0,6.239404678E0,5.837600231E0
1.753569000E-1,-4.309850693E0,6.262350559E0,5.888644695E0
1.773569000E-1,-4.389989376E0,6.280613899E0,5.952569962E0
1.793569000E-1,-4.453674793E0,6.287126064E0,6.019300938E0
1.813569000E-1,-4.489587784E0,6.283505917E0,6.092688084E0
1.833569000E-1,-4.485699654E0,6.272358418E0,6.167291164E0
1.853569000E-1,-4.471832752E0,6.247678757E0,6.250360489E0
1.873569000E-1,-4.444634438E0,6.215692520E0,6.324101925E0
1.893569000E-1,-4.383936405E0,6.178831100E0,6.393054485E0
1.913569000E-1,-4.313269138E0,6.143138885E0,6.463051796E0
1.933569000E-1,-4.243684292E0,6.104773998E0,6.526412010E0
1.953569000E-1,-4.181760788E0,6.071925163E0,6.581545353E0
1.973569000E-1,-4.106505871E0,6.045857430E0,6.633088112E0
1.993569000E-1,-4.023590088E0,6.034681320E0,6.683241844E0
2.013569000E-1,-3.945232630E0,6.032095432E0,6.725006580E0
2.033569000E-1,-3.873272419E0,6.034748077E0,6.752405167E0
2.053569000E-1,-3.808380127E0,6.042725563E0,6.769365788E0
2.073569000E-1,-3.753830671E0,6.072250843E0,6.768618584E0
2.093569000E-1,-3.690613985E0,6.113162994E0,6.767824173E0
2.113569000E-1,-3.630126953E0,6.164092541E0,6.756810665E0
2.135381500E-1,-3.576037169E0,6.210798740E0,6.737360477E0
2.153678380E-1,-3.521928310E0,6.250628471E0,6.721826553E0
2.173615880E-1,-3.459831953E0,6.291866302E0,6.709012508E0
2.193615880E-1,-3.383169889E0,6.337346554E0,6.696525097E0
2.212084630E-1,-3.300148487E0,6.376075268E0,6.700633526E0
2.233615880E-1,-3.249286175E0,6.390124321E0,6.706283569E0
2.253615880E-1,-3.143797636E0,6.413003445E0,6.725964069E0
2.273615880E-1,-3.025265455E0,6.447709560E0,6.746889114E0
2.293631500E-1,-2.897769213E0,6.489292145E0,6.770332813E0
2.313631500E-1,-2.753925800E0,6.523375988E0,6.791564941E0
2.335131500E-1,-2.621440172E0,6.538009167E0,6.802568913E0
2.358975250E-1,-2.491396666E0,6.546877384E0,6.801821709E0
2.378115880E-1,-2.317348003E0,6.554520130E0,6.784152508E0
2.394865880E-1,-2.211878300E0,6.542548656E0,6.755269051E0
2.412084630E-1,-2.129067898E0,6.518041611E0,6.719872952E0
2.433615880E-1,-2.092015028E0,6.503188133E0,6.693727970E0
2.453615880E-1,-2.027879238E0,6.461969852E0,6.626958847E0
2.473615880E-1,-1.964748859E0,6.400706768E0,6.535088539E0
2.493615880E-1,-1.911032557E0,6.315492153E0,6.420732021E0
2.513615880E-1,-1.861156583E0,6.199593544E0,6.265147209E0
2.535412750E-1,-1.809355736E0,6.051527023E0,6.087995052E0
2.554131500E-1,-1.762132406E0,5.876233101E0,5.883252621E0
2.573615880E-1,-1.731180191E0,5.687502861E0,5.649722099E0
2.593615880E-1,-1.701836944E0,5.490402222E0,5.412696362E0
2.613615880E-1,-1.708435297E0,5.294978142E0,5.187775612E0
2.633615880E-1,-1.759316921E0,5.120220661E0,4.995472908E0
2.653615880E-1,-1.849329233E0,4.972852707E0,4.831480026E0
2.673615880E-1,-1.978692770E0,4.869116783E0,4.721135616E0
2.693615880E-1,-2.155662537E0,4.803199768E0,4.674295902E0
2.713615880E-1,-2.382891655E0,4.784409523E0,4.675118923E0
2.733615880E-1,-2.641675949E0,4.814471722E0,4.729324341E0
2.753615880E-1,-2.919614077E0,4.889333725E0,4.826633930E0
2.773615880E-1,-3.204514503E0,4.997493744E0,4.951237679E0
2.793615880E-1,-3.503674746E0,5.138473988E0,5.088923931E0
2.813615880E-1,-3.786746025E0,5.302984238E0,5.248732090E0
2.835444000E-1,-4.044725895E0,5.483325005E0,5.429024696E0
2.858490880E-1,-4.285314560E0,5.668664932E0,5.629179955E0
2.872350250E-1,-4.612037182E0,5.911006451E0,5.971684933E0
2.893615880E-1,-4.704577446E0,5.982487679E0,6.090878010E0
2.913615880E-1,-4.859999657E0,6.117712021E0,6.337672234E0
2.935428380E-1,-4.993366241E0,6.218872070E0,6.581411839E0
2.954131500E-1,-5.099927425E0,6.292661190E0,6.827449322E0
2.973615880E-1,-5.187478542E0,6.333812714E0,7.071811199E0
2.993615880E-1,-5.233169556E0,6.342412472E0,7.304086685E0
3.013615880E-1,-5.240553379E0,6.324427128E0,7.525521755E0
3.033615880E-1,-5.221179008E0,6.288217545E0,7.725763321E0
3.053615880E-1,-5.176197052E0,6.236656189E0,7.905433655E0
3.073615880E-1,-5.112482548E0,6.169264317E0,8.060299873E0
3.093615880E-1,-5.040656090E0,6.096269608E0,8.188888550E0
3.113615880E-1,-4.966053009E0,6.019492149E0,8.298752785E0
3.133615880E-1,-4.872085571E0,5.949399948E0,8.397203445E0
3.153615880E-1,-4.768004894E0,5.892226219E0,8.477475166E0
3.173615880E-1,-4.665293694E0,5.849647522E0,8.532158852E0
3.193615880E-1,-4.565244675E0,5.810880661E0,8.572985649E0
3.213615880E-1,-4.461116314E0,5.788308144E0,8.599034309E0
3.233615880E-1,-4.354468822E0,5.779804230E0,8.596476555E0
3.253615880E-1,-4.241883755E0,5.782466412E0,8.584266663E0
3.273615880E-1,-4.117959976E0,5.798536301E0,8.563139915E0
3.293615880E-1,-3.987993002E0,5.818082333E0,8.515122414E0
3.313615880E-1,-3.841716766E0,5.830465317E0,8.460803032E0
3.335428380E-1,-3.694368124E0,5.842101097E0,8.389885902E0
3.354131500E-1,-3.539741039E0,5.849513531E0,8.292154312E0
3.373615880E-1,-3.391425133E0,5.845290184E0,8.183458328E0
3.393615880E-1,-3.240015507E0,5.836259365E0,8.057340622E0
3.413615880E-1,-3.073838949E0,5.820534229E0,7.912061214E0
3.433615880E-1,-2.895107031E0,5.785071373E0,7.741382599E0
3.453615880E-1,-2.709728718E0,5.744302750E0,7.549243450E0
3.473615880E-1,-2.522607327E0,5.685127735E0,7.336676598E0
3.493615880E-1,-2.328428268E0,5.625416279E0,7.105406284E0
3.513615880E-1,-2.144476891E0,5.554490566E0,6.861331940E0
3.533615880E-1,-1.985540152E0,5.464334488E0,6.599320412E0
3.553615880E-1,-1.839896083E0,5.380039692E0,6.309440136E0
3.573615880E-1,-1.714171767E0,5.305972099E0,5.992639065E0
3.593615880E-1,-1.615051866E0,5.222702026E0,5.655238152E0
3.613615880E-1,-1.538130999E0,5.135735035E0,5.305809498E0
3.633615880E-1,-1.485152125E0,5.055960655E0,4.959157944E0
3.653615880E-1,-1.460817337E0,4.987198830E0,4.630472183E0
3.673615880E-1,-1.472606421E0,4.919864178E0,4.346510410E0
3.693615880E-1,-1.505684733E0,4.846438885E0,4.111878395E0
3.713615880E-1,-1.548569679E0,4.728146076E0,3.926481247E0
3.735428380E-1,-1.437536120E0,4.239709854E0,3.674534559E0
3.754131500E-1,-1.403164983E0,3.813570499E0,3.510790348E0
3.773615880E-1,-1.576486111E0,3.704050303E0,3.499451399E0
3.793615880E-1,-1.947252035E0,3.769900322E0,3.659403324E0
3.813615880E-1,-2.436684370E0,3.918446302E0,3.896237612E0
3.833615880E-1,-3.021645308E0,4.121062756E0,4.150808334E0
3.853615880E-1,-3.626708031E0,4.362724304E0,4.437815666E0
3.873615880E-1,-4.205683708E0,4.640728951E0,4.670876980E0
3.893615880E-1,-4.717362881E0,4.918226719E0,4.805220127E0
3.913615880E-1,-5.103077888E0,5.170690536E0,4.885272980E0
3.933615880E-1,-5.358539581E0,5.377013206E0,4.958688259E0
3.953615880E-1,-5.500592232E0,5.538947105E0,5.064761162E0
3.973615880E-1,-5.569756031E0,5.655487537E0,5.223755360E0
3.993615880E-1,-5.616806507E0,5.732092381E0,5.465962410E0
4.013615880E-1,-5.652422905E0,5.769882202E0,5.774556160E0
4.033615880E-1,-5.667678833E0,5.758389950E0,6.121657848E0
4.053615880E-1,-5.646332264E0,5.707479954E0,6.473844528E0
4.073615880E-1,-5.590556622E0,5.619708538E0,6.787446976E0
4.093615880E-1,-5.501272202E0,5.498054028E0,7.049908638E0
4.113615880E-1,-5.387183666E0,5.368911266E0,7.259353638E0
4.135428380E-1,-5.224387646E0,5.211228848E0,7.440441608E0
4.154162750E-1,-5.033674717E0,5.030323029E0,7.621797562E0
4.173615880E-1,-4.840989590E0,4.853295803E0,7.808966637E0
4.193615880E-1,-4.686037064E0,4.791841507E0,8.227482796E0
4.213615880E-1,-4.541302681E0,4.766644955E0,8.643030167E0
4.233615880E-1,-4.411633015E0,4.730568886E0,8.850061417E0
4.253615880E-1,-4.359697819E0,4.624869823E0,8.928562164E0
4.274444000E-1,-4.519410133E0,4.246097565E0,8.874329567E0
4.293615880E-1,-4.643496513E0,3.959214926E0,8.700222969E0
4.313615880E-1,-4.701148987E0,3.811980963E0,8.488326073E0
4.333615880E-1,-4.726412773E0,3.782800198E0,8.296953201E0
4.353615880E-1,-4.778989315E0,3.851437330E0,8.106719017E0
4.373631500E-1,-4.848938465E0,3.968437195E0,7.905022144E0
4.393615880E-1,-4.881643295E0,4.091058731E0,7.731575966E0
4.413615880E-1,-4.873866558E0,4.214570999E0,7.566769123E0
4.433615880E-1,-4.826691628E0,4.365405083E0,7.373786926E0
4.453615880E-1,-4.745231152E0,4.539339542E0,7.122376442E0
4.473631500E-1,-4.621306896E0,4.707652092E0,6.855183601E0
4.493631500E-1,-4.458434582E0,4.863044739E0,6.616242409E0
4.513615880E-1,-4.315855026E0,5.020937920E0,6.365138531E0
4.535428380E-1,-4.204926968E0,5.180037022E0,6.128898144E0
4.554162750E-1,-4.117193699E0,5.320902348E0,5.954006195E0
4.573631500E-1,-4.037418842E0,5.415215015E0,5.927277565E0
4.593615880E-1,-3.803601265E0,5.381303787E0,6.547825813E0
4.613615880E-1,-3.524858713E0,5.247534752E0,7.046030045E0
4.633615880E-1,-3.447248220E0,5.096738338E0,7.051249504E0
4.653615880E-1,-3.478047132E0,4.949379921E0,6.948451996E0
4.673631500E-1,-3.566814661E0,4.831019878E0,6.776682854E0
4.693615880E-1,-3.690997124E0,4.742157459E0,6.511031628E0
4.713615880E-1,-3.813235283E0,4.657421589E0,6.228438854E0
4.733615880E-1,-3.925504446E0,4.574744701E0,5.944515705E0
4.753615880E-1,-4.034201145E0,4.488726139E0,5.698611736E0
4.773631500E-1,-4.125190258E0,4.373947620E0,5.447431087E0
4.793615880E-1,-4.173007488E0,4.243923664E0,5.204582691E0
4.813615880E-1,-4.184997559E0,4.107319832E0,4.971320152E0
4.833615880E-1,-4.170478821E0,3.961791039E0,4.733470917E0
4.853615880E-1,-4.107597828E0,3.798707485E0,4.522905827E0
4.873631500E-1,-4.000576973E0,3.643199205E0,4.409190655E0
4.893615880E-1,-3.860343695E0,3.499671698E0,4.433036804E0
4.913615880E-1,-3.675444365E0,3.365577221E0,4.557314873E0
4.935428380E-1,-3.495927334E0,3.237190485E0,4.743363857E0
4.954162750E-1,-3.342803478E0,3.084018946E0,4.972718716E0
4.973631500E-1,-3.286281347E0,2.851982594E0,5.216142178E0
4.993615880E-1,-3.164186478E0,2.605705500E0,5.489923954E0
5.013615880E-1,-2.954530954E0,2.361343861E0,5.940090656E0
5.033615880E-1,-2.750631332E0,2.121042490E0,6.577906132E0
5.053615880E-1,-2.554019451E0,1.915074110E0,7.309612751E0
5.073631500E-1,-2.361228704E0,1.756855607E0,8.038627625E0
5.093615880E-1,-2.196162939E0,1.610885978E0,8.742657661E0
5.113615880E-1,-2.066636801E0,1.496960163E0,9.423146248E0
5.133615880E-1,-1.979669690E0,1.421054482E0,1.009052563E1
5.153615880E-1,-1.934553266E0,1.374137640E0,1.075319290E1
5.173631500E-1,-1.904491663E0,1.338119388E0,1.140867805E1
5.193615880E-1,-1.881315827E0,1.318898678E0,1.204929924E1
5.213615880E-1,-1.857086539E0,1.318534732E0,1.265902519E1
5.233615880E-1,-1.831909060E0,1.326043010E0,1.324119949E1
5.253615880E-1,-1.789321065E0,1.317395091E0,1.380546474E1
5.273631500E-1,-1.715914845E0,1.301440239E0,1.436037445E1
5.293615880E-1,-1.613337636E0,1.264148116E0,1.489343834E1
5.313615880E-1,-1.444000483E0,1.208363175E0,1.542868519E1
5.335428380E-1,-1.218313456E0,1.129996181E0,1.585474777E1
5.354162750E-1,-9.562537074E-1,1.024411917E0,1.607452583E1
5.373631500E-1,-6.807098389E-1,8.993100524E-1,1.609449387E1
5.393615880E-1,-4.066695273E-1,7.503141165E-1,1.597407532E1
5.413615880E-1,-3.658531904E-1,5.996230245E-1,1.562236691E1
5.433615880E-1,-7.631565332E-1,4.716385901E-1,1.482547188E1
5.453615880E-1,-1.445666909E0,3.152301610E-1,1.354129887E1
5.473631500E-1,-1.937464595E0,8.377791196E-2,1.213349819E1
5.493615880E-1,-1.998421073E0,-3.025983572E-1,1.099005699E1
5.513615880E-1,-1.456948400E0,-8.520101905E-1,1.018459892E1
5.533615880E-1,-2.128157914E-1,-1.555579782E0,9.680312157E0
5.553615880E-1,7.729536891E-1,-2.097933531E0,9.131772041E0
5.573631500E-1,1.235484719E0,-2.388848066E0,8.553831100E0
5.593615880E-1,1.380352974E0,-2.503549576E0,8.057695389E0
5.613615880E-1,1.374702811E0,-2.529838085E0,7.686642170E0
5.633615880E-1,1.283081412E0,-2.525078297E0,7.493314743E0
5.653615880E-1,1.187083483E0,-2.538026094E0,7.454691887E0
5.673631500E-1,1.118705034E0,-2.583238363E0,7.500555038E0
5.693615880E-1,1.101668000E0,-2.651511192E0,7.555756092E0
5.713615880E-1,1.108630300E0,-2.749223471E0,7.619087219E0
5.735428380E-1,1.163036108E0,-2.930454969E0,7.825562954E0
5.754162750E-1,1.304418564E0,-3.252398491E0,8.357928276E0
5.773631500E-1,1.389422297E0,-3.531313419E0,9.217063904E0
5.793631500E-1,1.488982797E0,-3.891698360E0,1.043872833E1
5.813615880E-1,1.504573822E0,-4.119750977E0,1.169584751E1
5.833615880E-1,1.417606831E0,-4.118763924E0,1.269997597E1
5.853615880E-1,1.206888318E0,-3.827141047E0,1.329686928E1
5.873631500E-1,8.616636395E-1,-3.243645191E0,1.338817501E1
5.893615880E-1,3.116197288E-1,-2.507907152E0,1.287894726E1
5.913615880E-1,-3.456365466E-1,-1.768328667E0,1.178929806E1
5.933615880E-1,-9.181572199E-1,-1.028031826E0,1.035779476E1
5.953615880E-1,-1.322317600E0,-3.643209040E-1,8.822154045E0
5.973631500E-1,-1.528669119E0,1.681783050E-1,7.368385792E0
5.993615880E-1,-1.535976171E0,5.628384948E-1,6.130353451E0
6.013615880E-1,-1.368286252E0,8.184338808E-1,5.201709270E0
6.033615880E-1,-1.040242314E0,9.394463897E-1,4.565732956E0
6.053631500E-1,-5.535873175E-1,8.974999785E-1,4.132937908E0
6.073631500E-1,1.082179137E-3,8.454405069E-1,4.089267731E0
6.093615880E-1,5.376898050E-1,8.977298737E-1,4.558722496E0
6.113615880E-1,9.242672324E-1,1.113773108E0,5.541274548E0
6.135428380E-1,1.085579038E0,1.507944822E0,6.969291687E0
6.154162750E-1,1.057949781E0,2.021807671E0,8.626338005E0
6.173631500E-1,9.707625508E-1,2.525662661E0,1.020463371E1
6.193615880E-1,9.424631596E-1,2.921280622E0,1.152659702E1
6.213615880E-1,1.027601004E0,3.180649281E0,1.259285927E1
6.233615880E-1,1.227085829E0,3.316773891E0,1.345180321E1
6.253615880E-1,1.494307518E0,3.345264912E0,1.413484001E1
6.273631500E-1,1.819344282E0,3.300675392E0,1.465117359E1
6.293615880E-1,2.110115290E0,3.235734940E0,1.505934715E1
6.313615880E-1,2.282344580E0,3.181635380E0,1.531862926E1
6.335444000E-1,2.361449003E0,3.157655239E0,1.531356335E1
6.355850250E-1,2.326397896E0,3.168898344E0,1.500659752E1
6.373725250E-1,2.202780485E0,3.220775843E0,1.436906052E1
6.393615880E-1,1.937665820E0,3.337172270E0,1.344270515E1
6.413615880E-1,1.513001323E0,3.527137995E0,1.233505154E1
6.433615880E-1,8.951920271E-1,3.815265894E0,1.119585228E1
6.453615880E-1,7.724652439E-2,4.207321167E0,1.016577053E1
6.473631500E-1,-9.165291190E-1,4.677542686E0,9.366117477E0
6.493615880E-1,-1.953965425E0,5.135945797E0,8.834135056E0
6.513615880E-1,-2.894149303E0,5.514057159E0,8.554157257E0
6.535428380E-1,-3.643496037E0,5.756560802E0,8.461654663E0
6.554162750E-1,-4.129011631E0,5.806063652E0,8.460237503E0
6.573631500E-1,-4.284136772E0,5.658791542E0,8.468808174E0
6.593615880E-1,-4.103202343E0,5.311699390E0,8.452968597E0
6.613631500E-1,-3.607592821E0,4.797491550E0,8.407382965E0
6.633615880E-1,-2.868263245E0,4.198615551E0,8.373662949E0
6.653615880E-1,-2.004780054E0,3.583880663E0,8.381736755E0
6.673631500E-1,-1.139400601E0,3.017996550E0,8.462612152E0
6.693615880E-1,-3.433381021E-1,2.544279814E0,8.594254494E0
6.713615880E-1,3.286568522E-1,2.180370808E0,8.753832817E0
6.733615880E-1,8.697177172E-1,1.931823850E0,8.905185699E0
6.753615880E-1,1.253326297E0,1.795268178E0,8.744707108E0
6.773631500E-1,1.501585841E0,1.787156582E0,8.038053513E0
6.793615880E-1,1.674878120E0,1.933222055E0,6.963851452E0
6.813615880E-1,1.724735022E0,2.157826900E0,6.063440323E0
6.833615880E-1,1.612590551E0,2.388398170E0,5.799953461E0
6.853615880E-1,1.377949238E0,2.622541428E0,6.002780914E0
6.873631500E-1,1.052768826E0,2.870255232E0,6.297257900E0
6.893631500E-1,6.834967136E-1,3.115019321E0,6.504002094E0
6.913615880E-1,3.536235988E-1,3.334701777E0,6.573194504E0
6.935412750E-1,9.902418405E-2,3.495955706E0,6.531449318E0
6.954162750E-1,-3.455311805E-2,3.592308044E0,6.452488422E0
6.973631500E-1,-2.054224908E-2,3.657162428E0,6.390631676E0
6.993615880E-1,1.660809815E-1,3.705046415E0,6.377789497E0
7.013615880E-1,4.974193275E-1,3.723232746E0,6.424485683E0
7.033615880E-1,9.622296691E-1,3.710658312E0,6.529007435E0
7.053615880E-1,1.510827541E0,3.682866573E0,6.666271687E0
7.073631500E-1,2.108544588E0,3.666480541E0,6.822641373E0
7.093615880E-1,2.707669735E0,3.669554710E0,6.976531029E0
7.113615880E-1,3.278083563E0,3.683795452E0,7.122625351E0
7.133615880E-1,3.814279318E0,3.687271833E0,7.296559334E0
7.153615880E-1,4.308068752E0,3.652115345E0,7.532148838E0
7.173631500E-1,4.765217781E0,3.570817947E0,7.840981960E0
7.193615880E-1,5.206335545E0,3.429291725E0,8.222474098E0
7.213615880E-1,5.614402771E0,3.224845886E0,8.648278236E0
7.233615880E-1,5.944467545E0,2.975111485E0,9.129666328E0
7.253615880E-1,6.202284813E0,2.722619057E0,9.617603302E0
7.273631500E-1,6.378364086E0,2.474072218E0,1.008474159E1
7.293615880E-1,6.481956482E0,2.249553680E0,1.049359512E1
7.313615880E-1,6.486850262E0,2.077056170E0,1.083182812E1
7.335444000E-1,6.410178185E0,1.942837119E0,1.111893177E1
7.357115880E-1,6.257188320E0,1.862420797E0,1.136436558E1
7.379428380E-1,6.023954868E0,1.834686279E0,1.157618523E1
7.397787750E-1,5.748612404E0,1.856444836E0,1.180883503E1
7.414803380E-1,5.440325260E0,1.915897727E0,1.209434891E1
7.433615880E-1,5.051392078E0,2.009012938E0,1.229094982E1
7.453615880E-1,4.596378803E0,2.127018213E0,1.238437176E1
7.473615880E-1,4.127374172E0,2.246661425E0,1.239620876E1
7.493615880E-1,3.674486637E0,2.335122347E0,1.233094311E1
7.513631500E-1,3.270307064E0,2.393741846E0,1.220190525E1
7.533615880E-1,2.946687698E0,2.402073622E0,1.200073528E1
7.553615880E-1,2.708904982E0,2.359782696E0,1.171028900E1
7.573615880E-1,2.541129112E0,2.280209064E0,1.134520245E1
7.593615880E-1,2.413144588E0,2.172460318E0,1.092500114E1
7.613631500E-1,2.293779373E0,2.063983917E0,1.045610142E1
7.633615880E-1,2.160556316E0,1.963350654E0,9.959083557E0
7.653615880E-1,2.010143042E0,1.870953679E0,9.477169991E0
7.673615880E-1,1.851321340E0,1.786419153E0,9.040448189E0
7.693615880E-1,1.681878805E0,1.729915977E0,8.656417847E0
7.713631500E-1,1.505579352E0,1.689243436E0,8.315915108E0
7.735428380E-1,1.332842588E0,1.673355460E0,8.006612778E0
7.754162750E-1,1.183568835E0,1.665569425E0,7.738031387E0
7.773615880E-1,1.063858747E0,1.651491523E0,7.511271477E0
7.793615880E-1,9.874262810E-1,1.634847164E0,7.329436302E0
7.813631500E-1,9.648920298E-1,1.609267473E0,7.193743229E0
7.833615880E-1,1.006934166E0,1.568135142E0,7.082364559E0
7.853615880E-1,1.112805843E0,1.508050203E0,7.017299652E0
7.873615880E-1,1.294238448E0,1.426589847E0,6.989469528E0
7.893615880E-1,1.578190684E0,1.315958619E0,6.973103046E0
7.913631500E-1,1.946409464E0,1.179661512E0,6.987985134E0
7.933615880E-1,2.411641121E0,1.026317596E0,7.038512707E0
7.953615880E-1,2.968053579E0,8.583692312E-1,7.094871998E0
7.973615880E-1,3.596042871E0,6.818974018E-1,7.170835018E0
7.993615880E-1,4.256392479E0,5.326811671E-1,7.215932846E0
8.013631500E-1,4.915037632E0,4.251623154E-1,7.185717583E0
8.033615880E-1,5.521527290E0,3.727197647E-1,7.124176979E0
8.053615880E-1,6.066093445E0,3.849684894E-1,7.036012650E0
8.072084630E-1,6.524008274E0,4.533181489E-1,6.919051170E0
8.093647130E-1,6.719107151E0,5.023226738E-1,6.843883038E0
8.113615880E-1,7.046556950E0,6.367235780E-1,6.677591324E0
8.135428380E-1,7.276869774E0,8.024023175E-1,6.458924294E0
8.155631500E-1,7.426287174E0,9.706093669E-1,6.205761433E0
8.172084630E-1,7.583835125E0,1.189621329E0,5.818379402E0
8.193615880E-1,7.626652718E0,1.251908898E0,5.685788631E0
8.213615880E-1,7.696209431E0,1.354840398E0,5.403042793E0
8.233615880E-1,7.756505013E0,1.419273138E0,5.084020615E0
8.253615880E-1,7.826204777E0,1.441462636E0,4.753725529E0
8.273615880E-1,7.890666485E0,1.418554902E0,4.432462215E0
8.293615880E-1,7.959935665E0,1.369243860E0,4.104820251E0
8.313615880E-1,8.011028290E0,1.284795642E0,3.811090231E0
8.333615880E-1,8.041864395E0,1.165047288E0,3.563031673E0
8.353615880E-1,8.046481133E0,1.031335950E0,3.370250702E0
8.373615880E-1,8.013852119E0,9.059084654E-1,3.249707460E0
8.393615880E-1,7.959217072E0,7.875966430E-1,3.218084812E0
8.413615880E-1,7.899936676E0,6.935906410E-1,3.258355141E0
8.433615880E-1,7.820497036E0,6.141797304E-1,3.351796150E0
8.453615880E-1,7.711168289E0,5.565273762E-1,3.467771292E0
8.473615880E-1,7.582082748E0,5.240332484E-1,3.622934818E0
8.493631500E-1,7.428527832E0,5.313595533E-1,3.803783178E0
8.513615880E-1,7.231006145E0,5.584139824E-1,4.024040222E0
8.535428380E-1,6.984882355E0,6.171581149E-1,4.284816265E0
8.554162750E-1,6.685099602E0,7.092487216E-1,4.524581432E0
8.573615880E-1,6.339807510E0,8.064341545E-1,4.718885422E0
8.593615880E-1,5.957386494E0,9.192298055E-1,4.858314037E0
8.613615880E-1,5.566001892E0,1.047137618E0,4.894590855E0
8.633615880E-1,5.157464981E0,1.179527521E0,4.822994709E0
8.653615880E-1,4.732532024E0,1.324041367E0,4.672552586E0
8.673615880E-1,4.311622143E0,1.497142196E0,4.455197811E0
8.693615880E-1,3.876451969E0,1.694692612E0,4.199803352E0
8.713631500E-1,3.462992430E0,1.915169835E0,3.906800747E0
8.733615880E-1,3.082994461E0,2.138108492E0,3.575175285E0
8.753615880E-1,2.757689476E0,2.332364321E0,3.192830801E0
8.773615880E-1,2.516267538E0,2.510617495E0,2.754078865E0
8.793615880E-1,2.348462820E0,2.687682867E0,2.263439894E0
8.813615880E-1,2.268870115E0,2.857269049E0,1.740843296E0
8.833615880E-1,2.299946785E0,3.000365734E0,1.169950604E0
8.853615880E-1,2.504229784E0,3.083463669E0,5.356308222E-1
8.873615880E-1,2.911176920E0,3.092159510E0,-1.533150971E-1
8.893615880E-1,3.540152788E0,3.029574871E0,-9.047209620E-1
8.913615880E-1,4.408769131E0,2.895298481E0,-1.736504912E0
8.935428380E-1,5.523767948E0,2.699644327E0,-2.598331213E0
8.954162750E-1,6.840330124E0,2.494403839E0,-3.451509953E0
8.973615880E-1,8.275969505E0,2.315145254E0,-4.218995094E0
8.993615880E-1,9.747609138E0,2.208334923E0,-4.834343433E0
9.013615880E-1,1.119629288E1,2.183626890E0,-5.253931999E0
9.033615880E-1,1.256159115E1,2.253690720E0,-5.408789158E0
9.053615880E-1,1.377249241E1,2.402112007E0,-5.268546581E0
9.073615880E-1,1.478257751E1,2.594031334E0,-4.831527710E0
9.093615880E-1,1.554419136E1,2.813761711E0,-4.128053665E0
9.113615880E-1,1.601671982E1,3.036412954E0,-3.185274601E0
9.133615880E-1,1.619617081E1,3.232430935E0,-2.037465811E0
9.153615880E-1,1.609504890E1,3.389691591E0,-7.542310357E-1
9.173615880E-1,1.576915169E1,3.498522520E0,5.619957447E-1
9.193615880E-1,1.524906349E1,3.552640915E0,1.823012233E0
9.213615880E-1,1.460601902E1,3.550045729E0,2.958390713E0
9.233615880E-1,1.389978695E1,3.499863386E0,3.901744366E0
9.253615880E-1,1.315520859E1,3.408443213E0,4.578862667E0
9.273615880E-1,1.239155483E1,3.269435644E0,4.911647320E0
9.293615880E-1,1.150902367E1,3.017450571E0,4.691160679E0
9.313615880E-1,1.062076473E1,2.744310617E0,4.133149147E0
9.335428380E-1,9.823965073E0,2.522224426E0,3.705812454E0
9.354178380E-1,9.085028648E0,2.323888779E0,3.334184408E0
9.373615880E-1,8.395536423E0,2.152329922E0,2.975054264E0
9.393615880E-1,7.785991669E0,2.015774250E0,2.614037275E0
9.413615880E-1,7.276237488E0,1.926690698E0,2.275621653E0
9.433615880E-1,6.872833729E0,1.872198701E0,1.969058514E0
9.453631500E-1,6.556090355E0,1.851292491E0,1.657592058E0
9.473615880E-1,6.335833549E0,1.858293176E0,1.324702263E0
9.493615880E-1,6.197984695E0,1.885146499E0,1.009443283E0
9.513615880E-1,6.120383739E0,1.923932672E0,7.375003099E-1
9.533615880E-1,6.093952179E0,1.971931577E0,5.272319317E-1
9.553631500E-1,6.097523689E0,2.008419275E0,3.814442158E-1
9.573615880E-1,6.145906448E0,2.038614750E0,3.272778094E-1
9.593615880E-1,6.235870838E0,2.065908670E0,2.978865802E-1
9.613615880E-1,6.382951260E0,2.080446243E0,2.986527085E-1
9.633615880E-1,6.579400539E0,2.089592218E0,3.172125816E-1
9.653631500E-1,6.830552101E0,2.098757267E0,3.730740845E-1
9.673615880E-1,7.123889446E0,2.112260580E0,4.830541313E-1
9.693615880E-1,7.432655811E0,2.130897045E0,6.689303517E-1
9.713615880E-1,7.735665321E0,2.155183792E0,9.046251774E-1
9.735428380E-1,8.007915497E0,2.196756601E0,1.183492184E0
9.754178380E-1,8.226592064E0,2.253393888E0,1.492104888E0
9.773615880E-1,8.395277977E0,2.339106560E0,1.832818866E0
9.793615880E-1,8.522524834E0,2.443215847E0,2.177114725E0
9.813615880E-1,8.625302315E0,2.547727585E0,2.505216122E0
9.835444000E-1,8.710613251E0,2.667839766E0,2.802345991E0
9.855865880E-1,8.795962334E0,2.791131496E0,3.039132595E0
9.873694000E-1,8.913364410E0,2.904070854E0,3.167116880E0
9.893615880E-1,9.071591377E0,2.997023344E0,3.199793100E0
9.913615880E-1,9.278853416E0,3.079479694E0,3.138032198E0
9.933615880E-1,9.524930000E0,3.126521111E0,3.019634247E0
9.953615880E-1,9.792255402E0,3.159024715E0,2.893325567E0
9.973631500E-1,1.008476067E1,3.162759542E0,2.816634655E0
9.993615880E-1,1.046496964E1,3.171081781E0,2.827274323E0
1.001361588E0,1.093765259E1,3.179662704E0,2.911406755E0
1.003361588E0,1.144612312E1,3.209015608E0,3.006945133E0
1.005361588E0,1.190987968E1,3.271925449E0,3.064606905E0
1.007363150E0,1.229305744E1,3.380842447E0,3.061877489E0
1.009361588E0,1.259205437E1,3.522378206E0,2.989064932E0
1.011361588E0,1.279537964E1,3.677321434E0,2.877035618E0
1.013542838E0,1.289397335E1,3.840739965E0,2.772044897E0
1.015416275E0,1.288214588E1,4.004647255E0,2.671680212E0
1.017363150E0,1.273282433E1,4.177498817E0,2.580029964E0
1.019361588E0,1.243211269E1,4.346682549E0,2.492182016E0
1.021361588E0,1.199024773E1,4.506682396E0,2.410434246E0
1.023361588E0,1.147142506E1,4.657814026E0,2.370882034E0
1.025361588E0,1.092367935E1,4.792099953E0,2.379079819E0
1.027363150E0,1.040080452E1,4.901457310E0,2.448626757E0
1.029361588E0,9.940208435E0,5.004188061E0,2.562964201E0
1.031361588E0,9.562527657E0,5.104236603E0,2.693840742E0
1.033361588E0,9.240057945E0,5.194402218E0,2.826479435E0
1.035361588E0,8.976484299E0,5.296098709E0,2.934429407E0
1.037363150E0,8.773303032E0,5.407639503E0,2.981824875E0
1.039361588E0,8.621548653E0,5.527186871E0,2.959386587E0
1.041361588E0,8.496361732E0,5.669909954E0,2.872180223E0
1.043361588E0,8.396665573E0,5.815037251E0,2.711270571E0
1.045361588E0,8.308358192E0,5.938912868E0,2.472999811E0
1.047363150E0,8.246569633E0,6.059092522E0,2.175256729E0
1.049361588E0,8.199624062E0,6.170997620E0,1.838603258E0
1.051361588E0,8.155072212E0,6.266842365E0,1.474550486E0
1.053542838E0,8.119667053E0,6.342106342E0,1.093949080E0
1.055416275E0,8.102754593E0,6.402986050E0,7.262762785E-1
1.057363150E0,8.097620964E0,6.446521759E0,3.784945607E-1
1.059361588E0,8.100207329E0,6.467964649E0,6.304412335E-2
1.061361588E0,8.097247124E0,6.468012810E0,-1.879831403E-1
1.063361588E0,8.055502892E0,6.458550930E0,-3.511048853E-1
1.065361588E0,7.993808746E0,6.451683998E0,-4.262540936E-1
1.067363150E0,7.878992081E0,6.449663639E0,-4.077996016E-1
1.069361588E0,7.713150501E0,6.474735260E0,-3.341922462E-1
1.071361588E0,7.542329311E0,6.528710365E0,-2.608434856E-1
1.073363150E0,7.409019947E0,6.610381126E0,-2.300827801E-1
1.075361588E0,7.342317581E0,6.722860813E0,-2.603263259E-1
1.077363150E0,7.337136269E0,6.848872662E0,-3.587376177E-1
1.079361588E0,7.388084888E0,6.992936611E0,-4.994879365E-1
1.081361588E0,7.465618610E0,7.149115086E0,-6.692847013E-1
1.083361588E0,7.567181110E0,7.318183899E0,-8.401349783E-1
1.085361588E0,7.699647427E0,7.499693394E0,-9.854821563E-1
1.087363150E0,7.856429100E0,7.698488712E0,-1.070572019E0
1.089361588E0,8.030488014E0,7.906305313E0,-1.076643825E0
1.091361588E0,8.200160027E0,8.125490189E0,-1.013953924E0
1.093542838E0,8.371172905E0,8.337175369E0,-8.960443735E-1
1.095416275E0,8.523185730E0,8.535902977E0,-7.152820826E-1
1.097363150E0,8.669039726E0,8.730351448E0,-4.913955331E-1
1.099361588E0,8.806371689E0,8.916197777E0,-2.732837498E-1
1.101361588E0,8.913756371E0,9.122118950E0,-7.388506085E-2
1.103361588E0,8.981617928E0,9.369335175E0,1.222958192E-1
1.105361588E0,8.986137390E0,9.660517693E0,3.187161386E-1
1.107363150E0,8.895790100E0,1.000436306E1,5.299038887E-1
1.109361588E0,8.693241119E0,1.040340996E1,7.804522514E-1
1.111361588E0,8.391657829E0,1.083736324E1,1.054272294E0
1.113361588E0,8.014341354E0,1.128116226E1,1.341911793E0
1.115361588E0,7.582858562E0,1.169817448E1,1.602822304E0
1.117363150E0,7.121371269E0,1.206885433E1,1.812554359E0
1.119361588E0,6.662469864E0,1.237525463E1,1.958389878E0
1.121361588E0,6.250580788E0,1.259597206E1,2.045385599E0
1.123361588E0,5.895328999E0,1.271641922E1,2.081911564E0
1.125361588E0,5.582904816E0,1.273721123E1,2.080350637E0
1.127363150E0,5.330316544E0,1.267473125E1,2.043422461E0
1.129361588E0,5.138780117E0,1.253385639E1,1.978922606E0
1.131361588E0,4.990339756E0,1.231892395E1,1.883422732E0
1.133542838E0,4.853985310E0,1.204298687E1,1.764469266E0
1.135416275E0,4.746322632E0,1.171599674E1,1.621439576E0
1.137363150E0,4.663186550E0,1.134725189E1,1.469963312E0
1.139361588E0,4.630453110E0,1.094089890E1,1.339938998E0
1.141361588E0,4.646475315E0,1.049532795E1,1.232075334E0
1.143361588E0,4.708666801E0,1.003202152E1,1.168313026E0
1.145361588E0,4.813666821E0,9.554445267E0,1.154091477E0
1.147363150E0,5.000855446E0,9.063470840E0,1.188376307E0
1.149361588E0,5.271792412E0,8.551427841E0,1.255988598E0
1.151361588E0,5.627906322E0,8.017195702E0,1.336912632E0
1.153361588E0,6.077671528E0,7.448457241E0,1.409859180E0
1.155361588E0,6.623865128E0,6.851745605E0,1.464140534E0
1.157363150E0,7.243686199E0,6.237441540E0,1.522290945E0
1.159361588E0,7.915987492E0,5.627561569E0,1.576821327E0
1.161361588E0,8.615391731E0,5.025457859E0,1.625797033E0
1.163361588E0,9.314517975E0,4.440046787E0,1.659689307E0
1.165361588E0,9.976505280E0,3.897463322E0,1.686360717E0
1.167363150E0,1.057549477E1,3.400120735E0,1.711863756E0
1.169361588E0,1.110941219E1,2.958275557E0,1.721565008E0
1.171361588E0,1.153066730E1,2.591330767E0,1.702957392E0
1.173542838E0,1.183176136E1,2.298491240E0,1.659392476E0
1.175416275E0,1.199852276E1,2.072363615E0,1.578918576E0
1.177363150E0,1.202331734E1,1.914231300E0,1.492985845E0
1.179361588E0,1.196548271E1,1.827532530E0,1.427786946E0
1.181361588E0,1.180596161E1,1.807880878E0,1.365968585E0
1.183361588E0,1.148202610E1,1.856521487E0,1.250453234E0
1.185361588E0,1.100284100E1,1.952988625E0,1.097875595E0
1.187363150E0,1.060449409E1,2.140196085E0,1.253939152E0
1.189361588E0,1.031556129E1,2.403615713E0,1.573230028E0
1.191361588E0,1.014576435E1,2.711280346E0,1.873912930E0
1.193361588E0,1.009324646E1,3.037543058E0,2.023042917E0
1.195361588E0,1.010737133E1,3.378055811E0,1.944790840E0
1.197363150E0,1.012668705E1,3.736573219E0,1.695918441E0
1.199361588E0,1.010663414E1,4.104169369E0,1.320239425E0
1.201361588E0,9.979348183E0,4.488898277E0,9.055062532E-1
1.203361588E0,9.750223160E0,4.894054890E0,5.295974016E-1
1.205361588E0,9.437991142E0,5.302525043E0,2.539960742E-1
1.207363150E0,9.045705795E0,5.698266983E0,9.821014851E-2
1.209361588E0,8.627457619E0,6.063737392E0,6.435614079E-2
1.211361588E0,8.224542618E0,6.387366295E0,1.356937736E-1
1.213542838E0,7.857377529E0,6.654549122E0,2.861645520E-1
1.215416275E0,7.558485508E0,6.864176273E0,4.993059635E-1
1.217363150E0,7.351521015E0,7.020967960E0,7.564049363E-1
1.219361588E0,7.208414555E0,7.133007050E0,1.035808206E0
1.221361588E0,7.115261078E0,7.221764565E0,1.325123668E0
1.223361588E0,7.045302391E0,7.284511566E0,1.616134048E0
1.225361588E0,6.963737011E0,7.327100277E0,1.859222174E0
1.227363150E0,6.858641148E0,7.366690636E0,2.043786287E0
1.229361588E0,6.723033428E0,7.407315254E0,2.155854225E0
1.231361588E0,6.568923473E0,7.453657150E0,2.188338518E0
1.233513150E0,6.407544613E0,7.487655163E0,2.161370277E0
1.235763150E0,6.241319656E0,7.498438358E0,2.096564293E0
1.237628775E0,6.084212303E0,7.483422279E0,2.015410185E0
1.239375650E0,5.923350811E0,7.431649685E0,1.948468328E0
1.241361588E0,5.761703491E0,7.348513603E0,1.922151327E0
1.243361588E0,5.654730797E0,7.338496685E0,2.054646492E0
1.245361588E0,5.721280098E0,7.932440281E0,3.509296417E0
1.247361588E0,5.969530106E0,9.582657814E0,7.992802620E0
1.249363150E0,6.078753471E0,1.112904358E1,9.782401085E0
1.251361588E0,5.860354424E0,1.211199760E1,8.164754868E0
1.253542838E0,5.390698433E0,1.217945671E1,6.009302616E0
1.255416275E0,4.890855789E0,1.137616444E1,4.395083904E0
1.257361588E0,4.502937794E0,9.956383705E0,3.195837975E0
1.259363150E0,4.247371197E0,8.193466187E0,1.953065276E0
1.261361588E0,4.221437454E0,6.546561718E0,1.013886929E0
1.263361588E0,4.445487022E0,5.187966824E0,5.627235770E-1
1.265361588E0,4.852874279E0,4.097475052E0,5.115738511E-1
1.267361588E0,5.380910873E0,3.254352331E0,6.099276543E-1
1.269363150E0,5.965229988E0,2.628785610E0,7.094881535E-1
1.271361588E0,6.505055428E0,2.227048159E0,6.808247566E-1
1.273361588E0,7.000320435E0,2.089879513E0,4.989229143E-1
1.275361588E0,7.396666050E0,2.257904530E0,1.878969371E-1
1.277361588E0,7.672611713E0,2.720301628E0,-1.441596746E-1
1.279363150E0,7.715429783E0,3.729696989E0,-3.068217337E-1
1.281361588E0,7.344041348E0,5.777534008E0,-1.809920669E-1
1.283361588E0,6.985811710E0,8.184539795E0,-4.339825809E-1
1.285361588E0,6.906687737E0,1.004557228E1,-1.255279899E0
1.287361588E0,6.941681385E0,1.122218895E1,-2.232047081E0
1.289363150E0,6.999726772E0,1.179358864E1,-3.048354864E0
1.291361588E0,7.021619320E0,1.189435577E1,-3.420931101E0
1.293542838E0,7.014493465E0,1.167099571E1,-3.237085104E0
1.295416275E0,6.992438316E0,1.125357151E1,-2.492976904E0
1.297361588E0,6.997628689E0,1.073143482E1,-1.324347854E0
1.299363150E0,7.041280270E0,1.017450523E1,1.305989027E-1
1.301361588E0,7.170289516E0,9.680762291E0,1.848831296E0
1.303361588E0,7.442873955E0,9.478759766E0,4.611385822E0
1.305361588E0,7.874309063E0,9.969762802E0,1.039111328E1
1.307361588E0,8.438335419E0,1.064702415E1,1.460772324E1
1.309363150E0,8.671424866E0,1.080026245E1,1.283228874E1
1.311363150E0,8.534073830E0,1.066160011E1,8.428920746E0
1.313424088E0,8.367495537E0,1.043937111E1,4.165106297E0
1.315361588E0,8.367677689E0,1.016761875E1,1.139735699E0
1.317361588E0,8.506780624E0,9.863526344E0,-3.719631732E-1
1.319363150E0,8.702223778E0,9.557106972E0,-5.893950462E-1
1.321361588E0,8.937449455E0,9.239836693E0,2.059013397E-2
1.323361588E0,9.175970078E0,8.897398949E0,9.694218636E-1
1.325361588E0,9.425425529E0,8.560296059E0,1.894550920E0
1.327361588E0,9.682017326E0,8.232692719E0,2.528142929E0
1.329363150E0,9.926694870E0,7.903930187E0,2.740163803E0
1.331361588E0,1.013988495E1,7.624699116E0,2.556432962E0
1.333544400E0,1.028465748E1,7.444176197E0,2.109780073E0
1.335585025E0,1.033534813E1,7.370377541E0,1.592977285E0
1.337563150E0,1.026809883E1,7.400247574E0,1.157567739E0
1.339366275E0,1.006660271E1,7.503964424E0,9.083505273E-1
1.341361588E0,9.780208588E0,7.631900787E0,8.256739378E-1
1.343361588E0,9.452557564E0,7.740664482E0,8.872145414E-1
1.345361588E0,9.112101555E0,7.766417027E0,1.045365930E0
1.347361588E0,8.781749725E0,7.688231945E0,1.242992878E0
1.349363150E0,8.469077110E0,7.494541168E0,1.406813741E0
1.351361588E0,8.191061974E0,7.214591980E0,1.534137487E0
1.353361588E0,7.908143997E0,6.858726978E0,1.601222873E0
1.355361588E0,7.578864574E0,6.429322243E0,1.622818589E0
1.357361588E0,7.185516834E0,5.970468521E0,1.628277421E0
1.359363150E0,6.709481716E0,5.485365391E0,1.573565245E0
1.361361588E0,6.172816753E0,5.008267403E0,1.455597997E0
1.363361588E0,5.619143486E0,4.547307014E0,1.275582790E0
1.365361588E0,5.118879795E0,4.112414837E0,1.076519251E0
1.367361588E0,4.684322834E0,3.666528225E0,8.698613644E-1
1.369363150E0,4.367358685E0,3.220086336E0,7.281150222E-1
1.371361588E0,4.206956863E0,2.788574696E0,6.996049285E-1
1.373542838E0,4.166840076E0,2.412627459E0,8.098243475E-1
1.375416275E0,4.175430298E0,2.101084471E0,1.004664540E0
1.377361588E0,4.164340496E0,1.887627006E0,1.296833754E0
1.379363150E0,4.144477844E0,1.785346627E0,1.655102015E0
1.381361588E0,4.117471695E0,1.803283930E0,2.017708778E0
1.383361588E0,4.082506657E0,1.907766938E0,2.364724398E0
1.385361588E0,4.064425468E0,2.057816505E0,2.712802887E0
1.387361588E0,4.114655972E0,2.281434774E0,3.033089638E0
1.389363150E0,4.253318310E0,2.579828739E0,3.241911888E0
1.391208463E0,4.493256092E0,2.944379568E0,3.383878469E0
1.393361588E0,4.672361374E0,3.139143229E0,3.460751534E0
1.395361588E0,5.168430328E0,3.564458847E0,3.585365057E0
1.397361588E0,5.827247620E0,4.058411598E0,3.668213844E0
1.399361588E0,6.577666759E0,4.585173607E0,3.747298956E0
1.401361588E0,7.326467991E0,5.083761692E0,3.770331383E0
1.403430338E0,8.028658867E0,5.499404907E0,3.628594637E0
1.405361588E0,8.689850807E0,5.923264503E0,3.557554007E0
1.407361588E0,9.289943695E0,6.323124886E0,3.612448215E0
1.409361588E0,9.788119316E0,6.604051113E0,3.759959698E0
1.411361588E0,1.012521267E1,6.757940769E0,3.887695074E0
1.413542838E0,1.028097916E1,6.842140198E0,3.987705708E0
1.415561588E0,1.029939651E1,6.815909386E0,4.097963333E0
1.417208463E0,1.020601273E1,6.486332893E0,3.996171713E0
1.419361588E0,1.019547844E1,6.279684544E0,3.837445498E0
1.421361588E0,1.021318531E1,5.888998508E0,3.426504850E0
1.423367838E0,1.035129261E1,5.705440044E0,3.121291876E0
1.425361588E0,1.068085003E1,5.706378460E0,3.105902195E0
1.427391275E0,1.116291809E1,5.705871105E0,2.863044024E0
1.429363150E0,1.163238144E1,5.847157478E0,2.422683001E0
1.431361588E0,1.192774963E1,5.915775299E0,2.523843050E0
1.433363150E0,1.225047016E1,5.975065231E0,2.271647215E0
1.435361588E0,1.266769218E1,6.205665588E0,1.691953659E0
1.437361588E0,1.307229328E1,6.301462173E0,1.519571066E0
1.439361588E0,1.358027649E1,6.417504311E0,1.347638726E0
1.441361588E0,1.416665459E1,6.779076576E0,9.621530771E-1
1.443363150E0,1.472689724E1,7.201960087E0,7.820994854E-1
1.445361588E0,1.522248745E1,7.569613457E0,9.361137152E-1
1.447361588E0,1.563246059E1,7.910959244E0,1.218007088E0
1.449361588E0,1.588253021E1,8.215185165E0,1.547324657E0
1.451361588E0,1.591062927E1,8.516443253E0,1.890461683E0
1.453542838E0,1.567070103E1,8.821062088E0,2.181979656E0
1.455413150E0,1.513491726E1,9.115204811E0,2.425326347E0
1.457361588E0,1.429334545E1,9.303139687E0,2.835931778E0
1.459361588E0,1.318706131E1,9.228890419E0,3.803543806E0
1.461361588E0,1.196380711E1,8.980248451E0,4.721308231E0
1.463383463E0,1.070030975E1,8.741756439E0,4.839313507E0
1.465361588E0,9.500134468E0,8.553878784E0,4.386838436E0
1.467361588E0,8.486975670E0,8.366269112E0,3.793976545E0
1.469361588E0,7.712690830E0,8.179263115E0,3.288167953E0
1.471361588E0,7.283295631E0,8.137393951E0,2.710552216E0
1.473363150E0,7.152792454E0,8.228795052E0,2.157836437E0
1.475361588E0,7.148990631E0,8.225643158E0,2.122421503E0
1.477361588E0,7.189471722E0,8.084222794E0,2.425077438E0
1.479361588E0,7.190793514E0,7.868544102E0,2.819699287E0
1.481361588E0,7.113584995E0,7.626212597E0,3.181271553E0
1.483363150E0,6.974022388E0,7.371181965E0,3.414188862E0
1.485361588E0,6.801620483E0,7.088742733E0,3.530595303E0
1.487361588E0,6.598401070E0,6.793844223E0,3.566402912E0
1.489361588E0,6.381351948E0,6.507076263E0,3.559689522E0
1.491361588E0,6.167473316E0,6.225594521E0,3.520644665E0
1.493544400E0,5.952109814E0,5.972700119E0,3.483084679E0
1.495416275E0,5.735625744E0,5.770772934E0,3.440860510E0
1.497361588E0,5.508943558E0,5.601512909E0,3.415280819E0
1.499363150E0,5.238283634E0,5.485029697E0,3.417962313E0
1.501361588E0,4.851897240E0,5.418777466E0,3.429904461E0
1.503363150E0,4.318718433E0,5.384272575E0,3.486838579E0
1.505361588E0,3.601674318E0,5.308979511E0,3.470002651E0
1.507361588E0,3.128666162E0,5.209945679E0,3.579398632E0
1.509361588E0,3.073867559E0,5.165356159E0,3.750670195E0
1.511361588E0,3.269205809E0,5.199554920E0,3.741476536E0
1.513363150E0,3.616642714E0,5.280315876E0,3.486417532E0
1.515361588E0,4.035101414E0,5.414602280E0,3.076089621E0
1.517363150E0,4.441119671E0,5.622074127E0,2.587720156E0
1.519361588E0,4.747261047E0,5.922143936E0,2.052175522E0
1.521361588E0,4.933204651E0,6.306691170E0,1.573948264E0
1.523363150E0,5.010537624E0,6.744695663E0,1.209656000E0
1.525361588E0,4.997129917E0,7.193542004E0,9.570773244E-1
1.527361588E0,4.958353519E0,7.614232063E0,8.870421648E-1
1.529363150E0,4.922191620E0,7.984720230E0,7.531583905E-1
1.531361588E0,4.930724144E0,8.310992241E0,6.284300685E-1
1.533542838E0,5.013707638E0,8.577745438E0,5.142458081E-1
1.535416275E0,5.185008049E0,8.784670830E0,3.876116574E-1
1.537361588E0,5.396568775E0,8.944727898E0,2.919585407E-1
1.539361588E0,5.644531727E0,9.041683197E0,2.728144825E-1
1.541361588E0,5.884717941E0,9.075986862E0,3.629130721E-1
1.543363150E0,6.057004929E0,9.051950455E0,4.984823465E-1
1.545361588E0,6.173717499E0,8.970020294E0,6.548524499E-1
1.547361588E0,6.227078915E0,8.838013649E0,8.099296689E-1
1.549361588E0,6.221170425E0,8.656015396E0,9.715670943E-1
1.551361588E0,6.180478573E0,8.443382263E0,1.136029482E0
1.553363150E0,6.119943142E0,8.226850510E0,1.293271065E0
1.555361588E0,6.054562569E0,8.025766373E0,1.446002126E0
1.557361588E0,5.994592667E0,7.852751732E0,1.610177279E0
1.559361588E0,5.932123184E0,7.694015980E0,1.774687648E0
1.561361588E0,5.875313282E0,7.562507153E0,1.891754508E0
1.563363150E0,5.852233410E0,7.459307671E0,1.952548146E0
1.565361588E0,5.879862309E0,7.380490780E0,1.981288075E0
1.567361588E0,5.942763329E0,7.334799767E0,2.004396915E0
1.569361588E0,6.009187698E0,7.326764584E0,2.018532276E0
1.571361588E0,6.056008816E0,7.356098652E0,2.047415972E0
1.573542838E0,6.075037479E0,7.409268856E0,2.110335350E0
1.575416275E0,6.074798107E0,7.482090950E0,2.194084644E0
1.577361588E0,6.054447651E0,7.567889690E0,2.284863234E0
1.579363150E0,6.027948856E0,7.662728310E0,2.402495146E0
1.581361588E0,5.994956493E0,7.763074875E0,2.548972368E0
1.583363150E0,6.007578850E0,7.828972816E0,2.719640970E0
1.585361588E0,6.071916103E0,7.826645374E0,2.966023207E0
1.587361588E0,6.900606632E0,7.034413338E0,4.192659378E0
1.589361588E0,8.160071373E0,5.578346252E0,6.263442516E0
1.591361588E0,8.671117783E0,4.706023693E0,7.400860310E0
1.593363150E0,8.818658829E0,4.111888409E0,7.729699135E0
1.595361588E0,8.848251343E0,3.695785284E0,7.626853943E0
1.597361588E0,8.824692726E0,3.399680138E0,7.281342030E0
1.599361588E0,8.735388756E0,3.191097498E0,6.846976757E0
1.601361588E0,8.622056961E0,3.030341148E0,6.368394375E0
1.603363150E0,8.493899345E0,2.892233849E0,5.870572567E0
1.605361588E0,8.370608330E0,2.779457569E0,5.376840591E0
1.607361588E0,8.269141197E0,2.681659222E0,4.906619549E0
1.609361588E0,8.197612762E0,2.588237286E0,4.475710869E0
1.611361588E0,8.144289017E0,2.532337666E0,4.081405163E0
1.613542838E0,8.074474335E0,2.508644581E0,3.726144075E0
1.615416275E0,7.984107494E0,2.505053282E0,3.407935619E0
1.617361588E0,7.883541107E0,2.508108139E0,3.119683027E0
1.619361588E0,7.748862267E0,2.529215574E0,2.878386021E0
1.621361588E0,7.619163990E0,2.560340166E0,2.677905083E0
1.623363150E0,7.492692471E0,2.596703291E0,2.476782560E0
1.625361588E0,7.369324207E0,2.628536701E0,2.272748470E0
1.627361588E0,7.241664886E0,2.678086996E0,2.095070124E0
1.629363150E0,7.098741055E0,2.747336864E0,1.936200380E0
1.631363150E0,6.923073769E0,2.853687286E0,1.774582267E0
1.633363150E0,6.739295006E0,2.962652206E0,1.573019266E0
1.635361588E0,6.555984974E0,3.081126928E0,1.313765526E0
1.637361588E0,6.316766262E0,3.240101814E0,1.052155852E0
1.639361588E0,6.024117947E0,3.462264538E0,8.079760075E-1
1.641361588E0,5.643745899E0,3.777992964E0,5.849226117E-1
1.643363150E0,5.169752121E0,4.196058750E0,4.147906601E-1
1.645361588E0,4.638229370E0,4.690222263E0,3.034411371E-1
1.647361588E0,4.061332226E0,5.283323288E0,2.917478383E-1
1.649363150E0,3.417521715E0,5.978484154E0,3.535182476E-1
1.651363150E0,2.734226227E0,6.748823643E0,4.736401439E-1
1.653542838E0,1.996065021E0,7.619412422E0,6.347986460E-1
1.655416275E0,1.208822846E0,8.606916428E0,8.340057731E-1
1.657361588E0,4.188512266E-1,9.656907082E0,1.050872564E0
1.659361588E0,-2.418431044E-1,1.063826180E1,1.310068846E0
1.661361588E0,-6.903153658E-1,1.149270439E1,1.559544683E0
1.663363150E0,-8.280681968E-1,1.212972450E1,1.723346472E0
1.665361588E0,-6.504567266E-1,1.254402733E1,1.745229363E0
1.667361588E0,-1.956350058E-1,1.274871159E1,1.615722179E0
1.669361588E0,4.294144213E-1,1.281769466E1,1.355778933E0
1.671361588E0,1.144734859E0,1.279271793E1,1.021663308E0
1.673363150E0,1.860093594E0,1.274426842E1,6.564805508E-1
1.675361588E0,2.506412983E0,1.272331429E1,3.004627526E-1
1.677361588E0,3.069826126E0,1.272872543E1,-2.429635823E-2
1.679361588E0,3.524437189E0,1.277819920E1,-3.096660376E-1
1.681361588E0,3.837177515E0,1.285983181E1,-5.718215108E-1
1.683544400E0,4.013419628E0,1.294796753E1,-8.002954125E-1
1.685585025E0,4.034708977E0,1.303028011E1,-1.032178760E0
1.687370963E0,3.896342993E0,1.310652065E1,-1.265680432E0
1.689361588E0,3.633708715E0,1.314056683E1,-1.494719267E0
1.691361588E0,3.286673784E0,1.310602283E1,-1.713520646E0
1.693542838E0,2.881287575E0,1.300879860E1,-1.908925772E0
1.695416275E0,2.496165991E0,1.279601192E1,-2.009194851E0
1.697363150E0,2.204015970E0,1.243103981E1,-1.928012371E0
1.699361588E0,1.983883381E0,1.193698215E1,-1.604239583E0
1.701361588E0,1.798763752E0,1.133628654E1,-1.040424347E0
1.703361588E0,1.574446201E0,1.066185951E1,-2.192226797E-1
1.705361588E0,1.251698256E0,9.961928368E0,8.378844261E-1
1.707363150E0,8.118163347E-1,9.280777931E0,2.102769852E0
1.709361588E0,2.839139998E-1,8.651189804E0,3.465865374E0
1.711361588E0,-2.881948650E-1,8.106508255E0,4.747663498E0
1.713361588E0,-8.361414075E-1,7.665017605E0,5.777812004E0
1.715361588E0,-1.334212065E0,7.344415188E0,6.443840981E0
1.717363150E0,-1.739138603E0,7.150475025E0,6.708591461E0
1.719361588E0,-2.021884203E0,7.042419910E0,6.610161304E0
1.721361588E0,-2.143126488E0,6.991566658E0,6.217961788E0
1.723361588E0,-2.050719976E0,6.980984211E0,5.600459099E0
1.725361588E0,-1.703129768E0,7.007704258E0,4.808763504E0
1.727363150E0,-1.042100191E0,7.058729172E0,3.887216330E0
1.729361588E0,-2.939121984E-2,7.136923790E0,2.763818502E0
1.731361588E0,1.269128084E0,7.269428253E0,1.554382801E0
1.733542838E0,2.714392662E0,7.478662491E0,3.447746336E-1
1.735711588E0,4.140274048E0,7.770142078E0,-7.506684065E-1
1.737942838E0,5.430183411E0,8.101672173E0,-1.624695659E0
1.739778775E0,6.513128757E0,8.432895660E0,-2.213142633E0
1.741480338E0,7.392317772E0,8.722047806E0,-2.525145292E0
1.743361588E0,8.071332932E0,8.925583839E0,-2.617389202E0
1.745361588E0,8.586910248E0,9.018774986E0,-2.550753593E0
1.747361588E0,8.981637001E0,8.999765396E0,-2.403778553E0
1.749361588E0,9.283947945E0,8.867682457E0,-2.215689898E0
1.751363150E0,9.505794525E0,8.655011177E0,-2.034496784E0
1.753361588E0,9.634143829E0,8.397289276E0,-1.891764164E0
1.755361588E0,9.642763138E0,8.112905502E0,-1.794588208E0
1.757361588E0,9.544878006E0,7.847120762E0,-1.735901594E0
1.759361588E0,9.343955994E0,7.609759331E0,-1.701128125E0
1.761363150E0,9.081571579E0,7.411931038E0,-1.684138894E0
1.763361588E0,8.784096718E0,7.282529354E0,-1.665588617E0
1.765361588E0,8.462966919E0,7.228104591E0,-1.626735568E0
1.767361588E0,8.098032951E0,7.234693527E0,-1.538418174E0
1.769361588E0,7.692215919E0,7.288515091E0,-1.373974800E0
1.771363150E0,7.236225605E0,7.385135174E0,-1.137408614E0
1.773542838E0,6.749752522E0,7.511357784E0,-8.328374028E-1
1.775416275E0,6.238360882E0,7.667536259E0,-4.679227769E-1
1.777361588E0,5.711406231E0,7.824433327E0,-4.014597461E-2
1.779361588E0,5.191088676E0,7.983810425E0,4.321342409E-1
1.781363150E0,4.689618587E0,8.130306244E0,9.051710367E-1
1.783361588E0,4.229778767E0,8.257918358E0,1.359245777E0
1.785361588E0,3.721834421E0,8.356243134E0,1.782856703E0
1.787361588E0,3.001591444E0,8.418233871E0,2.348798037E0
1.789361588E0,2.268467665E0,8.436764717E0,2.884974957E0
1.791363150E0,1.770042896E0,8.396954536E0,3.314609289E0
1.793361588E0,1.608415127E0,8.335595131E0,3.640536785E0
1.795361588E0,1.695066094E0,8.282588005E0,3.855947971E0
1.797361588E0,1.784139872E0,8.271718025E0,3.957682371E0
1.799361588E0,1.995643735E0,8.286868095E0,3.940252781E0
1.801363150E0,2.291509628E0,8.308674812E0,3.825158596E0
1.803361588E0,2.533266544E0,8.342241287E0,3.650908709E0
1.805361588E0,2.665368795E0,8.392605782E0,3.483026981E0
1.807361588E0,2.789915323E0,8.445162773E0,3.350848198E0
1.809361588E0,2.956551790E0,8.485404968E0,3.248318911E0
1.811363150E0,3.199007750E0,8.516481400E0,3.158066988E0
1.813542838E0,3.476409674E0,8.539552689E0,3.064013243E0
1.815416275E0,3.738507509E0,8.562910080E0,2.943728447E0
1.817361588E0,3.957481384E0,8.589370728E0,2.764967680E0
1.819361588E0,4.105634689E0,8.612680435E0,2.528889894E0
1.821363150E0,4.218037605E0,8.635732651E0,2.256123304E0
1.823361588E0,4.322788715E0,8.628952026E0,1.948602438E0
1.825361588E0,4.435507774E0,8.611244202E0,1.585622311E0
1.827361588E0,4.578489304E0,8.584198952E0,1.124518156E0
1.829361588E0,4.768627644E0,8.557767868E0,5.642080307E-1
1.831363150E0,4.988836288E0,8.546046257E0,-4.670608416E-2
1.833361588E0,5.280689240E0,8.528596878E0,-6.452181935E-1
1.835361588E0,5.625856876E0,8.528863907E0,-1.199945211E0
1.837361588E0,5.994889736E0,8.548966408E0,-1.660608768E0
1.839361588E0,6.346913338E0,8.583701134E0,-1.963168859E0
1.841363150E0,6.743786335E0,8.626921654E0,-2.023876190E0
1.843361588E0,7.122060776E0,8.688490868E0,-1.811213613E0
1.845361588E0,7.455955982E0,8.767155647E0,-1.356315255E0
1.847361588E0,7.694820881E0,8.869091034E0,-6.965977550E-1
1.849361588E0,7.829393864E0,8.968717575E0,8.321287483E-2
1.851363150E0,7.858603001E0,9.072310448E0,8.826464415E-1
1.853542838E0,7.863516331E0,9.156030655E0,1.622971892E0
1.855416275E0,7.857760429E0,9.203474998E0,2.236730337E0
1.857361588E0,7.864263058E0,9.208157539E0,2.706712246E0
1.859361588E0,7.863889694E0,9.191139221E0,3.027104139E0
1.861363150E0,7.899697304E0,9.136599541E0,3.194075584E0
1.863361588E0,7.981128693E0,9.037210464E0,3.234432459E0
1.865361588E0,8.084692001E0,8.925478935E0,3.172441721E0
1.867361588E0,8.148321152E0,8.821646690E0,3.059109926E0
1.869361588E0,8.148923874E0,8.748001099E0,2.899119616E0
1.871363150E0,8.130478859E0,8.685742378E0,2.717907190E0
1.873361588E0,8.098722458E0,8.639812469E0,2.544519186E0
1.875361588E0,8.027480125E0,8.602318764E0,2.367444038E0
1.877361588E0,7.883866787E0,8.582963943E0,2.166503668E0
1.879361588E0,7.676394939E0,8.588413239E0,1.956666112E0
1.881363150E0,7.426804066E0,8.590663910E0,1.760341525E0
1.883361588E0,7.152916908E0,8.585338593E0,1.580220938E0
1.885361588E0,6.843279839E0,8.593603134E0,1.436157107E0
1.887361588E0,6.488583565E0,8.602778435E0,1.344430447E0
1.889363150E0,6.116936684E0,8.612546921E0,1.321723819E0
1.891363150E0,5.728290558E0,8.626883507E0,1.394430876E0
1.893542838E0,5.340525627E0,8.637541771E0,1.556690812E0
1.895416275E0,5.001544952E0,8.633586884E0,1.802335978E0
1.897361588E0,4.772908211E0,8.625542641E0,2.096985579E0
1.899361588E0,4.601990700E0,8.617737770E0,2.396519184E0
1.901363150E0,4.460742474E0,8.587857246E0,2.669716835E0
1.903361588E0,4.340448380E0,8.536650658E0,2.878184795E0
1.905361588E0,4.221619129E0,8.468856812E0,3.000873327E0
1.907361588E0,4.052885532E0,8.369956970E0,3.024729013E0
1.909361588E0,3.850604296E0,8.244557381E0,2.955565453E0
1.911363150E0,3.665149450E0,8.084941864E0,2.821652889E0
1.913361588E0,3.511987448E0,7.896661758E0,2.647575140E0
1.915361588E0,3.428832054E0,7.685176849E0,2.503214598E0
1.917361588E0,3.454766035E0,7.451167583E0,2.398674011E0
1.919361588E0,3.594290495E0,7.192296982E0,2.338589191E0
1.921361588E0,3.843191624E0,6.931491852E0,2.351671219E0
1.923361588E0,4.117394924E0,6.717593670E0,2.435994864E0
1.925361588E0,4.332058907E0,6.572830677E0,2.600706339E0
1.927361588E0,4.422722816E0,6.526440620E0,2.827533007E0
1.929363150E0,4.397171974E0,6.557440758E0,3.096574306E0
1.931361588E0,4.325852871E0,6.646141052E0,3.350484133E0
1.933542838E0,4.225612640E0,6.757969856E0,3.561039686E0
1.935417838E0,4.117979050E0,6.877957344E0,3.709307909E0
1.937361588E0,4.015727520E0,7.006392002E0,3.795594931E0
1.939361588E0,3.917565107E0,7.142114162E0,3.827868938E0
1.941361588E0,3.845643282E0,7.301481724E0,3.819814682E0
1.943361588E0,3.793220043E0,7.483134747E0,3.758686066E0
1.945363150E0,3.755745888E0,7.680215836E0,3.647049189E0
1.947361588E0,3.752844334E0,7.905107975E0,3.521037579E0
1.949361588E0,3.769345045E0,8.154067039E0,3.483257055E0
1.951361588E0,3.780683756E0,8.438057899E0,3.499604702E0
1.953361588E0,3.740710258E0,8.717403412E0,3.712229013E0
1.955363150E0,3.687980413E0,8.968747139E0,4.136280060E0
1.957361588E0,3.617830276E0,9.152668953E0,4.662229061E0
1.959361588E0,3.536417961E0,9.289301872E0,5.189929962E0
1.961361588E0,3.448684931E0,9.407038689E0,5.600142956E0
1.963361588E0,3.378706932E0,9.515084267E0,5.891239643E0
1.965363150E0,3.402572393E0,9.614797592E0,6.111803055E0
1.967361588E0,3.574629307E0,9.701056480E0,6.202284813E0
1.969361588E0,3.871002674E0,9.764904976E0,6.229617119E0
1.971361588E0,4.235907555E0,9.775210381E0,6.176044464E0
1.973542838E0,4.554585457E0,9.725716591E0,5.926080227E0
1.975417838E0,4.812115669E0,9.618657112E0,5.515541553E0
1.977208463E0,5.015814304E0,9.447711945E0,5.023389816E0
1.979364713E0,5.103997707E0,9.333593369E0,4.766319275E0
1.981361588E0,5.256191730E0,9.063528061E0,4.231110096E0
1.983361588E0,5.389108181E0,8.761609077E0,3.791094065E0
1.985361588E0,5.519333839E0,8.433163643E0,3.466928482E0
1.987361588E0,5.664116383E0,8.119925499E0,3.323266745E0
1.989361588E0,5.784343243E0,7.822575092E0,3.244306087E0
1.991361588E0,5.833749771E0,7.567200184E0,3.059473515E0
1.993361588E0,5.795969963E0,7.344471931E0,2.697001219E0
1.995361588E0,5.716960907E0,7.175451279E0,2.251478434E0
1.997361588E0,5.662517071E0,7.038215637E0,1.958820939E0
1.999361588E0,5.551033020E0,6.929097652E0,1.658789158E0
2.001361588E0,5.354708672E0,6.850691795E0,1.358977675E0
2.003361588E0,5.138186455E0,6.804627895E0,1.176616073E0
2.005361588E0,4.960853100E0,6.730484009E0,1.058591604E0
2.007361588E0,4.825321674E0,6.600220203E0,9.091645479E-1
2.009361588E0,4.726489067E0,6.441829681E0,8.388037682E-1
2.011361588E0,4.664039135E0,6.260866165E0,7.966179252E-1
2.013542838E0,4.588420391E0,6.082689285E0,7.284598351E-1
2.015416275E0,4.483630657E0,5.942044735E0,7.633481622E-1
2.017361588E0,4.331494331E0,5.834430218E0,8.081101179E-1
2.019361588E0,4.123600483E0,5.744341373E0,8.250227571E-1
2.021361588E0,3.888920784E0,5.670187950E0,8.015021086E-1
2.023361588E0,3.669621468E0,5.629888535E0,7.598525882E-1
2.025361588E0,3.485057354E0,5.599281311E0,7.197449207E-1
2.027361588E0,3.383514643E0,5.574103832E0,6.915891171E-1
2.029361588E0,3.330593109E0,5.551244259E0,7.216602564E-1
2.031361588E0,3.154092550E0,5.581659794E0,8.570572138E-1
2.033544400E0,2.904156923E0,5.655669212E0,9.958825707E-1
2.035585025E0,2.959875107E0,5.728271008E0,1.102089405E0
2.037364713E0,3.376101971E0,5.892111301E0,1.334212065E0
2.039361588E0,3.965985537E0,6.131962299E0,1.744932532E0
2.041361588E0,4.546023846E0,6.354766369E0,2.332000256E0
2.043361588E0,4.957836628E0,6.551426411E0,2.960076094E0
2.045361588E0,5.115097046E0,6.736335278E0,3.520223379E0
2.047363150E0,5.053374290E0,6.899878502E0,3.967307091E0
2.049361588E0,4.876663208E0,7.049133301E0,4.226551056E0
2.051361588E0,4.684935570E0,7.213039875E0,4.304841995E0
2.053542838E0,4.573997974E0,7.396292686E0,4.257895947E0
2.055416275E0,4.580854893E0,7.575359344E0,4.167826176E0
2.057363150E0,4.670139790E0,7.687743187E0,4.096440792E0
2.059361588E0,4.789619446E0,7.722918987E0,4.030140400E0
2.061361588E0,4.918973446E0,7.699733257E0,3.878252506E0
2.063361588E0,5.027948380E0,7.631517887E0,3.708685637E0
2.065361588E0,5.127297878E0,7.528921604E0,3.653781652E0
2.067363150E0,5.195408344E0,7.422092438E0,3.628029585E0
2.069361588E0,5.234404564E0,7.331151009E0,3.591953754E0
2.071361588E0,5.234539032E0,7.297211170E0,3.545860529E0
2.073361588E0,5.196681499E0,7.317350388E0,3.486503601E0
2.075361588E0,5.124501228E0,7.346904755E0,3.426370859E0
2.077363150E0,5.058201313E0,7.341752529E0,3.422770023E0
2.079361588E0,4.985264301E0,7.307266712E0,3.542230844E0
2.081361588E0,4.861072063E0,7.244462013E0,3.701914549E0
2.083361588E0,4.700603008E0,7.177864552E0,3.883845329E0
2.085361588E0,4.472368717E0,7.136626720E0,3.982055426E0
2.087363150E0,4.203260899E0,7.164629459E0,4.003929138E0
2.089361588E0,3.893192053E0,7.271315098E0,4.041192055E0
2.091361588E0,3.551089525E0,7.475195885E0,4.169387341E0
2.093542838E0,3.199362040E0,7.745797634E0,4.310664654E0
2.095416275E0,2.866395712E0,7.995953560E0,4.406509399E0
2.097363150E0,2.600141287E0,8.169734001E0,4.436934471E0
2.099361588E0,2.385879278E0,8.283842087E0,4.325355053E0
2.101361588E0,2.183779955E0,8.355869293E0,4.114387512E0
2.103361588E0,2.019106865E0,8.396695137E0,3.839811087E0
2.105361588E0,1.916654229E0,8.429026604E0,3.533880234E0
2.107363150E0,1.924497724E0,8.425436020E0,3.252532482E0
2.109361588E0,2.097177029E0,8.309163094E0,3.041718245E0
2.111361588E0,2.396423578E0,8.119169235E0,2.888384104E0
2.113361588E0,2.670004129E0,8.076140404E0,2.718635321E0
2.115361588E0,2.964653730E0,8.159410477E0,2.508548737E0
2.117363150E0,3.331148624E0,8.210531235E0,2.205146074E0
2.119361588E0,3.830080986E0,8.129876137E0,1.777206302E0
2.121361588E0,4.405848026E0,7.955194950E0,1.237198949E0
2.123361588E0,4.955470562E0,7.840818882E0,6.438774467E-1
2.125361588E0,5.585844517E0,7.657011032E0,5.949112400E-2
2.127363150E0,6.068487167E0,7.329427242E0,-4.010862410E-1
2.129361588E0,6.278707981E0,7.070230961E0,-7.683280706E-1
2.131361588E0,6.371775627E0,6.749455452E0,-9.707434773E-1
2.133542838E0,6.402066231E0,6.398092270E0,-1.017497420E0
2.135416275E0,6.309468269E0,6.212283134E0,-9.551044703E-1
2.137363150E0,6.158920765E0,6.156632423E0,-8.178880811E-1
2.139361588E0,5.986681938E0,6.251011848E0,-6.150895953E-1
2.141361588E0,5.854915142E0,6.447144508E0,-3.294708729E-1
2.143361588E0,5.846707344E0,6.637742043E0,3.233129904E-2
2.145361588E0,5.926961422E0,6.809799194E0,3.928501904E-1
2.147363150E0,6.087085247E0,6.962165833E0,7.670256495E-1
2.149361588E0,6.297506809E0,7.091510773E0,1.136154056E0
2.151361588E0,6.415991306E0,7.305772305E0,1.500484467E0
2.153361588E0,6.476612091E0,7.524947166E0,1.864556432E0
2.155361588E0,6.464018822E0,7.752578259E0,2.241461277E0
2.157363150E0,6.407324314E0,7.898557663E0,2.624830246E0
2.159361588E0,6.285133839E0,7.981444836E0,3.000921249E0
2.161361588E0,6.101565361E0,8.055062294E0,3.328687191E0
2.163361588E0,5.911810398E0,8.091223717E0,3.563769341E0
2.165361588E0,5.741985321E0,8.089221954E0,3.696609020E0
2.167363150E0,5.663819313E0,7.939239979E0,3.763627768E0
2.169361588E0,5.616624832E0,7.748095989E0,3.761654854E0
2.171361588E0,5.507200241E0,7.606713772E0,3.674907923E0
2.173542838E0,5.343159199E0,7.495326042E0,3.548101664E0
2.175416275E0,5.116150379E0,7.380050182E0,3.377854824E0
2.177363150E0,4.874556065E0,7.195371151E0,3.189593792E0
2.179361588E0,4.710946083E0,6.938539982E0,2.940347910E0
2.181361588E0,4.628872871E0,6.670504570E0,2.560234785E0
2.183361588E0,4.624563694E0,6.405255795E0,2.088347197E0
2.185361588E0,4.683164120E0,6.203826427E0,1.566430449E0
2.187363150E0,4.744570255E0,6.110251904E0,1.020447135E0
2.189363150E0,4.788479805E0,6.132594109E0,4.856973290E-1
2.191363150E0,4.842885971E0,6.179760456E0,-1.539950538E-2
2.193363150E0,4.891076088E0,6.190840244E0,-4.556836188E-1
2.195361588E0,4.856532574E0,6.262427330E0,-8.485817313E-1
2.197363150E0,4.705037117E0,6.421938419E0,-1.169950604E0
2.199361588E0,4.496789455E0,6.611511230E0,-1.369224906E0
2.201361588E0,4.274330139E0,6.820678234E0,-1.418650746E0
2.203361588E0,4.064856529E0,7.013603210E0,-1.294784307E0
2.205361588E0,3.945730686E0,7.197956562E0,-1.031469941E0
2.207363150E0,3.911024094E0,7.374696732E0,-6.905835867E-1
2.209361588E0,3.935655832E0,7.580703735E0,-3.324013948E-1
2.211361588E0,4.001228333E0,7.841767311E0,1.687433384E-2
2.213542838E0,4.093472004E0,8.150399208E0,3.770292997E-1
2.215416275E0,4.231550217E0,8.460792542E0,7.700231075E-1
2.217363150E0,4.370031357E0,8.724910736E0,1.161523104E0
2.219361588E0,4.449853420E0,8.922232628E0,1.520614982E0
2.221361588E0,4.436216354E0,9.068680763E0,1.809700489E0
2.223361588E0,4.324732780E0,9.169773102E0,2.004329920E0
2.225361588E0,4.191375256E0,9.241532326E0,2.122258902E0
2.227363150E0,4.044544220E0,9.289694786E0,2.228216648E0
2.229363150E0,3.902692318E0,9.279370308E0,2.370317221E0
2.231361588E0,3.761329174E0,9.245076180E0,2.552247763E0
2.233513150E0,3.655716181E0,9.192662239E0,2.814728737E0
2.235760025E0,3.503511906E0,9.136829376E0,3.182315350E0
2.237625650E0,3.261946440E0,9.093408585E0,3.635528326E0
2.239372525E0,2.941497087E0,9.053166389E0,4.151976585E0
2.241361588E0,2.566267967E0,8.996748924E0,4.729448795E0
2.243361588E0,2.231951475E0,8.885907173E0,5.314189434E0
2.245361588E0,2.032150507E0,8.753661156E0,5.920898914E0
2.247361588E0,1.957403541E0,8.601207733E0,6.537109375E0
2.249363150E0,1.898860455E0,8.454347610E0,7.071130753E0
2.251361588E0,1.863368869E0,8.337644577E0,7.408158302E0
2.253542838E0,1.871288896E0,8.257170677E0,7.487597466E0
2.255416275E0,1.969115973E0,8.192297935E0,7.327281952E0
2.257361588E0,2.118370533E0,8.093618393E0,6.976052761E0
2.259363150E0,2.254274845E0,7.980994701E0,6.534590244E0
2.261361588E0,2.439279795E0,7.873025894E0,6.091825962E0
2.263361588E0,2.601836443E0,7.847647667E0,5.604960442E0
2.265361588E0,2.714498043E0,7.845463753E0,5.054552078E0
2.267361588E0,2.812660217E0,7.829920292E0,4.418068409E0
2.269363150E0,2.911617517E0,7.781433105E0,3.698026419E0
2.271361588E0,2.993039608E0,7.687341213E0,2.942358971E0
2.273361588E0,3.093500137E0,7.559212685E0,2.215077162E0
2.275361588E0,3.236865044E0,7.355188847E0,1.564131975E0
2.277361588E0,3.430804968E0,7.103816986E0,1.097511649E0
2.279363150E0,3.633373499E0,6.825189114E0,8.844085336E-1
2.281361588E0,3.832149744E0,6.575464249E0,7.680886388E-1
2.283361588E0,3.991574764E0,6.366823673E0,6.696390510E-1
2.285361588E0,4.131491661E0,6.170480251E0,6.322032809E-1
2.287361588E0,4.248491764E0,6.006515503E0,6.863409877E-1
2.289363150E0,4.316812515E0,5.943586349E0,7.988398075E-1
2.291361588E0,4.367033482E0,5.975687981E0,9.019436836E-1
2.293542838E0,4.365769386E0,6.038779736E0,1.038394094E0
2.295416275E0,4.325038910E0,6.141385555E0,1.141938448E0
2.297361588E0,4.232000351E0,6.296865463E0,1.158755422E0
2.299363150E0,4.095033169E0,6.475358009E0,1.055373669E0
2.301361588E0,3.939563274E0,6.591036320E0,8.732706904E-1
2.303361588E0,3.738737583E0,6.649761200E0,6.622744799E-1
2.305361588E0,3.541493654E0,6.705038548E0,4.924202561E-1
2.307361588E0,3.307742834E0,6.754368782E0,4.491235018E-1
2.309363150E0,3.053852081E0,6.784602642E0,5.204420090E-1
2.311361588E0,2.825215578E0,6.841182232E0,6.627246141E-1
2.313361588E0,2.619448185E0,7.000646114E0,8.991376162E-1
2.315361588E0,2.423047066E0,7.179808617E0,1.142972827E0
2.317361588E0,2.277738094E0,7.252276421E0,1.392534733E0
2.319363150E0,2.225151777E0,7.289348125E0,1.637681842E0
2.321361588E0,2.199246645E0,7.437779427E0,1.866059899E0
2.323361588E0,2.170784473E0,7.739362240E0,2.085732698E0
2.325361588E0,2.092790842E0,8.208195686E0,2.279682159E0
2.327361588E0,1.977782965E0,8.857722282E0,2.467540741E0
2.329363150E0,1.843008518E0,9.590013504E0,2.706692934E0
2.331361588E0,1.694673419E0,1.034714508E1,2.961982012E0
2.333542838E0,1.525901318E0,1.105728531E1,3.165891171E0
2.335416275E0,1.378514290E0,1.165050220E1,3.284863710E0
2.337361588E0,1.278791070E0,1.215063095E1,3.315710783E0
2.339363150E0,1.294113874E0,1.255652428E1,3.326178312E0
2.341361588E0,1.403643847E0,1.284566784E1,3.381723642E0
2.343361588E0,1.571056008E0,1.303285599E1,3.397171259E0
2.345361588E0,1.785863757E0,1.315238380E1,3.374886036E0
2.347361588E0,2.013475657E0,1.321178913E1,3.309160233E0
2.349363150E0,2.307866812E0,1.321765041E1,3.226531506E0
2.351361588E0,2.678498745E0,1.321177959E1,3.139105082E0
2.353361588E0,3.054895878E0,1.322486115E1,3.033089638E0
2.355361588E0,3.380172253E0,1.328377819E1,2.938767672E0
2.357361588E0,3.634474754E0,1.341050816E1,2.854156494E0
2.359363150E0,3.827208042E0,1.358705711E1,2.816347361E0
2.361361588E0,4.037514687E0,1.374093628E1,2.817180395E0
2.363361588E0,4.310080051E0,1.384794712E1,2.843880653E0
2.365361588E0,4.647701263E0,1.391511917E1,2.871624708E0
2.367361588E0,4.891574383E0,1.403496361E1,2.928166151E0
2.369363150E0,4.895433426E0,1.413569260E1,3.271217108E0
2.371361588E0,4.807910919E0,1.423966789E1,3.662420034E0
2.373542838E0,4.665714741E0,1.432231522E1,3.989199638E0
2.375416275E0,4.454469681E0,1.437551498E1,4.288398266E0
2.377361588E0,4.225832939E0,1.438827133E1,4.555725098E0
2.379363150E0,4.022919655E0,1.435339260E1,4.763848782E0
2.381361588E0,3.851676702E0,1.429564476E1,4.894054890E0
2.383544400E0,3.725243568E0,1.421359921E1,4.906399250E0
2.385585025E0,3.656999588E0,1.407868195E1,4.795576572E0
2.387370963E0,3.621622801E0,1.384939384E1,4.591427803E0
2.389361588E0,3.515866041E0,1.355426598E1,4.336225033E0
2.391361588E0,3.322903156E0,1.319943523E1,4.048537731E0
2.393361588E0,3.073063135E0,1.278545761E1,3.756531239E0
2.395361588E0,2.802748203E0,1.232611656E1,3.486800432E0
2.397363150E0,2.503760338E0,1.185968781E1,3.243578434E0
2.399361588E0,2.204628944E0,1.139076900E1,3.038892984E0
2.401361588E0,1.961502433E0,1.091982079E1,2.888134956E0
2.403361588E0,1.797250628E0,1.045981693E1,2.788823605E0
2.405361588E0,1.696674943E0,1.003247166E1,2.749462843E0
2.407363150E0,1.652190685E0,9.664214134E0,2.740747929E0
2.409361588E0,1.658626318E0,9.365581512E0,2.716671944E0
2.411361588E0,1.736026168E0,9.147306442E0,2.678910732E0
2.413542838E0,1.872476459E0,8.995197296E0,2.598589897E0
2.415416275E0,1.978108644E0,8.888712883E0,2.505580187E0
2.417363150E0,2.051246643E0,8.792667389E0,2.413020134E0
2.419361588E0,2.076280594E0,8.707395554E0,2.349286318E0
2.421361588E0,2.021836281E0,8.647856712E0,2.366170406E0
2.423361588E0,1.897835851E0,8.605737686E0,2.436109781E0
2.425361588E0,1.735461116E0,8.581967354E0,2.552573204E0
2.427394400E0,1.541090250E0,8.558600426E0,2.699615717E0
2.429361588E0,1.354878783E0,8.540251732E0,2.841630220E0
2.431361588E0,1.220066071E0,8.509673119E0,2.915112972E0
2.433361588E0,1.189697981E0,8.478500366E0,2.870025396E0
2.435361588E0,1.312070489E0,8.439416885E0,2.694616556E0
2.437361588E0,1.584367752E0,8.416241646E0,2.425661564E0
2.439361588E0,1.966903687E0,8.408886909E0,2.116713524E0
2.441361588E0,2.387019157E0,8.415082932E0,1.814019561E0
2.443361588E0,2.784830093E0,8.449233055E0,1.563068986E0
2.445361588E0,3.095970869E0,8.482713699E0,1.380161524E0
2.447361588E0,3.281990767E0,8.530445099E0,1.282200336E0
2.449361588E0,3.354449034E0,8.599301338E0,1.258746743E0
2.451361588E0,3.320891857E0,8.697809219E0,1.242380023E0
2.453542838E0,3.199707031E0,8.809503555E0,1.183856130E0
2.455413150E0,3.000997782E0,8.900742531E0,1.088183880E0
2.457361588E0,2.733690023E0,8.984011650E0,9.736835361E-1
2.459363150E0,2.428429127E0,9.059907913E0,7.969148159E-1
2.461361588E0,2.108161688E0,9.154593468E0,5.903622508E-1
2.463363150E0,1.736026168E0,9.270540237E0,4.277480841E-1
2.465361588E0,1.368927836E0,9.385165215E0,3.771250546E-1
2.467361588E0,1.040414691E0,9.488566399E0,4.373727739E-1
2.469361588E0,7.523635030E-1,9.574517250E0,5.684505105E-1
2.471361588E0,5.204706788E-1,9.620821953E0,8.089145422E-1
2.473361588E0,3.575979471E-1,9.627918243E0,1.175265789E0
2.475361588E0,3.276800215E-1,9.601668358E0,1.600045085E0
2.477361588E0,4.221456349E-1,9.551044464E0,2.048411846E0
2.479361588E0,6.015671492E-1,9.494264603E0,2.447793484E0
2.481361588E0,8.338334560E-1,9.447376251E0,2.773893356E0
2.483361588E0,1.107050180E0,9.398343086E0,3.022526264E0
2.485363150E0,1.401738048E0,9.346273422E0,3.229672909E0
2.487361588E0,1.727387786E0,9.274677277E0,3.382710218E0
2.489361588E0,2.083434343E0,9.184761047E0,3.458606243E0
2.491361588E0,2.464093208E0,9.075412750E0,3.498579741E0
2.493542838E0,2.825521946E0,8.973850250E0,3.563290358E0
2.495413150E0,3.149984121E0,8.879806519E0,3.671632767E0
2.497361588E0,3.431800842E0,8.784766197E0,3.816740513E0
2.499361588E0,3.676746845E0,8.670352936E0,3.939898491E0
2.501361588E0,3.832350731E0,8.572180748E0,4.046382904E0
2.503361588E0,3.903276682E0,8.509529114E0,4.138377666E0
2.505361588E0,3.937331676E0,8.470819473E0,4.201584339E0
2.507361588E0,3.930149078E0,8.439167976E0,4.217616081E0
2.509361588E0,3.953315496E0,8.388075829E0,4.184777260E0
2.511361588E0,4.055566788E0,8.302564621E0,4.116523266E0
2.513361588E0,4.230736256E0,8.204076767E0,4.057434559E0
2.515361588E0,4.492834568E0,8.086502075E0,4.015267849E0
2.517361588E0,4.829631329E0,7.950004578E0,3.999006271E0
2.519361588E0,5.189795971E0,7.816187382E0,3.994629860E0
2.521361588E0,5.639120579E0,7.663753510E0,3.910574198E0
2.523361588E0,6.099879742E0,7.523673534E0,3.762756109E0
2.525361588E0,6.492883205E0,7.403790951E0,3.594510794E0
2.527361588E0,6.810948372E0,7.324370384E0,3.390543938E0
2.529361588E0,6.966667652E0,7.338075161E0,3.207425833E0
2.531361588E0,6.900625706E0,7.441063881E0,3.062509537E0
2.533542838E0,6.662115097E0,7.592894554E0,2.954090595E0
2.535413150E0,6.466470718E0,7.549061298E0,2.870657444E0
2.537361588E0,6.229071140E0,7.463311195E0,2.809710741E0
2.539361588E0,5.947110653E0,7.445210934E0,2.697432041E0
2.541361588E0,5.566834927E0,7.508580685E0,2.586120844E0
2.543361588E0,5.144478321E0,7.618033886E0,2.444795847E0
2.545361588E0,4.846343040E0,7.721990108E0,2.236682415E0
2.547361588E0,4.647729397E0,7.806380749E0,1.989342213E0
2.549363150E0,4.512562275E0,7.878925323E0,1.762362361E0
2.551361588E0,4.486111164E0,7.916763306E0,1.575317621E0
2.553361588E0,4.502975941E0,7.933264256E0,1.518565536E0
2.555361588E0,4.524581432E0,7.939182758E0,1.591770649E0
2.557208463E0,4.499930859E0,7.970077038E0,1.834810734E0
2.559361588E0,4.468969345E0,7.988924503E0,2.021185160E0
2.561361588E0,4.394518852E0,8.012846947E0,2.502410173E0
2.563361588E0,4.349929333E0,8.018459320E0,3.088242531E0
2.565361588E0,4.314246178E0,8.015748978E0,3.753255844E0
2.567361588E0,4.231588840E0,8.031808853E0,4.441790104E0
2.569363150E0,4.059416771E0,8.075287819E0,5.139833927E0
2.571361588E0,3.767525434E0,8.150283813E0,5.873245239E0
2.573542838E0,3.376437187E0,8.231821060E0,6.627945423E0
2.575561588E0,2.907116175E0,8.317753792E0,7.355456829E0
2.577208463E0,2.142704964E0,8.368817329E0,8.230700493E0
2.579361588E0,1.890681863E0,8.373902321E0,8.438727379E0
2.581363150E0,1.404840946E0,8.394693375E0,8.724250793E0
2.583361588E0,9.557173848E-1,8.414842606E0,8.818170547E0
2.585361588E0,5.413098931E-1,8.452088356E0,8.715929031E0
2.587361588E0,2.055374235E-1,8.471136093E0,8.432588577E0
2.589361588E0,-6.069780141E-2,8.479027748E0,8.002935410E0
2.591361588E0,-2.453099042E-1,8.469842911E0,7.450401306E0
2.593361588E0,-3.280918300E-1,8.416088104E0,6.814769745E0
2.595361588E0,-3.122613430E-1,8.346837997E0,6.136626244E0
2.597361588E0,-2.121071219E-1,8.288381577E0,5.451271534E0
2.599361588E0,-1.582088508E-2,8.232596397E0,4.778012753E0
2.601361588E0,2.372079343E-1,8.173182487E0,4.132382393E0
2.603361588E0,5.820878744E-1,8.113441467E0,3.543121576E0
2.605361588E0,9.654091597E-1,8.047305107E0,3.000796556E0
2.607361588E0,1.357943416E0,7.975497723E0,2.508146524E0
2.609361588E0,1.646042347E0,7.939613342E0,2.073828936E0
2.611361588E0,1.808091521E0,7.946020126E0,1.710168719E0
2.613542838E0,1.864029646E0,7.985600948E0,1.451575756E0
2.615413150E0,1.880358100E0,8.035592079E0,1.322480321E0
2.617361588E0,1.766451597E0,8.115817070E0,1.269415259E0
2.619361588E0,1.515328646E0,8.253579140E0,1.261935830E0
2.621361588E0,1.174556971E0,8.421594620E0,1.293223262E0
2.623361588E0,7.644494772E-1,8.648527145E0,1.380439162E0
2.625361588E0,3.593696952E-1,8.894536018E0,1.524407387E0
2.627361588E0,-4.011724517E-2,9.136379242E0,1.744242907E0
2.629363150E0,-4.083454609E-1,9.374621391E0,2.007902145E0
2.631361588E0,-7.303272486E-1,9.588346481E0,2.297859192E0
2.633361588E0,-9.860184193E-1,9.789650917E0,2.599212408E0
2.635361588E0,-1.177908897E0,9.966190338E0,2.919882059E0
2.637361588E0,-1.293759465E0,1.012356567E1,3.212252378E0
2.639361588E0,-1.400186658E0,1.027757072E1,3.469600677E0
2.641361588E0,-1.486856699E0,1.041024780E1,3.688104868E0
2.643361588E0,-1.507197857E0,1.050613117E1,3.856024742E0
2.645361588E0,-1.490007401E0,1.057825375E1,3.967450619E0
2.647361588E0,-1.473142743E0,1.063670158E1,4.027296066E0
2.649361588E0,-1.436530590E0,1.066454029E1,4.029767036E0
2.651361588E0,-1.382823825E0,1.064777184E1,4.016790390E0
2.653542838E0,-1.372452140E0,1.061341953E1,3.989688158E0
2.655413150E0,-1.381454349E0,1.055946350E1,3.942800045E0
2.657361588E0,-1.394948125E0,1.048666096E1,3.915046453E0
2.659361588E0,-1.393501997E0,1.038798141E1,3.894284010E0
2.661361588E0,-1.336041093E0,1.026239204E1,3.891238451E0
2.663361588E0,-1.207463026E0,1.010314846E1,3.903372288E0
2.665361588E0,-1.017497420E0,9.907628059E0,3.929268122E0
2.667361588E0,-7.287184000E-1,9.660449982E0,3.947109699E0
2.669361588E0,-3.285610974E-1,9.347709656E0,3.950509548E0
2.671361588E0,2.033826411E-1,8.979998589E0,3.971894503E0
2.673361588E0,8.272445798E-1,8.577112198E0,4.027056694E0
2.675361588E0,1.487402558E0,8.157706261E0,4.095559597E0
2.677363150E0,2.108487368E0,7.765717983E0,4.200636387E0
2.679361588E0,2.645525932E0,7.432683945E0,4.344643116E0
2.681361588E0,3.073599577E0,7.161498070E0,4.507802963E0
2.683361588E0,3.358767986E0,6.965766907E0,4.672226906E0
2.685361588E0,3.502975702E0,6.835053444E0,4.817066669E0
2.687361588E0,3.563500881E0,6.747607231E0,4.960086823E0
2.689361588E0,3.521257877E0,6.700048923E0,5.071053028E0
2.691361588E0,3.343703747E0,6.729210377E0,5.121714592E0
2.693542838E0,3.079738379E0,6.827822685E0,5.115240574E0
2.695413150E0,2.771623611E0,6.945445061E0,5.023935318E0
2.697361588E0,2.474110603E0,7.052303314E0,4.849302292E0
2.699361588E0,2.207770109E0,7.159917355E0,4.630002975E0
2.701361588E0,1.951465964E0,7.255053520E0,4.367617607E0
2.703361588E0,1.671315551E0,7.353531837E0,4.136404991E0
2.705361588E0,1.401642323E0,7.428135395E0,3.959559679E0
2.707361588E0,1.143461227E0,7.485222816E0,3.846840620E0
2.709361588E0,8.960251808E-1,7.532244682E0,3.774554729E0
2.711363150E0,6.725504398E-1,7.554673672E0,3.724879980E0
2.713361588E0,4.839256406E-1,7.560046196E0,3.661261320E0
2.715361588E0,3.477051258E-1,7.554405212E0,3.572474718E0
2.717361588E0,2.499929667E-1,7.545297623E0,3.462245703E0
2.719361588E0,1.638016999E-1,7.541888714E0,3.317003727E0
2.721361588E0,1.302350014E-1,7.518358231E0,3.161648750E0
2.723361588E0,1.418708265E-1,7.495134830E0,3.023072243E0
2.725361588E0,1.742500067E-1,7.479639053E0,2.932399273E0
2.727361588E0,2.415557951E-1,7.481267452E0,2.909108400E0
2.729361588E0,3.366535008E-1,7.510218143E0,2.929324865E0
2.731361588E0,4.805641770E-1,7.522782803E0,2.990894318E0
2.733545963E0,6.370587945E-1,7.541658878E0,3.125141859E0
2.735585025E0,7.628309727E-1,7.580818176E0,3.300742149E0
2.737558463E0,8.410543203E-1,7.630426407E0,3.487116337E0
2.739770963E0,8.375779390E-1,7.741364002E0,3.671240330E0
2.741606900E0,8.312572837E-1,7.851737022E0,3.837742329E0
2.743778775E0,8.042698503E-1,7.983906269E0,3.978291750E0
2.745361588E0,7.423844337E-1,8.169562340E0,4.126042366E0
2.747361588E0,6.634045243E-1,8.363884926E0,4.282814980E0
2.749361588E0,6.072174311E-1,8.564864159E0,4.389979362E0
2.751361588E0,5.642175674E-1,8.808162689E0,4.438323021E0
2.753363150E0,5.382453203E-1,9.079999924E0,4.485919952E0
2.755361588E0,5.295590758E-1,9.331611633E0,4.556491375E0
2.757361588E0,5.673108697E-1,9.574546814E0,4.573729515E0
2.759361588E0,6.312935352E-1,9.825391769E0,4.561576843E0
2.761361588E0,6.750020981E-1,1.008238602E1,4.522761822E0
2.763363150E0,7.332769036E-1,1.030930805E1,4.441876411E0
2.765361588E0,7.902589440E-1,1.047983265E1,4.397191048E0
2.767361588E0,8.546821475E-1,1.059939003E1,4.381657124E0
2.769361588E0,9.072300196E-1,1.067404079E1,4.368364811E0
2.771361588E0,9.567326307E-1,1.070438957E1,4.322884083E0
2.773542838E0,1.005018830E0,1.068015003E1,4.265356541E0
2.775413150E0,1.042301416E0,1.061507607E1,4.216677666E0
2.777361588E0,1.082341909E0,1.054141140E1,4.198021889E0
2.779361588E0,1.122890115E0,1.043831730E1,4.178427696E0
2.781361588E0,1.116186380E0,1.035500908E1,4.121417046E0
2.783363150E0,1.071386099E0,1.026200771E1,4.068629742E0
2.785361588E0,1.043584585E0,1.013012600E1,4.001093864E0
2.787361588E0,1.059568405E0,9.954411507E0,3.940147161E0
2.789361588E0,1.101438165E0,9.733291626E0,3.886086226E0
2.791361588E0,1.089543700E0,9.468129158E0,3.841084719E0
2.793363150E0,1.038077950E0,9.172780037E0,3.785778761E0
2.795361588E0,9.884414077E-1,8.838750839E0,3.711175442E0
2.797361588E0,9.253302217E-1,8.489015579E0,3.666011333E0
2.799363150E0,8.086176515E-1,8.142555237E0,3.664862156E0
2.801361588E0,6.883234382E-1,7.802865982E0,3.643486500E0
2.803363150E0,5.627331734E-1,7.491830349E0,3.585719347E0
2.805361588E0,4.458195269E-1,7.233160973E0,3.534080982E0
2.807361588E0,3.425623775E-1,7.025162697E0,3.491588831E0
2.809361588E0,2.488341630E-1,6.880150318E0,3.412876844E0
2.811361588E0,1.559966058E-1,6.835072041E0,3.393311739E0
2.813542838E0,5.433880165E-2,6.879029751E0,3.395734549E0
2.815413150E0,-2.327164076E-2,6.993376732E0,3.467033863E0
2.817361588E0,-8.281064779E-2,7.144115925E0,3.544165611E0
2.819361588E0,-8.686164021E-2,7.286321640E0,3.601434708E0
2.821361588E0,-6.944143027E-2,7.421239853E0,3.653274059E0
2.823363150E0,-7.217081636E-2,7.590653896E0,3.664076567E0
2.825361588E0,-7.053317875E-2,7.780465603E0,3.659565926E0
2.827361588E0,-7.534073293E-2,7.987372875E0,3.707162857E0
2.829361588E0,-1.024622545E-1,8.159554482E0,3.793574333E0
2.831361588E0,-1.530565321E-1,8.363176346E0,3.890807629E0
2.833363150E0,-1.920245588E-1,8.566942215E0,3.958170891E0
2.835361588E0,-2.084487826E-1,8.749887466E0,4.039506435E0
2.837361588E0,-2.254667729E-1,8.918516159E0,4.121359825E0
2.839361588E0,-2.524254620E-1,9.069551468E0,4.197121620E0
2.841361588E0,-3.087083697E-1,9.250123024E0,4.271504879E0
2.843363150E0,-3.961158693E-1,9.427762985E0,4.286645889E0
2.845361588E0,-4.615637958E-1,9.538566589E0,4.276245117E0
2.847361588E0,-5.237938762E-1,9.613639832E0,4.283016205E0
2.849361588E0,-6.032909751E-1,9.670075417E0,4.287938595E0
2.851361588E0,-6.368001699E-1,9.631711006E0,4.250924110E0
2.853542838E0,-6.355552077E-1,9.497788429E0,4.212904453E0
2.855413150E0,-6.340612173E-1,9.302000046E0,4.205377102E0
2.857361588E0,-6.320021749E-1,9.050388336E0,4.196920872E0
2.859361588E0,-6.349422336E-1,8.737744331E0,4.169588566E0
2.861361588E0,-6.448447108E-1,8.416289330E0,4.099179745E0
2.863363150E0,-6.871933341E-1,8.162158966E0,4.028378487E0
2.865361588E0,-7.618349791E-1,7.951028824E0,3.947282076E0
2.867361588E0,-8.447797298E-1,7.773589611E0,3.892014503E0
2.869361588E0,-9.149585366E-1,7.599981308E0,3.832082510E0
2.871361588E0,-9.295344353E-1,7.431429863E0,3.841324329E0
2.873363150E0,-9.184637070E-1,7.321094990E0,3.953027964E0
2.875361588E0,-9.267571568E-1,7.306442738E0,4.060652256E0
2.877361588E0,-9.464183450E-1,7.326238155E0,4.139536858E0
2.879361588E0,-9.153128862E-1,7.324341774E0,4.221332073E0
2.881361588E0,-8.536286354E-1,7.350994110E0,4.343876839E0
2.883363150E0,-7.718906403E-1,7.332999706E0,4.455954075E0
2.885361588E0,-7.100436687E-1,7.371699333E0,4.579312801E0
2.887361588E0,-6.799341440E-1,7.480874538E0,4.678020954E0
2.889361588E0,-6.959944367E-1,7.595164776E0,4.723041534E0
2.891361588E0,-7.629650235E-1,7.786777496E0,4.742444515E0
2.893542838E0,-7.698124647E-1,7.957196236E0,4.717793465E0
2.895413150E0,-7.339856625E-1,8.145159721E0,4.717639923E0
2.897361588E0,-7.485423684E-1,8.312486649E0,4.614412308E0
2.899361588E0,-7.449223399E-1,8.521624565E0,4.569276333E0
2.901361588E0,-7.767747641E-1,8.746287346E0,4.517657757E0
2.903363150E0,-7.626489997E-1,9.019647598E0,4.440276623E0
2.905361588E0,-7.384867668E-1,9.406684875E0,4.363116741E0
2.907361588E0,-7.647941709E-1,9.827671051E0,4.246413708E0
2.909361588E0,-7.391379476E-1,1.035575581E1,4.185782909E0
2.911361588E0,-6.744849086E-1,1.081781769E1,4.025610924E0
2.913363150E0,-5.591035485E-1,1.125087070E1,3.829717159E0
2.915361588E0,-4.343847930E-1,1.151076698E1,3.609737873E0
2.917361588E0,-2.900527418E-1,1.177348709E1,3.532366991E0
2.919361588E0,-2.450034469E-1,1.193929958E1,3.531983852E0
2.921361588E0,-2.380506843E-1,1.209907913E1,3.603120327E0
2.923361588E0,-2.816443145E-1,1.217216873E1,3.659374475E0
2.925361588E0,-3.846524358E-1,1.207032871E1,3.649682760E0
2.927361588E0,-3.956466019E-1,1.191811657E1,3.694023371E0
2.929361588E0,-3.858495355E-1,1.172907925E1,3.771327496E0
2.931361588E0,-4.291462898E-1,1.142318630E1,3.746590614E0
2.933542838E0,-4.260625541E-1,1.103840923E1,3.749253035E0
2.935414713E0,-3.761386573E-1,1.076728058E1,3.851130962E0
2.937361588E0,-3.497066796E-1,1.042399979E1,3.901006937E0
2.939361588E0,-3.414323032E-1,1.005807972E1,3.936393261E0
2.941361588E0,-4.211975336E-1,9.672047615E0,3.957232475E0
2.943361588E0,-5.133839250E-1,9.218088150E0,3.959904194E0
2.945363150E0,-5.289174914E-1,9.005951881E0,4.043653488E0
2.947361588E0,-5.119856596E-1,8.848787308E0,4.109158516E0
2.949361588E0,-4.659882486E-1,8.694036484E0,4.117069244E0
2.951361588E0,-4.699530602E-1,8.516654015E0,4.078388214E0
2.953361588E0,-5.689868331E-1,8.273163795E0,4.002166748E0
2.955363150E0,-6.734506488E-1,8.027834892E0,3.961417437E0
2.957361588E0,-7.385346293E-1,7.694772720E0,3.865783453E0
2.959361588E0,-7.175901532E-1,7.274351120E0,3.731258154E0
2.961361588E0,-6.232968569E-1,7.099823475E0,3.737138271E0
2.963361588E0,-5.802108049E-1,7.093933582E0,3.820169210E0
2.965363150E0,-6.256335974E-1,7.314688683E0,3.962365389E0
2.967361588E0,-7.644302845E-1,7.681154251E0,4.079853535E0
2.969361588E0,-8.527572155E-1,8.049852371E0,4.049045086E0
2.971361588E0,-8.508705497E-1,8.470177650E0,3.911905289E0
2.973542838E0,-7.909963131E-1,8.955252647E0,3.760084152E0
2.975414713E0,-7.497586012E-1,9.452873230E0,3.603781223E0
2.977361588E0,-7.002369165E-1,9.855185509E0,3.474867582E0
2.979361588E0,-6.549099088E-1,1.024595737E1,3.384290218E0
2.981361588E0,-6.603591442E-1,1.062777519E1,3.314312458E0
2.983361588E0,-6.741592884E-1,1.088856125E1,3.244210482E0
2.985363150E0,-7.028802037E-1,1.098376465E1,3.202857733E0
2.987361588E0,-7.394061089E-1,1.102458954E1,3.269502640E0
2.989361588E0,-7.688643932E-1,1.107103825E1,3.404679298E0
2.991361588E0,-7.736910582E-1,1.098784351E1,3.523278475E0
2.993361588E0,-7.086933255E-1,1.081083584E1,3.668826818E0
2.995363150E0,-6.578021049E-1,1.062791920E1,3.856484413E0
2.997361588E0,-6.476411223E-1,1.044783688E1,4.037581921E0
2.999361588E0,-6.716023088E-1,1.026898003E1,4.208058357E0
3.001361588E0,-7.189213037E-1,1.012251282E1,4.345246315E0
3.003361588E0,-8.050838709E-1,9.949468613E0,4.457180023E0
3.005363150E0,-9.444264174E-1,9.716972351E0,4.557305813E0
3.007361588E0,-1.152195215E0,9.416501045E0,4.689704418E0
3.009361588E0,-1.383072853E0,9.121449471E0,4.831441402E0
3.011361588E0,-1.638103247E0,8.867462158E0,4.954216480E0
3.013542838E0,-1.837818027E0,8.684745789E0,5.052886009E0
3.015414713E0,-1.959424138E0,8.511683464E0,5.086931705E0
3.017361588E0,-2.011636972E0,8.399242401E0,5.095177174E0
3.019361588E0,-1.980244279E0,8.337060928E0,5.077403069E0
3.021361588E0,-1.860620379E0,8.361242294E0,5.050693035E0
3.023361588E0,-1.707132816E0,8.436860085E0,4.989928246E0
3.025363150E0,-1.534166098E0,8.452000618E0,4.902626038E0
3.027361588E0,-1.408288598E0,8.482033730E0,4.853381634E0
3.029361588E0,-1.288731694E0,8.573616982E0,4.788441658E0
3.031361588E0,-1.136556268E0,8.672402382E0,4.689551830E0
3.033361588E0,-9.410936236E-1,8.843166351E0,4.617859840E0
3.035363150E0,-8.409681320E-1,8.974942207E0,4.497249603E0
3.037361588E0,-8.098147511E-1,9.021332741E0,4.353051186E0
3.039361588E0,-7.264486551E-1,9.114715576E0,4.223707199E0
3.041361588E0,-6.992697120E-1,9.157295227E0,4.025400162E0
3.043361588E0,-6.857280731E-1,9.286744118E0,3.886881113E0
3.045363150E0,-7.336887121E-1,9.412947655E0,3.705860376E0
3.047361588E0,-7.793318033E-1,9.604129791E0,3.511556387E0
3.049361588E0,-8.407382965E-1,9.775572777E0,3.323764801E0
3.051361588E0,-9.806841612E-1,9.847935677E0,3.062184095E0
3.053542838E0,-1.101869106E0,9.989519119E0,2.918570042E0
3.055414713E0,-1.213611245E0,1.006985950E1,2.816213369E0
3.057361588E0,-1.262050748E0,1.016958237E1,2.741006613E0
3.059369400E0,-1.227593422E0,1.024986553E1,2.706060886E0
3.061361588E0,-1.196430445E0,1.028410149E1,2.639243364E0
3.063361588E0,-1.134468555E0,1.032036877E1,2.686217785E0
3.065363150E0,-1.048373103E0,1.023002148E1,2.929688931E0
3.067361588E0,-9.930574298E-1,1.009923172E1,3.168055773E0
3.069361588E0,-8.957091570E-1,1.019707680E1,3.326273918E0
3.071361588E0,-7.476229668E-1,1.036234474E1,3.399622917E0
3.073361588E0,-5.571115613E-1,1.041042995E1,3.231434822E0
3.075363150E0,-3.014299870E-1,1.043132591E1,2.152846813E0
3.077361588E0,1.018014550E-2,1.063599205E1,4.829775095E-1
3.079361588E0,3.124624491E-1,1.079196930E1,2.314714193E-1
3.081361588E0,4.664096236E-1,1.073872280E1,1.807813883E0
3.083544400E0,5.053106546E-1,1.057823467E1,3.653398752E0
3.085585025E0,4.280641079E-1,1.034890842E1,4.905671597E0
3.087363150E0,2.914317846E-1,1.010248756E1,5.411116123E0
3.089361588E0,1.277162880E-1,9.857666016E0,5.392345905E0
3.091361588E0,-6.080314517E-2,9.611866951E0,5.243503094E0
3.093542838E0,-2.620884776E-1,9.362353325E0,5.146997452E0
3.095416275E0,-4.875264764E-1,9.136465073E0,5.094382286E0
3.097363150E0,-7.305954695E-1,8.984826088E0,5.065527439E0
3.099361588E0,-9.779547453E-1,8.914369583E0,5.021205902E0
3.101361588E0,-1.162404060E0,8.945531845E0,4.975965500E0
3.103361588E0,-1.249696612E0,9.079636574E0,4.942005634E0
3.105361588E0,-1.238702536E0,9.252621651E0,4.838490009E0
3.107363150E0,-1.118829608E0,9.428749084E0,4.660007477E0
3.109361588E0,-8.985152245E-1,9.577525139E0,4.399862766E0
3.111361588E0,-5.927852392E-1,9.684852600E0,4.107655048E0
3.113361588E0,-2.739158273E-1,9.737112999E0,3.796102524E0
3.115361588E0,9.567230009E-3,9.703995705E0,3.519467115E0
3.117363150E0,1.639166325E-1,9.435347557E0,3.401700974E0
3.119361588E0,2.887694836E-1,9.157725334E0,3.399383307E0
3.121361588E0,4.654615521E-1,9.151624680E0,3.315289259E0
3.123361588E0,6.423259974E-1,9.250697136E0,3.279500961E0
3.125361588E0,8.334695101E-1,9.357574463E0,3.295216322E0
3.127363150E0,1.040452957E0,9.435214043E0,3.334308863E0
3.129361588E0,1.273150325E0,9.478940964E0,3.380373240E0
3.131361588E0,1.564601183E0,9.477620125E0,3.407360792E0
3.133542838E0,1.899645925E0,9.439561844E0,3.392114401E0
3.135416275E0,2.251947641E0,9.368376732E0,3.316294909E0
3.137363150E0,2.617255211E0,9.270176888E0,3.284270048E0
3.139363150E0,2.981240749E0,9.134214401E0,3.286195040E0
3.141208463E0,3.307292700E0,8.971868515E0,3.327394485E0
3.143361588E0,3.462513685E0,8.876751900E0,3.366103888E0
3.145361588E0,3.766883850E0,8.654656410E0,3.459449053E0
3.147361588E0,4.077009678E0,8.410293579E0,3.561039686E0
3.149363150E0,4.249114037E0,8.201903343E0,3.636284828E0
3.151361588E0,4.823914051E0,7.922470570E0,3.642069101E0
3.153361588E0,5.612947464E0,7.704138756E0,3.668146610E0
3.155361588E0,5.104188919E0,7.975669861E0,3.758226395E0
3.157361588E0,4.015851974E0,8.397192955E0,3.991555691E0
3.159361588E0,2.812047482E0,8.765172958E0,4.223227978E0
3.161361588E0,1.708617330E0,9.008643150E0,4.382940292E0
3.163361588E0,7.712298632E-1,9.116287231E0,4.448656559E0
3.165361588E0,5.570828542E-2,9.122262955E0,4.419227123E0
3.167361588E0,-4.590354860E-1,9.059371948E0,4.320183754E0
3.169361588E0,-8.230594993E-1,8.961180687E0,4.181923389E0
3.171361588E0,-1.050910830E0,8.868046761E0,4.047589779E0
3.173542838E0,-1.170228243E0,8.797599792E0,3.956504345E0
3.175416275E0,-1.230495095E0,8.735282898E0,3.914356947E0
3.177361588E0,-1.246517181E0,8.700126648E0,3.899560690E0
3.179361588E0,-1.213955998E0,8.703468323E0,3.910439968E0
3.181361588E0,-1.161379337E0,8.710776329E0,3.937465906E0
3.183361588E0,-1.084343553E0,8.724347115E0,3.966713428E0
3.185361588E0,-9.830304980E-1,8.743864059E0,3.983721733E0
3.187361588E0,-8.715851903E-1,8.770075798E0,3.977190495E0
3.189361588E0,-7.694293857E-1,8.788166046E0,3.957835674E0
3.191361588E0,-6.758927107E-1,8.800903320E0,3.921893835E0
3.193361588E0,-5.975544453E-1,8.816514015E0,3.876739264E0
3.195361588E0,-5.368183255E-1,8.818371773E0,3.820264816E0
3.197361588E0,-4.989229143E-1,8.812080383E0,3.761080027E0
3.199361588E0,-4.762546122E-1,8.802234650E0,3.700028181E0
3.201361588E0,-4.553579986E-1,8.791336060E0,3.642088413E0
3.203361588E0,-4.216763973E-1,8.778695107E0,3.587433577E0
3.205361588E0,-3.871903121E-1,8.760460854E0,3.544998884E0
3.207361588E0,-3.698562980E-1,8.738950729E0,3.513711214E0
3.209361588E0,-3.466037810E-1,8.725916862E0,3.494107485E0
3.211361588E0,-2.881086469E-1,8.717872620E0,3.485383034E0
3.213542838E0,-2.247389257E-1,8.717173576E0,3.485095739E0
3.215416275E0,-1.591569483E-1,8.721033096E0,3.494471550E0
3.217361588E0,-7.749552280E-2,8.716139793E0,3.510110378E0
3.219361588E0,1.019929908E-2,8.706054688E0,3.526764393E0
3.221361588E0,9.618944675E-2,8.695549011E0,3.546550035E0
3.223361588E0,1.885194331E-1,8.689103127E0,3.573068380E0
3.225361588E0,2.552985251E-1,8.683922768E0,3.592087984E0
3.227361588E0,3.133052289E-1,8.676893234E0,3.616537333E0
3.229361588E0,3.677972853E-1,8.673895836E0,3.634532213E0
3.231361588E0,4.380910397E-1,8.674010277E0,3.653475046E0
3.233513150E0,5.065652132E-1,8.668714523E0,3.674199581E0
3.235766275E0,5.666596889E-1,8.658075333E0,3.699175835E0
3.237630338E0,6.243599057E-1,8.646333694E0,3.725875616E0
3.239363150E0,6.678482294E-1,8.638988495E0,3.752939939E0
3.241361588E0,6.975362897E-1,8.629239082E0,3.774822950E0
3.243361588E0,7.236331105E-1,8.617671013E0,3.786458731E0
3.245361588E0,7.362170219E-1,8.613293648E0,3.798860550E0
3.247361588E0,7.412927151E-1,8.621329308E0,3.814116478E0
3.249363150E0,7.538096309E-1,8.625206947E0,3.835855961E0
3.251361588E0,7.644302845E-1,8.631126404E0,3.851810694E0
3.253542838E0,7.602069378E-1,8.643096924E0,3.864145756E0
3.255416275E0,7.565389872E-1,8.648910522E0,3.881182909E0
3.257361588E0,7.579563856E-1,8.659635544E0,3.898440361E0
3.259363150E0,7.581192255E-1,8.666751862E0,3.918733597E0
3.261361588E0,7.483508587E-1,8.669663429E0,3.942943811E0
3.263361588E0,7.435815930E-1,8.678425789E0,3.959616899E0
3.265361588E0,7.282682657E-1,8.691067696E0,3.987552404E0
3.267361588E0,6.982353926E-1,8.710115433E0,4.008717060E0
3.269363150E0,6.751361489E-1,8.729824066E0,4.025256157E0
3.271361588E0,6.467313170E-1,8.744428635E0,4.038568020E0
3.273361588E0,6.076197028E-1,8.762911797E0,4.042925358E0
3.275361588E0,5.650986433E-1,8.791470528E0,4.049227238E0
3.277361588E0,5.286780596E-1,8.816628456E0,4.053661346E0
3.279363150E0,4.894035757E-1,8.835485458E0,4.059407234E0
3.281361588E0,4.462600350E-1,8.856620789E0,4.064291477E0
3.283361588E0,4.001285732E-1,8.890063286E0,4.072862625E0
3.285361588E0,3.605093062E-1,8.921504021E0,4.077804565E0
3.287361588E0,3.142916560E-1,8.955751419E0,4.071138859E0
3.289363150E0,2.732071579E-1,8.994939804E0,4.070736408E0
3.291361588E0,2.433179319E-1,9.039050102E0,4.069118023E0
3.293542838E0,1.932982653E-1,9.091722488E0,4.066666603E0
3.295416275E0,1.392180324E-1,9.140975952E0,4.053814411E0
3.297361588E0,7.618349791E-2,9.191617966E0,4.040512085E0
3.299363150E0,8.676586673E-3,9.246953011E0,4.014587879E0
3.301361588E0,-4.639962688E-2,9.279322624E0,3.984037876E0
3.303361588E0,-8.445785940E-2,9.311308861E0,3.939055681E0
3.305361588E0,-1.134181246E-1,9.336888313E0,3.891152382E0
3.307424088E0,-1.278982610E-1,9.365226746E0,3.843488455E0
3.309363150E0,-1.310873330E-1,9.381335258E0,3.793392420E0
3.311361588E0,-1.245559454E-1,9.382551193E0,3.750344515E0
3.313361588E0,-1.133223549E-1,9.385846138E0,3.704395056E0
3.315361588E0,-1.005564705E-1,9.397826195E0,3.669257879E0
3.317361588E0,-8.640195429E-2,9.405794144E0,3.633708715E0
3.319363150E0,-8.196789026E-2,9.397577286E0,3.597987175E0
3.321361588E0,-8.154650778E-2,9.383892059E0,3.574686766E0
3.323361588E0,-7.781155407E-2,9.368808746E0,3.551577806E0
3.325361588E0,-6.126283109E-2,9.353044510E0,3.530106783E0
3.327361588E0,-4.926309735E-2,9.339790344E0,3.508750439E0
3.329363150E0,-4.316266999E-2,9.328030586E0,3.482567310E0
3.331361588E0,-4.160165042E-2,9.315024376E0,3.455139399E0
3.333542838E0,-2.272576280E-2,9.300314903E0,3.436426401E0
3.335416275E0,-5.861005746E-3,9.286389351E0,3.420490742E0
3.337361588E0,9.777919389E-3,9.272149086E0,3.405493498E0
3.339363150E0,1.750640385E-2,9.249691010E0,3.382298231E0
3.341361588E0,1.561977156E-2,9.228220940E0,3.372673512E0
3.343361588E0,2.514869533E-2,9.199135780E0,3.370710373E0
3.345361588E0,3.718674183E-2,9.172914505E0,3.372242689E0
3.347361588E0,4.185064882E-2,9.155685425E0,3.372683048E0
3.349363150E0,4.047158360E-2,9.140793800E0,3.377098083E0
3.351361588E0,3.629609570E-2,9.120002747E0,3.386895180E0
3.353361588E0,2.393244021E-2,9.097381592E0,3.395476103E0
3.355361588E0,1.427901909E-2,9.072980881E0,3.404899597E0
3.357361588E0,7.642291952E-3,9.051873207E0,3.417090893E0
3.359363150E0,2.394201729E-4,9.032911301E0,3.430757046E0
3.361361588E0,-2.115516737E-2,9.017033577E0,3.453712702E0
3.363361588E0,-4.164953157E-2,8.997257233E0,3.471956253E0
3.365361588E0,-6.631939113E-2,8.978553772E0,3.488514662E0
3.367361588E0,-9.262687713E-2,8.963326454E0,3.504862309E0
3.369363150E0,-1.075762734E-1,8.949746132E0,3.528775692E0
3.371361588E0,-1.342764199E-1,8.945972443E0,3.551702499E0
3.373542838E0,-1.682453454E-1,8.927700043E0,3.575405121E0
3.375416275E0,-1.919192076E-1,8.912157059E0,3.592394352E0
3.377361588E0,-2.203814834E-1,8.888416290E0,3.608579159E0
3.379363150E0,-2.465644628E-1,8.867634773E0,3.619085073E0
3.381361588E0,-2.655935884E-1,8.851392746E0,3.637290239E0
3.383361588E0,-2.950518429E-1,8.843299866E0,3.635461092E0
3.385361588E0,-3.285419345E-1,8.841470718E0,3.638343811E0
3.387361588E0,-3.586322665E-1,8.834834099E0,3.635384560E0
3.389363150E0,-3.856101334E-1,8.831118584E0,3.639100313E0
3.391361588E0,-4.109599292E-1,8.831893921E0,3.639828205E0
3.393361588E0,-4.196269512E-1,8.835666656E0,3.635853767E0
3.395361588E0,-4.327375889E-1,8.833550453E0,3.635997534E0
3.397361588E0,-4.458195269E-1,8.834345818E0,3.634139538E0
3.399363150E0,-4.673960507E-1,8.839181900E0,3.627062321E0
3.401361588E0,-4.731804430E-1,8.843060493E0,3.630107641E0
3.403361588E0,-4.644655585E-1,8.846861839E0,3.635078192E0
3.405361588E0,-4.608646929E-1,8.858325958E0,3.647777081E0
3.407361588E0,-4.646283686E-1,8.873122215E0,3.663990498E0
3.409363150E0,-4.658446014E-1,8.887075424E0,3.685404301E0
3.411361588E0,-4.512974620E-1,8.901459694E0,3.704002380E0
3.413542838E0,-4.355052710E-1,8.916696548E0,3.723376274E0
3.415416275E0,-4.117739499E-1,8.929299355E0,3.737808704E0
3.417361588E0,-3.963169754E-1,8.949728012E0,3.756445169E0
3.419363150E0,-3.676823378E-1,8.968602180E0,3.778394938E0
3.421361588E0,-3.271628618E-1,8.984212875E0,3.797031403E0
3.423361588E0,-2.693955600E-1,8.991855621E0,3.812459707E0
3.425361588E0,-2.215977311E-1,8.996787071E0,3.818521976E0
3.427394400E0,-1.846982986E-1,8.998625755E0,3.820188284E0
3.429361588E0,-1.428189278E-1,8.993751526E0,3.820820332E0
3.431361588E0,-9.822931141E-2,8.982230186E0,3.809663296E0
3.433544400E0,-6.896258891E-2,9.001968384E0,3.794838428E0
3.435585025E0,-6.626192480E-2,9.023296356E0,3.777399063E0
3.437372525E0,-1.812889427E-2,9.007292747E0,3.723500729E0
3.439361588E0,4.750096053E-2,8.978486061E0,3.661261320E0
3.441361588E0,1.065707058E-1,8.950503349E0,3.611567020E0
3.443361588E0,1.656979024E-1,8.918267250E0,3.563462973E0
3.445361588E0,2.287228703E-1,8.886568069E0,3.500916719E0
3.447363150E0,2.873329520E-1,8.862462997E0,3.442478895E0
3.449527213E0,3.565157652E-1,8.840292931E0,3.400963545E0
3.451361588E0,4.462983310E-1,8.799725533E0,3.359381199E0
3.453542838E0,5.138435960E-1,8.773369789E0,3.320738554E0
3.455413150E0,5.507525802E-1,8.747454643E0,3.283867836E0
3.457363150E0,5.710746050E-1,8.731060028E0,3.261103868E0
3.459361588E0,5.960509181E-1,8.711676598E0,3.237927914E0
3.461361588E0,6.681833863E-1,8.630273819E0,3.211036444E0
3.463392838E0,7.762001753E-1,8.455736160E0,3.182296276E0
3.465361588E0,8.975191712E-1,8.169408798E0,3.097991705E0
3.467363150E0,9.656389952E-1,7.954543591E0,3.029804707E0
3.469361588E0,9.155523181E-1,7.954093456E0,3.042532444E0
3.471361588E0,7.816110849E-1,8.080450058E0,3.090224743E0
3.473361588E0,6.209889054E-1,8.273135185E0,3.158775568E0
3.475361588E0,4.856973290E-1,8.459489822E0,3.212204695E0
3.477363150E0,3.941622078E-1,8.630656242E0,3.263584137E0
3.479361588E0,3.429071307E-1,8.776625633E0,3.306440353E0
3.481361588E0,3.326886892E-1,8.909638405E0,3.320068121E0
3.483361588E0,3.532788455E-1,9.020088196E0,3.296040058E0
3.485361588E0,3.893738091E-1,9.092248917E0,3.251919746E0
3.487363150E0,4.281790555E-1,9.134635925E0,3.201038122E0
3.489361588E0,4.794532359E-1,9.166623116E0,3.171311855E0
3.491361588E0,5.142745376E-1,9.189233780E0,3.153230667E0
3.493542838E0,5.429762006E-1,9.214190483E0,3.142657995E0
3.495413150E0,5.490574837E-1,9.236973763E0,3.140024185E0
3.497363150E0,5.614115596E-1,9.257209778E0,3.158162832E0
3.499361588E0,5.546120405E-1,9.288228989E0,3.191298485E0
3.501361588E0,5.261402130E-1,9.336400032E0,3.224223614E0
3.503361588E0,4.877371788E-1,9.405084610E0,3.250444889E0
3.505361588E0,4.426496029E-1,9.469891548E0,3.267951250E0
3.507363150E0,4.187267125E-1,9.502557755E0,3.275335073E0
3.509361588E0,4.281120002E-1,9.486382484E0,3.290878057E0
3.511361588E0,4.668884873E-1,9.441390991E0,3.302964211E0
3.513361588E0,4.983578920E-1,9.383451462E0,3.300138950E0
3.515361588E0,5.225967169E-1,9.334092140E0,3.298280954E0
3.517363150E0,5.348168015E-1,9.299375534E0,3.292937040E0
3.519361588E0,5.328343511E-1,9.263175964E0,3.287985802E0
3.521361588E0,5.151172876E-1,9.238400459E0,3.280956507E0
3.523361588E0,5.063545108E-1,9.212380409E0,3.277432442E0
3.525361588E0,4.995453954E-1,9.185249329E0,3.285534143E0
3.527363150E0,5.007328987E-1,9.163098335E0,3.286032200E0
3.529363150E0,4.990473986E-1,9.135181427E0,3.282766581E0
3.531361588E0,4.950155616E-1,9.104574203E0,3.277940035E0
3.533542838E0,4.941823781E-1,9.078276634E0,3.272998333E0
3.535413150E0,5.035005808E-1,9.056613922E0,3.270048618E0
3.537363150E0,5.000146627E-1,9.023267746E0,3.256487846E0
3.539361588E0,4.884075522E-1,8.986023903E0,3.241634369E0
3.541361588E0,4.846438766E-1,8.949315071E0,3.233695030E0
3.543361588E0,4.875073433E-1,8.923601151E0,3.222059011E0
3.545361588E0,4.892024398E-1,8.908202171E0,3.206152201E0
3.547363150E0,4.888002276E-1,8.902121544E0,3.200415611E0
3.549361588E0,4.908496737E-1,8.900645256E0,3.186634541E0
3.551361588E0,4.997369349E-1,8.903326988E0,3.169530630E0
3.553361588E0,5.002923608E-1,8.919080734E0,3.153891325E0
3.555361588E0,4.973235726E-1,8.937468529E0,3.139114618E0
3.557363150E0,4.966914952E-1,8.958067894E0,3.131625414E0
3.559361588E0,5.063257813E-1,8.982738495E0,3.129250288E0
3.561361588E0,5.177796483E-1,9.007235527E0,3.126961470E0
3.563361588E0,5.311680436E-1,9.044011116E0,3.119338274E0
3.565361588E0,5.346060991E-1,9.086512566E0,3.116034508E0
3.567363150E0,5.321831703E-1,9.126994133E0,3.114205122E0
3.569361588E0,5.541619062E-1,9.116804123E0,3.111724854E0
3.571361588E0,6.932363510E-1,8.935649872E0,3.113831758E0
3.573542838E0,7.855280042E-1,8.793231964E0,3.136069059E0
3.575413150E0,7.607048750E-1,8.708985329E0,3.130897522E0
3.577363150E0,7.257016897E-1,8.519536972E0,3.049417973E0
3.579363150E0,6.941556931E-1,8.414173126E0,3.031059265E0
3.581361588E0,6.194182634E-1,8.490432739E0,3.060776234E0
3.583361588E0,5.115738511E-1,8.669489861E0,3.111638784E0
3.585361588E0,4.162271619E-1,8.887381554E0,3.171704292E0
3.587363150E0,3.623768091E-1,9.078353882E0,3.213277340E0
3.589361588E0,3.374770880E-1,9.236293793E0,3.240551949E0
3.591361588E0,3.400628269E-1,9.380166054E0,3.248270988E0
3.593361588E0,3.611988425E-1,9.506761551E0,3.225660086E0
3.595361588E0,3.998700082E-1,9.607615471E0,3.177469492E0
3.597363150E0,4.294335842E-1,9.690005302E0,3.126846790E0
3.599361588E0,4.446606934E-1,9.776003838E0,3.075486183E0
3.601361588E0,4.580682516E-1,9.846843719E0,3.027592421E0
3.603361588E0,4.727207720E-1,9.895733833E0,2.992062569E0
3.605361588E0,4.720886946E-1,9.951777458E0,2.975245714E0
3.607363150E0,4.655860364E-1,9.989222527E0,2.959223747E0
3.609361588E0,4.680281281E-1,1.002012730E1,2.947520733E0
3.611361588E0,4.730080664E-1,1.004351330E1,2.932255268E0
3.613542838E0,4.822688401E-1,1.005624104E1,2.916156769E0
3.615413150E0,4.811196327E-1,1.007388210E1,2.896735191E0
3.617363150E0,4.881393909E-1,1.004914474E1,2.886171818E0
3.619361588E0,5.163143873E-1,9.971295357E0,2.876748323E0
3.621361588E0,5.468835235E-1,9.870823860E0,2.868627310E0
3.623361588E0,5.675886273E-1,9.770747185E0,2.867037296E0
3.625361588E0,5.565369725E-1,9.686470985E0,2.871797085E0
3.627363150E0,5.375270247E-1,9.621703148E0,2.878386021E0
3.629361588E0,5.207962990E-1,9.579075813E0,2.898583412E0
3.631361588E0,5.077719092E-1,9.541525841E0,2.933739662E0
3.633361588E0,5.027153492E-1,9.508217812E0,2.963341713E0
3.635361588E0,5.010489225E-1,9.477859497E0,2.992445469E0
3.637363150E0,5.005413890E-1,9.439053535E0,3.021587849E0
3.639361588E0,5.048413873E-1,9.402633667E0,3.038423777E0
3.641361588E0,4.966149032E-1,9.365523338E0,3.058899164E0
3.643361588E0,4.909166992E-1,9.332856178E0,3.075993538E0
3.645361588E0,4.818474352E-1,9.295631409E0,3.084660530E0
3.647363150E0,4.676450491E-1,9.261672974E0,3.097666025E0
3.649361588E0,4.590259492E-1,9.217130661E0,3.110977888E0
3.651361588E0,4.496310651E-1,9.164965630E0,3.123025417E0
3.653542838E0,4.457141757E-1,9.123814583E0,3.137045860E0
3.655413150E0,4.465281963E-1,9.077836037E0,3.147331238E0
3.657363150E0,4.449384511E-1,9.038867950E0,3.163066149E0
3.659361588E0,4.422569275E-1,9.003970146E0,3.185466290E0
3.661361588E0,4.372195303E-1,8.966237068E0,3.204543114E0
3.663361588E0,4.311478138E-1,8.930879593E0,3.226694345E0
3.665361588E0,4.410598576E-1,8.904994011E0,3.243147135E0
3.667363150E0,4.508090317E-1,8.878915787E0,3.260711193E0
3.669361588E0,4.517858624E-1,8.855788231E0,3.274118662E0
3.671361588E0,4.525328279E-1,8.838722229E0,3.283025265E0
3.673361588E0,4.687463939E-1,8.825448990E0,3.294421673E0
3.675361588E0,4.874115884E-1,8.817193031E0,3.317262173E0
3.677363150E0,4.958200157E-1,8.806075096E0,3.333370447E0
3.679361588E0,4.983961880E-1,8.807224274E0,3.347323656E0
3.681361588E0,5.061438084E-1,8.810997009E0,3.359438419E0
3.683361588E0,5.247706771E-1,8.823169708E0,3.372070312E0
3.685361588E0,5.354680419E-1,8.840063095E0,3.389117002E0
3.687363150E0,5.040752292E-1,8.902436256E0,3.422942400E0
3.689361588E0,4.657871425E-1,8.966438293E0,3.460588694E0
3.691361588E0,5.066992640E-1,8.987075806E0,3.429444790E0
3.693542838E0,5.801054835E-1,8.975832939E0,3.400245428E0
3.695413150E0,6.420770288E-1,8.976466179E0,3.389117002E0
3.697363150E0,6.691985726E-1,9.003903389E0,3.382911205E0
3.699361588E0,6.716789007E-1,9.035344124E0,3.387575150E0
3.701361588E0,6.888309717E-1,9.049967766E0,3.371179581E0
3.703361588E0,7.247248292E-1,9.005214691E0,3.344077349E0
3.705361588E0,8.236916065E-1,8.843491554E0,3.338254690E0
3.707363150E0,8.890245557E-1,8.700998306E0,3.336329699E0
3.709361588E0,8.684056997E-1,8.665143013E0,3.316678047E0
3.711361588E0,8.243619204E-1,8.639639854E0,3.269454718E0
3.713361588E0,7.487338781E-1,8.695472717E0,3.247715235E0
3.715361588E0,6.348848343E-1,8.844612122E0,3.254333019E0
3.717363150E0,5.189863443E-1,9.033237457E0,3.267328739E0
3.719361588E0,4.212262630E-1,9.207784653E0,3.276014805E0
3.721361588E0,3.555676937E-1,9.364881516E0,3.285830975E0
3.723208463E0,3.227192461E-1,9.489533424E0,3.279184818E0
3.725361588E0,3.163602352E-1,9.537282944E0,3.265786886E0
3.727361588E0,3.287047446E-1,9.611991882E0,3.227048635E0
3.729363150E0,3.709193170E-1,9.646420479E0,3.163248062E0
3.731361588E0,3.973800242E-1,9.677162170E0,3.093854427E0
3.733542838E0,3.882150352E-1,9.725621223E0,3.031480789E0
3.735820963E0,3.661308885E-1,9.783273697E0,2.984305382E0
3.737560025E0,3.212731183E-1,9.880218506E0,2.933002472E0
3.739720963E0,2.888173461E-1,9.916975021E0,2.899627209E0
3.741420963E0,2.689167559E-1,9.942439079E0,2.874670267E0
3.743213150E0,2.554804683E-1,9.966707230E0,2.854874849E0
3.745361588E0,2.519561946E-1,9.976552963E0,2.843076229E0
3.747361588E0,2.383475602E-1,9.996577263E0,2.816012144E0
3.749361588E0,2.300732136E-1,9.989040375E0,2.785069466E0
3.751361588E0,2.292208672E-1,9.965893745E0,2.764565468E0
3.753361588E0,2.349286526E-1,9.947975159E0,2.750257730E0
3.755361588E0,2.413738370E-1,9.936464310E0,2.742663383E0
3.757361588E0,2.470816225E-1,9.928850174E0,2.742538929E0
3.759361588E0,2.488150150E-1,9.936252594E0,2.752086878E0
3.761361588E0,2.502802610E-1,9.938493729E0,2.763655663E0
3.763361588E0,2.687060535E-1,9.903863907E0,2.771077871E0
3.765361588E0,3.403405547E-1,9.817174911E0,2.792290211E0
3.767361588E0,4.303625524E-1,9.697732925E0,2.823050976E0
3.769361588E0,4.986164570E-1,9.581604958E0,2.843641281E0
3.771361588E0,5.260252953E-1,9.476000786E0,2.855162144E0
3.773542838E0,5.358319283E-1,9.399243355E0,2.878778458E0
3.775413150E0,5.402563810E-1,9.347558022E0,2.911195993E0
3.777361588E0,5.419802070E-1,9.305898666E0,2.950489759E0
3.779361588E0,5.554260612E-1,9.276669502E0,2.985387564E0
3.781361588E0,5.818580389E-1,9.250898361E0,3.026031494E0
3.783544400E0,6.129922271E-1,9.222043991E0,3.055116177E0
3.785849088E0,6.328066587E-1,9.207956314E0,3.080111742E0
3.787250650E0,6.655976772E-1,9.202995300E0,3.096306086E0
3.789361588E0,6.791105270E-1,9.200169563E0,3.100673199E0
3.791361588E0,6.978331804E-1,9.194558144E0,3.097800016E0
3.793361588E0,7.203482389E-1,9.196272850E0,3.099715471E0
3.795361588E0,7.454490066E-1,9.196252823E0,3.106045723E0
3.797361588E0,7.594599724E-1,9.191349983E0,3.106055498E0
3.799361588E0,7.771387100E-1,9.190861702E0,3.099610090E0
3.801361588E0,7.975277305E-1,9.193916321E0,3.090713263E0
3.803361588E0,8.223029375E-1,9.192212105E0,3.078723192E0
3.805361588E0,8.411213160E-1,9.191416740E0,3.070841312E0
3.807361588E0,8.606675863E-1,9.198493958E0,3.072488546E0
3.809361588E0,8.737208247E-1,9.204106331E0,3.059694052E0
3.811361588E0,8.793807626E-1,9.204862595E0,3.046573639E0
3.813542838E0,8.933916092E-1,9.213213921E0,3.044581890E0
3.815413150E0,9.058797359E-1,9.213060379E0,3.038548231E0
3.817361588E0,9.219687581E-1,9.195487022E0,3.034679413E0
3.819361588E0,9.426929951E-1,9.155427933E0,3.031212568E0
3.821361588E0,9.711360931E-1,9.069590569E0,3.021731377E0
3.823361588E0,1.070026278E0,8.861362457E0,3.012269735E0
3.825361588E0,1.087513447E0,8.719413757E0,3.004560232E0
3.827361588E0,1.017688990E0,8.681940079E0,2.980072498E0
3.829361588E0,9.368894100E-1,8.694993019E0,2.961847544E0
3.831361588E0,8.898385763E-1,8.676021576E0,2.933615208E0
3.833361588E0,8.540213108E-1,8.742389679E0,2.928635597E0
3.835361588E0,8.053902984E-1,8.863047600E0,2.940769196E0
3.837361588E0,7.835935354E-1,8.963105202E0,2.957767963E0
3.839361588E0,8.126591444E-1,9.008278847E0,2.938212156E0
3.841361588E0,8.097573519E-1,9.093015671E0,2.917861462E0
3.843361588E0,7.983608842E-1,9.206710815E0,2.879908800E0
3.845361588E0,7.747732401E-1,9.314756393E0,2.827121258E0
3.847361588E0,7.672937512E-1,9.402815819E0,2.777407885E0
3.849361588E0,7.570945024E-1,9.467028618E0,2.727819443E0
3.851361588E0,7.519038320E-1,9.518321037E0,2.675060749E0
3.853542838E0,7.455735207E-1,9.565697670E0,2.620721817E0
3.855413150E0,7.471633554E-1,9.584296227E0,2.572790146E0
3.857361588E0,7.645260692E-1,9.588260651E0,2.532337666E0
3.859361588E0,7.875870466E-1,9.585463524E0,2.508290291E0
3.861361588E0,8.051891923E-1,9.599944115E0,2.485794306E0
3.863361588E0,8.245152235E-1,9.617537498E0,2.471534491E0
3.865361588E0,8.359019756E-1,9.638969421E0,2.472300529E0
3.867361588E0,8.519622684E-1,9.676827431E0,2.473047495E0
3.869361588E0,8.725237250E-1,9.706217766E0,2.472875357E0
3.871361588E0,9.042804241E-1,9.688214302E0,2.479425669E0
3.873361588E0,9.437559843E-1,9.630589485E0,2.491847038E0
3.875361588E0,9.708392620E-1,9.568972588E0,2.495486021E0
3.877361588E0,9.883743525E-1,9.511752129E0,2.500102043E0
3.879361588E0,9.914676547E-1,9.467333794E0,2.519935608E0
3.881361588E0,9.695942402E-1,9.431890488E0,2.549652338E0
3.883361588E0,9.507949948E-1,9.404873848E0,2.577798605E0
3.885361588E0,9.434494972E-1,9.389484406E0,2.614592791E0
3.887361588E0,9.478548765E-1,9.379668236E0,2.651473045E0
3.889363150E0,9.577477574E-1,9.374486923E0,2.688429832E0
3.891361588E0,9.599791169E-1,9.379026413E0,2.725482702E0
3.893542838E0,9.598162770E-1,9.378585815E0,2.759145021E0
3.895413150E0,9.600173831E-1,9.378681183E0,2.789867401E0
3.897361588E0,9.583893418E-1,9.385117531E0,2.812746525E0
3.899361588E0,9.502107501E-1,9.383374214E0,2.833901644E0
3.901361588E0,9.370809793E-1,9.392319679E0,2.839264631E0
3.903361588E0,9.331736565E-1,9.396447182E0,2.841524601E0
3.905361588E0,9.309039116E-1,9.398630142E0,2.831382751E0
3.907361588E0,9.226774573E-1,9.403781891E0,2.811779261E0
3.909361588E0,9.151117802E-1,9.409021378E0,2.786352873E0
3.911361588E0,9.033802152E-1,9.405036926E0,2.776881456E0
3.913361588E0,8.919071555E-1,9.402987480E0,2.763320446E0
3.915361588E0,8.813630939E-1,9.399157524E0,2.738593340E0
3.917361588E0,8.786624670E-1,9.391486168E0,2.722695827E0
3.919361588E0,8.747455478E-1,9.374266624E0,2.716901779E0
3.921361588E0,8.782697916E-1,9.346388817E0,2.707985878E0
3.923361588E0,8.899343014E-1,9.306060791E0,2.697891951E0
3.925361588E0,9.063298106E-1,9.224935532E0,2.674189091E0
3.927361588E0,1.010851145E0,9.026447296E0,2.651415586E0
3.929363150E0,1.057566762E0,8.870508194E0,2.633717537E0
3.931361588E0,9.985640645E-1,8.804265022E0,2.618356466E0
3.933542838E0,9.050273895E-1,8.811725616E0,2.610082150E0
3.935414713E0,8.534946442E-1,8.770066261E0,2.572732449E0
3.937361588E0,8.424716592E-1,8.721138954E0,2.556700945E0
3.939361588E0,8.152735829E-1,8.803728104E0,2.598015308E0
3.941361588E0,7.982268929E-1,8.909600258E0,2.638276100E0
3.943361588E0,8.218528628E-1,8.983656883E0,2.664966822E0
3.945363150E0,8.135688901E-1,9.107217789E0,2.687280655E0
3.947361588E0,7.881712317E-1,9.230470657E0,2.687768936E0
3.949361588E0,7.633385658E-1,9.348773003E0,2.682511568E0
3.951361588E0,7.397508621E-1,9.449742317E0,2.671488523E0
3.953361588E0,7.274637818E-1,9.527476311E0,2.651808023E0
3.955363150E0,7.157322168E-1,9.592741966E0,2.630873203E0
3.957361588E0,7.137594223E-1,9.652942657E0,2.608980656E0
3.959361588E0,7.139317989E-1,9.688883781E0,2.588505507E0
3.961361588E0,7.201758623E-1,9.707550049E0,2.571487665E0
3.963361588E0,7.277032733E-1,9.735169411E0,2.554641962E0
3.965363150E0,7.239587307E-1,9.750999451E0,2.529751778E0
3.967361588E0,7.267168760E-1,9.764616966E0,2.508864641E0
3.969361588E0,7.323192954E-1,9.769186020E0,2.491051912E0
3.971361588E0,7.373661995E-1,9.784499168E0,2.489692211E0
3.973542838E0,7.433134317E-1,9.818707466E0,2.488715172E0
3.975414713E0,7.512909174E-1,9.845005035E0,2.487250090E0
3.977361588E0,7.775313854E-1,9.826742172E0,2.478381872E0
3.979361588E0,8.253100514E-1,9.766466141E0,2.468651772E0
3.981361588E0,8.545001745E-1,9.687131882E0,2.459170580E0
3.983361588E0,8.690760732E-1,9.616550446E0,2.450810194E0
3.985363150E0,8.664328456E-1,9.568398476E0,2.440409899E0
3.987361588E0,8.439561129E-1,9.528798103E0,2.441041708E0
3.989361588E0,8.300122619E-1,9.497108459E0,2.450092077E0
3.991361588E0,8.145744801E-1,9.462766647E0,2.457513809E0
3.993361588E0,8.104468584E-1,9.452470779E0,2.470289469E0
3.995363150E0,8.136742711E-1,9.451111794E0,2.479760885E0
3.997361588E0,8.099488616E-1,9.441678047E0,2.483256340E0
3.999363150E0,7.964072227E-1,9.437780380E0,2.492909908E0
4.001361588E0,7.893300056E-1,9.429457664E0,2.501749277E0
4.003361588E0,7.777803540E-1,9.418569565E0,2.511086702E0
4.005363150E0,7.652347684E-1,9.413914680E0,2.517005205E0
4.007361588E0,7.427579761E-1,9.399664879E0,2.526045561E0
4.009361588E0,7.189117670E-1,9.394033432E0,2.530307293E0
4.011361588E0,7.073429823E-1,9.368865013E0,2.536819696E0
4.013542838E0,7.012042403E-1,9.344799042E0,2.544653416E0
4.015414713E0,6.910527945E-1,9.329600334E0,2.546731472E0
4.017361588E0,6.755958200E-1,9.316614151E0,2.546319485E0
4.019361588E0,6.552163959E-1,9.306529999E0,2.543963909E0
4.021361588E0,6.396732330E-1,9.308483124E0,2.531370401E0
4.023361588E0,6.347699165E-1,9.301243782E0,2.514744759E0
4.025363150E0,6.461088061E-1,9.290029526E0,2.502524853E0
4.027361588E0,6.212283373E-1,9.311079025E0,2.501203299E0
4.029361588E0,5.787838697E-1,9.343218803E0,2.504124165E0
4.031361588E0,6.141414642E-1,9.290546417E0,2.468354940E0
4.033361588E0,7.359201908E-1,9.101682663E0,2.434874535E0
4.035363150E0,8.581680655E-1,8.894248962E0,2.415529251E0
4.037361588E0,8.735675812E-1,8.787668228E0,2.376523018E0
4.039361588E0,8.265358806E-1,8.756447792E0,2.353653669E0
4.041361588E0,7.927489281E-1,8.723081589E0,2.342372179E0
4.043361588E0,8.248408437E-1,8.650892258E0,2.329452991E0
4.045363150E0,8.288918138E-1,8.715162277E0,2.349698305E0
4.047361588E0,8.183860183E-1,8.820239067E0,2.392554522E0
4.049361588E0,8.336131573E-1,8.906487465E0,2.427691936E0
4.051361588E0,8.294759393E-1,9.047132492E0,2.462244987E0
4.053542838E0,8.087709546E-1,9.208013535E0,2.480823994E0
4.055414713E0,7.859684825E-1,9.364192009E0,2.487929821E0
4.057361588E0,7.700998187E-1,9.504185677E0,2.510780334E0
4.059361588E0,7.630608082E-1,9.617824554E0,2.518441677E0
4.061361588E0,7.582149506E-1,9.712759018E0,2.509142637E0
4.063361588E0,7.617391944E-1,9.783627510E0,2.495476246E0
4.065363150E0,7.784603238E-1,9.826177597E0,2.484032154E0
4.067361588E0,7.963497639E-1,9.868219376E0,2.474263906E0
4.069361588E0,8.021054864E-1,9.891558647E0,2.454018593E0
4.071361588E0,8.121994138E-1,9.893885612E0,2.431656599E0
4.073361588E0,8.160397410E-1,9.892582893E0,2.404142380E0
4.075363150E0,8.104276657E-1,9.891452789E0,2.377835035E0
4.077361588E0,8.062713742E-1,9.891117096E0,2.353749275E0
4.079361588E0,8.007934690E-1,9.883589745E0,2.316361427E0
4.081361588E0,7.941758633E-1,9.870287895E0,2.287324429E0
4.083361588E0,7.768992782E-1,9.859351158E0,2.263555050E0
4.085363150E0,7.568358779E-1,9.864962578E0,2.246776342E0
4.087361588E0,7.156652212E-1,9.878255844E0,2.228293180E0
4.089361588E0,6.850098372E-1,9.876599312E0,2.219511271E0
4.091361588E0,6.844065189E-1,9.841902733E0,2.204648018E0
4.093542838E0,7.026119828E-1,9.790714264E0,2.187141657E0
4.095414713E0,7.160770297E-1,9.726387024E0,2.174404383E0
4.097361588E0,7.161536217E-1,9.676357269E0,2.164865971E0
4.099361588E0,7.090476155E-1,9.633654594E0,2.161006451E0
4.101361588E0,7.003040314E-1,9.603114128E0,2.162194014E0
4.103361588E0,6.929394603E-1,9.590358734E0,2.183913946E0
4.105363150E0,6.910719872E-1,9.585234642E0,2.195885181E0
4.107363150E0,6.827784181E-1,9.583577156E0,2.198643208E0
4.109361588E0,6.802310348E-1,9.575993538E0,2.208449841E0
4.111361588E0,6.879020333E-1,9.567832947E0,2.234690428E0
4.113361588E0,7.035505176E-1,9.561407089E0,2.254208088E0
4.115363150E0,7.107618451E-1,9.553554535E0,2.275401354E0
4.117361588E0,7.158663273E-1,9.554406166E0,2.291126490E0
4.119361588E0,7.246291041E-1,9.551074028E0,2.303452015E0
4.121361588E0,7.357764840E-1,9.534936905E0,2.309801340E0
4.123361588E0,7.629650235E-1,9.521012306E0,2.309140444E0
4.125363150E0,7.759128809E-1,9.508648872E0,2.297648430E0
4.127361588E0,7.823772430E-1,9.483624458E0,2.302149296E0
4.129361588E0,7.970488667E-1,9.458255768E0,2.305884361E0
4.131361588E0,7.939172983E-1,9.459788322E0,2.307330608E0
4.133544400E0,8.366298079E-1,9.373146057E0,2.291241407E0
4.135720963E0,9.390920997E-1,9.178977013E0,2.263497591E0
4.137803775E0,9.792284966E-1,9.006067276E0,2.233569860E0
4.139369400E0,9.345622659E-1,8.922700882E0,2.198633671E0
4.141361588E0,8.801755905E-1,8.894000053E0,2.172699690E0
4.143361588E0,9.084080458E-1,8.758985519E0,2.134402037E0
4.145361588E0,1.013436794E0,8.634716988E0,2.113438368E0
4.147361588E0,1.077831268E0,8.606790543E0,2.100586414E0
4.149363150E0,1.075312614E0,8.690464020E0,2.123053551E0
4.151361588E0,1.056934714E0,8.814445496E0,2.165842772E0
4.153361588E0,1.039447546E0,8.946815491E0,2.180811167E0
4.155361588E0,1.018771172E0,9.090218544E0,2.155049562E0
4.157361588E0,9.743347168E-1,9.258272171E0,2.102731705E0
4.159363150E0,9.222943783E-1,9.423692703E0,2.044159889E0
4.161361588E0,8.880094290E-1,9.573321342E0,2.000068188E0
4.163361588E0,8.510429263E-1,9.687036514E0,1.965428948E0
4.165361588E0,8.415810466E-1,9.777575493E0,1.957911134E0
4.167361588E0,8.599972725E-1,9.847284317E0,1.967277169E0
4.169363150E0,8.983715177E-1,9.896269798E0,1.976997733E0
4.171361588E0,9.404999018E-1,9.922549248E0,1.996285439E0
4.173542838E0,9.784048796E-1,9.942516327E0,2.013035059E0
4.175413150E0,1.010784030E0,9.968603134E0,2.026911974E0
4.177361588E0,1.044580579E0,9.982278824E0,2.038423300E0
4.179363150E0,1.071903229E0,9.998521805E0,2.043020248E0
4.181361588E0,1.085923672E0,1.001530933E1,2.038432837E0
4.183361588E0,1.093556404E0,1.003427124E1,2.035952568E0
4.185361588E0,1.094609857E0,1.006186199E1,2.037868023E0
4.187361588E0,1.092254043E0,1.010993862E1,2.035626888E0
4.189363150E0,1.080800056E0,1.016386509E1,2.035933256E0
4.191361588E0,1.070141077E0,1.019628239E1,2.028645277E0
4.193361588E0,1.074144244E0,1.019458771E1,2.011090994E0
4.195361588E0,1.072880149E0,1.016982269E1,1.985214591E0
4.197361588E0,1.061885834E0,1.013562298E1,1.959692359E0
4.199363150E0,1.039208055E0,1.010364628E1,1.937033653E0
