Time (s),Gyroscope x (rad/s),Gyroscope y (rad/s),Gyroscope z (rad/s)
23.01,-0.01,-0.05,-0.01
23.01,-0.01,-0.05,-0.01
23.01,-0.01,-0.06,-0.01
23.01,-0.01,-0.06,-0.01
23.01,-0.01,-0.06,-0.01
23.02,-0.01,-0.06,-0.01
23.02,-0.01,-0.07,-0.01
23.02,-0.01,-0.07,-0.01
23.02,-0.01,-0.07,-0.01
23.03,-0.01,-0.07,-0.01
23.03,-0.01,-0.08,-0.01
23.03,0.00,-0.08,-0.01
23.03,0.00,-0.08,-0.01
23.04,0.00,-0.08,-0.01
23.04,0.00,-0.08,-0.01
23.04,0.01,-0.08,-0.01
23.04,0.01,-0.08,-0.01
23.04,0.01,-0.08,-0.01
23.05,0.01,-0.08,-0.01
23.05,0.01,-0.08,-0.01
23.05,0.01,-0.07,-0.01
23.05,0.01,-0.07,-0.01
23.06,0.01,-0.07,-0.01
23.06,0.01,-0.07,-0.01
23.06,0.01,-0.07,-0.01
23.06,0.01,-0.07,-0.01
23.07,0.01,-0.07,-0.01
23.07,0.01,-0.06,-0.01
23.07,0.01,-0.06,-0.01
23.07,0.01,-0.06,-0.01
23.07,0.01,-0.05,-0.01
23.08,0.01,-0.05,-0.01
23.08,0.01,-0.05,-0.01
23.08,0.01,-0.05,-0.01
23.08,0.01,-0.04,-0.01
23.09,0.00,-0.04,-0.01
23.09,0.00,-0.04,-0.01
23.09,0.00,-0.05,-0.02
23.09,0.00,-0.04,-0.02
23.10,0.00,-0.04,-0.02
23.10,0.00,-0.04,-0.02
23.10,0.00,-0.04,-0.02
23.10,0.00,-0.04,-0.02
23.10,0.00,-0.04,-0.02
23.11,0.00,-0.04,-0.02
23.11,0.00,-0.04,-0.02
23.11,0.00,-0.04,-0.02
23.11,0.00,-0.04,-0.02
23.12,0.00,-0.04,-0.02
23.12,0.00,-0.04,-0.01
23.12,0.00,-0.04,-0.01
23.12,0.00,-0.04,-0.02
23.13,0.00,-0.05,-0.01
23.13,0.00,-0.04,-0.01
23.13,0.01,-0.05,-0.01
23.13,0.01,-0.05,-0.01
23.13,0.01,-0.05,-0.01
23.14,0.01,-0.05,-0.01
23.14,0.01,-0.06,-0.01
23.14,0.01,-0.06,-0.01
23.14,0.02,-0.06,-0.01
23.15,0.02,-0.06,-0.01
23.15,0.02,-0.06,-0.01
23.15,0.02,-0.07,-0.01
23.15,0.02,-0.07,-0.01
23.16,0.02,-0.07,-0.01
23.16,0.02,-0.07,-0.01
23.16,0.02,-0.08,-0.01
23.16,0.02,-0.08,-0.01
23.16,0.02,-0.08,-0.01
23.17,0.02,-0.08,-0.01
23.17,0.02,-0.08,0.00
23.17,0.02,-0.07,0.00
23.17,0.02,-0.07,0.00
23.18,0.01,-0.07,0.00
23.18,0.01,-0.06,0.00
23.18,0.01,-0.06,0.00
23.18,0.01,-0.05,0.00
23.19,0.01,-0.05,0.00
23.19,0.02,-0.04,0.01
23.19,0.02,-0.04,0.01
23.19,0.02,-0.03,0.00
23.19,0.02,-0.03,0.00
23.20,0.02,-0.03,0.00
23.20,0.02,-0.02,0.00
23.20,0.02,-0.02,0.00
23.20,0.02,-0.02,0.00
23.21,0.02,-0.02,0.00
23.21,0.02,-0.01,0.00
23.21,0.02,-0.01,0.00
23.21,0.02,-0.01,0.01
23.21,0.03,-0.02,0.00
23.22,0.03,-0.02,0.00
23.22,0.03,-0.02,0.00
23.22,0.03,-0.02,0.00
23.22,0.03,-0.03,0.00
23.23,0.03,-0.03,0.00
23.23,0.03,-0.04,0.00
23.23,0.03,-0.04,0.00
23.23,0.03,-0.04,0.01
23.24,0.02,-0.04,0.01
23.24,0.02,-0.05,0.01
23.24,0.02,-0.05,0.00
23.24,0.02,-0.05,0.00
23.24,0.01,-0.05,0.00
23.25,0.02,-0.05,0.00
23.25,0.01,-0.05,0.00
23.25,0.01,-0.05,0.00
23.25,0.01,-0.06,0.00
23.26,0.01,-0.06,0.00
23.26,0.01,-0.05,0.01
23.26,0.01,-0.06,0.01
23.26,0.00,-0.06,0.00
23.27,0.01,-0.06,0.01
23.27,0.01,-0.06,0.01
23.27,0.01,-0.06,0.01
23.27,0.01,-0.06,0.01
23.27,0.01,-0.06,0.01
23.28,0.01,-0.06,0.01
23.28,0.02,-0.06,0.01
23.28,0.02,-0.06,0.01
23.28,0.02,-0.06,0.01
23.29,0.02,-0.06,0.01
23.29,0.03,-0.06,0.01
23.29,0.03,-0.06,0.01
23.29,0.03,-0.06,0.01
23.30,0.03,-0.06,0.01
23.30,0.03,-0.05,0.01
23.30,0.03,-0.05,0.01
23.30,0.04,-0.05,0.01
23.30,0.04,-0.05,0.01
23.31,0.04,-0.05,0.01
23.31,0.04,-0.05,0.01
23.31,0.04,-0.05,0.01
23.31,0.04,-0.05,0.01
23.32,0.04,-0.05,0.01
23.32,0.04,-0.05,0.01
23.32,0.04,-0.04,0.01
23.32,0.04,-0.04,0.01
23.33,0.03,-0.04,0.01
23.33,0.03,-0.04,0.01
23.33,0.03,-0.04,0.00
23.33,0.03,-0.04,0.00
23.33,0.02,-0.04,0.00
23.34,0.02,-0.04,0.00
23.34,0.02,-0.03,0.00
23.34,0.02,-0.03,0.00
23.34,0.01,-0.03,0.00
23.35,0.01,-0.03,0.00
23.35,0.01,-0.03,0.00
23.35,0.01,-0.02,-0.01
23.35,0.01,-0.02,-0.01
23.36,0.01,-0.02,-0.01
23.36,0.01,-0.02,-0.01
23.36,0.01,-0.01,-0.01
23.36,0.00,-0.01,-0.01
23.36,0.00,-0.02,-0.01
23.37,0.00,-0.01,-0.01
23.37,0.00,-0.01,-0.01
23.37,0.00,-0.02,-0.01
23.37,0.00,-0.02,-0.01
23.38,-0.01,-0.02,-0.01
23.38,-0.01,-0.02,-0.01
23.38,-0.01,-0.03,-0.01
23.38,-0.01,-0.03,-0.01
23.39,-0.01,-0.03,-0.01
23.39,-0.01,-0.04,-0.01
23.39,-0.01,-0.05,-0.02
23.39,-0.01,-0.05,-0.02
23.39,-0.01,-0.05,-0.02
23.40,-0.01,-0.05,-0.02
23.40,-0.01,-0.05,-0.02
23.40,0.00,-0.05,-0.02
23.40,0.00,-0.05,-0.02
23.41,0.00,-0.05,-0.02
23.41,0.00,-0.05,-0.02
23.41,0.00,-0.05,-0.02
23.41,0.00,-0.05,-0.02
23.41,0.00,-0.05,-0.01
23.42,0.00,-0.05,-0.01
23.42,0.00,-0.04,-0.01
23.42,0.00,-0.04,-0.01
23.42,0.00,-0.03,-0.01
23.43,0.00,-0.03,-0.01
23.43,0.00,-0.03,-0.01
23.43,0.00,-0.02,-0.01
23.43,0.00,-0.02,-0.01
23.44,0.00,-0.01,-0.01
23.44,0.00,0.00,-0.01
23.44,-0.01,0.00,-0.01
23.44,-0.01,0.00,-0.01
23.44,-0.01,0.01,-0.01
23.45,-0.01,0.01,-0.01
23.45,-0.01,0.01,-0.01
23.45,-0.01,0.01,-0.01
23.45,-0.01,0.02,-0.01
23.46,-0.01,0.02,-0.01
23.46,-0.01,0.02,-0.01
23.46,-0.01,0.02,-0.01
23.46,-0.01,0.03,-0.01
23.47,-0.01,0.03,-0.01
23.47,-0.01,0.03,-0.02
23.47,-0.01,0.03,-0.02
23.47,-0.01,0.03,-0.02
23.47,-0.01,0.03,-0.02
23.48,0.00,0.02,-0.02
23.48,0.00,0.02,-0.01
23.48,0.00,0.01,-0.02
23.48,0.00,0.01,-0.02
23.49,0.00,0.00,-0.02
23.49,0.00,0.00,-0.01
23.49,0.00,0.00,-0.01
23.49,0.00,-0.01,-0.02
23.50,0.00,-0.01,-0.02
23.50,0.00,-0.02,-0.02
23.50,0.00,-0.02,-0.02
23.50,0.00,-0.03,-0.02
23.50,0.00,-0.03,-0.02
23.51,-0.01,-0.03,-0.02
23.51,-0.01,-0.04,-0.02
23.51,-0.01,-0.04,-0.02
23.51,-0.01,-0.05,-0.02
23.52,-0.01,-0.05,-0.02
23.52,-0.01,-0.05,-0.02
23.52,-0.01,-0.06,-0.03
23.52,-0.02,-0.06,-0.02
23.53,-0.02,-0.06,-0.02
23.53,-0.02,-0.06,-0.02
23.53,-0.02,-0.06,-0.02
23.53,-0.02,-0.06,-0.02
23.53,-0.02,-0.06,-0.02
23.54,-0.02,-0.06,-0.02
23.54,-0.02,-0.05,-0.02
23.54,-0.01,-0.05,-0.02
23.54,-0.01,-0.05,-0.02
23.55,-0.01,-0.05,-0.02
23.55,-0.01,-0.04,-0.02
23.55,-0.01,-0.04,-0.01
23.55,-0.01,-0.04,-0.01
23.56,-0.01,-0.03,-0.01
23.56,-0.01,-0.03,-0.01
23.56,-0.01,-0.03,-0.01
23.56,0.00,-0.03,-0.01
23.56,-0.01,-0.03,-0.01
23.57,0.00,-0.02,-0.01
23.57,0.00,-0.03,-0.01
23.57,0.00,-0.03,-0.01
23.57,0.00,-0.03,-0.01
23.58,-0.01,-0.04,-0.01
23.58,-0.01,-0.04,-0.02
23.58,-0.01,-0.05,-0.02
23.58,-0.01,-0.04,-0.02
23.59,-0.01,-0.05,-0.02
23.59,-0.02,-0.05,-0.02
23.59,-0.02,-0.05,-0.02
23.59,-0.02,-0.05,-0.03
23.59,-0.02,-0.05,-0.03
23.60,-0.02,-0.05,-0.03
23.60,-0.02,-0.05,-0.03
23.60,-0.02,-0.05,-0.03
23.60,-0.02,-0.05,-0.04
23.61,-0.02,-0.04,-0.04
23.61,-0.02,-0.04,-0.04
23.61,-0.02,-0.04,-0.04
23.61,-0.02,-0.05,-0.04
23.61,-0.02,-0.05,-0.04
23.62,-0.02,-0.05,-0.04
23.62,-0.02,-0.05,-0.05
23.62,-0.02,-0.05,-0.05
23.62,-0.02,-0.05,-0.05
23.63,-0.03,-0.06,-0.05
23.63,-0.03,-0.06,-0.05
23.63,-0.03,-0.06,-0.05
23.63,-0.03,-0.06,-0.05
23.64,-0.04,-0.06,-0.06
23.64,-0.04,-0.06,-0.06
23.64,-0.04,-0.06,-0.06
23.64,-0.04,-0.06,-0.06
23.64,-0.04,-0.06,-0.06
23.65,-0.04,-0.06,-0.06
23.65,-0.04,-0.06,-0.06
23.65,-0.04,-0.06,-0.06
23.65,-0.04,-0.06,-0.06
23.66,-0.03,-0.06,-0.06
23.66,-0.03,-0.06,-0.06
23.66,-0.03,-0.06,-0.06
23.66,-0.03,-0.05,-0.06
23.67,-0.03,-0.05,-0.06
23.67,-0.02,-0.06,-0.06
23.67,-0.02,-0.05,-0.06
23.67,-0.02,-0.05,-0.06
23.67,-0.02,-0.05,-0.06
23.68,-0.02,-0.05,-0.06
23.68,-0.02,-0.05,-0.06
23.68,-0.02,-0.05,-0.05
23.68,-0.02,-0.04,-0.05
23.69,-0.02,-0.03,-0.05
23.69,-0.03,-0.02,-0.04
23.69,-0.03,-0.01,-0.04
23.69,-0.03,0.00,-0.04
23.70,-0.03,0.01,-0.04
23.70,-0.03,0.02,-0.04
23.70,-0.03,0.03,-0.03
23.70,-0.03,0.04,-0.03
23.70,-0.04,0.05,-0.02
23.71,-0.04,0.06,-0.02
23.71,-0.04,0.06,-0.02
23.71,-0.04,0.07,-0.02
23.71,-0.04,0.07,-0.02
23.72,-0.04,0.08,-0.01
23.72,-0.03,0.08,-0.01
23.72,-0.03,0.09,-0.01
23.72,-0.03,0.09,-0.01
23.73,-0.03,0.09,-0.01
23.73,-0.03,0.09,-0.01
23.73,-0.03,0.09,-0.01
23.73,-0.02,0.08,-0.01
23.73,-0.02,0.08,-0.01
23.74,-0.02,0.08,-0.01
23.74,-0.02,0.08,-0.01
23.74,-0.02,0.08,-0.01
23.74,-0.02,0.07,-0.01
23.75,-0.02,0.07,-0.01
23.75,-0.01,0.07,-0.01
23.75,-0.01,0.07,-0.01
23.75,-0.01,0.08,-0.01
23.76,-0.01,0.07,-0.01
23.76,-0.01,0.07,-0.01
23.76,-0.01,0.07,-0.01
23.76,-0.01,0.07,-0.01
23.76,-0.01,0.08,-0.01
23.77,-0.01,0.08,-0.01
23.77,-0.01,0.08,-0.01
23.77,-0.01,0.08,-0.01
23.77,-0.02,0.09,-0.01
23.78,-0.01,0.09,0.00
23.78,-0.02,0.09,-0.01
23.78,-0.01,0.09,0.00
23.78,-0.01,0.09,0.00
23.79,-0.01,0.09,0.00
23.79,-0.01,0.09,0.00
23.79,-0.01,0.09,0.00
23.79,-0.01,0.09,0.00
23.79,-0.02,0.08,0.00
23.80,-0.01,0.08,0.00
23.80,-0.01,0.07,0.00
23.80,-0.02,0.07,-0.01
23.80,-0.02,0.06,-0.01
23.81,-0.02,0.06,-0.01
23.81,-0.02,0.05,-0.01
23.81,-0.02,0.05,-0.01
23.81,-0.02,0.04,-0.01
23.82,-0.02,0.04,-0.01
23.82,-0.02,0.04,-0.01
23.82,-0.02,0.04,-0.01
23.82,-0.02,0.04,-0.01
23.82,-0.02,0.04,-0.01
23.83,-0.03,0.03,-0.01
23.83,-0.03,0.03,-0.01
23.83,-0.03,0.03,-0.02
23.83,-0.03,0.03,-0.01
23.84,-0.03,0.03,-0.01
23.84,-0.03,0.03,-0.01
23.84,-0.02,0.03,-0.01
23.84,-0.02,0.03,-0.01
23.84,-0.02,0.03,-0.01
23.85,-0.02,0.03,-0.01
23.85,-0.02,0.03,-0.01
23.85,-0.02,0.02,-0.01
23.85,-0.02,0.02,0.00
23.86,-0.02,0.02,0.00
23.86,-0.01,0.01,0.00
23.86,-0.01,0.01,0.00
23.86,-0.01,0.01,0.00
23.87,-0.01,0.00,0.00
23.87,-0.01,0.00,0.00
23.87,0.00,-0.01,0.00
23.87,0.00,-0.01,0.00
23.87,0.00,-0.01,0.00
23.88,0.00,-0.01,0.00
23.88,0.00,-0.01,0.00
23.88,0.00,-0.01,0.00
23.88,0.01,-0.02,0.00
23.89,0.01,-0.02,0.00
23.89,0.01,-0.01,0.00
23.89,0.01,-0.02,0.00
23.89,0.00,-0.01,0.00
23.90,0.00,-0.01,0.00
23.90,0.00,-0.01,0.00
23.90,0.00,-0.01,0.00
23.90,0.00,-0.01,0.00
23.90,0.00,-0.01,0.01
23.91,0.00,-0.01,0.01
23.91,0.00,-0.02,0.01
23.91,0.00,-0.01,0.01
23.91,0.00,-0.02,0.01
23.92,0.00,-0.01,0.01
23.92,0.00,-0.01,0.01
23.92,0.00,-0.02,0.01
23.92,0.00,-0.02,0.01
23.93,0.00,-0.02,0.00
23.93,0.00,-0.02,0.00
23.93,-0.01,-0.02,0.00
23.93,-0.01,-0.02,0.00
23.93,-0.01,-0.02,0.00
23.94,-0.01,-0.02,0.00
23.94,-0.01,-0.02,0.00
23.94,-0.01,-0.02,0.00
23.94,-0.01,-0.02,0.00
23.95,-0.01,-0.02,0.00
23.95,-0.01,-0.02,0.00
23.95,0.00,-0.03,0.00
23.95,0.00,-0.03,0.00
23.96,0.00,-0.03,0.00
23.96,0.00,-0.03,0.00
23.96,0.00,-0.03,0.00
23.96,0.01,-0.03,0.00
23.96,0.01,-0.02,0.00
23.97,0.01,-0.03,0.00
23.97,0.01,-0.03,0.00
23.97,0.01,-0.03,0.00
23.97,0.01,-0.02,0.00
23.98,0.01,-0.02,0.00
23.98,0.01,-0.03,0.01
23.98,0.01,-0.02,0.01
23.98,0.02,-0.02,0.01
23.99,0.02,-0.02,0.01
23.99,0.02,-0.02,0.01
23.99,0.02,-0.02,0.01
23.99,0.02,-0.02,0.01
23.99,0.02,-0.02,0.01
24.00,0.02,-0.02,0.01
24.00,0.02,-0.02,0.01
24.00,0.02,-0.02,0.01
24.00,0.02,-0.02,0.01
24.01,0.02,-0.02,0.01
24.01,0.02,-0.02,0.01
24.01,0.02,-0.02,0.01
24.01,0.02,-0.03,0.01
24.02,0.03,-0.03,0.01
24.02,0.03,-0.03,0.01
24.02,0.03,-0.03,0.01
24.02,0.04,-0.03,0.01
24.02,0.04,-0.03,0.02
24.03,0.05,-0.03,0.02
24.03,0.06,-0.02,0.02
24.03,0.06,-0.02,0.02
24.03,0.06,-0.02,0.02
24.04,0.07,-0.02,0.03
24.04,0.07,-0.02,0.03
24.04,0.07,-0.02,0.03
24.04,0.07,-0.02,0.03
24.04,0.07,-0.02,0.03
24.05,0.08,-0.02,0.04
24.05,0.08,-0.01,0.04
24.05,0.08,-0.01,0.04
24.05,0.08,-0.01,0.04
24.06,0.09,0.00,0.04
24.06,0.08,0.00,0.04
24.06,0.08,0.00,0.04
24.06,0.08,0.01,0.04
24.07,0.08,0.01,0.04
24.07,0.07,0.01,0.04
24.07,0.07,0.01,0.03
24.07,0.06,0.01,0.03
24.07,0.05,0.01,0.03
24.08,0.04,0.01,0.03
24.08,0.03,0.01,0.03
24.08,0.02,0.01,0.03
24.08,0.01,0.01,0.03
24.09,0.00,0.01,0.03
24.09,0.00,0.00,0.02
24.09,-0.01,0.00,0.02
24.09,-0.02,0.00,0.02
24.10,-0.02,-0.01,0.02
24.10,-0.03,-0.01,0.02
24.10,-0.03,-0.01,0.01
24.10,-0.03,-0.01,0.01
24.10,-0.03,-0.02,0.01
24.11,-0.03,-0.02,0.01
24.11,-0.03,-0.03,0.00
24.11,-0.03,-0.04,0.00
24.11,-0.03,-0.04,0.00
24.12,-0.03,-0.04,0.00
24.12,-0.03,-0.04,-0.01
24.12,-0.03,-0.05,-0.01
24.12,-0.03,-0.06,-0.01
24.13,-0.03,-0.06,-0.02
24.13,-0.03,-0.06,-0.02
24.13,-0.03,-0.06,-0.02
24.13,-0.03,-0.06,-0.03
24.13,-0.03,-0.06,-0.03
24.14,-0.03,-0.06,-0.03
24.14,-0.03,-0.06,-0.03
24.14,-0.03,-0.05,-0.03
24.14,-0.03,-0.05,-0.03
24.15,-0.03,-0.05,-0.03
24.15,-0.03,-0.05,-0.03
24.15,-0.03,-0.04,-0.03
24.15,-0.03,-0.03,-0.02
24.16,-0.03,-0.02,-0.02
24.16,-0.03,0.00,-0.02
24.16,-0.03,0.01,-0.02
24.16,-0.02,0.02,-0.02
24.16,-0.03,0.03,-0.02
24.17,-0.03,0.04,-0.02
24.17,-0.03,0.05,-0.02
24.17,-0.03,0.06,-0.02
24.17,-0.04,0.07,-0.02
24.18,-0.04,0.07,-0.02
24.18,-0.04,0.07,-0.02
24.18,-0.04,0.07,-0.02
24.18,-0.05,0.08,-0.02
24.19,-0.05,0.08,-0.02
24.19,-0.05,0.08,-0.02
24.19,-0.05,0.09,-0.02
24.19,-0.05,0.09,-0.02
24.19,-0.05,0.09,-0.02
24.20,-0.05,0.09,-0.02
24.20,-0.05,0.09,-0.02
24.20,-0.05,0.09,-0.02
24.20,-0.05,0.09,-0.02
24.21,-0.05,0.09,-0.02
24.21,-0.05,0.08,-0.02
24.21,-0.05,0.08,-0.01
24.21,-0.05,0.08,-0.02
24.22,-0.06,0.07,-0.01
24.22,-0.06,0.07,-0.01
24.22,-0.06,0.07,-0.01
24.22,-0.07,0.07,-0.01
24.22,-0.07,0.07,-0.02
24.23,-0.08,0.07,-0.02
24.23,-0.08,0.06,-0.02
24.23,-0.08,0.06,-0.02
24.23,-0.08,0.05,-0.02
24.24,-0.08,0.05,-0.02
24.24,-0.08,0.05,-0.02
24.24,-0.08,0.05,-0.02
24.24,-0.08,0.04,-0.02
24.24,-0.08,0.03,-0.03
24.25,-0.07,0.03,-0.03
24.25,-0.07,0.03,-0.03
24.25,-0.07,0.02,-0.03
24.25,-0.07,0.01,-0.03
24.26,-0.07,0.01,-0.03
24.26,-0.06,0.01,-0.03
24.26,-0.06,0.01,-0.03
24.26,-0.06,0.01,-0.03
24.27,-0.05,0.01,-0.03
24.27,-0.04,0.01,-0.03
24.27,-0.04,0.02,-0.03
24.27,-0.04,0.02,-0.03
24.27,-0.04,0.02,-0.03
24.28,-0.03,0.02,-0.03
24.28,-0.03,0.03,-0.03
24.28,-0.03,0.03,-0.03
24.28,-0.02,0.03,-0.02
24.29,-0.02,0.04,-0.02
24.29,-0.02,0.05,-0.02
24.29,-0.02,0.06,-0.01
24.29,-0.02,0.06,-0.01
24.30,-0.01,0.07,-0.01
24.30,-0.01,0.08,0.00
24.30,-0.01,0.09,0.00
24.30,0.00,0.09,0.00
24.30,0.00,0.10,0.01
24.31,0.00,0.11,0.01
24.31,0.00,0.11,0.01
24.31,0.00,0.11,0.01
24.31,0.00,0.12,0.01
24.32,-0.01,0.12,0.01
24.32,-0.01,0.13,0.02
24.32,-0.01,0.12,0.02
24.32,-0.02,0.12,0.02
24.33,-0.02,0.12,0.02
24.33,-0.02,0.11,0.02
24.33,-0.02,0.10,0.02
24.33,-0.03,0.10,0.02
24.33,-0.03,0.09,0.02
24.34,-0.02,0.08,0.02
24.34,-0.03,0.07,0.01
24.34,-0.02,0.06,0.01
24.34,-0.02,0.05,0.01
24.35,-0.02,0.04,0.01
24.35,-0.01,0.03,0.01
24.35,-0.01,0.02,0.01
24.35,-0.01,0.01,0.01
24.36,0.00,0.00,0.01
24.36,0.00,-0.01,0.01
24.36,0.01,-0.01,0.01
24.36,0.01,-0.02,0.01
24.36,0.01,-0.02,0.01
24.37,0.02,-0.03,0.02
24.37,0.02,-0.03,0.02
24.37,0.02,-0.04,0.02
24.37,0.03,-0.04,0.02
24.38,0.03,-0.04,0.03
24.38,0.03,-0.04,0.03
24.38,0.03,-0.05,0.04
24.38,0.04,-0.05,0.04
24.39,0.04,-0.05,0.04
24.39,0.04,-0.05,0.04
24.39,0.04,-0.05,0.05
24.39,0.04,-0.06,0.05
24.39,0.05,-0.06,0.05
24.40,0.05,-0.07,0.05
24.40,0.05,-0.07,0.05
24.40,0.05,-0.07,0.05
24.40,0.04,-0.07,0.05
24.41,0.04,-0.08,0.05
24.41,0.04,-0.08,0.05
24.41,0.03,-0.09,0.04
24.41,0.03,-0.09,0.04
24.42,0.02,-0.09,0.04
24.42,0.01,-0.10,0.04
24.42,0.01,-0.10,0.04
24.42,0.00,-0.10,0.04
24.42,-0.01,-0.10,0.04
24.43,-0.02,-0.11,0.03
24.43,-0.03,-0.11,0.03
24.43,-0.03,-0.12,0.03
24.43,-0.04,-0.13,0.03
24.44,-0.05,-0.14,0.02
24.44,-0.05,-0.16,0.02
24.44,-0.06,-0.17,0.01
24.44,-0.07,-0.18,0.01
24.44,-0.08,-0.20,0.01
24.45,-0.09,-0.22,0.01
24.45,-0.10,-0.23,0.00
24.45,-0.11,-0.24,0.00
24.45,-0.12,-0.25,-0.01
24.46,-0.13,-0.25,-0.01
24.46,-0.13,-0.25,-0.01
24.46,-0.13,-0.25,-0.02
24.46,-0.13,-0.24,-0.02
24.47,-0.13,-0.23,-0.03
24.47,-0.13,-0.22,-0.03
24.47,-0.12,-0.21,-0.03
24.47,-0.12,-0.20,-0.04
24.47,-0.12,-0.19,-0.04
24.48,-0.11,-0.18,-0.05
24.48,-0.11,-0.18,-0.05
24.48,-0.11,-0.17,-0.05
24.48,-0.10,-0.16,-0.05
24.49,-0.09,-0.15,-0.05
24.49,-0.09,-0.14,-0.05
24.49,-0.08,-0.14,-0.06
24.49,-0.08,-0.13,-0.06
24.50,-0.07,-0.13,-0.06
24.50,-0.07,-0.13,-0.06
24.50,-0.06,-0.14,-0.06
24.50,-0.06,-0.14,-0.06
24.50,-0.05,-0.14,-0.06
24.51,-0.05,-0.15,-0.07
24.51,-0.04,-0.15,-0.07
24.51,-0.04,-0.16,-0.07
24.51,-0.04,-0.16,-0.07
24.52,-0.03,-0.17,-0.07
24.52,-0.03,-0.18,-0.07
24.52,-0.03,-0.17,-0.07
24.52,-0.02,-0.17,-0.07
24.53,-0.01,-0.18,-0.06
24.53,-0.01,-0.18,-0.06
24.53,0.00,-0.18,-0.06
24.53,0.01,-0.17,-0.06
24.53,0.01,-0.18,-0.06
24.54,0.02,-0.17,-0.06
24.54,0.03,-0.18,-0.06
24.54,0.03,-0.18,-0.06
24.54,0.03,-0.19,-0.06
24.55,0.04,-0.20,-0.06
24.55,0.04,-0.21,-0.06
24.55,0.04,-0.22,-0.06
24.55,0.03,-0.23,-0.06
24.56,0.03,-0.25,-0.06
24.56,0.03,-0.27,-0.05
24.56,0.03,-0.29,-0.05
24.56,0.02,-0.32,-0.05
24.56,0.02,-0.35,-0.05
24.57,0.01,-0.37,-0.05
24.57,0.00,-0.40,-0.04
24.57,-0.01,-0.41,-0.04
24.57,-0.02,-0.43,-0.03
24.58,-0.03,-0.45,-0.03
24.58,-0.04,-0.46,-0.02
24.58,-0.05,-0.46,-0.02
24.58,-0.06,-0.47,-0.02
24.59,-0.07,-0.47,-0.01
24.59,-0.08,-0.46,0.00
24.59,-0.09,-0.45,0.01
24.59,-0.10,-0.44,0.02
24.59,-0.10,-0.44,0.02
24.60,-0.11,-0.42,0.03
24.60,-0.11,-0.41,0.04
24.60,-0.12,-0.39,0.04
24.60,-0.12,-0.37,0.05
24.61,-0.12,-0.34,0.05
24.61,-0.12,-0.33,0.06
24.61,-0.13,-0.31,0.07
24.61,-0.13,-0.30,0.07
24.62,-0.13,-0.30,0.08
24.62,-0.13,-0.30,0.08
24.62,-0.13,-0.30,0.08
24.62,-0.14,-0.30,0.09
24.62,-0.14,-0.30,0.09
24.63,-0.14,-0.30,0.09
24.63,-0.15,-0.30,0.08
24.63,-0.14,-0.29,0.08
24.63,-0.14,-0.28,0.08
24.64,-0.14,-0.27,0.08
24.64,-0.14,-0.26,0.08
24.64,-0.14,-0.25,0.08
24.64,-0.14,-0.25,0.08
24.65,-0.14,-0.24,0.08
24.65,-0.14,-0.23,0.07
24.65,-0.14,-0.22,0.07
24.65,-0.14,-0.21,0.07
24.65,-0.14,-0.20,0.07
24.66,-0.14,-0.19,0.07
24.66,-0.14,-0.18,0.07
24.66,-0.15,-0.17,0.07
24.66,-0.16,-0.16,0.07
24.67,-0.16,-0.14,0.07
24.67,-0.16,-0.12,0.08
24.67,-0.17,-0.10,0.08
24.67,-0.17,-0.08,0.09
24.67,-0.18,-0.06,0.09
24.68,-0.19,-0.04,0.09
24.68,-0.19,-0.02,0.09
24.68,-0.19,0.00,0.09
24.68,-0.20,0.02,0.10
24.69,-0.20,0.05,0.10
24.69,-0.20,0.07,0.10
24.69,-0.20,0.09,0.10
24.69,-0.21,0.10,0.11
24.70,-0.21,0.11,0.11
24.70,-0.21,0.12,0.11
24.70,-0.22,0.12,0.11
24.70,-0.23,0.13,0.11
24.70,-0.23,0.14,0.11
24.71,-0.24,0.14,0.11
24.71,-0.24,0.15,0.11
24.71,-0.24,0.15,0.10
24.71,-0.24,0.16,0.10
24.72,-0.24,0.17,0.09
24.72,-0.24,0.19,0.09
24.72,-0.23,0.21,0.08
24.72,-0.23,0.22,0.08
24.73,-0.23,0.24,0.08
24.73,-0.23,0.26,0.07
24.73,-0.23,0.27,0.07
24.73,-0.23,0.29,0.07
24.73,-0.23,0.31,0.06
24.74,-0.23,0.33,0.06
24.74,-0.23,0.34,0.06
24.74,-0.23,0.36,0.06
24.74,-0.22,0.39,0.05
24.75,-0.22,0.41,0.04
24.75,-0.21,0.42,0.04
24.75,-0.21,0.43,0.03
24.75,-0.20,0.45,0.03
24.76,-0.20,0.46,0.02
24.76,-0.20,0.47,0.01
24.76,-0.20,0.48,0.00
24.76,-0.20,0.48,-0.01
24.76,-0.21,0.49,-0.02
24.77,-0.21,0.50,-0.03
24.77,-0.22,0.50,-0.03
24.77,-0.23,0.51,-0.04
24.77,-0.23,0.52,-0.05
24.78,-0.24,0.54,-0.06
24.78,-0.25,0.55,-0.08
24.78,-0.26,0.57,-0.09
24.78,-0.27,0.59,-0.10
24.79,-0.28,0.61,-0.11
24.79,-0.28,0.63,-0.12
24.79,-0.29,0.66,-0.13
24.79,-0.30,0.68,-0.14
24.79,-0.30,0.69,-0.15
24.80,-0.31,0.71,-0.16
24.80,-0.31,0.72,-0.16
24.80,-0.32,0.74,-0.17
24.80,-0.32,0.76,-0.18
24.81,-0.33,0.77,-0.18
24.81,-0.33,0.78,-0.19
24.81,-0.33,0.79,-0.19
24.81,-0.33,0.79,-0.19
24.82,-0.34,0.80,-0.19
24.82,-0.34,0.80,-0.20
24.82,-0.34,0.80,-0.20
24.82,-0.34,0.79,-0.20
24.82,-0.33,0.79,-0.21
24.83,-0.33,0.78,-0.21
24.83,-0.32,0.78,-0.21
24.83,-0.32,0.77,-0.22
24.83,-0.31,0.76,-0.22
24.84,-0.30,0.75,-0.22
24.84,-0.30,0.74,-0.22
24.84,-0.30,0.73,-0.22
24.84,-0.30,0.72,-0.22
24.85,-0.30,0.70,-0.23
24.85,-0.31,0.68,-0.23
24.85,-0.31,0.66,-0.23
24.85,-0.32,0.64,-0.23
24.85,-0.33,0.62,-0.24
24.86,-0.33,0.60,-0.24
24.86,-0.34,0.58,-0.24
24.86,-0.34,0.56,-0.24
24.86,-0.34,0.55,-0.24
24.87,-0.34,0.54,-0.24
24.87,-0.33,0.53,-0.24
24.87,-0.33,0.53,-0.24
24.87,-0.32,0.52,-0.24
24.87,-0.32,0.51,-0.24
24.88,-0.31,0.49,-0.24
24.88,-0.31,0.47,-0.24
24.88,-0.31,0.46,-0.23
24.88,-0.30,0.44,-0.23
24.89,-0.30,0.43,-0.23
24.89,-0.30,0.42,-0.22
24.89,-0.30,0.41,-0.21
24.89,-0.30,0.41,-0.20
24.90,-0.30,0.40,-0.20
24.90,-0.31,0.40,-0.19
24.90,-0.32,0.40,-0.18
24.90,-0.34,0.40,-0.16
24.90,-0.35,0.41,-0.15
24.91,-0.37,0.42,-0.14
24.91,-0.38,0.44,-0.12
24.91,-0.40,0.45,-0.11
24.91,-0.42,0.47,-0.10
24.92,-0.43,0.48,-0.09
24.92,-0.44,0.50,-0.08
24.92,-0.45,0.52,-0.07
24.92,-0.46,0.53,-0.07
24.93,-0.46,0.54,-0.06
24.93,-0.46,0.56,-0.06
24.93,-0.45,0.56,-0.06
24.93,-0.45,0.57,-0.06
24.93,-0.44,0.57,-0.06
24.94,-0.43,0.58,-0.06
24.94,-0.42,0.58,-0.06
24.94,-0.41,0.58,-0.06
24.94,-0.40,0.59,-0.06
24.95,-0.39,0.59,-0.06
24.95,-0.38,0.59,-0.06
24.95,-0.38,0.59,-0.06
24.95,-0.37,0.59,-0.06
24.96,-0.37,0.58,-0.06
24.96,-0.36,0.58,-0.06
24.96,-0.37,0.58,-0.06
24.96,-0.37,0.58,-0.06
24.96,-0.37,0.57,-0.06
24.97,-0.38,0.57,-0.06
24.97,-0.39,0.57,-0.06
24.97,-0.40,0.57,-0.05
24.97,-0.41,0.56,-0.05
24.98,-0.42,0.56,-0.05
24.98,-0.43,0.56,-0.05
24.98,-0.44,0.56,-0.04
24.98,-0.46,0.56,-0.04
24.99,-0.47,0.55,-0.04
24.99,-0.48,0.55,-0.03
24.99,-0.50,0.54,-0.03
24.99,-0.51,0.53,-0.02
24.99,-0.53,0.52,-0.02
25.00,-0.54,0.51,-0.01
25.00,-0.56,0.51,-0.01
25.00,-0.57,0.50,-0.01
25.00,-0.58,0.49,-0.01
25.01,-0.59,0.49,-0.01
25.01,-0.60,0.49,-0.01
25.01,-0.60,0.48,-0.01
25.01,-0.60,0.49,-0.01
25.02,-0.60,0.49,-0.02
25.02,-0.60,0.50,-0.02
25.02,-0.58,0.50,-0.03
25.02,-0.57,0.51,-0.04
25.02,-0.55,0.52,-0.05
25.03,-0.53,0.52,-0.07
25.03,-0.50,0.53,-0.08
25.03,-0.48,0.54,-0.10
25.03,-0.44,0.55,-0.11
25.04,-0.41,0.57,-0.13
25.04,-0.37,0.57,-0.14
25.04,-0.34,0.58,-0.15
25.04,-0.30,0.59,-0.16
25.05,-0.27,0.59,-0.18
25.05,-0.23,0.60,-0.18
25.05,-0.20,0.59,-0.19
25.05,-0.18,0.58,-0.19
25.05,-0.15,0.57,-0.19
25.06,-0.13,0.56,-0.19
25.06,-0.12,0.54,-0.18
25.06,-0.11,0.51,-0.18
25.06,-0.10,0.48,-0.17
25.07,-0.09,0.45,-0.17
25.07,-0.08,0.41,-0.16
25.07,-0.07,0.38,-0.15
25.07,-0.07,0.34,-0.14
25.07,-0.06,0.30,-0.13
25.08,-0.05,0.27,-0.12
25.08,-0.04,0.23,-0.11
25.08,-0.02,0.19,-0.09
25.08,0.00,0.16,-0.08
25.09,0.02,0.14,-0.06
25.09,0.04,0.12,-0.04
25.09,0.07,0.10,-0.02
25.09,0.10,0.09,0.00
25.10,0.14,0.09,0.02
25.10,0.18,0.09,0.03
25.10,0.22,0.08,0.05
25.10,0.26,0.09,0.07
25.10,0.31,0.09,0.09
25.11,0.35,0.10,0.10
25.11,0.40,0.11,0.12
25.11,0.45,0.11,0.14
25.11,0.50,0.12,0.15
25.12,0.55,0.13,0.17
25.12,0.60,0.13,0.19
25.12,0.65,0.14,0.21
25.12,0.70,0.14,0.23
25.13,0.75,0.14,0.24
25.13,0.80,0.14,0.26
25.13,0.86,0.15,0.28
25.13,0.91,0.15,0.29
25.13,0.96,0.15,0.31
25.14,1.02,0.15,0.32
25.14,1.07,0.15,0.34
25.14,1.13,0.14,0.35
25.14,1.18,0.13,0.36
25.15,1.24,0.12,0.36
25.15,1.30,0.09,0.36
25.15,1.36,0.07,0.36
25.15,1.42,0.04,0.37
25.16,1.49,0.01,0.36
25.16,1.56,-0.02,0.37
25.16,1.63,-0.05,0.36
25.16,1.69,-0.08,0.37
25.16,1.76,-0.11,0.36
25.17,1.83,-0.14,0.36
25.17,1.89,-0.16,0.37
25.17,1.95,-0.19,0.37
25.17,2.00,-0.21,0.38
25.18,2.05,-0.23,0.40
25.18,2.10,-0.25,0.42
25.18,2.14,-0.27,0.44
25.18,2.19,-0.29,0.46
25.19,2.23,-0.29,0.49
25.19,2.28,-0.29,0.52
25.19,2.33,-0.29,0.55
25.19,2.37,-0.29,0.58
25.19,2.41,-0.29,0.62
25.20,2.45,-0.29,0.66
25.20,2.50,-0.29,0.70
25.20,2.54,-0.28,0.74
25.20,2.58,-0.27,0.79
25.21,2.63,-0.26,0.82
25.21,2.68,-0.24,0.85
25.21,2.73,-0.23,0.88
25.21,2.78,-0.20,0.91
25.22,2.82,-0.19,0.94
25.22,2.87,-0.17,0.96
25.22,2.91,-0.17,0.99
25.22,2.95,-0.17,1.00
25.22,2.98,-0.19,1.02
25.23,3.01,-0.22,1.03
25.23,3.03,-0.26,1.03
25.23,3.05,-0.30,1.03
25.23,3.07,-0.35,1.02
25.24,3.09,-0.39,1.02
25.24,3.11,-0.43,1.01
25.24,3.12,-0.46,1.00
25.24,3.14,-0.48,1.00
25.25,3.15,-0.50,1.00
25.25,3.16,-0.50,1.00
25.25,3.16,-0.49,1.00
25.25,3.15,-0.45,1.00
25.25,3.13,-0.39,1.00
25.26,3.10,-0.32,0.99
25.26,3.06,-0.27,0.99
25.26,3.01,-0.24,0.98
25.26,2.94,-0.23,0.98
25.27,2.86,-0.21,0.98
25.27,2.77,-0.19,0.98
25.27,2.68,-0.15,1.00
25.27,2.60,-0.09,1.02
25.27,2.52,-0.02,1.05
25.28,2.44,0.05,1.08
25.28,2.37,0.14,1.10
25.28,2.31,0.25,1.11
25.28,2.24,0.33,1.12
25.29,2.18,0.38,1.14
25.29,2.12,0.40,1.16
25.29,2.05,0.38,1.18
25.29,1.95,0.30,1.20
25.30,1.83,0.18,1.23
25.30,1.71,0.08,1.29
25.30,1.60,0.03,1.36
25.30,1.48,-0.01,1.44
25.30,1.38,-0.02,1.52
25.31,1.29,0.02,1.60
25.31,1.21,0.06,1.68
25.31,1.15,0.08,1.75
25.31,1.10,0.09,1.82
25.32,1.06,0.09,1.87
25.32,1.04,0.09,1.91
25.32,1.03,0.11,1.93
25.32,1.03,0.14,1.95
25.33,1.03,0.18,1.95
25.33,1.04,0.21,1.94
25.33,1.05,0.23,1.92
25.33,1.07,0.23,1.89
25.33,1.09,0.13,1.86
25.34,1.12,-0.07,1.81
25.34,1.17,-0.17,1.78
25.34,1.21,-0.28,1.75
25.34,1.25,-0.40,1.72
25.35,1.28,-0.52,1.68
25.35,1.30,-0.63,1.65
25.35,1.30,-0.74,1.62
25.35,1.31,-0.87,1.59
25.36,1.29,-0.94,1.56
25.36,1.26,-1.02,1.52
25.36,1.22,-1.06,1.48
25.36,1.18,-1.08,1.44
25.36,1.14,-1.10,1.40
25.37,1.09,-1.10,1.35
25.37,1.04,-1.08,1.31
25.37,0.98,-1.05,1.26
25.37,0.94,-1.02,1.22
25.38,0.89,-1.01,1.19
25.38,0.86,-1.01,1.15
25.38,0.82,-1.00,1.13
25.38,0.79,-1.01,1.10
25.39,0.75,-1.01,1.08
25.39,0.72,-1.02,1.05
25.39,0.69,-1.02,1.02
25.39,0.66,-1.02,1.00
25.39,0.63,-1.02,0.98
25.40,0.60,-1.02,0.95
25.40,0.58,-1.01,0.93
25.40,0.55,-1.01,0.91
25.40,0.51,-1.01,0.88
25.41,0.48,-1.00,0.86
25.41,0.45,-0.99,0.83
25.41,0.41,-0.98,0.81
25.41,0.38,-0.97,0.79
25.42,0.34,-0.95,0.77
25.42,0.30,-0.92,0.76
25.42,0.26,-0.90,0.75
25.42,0.22,-0.87,0.73
25.42,0.18,-0.86,0.71
25.43,0.14,-0.84,0.69
25.43,0.10,-0.83,0.66
25.43,0.06,-0.83,0.63
25.43,0.02,-0.83,0.60
25.44,-0.02,-0.83,0.56
25.44,-0.06,-0.83,0.52
25.44,-0.10,-0.83,0.49
25.44,-0.13,-0.84,0.44
25.45,-0.17,-0.85,0.40
25.45,-0.21,-0.86,0.36
25.45,-0.24,-0.87,0.31
25.45,-0.28,-0.89,0.27
25.45,-0.31,-0.90,0.22
25.46,-0.35,-0.92,0.17
25.46,-0.38,-0.94,0.12
25.46,-0.41,-0.95,0.07
25.46,-0.44,-0.96,0.02
25.47,-0.48,-0.98,-0.03
25.47,-0.51,-0.99,-0.08
25.47,-0.54,-1.01,-0.13
25.47,-0.58,-1.03,-0.18
25.48,-0.61,-1.04,-0.23
25.48,-0.65,-1.05,-0.29
25.48,-0.68,-1.07,-0.33
25.48,-0.72,-1.07,-0.38
25.48,-0.76,-1.08,-0.43
25.49,-0.79,-1.09,-0.47
25.49,-0.83,-1.09,-0.52
25.49,-0.86,-1.09,-0.56
25.49,-0.90,-1.09,-0.60
25.50,-0.94,-1.08,-0.65
25.50,-0.98,-1.07,-0.69
25.50,-1.02,-1.07,-0.73
25.50,-1.05,-1.06,-0.78
25.50,-1.08,-1.05,-0.81
25.51,-1.12,-1.04,-0.85
25.51,-1.16,-1.04,-0.88
25.51,-1.19,-1.04,-0.92
25.51,-1.22,-1.04,-0.96
25.52,-1.24,-1.07,-0.99
25.52,-1.26,-1.08,-1.02
25.52,-1.28,-1.10,-1.05
25.52,-1.30,-1.12,-1.08
25.53,-1.31,-1.15,-1.10
25.53,-1.31,-1.18,-1.13
25.53,-1.32,-1.21,-1.16
25.53,-1.32,-1.24,-1.18
25.53,-1.32,-1.27,-1.21
25.54,-1.31,-1.31,-1.24
25.54,-1.32,-1.33,-1.26
25.54,-1.32,-1.36,-1.29
25.54,-1.33,-1.39,-1.31
25.55,-1.33,-1.42,-1.33
25.55,-1.34,-1.46,-1.35
25.55,-1.35,-1.49,-1.37
25.55,-1.35,-1.51,-1.38
25.56,-1.35,-1.53,-1.39
25.56,-1.34,-1.55,-1.38
25.56,-1.33,-1.58,-1.37
25.56,-1.30,-1.60,-1.36
25.56,-1.26,-1.62,-1.33
25.57,-1.21,-1.63,-1.31
25.57,-1.14,-1.65,-1.27
25.57,-1.06,-1.66,-1.22
25.57,-0.96,-1.66,-1.16
25.58,-0.86,-1.65,-1.09
25.58,-0.74,-1.63,-1.01
25.58,-0.61,-1.61,-0.92
25.58,-0.49,-1.57,-0.82
25.59,-0.36,-1.53,-0.70
25.59,-0.24,-1.48,-0.58
25.59,-0.13,-1.42,-0.46
25.59,-0.04,-1.36,-0.33
25.59,0.03,-1.30,-0.19
25.60,0.08,-1.26,-0.03
25.60,0.09,-1.21,0.12
25.60,0.10,-1.17,0.27
25.60,0.07,-1.14,0.42
25.61,0.04,-1.13,0.56
25.61,0.00,-1.14,0.68
25.61,-0.04,-1.17,0.76
25.61,-0.08,-1.24,0.82
25.62,-0.10,-1.32,0.86
25.62,-0.10,-1.41,0.88
25.62,-0.10,-1.48,0.90
25.62,-0.09,-1.55,0.92
25.62,-0.07,-1.60,0.93
25.63,-0.05,-1.64,0.95
25.63,-0.03,-1.68,0.96
25.63,-0.02,-1.70,0.97
25.63,0.00,-1.72,0.98
25.64,0.02,-1.73,0.97
25.64,0.05,-1.74,0.96
25.64,0.07,-1.75,0.93
25.64,0.09,-1.75,0.88
25.65,0.11,-1.73,0.83
25.65,0.13,-1.70,0.76
25.65,0.14,-1.65,0.67
25.65,0.16,-1.56,0.57
25.65,0.19,-1.46,0.46
25.66,0.22,-1.34,0.34
25.66,0.26,-1.20,0.21
25.66,0.31,-1.05,0.09
25.66,0.37,-0.89,-0.03
25.67,0.42,-0.75,-0.15
25.67,0.46,-0.62,-0.26
25.67,0.48,-0.50,-0.38
25.67,0.49,-0.41,-0.51
25.68,0.48,-0.36,-0.64
25.68,0.45,-0.35,-0.77
25.68,0.41,-0.40,-0.90
25.68,0.38,-0.50,-1.01
25.68,0.34,-0.66,-1.12
25.69,0.32,-0.84,-1.20
25.69,0.32,-1.01,-1.25
25.69,0.32,-1.17,-1.26
25.69,0.35,-1.32,-1.24
25.70,0.39,-1.46,-1.20
25.70,0.43,-1.58,-1.12
25.70,0.47,-1.67,-1.00
25.70,0.51,-1.70,-0.85
25.70,0.53,-1.68,-0.68
25.71,0.51,-1.58,-0.49
25.71,0.47,-1.41,-0.31
25.71,0.39,-1.18,-0.17
25.71,0.27,-0.90,-0.07
25.72,0.13,-0.58,0.00
25.72,-0.03,-0.24,0.05
25.72,-0.20,0.11,0.08
25.72,-0.38,0.47,0.11
25.73,-0.54,0.80,0.12
25.73,-0.68,1.10,0.14
25.73,-0.79,1.36,0.14
25.73,-0.88,1.60,0.14
25.73,-0.94,1.81,0.14
25.74,-0.99,2.00,0.13
25.74,-1.03,2.18,0.12
25.74,-1.06,2.33,0.10
25.74,-1.08,2.46,0.09
25.75,-1.11,2.56,0.07
25.75,-1.14,2.64,0.06
25.75,-1.16,2.69,0.03
25.75,-1.18,2.70,0.01
25.76,-1.20,2.70,-0.02
25.76,-1.21,2.69,-0.05
25.76,-1.22,2.67,-0.08
25.76,-1.22,2.64,-0.12
25.76,-1.22,2.61,-0.16
25.77,-1.23,2.57,-0.20
25.77,-1.23,2.53,-0.24
25.77,-1.22,2.48,-0.29
25.77,-1.22,2.43,-0.33
25.78,-1.22,2.39,-0.36
25.78,-1.21,2.35,-0.40
25.78,-1.21,2.32,-0.43
25.78,-1.20,2.29,-0.45
25.79,-1.20,2.26,-0.48
25.79,-1.19,2.22,-0.49
25.79,-1.19,2.19,-0.51
25.79,-1.19,2.14,-0.52
25.79,-1.19,2.10,-0.53
25.80,-1.19,2.05,-0.54
25.80,-1.19,2.00,-0.54
25.80,-1.19,1.94,-0.54
25.80,-1.20,1.88,-0.54
25.81,-1.20,1.82,-0.54
25.81,-1.20,1.74,-0.54
25.81,-1.21,1.66,-0.53
25.81,-1.23,1.56,-0.52
25.82,-1.25,1.46,-0.51
25.82,-1.26,1.36,-0.49
25.82,-1.27,1.27,-0.47
25.82,-1.27,1.19,-0.46
25.82,-1.27,1.10,-0.44
25.83,-1.26,1.02,-0.41
25.83,-1.25,0.94,-0.39
25.83,-1.23,0.86,-0.37
25.83,-1.20,0.81,-0.35
25.84,-1.17,0.76,-0.33
25.84,-1.15,0.73,-0.32
25.84,-1.13,0.71,-0.31
25.84,-1.11,0.69,-0.31
25.85,-1.10,0.67,-0.31
25.85,-1.09,0.66,-0.32
25.85,-1.09,0.65,-0.33
25.85,-1.08,0.65,-0.35
25.85,-1.08,0.65,-0.36
25.86,-1.07,0.66,-0.38
25.86,-1.06,0.69,-0.39
25.86,-1.06,0.71,-0.40
25.86,-1.06,0.72,-0.41
25.87,-1.05,0.72,-0.42
25.87,-1.05,0.73,-0.44
25.87,-1.04,0.73,-0.45
25.87,-1.04,0.71,-0.47
25.88,-1.03,0.67,-0.49
25.88,-1.03,0.62,-0.50
25.88,-1.03,0.56,-0.51
25.88,-1.03,0.49,-0.53
25.88,-1.04,0.40,-0.54
25.89,-1.05,0.32,-0.55
25.89,-1.07,0.26,-0.56
25.89,-1.08,0.21,-0.56
25.89,-1.10,0.17,-0.56
25.90,-1.12,0.15,-0.57
25.90,-1.15,0.12,-0.57
25.90,-1.18,0.10,-0.58
25.90,-1.20,0.09,-0.58
25.90,-1.23,0.10,-0.57
25.91,-1.26,0.11,-0.56
25.91,-1.29,0.12,-0.55
25.91,-1.32,0.15,-0.54
25.91,-1.34,0.18,-0.52
25.92,-1.36,0.23,-0.50
25.92,-1.36,0.29,-0.48
25.92,-1.35,0.36,-0.45
25.92,-1.33,0.42,-0.42
25.93,-1.30,0.49,-0.38
25.93,-1.26,0.55,-0.35
25.93,-1.22,0.59,-0.30
25.93,-1.17,0.62,-0.26
25.93,-1.13,0.62,-0.20
25.94,-1.08,0.63,-0.15
25.94,-1.04,0.62,-0.09
25.94,-1.00,0.63,-0.04
25.94,-0.97,0.62,0.01
25.95,-0.94,0.61,0.06
25.95,-0.92,0.60,0.10
25.95,-0.91,0.59,0.13
25.95,-0.90,0.56,0.16
25.96,-0.91,0.54,0.18
25.96,-0.91,0.52,0.20
25.96,-0.92,0.50,0.21
25.96,-0.92,0.50,0.22
25.96,-0.93,0.52,0.24
25.97,-0.95,0.57,0.26
25.97,-0.95,0.61,0.28
25.97,-0.96,0.66,0.30
25.97,-0.97,0.72,0.32
25.98,-0.97,0.77,0.33
25.98,-0.97,0.84,0.33
25.98,-0.96,0.90,0.33
25.98,-0.95,0.93,0.32
25.99,-0.94,0.96,0.31
25.99,-0.92,0.98,0.30
25.99,-0.89,0.99,0.28
25.99,-0.87,0.99,0.27
25.99,-0.83,0.98,0.25
26.00,-0.80,0.99,0.23
26.00,-0.76,0.98,0.22
26.00,-0.72,0.97,0.19
26.00,-0.67,0.97,0.17
26.01,-0.63,0.99,0.16
26.01,-0.58,1.00,0.14
26.01,-0.53,1.01,0.11
26.01,-0.48,1.02,0.09
26.02,-0.44,1.03,0.07
26.02,-0.40,1.03,0.04
26.02,-0.36,1.03,0.02
26.02,-0.32,1.02,0.00
26.02,-0.30,1.01,-0.02
26.03,-0.27,1.00,-0.04
26.03,-0.25,1.00,-0.05
26.03,-0.24,0.98,-0.07
26.03,-0.23,0.96,-0.09
26.04,-0.23,0.94,-0.11
26.04,-0.23,0.93,-0.13
26.04,-0.24,0.92,-0.14
26.04,-0.24,0.91,-0.16
26.05,-0.25,0.91,-0.16
26.05,-0.26,0.89,-0.17
26.05,-0.27,0.88,-0.17
26.05,-0.28,0.86,-0.18
26.05,-0.28,0.86,-0.19
26.06,-0.28,0.86,-0.19
26.06,-0.28,0.86,-0.20
26.06,-0.28,0.85,-0.20
26.06,-0.28,0.85,-0.20
26.07,-0.29,0.84,-0.20
26.07,-0.29,0.84,-0.20
26.07,-0.30,0.83,-0.20
26.07,-0.31,0.83,-0.19
26.08,-0.33,0.83,-0.19
26.08,-0.35,0.84,-0.18
26.08,-0.38,0.84,-0.17
26.08,-0.41,0.83,-0.17
26.08,-0.44,0.83,-0.16
26.09,-0.47,0.82,-0.16
26.09,-0.50,0.82,-0.16
26.09,-0.53,0.81,-0.16
26.09,-0.56,0.82,-0.16
26.10,-0.60,0.82,-0.16
26.10,-0.63,0.83,-0.17
26.10,-0.66,0.84,-0.17
26.10,-0.68,0.84,-0.18
26.10,-0.71,0.85,-0.19
26.11,-0.73,0.86,-0.20
26.11,-0.75,0.86,-0.21
26.11,-0.77,0.86,-0.22
26.11,-0.79,0.85,-0.24
26.12,-0.80,0.83,-0.26
26.12,-0.82,0.81,-0.28
26.12,-0.84,0.78,-0.30
26.12,-0.85,0.75,-0.32
26.13,-0.86,0.72,-0.34
26.13,-0.86,0.69,-0.36
26.13,-0.86,0.66,-0.38
26.13,-0.86,0.62,-0.40
26.13,-0.86,0.59,-0.42
26.14,-0.85,0.57,-0.43
26.14,-0.84,0.55,-0.45
26.14,-0.82,0.52,-0.46
26.14,-0.80,0.51,-0.48
26.15,-0.78,0.50,-0.49
26.15,-0.76,0.48,-0.50
26.15,-0.74,0.47,-0.51
26.15,-0.72,0.46,-0.51
26.16,-0.70,0.45,-0.52
26.16,-0.69,0.45,-0.52
26.16,-0.67,0.44,-0.53
26.16,-0.66,0.44,-0.52
26.16,-0.65,0.43,-0.52
26.17,-0.65,0.43,-0.51
26.17,-0.64,0.43,-0.51
26.17,-0.63,0.42,-0.50
26.17,-0.62,0.42,-0.49
26.18,-0.61,0.41,-0.48
26.18,-0.60,0.40,-0.47
26.18,-0.59,0.40,-0.46
26.18,-0.58,0.40,-0.44
26.19,-0.57,0.41,-0.43
26.19,-0.55,0.42,-0.42
26.19,-0.54,0.43,-0.40
26.19,-0.52,0.45,-0.39
26.19,-0.50,0.47,-0.38
26.20,-0.48,0.49,-0.36
26.20,-0.46,0.50,-0.34
26.20,-0.43,0.52,-0.33
26.20,-0.41,0.53,-0.31
26.21,-0.39,0.53,-0.30
26.21,-0.37,0.53,-0.29
26.21,-0.34,0.52,-0.28
26.21,-0.32,0.51,-0.27
26.22,-0.31,0.50,-0.25
26.22,-0.29,0.47,-0.24
26.22,-0.28,0.46,-0.24
26.22,-0.27,0.44,-0.23
26.22,-0.26,0.43,-0.22
26.23,-0.25,0.41,-0.21
26.23,-0.25,0.40,-0.20
26.23,-0.25,0.40,-0.19
26.23,-0.25,0.39,-0.17
26.24,-0.25,0.39,-0.16
26.24,-0.25,0.40,-0.15
26.24,-0.25,0.41,-0.13
26.24,-0.26,0.43,-0.12
26.25,-0.26,0.45,-0.10
26.25,-0.26,0.48,-0.09
26.25,-0.26,0.51,-0.07
26.25,-0.26,0.54,-0.06
26.25,-0.25,0.57,-0.04
26.26,-0.25,0.60,-0.03
26.26,-0.24,0.63,-0.03
26.26,-0.24,0.65,-0.02
26.26,-0.23,0.67,-0.01
26.27,-0.22,0.69,0.00
26.27,-0.20,0.71,0.00
26.27,-0.18,0.74,0.01
26.27,-0.17,0.77,0.01
26.28,-0.16,0.78,0.01
26.28,-0.15,0.80,0.00
26.28,-0.14,0.80,-0.02
26.28,-0.14,0.79,-0.03
26.28,-0.13,0.78,-0.05
26.29,-0.12,0.77,-0.07
26.29,-0.11,0.74,-0.09
26.29,-0.10,0.71,-0.11
26.29,-0.09,0.68,-0.14
26.30,-0.07,0.65,-0.16
26.30,-0.06,0.61,-0.19
26.30,-0.04,0.56,-0.21
26.30,-0.01,0.52,-0.24
26.31,0.01,0.48,-0.27
26.31,0.05,0.43,-0.29
26.31,0.08,0.39,-0.31
26.31,0.12,0.34,-0.33
26.31,0.16,0.30,-0.34
26.32,0.21,0.25,-0.36
26.32,0.25,0.20,-0.37
26.32,0.29,0.14,-0.37
26.32,0.33,0.09,-0.37
26.33,0.37,0.04,-0.37
26.33,0.41,-0.01,-0.36
26.33,0.45,-0.07,-0.35
26.33,0.49,-0.12,-0.33
26.33,0.54,-0.17,-0.31
26.34,0.58,-0.22,-0.29
26.34,0.63,-0.28,-0.27
26.34,0.67,-0.34,-0.24
26.34,0.72,-0.41,-0.21
26.35,0.77,-0.48,-0.18
26.35,0.81,-0.55,-0.14
26.35,0.86,-0.63,-0.11
26.35,0.90,-0.71,-0.07
26.36,0.95,-0.79,-0.03
26.36,1.00,-0.89,0.01
26.36,1.05,-0.97,0.05
26.36,1.09,-1.05,0.10
26.36,1.15,-1.12,0.15
26.37,1.20,-1.18,0.19
26.37,1.26,-1.23,0.24
26.37,1.32,-1.27,0.30
26.37,1.39,-1.29,0.35
26.38,1.46,-1.30,0.40
26.38,1.54,-1.29,0.45
26.38,1.61,-1.29,0.50
26.38,1.68,-1.26,0.56
26.39,1.75,-1.24,0.61
26.39,1.81,-1.21,0.66
26.39,1.87,-1.17,0.71
26.39,1.93,-1.13,0.75
26.39,1.97,-1.09,0.78
26.40,2.02,-1.05,0.81
26.40,2.07,-1.00,0.83
26.40,2.12,-0.96,0.84
26.40,2.18,-0.91,0.85
26.41,2.24,-0.87,0.86
26.41,2.31,-0.84,0.87
26.41,2.38,-0.82,0.88
26.41,2.45,-0.81,0.90
26.42,2.53,-0.80,0.91
26.42,2.61,-0.79,0.91
26.42,2.69,-0.80,0.92
26.42,2.78,-0.80,0.93
26.42,2.87,-0.76,0.93
26.43,2.96,-0.72,0.93
26.43,3.05,-0.68,0.93
26.43,3.13,-0.66,0.92
26.43,3.20,-0.64,0.92
26.44,3.25,-0.63,0.92
26.44,3.29,-0.62,0.91
26.44,3.31,-0.61,0.90
26.44,3.32,-0.58,0.89
26.45,3.30,-0.55,0.87
26.45,3.26,-0.50,0.85
26.45,3.21,-0.42,0.83
26.45,3.14,-0.33,0.82
26.45,3.06,-0.23,0.80
26.46,2.98,-0.13,0.80
26.46,2.90,-0.02,0.79
26.46,2.82,0.08,0.78
26.46,2.75,0.18,0.78
26.47,2.69,0.28,0.78
26.47,2.64,0.37,0.79
26.47,2.58,0.45,0.80
26.47,2.54,0.52,0.82
26.48,2.50,0.57,0.84
26.48,2.46,0.62,0.85
26.48,2.43,0.67,0.87
26.48,2.40,0.70,0.89
26.48,2.38,0.73,0.91
26.49,2.35,0.76,0.93
26.49,2.33,0.79,0.97
26.49,2.32,0.82,1.00
26.49,2.30,0.86,1.04
26.50,2.27,0.91,1.08
26.50,2.23,0.95,1.12
26.50,2.19,0.99,1.15
26.50,2.13,1.03,1.20
26.51,2.07,1.08,1.23
26.51,2.00,1.12,1.27
26.51,1.93,1.17,1.29
26.51,1.85,1.22,1.32
26.51,1.78,1.28,1.34
26.52,1.72,1.33,1.36
26.52,1.66,1.37,1.38
26.52,1.61,1.40,1.39
26.52,1.56,1.40,1.41
26.53,1.50,1.37,1.42
26.53,1.41,1.28,1.45
26.53,1.29,1.09,1.48
26.53,1.17,0.86,1.54
26.53,1.07,0.69,1.60
26.54,0.98,0.56,1.67
26.54,0.93,0.48,1.74
26.54,0.89,0.40,1.81
26.54,0.86,0.34,1.87
26.55,0.83,0.29,1.92
26.55,0.81,0.24,1.96
26.55,0.78,0.20,2.00
26.55,0.76,0.19,2.02
26.56,0.75,0.18,2.04
26.56,0.74,0.17,2.05
26.56,0.74,0.14,2.03
26.56,0.73,0.08,2.00
26.56,0.73,-0.02,1.96
26.57,0.74,-0.16,1.91
26.57,0.76,-0.31,1.84
26.57,0.79,-0.46,1.78
26.57,0.82,-0.61,1.71
26.58,0.84,-0.75,1.66
26.58,0.86,-0.85,1.61
26.58,0.87,-0.92,1.57
26.58,0.87,-0.96,1.53
26.59,0.87,-1.01,1.48
26.59,0.86,-1.04,1.43
26.59,0.86,-1.06,1.37
26.59,0.85,-1.07,1.32
26.59,0.84,-1.08,1.27
26.60,0.82,-1.07,1.23
26.60,0.79,-1.07,1.19
26.60,0.75,-1.06,1.16
26.60,0.71,-1.08,1.12
26.61,0.67,-1.10,1.09
26.61,0.62,-1.14,1.06
26.61,0.57,-1.18,1.02
26.61,0.53,-1.22,0.99
26.62,0.49,-1.25,0.96
26.62,0.45,-1.27,0.93
26.62,0.41,-1.30,0.90
26.62,0.38,-1.32,0.87
26.62,0.35,-1.35,0.84
26.63,0.32,-1.38,0.81
26.63,0.30,-1.41,0.78
26.63,0.28,-1.43,0.74
26.63,0.26,-1.46,0.71
26.64,0.24,-1.47,0.68
26.64,0.21,-1.48,0.66
26.64,0.19,-1.49,0.63
26.64,0.17,-1.48,0.60
26.65,0.14,-1.48,0.57
26.65,0.11,-1.48,0.54
26.65,0.07,-1.48,0.50
26.65,0.04,-1.48,0.47
26.65,0.00,-1.46,0.43
26.66,-0.03,-1.45,0.40
26.66,-0.07,-1.43,0.36
26.66,-0.11,-1.40,0.33
26.66,-0.16,-1.38,0.29
26.67,-0.20,-1.35,0.25
26.67,-0.24,-1.32,0.22
26.67,-0.28,-1.29,0.17
26.67,-0.32,-1.26,0.13
26.68,-0.35,-1.24,0.08
26.68,-0.39,-1.21,0.03
26.68,-0.42,-1.19,-0.02
26.68,-0.46,-1.17,-0.07
26.68,-0.49,-1.15,-0.12
26.69,-0.52,-1.12,-0.17
26.69,-0.55,-1.10,-0.21
26.69,-0.59,-1.08,-0.26
26.69,-0.62,-1.06,-0.31
26.70,-0.65,-1.04,-0.35
26.70,-0.68,-1.02,-0.40
26.70,-0.72,-1.01,-0.44
26.70,-0.75,-1.00,-0.48
26.71,-0.78,-0.98,-0.52
26.71,-0.82,-0.97,-0.56
26.71,-0.85,-0.95,-0.60
26.71,-0.89,-0.94,-0.64
26.71,-0.92,-0.93,-0.68
26.72,-0.96,-0.92,-0.72
26.72,-1.01,-0.92,-0.75
26.72,-1.05,-0.92,-0.79
26.72,-1.10,-0.91,-0.83
26.73,-1.15,-0.91,-0.86
26.73,-1.20,-0.92,-0.89
26.73,-1.25,-0.92,-0.92
26.73,-1.29,-0.92,-0.95
26.73,-1.34,-0.92,-0.98
26.74,-1.38,-0.93,-1.01
26.74,-1.41,-0.94,-1.04
26.74,-1.44,-0.97,-1.07
26.74,-1.46,-1.01,-1.10
26.75,-1.46,-1.06,-1.12
26.75,-1.46,-1.13,-1.15
26.75,-1.45,-1.20,-1.17
26.75,-1.43,-1.27,-1.19
26.76,-1.40,-1.34,-1.22
26.76,-1.37,-1.40,-1.24
26.76,-1.34,-1.46,-1.25
26.76,-1.30,-1.52,-1.27
26.76,-1.26,-1.58,-1.27
26.77,-1.22,-1.63,-1.28
26.77,-1.17,-1.68,-1.28
26.77,-1.12,-1.72,-1.27
26.77,-1.06,-1.75,-1.25
26.78,-0.99,-1.77,-1.23
26.78,-0.91,-1.78,-1.19
26.78,-0.82,-1.79,-1.15
26.78,-0.71,-1.78,-1.10
26.79,-0.60,-1.76,-1.04
26.79,-0.48,-1.72,-0.97
26.79,-0.35,-1.68,-0.90
26.79,-0.22,-1.62,-0.83
26.79,-0.08,-1.54,-0.76
26.80,0.05,-1.45,-0.67
26.80,0.17,-1.35,-0.57
26.80,0.28,-1.25,-0.45
26.80,0.36,-1.15,-0.32
26.81,0.43,-1.04,-0.18
26.81,0.47,-0.94,-0.02
26.81,0.48,-0.86,0.14
26.81,0.49,-0.82,0.31
26.82,0.48,-0.82,0.47
26.82,0.46,-0.84,0.62
26.82,0.44,-0.91,0.76
26.82,0.42,-1.01,0.88
26.82,0.41,-1.15,0.97
26.83,0.40,-1.33,1.06
26.83,0.40,-1.54,1.12
26.83,0.40,-1.76,1.18
26.83,0.42,-2.00,1.22
26.84,0.44,-2.23,1.26
26.84,0.48,-2.44,1.30
26.84,0.52,-2.62,1.33
26.84,0.57,-2.78,1.37
26.85,0.63,-2.92,1.40
26.85,0.69,-3.01,1.42
26.85,0.76,-3.07,1.44
26.85,0.82,-3.08,1.44
26.85,0.89,-3.04,1.43
26.86,0.96,-2.95,1.42
26.86,1.02,-2.80,1.40
26.86,1.08,-2.59,1.37
26.86,1.13,-2.33,1.34
26.87,1.16,-2.03,1.31
26.87,1.18,-1.74,1.26
26.87,1.17,-1.46,1.19
26.87,1.14,-1.21,1.10
26.88,1.08,-1.01,0.99
26.88,1.01,-0.84,0.87
26.88,0.94,-0.73,0.72
26.88,0.87,-0.67,0.57
26.88,0.80,-0.68,0.40
26.89,0.75,-0.75,0.23
26.89,0.70,-0.89,0.06
26.89,0.66,-1.09,-0.12
26.89,0.63,-1.36,-0.29
26.90,0.61,-1.65,-0.45
26.90,0.61,-1.96,-0.59
26.90,0.63,-2.26,-0.70
26.90,0.65,-2.52,-0.78
26.91,0.67,-2.71,-0.82
26.91,0.67,-2.81,-0.83
26.91,0.66,-2.82,-0.80
26.91,0.64,-2.75,-0.74
26.91,0.59,-2.62,-0.66
26.92,0.54,-2.42,-0.58
26.92,0.48,-2.16,-0.51
26.92,0.40,-1.88,-0.45
26.92,0.31,-1.57,-0.40
26.93,0.20,-1.23,-0.36
26.93,0.08,-0.88,-0.32
26.93,-0.05,-0.54,-0.28
26.93,-0.18,-0.20,-0.24
26.93,-0.31,0.13,-0.21
26.94,-0.44,0.45,-0.18
26.94,-0.55,0.76,-0.16
26.94,-0.65,1.06,-0.15
26.94,-0.74,1.34,-0.14
26.95,-0.82,1.60,-0.13
26.95,-0.89,1.84,-0.13
26.95,-0.95,2.05,-0.13
26.95,-1.01,2.22,-0.13
26.96,-1.06,2.36,-0.14
26.96,-1.11,2.46,-0.14
26.96,-1.16,2.53,-0.15
26.96,-1.20,2.56,-0.15
26.96,-1.23,2.56,-0.16
26.97,-1.25,2.55,-0.18
26.97,-1.26,2.52,-0.19
26.97,-1.27,2.48,-0.22
26.97,-1.26,2.45,-0.24
26.98,-1.24,2.41,-0.27
26.98,-1.23,2.39,-0.29
26.98,-1.21,2.38,-0.31
26.98,-1.20,2.39,-0.34
26.99,-1.19,2.39,-0.36
26.99,-1.19,2.39,-0.38
26.99,-1.20,2.39,-0.41
26.99,-1.21,2.37,-0.43
26.99,-1.23,2.35,-0.46
27.00,-1.25,2.33,-0.48
27.00,-1.28,2.31,-0.50
27.00,-1.31,2.28,-0.52
27.00,-1.34,2.26,-0.54
27.01,-1.37,2.24,-0.56
27.01,-1.40,2.21,-0.58
27.01,-1.41,2.18,-0.60
27.01,-1.43,2.16,-0.62
27.02,-1.45,2.12,-0.64
27.02,-1.46,2.07,-0.65
27.02,-1.48,2.01,-0.65
27.02,-1.49,1.95,-0.66
27.02,-1.51,1.87,-0.66
27.03,-1.51,1.80,-0.65
27.03,-1.52,1.71,-0.65
27.03,-1.52,1.63,-0.64
27.03,-1.52,1.57,-0.63
27.04,-1.52,1.51,-0.62
27.04,-1.52,1.47,-0.61
27.04,-1.51,1.45,-0.59
27.04,-1.50,1.44,-0.58
27.05,-1.49,1.45,-0.57
27.05,-1.47,1.47,-0.56
27.05,-1.46,1.50,-0.56
27.05,-1.45,1.53,-0.55
27.05,-1.45,1.57,-0.55
27.06,-1.44,1.60,-0.54
27.06,-1.43,1.61,-0.54
27.06,-1.42,1.63,-0.54
27.06,-1.41,1.66,-0.54
27.07,-1.41,1.70,-0.54
27.07,-1.41,1.74,-0.54
27.07,-1.40,1.78,-0.54
27.07,-1.40,1.81,-0.54
27.08,-1.40,1.84,-0.55
27.08,-1.40,1.86,-0.55
27.08,-1.40,1.87,-0.56
27.08,-1.40,1.88,-0.57
27.08,-1.40,1.87,-0.58
27.09,-1.39,1.86,-0.59
27.09,-1.39,1.82,-0.60
27.09,-1.38,1.78,-0.61
27.09,-1.38,1.73,-0.63
27.10,-1.37,1.67,-0.64
27.10,-1.36,1.61,-0.65
27.10,-1.36,1.53,-0.65
27.10,-1.35,1.44,-0.64
27.11,-1.34,1.35,-0.63
27.11,-1.34,1.26,-0.62
27.11,-1.34,1.17,-0.61
27.11,-1.35,1.09,-0.60
27.11,-1.36,1.03,-0.58
27.12,-1.36,0.99,-0.57
27.12,-1.37,0.95,-0.55
27.12,-1.38,0.93,-0.53
27.12,-1.39,0.90,-0.50
27.13,-1.40,0.88,-0.48
27.13,-1.41,0.87,-0.45
27.13,-1.42,0.86,-0.42
27.13,-1.41,0.85,-0.40
27.14,-1.40,0.85,-0.37
27.14,-1.37,0.85,-0.35
27.14,-1.34,0.86,-0.33
27.14,-1.29,0.86,-0.30
27.14,-1.25,0.86,-0.28
27.15,-1.20,0.83,-0.26
27.15,-1.16,0.80,-0.23
27.15,-1.12,0.75,-0.20
27.15,-1.08,0.70,-0.17
27.16,-1.03,0.66,-0.16
27.16,-0.98,0.63,-0.16
27.16,-0.93,0.60,-0.16
27.16,-0.89,0.57,-0.16
27.16,-0.87,0.55,-0.16
27.17,-0.85,0.53,-0.15
27.17,-0.85,0.50,-0.13
27.17,-0.86,0.47,-0.11
27.17,-0.87,0.47,-0.09
27.18,-0.89,0.47,-0.07
27.18,-0.92,0.47,-0.05
27.18,-0.95,0.47,-0.02
27.18,-0.99,0.48,-0.01
27.19,-1.03,0.51,0.00
27.19,-1.06,0.51,0.01
27.19,-1.09,0.54,0.02
27.19,-1.12,0.58,0.04
27.19,-1.15,0.64,0.05
27.20,-1.18,0.70,0.06
27.20,-1.21,0.75,0.07
27.20,-1.23,0.80,0.07
27.20,-1.25,0.86,0.07
27.21,-1.27,0.94,0.07
27.21,-1.28,1.00,0.06
27.21,-1.28,1.05,0.05
27.21,-1.28,1.10,0.04
27.22,-1.27,1.13,0.02
27.22,-1.25,1.13,0.01
27.22,-1.23,1.13,-0.01
27.22,-1.20,1.12,-0.03
27.22,-1.16,1.10,-0.05
27.23,-1.13,1.07,-0.07
27.23,-1.08,1.04,-0.08
27.23,-1.03,1.02,-0.08
27.23,-0.99,0.98,-0.09
27.24,-0.94,0.95,-0.10
27.24,-0.89,0.93,-0.10
27.24,-0.84,0.92,-0.10
27.24,-0.79,0.90,-0.10
27.25,-0.75,0.88,-0.10
27.25,-0.71,0.87,-0.10
27.25,-0.67,0.85,-0.09
27.25,-0.64,0.84,-0.10
27.25,-0.62,0.83,-0.10
27.26,-0.60,0.82,-0.10
27.26,-0.58,0.82,-0.11
27.26,-0.57,0.81,-0.11
27.26,-0.56,0.81,-0.11
27.27,-0.55,0.82,-0.11
27.27,-0.55,0.82,-0.11
27.27,-0.54,0.83,-0.11
27.27,-0.54,0.84,-0.11
27.28,-0.54,0.85,-0.11
27.28,-0.54,0.87,-0.11
27.28,-0.54,0.88,-0.11
27.28,-0.54,0.88,-0.11
27.28,-0.54,0.89,-0.11
27.29,-0.55,0.89,-0.10
27.29,-0.55,0.89,-0.10
27.29,-0.55,0.89,-0.11
27.29,-0.55,0.87,-0.11
27.30,-0.55,0.87,-0.11
27.30,-0.56,0.87,-0.11
27.30,-0.57,0.86,-0.12
27.30,-0.58,0.85,-0.13
27.31,-0.59,0.85,-0.14
27.31,-0.60,0.85,-0.15
27.31,-0.61,0.86,-0.16
27.31,-0.63,0.86,-0.18
27.31,-0.64,0.86,-0.19
27.32,-0.65,0.87,-0.21
27.32,-0.66,0.87,-0.24
27.32,-0.67,0.87,-0.26
27.32,-0.68,0.86,-0.29
27.33,-0.69,0.84,-0.32
27.33,-0.70,0.81,-0.35
27.33,-0.70,0.78,-0.38
27.33,-0.70,0.73,-0.40
27.34,-0.70,0.69,-0.43
27.34,-0.70,0.64,-0.45
27.34,-0.69,0.59,-0.48
27.34,-0.68,0.54,-0.50
27.34,-0.67,0.49,-0.53
27.35,-0.65,0.46,-0.55
27.35,-0.64,0.42,-0.57
27.35,-0.62,0.40,-0.59
27.35,-0.60,0.37,-0.61
27.36,-0.58,0.35,-0.63
27.36,-0.57,0.33,-0.65
27.36,-0.55,0.32,-0.67
27.36,-0.53,0.31,-0.68
27.36,-0.52,0.30,-0.70
27.37,-0.51,0.29,-0.71
27.37,-0.50,0.28,-0.72
27.37,-0.49,0.27,-0.73
27.37,-0.49,0.27,-0.74
27.38,-0.49,0.26,-0.74
27.38,-0.50,0.26,-0.75
27.38,-0.50,0.26,-0.74
27.38,-0.51,0.25,-0.74
27.39,-0.52,0.25,-0.74
27.39,-0.53,0.26,-0.73
27.39,-0.54,0.26,-0.73
27.39,-0.55,0.27,-0.72
27.39,-0.56,0.28,-0.71
27.40,-0.57,0.28,-0.70
27.40,-0.58,0.28,-0.69
27.40,-0.60,0.29,-0.68
27.40,-0.61,0.29,-0.67
27.41,-0.62,0.30,-0.65
27.41,-0.63,0.31,-0.64
27.41,-0.63,0.32,-0.62
27.41,-0.64,0.32,-0.61
27.42,-0.64,0.32,-0.60
27.42,-0.63,0.32,-0.59
27.42,-0.62,0.31,-0.58
27.42,-0.61,0.30,-0.56
27.42,-0.59,0.28,-0.55
27.43,-0.57,0.26,-0.54
27.43,-0.55,0.25,-0.52
27.43,-0.51,0.24,-0.50
27.43,-0.48,0.23,-0.48
27.44,-0.44,0.22,-0.46
27.44,-0.41,0.21,-0.44
27.44,-0.37,0.19,-0.43
27.44,-0.33,0.18,-0.41
27.45,-0.30,0.16,-0.40
27.45,-0.26,0.16,-0.38
27.45,-0.23,0.15,-0.37
27.45,-0.19,0.15,-0.35
27.45,-0.16,0.15,-0.34
27.46,-0.12,0.16,-0.33
27.46,-0.09,0.16,-0.32
27.46,-0.06,0.16,-0.31
27.46,-0.03,0.15,-0.30
27.47,-0.01,0.15,-0.28
27.47,0.01,0.14,-0.27
27.47,0.02,0.13,-0.25
27.47,0.03,0.12,-0.24
27.48,0.03,0.12,-0.22
27.48,0.02,0.12,-0.19
27.48,0.02,0.12,-0.17
27.48,0.00,0.13,-0.14
27.48,-0.02,0.14,-0.10
27.49,-0.04,0.16,-0.07
27.49,-0.07,0.18,-0.04
27.49,-0.09,0.21,-0.01
27.49,-0.12,0.24,0.02
27.50,-0.15,0.27,0.05
27.50,-0.18,0.30,0.08
27.50,-0.20,0.34,0.11
27.50,-0.22,0.37,0.14
27.51,-0.24,0.40,0.16
27.51,-0.25,0.43,0.18
27.51,-0.26,0.46,0.19
27.51,-0.27,0.48,0.21
27.51,-0.27,0.51,0.21
27.52,-0.26,0.54,0.22
27.52,-0.25,0.56,0.22
27.52,-0.22,0.58,0.21
27.52,-0.20,0.60,0.20
27.53,-0.17,0.62,0.19
27.53,-0.14,0.63,0.17
27.53,-0.10,0.65,0.15
27.53,-0.06,0.66,0.12
27.54,-0.01,0.67,0.10
27.54,0.04,0.67,0.07
27.54,0.09,0.66,0.04
27.54,0.14,0.65,0.00
27.54,0.19,0.63,-0.03
27.55,0.23,0.60,-0.06
27.55,0.28,0.57,-0.09
27.55,0.32,0.54,-0.11
27.55,0.36,0.50,-0.13
27.56,0.41,0.46,-0.15
27.56,0.45,0.42,-0.18
27.56,0.50,0.37,-0.20
27.56,0.56,0.34,-0.21
27.56,0.62,0.31,-0.22
27.57,0.68,0.28,-0.23
27.57,0.75,0.25,-0.23
27.57,0.83,0.22,-0.23
27.57,0.90,0.18,-0.23
27.58,0.98,0.13,-0.22
27.58,1.05,0.07,-0.20
27.58,1.13,0.01,-0.18
27.58,1.20,-0.06,-0.15
27.59,1.26,-0.14,-0.12
27.59,1.33,-0.23,-0.08
27.59,1.40,-0.33,-0.04
27.59,1.47,-0.43,0.01
27.59,1.53,-0.54,0.06
27.60,1.60,-0.66,0.11
27.60,1.67,-0.78,0.17
27.60,1.74,-0.89,0.23
27.60,1.80,-1.01,0.29
27.61,1.87,-1.12,0.35
27.61,1.94,-1.22,0.41
27.61,2.01,-1.30,0.48
27.61,2.08,-1.37,0.54
27.62,2.14,-1.43,0.61
27.62,2.21,-1.47,0.67
27.62,2.27,-1.50,0.74
27.62,2.35,-1.50,0.80
27.62,2.41,-1.49,0.87
27.63,2.48,-1.47,0.93
27.63,2.54,-1.43,0.99
27.63,2.60,-1.39,1.05
27.63,2.66,-1.34,1.10
27.64,2.71,-1.29,1.15
27.64,2.76,-1.24,1.18
27.64,2.81,-1.19,1.22
27.64,2.86,-1.16,1.25
27.65,2.90,-1.15,1.28
27.65,2.93,-1.16,1.31
27.65,2.96,-1.15,1.33
27.65,2.99,-1.12,1.34
27.65,3.02,-1.07,1.34
27.66,3.05,-1.02,1.34
27.66,3.07,-0.93,1.33
27.66,3.10,-0.79,1.33
27.66,3.12,-0.62,1.32
27.67,3.12,-0.45,1.29
27.67,3.11,-0.29,1.27
27.67,3.08,-0.14,1.24
27.67,3.04,0.00,1.21
27.68,2.99,0.13,1.17
27.68,2.93,0.27,1.13
27.68,2.87,0.40,1.10
27.68,2.80,0.54,1.08
27.68,2.74,0.68,1.06
27.69,2.67,0.82,1.05
27.69,2.60,0.95,1.05
27.69,2.54,1.09,1.06
27.69,2.47,1.23,1.08
27.70,2.39,1.37,1.10
27.70,2.33,1.48,1.13
27.70,2.26,1.58,1.14
27.70,2.21,1.65,1.15
27.71,2.16,1.71,1.14
27.71,2.13,1.75,1.14
27.71,2.12,1.76,1.13
27.71,2.11,1.75,1.12
27.71,2.12,1.72,1.11
27.72,2.13,1.68,1.10
27.72,2.14,1.64,1.09
27.72,2.16,1.60,1.08
27.72,2.16,1.56,1.07
27.73,2.15,1.50,1.05
27.73,2.14,1.43,1.05
27.73,2.12,1.33,1.05
27.73,2.09,1.22,1.05
27.74,2.06,1.10,1.06
27.74,2.03,0.96,1.07
27.74,1.99,0.83,1.09
27.74,1.95,0.70,1.11
27.74,1.89,0.57,1.13
27.75,1.82,0.46,1.14
27.75,1.74,0.34,1.16
27.75,1.62,0.19,1.18
27.75,1.47,-0.01,1.21
27.76,1.33,-0.16,1.26
27.76,1.21,-0.24,1.34
27.76,1.10,-0.26,1.43
27.76,1.02,-0.25,1.52
27.76,0.95,-0.21,1.60
27.77,0.90,-0.15,1.68
27.77,0.89,-0.06,1.75
27.77,0.88,0.03,1.81
27.77,0.89,0.13,1.84
27.78,0.90,0.22,1.85
27.78,0.92,0.28,1.85
27.78,0.93,0.31,1.83
27.78,0.94,0.29,1.80
27.79,0.95,0.25,1.77
27.79,0.96,0.18,1.73
27.79,0.97,0.08,1.69
27.79,0.98,-0.04,1.64
27.79,1.00,-0.19,1.58
27.80,1.03,-0.37,1.52
27.80,1.06,-0.54,1.46
27.80,1.10,-0.73,1.40
27.80,1.13,-0.88,1.35
27.81,1.16,-1.01,1.30
27.81,1.17,-1.10,1.26
27.81,1.18,-1.16,1.22
27.81,1.17,-1.20,1.19
27.82,1.16,-1.23,1.16
27.82,1.14,-1.26,1.12
27.82,1.12,-1.29,1.08
27.82,1.10,-1.32,1.05
27.82,1.07,-1.37,1.00
27.83,1.03,-1.41,0.97
27.83,1.00,-1.44,0.93
27.83,0.97,-1.48,0.90
27.83,0.93,-1.52,0.87
27.84,0.90,-1.54,0.84
27.84,0.87,-1.56,0.81
27.84,0.84,-1.58,0.79
27.84,0.81,-1.58,0.76
27.85,0.78,-1.59,0.73
27.85,0.74,-1.60,0.70
27.85,0.70,-1.61,0.68
27.85,0.66,-1.62,0.66
27.85,0.62,-1.62,0.64
27.86,0.58,-1.62,0.62
27.86,0.54,-1.63,0.60
27.86,0.49,-1.62,0.58
27.86,0.45,-1.61,0.56
27.87,0.41,-1.59,0.54
27.87,0.37,-1.57,0.51
27.87,0.33,-1.56,0.49
27.87,0.28,-1.53,0.46
27.88,0.24,-1.52,0.43
27.88,0.20,-1.50,0.40
27.88,0.15,-1.48,0.37
27.88,0.11,-1.46,0.33
27.88,0.07,-1.43,0.30
27.89,0.03,-1.41,0.26
27.89,-0.01,-1.37,0.23
27.89,-0.05,-1.34,0.19
27.89,-0.09,-1.30,0.15
27.90,-0.13,-1.27,0.11
27.90,-0.17,-1.24,0.06
27.90,-0.21,-1.20,0.02
27.90,-0.25,-1.16,-0.03
27.91,-0.29,-1.12,-0.08
27.91,-0.32,-1.09,-0.14
27.91,-0.36,-1.07,-0.19
27.91,-0.40,-1.05,-0.24
27.91,-0.44,-1.03,-0.29
27.92,-0.49,-1.01,-0.34
27.92,-0.52,-0.99,-0.39
27.92,-0.56,-0.98,-0.42
27.92,-0.61,-0.97,-0.47
27.93,-0.65,-0.97,-0.51
27.93,-0.69,-0.97,-0.55
27.93,-0.74,-0.96,-0.58
27.93,-0.78,-0.97,-0.62
27.94,-0.83,-0.97,-0.65
27.94,-0.87,-0.97,-0.69
27.94,-0.92,-0.97,-0.72
27.94,-0.97,-0.98,-0.74
27.94,-1.01,-0.99,-0.77
27.95,-1.06,-1.00,-0.79
27.95,-1.11,-1.00,-0.82
27.95,-1.16,-1.01,-0.85
27.95,-1.22,-1.01,-0.87
27.96,-1.27,-1.01,-0.89
27.96,-1.32,-1.01,-0.91
27.96,-1.38,-1.01,-0.93
27.96,-1.43,-1.01,-0.95
27.97,-1.48,-1.01,-0.96
27.97,-1.53,-1.02,-0.98
27.97,-1.57,-1.02,-0.99
27.97,-1.61,-1.03,-1.00
27.97,-1.65,-1.04,-1.02
27.98,-1.67,-1.04,-1.03
27.98,-1.69,-1.05,-1.04
27.98,-1.70,-1.06,-1.05
27.98,-1.71,-1.07,-1.06
27.99,-1.71,-1.06,-1.07
27.99,-1.70,-1.07,-1.08
27.99,-1.68,-1.07,-1.09
27.99,-1.66,-1.06,-1.10
27.99,-1.63,-1.05,-1.11
28.00,-1.59,-1.04,-1.11
28.00,-1.55,-1.04,-1.11
28.00,-1.50,-1.06,-1.11
28.00,-1.44,-1.08,-1.11
28.01,-1.38,-1.10,-1.09
28.01,-1.30,-1.13,-1.07
28.01,-1.22,-1.15,-1.04
28.01,-1.12,-1.19,-1.01
28.02,-1.02,-1.22,-0.97
28.02,-0.89,-1.26,-0.91
28.02,-0.75,-1.30,-0.85
28.02,-0.60,-1.33,-0.77
28.02,-0.43,-1.35,-0.69
28.03,-0.25,-1.34,-0.60
28.03,-0.07,-1.32,-0.51
28.03,0.10,-1.29,-0.42
28.03,0.25,-1.25,-0.32
28.04,0.37,-1.19,-0.21
28.04,0.47,-1.14,-0.10
28.04,0.52,-1.10,0.03
28.04,0.54,-1.07,0.15
28.05,0.54,-1.04,0.28
28.05,0.51,-1.03,0.42
28.05,0.47,-1.04,0.54
28.05,0.42,-1.06,0.66
28.05,0.38,-1.11,0.77
28.06,0.34,-1.17,0.86
28.06,0.31,-1.25,0.93
28.06,0.29,-1.34,0.99
28.06,0.29,-1.43,1.03
28.07,0.29,-1.53,1.07
28.07,0.29,-1.63,1.10
28.07,0.30,-1.73,1.13
28.07,0.30,-1.82,1.16
28.08,0.30,-1.92,1.17
28.08,0.30,-2.00,1.19
28.08,0.29,-2.06,1.19
28.08,0.29,-2.09,1.19
28.08,0.29,-2.09,1.17
28.09,0.29,-2.07,1.14
28.09,0.29,-2.03,1.10
28.09,0.29,-1.99,1.06
28.09,0.30,-1.92,1.00
28.10,0.30,-1.84,0.93
28.10,0.30,-1.75,0.87
28.10,0.30,-1.65,0.80
28.10,0.30,-1.55,0.73
28.11,0.31,-1.41,0.67
28.11,0.31,-1.24,0.62
28.11,0.30,-1.04,0.58
28.11,0.28,-0.81,0.55
28.11,0.24,-0.58,0.53
28.12,0.17,-0.36,0.51
28.12,0.07,-0.18,0.48
28.12,-0.05,-0.04,0.44
28.12,-0.17,0.05,0.38
28.13,-0.29,0.09,0.29
28.13,-0.39,0.08,0.18
28.13,-0.46,0.04,0.05
28.13,-0.50,-0.02,-0.08
28.14,-0.49,-0.09,-0.21
28.14,-0.45,-0.16,-0.33
28.14,-0.37,-0.26,-0.44
28.14,-0.26,-0.39,-0.52
28.14,-0.12,-0.56,-0.58
28.15,0.04,-0.76,-0.63
28.15,0.20,-0.98,-0.66
28.15,0.34,-1.18,-0.68
28.15,0.47,-1.35,-0.68
28.16,0.57,-1.48,-0.67
28.16,0.65,-1.57,-0.64
28.16,0.72,-1.62,-0.61
28.16,0.78,-1.64,-0.57
28.17,0.83,-1.63,-0.53
28.17,0.87,-1.58,-0.48
28.17,0.90,-1.50,-0.41
28.17,0.91,-1.40,-0.34
28.17,0.90,-1.27,-0.26
28.18,0.85,-1.13,-0.20
28.18,0.76,-0.97,-0.16
28.18,0.64,-0.80,-0.13
28.18,0.50,-0.61,-0.11
28.19,0.34,-0.42,-0.09
28.19,0.17,-0.21,-0.09
28.19,0.01,0.02,-0.08
28.19,-0.16,0.27,-0.07
28.19,-0.32,0.52,-0.07
28.20,-0.47,0.77,-0.07
28.20,-0.61,1.01,-0.07
28.20,-0.74,1.23,-0.07
28.20,-0.86,1.44,-0.08
28.21,-0.98,1.61,-0.10
28.21,-1.09,1.75,-0.11
28.21,-1.18,1.87,-0.13
28.21,-1.27,1.95,-0.16
28.22,-1.33,2.02,-0.19
28.22,-1.39,2.07,-0.22
28.22,-1.43,2.12,-0.25
28.22,-1.47,2.16,-0.28
28.22,-1.49,2.22,-0.30
28.23,-1.52,2.27,-0.33
28.23,-1.53,2.34,-0.35
28.23,-1.54,2.41,-0.38
28.23,-1.54,2.47,-0.40
28.24,-1.54,2.52,-0.42
28.24,-1.54,2.56,-0.43
28.24,-1.54,2.60,-0.45
28.24,-1.53,2.63,-0.47
28.25,-1.52,2.65,-0.49
28.25,-1.52,2.67,-0.51
28.25,-1.52,2.70,-0.53
28.25,-1.53,2.72,-0.55
28.25,-1.54,2.74,-0.56
28.26,-1.56,2.74,-0.57
28.26,-1.58,2.73,-0.58
28.26,-1.61,2.70,-0.59
28.26,-1.63,2.66,-0.60
28.27,-1.65,2.60,-0.60
28.27,-1.66,2.54,-0.61
28.27,-1.67,2.47,-0.62
28.27,-1.66,2.40,-0.61
28.28,-1.65,2.34,-0.61
28.28,-1.63,2.29,-0.60
28.28,-1.60,2.23,-0.59
28.28,-1.56,2.17,-0.57
28.28,-1.53,2.11,-0.54
28.29,-1.48,2.04,-0.51
28.29,-1.44,1.96,-0.47
28.29,-1.40,1.86,-0.44
28.29,-1.35,1.77,-0.41
28.30,-1.31,1.66,-0.38
28.30,-1.27,1.57,-0.36
28.30,-1.23,1.48,-0.33
28.30,-1.20,1.40,-0.31
28.31,-1.17,1.34,-0.30
28.31,-1.16,1.28,-0.28
28.31,-1.15,1.23,-0.27
28.31,-1.15,1.20,-0.27
28.31,-1.15,1.17,-0.27
28.32,-1.16,1.16,-0.27
28.32,-1.17,1.15,-0.28
28.32,-1.18,1.15,-0.28
28.32,-1.19,1.14,-0.29
28.33,-1.20,1.11,-0.30
28.33,-1.22,1.07,-0.31
28.33,-1.24,1.02,-0.32
28.33,-1.25,0.97,-0.32
28.34,-1.27,0.92,-0.33
28.34,-1.27,0.85,-0.33
28.34,-1.28,0.78,-0.34
28.34,-1.29,0.71,-0.34
28.34,-1.29,0.65,-0.34
28.35,-1.30,0.61,-0.34
28.35,-1.30,0.57,-0.34
28.35,-1.30,0.53,-0.34
28.35,-1.30,0.47,-0.33
28.36,-1.30,0.42,-0.33
28.36,-1.29,0.37,-0.34
28.36,-1.29,0.33,-0.34
28.36,-1.28,0.30,-0.34
28.37,-1.27,0.28,-0.33
28.37,-1.25,0.27,-0.33
28.37,-1.23,0.26,-0.32
28.37,-1.21,0.24,-0.31
28.37,-1.16,0.25,-0.31
28.38,-1.09,0.30,-0.32
28.38,-1.00,0.34,-0.34
28.38,-0.92,0.37,-0.36
28.38,-0.84,0.38,-0.38
28.39,-0.77,0.38,-0.38
28.39,-0.71,0.35,-0.39
28.39,-0.65,0.29,-0.39
28.39,-0.62,0.20,-0.38
28.39,-0.59,0.10,-0.37
28.40,-0.57,0.00,-0.36
28.40,-0.56,-0.10,-0.34
28.40,-0.55,-0.17,-0.32
28.40,-0.55,-0.23,-0.29
28.41,-0.55,-0.28,-0.26
28.41,-0.57,-0.31,-0.23
28.41,-0.60,-0.34,-0.20
28.41,-0.64,-0.34,-0.18
28.42,-0.68,-0.34,-0.15
28.42,-0.72,-0.31,-0.12
28.42,-0.77,-0.24,-0.09
28.42,-0.83,-0.18,-0.06
28.42,-0.89,-0.13,-0.03
28.43,-0.94,-0.08,0.01
28.43,-1.01,0.01,0.04
28.43,-1.07,0.08,0.06
28.43,-1.11,0.18,0.09
28.44,-1.15,0.27,0.10
28.44,-1.18,0.35,0.11
28.44,-1.20,0.44,0.12
28.44,-1.21,0.52,0.12
28.45,-1.21,0.61,0.13
28.45,-1.21,0.69,0.13
28.45,-1.19,0.76,0.12
28.45,-1.17,0.81,0.12
28.45,-1.15,0.85,0.12
28.46,-1.11,0.89,0.11
28.46,-1.06,0.93,0.10
28.46,-1.02,0.98,0.09
28.46,-0.96,1.03,0.07
28.47,-0.91,1.07,0.06
28.47,-0.86,1.08,0.05
28.47,-0.82,1.09,0.04
28.47,-0.78,1.09,0.03
28.48,-0.74,1.09,0.03
28.48,-0.71,1.08,0.02
28.48,-0.69,1.09,0.02
28.48,-0.68,1.10,0.02
28.48,-0.67,1.13,0.02
28.49,-0.66,1.16,0.02
28.49,-0.66,1.19,0.01
28.49,-0.66,1.22,0.01
28.49,-0.66,1.23,0.00
28.50,-0.65,1.24,0.00
28.50,-0.65,1.23,-0.01
28.50,-0.65,1.21,-0.01
28.50,-0.64,1.19,-0.02
28.51,-0.64,1.15,-0.03
28.51,-0.64,1.12,-0.04
28.51,-0.64,1.08,-0.06
28.51,-0.65,1.05,-0.07
28.51,-0.66,1.02,-0.08
28.52,-0.67,0.98,-0.10
28.52,-0.68,0.94,-0.11
28.52,-0.69,0.91,-0.13
28.52,-0.70,0.88,-0.14
28.53,-0.71,0.84,-0.16
28.53,-0.72,0.81,-0.17
28.53,-0.72,0.78,-0.20
28.53,-0.73,0.75,-0.21
28.54,-0.74,0.74,-0.23
28.54,-0.75,0.72,-0.26
28.54,-0.75,0.72,-0.28
28.54,-0.76,0.72,-0.30
28.54,-0.76,0.72,-0.32
28.55,-0.76,0.72,-0.34
28.55,-0.76,0.73,-0.37
28.55,-0.76,0.74,-0.39
28.55,-0.75,0.75,-0.41
28.56,-0.74,0.75,-0.42
28.56,-0.73,0.75,-0.44
28.56,-0.72,0.73,-0.46
28.56,-0.71,0.71,-0.48
28.57,-0.70,0.69,-0.50
28.57,-0.69,0.66,-0.52
28.57,-0.68,0.63,-0.54
28.57,-0.67,0.60,-0.56
28.57,-0.66,0.58,-0.58
28.58,-0.65,0.56,-0.60
28.58,-0.64,0.54,-0.62
28.58,-0.63,0.53,-0.64
28.58,-0.62,0.52,-0.65
28.59,-0.61,0.53,-0.67
28.59,-0.60,0.54,-0.69
28.59,-0.58,0.55,-0.70
28.59,-0.58,0.56,-0.72
28.59,-0.57,0.59,-0.73
28.60,-0.56,0.61,-0.74
28.60,-0.55,0.63,-0.75
28.60,-0.54,0.66,-0.76
28.60,-0.54,0.68,-0.76
28.61,-0.53,0.71,-0.76
28.61,-0.54,0.73,-0.76
28.61,-0.54,0.75,-0.76
28.61,-0.55,0.78,-0.75
28.62,-0.56,0.80,-0.75
28.62,-0.56,0.82,-0.74
28.62,-0.57,0.84,-0.73
28.62,-0.57,0.86,-0.72
28.62,-0.58,0.87,-0.71
28.63,-0.58,0.87,-0.70
28.63,-0.58,0.87,-0.68
28.63,-0.57,0.87,-0.67
28.63,-0.58,0.86,-0.65
28.64,-0.57,0.85,-0.63
28.64,-0.56,0.83,-0.61
28.64,-0.56,0.81,-0.59
28.64,-0.55,0.78,-0.56
28.65,-0.54,0.75,-0.54
28.65,-0.54,0.72,-0.52
28.65,-0.54,0.69,-0.50
28.65,-0.54,0.66,-0.48
28.65,-0.53,0.64,-0.46
28.66,-0.53,0.62,-0.44
28.66,-0.52,0.60,-0.42
28.66,-0.51,0.59,-0.41
28.66,-0.50,0.58,-0.40
28.67,-0.47,0.57,-0.40
28.67,-0.45,0.56,-0.39
28.67,-0.41,0.55,-0.38
28.67,-0.37,0.53,-0.38
28.68,-0.33,0.51,-0.38
28.68,-0.28,0.48,-0.39
28.68,-0.24,0.44,-0.39
28.68,-0.19,0.40,-0.39
28.68,-0.15,0.35,-0.39
28.69,-0.12,0.30,-0.39
28.69,-0.09,0.26,-0.38
28.69,-0.07,0.22,-0.37
28.69,-0.06,0.19,-0.36
28.70,-0.06,0.17,-0.35
28.70,-0.07,0.16,-0.33
28.70,-0.08,0.16,-0.31
28.70,-0.09,0.17,-0.28
28.71,-0.11,0.19,-0.26
28.71,-0.14,0.22,-0.23
28.71,-0.17,0.24,-0.20
28.71,-0.19,0.26,-0.18
28.71,-0.23,0.28,-0.15
28.72,-0.26,0.30,-0.13
28.72,-0.29,0.31,-0.11
28.72,-0.31,0.32,-0.08
28.72,-0.33,0.33,-0.06
28.73,-0.35,0.34,-0.05
28.73,-0.35,0.34,-0.03
28.73,-0.35,0.34,-0.02
28.73,-0.35,0.33,-0.02
28.74,-0.34,0.32,-0.01
28.74,-0.32,0.30,-0.01
28.74,-0.30,0.29,-0.02
28.74,-0.27,0.26,-0.03
28.74,-0.23,0.23,-0.03
28.75,-0.19,0.21,-0.04
28.75,-0.16,0.20,-0.05
28.75,-0.12,0.19,-0.07
28.75,-0.08,0.19,-0.09
28.76,-0.04,0.19,-0.11
28.76,-0.01,0.18,-0.13
28.76,0.02,0.17,-0.15
28.76,0.05,0.14,-0.18
28.77,0.09,0.11,-0.19
28.77,0.13,0.07,-0.21
28.77,0.18,0.05,-0.23
28.77,0.24,0.02,-0.25
28.77,0.30,0.00,-0.27
28.78,0.36,-0.02,-0.29
28.78,0.42,-0.04,-0.31
28.78,0.49,-0.06,-0.33
28.78,0.56,-0.09,-0.34
28.79,0.63,-0.12,-0.35
28.79,0.70,-0.16,-0.35
28.79,0.78,-0.21,-0.34
28.79,0.85,-0.28,-0.33
28.80,0.91,-0.34,-0.31
28.80,0.98,-0.41,-0.29
28.80,1.04,-0.48,-0.26
28.80,1.10,-0.55,-0.22
28.80,1.17,-0.62,-0.19
28.81,1.22,-0.69,-0.14
28.81,1.28,-0.74,-0.10
28.81,1.34,-0.80,-0.04
28.81,1.41,-0.83,0.02
28.82,1.47,-0.86,0.08
28.82,1.54,-0.88,0.15
28.82,1.62,-0.89,0.22
28.82,1.70,-0.90,0.29
28.82,1.78,-0.91,0.36
28.83,1.86,-0.91,0.43
28.83,1.95,-0.90,0.50
28.83,2.02,-0.89,0.57
28.83,2.10,-0.88,0.63
28.84,2.17,-0.86,0.70
28.84,2.24,-0.84,0.75
28.84,2.30,-0.83,0.80
28.84,2.37,-0.81,0.85
28.85,2.44,-0.81,0.90
28.85,2.51,-0.81,0.93
28.85,2.57,-0.81,0.97
28.85,2.64,-0.82,1.00
28.85,2.71,-0.83,1.03
28.86,2.78,-0.83,1.06
28.86,2.83,-0.83,1.10
28.86,2.89,-0.81,1.13
28.86,2.94,-0.80,1.16
28.87,2.98,-0.77,1.19
28.87,3.03,-0.74,1.22
28.87,3.06,-0.71,1.24
28.87,3.10,-0.68,1.24
28.88,3.13,-0.65,1.24
28.88,3.16,-0.61,1.23
28.88,3.17,-0.58,1.22
28.88,3.17,-0.53,1.20
28.88,3.16,-0.49,1.18
28.89,3.14,-0.44,1.16
28.89,3.10,-0.39,1.14
28.89,3.06,-0.32,1.13
28.89,3.00,-0.24,1.12
28.90,2.95,-0.14,1.11
28.90,2.89,-0.04,1.11
28.90,2.82,0.06,1.11
28.90,2.76,0.18,1.10
28.91,2.69,0.28,1.10
28.91,2.63,0.38,1.09
28.91,2.57,0.49,1.07
28.91,2.51,0.60,1.07
28.91,2.45,0.70,1.07
28.92,2.39,0.80,1.07
28.92,2.34,0.90,1.08
28.92,2.29,1.00,1.08
28.92,2.25,1.11,1.09
28.93,2.21,1.21,1.08
28.93,2.18,1.30,1.08
28.93,2.16,1.36,1.08
28.93,2.14,1.40,1.07
28.94,2.12,1.42,1.07
28.94,2.11,1.41,1.06
28.94,2.10,1.40,1.07
28.94,2.09,1.36,1.07
28.94,2.07,1.32,1.08
28.95,2.05,1.26,1.10
28.95,2.03,1.17,1.11
28.95,2.01,1.06,1.12
28.95,2.01,0.95,1.11
28.96,2.02,0.84,1.11
28.96,2.03,0.73,1.10
28.96,2.03,0.64,1.11
28.96,2.01,0.54,1.12
28.97,1.97,0.44,1.15
28.97,1.90,0.36,1.17
28.97,1.80,0.26,1.20
28.97,1.66,0.10,1.23
28.97,1.51,-0.06,1.29
28.98,1.39,-0.16,1.36
28.98,1.28,-0.23,1.45
28.98,1.18,-0.25,1.53
28.98,1.11,-0.25,1.62
28.99,1.05,-0.23,1.70
28.99,0.99,-0.21,1.78
28.99,0.94,-0.20,1.85
28.99,0.91,-0.21,1.91
29.00,0.89,-0.22,1.95
29.00,0.89,-0.21,1.99
29.00,0.89,-0.20,2.00
29.00,0.91,-0.20,2.00
29.00,0.92,-0.23,1.98
29.01,0.94,-0.29,1.94
29.01,0.97,-0.40,1.89
29.01,1.01,-0.52,1.83
29.01,1.05,-0.67,1.76
29.02,1.11,-0.83,1.69
29.02,1.17,-1.00,1.61
29.02,1.22,-1.15,1.54
29.02,1.27,-1.27,1.46
29.02,1.31,-1.35,1.39
29.03,1.33,-1.40,1.33
29.03,1.34,-1.43,1.26
29.03,1.35,-1.45,1.20
29.03,1.35,-1.46,1.14
29.04,1.34,-1.48,1.08
29.04,1.31,-1.51,1.02
29.04,1.29,-1.54,0.96
29.04,1.25,-1.58,0.91
29.05,1.20,-1.61,0.87
29.05,1.14,-1.63,0.83
29.05,1.08,-1.66,0.80
29.05,1.01,-1.68,0.77
29.05,0.94,-1.71,0.74
29.06,0.86,-1.74,0.72
29.06,0.80,-1.75,0.70
29.06,0.73,-1.76,0.68
29.06,0.67,-1.77,0.66
29.07,0.62,-1.78,0.64
29.07,0.56,-1.79,0.63
29.07,0.51,-1.80,0.61
29.07,0.46,-1.80,0.59
29.08,0.40,-1.80,0.57
29.08,0.35,-1.79,0.55
29.08,0.30,-1.78,0.53
29.08,0.25,-1.75,0.51
29.08,0.20,-1.72,0.49
29.09,0.15,-1.69,0.47
29.09,0.11,-1.65,0.45
29.09,0.06,-1.61,0.42
29.09,0.01,-1.58,0.40
29.10,-0.05,-1.56,0.37
29.10,-0.10,-1.54,0.34
29.10,-0.15,-1.52,0.31
29.10,-0.20,-1.51,0.28
29.11,-0.25,-1.50,0.24
29.11,-0.30,-1.49,0.21
29.11,-0.35,-1.48,0.18
29.11,-0.39,-1.47,0.14
29.11,-0.44,-1.46,0.09
29.12,-0.49,-1.45,0.04
29.12,-0.53,-1.45,-0.01
29.12,-0.57,-1.44,-0.07
29.12,-0.61,-1.42,-0.13
29.13,-0.65,-1.41,-0.20
29.13,-0.69,-1.39,-0.26
29.13,-0.73,-1.38,-0.32
29.13,-0.77,-1.37,-0.39
29.14,-0.81,-1.36,-0.45
29.14,-0.84,-1.36,-0.50
29.14,-0.88,-1.36,-0.56
29.14,-0.92,-1.37,-0.61
29.14,-0.96,-1.37,-0.67
29.15,-1.00,-1.37,-0.72
29.15,-1.04,-1.38,-0.77
29.15,-1.09,-1.39,-0.82
29.15,-1.15,-1.40,-0.87
29.16,-1.20,-1.41,-0.91
29.16,-1.26,-1.43,-0.95
29.16,-1.32,-1.44,-0.99
29.16,-1.38,-1.47,-1.03
29.17,-1.44,-1.51,-1.06
29.17,-1.50,-1.55,-1.09
29.17,-1.56,-1.60,-1.11
29.17,-1.62,-1.66,-1.13
29.17,-1.68,-1.72,-1.15
29.18,-1.74,-1.79,-1.15
29.18,-1.78,-1.85,-1.16
29.18,-1.82,-1.93,-1.15
29.18,-1.84,-2.00,-1.15
29.19,-1.86,-2.06,-1.15
29.19,-1.87,-2.11,-1.14
29.19,-1.88,-2.15,-1.14
29.19,-1.87,-2.17,-1.13
29.20,-1.86,-2.18,-1.11
29.20,-1.84,-2.18,-1.09
29.20,-1.80,-2.15,-1.06
29.20,-1.74,-2.10,-1.01
29.20,-1.66,-2.03,-0.95
29.21,-1.55,-1.95,-0.89
29.21,-1.41,-1.84,-0.82
29.21,-1.25,-1.70,-0.75
29.21,-1.04,-1.55,-0.68
29.22,-0.80,-1.39,-0.60
29.22,-0.53,-1.20,-0.52
29.22,-0.25,-1.00,-0.44
29.22,0.04,-0.80,-0.34
29.22,0.33,-0.61,-0.25
29.23,0.59,-0.44,-0.14
29.23,0.81,-0.31,-0.02
29.23,0.98,-0.23,0.11
29.23,1.11,-0.21,0.23
29.24,1.18,-0.23,0.35
29.24,1.21,-0.28,0.46
29.24,1.20,-0.37,0.55
29.24,1.16,-0.49,0.62
29.25,1.10,-0.63,0.68
29.25,1.05,-0.76,0.73
29.25,1.00,-0.90,0.77
29.25,0.97,-1.16,0.80
29.25,0.95,-1.39,0.83
29.26,0.90,-1.46,0.86
29.26,0.85,-1.49,0.91
29.26,0.80,-1.57,0.97
29.26,0.74,-1.59,1.03
29.27,0.68,-1.58,1.11
29.27,0.62,-1.59,1.17
29.27,0.56,-1.63,1.22
29.27,0.51,-1.69,1.26
29.28,0.46,-1.77,1.28
29.28,0.44,-1.85,1.27
29.28,0.42,-1.92,1.24
29.28,0.42,-1.96,1.20
29.28,0.44,-1.99,1.15
29.29,0.47,-1.99,1.10
29.29,0.52,-1.94,1.03
29.29,0.58,-1.85,0.97
29.29,0.65,-1.72,0.90
29.30,0.72,-1.55,0.82
29.30,0.76,-1.36,0.75
29.30,0.77,-1.17,0.67
29.30,0.75,-1.00,0.58
29.31,0.69,-0.85,0.49
29.31,0.58,-0.73,0.40
29.31,0.45,-0.62,0.31
29.31,0.28,-0.52,0.22
29.31,0.09,-0.43,0.12
29.32,-0.10,-0.35,0.02
29.32,-0.30,-0.26,-0.10
29.32,-0.48,-0.17,-0.22
29.32,-0.61,-0.08,-0.34
29.33,-0.71,-0.03,-0.45
29.33,-0.74,-0.03,-0.56
29.33,-0.70,-0.08,-0.66
29.33,-0.59,-0.18,-0.74
29.34,-0.41,-0.28,-0.80
29.34,-0.16,-0.36,-0.86
29.34,0.14,-0.43,-0.90
29.34,0.46,-0.46,-0.93
29.34,0.76,-0.48,-0.92
29.35,1.02,-0.46,-0.86
29.35,1.20,-0.39,-0.76
29.35,1.28,-0.31,-0.63
29.35,1.30,-0.22,-0.47
29.36,1.25,-0.15,-0.31
29.36,1.18,-0.10,-0.15
29.36,1.09,-0.07,0.00
29.36,1.02,-0.03,0.14
29.37,0.95,0.03,0.26
29.37,0.90,0.10,0.35
29.37,0.85,0.18,0.40
29.37,0.79,0.24,0.43
29.37,0.73,0.30,0.46
29.38,0.65,0.37,0.48
29.38,0.54,0.44,0.48
29.38,0.42,0.52,0.47
29.38,0.28,0.60,0.46
29.39,0.13,0.68,0.43
29.39,-0.02,0.75,0.41
29.39,-0.17,0.82,0.38
29.39,-0.33,0.89,0.33
29.40,-0.48,0.95,0.28
29.40,-0.62,1.03,0.20
29.40,-0.75,1.11,0.11
29.40,-0.85,1.19,0.01
29.40,-0.95,1.26,-0.10
29.41,-1.02,1.34,-0.20
29.41,-1.08,1.42,-0.30
29.41,-1.13,1.49,-0.39
29.41,-1.18,1.56,-0.47
29.42,-1.21,1.62,-0.53
29.42,-1.25,1.67,-0.58
29.42,-1.27,1.73,-0.62
29.42,-1.30,1.82,-0.65
29.42,-1.32,1.93,-0.66
29.43,-1.35,2.04,-0.67
29.43,-1.37,2.16,-0.67
29.43,-1.39,2.27,-0.67
29.43,-1.41,2.39,-0.66
29.44,-1.44,2.50,-0.66
29.44,-1.46,2.59,-0.66
29.44,-1.48,2.67,-0.67
29.44,-1.51,2.73,-0.69
29.45,-1.53,2.77,-0.72
29.45,-1.55,2.79,-0.76
29.45,-1.57,2.79,-0.80
29.45,-1.58,2.77,-0.84
29.45,-1.59,2.73,-0.88
29.46,-1.60,2.67,-0.91
29.46,-1.61,2.60,-0.93
29.46,-1.60,2.52,-0.94
29.46,-1.60,2.44,-0.94
29.47,-1.59,2.36,-0.93
29.47,-1.58,2.30,-0.90
29.47,-1.56,2.25,-0.85
29.47,-1.56,2.19,-0.80
29.48,-1.55,2.13,-0.72
29.48,-1.55,2.06,-0.64
29.48,-1.56,1.99,-0.56
29.48,-1.57,1.92,-0.47
29.48,-1.58,1.85,-0.38
29.49,-1.60,1.79,-0.29
29.49,-1.62,1.74,-0.21
29.49,-1.64,1.70,-0.13
29.49,-1.67,1.66,-0.06
29.50,-1.69,1.64,-0.01
29.50,-1.73,1.61,0.04
29.50,-1.76,1.58,0.07
29.50,-1.79,1.55,0.09
29.51,-1.81,1.52,0.11
29.51,-1.84,1.50,0.11
29.51,-1.86,1.47,0.11
29.51,-1.87,1.44,0.10
29.51,-1.87,1.40,0.09
29.52,-1.86,1.35,0.08
29.52,-1.84,1.29,0.05
29.52,-1.82,1.21,0.03
29.52,-1.79,1.11,0.01
29.53,-1.75,1.02,-0.01
29.53,-1.70,0.93,-0.04
29.53,-1.65,0.82,-0.06
29.53,-1.58,0.70,-0.09
29.54,-1.52,0.57,-0.12
29.54,-1.45,0.45,-0.14
29.54,-1.38,0.34,-0.16
29.54,-1.32,0.25,-0.18
29.54,-1.26,0.18,-0.20
29.55,-1.19,0.08,-0.22
29.55,-1.14,-0.02,-0.25
29.55,-1.08,-0.10,-0.27
29.55,-1.04,-0.18,-0.29
29.56,-1.01,-0.24,-0.31
29.56,-0.98,-0.29,-0.32
29.56,-0.92,-0.27,-0.36
29.56,-0.86,-0.25,-0.41
29.57,-0.80,-0.23,-0.45
29.57,-0.75,-0.20,-0.50
29.57,-0.71,-0.20,-0.53
29.57,-0.68,-0.20,-0.56
29.57,-0.66,-0.23,-0.58
29.58,-0.66,-0.27,-0.58
29.58,-0.66,-0.33,-0.59
29.58,-0.67,-0.38,-0.59
29.58,-0.68,-0.43,-0.57
29.59,-0.69,-0.46,-0.56
29.59,-0.71,-0.49,-0.55
29.59,-0.73,-0.50,-0.53
29.59,-0.74,-0.50,-0.51
29.60,-0.76,-0.49,-0.48
29.60,-0.78,-0.45,-0.46
29.60,-0.80,-0.37,-0.44
29.60,-0.82,-0.29,-0.41
29.60,-0.84,-0.22,-0.38
29.61,-0.87,-0.15,-0.35
29.61,-0.91,-0.08,-0.31
29.61,-0.94,0.00,-0.27
29.61,-0.97,0.10,-0.23
29.62,-1.00,0.18,-0.20
29.62,-1.03,0.26,-0.17
29.62,-1.06,0.34,-0.15
29.62,-1.08,0.43,-0.13
29.63,-1.10,0.51,-0.12
29.63,-1.11,0.60,-0.12
29.63,-1.12,0.69,-0.12
29.63,-1.11,0.76,-0.12
29.63,-1.09,0.82,-0.12
29.64,-1.06,0.86,-0.13
29.64,-1.04,0.87,-0.13
29.64,-1.01,0.88,-0.13
29.64,-0.99,0.88,-0.13
29.65,-0.97,0.88,-0.14
29.65,-0.95,0.88,-0.14
29.65,-0.94,0.89,-0.15
29.65,-0.93,0.91,-0.15
29.65,-0.92,0.93,-0.16
29.66,-0.90,0.95,-0.16
29.66,-0.89,0.97,-0.16
29.66,-0.86,0.97,-0.17
29.66,-0.84,0.96,-0.17
29.67,-0.82,0.94,-0.17
29.67,-0.79,0.91,-0.17
29.67,-0.77,0.86,-0.18
29.67,-0.75,0.81,-0.18
29.68,-0.73,0.77,-0.18
29.68,-0.71,0.72,-0.19
29.68,-0.70,0.67,-0.19
29.68,-0.69,0.63,-0.19
29.68,-0.68,0.58,-0.20
29.69,-0.67,0.55,-0.19
29.69,-0.67,0.52,-0.19
29.69,-0.68,0.50,-0.19
29.69,-0.68,0.48,-0.19
29.70,-0.68,0.46,-0.19
29.70,-0.69,0.44,-0.19
29.70,-0.70,0.44,-0.19
29.70,-0.70,0.44,-0.19
29.71,-0.71,0.43,-0.19
29.71,-0.72,0.43,-0.19
29.71,-0.73,0.42,-0.19
29.71,-0.73,0.42,-0.19
29.71,-0.74,0.42,-0.20
29.72,-0.75,0.43,-0.20
29.72,-0.75,0.44,-0.21
29.72,-0.76,0.45,-0.21
29.72,-0.76,0.46,-0.22
29.73,-0.76,0.49,-0.23
29.73,-0.76,0.52,-0.24
29.73,-0.76,0.55,-0.24
29.73,-0.76,0.58,-0.25
29.74,-0.76,0.61,-0.26
29.74,-0.75,0.64,-0.27
29.74,-0.75,0.67,-0.28
29.74,-0.75,0.69,-0.29
29.74,-0.74,0.71,-0.31
29.75,-0.74,0.72,-0.32
29.75,-0.74,0.73,-0.33
29.75,-0.74,0.73,-0.35
29.75,-0.74,0.73,-0.36
29.76,-0.73,0.72,-0.37
29.76,-0.74,0.71,-0.39
29.76,-0.74,0.69,-0.40
29.76,-0.74,0.67,-0.42
29.77,-0.74,0.64,-0.44
29.77,-0.74,0.61,-0.46
29.77,-0.74,0.58,-0.47
29.77,-0.74,0.55,-0.49
29.77,-0.73,0.52,-0.51
29.78,-0.73,0.48,-0.52
29.78,-0.71,0.46,-0.53
29.78,-0.70,0.44,-0.54
29.78,-0.68,0.41,-0.55
29.79,-0.66,0.40,-0.56
29.79,-0.64,0.39,-0.57
29.79,-0.63,0.38,-0.57
29.79,-0.61,0.37,-0.58
29.80,-0.59,0.36,-0.58
29.80,-0.57,0.36,-0.59
29.80,-0.56,0.36,-0.59
29.80,-0.55,0.35,-0.59
29.80,-0.55,0.36,-0.59
29.81,-0.54,0.36,-0.59
29.81,-0.54,0.38,-0.59
29.81,-0.53,0.40,-0.59
29.81,-0.53,0.42,-0.58
29.82,-0.52,0.45,-0.58
29.82,-0.52,0.47,-0.58
29.82,-0.52,0.50,-0.58
29.82,-0.51,0.52,-0.59
29.83,-0.51,0.54,-0.58
29.83,-0.51,0.57,-0.58
29.83,-0.51,0.58,-0.58
29.83,-0.50,0.61,-0.58
29.83,-0.50,0.62,-0.57
29.84,-0.49,0.63,-0.56
29.84,-0.49,0.65,-0.56
29.84,-0.48,0.66,-0.55
29.84,-0.48,0.66,-0.55
29.85,-0.47,0.67,-0.54
29.85,-0.46,0.67,-0.53
29.85,-0.45,0.66,-0.53
29.85,-0.44,0.65,-0.52
29.85,-0.43,0.65,-0.51
29.86,-0.42,0.64,-0.51
29.86,-0.40,0.62,-0.50
29.86,-0.38,0.61,-0.50
29.86,-0.37,0.60,-0.49
29.87,-0.36,0.58,-0.49
29.87,-0.34,0.56,-0.48
29.87,-0.33,0.55,-0.47
29.87,-0.32,0.53,-0.46
29.88,-0.31,0.51,-0.46
29.88,-0.30,0.50,-0.45
29.88,-0.28,0.49,-0.45
29.88,-0.27,0.47,-0.44
29.88,-0.25,0.46,-0.43
29.89,-0.24,0.43,-0.42
29.89,-0.22,0.41,-0.41
29.89,-0.21,0.39,-0.40
29.89,-0.19,0.36,-0.39
29.90,-0.18,0.34,-0.37
29.90,-0.17,0.32,-0.36
29.90,-0.15,0.29,-0.35
29.90,-0.15,0.27,-0.33
29.91,-0.14,0.25,-0.31
29.91,-0.13,0.23,-0.30
29.91,-0.13,0.22,-0.28
29.91,-0.12,0.20,-0.26
29.91,-0.12,0.18,-0.25
29.92,-0.12,0.16,-0.23
29.92,-0.12,0.15,-0.22
29.92,-0.13,0.13,-0.20
29.92,-0.13,0.11,-0.18
29.93,-0.14,0.09,-0.16
29.93,-0.15,0.08,-0.15
29.93,-0.16,0.06,-0.13
29.93,-0.17,0.04,-0.11
29.94,-0.19,0.03,-0.10
29.94,-0.21,0.02,-0.08
29.94,-0.23,0.01,-0.07
29.94,-0.24,0.01,-0.06
29.94,-0.26,0.01,-0.05
29.95,-0.27,0.02,-0.04
29.95,-0.28,0.04,-0.04
29.95,-0.28,0.06,-0.04
29.95,-0.28,0.07,-0.04
29.96,-0.28,0.09,-0.05
29.96,-0.27,0.11,-0.05
29.96,-0.26,0.13,-0.06
29.96,-0.25,0.16,-0.07
29.97,-0.23,0.18,-0.08
29.97,-0.22,0.20,-0.09
29.97,-0.20,0.22,-0.09
29.97,-0.18,0.25,-0.10
29.97,-0.16,0.26,-0.11
29.98,-0.13,0.29,-0.11
29.98,-0.11,0.31,-0.11
29.98,-0.08,0.32,-0.11
29.98,-0.05,0.33,-0.11
29.99,-0.03,0.34,-0.11
29.99,0.01,0.34,-0.11
29.99,0.03,0.33,-0.11
29.99,0.06,0.32,-0.11
30.00,0.09,0.30,-0.11
30.00,0.12,0.28,-0.11
30.00,0.15,0.24,-0.11
30.00,0.18,0.20,-0.11
30.00,0.22,0.15,-0.11
30.01,0.25,0.10,-0.11
30.01,0.28,0.04,-0.11
30.01,0.32,-0.02,-0.11
30.01,0.36,-0.09,-0.10
30.02,0.41,-0.17,-0.09
30.02,0.46,-0.25,-0.08
30.02,0.51,-0.33,-0.06
30.02,0.56,-0.40,-0.04
30.03,0.62,-0.48,-0.02
30.03,0.68,-0.54,0.00
30.03,0.74,-0.61,0.02
30.03,0.80,-0.67,0.05
30.03,0.87,-0.73,0.08
30.04,0.94,-0.78,0.12
30.04,1.01,-0.82,0.15
30.04,1.08,-0.86,0.19
30.04,1.16,-0.90,0.24
30.05,1.23,-0.92,0.29
30.05,1.30,-0.94,0.34
30.05,1.37,-0.96,0.38
30.05,1.44,-0.96,0.43
30.05,1.51,-0.97,0.48
30.06,1.57,-0.98,0.53
30.06,1.63,-0.98,0.57
30.06,1.68,-0.98,0.62
30.06,1.73,-0.97,0.67
30.07,1.78,-0.96,0.71
30.07,1.82,-0.93,0.75
30.07,1.87,-0.89,0.78
30.07,1.91,-0.86,0.81
30.08,1.95,-0.83,0.84
30.08,1.99,-0.79,0.87
30.08,2.04,-0.75,0.89
30.08,2.08,-0.71,0.91
30.08,2.12,-0.67,0.92
30.09,2.16,-0.63,0.93
30.09,2.20,-0.60,0.94
30.09,2.24,-0.57,0.95
30.09,2.28,-0.55,0.96
30.10,2.32,-0.53,0.96
30.10,2.36,-0.52,0.97
30.10,2.39,-0.53,0.98
30.10,2.42,-0.54,0.98
30.11,2.44,-0.55,0.99
30.11,2.47,-0.56,1.00
30.11,2.48,-0.57,1.02
30.11,2.50,-0.58,1.03
30.11,2.52,-0.58,1.04
30.12,2.53,-0.56,1.04
30.12,2.54,-0.53,1.03
30.12,2.55,-0.46,1.01
30.12,2.56,-0.35,0.98
30.13,2.58,-0.20,0.96
30.13,2.58,-0.05,0.94
30.13,2.57,0.09,0.92
30.13,2.56,0.23,0.91
30.14,2.54,0.35,0.90
30.14,2.52,0.45,0.89
30.14,2.49,0.53,0.88
30.14,2.47,0.59,0.88
30.14,2.45,0.63,0.87
30.15,2.43,0.64,0.87
30.15,2.42,0.64,0.87
30.15,2.41,0.64,0.88
30.15,2.41,0.63,0.89
30.16,2.42,0.62,0.91
30.16,2.43,0.62,0.93
30.16,2.44,0.60,0.95
30.16,2.45,0.57,0.98
30.17,2.45,0.53,1.01
30.17,2.45,0.50,1.04
30.17,2.45,0.46,1.06
30.17,2.44,0.43,1.09
30.17,2.43,0.41,1.12
30.18,2.42,0.41,1.15
30.18,2.40,0.44,1.18
30.18,2.37,0.47,1.21
30.18,2.33,0.51,1.23
30.19,2.28,0.54,1.24
30.19,2.22,0.58,1.26
30.19,2.16,0.61,1.27
30.19,2.09,0.64,1.29
30.20,2.02,0.66,1.30
30.20,1.95,0.66,1.32
30.20,1.88,0.67,1.33
30.20,1.82,0.68,1.33
30.20,1.77,0.68,1.33
30.21,1.72,0.67,1.32
30.21,1.66,0.64,1.30
30.21,1.57,0.56,1.30
30.21,1.46,0.42,1.31
30.22,1.34,0.26,1.34
30.22,1.23,0.13,1.38
30.22,1.15,0.06,1.44
30.22,1.08,0.02,1.49
30.23,1.04,0.01,1.54
30.23,1.02,-0.01,1.58
30.23,1.00,-0.03,1.61
30.23,0.99,-0.08,1.63
30.23,0.98,-0.12,1.65
30.24,0.99,-0.15,1.66
30.24,0.99,-0.16,1.68
30.24,1.00,-0.19,1.68
30.24,1.00,-0.21,1.68
30.25,0.99,-0.23,1.67
30.25,0.99,-0.27,1.64
30.25,0.98,-0.31,1.60
30.25,0.98,-0.35,1.56
30.25,0.98,-0.40,1.52
30.26,0.98,-0.45,1.47
30.26,0.97,-0.52,1.43
30.26,0.97,-0.58,1.39
30.26,0.96,-0.64,1.36
30.27,0.95,-0.70,1.33
30.27,0.93,-0.74,1.30
30.27,0.90,-0.77,1.27
30.27,0.88,-0.80,1.24
30.28,0.85,-0.82,1.21
30.28,0.81,-0.85,1.19
30.28,0.78,-0.87,1.16
30.28,0.74,-0.89,1.13
30.28,0.71,-0.90,1.10
30.29,0.67,-0.91,1.07
30.29,0.64,-0.93,1.04
30.29,0.61,-0.94,1.01
30.29,0.58,-0.96,0.98
30.30,0.55,-0.98,0.95
30.30,0.52,-1.00,0.92
30.30,0.49,-1.01,0.89
30.30,0.46,-1.02,0.86
30.31,0.43,-1.03,0.83
30.31,0.41,-1.04,0.80
30.31,0.38,-1.05,0.77
30.31,0.36,-1.07,0.75
30.31,0.33,-1.08,0.72
30.32,0.31,-1.10,0.70
30.32,0.29,-1.12,0.68
30.32,0.27,-1.14,0.66
30.32,0.24,-1.16,0.64
30.33,0.22,-1.17,0.62
30.33,0.19,-1.19,0.60
30.33,0.17,-1.20,0.58
30.33,0.14,-1.21,0.56
30.34,0.10,-1.21,0.54
30.34,0.07,-1.21,0.52
30.34,0.03,-1.21,0.50
30.34,-0.01,-1.20,0.47
30.34,-0.05,-1.20,0.44
30.35,-0.09,-1.19,0.42
30.35,-0.12,-1.19,0.39
30.35,-0.16,-1.18,0.36
30.35,-0.19,-1.18,0.33
30.36,-0.23,-1.19,0.29
30.36,-0.26,-1.20,0.25
30.36,-0.29,-1.19,0.21
30.36,-0.31,-1.16,0.17
30.37,-0.34,-1.12,0.13
30.37,-0.36,-1.05,0.09
30.37,-0.39,-0.98,0.05
30.37,-0.41,-0.91,0.01
30.37,-0.43,-0.85,-0.04
30.38,-0.45,-0.80,-0.08
30.38,-0.48,-0.75,-0.13
30.38,-0.50,-0.71,-0.18
30.38,-0.51,-0.68,-0.22
30.39,-0.53,-0.66,-0.27
30.39,-0.55,-0.64,-0.31
30.39,-0.57,-0.63,-0.36
30.39,-0.59,-0.63,-0.40
30.40,-0.60,-0.63,-0.44
30.40,-0.62,-0.62,-0.49
30.40,-0.64,-0.62,-0.52
30.40,-0.66,-0.62,-0.56
30.40,-0.68,-0.62,-0.60
30.41,-0.70,-0.62,-0.64
30.41,-0.72,-0.63,-0.68
30.41,-0.74,-0.65,-0.72
30.41,-0.76,-0.66,-0.76
30.42,-0.78,-0.67,-0.80
30.42,-0.80,-0.68,-0.84
30.42,-0.82,-0.69,-0.87
30.42,-0.84,-0.71,-0.91
30.43,-0.87,-0.73,-0.94
30.43,-0.89,-0.74,-0.98
30.43,-0.91,-0.75,-1.01
30.43,-0.93,-0.75,-1.04
30.43,-0.96,-0.76,-1.07
30.44,-0.98,-0.78,-1.10
30.44,-1.00,-0.80,-1.12
30.44,-1.03,-0.82,-1.15
30.44,-1.05,-0.84,-1.18
30.45,-1.06,-0.87,-1.20
30.45,-1.07,-0.91,-1.22
30.45,-1.08,-0.95,-1.24
30.45,-1.09,-1.00,-1.26
30.45,-1.08,-1.05,-1.28
30.46,-1.08,-1.10,-1.30
30.46,-1.08,-1.16,-1.31
30.46,-1.07,-1.21,-1.32
30.46,-1.06,-1.26,-1.33
30.47,-1.05,-1.32,-1.33
30.47,-1.04,-1.37,-1.33
30.47,-1.03,-1.43,-1.33
30.47,-1.03,-1.49,-1.33
30.48,-1.01,-1.57,-1.33
30.48,-0.99,-1.65,-1.32
30.48,-0.97,-1.74,-1.30
30.48,-0.95,-1.81,-1.28
30.48,-0.92,-1.87,-1.24
30.49,-0.89,-1.92,-1.21
30.49,-0.86,-1.97,-1.17
30.49,-0.81,-2.01,-1.13
30.49,-0.76,-2.03,-1.08
30.50,-0.70,-2.04,-1.03
30.50,-0.62,-2.05,-0.98
30.50,-0.53,-2.05,-0.91
30.50,-0.44,-2.04,-0.84
30.51,-0.34,-2.02,-0.76
30.51,-0.24,-1.97,-0.69
30.51,-0.14,-1.91,-0.60
30.51,-0.05,-1.84,-0.50
30.51,0.03,-1.78,-0.40
30.52,0.10,-1.73,-0.28
30.52,0.17,-1.68,-0.15
30.52,0.21,-1.64,-0.02
30.52,0.24,-1.58,0.12
30.53,0.25,-1.52,0.26
30.53,0.26,-1.45,0.38
30.53,0.25,-1.39,0.49
30.53,0.23,-1.35,0.59
30.54,0.21,-1.33,0.68
30.54,0.19,-1.33,0.75
30.54,0.18,-1.37,0.81
30.54,0.18,-1.44,0.87
30.54,0.19,-1.54,0.92
30.55,0.20,-1.65,0.96
30.55,0.22,-1.75,0.99
30.55,0.25,-1.85,1.02
30.55,0.28,-1.93,1.03
30.56,0.30,-2.00,1.04
30.56,0.32,-2.05,1.05
30.56,0.34,-2.07,1.05
30.56,0.35,-2.07,1.04
30.57,0.36,-2.05,1.03
30.57,0.37,-2.01,1.00
30.57,0.38,-1.95,0.97
30.57,0.40,-1.89,0.92
30.57,0.41,-1.81,0.86
30.58,0.41,-1.73,0.80
30.58,0.41,-1.64,0.72
30.58,0.41,-1.55,0.64
30.58,0.41,-1.47,0.55
30.59,0.41,-1.38,0.46
30.59,0.42,-1.30,0.37
30.59,0.43,-1.20,0.29
30.59,0.46,-1.11,0.20
30.60,0.49,-1.02,0.14
30.60,0.52,-0.93,0.07
30.60,0.54,-0.85,0.01
30.60,0.54,-0.80,-0.06
30.60,0.52,-0.78,-0.12
30.61,0.48,-0.79,-0.18
30.61,0.42,-0.83,-0.24
30.61,0.35,-0.90,-0.30
30.61,0.28,-0.99,-0.36
30.62,0.21,-1.10,-0.42
30.62,0.14,-1.21,-0.47
30.62,0.07,-1.34,-0.52
30.62,-0.01,-1.46,-0.56
30.63,-0.08,-1.57,-0.58
30.63,-0.15,-1.65,-0.60
30.63,-0.21,-1.70,-0.61
30.63,-0.25,-1.72,-0.60
30.63,-0.28,-1.70,-0.58
30.64,-0.29,-1.67,-0.55
30.64,-0.29,-1.60,-0.52
30.64,-0.28,-1.51,-0.47
30.64,-0.26,-1.40,-0.43
30.65,-0.23,-1.25,-0.38
30.65,-0.21,-1.09,-0.33
30.65,-0.19,-0.90,-0.28
30.65,-0.18,-0.70,-0.24
30.66,-0.18,-0.48,-0.21
30.66,-0.18,-0.27,-0.19
30.66,-0.18,-0.05,-0.17
30.66,-0.19,0.17,-0.16
30.66,-0.21,0.38,-0.15
30.67,-0.24,0.58,-0.15
30.67,-0.27,0.78,-0.15
30.67,-0.31,0.98,-0.16
30.67,-0.35,1.16,-0.16
30.68,-0.40,1.34,-0.16
30.68,-0.45,1.50,-0.17
30.68,-0.51,1.63,-0.17
30.68,-0.56,1.76,-0.18
30.68,-0.62,1.86,-0.18
30.69,-0.67,1.93,-0.18
30.69,-0.73,2.00,-0.18
30.69,-0.78,2.04,-0.17
30.69,-0.83,2.06,-0.16
30.70,-0.89,2.07,-0.15
30.70,-0.94,2.05,-0.14
30.70,-0.99,2.03,-0.13
30.70,-1.04,2.01,-0.13
30.71,-1.09,1.99,-0.13
30.71,-1.15,1.98,-0.12
30.71,-1.19,1.97,-0.12
30.71,-1.23,1.97,-0.12
30.71,-1.26,1.97,-0.11
30.72,-1.28,1.97,-0.11
30.72,-1.29,1.98,-0.12
30.72,-1.30,1.97,-0.12
30.72,-1.30,1.98,-0.13
30.73,-1.30,1.98,-0.13
30.73,-1.30,1.98,-0.14
30.73,-1.29,1.98,-0.14
30.73,-1.29,1.97,-0.14
30.74,-1.29,1.97,-0.14
30.74,-1.30,1.95,-0.14
30.74,-1.30,1.94,-0.14
30.74,-1.31,1.92,-0.13
30.74,-1.32,1.91,-0.13
30.75,-1.33,1.90,-0.14
30.75,-1.34,1.89,-0.14
30.75,-1.34,1.88,-0.15
30.75,-1.36,1.87,-0.16
30.76,-1.37,1.86,-0.17
30.76,-1.37,1.86,-0.19
30.76,-1.38,1.86,-0.21
30.76,-1.38,1.86,-0.22
30.77,-1.38,1.88,-0.24
30.77,-1.39,1.89,-0.25
30.77,-1.40,1.91,-0.27
30.77,-1.40,1.91,-0.29
30.77,-1.41,1.91,-0.30
30.78,-1.42,1.91,-0.31
30.78,-1.43,1.92,-0.32
30.78,-1.43,1.93,-0.33
30.78,-1.43,1.94,-0.34
30.79,-1.43,1.96,-0.36
30.79,-1.41,2.00,-0.38
30.79,-1.39,2.04,-0.40
30.79,-1.37,2.08,-0.43
30.80,-1.35,2.11,-0.47
30.80,-1.32,2.12,-0.50
30.80,-1.30,2.12,-0.52
30.80,-1.28,2.09,-0.55
30.80,-1.26,2.05,-0.57
30.81,-1.24,1.98,-0.58
30.81,-1.22,1.91,-0.59
30.81,-1.20,1.82,-0.60
30.81,-1.18,1.71,-0.61
30.82,-1.15,1.60,-0.62
30.82,-1.13,1.48,-0.64
30.82,-1.11,1.35,-0.65
30.82,-1.08,1.22,-0.66
30.83,-1.06,1.08,-0.66
30.83,-1.05,0.94,-0.67
30.83,-1.04,0.82,-0.67
30.83,-1.03,0.70,-0.66
30.83,-1.03,0.59,-0.65
30.84,-1.03,0.50,-0.63
30.84,-1.03,0.42,-0.62
30.84,-1.04,0.36,-0.59
30.84,-1.05,0.31,-0.57
30.85,-1.07,0.26,-0.54
30.85,-1.09,0.21,-0.50
30.85,-1.11,0.17,-0.46
30.85,-1.13,0.12,-0.42
30.86,-1.15,0.10,-0.39
30.86,-1.15,0.10,-0.35
30.86,-1.15,0.13,-0.32
30.86,-1.14,0.17,-0.29
30.86,-1.13,0.21,-0.25
30.87,-1.12,0.25,-0.21
30.87,-1.10,0.30,-0.19
30.87,-1.07,0.37,-0.19
30.87,-1.04,0.45,-0.18
30.88,-1.01,0.53,-0.17
30.88,-0.98,0.59,-0.16
30.88,-0.95,0.63,-0.16
30.88,-0.93,0.65,-0.14
30.88,-0.91,0.65,-0.13
30.89,-0.90,0.63,-0.11
30.89,-0.89,0.59,-0.09
30.89,-0.90,0.53,-0.06
30.89,-0.90,0.47,-0.03
30.90,-0.91,0.41,0.00
30.90,-0.92,0.38,0.03
30.90,-0.92,0.37,0.06
30.90,-0.93,0.37,0.08
30.91,-0.94,0.39,0.10
30.91,-0.94,0.40,0.12
30.91,-0.95,0.41,0.13
30.91,-0.95,0.42,0.14
30.91,-0.96,0.44,0.15
30.92,-0.98,0.46,0.16
30.92,-0.99,0.49,0.16
30.92,-1.00,0.51,0.16
30.92,-1.02,0.54,0.16
30.93,-1.03,0.58,0.15
30.93,-1.04,0.62,0.15
30.93,-1.05,0.66,0.15
30.93,-1.05,0.70,0.14
30.94,-1.04,0.75,0.13
30.94,-1.03,0.78,0.12
30.94,-1.02,0.81,0.11
30.94,-1.00,0.83,0.10
30.94,-0.99,0.84,0.08
30.95,-0.97,0.86,0.07
30.95,-0.95,0.88,0.05
30.95,-0.92,0.90,0.04
30.95,-0.89,0.92,0.03
30.96,-0.86,0.92,0.01
30.96,-0.82,0.93,0.00
30.96,-0.79,0.93,-0.01
30.96,-0.75,0.92,-0.01
30.97,-0.72,0.89,-0.02
30.97,-0.68,0.86,-0.02
30.97,-0.63,0.82,-0.02
30.97,-0.60,0.79,-0.02
30.97,-0.56,0.75,-0.02
30.98,-0.53,0.72,-0.02
30.98,-0.50,0.70,-0.02
30.98,-0.47,0.68,-0.02
30.98,-0.46,0.68,-0.01
30.99,-0.45,0.67,-0.01
30.99,-0.45,0.67,-0.01
30.99,-0.46,0.66,0.00
30.99,-0.46,0.66,0.00
31.00,-0.48,0.66,0.00
31.00,-0.49,0.66,0.01
31.00,-0.50,0.66,0.01
31.00,-0.52,0.66,0.00
31.00,-0.53,0.66,0.00
31.01,-0.55,0.67,0.00
31.01,-0.56,0.67,0.00
31.01,-0.58,0.68,-0.01
31.01,-0.59,0.70,-0.02
31.02,-0.60,0.71,-0.02
31.02,-0.61,0.73,-0.03
31.02,-0.62,0.75,-0.04
31.02,-0.63,0.78,-0.05
31.03,-0.64,0.79,-0.06
31.03,-0.65,0.81,-0.08
31.03,-0.66,0.82,-0.10
31.03,-0.67,0.82,-0.12
31.03,-0.68,0.80,-0.14
31.04,-0.68,0.79,-0.16
31.04,-0.69,0.76,-0.19
31.04,-0.70,0.73,-0.21
31.04,-0.70,0.69,-0.24
31.05,-0.70,0.65,-0.27
31.05,-0.70,0.61,-0.29
31.05,-0.70,0.57,-0.32
31.05,-0.69,0.52,-0.35
31.06,-0.69,0.48,-0.38
31.06,-0.69,0.44,-0.40
31.06,-0.69,0.40,-0.43
31.06,-0.68,0.38,-0.46
31.06,-0.68,0.35,-0.48
31.07,-0.67,0.33,-0.50
31.07,-0.67,0.32,-0.53
31.07,-0.66,0.32,-0.55
31.07,-0.66,0.33,-0.57
31.08,-0.65,0.33,-0.59
31.08,-0.64,0.34,-0.60
31.08,-0.64,0.36,-0.61
31.08,-0.63,0.38,-0.63
31.08,-0.63,0.39,-0.64
31.09,-0.62,0.41,-0.65
31.09,-0.61,0.42,-0.65
31.09,-0.61,0.43,-0.65
31.09,-0.61,0.44,-0.65
31.10,-0.61,0.44,-0.65
31.10,-0.61,0.44,-0.65
31.10,-0.61,0.43,-0.65
31.10,-0.61,0.43,-0.64
31.11,-0.62,0.43,-0.64
31.11,-0.63,0.42,-0.63
31.11,-0.64,0.42,-0.62
31.11,-0.64,0.43,-0.61
31.11,-0.65,0.44,-0.61
31.12,-0.65,0.45,-0.60
31.12,-0.66,0.47,-0.59
31.12,-0.66,0.48,-0.58
31.12,-0.66,0.50,-0.58
31.13,-0.66,0.52,-0.57
31.13,-0.66,0.54,-0.56
31.13,-0.65,0.55,-0.55
31.13,-0.64,0.57,-0.55
31.14,-0.63,0.59,-0.55
31.14,-0.61,0.60,-0.54
31.14,-0.59,0.61,-0.53
31.14,-0.57,0.63,-0.52
31.14,-0.55,0.64,-0.52
31.15,-0.52,0.65,-0.51
31.15,-0.49,0.66,-0.50
31.15,-0.46,0.67,-0.49
31.15,-0.44,0.68,-0.48
31.16,-0.41,0.67,-0.47
31.16,-0.38,0.67,-0.45
31.16,-0.36,0.67,-0.44
31.16,-0.33,0.66,-0.43
31.17,-0.31,0.65,-0.41
31.17,-0.29,0.64,-0.40
31.17,-0.27,0.62,-0.39
31.17,-0.26,0.61,-0.38
31.17,-0.24,0.59,-0.37
31.18,-0.23,0.56,-0.36
31.18,-0.21,0.54,-0.35
31.18,-0.20,0.50,-0.34
31.18,-0.19,0.47,-0.34
31.19,-0.18,0.42,-0.33
31.19,-0.18,0.37,-0.31
31.19,-0.17,0.33,-0.30
31.19,-0.18,0.29,-0.28
31.20,-0.18,0.25,-0.26
31.20,-0.19,0.22,-0.25
31.20,-0.21,0.20,-0.23
31.20,-0.23,0.19,-0.21
31.20,-0.25,0.19,-0.19
31.21,-0.27,0.20,-0.17
31.21,-0.29,0.22,-0.14
31.21,-0.31,0.23,-0.12
31.21,-0.32,0.25,-0.11
31.22,-0.34,0.27,-0.09
31.22,-0.35,0.28,-0.07
31.22,-0.36,0.29,-0.04
31.22,-0.37,0.29,-0.02
31.23,-0.37,0.29,0.00
31.23,-0.37,0.28,0.02
31.23,-0.38,0.28,0.04
31.23,-0.38,0.28,0.07
31.23,-0.37,0.28,0.09
31.24,-0.36,0.28,0.10
31.24,-0.35,0.28,0.11
31.24,-0.34,0.27,0.11
31.24,-0.32,0.26,0.11
31.25,-0.30,0.26,0.11
31.25,-0.28,0.26,0.11
31.25,-0.25,0.25,0.11
31.25,-0.23,0.25,0.10
31.26,-0.20,0.24,0.09
31.26,-0.17,0.23,0.08
31.26,-0.14,0.22,0.06
31.26,-0.11,0.21,0.05
31.26,-0.08,0.18,0.03
31.27,-0.04,0.15,0.01
31.27,0.00,0.11,-0.02
31.27,0.05,0.07,-0.04
31.27,0.10,0.02,-0.07
31.28,0.16,-0.04,-0.10
31.28,0.22,-0.11,-0.12
31.28,0.29,-0.18,-0.15
31.28,0.35,-0.25,-0.17
31.29,0.42,-0.33,-0.19
31.29,0.49,-0.39,-0.20
31.29,0.55,-0.46,-0.20
31.29,0.61,-0.53,-0.20
31.29,0.66,-0.59,-0.19
31.30,0.71,-0.65,-0.18
31.30,0.75,-0.71,-0.17
31.30,0.79,-0.77,-0.15
31.30,0.83,-0.82,-0.12
31.31,0.87,-0.86,-0.09
31.31,0.90,-0.89,-0.06
31.31,0.95,-0.91,-0.02
31.31,0.99,-0.92,0.02
31.31,1.04,-0.92,0.07
31.32,1.09,-0.92,0.11
31.32,1.15,-0.90,0.15
31.32,1.21,-0.88,0.20
31.32,1.27,-0.85,0.24
31.33,1.34,-0.82,0.29
31.33,1.40,-0.80,0.33
31.33,1.46,-0.78,0.36
31.33,1.53,-0.76,0.40
31.34,1.59,-0.75,0.43
31.34,1.66,-0.73,0.47
31.34,1.72,-0.73,0.50
31.34,1.79,-0.72,0.53
31.34,1.85,-0.72,0.55
31.35,1.91,-0.72,0.58
31.35,1.97,-0.72,0.61
31.35,2.03,-0.72,0.64
31.35,2.08,-0.73,0.66
31.36,2.12,-0.75,0.67
31.36,2.17,-0.77,0.68
31.36,2.21,-0.80,0.69
31.36,2.26,-0.81,0.69
31.37,2.31,-0.83,0.69
31.37,2.36,-0.84,0.69
31.37,2.40,-0.86,0.69
31.37,2.45,-0.87,0.69
31.37,2.49,-0.88,0.69
31.38,2.54,-0.89,0.68
31.38,2.57,-0.90,0.68
31.38,2.61,-0.90,0.68
31.38,2.64,-0.90,0.68
31.39,2.67,-0.89,0.67
31.39,2.70,-0.86,0.67
31.39,2.73,-0.80,0.66
31.39,2.77,-0.73,0.64
31.40,2.80,-0.65,0.64
31.40,2.83,-0.56,0.63
31.40,2.85,-0.47,0.62
31.40,2.87,-0.40,0.62
31.40,2.87,-0.33,0.61
31.41,2.85,-0.27,0.62
31.41,2.83,-0.22,0.62
31.41,2.80,-0.17,0.63
31.41,2.77,-0.12,0.64
31.42,2.73,-0.08,0.65
31.42,2.70,-0.05,0.66
31.42,2.66,-0.02,0.67
31.42,2.62,0.00,0.68
31.43,2.58,0.02,0.69
31.43,2.55,0.05,0.71
31.43,2.52,0.07,0.73
31.43,2.50,0.11,0.75
31.43,2.47,0.15,0.78
31.44,2.45,0.19,0.82
31.44,2.43,0.24,0.85
31.44,2.41,0.30,0.88
31.44,2.39,0.37,0.91
31.45,2.37,0.44,0.93
31.45,2.35,0.51,0.96
31.45,2.32,0.58,0.98
31.45,2.29,0.64,0.99
31.46,2.25,0.70,1.01
31.46,2.21,0.76,1.03
31.46,2.17,0.80,1.04
31.46,2.13,0.84,1.07
31.46,2.08,0.88,1.09
31.47,2.04,0.93,1.12
31.47,2.00,0.97,1.14
31.47,1.96,1.02,1.16
31.47,1.92,1.07,1.18
31.48,1.88,1.13,1.20
31.48,1.84,1.17,1.22
31.48,1.80,1.21,1.23
31.48,1.77,1.24,1.24
31.49,1.75,1.26,1.24
31.49,1.73,1.27,1.24
31.49,1.71,1.27,1.24
31.49,1.70,1.24,1.24
31.49,1.69,1.18,1.23
31.50,1.67,1.10,1.23
31.50,1.66,1.00,1.22
31.50,1.63,0.88,1.21
31.50,1.59,0.73,1.21
31.51,1.52,0.53,1.21
31.51,1.45,0.32,1.23
31.51,1.38,0.13,1.26
31.51,1.32,-0.02,1.29
31.51,1.27,-0.14,1.32
31.52,1.23,-0.21,1.34
31.52,1.19,-0.24,1.36
31.52,1.15,-0.24,1.36
31.52,1.12,-0.22,1.36
31.53,1.07,-0.20,1.35
31.53,1.03,-0.16,1.34
31.53,0.99,-0.13,1.32
31.53,0.95,-0.09,1.32
31.54,0.92,-0.06,1.30
31.54,0.89,-0.05,1.29
31.54,0.88,-0.07,1.27
31.54,0.88,-0.11,1.26
31.54,0.89,-0.15,1.24
31.55,0.89,-0.19,1.22
31.55,0.90,-0.23,1.20
31.55,0.91,-0.26,1.18
31.55,0.92,-0.29,1.17
31.56,0.93,-0.31,1.15
31.56,0.93,-0.36,1.12
31.56,0.94,-0.41,1.08
31.56,0.94,-0.45,1.05
31.57,0.94,-0.49,1.02
31.57,0.93,-0.51,0.99
31.57,0.92,-0.53,0.97
31.57,0.90,-0.54,0.95
31.57,0.88,-0.56,0.93
31.58,0.86,-0.57,0.91
31.58,0.83,-0.57,0.89
31.58,0.80,-0.57,0.87
31.58,0.77,-0.57,0.86
31.59,0.73,-0.57,0.84
31.59,0.70,-0.59,0.82
31.59,0.66,-0.61,0.80
31.59,0.63,-0.64,0.77
31.60,0.59,-0.66,0.75
31.60,0.55,-0.69,0.72
31.60,0.51,-0.70,0.70
31.60,0.47,-0.72,0.68
31.60,0.42,-0.73,0.67
31.61,0.38,-0.74,0.65
31.61,0.34,-0.75,0.63
31.61,0.30,-0.77,0.61
31.61,0.26,-0.78,0.59
31.62,0.23,-0.78,0.58
31.62,0.19,-0.79,0.56
31.62,0.15,-0.79,0.54
31.62,0.11,-0.80,0.51
31.63,0.07,-0.81,0.49
31.63,0.03,-0.81,0.46
31.63,-0.01,-0.80,0.43
31.63,-0.04,-0.78,0.40
31.63,-0.07,-0.77,0.37
31.64,-0.11,-0.76,0.33
31.64,-0.15,-0.74,0.29
31.64,-0.18,-0.73,0.25
31.64,-0.21,-0.72,0.20
31.65,-0.25,-0.72,0.16
31.65,-0.28,-0.71,0.11
31.65,-0.32,-0.70,0.06
31.65,-0.36,-0.70,0.02
31.66,-0.39,-0.70,-0.03
31.66,-0.43,-0.70,-0.08
31.66,-0.47,-0.70,-0.13
31.66,-0.51,-0.71,-0.18
31.66,-0.55,-0.71,-0.23
31.67,-0.59,-0.72,-0.27
31.67,-0.63,-0.72,-0.32
31.67,-0.67,-0.73,-0.37
31.67,-0.71,-0.74,-0.41
31.68,-0.75,-0.74,-0.46
31.68,-0.80,-0.75,-0.51
31.68,-0.84,-0.77,-0.55
31.68,-0.88,-0.79,-0.59
31.69,-0.93,-0.81,-0.63
31.69,-0.98,-0.82,-0.67
31.69,-1.03,-0.85,-0.70
31.69,-1.08,-0.89,-0.73
31.69,-1.14,-0.92,-0.76
31.70,-1.19,-0.96,-0.79
31.70,-1.25,-1.01,-0.81
31.70,-1.31,-1.05,-0.83
31.70,-1.36,-1.10,-0.85
31.71,-1.41,-1.16,-0.86
31.71,-1.46,-1.22,-0.87
31.71,-1.50,-1.28,-0.89
31.71,-1.55,-1.35,-0.90
31.71,-1.58,-1.42,-0.91
31.72,-1.61,-1.49,-0.92
31.72,-1.63,-1.56,-0.93
31.72,-1.65,-1.63,-0.94
31.72,-1.66,-1.70,-0.94
31.73,-1.66,-1.76,-0.95
31.73,-1.66,-1.82,-0.95
31.73,-1.65,-1.87,-0.94
31.73,-1.64,-1.91,-0.93
31.74,-1.61,-1.94,-0.92
31.74,-1.58,-1.95,-0.91
31.74,-1.53,-1.95,-0.89
31.74,-1.46,-1.94,-0.86
31.74,-1.37,-1.91,-0.84
31.75,-1.26,-1.85,-0.80
31.75,-1.13,-1.78,-0.76
31.75,-0.97,-1.68,-0.72
31.75,-0.79,-1.56,-0.68
31.76,-0.60,-1.44,-0.63
31.76,-0.39,-1.30,-0.57
31.76,-0.17,-1.15,-0.51
31.76,0.05,-1.00,-0.43
31.77,0.26,-0.85,-0.34
31.77,0.47,-0.72,-0.24
31.77,0.66,-0.63,-0.12
31.77,0.81,-0.53,0.01
31.77,0.95,-0.48,0.15
31.78,1.05,-0.49,0.29
31.78,1.13,-0.55,0.42
31.78,1.18,-0.72,0.53
31.78,1.23,-1.05,0.61
31.79,1.26,-1.32,0.66
31.79,1.27,-1.52,0.70
31.79,1.26,-1.61,0.72
31.79,1.23,-1.63,0.75
31.80,1.19,-1.66,0.78
31.80,1.14,-1.72,0.82
31.80,1.09,-1.77,0.86
31.80,1.03,-1.80,0.91
31.80,0.96,-1.83,0.97
31.81,0.90,-1.86,1.02
31.81,0.83,-1.90,1.07
31.81,0.78,-1.94,1.11
31.81,0.73,-1.96,1.15
31.82,0.70,-1.98,1.16
31.82,0.68,-1.99,1.16
31.82,0.67,-1.99,1.13
31.82,0.67,-1.98,1.09
31.83,0.69,-1.96,1.04
31.83,0.72,-1.92,0.98
31.83,0.76,-1.85,0.93
31.83,0.82,-1.74,0.88
31.83,0.89,-1.59,0.84
31.84,0.96,-1.38,0.80
31.84,1.02,-1.13,0.78
31.84,1.05,-0.86,0.75
31.84,1.03,-0.57,0.72
31.85,0.97,-0.31,0.68
31.85,0.85,-0.07,0.62
31.85,0.69,0.11,0.55
31.85,0.53,0.25,0.46
31.86,0.36,0.33,0.35
31.86,0.21,0.36,0.23
31.86,0.08,0.36,0.08
31.86,-0.02,0.34,-0.09
31.86,-0.09,0.30,-0.26
31.87,-0.13,0.22,-0.43
31.87,-0.12,0.07,-0.59
31.87,-0.04,-0.16,-0.74
31.87,0.10,-0.45,-0.87
31.88,0.34,-0.79,-0.99
31.88,0.66,-1.11,-1.10
31.88,1.04,-1.36,-1.20
31.88,1.38,-1.45,-1.26
31.89,1.67,-1.40,-1.24
31.89,1.85,-1.24,-1.16
31.89,1.93,-1.04,-1.03
31.89,1.89,-0.84,-0.87
31.89,1.78,-0.67,-0.69
31.90,1.62,-0.55,-0.51
31.90,1.45,-0.44,-0.36
31.90,1.29,-0.32,-0.26
31.90,1.15,-0.20,-0.20
31.91,1.02,-0.06,-0.17
31.91,0.90,0.09,-0.16
31.91,0.79,0.24,-0.15
31.91,0.67,0.40,-0.14
31.91,0.56,0.55,-0.13
31.92,0.44,0.70,-0.11
31.92,0.30,0.84,-0.08
31.92,0.14,0.97,-0.04
31.92,-0.04,1.08,-0.01
31.93,-0.22,1.18,0.02
31.93,-0.41,1.27,0.02
31.93,-0.58,1.38,0.00
31.93,-0.73,1.49,-0.05
31.94,-0.86,1.60,-0.11
31.94,-0.97,1.69,-0.19
31.94,-1.06,1.77,-0.27
31.94,-1.13,1.84,-0.35
31.94,-1.17,1.88,-0.42
31.95,-1.21,1.91,-0.49
31.95,-1.23,1.92,-0.55
31.95,-1.24,1.90,-0.61
31.95,-1.25,1.88,-0.66
31.96,-1.26,1.85,-0.71
31.96,-1.28,1.83,-0.75
31.96,-1.30,1.81,-0.78
31.96,-1.32,1.81,-0.79
31.97,-1.36,1.81,-0.80
31.97,-1.39,1.84,-0.79
31.97,-1.44,1.88,-0.80
31.97,-1.48,1.94,-0.80
31.97,-1.52,2.00,-0.81
31.98,-1.55,2.06,-0.82
31.98,-1.57,2.12,-0.84
31.98,-1.59,2.15,-0.86
31.98,-1.61,2.17,-0.89
31.99,-1.61,2.16,-0.91
31.99,-1.61,2.13,-0.93
31.99,-1.61,2.08,-0.94
31.99,-1.59,2.01,-0.95
32.00,-1.58,1.94,-0.96
32.00,-1.55,1.86,-0.96
32.00,-1.53,1.78,-0.96
32.00,-1.49,1.70,-0.94
32.00,-1.46,1.60,-0.93
32.01,-1.43,1.50,-0.90
32.01,-1.40,1.40,-0.87
32.01,-1.38,1.29,-0.83
32.01,-1.35,1.18,-0.78
32.02,-1.32,1.06,-0.72
32.02,-1.30,0.95,-0.66
32.02,-1.29,0.84,-0.59
32.02,-1.28,0.72,-0.52
32.03,-1.28,0.61,-0.45
32.03,-1.29,0.52,-0.38
32.03,-1.30,0.45,-0.30
32.03,-1.33,0.41,-0.23
32.03,-1.36,0.38,-0.16
32.04,-1.39,0.35,-0.11
32.04,-1.43,0.34,-0.06
32.04,-1.46,0.32,-0.02
32.04,-1.50,0.31,0.01
32.05,-1.54,0.32,0.04
32.05,-1.57,0.32,0.07
32.05,-1.59,0.33,0.09
32.05,-1.60,0.36,0.11
32.06,-1.61,0.38,0.12
32.06,-1.62,0.37,0.12
32.06,-1.62,0.35,0.12
32.06,-1.62,0.35,0.12
32.06,-1.62,0.37,0.11
32.07,-1.61,0.40,0.09
32.07,-1.60,0.43,0.07
32.07,-1.60,0.45,0.04
32.07,-1.59,0.46,0.01
32.08,-1.57,0.44,-0.02
32.08,-1.56,0.40,-0.04
32.08,-1.55,0.34,-0.07
32.08,-1.54,0.27,-0.10
32.09,-1.54,0.19,-0.12
32.09,-1.54,0.11,-0.15
32.09,-1.53,0.04,-0.17
32.09,-1.52,-0.03,-0.19
32.09,-1.51,-0.09,-0.21
32.10,-1.51,-0.12,-0.24
32.10,-1.50,-0.15,-0.26
32.10,-1.50,-0.17,-0.27
32.10,-1.50,-0.18,-0.29
32.11,-1.50,-0.18,-0.30
32.11,-1.51,-0.19,-0.29
32.11,-1.53,-0.21,-0.29
32.11,-1.55,-0.23,-0.29
32.12,-1.57,-0.24,-0.30
32.12,-1.58,-0.26,-0.31
32.12,-1.57,-0.26,-0.31
32.12,-1.57,-0.24,-0.32
32.12,-1.54,-0.21,-0.33
32.13,-1.51,-0.16,-0.33
32.13,-1.48,-0.09,-0.34
32.13,-1.45,-0.01,-0.33
32.13,-1.41,0.06,-0.32
32.14,-1.38,0.12,-0.32
32.14,-1.35,0.18,-0.30
32.14,-1.31,0.25,-0.29
32.14,-1.29,0.31,-0.28
32.14,-1.27,0.37,-0.28
32.15,-1.26,0.40,-0.28
32.15,-1.24,0.44,-0.28
32.15,-1.22,0.49,-0.27
32.15,-1.21,0.54,-0.25
32.16,-1.20,0.60,-0.24
32.16,-1.19,0.67,-0.22
32.16,-1.18,0.73,-0.20
32.16,-1.18,0.78,-0.19
32.17,-1.18,0.84,-0.17
32.17,-1.17,0.90,-0.16
32.17,-1.18,0.96,-0.15
32.17,-1.18,1.00,-0.14
32.17,-1.18,1.03,-0.14
32.18,-1.19,1.06,-0.13
32.18,-1.19,1.09,-0.12
32.18,-1.20,1.11,-0.12
32.18,-1.21,1.13,-0.12
32.19,-1.21,1.14,-0.13
32.19,-1.20,1.15,-0.13
32.19,-1.18,1.15,-0.14
32.19,-1.15,1.13,-0.14
32.20,-1.12,1.11,-0.14
32.20,-1.09,1.08,-0.14
32.20,-1.05,1.04,-0.15
32.20,-1.01,0.99,-0.15
32.20,-0.97,0.94,-0.15
32.21,-0.93,0.89,-0.14
32.21,-0.89,0.84,-0.14
32.21,-0.86,0.79,-0.14
32.21,-0.84,0.74,-0.14
32.22,-0.82,0.69,-0.14
32.22,-0.81,0.66,-0.14
32.22,-0.81,0.62,-0.15
32.22,-0.80,0.59,-0.16
32.23,-0.80,0.56,-0.17
32.23,-0.80,0.53,-0.18
32.23,-0.81,0.51,-0.19
32.23,-0.81,0.50,-0.20
32.23,-0.82,0.48,-0.21
32.24,-0.82,0.47,-0.22
32.24,-0.83,0.46,-0.23
32.24,-0.83,0.46,-0.25
32.24,-0.83,0.48,-0.25
32.25,-0.83,0.49,-0.27
32.25,-0.82,0.51,-0.28
32.25,-0.82,0.53,-0.29
32.25,-0.80,0.55,-0.30
32.26,-0.79,0.58,-0.32
32.26,-0.78,0.60,-0.33
32.26,-0.76,0.61,-0.34
32.26,-0.75,0.63,-0.36
32.26,-0.73,0.64,-0.37
32.27,-0.71,0.65,-0.39
32.27,-0.70,0.67,-0.40
32.27,-0.68,0.68,-0.42
32.27,-0.67,0.69,-0.44
32.28,-0.66,0.70,-0.46
32.28,-0.64,0.72,-0.48
32.28,-0.63,0.72,-0.50
32.28,-0.61,0.73,-0.51
32.29,-0.60,0.74,-0.53
32.29,-0.60,0.73,-0.55
32.29,-0.59,0.73,-0.57
32.29,-0.59,0.73,-0.59
32.29,-0.59,0.71,-0.61
32.30,-0.60,0.69,-0.62
32.30,-0.60,0.67,-0.63
32.30,-0.61,0.65,-0.65
32.30,-0.62,0.62,-0.65
32.31,-0.63,0.59,-0.66
32.31,-0.64,0.56,-0.66
32.31,-0.65,0.53,-0.66
32.31,-0.65,0.50,-0.66
32.32,-0.67,0.46,-0.65
32.32,-0.67,0.44,-0.65
32.32,-0.69,0.40,-0.64
32.32,-0.70,0.37,-0.63
32.32,-0.71,0.36,-0.62
32.33,-0.72,0.34,-0.60
32.33,-0.73,0.34,-0.58
32.33,-0.74,0.33,-0.56
32.33,-0.75,0.33,-0.54
32.34,-0.76,0.33,-0.53
32.34,-0.76,0.33,-0.51
32.34,-0.76,0.32,-0.50
32.34,-0.76,0.33,-0.48
32.34,-0.75,0.33,-0.47
32.35,-0.74,0.34,-0.45
32.35,-0.73,0.35,-0.44
32.35,-0.71,0.36,-0.43
32.35,-0.69,0.38,-0.42
32.36,-0.67,0.39,-0.40
32.36,-0.64,0.41,-0.40
32.36,-0.60,0.43,-0.39
32.36,-0.58,0.44,-0.38
32.37,-0.54,0.46,-0.38
32.37,-0.51,0.47,-0.38
32.37,-0.47,0.48,-0.38
32.37,-0.44,0.48,-0.38
32.37,-0.41,0.48,-0.37
32.38,-0.38,0.47,-0.37
32.38,-0.36,0.46,-0.37
32.38,-0.34,0.45,-0.37
32.38,-0.32,0.43,-0.36
32.39,-0.30,0.41,-0.36
32.39,-0.29,0.39,-0.36
32.39,-0.29,0.36,-0.35
32.39,-0.29,0.34,-0.34
32.40,-0.30,0.32,-0.33
32.40,-0.31,0.29,-0.32
32.40,-0.32,0.28,-0.31
32.40,-0.33,0.26,-0.30
32.40,-0.34,0.26,-0.29
32.41,-0.35,0.25,-0.28
32.41,-0.36,0.25,-0.27
32.41,-0.36,0.26,-0.27
32.41,-0.36,0.26,-0.26
32.42,-0.36,0.28,-0.26
32.42,-0.35,0.30,-0.26
32.42,-0.34,0.32,-0.26
32.42,-0.33,0.34,-0.26
32.43,-0.32,0.36,-0.26
32.43,-0.30,0.38,-0.26
32.43,-0.28,0.40,-0.25
32.43,-0.27,0.41,-0.25
32.43,-0.25,0.42,-0.24
32.44,-0.23,0.43,-0.23
32.44,-0.23,0.44,-0.21
32.44,-0.22,0.44,-0.20
32.44,-0.21,0.45,-0.18
32.45,-0.22,0.45,-0.16
32.45,-0.22,0.46,-0.14
32.45,-0.23,0.46,-0.13
32.45,-0.25,0.47,-0.11
32.46,-0.26,0.47,-0.09
32.46,-0.27,0.48,-0.08
32.46,-0.29,0.49,-0.06
32.46,-0.30,0.49,-0.05
32.46,-0.31,0.50,-0.05
32.47,-0.31,0.50,-0.04
32.47,-0.32,0.51,-0.04
32.47,-0.31,0.51,-0.04
32.47,-0.30,0.51,-0.04
32.48,-0.28,0.50,-0.04
32.48,-0.26,0.49,-0.05
32.48,-0.23,0.48,-0.05
32.48,-0.20,0.46,-0.07
32.49,-0.16,0.44,-0.08
32.49,-0.12,0.42,-0.09
32.49,-0.08,0.40,-0.10
32.49,-0.03,0.38,-0.12
32.49,0.02,0.34,-0.13
32.50,0.07,0.31,-0.14
32.50,0.12,0.27,-0.15
32.50,0.17,0.22,-0.15
32.50,0.22,0.17,-0.16
32.51,0.27,0.12,-0.16
32.51,0.31,0.08,-0.16
32.51,0.35,0.05,-0.17
32.51,0.38,0.02,-0.17
32.52,0.41,-0.01,-0.18
32.52,0.44,-0.05,-0.18
32.52,0.46,-0.09,-0.18
32.52,0.50,-0.14,-0.18
32.52,0.53,-0.19,-0.17
32.53,0.57,-0.26,-0.17
32.53,0.62,-0.32,-0.15
32.53,0.66,-0.39,-0.14
32.53,0.72,-0.46,-0.13
32.54,0.77,-0.53,-0.11
32.54,0.83,-0.61,-0.09
32.54,0.89,-0.69,-0.08
32.54,0.95,-0.76,-0.06
32.54,1.01,-0.83,-0.03
32.55,1.07,-0.90,0.00
32.55,1.13,-0.96,0.04
32.55,1.20,-1.02,0.07
32.55,1.26,-1.07,0.12
32.56,1.32,-1.11,0.16
32.56,1.39,-1.15,0.21
32.56,1.45,-1.17,0.25
32.56,1.52,-1.19,0.30
32.57,1.58,-1.20,0.35
32.57,1.66,-1.19,0.41
32.57,1.72,-1.18,0.46
32.57,1.80,-1.17,0.51
32.57,1.86,-1.16,0.56
32.58,1.93,-1.14,0.61
32.58,1.98,-1.12,0.65
32.58,2.04,-1.09,0.69
32.58,2.09,-1.07,0.73
32.59,2.13,-1.05,0.76
32.59,2.16,-1.02,0.79
32.59,2.20,-0.99,0.81
32.59,2.23,-0.96,0.82
32.60,2.27,-0.92,0.84
32.60,2.30,-0.88,0.85
32.60,2.33,-0.84,0.86
32.60,2.37,-0.81,0.86
32.60,2.40,-0.78,0.86
32.61,2.42,-0.77,0.87
32.61,2.44,-0.75,0.87
32.61,2.46,-0.76,0.87
32.61,2.46,-0.76,0.87
32.62,2.47,-0.74,0.86
32.62,2.47,-0.71,0.86
32.62,2.48,-0.66,0.86
32.62,2.48,-0.58,0.86
32.63,2.49,-0.48,0.86
32.63,2.49,-0.37,0.87
32.63,2.49,-0.24,0.88
32.63,2.49,-0.09,0.90
32.63,2.49,0.06,0.91
32.64,2.48,0.22,0.92
32.64,2.47,0.37,0.92
32.64,2.45,0.50,0.90
32.64,2.42,0.62,0.89
32.65,2.39,0.72,0.87
32.65,2.36,0.81,0.85
32.65,2.32,0.89,0.83
32.65,2.29,0.97,0.81
32.66,2.25,1.05,0.80
32.66,2.21,1.10,0.80
32.66,2.17,1.15,0.80
32.66,2.13,1.17,0.81
32.66,2.08,1.19,0.82
32.67,2.04,1.20,0.83
32.67,2.01,1.19,0.84
32.67,1.98,1.17,0.84
32.67,1.97,1.15,0.84
32.68,1.97,1.12,0.84
32.68,1.97,1.08,0.84
32.68,1.97,1.02,0.84
32.68,1.98,0.96,0.84
32.69,1.98,0.90,0.86
32.69,1.98,0.84,0.88
32.69,1.98,0.79,0.90
32.69,1.97,0.74,0.93
32.69,1.96,0.71,0.95
32.70,1.93,0.69,0.96
32.70,1.91,0.68,0.98
32.70,1.88,0.68,0.99
32.70,1.84,0.68,1.01
32.71,1.81,0.69,1.03
32.71,1.77,0.70,1.04
32.71,1.73,0.71,1.05
32.71,1.70,0.72,1.06
32.72,1.66,0.73,1.07
32.72,1.62,0.71,1.06
32.72,1.57,0.66,1.06
32.72,1.52,0.57,1.06
32.72,1.44,0.43,1.07
32.73,1.36,0.24,1.09
32.73,1.27,0.05,1.14
32.73,1.19,-0.08,1.21
32.73,1.13,-0.16,1.29
32.74,1.08,-0.19,1.37
32.74,1.04,-0.19,1.45
32.74,1.01,-0.18,1.52
32.74,0.99,-0.18,1.58
32.74,0.97,-0.19,1.62
32.75,0.97,-0.21,1.64
32.75,0.98,-0.24,1.65
32.75,1.00,-0.27,1.64
32.75,1.03,-0.32,1.63
32.76,1.06,-0.39,1.61
32.76,1.09,-0.47,1.58
32.76,1.12,-0.55,1.55
32.76,1.14,-0.62,1.51
32.77,1.16,-0.67,1.46
32.77,1.17,-0.70,1.42
32.77,1.17,-0.71,1.37
32.77,1.16,-0.72,1.33
32.77,1.14,-0.72,1.28
32.78,1.12,-0.74,1.24
32.78,1.10,-0.76,1.20
32.78,1.08,-0.78,1.16
32.78,1.05,-0.82,1.12
32.79,1.03,-0.86,1.09
32.79,1.01,-0.91,1.05
32.79,0.98,-0.96,1.02
32.79,0.95,-1.01,0.99
32.80,0.92,-1.05,0.97
32.80,0.88,-1.07,0.95
32.80,0.84,-1.09,0.93
32.80,0.80,-1.10,0.91
32.80,0.75,-1.10,0.89
32.81,0.70,-1.08,0.87
32.81,0.66,-1.06,0.86
32.81,0.61,-1.04,0.84
32.81,0.58,-1.02,0.81
32.82,0.54,-1.02,0.79
32.82,0.52,-1.03,0.77
32.82,0.49,-1.04,0.75
32.82,0.48,-1.05,0.74
32.83,0.46,-1.07,0.72
32.83,0.44,-1.08,0.71
32.83,0.41,-1.10,0.70
32.83,0.39,-1.12,0.69
32.83,0.36,-1.13,0.68
32.84,0.33,-1.13,0.67
32.84,0.30,-1.14,0.66
32.84,0.27,-1.14,0.64
32.84,0.24,-1.14,0.63
32.85,0.21,-1.14,0.61
32.85,0.18,-1.14,0.60
32.85,0.15,-1.15,0.58
32.85,0.11,-1.20,0.55
32.86,0.08,-1.29,0.52
32.86,0.04,-1.38,0.49
32.86,0.00,-1.43,0.45
32.86,-0.04,-1.42,0.42
32.86,-0.07,-1.36,0.39
32.87,-0.11,-1.31,0.36
32.87,-0.14,-1.31,0.33
32.87,-0.17,-1.25,0.29
32.87,-0.20,-1.14,0.26
32.88,-0.22,-1.03,0.23
32.88,-0.25,-0.92,0.19
32.88,-0.28,-0.85,0.15
32.88,-0.30,-0.81,0.10
32.89,-0.33,-0.79,0.05
32.89,-0.36,-0.79,0.01
32.89,-0.38,-0.80,-0.04
32.89,-0.41,-0.82,-0.08
32.89,-0.44,-0.84,-0.12
32.90,-0.47,-0.85,-0.16
32.90,-0.50,-0.87,-0.19
32.90,-0.53,-0.88,-0.22
32.90,-0.56,-0.89,-0.26
32.91,-0.59,-0.90,-0.29
32.91,-0.63,-0.91,-0.32
32.91,-0.67,-0.91,-0.35
32.91,-0.70,-0.92,-0.38
32.92,-0.74,-0.92,-0.41
32.92,-0.77,-0.93,-0.44
32.92,-0.81,-0.93,-0.47
32.92,-0.84,-0.94,-0.50
32.92,-0.88,-0.94,-0.53
32.93,-0.92,-0.95,-0.55
32.93,-0.96,-0.96,-0.57
32.93,-1.00,-0.98,-0.60
32.93,-1.04,-0.99,-0.62
32.94,-1.08,-1.01,-0.64
32.94,-1.12,-1.03,-0.66
32.94,-1.16,-1.05,-0.68
32.94,-1.19,-1.07,-0.70
32.95,-1.22,-1.10,-0.73
32.95,-1.24,-1.12,-0.75
32.95,-1.26,-1.14,-0.77
32.95,-1.28,-1.16,-0.79
32.95,-1.29,-1.19,-0.82
32.96,-1.29,-1.21,-0.84
32.96,-1.29,-1.23,-0.87
32.96,-1.28,-1.24,-0.89
32.96,-1.27,-1.26,-0.91
32.97,-1.24,-1.28,-0.93
32.97,-1.21,-1.29,-0.95
32.97,-1.18,-1.31,-0.96
32.97,-1.14,-1.32,-0.98
32.97,-1.10,-1.33,-0.99
32.98,-1.05,-1.34,-0.99
32.98,-1.01,-1.35,-0.99
32.98,-0.95,-1.36,-0.98
32.98,-0.89,-1.37,-0.97
32.99,-0.82,-1.39,-0.95
32.99,-0.74,-1.42,-0.92
32.99,-0.66,-1.46,-0.89
32.99,-0.56,-1.50,-0.86
33.00,-0.45,-1.52,-0.82
33.00,-0.33,-1.54,-0.78
33.00,-0.19,-1.53,-0.73
33.00,-0.05,-1.52,-0.67
33.00,0.10,-1.50,-0.62
33.01,0.24,-1.47,-0.56
33.01,0.37,-1.44,-0.49
33.01,0.50,-1.41,-0.40
33.01,0.60,-1.39,-0.30
33.02,0.69,-1.37,-0.20
33.02,0.76,-1.35,-0.08
33.02,0.80,-1.33,0.04
33.02,0.82,-1.32,0.16
33.03,0.81,-1.31,0.29
33.03,0.79,-1.31,0.41
33.03,0.75,-1.30,0.54
33.03,0.70,-1.29,0.65
33.03,0.64,-1.28,0.76
33.04,0.58,-1.28,0.85
33.04,0.52,-1.31,0.92
33.04,0.46,-1.36,0.99
33.04,0.42,-1.44,1.04
33.05,0.38,-1.55,1.08
33.05,0.37,-1.66,1.11
33.05,0.36,-1.78,1.14
33.05,0.36,-1.88,1.16
33.06,0.37,-1.97,1.18
33.06,0.38,-2.02,1.19
33.06,0.40,-2.06,1.19
33.06,0.42,-2.08,1.19
33.06,0.44,-2.08,1.18
33.07,0.47,-2.07,1.16
33.07,0.50,-2.03,1.13
33.07,0.54,-1.98,1.10
33.07,0.58,-1.93,1.06
33.08,0.63,-1.85,1.01
33.08,0.67,-1.76,0.96
33.08,0.71,-1.65,0.92
33.08,0.75,-1.52,0.89
33.09,0.77,-1.35,0.86
33.09,0.77,-1.17,0.85
33.09,0.75,-0.99,0.83
33.09,0.70,-0.82,0.81
33.09,0.64,-0.68,0.78
33.10,0.57,-0.58,0.74
33.10,0.50,-0.53,0.68
33.10,0.45,-0.51,0.60
33.10,0.42,-0.52,0.49
33.11,0.41,-0.54,0.37
33.11,0.43,-0.55,0.24
33.11,0.49,-0.58,0.10
33.11,0.58,-0.62,-0.03
33.12,0.70,-0.71,-0.15
33.12,0.83,-0.84,-0.24
33.12,0.96,-1.01,-0.30
33.12,1.08,-1.21,-0.34
33.12,1.18,-1.41,-0.33
33.13,1.25,-1.62,-0.30
33.13,1.29,-1.79,-0.24
33.13,1.30,-1.91,-0.16
33.13,1.29,-1.98,-0.06
33.14,1.26,-2.00,0.06
33.14,1.23,-1.97,0.19
33.14,1.19,-1.89,0.30
33.14,1.13,-1.77,0.39
33.15,1.07,-1.62,0.45
33.15,1.00,-1.45,0.49
33.15,0.90,-1.26,0.50
33.15,0.79,-1.05,0.50
33.15,0.66,-0.83,0.49
33.16,0.52,-0.59,0.47
33.16,0.36,-0.36,0.46
33.16,0.20,-0.13,0.45
33.16,0.04,0.11,0.43
33.17,-0.12,0.35,0.41
33.17,-0.28,0.59,0.39
33.17,-0.44,0.83,0.36
33.17,-0.60,1.06,0.33
33.17,-0.76,1.27,0.29
33.18,-0.90,1.47,0.26
33.18,-1.04,1.65,0.22
33.18,-1.17,1.82,0.17
33.18,-1.28,1.98,0.13
33.19,-1.37,2.13,0.08
33.19,-1.43,2.27,0.03
33.19,-1.48,2.39,-0.02
33.19,-1.51,2.51,-0.08
33.20,-1.52,2.61,-0.12
33.20,-1.53,2.71,-0.17
33.20,-1.53,2.82,-0.21
33.20,-1.52,2.92,-0.24
33.20,-1.51,3.02,-0.28
33.21,-1.51,3.11,-0.31
33.21,-1.50,3.19,-0.35
33.21,-1.49,3.25,-0.40
33.21,-1.47,3.29,-0.45
33.22,-1.46,3.31,-0.50
33.22,-1.45,3.31,-0.54
33.22,-1.44,3.28,-0.59
33.22,-1.43,3.23,-0.62
33.23,-1.42,3.16,-0.66
33.23,-1.41,3.06,-0.68
33.23,-1.40,2.93,-0.71
33.23,-1.40,2.77,-0.73
33.23,-1.40,2.59,-0.75
33.24,-1.40,2.41,-0.77
33.24,-1.39,2.22,-0.79
33.24,-1.38,2.02,-0.81
33.24,-1.36,1.81,-0.82
33.25,-1.34,1.61,-0.82
33.25,-1.32,1.43,-0.83
33.25,-1.30,1.25,-0.83
33.25,-1.27,1.08,-0.82
33.26,-1.23,0.91,-0.81
33.26,-1.20,0.78,-0.80
33.26,-1.16,0.67,-0.78
33.26,-1.13,0.58,-0.77
33.26,-1.10,0.51,-0.77
33.27,-1.09,0.46,-0.77
33.27,-1.07,0.46,-0.77
33.27,-1.07,0.49,-0.78
33.27,-1.07,0.56,-0.79
33.28,-1.08,0.66,-0.80
33.28,-1.10,0.77,-0.80
33.28,-1.12,0.88,-0.81
33.28,-1.15,0.98,-0.82
33.29,-1.18,1.09,-0.83
33.29,-1.21,1.19,-0.84
33.29,-1.23,1.27,-0.85
33.29,-1.26,1.34,-0.87
33.29,-1.28,1.39,-0.88
33.30,-1.30,1.42,-0.89
33.30,-1.33,1.43,-0.90
33.30,-1.35,1.42,-0.91
33.30,-1.37,1.39,-0.91
33.31,-1.38,1.34,-0.90
33.31,-1.39,1.28,-0.90
33.31,-1.41,1.20,-0.89
33.31,-1.41,1.11,-0.87
33.32,-1.41,1.00,-0.86
33.32,-1.42,0.90,-0.84
33.32,-1.42,0.79,-0.82
33.32,-1.42,0.67,-0.80
33.32,-1.42,0.57,-0.77
33.33,-1.42,0.47,-0.75
33.33,-1.42,0.38,-0.72
33.33,-1.43,0.32,-0.69
33.33,-1.44,0.26,-0.67
33.34,-1.46,0.19,-0.64
33.34,-1.47,0.14,-0.62
33.34,-1.47,0.09,-0.60
33.34,-1.47,0.06,-0.58
33.35,-1.47,0.04,-0.57
33.35,-1.46,0.04,-0.55
33.35,-1.44,0.03,-0.53
33.35,-1.42,0.02,-0.51
33.35,-1.40,0.01,-0.49
33.36,-1.37,0.01,-0.46
33.36,-1.34,0.00,-0.43
33.36,-1.30,0.01,-0.40
33.36,-1.27,0.01,-0.36
33.37,-1.23,-0.01,-0.33
33.37,-1.20,-0.03,-0.29
33.37,-1.17,-0.06,-0.24
33.37,-1.15,-0.10,-0.19
33.37,-1.14,-0.14,-0.14
33.38,-1.14,-0.18,-0.08
33.38,-1.13,-0.23,-0.03
33.38,-1.12,-0.25,0.02
33.38,-1.10,-0.26,0.05
33.39,-1.09,-0.25,0.07
33.39,-1.10,-0.23,0.08
33.39,-1.11,-0.23,0.10
33.39,-1.12,-0.20,0.12
33.40,-1.13,-0.17,0.13
33.40,-1.14,-0.13,0.15
33.40,-1.15,-0.09,0.17
33.40,-1.17,-0.02,0.18
33.40,-1.18,0.05,0.20
33.41,-1.20,0.11,0.21
33.41,-1.21,0.17,0.21
33.41,-1.22,0.23,0.21
33.41,-1.22,0.29,0.20
33.42,-1.22,0.35,0.19
33.42,-1.22,0.41,0.17
33.42,-1.21,0.46,0.15
33.42,-1.20,0.50,0.13
33.43,-1.18,0.52,0.10
33.43,-1.17,0.53,0.07
33.43,-1.15,0.52,0.04
33.43,-1.13,0.51,0.01
33.43,-1.11,0.51,-0.02
33.44,-1.08,0.51,-0.05
33.44,-1.06,0.50,-0.08
33.44,-1.05,0.50,-0.10
33.44,-1.03,0.50,-0.12
33.45,-1.02,0.51,-0.12
33.45,-1.01,0.52,-0.13
33.45,-1.00,0.55,-0.14
33.45,-1.00,0.57,-0.14
33.46,-1.00,0.60,-0.15
33.46,-0.99,0.62,-0.16
33.46,-1.00,0.64,-0.16
33.46,-1.00,0.67,-0.18
33.46,-1.00,0.68,-0.19
33.47,-1.00,0.71,-0.21
33.47,-1.00,0.73,-0.22
33.47,-1.00,0.77,-0.24
33.47,-1.00,0.81,-0.25
33.48,-0.99,0.87,-0.26
33.48,-0.97,0.93,-0.28
33.48,-0.95,0.99,-0.29
33.48,-0.93,1.04,-0.31
33.49,-0.91,1.08,-0.32
33.49,-0.90,1.10,-0.32
33.49,-0.89,1.10,-0.33
33.49,-0.88,1.09,-0.33
33.49,-0.87,1.07,-0.33
33.50,-0.86,1.04,-0.33
33.50,-0.87,1.01,-0.33
33.50,-0.87,0.96,-0.34
33.50,-0.88,0.92,-0.34
33.51,-0.89,0.87,-0.34
33.51,-0.91,0.82,-0.35
33.51,-0.92,0.76,-0.36
33.51,-0.94,0.72,-0.37
33.52,-0.95,0.68,-0.38
33.52,-0.96,0.64,-0.40
33.52,-0.96,0.62,-0.41
33.52,-0.95,0.59,-0.43
33.52,-0.95,0.57,-0.45
33.53,-0.93,0.55,-0.46
33.53,-0.91,0.52,-0.48
33.53,-0.89,0.51,-0.49
33.53,-0.86,0.50,-0.50
33.54,-0.84,0.48,-0.52
33.54,-0.81,0.47,-0.53
33.54,-0.79,0.46,-0.54
33.54,-0.77,0.46,-0.55
33.55,-0.75,0.46,-0.56
33.55,-0.73,0.46,-0.57
33.55,-0.72,0.47,-0.58
33.55,-0.71,0.49,-0.58
33.55,-0.70,0.50,-0.59
33.56,-0.69,0.52,-0.60
33.56,-0.68,0.54,-0.61
33.56,-0.67,0.57,-0.62
33.56,-0.66,0.59,-0.63
33.57,-0.66,0.61,-0.64
33.57,-0.65,0.64,-0.66
33.57,-0.63,0.66,-0.66
33.57,-0.63,0.68,-0.67
33.57,-0.62,0.69,-0.68
33.58,-0.61,0.70,-0.68
33.58,-0.60,0.71,-0.69
33.58,-0.60,0.71,-0.69
33.58,-0.59,0.71,-0.69
33.59,-0.59,0.71,-0.69
33.59,-0.59,0.71,-0.69
33.59,-0.59,0.70,-0.69
33.59,-0.59,0.68,-0.68
33.60,-0.60,0.67,-0.68
33.60,-0.60,0.66,-0.67
33.60,-0.61,0.64,-0.67
33.60,-0.61,0.62,-0.66
33.60,-0.62,0.60,-0.65
33.61,-0.62,0.58,-0.64
33.61,-0.63,0.56,-0.63
33.61,-0.64,0.54,-0.61
33.61,-0.64,0.52,-0.59
33.62,-0.65,0.51,-0.58
33.62,-0.65,0.50,-0.56
33.62,-0.65,0.48,-0.54
33.62,-0.65,0.47,-0.52
33.63,-0.64,0.45,-0.50
33.63,-0.63,0.43,-0.48
33.63,-0.62,0.42,-0.46
33.63,-0.60,0.40,-0.44
33.63,-0.58,0.39,-0.42
33.64,-0.55,0.38,-0.41
33.64,-0.52,0.37,-0.39
33.64,-0.49,0.36,-0.38
33.64,-0.45,0.35,-0.37
33.65,-0.41,0.34,-0.36
33.65,-0.37,0.33,-0.36
33.65,-0.33,0.31,-0.35
33.65,-0.29,0.29,-0.35
33.66,-0.24,0.27,-0.35
33.66,-0.21,0.24,-0.34
33.66,-0.17,0.22,-0.34
33.66,-0.14,0.20,-0.33
33.66,-0.12,0.19,-0.31
33.67,-0.10,0.18,-0.29
33.67,-0.09,0.18,-0.27
33.67,-0.09,0.17,-0.24
33.67,-0.10,0.17,-0.21
33.68,-0.11,0.18,-0.18
33.68,-0.13,0.19,-0.15
33.68,-0.15,0.21,-0.10
33.68,-0.18,0.23,-0.06
33.69,-0.21,0.25,-0.01
33.69,-0.24,0.27,0.03
33.69,-0.27,0.30,0.08
33.69,-0.30,0.32,0.12
33.69,-0.32,0.34,0.16
33.70,-0.35,0.37,0.20
33.70,-0.36,0.39,0.23
33.70,-0.37,0.42,0.25
33.70,-0.37,0.45,0.27
33.71,-0.36,0.49,0.27
33.71,-0.35,0.51,0.28
33.71,-0.32,0.54,0.28
33.71,-0.29,0.56,0.27
33.72,-0.25,0.57,0.26
33.72,-0.20,0.58,0.25
33.72,-0.15,0.59,0.24
33.72,-0.10,0.59,0.23
33.72,-0.05,0.59,0.21
33.73,0.01,0.58,0.19
33.73,0.07,0.57,0.17
33.73,0.12,0.56,0.15
33.73,0.18,0.55,0.13
33.74,0.24,0.53,0.10
33.74,0.29,0.50,0.07
33.74,0.36,0.45,0.05
33.74,0.42,0.38,0.02
33.75,0.49,0.31,0.00
33.75,0.56,0.26,-0.02
33.75,0.62,0.23,-0.04
33.75,0.67,0.21,-0.06
33.75,0.71,0.20,-0.08
33.76,0.74,0.18,-0.11
33.76,0.77,0.14,-0.13
33.76,0.80,0.09,-0.15
33.76,0.83,0.03,-0.16
33.77,0.86,-0.04,-0.16
33.77,0.89,-0.12,-0.15
33.77,0.93,-0.20,-0.12
33.77,0.96,-0.28,-0.09
33.78,1.00,-0.35,-0.05
33.78,1.03,-0.41,0.00
33.78,1.08,-0.46,0.04
33.78,1.12,-0.49,0.09
33.78,1.17,-0.52,0.14
33.79,1.22,-0.53,0.20
33.79,1.27,-0.52,0.25
33.79,1.33,-0.50,0.30
33.79,1.39,-0.47,0.35
33.80,1.46,-0.44,0.40
33.80,1.53,-0.41,0.44
33.80,1.60,-0.37,0.48
33.80,1.67,-0.34,0.51
33.80,1.74,-0.30,0.54
33.81,1.81,-0.28,0.56
33.81,1.88,-0.25,0.59
33.81,1.95,-0.22,0.61
33.81,2.02,-0.19,0.62
33.82,2.08,-0.17,0.63
33.82,2.15,-0.15,0.64
33.82,2.23,-0.14,0.65
33.82,2.31,-0.13,0.66
33.83,2.39,-0.14,0.66
33.83,2.47,-0.14,0.67
33.83,2.55,-0.16,0.67
33.83,2.62,-0.19,0.67
33.83,2.69,-0.23,0.67
33.84,2.74,-0.28,0.67
33.84,2.79,-0.33,0.67
33.84,2.82,-0.39,0.66
33.84,2.84,-0.44,0.65
33.85,2.85,-0.49,0.64
33.85,2.85,-0.53,0.63
33.85,2.84,-0.56,0.62
33.85,2.83,-0.58,0.61
33.86,2.81,-0.58,0.59
33.86,2.80,-0.56,0.58
33.86,2.80,-0.51,0.57
33.86,2.81,-0.44,0.56
33.86,2.81,-0.36,0.55
33.87,2.82,-0.28,0.56
33.87,2.82,-0.19,0.56
33.87,2.82,-0.12,0.57
33.87,2.80,-0.04,0.58
33.88,2.79,0.04,0.58
33.88,2.76,0.11,0.58
33.88,2.73,0.18,0.58
33.88,2.71,0.24,0.58
33.89,2.67,0.30,0.58
33.89,2.65,0.35,0.58
33.89,2.62,0.40,0.59
33.89,2.58,0.46,0.61
33.89,2.55,0.52,0.64
33.90,2.50,0.58,0.66
33.90,2.45,0.63,0.69
33.90,2.41,0.69,0.72
33.90,2.36,0.75,0.74
33.91,2.32,0.80,0.77
33.91,2.28,0.86,0.80
33.91,2.24,0.90,0.83
33.91,2.20,0.95,0.85
33.92,2.16,1.01,0.88
33.92,2.13,1.07,0.90
33.92,2.10,1.12,0.93
33.92,2.07,1.16,0.95
33.92,2.03,1.19,0.98
33.93,2.00,1.22,1.02
33.93,1.96,1.25,1.05
33.93,1.92,1.26,1.09
33.93,1.87,1.26,1.12
33.94,1.83,1.24,1.14
33.94,1.79,1.22,1.16
33.94,1.75,1.19,1.17
33.94,1.70,1.16,1.18
33.95,1.65,1.12,1.18
33.95,1.60,1.07,1.17
33.95,1.54,1.01,1.16
33.95,1.48,0.93,1.15
33.95,1.41,0.81,1.14
33.96,1.33,0.65,1.14
33.96,1.25,0.47,1.16
33.96,1.18,0.30,1.20
33.96,1.13,0.14,1.25
33.97,1.10,0.01,1.30
33.97,1.09,-0.09,1.34
33.97,1.09,-0.18,1.37
33.97,1.09,-0.25,1.39
33.98,1.10,-0.30,1.40
33.98,1.11,-0.33,1.41
33.98,1.12,-0.34,1.42
33.98,1.12,-0.36,1.42
33.98,1.13,-0.37,1.42
33.99,1.14,-0.38,1.41
33.99,1.14,-0.39,1.41
33.99,1.14,-0.42,1.39
33.99,1.14,-0.45,1.37
34.00,1.13,-0.46,1.35
34.00,1.11,-0.44,1.32
34.00,1.09,-0.42,1.29
34.00,1.07,-0.40,1.26
34.00,1.05,-0.39,1.23
34.01,1.04,-0.40,1.20
34.01,1.04,-0.43,1.17
34.01,1.04,-0.48,1.12
34.01,1.05,-0.53,1.07
34.02,1.06,-0.57,1.02
34.02,1.07,-0.61,0.97
34.02,1.07,-0.63,0.92
34.02,1.07,-0.64,0.87
34.03,1.06,-0.66,0.84
34.03,1.05,-0.67,0.81
34.03,1.02,-0.67,0.79
34.03,0.99,-0.68,0.77
34.03,0.95,-0.68,0.75
34.04,0.91,-0.68,0.74
34.04,0.87,-0.68,0.73
34.04,0.83,-0.69,0.72
34.04,0.79,-0.69,0.71
34.05,0.76,-0.70,0.69
34.05,0.72,-0.71,0.67
34.05,0.69,-0.72,0.65
34.05,0.65,-0.73,0.63
34.06,0.62,-0.74,0.61
34.06,0.59,-0.74,0.59
34.06,0.56,-0.74,0.57
34.06,0.52,-0.75,0.56
34.06,0.49,-0.76,0.54
34.07,0.45,-0.77,0.53
34.07,0.41,-0.78,0.52
34.07,0.38,-0.80,0.51
34.07,0.34,-0.80,0.49
34.08,0.29,-0.81,0.48
34.08,0.25,-0.82,0.46
34.08,0.21,-0.82,0.44
34.08,0.16,-0.81,0.43
34.09,0.12,-0.81,0.41
34.09,0.07,-0.81,0.39
34.09,0.02,-0.81,0.37
34.09,-0.02,-0.81,0.34
34.09,-0.07,-0.81,0.32
34.10,-0.11,-0.81,0.29
34.10,-0.15,-0.82,0.26
34.10,-0.20,-0.83,0.22
34.10,-0.24,-0.84,0.19
34.11,-0.28,-0.85,0.15
34.11,-0.32,-0.86,0.11
34.11,-0.36,-0.86,0.07
34.11,-0.40,-0.87,0.03
34.12,-0.45,-0.87,-0.01
34.12,-0.49,-0.88,-0.06
34.12,-0.53,-0.89,-0.10
34.12,-0.57,-0.90,-0.15
34.12,-0.61,-0.90,-0.19
34.13,-0.65,-0.91,-0.23
34.13,-0.69,-0.92,-0.27
34.13,-0.73,-0.92,-0.32
34.13,-0.78,-0.92,-0.36
34.14,-0.82,-0.92,-0.40
34.14,-0.86,-0.92,-0.44
34.14,-0.91,-0.91,-0.47
34.14,-0.95,-0.90,-0.51
34.15,-1.00,-0.90,-0.55
34.15,-1.05,-0.90,-0.58
34.15,-1.10,-0.90,-0.61
34.15,-1.15,-0.90,-0.64
34.15,-1.20,-0.92,-0.66
34.16,-1.26,-0.93,-0.69
34.16,-1.31,-0.96,-0.71
34.16,-1.36,-1.00,-0.72
34.16,-1.41,-1.04,-0.74
34.17,-1.46,-1.08,-0.75
34.17,-1.50,-1.13,-0.76
34.17,-1.54,-1.18,-0.77
34.17,-1.58,-1.24,-0.77
34.18,-1.62,-1.29,-0.78
34.18,-1.65,-1.35,-0.78
34.18,-1.68,-1.41,-0.78
34.18,-1.70,-1.47,-0.78
34.18,-1.72,-1.52,-0.78
34.19,-1.73,-1.56,-0.77
34.19,-1.74,-1.61,-0.77
34.19,-1.74,-1.64,-0.77
34.19,-1.73,-1.67,-0.76
34.20,-1.71,-1.69,-0.76
34.20,-1.68,-1.70,-0.75
34.20,-1.63,-1.71,-0.74
34.20,-1.57,-1.70,-0.73
34.20,-1.49,-1.68,-0.72
34.21,-1.39,-1.65,-0.71
34.21,-1.26,-1.61,-0.69
34.21,-1.12,-1.55,-0.68
34.21,-0.96,-1.49,-0.66
34.22,-0.76,-1.43,-0.64
34.22,-0.56,-1.36,-0.62
34.22,-0.33,-1.28,-0.59
34.22,-0.08,-1.19,-0.55
34.23,0.17,-1.11,-0.50
34.23,0.42,-1.03,-0.44
34.23,0.65,-0.97,-0.37
34.23,0.87,-0.92,-0.30
34.23,1.05,-0.93,-0.20
34.24,1.20,-0.94,-0.09
34.24,1.29,-0.98,0.03
34.24,1.36,-1.04,0.16
34.24,1.38,-1.12,0.28
34.25,1.36,-1.22,0.39
34.25,1.32,-1.33,0.50
34.25,1.26,-1.46,0.58
34.25,1.19,-1.59,0.64
34.26,1.13,-1.73,0.69
34.26,1.07,-1.92,0.72
34.26,1.06,-2.26,0.75
34.26,1.04,-2.52,0.78
34.26,1.02,-2.67,0.83
34.27,0.98,-2.71,0.88
34.27,0.93,-2.68,0.96
34.27,0.88,-2.68,1.03
34.27,0.83,-2.73,1.09
34.28,0.78,-2.73,1.15
34.28,0.73,-2.70,1.20
34.28,0.69,-2.65,1.23
34.28,0.66,-2.58,1.26
34.29,0.65,-2.48,1.27
34.29,0.65,-2.39,1.26
34.29,0.67,-2.30,1.24
34.29,0.70,-2.22,1.19
34.29,0.74,-2.14,1.14
34.30,0.79,-2.07,1.08
34.30,0.84,-1.99,1.00
34.30,0.89,-1.91,0.93
34.30,0.94,-1.83,0.85
34.31,0.97,-1.72,0.78
34.31,0.98,-1.56,0.72
34.31,0.95,-1.36,0.68
34.31,0.88,-1.12,0.64
34.32,0.76,-0.86,0.62
34.32,0.63,-0.61,0.59
34.32,0.47,-0.39,0.55
34.32,0.32,-0.21,0.48
34.32,0.18,-0.09,0.38
34.33,0.08,-0.01,0.25
34.33,0.02,0.04,0.10
34.33,-0.01,0.08,-0.06
34.33,0.00,0.09,-0.21
34.34,0.04,0.07,-0.35
34.34,0.13,0.02,-0.49
34.34,0.26,-0.07,-0.61
34.34,0.42,-0.21,-0.70
34.35,0.61,-0.36,-0.74
34.35,0.81,-0.50,-0.75
34.35,0.98,-0.62,-0.71
34.35,1.11,-0.70,-0.64
34.35,1.20,-0.77,-0.54
34.36,1.23,-0.80,-0.43
34.36,1.21,-0.81,-0.32
34.36,1.15,-0.81,-0.22
34.36,1.09,-0.79,-0.14
34.37,1.01,-0.76,-0.07
34.37,0.93,-0.72,-0.01
34.37,0.85,-0.66,0.03
34.37,0.76,-0.57,0.07
34.38,0.66,-0.47,0.10
34.38,0.55,-0.34,0.11
34.38,0.42,-0.20,0.12
34.38,0.28,-0.05,0.13
34.38,0.12,0.11,0.13
34.39,-0.03,0.28,0.13
34.39,-0.19,0.45,0.12
34.39,-0.34,0.62,0.10
34.39,-0.48,0.80,0.08
34.40,-0.63,0.98,0.05
34.40,-0.76,1.14,0.02
34.40,-0.90,1.30,-0.01
34.40,-1.03,1.45,-0.05
34.40,-1.15,1.57,-0.10
34.41,-1.25,1.68,-0.14
34.41,-1.33,1.78,-0.18
34.41,-1.40,1.89,-0.22
34.41,-1.46,2.00,-0.26
34.42,-1.52,2.11,-0.29
34.42,-1.57,2.23,-0.31
34.42,-1.62,2.34,-0.31
34.42,-1.66,2.44,-0.32
34.43,-1.70,2.54,-0.31
34.43,-1.73,2.64,-0.30
34.43,-1.76,2.74,-0.29
34.43,-1.79,2.84,-0.27
34.43,-1.82,2.93,-0.26
34.44,-1.85,3.01,-0.24
34.44,-1.87,3.06,-0.23
34.44,-1.90,3.10,-0.22
34.44,-1.92,3.13,-0.22
34.45,-1.94,3.15,-0.22
34.45,-1.96,3.17,-0.22
34.45,-1.98,3.18,-0.23
34.45,-1.98,3.18,-0.23
34.46,-1.99,3.17,-0.23
34.46,-1.98,3.13,-0.24
34.46,-1.97,3.09,-0.24
34.46,-1.96,3.04,-0.24
34.46,-1.94,2.98,-0.25
34.47,-1.91,2.91,-0.25
34.47,-1.88,2.84,-0.26
34.47,-1.84,2.77,-0.27
34.47,-1.80,2.69,-0.28
34.48,-1.76,2.60,-0.29
34.48,-1.71,2.49,-0.30
34.48,-1.67,2.38,-0.31
34.48,-1.63,2.26,-0.31
34.49,-1.59,2.14,-0.32
34.49,-1.56,2.02,-0.34
34.49,-1.53,1.92,-0.35
34.49,-1.50,1.81,-0.37
34.49,-1.47,1.70,-0.39
34.50,-1.45,1.61,-0.41
34.50,-1.43,1.54,-0.44
34.50,-1.41,1.48,-0.48
34.50,-1.38,1.44,-0.52
34.51,-1.36,1.41,-0.57
34.51,-1.34,1.40,-0.62
34.51,-1.32,1.38,-0.68
34.51,-1.30,1.36,-0.74
34.52,-1.29,1.35,-0.80
34.52,-1.29,1.33,-0.86
34.52,-1.30,1.31,-0.92
34.52,-1.30,1.27,-0.96
34.52,-1.31,1.22,-1.00
34.53,-1.31,1.14,-1.03
34.53,-1.32,1.05,-1.06
34.53,-1.32,0.95,-1.09
34.53,-1.32,0.86,-1.11
34.54,-1.31,0.74,-1.13
34.54,-1.30,0.62,-1.14
34.54,-1.30,0.51,-1.15
34.54,-1.30,0.41,-1.15
34.55,-1.30,0.32,-1.14
34.55,-1.30,0.23,-1.13
34.55,-1.31,0.13,-1.12
34.55,-1.33,0.04,-1.10
34.55,-1.34,-0.04,-1.08
34.56,-1.37,-0.10,-1.05
34.56,-1.38,-0.14,-1.03
34.56,-1.40,-0.16,-1.00
34.56,-1.42,-0.16,-0.97
34.57,-1.44,-0.16,-0.93
34.57,-1.46,-0.14,-0.88
34.57,-1.47,-0.13,-0.83
34.57,-1.49,-0.12,-0.77
34.58,-1.50,-0.13,-0.70
34.58,-1.49,-0.11,-0.65
34.58,-1.46,-0.05,-0.61
34.58,-1.42,0.01,-0.59
34.58,-1.38,0.09,-0.56
34.59,-1.35,0.16,-0.53
34.59,-1.32,0.23,-0.50
34.59,-1.31,0.27,-0.46
34.59,-1.29,0.31,-0.43
34.60,-1.29,0.33,-0.38
34.60,-1.29,0.34,-0.34
34.60,-1.30,0.34,-0.30
34.60,-1.31,0.32,-0.25
34.61,-1.33,0.31,-0.22
34.61,-1.34,0.30,-0.18
34.61,-1.36,0.31,-0.15
34.61,-1.38,0.32,-0.12
34.61,-1.40,0.34,-0.09
34.62,-1.42,0.36,-0.07
34.62,-1.45,0.41,-0.06
34.62,-1.47,0.47,-0.05
34.62,-1.48,0.52,-0.04
34.63,-1.48,0.54,-0.03
34.63,-1.48,0.55,-0.04
34.63,-1.48,0.58,-0.03
34.63,-1.47,0.60,-0.04
34.63,-1.45,0.61,-0.04
34.64,-1.42,0.60,-0.05
34.64,-1.38,0.58,-0.07
34.64,-1.34,0.55,-0.08
34.64,-1.29,0.53,-0.10
34.65,-1.24,0.51,-0.12
34.65,-1.18,0.51,-0.13
34.65,-1.12,0.51,-0.13
34.65,-1.07,0.52,-0.14
34.66,-1.03,0.51,-0.15
34.66,-0.99,0.50,-0.15
